subj,session,trial,rt,object_response,category,condition,imagename,filename,is_correct,targ_act,max_nontarg_act,decision_margin
alexnet2023_baseline_pgd,1,1,NaN,bicycle,elephant,0.03,0001_nse_dnn_0.03_elephant_10_n02504458_7209.png,n02504458_7209.png,0.0,1.6043737,3.9230447,-1.6395481
alexnet2023_baseline_pgd,1,2,NaN,clock,knife,0.90,0002_nse_dnn_0.90_knife_10_n03041632_82878.png,n03041632_82878.png,0.0,0.9282903,2.3566096,-1.0099742
alexnet2023_baseline_pgd,1,3,NaN,clock,clock,0.00,0003_nse_dnn_0.00_clock_10_n03196217_9231.png,n03196217_9231.png,1.0,10.849789,6.3659124,3.1705794
alexnet2023_baseline_pgd,1,4,NaN,oven,oven,0.00,0004_nse_dnn_0.00_oven_10_n04111531_11026.png,n04111531_11026.png,1.0,2.5515256,2.5013056,0.035510913
alexnet2023_baseline_pgd,1,5,NaN,cat,clock,0.10,0005_nse_dnn_0.10_clock_10_n04548280_1114.png,n04548280_1114.png,0.0,1.1707498,2.0254247,-0.60434645
alexnet2023_baseline_pgd,1,6,NaN,clock,clock,0.03,0006_nse_dnn_0.03_clock_10_n02708093_8100.png,n02708093_8100.png,1.0,6.370037,3.524771,2.011907
alexnet2023_baseline_pgd,1,7,NaN,clock,clock,0.00,0007_nse_dnn_0.00_clock_10_n02708093_3591.png,n02708093_3591.png,1.0,12.412479,5.7791553,4.690469
alexnet2023_baseline_pgd,1,8,NaN,chair,chair,0.00,0008_nse_dnn_0.00_chair_10_n03376595_16202.png,n03376595_16202.png,1.0,4.323563,3.4616566,0.60945994
alexnet2023_baseline_pgd,1,9,NaN,keyboard,bottle,0.60,0009_nse_dnn_0.60_bottle_10_n02823428_3478.png,n02823428_3478.png,0.0,0.6451435,2.1875386,-1.090638
alexnet2023_baseline_pgd,1,10,NaN,knife,dog,0.10,0010_nse_dnn_0.10_dog_10_n02087394_28673.png,n02087394_28673.png,0.0,-0.7277965,1.4754751,-1.5579484
alexnet2023_baseline_pgd,1,11,NaN,elephant,chair,0.10,0011_nse_dnn_0.10_chair_10_n04099969_1690.png,n04099969_1690.png,0.0,-0.68147063,1.7935026,-1.7500703
alexnet2023_baseline_pgd,1,12,NaN,elephant,cat,0.03,0012_nse_dnn_0.03_cat_10_n02125311_1736.png,n02125311_1736.png,0.0,1.9018377,2.904876,-0.70925516
alexnet2023_baseline_pgd,1,13,NaN,clock,bear,0.90,0013_nse_dnn_0.90_bear_10_n02133161_1169.png,n02133161_1169.png,0.0,-0.5546986,2.8865159,-2.4333062
alexnet2023_baseline_pgd,1,14,NaN,keyboard,bear,0.90,0014_nse_dnn_0.90_bear_10_n02133161_8835.png,n02133161_8835.png,0.0,-0.7070545,2.6621013,-2.382353
alexnet2023_baseline_pgd,1,15,NaN,clock,car,0.20,0015_nse_dnn_0.20_car_10_n02814533_5430.png,n02814533_5430.png,0.0,-2.3927505,2.99537,-3.8099768
alexnet2023_baseline_pgd,1,16,NaN,clock,bear,0.60,0016_nse_dnn_0.60_bear_10_n02134418_3767.png,n02134418_3767.png,0.0,-1.3085834,2.6619046,-2.807559
alexnet2023_baseline_pgd,1,17,NaN,clock,knife,0.20,0017_nse_dnn_0.20_knife_10_n03041632_10540.png,n03041632_10540.png,0.0,-0.514206,2.3452241,-2.0219223
alexnet2023_baseline_pgd,1,18,NaN,clock,bicycle,0.20,0018_nse_dnn_0.20_bicycle_10_n02835271_1075.png,n02835271_1075.png,0.0,-1.5277762,2.4739332,-2.8296359
alexnet2023_baseline_pgd,1,19,NaN,bear,bear,0.00,0019_nse_dnn_0.00_bear_10_n02134084_3888.png,n02134084_3888.png,1.0,5.171635,4.1891527,0.69472003
alexnet2023_baseline_pgd,1,20,NaN,dog,dog,0.00,0020_nse_dnn_0.00_dog_10_n02085936_9009.png,n02085936_9009.png,1.0,4.363451,1.6879094,1.8918936
alexnet2023_baseline_pgd,1,21,NaN,knife,knife,0.03,0021_nse_dnn_0.03_knife_10_n03041632_12651.png,n03041632_12651.png,1.0,1.9749656,1.5113803,0.3278043
alexnet2023_baseline_pgd,1,22,NaN,clock,bicycle,0.35,0022_nse_dnn_0.35_bicycle_10_n03792782_565.png,n03792782_565.png,0.0,-2.153964,2.4839532,-3.2795029
alexnet2023_baseline_pgd,1,23,NaN,clock,boat,0.20,0023_nse_dnn_0.20_boat_10_n04612504_40672.png,n04612504_40672.png,0.0,-1.3636551,3.276685,-3.281216
alexnet2023_baseline_pgd,1,24,NaN,airplane,dog,0.05,0024_nse_dnn_0.05_dog_10_n02098105_146.png,n02098105_146.png,0.0,-0.9490545,1.6370091,-1.8286232
alexnet2023_baseline_pgd,1,25,NaN,clock,clock,0.03,0025_nse_dnn_0.03_clock_10_n02708093_5944.png,n02708093_5944.png,1.0,5.5852036,2.784184,1.98062
alexnet2023_baseline_pgd,1,26,NaN,cat,cat,0.03,0026_nse_dnn_0.03_cat_10_n02124075_14021.png,n02124075_14021.png,1.0,1.1854299,0.47617787,0.50151694
alexnet2023_baseline_pgd,1,27,NaN,clock,bear,0.20,0027_nse_dnn_0.20_bear_10_n02133161_7184.png,n02133161_7184.png,0.0,-0.86334157,2.2637017,-2.2111535
alexnet2023_baseline_pgd,1,28,NaN,airplane,bottle,0.00,0028_nse_dnn_0.00_bottle_10_n03937543_9745.png,n03937543_9745.png,0.0,0.16200778,3.2529106,-2.1855984
alexnet2023_baseline_pgd,1,29,NaN,clock,airplane,0.60,0029_nse_dnn_0.60_airplane_10_n02690373_9605.png,n02690373_9605.png,0.0,-2.0140333,1.5409034,-2.51372
alexnet2023_baseline_pgd,1,30,NaN,clock,cat,0.20,0030_nse_dnn_0.20_cat_10_n02123045_7167.png,n02123045_7167.png,0.0,0.11050304,3.103159,-2.1161275
alexnet2023_baseline_pgd,1,31,NaN,airplane,airplane,0.05,0031_nse_dnn_0.05_airplane_10_n02690373_4706.png,n02690373_4706.png,1.0,5.4883523,1.872225,2.5569882
alexnet2023_baseline_pgd,1,32,NaN,clock,knife,0.35,0032_nse_dnn_0.35_knife_10_n03041632_45270.png,n03041632_45270.png,0.0,0.6086165,2.4538538,-1.3047799
alexnet2023_baseline_pgd,1,33,NaN,keyboard,dog,0.35,0033_nse_dnn_0.35_dog_10_n02105855_9326.png,n02105855_9326.png,0.0,-2.1189742,2.8665032,-3.525265
alexnet2023_baseline_pgd,1,34,NaN,clock,bear,0.10,0034_nse_dnn_0.10_bear_10_n02134418_4349.png,n02134418_4349.png,0.0,-2.0174668,2.2797418,-3.0385854
alexnet2023_baseline_pgd,1,35,NaN,cat,cat,0.00,0035_nse_dnn_0.00_cat_10_n02123159_469.png,n02123159_469.png,1.0,4.5290065,2.9165258,1.140196
alexnet2023_baseline_pgd,1,36,NaN,clock,truck,0.90,0036_nse_dnn_0.90_truck_10_n03417042_5004.png,n03417042_5004.png,0.0,-3.0704002,2.070542,-3.6351955
alexnet2023_baseline_pgd,1,37,NaN,cat,bird,0.10,0037_nse_dnn_0.10_bird_10_n02051845_6333.png,n02051845_6333.png,0.0,-2.9301555,3.4812543,-4.5335517
alexnet2023_baseline_pgd,1,38,NaN,clock,clock,0.90,0038_nse_dnn_0.90_clock_10_n03196217_12701.png,n03196217_12701.png,1.0,2.5127451,2.378604,0.09485216
alexnet2023_baseline_pgd,1,39,NaN,clock,chair,0.60,0039_nse_dnn_0.60_chair_10_n03376595_12341.png,n03376595_12341.png,0.0,-1.3218999,2.6722672,-2.8243027
alexnet2023_baseline_pgd,1,40,NaN,elephant,bicycle,0.10,0040_nse_dnn_0.10_bicycle_10_n03792782_66837.png,n03792782_66837.png,0.0,-0.37874058,1.8574548,-1.5812289
alexnet2023_baseline_pgd,1,41,NaN,bicycle,bicycle,0.05,0041_nse_dnn_0.05_bicycle_10_n02835271_20177.png,n02835271_20177.png,1.0,5.4314747,1.8272054,2.5486033
alexnet2023_baseline_pgd,1,42,NaN,bottle,knife,0.00,0042_nse_dnn_0.00_knife_10_n03041632_22330.png,n03041632_22330.png,0.0,3.1706204,3.413484,-0.17173053
alexnet2023_baseline_pgd,1,43,NaN,keyboard,cat,0.60,0043_nse_dnn_0.60_cat_10_n02123045_5913.png,n02123045_5913.png,0.0,-1.8634623,3.2864563,-3.6415424
alexnet2023_baseline_pgd,1,44,NaN,clock,elephant,0.20,0044_nse_dnn_0.20_elephant_10_n02504013_2464.png,n02504013_2464.png,0.0,-0.56384975,3.2206573,-2.6760507
alexnet2023_baseline_pgd,1,45,NaN,clock,knife,0.90,0045_nse_dnn_0.90_knife_10_n03041632_99460.png,n03041632_99460.png,0.0,1.1946683,2.3991687,-0.85171044
alexnet2023_baseline_pgd,1,46,NaN,elephant,dog,0.00,0046_nse_dnn_0.00_dog_10_n02099601_8686.png,n02099601_8686.png,0.0,2.2083938,5.269224,-2.1643338
alexnet2023_baseline_pgd,1,47,NaN,clock,chair,0.90,0047_nse_dnn_0.90_chair_10_n02791124_5400.png,n02791124_5400.png,0.0,-1.533737,2.36459,-2.7565334
alexnet2023_baseline_pgd,1,48,NaN,elephant,chair,0.05,0048_nse_dnn_0.05_chair_10_n03376595_830.png,n03376595_830.png,0.0,0.31811672,2.7985435,-1.7539266
alexnet2023_baseline_pgd,1,49,NaN,clock,cat,0.90,0049_nse_dnn_0.90_cat_10_n02124075_6024.png,n02124075_6024.png,0.0,-1.0770973,2.5417106,-2.5588837
alexnet2023_baseline_pgd,1,50,NaN,knife,bicycle,0.10,0050_nse_dnn_0.10_bicycle_10_n03792782_9004.png,n03792782_9004.png,0.0,0.59938776,1.9660112,-0.9663487
alexnet2023_baseline_pgd,1,51,NaN,clock,keyboard,0.60,0051_nse_dnn_0.60_keyboard_10_n03085013_24088.png,n03085013_24088.png,0.0,0.99030256,2.375717,-0.9796359
alexnet2023_baseline_pgd,1,52,NaN,clock,cat,0.10,0052_nse_dnn_0.10_cat_10_n02125311_33778.png,n02125311_33778.png,0.0,0.69397765,1.823986,-0.7990367
alexnet2023_baseline_pgd,1,53,NaN,bicycle,bicycle,0.00,0053_nse_dnn_0.00_bicycle_10_n03792782_7092.png,n03792782_7092.png,1.0,8.441947,2.1214702,4.469252
alexnet2023_baseline_pgd,1,54,NaN,clock,airplane,0.35,0054_nse_dnn_0.35_airplane_10_n02690373_5724.png,n02690373_5724.png,0.0,-0.48560092,2.328306,-1.9897327
alexnet2023_baseline_pgd,1,55,NaN,keyboard,bear,0.60,0055_nse_dnn_0.60_bear_10_n02133161_5637.png,n02133161_5637.png,0.0,-0.8862361,2.7926197,-2.601344
alexnet2023_baseline_pgd,1,56,NaN,clock,bear,0.10,0056_nse_dnn_0.10_bear_10_n02132136_5365.png,n02132136_5365.png,0.0,-1.837396,2.334829,-2.9502087
alexnet2023_baseline_pgd,1,57,NaN,clock,car,0.35,0057_nse_dnn_0.35_car_10_n03100240_1702.png,n03100240_1702.png,0.0,-2.4835455,2.5617292,-3.567548
alexnet2023_baseline_pgd,1,58,NaN,clock,oven,0.35,0058_nse_dnn_0.35_oven_10_n04111531_2677.png,n04111531_2677.png,0.0,-1.8434268,1.9112457,-2.6549544
alexnet2023_baseline_pgd,1,59,NaN,chair,oven,0.05,0059_nse_dnn_0.05_oven_10_n04111531_16583.png,n04111531_16583.png,0.0,1.9632412,2.6653883,-0.496493
alexnet2023_baseline_pgd,1,60,NaN,bicycle,chair,0.10,0060_nse_dnn_0.10_chair_10_n04099969_6266.png,n04099969_6266.png,0.0,1.8223476,1.9598628,-0.09723792
alexnet2023_baseline_pgd,1,61,NaN,keyboard,oven,0.60,0061_nse_dnn_0.60_oven_10_n04111531_6695.png,n04111531_6695.png,0.0,-1.8950278,2.3710265,-3.0165558
alexnet2023_baseline_pgd,1,62,NaN,clock,car,0.10,0062_nse_dnn_0.10_car_10_n03100240_1438.png,n03100240_1438.png,0.0,0.21028924,1.1413417,-0.6583535
alexnet2023_baseline_pgd,1,63,NaN,clock,keyboard,0.20,0063_nse_dnn_0.20_keyboard_10_n04505470_4684.png,n04505470_4684.png,0.0,1.432519,2.5940428,-0.82132137
alexnet2023_baseline_pgd,1,64,NaN,chair,chair,0.00,0064_nse_dnn_0.00_chair_10_n04099969_8021.png,n04099969_8021.png,1.0,6.3324366,2.5963588,2.641806
alexnet2023_baseline_pgd,1,65,NaN,clock,car,0.20,0065_nse_dnn_0.20_car_10_n04285008_7139.png,n04285008_7139.png,0.0,-2.0209835,2.7079437,-3.3438566
alexnet2023_baseline_pgd,1,66,NaN,truck,truck,0.03,0066_nse_dnn_0.03_truck_10_n03796401_9207.png,n03796401_9207.png,1.0,6.6018305,5.8502793,0.5314269
alexnet2023_baseline_pgd,1,67,NaN,elephant,bottle,0.05,0067_nse_dnn_0.05_bottle_10_n04560804_3651.png,n04560804_3651.png,0.0,2.3201206,2.6804855,-0.25481647
alexnet2023_baseline_pgd,1,68,NaN,clock,chair,0.60,0068_nse_dnn_0.60_chair_10_n03376595_3010.png,n03376595_3010.png,0.0,-1.5409989,2.1171045,-2.58667
alexnet2023_baseline_pgd,1,69,NaN,clock,bird,0.90,0069_nse_dnn_0.90_bird_10_n01514859_1951.png,n01514859_1951.png,0.0,-0.14876543,1.7106829,-1.3148285
alexnet2023_baseline_pgd,1,70,NaN,cat,car,0.10,0070_nse_dnn_0.10_car_10_n03100240_4594.png,n03100240_4594.png,0.0,0.6797804,2.6334078,-1.3814231
alexnet2023_baseline_pgd,1,71,NaN,clock,clock,0.35,0071_nse_dnn_0.35_clock_10_n03196217_3333.png,n03196217_3333.png,1.0,2.940055,2.5133853,0.30170098
alexnet2023_baseline_pgd,1,72,NaN,clock,car,0.10,0072_nse_dnn_0.10_car_10_n02814533_90798.png,n02814533_90798.png,0.0,-1.1119033,2.9602325,-2.879435
alexnet2023_baseline_pgd,1,73,NaN,keyboard,keyboard,0.00,0073_nse_dnn_0.00_keyboard_10_n03085013_19547.png,n03085013_19547.png,1.0,9.85822,8.522971,0.9441636
alexnet2023_baseline_pgd,1,74,NaN,airplane,bear,0.05,0074_nse_dnn_0.05_bear_10_n02133161_545.png,n02133161_545.png,0.0,-0.5242769,3.785627,-3.0475621
alexnet2023_baseline_pgd,1,75,NaN,clock,oven,0.90,0075_nse_dnn_0.90_oven_10_n04111531_6489.png,n04111531_6489.png,0.0,-1.7764078,2.2320907,-2.8344367
alexnet2023_baseline_pgd,1,76,NaN,clock,dog,0.90,0076_nse_dnn_0.90_dog_10_n02105056_15299.png,n02105056_15299.png,0.0,-0.6155664,2.5560114,-2.2426443
alexnet2023_baseline_pgd,1,77,NaN,knife,knife,0.05,0077_nse_dnn_0.05_knife_10_n03041632_33255.png,n03041632_33255.png,1.0,3.104719,3.0017688,0.07279671
alexnet2023_baseline_pgd,1,78,NaN,clock,cat,0.20,0078_nse_dnn_0.20_cat_10_n02123394_5895.png,n02123394_5895.png,0.0,-0.01089402,3.2833645,-2.3293927
alexnet2023_baseline_pgd,1,79,NaN,bottle,bottle,0.03,0079_nse_dnn_0.03_bottle_10_n03983396_11654.png,n03983396_11654.png,1.0,2.730868,1.1069285,1.1482987
alexnet2023_baseline_pgd,1,80,NaN,airplane,airplane,0.03,0080_nse_dnn_0.03_airplane_10_n02690373_3860.png,n02690373_3860.png,1.0,5.9452357,2.3246992,2.560106
alexnet2023_baseline_pgd,1,81,NaN,bottle,oven,0.03,0081_nse_dnn_0.03_oven_10_n04111531_6415.png,n04111531_6415.png,0.0,-0.29841763,1.973485,-1.6064777
alexnet2023_baseline_pgd,1,82,NaN,keyboard,knife,0.60,0082_nse_dnn_0.60_knife_10_n03041632_39342.png,n03041632_39342.png,0.0,1.65525,2.5432491,-0.62791026
alexnet2023_baseline_pgd,1,83,NaN,clock,bear,0.60,0083_nse_dnn_0.60_bear_10_n02133161_4882.png,n02133161_4882.png,0.0,-1.5220042,2.5987031,-2.9137802
alexnet2023_baseline_pgd,1,84,NaN,bottle,bottle,0.00,0084_nse_dnn_0.00_bottle_10_n04591713_7474.png,n04591713_7474.png,1.0,4.904392,0.91060716,2.8240323
alexnet2023_baseline_pgd,1,85,NaN,clock,bear,0.20,0085_nse_dnn_0.20_bear_10_n02132136_17615.png,n02132136_17615.png,0.0,-1.0261089,2.692216,-2.6292527
alexnet2023_baseline_pgd,1,86,NaN,clock,boat,0.60,0086_nse_dnn_0.60_boat_10_n03344393_382.png,n03344393_382.png,0.0,-3.2540615,2.4225323,-4.013958
alexnet2023_baseline_pgd,1,87,NaN,truck,truck,0.00,0087_nse_dnn_0.00_truck_10_n03796401_27811.png,n03796401_27811.png,1.0,6.5967436,5.236383,0.96192026
alexnet2023_baseline_pgd,1,88,NaN,keyboard,keyboard,0.60,0088_nse_dnn_0.60_keyboard_10_n04505470_2603.png,n04505470_2603.png,1.0,3.1855726,2.7731245,0.2916449
alexnet2023_baseline_pgd,1,89,NaN,clock,boat,0.35,0089_nse_dnn_0.35_boat_10_n03662601_16418.png,n03662601_16418.png,0.0,-2.6255627,2.5882995,-3.6867576
alexnet2023_baseline_pgd,1,90,NaN,clock,bear,0.35,0090_nse_dnn_0.35_bear_10_n02132136_2760.png,n02132136_2760.png,0.0,-0.24935126,2.1571817,-1.7016759
alexnet2023_baseline_pgd,1,91,NaN,bicycle,bicycle,0.05,0091_nse_dnn_0.05_bicycle_10_n02835271_10271.png,n02835271_10271.png,1.0,2.9227228,0.99716425,1.3615755
alexnet2023_baseline_pgd,1,92,NaN,clock,bear,0.10,0092_nse_dnn_0.10_bear_10_n02134084_9127.png,n02134084_9127.png,0.0,-2.5483093,3.001421,-3.924252
alexnet2023_baseline_pgd,1,93,NaN,clock,bird,0.20,0093_nse_dnn_0.20_bird_10_n01797886_551.png,n01797886_551.png,0.0,1.2768815,2.3145037,-0.7337097
alexnet2023_baseline_pgd,1,94,NaN,clock,truck,0.10,0094_nse_dnn_0.10_truck_10_n03417042_9559.png,n03417042_9559.png,0.0,-1.0900599,1.9163834,-2.1258764
alexnet2023_baseline_pgd,1,95,NaN,clock,clock,0.90,0095_nse_dnn_0.90_clock_10_n02708093_3114.png,n02708093_3114.png,1.0,2.4611132,1.0440499,1.0020151
alexnet2023_baseline_pgd,1,96,NaN,bicycle,bicycle,0.05,0096_nse_dnn_0.05_bicycle_10_n03792782_122.png,n03792782_122.png,1.0,1.2297667,0.7447574,0.34295338
alexnet2023_baseline_pgd,1,97,NaN,clock,oven,0.35,0097_nse_dnn_0.35_oven_10_n04111531_3702.png,n04111531_3702.png,0.0,0.03325562,2.9127247,-2.0360923
alexnet2023_baseline_pgd,1,98,NaN,clock,car,0.90,0098_nse_dnn_0.90_car_10_n02814533_93476.png,n02814533_93476.png,0.0,-3.2937887,1.6657206,-3.5069027
alexnet2023_baseline_pgd,1,99,NaN,clock,cat,0.35,0099_nse_dnn_0.35_cat_10_n02123045_8491.png,n02123045_8491.png,0.0,-1.1982671,2.492955,-2.6100883
alexnet2023_baseline_pgd,1,100,NaN,clock,chair,0.35,0100_nse_dnn_0.35_chair_10_n02791124_13469.png,n02791124_13469.png,0.0,-1.5912254,2.376458,-2.8055758
alexnet2023_baseline_pgd,1,101,NaN,clock,dog,0.60,0101_nse_dnn_0.60_dog_10_n02096294_5451.png,n02096294_5451.png,0.0,-1.6965011,2.767187,-3.1563044
alexnet2023_baseline_pgd,1,102,NaN,clock,bicycle,0.35,0102_nse_dnn_0.35_bicycle_10_n03792782_44296.png,n03792782_44296.png,0.0,-2.4918756,2.9351647,-3.837497
alexnet2023_baseline_pgd,1,103,NaN,clock,cat,0.90,0103_nse_dnn_0.90_cat_10_n02123597_7138.png,n02123597_7138.png,0.0,-1.1609987,2.4354713,-2.5430882
alexnet2023_baseline_pgd,1,104,NaN,clock,bottle,0.35,0104_nse_dnn_0.35_bottle_10_n04560804_12736.png,n04560804_12736.png,0.0,1.0064161,2.8436632,-1.29913
alexnet2023_baseline_pgd,1,105,NaN,keyboard,oven,0.60,0105_nse_dnn_0.60_oven_10_n04111531_22797.png,n04111531_22797.png,0.0,-1.879879,2.4318223,-3.0488334
alexnet2023_baseline_pgd,1,106,NaN,elephant,bird,0.10,0106_nse_dnn_0.10_bird_10_n02007558_7446.png,n02007558_7446.png,0.0,-1.215218,1.8138909,-2.1419036
alexnet2023_baseline_pgd,1,107,NaN,clock,boat,0.60,0107_nse_dnn_0.60_boat_10_n03662601_16441.png,n03662601_16441.png,0.0,-2.680837,2.6623373,-3.7781947
alexnet2023_baseline_pgd,1,108,NaN,keyboard,oven,0.60,0108_nse_dnn_0.60_oven_10_n04111531_22386.png,n04111531_22386.png,0.0,-1.3466542,2.266846,-2.5551305
alexnet2023_baseline_pgd,1,109,NaN,airplane,airplane,0.00,0109_nse_dnn_0.00_airplane_10_n02690373_1381.png,n02690373_1381.png,1.0,18.606981,5.130978,9.528974
alexnet2023_baseline_pgd,1,110,NaN,clock,keyboard,0.20,0110_nse_dnn_0.20_keyboard_10_n03085013_20779.png,n03085013_20779.png,0.0,0.10025713,1.8742386,-1.2543943
alexnet2023_baseline_pgd,1,111,NaN,clock,dog,0.90,0111_nse_dnn_0.90_dog_10_n02095570_9488.png,n02095570_9488.png,0.0,-0.7140658,1.9845166,-1.908186
alexnet2023_baseline_pgd,1,112,NaN,dog,dog,0.03,0112_nse_dnn_0.03_dog_10_n02107312_3262.png,n02107312_3262.png,1.0,5.11042,4.191398,0.64984673
alexnet2023_baseline_pgd,1,113,NaN,knife,oven,0.03,0113_nse_dnn_0.03_oven_10_n04111531_10681.png,n04111531_10681.png,0.0,0.6373318,3.6527174,-2.1321998
alexnet2023_baseline_pgd,1,114,NaN,clock,knife,0.90,0114_nse_dnn_0.90_knife_10_n03041632_29285.png,n03041632_29285.png,0.0,1.1086004,2.2661402,-0.8185043
alexnet2023_baseline_pgd,1,115,NaN,clock,elephant,0.60,0115_nse_dnn_0.60_elephant_10_n02504458_4776.png,n02504458_4776.png,0.0,-0.89878786,2.693526,-2.5401495
alexnet2023_baseline_pgd,1,116,NaN,clock,boat,0.10,0116_nse_dnn_0.10_boat_10_n04273569_11940.png,n04273569_11940.png,0.0,-1.5168726,1.746312,-2.30742
alexnet2023_baseline_pgd,1,117,NaN,clock,cat,0.20,0117_nse_dnn_0.20_cat_10_n02123159_1413.png,n02123159_1413.png,0.0,-0.19659935,2.4422202,-1.8659272
alexnet2023_baseline_pgd,1,118,NaN,clock,airplane,0.60,0118_nse_dnn_0.60_airplane_10_n02690373_6674.png,n02690373_6674.png,0.0,-3.4899921,1.9548092,-3.850056
alexnet2023_baseline_pgd,1,119,NaN,clock,clock,0.35,0119_nse_dnn_0.35_clock_10_n04548280_5088.png,n04548280_5088.png,1.0,2.7151244,1.0993639,1.1425152
alexnet2023_baseline_pgd,1,120,NaN,bottle,clock,0.05,0120_nse_dnn_0.05_clock_10_n02708093_6624.png,n02708093_6624.png,0.0,1.4863553,2.2719939,-0.55553037
alexnet2023_baseline_pgd,1,121,NaN,clock,bicycle,0.20,0121_nse_dnn_0.20_bicycle_10_n03792782_29108.png,n03792782_29108.png,0.0,-1.2497057,2.3634152,-2.5548625
alexnet2023_baseline_pgd,1,122,NaN,clock,clock,0.20,0122_nse_dnn_0.20_clock_10_n04548280_8649.png,n04548280_8649.png,1.0,3.5432549,1.2441128,1.6257389
alexnet2023_baseline_pgd,1,123,NaN,elephant,knife,0.05,0123_nse_dnn_0.05_knife_10_n03041632_737.png,n03041632_737.png,0.0,-0.36812252,2.1937125,-1.811491
alexnet2023_baseline_pgd,1,124,NaN,clock,clock,0.10,0124_nse_dnn_0.10_clock_10_n04548280_8668.png,n04548280_8668.png,1.0,6.6384864,4.628005,1.421625
alexnet2023_baseline_pgd,1,125,NaN,bear,bird,0.03,0125_nse_dnn_0.03_bird_10_n01558993_34885.png,n01558993_34885.png,0.0,1.4896119,2.7418535,-0.88546854
alexnet2023_baseline_pgd,1,126,NaN,clock,truck,0.60,0126_nse_dnn_0.60_truck_10_n04467665_37833.png,n04467665_37833.png,0.0,-2.204841,2.6110663,-3.405361
alexnet2023_baseline_pgd,1,127,NaN,airplane,boat,0.05,0127_nse_dnn_0.05_boat_10_n03662601_5176.png,n03662601_5176.png,0.0,1.4503762,1.7880127,-0.23874512
alexnet2023_baseline_pgd,1,128,NaN,chair,chair,0.00,0128_nse_dnn_0.00_chair_10_n03376595_9139.png,n03376595_9139.png,1.0,6.2538695,3.9217448,1.6490612
alexnet2023_baseline_pgd,1,129,NaN,clock,oven,0.90,0129_nse_dnn_0.90_oven_10_n04111531_6211.png,n04111531_6211.png,0.0,-1.3391411,2.2546058,-2.5411627
alexnet2023_baseline_pgd,1,130,NaN,boat,boat,0.00,0130_nse_dnn_0.00_boat_10_n04273569_11427.png,n04273569_11427.png,1.0,5.642974,2.3476787,2.3301256
alexnet2023_baseline_pgd,1,131,NaN,bottle,bicycle,0.05,0131_nse_dnn_0.05_bicycle_10_n03792782_17198.png,n03792782_17198.png,0.0,1.7479867,3.8858726,-1.5117137
alexnet2023_baseline_pgd,1,132,NaN,clock,clock,0.00,0132_nse_dnn_0.00_clock_10_n04548280_4560.png,n04548280_4560.png,1.0,8.824098,4.772016,2.8652544
alexnet2023_baseline_pgd,1,133,NaN,knife,knife,0.03,0133_nse_dnn_0.03_knife_10_n03041632_3781.png,n03041632_3781.png,1.0,2.930276,1.088637,1.3022354
alexnet2023_baseline_pgd,1,134,NaN,clock,clock,0.10,0134_nse_dnn_0.10_clock_10_n03196217_958.png,n03196217_958.png,1.0,2.8749607,0.8255167,1.4491757
alexnet2023_baseline_pgd,1,135,NaN,clock,elephant,0.35,0135_nse_dnn_0.35_elephant_10_n02504458_485.png,n02504458_485.png,0.0,-0.7406634,2.7856586,-2.4934862
alexnet2023_baseline_pgd,1,136,NaN,clock,clock,0.00,0136_nse_dnn_0.00_clock_10_n02708093_1038.png,n02708093_1038.png,1.0,5.629412,3.611907,1.4265916
alexnet2023_baseline_pgd,1,137,NaN,bicycle,oven,0.03,0137_nse_dnn_0.03_oven_10_n04111531_1723.png,n04111531_1723.png,0.0,0.32341692,2.5869532,-1.6005619
alexnet2023_baseline_pgd,1,138,NaN,dog,dog,0.03,0138_nse_dnn_0.03_dog_10_n02110806_27169.png,n02110806_27169.png,1.0,3.0862052,1.5757347,1.068064
alexnet2023_baseline_pgd,1,139,NaN,airplane,airplane,0.00,0139_nse_dnn_0.00_airplane_10_n02690373_12505.png,n02690373_12505.png,1.0,9.926313,3.1196017,4.813072
alexnet2023_baseline_pgd,1,140,NaN,keyboard,bird,0.60,0140_nse_dnn_0.60_bird_10_n01828970_454.png,n01828970_454.png,0.0,0.36666235,2.9067442,-1.7961092
alexnet2023_baseline_pgd,1,141,NaN,clock,oven,0.20,0141_nse_dnn_0.20_oven_10_n04111531_15635.png,n04111531_15635.png,0.0,-1.6642674,2.6299675,-3.0364826
alexnet2023_baseline_pgd,1,142,NaN,chair,car,0.00,0142_nse_dnn_0.00_car_10_n04285008_8700.png,n04285008_8700.png,0.0,1.3841273,2.8234024,-1.0177212
alexnet2023_baseline_pgd,1,143,NaN,keyboard,keyboard,0.05,0143_nse_dnn_0.05_keyboard_10_n04505470_4592.png,n04505470_4592.png,1.0,5.426268,5.158703,0.18919721
alexnet2023_baseline_pgd,1,144,NaN,clock,boat,0.20,0144_nse_dnn_0.20_boat_10_n03344393_9560.png,n03344393_9560.png,0.0,-0.66572005,2.27472,-2.079205
alexnet2023_baseline_pgd,1,145,NaN,elephant,bear,0.00,0145_nse_dnn_0.00_bear_10_n02132136_5138.png,n02132136_5138.png,0.0,4.0091915,4.4838157,-0.33560997
alexnet2023_baseline_pgd,1,146,NaN,clock,chair,0.60,0146_nse_dnn_0.60_chair_10_n03376595_591.png,n03376595_591.png,0.0,-1.1919928,3.1477516,-3.068663
alexnet2023_baseline_pgd,1,147,NaN,clock,keyboard,0.90,0147_nse_dnn_0.90_keyboard_10_n03085013_20590.png,n03085013_20590.png,0.0,1.2263293,2.2992253,-0.75865203
alexnet2023_baseline_pgd,1,148,NaN,clock,dog,0.35,0148_nse_dnn_0.35_dog_10_n02094258_1224.png,n02094258_1224.png,0.0,-1.2517995,2.3597193,-2.5537295
alexnet2023_baseline_pgd,1,149,NaN,clock,clock,0.20,0149_nse_dnn_0.20_clock_10_n03196217_4486.png,n03196217_4486.png,1.0,2.803702,1.3812846,1.0058011
alexnet2023_baseline_pgd,1,150,NaN,clock,bear,0.20,0150_nse_dnn_0.20_bear_10_n02134084_22150.png,n02134084_22150.png,0.0,-1.6539593,2.779064,-3.134621
alexnet2023_baseline_pgd,1,151,NaN,clock,cat,0.10,0151_nse_dnn_0.10_cat_10_n02123045_3098.png,n02123045_3098.png,0.0,2.0623388,2.740473,-0.4795133
alexnet2023_baseline_pgd,1,152,NaN,clock,bear,0.20,0152_nse_dnn_0.20_bear_10_n02134418_271.png,n02134418_271.png,0.0,-0.64351535,1.5854725,-1.5761323
alexnet2023_baseline_pgd,1,153,NaN,elephant,oven,0.05,0153_nse_dnn_0.05_oven_10_n04111531_274.png,n04111531_274.png,0.0,0.6813192,1.207025,-0.3717302
alexnet2023_baseline_pgd,1,154,NaN,clock,knife,0.35,0154_nse_dnn_0.35_knife_10_n03041632_8563.png,n03041632_8563.png,0.0,-0.017571136,2.109596,-1.5041344
alexnet2023_baseline_pgd,1,155,NaN,car,car,0.00,0155_nse_dnn_0.00_car_10_n02814533_52389.png,n02814533_52389.png,1.0,13.547391,7.1383486,4.5318775
alexnet2023_baseline_pgd,1,156,NaN,airplane,airplane,0.00,0156_nse_dnn_0.00_airplane_10_n02690373_10455.png,n02690373_10455.png,1.0,6.773347,2.9789534,2.6830413
alexnet2023_baseline_pgd,1,157,NaN,clock,truck,0.35,0157_nse_dnn_0.35_truck_10_n04467665_4810.png,n04467665_4810.png,0.0,-2.0515335,2.5971043,-3.2870834
alexnet2023_baseline_pgd,1,158,NaN,clock,knife,0.10,0158_nse_dnn_0.10_knife_10_n03041632_3159.png,n03041632_3159.png,0.0,1.5474278,1.6195698,-0.051012103
alexnet2023_baseline_pgd,1,159,NaN,cat,cat,0.05,0159_nse_dnn_0.05_cat_10_n02123597_13411.png,n02123597_13411.png,1.0,1.7463865,0.53851384,0.8540949
alexnet2023_baseline_pgd,1,160,NaN,clock,clock,0.10,0160_nse_dnn_0.10_clock_10_n04548280_2654.png,n04548280_2654.png,1.0,2.6943839,0.8991289,1.269437
alexnet2023_baseline_pgd,1,161,NaN,clock,elephant,0.90,0161_nse_dnn_0.90_elephant_10_n02504013_405.png,n02504013_405.png,0.0,-0.36276627,2.5857434,-2.0849113
alexnet2023_baseline_pgd,1,162,NaN,elephant,bottle,0.05,0162_nse_dnn_0.05_bottle_10_n04560804_14729.png,n04560804_14729.png,0.0,3.6552093,4.122104,-0.33014452
alexnet2023_baseline_pgd,1,163,NaN,clock,bottle,0.90,0163_nse_dnn_0.90_bottle_10_n02823428_5482.png,n02823428_5482.png,0.0,1.5832517,2.8479517,-0.89427793
alexnet2023_baseline_pgd,1,164,NaN,clock,keyboard,0.90,0164_nse_dnn_0.90_keyboard_10_n04505470_4824.png,n04505470_4824.png,0.0,1.1136407,2.4175036,-0.9219703
alexnet2023_baseline_pgd,1,165,NaN,clock,chair,0.20,0165_nse_dnn_0.20_chair_10_n04099969_14208.png,n04099969_14208.png,0.0,-1.421167,2.6296012,-2.8643258
alexnet2023_baseline_pgd,1,166,NaN,elephant,elephant,0.00,0166_nse_dnn_0.00_elephant_10_n02504013_1647.png,n02504013_1647.png,1.0,10.535782,3.1061196,5.253565
alexnet2023_baseline_pgd,1,167,NaN,clock,cat,0.20,0167_nse_dnn_0.20_cat_10_n02123597_11564.png,n02123597_11564.png,0.0,0.089371346,2.5369737,-1.7307162
alexnet2023_baseline_pgd,1,168,NaN,clock,car,0.35,0168_nse_dnn_0.35_car_10_n03100240_16653.png,n03100240_16653.png,0.0,-2.2142684,2.7822835,-3.5330958
alexnet2023_baseline_pgd,1,169,NaN,keyboard,oven,0.00,0169_nse_dnn_0.00_oven_10_n04111531_9611.png,n04111531_9611.png,0.0,5.643579,5.9260826,-0.19976021
alexnet2023_baseline_pgd,1,170,NaN,boat,car,0.05,0170_nse_dnn_0.05_car_10_n02814533_35054.png,n02814533_35054.png,0.0,-0.08164731,2.3487673,-1.7185627
alexnet2023_baseline_pgd,1,171,NaN,clock,oven,0.20,0171_nse_dnn_0.20_oven_10_n04111531_3121.png,n04111531_3121.png,0.0,-0.119596,3.107874,-2.282166
alexnet2023_baseline_pgd,1,172,NaN,clock,chair,0.20,0172_nse_dnn_0.20_chair_10_n02791124_4969.png,n02791124_4969.png,0.0,-0.8516278,3.3843963,-2.9953213
alexnet2023_baseline_pgd,1,173,NaN,clock,car,0.20,0173_nse_dnn_0.20_car_10_n02814533_211.png,n02814533_211.png,0.0,-1.5936503,2.3863547,-2.8142886
alexnet2023_baseline_pgd,1,174,NaN,dog,dog,0.00,0174_nse_dnn_0.00_dog_10_n02091244_13118.png,n02091244_13118.png,1.0,4.365688,2.7474198,1.1442883
alexnet2023_baseline_pgd,1,175,NaN,knife,bottle,0.10,0175_nse_dnn_0.10_bottle_10_n04560804_3597.png,n04560804_3597.png,0.0,2.2806718,2.3029215,-0.015732912
alexnet2023_baseline_pgd,1,176,NaN,clock,bottle,0.60,0176_nse_dnn_0.60_bottle_10_n04560804_30885.png,n04560804_30885.png,0.0,1.4535487,2.3313744,-0.6207165
alexnet2023_baseline_pgd,1,177,NaN,keyboard,bottle,0.60,0177_nse_dnn_0.60_bottle_10_n04560804_9813.png,n04560804_9813.png,0.0,1.6597259,2.1462774,-0.34404388
alexnet2023_baseline_pgd,1,178,NaN,clock,boat,0.35,0178_nse_dnn_0.35_boat_10_n02951358_10003.png,n02951358_10003.png,0.0,-2.1939328,2.006482,-2.9701416
alexnet2023_baseline_pgd,1,179,NaN,clock,bear,0.35,0179_nse_dnn_0.35_bear_10_n02133161_1500.png,n02133161_1500.png,0.0,-0.8958618,3.1233196,-2.8419905
alexnet2023_baseline_pgd,1,180,NaN,clock,oven,0.20,0180_nse_dnn_0.20_oven_10_n04111531_4467.png,n04111531_4467.png,0.0,-1.342724,1.9203655,-2.3073528
alexnet2023_baseline_pgd,1,181,NaN,clock,clock,0.20,0181_nse_dnn_0.20_clock_10_n02708093_8002.png,n02708093_8002.png,1.0,2.833439,0.64852047,1.5449709
alexnet2023_baseline_pgd,1,182,NaN,clock,boat,0.90,0182_nse_dnn_0.90_boat_10_n02951358_34261.png,n02951358_34261.png,0.0,-3.5411816,2.6251266,-4.3602386
alexnet2023_baseline_pgd,1,183,NaN,boat,boat,0.00,0183_nse_dnn_0.00_boat_10_n04612504_20067.png,n04612504_20067.png,1.0,8.076353,4.432273,2.5767539
alexnet2023_baseline_pgd,1,184,NaN,clock,clock,0.35,0184_nse_dnn_0.35_clock_10_n03196217_6163.png,n03196217_6163.png,1.0,2.9717233,1.3194181,1.1683563
alexnet2023_baseline_pgd,1,185,NaN,keyboard,keyboard,0.03,0185_nse_dnn_0.03_keyboard_10_n03085013_23119.png,n03085013_23119.png,1.0,2.4206877,2.354756,0.046620652
alexnet2023_baseline_pgd,1,186,NaN,clock,clock,0.60,0186_nse_dnn_0.60_clock_10_n04548280_4358.png,n04548280_4358.png,1.0,1.6142431,1.1563051,0.3238111
alexnet2023_baseline_pgd,1,187,NaN,elephant,dog,0.05,0187_nse_dnn_0.05_dog_10_n02101388_2968.png,n02101388_2968.png,0.0,-0.11836631,1.1840966,-0.9209804
alexnet2023_baseline_pgd,1,188,NaN,clock,oven,0.10,0188_nse_dnn_0.10_oven_10_n04111531_8081.png,n04111531_8081.png,0.0,0.41346288,3.332326,-2.063948
alexnet2023_baseline_pgd,1,189,NaN,knife,keyboard,0.05,0189_nse_dnn_0.05_keyboard_10_n04505470_4994.png,n04505470_4994.png,0.0,-0.45902443,3.4771867,-2.7833216
alexnet2023_baseline_pgd,1,190,NaN,cat,dog,0.10,0190_nse_dnn_0.10_dog_10_n02101006_16132.png,n02101006_16132.png,0.0,-0.48458922,1.4816464,-1.3903385
alexnet2023_baseline_pgd,1,191,NaN,clock,elephant,0.10,0191_nse_dnn_0.10_elephant_10_n02504458_6888.png,n02504458_6888.png,0.0,0.24445194,2.3128438,-1.4625739
alexnet2023_baseline_pgd,1,192,NaN,clock,bird,0.60,0192_nse_dnn_0.60_bird_10_n02018207_43958.png,n02018207_43958.png,0.0,0.031051936,2.4382677,-1.7021587
alexnet2023_baseline_pgd,1,193,NaN,cat,cat,0.03,0193_nse_dnn_0.03_cat_10_n02123045_2719.png,n02123045_2719.png,1.0,7.7100635,1.6919165,4.2554727
alexnet2023_baseline_pgd,1,194,NaN,keyboard,keyboard,0.05,0194_nse_dnn_0.05_keyboard_10_n03085013_5611.png,n03085013_5611.png,1.0,7.7834167,4.197098,2.5359106
alexnet2023_baseline_pgd,1,195,NaN,boat,boat,0.03,0195_nse_dnn_0.03_boat_10_n03344393_6892.png,n03344393_6892.png,1.0,2.6167088,1.9608861,0.46373665
alexnet2023_baseline_pgd,1,196,NaN,clock,chair,0.90,0196_nse_dnn_0.90_chair_10_n02791124_5411.png,n02791124_5411.png,0.0,-1.6929867,2.94481,-3.2794173
alexnet2023_baseline_pgd,1,197,NaN,elephant,elephant,0.05,0197_nse_dnn_0.05_elephant_10_n02504013_8391.png,n02504013_8391.png,1.0,4.8587613,1.6587851,2.2627249
alexnet2023_baseline_pgd,1,198,NaN,knife,chair,0.60,0198_nse_dnn_0.60_chair_10_n02791124_7167.png,n02791124_7167.png,0.0,-1.2383062,2.0347588,-2.3144066
alexnet2023_baseline_pgd,1,199,NaN,knife,truck,0.10,0199_nse_dnn_0.10_truck_10_n03417042_2170.png,n03417042_2170.png,0.0,-0.43467057,2.4226158,-2.0204067
alexnet2023_baseline_pgd,1,200,NaN,clock,chair,0.35,0200_nse_dnn_0.35_chair_10_n04099969_2109.png,n04099969_2109.png,0.0,-1.8393495,2.862138,-3.3244538
alexnet2023_baseline_pgd,1,201,NaN,clock,chair,0.90,0201_nse_dnn_0.90_chair_10_n04429376_7321.png,n04429376_7321.png,0.0,-1.0945251,2.7196834,-2.6970527
alexnet2023_baseline_pgd,1,202,NaN,clock,airplane,0.35,0202_nse_dnn_0.35_airplane_10_n02690373_1733.png,n02690373_1733.png,0.0,-1.1189294,2.5632455,-2.6036909
alexnet2023_baseline_pgd,1,203,NaN,clock,bird,0.10,0203_nse_dnn_0.10_bird_10_n02006656_5719.png,n02006656_5719.png,0.0,0.046167817,1.8150811,-1.2508106
alexnet2023_baseline_pgd,1,204,NaN,bicycle,bicycle,0.03,0204_nse_dnn_0.03_bicycle_10_n03792782_12354.png,n03792782_12354.png,1.0,3.1084864,2.4113262,0.49296674
alexnet2023_baseline_pgd,1,205,NaN,bottle,bottle,0.03,0205_nse_dnn_0.03_bottle_10_n04557648_12671.png,n04557648_12671.png,1.0,8.2546,1.6941344,4.6389494
alexnet2023_baseline_pgd,1,206,NaN,elephant,elephant,0.05,0206_nse_dnn_0.05_elephant_10_n02504013_318.png,n02504013_318.png,1.0,9.686495,3.4085617,4.439169
alexnet2023_baseline_pgd,1,207,NaN,clock,boat,0.90,0207_nse_dnn_0.90_boat_10_n04273569_16078.png,n04273569_16078.png,0.0,-3.273877,2.1324835,-3.8228743
alexnet2023_baseline_pgd,1,208,NaN,airplane,cat,0.03,0208_nse_dnn_0.03_cat_10_n02123597_9664.png,n02123597_9664.png,0.0,-0.38989088,2.166222,-1.8074448
alexnet2023_baseline_pgd,1,209,NaN,clock,clock,0.35,0209_nse_dnn_0.35_clock_10_n04548280_4113.png,n04548280_4113.png,1.0,2.0090516,1.0009093,0.7128642
alexnet2023_baseline_pgd,1,210,NaN,clock,keyboard,0.60,0210_nse_dnn_0.60_keyboard_10_n03085013_20363.png,n03085013_20363.png,0.0,2.7546957,2.9718769,-0.15357031
alexnet2023_baseline_pgd,1,211,NaN,elephant,truck,0.03,0211_nse_dnn_0.03_truck_10_n04467665_67908.png,n04467665_67908.png,0.0,2.7158158,3.2199554,-0.35648057
alexnet2023_baseline_pgd,1,212,NaN,clock,truck,0.90,0212_nse_dnn_0.90_truck_10_n04467665_61522.png,n04467665_61522.png,0.0,-2.458547,2.907807,-3.7945855
alexnet2023_baseline_pgd,1,213,NaN,clock,cat,0.90,0213_nse_dnn_0.90_cat_10_n02123045_3648.png,n02123045_3648.png,0.0,-1.2655579,2.3930464,-2.5870237
alexnet2023_baseline_pgd,1,214,NaN,keyboard,dog,0.60,0214_nse_dnn_0.60_dog_10_n02107574_3685.png,n02107574_3685.png,0.0,-1.2454039,2.1411297,-2.394641
alexnet2023_baseline_pgd,1,215,NaN,clock,dog,0.20,0215_nse_dnn_0.20_dog_10_n02100236_4048.png,n02100236_4048.png,0.0,-1.0716206,2.8916981,-2.8024898
alexnet2023_baseline_pgd,1,216,NaN,clock,bear,0.35,0216_nse_dnn_0.35_bear_10_n02134418_5073.png,n02134418_5073.png,0.0,-1.3382288,2.5496285,-2.7491305
alexnet2023_baseline_pgd,1,217,NaN,clock,airplane,0.90,0217_nse_dnn_0.90_airplane_10_n02690373_9012.png,n02690373_9012.png,0.0,-2.625571,2.229317,-3.4329243
alexnet2023_baseline_pgd,1,218,NaN,clock,cat,0.35,0218_nse_dnn_0.35_cat_10_n02123159_6439.png,n02123159_6439.png,0.0,-1.2331191,2.107971,-2.3625076
alexnet2023_baseline_pgd,1,219,NaN,clock,cat,0.60,0219_nse_dnn_0.60_cat_10_n02125311_3616.png,n02125311_3616.png,0.0,-1.2458582,1.9875497,-2.2863648
alexnet2023_baseline_pgd,1,220,NaN,clock,bottle,0.60,0220_nse_dnn_0.60_bottle_10_n04557648_4356.png,n04557648_4356.png,0.0,1.6449147,2.8834782,-0.8757966
alexnet2023_baseline_pgd,1,221,NaN,clock,bird,0.35,0221_nse_dnn_0.35_bird_10_n02027492_6813.png,n02027492_6813.png,0.0,1.324203,3.3113792,-1.4051458
alexnet2023_baseline_pgd,1,222,NaN,chair,chair,0.03,0222_nse_dnn_0.03_chair_10_n04429376_26765.png,n04429376_26765.png,1.0,1.7534057,1.1619087,0.4182515
alexnet2023_baseline_pgd,1,223,NaN,clock,elephant,0.35,0223_nse_dnn_0.35_elephant_10_n02504458_4811.png,n02504458_4811.png,0.0,-1.0756052,3.1043015,-2.9556406
alexnet2023_baseline_pgd,1,224,NaN,clock,keyboard,0.20,0224_nse_dnn_0.20_keyboard_10_n04505470_1351.png,n04505470_1351.png,0.0,-0.039925836,1.7214651,-1.2454915
alexnet2023_baseline_pgd,1,225,NaN,chair,chair,0.05,0225_nse_dnn_0.05_chair_10_n04099969_2532.png,n04099969_2532.png,1.0,2.828475,1.776258,0.7440298
alexnet2023_baseline_pgd,1,226,NaN,clock,airplane,0.10,0226_nse_dnn_0.10_airplane_10_n02690373_8547.png,n02690373_8547.png,0.0,-0.68779033,2.2561493,-2.0816798
alexnet2023_baseline_pgd,1,227,NaN,clock,truck,0.35,0227_nse_dnn_0.35_truck_10_n03417042_23445.png,n03417042_23445.png,0.0,-2.0926,2.0695617,-2.9430928
alexnet2023_baseline_pgd,1,228,NaN,clock,truck,0.90,0228_nse_dnn_0.90_truck_10_n04467665_48953.png,n04467665_48953.png,0.0,-2.8386369,2.0385935,-3.4487228
alexnet2023_baseline_pgd,1,229,NaN,clock,boat,0.20,0229_nse_dnn_0.20_boat_10_n03662601_11739.png,n03662601_11739.png,0.0,-1.5455662,3.121165,-3.2998774
alexnet2023_baseline_pgd,1,230,NaN,airplane,cat,0.03,0230_nse_dnn_0.03_cat_10_n02123597_4948.png,n02123597_4948.png,0.0,2.1176996,2.99644,-0.6213632
alexnet2023_baseline_pgd,1,231,NaN,clock,oven,0.35,0231_nse_dnn_0.35_oven_10_n04111531_9411.png,n04111531_9411.png,0.0,-1.1445025,3.1160548,-3.0126688
alexnet2023_baseline_pgd,1,232,NaN,clock,bicycle,0.60,0232_nse_dnn_0.60_bicycle_10_n03792782_988.png,n03792782_988.png,0.0,-2.363848,2.3806336,-3.354855
alexnet2023_baseline_pgd,1,233,NaN,elephant,car,0.05,0233_nse_dnn_0.05_car_10_n02814533_65294.png,n02814533_65294.png,0.0,1.5824062,3.5161085,-1.367334
alexnet2023_baseline_pgd,1,234,NaN,bottle,bottle,0.00,0234_nse_dnn_0.00_bottle_10_n04557648_10420.png,n04557648_10420.png,1.0,6.5029655,3.580832,2.0662603
alexnet2023_baseline_pgd,1,235,NaN,clock,chair,0.60,0235_nse_dnn_0.60_chair_10_n04099969_33329.png,n04099969_33329.png,0.0,-0.5703646,2.6730487,-2.2934396
alexnet2023_baseline_pgd,1,236,NaN,keyboard,oven,0.35,0236_nse_dnn_0.35_oven_10_n04111531_20493.png,n04111531_20493.png,0.0,-0.63793695,2.8985317,-2.500661
alexnet2023_baseline_pgd,1,237,NaN,clock,clock,0.10,0237_nse_dnn_0.10_clock_10_n04548280_7839.png,n04548280_7839.png,1.0,4.377029,2.6523483,1.2195334
alexnet2023_baseline_pgd,1,238,NaN,clock,airplane,0.20,0238_nse_dnn_0.20_airplane_10_n02690373_7229.png,n02690373_7229.png,0.0,0.32955796,3.3500454,-2.1358073
alexnet2023_baseline_pgd,1,239,NaN,clock,airplane,0.10,0239_nse_dnn_0.10_airplane_10_n02690373_5003.png,n02690373_5003.png,0.0,-0.8122273,2.3535602,-2.2385497
alexnet2023_baseline_pgd,1,240,NaN,clock,chair,0.20,0240_nse_dnn_0.20_chair_10_n02791124_206.png,n02791124_206.png,0.0,-1.2980763,2.6885052,-2.8189387
alexnet2023_baseline_pgd,1,241,NaN,knife,oven,0.00,0241_nse_dnn_0.00_oven_10_n04111531_7283.png,n04111531_7283.png,0.0,5.303328,5.482724,-0.12685224
alexnet2023_baseline_pgd,1,242,NaN,clock,chair,0.35,0242_nse_dnn_0.35_chair_10_n04429376_8124.png,n04429376_8124.png,0.0,-1.5587589,3.215552,-3.3759477
alexnet2023_baseline_pgd,1,243,NaN,knife,keyboard,0.00,0243_nse_dnn_0.00_keyboard_10_n04505470_3864.png,n04505470_3864.png,0.0,1.5959226,3.0719104,-1.043681
alexnet2023_baseline_pgd,1,244,NaN,clock,bottle,0.35,0244_nse_dnn_0.35_bottle_10_n03937543_3289.png,n03937543_3289.png,0.0,0.7847895,2.5948198,-1.2798847
alexnet2023_baseline_pgd,1,245,NaN,clock,boat,0.10,0245_nse_dnn_0.10_boat_10_n03344393_5207.png,n03344393_5207.png,0.0,-0.8893498,3.1446655,-2.8524795
alexnet2023_baseline_pgd,1,246,NaN,keyboard,airplane,0.90,0246_nse_dnn_0.90_airplane_10_n02690373_629.png,n02690373_629.png,0.0,-2.8043587,2.3472216,-3.6427174
alexnet2023_baseline_pgd,1,247,NaN,elephant,elephant,0.03,0247_nse_dnn_0.03_elephant_10_n02504013_104.png,n02504013_104.png,1.0,2.9002695,1.8960394,0.71009797
alexnet2023_baseline_pgd,1,248,NaN,bicycle,bicycle,0.03,0248_nse_dnn_0.03_bicycle_10_n03792782_42626.png,n03792782_42626.png,1.0,2.3303914,1.9937295,0.23805594
alexnet2023_baseline_pgd,1,249,NaN,clock,truck,0.35,0249_nse_dnn_0.35_truck_10_n03417042_6847.png,n03417042_6847.png,0.0,-2.1385531,2.144783,-3.0287762
alexnet2023_baseline_pgd,1,250,NaN,clock,chair,0.10,0250_nse_dnn_0.10_chair_10_n04429376_23573.png,n04429376_23573.png,0.0,0.456518,3.2618427,-1.9836643
alexnet2023_baseline_pgd,1,251,NaN,knife,clock,0.03,0251_nse_dnn_0.03_clock_10_n03196217_7637.png,n03196217_7637.png,0.0,3.4020684,5.3878164,-1.404136
alexnet2023_baseline_pgd,1,252,NaN,airplane,airplane,0.05,0252_nse_dnn_0.05_airplane_10_n02690373_932.png,n02690373_932.png,1.0,4.834518,1.5272207,2.3386123
alexnet2023_baseline_pgd,1,253,NaN,truck,truck,0.05,0253_nse_dnn_0.05_truck_10_n03417042_9478.png,n03417042_9478.png,1.0,3.1453,2.2852318,0.60815996
alexnet2023_baseline_pgd,1,254,NaN,clock,clock,0.05,0254_nse_dnn_0.05_clock_10_n04548280_7800.png,n04548280_7800.png,1.0,6.60359,4.9045367,1.2014121
alexnet2023_baseline_pgd,1,255,NaN,cat,keyboard,0.10,0255_nse_dnn_0.10_keyboard_10_n03085013_1698.png,n03085013_1698.png,0.0,-1.3279508,1.3271883,-1.8774668
alexnet2023_baseline_pgd,1,256,NaN,clock,boat,0.20,0256_nse_dnn_0.20_boat_10_n04273569_32553.png,n04273569_32553.png,0.0,-1.375428,3.32526,-3.3238883
alexnet2023_baseline_pgd,1,257,NaN,airplane,bear,0.03,0257_nse_dnn_0.03_bear_10_n02132136_23078.png,n02132136_23078.png,0.0,-0.55960006,1.7200525,-1.6119578
alexnet2023_baseline_pgd,1,258,NaN,bottle,bottle,0.00,0258_nse_dnn_0.00_bottle_10_n04591713_5476.png,n04591713_5476.png,1.0,4.017181,2.8224907,0.8447736
alexnet2023_baseline_pgd,1,259,NaN,clock,knife,0.10,0259_nse_dnn_0.10_knife_10_n03041632_31849.png,n03041632_31849.png,0.0,-0.78735626,1.0620053,-1.3076961
alexnet2023_baseline_pgd,1,260,NaN,clock,truck,0.90,0260_nse_dnn_0.90_truck_10_n03417042_12908.png,n03417042_12908.png,0.0,-2.8271623,2.4862711,-3.757165
alexnet2023_baseline_pgd,1,261,NaN,clock,clock,0.60,0261_nse_dnn_0.60_clock_10_n02708093_1418.png,n02708093_1418.png,1.0,2.3378503,2.0130637,0.22965886
alexnet2023_baseline_pgd,1,262,NaN,car,car,0.05,0262_nse_dnn_0.05_car_10_n03100240_4173.png,n03100240_4173.png,1.0,4.8960185,3.6433282,0.8857858
alexnet2023_baseline_pgd,1,263,NaN,keyboard,keyboard,0.10,0263_nse_dnn_0.10_keyboard_10_n03085013_25476.png,n03085013_25476.png,1.0,3.9371214,2.2768047,1.1740212
alexnet2023_baseline_pgd,1,264,NaN,cat,cat,0.05,0264_nse_dnn_0.05_cat_10_n02125311_34464.png,n02125311_34464.png,1.0,2.1724117,1.5965358,0.40720576
alexnet2023_baseline_pgd,1,265,NaN,clock,knife,0.20,0265_nse_dnn_0.20_knife_10_n03041632_36789.png,n03041632_36789.png,0.0,-0.38111413,2.2606964,-1.8680421
alexnet2023_baseline_pgd,1,266,NaN,bottle,dog,0.03,0266_nse_dnn_0.03_dog_10_n02108915_3733.png,n02108915_3733.png,0.0,0.63938195,1.2113906,-0.40447122
alexnet2023_baseline_pgd,1,267,NaN,clock,knife,0.60,0267_nse_dnn_0.60_knife_10_n03041632_42162.png,n03041632_42162.png,0.0,2.0070014,2.0716426,-0.045708258
alexnet2023_baseline_pgd,1,268,NaN,knife,keyboard,0.10,0268_nse_dnn_0.10_keyboard_10_n03085013_29042.png,n03085013_29042.png,0.0,-0.8563267,2.7735794,-2.5667312
alexnet2023_baseline_pgd,1,269,NaN,airplane,airplane,0.00,0269_nse_dnn_0.00_airplane_10_n02690373_19407.png,n02690373_19407.png,1.0,8.427858,4.5024495,2.7756832
alexnet2023_baseline_pgd,1,270,NaN,airplane,bear,0.05,0270_nse_dnn_0.05_bear_10_n02134084_22029.png,n02134084_22029.png,0.0,0.047359407,2.0045955,-1.3839749
alexnet2023_baseline_pgd,1,271,NaN,clock,dog,0.60,0271_nse_dnn_0.60_dog_10_n02088238_11711.png,n02088238_11711.png,0.0,-1.0385911,2.3809276,-2.417965
alexnet2023_baseline_pgd,1,272,NaN,clock,elephant,0.20,0272_nse_dnn_0.20_elephant_10_n02504013_8522.png,n02504013_8522.png,0.0,-1.5308943,3.419515,-3.5004678
alexnet2023_baseline_pgd,1,273,NaN,knife,elephant,0.60,0273_nse_dnn_0.60_elephant_10_n02504458_5941.png,n02504458_5941.png,0.0,-0.3688838,2.3147137,-1.89759
alexnet2023_baseline_pgd,1,274,NaN,truck,truck,0.00,0274_nse_dnn_0.00_truck_10_n04467665_242.png,n04467665_242.png,1.0,7.9569993,5.93095,1.4326332
alexnet2023_baseline_pgd,1,275,NaN,keyboard,keyboard,0.00,0275_nse_dnn_0.00_keyboard_10_n04505470_4473.png,n04505470_4473.png,1.0,8.7664795,3.770053,3.5330071
alexnet2023_baseline_pgd,1,276,NaN,boat,boat,0.05,0276_nse_dnn_0.05_boat_10_n03662601_10811.png,n03662601_10811.png,1.0,3.5891857,0.94523066,1.8695586
alexnet2023_baseline_pgd,1,277,NaN,keyboard,keyboard,0.03,0277_nse_dnn_0.03_keyboard_10_n03085013_20495.png,n03085013_20495.png,1.0,8.197249,4.685199,2.4833949
alexnet2023_baseline_pgd,1,278,NaN,bicycle,bicycle,0.00,0278_nse_dnn_0.00_bicycle_10_n02835271_15038.png,n02835271_15038.png,1.0,12.5586605,1.3153393,7.950229
alexnet2023_baseline_pgd,1,279,NaN,clock,bear,0.20,0279_nse_dnn_0.20_bear_10_n02134418_5271.png,n02134418_5271.png,0.0,-1.7089524,3.2610073,-3.5142922
alexnet2023_baseline_pgd,1,280,NaN,knife,chair,0.10,0280_nse_dnn_0.10_chair_10_n02791124_1217.png,n02791124_1217.png,0.0,1.30627,2.960374,-1.1696283
alexnet2023_baseline_pgd,1,281,NaN,clock,elephant,0.10,0281_nse_dnn_0.10_elephant_10_n02504013_2394.png,n02504013_2394.png,0.0,-1.214683,2.3572383,-2.52573
alexnet2023_baseline_pgd,1,282,NaN,clock,dog,0.35,0282_nse_dnn_0.35_dog_10_n02105505_5576.png,n02105505_5576.png,0.0,-1.2901733,2.8407276,-2.920988
alexnet2023_baseline_pgd,1,283,NaN,clock,airplane,0.10,0283_nse_dnn_0.10_airplane_10_n02690373_2579.png,n02690373_2579.png,0.0,-0.13850263,2.5189192,-1.879081
alexnet2023_baseline_pgd,1,284,NaN,elephant,dog,0.05,0284_nse_dnn_0.05_dog_10_n02102480_10015.png,n02102480_10015.png,0.0,0.6345969,4.0107136,-2.387275
alexnet2023_baseline_pgd,1,285,NaN,knife,cat,0.10,0285_nse_dnn_0.10_cat_10_n02124075_5853.png,n02124075_5853.png,0.0,1.2933401,1.8487846,-0.39275858
alexnet2023_baseline_pgd,1,286,NaN,airplane,truck,0.00,0286_nse_dnn_0.00_truck_10_n03796401_2012.png,n03796401_2012.png,0.0,4.152048,6.766034,-1.8483672
alexnet2023_baseline_pgd,1,287,NaN,clock,keyboard,0.10,0287_nse_dnn_0.10_keyboard_10_n04505470_1286.png,n04505470_1286.png,0.0,0.27902818,1.7125702,-1.0136673
alexnet2023_baseline_pgd,1,288,NaN,clock,truck,0.10,0288_nse_dnn_0.10_truck_10_n04467665_74008.png,n04467665_74008.png,0.0,-0.3182354,2.5967255,-2.0611887
alexnet2023_baseline_pgd,1,289,NaN,clock,bottle,0.90,0289_nse_dnn_0.90_bottle_10_n04560804_10541.png,n04560804_10541.png,0.0,1.1189195,1.7999659,-0.4815725
alexnet2023_baseline_pgd,1,290,NaN,clock,airplane,0.20,0290_nse_dnn_0.20_airplane_10_n02690373_8967.png,n02690373_8967.png,0.0,0.5568021,1.8731087,-0.9307693
alexnet2023_baseline_pgd,1,291,NaN,clock,keyboard,0.60,0291_nse_dnn_0.60_keyboard_10_n04505470_3309.png,n04505470_3309.png,0.0,2.1241665,2.1610029,-0.026047258
alexnet2023_baseline_pgd,1,292,NaN,car,car,0.05,0292_nse_dnn_0.05_car_10_n02814533_42665.png,n02814533_42665.png,1.0,6.1784177,4.2049847,1.395428
alexnet2023_baseline_pgd,1,293,NaN,bicycle,bicycle,0.03,0293_nse_dnn_0.03_bicycle_10_n03792782_6613.png,n03792782_6613.png,1.0,2.0176435,1.4659301,0.39012027
alexnet2023_baseline_pgd,1,294,NaN,knife,knife,0.00,0294_nse_dnn_0.00_knife_10_n03041632_38540.png,n03041632_38540.png,1.0,11.2800865,2.92082,5.910894
alexnet2023_baseline_pgd,1,295,NaN,clock,dog,0.90,0295_nse_dnn_0.90_dog_10_n02109047_6542.png,n02109047_6542.png,0.0,-0.37893635,1.9694881,-1.6605868
alexnet2023_baseline_pgd,1,296,NaN,clock,bicycle,0.35,0296_nse_dnn_0.35_bicycle_10_n03792782_51156.png,n03792782_51156.png,0.0,-1.6695027,2.912628,-3.2400556
alexnet2023_baseline_pgd,1,297,NaN,clock,bottle,0.10,0297_nse_dnn_0.10_bottle_10_n04579145_5795.png,n04579145_5795.png,0.0,0.98675746,2.722823,-1.2275836
alexnet2023_baseline_pgd,1,298,NaN,chair,chair,0.03,0298_nse_dnn_0.03_chair_10_n03376595_787.png,n03376595_787.png,1.0,3.80037,1.1319437,1.8868624
alexnet2023_baseline_pgd,1,299,NaN,clock,bottle,0.90,0299_nse_dnn_0.90_bottle_10_n04579145_1117.png,n04579145_1117.png,0.0,1.2072964,1.5918522,-0.27192202
alexnet2023_baseline_pgd,1,300,NaN,elephant,bird,0.00,0300_nse_dnn_0.00_bird_10_n01795545_11076.png,n01795545_11076.png,0.0,1.7477965,2.9393535,-0.842558
alexnet2023_baseline_pgd,1,301,NaN,clock,clock,0.20,0301_nse_dnn_0.20_clock_10_n03196217_6741.png,n03196217_6741.png,1.0,3.2469246,1.2712494,1.3970134
alexnet2023_baseline_pgd,1,302,NaN,knife,oven,0.00,0302_nse_dnn_0.00_oven_10_n04111531_3555.png,n04111531_3555.png,0.0,1.4430017,5.570984,-2.9189243
alexnet2023_baseline_pgd,1,303,NaN,clock,knife,0.20,0303_nse_dnn_0.20_knife_10_n03041632_36280.png,n03041632_36280.png,0.0,-0.27928865,3.2983332,-2.5297608
alexnet2023_baseline_pgd,1,304,NaN,truck,truck,0.03,0304_nse_dnn_0.03_truck_10_n04467665_74235.png,n04467665_74235.png,1.0,11.3146305,7.0396132,3.0228937
alexnet2023_baseline_pgd,1,305,NaN,clock,clock,0.90,0305_nse_dnn_0.90_clock_10_n04548280_6287.png,n04548280_6287.png,1.0,2.5365512,1.7886544,0.5288429
alexnet2023_baseline_pgd,1,306,NaN,elephant,elephant,0.00,0306_nse_dnn_0.00_elephant_10_n02504458_6472.png,n02504458_6472.png,1.0,7.2431707,4.3842745,2.021545
alexnet2023_baseline_pgd,1,307,NaN,bicycle,bicycle,0.05,0307_nse_dnn_0.05_bicycle_10_n03792782_11034.png,n03792782_11034.png,1.0,4.957428,1.5307896,2.4229994
alexnet2023_baseline_pgd,1,308,NaN,clock,dog,0.60,0308_nse_dnn_0.60_dog_10_n02109525_50916.png,n02109525_50916.png,0.0,-0.94851285,2.509302,-2.4450443
alexnet2023_baseline_pgd,1,309,NaN,keyboard,dog,0.60,0309_nse_dnn_0.60_dog_10_n02097658_1923.png,n02097658_1923.png,0.0,-0.7147479,2.5796313,-2.329478
alexnet2023_baseline_pgd,1,310,NaN,bottle,knife,0.03,0310_nse_dnn_0.03_knife_10_n03041632_22480.png,n03041632_22480.png,0.0,-0.7692001,3.3162804,-2.8888712
alexnet2023_baseline_pgd,1,311,NaN,clock,elephant,0.35,0311_nse_dnn_0.35_elephant_10_n02504458_1041.png,n02504458_1041.png,0.0,-0.8594289,1.9679445,-1.9992551
alexnet2023_baseline_pgd,1,312,NaN,elephant,knife,0.10,0312_nse_dnn_0.10_knife_10_n03041632_28129.png,n03041632_28129.png,0.0,-1.5388242,2.7181492,-3.0101347
alexnet2023_baseline_pgd,1,313,NaN,car,car,0.00,0313_nse_dnn_0.00_car_10_n03100240_14667.png,n03100240_14667.png,1.0,13.178734,9.540483,2.5726316
alexnet2023_baseline_pgd,1,314,NaN,airplane,airplane,0.03,0314_nse_dnn_0.03_airplane_10_n02690373_3821.png,n02690373_3821.png,1.0,9.892067,4.473657,3.8313944
alexnet2023_baseline_pgd,1,315,NaN,keyboard,cat,0.90,0315_nse_dnn_0.90_cat_10_n02124075_1183.png,n02124075_1183.png,0.0,-1.4140654,2.7914228,-2.9737294
alexnet2023_baseline_pgd,1,316,NaN,clock,car,0.90,0316_nse_dnn_0.90_car_10_n03100240_1194.png,n03100240_1194.png,0.0,-2.3926795,1.8611131,-3.0078857
alexnet2023_baseline_pgd,1,317,NaN,clock,oven,0.60,0317_nse_dnn_0.60_oven_10_n04111531_9370.png,n04111531_9370.png,0.0,-1.5500594,2.0146601,-2.5206375
alexnet2023_baseline_pgd,1,318,NaN,clock,truck,0.20,0318_nse_dnn_0.20_truck_10_n03417042_10597.png,n03417042_10597.png,0.0,-1.2813972,3.1725438,-3.149412
alexnet2023_baseline_pgd,1,319,NaN,truck,truck,0.05,0319_nse_dnn_0.05_truck_10_n03417042_6489.png,n03417042_6489.png,1.0,2.7500124,2.0863652,0.46926942
alexnet2023_baseline_pgd,1,320,NaN,bottle,bottle,0.05,0320_nse_dnn_0.05_bottle_10_n04591713_6662.png,n04591713_6662.png,1.0,2.210511,1.3581429,0.6027153
alexnet2023_baseline_pgd,1,321,NaN,keyboard,bottle,0.60,0321_nse_dnn_0.60_bottle_10_n04560804_4624.png,n04560804_4624.png,0.0,1.637534,2.6548903,-0.71937954
alexnet2023_baseline_pgd,1,322,NaN,elephant,bird,0.00,0322_nse_dnn_0.00_bird_10_n01818515_7370.png,n01818515_7370.png,0.0,2.8560953,3.0605679,-0.14458393
alexnet2023_baseline_pgd,1,323,NaN,airplane,keyboard,0.05,0323_nse_dnn_0.05_keyboard_10_n03085013_15646.png,n03085013_15646.png,0.0,0.7543732,3.0038252,-1.5906029
alexnet2023_baseline_pgd,1,324,NaN,cat,cat,0.03,0324_nse_dnn_0.03_cat_10_n02124075_14924.png,n02124075_14924.png,1.0,3.8960621,2.0649896,1.2947638
alexnet2023_baseline_pgd,1,325,NaN,clock,elephant,0.20,0325_nse_dnn_0.20_elephant_10_n02504013_18217.png,n02504013_18217.png,0.0,0.2536481,2.531347,-1.6105764
alexnet2023_baseline_pgd,1,326,NaN,keyboard,keyboard,0.35,0326_nse_dnn_0.35_keyboard_10_n04505470_4724.png,n04505470_4724.png,1.0,2.8405006,2.325504,0.36415756
alexnet2023_baseline_pgd,1,327,NaN,clock,clock,0.20,0327_nse_dnn_0.20_clock_10_n04548280_9646.png,n04548280_9646.png,1.0,2.8674667,0.5911607,1.6095914
alexnet2023_baseline_pgd,1,328,NaN,clock,cat,0.35,0328_nse_dnn_0.35_cat_10_n02123394_6376.png,n02123394_6376.png,0.0,-1.3626738,3.3938873,-3.363397
alexnet2023_baseline_pgd,1,329,NaN,clock,elephant,0.35,0329_nse_dnn_0.35_elephant_10_n02504458_130.png,n02504458_130.png,0.0,-2.3728447,2.8807461,-3.7148495
alexnet2023_baseline_pgd,1,330,NaN,clock,cat,0.90,0330_nse_dnn_0.90_cat_10_n02124075_9291.png,n02124075_9291.png,0.0,-1.012154,2.3815205,-2.3996902
alexnet2023_baseline_pgd,1,331,NaN,clock,bird,0.10,0331_nse_dnn_0.10_bird_10_n02037110_3949.png,n02037110_3949.png,0.0,0.2827497,3.0780811,-1.9765979
alexnet2023_baseline_pgd,1,332,NaN,car,car,0.00,0332_nse_dnn_0.00_car_10_n04285008_10905.png,n04285008_10905.png,1.0,9.751224,6.599744,2.2284327
alexnet2023_baseline_pgd,1,333,NaN,knife,chair,0.10,0333_nse_dnn_0.10_chair_10_n04429376_619.png,n04429376_619.png,0.0,1.0691842,3.045861,-1.3977216
alexnet2023_baseline_pgd,1,334,NaN,clock,boat,0.90,0334_nse_dnn_0.90_boat_10_n02951358_30335.png,n02951358_30335.png,0.0,-3.7585266,2.378577,-4.3395877
alexnet2023_baseline_pgd,1,335,NaN,clock,oven,0.90,0335_nse_dnn_0.90_oven_10_n04111531_17995.png,n04111531_17995.png,0.0,-1.3311274,2.1725092,-2.4774451
alexnet2023_baseline_pgd,1,336,NaN,clock,bird,0.35,0336_nse_dnn_0.35_bird_10_n01828970_11221.png,n01828970_11221.png,0.0,0.7541338,2.8412037,-1.4757813
alexnet2023_baseline_pgd,1,337,NaN,knife,elephant,0.10,0337_nse_dnn_0.10_elephant_10_n02504013_1719.png,n02504013_1719.png,0.0,0.25408858,2.1666687,-1.3523983
alexnet2023_baseline_pgd,1,338,NaN,clock,oven,0.10,0338_nse_dnn_0.10_oven_10_n04111531_8009.png,n04111531_8009.png,0.0,0.9444022,2.419555,-1.0430905
alexnet2023_baseline_pgd,1,339,NaN,clock,airplane,0.60,0339_nse_dnn_0.60_airplane_10_n02690373_8233.png,n02690373_8233.png,0.0,-3.1582074,2.6657279,-4.1181445
alexnet2023_baseline_pgd,1,340,NaN,clock,dog,0.10,0340_nse_dnn_0.10_dog_10_n02092339_401.png,n02092339_401.png,0.0,-0.15537225,1.6774607,-1.2960086
alexnet2023_baseline_pgd,1,341,NaN,clock,bottle,0.10,0341_nse_dnn_0.10_bottle_10_n02823428_11579.png,n02823428_11579.png,0.0,1.630949,2.457719,-0.58461475
alexnet2023_baseline_pgd,1,342,NaN,keyboard,car,0.60,0342_nse_dnn_0.60_car_10_n04285008_6951.png,n04285008_6951.png,0.0,-3.2365582,2.2262962,-3.8628213
alexnet2023_baseline_pgd,1,343,NaN,keyboard,bicycle,0.35,0343_nse_dnn_0.35_bicycle_10_n03792782_12504.png,n03792782_12504.png,0.0,-2.0899568,2.8434231,-3.4884267
alexnet2023_baseline_pgd,1,344,NaN,bottle,bottle,0.00,0344_nse_dnn_0.00_bottle_10_n02823428_4073.png,n02823428_4073.png,1.0,8.101,3.7702715,3.0622876
alexnet2023_baseline_pgd,1,345,NaN,clock,elephant,0.35,0345_nse_dnn_0.35_elephant_10_n02504013_945.png,n02504013_945.png,0.0,-1.3685035,2.5758176,-2.7890563
alexnet2023_baseline_pgd,1,346,NaN,cat,cat,0.10,0346_nse_dnn_0.10_cat_10_n02124075_12815.png,n02124075_12815.png,1.0,2.3954675,2.3003764,0.06723957
alexnet2023_baseline_pgd,1,347,NaN,clock,truck,0.60,0347_nse_dnn_0.60_truck_10_n03417042_4876.png,n03417042_4876.png,0.0,-2.4289694,2.7550333,-3.6656437
alexnet2023_baseline_pgd,1,348,NaN,chair,keyboard,0.05,0348_nse_dnn_0.05_keyboard_10_n04505470_4628.png,n04505470_4628.png,0.0,-0.277384,5.00503,-3.7352307
alexnet2023_baseline_pgd,1,349,NaN,clock,bear,0.20,0349_nse_dnn_0.20_bear_10_n02133161_1427.png,n02133161_1427.png,0.0,-1.3214235,2.6192133,-2.786451
alexnet2023_baseline_pgd,1,350,NaN,keyboard,boat,0.60,0350_nse_dnn_0.60_boat_10_n04273569_7296.png,n04273569_7296.png,0.0,-3.8092296,3.1253,-4.903453
alexnet2023_baseline_pgd,1,351,NaN,clock,chair,0.90,0351_nse_dnn_0.90_chair_10_n04099969_41686.png,n04099969_41686.png,0.0,-1.3010802,1.9047183,-2.266842
alexnet2023_baseline_pgd,1,352,NaN,airplane,airplane,0.03,0352_nse_dnn_0.03_airplane_10_n02690373_10006.png,n02690373_10006.png,1.0,2.3659055,1.6741036,0.48917782
alexnet2023_baseline_pgd,1,353,NaN,clock,knife,0.90,0353_nse_dnn_0.90_knife_10_n03041632_20595.png,n03041632_20595.png,0.0,0.60631984,2.4449747,-1.3001252
alexnet2023_baseline_pgd,1,354,NaN,clock,oven,0.90,0354_nse_dnn_0.90_oven_10_n04111531_2054.png,n04111531_2054.png,0.0,-1.9626219,2.3859475,-3.074903
alexnet2023_baseline_pgd,1,355,NaN,clock,truck,0.20,0355_nse_dnn_0.20_truck_10_n04467665_40307.png,n04467665_40307.png,0.0,-1.3091161,2.4894974,-2.6860254
alexnet2023_baseline_pgd,1,356,NaN,elephant,bear,0.00,0356_nse_dnn_0.00_bear_10_n02133161_396.png,n02133161_396.png,0.0,6.799303,7.150053,-0.24801768
alexnet2023_baseline_pgd,1,357,NaN,elephant,dog,0.03,0357_nse_dnn_0.03_dog_10_n02105056_5636.png,n02105056_5636.png,0.0,0.7929454,1.5790333,-0.55584806
alexnet2023_baseline_pgd,1,358,NaN,clock,bicycle,0.35,0358_nse_dnn_0.35_bicycle_10_n02835271_8798.png,n02835271_8798.png,0.0,-1.1214095,2.7844832,-2.7618833
alexnet2023_baseline_pgd,1,359,NaN,clock,bear,0.90,0359_nse_dnn_0.90_bear_10_n02134418_5478.png,n02134418_5478.png,0.0,-0.34966663,1.9977417,-1.6598684
alexnet2023_baseline_pgd,1,360,NaN,clock,boat,0.90,0360_nse_dnn_0.90_boat_10_n04612504_4250.png,n04612504_4250.png,0.0,-3.8287842,2.1295185,-4.213156
alexnet2023_baseline_pgd,1,361,NaN,clock,knife,0.35,0361_nse_dnn_0.35_knife_10_n03041632_18959.png,n03041632_18959.png,0.0,0.23259789,1.4916714,-0.89029944
alexnet2023_baseline_pgd,1,362,NaN,clock,dog,0.35,0362_nse_dnn_0.35_dog_10_n02105251_6564.png,n02105251_6564.png,0.0,-0.89647865,2.7244337,-2.5603716
alexnet2023_baseline_pgd,1,363,NaN,clock,boat,0.90,0363_nse_dnn_0.90_boat_10_n04612504_7148.png,n04612504_7148.png,0.0,-3.6029232,2.139488,-4.0604978
alexnet2023_baseline_pgd,1,364,NaN,boat,boat,0.03,0364_nse_dnn_0.03_boat_10_n04273569_4348.png,n04273569_4348.png,1.0,3.7520409,2.2873223,1.0357125
alexnet2023_baseline_pgd,1,365,NaN,car,car,0.03,0365_nse_dnn_0.03_car_10_n02814533_88986.png,n02814533_88986.png,1.0,6.547766,4.2890224,1.5971731
alexnet2023_baseline_pgd,1,366,NaN,airplane,bear,0.03,0366_nse_dnn_0.03_bear_10_n02134418_2590.png,n02134418_2590.png,0.0,1.356275,1.6699895,-0.22182965
alexnet2023_baseline_pgd,1,367,NaN,clock,bird,0.20,0367_nse_dnn_0.20_bird_10_n02007558_5877.png,n02007558_5877.png,0.0,0.604762,1.967461,-0.96357375
alexnet2023_baseline_pgd,1,368,NaN,clock,clock,0.05,0368_nse_dnn_0.05_clock_10_n02708093_1313.png,n02708093_1313.png,1.0,4.721472,1.9224799,1.9791862
alexnet2023_baseline_pgd,1,369,NaN,clock,keyboard,0.35,0369_nse_dnn_0.35_keyboard_10_n03085013_20798.png,n03085013_20798.png,0.0,1.0119145,2.2700164,-0.88961244
alexnet2023_baseline_pgd,1,370,NaN,clock,dog,0.90,0370_nse_dnn_0.90_dog_10_n02109525_13812.png,n02109525_13812.png,0.0,-0.846944,2.4933634,-2.361954
alexnet2023_baseline_pgd,1,371,NaN,clock,bear,0.20,0371_nse_dnn_0.20_bear_10_n02134418_4458.png,n02134418_4458.png,0.0,-0.8439732,2.285365,-2.2127764
alexnet2023_baseline_pgd,1,372,NaN,clock,bottle,0.20,0372_nse_dnn_0.20_bottle_10_n04560804_21519.png,n04560804_21519.png,0.0,1.1170137,2.7902584,-1.1831627
alexnet2023_baseline_pgd,1,373,NaN,knife,elephant,0.10,0373_nse_dnn_0.10_elephant_10_n02504458_8183.png,n02504458_8183.png,0.0,1.4489971,1.9602058,-0.3614791
alexnet2023_baseline_pgd,1,374,NaN,clock,keyboard,0.90,0374_nse_dnn_0.90_keyboard_10_n03085013_20330.png,n03085013_20330.png,0.0,2.0473888,2.9222527,-0.6186222
alexnet2023_baseline_pgd,1,375,NaN,elephant,elephant,0.10,0375_nse_dnn_0.10_elephant_10_n02504013_5533.png,n02504013_5533.png,1.0,1.6878941,1.4756874,0.15005282
alexnet2023_baseline_pgd,1,376,NaN,clock,oven,0.90,0376_nse_dnn_0.90_oven_10_n04111531_1009.png,n04111531_1009.png,0.0,-0.7958537,2.0427034,-2.007163
alexnet2023_baseline_pgd,1,377,NaN,bicycle,bicycle,0.05,0377_nse_dnn_0.05_bicycle_10_n03792782_48457.png,n03792782_48457.png,1.0,2.5622587,1.6232606,0.66397196
alexnet2023_baseline_pgd,1,378,NaN,clock,cat,0.10,0378_nse_dnn_0.10_cat_10_n02124075_7240.png,n02124075_7240.png,0.0,1.2235037,1.7077141,-0.34238845
alexnet2023_baseline_pgd,1,379,NaN,clock,car,0.60,0379_nse_dnn_0.60_car_10_n02814533_39597.png,n02814533_39597.png,0.0,-2.8376396,2.9918652,-4.1220827
alexnet2023_baseline_pgd,1,380,NaN,chair,chair,0.03,0380_nse_dnn_0.03_chair_10_n04429376_33792.png,n04429376_33792.png,1.0,2.886621,1.8299624,0.7471705
alexnet2023_baseline_pgd,1,381,NaN,clock,bicycle,0.60,0381_nse_dnn_0.60_bicycle_10_n03792782_15679.png,n03792782_15679.png,0.0,-3.3653195,2.602727,-4.220046
alexnet2023_baseline_pgd,1,382,NaN,clock,bicycle,0.60,0382_nse_dnn_0.60_bicycle_10_n02835271_9237.png,n02835271_9237.png,0.0,-3.5674424,2.1584885,-4.048845
alexnet2023_baseline_pgd,1,383,NaN,clock,bottle,0.35,0383_nse_dnn_0.35_bottle_10_n04591713_665.png,n04591713_665.png,0.0,1.6350652,3.3356488,-1.2024941
alexnet2023_baseline_pgd,1,384,NaN,airplane,cat,0.03,0384_nse_dnn_0.03_cat_10_n02123159_8257.png,n02123159_8257.png,0.0,0.4381349,3.4141212,-2.10434
alexnet2023_baseline_pgd,1,385,NaN,cat,dog,0.10,0385_nse_dnn_0.10_dog_10_n02108551_26509.png,n02108551_26509.png,0.0,-0.14908633,2.022832,-1.535778
alexnet2023_baseline_pgd,1,386,NaN,clock,clock,0.60,0386_nse_dnn_0.60_clock_10_n03196217_3697.png,n03196217_3697.png,1.0,2.924628,2.5321405,0.2775306
alexnet2023_baseline_pgd,1,387,NaN,bicycle,bicycle,0.03,0387_nse_dnn_0.03_bicycle_10_n02835271_25268.png,n02835271_25268.png,1.0,6.4700346,1.2714721,3.6759388
alexnet2023_baseline_pgd,1,388,NaN,clock,truck,0.10,0388_nse_dnn_0.10_truck_10_n03796401_407.png,n03796401_407.png,0.0,-1.0396676,2.7804763,-2.7012498
alexnet2023_baseline_pgd,1,389,NaN,clock,clock,0.05,0389_nse_dnn_0.05_clock_10_n04548280_2045.png,n04548280_2045.png,1.0,4.593806,2.0146587,1.8237324
alexnet2023_baseline_pgd,1,390,NaN,cat,oven,0.05,0390_nse_dnn_0.05_oven_10_n04111531_5792.png,n04111531_5792.png,0.0,1.0596817,1.3180941,-0.18272522
alexnet2023_baseline_pgd,1,391,NaN,elephant,elephant,0.05,0391_nse_dnn_0.05_elephant_10_n02504458_8212.png,n02504458_8212.png,1.0,2.934639,0.666335,1.6039331
alexnet2023_baseline_pgd,1,392,NaN,knife,bird,0.03,0392_nse_dnn_0.03_bird_10_n01843383_8624.png,n01843383_8624.png,0.0,-2.1360183,2.8300886,-3.5115678
alexnet2023_baseline_pgd,1,393,NaN,clock,airplane,0.20,0393_nse_dnn_0.20_airplane_10_n02690373_4814.png,n02690373_4814.png,0.0,-0.08804701,2.848751,-2.0766299
alexnet2023_baseline_pgd,1,394,NaN,clock,truck,0.60,0394_nse_dnn_0.60_truck_10_n03796401_6184.png,n03796401_6184.png,0.0,-2.9519634,2.2780693,-3.698192
alexnet2023_baseline_pgd,1,395,NaN,dog,dog,0.03,0395_nse_dnn_0.03_dog_10_n02094114_1589.png,n02094114_1589.png,1.0,1.2770685,1.2250971,0.036749355
alexnet2023_baseline_pgd,1,396,NaN,keyboard,clock,0.90,0396_nse_dnn_0.90_clock_10_n02708093_6572.png,n02708093_6572.png,0.0,2.4661167,2.525663,-0.042105544
alexnet2023_baseline_pgd,1,397,NaN,knife,boat,0.60,0397_nse_dnn_0.60_boat_10_n02951358_15551.png,n02951358_15551.png,0.0,-4.0227365,1.8088076,-4.123524
alexnet2023_baseline_pgd,1,398,NaN,clock,boat,0.35,0398_nse_dnn_0.35_boat_10_n03662601_7352.png,n03662601_7352.png,0.0,-2.5552008,2.4644039,-3.5493965
alexnet2023_baseline_pgd,1,399,NaN,keyboard,bicycle,0.60,0399_nse_dnn_0.60_bicycle_10_n03792782_14984.png,n03792782_14984.png,0.0,-2.9895658,2.9699523,-4.214016
alexnet2023_baseline_pgd,1,400,NaN,clock,knife,0.35,0400_nse_dnn_0.35_knife_10_n03041632_84012.png,n03041632_84012.png,0.0,1.318953,2.564617,-0.8808174
alexnet2023_baseline_pgd,1,401,NaN,clock,keyboard,0.10,0401_nse_dnn_0.10_keyboard_10_n03085013_9146.png,n03085013_9146.png,0.0,1.042729,2.8103657,-1.2499079
alexnet2023_baseline_pgd,1,402,NaN,airplane,airplane,0.03,0402_nse_dnn_0.03_airplane_10_n02690373_6755.png,n02690373_6755.png,1.0,6.2670503,2.4917388,2.6695483
alexnet2023_baseline_pgd,1,403,NaN,clock,dog,0.20,0403_nse_dnn_0.20_dog_10_n02086079_17983.png,n02086079_17983.png,0.0,-1.121017,2.9827635,-2.9018114
alexnet2023_baseline_pgd,1,404,NaN,elephant,bear,0.00,0404_nse_dnn_0.00_bear_10_n02134418_3284.png,n02134418_3284.png,0.0,3.675583,3.7972927,-0.08606184
alexnet2023_baseline_pgd,1,405,NaN,clock,elephant,0.35,0405_nse_dnn_0.35_elephant_10_n02504458_8064.png,n02504458_8064.png,0.0,-1.3722444,2.2425537,-2.5560482
alexnet2023_baseline_pgd,1,406,NaN,clock,cat,0.20,0406_nse_dnn_0.20_cat_10_n02123394_289.png,n02123394_289.png,0.0,-0.48666343,3.1842632,-2.5957372
alexnet2023_baseline_pgd,1,407,NaN,clock,knife,0.20,0407_nse_dnn_0.20_knife_10_n03041632_18995.png,n03041632_18995.png,0.0,0.09831489,2.8832333,-1.9692347
alexnet2023_baseline_pgd,1,408,NaN,airplane,bird,0.03,0408_nse_dnn_0.03_bird_10_n01843065_4999.png,n01843065_4999.png,0.0,-0.43636268,4.167661,-3.2555366
alexnet2023_baseline_pgd,1,409,NaN,clock,keyboard,0.60,0409_nse_dnn_0.60_keyboard_10_n03085013_22417.png,n03085013_22417.png,0.0,2.30847,2.5050547,-0.13900638
alexnet2023_baseline_pgd,1,410,NaN,airplane,bear,0.05,0410_nse_dnn_0.05_bear_10_n02132136_3224.png,n02132136_3224.png,0.0,-0.4828425,2.0544121,-1.79411
alexnet2023_baseline_pgd,1,411,NaN,bicycle,boat,0.05,0411_nse_dnn_0.05_boat_10_n03662601_33184.png,n03662601_33184.png,0.0,1.0031618,2.1054187,-0.77941334
alexnet2023_baseline_pgd,1,412,NaN,cat,bear,0.05,0412_nse_dnn_0.05_bear_10_n02133161_2396.png,n02133161_2396.png,0.0,0.37309873,1.9189124,-1.0930554
alexnet2023_baseline_pgd,1,413,NaN,clock,keyboard,0.35,0413_nse_dnn_0.35_keyboard_10_n03085013_24578.png,n03085013_24578.png,0.0,1.2185345,2.5480826,-0.9401325
alexnet2023_baseline_pgd,1,414,NaN,clock,car,0.35,0414_nse_dnn_0.35_car_10_n02814533_4519.png,n02814533_4519.png,0.0,-1.7559534,2.1170433,-2.7386224
alexnet2023_baseline_pgd,1,415,NaN,bottle,bottle,0.00,0415_nse_dnn_0.00_bottle_10_n03937543_2428.png,n03937543_2428.png,1.0,4.2431307,3.8553054,0.27423388
alexnet2023_baseline_pgd,1,416,NaN,elephant,dog,0.05,0416_nse_dnn_0.05_dog_10_n02091635_8296.png,n02091635_8296.png,0.0,-0.17445979,1.3430237,-1.0730228
alexnet2023_baseline_pgd,1,417,NaN,clock,bottle,0.35,0417_nse_dnn_0.35_bottle_10_n03983396_11434.png,n03983396_11434.png,0.0,1.154203,2.5383606,-0.9787472
alexnet2023_baseline_pgd,1,418,NaN,oven,boat,0.00,0418_nse_dnn_0.00_boat_10_n02951358_7315.png,n02951358_7315.png,0.0,1.7471008,3.7190957,-1.394411
alexnet2023_baseline_pgd,1,419,NaN,clock,bird,0.20,0419_nse_dnn_0.20_bird_10_n01860187_7297.png,n01860187_7297.png,0.0,0.7053203,2.1472857,-1.0196235
alexnet2023_baseline_pgd,1,420,NaN,clock,oven,0.20,0420_nse_dnn_0.20_oven_10_n04111531_4250.png,n04111531_4250.png,0.0,-1.3734674,2.1371772,-2.4824007
alexnet2023_baseline_pgd,1,421,NaN,clock,bear,0.20,0421_nse_dnn_0.20_bear_10_n02133161_9463.png,n02133161_9463.png,0.0,-1.8505001,2.7990742,-3.2877455
alexnet2023_baseline_pgd,1,422,NaN,bird,bird,0.00,0422_nse_dnn_0.00_bird_10_n02009229_4129.png,n02009229_4129.png,1.0,4.6649003,1.5495858,2.20286
alexnet2023_baseline_pgd,1,423,NaN,cat,knife,0.10,0423_nse_dnn_0.10_knife_10_n03041632_30821.png,n03041632_30821.png,0.0,0.8887632,1.6846813,-0.5627991
alexnet2023_baseline_pgd,1,424,NaN,clock,cat,0.90,0424_nse_dnn_0.90_cat_10_n02123394_2490.png,n02123394_2490.png,0.0,-0.97945625,1.8561207,-2.0050557
alexnet2023_baseline_pgd,1,425,NaN,dog,dog,0.00,0425_nse_dnn_0.00_dog_10_n02087394_2723.png,n02087394_2723.png,1.0,4.88542,4.6800976,0.14518477
alexnet2023_baseline_pgd,1,426,NaN,clock,dog,0.90,0426_nse_dnn_0.90_dog_10_n02093754_5736.png,n02093754_5736.png,0.0,-0.5680182,2.079191,-1.8718596
alexnet2023_baseline_pgd,1,427,NaN,keyboard,bottle,0.60,0427_nse_dnn_0.60_bottle_10_n02823428_9063.png,n02823428_9063.png,0.0,1.0043567,2.940561,-1.3691032
alexnet2023_baseline_pgd,1,428,NaN,clock,truck,0.60,0428_nse_dnn_0.60_truck_10_n04467665_20933.png,n04467665_20933.png,0.0,-1.9430871,2.751909,-3.3198636
alexnet2023_baseline_pgd,1,429,NaN,cat,car,0.10,0429_nse_dnn_0.10_car_10_n03100240_5999.png,n03100240_5999.png,0.0,-0.8747495,2.3170846,-2.2569675
alexnet2023_baseline_pgd,1,430,NaN,chair,oven,0.03,0430_nse_dnn_0.03_oven_10_n04111531_3671.png,n04111531_3671.png,0.0,1.7272322,3.5826788,-1.3119988
alexnet2023_baseline_pgd,1,431,NaN,elephant,truck,0.05,0431_nse_dnn_0.05_truck_10_n03417042_7187.png,n03417042_7187.png,0.0,0.6992239,1.2494154,-0.38904417
alexnet2023_baseline_pgd,1,432,NaN,clock,bottle,0.35,0432_nse_dnn_0.35_bottle_10_n04557648_2954.png,n04557648_2954.png,0.0,0.9532917,2.219608,-0.8954209
alexnet2023_baseline_pgd,1,433,NaN,clock,elephant,0.35,0433_nse_dnn_0.35_elephant_10_n02504013_6645.png,n02504013_6645.png,0.0,-2.1300397,2.6908076,-3.408854
alexnet2023_baseline_pgd,1,434,NaN,clock,keyboard,0.10,0434_nse_dnn_0.10_keyboard_10_n04505470_6876.png,n04505470_6876.png,0.0,0.027460694,2.1470878,-1.4988027
alexnet2023_baseline_pgd,1,435,NaN,clock,bird,0.20,0435_nse_dnn_0.20_bird_10_n02056570_3286.png,n02056570_3286.png,0.0,-0.63995785,2.3344707,-2.1032388
alexnet2023_baseline_pgd,1,436,NaN,clock,bird,0.90,0436_nse_dnn_0.90_bird_10_n02037110_8826.png,n02037110_8826.png,0.0,0.30023333,2.5683086,-1.6037714
alexnet2023_baseline_pgd,1,437,NaN,car,car,0.00,0437_nse_dnn_0.00_car_10_n03100240_11400.png,n03100240_11400.png,1.0,10.157985,4.8826423,3.7302306
alexnet2023_baseline_pgd,1,438,NaN,keyboard,bird,0.60,0438_nse_dnn_0.60_bird_10_n02018795_6389.png,n02018795_6389.png,0.0,-0.007470041,2.565712,-1.8195145
alexnet2023_baseline_pgd,1,439,NaN,clock,oven,0.35,0439_nse_dnn_0.35_oven_10_n04111531_2458.png,n04111531_2458.png,0.0,-0.92569464,2.5738215,-2.4745317
alexnet2023_baseline_pgd,1,440,NaN,keyboard,cat,0.60,0440_nse_dnn_0.60_cat_10_n02123159_2256.png,n02123159_2256.png,0.0,-1.8256072,2.6129808,-3.1385558
alexnet2023_baseline_pgd,1,441,NaN,elephant,elephant,0.03,0441_nse_dnn_0.03_elephant_10_n02504458_611.png,n02504458_611.png,1.0,12.627701,7.464916,3.65064
alexnet2023_baseline_pgd,1,442,NaN,elephant,knife,0.03,0442_nse_dnn_0.03_knife_10_n03041632_18141.png,n03041632_18141.png,0.0,0.52647865,3.5404382,-2.1311913
alexnet2023_baseline_pgd,1,443,NaN,keyboard,bird,0.60,0443_nse_dnn_0.60_bird_10_n01843065_1871.png,n01843065_1871.png,0.0,-0.26844957,3.048575,-2.3454905
alexnet2023_baseline_pgd,1,444,NaN,bottle,bird,0.05,0444_nse_dnn_0.05_bird_10_n01833805_7361.png,n01833805_7361.png,0.0,-0.12492628,1.579986,-1.2055551
alexnet2023_baseline_pgd,1,445,NaN,clock,elephant,0.20,0445_nse_dnn_0.20_elephant_10_n02504458_5827.png,n02504458_5827.png,0.0,-2.1448421,3.036752,-3.6639402
alexnet2023_baseline_pgd,1,446,NaN,clock,bicycle,0.35,0446_nse_dnn_0.35_bicycle_10_n02835271_5825.png,n02835271_5825.png,0.0,-1.7729394,2.1784117,-2.7940273
alexnet2023_baseline_pgd,1,447,NaN,clock,bear,0.90,0447_nse_dnn_0.90_bear_10_n02134084_12801.png,n02134084_12801.png,0.0,-0.35742468,2.4272182,-1.9690399
alexnet2023_baseline_pgd,1,448,NaN,clock,cat,0.10,0448_nse_dnn_0.10_cat_10_n02123394_3611.png,n02123394_3611.png,0.0,1.2464528,1.7672726,-0.3682752
alexnet2023_baseline_pgd,1,449,NaN,clock,chair,0.35,0449_nse_dnn_0.35_chair_10_n04429376_9589.png,n04429376_9589.png,0.0,-1.7858715,2.853957,-3.2808545
alexnet2023_baseline_pgd,1,450,NaN,clock,cat,0.35,0450_nse_dnn_0.35_cat_10_n02123394_3885.png,n02123394_3885.png,0.0,-0.6955933,1.8717419,-1.8153801
alexnet2023_baseline_pgd,1,451,NaN,clock,elephant,0.90,0451_nse_dnn_0.90_elephant_10_n02504013_22633.png,n02504013_22633.png,0.0,-0.14600655,1.9746214,-1.4995104
alexnet2023_baseline_pgd,1,452,NaN,clock,car,0.20,0452_nse_dnn_0.20_car_10_n02814533_2271.png,n02814533_2271.png,0.0,-2.085991,2.4730098,-3.2237005
alexnet2023_baseline_pgd,1,453,NaN,knife,truck,0.05,0453_nse_dnn_0.05_truck_10_n03417042_10150.png,n03417042_10150.png,0.0,0.4354137,2.118283,-1.1899683
alexnet2023_baseline_pgd,1,454,NaN,clock,oven,0.35,0454_nse_dnn_0.35_oven_10_n04111531_10583.png,n04111531_10583.png,0.0,-0.943413,2.605775,-2.509655
alexnet2023_baseline_pgd,1,455,NaN,bottle,bottle,0.03,0455_nse_dnn_0.03_bottle_10_n03937543_1602.png,n03937543_1602.png,1.0,7.491046,4.403697,2.1830854
alexnet2023_baseline_pgd,1,456,NaN,cat,knife,0.03,0456_nse_dnn_0.03_knife_10_n03041632_3504.png,n03041632_3504.png,0.0,-0.20703521,1.9951369,-1.5571709
alexnet2023_baseline_pgd,1,457,NaN,bicycle,bicycle,0.03,0457_nse_dnn_0.03_bicycle_10_n03792782_1004.png,n03792782_1004.png,1.0,5.2185435,1.8609062,2.3742082
alexnet2023_baseline_pgd,1,458,NaN,airplane,cat,0.05,0458_nse_dnn_0.05_cat_10_n02123394_8172.png,n02123394_8172.png,0.0,0.93539757,2.69469,-1.2440076
alexnet2023_baseline_pgd,1,459,NaN,knife,elephant,0.10,0459_nse_dnn_0.10_elephant_10_n02504013_156.png,n02504013_156.png,0.0,1.9769194,2.1420026,-0.11673143
alexnet2023_baseline_pgd,1,460,NaN,bear,car,0.03,0460_nse_dnn_0.03_car_10_n04285008_5559.png,n04285008_5559.png,0.0,2.2177703,3.3864589,-0.8263876
alexnet2023_baseline_pgd,1,461,NaN,clock,elephant,0.35,0461_nse_dnn_0.35_elephant_10_n02504458_6694.png,n02504458_6694.png,0.0,-2.0978327,2.1853926,-3.0286975
alexnet2023_baseline_pgd,1,462,NaN,clock,car,0.90,0462_nse_dnn_0.90_car_10_n04285008_15003.png,n04285008_15003.png,0.0,-3.091774,1.7487415,-3.4227614
alexnet2023_baseline_pgd,1,463,NaN,clock,chair,0.10,0463_nse_dnn_0.10_chair_10_n03376595_15723.png,n03376595_15723.png,0.0,-0.67931247,2.2480009,-2.0699232
alexnet2023_baseline_pgd,1,464,NaN,knife,knife,0.60,0464_nse_dnn_0.60_knife_10_n03041632_48816.png,n03041632_48816.png,1.0,2.3854349,2.3288608,0.040003933
alexnet2023_baseline_pgd,1,465,NaN,clock,chair,0.90,0465_nse_dnn_0.90_chair_10_n03376595_4142.png,n03376595_4142.png,0.0,-1.7051407,1.7509972,-2.4438586
alexnet2023_baseline_pgd,1,466,NaN,bottle,car,0.60,0466_nse_dnn_0.60_car_10_n04285008_2363.png,n04285008_2363.png,0.0,-3.22182,1.9093307,-3.6282716
alexnet2023_baseline_pgd,1,467,NaN,cat,truck,0.10,0467_nse_dnn_0.10_truck_10_n03417042_7335.png,n03417042_7335.png,0.0,-1.7408626,1.1048001,-2.0121872
alexnet2023_baseline_pgd,1,468,NaN,oven,oven,0.00,0468_nse_dnn_0.00_oven_10_n04111531_6313.png,n04111531_6313.png,1.0,4.1091666,3.167098,0.6661431
alexnet2023_baseline_pgd,1,469,NaN,elephant,bird,0.05,0469_nse_dnn_0.05_bird_10_n02033041_6728.png,n02033041_6728.png,0.0,0.4927392,2.555656,-1.4587024
alexnet2023_baseline_pgd,1,470,NaN,chair,clock,0.00,0470_nse_dnn_0.00_clock_10_n04548280_1032.png,n04548280_1032.png,0.0,-0.040886045,3.4549232,-2.4719102
alexnet2023_baseline_pgd,1,471,NaN,airplane,airplane,0.03,0471_nse_dnn_0.03_airplane_10_n02690373_1983.png,n02690373_1983.png,1.0,5.773015,1.5889598,2.958574
alexnet2023_baseline_pgd,1,472,NaN,chair,keyboard,0.00,0472_nse_dnn_0.00_keyboard_10_n03085013_23369.png,n03085013_23369.png,0.0,0.111433506,7.1676207,-4.9894776
alexnet2023_baseline_pgd,1,473,NaN,clock,elephant,0.90,0473_nse_dnn_0.90_elephant_10_n02504458_2419.png,n02504458_2419.png,0.0,-0.5299078,2.2410908,-1.9593918
alexnet2023_baseline_pgd,1,474,NaN,clock,truck,0.20,0474_nse_dnn_0.20_truck_10_n04467665_72022.png,n04467665_72022.png,0.0,-0.8333065,2.032429,-2.026381
alexnet2023_baseline_pgd,1,475,NaN,bottle,bottle,0.05,0475_nse_dnn_0.05_bottle_10_n04579145_5289.png,n04579145_5289.png,1.0,1.3853635,1.2010818,0.13030684
alexnet2023_baseline_pgd,1,476,NaN,clock,clock,0.05,0476_nse_dnn_0.05_clock_10_n02708093_2898.png,n02708093_2898.png,1.0,7.248707,2.7516925,3.1798692
alexnet2023_baseline_pgd,1,477,NaN,clock,dog,0.20,0477_nse_dnn_0.20_dog_10_n02101556_4066.png,n02101556_4066.png,0.0,-0.972354,3.296073,-3.0182335
alexnet2023_baseline_pgd,1,478,NaN,keyboard,car,0.90,0478_nse_dnn_0.90_car_10_n04285008_17052.png,n04285008_17052.png,0.0,-3.2610586,1.7747605,-3.5608618
alexnet2023_baseline_pgd,1,479,NaN,clock,truck,0.90,0479_nse_dnn_0.90_truck_10_n04467665_37811.png,n04467665_37811.png,0.0,-2.6421812,2.4749973,-3.6183918
alexnet2023_baseline_pgd,1,480,NaN,clock,keyboard,0.20,0480_nse_dnn_0.20_keyboard_10_n04505470_578.png,n04505470_578.png,0.0,0.7897831,3.7290306,-2.078362
alexnet2023_baseline_pgd,1,481,NaN,elephant,cat,0.10,0481_nse_dnn_0.10_cat_10_n02123045_2721.png,n02123045_2721.png,0.0,0.9213578,1.87544,-0.674638
alexnet2023_baseline_pgd,1,482,NaN,elephant,car,0.10,0482_nse_dnn_0.10_car_10_n04285008_7776.png,n04285008_7776.png,0.0,-2.6905038,1.9733922,-3.2978725
alexnet2023_baseline_pgd,1,483,NaN,clock,bottle,0.90,0483_nse_dnn_0.90_bottle_10_n04591713_2014.png,n04591713_2014.png,0.0,1.7780918,2.1376545,-0.25424927
alexnet2023_baseline_pgd,1,484,NaN,knife,bottle,0.10,0484_nse_dnn_0.10_bottle_10_n03983396_9662.png,n03983396_9662.png,0.0,2.0420878,2.3927774,-0.24797504
alexnet2023_baseline_pgd,1,485,NaN,clock,bicycle,0.35,0485_nse_dnn_0.35_bicycle_10_n03792782_10367.png,n03792782_10367.png,0.0,-2.0928462,2.2734692,-3.0874512
alexnet2023_baseline_pgd,1,486,NaN,keyboard,keyboard,0.60,0486_nse_dnn_0.60_keyboard_10_n03085013_22942.png,n03085013_22942.png,1.0,2.6015542,2.4616919,0.098897584
alexnet2023_baseline_pgd,1,487,NaN,boat,cat,0.00,0487_nse_dnn_0.00_cat_10_n02123597_3896.png,n02123597_3896.png,0.0,0.085258685,2.7059665,-1.8531202
alexnet2023_baseline_pgd,1,488,NaN,bicycle,bicycle,0.03,0488_nse_dnn_0.03_bicycle_10_n03792782_2649.png,n03792782_2649.png,1.0,3.8645508,2.253397,1.1392578
alexnet2023_baseline_pgd,1,489,NaN,clock,bear,0.10,0489_nse_dnn_0.10_bear_10_n02133161_2476.png,n02133161_2476.png,0.0,-1.4690638,1.7925797,-2.3063302
alexnet2023_baseline_pgd,1,490,NaN,clock,car,0.10,0490_nse_dnn_0.10_car_10_n04285008_7249.png,n04285008_7249.png,0.0,-0.6978951,2.706623,-2.407358
alexnet2023_baseline_pgd,1,491,NaN,clock,chair,0.20,0491_nse_dnn_0.20_chair_10_n04099969_8604.png,n04099969_8604.png,0.0,-1.061564,2.3345873,-2.4014416
alexnet2023_baseline_pgd,1,492,NaN,bicycle,bicycle,0.05,0492_nse_dnn_0.05_bicycle_10_n02835271_5963.png,n02835271_5963.png,1.0,1.777206,1.7438698,0.023572227
alexnet2023_baseline_pgd,1,493,NaN,clock,airplane,0.90,0493_nse_dnn_0.90_airplane_10_n02690373_17011.png,n02690373_17011.png,0.0,-1.7647345,2.2327049,-2.8266165
alexnet2023_baseline_pgd,1,494,NaN,clock,bird,0.90,0494_nse_dnn_0.90_bird_10_n02028035_889.png,n02028035_889.png,0.0,0.23130298,1.9115295,-1.1880996
alexnet2023_baseline_pgd,1,495,NaN,clock,cat,0.60,0495_nse_dnn_0.60_cat_10_n02123159_7949.png,n02123159_7949.png,0.0,-1.6822596,3.110986,-3.3893363
alexnet2023_baseline_pgd,1,496,NaN,truck,car,0.03,0496_nse_dnn_0.03_car_10_n03100240_15686.png,n03100240_15686.png,0.0,7.995157,8.156621,-0.114172444
alexnet2023_baseline_pgd,1,497,NaN,clock,cat,0.35,0497_nse_dnn_0.35_cat_10_n02123159_6106.png,n02123159_6106.png,0.0,-1.5647827,2.4285119,-2.823686
alexnet2023_baseline_pgd,1,498,NaN,airplane,cat,0.00,0498_nse_dnn_0.00_cat_10_n02123394_7105.png,n02123394_7105.png,0.0,1.5144053,2.8589706,-0.9507513
alexnet2023_baseline_pgd,1,499,NaN,clock,clock,0.35,0499_nse_dnn_0.35_clock_10_n04548280_4747.png,n04548280_4747.png,1.0,3.0586786,1.8475406,0.8564039
alexnet2023_baseline_pgd,1,500,NaN,clock,elephant,0.20,0500_nse_dnn_0.20_elephant_10_n02504458_975.png,n02504458_975.png,0.0,-1.0626034,3.0722415,-2.9237769
alexnet2023_baseline_pgd,1,501,NaN,clock,boat,0.20,0501_nse_dnn_0.20_boat_10_n03344393_11590.png,n03344393_11590.png,0.0,-2.2328644,3.3574002,-3.9529138
alexnet2023_baseline_pgd,1,502,NaN,clock,airplane,0.90,0502_nse_dnn_0.90_airplane_10_n02690373_2026.png,n02690373_2026.png,0.0,-2.775808,1.9060498,-3.3105736
alexnet2023_baseline_pgd,1,503,NaN,keyboard,clock,0.60,0503_nse_dnn_0.60_clock_10_n03196217_2346.png,n03196217_2346.png,0.0,2.3596213,2.4204767,-0.04303126
alexnet2023_baseline_pgd,1,504,NaN,clock,truck,0.60,0504_nse_dnn_0.60_truck_10_n04467665_34932.png,n04467665_34932.png,0.0,-2.787694,2.5528123,-3.7763085
alexnet2023_baseline_pgd,1,505,NaN,clock,oven,0.35,0505_nse_dnn_0.35_oven_10_n04111531_13625.png,n04111531_13625.png,0.0,-0.036395147,2.8375866,-2.032212
alexnet2023_baseline_pgd,1,506,NaN,airplane,airplane,0.00,0506_nse_dnn_0.00_airplane_10_n02690373_8666.png,n02690373_8666.png,1.0,6.162967,4.1020694,1.4572748
alexnet2023_baseline_pgd,1,507,NaN,clock,oven,0.35,0507_nse_dnn_0.35_oven_10_n04111531_4148.png,n04111531_4148.png,0.0,-1.2586592,2.4312956,-2.6091921
alexnet2023_baseline_pgd,1,508,NaN,cat,dog,0.00,0508_nse_dnn_0.00_dog_10_n02107683_7021.png,n02107683_7021.png,0.0,3.111736,3.122434,-0.0075645163
alexnet2023_baseline_pgd,1,509,NaN,airplane,bird,0.05,0509_nse_dnn_0.05_bird_10_n02025239_22440.png,n02025239_22440.png,0.0,-0.5071811,0.952839,-1.0323901
alexnet2023_baseline_pgd,1,510,NaN,clock,elephant,0.90,0510_nse_dnn_0.90_elephant_10_n02504013_7032.png,n02504013_7032.png,0.0,-0.8485575,2.202412,-2.1573613
alexnet2023_baseline_pgd,1,511,NaN,clock,truck,0.90,0511_nse_dnn_0.90_truck_10_n03417042_10788.png,n03417042_10788.png,0.0,-2.3477314,1.9108038,-3.0112393
alexnet2023_baseline_pgd,1,512,NaN,bottle,knife,0.05,0512_nse_dnn_0.05_knife_10_n03041632_86118.png,n03041632_86118.png,0.0,0.8153533,1.9356792,-0.7921901
alexnet2023_baseline_pgd,1,513,NaN,bottle,bottle,0.00,0513_nse_dnn_0.00_bottle_10_n04557648_9790.png,n04557648_9790.png,1.0,2.9172957,2.3792741,0.38043872
alexnet2023_baseline_pgd,1,514,NaN,clock,chair,0.90,0514_nse_dnn_0.90_chair_10_n02791124_8788.png,n02791124_8788.png,0.0,-1.0945886,2.4252012,-2.4888673
alexnet2023_baseline_pgd,1,515,NaN,elephant,dog,0.03,0515_nse_dnn_0.03_dog_10_n02095314_4996.png,n02095314_4996.png,0.0,0.70872384,2.194835,-1.0508393
alexnet2023_baseline_pgd,1,516,NaN,clock,keyboard,0.20,0516_nse_dnn_0.20_keyboard_10_n04505470_4679.png,n04505470_4679.png,0.0,2.4007695,3.4537141,-0.7445443
alexnet2023_baseline_pgd,1,517,NaN,bottle,bird,0.03,0517_nse_dnn_0.03_bird_10_n01860187_24935.png,n01860187_24935.png,0.0,0.7997795,1.2475665,-0.31663322
alexnet2023_baseline_pgd,1,518,NaN,clock,bicycle,0.60,0518_nse_dnn_0.60_bicycle_10_n02835271_14123.png,n02835271_14123.png,0.0,-2.9327674,1.9479465,-3.451186
alexnet2023_baseline_pgd,1,519,NaN,clock,boat,0.10,0519_nse_dnn_0.10_boat_10_n03344393_7075.png,n03344393_7075.png,0.0,-1.2837569,3.1306374,-3.1214483
alexnet2023_baseline_pgd,1,520,NaN,knife,knife,0.03,0520_nse_dnn_0.03_knife_10_n03041632_13130.png,n03041632_13130.png,1.0,3.8944674,1.888325,1.4185569
alexnet2023_baseline_pgd,1,521,NaN,clock,bottle,0.20,0521_nse_dnn_0.20_bottle_10_n04591713_5569.png,n04591713_5569.png,0.0,1.2702857,3.4468505,-1.5390637
alexnet2023_baseline_pgd,1,522,NaN,elephant,elephant,0.05,0522_nse_dnn_0.05_elephant_10_n02504013_19753.png,n02504013_19753.png,1.0,3.7817554,1.1489729,1.8616583
alexnet2023_baseline_pgd,1,523,NaN,clock,dog,0.60,0523_nse_dnn_0.60_dog_10_n02099849_4819.png,n02099849_4819.png,0.0,-1.1260287,2.6951897,-2.7020094
alexnet2023_baseline_pgd,1,524,NaN,clock,elephant,0.90,0524_nse_dnn_0.90_elephant_10_n02504458_12938.png,n02504458_12938.png,0.0,0.7181295,1.8807601,-0.822104
alexnet2023_baseline_pgd,1,525,NaN,bottle,bottle,0.03,0525_nse_dnn_0.03_bottle_10_n02823428_901.png,n02823428_901.png,1.0,8.064272,3.0472996,3.5475354
alexnet2023_baseline_pgd,1,526,NaN,bicycle,bicycle,0.00,0526_nse_dnn_0.00_bicycle_10_n03792782_2024.png,n03792782_2024.png,1.0,4.806349,3.124213,1.1894497
alexnet2023_baseline_pgd,1,527,NaN,knife,truck,0.05,0527_nse_dnn_0.05_truck_10_n03417042_24856.png,n03417042_24856.png,0.0,1.2017506,2.0356832,-0.58967936
alexnet2023_baseline_pgd,1,528,NaN,elephant,elephant,0.00,0528_nse_dnn_0.00_elephant_10_n02504013_19694.png,n02504013_19694.png,1.0,13.795908,6.2494435,5.3361564
alexnet2023_baseline_pgd,1,529,NaN,clock,bird,0.20,0529_nse_dnn_0.20_bird_10_n01530575_10119.png,n01530575_10119.png,0.0,0.7849891,2.5126672,-1.2216529
alexnet2023_baseline_pgd,1,530,NaN,clock,bottle,0.20,0530_nse_dnn_0.20_bottle_10_n04557648_954.png,n04557648_954.png,0.0,1.2057787,2.7986858,-1.1263554
alexnet2023_baseline_pgd,1,531,NaN,clock,cat,0.90,0531_nse_dnn_0.90_cat_10_n02123159_277.png,n02123159_277.png,0.0,-1.3733765,2.3860166,-2.6582925
alexnet2023_baseline_pgd,1,532,NaN,knife,knife,0.00,0532_nse_dnn_0.00_knife_10_n03041632_289.png,n03041632_289.png,1.0,9.07949,2.433822,4.699197
alexnet2023_baseline_pgd,1,533,NaN,clock,truck,0.35,0533_nse_dnn_0.35_truck_10_n04467665_450.png,n04467665_450.png,0.0,-2.409728,2.6360452,-3.5679007
alexnet2023_baseline_pgd,1,534,NaN,knife,knife,0.00,0534_nse_dnn_0.00_knife_10_n03041632_1607.png,n03041632_1607.png,1.0,2.8170059,0.69489,1.5005625
alexnet2023_baseline_pgd,1,535,NaN,clock,bird,0.20,0535_nse_dnn_0.20_bird_10_n01532829_4692.png,n01532829_4692.png,0.0,0.38804564,3.093172,-1.9128133
alexnet2023_baseline_pgd,1,536,NaN,cat,dog,0.10,0536_nse_dnn_0.10_dog_10_n02102177_4771.png,n02102177_4771.png,0.0,-0.7321874,1.7051593,-1.7234644
alexnet2023_baseline_pgd,1,537,NaN,knife,car,0.10,0537_nse_dnn_0.10_car_10_n04285008_14554.png,n04285008_14554.png,0.0,-0.82726526,1.9389504,-1.95601
alexnet2023_baseline_pgd,1,538,NaN,clock,clock,0.00,0538_nse_dnn_0.00_clock_10_n04548280_3716.png,n04548280_3716.png,1.0,5.63242,2.1021576,2.4962726
alexnet2023_baseline_pgd,1,539,NaN,car,car,0.03,0539_nse_dnn_0.03_car_10_n04285008_6849.png,n04285008_6849.png,1.0,6.09677,5.1002603,0.70463866
alexnet2023_baseline_pgd,1,540,NaN,clock,keyboard,0.35,0540_nse_dnn_0.35_keyboard_10_n03085013_24467.png,n03085013_24467.png,0.0,0.9465593,2.1350834,-0.8404135
alexnet2023_baseline_pgd,1,541,NaN,clock,clock,0.35,0541_nse_dnn_0.35_clock_10_n03196217_6672.png,n03196217_6672.png,1.0,2.3341177,1.5800036,0.5332391
alexnet2023_baseline_pgd,1,542,NaN,cat,dog,0.10,0542_nse_dnn_0.10_dog_10_n02105251_5570.png,n02105251_5570.png,0.0,-0.6420082,1.4545193,-1.4824688
alexnet2023_baseline_pgd,1,543,NaN,clock,dog,0.35,0543_nse_dnn_0.35_dog_10_n02107574_3352.png,n02107574_3352.png,0.0,-1.0635794,2.7228935,-2.6774406
alexnet2023_baseline_pgd,1,544,NaN,keyboard,boat,0.60,0544_nse_dnn_0.60_boat_10_n03662601_8191.png,n03662601_8191.png,0.0,-3.7959123,2.6647153,-4.5683537
alexnet2023_baseline_pgd,1,545,NaN,boat,boat,0.00,0545_nse_dnn_0.00_boat_10_n04612504_30617.png,n04612504_30617.png,1.0,8.340763,6.3578234,1.4021502
alexnet2023_baseline_pgd,1,546,NaN,keyboard,bear,0.60,0546_nse_dnn_0.60_bear_10_n02132136_2900.png,n02132136_2900.png,0.0,-0.3058896,2.11905,-1.7146913
alexnet2023_baseline_pgd,1,547,NaN,clock,truck,0.10,0547_nse_dnn_0.10_truck_10_n03417042_8139.png,n03417042_8139.png,0.0,-1.3607359,1.838398,-2.2621293
alexnet2023_baseline_pgd,1,548,NaN,chair,chair,0.03,0548_nse_dnn_0.03_chair_10_n03376595_5112.png,n03376595_5112.png,1.0,2.7477438,0.90626043,1.3021253
alexnet2023_baseline_pgd,1,549,NaN,elephant,bird,0.05,0549_nse_dnn_0.05_bird_10_n02006656_10360.png,n02006656_10360.png,0.0,0.105428495,1.6208818,-1.0715873
alexnet2023_baseline_pgd,1,550,NaN,clock,elephant,0.20,0550_nse_dnn_0.20_elephant_10_n02504458_2799.png,n02504458_2799.png,0.0,-1.6216235,3.0700443,-3.31751
alexnet2023_baseline_pgd,1,551,NaN,knife,airplane,0.10,0551_nse_dnn_0.10_airplane_10_n02690373_6096.png,n02690373_6096.png,0.0,-0.016361207,2.9595032,-2.104254
alexnet2023_baseline_pgd,1,552,NaN,clock,bird,0.20,0552_nse_dnn_0.20_bird_10_n02002556_139.png,n02002556_139.png,0.0,1.0282634,2.9350765,-1.3483205
alexnet2023_baseline_pgd,1,553,NaN,knife,car,0.00,0553_nse_dnn_0.00_car_10_n04285008_3056.png,n04285008_3056.png,0.0,2.5764713,3.0823798,-0.35773134
alexnet2023_baseline_pgd,1,554,NaN,clock,knife,0.10,0554_nse_dnn_0.10_knife_10_n03041632_14774.png,n03041632_14774.png,0.0,1.841828,2.979102,-0.8041741
alexnet2023_baseline_pgd,1,555,NaN,clock,oven,0.20,0555_nse_dnn_0.20_oven_10_n04111531_2163.png,n04111531_2163.png,0.0,-0.20601575,3.7160218,-2.7732995
alexnet2023_baseline_pgd,1,556,NaN,clock,cat,0.20,0556_nse_dnn_0.20_cat_10_n02123597_30864.png,n02123597_30864.png,0.0,0.29647496,3.1206405,-1.9969866
alexnet2023_baseline_pgd,1,557,NaN,clock,boat,0.35,0557_nse_dnn_0.35_boat_10_n02951358_33559.png,n02951358_33559.png,0.0,-2.643905,2.8673763,-3.8970642
alexnet2023_baseline_pgd,1,558,NaN,clock,bicycle,0.60,0558_nse_dnn_0.60_bicycle_10_n02835271_4619.png,n02835271_4619.png,0.0,-3.0284815,2.587196,-3.9708838
alexnet2023_baseline_pgd,1,559,NaN,truck,truck,0.03,0559_nse_dnn_0.03_truck_10_n03796401_21261.png,n03796401_21261.png,1.0,2.3624537,1.5770823,0.5553415
alexnet2023_baseline_pgd,1,560,NaN,clock,airplane,0.10,0560_nse_dnn_0.10_airplane_10_n02690373_2496.png,n02690373_2496.png,0.0,0.6174212,0.87208223,-0.18007255
alexnet2023_baseline_pgd,1,561,NaN,clock,boat,0.35,0561_nse_dnn_0.35_boat_10_n03662601_5419.png,n03662601_5419.png,0.0,-3.101127,2.740737,-4.130821
alexnet2023_baseline_pgd,1,562,NaN,airplane,airplane,0.03,0562_nse_dnn_0.03_airplane_10_n02690373_7686.png,n02690373_7686.png,1.0,6.3768053,4.4748855,1.3448604
alexnet2023_baseline_pgd,1,563,NaN,keyboard,oven,0.90,0563_nse_dnn_0.90_oven_10_n04111531_5246.png,n04111531_5246.png,0.0,-1.324643,1.969988,-2.329656
alexnet2023_baseline_pgd,1,564,NaN,clock,bicycle,0.60,0564_nse_dnn_0.60_bicycle_10_n03792782_1099.png,n03792782_1099.png,0.0,-2.7388065,2.5894573,-3.7676516
alexnet2023_baseline_pgd,1,565,NaN,clock,chair,0.35,0565_nse_dnn_0.35_chair_10_n04099969_12909.png,n04099969_12909.png,0.0,-2.080309,2.1667967,-3.0031571
alexnet2023_baseline_pgd,1,566,NaN,elephant,elephant,0.03,0566_nse_dnn_0.03_elephant_10_n02504013_7147.png,n02504013_7147.png,1.0,1.8159318,0.96136945,0.6042668
alexnet2023_baseline_pgd,1,567,NaN,clock,truck,0.35,0567_nse_dnn_0.35_truck_10_n04467665_44715.png,n04467665_44715.png,0.0,-1.3309566,2.4119287,-2.6466196
alexnet2023_baseline_pgd,1,568,NaN,keyboard,keyboard,0.00,0568_nse_dnn_0.00_keyboard_10_n04505470_1338.png,n04505470_1338.png,1.0,9.144791,4.6142235,3.203595
alexnet2023_baseline_pgd,1,569,NaN,keyboard,airplane,0.90,0569_nse_dnn_0.90_airplane_10_n02690373_4982.png,n02690373_4982.png,0.0,-2.2672927,3.130223,-3.81662
alexnet2023_baseline_pgd,1,570,NaN,clock,bicycle,0.90,0570_nse_dnn_0.90_bicycle_10_n03792782_3754.png,n03792782_3754.png,0.0,-3.534481,2.761134,-4.451672
alexnet2023_baseline_pgd,1,571,NaN,elephant,bicycle,0.00,0571_nse_dnn_0.00_bicycle_10_n03792782_1418.png,n03792782_1418.png,0.0,1.3249847,3.205161,-1.3294855
alexnet2023_baseline_pgd,1,572,NaN,truck,truck,0.03,0572_nse_dnn_0.03_truck_10_n03796401_26359.png,n03796401_26359.png,1.0,2.0888658,1.8284127,0.18416816
alexnet2023_baseline_pgd,1,573,NaN,elephant,car,0.05,0573_nse_dnn_0.05_car_10_n03100240_9149.png,n03100240_9149.png,0.0,0.06421559,2.9992878,-2.0754094
alexnet2023_baseline_pgd,1,574,NaN,clock,bird,0.90,0574_nse_dnn_0.90_bird_10_n01534433_14677.png,n01534433_14677.png,0.0,0.014704028,1.8582045,-1.3035517
alexnet2023_baseline_pgd,1,575,NaN,car,car,0.03,0575_nse_dnn_0.03_car_10_n03100240_8683.png,n03100240_8683.png,1.0,5.751676,3.4540238,1.6246855
alexnet2023_baseline_pgd,1,576,NaN,chair,chair,0.03,0576_nse_dnn_0.03_chair_10_n03376595_524.png,n03376595_524.png,1.0,2.9794052,2.8338618,0.10291468
alexnet2023_baseline_pgd,1,577,NaN,clock,dog,0.20,0577_nse_dnn_0.20_dog_10_n02094433_6402.png,n02094433_6402.png,0.0,-0.81974524,2.77228,-2.5399454
alexnet2023_baseline_pgd,1,578,NaN,clock,car,0.20,0578_nse_dnn_0.20_car_10_n03100240_16803.png,n03100240_16803.png,0.0,-1.9157981,2.6412265,-3.222303
alexnet2023_baseline_pgd,1,579,NaN,clock,bicycle,0.20,0579_nse_dnn_0.20_bicycle_10_n03792782_15114.png,n03792782_15114.png,0.0,-0.9584942,2.445773,-2.4071803
alexnet2023_baseline_pgd,1,580,NaN,clock,chair,0.60,0580_nse_dnn_0.60_chair_10_n04429376_21362.png,n04429376_21362.png,0.0,-1.8181651,2.6948292,-3.191169
alexnet2023_baseline_pgd,1,581,NaN,keyboard,keyboard,0.90,0581_nse_dnn_0.90_keyboard_10_n04505470_3499.png,n04505470_3499.png,1.0,2.3635426,2.053641,0.21913344
alexnet2023_baseline_pgd,1,582,NaN,clock,boat,0.90,0582_nse_dnn_0.90_boat_10_n04273569_26577.png,n04273569_26577.png,0.0,-3.1187458,2.09018,-3.6832669
alexnet2023_baseline_pgd,1,583,NaN,clock,boat,0.10,0583_nse_dnn_0.10_boat_10_n04273569_27325.png,n04273569_27325.png,0.0,-0.018649656,2.5326664,-1.804053
alexnet2023_baseline_pgd,1,584,NaN,clock,keyboard,0.20,0584_nse_dnn_0.20_keyboard_10_n04505470_9570.png,n04505470_9570.png,0.0,1.2591405,2.3676226,-0.78381526
alexnet2023_baseline_pgd,1,585,NaN,clock,bicycle,0.90,0585_nse_dnn_0.90_bicycle_10_n03792782_4067.png,n03792782_4067.png,0.0,-3.4631667,1.6049217,-3.58368
alexnet2023_baseline_pgd,1,586,NaN,clock,bear,0.10,0586_nse_dnn_0.10_bear_10_n02132136_282.png,n02132136_282.png,0.0,-1.8724066,2.7026749,-3.2350712
alexnet2023_baseline_pgd,1,587,NaN,boat,boat,0.03,0587_nse_dnn_0.03_boat_10_n04612504_30424.png,n04612504_30424.png,1.0,1.9575201,1.4019893,0.39281958
alexnet2023_baseline_pgd,1,588,NaN,knife,knife,0.90,0588_nse_dnn_0.90_knife_10_n03041632_4879.png,n03041632_4879.png,1.0,1.9292063,1.8381453,0.06438985
alexnet2023_baseline_pgd,1,589,NaN,elephant,elephant,0.05,0589_nse_dnn_0.05_elephant_10_n02504458_7634.png,n02504458_7634.png,1.0,2.2366643,1.635646,0.42498413
alexnet2023_baseline_pgd,1,590,NaN,clock,cat,0.35,0590_nse_dnn_0.35_cat_10_n02123597_7615.png,n02123597_7615.png,0.0,-0.9581836,2.059478,-2.133809
alexnet2023_baseline_pgd,1,591,NaN,clock,bicycle,0.35,0591_nse_dnn_0.35_bicycle_10_n03792782_20387.png,n03792782_20387.png,0.0,-1.2504249,2.8637524,-2.9091628
alexnet2023_baseline_pgd,1,592,NaN,clock,clock,0.10,0592_nse_dnn_0.10_clock_10_n02708093_527.png,n02708093_527.png,1.0,5.9680743,2.098566,2.7361555
alexnet2023_baseline_pgd,1,593,NaN,clock,elephant,0.05,0593_nse_dnn_0.05_elephant_10_n02504013_5501.png,n02504013_5501.png,0.0,1.0640141,1.4892654,-0.30069813
alexnet2023_baseline_pgd,1,594,NaN,clock,dog,0.35,0594_nse_dnn_0.35_dog_10_n02106166_2273.png,n02106166_2273.png,0.0,-1.1261003,2.596986,-2.6326196
alexnet2023_baseline_pgd,1,595,NaN,airplane,boat,0.03,0595_nse_dnn_0.03_boat_10_n03662601_34009.png,n03662601_34009.png,0.0,1.9645354,3.4505665,-1.0507827
alexnet2023_baseline_pgd,1,596,NaN,clock,boat,0.35,0596_nse_dnn_0.35_boat_10_n04273569_12536.png,n04273569_12536.png,0.0,-2.745582,2.2155793,-3.5080712
alexnet2023_baseline_pgd,1,597,NaN,elephant,elephant,0.00,0597_nse_dnn_0.00_elephant_10_n02504013_8534.png,n02504013_8534.png,1.0,5.208851,2.1526423,2.1610658
alexnet2023_baseline_pgd,1,598,NaN,clock,clock,0.35,0598_nse_dnn_0.35_clock_10_n04548280_156.png,n04548280_156.png,1.0,2.5543945,1.0859014,1.0383815
alexnet2023_baseline_pgd,1,599,NaN,clock,bicycle,0.90,0599_nse_dnn_0.90_bicycle_10_n02835271_542.png,n02835271_542.png,0.0,-3.2306182,2.00112,-3.6993976
alexnet2023_baseline_pgd,1,600,NaN,chair,bear,0.00,0600_nse_dnn_0.00_bear_10_n02133161_5434.png,n02133161_5434.png,0.0,-0.8519535,1.9041197,-1.9488381
alexnet2023_baseline_pgd,1,601,NaN,keyboard,truck,0.60,0601_nse_dnn_0.60_truck_10_n04467665_63829.png,n04467665_63829.png,0.0,-2.560598,3.478208,-4.2700806
alexnet2023_baseline_pgd,1,602,NaN,clock,oven,0.90,0602_nse_dnn_0.90_oven_10_n04111531_10220.png,n04111531_10220.png,0.0,-2.0911381,1.7249374,-2.6983728
alexnet2023_baseline_pgd,1,603,NaN,keyboard,boat,0.60,0603_nse_dnn_0.60_boat_10_n04273569_28074.png,n04273569_28074.png,0.0,-3.3779442,2.150341,-3.909088
alexnet2023_baseline_pgd,1,604,NaN,bottle,cat,0.00,0604_nse_dnn_0.00_cat_10_n02123394_2482.png,n02123394_2482.png,0.0,1.3527527,1.6711096,-0.2251123
alexnet2023_baseline_pgd,1,605,NaN,keyboard,boat,0.90,0605_nse_dnn_0.90_boat_10_n03662601_20381.png,n03662601_20381.png,0.0,-3.7643726,2.6850379,-4.560422
alexnet2023_baseline_pgd,1,606,NaN,clock,bird,0.35,0606_nse_dnn_0.35_bird_10_n01817953_12511.png,n01817953_12511.png,0.0,0.14541773,2.076491,-1.3654752
alexnet2023_baseline_pgd,1,607,NaN,cat,cat,0.05,0607_nse_dnn_0.05_cat_10_n02125311_5346.png,n02125311_5346.png,1.0,2.6349554,1.9655423,0.47334653
alexnet2023_baseline_pgd,1,608,NaN,chair,oven,0.00,0608_nse_dnn_0.00_oven_10_n04111531_14758.png,n04111531_14758.png,0.0,1.5613717,2.7666135,-0.85223466
alexnet2023_baseline_pgd,1,609,NaN,elephant,bird,0.10,0609_nse_dnn_0.10_bird_10_n02002556_1398.png,n02002556_1398.png,0.0,-0.04101842,2.5880444,-1.8590282
alexnet2023_baseline_pgd,1,610,NaN,cat,knife,0.05,0610_nse_dnn_0.05_knife_10_n03041632_99912.png,n03041632_99912.png,0.0,-0.2738844,1.2608373,-1.0852121
alexnet2023_baseline_pgd,1,611,NaN,airplane,airplane,0.05,0611_nse_dnn_0.05_airplane_10_n02690373_1075.png,n02690373_1075.png,1.0,3.0992992,1.2570732,1.3026506
alexnet2023_baseline_pgd,1,612,NaN,clock,cat,0.35,0612_nse_dnn_0.35_cat_10_n02123045_10834.png,n02123045_10834.png,0.0,-0.8686242,2.5230885,-2.398303
alexnet2023_baseline_pgd,1,613,NaN,clock,car,0.60,0613_nse_dnn_0.60_car_10_n02814533_41478.png,n02814533_41478.png,0.0,-2.3027964,2.1418197,-3.1428185
alexnet2023_baseline_pgd,1,614,NaN,cat,cat,0.00,0614_nse_dnn_0.00_cat_10_n02123394_1602.png,n02123394_1602.png,1.0,4.8344297,4.294073,0.38208985
alexnet2023_baseline_pgd,1,615,NaN,elephant,knife,0.03,0615_nse_dnn_0.03_knife_10_n03041632_21017.png,n03041632_21017.png,0.0,0.08978588,2.4355574,-1.658711
alexnet2023_baseline_pgd,1,616,NaN,bear,bear,0.03,0616_nse_dnn_0.03_bear_10_n02134084_572.png,n02134084_572.png,1.0,4.632706,3.2207541,0.99840087
alexnet2023_baseline_pgd,1,617,NaN,keyboard,clock,0.05,0617_nse_dnn_0.05_clock_10_n03196217_3987.png,n03196217_3987.png,0.0,1.5099468,4.579477,-2.1704855
alexnet2023_baseline_pgd,1,618,NaN,dog,dog,0.03,0618_nse_dnn_0.03_dog_10_n02098286_6303.png,n02098286_6303.png,1.0,1.5977352,1.2604423,0.23850212
alexnet2023_baseline_pgd,1,619,NaN,keyboard,keyboard,0.00,0619_nse_dnn_0.00_keyboard_10_n04505470_4379.png,n04505470_4379.png,1.0,7.748826,5.1746345,1.8202283
alexnet2023_baseline_pgd,1,620,NaN,boat,boat,0.05,0620_nse_dnn_0.05_boat_10_n04273569_15138.png,n04273569_15138.png,1.0,2.2968483,1.9845325,0.22084063
alexnet2023_baseline_pgd,1,621,NaN,clock,airplane,0.90,0621_nse_dnn_0.90_airplane_10_n02690373_18234.png,n02690373_18234.png,0.0,-2.6669612,1.8488569,-3.1931658
alexnet2023_baseline_pgd,1,622,NaN,clock,clock,0.90,0622_nse_dnn_0.90_clock_10_n03196217_2179.png,n03196217_2179.png,1.0,2.6424057,1.6494447,0.7021295
alexnet2023_baseline_pgd,1,623,NaN,bottle,bottle,0.03,0623_nse_dnn_0.03_bottle_10_n04579145_6860.png,n04579145_6860.png,1.0,7.522491,2.108673,3.8281474
alexnet2023_baseline_pgd,1,624,NaN,clock,car,0.35,0624_nse_dnn_0.35_car_10_n02814533_81455.png,n02814533_81455.png,0.0,-2.1865387,2.8657267,-3.572491
alexnet2023_baseline_pgd,1,625,NaN,car,car,0.03,0625_nse_dnn_0.03_car_10_n04285008_6278.png,n04285008_6278.png,1.0,7.430959,6.0962534,0.9437796
alexnet2023_baseline_pgd,1,626,NaN,truck,truck,0.05,0626_nse_dnn_0.05_truck_10_n04467665_3612.png,n04467665_3612.png,1.0,2.880104,2.2119358,0.47246635
alexnet2023_baseline_pgd,1,627,NaN,knife,bottle,0.10,0627_nse_dnn_0.10_bottle_10_n03983396_10251.png,n03983396_10251.png,0.0,2.5314815,3.2073398,-0.47790396
alexnet2023_baseline_pgd,1,628,NaN,keyboard,dog,0.60,0628_nse_dnn_0.60_dog_10_n02086646_6407.png,n02086646_6407.png,0.0,-0.7659888,2.050579,-1.9916143
alexnet2023_baseline_pgd,1,629,NaN,clock,oven,0.35,0629_nse_dnn_0.35_oven_10_n04111531_21404.png,n04111531_21404.png,0.0,-1.2667631,3.0163996,-3.0286534
alexnet2023_baseline_pgd,1,630,NaN,knife,bottle,0.05,0630_nse_dnn_0.05_bottle_10_n03983396_3185.png,n03983396_3185.png,0.0,2.6057003,3.5757859,-0.68595415
alexnet2023_baseline_pgd,1,631,NaN,clock,elephant,0.05,0631_nse_dnn_0.05_elephant_10_n02504013_13766.png,n02504013_13766.png,0.0,-0.13575149,0.9933801,-0.7984166
alexnet2023_baseline_pgd,1,632,NaN,elephant,bird,0.05,0632_nse_dnn_0.05_bird_10_n01514859_10633.png,n01514859_10633.png,0.0,0.5384672,2.2617974,-1.2185786
alexnet2023_baseline_pgd,1,633,NaN,elephant,chair,0.05,0633_nse_dnn_0.05_chair_10_n03376595_2351.png,n03376595_2351.png,0.0,2.4964557,2.8419275,-0.2442855
alexnet2023_baseline_pgd,1,634,NaN,bird,bird,0.00,0634_nse_dnn_0.00_bird_10_n02009912_31837.png,n02009912_31837.png,1.0,6.763951,2.2316294,3.2048352
alexnet2023_baseline_pgd,1,635,NaN,clock,dog,0.90,0635_nse_dnn_0.90_dog_10_n02110958_8971.png,n02110958_8971.png,0.0,-0.67879456,1.6853151,-1.6716781
alexnet2023_baseline_pgd,1,636,NaN,clock,dog,0.20,0636_nse_dnn_0.20_dog_10_n02113799_3680.png,n02113799_3680.png,0.0,-1.6678976,3.2199392,-3.4562228
alexnet2023_baseline_pgd,1,637,NaN,clock,airplane,0.35,0637_nse_dnn_0.35_airplane_10_n02690373_6491.png,n02690373_6491.png,0.0,-1.1624707,2.1766617,-2.361123
alexnet2023_baseline_pgd,1,638,NaN,clock,clock,0.60,0638_nse_dnn_0.60_clock_10_n04548280_1438.png,n04548280_1438.png,1.0,2.7624667,2.4031498,0.25407538
alexnet2023_baseline_pgd,1,639,NaN,airplane,airplane,0.05,0639_nse_dnn_0.05_airplane_10_n02690373_2981.png,n02690373_2981.png,1.0,4.4746757,2.568288,1.3480196
alexnet2023_baseline_pgd,1,640,NaN,oven,car,0.03,0640_nse_dnn_0.03_car_10_n04285008_7155.png,n04285008_7155.png,0.0,0.49754015,3.4958446,-2.1201215
alexnet2023_baseline_pgd,1,641,NaN,clock,chair,0.20,0641_nse_dnn_0.20_chair_10_n03376595_5909.png,n03376595_5909.png,0.0,-0.5477423,2.8928125,-2.4328396
alexnet2023_baseline_pgd,1,642,NaN,clock,elephant,0.60,0642_nse_dnn_0.60_elephant_10_n02504013_5876.png,n02504013_5876.png,0.0,-1.0590006,2.383898,-2.434497
alexnet2023_baseline_pgd,1,643,NaN,cat,cat,0.00,0643_nse_dnn_0.00_cat_10_n02125311_25104.png,n02125311_25104.png,1.0,6.5505905,2.8359425,2.626653
alexnet2023_baseline_pgd,1,644,NaN,clock,dog,0.90,0644_nse_dnn_0.90_dog_10_n02111277_11664.png,n02111277_11664.png,0.0,-1.0725684,2.1095684,-2.2501106
alexnet2023_baseline_pgd,1,645,NaN,clock,airplane,0.35,0645_nse_dnn_0.35_airplane_10_n02690373_2185.png,n02690373_2185.png,0.0,-0.659259,1.9630467,-1.8542501
alexnet2023_baseline_pgd,1,646,NaN,elephant,bird,0.05,0646_nse_dnn_0.05_bird_10_n02017213_7721.png,n02017213_7721.png,0.0,0.8125587,1.5512788,-0.522354
alexnet2023_baseline_pgd,1,647,NaN,chair,boat,0.05,0647_nse_dnn_0.05_boat_10_n03662601_25577.png,n03662601_25577.png,0.0,0.59561896,2.0883906,-1.0555489
alexnet2023_baseline_pgd,1,648,NaN,elephant,elephant,0.03,0648_nse_dnn_0.03_elephant_10_n02504013_8028.png,n02504013_8028.png,1.0,8.593422,2.790439,4.1033287
