subj,session,trial,rt,object_response,category,condition,imagename,filename,is_correct,targ_act,max_nontarg_act,decision_margin
alexnet_w3_mlp_simclrhn_probe3,1,1,NaN,oven,elephant,0.03,0001_nse_dnn_0.03_elephant_10_n02504458_7209.png,n02504458_7209.png,0.0,0.6075754,0.61005133,-0.001750738
alexnet_w3_mlp_simclrhn_probe3,1,2,NaN,knife,knife,0.90,0002_nse_dnn_0.90_knife_10_n03041632_82878.png,n03041632_82878.png,1.0,1.6408404,0.5928487,0.7410421
alexnet_w3_mlp_simclrhn_probe3,1,3,NaN,oven,clock,0.00,0003_nse_dnn_0.00_clock_10_n03196217_9231.png,n03196217_9231.png,0.0,1.256025,1.9080361,-0.4610415
alexnet_w3_mlp_simclrhn_probe3,1,4,NaN,oven,oven,0.00,0004_nse_dnn_0.00_oven_10_n04111531_11026.png,n04111531_11026.png,1.0,1.2900696,0.6611503,0.44471312
alexnet_w3_mlp_simclrhn_probe3,1,5,NaN,clock,clock,0.10,0005_nse_dnn_0.10_clock_10_n04548280_1114.png,n04548280_1114.png,1.0,0.4404554,0.25272706,0.13274398
alexnet_w3_mlp_simclrhn_probe3,1,6,NaN,oven,clock,0.03,0006_nse_dnn_0.03_clock_10_n02708093_8100.png,n02708093_8100.png,0.0,0.41451132,1.39504,-0.6933385
alexnet_w3_mlp_simclrhn_probe3,1,7,NaN,clock,clock,0.00,0007_nse_dnn_0.00_clock_10_n02708093_3591.png,n02708093_3591.png,1.0,4.043237,0.500715,2.5049415
alexnet_w3_mlp_simclrhn_probe3,1,8,NaN,clock,chair,0.00,0008_nse_dnn_0.00_chair_10_n03376595_16202.png,n03376595_16202.png,0.0,0.89962596,0.92967683,-0.021249177
alexnet_w3_mlp_simclrhn_probe3,1,9,NaN,knife,bottle,0.60,0009_nse_dnn_0.60_bottle_10_n02823428_3478.png,n02823428_3478.png,0.0,-0.53055876,1.0381091,-1.1092157
alexnet_w3_mlp_simclrhn_probe3,1,10,NaN,oven,dog,0.10,0010_nse_dnn_0.10_dog_10_n02087394_28673.png,n02087394_28673.png,0.0,-0.039990906,0.66719306,-0.5000546
alexnet_w3_mlp_simclrhn_probe3,1,11,NaN,oven,chair,0.10,0011_nse_dnn_0.10_chair_10_n04099969_1690.png,n04099969_1690.png,0.0,0.13307436,0.30651742,-0.12264277
alexnet_w3_mlp_simclrhn_probe3,1,12,NaN,elephant,cat,0.03,0012_nse_dnn_0.03_cat_10_n02125311_1736.png,n02125311_1736.png,0.0,0.48516116,0.78036684,-0.20874195
alexnet_w3_mlp_simclrhn_probe3,1,13,NaN,knife,bear,0.90,0013_nse_dnn_0.90_bear_10_n02133161_1169.png,n02133161_1169.png,0.0,-0.76134664,1.3903142,-1.5214541
alexnet_w3_mlp_simclrhn_probe3,1,14,NaN,knife,bear,0.90,0014_nse_dnn_0.90_bear_10_n02133161_8835.png,n02133161_8835.png,0.0,-0.6723155,1.4699475,-1.5148087
alexnet_w3_mlp_simclrhn_probe3,1,15,NaN,knife,car,0.20,0015_nse_dnn_0.20_car_10_n02814533_5430.png,n02814533_5430.png,0.0,-0.37805423,0.56796396,-0.6689359
alexnet_w3_mlp_simclrhn_probe3,1,16,NaN,knife,bear,0.60,0016_nse_dnn_0.60_bear_10_n02134418_3767.png,n02134418_3767.png,0.0,-0.56980246,1.2738364,-1.3036495
alexnet_w3_mlp_simclrhn_probe3,1,17,NaN,knife,knife,0.20,0017_nse_dnn_0.20_knife_10_n03041632_10540.png,n03041632_10540.png,1.0,0.5550247,0.10365219,0.31916857
alexnet_w3_mlp_simclrhn_probe3,1,18,NaN,knife,bicycle,0.20,0018_nse_dnn_0.20_bicycle_10_n02835271_1075.png,n02835271_1075.png,0.0,-0.19790573,0.3654526,-0.3983545
alexnet_w3_mlp_simclrhn_probe3,1,19,NaN,bear,bear,0.00,0019_nse_dnn_0.00_bear_10_n02134084_3888.png,n02134084_3888.png,1.0,1.5300728,1.3635808,0.117727615
alexnet_w3_mlp_simclrhn_probe3,1,20,NaN,bird,dog,0.00,0020_nse_dnn_0.00_dog_10_n02085936_9009.png,n02085936_9009.png,0.0,0.0055713244,0.33459964,-0.23265815
alexnet_w3_mlp_simclrhn_probe3,1,21,NaN,knife,knife,0.03,0021_nse_dnn_0.03_knife_10_n03041632_12651.png,n03041632_12651.png,1.0,1.2431266,0.21507363,0.7269433
alexnet_w3_mlp_simclrhn_probe3,1,22,NaN,knife,bicycle,0.35,0022_nse_dnn_0.35_bicycle_10_n03792782_565.png,n03792782_565.png,0.0,-0.14020771,0.9405842,-0.7642353
alexnet_w3_mlp_simclrhn_probe3,1,23,NaN,knife,boat,0.20,0023_nse_dnn_0.20_boat_10_n04612504_40672.png,n04612504_40672.png,0.0,-0.20985499,0.7820575,-0.70138806
alexnet_w3_mlp_simclrhn_probe3,1,24,NaN,knife,dog,0.05,0024_nse_dnn_0.05_dog_10_n02098105_146.png,n02098105_146.png,0.0,-0.10118548,0.32589155,-0.30198908
alexnet_w3_mlp_simclrhn_probe3,1,25,NaN,oven,clock,0.03,0025_nse_dnn_0.03_clock_10_n02708093_5944.png,n02708093_5944.png,0.0,1.2260389,1.2884381,-0.044122864
alexnet_w3_mlp_simclrhn_probe3,1,26,NaN,knife,cat,0.03,0026_nse_dnn_0.03_cat_10_n02124075_14021.png,n02124075_14021.png,0.0,0.14284529,0.62647605,-0.3419786
alexnet_w3_mlp_simclrhn_probe3,1,27,NaN,knife,bear,0.20,0027_nse_dnn_0.20_bear_10_n02133161_7184.png,n02133161_7184.png,0.0,0.07355061,0.54206693,-0.33129108
alexnet_w3_mlp_simclrhn_probe3,1,28,NaN,bottle,bottle,0.00,0028_nse_dnn_0.00_bottle_10_n03937543_9745.png,n03937543_9745.png,1.0,0.37375274,0.23404583,0.0987877
alexnet_w3_mlp_simclrhn_probe3,1,29,NaN,knife,airplane,0.60,0029_nse_dnn_0.60_airplane_10_n02690373_9605.png,n02690373_9605.png,0.0,-0.61805415,1.2191029,-1.2990662
alexnet_w3_mlp_simclrhn_probe3,1,30,NaN,knife,cat,0.20,0030_nse_dnn_0.20_cat_10_n02123045_7167.png,n02123045_7167.png,0.0,-0.033854004,0.51518613,-0.38823003
alexnet_w3_mlp_simclrhn_probe3,1,31,NaN,knife,airplane,0.05,0031_nse_dnn_0.05_airplane_10_n02690373_4706.png,n02690373_4706.png,0.0,0.15378667,0.65384555,-0.35359505
alexnet_w3_mlp_simclrhn_probe3,1,32,NaN,knife,knife,0.35,0032_nse_dnn_0.35_knife_10_n03041632_45270.png,n03041632_45270.png,1.0,0.6373703,0.19097774,0.31564718
alexnet_w3_mlp_simclrhn_probe3,1,33,NaN,knife,dog,0.35,0033_nse_dnn_0.35_dog_10_n02105855_9326.png,n02105855_9326.png,0.0,-0.024869578,0.67037964,-0.49161544
alexnet_w3_mlp_simclrhn_probe3,1,34,NaN,knife,bear,0.10,0034_nse_dnn_0.10_bear_10_n02134418_4349.png,n02134418_4349.png,0.0,0.16747239,0.49209404,-0.22954217
alexnet_w3_mlp_simclrhn_probe3,1,35,NaN,dog,cat,0.00,0035_nse_dnn_0.00_cat_10_n02123159_469.png,n02123159_469.png,0.0,0.21609719,0.25360867,-0.026524624
alexnet_w3_mlp_simclrhn_probe3,1,36,NaN,knife,truck,0.90,0036_nse_dnn_0.90_truck_10_n03417042_5004.png,n03417042_5004.png,0.0,-0.39328644,1.4637369,-1.3131138
alexnet_w3_mlp_simclrhn_probe3,1,37,NaN,knife,bird,0.10,0037_nse_dnn_0.10_bird_10_n02051845_6333.png,n02051845_6333.png,0.0,-0.1882007,0.93077683,-0.79123664
alexnet_w3_mlp_simclrhn_probe3,1,38,NaN,knife,clock,0.90,0038_nse_dnn_0.90_clock_10_n03196217_12701.png,n03196217_12701.png,0.0,0.56519645,1.3716834,-0.5702724
alexnet_w3_mlp_simclrhn_probe3,1,39,NaN,knife,chair,0.60,0039_nse_dnn_0.60_chair_10_n03376595_12341.png,n03376595_12341.png,0.0,-0.013326123,1.2162396,-0.8694343
alexnet_w3_mlp_simclrhn_probe3,1,40,NaN,oven,bicycle,0.10,0040_nse_dnn_0.10_bicycle_10_n03792782_66837.png,n03792782_66837.png,0.0,0.10122304,0.3608385,-0.18357587
alexnet_w3_mlp_simclrhn_probe3,1,41,NaN,bicycle,bicycle,0.05,0041_nse_dnn_0.05_bicycle_10_n02835271_20177.png,n02835271_20177.png,1.0,2.471415,0.44153288,1.4353435
alexnet_w3_mlp_simclrhn_probe3,1,42,NaN,knife,knife,0.00,0042_nse_dnn_0.00_knife_10_n03041632_22330.png,n03041632_22330.png,1.0,0.9042448,0.60004795,0.21509965
alexnet_w3_mlp_simclrhn_probe3,1,43,NaN,knife,cat,0.60,0043_nse_dnn_0.60_cat_10_n02123045_5913.png,n02123045_5913.png,0.0,-0.2669947,1.2173486,-1.0495893
alexnet_w3_mlp_simclrhn_probe3,1,44,NaN,knife,elephant,0.20,0044_nse_dnn_0.20_elephant_10_n02504013_2464.png,n02504013_2464.png,0.0,0.08398387,0.5109509,-0.3019113
alexnet_w3_mlp_simclrhn_probe3,1,45,NaN,knife,knife,0.90,0045_nse_dnn_0.90_knife_10_n03041632_99460.png,n03041632_99460.png,1.0,1.5731419,0.61187845,0.67971593
alexnet_w3_mlp_simclrhn_probe3,1,46,NaN,elephant,dog,0.00,0046_nse_dnn_0.00_dog_10_n02099601_8686.png,n02099601_8686.png,0.0,0.09914848,0.97921455,-0.6223007
alexnet_w3_mlp_simclrhn_probe3,1,47,NaN,knife,chair,0.90,0047_nse_dnn_0.90_chair_10_n02791124_5400.png,n02791124_5400.png,0.0,-0.018707559,1.5566458,-1.113943
alexnet_w3_mlp_simclrhn_probe3,1,48,NaN,keyboard,chair,0.05,0048_nse_dnn_0.05_chair_10_n03376595_830.png,n03376595_830.png,0.0,0.16069576,0.5099006,-0.24692513
alexnet_w3_mlp_simclrhn_probe3,1,49,NaN,knife,cat,0.90,0049_nse_dnn_0.90_cat_10_n02124075_6024.png,n02124075_6024.png,0.0,-0.3042568,1.4044969,-1.2082714
alexnet_w3_mlp_simclrhn_probe3,1,50,NaN,bicycle,bicycle,0.10,0050_nse_dnn_0.10_bicycle_10_n03792782_9004.png,n03792782_9004.png,1.0,0.31249145,0.25095266,0.043514494
alexnet_w3_mlp_simclrhn_probe3,1,51,NaN,knife,keyboard,0.60,0051_nse_dnn_0.60_keyboard_10_n03085013_24088.png,n03085013_24088.png,0.0,-0.2841486,1.2150598,-1.0601004
alexnet_w3_mlp_simclrhn_probe3,1,52,NaN,knife,cat,0.10,0052_nse_dnn_0.10_cat_10_n02125311_33778.png,n02125311_33778.png,0.0,-0.014234682,0.26750326,-0.19921882
alexnet_w3_mlp_simclrhn_probe3,1,53,NaN,bicycle,bicycle,0.00,0053_nse_dnn_0.00_bicycle_10_n03792782_7092.png,n03792782_7092.png,1.0,4.816105,1.12345,2.6111014
alexnet_w3_mlp_simclrhn_probe3,1,54,NaN,knife,airplane,0.35,0054_nse_dnn_0.35_airplane_10_n02690373_5724.png,n02690373_5724.png,0.0,-0.46403414,0.9963094,-1.0326189
alexnet_w3_mlp_simclrhn_probe3,1,55,NaN,knife,bear,0.60,0055_nse_dnn_0.60_bear_10_n02133161_5637.png,n02133161_5637.png,0.0,-0.51385736,1.325684,-1.3007522
alexnet_w3_mlp_simclrhn_probe3,1,56,NaN,knife,bear,0.10,0056_nse_dnn_0.10_bear_10_n02132136_5365.png,n02132136_5365.png,0.0,0.045560144,0.2964147,-0.17738096
alexnet_w3_mlp_simclrhn_probe3,1,57,NaN,knife,car,0.35,0057_nse_dnn_0.35_car_10_n03100240_1702.png,n03100240_1702.png,0.0,-0.40447268,0.87378955,-0.9038679
alexnet_w3_mlp_simclrhn_probe3,1,58,NaN,knife,oven,0.35,0058_nse_dnn_0.35_oven_10_n04111531_2677.png,n04111531_2677.png,0.0,-1.0229247,0.7595706,-1.2604145
alexnet_w3_mlp_simclrhn_probe3,1,59,NaN,oven,oven,0.05,0059_nse_dnn_0.05_oven_10_n04111531_16583.png,n04111531_16583.png,1.0,1.2144916,0.87038374,0.24332102
alexnet_w3_mlp_simclrhn_probe3,1,60,NaN,bicycle,chair,0.10,0060_nse_dnn_0.10_chair_10_n04099969_6266.png,n04099969_6266.png,0.0,0.84373736,1.2058408,-0.25604582
alexnet_w3_mlp_simclrhn_probe3,1,61,NaN,knife,oven,0.60,0061_nse_dnn_0.60_oven_10_n04111531_6695.png,n04111531_6695.png,0.0,-2.2073216,1.2906651,-2.4734502
alexnet_w3_mlp_simclrhn_probe3,1,62,NaN,knife,car,0.10,0062_nse_dnn_0.10_car_10_n03100240_1438.png,n03100240_1438.png,0.0,-0.43329477,0.75539327,-0.8405294
alexnet_w3_mlp_simclrhn_probe3,1,63,NaN,knife,keyboard,0.20,0063_nse_dnn_0.20_keyboard_10_n04505470_4684.png,n04505470_4684.png,0.0,-0.037869662,0.17561264,-0.15095478
alexnet_w3_mlp_simclrhn_probe3,1,64,NaN,chair,chair,0.00,0064_nse_dnn_0.00_chair_10_n04099969_8021.png,n04099969_8021.png,1.0,1.0960222,0.60948074,0.34403682
alexnet_w3_mlp_simclrhn_probe3,1,65,NaN,knife,car,0.20,0065_nse_dnn_0.20_car_10_n04285008_7139.png,n04285008_7139.png,0.0,-0.4260029,0.5495249,-0.6898023
alexnet_w3_mlp_simclrhn_probe3,1,66,NaN,truck,truck,0.03,0066_nse_dnn_0.03_truck_10_n03796401_9207.png,n03796401_9207.png,1.0,1.4882865,0.41229096,0.76084375
alexnet_w3_mlp_simclrhn_probe3,1,67,NaN,knife,bottle,0.05,0067_nse_dnn_0.05_bottle_10_n04560804_3651.png,n04560804_3651.png,0.0,0.04281222,0.2484962,-0.14544053
alexnet_w3_mlp_simclrhn_probe3,1,68,NaN,knife,chair,0.60,0068_nse_dnn_0.60_chair_10_n03376595_3010.png,n03376595_3010.png,0.0,0.0065491498,1.2236224,-0.8606008
alexnet_w3_mlp_simclrhn_probe3,1,69,NaN,knife,bird,0.90,0069_nse_dnn_0.90_bird_10_n01514859_1951.png,n01514859_1951.png,0.0,-0.37012127,1.3930726,-1.2467663
alexnet_w3_mlp_simclrhn_probe3,1,70,NaN,oven,car,0.10,0070_nse_dnn_0.10_car_10_n03100240_4594.png,n03100240_4594.png,0.0,0.49274912,0.557936,-0.04609409
alexnet_w3_mlp_simclrhn_probe3,1,71,NaN,knife,clock,0.35,0071_nse_dnn_0.35_clock_10_n03196217_3333.png,n03196217_3333.png,0.0,0.20281251,1.096933,-0.6322387
alexnet_w3_mlp_simclrhn_probe3,1,72,NaN,oven,car,0.10,0072_nse_dnn_0.10_car_10_n02814533_90798.png,n02814533_90798.png,0.0,-0.4586455,0.74779,-0.8530787
alexnet_w3_mlp_simclrhn_probe3,1,73,NaN,knife,keyboard,0.00,0073_nse_dnn_0.00_keyboard_10_n03085013_19547.png,n03085013_19547.png,0.0,1.0570621,1.3019063,-0.17313099
alexnet_w3_mlp_simclrhn_probe3,1,74,NaN,oven,bear,0.05,0074_nse_dnn_0.05_bear_10_n02133161_545.png,n02133161_545.png,0.0,0.09818484,0.41993544,-0.22751202
alexnet_w3_mlp_simclrhn_probe3,1,75,NaN,knife,oven,0.90,0075_nse_dnn_0.90_oven_10_n04111531_6489.png,n04111531_6489.png,0.0,-2.9471745,1.4161258,-3.0853193
alexnet_w3_mlp_simclrhn_probe3,1,76,NaN,knife,dog,0.90,0076_nse_dnn_0.90_dog_10_n02105056_15299.png,n02105056_15299.png,0.0,0.12766224,1.3292798,-0.8496719
alexnet_w3_mlp_simclrhn_probe3,1,77,NaN,knife,knife,0.05,0077_nse_dnn_0.05_knife_10_n03041632_33255.png,n03041632_33255.png,1.0,0.70816773,0.40461737,0.21464252
alexnet_w3_mlp_simclrhn_probe3,1,78,NaN,knife,cat,0.20,0078_nse_dnn_0.20_cat_10_n02123394_5895.png,n02123394_5895.png,0.0,-0.15058523,0.51441747,-0.47022793
alexnet_w3_mlp_simclrhn_probe3,1,79,NaN,knife,bottle,0.03,0079_nse_dnn_0.03_bottle_10_n03983396_11654.png,n03983396_11654.png,0.0,0.25739756,0.6212063,-0.25725162
alexnet_w3_mlp_simclrhn_probe3,1,80,NaN,airplane,airplane,0.03,0080_nse_dnn_0.03_airplane_10_n02690373_3860.png,n02690373_3860.png,1.0,1.4902391,0.47213686,0.71990705
alexnet_w3_mlp_simclrhn_probe3,1,81,NaN,oven,oven,0.03,0081_nse_dnn_0.03_oven_10_n04111531_6415.png,n04111531_6415.png,1.0,0.7845904,0.46087623,0.2289005
alexnet_w3_mlp_simclrhn_probe3,1,82,NaN,knife,knife,0.60,0082_nse_dnn_0.60_knife_10_n03041632_39342.png,n03041632_39342.png,1.0,1.3404927,0.4752933,0.6117884
alexnet_w3_mlp_simclrhn_probe3,1,83,NaN,knife,bear,0.60,0083_nse_dnn_0.60_bear_10_n02133161_4882.png,n02133161_4882.png,0.0,-0.42518014,1.2887609,-1.2119393
alexnet_w3_mlp_simclrhn_probe3,1,84,NaN,bottle,bottle,0.00,0084_nse_dnn_0.00_bottle_10_n04591713_7474.png,n04591713_7474.png,1.0,0.7823505,0.43070924,0.24864791
alexnet_w3_mlp_simclrhn_probe3,1,85,NaN,knife,bear,0.20,0085_nse_dnn_0.20_bear_10_n02132136_17615.png,n02132136_17615.png,0.0,-0.029036779,0.5720953,-0.42506453
alexnet_w3_mlp_simclrhn_probe3,1,86,NaN,knife,boat,0.60,0086_nse_dnn_0.60_boat_10_n03344393_382.png,n03344393_382.png,0.0,0.04433068,1.2201724,-0.83144563
alexnet_w3_mlp_simclrhn_probe3,1,87,NaN,airplane,truck,0.00,0087_nse_dnn_0.00_truck_10_n03796401_27811.png,n03796401_27811.png,0.0,1.1937478,1.4045286,-0.14904457
alexnet_w3_mlp_simclrhn_probe3,1,88,NaN,knife,keyboard,0.60,0088_nse_dnn_0.60_keyboard_10_n04505470_2603.png,n04505470_2603.png,0.0,-0.2813642,1.2221271,-1.063129
alexnet_w3_mlp_simclrhn_probe3,1,89,NaN,knife,boat,0.35,0089_nse_dnn_0.35_boat_10_n03662601_16418.png,n03662601_16418.png,0.0,-0.27513832,0.81291384,-0.76936907
alexnet_w3_mlp_simclrhn_probe3,1,90,NaN,knife,bear,0.35,0090_nse_dnn_0.35_bear_10_n02132136_2760.png,n02132136_2760.png,0.0,-0.07754237,0.9693152,-0.7402401
alexnet_w3_mlp_simclrhn_probe3,1,91,NaN,bicycle,bicycle,0.05,0091_nse_dnn_0.05_bicycle_10_n02835271_10271.png,n02835271_10271.png,1.0,0.9658564,0.33462182,0.44635022
alexnet_w3_mlp_simclrhn_probe3,1,92,NaN,knife,bear,0.10,0092_nse_dnn_0.10_bear_10_n02134084_9127.png,n02134084_9127.png,0.0,0.078635916,0.40338704,-0.22963373
alexnet_w3_mlp_simclrhn_probe3,1,93,NaN,knife,bird,0.20,0093_nse_dnn_0.20_bird_10_n01797886_551.png,n01797886_551.png,0.0,-0.17797482,0.64622873,-0.5827999
alexnet_w3_mlp_simclrhn_probe3,1,94,NaN,knife,truck,0.10,0094_nse_dnn_0.10_truck_10_n03417042_9559.png,n03417042_9559.png,0.0,-0.359733,0.5816939,-0.66568935
alexnet_w3_mlp_simclrhn_probe3,1,95,NaN,knife,clock,0.90,0095_nse_dnn_0.90_clock_10_n02708093_3114.png,n02708093_3114.png,0.0,0.491837,1.3823308,-0.6296742
alexnet_w3_mlp_simclrhn_probe3,1,96,NaN,knife,bicycle,0.05,0096_nse_dnn_0.05_bicycle_10_n03792782_122.png,n03792782_122.png,0.0,-0.07739274,0.36544898,-0.31313637
alexnet_w3_mlp_simclrhn_probe3,1,97,NaN,knife,oven,0.35,0097_nse_dnn_0.35_oven_10_n04111531_3702.png,n04111531_3702.png,0.0,-1.319524,0.8068748,-1.5035911
alexnet_w3_mlp_simclrhn_probe3,1,98,NaN,knife,car,0.90,0098_nse_dnn_0.90_car_10_n02814533_93476.png,n02814533_93476.png,0.0,-0.31987888,1.4119492,-1.2245873
alexnet_w3_mlp_simclrhn_probe3,1,99,NaN,knife,cat,0.35,0099_nse_dnn_0.35_cat_10_n02123045_8491.png,n02123045_8491.png,0.0,-0.17565793,0.789617,-0.68255246
alexnet_w3_mlp_simclrhn_probe3,1,100,NaN,knife,chair,0.35,0100_nse_dnn_0.35_chair_10_n02791124_13469.png,n02791124_13469.png,0.0,-0.025930516,1.0396013,-0.7534448
alexnet_w3_mlp_simclrhn_probe3,1,101,NaN,knife,dog,0.60,0101_nse_dnn_0.60_dog_10_n02096294_5451.png,n02096294_5451.png,0.0,0.047485836,1.4312311,-0.9784557
alexnet_w3_mlp_simclrhn_probe3,1,102,NaN,knife,bicycle,0.35,0102_nse_dnn_0.35_bicycle_10_n03792782_44296.png,n03792782_44296.png,0.0,-0.21581204,0.6738958,-0.62911844
alexnet_w3_mlp_simclrhn_probe3,1,103,NaN,knife,cat,0.90,0103_nse_dnn_0.90_cat_10_n02123597_7138.png,n02123597_7138.png,0.0,-0.35768452,1.5464191,-1.3464047
alexnet_w3_mlp_simclrhn_probe3,1,104,NaN,knife,bottle,0.35,0104_nse_dnn_0.35_bottle_10_n04560804_12736.png,n04560804_12736.png,0.0,-0.29058024,0.8835939,-0.83026654
alexnet_w3_mlp_simclrhn_probe3,1,105,NaN,knife,oven,0.60,0105_nse_dnn_0.60_oven_10_n04111531_22797.png,n04111531_22797.png,0.0,-2.0848446,1.2018647,-2.3240545
alexnet_w3_mlp_simclrhn_probe3,1,106,NaN,elephant,bird,0.10,0106_nse_dnn_0.10_bird_10_n02007558_7446.png,n02007558_7446.png,0.0,-0.18610217,0.20291087,-0.27507377
alexnet_w3_mlp_simclrhn_probe3,1,107,NaN,knife,boat,0.60,0107_nse_dnn_0.60_boat_10_n03662601_16441.png,n03662601_16441.png,0.0,-0.0048736692,1.2567917,-0.89213216
alexnet_w3_mlp_simclrhn_probe3,1,108,NaN,knife,oven,0.60,0108_nse_dnn_0.60_oven_10_n04111531_22386.png,n04111531_22386.png,0.0,-2.2942965,1.2020257,-2.472273
alexnet_w3_mlp_simclrhn_probe3,1,109,NaN,airplane,airplane,0.00,0109_nse_dnn_0.00_airplane_10_n02690373_1381.png,n02690373_1381.png,1.0,6.1955705,0.46623054,4.051255
alexnet_w3_mlp_simclrhn_probe3,1,110,NaN,knife,keyboard,0.20,0110_nse_dnn_0.20_keyboard_10_n03085013_20779.png,n03085013_20779.png,0.0,-0.2334499,0.38358414,-0.43630898
alexnet_w3_mlp_simclrhn_probe3,1,111,NaN,knife,dog,0.90,0111_nse_dnn_0.90_dog_10_n02095570_9488.png,n02095570_9488.png,0.0,0.09984692,1.3564706,-0.8885671
alexnet_w3_mlp_simclrhn_probe3,1,112,NaN,dog,dog,0.03,0112_nse_dnn_0.03_dog_10_n02107312_3262.png,n02107312_3262.png,1.0,0.6943049,0.36200473,0.2349717
alexnet_w3_mlp_simclrhn_probe3,1,113,NaN,oven,oven,0.03,0113_nse_dnn_0.03_oven_10_n04111531_10681.png,n04111531_10681.png,1.0,1.0817063,0.48261493,0.42362157
alexnet_w3_mlp_simclrhn_probe3,1,114,NaN,knife,knife,0.90,0114_nse_dnn_0.90_knife_10_n03041632_29285.png,n03041632_29285.png,1.0,1.6297286,0.588746,0.7360858
alexnet_w3_mlp_simclrhn_probe3,1,115,NaN,knife,elephant,0.60,0115_nse_dnn_0.60_elephant_10_n02504458_4776.png,n02504458_4776.png,0.0,-0.7735794,1.2852321,-1.4557996
alexnet_w3_mlp_simclrhn_probe3,1,116,NaN,knife,boat,0.10,0116_nse_dnn_0.10_boat_10_n04273569_11940.png,n04273569_11940.png,0.0,-0.21170855,0.16973284,-0.26971978
alexnet_w3_mlp_simclrhn_probe3,1,117,NaN,knife,cat,0.20,0117_nse_dnn_0.20_cat_10_n02123159_1413.png,n02123159_1413.png,0.0,-0.054127503,0.35840696,-0.29170594
alexnet_w3_mlp_simclrhn_probe3,1,118,NaN,knife,airplane,0.60,0118_nse_dnn_0.60_airplane_10_n02690373_6674.png,n02690373_6674.png,0.0,-0.66850436,1.30283,-1.3939439
alexnet_w3_mlp_simclrhn_probe3,1,119,NaN,knife,clock,0.35,0119_nse_dnn_0.35_clock_10_n04548280_5088.png,n04548280_5088.png,0.0,0.1940531,1.0015979,-0.57102036
alexnet_w3_mlp_simclrhn_probe3,1,120,NaN,knife,clock,0.05,0120_nse_dnn_0.05_clock_10_n02708093_6624.png,n02708093_6624.png,0.0,0.119851105,0.21957584,-0.070516035
alexnet_w3_mlp_simclrhn_probe3,1,121,NaN,knife,bicycle,0.20,0121_nse_dnn_0.20_bicycle_10_n03792782_29108.png,n03792782_29108.png,0.0,-0.17096436,0.39943215,-0.40333128
alexnet_w3_mlp_simclrhn_probe3,1,122,NaN,knife,clock,0.20,0122_nse_dnn_0.20_clock_10_n04548280_8649.png,n04548280_8649.png,0.0,0.009557624,0.951981,-0.666394
alexnet_w3_mlp_simclrhn_probe3,1,123,NaN,knife,knife,0.05,0123_nse_dnn_0.05_knife_10_n03041632_737.png,n03041632_737.png,1.0,0.62509704,0.5210748,0.07355485
alexnet_w3_mlp_simclrhn_probe3,1,124,NaN,clock,clock,0.10,0124_nse_dnn_0.10_clock_10_n04548280_8668.png,n04548280_8668.png,1.0,1.3257284,0.46139273,0.6111776
alexnet_w3_mlp_simclrhn_probe3,1,125,NaN,bird,bird,0.03,0125_nse_dnn_0.03_bird_10_n01558993_34885.png,n01558993_34885.png,1.0,0.34337735,0.32056132,0.016133372
alexnet_w3_mlp_simclrhn_probe3,1,126,NaN,knife,truck,0.60,0126_nse_dnn_0.60_truck_10_n04467665_37833.png,n04467665_37833.png,0.0,-0.37578726,1.388283,-1.2473861
alexnet_w3_mlp_simclrhn_probe3,1,127,NaN,knife,boat,0.05,0127_nse_dnn_0.05_boat_10_n03662601_5176.png,n03662601_5176.png,0.0,0.34330148,0.50608885,-0.11510806
alexnet_w3_mlp_simclrhn_probe3,1,128,NaN,chair,chair,0.00,0128_nse_dnn_0.00_chair_10_n03376595_9139.png,n03376595_9139.png,1.0,2.1283054,1.0982519,0.72835785
alexnet_w3_mlp_simclrhn_probe3,1,129,NaN,knife,oven,0.90,0129_nse_dnn_0.90_oven_10_n04111531_6211.png,n04111531_6211.png,0.0,-2.706848,1.3521072,-2.8701148
alexnet_w3_mlp_simclrhn_probe3,1,130,NaN,boat,boat,0.00,0130_nse_dnn_0.00_boat_10_n04273569_11427.png,n04273569_11427.png,1.0,0.87626773,0.3604476,0.36473992
alexnet_w3_mlp_simclrhn_probe3,1,131,NaN,oven,bicycle,0.05,0131_nse_dnn_0.05_bicycle_10_n03792782_17198.png,n03792782_17198.png,0.0,0.3440205,0.7164793,-0.26336816
alexnet_w3_mlp_simclrhn_probe3,1,132,NaN,oven,clock,0.00,0132_nse_dnn_0.00_clock_10_n04548280_4560.png,n04548280_4560.png,0.0,1.3427572,1.7685585,-0.30108696
alexnet_w3_mlp_simclrhn_probe3,1,133,NaN,oven,knife,0.03,0133_nse_dnn_0.03_knife_10_n03041632_3781.png,n03041632_3781.png,0.0,0.3884642,0.72804666,-0.24012105
alexnet_w3_mlp_simclrhn_probe3,1,134,NaN,knife,clock,0.10,0134_nse_dnn_0.10_clock_10_n03196217_958.png,n03196217_958.png,0.0,0.30904773,0.7526845,-0.31369856
alexnet_w3_mlp_simclrhn_probe3,1,135,NaN,knife,elephant,0.35,0135_nse_dnn_0.35_elephant_10_n02504458_485.png,n02504458_485.png,0.0,0.14938039,0.5095353,-0.254668
alexnet_w3_mlp_simclrhn_probe3,1,136,NaN,bicycle,clock,0.00,0136_nse_dnn_0.00_clock_10_n02708093_1038.png,n02708093_1038.png,0.0,0.7617886,1.1308916,-0.2609952
alexnet_w3_mlp_simclrhn_probe3,1,137,NaN,oven,oven,0.03,0137_nse_dnn_0.03_oven_10_n04111531_1723.png,n04111531_1723.png,1.0,1.1848791,0.34735653,0.59221786
alexnet_w3_mlp_simclrhn_probe3,1,138,NaN,dog,dog,0.03,0138_nse_dnn_0.03_dog_10_n02110806_27169.png,n02110806_27169.png,1.0,0.6467905,0.37576178,0.19164625
alexnet_w3_mlp_simclrhn_probe3,1,139,NaN,airplane,airplane,0.00,0139_nse_dnn_0.00_airplane_10_n02690373_12505.png,n02690373_12505.png,1.0,1.967577,0.42027915,1.0941048
alexnet_w3_mlp_simclrhn_probe3,1,140,NaN,knife,bird,0.60,0140_nse_dnn_0.60_bird_10_n01828970_454.png,n01828970_454.png,0.0,-0.32414442,1.1347196,-1.0315726
alexnet_w3_mlp_simclrhn_probe3,1,141,NaN,knife,oven,0.20,0141_nse_dnn_0.20_oven_10_n04111531_15635.png,n04111531_15635.png,0.0,-0.37116462,0.64263713,-0.71686614
alexnet_w3_mlp_simclrhn_probe3,1,142,NaN,oven,car,0.00,0142_nse_dnn_0.00_car_10_n04285008_8700.png,n04285008_8700.png,0.0,0.16627367,0.64886224,-0.34124166
alexnet_w3_mlp_simclrhn_probe3,1,143,NaN,oven,keyboard,0.05,0143_nse_dnn_0.05_keyboard_10_n04505470_4592.png,n04505470_4592.png,0.0,0.5964755,0.83423674,-0.1681226
alexnet_w3_mlp_simclrhn_probe3,1,144,NaN,knife,boat,0.20,0144_nse_dnn_0.20_boat_10_n03344393_9560.png,n03344393_9560.png,0.0,-0.015557152,0.81498814,-0.5872842
alexnet_w3_mlp_simclrhn_probe3,1,145,NaN,bear,bear,0.00,0145_nse_dnn_0.00_bear_10_n02132136_5138.png,n02132136_5138.png,1.0,0.6298797,0.43221322,0.13977133
alexnet_w3_mlp_simclrhn_probe3,1,146,NaN,knife,chair,0.60,0146_nse_dnn_0.60_chair_10_n03376595_591.png,n03376595_591.png,0.0,0.064542964,1.1534104,-0.76994556
alexnet_w3_mlp_simclrhn_probe3,1,147,NaN,knife,keyboard,0.90,0147_nse_dnn_0.90_keyboard_10_n03085013_20590.png,n03085013_20590.png,0.0,-0.19492368,1.5316381,-1.2208636
alexnet_w3_mlp_simclrhn_probe3,1,148,NaN,knife,dog,0.35,0148_nse_dnn_0.35_dog_10_n02094258_1224.png,n02094258_1224.png,0.0,-0.03935693,1.0685598,-0.78341544
alexnet_w3_mlp_simclrhn_probe3,1,149,NaN,knife,clock,0.20,0149_nse_dnn_0.20_clock_10_n03196217_4486.png,n03196217_4486.png,0.0,0.105216585,0.65920705,-0.39173043
alexnet_w3_mlp_simclrhn_probe3,1,150,NaN,knife,bear,0.20,0150_nse_dnn_0.20_bear_10_n02134084_22150.png,n02134084_22150.png,0.0,-0.11973266,0.7310142,-0.6015689
alexnet_w3_mlp_simclrhn_probe3,1,151,NaN,cat,cat,0.10,0151_nse_dnn_0.10_cat_10_n02123045_3098.png,n02123045_3098.png,1.0,1.5026894,0.27000672,0.8716383
alexnet_w3_mlp_simclrhn_probe3,1,152,NaN,knife,bear,0.20,0152_nse_dnn_0.20_bear_10_n02134418_271.png,n02134418_271.png,0.0,0.23237401,0.27252385,-0.028390223
alexnet_w3_mlp_simclrhn_probe3,1,153,NaN,oven,oven,0.05,0153_nse_dnn_0.05_oven_10_n04111531_274.png,n04111531_274.png,1.0,0.70855963,0.15436839,0.39187238
alexnet_w3_mlp_simclrhn_probe3,1,154,NaN,knife,knife,0.35,0154_nse_dnn_0.35_knife_10_n03041632_8563.png,n03041632_8563.png,1.0,0.7828311,0.26623774,0.36528665
alexnet_w3_mlp_simclrhn_probe3,1,155,NaN,car,car,0.00,0155_nse_dnn_0.00_car_10_n02814533_52389.png,n02814533_52389.png,1.0,5.4846625,3.0329607,1.733615
alexnet_w3_mlp_simclrhn_probe3,1,156,NaN,car,airplane,0.00,0156_nse_dnn_0.00_airplane_10_n02690373_10455.png,n02690373_10455.png,0.0,0.61467665,0.76649976,-0.10735515
alexnet_w3_mlp_simclrhn_probe3,1,157,NaN,knife,truck,0.35,0157_nse_dnn_0.35_truck_10_n04467665_4810.png,n04467665_4810.png,0.0,-0.3373239,1.1058335,-1.0204664
alexnet_w3_mlp_simclrhn_probe3,1,158,NaN,knife,knife,0.10,0158_nse_dnn_0.10_knife_10_n03041632_3159.png,n03041632_3159.png,1.0,1.1225134,0.20011239,0.65223604
alexnet_w3_mlp_simclrhn_probe3,1,159,NaN,knife,cat,0.05,0159_nse_dnn_0.05_cat_10_n02123597_13411.png,n02123597_13411.png,0.0,-0.080115795,0.50719047,-0.41528824
alexnet_w3_mlp_simclrhn_probe3,1,160,NaN,knife,clock,0.10,0160_nse_dnn_0.10_clock_10_n04548280_2654.png,n04548280_2654.png,0.0,0.37583363,0.9696392,-0.41988394
alexnet_w3_mlp_simclrhn_probe3,1,161,NaN,knife,elephant,0.90,0161_nse_dnn_0.90_elephant_10_n02504013_405.png,n02504013_405.png,0.0,-0.78920853,1.4936662,-1.6142361
alexnet_w3_mlp_simclrhn_probe3,1,162,NaN,elephant,bottle,0.05,0162_nse_dnn_0.05_bottle_10_n04560804_14729.png,n04560804_14729.png,0.0,0.2037982,0.41562703,-0.14978561
alexnet_w3_mlp_simclrhn_probe3,1,163,NaN,knife,bottle,0.90,0163_nse_dnn_0.90_bottle_10_n02823428_5482.png,n02823428_5482.png,0.0,-0.5791537,1.4441341,-1.4306805
alexnet_w3_mlp_simclrhn_probe3,1,164,NaN,knife,keyboard,0.90,0164_nse_dnn_0.90_keyboard_10_n04505470_4824.png,n04505470_4824.png,0.0,-0.19730413,1.5337774,-1.2240595
alexnet_w3_mlp_simclrhn_probe3,1,165,NaN,knife,chair,0.20,0165_nse_dnn_0.20_chair_10_n04099969_14208.png,n04099969_14208.png,0.0,0.01194879,0.50640094,-0.34963048
alexnet_w3_mlp_simclrhn_probe3,1,166,NaN,elephant,elephant,0.00,0166_nse_dnn_0.00_elephant_10_n02504013_1647.png,n02504013_1647.png,1.0,4.949431,1.4235055,2.4932058
alexnet_w3_mlp_simclrhn_probe3,1,167,NaN,knife,cat,0.20,0167_nse_dnn_0.20_cat_10_n02123597_11564.png,n02123597_11564.png,0.0,0.077273995,0.3677854,-0.20542258
alexnet_w3_mlp_simclrhn_probe3,1,168,NaN,knife,car,0.35,0168_nse_dnn_0.35_car_10_n03100240_16653.png,n03100240_16653.png,0.0,-0.32545605,0.95130324,-0.90280515
alexnet_w3_mlp_simclrhn_probe3,1,169,NaN,keyboard,oven,0.00,0169_nse_dnn_0.00_oven_10_n04111531_9611.png,n04111531_9611.png,0.0,0.38446987,1.0658178,-0.48178577
alexnet_w3_mlp_simclrhn_probe3,1,170,NaN,oven,car,0.05,0170_nse_dnn_0.05_car_10_n02814533_35054.png,n02814533_35054.png,0.0,-0.2822715,0.3634259,-0.45657703
alexnet_w3_mlp_simclrhn_probe3,1,171,NaN,knife,oven,0.20,0171_nse_dnn_0.20_oven_10_n04111531_3121.png,n04111531_3121.png,0.0,0.23809618,0.29635957,-0.04119844
alexnet_w3_mlp_simclrhn_probe3,1,172,NaN,knife,chair,0.20,0172_nse_dnn_0.20_chair_10_n02791124_4969.png,n02791124_4969.png,0.0,0.3083678,0.46436542,-0.110306986
alexnet_w3_mlp_simclrhn_probe3,1,173,NaN,knife,car,0.20,0173_nse_dnn_0.20_car_10_n02814533_211.png,n02814533_211.png,0.0,-0.45018712,0.39779365,-0.59961295
alexnet_w3_mlp_simclrhn_probe3,1,174,NaN,dog,dog,0.00,0174_nse_dnn_0.00_dog_10_n02091244_13118.png,n02091244_13118.png,1.0,0.5218443,0.24755347,0.19395293
alexnet_w3_mlp_simclrhn_probe3,1,175,NaN,knife,bottle,0.10,0175_nse_dnn_0.10_bottle_10_n04560804_3597.png,n04560804_3597.png,0.0,0.32938355,0.44483435,-0.08163604
alexnet_w3_mlp_simclrhn_probe3,1,176,NaN,knife,bottle,0.60,0176_nse_dnn_0.60_bottle_10_n04560804_30885.png,n04560804_30885.png,0.0,-0.36940503,1.4146695,-1.2615312
alexnet_w3_mlp_simclrhn_probe3,1,177,NaN,knife,bottle,0.60,0177_nse_dnn_0.60_bottle_10_n04560804_9813.png,n04560804_9813.png,0.0,-0.40627465,1.2152342,-1.1465799
alexnet_w3_mlp_simclrhn_probe3,1,178,NaN,knife,boat,0.35,0178_nse_dnn_0.35_boat_10_n02951358_10003.png,n02951358_10003.png,0.0,-0.0030418753,0.87563574,-0.6213189
alexnet_w3_mlp_simclrhn_probe3,1,179,NaN,knife,bear,0.35,0179_nse_dnn_0.35_bear_10_n02133161_1500.png,n02133161_1500.png,0.0,-0.14299579,0.9323915,-0.7604137
alexnet_w3_mlp_simclrhn_probe3,1,180,NaN,knife,oven,0.20,0180_nse_dnn_0.20_oven_10_n04111531_4467.png,n04111531_4467.png,0.0,-0.02463083,0.75628364,-0.55218995
alexnet_w3_mlp_simclrhn_probe3,1,181,NaN,chair,clock,0.20,0181_nse_dnn_0.20_clock_10_n02708093_8002.png,n02708093_8002.png,0.0,-0.05048613,0.4344072,-0.34287137
alexnet_w3_mlp_simclrhn_probe3,1,182,NaN,knife,boat,0.90,0182_nse_dnn_0.90_boat_10_n02951358_34261.png,n02951358_34261.png,0.0,0.039135884,1.4387567,-0.98968136
alexnet_w3_mlp_simclrhn_probe3,1,183,NaN,boat,boat,0.00,0183_nse_dnn_0.00_boat_10_n04612504_20067.png,n04612504_20067.png,1.0,4.6653833,2.3716948,1.6218828
alexnet_w3_mlp_simclrhn_probe3,1,184,NaN,knife,clock,0.35,0184_nse_dnn_0.35_clock_10_n03196217_6163.png,n03196217_6163.png,0.0,0.2924827,0.8722093,-0.4099286
alexnet_w3_mlp_simclrhn_probe3,1,185,NaN,keyboard,keyboard,0.03,0185_nse_dnn_0.03_keyboard_10_n03085013_23119.png,n03085013_23119.png,1.0,0.871523,0.6613226,0.14863415
alexnet_w3_mlp_simclrhn_probe3,1,186,NaN,knife,clock,0.60,0186_nse_dnn_0.60_clock_10_n04548280_4358.png,n04548280_4358.png,0.0,0.4304346,1.1979415,-0.5427094
alexnet_w3_mlp_simclrhn_probe3,1,187,NaN,bear,dog,0.05,0187_nse_dnn_0.05_dog_10_n02101388_2968.png,n02101388_2968.png,0.0,0.048235122,0.6399416,-0.41839966
alexnet_w3_mlp_simclrhn_probe3,1,188,NaN,oven,oven,0.10,0188_nse_dnn_0.10_oven_10_n04111531_8081.png,n04111531_8081.png,1.0,0.7562047,0.49808216,0.18252021
alexnet_w3_mlp_simclrhn_probe3,1,189,NaN,knife,keyboard,0.05,0189_nse_dnn_0.05_keyboard_10_n04505470_4994.png,n04505470_4994.png,0.0,0.7528683,1.0603961,-0.21745498
alexnet_w3_mlp_simclrhn_probe3,1,190,NaN,oven,dog,0.10,0190_nse_dnn_0.10_dog_10_n02101006_16132.png,n02101006_16132.png,0.0,0.023625249,0.20392814,-0.1274934
alexnet_w3_mlp_simclrhn_probe3,1,191,NaN,elephant,elephant,0.10,0191_nse_dnn_0.10_elephant_10_n02504458_6888.png,n02504458_6888.png,1.0,0.55347097,0.32459277,0.16184133
alexnet_w3_mlp_simclrhn_probe3,1,192,NaN,knife,bird,0.60,0192_nse_dnn_0.60_bird_10_n02018207_43958.png,n02018207_43958.png,0.0,-0.33269015,1.2284842,-1.1039169
alexnet_w3_mlp_simclrhn_probe3,1,193,NaN,cat,cat,0.03,0193_nse_dnn_0.03_cat_10_n02123045_2719.png,n02123045_2719.png,1.0,4.0959687,0.25089207,2.7188797
alexnet_w3_mlp_simclrhn_probe3,1,194,NaN,keyboard,keyboard,0.05,0194_nse_dnn_0.05_keyboard_10_n03085013_5611.png,n03085013_5611.png,1.0,2.745607,0.28210488,1.741959
alexnet_w3_mlp_simclrhn_probe3,1,195,NaN,chair,boat,0.03,0195_nse_dnn_0.03_boat_10_n03344393_6892.png,n03344393_6892.png,0.0,0.36866897,0.4144588,-0.032378305
alexnet_w3_mlp_simclrhn_probe3,1,196,NaN,knife,chair,0.90,0196_nse_dnn_0.90_chair_10_n02791124_5411.png,n02791124_5411.png,0.0,0.0954234,1.2997239,-0.851569
alexnet_w3_mlp_simclrhn_probe3,1,197,NaN,elephant,elephant,0.05,0197_nse_dnn_0.05_elephant_10_n02504013_8391.png,n02504013_8391.png,1.0,1.4706465,0.47379524,0.7048803
alexnet_w3_mlp_simclrhn_probe3,1,198,NaN,knife,chair,0.60,0198_nse_dnn_0.60_chair_10_n02791124_7167.png,n02791124_7167.png,0.0,-0.006211564,1.2250183,-0.87061095
alexnet_w3_mlp_simclrhn_probe3,1,199,NaN,oven,truck,0.10,0199_nse_dnn_0.10_truck_10_n03417042_2170.png,n03417042_2170.png,0.0,-0.31015825,0.47179088,-0.5529216
alexnet_w3_mlp_simclrhn_probe3,1,200,NaN,knife,chair,0.35,0200_nse_dnn_0.35_chair_10_n04099969_2109.png,n04099969_2109.png,0.0,0.11152089,0.9999145,-0.6281892
alexnet_w3_mlp_simclrhn_probe3,1,201,NaN,knife,chair,0.90,0201_nse_dnn_0.90_chair_10_n04429376_7321.png,n04429376_7321.png,0.0,-0.042857006,1.5216625,-1.1062824
alexnet_w3_mlp_simclrhn_probe3,1,202,NaN,knife,airplane,0.35,0202_nse_dnn_0.35_airplane_10_n02690373_1733.png,n02690373_1733.png,0.0,-0.40450406,1.0010203,-0.99385583
alexnet_w3_mlp_simclrhn_probe3,1,203,NaN,knife,bird,0.10,0203_nse_dnn_0.10_bird_10_n02006656_5719.png,n02006656_5719.png,0.0,-0.14422727,0.16226983,-0.21672618
alexnet_w3_mlp_simclrhn_probe3,1,204,NaN,bicycle,bicycle,0.03,0204_nse_dnn_0.03_bicycle_10_n03792782_12354.png,n03792782_12354.png,1.0,1.36814,0.2733476,0.7741351
alexnet_w3_mlp_simclrhn_probe3,1,205,NaN,bottle,bottle,0.03,0205_nse_dnn_0.03_bottle_10_n04557648_12671.png,n04557648_12671.png,1.0,2.3742375,0.43366775,1.3721901
alexnet_w3_mlp_simclrhn_probe3,1,206,NaN,elephant,elephant,0.05,0206_nse_dnn_0.05_elephant_10_n02504013_318.png,n02504013_318.png,1.0,1.0016968,0.34582824,0.46376914
alexnet_w3_mlp_simclrhn_probe3,1,207,NaN,knife,boat,0.90,0207_nse_dnn_0.90_boat_10_n04273569_16078.png,n04273569_16078.png,0.0,0.028625965,1.5253499,-1.0583436
alexnet_w3_mlp_simclrhn_probe3,1,208,NaN,knife,cat,0.03,0208_nse_dnn_0.03_cat_10_n02123597_9664.png,n02123597_9664.png,0.0,0.01477918,0.76949537,-0.53366494
alexnet_w3_mlp_simclrhn_probe3,1,209,NaN,knife,clock,0.35,0209_nse_dnn_0.35_clock_10_n04548280_4113.png,n04548280_4113.png,0.0,0.4165081,1.0609747,-0.45570675
alexnet_w3_mlp_simclrhn_probe3,1,210,NaN,knife,keyboard,0.60,0210_nse_dnn_0.60_keyboard_10_n03085013_20363.png,n03085013_20363.png,0.0,-0.20283188,1.2707038,-1.0419471
alexnet_w3_mlp_simclrhn_probe3,1,211,NaN,knife,truck,0.03,0211_nse_dnn_0.03_truck_10_n04467665_67908.png,n04467665_67908.png,0.0,0.08160041,0.333135,-0.17786181
alexnet_w3_mlp_simclrhn_probe3,1,212,NaN,knife,truck,0.90,0212_nse_dnn_0.90_truck_10_n04467665_61522.png,n04467665_61522.png,0.0,-0.38750914,1.2360163,-1.1480058
alexnet_w3_mlp_simclrhn_probe3,1,213,NaN,knife,cat,0.90,0213_nse_dnn_0.90_cat_10_n02123045_3648.png,n02123045_3648.png,0.0,-0.39775157,1.5918984,-1.406895
alexnet_w3_mlp_simclrhn_probe3,1,214,NaN,knife,dog,0.60,0214_nse_dnn_0.60_dog_10_n02107574_3685.png,n02107574_3685.png,0.0,0.0262957,1.3364158,-0.9263948
alexnet_w3_mlp_simclrhn_probe3,1,215,NaN,knife,dog,0.20,0215_nse_dnn_0.20_dog_10_n02100236_4048.png,n02100236_4048.png,0.0,-0.026154429,0.5364331,-0.39780945
alexnet_w3_mlp_simclrhn_probe3,1,216,NaN,knife,bear,0.35,0216_nse_dnn_0.35_bear_10_n02134418_5073.png,n02134418_5073.png,0.0,-0.08938941,0.728407,-0.5782694
alexnet_w3_mlp_simclrhn_probe3,1,217,NaN,knife,airplane,0.90,0217_nse_dnn_0.90_airplane_10_n02690373_9012.png,n02690373_9012.png,0.0,-0.8142392,1.322345,-1.5107932
alexnet_w3_mlp_simclrhn_probe3,1,218,NaN,knife,cat,0.35,0218_nse_dnn_0.35_cat_10_n02123159_6439.png,n02123159_6439.png,0.0,-0.18754812,0.785905,-0.6883353
alexnet_w3_mlp_simclrhn_probe3,1,219,NaN,knife,cat,0.60,0219_nse_dnn_0.60_cat_10_n02125311_3616.png,n02125311_3616.png,0.0,-0.2236766,1.2973201,-1.075507
alexnet_w3_mlp_simclrhn_probe3,1,220,NaN,knife,bottle,0.60,0220_nse_dnn_0.60_bottle_10_n04557648_4356.png,n04557648_4356.png,0.0,-0.39838532,1.1730995,-1.1112076
alexnet_w3_mlp_simclrhn_probe3,1,221,NaN,knife,bird,0.35,0221_nse_dnn_0.35_bird_10_n02027492_6813.png,n02027492_6813.png,0.0,-0.2257577,0.67729425,-0.63855416
alexnet_w3_mlp_simclrhn_probe3,1,222,NaN,oven,chair,0.03,0222_nse_dnn_0.03_chair_10_n04429376_26765.png,n04429376_26765.png,0.0,0.6007401,0.9761413,-0.26544875
alexnet_w3_mlp_simclrhn_probe3,1,223,NaN,knife,elephant,0.35,0223_nse_dnn_0.35_elephant_10_n02504458_4811.png,n02504458_4811.png,0.0,-0.1323724,0.8070152,-0.66424733
alexnet_w3_mlp_simclrhn_probe3,1,224,NaN,keyboard,keyboard,0.20,0224_nse_dnn_0.20_keyboard_10_n04505470_1351.png,n04505470_1351.png,1.0,0.25991866,0.1573259,0.07254404
alexnet_w3_mlp_simclrhn_probe3,1,225,NaN,chair,chair,0.05,0225_nse_dnn_0.05_chair_10_n04099969_2532.png,n04099969_2532.png,1.0,0.81740195,0.25654748,0.39658397
alexnet_w3_mlp_simclrhn_probe3,1,226,NaN,knife,airplane,0.10,0226_nse_dnn_0.10_airplane_10_n02690373_8547.png,n02690373_8547.png,0.0,-0.14502755,0.5983753,-0.5256652
alexnet_w3_mlp_simclrhn_probe3,1,227,NaN,knife,truck,0.35,0227_nse_dnn_0.35_truck_10_n03417042_23445.png,n03417042_23445.png,0.0,-0.34156096,0.98662424,-0.93916875
alexnet_w3_mlp_simclrhn_probe3,1,228,NaN,knife,truck,0.90,0228_nse_dnn_0.90_truck_10_n04467665_48953.png,n04467665_48953.png,0.0,-0.3690332,1.6109204,-1.4000387
alexnet_w3_mlp_simclrhn_probe3,1,229,NaN,knife,boat,0.20,0229_nse_dnn_0.20_boat_10_n03662601_11739.png,n03662601_11739.png,0.0,-0.15734552,0.6628901,-0.5799942
alexnet_w3_mlp_simclrhn_probe3,1,230,NaN,cat,cat,0.03,0230_nse_dnn_0.03_cat_10_n02123597_4948.png,n02123597_4948.png,1.0,0.8695553,0.43352816,0.30831775
alexnet_w3_mlp_simclrhn_probe3,1,231,NaN,knife,oven,0.35,0231_nse_dnn_0.35_oven_10_n04111531_9411.png,n04111531_9411.png,0.0,-0.8862137,0.9266124,-1.2818617
alexnet_w3_mlp_simclrhn_probe3,1,232,NaN,knife,bicycle,0.60,0232_nse_dnn_0.60_bicycle_10_n03792782_988.png,n03792782_988.png,0.0,-0.18474892,1.320738,-1.06454
alexnet_w3_mlp_simclrhn_probe3,1,233,NaN,oven,car,0.05,0233_nse_dnn_0.05_car_10_n02814533_65294.png,n02814533_65294.png,0.0,-0.29435313,1.0805911,-0.9722324
alexnet_w3_mlp_simclrhn_probe3,1,234,NaN,bottle,bottle,0.00,0234_nse_dnn_0.00_bottle_10_n04557648_10420.png,n04557648_10420.png,1.0,1.9640993,0.68395656,0.9051977
alexnet_w3_mlp_simclrhn_probe3,1,235,NaN,knife,chair,0.60,0235_nse_dnn_0.60_chair_10_n04099969_33329.png,n04099969_33329.png,0.0,0.0015439168,0.92600965,-0.653696
alexnet_w3_mlp_simclrhn_probe3,1,236,NaN,knife,oven,0.35,0236_nse_dnn_0.35_oven_10_n04111531_20493.png,n04111531_20493.png,0.0,-1.1728072,0.86415863,-1.4403524
alexnet_w3_mlp_simclrhn_probe3,1,237,NaN,knife,clock,0.10,0237_nse_dnn_0.10_clock_10_n04548280_7839.png,n04548280_7839.png,0.0,0.69475436,0.8620939,-0.11832694
alexnet_w3_mlp_simclrhn_probe3,1,238,NaN,knife,airplane,0.20,0238_nse_dnn_0.20_airplane_10_n02690373_7229.png,n02690373_7229.png,0.0,-0.30887282,0.8492234,-0.81889766
alexnet_w3_mlp_simclrhn_probe3,1,239,NaN,knife,airplane,0.10,0239_nse_dnn_0.10_airplane_10_n02690373_5003.png,n02690373_5003.png,0.0,-0.12017052,0.5140805,-0.44848323
alexnet_w3_mlp_simclrhn_probe3,1,240,NaN,knife,chair,0.20,0240_nse_dnn_0.20_chair_10_n02791124_206.png,n02791124_206.png,0.0,0.17444104,0.4762988,-0.21344568
alexnet_w3_mlp_simclrhn_probe3,1,241,NaN,oven,oven,0.00,0241_nse_dnn_0.00_oven_10_n04111531_7283.png,n04111531_7283.png,1.0,1.1212283,0.5203731,0.42486882
alexnet_w3_mlp_simclrhn_probe3,1,242,NaN,knife,chair,0.35,0242_nse_dnn_0.35_chair_10_n04429376_8124.png,n04429376_8124.png,0.0,-0.0995633,0.80553365,-0.6400002
alexnet_w3_mlp_simclrhn_probe3,1,243,NaN,keyboard,keyboard,0.00,0243_nse_dnn_0.00_keyboard_10_n04505470_3864.png,n04505470_3864.png,1.0,1.0310327,0.58195794,0.3175438
alexnet_w3_mlp_simclrhn_probe3,1,244,NaN,knife,bottle,0.35,0244_nse_dnn_0.35_bottle_10_n03937543_3289.png,n03937543_3289.png,0.0,-0.19454345,0.6445346,-0.5933178
alexnet_w3_mlp_simclrhn_probe3,1,245,NaN,knife,boat,0.10,0245_nse_dnn_0.10_boat_10_n03344393_5207.png,n03344393_5207.png,0.0,-0.07374778,0.63701403,-0.50258446
alexnet_w3_mlp_simclrhn_probe3,1,246,NaN,knife,airplane,0.90,0246_nse_dnn_0.90_airplane_10_n02690373_629.png,n02690373_629.png,0.0,-0.68925434,1.5183349,-1.5610013
alexnet_w3_mlp_simclrhn_probe3,1,247,NaN,knife,elephant,0.03,0247_nse_dnn_0.03_elephant_10_n02504013_104.png,n02504013_104.png,0.0,0.3336361,0.449549,-0.08196279
alexnet_w3_mlp_simclrhn_probe3,1,248,NaN,bicycle,bicycle,0.03,0248_nse_dnn_0.03_bicycle_10_n03792782_42626.png,n03792782_42626.png,1.0,0.49391127,0.3415836,0.10771192
alexnet_w3_mlp_simclrhn_probe3,1,249,NaN,knife,truck,0.35,0249_nse_dnn_0.35_truck_10_n03417042_6847.png,n03417042_6847.png,0.0,-0.35159054,0.89479023,-0.88132435
alexnet_w3_mlp_simclrhn_probe3,1,250,NaN,knife,chair,0.10,0250_nse_dnn_0.10_chair_10_n04429376_23573.png,n04429376_23573.png,0.0,0.07052562,0.39781296,-0.2314271
alexnet_w3_mlp_simclrhn_probe3,1,251,NaN,knife,clock,0.03,0251_nse_dnn_0.03_clock_10_n03196217_7637.png,n03196217_7637.png,0.0,0.55858725,0.94144905,-0.27072418
alexnet_w3_mlp_simclrhn_probe3,1,252,NaN,knife,airplane,0.05,0252_nse_dnn_0.05_airplane_10_n02690373_932.png,n02690373_932.png,0.0,-0.029116526,0.47914934,-0.35939825
alexnet_w3_mlp_simclrhn_probe3,1,253,NaN,oven,truck,0.05,0253_nse_dnn_0.05_truck_10_n03417042_9478.png,n03417042_9478.png,0.0,0.39278632,0.78889394,-0.2800904
alexnet_w3_mlp_simclrhn_probe3,1,254,NaN,knife,clock,0.05,0254_nse_dnn_0.05_clock_10_n04548280_7800.png,n04548280_7800.png,0.0,0.8920701,0.90828484,-0.011465545
alexnet_w3_mlp_simclrhn_probe3,1,255,NaN,knife,keyboard,0.10,0255_nse_dnn_0.10_keyboard_10_n03085013_1698.png,n03085013_1698.png,0.0,-0.2035971,1.1857548,-0.98242015
alexnet_w3_mlp_simclrhn_probe3,1,256,NaN,knife,boat,0.20,0256_nse_dnn_0.20_boat_10_n04273569_32553.png,n04273569_32553.png,0.0,-0.04414451,0.9068718,-0.6724701
alexnet_w3_mlp_simclrhn_probe3,1,257,NaN,bear,bear,0.03,0257_nse_dnn_0.03_bear_10_n02132136_23078.png,n02132136_23078.png,1.0,0.40370658,0.30283728,0.07132537
alexnet_w3_mlp_simclrhn_probe3,1,258,NaN,bottle,bottle,0.00,0258_nse_dnn_0.00_bottle_10_n04591713_5476.png,n04591713_5476.png,1.0,1.3867121,0.9598258,0.30185416
alexnet_w3_mlp_simclrhn_probe3,1,259,NaN,oven,knife,0.10,0259_nse_dnn_0.10_knife_10_n03041632_31849.png,n03041632_31849.png,0.0,0.10896046,0.32423607,-0.15222286
alexnet_w3_mlp_simclrhn_probe3,1,260,NaN,knife,truck,0.90,0260_nse_dnn_0.90_truck_10_n03417042_12908.png,n03417042_12908.png,0.0,-0.38182166,1.4474639,-1.2935002
alexnet_w3_mlp_simclrhn_probe3,1,261,NaN,knife,clock,0.60,0261_nse_dnn_0.60_clock_10_n02708093_1418.png,n02708093_1418.png,0.0,0.4865285,1.2611647,-0.5477505
alexnet_w3_mlp_simclrhn_probe3,1,262,NaN,airplane,car,0.05,0262_nse_dnn_0.05_car_10_n03100240_4173.png,n03100240_4173.png,0.0,0.2946779,0.7174953,-0.29897708
alexnet_w3_mlp_simclrhn_probe3,1,263,NaN,keyboard,keyboard,0.10,0263_nse_dnn_0.10_keyboard_10_n03085013_25476.png,n03085013_25476.png,1.0,1.428958,0.56989557,0.60744894
alexnet_w3_mlp_simclrhn_probe3,1,264,NaN,cat,cat,0.05,0264_nse_dnn_0.05_cat_10_n02125311_34464.png,n02125311_34464.png,1.0,1.2194368,0.33927974,0.622365
alexnet_w3_mlp_simclrhn_probe3,1,265,NaN,knife,knife,0.20,0265_nse_dnn_0.20_knife_10_n03041632_36789.png,n03041632_36789.png,1.0,0.6407398,0.20575684,0.3075794
alexnet_w3_mlp_simclrhn_probe3,1,266,NaN,dog,dog,0.03,0266_nse_dnn_0.03_dog_10_n02108915_3733.png,n02108915_3733.png,1.0,0.2583945,0.23229025,0.018458497
alexnet_w3_mlp_simclrhn_probe3,1,267,NaN,knife,knife,0.60,0267_nse_dnn_0.60_knife_10_n03041632_42162.png,n03041632_42162.png,1.0,1.2641567,0.38727388,0.6200498
alexnet_w3_mlp_simclrhn_probe3,1,268,NaN,knife,keyboard,0.10,0268_nse_dnn_0.10_keyboard_10_n03085013_29042.png,n03085013_29042.png,0.0,0.32558563,0.9634087,-0.45100906
alexnet_w3_mlp_simclrhn_probe3,1,269,NaN,airplane,airplane,0.00,0269_nse_dnn_0.00_airplane_10_n02690373_19407.png,n02690373_19407.png,1.0,0.8637707,0.7768649,0.061451707
alexnet_w3_mlp_simclrhn_probe3,1,270,NaN,oven,bear,0.05,0270_nse_dnn_0.05_bear_10_n02134084_22029.png,n02134084_22029.png,0.0,0.15560554,0.33241278,-0.1250216
alexnet_w3_mlp_simclrhn_probe3,1,271,NaN,knife,dog,0.60,0271_nse_dnn_0.60_dog_10_n02088238_11711.png,n02088238_11711.png,0.0,0.11239624,1.2151358,-0.77975464
alexnet_w3_mlp_simclrhn_probe3,1,272,NaN,knife,elephant,0.20,0272_nse_dnn_0.20_elephant_10_n02504013_8522.png,n02504013_8522.png,0.0,0.019787554,0.69797873,-0.47955358
alexnet_w3_mlp_simclrhn_probe3,1,273,NaN,knife,elephant,0.60,0273_nse_dnn_0.60_elephant_10_n02504458_5941.png,n02504458_5941.png,0.0,-0.92693937,1.3582495,-1.6158726
alexnet_w3_mlp_simclrhn_probe3,1,274,NaN,truck,truck,0.00,0274_nse_dnn_0.00_truck_10_n04467665_242.png,n04467665_242.png,1.0,3.37264,1.4201294,1.3806335
alexnet_w3_mlp_simclrhn_probe3,1,275,NaN,keyboard,keyboard,0.00,0275_nse_dnn_0.00_keyboard_10_n04505470_4473.png,n04505470_4473.png,1.0,2.4399812,1.1567125,0.907408
alexnet_w3_mlp_simclrhn_probe3,1,276,NaN,boat,boat,0.05,0276_nse_dnn_0.05_boat_10_n03662601_10811.png,n03662601_10811.png,1.0,0.37812203,0.20381181,0.123255946
alexnet_w3_mlp_simclrhn_probe3,1,277,NaN,keyboard,keyboard,0.03,0277_nse_dnn_0.03_keyboard_10_n03085013_20495.png,n03085013_20495.png,1.0,1.442487,1.0832038,0.2540516
alexnet_w3_mlp_simclrhn_probe3,1,278,NaN,bicycle,bicycle,0.00,0278_nse_dnn_0.00_bicycle_10_n02835271_15038.png,n02835271_15038.png,1.0,5.7177286,0.31845194,3.8178654
alexnet_w3_mlp_simclrhn_probe3,1,279,NaN,knife,bear,0.20,0279_nse_dnn_0.20_bear_10_n02134418_5271.png,n02134418_5271.png,0.0,0.06971206,0.54966426,-0.33937746
alexnet_w3_mlp_simclrhn_probe3,1,280,NaN,knife,chair,0.10,0280_nse_dnn_0.10_chair_10_n02791124_1217.png,n02791124_1217.png,0.0,0.34005094,0.9817575,-0.45375508
alexnet_w3_mlp_simclrhn_probe3,1,281,NaN,knife,elephant,0.10,0281_nse_dnn_0.10_elephant_10_n02504013_2394.png,n02504013_2394.png,0.0,-0.00659173,0.42502868,-0.30520174
alexnet_w3_mlp_simclrhn_probe3,1,282,NaN,knife,dog,0.35,0282_nse_dnn_0.35_dog_10_n02105505_5576.png,n02105505_5576.png,0.0,-0.0030086732,0.868264,-0.61608285
alexnet_w3_mlp_simclrhn_probe3,1,283,NaN,knife,airplane,0.10,0283_nse_dnn_0.10_airplane_10_n02690373_2579.png,n02690373_2579.png,0.0,-0.21466862,0.51745397,-0.5176889
alexnet_w3_mlp_simclrhn_probe3,1,284,NaN,clock,dog,0.05,0284_nse_dnn_0.05_dog_10_n02102480_10015.png,n02102480_10015.png,0.0,0.20455791,0.42805085,-0.15803337
alexnet_w3_mlp_simclrhn_probe3,1,285,NaN,knife,cat,0.10,0285_nse_dnn_0.10_cat_10_n02124075_5853.png,n02124075_5853.png,0.0,0.012570922,0.19765353,-0.13087317
alexnet_w3_mlp_simclrhn_probe3,1,286,NaN,truck,truck,0.00,0286_nse_dnn_0.00_truck_10_n03796401_2012.png,n03796401_2012.png,1.0,1.0380003,0.8837047,0.109103486
alexnet_w3_mlp_simclrhn_probe3,1,287,NaN,knife,keyboard,0.10,0287_nse_dnn_0.10_keyboard_10_n04505470_1286.png,n04505470_1286.png,0.0,0.3733339,0.5472759,-0.12299557
alexnet_w3_mlp_simclrhn_probe3,1,288,NaN,oven,truck,0.10,0288_nse_dnn_0.10_truck_10_n04467665_74008.png,n04467665_74008.png,0.0,-0.052849032,0.59051,-0.45492357
alexnet_w3_mlp_simclrhn_probe3,1,289,NaN,knife,bottle,0.90,0289_nse_dnn_0.90_bottle_10_n04560804_10541.png,n04560804_10541.png,0.0,-0.52237004,1.5614405,-1.4734766
alexnet_w3_mlp_simclrhn_probe3,1,290,NaN,knife,airplane,0.20,0290_nse_dnn_0.20_airplane_10_n02690373_8967.png,n02690373_8967.png,0.0,-0.44976032,0.56541896,-0.71784014
alexnet_w3_mlp_simclrhn_probe3,1,291,NaN,knife,keyboard,0.60,0291_nse_dnn_0.60_keyboard_10_n04505470_3309.png,n04505470_3309.png,0.0,-0.37919667,1.2571222,-1.1570522
alexnet_w3_mlp_simclrhn_probe3,1,292,NaN,car,car,0.05,0292_nse_dnn_0.05_car_10_n02814533_42665.png,n02814533_42665.png,1.0,1.2979299,0.8549786,0.31321386
alexnet_w3_mlp_simclrhn_probe3,1,293,NaN,bottle,bicycle,0.03,0293_nse_dnn_0.03_bicycle_10_n03792782_6613.png,n03792782_6613.png,0.0,-0.31598043,0.25647697,-0.40478855
alexnet_w3_mlp_simclrhn_probe3,1,294,NaN,knife,knife,0.00,0294_nse_dnn_0.00_knife_10_n03041632_38540.png,n03041632_38540.png,1.0,1.630296,0.34460413,0.90912145
alexnet_w3_mlp_simclrhn_probe3,1,295,NaN,knife,dog,0.90,0295_nse_dnn_0.90_dog_10_n02109047_6542.png,n02109047_6542.png,0.0,0.13762736,1.2784661,-0.8066948
alexnet_w3_mlp_simclrhn_probe3,1,296,NaN,knife,bicycle,0.35,0296_nse_dnn_0.35_bicycle_10_n03792782_51156.png,n03792782_51156.png,0.0,-0.14026639,0.468163,-0.4302246
alexnet_w3_mlp_simclrhn_probe3,1,297,NaN,knife,bottle,0.10,0297_nse_dnn_0.10_bottle_10_n04579145_5795.png,n04579145_5795.png,0.0,-0.04702258,0.52708435,-0.4059549
alexnet_w3_mlp_simclrhn_probe3,1,298,NaN,chair,chair,0.03,0298_nse_dnn_0.03_chair_10_n03376595_787.png,n03376595_787.png,1.0,0.7893046,0.7880458,0.0008900993
alexnet_w3_mlp_simclrhn_probe3,1,299,NaN,knife,bottle,0.90,0299_nse_dnn_0.90_bottle_10_n04579145_1117.png,n04579145_1117.png,0.0,-0.5119022,1.3561547,-1.3209157
alexnet_w3_mlp_simclrhn_probe3,1,300,NaN,oven,bird,0.00,0300_nse_dnn_0.00_bird_10_n01795545_11076.png,n01795545_11076.png,0.0,0.10271809,0.4323321,-0.23307231
alexnet_w3_mlp_simclrhn_probe3,1,301,NaN,knife,clock,0.20,0301_nse_dnn_0.20_clock_10_n03196217_6741.png,n03196217_6741.png,0.0,-0.007206768,0.8681021,-0.61893684
alexnet_w3_mlp_simclrhn_probe3,1,302,NaN,oven,oven,0.00,0302_nse_dnn_0.00_oven_10_n04111531_3555.png,n04111531_3555.png,1.0,0.9485227,0.29552895,0.46173632
alexnet_w3_mlp_simclrhn_probe3,1,303,NaN,knife,knife,0.20,0303_nse_dnn_0.20_knife_10_n03041632_36280.png,n03041632_36280.png,1.0,0.7138705,0.23412354,0.33923236
alexnet_w3_mlp_simclrhn_probe3,1,304,NaN,truck,truck,0.03,0304_nse_dnn_0.03_truck_10_n04467665_74235.png,n04467665_74235.png,1.0,3.9183202,0.46479172,2.4420135
alexnet_w3_mlp_simclrhn_probe3,1,305,NaN,knife,clock,0.90,0305_nse_dnn_0.90_clock_10_n04548280_6287.png,n04548280_6287.png,0.0,0.45699465,1.3723601,-0.64726114
alexnet_w3_mlp_simclrhn_probe3,1,306,NaN,elephant,elephant,0.00,0306_nse_dnn_0.00_elephant_10_n02504458_6472.png,n02504458_6472.png,1.0,4.683367,2.067049,1.850016
alexnet_w3_mlp_simclrhn_probe3,1,307,NaN,bicycle,bicycle,0.05,0307_nse_dnn_0.05_bicycle_10_n03792782_11034.png,n03792782_11034.png,1.0,1.1784906,0.32606742,0.60275424
alexnet_w3_mlp_simclrhn_probe3,1,308,NaN,knife,dog,0.60,0308_nse_dnn_0.60_dog_10_n02109525_50916.png,n02109525_50916.png,0.0,0.042217623,1.1966786,-0.8163272
alexnet_w3_mlp_simclrhn_probe3,1,309,NaN,knife,dog,0.60,0309_nse_dnn_0.60_dog_10_n02097658_1923.png,n02097658_1923.png,0.0,0.07859397,1.1975911,-0.79125047
alexnet_w3_mlp_simclrhn_probe3,1,310,NaN,elephant,knife,0.03,0310_nse_dnn_0.03_knife_10_n03041632_22480.png,n03041632_22480.png,0.0,0.5364273,0.5585758,-0.015661348
alexnet_w3_mlp_simclrhn_probe3,1,311,NaN,knife,elephant,0.35,0311_nse_dnn_0.35_elephant_10_n02504458_1041.png,n02504458_1041.png,0.0,-0.6660906,0.9746487,-1.160178
alexnet_w3_mlp_simclrhn_probe3,1,312,NaN,elephant,knife,0.10,0312_nse_dnn_0.10_knife_10_n03041632_28129.png,n03041632_28129.png,0.0,0.04576678,0.34218222,-0.20959738
alexnet_w3_mlp_simclrhn_probe3,1,313,NaN,car,car,0.00,0313_nse_dnn_0.00_car_10_n03100240_14667.png,n03100240_14667.png,1.0,4.019279,0.89943516,2.2060628
alexnet_w3_mlp_simclrhn_probe3,1,314,NaN,airplane,airplane,0.03,0314_nse_dnn_0.03_airplane_10_n02690373_3821.png,n02690373_3821.png,1.0,2.1408107,1.1806533,0.6789338
alexnet_w3_mlp_simclrhn_probe3,1,315,NaN,knife,cat,0.90,0315_nse_dnn_0.90_cat_10_n02124075_1183.png,n02124075_1183.png,0.0,-0.2928758,1.3263438,-1.1449611
alexnet_w3_mlp_simclrhn_probe3,1,316,NaN,knife,car,0.90,0316_nse_dnn_0.90_car_10_n03100240_1194.png,n03100240_1194.png,0.0,-0.34331504,1.4721236,-1.2837089
alexnet_w3_mlp_simclrhn_probe3,1,317,NaN,knife,oven,0.60,0317_nse_dnn_0.60_oven_10_n04111531_9370.png,n04111531_9370.png,0.0,-2.3770888,1.3336072,-2.6238585
alexnet_w3_mlp_simclrhn_probe3,1,318,NaN,knife,truck,0.20,0318_nse_dnn_0.20_truck_10_n03417042_10597.png,n03417042_10597.png,0.0,-0.2921325,0.4535605,-0.52728456
alexnet_w3_mlp_simclrhn_probe3,1,319,NaN,oven,truck,0.05,0319_nse_dnn_0.05_truck_10_n03417042_6489.png,n03417042_6489.png,0.0,-0.06664452,0.60775506,-0.47687256
alexnet_w3_mlp_simclrhn_probe3,1,320,NaN,keyboard,bottle,0.05,0320_nse_dnn_0.05_bottle_10_n04591713_6662.png,n04591713_6662.png,0.0,0.35540444,0.637396,-0.19939813
alexnet_w3_mlp_simclrhn_probe3,1,321,NaN,knife,bottle,0.60,0321_nse_dnn_0.60_bottle_10_n04560804_4624.png,n04560804_4624.png,0.0,-0.41711715,1.1786052,-1.1283461
alexnet_w3_mlp_simclrhn_probe3,1,322,NaN,oven,bird,0.00,0322_nse_dnn_0.00_bird_10_n01818515_7370.png,n01818515_7370.png,0.0,0.26149297,0.398306,-0.09674143
alexnet_w3_mlp_simclrhn_probe3,1,323,NaN,keyboard,keyboard,0.05,0323_nse_dnn_0.05_keyboard_10_n03085013_15646.png,n03085013_15646.png,1.0,1.5316753,0.48137146,0.74267703
alexnet_w3_mlp_simclrhn_probe3,1,324,NaN,cat,cat,0.03,0324_nse_dnn_0.03_cat_10_n02124075_14924.png,n02124075_14924.png,1.0,2.453987,0.2832494,1.5349432
alexnet_w3_mlp_simclrhn_probe3,1,325,NaN,elephant,elephant,0.20,0325_nse_dnn_0.20_elephant_10_n02504013_18217.png,n02504013_18217.png,1.0,0.5045731,0.410672,0.06639811
alexnet_w3_mlp_simclrhn_probe3,1,326,NaN,keyboard,keyboard,0.35,0326_nse_dnn_0.35_keyboard_10_n04505470_4724.png,n04505470_4724.png,1.0,0.58624506,0.20842373,0.26716003
alexnet_w3_mlp_simclrhn_probe3,1,327,NaN,knife,clock,0.20,0327_nse_dnn_0.20_clock_10_n04548280_9646.png,n04548280_9646.png,0.0,0.22478926,0.24851093,-0.016773751
alexnet_w3_mlp_simclrhn_probe3,1,328,NaN,knife,cat,0.35,0328_nse_dnn_0.35_cat_10_n02123394_6376.png,n02123394_6376.png,0.0,-0.2187959,0.9962685,-0.8591803
alexnet_w3_mlp_simclrhn_probe3,1,329,NaN,knife,elephant,0.35,0329_nse_dnn_0.35_elephant_10_n02504458_130.png,n02504458_130.png,0.0,-0.635709,0.90544593,-1.089761
alexnet_w3_mlp_simclrhn_probe3,1,330,NaN,knife,cat,0.90,0330_nse_dnn_0.90_cat_10_n02124075_9291.png,n02124075_9291.png,0.0,-0.36371028,1.371706,-1.2271247
alexnet_w3_mlp_simclrhn_probe3,1,331,NaN,knife,bird,0.10,0331_nse_dnn_0.10_bird_10_n02037110_3949.png,n02037110_3949.png,0.0,-0.077274755,0.38301674,-0.32547525
alexnet_w3_mlp_simclrhn_probe3,1,332,NaN,car,car,0.00,0332_nse_dnn_0.00_car_10_n04285008_10905.png,n04285008_10905.png,1.0,4.3713584,2.6913614,1.1879373
alexnet_w3_mlp_simclrhn_probe3,1,333,NaN,oven,chair,0.10,0333_nse_dnn_0.10_chair_10_n04429376_619.png,n04429376_619.png,0.0,-0.012952864,0.2397623,-0.17869662
alexnet_w3_mlp_simclrhn_probe3,1,334,NaN,knife,boat,0.90,0334_nse_dnn_0.90_boat_10_n02951358_30335.png,n02951358_30335.png,0.0,-0.08382278,1.3712084,-1.0288624
alexnet_w3_mlp_simclrhn_probe3,1,335,NaN,knife,oven,0.90,0335_nse_dnn_0.90_oven_10_n04111531_17995.png,n04111531_17995.png,0.0,-2.9030535,1.4962616,-3.1107855
alexnet_w3_mlp_simclrhn_probe3,1,336,NaN,knife,bird,0.35,0336_nse_dnn_0.35_bird_10_n01828970_11221.png,n01828970_11221.png,0.0,-0.24067642,0.8898299,-0.79938865
alexnet_w3_mlp_simclrhn_probe3,1,337,NaN,knife,elephant,0.10,0337_nse_dnn_0.10_elephant_10_n02504013_1719.png,n02504013_1719.png,0.0,0.22339344,0.33916265,-0.08186119
alexnet_w3_mlp_simclrhn_probe3,1,338,NaN,oven,oven,0.10,0338_nse_dnn_0.10_oven_10_n04111531_8009.png,n04111531_8009.png,1.0,0.83736575,0.62425923,0.15068907
alexnet_w3_mlp_simclrhn_probe3,1,339,NaN,knife,airplane,0.60,0339_nse_dnn_0.60_airplane_10_n02690373_8233.png,n02690373_8233.png,0.0,-0.69186574,1.1656638,-1.3134718
alexnet_w3_mlp_simclrhn_probe3,1,340,NaN,clock,dog,0.10,0340_nse_dnn_0.10_dog_10_n02092339_401.png,n02092339_401.png,0.0,-0.017450128,0.25480527,-0.19251363
alexnet_w3_mlp_simclrhn_probe3,1,341,NaN,knife,bottle,0.10,0341_nse_dnn_0.10_bottle_10_n02823428_11579.png,n02823428_11579.png,0.0,0.19872083,0.49806166,-0.21166594
alexnet_w3_mlp_simclrhn_probe3,1,342,NaN,knife,car,0.60,0342_nse_dnn_0.60_car_10_n04285008_6951.png,n04285008_6951.png,0.0,-0.39297774,1.0969889,-1.0535655
alexnet_w3_mlp_simclrhn_probe3,1,343,NaN,knife,bicycle,0.35,0343_nse_dnn_0.35_bicycle_10_n03792782_12504.png,n03792782_12504.png,0.0,-0.23717561,0.9221323,-0.81975454
alexnet_w3_mlp_simclrhn_probe3,1,344,NaN,bottle,bottle,0.00,0344_nse_dnn_0.00_bottle_10_n02823428_4073.png,n02823428_4073.png,1.0,2.051033,0.3245772,1.2207886
alexnet_w3_mlp_simclrhn_probe3,1,345,NaN,knife,elephant,0.35,0345_nse_dnn_0.35_elephant_10_n02504013_945.png,n02504013_945.png,0.0,-0.39106837,1.0406194,-1.0123562
alexnet_w3_mlp_simclrhn_probe3,1,346,NaN,knife,cat,0.10,0346_nse_dnn_0.10_cat_10_n02124075_12815.png,n02124075_12815.png,0.0,-0.019550214,0.29355538,-0.22139908
alexnet_w3_mlp_simclrhn_probe3,1,347,NaN,knife,truck,0.60,0347_nse_dnn_0.60_truck_10_n03417042_4876.png,n03417042_4876.png,0.0,-0.3845708,1.1315736,-1.072076
alexnet_w3_mlp_simclrhn_probe3,1,348,NaN,chair,keyboard,0.05,0348_nse_dnn_0.05_keyboard_10_n04505470_4628.png,n04505470_4628.png,0.0,-0.56708026,1.5711504,-1.5119575
alexnet_w3_mlp_simclrhn_probe3,1,349,NaN,knife,bear,0.20,0349_nse_dnn_0.20_bear_10_n02133161_1427.png,n02133161_1427.png,0.0,0.00031121448,0.5278765,-0.373045
alexnet_w3_mlp_simclrhn_probe3,1,350,NaN,knife,boat,0.60,0350_nse_dnn_0.60_boat_10_n04273569_7296.png,n04273569_7296.png,0.0,-0.019042086,1.3230436,-0.9489979
alexnet_w3_mlp_simclrhn_probe3,1,351,NaN,knife,chair,0.90,0351_nse_dnn_0.90_chair_10_n04099969_41686.png,n04099969_41686.png,0.0,0.013611287,1.4421241,-1.0101111
alexnet_w3_mlp_simclrhn_probe3,1,352,NaN,oven,airplane,0.03,0352_nse_dnn_0.03_airplane_10_n02690373_10006.png,n02690373_10006.png,0.0,0.021057423,0.28927788,-0.1896605
alexnet_w3_mlp_simclrhn_probe3,1,353,NaN,knife,knife,0.90,0353_nse_dnn_0.90_knife_10_n03041632_20595.png,n03041632_20595.png,1.0,1.5300133,0.57130665,0.677908
alexnet_w3_mlp_simclrhn_probe3,1,354,NaN,knife,oven,0.90,0354_nse_dnn_0.90_oven_10_n04111531_2054.png,n04111531_2054.png,0.0,-2.8076932,1.3842387,-2.9641435
alexnet_w3_mlp_simclrhn_probe3,1,355,NaN,knife,truck,0.20,0355_nse_dnn_0.20_truck_10_n04467665_40307.png,n04467665_40307.png,0.0,-0.40813386,0.44443053,-0.6028541
alexnet_w3_mlp_simclrhn_probe3,1,356,NaN,bear,bear,0.00,0356_nse_dnn_0.00_bear_10_n02133161_396.png,n02133161_396.png,1.0,1.9055773,1.2717324,0.448196
alexnet_w3_mlp_simclrhn_probe3,1,357,NaN,bear,dog,0.03,0357_nse_dnn_0.03_dog_10_n02105056_5636.png,n02105056_5636.png,0.0,0.39397663,0.8657466,-0.33359176
alexnet_w3_mlp_simclrhn_probe3,1,358,NaN,knife,bicycle,0.35,0358_nse_dnn_0.35_bicycle_10_n02835271_8798.png,n02835271_8798.png,0.0,-0.24873167,0.63283646,-0.62336284
alexnet_w3_mlp_simclrhn_probe3,1,359,NaN,knife,bear,0.90,0359_nse_dnn_0.90_bear_10_n02134418_5478.png,n02134418_5478.png,0.0,-0.61669236,1.4817691,-1.4838363
alexnet_w3_mlp_simclrhn_probe3,1,360,NaN,knife,boat,0.90,0360_nse_dnn_0.90_boat_10_n04612504_4250.png,n04612504_4250.png,0.0,-0.1521942,1.3079244,-1.0324597
alexnet_w3_mlp_simclrhn_probe3,1,361,NaN,knife,knife,0.35,0361_nse_dnn_0.35_knife_10_n03041632_18959.png,n03041632_18959.png,1.0,0.85561174,0.31734663,0.3806109
alexnet_w3_mlp_simclrhn_probe3,1,362,NaN,knife,dog,0.35,0362_nse_dnn_0.35_dog_10_n02105251_6564.png,n02105251_6564.png,0.0,-0.022461895,0.8675237,-0.6293149
alexnet_w3_mlp_simclrhn_probe3,1,363,NaN,knife,boat,0.90,0363_nse_dnn_0.90_boat_10_n04612504_7148.png,n04612504_7148.png,0.0,0.06274517,1.5018235,-1.017582
alexnet_w3_mlp_simclrhn_probe3,1,364,NaN,boat,boat,0.03,0364_nse_dnn_0.03_boat_10_n04273569_4348.png,n04273569_4348.png,1.0,0.70371825,0.56780654,0.096104085
alexnet_w3_mlp_simclrhn_probe3,1,365,NaN,car,car,0.03,0365_nse_dnn_0.03_car_10_n02814533_88986.png,n02814533_88986.png,1.0,2.22778,1.0487888,0.83367276
alexnet_w3_mlp_simclrhn_probe3,1,366,NaN,bear,bear,0.03,0366_nse_dnn_0.03_bear_10_n02134418_2590.png,n02134418_2590.png,1.0,1.0161386,0.20554273,0.5731778
alexnet_w3_mlp_simclrhn_probe3,1,367,NaN,knife,bird,0.20,0367_nse_dnn_0.20_bird_10_n02007558_5877.png,n02007558_5877.png,0.0,-0.2596808,0.32779226,-0.41540617
alexnet_w3_mlp_simclrhn_probe3,1,368,NaN,clock,clock,0.05,0368_nse_dnn_0.05_clock_10_n02708093_1313.png,n02708093_1313.png,1.0,0.959503,0.39900532,0.3963317
alexnet_w3_mlp_simclrhn_probe3,1,369,NaN,knife,keyboard,0.35,0369_nse_dnn_0.35_keyboard_10_n03085013_20798.png,n03085013_20798.png,0.0,-0.23428278,0.83149356,-0.7536177
alexnet_w3_mlp_simclrhn_probe3,1,370,NaN,knife,dog,0.90,0370_nse_dnn_0.90_dog_10_n02109525_13812.png,n02109525_13812.png,0.0,0.13511765,1.348495,-0.85798734
alexnet_w3_mlp_simclrhn_probe3,1,371,NaN,bear,bear,0.20,0371_nse_dnn_0.20_bear_10_n02134418_4458.png,n02134418_4458.png,1.0,0.2960219,0.23109758,0.045908436
alexnet_w3_mlp_simclrhn_probe3,1,372,NaN,knife,bottle,0.20,0372_nse_dnn_0.20_bottle_10_n04560804_21519.png,n04560804_21519.png,0.0,-0.15056194,0.483221,-0.4481522
alexnet_w3_mlp_simclrhn_probe3,1,373,NaN,oven,elephant,0.10,0373_nse_dnn_0.10_elephant_10_n02504458_8183.png,n02504458_8183.png,0.0,0.14996994,0.25090212,-0.071369834
alexnet_w3_mlp_simclrhn_probe3,1,374,NaN,knife,keyboard,0.90,0374_nse_dnn_0.90_keyboard_10_n03085013_20330.png,n03085013_20330.png,0.0,-0.07457656,1.3831143,-1.0307431
alexnet_w3_mlp_simclrhn_probe3,1,375,NaN,elephant,elephant,0.10,0375_nse_dnn_0.10_elephant_10_n02504013_5533.png,n02504013_5533.png,1.0,0.40943646,0.19873147,0.14899093
alexnet_w3_mlp_simclrhn_probe3,1,376,NaN,knife,oven,0.90,0376_nse_dnn_0.90_oven_10_n04111531_1009.png,n04111531_1009.png,0.0,-2.8957224,1.3216821,-2.9821553
alexnet_w3_mlp_simclrhn_probe3,1,377,NaN,bicycle,bicycle,0.05,0377_nse_dnn_0.05_bicycle_10_n03792782_48457.png,n03792782_48457.png,1.0,1.463659,0.3575367,0.78214663
alexnet_w3_mlp_simclrhn_probe3,1,378,NaN,knife,cat,0.10,0378_nse_dnn_0.10_cat_10_n02124075_7240.png,n02124075_7240.png,0.0,0.00031230846,0.22796378,-0.16097389
alexnet_w3_mlp_simclrhn_probe3,1,379,NaN,knife,car,0.60,0379_nse_dnn_0.60_car_10_n02814533_39597.png,n02814533_39597.png,0.0,-0.37344608,1.247776,-1.1463772
alexnet_w3_mlp_simclrhn_probe3,1,380,NaN,knife,chair,0.03,0380_nse_dnn_0.03_chair_10_n04429376_33792.png,n04429376_33792.png,0.0,0.13960174,0.6594272,-0.3675721
alexnet_w3_mlp_simclrhn_probe3,1,381,NaN,knife,bicycle,0.60,0381_nse_dnn_0.60_bicycle_10_n03792782_15679.png,n03792782_15679.png,0.0,-0.15184146,1.1343232,-0.90945584
alexnet_w3_mlp_simclrhn_probe3,1,382,NaN,knife,bicycle,0.60,0382_nse_dnn_0.60_bicycle_10_n02835271_9237.png,n02835271_9237.png,0.0,-0.17034662,1.0191107,-0.84107333
alexnet_w3_mlp_simclrhn_probe3,1,383,NaN,elephant,bottle,0.35,0383_nse_dnn_0.35_bottle_10_n04591713_665.png,n04591713_665.png,0.0,-0.8934391,0.5018519,-0.98661983
alexnet_w3_mlp_simclrhn_probe3,1,384,NaN,oven,cat,0.03,0384_nse_dnn_0.03_cat_10_n02123159_8257.png,n02123159_8257.png,0.0,0.079098366,0.26380026,-0.13060395
alexnet_w3_mlp_simclrhn_probe3,1,385,NaN,knife,dog,0.10,0385_nse_dnn_0.10_dog_10_n02108551_26509.png,n02108551_26509.png,0.0,-0.01901032,0.37042382,-0.27537155
alexnet_w3_mlp_simclrhn_probe3,1,386,NaN,knife,clock,0.60,0386_nse_dnn_0.60_clock_10_n03196217_3697.png,n03196217_3697.png,0.0,0.5120892,1.2883856,-0.5489245
alexnet_w3_mlp_simclrhn_probe3,1,387,NaN,bicycle,bicycle,0.03,0387_nse_dnn_0.03_bicycle_10_n02835271_25268.png,n02835271_25268.png,1.0,2.0587733,0.7241075,0.9437512
alexnet_w3_mlp_simclrhn_probe3,1,388,NaN,oven,truck,0.10,0388_nse_dnn_0.10_truck_10_n03796401_407.png,n03796401_407.png,0.0,-0.31660905,0.44609672,-0.53931445
alexnet_w3_mlp_simclrhn_probe3,1,389,NaN,clock,clock,0.05,0389_nse_dnn_0.05_clock_10_n04548280_2045.png,n04548280_2045.png,1.0,0.7272043,0.5987822,0.09080817
alexnet_w3_mlp_simclrhn_probe3,1,390,NaN,oven,oven,0.05,0390_nse_dnn_0.05_oven_10_n04111531_5792.png,n04111531_5792.png,1.0,0.55985576,0.23440541,0.23012815
alexnet_w3_mlp_simclrhn_probe3,1,391,NaN,oven,elephant,0.05,0391_nse_dnn_0.05_elephant_10_n02504458_8212.png,n02504458_8212.png,0.0,0.14791277,0.61920506,-0.33325398
alexnet_w3_mlp_simclrhn_probe3,1,392,NaN,knife,bird,0.03,0392_nse_dnn_0.03_bird_10_n01843383_8624.png,n01843383_8624.png,0.0,-0.14160044,0.70052856,-0.59547514
alexnet_w3_mlp_simclrhn_probe3,1,393,NaN,knife,airplane,0.20,0393_nse_dnn_0.20_airplane_10_n02690373_4814.png,n02690373_4814.png,0.0,-0.29413527,0.87408376,-0.82605565
alexnet_w3_mlp_simclrhn_probe3,1,394,NaN,knife,truck,0.60,0394_nse_dnn_0.60_truck_10_n03796401_6184.png,n03796401_6184.png,0.0,-0.35839272,1.256197,-1.1416874
alexnet_w3_mlp_simclrhn_probe3,1,395,NaN,cat,dog,0.03,0395_nse_dnn_0.03_dog_10_n02094114_1589.png,n02094114_1589.png,0.0,0.16586025,0.2767943,-0.07844223
alexnet_w3_mlp_simclrhn_probe3,1,396,NaN,knife,clock,0.90,0396_nse_dnn_0.90_clock_10_n02708093_6572.png,n02708093_6572.png,0.0,0.45274678,1.2200409,-0.5425589
alexnet_w3_mlp_simclrhn_probe3,1,397,NaN,knife,boat,0.60,0397_nse_dnn_0.60_boat_10_n02951358_15551.png,n02951358_15551.png,0.0,-0.008274424,1.327044,-0.94421273
alexnet_w3_mlp_simclrhn_probe3,1,398,NaN,knife,boat,0.35,0398_nse_dnn_0.35_boat_10_n03662601_7352.png,n03662601_7352.png,0.0,-0.16073544,0.8500437,-0.7147288
alexnet_w3_mlp_simclrhn_probe3,1,399,NaN,knife,bicycle,0.60,0399_nse_dnn_0.60_bicycle_10_n03792782_14984.png,n03792782_14984.png,0.0,-0.18388225,1.2249177,-0.99617195
alexnet_w3_mlp_simclrhn_probe3,1,400,NaN,knife,knife,0.35,0400_nse_dnn_0.35_knife_10_n03041632_84012.png,n03041632_84012.png,1.0,0.6509793,0.14915398,0.3548441
alexnet_w3_mlp_simclrhn_probe3,1,401,NaN,knife,keyboard,0.10,0401_nse_dnn_0.10_keyboard_10_n03085013_9146.png,n03085013_9146.png,0.0,-0.25661466,0.6326388,-0.6287972
alexnet_w3_mlp_simclrhn_probe3,1,402,NaN,knife,airplane,0.03,0402_nse_dnn_0.03_airplane_10_n02690373_6755.png,n02690373_6755.png,0.0,-0.03832733,0.4233366,-0.3264457
alexnet_w3_mlp_simclrhn_probe3,1,403,NaN,knife,dog,0.20,0403_nse_dnn_0.20_dog_10_n02086079_17983.png,n02086079_17983.png,0.0,-0.09568694,0.60289264,-0.49397033
alexnet_w3_mlp_simclrhn_probe3,1,404,NaN,bear,bear,0.00,0404_nse_dnn_0.00_bear_10_n02134418_3284.png,n02134418_3284.png,1.0,1.5816329,0.3575825,0.86553425
alexnet_w3_mlp_simclrhn_probe3,1,405,NaN,knife,elephant,0.35,0405_nse_dnn_0.35_elephant_10_n02504458_8064.png,n02504458_8064.png,0.0,-0.19668429,0.74937326,-0.66896373
alexnet_w3_mlp_simclrhn_probe3,1,406,NaN,knife,cat,0.20,0406_nse_dnn_0.20_cat_10_n02123394_289.png,n02123394_289.png,0.0,-0.07573507,0.60641354,-0.48235193
alexnet_w3_mlp_simclrhn_probe3,1,407,NaN,knife,knife,0.20,0407_nse_dnn_0.20_knife_10_n03041632_18995.png,n03041632_18995.png,1.0,0.8776337,0.095839836,0.55281174
alexnet_w3_mlp_simclrhn_probe3,1,408,NaN,knife,bird,0.03,0408_nse_dnn_0.03_bird_10_n01843065_4999.png,n01843065_4999.png,0.0,-0.06325453,0.46442872,-0.3731284
alexnet_w3_mlp_simclrhn_probe3,1,409,NaN,knife,keyboard,0.60,0409_nse_dnn_0.60_keyboard_10_n03085013_22417.png,n03085013_22417.png,0.0,-0.2452212,1.0532707,-0.9181725
alexnet_w3_mlp_simclrhn_probe3,1,410,NaN,knife,bear,0.05,0410_nse_dnn_0.05_bear_10_n02132136_3224.png,n02132136_3224.png,0.0,0.10607442,0.23091684,-0.08827692
alexnet_w3_mlp_simclrhn_probe3,1,411,NaN,clock,boat,0.05,0411_nse_dnn_0.05_boat_10_n03662601_33184.png,n03662601_33184.png,0.0,0.029179389,0.29764482,-0.18983373
alexnet_w3_mlp_simclrhn_probe3,1,412,NaN,knife,bear,0.05,0412_nse_dnn_0.05_bear_10_n02133161_2396.png,n02133161_2396.png,0.0,0.33089015,0.70774627,-0.26647753
alexnet_w3_mlp_simclrhn_probe3,1,413,NaN,knife,keyboard,0.35,0413_nse_dnn_0.35_keyboard_10_n03085013_24578.png,n03085013_24578.png,0.0,-0.061953977,1.3019096,-0.9643972
alexnet_w3_mlp_simclrhn_probe3,1,414,NaN,knife,car,0.35,0414_nse_dnn_0.35_car_10_n02814533_4519.png,n02814533_4519.png,0.0,-0.3428998,0.87284374,-0.8596605
alexnet_w3_mlp_simclrhn_probe3,1,415,NaN,bottle,bottle,0.00,0415_nse_dnn_0.00_bottle_10_n03937543_2428.png,n03937543_2428.png,1.0,0.4475519,0.2609147,0.13197243
alexnet_w3_mlp_simclrhn_probe3,1,416,NaN,bear,dog,0.05,0416_nse_dnn_0.05_dog_10_n02091635_8296.png,n02091635_8296.png,0.0,0.020835252,0.351434,-0.23376861
alexnet_w3_mlp_simclrhn_probe3,1,417,NaN,knife,bottle,0.35,0417_nse_dnn_0.35_bottle_10_n03983396_11434.png,n03983396_11434.png,0.0,-0.25183517,0.97199833,-0.865381
alexnet_w3_mlp_simclrhn_probe3,1,418,NaN,airplane,boat,0.00,0418_nse_dnn_0.00_boat_10_n02951358_7315.png,n02951358_7315.png,0.0,0.36989596,0.46694615,-0.06862485
alexnet_w3_mlp_simclrhn_probe3,1,419,NaN,knife,bird,0.20,0419_nse_dnn_0.20_bird_10_n01860187_7297.png,n01860187_7297.png,0.0,-0.22273865,0.27651656,-0.35302675
alexnet_w3_mlp_simclrhn_probe3,1,420,NaN,knife,oven,0.20,0420_nse_dnn_0.20_oven_10_n04111531_4250.png,n04111531_4250.png,0.0,-0.40377605,0.5766443,-0.69326186
alexnet_w3_mlp_simclrhn_probe3,1,421,NaN,knife,bear,0.20,0421_nse_dnn_0.20_bear_10_n02133161_9463.png,n02133161_9463.png,0.0,0.053349145,0.60283536,-0.38854545
alexnet_w3_mlp_simclrhn_probe3,1,422,NaN,bird,bird,0.00,0422_nse_dnn_0.00_bird_10_n02009229_4129.png,n02009229_4129.png,1.0,1.4003183,0.046269298,0.95745724
alexnet_w3_mlp_simclrhn_probe3,1,423,NaN,knife,knife,0.10,0423_nse_dnn_0.10_knife_10_n03041632_30821.png,n03041632_30821.png,1.0,0.47615924,0.1046521,0.26269522
alexnet_w3_mlp_simclrhn_probe3,1,424,NaN,knife,cat,0.90,0424_nse_dnn_0.90_cat_10_n02123394_2490.png,n02123394_2490.png,0.0,-0.28760734,1.510311,-1.2713202
alexnet_w3_mlp_simclrhn_probe3,1,425,NaN,dog,dog,0.00,0425_nse_dnn_0.00_dog_10_n02087394_2723.png,n02087394_2723.png,1.0,0.5193708,0.3477366,0.12136371
alexnet_w3_mlp_simclrhn_probe3,1,426,NaN,knife,dog,0.90,0426_nse_dnn_0.90_dog_10_n02093754_5736.png,n02093754_5736.png,0.0,0.12426699,1.3840356,-0.89079094
alexnet_w3_mlp_simclrhn_probe3,1,427,NaN,knife,bottle,0.60,0427_nse_dnn_0.60_bottle_10_n02823428_9063.png,n02823428_9063.png,0.0,-0.4435611,1.147488,-1.1250416
alexnet_w3_mlp_simclrhn_probe3,1,428,NaN,knife,truck,0.60,0428_nse_dnn_0.60_truck_10_n04467665_20933.png,n04467665_20933.png,0.0,-0.37372112,1.1566306,-1.0821221
alexnet_w3_mlp_simclrhn_probe3,1,429,NaN,knife,car,0.10,0429_nse_dnn_0.10_car_10_n03100240_5999.png,n03100240_5999.png,0.0,-0.4739934,1.4318136,-1.347609
alexnet_w3_mlp_simclrhn_probe3,1,430,NaN,oven,oven,0.03,0430_nse_dnn_0.03_oven_10_n04111531_3671.png,n04111531_3671.png,1.0,0.76441705,0.73073184,0.023819039
alexnet_w3_mlp_simclrhn_probe3,1,431,NaN,oven,truck,0.05,0431_nse_dnn_0.05_truck_10_n03417042_7187.png,n03417042_7187.png,0.0,-0.32799387,0.3860583,-0.5049112
alexnet_w3_mlp_simclrhn_probe3,1,432,NaN,knife,bottle,0.35,0432_nse_dnn_0.35_bottle_10_n04557648_2954.png,n04557648_2954.png,0.0,-0.21158727,0.8784602,-0.77077997
alexnet_w3_mlp_simclrhn_probe3,1,433,NaN,knife,elephant,0.35,0433_nse_dnn_0.35_elephant_10_n02504013_6645.png,n02504013_6645.png,0.0,-0.59033334,1.0127661,-1.1335626
alexnet_w3_mlp_simclrhn_probe3,1,434,NaN,keyboard,keyboard,0.10,0434_nse_dnn_0.10_keyboard_10_n04505470_6876.png,n04505470_6876.png,1.0,0.43180615,0.32103026,0.07833038
alexnet_w3_mlp_simclrhn_probe3,1,435,NaN,elephant,bird,0.20,0435_nse_dnn_0.20_bird_10_n02056570_3286.png,n02056570_3286.png,0.0,-0.33996624,0.4905786,-0.5872839
alexnet_w3_mlp_simclrhn_probe3,1,436,NaN,knife,bird,0.90,0436_nse_dnn_0.90_bird_10_n02037110_8826.png,n02037110_8826.png,0.0,-0.40389952,1.3398982,-1.2330513
alexnet_w3_mlp_simclrhn_probe3,1,437,NaN,car,car,0.00,0437_nse_dnn_0.00_car_10_n03100240_11400.png,n03100240_11400.png,1.0,2.0351057,1.5893421,0.31520247
alexnet_w3_mlp_simclrhn_probe3,1,438,NaN,knife,bird,0.60,0438_nse_dnn_0.60_bird_10_n02018795_6389.png,n02018795_6389.png,0.0,-0.34651396,1.3510904,-1.2003876
alexnet_w3_mlp_simclrhn_probe3,1,439,NaN,knife,oven,0.35,0439_nse_dnn_0.35_oven_10_n04111531_2458.png,n04111531_2458.png,0.0,-1.330246,1.0001613,-1.6478467
alexnet_w3_mlp_simclrhn_probe3,1,440,NaN,knife,cat,0.60,0440_nse_dnn_0.60_cat_10_n02123159_2256.png,n02123159_2256.png,0.0,-0.34332362,1.2538718,-1.1293877
alexnet_w3_mlp_simclrhn_probe3,1,441,NaN,elephant,elephant,0.03,0441_nse_dnn_0.03_elephant_10_n02504458_611.png,n02504458_611.png,1.0,6.359495,2.4543939,2.7613237
alexnet_w3_mlp_simclrhn_probe3,1,442,NaN,elephant,knife,0.03,0442_nse_dnn_0.03_knife_10_n03041632_18141.png,n03041632_18141.png,0.0,0.4158715,0.7771709,-0.25547725
alexnet_w3_mlp_simclrhn_probe3,1,443,NaN,knife,bird,0.60,0443_nse_dnn_0.60_bird_10_n01843065_1871.png,n01843065_1871.png,0.0,-0.39638597,1.2645687,-1.1744723
alexnet_w3_mlp_simclrhn_probe3,1,444,NaN,oven,bird,0.05,0444_nse_dnn_0.05_bird_10_n01833805_7361.png,n01833805_7361.png,0.0,-0.24255002,0.61672336,-0.60759807
alexnet_w3_mlp_simclrhn_probe3,1,445,NaN,knife,elephant,0.20,0445_nse_dnn_0.20_elephant_10_n02504458_5827.png,n02504458_5827.png,0.0,-0.17679489,0.37237158,-0.3883193
alexnet_w3_mlp_simclrhn_probe3,1,446,NaN,knife,bicycle,0.35,0446_nse_dnn_0.35_bicycle_10_n02835271_5825.png,n02835271_5825.png,0.0,-0.32034636,0.5295265,-0.60095084
alexnet_w3_mlp_simclrhn_probe3,1,447,NaN,knife,bear,0.90,0447_nse_dnn_0.90_bear_10_n02134084_12801.png,n02134084_12801.png,0.0,-0.74973965,1.478092,-1.5753149
alexnet_w3_mlp_simclrhn_probe3,1,448,NaN,knife,cat,0.10,0448_nse_dnn_0.10_cat_10_n02123394_3611.png,n02123394_3611.png,0.0,0.090615205,0.47983262,-0.27521828
alexnet_w3_mlp_simclrhn_probe3,1,449,NaN,knife,chair,0.35,0449_nse_dnn_0.35_chair_10_n04429376_9589.png,n04429376_9589.png,0.0,-0.041507028,0.891457,-0.6597052
alexnet_w3_mlp_simclrhn_probe3,1,450,NaN,knife,cat,0.35,0450_nse_dnn_0.35_cat_10_n02123394_3885.png,n02123394_3885.png,0.0,-0.14407907,1.037359,-0.8354029
alexnet_w3_mlp_simclrhn_probe3,1,451,NaN,knife,elephant,0.90,0451_nse_dnn_0.90_elephant_10_n02504013_22633.png,n02504013_22633.png,0.0,-1.1123221,1.4949783,-1.8436397
alexnet_w3_mlp_simclrhn_probe3,1,452,NaN,knife,car,0.20,0452_nse_dnn_0.20_car_10_n02814533_2271.png,n02814533_2271.png,0.0,-0.38954988,0.589234,-0.6921047
alexnet_w3_mlp_simclrhn_probe3,1,453,NaN,knife,truck,0.05,0453_nse_dnn_0.05_truck_10_n03417042_10150.png,n03417042_10150.png,0.0,-0.17973801,0.39553872,-0.4067821
alexnet_w3_mlp_simclrhn_probe3,1,454,NaN,knife,oven,0.35,0454_nse_dnn_0.35_oven_10_n04111531_10583.png,n04111531_10583.png,0.0,-1.3647394,1.0556723,-1.7114894
alexnet_w3_mlp_simclrhn_probe3,1,455,NaN,bottle,bottle,0.03,0455_nse_dnn_0.03_bottle_10_n03937543_1602.png,n03937543_1602.png,1.0,1.9252058,1.0961019,0.586265
alexnet_w3_mlp_simclrhn_probe3,1,456,NaN,knife,knife,0.03,0456_nse_dnn_0.03_knife_10_n03041632_3504.png,n03041632_3504.png,1.0,0.4532134,0.20323056,0.17676456
alexnet_w3_mlp_simclrhn_probe3,1,457,NaN,bicycle,bicycle,0.03,0457_nse_dnn_0.03_bicycle_10_n03792782_1004.png,n03792782_1004.png,1.0,2.1137886,0.9314704,0.83602524
alexnet_w3_mlp_simclrhn_probe3,1,458,NaN,knife,cat,0.05,0458_nse_dnn_0.05_cat_10_n02123394_8172.png,n02123394_8172.png,0.0,0.20176637,0.28757948,-0.06067903
alexnet_w3_mlp_simclrhn_probe3,1,459,NaN,elephant,elephant,0.10,0459_nse_dnn_0.10_elephant_10_n02504013_156.png,n02504013_156.png,1.0,0.39889678,0.32825887,0.049948547
alexnet_w3_mlp_simclrhn_probe3,1,460,NaN,oven,car,0.03,0460_nse_dnn_0.03_car_10_n04285008_5559.png,n04285008_5559.png,0.0,-0.17516609,1.1757228,-0.9552228
alexnet_w3_mlp_simclrhn_probe3,1,461,NaN,knife,elephant,0.35,0461_nse_dnn_0.35_elephant_10_n02504458_6694.png,n02504458_6694.png,0.0,-0.40381444,0.8803661,-0.90805274
alexnet_w3_mlp_simclrhn_probe3,1,462,NaN,knife,car,0.90,0462_nse_dnn_0.90_car_10_n04285008_15003.png,n04285008_15003.png,0.0,-0.35794878,1.5026537,-1.3156446
alexnet_w3_mlp_simclrhn_probe3,1,463,NaN,knife,chair,0.10,0463_nse_dnn_0.10_chair_10_n03376595_15723.png,n03376595_15723.png,0.0,0.21386752,0.7293283,-0.36448577
alexnet_w3_mlp_simclrhn_probe3,1,464,NaN,knife,knife,0.60,0464_nse_dnn_0.60_knife_10_n03041632_48816.png,n03041632_48816.png,1.0,1.316613,0.36273107,0.67449635
alexnet_w3_mlp_simclrhn_probe3,1,465,NaN,knife,chair,0.90,0465_nse_dnn_0.90_chair_10_n03376595_4142.png,n03376595_4142.png,0.0,0.007156983,1.5257859,-1.0738329
alexnet_w3_mlp_simclrhn_probe3,1,466,NaN,knife,car,0.60,0466_nse_dnn_0.60_car_10_n04285008_2363.png,n04285008_2363.png,0.0,-0.38068756,1.3029811,-1.1905336
alexnet_w3_mlp_simclrhn_probe3,1,467,NaN,knife,truck,0.10,0467_nse_dnn_0.10_truck_10_n03417042_7335.png,n03417042_7335.png,0.0,-0.4174875,0.48379394,-0.6373023
alexnet_w3_mlp_simclrhn_probe3,1,468,NaN,oven,oven,0.00,0468_nse_dnn_0.00_oven_10_n04111531_6313.png,n04111531_6313.png,1.0,1.9418502,0.5757648,0.96596825
alexnet_w3_mlp_simclrhn_probe3,1,469,NaN,bird,bird,0.05,0469_nse_dnn_0.05_bird_10_n02033041_6728.png,n02033041_6728.png,1.0,0.28540546,0.13973568,0.10300408
alexnet_w3_mlp_simclrhn_probe3,1,470,NaN,oven,clock,0.00,0470_nse_dnn_0.00_clock_10_n04548280_1032.png,n04548280_1032.png,0.0,0.16970019,1.443226,-0.9005188
alexnet_w3_mlp_simclrhn_probe3,1,471,NaN,airplane,airplane,0.03,0471_nse_dnn_0.03_airplane_10_n02690373_1983.png,n02690373_1983.png,1.0,1.4653988,0.9881872,0.33743957
alexnet_w3_mlp_simclrhn_probe3,1,472,NaN,chair,keyboard,0.00,0472_nse_dnn_0.00_keyboard_10_n03085013_23369.png,n03085013_23369.png,0.0,0.13834098,1.7228104,-1.1203891
alexnet_w3_mlp_simclrhn_probe3,1,473,NaN,knife,elephant,0.90,0473_nse_dnn_0.90_elephant_10_n02504458_2419.png,n02504458_2419.png,0.0,-0.924961,1.361514,-1.616782
alexnet_w3_mlp_simclrhn_probe3,1,474,NaN,knife,truck,0.20,0474_nse_dnn_0.20_truck_10_n04467665_72022.png,n04467665_72022.png,0.0,-0.3050295,0.61557424,-0.65096515
alexnet_w3_mlp_simclrhn_probe3,1,475,NaN,knife,bottle,0.05,0475_nse_dnn_0.05_bottle_10_n04579145_5289.png,n04579145_5289.png,0.0,-0.02996249,0.56175864,-0.41841003
alexnet_w3_mlp_simclrhn_probe3,1,476,NaN,clock,clock,0.05,0476_nse_dnn_0.05_clock_10_n02708093_2898.png,n02708093_2898.png,1.0,1.7999266,0.2797253,1.0749447
alexnet_w3_mlp_simclrhn_probe3,1,477,NaN,knife,dog,0.20,0477_nse_dnn_0.20_dog_10_n02101556_4066.png,n02101556_4066.png,0.0,-0.0028863407,0.28920752,-0.20654157
alexnet_w3_mlp_simclrhn_probe3,1,478,NaN,knife,car,0.90,0478_nse_dnn_0.90_car_10_n04285008_17052.png,n04285008_17052.png,0.0,-0.36022842,1.354929,-1.2127994
alexnet_w3_mlp_simclrhn_probe3,1,479,NaN,knife,truck,0.90,0479_nse_dnn_0.90_truck_10_n04467665_37811.png,n04467665_37811.png,0.0,-0.37422466,1.5461084,-1.3578805
alexnet_w3_mlp_simclrhn_probe3,1,480,NaN,keyboard,keyboard,0.20,0480_nse_dnn_0.20_keyboard_10_n04505470_578.png,n04505470_578.png,1.0,0.6428726,0.33425632,0.21822464
alexnet_w3_mlp_simclrhn_probe3,1,481,NaN,clock,cat,0.10,0481_nse_dnn_0.10_cat_10_n02123045_2721.png,n02123045_2721.png,0.0,-0.14130503,0.25798368,-0.28233975
alexnet_w3_mlp_simclrhn_probe3,1,482,NaN,knife,car,0.10,0482_nse_dnn_0.10_car_10_n04285008_7776.png,n04285008_7776.png,0.0,-0.1782759,1.0524639,-0.8702645
alexnet_w3_mlp_simclrhn_probe3,1,483,NaN,knife,bottle,0.90,0483_nse_dnn_0.90_bottle_10_n04591713_2014.png,n04591713_2014.png,0.0,-0.5725633,1.3789337,-1.3799168
alexnet_w3_mlp_simclrhn_probe3,1,484,NaN,elephant,bottle,0.10,0484_nse_dnn_0.10_bottle_10_n03983396_9662.png,n03983396_9662.png,0.0,-0.08384638,0.41222158,-0.35077304
alexnet_w3_mlp_simclrhn_probe3,1,485,NaN,knife,bicycle,0.35,0485_nse_dnn_0.35_bicycle_10_n03792782_10367.png,n03792782_10367.png,0.0,-0.21678898,0.9239017,-0.80659014
alexnet_w3_mlp_simclrhn_probe3,1,486,NaN,knife,keyboard,0.60,0486_nse_dnn_0.60_keyboard_10_n03085013_22942.png,n03085013_22942.png,0.0,-0.26172346,1.1110766,-0.9707163
alexnet_w3_mlp_simclrhn_probe3,1,487,NaN,oven,cat,0.00,0487_nse_dnn_0.00_cat_10_n02123597_3896.png,n02123597_3896.png,0.0,0.25833508,0.28526226,-0.019040387
alexnet_w3_mlp_simclrhn_probe3,1,488,NaN,bicycle,bicycle,0.03,0488_nse_dnn_0.03_bicycle_10_n03792782_2649.png,n03792782_2649.png,1.0,2.172353,0.35024372,1.2884259
alexnet_w3_mlp_simclrhn_probe3,1,489,NaN,knife,bear,0.10,0489_nse_dnn_0.10_bear_10_n02133161_2476.png,n02133161_2476.png,0.0,0.23978953,0.26329932,-0.01662393
alexnet_w3_mlp_simclrhn_probe3,1,490,NaN,knife,car,0.10,0490_nse_dnn_0.10_car_10_n04285008_7249.png,n04285008_7249.png,0.0,-0.47557458,0.4088531,-0.6253848
alexnet_w3_mlp_simclrhn_probe3,1,491,NaN,knife,chair,0.20,0491_nse_dnn_0.20_chair_10_n04099969_8604.png,n04099969_8604.png,0.0,0.00027482212,0.5297154,-0.37437102
alexnet_w3_mlp_simclrhn_probe3,1,492,NaN,bicycle,bicycle,0.05,0492_nse_dnn_0.05_bicycle_10_n02835271_5963.png,n02835271_5963.png,1.0,0.6374573,0.37649322,0.18452948
alexnet_w3_mlp_simclrhn_probe3,1,493,NaN,knife,airplane,0.90,0493_nse_dnn_0.90_airplane_10_n02690373_17011.png,n02690373_17011.png,0.0,-0.84861946,1.4491558,-1.6247725
alexnet_w3_mlp_simclrhn_probe3,1,494,NaN,knife,bird,0.90,0494_nse_dnn_0.90_bird_10_n02028035_889.png,n02028035_889.png,0.0,-0.4008476,1.3483272,-1.2368534
alexnet_w3_mlp_simclrhn_probe3,1,495,NaN,knife,cat,0.60,0495_nse_dnn_0.60_cat_10_n02123159_7949.png,n02123159_7949.png,0.0,-0.33563867,1.2941968,-1.1524677
alexnet_w3_mlp_simclrhn_probe3,1,496,NaN,truck,car,0.03,0496_nse_dnn_0.03_car_10_n03100240_15686.png,n03100240_15686.png,0.0,1.4653107,1.6261282,-0.11371515
alexnet_w3_mlp_simclrhn_probe3,1,497,NaN,knife,cat,0.35,0497_nse_dnn_0.35_cat_10_n02123159_6106.png,n02123159_6106.png,0.0,-0.10125321,0.85528785,-0.6763767
alexnet_w3_mlp_simclrhn_probe3,1,498,NaN,cat,cat,0.00,0498_nse_dnn_0.00_cat_10_n02123394_7105.png,n02123394_7105.png,1.0,0.42594743,0.2416711,0.13030304
alexnet_w3_mlp_simclrhn_probe3,1,499,NaN,knife,clock,0.35,0499_nse_dnn_0.35_clock_10_n04548280_4747.png,n04548280_4747.png,0.0,0.1836914,0.7154553,-0.37601388
alexnet_w3_mlp_simclrhn_probe3,1,500,NaN,knife,elephant,0.20,0500_nse_dnn_0.20_elephant_10_n02504458_975.png,n02504458_975.png,0.0,0.21613827,0.29106864,-0.052983772
alexnet_w3_mlp_simclrhn_probe3,1,501,NaN,knife,boat,0.20,0501_nse_dnn_0.20_boat_10_n03344393_11590.png,n03344393_11590.png,0.0,-0.33679926,0.5387429,-0.6191018
alexnet_w3_mlp_simclrhn_probe3,1,502,NaN,knife,airplane,0.90,0502_nse_dnn_0.90_airplane_10_n02690373_2026.png,n02690373_2026.png,0.0,-0.7853401,1.4030452,-1.547422
alexnet_w3_mlp_simclrhn_probe3,1,503,NaN,knife,clock,0.60,0503_nse_dnn_0.60_clock_10_n03196217_2346.png,n03196217_2346.png,0.0,0.37380162,1.2531042,-0.62176085
alexnet_w3_mlp_simclrhn_probe3,1,504,NaN,knife,truck,0.60,0504_nse_dnn_0.60_truck_10_n04467665_34932.png,n04467665_34932.png,0.0,-0.35976636,1.3179724,-1.1863405
alexnet_w3_mlp_simclrhn_probe3,1,505,NaN,knife,oven,0.35,0505_nse_dnn_0.35_oven_10_n04111531_13625.png,n04111531_13625.png,0.0,-1.3235734,1.0030372,-1.6451621
alexnet_w3_mlp_simclrhn_probe3,1,506,NaN,airplane,airplane,0.00,0506_nse_dnn_0.00_airplane_10_n02690373_8666.png,n02690373_8666.png,1.0,2.014379,0.2786025,1.2273794
alexnet_w3_mlp_simclrhn_probe3,1,507,NaN,knife,oven,0.35,0507_nse_dnn_0.35_oven_10_n04111531_4148.png,n04111531_4148.png,0.0,-1.2546132,0.9848753,-1.5835576
alexnet_w3_mlp_simclrhn_probe3,1,508,NaN,dog,dog,0.00,0508_nse_dnn_0.00_dog_10_n02107683_7021.png,n02107683_7021.png,1.0,0.5952075,0.21311969,0.2701769
alexnet_w3_mlp_simclrhn_probe3,1,509,NaN,oven,bird,0.05,0509_nse_dnn_0.05_bird_10_n02025239_22440.png,n02025239_22440.png,0.0,-0.070209436,0.07824214,-0.10497111
alexnet_w3_mlp_simclrhn_probe3,1,510,NaN,knife,elephant,0.90,0510_nse_dnn_0.90_elephant_10_n02504013_7032.png,n02504013_7032.png,0.0,-0.9427598,1.461882,-1.7003386
alexnet_w3_mlp_simclrhn_probe3,1,511,NaN,knife,truck,0.90,0511_nse_dnn_0.90_truck_10_n03417042_10788.png,n03417042_10788.png,0.0,-0.3843766,1.3287009,-1.2113287
alexnet_w3_mlp_simclrhn_probe3,1,512,NaN,knife,knife,0.05,0512_nse_dnn_0.05_knife_10_n03041632_86118.png,n03041632_86118.png,1.0,0.49006,0.12039001,0.26139614
alexnet_w3_mlp_simclrhn_probe3,1,513,NaN,bottle,bottle,0.00,0513_nse_dnn_0.00_bottle_10_n04557648_9790.png,n04557648_9790.png,1.0,0.70634943,0.41713953,0.20450228
alexnet_w3_mlp_simclrhn_probe3,1,514,NaN,knife,chair,0.90,0514_nse_dnn_0.90_chair_10_n02791124_8788.png,n02791124_8788.png,0.0,-0.0009139776,1.2931306,-0.91502774
alexnet_w3_mlp_simclrhn_probe3,1,515,NaN,bird,dog,0.03,0515_nse_dnn_0.03_dog_10_n02095314_4996.png,n02095314_4996.png,0.0,-0.079171084,0.15582675,-0.16616857
alexnet_w3_mlp_simclrhn_probe3,1,516,NaN,knife,keyboard,0.20,0516_nse_dnn_0.20_keyboard_10_n04505470_4679.png,n04505470_4679.png,0.0,0.413913,0.74369895,-0.23319387
alexnet_w3_mlp_simclrhn_probe3,1,517,NaN,bird,bird,0.03,0517_nse_dnn_0.03_bird_10_n01860187_24935.png,n01860187_24935.png,1.0,0.23758125,0.16005923,0.05481635
alexnet_w3_mlp_simclrhn_probe3,1,518,NaN,knife,bicycle,0.60,0518_nse_dnn_0.60_bicycle_10_n02835271_14123.png,n02835271_14123.png,0.0,-0.19504195,1.2472324,-1.019842
alexnet_w3_mlp_simclrhn_probe3,1,519,NaN,knife,boat,0.10,0519_nse_dnn_0.10_boat_10_n03344393_7075.png,n03344393_7075.png,0.0,-0.027780974,0.7089117,-0.5209204
alexnet_w3_mlp_simclrhn_probe3,1,520,NaN,knife,knife,0.03,0520_nse_dnn_0.03_knife_10_n03041632_13130.png,n03041632_13130.png,1.0,1.2325369,0.13419296,0.7766465
alexnet_w3_mlp_simclrhn_probe3,1,521,NaN,knife,bottle,0.20,0521_nse_dnn_0.20_bottle_10_n04591713_5569.png,n04591713_5569.png,0.0,-0.078789644,0.8211209,-0.63633287
alexnet_w3_mlp_simclrhn_probe3,1,522,NaN,elephant,elephant,0.05,0522_nse_dnn_0.05_elephant_10_n02504013_19753.png,n02504013_19753.png,1.0,0.6765287,0.42929372,0.17482153
alexnet_w3_mlp_simclrhn_probe3,1,523,NaN,knife,dog,0.60,0523_nse_dnn_0.60_dog_10_n02099849_4819.png,n02099849_4819.png,0.0,0.08371118,1.2183896,-0.80233884
alexnet_w3_mlp_simclrhn_probe3,1,524,NaN,knife,elephant,0.90,0524_nse_dnn_0.90_elephant_10_n02504458_12938.png,n02504458_12938.png,0.0,-0.94897085,1.4035922,-1.6635134
alexnet_w3_mlp_simclrhn_probe3,1,525,NaN,bottle,bottle,0.03,0525_nse_dnn_0.03_bottle_10_n02823428_901.png,n02823428_901.png,1.0,2.5850623,0.77434707,1.280369
alexnet_w3_mlp_simclrhn_probe3,1,526,NaN,car,bicycle,0.00,0526_nse_dnn_0.00_bicycle_10_n03792782_2024.png,n03792782_2024.png,0.0,1.177841,1.3520724,-0.123200215
alexnet_w3_mlp_simclrhn_probe3,1,527,NaN,oven,truck,0.05,0527_nse_dnn_0.05_truck_10_n03417042_24856.png,n03417042_24856.png,0.0,-0.30713364,0.6434636,-0.6721738
alexnet_w3_mlp_simclrhn_probe3,1,528,NaN,elephant,elephant,0.00,0528_nse_dnn_0.00_elephant_10_n02504013_19694.png,n02504013_19694.png,1.0,4.9863696,1.8733888,2.2012098
alexnet_w3_mlp_simclrhn_probe3,1,529,NaN,knife,bird,0.20,0529_nse_dnn_0.20_bird_10_n01530575_10119.png,n01530575_10119.png,0.0,-0.20071127,0.41682607,-0.43666482
alexnet_w3_mlp_simclrhn_probe3,1,530,NaN,bear,bottle,0.20,0530_nse_dnn_0.20_bottle_10_n04557648_954.png,n04557648_954.png,0.0,-0.5063087,0.34870675,-0.6045872
alexnet_w3_mlp_simclrhn_probe3,1,531,NaN,knife,cat,0.90,0531_nse_dnn_0.90_cat_10_n02123159_277.png,n02123159_277.png,0.0,-0.3007091,1.4476938,-1.2363076
alexnet_w3_mlp_simclrhn_probe3,1,532,NaN,knife,knife,0.00,0532_nse_dnn_0.00_knife_10_n03041632_289.png,n03041632_289.png,1.0,0.8865548,0.34487894,0.38302264
alexnet_w3_mlp_simclrhn_probe3,1,533,NaN,knife,truck,0.35,0533_nse_dnn_0.35_truck_10_n04467665_450.png,n04467665_450.png,0.0,-0.3463476,0.8321092,-0.8332948
alexnet_w3_mlp_simclrhn_probe3,1,534,NaN,knife,knife,0.00,0534_nse_dnn_0.00_knife_10_n03041632_1607.png,n03041632_1607.png,1.0,1.2343435,0.31155336,0.6525112
alexnet_w3_mlp_simclrhn_probe3,1,535,NaN,knife,bird,0.20,0535_nse_dnn_0.20_bird_10_n01532829_4692.png,n01532829_4692.png,0.0,-0.24357797,0.48409313,-0.51454115
alexnet_w3_mlp_simclrhn_probe3,1,536,NaN,elephant,dog,0.10,0536_nse_dnn_0.10_dog_10_n02102177_4771.png,n02102177_4771.png,0.0,-0.035472553,0.56456053,-0.4242875
alexnet_w3_mlp_simclrhn_probe3,1,537,NaN,knife,car,0.10,0537_nse_dnn_0.10_car_10_n04285008_14554.png,n04285008_14554.png,0.0,-0.4347048,0.487766,-0.6522854
alexnet_w3_mlp_simclrhn_probe3,1,538,NaN,clock,clock,0.00,0538_nse_dnn_0.00_clock_10_n04548280_3716.png,n04548280_3716.png,1.0,0.90684795,0.8645343,0.02992026
alexnet_w3_mlp_simclrhn_probe3,1,539,NaN,knife,car,0.03,0539_nse_dnn_0.03_car_10_n04285008_6849.png,n04285008_6849.png,0.0,0.23319502,0.43878347,-0.14537299
alexnet_w3_mlp_simclrhn_probe3,1,540,NaN,knife,keyboard,0.35,0540_nse_dnn_0.35_keyboard_10_n03085013_24467.png,n03085013_24467.png,0.0,-0.23238012,0.7087399,-0.6654724
alexnet_w3_mlp_simclrhn_probe3,1,541,NaN,knife,clock,0.35,0541_nse_dnn_0.35_clock_10_n03196217_6672.png,n03196217_6672.png,0.0,0.2529361,1.1253518,-0.616891
alexnet_w3_mlp_simclrhn_probe3,1,542,NaN,bear,dog,0.10,0542_nse_dnn_0.10_dog_10_n02105251_5570.png,n02105251_5570.png,0.0,-0.0534235,0.26422074,-0.22460839
alexnet_w3_mlp_simclrhn_probe3,1,543,NaN,knife,dog,0.35,0543_nse_dnn_0.35_dog_10_n02107574_3352.png,n02107574_3352.png,0.0,0.017276485,0.6968646,-0.48054138
alexnet_w3_mlp_simclrhn_probe3,1,544,NaN,knife,boat,0.60,0544_nse_dnn_0.60_boat_10_n03662601_8191.png,n03662601_8191.png,0.0,-0.046140455,1.2429302,-0.9115106
alexnet_w3_mlp_simclrhn_probe3,1,545,NaN,boat,boat,0.00,0545_nse_dnn_0.00_boat_10_n04612504_30617.png,n04612504_30617.png,1.0,2.057641,1.379081,0.4798144
alexnet_w3_mlp_simclrhn_probe3,1,546,NaN,knife,bear,0.60,0546_nse_dnn_0.60_bear_10_n02132136_2900.png,n02132136_2900.png,0.0,-0.47234172,1.3086251,-1.2593337
alexnet_w3_mlp_simclrhn_probe3,1,547,NaN,knife,truck,0.10,0547_nse_dnn_0.10_truck_10_n03417042_8139.png,n03417042_8139.png,0.0,-0.3636735,0.45877925,-0.5815619
alexnet_w3_mlp_simclrhn_probe3,1,548,NaN,chair,chair,0.03,0548_nse_dnn_0.03_chair_10_n03376595_5112.png,n03376595_5112.png,1.0,0.7477938,0.49182,0.1810008
alexnet_w3_mlp_simclrhn_probe3,1,549,NaN,knife,bird,0.05,0549_nse_dnn_0.05_bird_10_n02006656_10360.png,n02006656_10360.png,0.0,0.14432906,0.17520219,-0.021830603
alexnet_w3_mlp_simclrhn_probe3,1,550,NaN,knife,elephant,0.20,0550_nse_dnn_0.20_elephant_10_n02504458_2799.png,n02504458_2799.png,0.0,-0.34327227,0.6444218,-0.6984052
alexnet_w3_mlp_simclrhn_probe3,1,551,NaN,knife,airplane,0.10,0551_nse_dnn_0.10_airplane_10_n02690373_6096.png,n02690373_6096.png,0.0,-0.06157371,0.55992013,-0.4394625
alexnet_w3_mlp_simclrhn_probe3,1,552,NaN,knife,bird,0.20,0552_nse_dnn_0.20_bird_10_n02002556_139.png,n02002556_139.png,0.0,-0.20304796,0.3848028,-0.41567326
alexnet_w3_mlp_simclrhn_probe3,1,553,NaN,car,car,0.00,0553_nse_dnn_0.00_car_10_n04285008_3056.png,n04285008_3056.png,1.0,0.8798585,0.50375915,0.2659424
alexnet_w3_mlp_simclrhn_probe3,1,554,NaN,knife,knife,0.10,0554_nse_dnn_0.10_knife_10_n03041632_14774.png,n03041632_14774.png,1.0,0.86184263,0.13022476,0.51733196
alexnet_w3_mlp_simclrhn_probe3,1,555,NaN,knife,oven,0.20,0555_nse_dnn_0.20_oven_10_n04111531_2163.png,n04111531_2163.png,0.0,-0.22570665,0.6374122,-0.6103172
alexnet_w3_mlp_simclrhn_probe3,1,556,NaN,knife,cat,0.20,0556_nse_dnn_0.20_cat_10_n02123597_30864.png,n02123597_30864.png,0.0,-0.07993061,0.7530914,-0.5890355
alexnet_w3_mlp_simclrhn_probe3,1,557,NaN,knife,boat,0.35,0557_nse_dnn_0.35_boat_10_n02951358_33559.png,n02951358_33559.png,0.0,-0.051437967,0.8198299,-0.6160794
alexnet_w3_mlp_simclrhn_probe3,1,558,NaN,knife,bicycle,0.60,0558_nse_dnn_0.60_bicycle_10_n02835271_4619.png,n02835271_4619.png,0.0,-0.11878139,1.2083162,-0.9383998
alexnet_w3_mlp_simclrhn_probe3,1,559,NaN,knife,truck,0.03,0559_nse_dnn_0.03_truck_10_n03796401_21261.png,n03796401_21261.png,0.0,0.11516729,0.7521298,-0.45040053
alexnet_w3_mlp_simclrhn_probe3,1,560,NaN,knife,airplane,0.10,0560_nse_dnn_0.10_airplane_10_n02690373_2496.png,n02690373_2496.png,0.0,-0.42477238,0.7867906,-0.8567044
alexnet_w3_mlp_simclrhn_probe3,1,561,NaN,knife,boat,0.35,0561_nse_dnn_0.35_boat_10_n03662601_5419.png,n03662601_5419.png,0.0,-0.07607859,0.91292363,-0.6993302
alexnet_w3_mlp_simclrhn_probe3,1,562,NaN,airplane,airplane,0.03,0562_nse_dnn_0.03_airplane_10_n02690373_7686.png,n02690373_7686.png,1.0,1.6486065,1.0662836,0.41176453
alexnet_w3_mlp_simclrhn_probe3,1,563,NaN,knife,oven,0.90,0563_nse_dnn_0.90_oven_10_n04111531_5246.png,n04111531_5246.png,0.0,-3.0420206,1.5826129,-3.2701097
alexnet_w3_mlp_simclrhn_probe3,1,564,NaN,knife,bicycle,0.60,0564_nse_dnn_0.60_bicycle_10_n03792782_1099.png,n03792782_1099.png,0.0,-0.18517236,1.1941447,-0.97532445
alexnet_w3_mlp_simclrhn_probe3,1,565,NaN,knife,chair,0.35,0565_nse_dnn_0.35_chair_10_n04099969_12909.png,n04099969_12909.png,0.0,0.100312956,0.9014436,-0.5664849
alexnet_w3_mlp_simclrhn_probe3,1,566,NaN,bear,elephant,0.03,0566_nse_dnn_0.03_elephant_10_n02504013_7147.png,n02504013_7147.png,0.0,0.059318606,0.16481702,-0.07459865
alexnet_w3_mlp_simclrhn_probe3,1,567,NaN,knife,truck,0.35,0567_nse_dnn_0.35_truck_10_n04467665_44715.png,n04467665_44715.png,0.0,-0.43259645,0.7480361,-0.8348333
alexnet_w3_mlp_simclrhn_probe3,1,568,NaN,keyboard,keyboard,0.00,0568_nse_dnn_0.00_keyboard_10_n04505470_1338.png,n04505470_1338.png,1.0,3.7337902,1.1754414,1.8090258
alexnet_w3_mlp_simclrhn_probe3,1,569,NaN,knife,airplane,0.90,0569_nse_dnn_0.90_airplane_10_n02690373_4982.png,n02690373_4982.png,0.0,-0.8049431,1.4351914,-1.5840143
alexnet_w3_mlp_simclrhn_probe3,1,570,NaN,knife,bicycle,0.90,0570_nse_dnn_0.90_bicycle_10_n03792782_3754.png,n03792782_3754.png,0.0,-0.17680456,1.515362,-1.1965425
alexnet_w3_mlp_simclrhn_probe3,1,571,NaN,bicycle,bicycle,0.00,0571_nse_dnn_0.00_bicycle_10_n03792782_1418.png,n03792782_1418.png,1.0,0.54820323,0.48855022,0.042181052
alexnet_w3_mlp_simclrhn_probe3,1,572,NaN,oven,truck,0.03,0572_nse_dnn_0.03_truck_10_n03796401_26359.png,n03796401_26359.png,0.0,-0.07100213,0.6227503,-0.49055704
alexnet_w3_mlp_simclrhn_probe3,1,573,NaN,oven,car,0.05,0573_nse_dnn_0.05_car_10_n03100240_9149.png,n03100240_9149.png,0.0,-0.60868895,0.7528708,-0.96276814
alexnet_w3_mlp_simclrhn_probe3,1,574,NaN,knife,bird,0.90,0574_nse_dnn_0.90_bird_10_n01534433_14677.png,n01534433_14677.png,0.0,-0.4111286,1.3678578,-1.2579334
alexnet_w3_mlp_simclrhn_probe3,1,575,NaN,car,car,0.03,0575_nse_dnn_0.03_car_10_n03100240_8683.png,n03100240_8683.png,1.0,0.9915673,0.6291892,0.25624004
alexnet_w3_mlp_simclrhn_probe3,1,576,NaN,bicycle,chair,0.03,0576_nse_dnn_0.03_chair_10_n03376595_524.png,n03376595_524.png,0.0,1.0594337,1.6507362,-0.41811404
alexnet_w3_mlp_simclrhn_probe3,1,577,NaN,knife,dog,0.20,0577_nse_dnn_0.20_dog_10_n02094433_6402.png,n02094433_6402.png,0.0,-0.05945363,0.6048111,-0.46970606
alexnet_w3_mlp_simclrhn_probe3,1,578,NaN,knife,car,0.20,0578_nse_dnn_0.20_car_10_n03100240_16803.png,n03100240_16803.png,0.0,-0.3788292,0.4785211,-0.60623825
alexnet_w3_mlp_simclrhn_probe3,1,579,NaN,knife,bicycle,0.20,0579_nse_dnn_0.20_bicycle_10_n03792782_15114.png,n03792782_15114.png,0.0,-0.10938155,0.45799753,-0.40119758
alexnet_w3_mlp_simclrhn_probe3,1,580,NaN,knife,chair,0.60,0580_nse_dnn_0.60_chair_10_n04429376_21362.png,n04429376_21362.png,0.0,-0.027948096,1.2668581,-0.91556627
alexnet_w3_mlp_simclrhn_probe3,1,581,NaN,knife,keyboard,0.90,0581_nse_dnn_0.90_keyboard_10_n04505470_3499.png,n04505470_3499.png,0.0,-0.14470948,1.432536,-1.115281
alexnet_w3_mlp_simclrhn_probe3,1,582,NaN,knife,boat,0.90,0582_nse_dnn_0.90_boat_10_n04273569_26577.png,n04273569_26577.png,0.0,-0.053601682,1.3774387,-1.0118983
alexnet_w3_mlp_simclrhn_probe3,1,583,NaN,knife,boat,0.10,0583_nse_dnn_0.10_boat_10_n04273569_27325.png,n04273569_27325.png,0.0,0.12778588,0.39999464,-0.19248065
alexnet_w3_mlp_simclrhn_probe3,1,584,NaN,keyboard,keyboard,0.20,0584_nse_dnn_0.20_keyboard_10_n04505470_9570.png,n04505470_9570.png,1.0,0.756262,0.12319675,0.4476447
alexnet_w3_mlp_simclrhn_probe3,1,585,NaN,knife,bicycle,0.90,0585_nse_dnn_0.90_bicycle_10_n03792782_4067.png,n03792782_4067.png,0.0,-0.19188039,1.3589485,-1.0966016
alexnet_w3_mlp_simclrhn_probe3,1,586,NaN,knife,bear,0.10,0586_nse_dnn_0.10_bear_10_n02132136_282.png,n02132136_282.png,0.0,0.16530347,0.18493775,-0.01388353
alexnet_w3_mlp_simclrhn_probe3,1,587,NaN,knife,boat,0.03,0587_nse_dnn_0.03_boat_10_n04612504_30424.png,n04612504_30424.png,0.0,0.23385842,0.5990623,-0.25823817
alexnet_w3_mlp_simclrhn_probe3,1,588,NaN,knife,knife,0.90,0588_nse_dnn_0.90_knife_10_n03041632_4879.png,n03041632_4879.png,1.0,1.488726,0.63689137,0.6023381
alexnet_w3_mlp_simclrhn_probe3,1,589,NaN,clock,elephant,0.05,0589_nse_dnn_0.05_elephant_10_n02504458_7634.png,n02504458_7634.png,0.0,0.083146796,0.21949418,-0.09641216
alexnet_w3_mlp_simclrhn_probe3,1,590,NaN,knife,cat,0.35,0590_nse_dnn_0.35_cat_10_n02123597_7615.png,n02123597_7615.png,0.0,-0.24562843,0.821298,-0.75443095
alexnet_w3_mlp_simclrhn_probe3,1,591,NaN,knife,bicycle,0.35,0591_nse_dnn_0.35_bicycle_10_n03792782_20387.png,n03792782_20387.png,0.0,-0.26045504,0.6100976,-0.6155737
alexnet_w3_mlp_simclrhn_probe3,1,592,NaN,clock,clock,0.10,0592_nse_dnn_0.10_clock_10_n02708093_527.png,n02708093_527.png,1.0,1.6543611,0.7047057,0.6715078
alexnet_w3_mlp_simclrhn_probe3,1,593,NaN,elephant,elephant,0.05,0593_nse_dnn_0.05_elephant_10_n02504013_5501.png,n02504013_5501.png,1.0,0.3802906,0.2531339,0.08991337
alexnet_w3_mlp_simclrhn_probe3,1,594,NaN,knife,dog,0.35,0594_nse_dnn_0.35_dog_10_n02106166_2273.png,n02106166_2273.png,0.0,-0.005592565,0.90715283,-0.6454085
alexnet_w3_mlp_simclrhn_probe3,1,595,NaN,boat,boat,0.03,0595_nse_dnn_0.03_boat_10_n03662601_34009.png,n03662601_34009.png,1.0,1.1289456,0.5058954,0.44056305
alexnet_w3_mlp_simclrhn_probe3,1,596,NaN,knife,boat,0.35,0596_nse_dnn_0.35_boat_10_n04273569_12536.png,n04273569_12536.png,0.0,-0.009412753,0.9765913,-0.6972102
alexnet_w3_mlp_simclrhn_probe3,1,597,NaN,elephant,elephant,0.00,0597_nse_dnn_0.00_elephant_10_n02504013_8534.png,n02504013_8534.png,1.0,1.059523,0.19867562,0.608711
alexnet_w3_mlp_simclrhn_probe3,1,598,NaN,knife,clock,0.35,0598_nse_dnn_0.35_clock_10_n04548280_156.png,n04548280_156.png,0.0,-0.09738887,0.7510954,-0.59996897
alexnet_w3_mlp_simclrhn_probe3,1,599,NaN,knife,bicycle,0.90,0599_nse_dnn_0.90_bicycle_10_n02835271_542.png,n02835271_542.png,0.0,-0.1625349,1.3701448,-1.0837682
alexnet_w3_mlp_simclrhn_probe3,1,600,NaN,oven,bear,0.00,0600_nse_dnn_0.00_bear_10_n02133161_5434.png,n02133161_5434.png,0.0,-0.10003352,0.5788079,-0.48001337
alexnet_w3_mlp_simclrhn_probe3,1,601,NaN,knife,truck,0.60,0601_nse_dnn_0.60_truck_10_n04467665_63829.png,n04467665_63829.png,0.0,-0.38613552,1.2474965,-1.1551522
alexnet_w3_mlp_simclrhn_probe3,1,602,NaN,knife,oven,0.90,0602_nse_dnn_0.90_oven_10_n04111531_10220.png,n04111531_10220.png,0.0,-2.8721862,1.5651739,-3.1376872
alexnet_w3_mlp_simclrhn_probe3,1,603,NaN,knife,boat,0.60,0603_nse_dnn_0.60_boat_10_n04273569_28074.png,n04273569_28074.png,0.0,0.05690422,1.227871,-0.8279985
alexnet_w3_mlp_simclrhn_probe3,1,604,NaN,cat,cat,0.00,0604_nse_dnn_0.00_cat_10_n02123394_2482.png,n02123394_2482.png,1.0,1.4677514,1.110488,0.25262332
alexnet_w3_mlp_simclrhn_probe3,1,605,NaN,knife,boat,0.90,0605_nse_dnn_0.90_boat_10_n03662601_20381.png,n03662601_20381.png,0.0,0.088504694,1.5365009,-1.023888
alexnet_w3_mlp_simclrhn_probe3,1,606,NaN,knife,bird,0.35,0606_nse_dnn_0.35_bird_10_n01817953_12511.png,n01817953_12511.png,0.0,-0.33821908,0.7119966,-0.7426147
alexnet_w3_mlp_simclrhn_probe3,1,607,NaN,cat,cat,0.05,0607_nse_dnn_0.05_cat_10_n02125311_5346.png,n02125311_5346.png,1.0,0.53313667,0.30140507,0.16385898
alexnet_w3_mlp_simclrhn_probe3,1,608,NaN,bicycle,oven,0.00,0608_nse_dnn_0.00_oven_10_n04111531_14758.png,n04111531_14758.png,0.0,-0.18519896,0.7378557,-0.6526982
alexnet_w3_mlp_simclrhn_probe3,1,609,NaN,elephant,bird,0.10,0609_nse_dnn_0.10_bird_10_n02002556_1398.png,n02002556_1398.png,0.0,-0.0019920273,0.26114285,-0.18606445
alexnet_w3_mlp_simclrhn_probe3,1,610,NaN,knife,knife,0.05,0610_nse_dnn_0.05_knife_10_n03041632_99912.png,n03041632_99912.png,1.0,0.5356427,0.19245458,0.24267064
alexnet_w3_mlp_simclrhn_probe3,1,611,NaN,knife,airplane,0.05,0611_nse_dnn_0.05_airplane_10_n02690373_1075.png,n02690373_1075.png,0.0,0.27307427,0.72293925,-0.3181026
alexnet_w3_mlp_simclrhn_probe3,1,612,NaN,knife,cat,0.35,0612_nse_dnn_0.35_cat_10_n02123045_10834.png,n02123045_10834.png,0.0,-0.11694435,0.7100997,-0.58480847
alexnet_w3_mlp_simclrhn_probe3,1,613,NaN,knife,car,0.60,0613_nse_dnn_0.60_car_10_n02814533_41478.png,n02814533_41478.png,0.0,-0.2873969,1.3632176,-1.1671607
alexnet_w3_mlp_simclrhn_probe3,1,614,NaN,cat,cat,0.00,0614_nse_dnn_0.00_cat_10_n02123394_1602.png,n02123394_1602.png,1.0,0.95938134,0.30172122,0.46503595
alexnet_w3_mlp_simclrhn_probe3,1,615,NaN,knife,knife,0.03,0615_nse_dnn_0.03_knife_10_n03041632_21017.png,n03041632_21017.png,1.0,0.5928491,0.12599504,0.33011565
alexnet_w3_mlp_simclrhn_probe3,1,616,NaN,bear,bear,0.03,0616_nse_dnn_0.03_bear_10_n02134084_572.png,n02134084_572.png,1.0,1.1161008,0.93422514,0.1286055
alexnet_w3_mlp_simclrhn_probe3,1,617,NaN,keyboard,clock,0.05,0617_nse_dnn_0.05_clock_10_n03196217_3987.png,n03196217_3987.png,0.0,0.2949098,2.1429892,-1.3067894
alexnet_w3_mlp_simclrhn_probe3,1,618,NaN,oven,dog,0.03,0618_nse_dnn_0.03_dog_10_n02098286_6303.png,n02098286_6303.png,0.0,0.2135861,0.36210114,-0.105015986
alexnet_w3_mlp_simclrhn_probe3,1,619,NaN,keyboard,keyboard,0.00,0619_nse_dnn_0.00_keyboard_10_n04505470_4379.png,n04505470_4379.png,1.0,2.0413504,0.6150813,1.0085245
