subj,session,trial,rt,object_response,category,condition,imagename,filename,is_correct,targ_act,max_nontarg_act,decision_margin
alexnet_w1_mlp_simclrhn_probe2,1,1,NaN,elephant,elephant,0.03,0001_nse_dnn_0.03_elephant_10_n02504458_7209.png,n02504458_7209.png,1.0,-0.05137846,-0.10132609,0.03531831
alexnet_w1_mlp_simclrhn_probe2,1,2,NaN,knife,knife,0.90,0002_nse_dnn_0.90_knife_10_n03041632_82878.png,n03041632_82878.png,1.0,-0.81567395,-3.658015,2.0098386
alexnet_w1_mlp_simclrhn_probe2,1,3,NaN,oven,clock,0.00,0003_nse_dnn_0.00_clock_10_n03196217_9231.png,n03196217_9231.png,0.0,0.9424313,1.3954872,-0.32035893
alexnet_w1_mlp_simclrhn_probe2,1,4,NaN,oven,oven,0.00,0004_nse_dnn_0.00_oven_10_n04111531_11026.png,n04111531_11026.png,1.0,0.4628803,-0.2507205,0.504592
alexnet_w1_mlp_simclrhn_probe2,1,5,NaN,elephant,clock,0.10,0005_nse_dnn_0.10_clock_10_n04548280_1114.png,n04548280_1114.png,0.0,-1.1776357,-0.5700362,-0.42963773
alexnet_w1_mlp_simclrhn_probe2,1,6,NaN,oven,clock,0.03,0006_nse_dnn_0.03_clock_10_n02708093_8100.png,n02708093_8100.png,0.0,0.3253313,0.5222421,-0.13923699
alexnet_w1_mlp_simclrhn_probe2,1,7,NaN,clock,clock,0.00,0007_nse_dnn_0.00_clock_10_n02708093_3591.png,n02708093_3591.png,1.0,3.3292034,0.07011177,2.3045259
alexnet_w1_mlp_simclrhn_probe2,1,8,NaN,clock,chair,0.00,0008_nse_dnn_0.00_chair_10_n03376595_16202.png,n03376595_16202.png,0.0,0.35346723,0.42651895,-0.051655367
alexnet_w1_mlp_simclrhn_probe2,1,9,NaN,knife,bottle,0.60,0009_nse_dnn_0.60_bottle_10_n02823428_3478.png,n02823428_3478.png,0.0,-3.3875158,-1.0032704,-1.6859161
alexnet_w1_mlp_simclrhn_probe2,1,10,NaN,oven,dog,0.10,0010_nse_dnn_0.10_dog_10_n02087394_28673.png,n02087394_28673.png,0.0,-1.4980291,-0.60865027,-0.6288858
alexnet_w1_mlp_simclrhn_probe2,1,11,NaN,oven,chair,0.10,0011_nse_dnn_0.10_chair_10_n04099969_1690.png,n04099969_1690.png,0.0,-1.7981536,-0.8613477,-0.6624219
alexnet_w1_mlp_simclrhn_probe2,1,12,NaN,elephant,cat,0.03,0012_nse_dnn_0.03_cat_10_n02125311_1736.png,n02125311_1736.png,0.0,-0.008973122,0.7606484,-0.54420465
alexnet_w1_mlp_simclrhn_probe2,1,13,NaN,knife,bear,0.90,0013_nse_dnn_0.90_bear_10_n02133161_1169.png,n02133161_1169.png,0.0,-6.840665,-1.2330862,-3.965157
alexnet_w1_mlp_simclrhn_probe2,1,14,NaN,knife,bear,0.90,0014_nse_dnn_0.90_bear_10_n02133161_8835.png,n02133161_8835.png,0.0,-7.328606,-1.0700371,-4.4254766
alexnet_w1_mlp_simclrhn_probe2,1,15,NaN,knife,car,0.20,0015_nse_dnn_0.20_car_10_n02814533_5430.png,n02814533_5430.png,0.0,-4.2911024,-1.0671265,-2.2796953
alexnet_w1_mlp_simclrhn_probe2,1,16,NaN,knife,bear,0.60,0016_nse_dnn_0.60_bear_10_n02134418_3767.png,n02134418_3767.png,0.0,-5.697517,-0.596223,-3.6071596
alexnet_w1_mlp_simclrhn_probe2,1,17,NaN,knife,knife,0.20,0017_nse_dnn_0.20_knife_10_n03041632_10540.png,n03041632_10540.png,1.0,-0.6980371,-1.8607858,0.8221876
alexnet_w1_mlp_simclrhn_probe2,1,18,NaN,knife,bicycle,0.20,0018_nse_dnn_0.20_bicycle_10_n02835271_1075.png,n02835271_1075.png,0.0,-2.0760298,-0.98911536,-0.7685646
alexnet_w1_mlp_simclrhn_probe2,1,19,NaN,elephant,bear,0.00,0019_nse_dnn_0.00_bear_10_n02134084_3888.png,n02134084_3888.png,0.0,0.793798,0.96678436,-0.12231981
alexnet_w1_mlp_simclrhn_probe2,1,20,NaN,dog,dog,0.00,0020_nse_dnn_0.00_dog_10_n02085936_9009.png,n02085936_9009.png,1.0,0.1830664,-0.15528663,0.23925173
alexnet_w1_mlp_simclrhn_probe2,1,21,NaN,knife,knife,0.03,0021_nse_dnn_0.03_knife_10_n03041632_12651.png,n03041632_12651.png,1.0,0.7046562,-0.52717227,0.87103426
alexnet_w1_mlp_simclrhn_probe2,1,22,NaN,knife,bicycle,0.35,0022_nse_dnn_0.35_bicycle_10_n03792782_565.png,n03792782_565.png,0.0,-3.7591314,-0.6268091,-2.2148864
alexnet_w1_mlp_simclrhn_probe2,1,23,NaN,knife,boat,0.20,0023_nse_dnn_0.20_boat_10_n04612504_40672.png,n04612504_40672.png,0.0,-2.8088024,-0.24300534,-1.8142926
alexnet_w1_mlp_simclrhn_probe2,1,24,NaN,elephant,dog,0.05,0024_nse_dnn_0.05_dog_10_n02098105_146.png,n02098105_146.png,0.0,-1.1066091,-0.13796696,-0.6849334
alexnet_w1_mlp_simclrhn_probe2,1,25,NaN,clock,clock,0.03,0025_nse_dnn_0.03_clock_10_n02708093_5944.png,n02708093_5944.png,1.0,0.2920241,-0.018630343,0.21966588
alexnet_w1_mlp_simclrhn_probe2,1,26,NaN,knife,cat,0.03,0026_nse_dnn_0.03_cat_10_n02124075_14021.png,n02124075_14021.png,0.0,-0.6999595,0.029753594,-0.5159851
alexnet_w1_mlp_simclrhn_probe2,1,27,NaN,bear,bear,0.20,0027_nse_dnn_0.20_bear_10_n02133161_7184.png,n02133161_7184.png,1.0,-0.6962007,-0.84798515,0.1073278
alexnet_w1_mlp_simclrhn_probe2,1,28,NaN,airplane,bottle,0.00,0028_nse_dnn_0.00_bottle_10_n03937543_9745.png,n03937543_9745.png,0.0,-0.080683246,0.09055711,-0.12108522
alexnet_w1_mlp_simclrhn_probe2,1,29,NaN,knife,airplane,0.60,0029_nse_dnn_0.60_airplane_10_n02690373_9605.png,n02690373_9605.png,0.0,-9.565327,-0.98595965,-6.0665283
alexnet_w1_mlp_simclrhn_probe2,1,30,NaN,knife,cat,0.20,0030_nse_dnn_0.20_cat_10_n02123045_7167.png,n02123045_7167.png,0.0,-1.5664808,-0.90199995,-0.46985888
alexnet_w1_mlp_simclrhn_probe2,1,31,NaN,knife,airplane,0.05,0031_nse_dnn_0.05_airplane_10_n02690373_4706.png,n02690373_4706.png,0.0,-0.84287214,0.0051261783,-0.59962535
alexnet_w1_mlp_simclrhn_probe2,1,32,NaN,knife,knife,0.35,0032_nse_dnn_0.35_knife_10_n03041632_45270.png,n03041632_45270.png,1.0,-1.3828512,-2.3056948,0.65254897
alexnet_w1_mlp_simclrhn_probe2,1,33,NaN,knife,dog,0.35,0033_nse_dnn_0.35_dog_10_n02105855_9326.png,n02105855_9326.png,0.0,-2.9820197,-1.1154695,-1.3198503
alexnet_w1_mlp_simclrhn_probe2,1,34,NaN,knife,bear,0.10,0034_nse_dnn_0.10_bear_10_n02134418_4349.png,n02134418_4349.png,0.0,-0.63485855,-0.41301376,-0.15686797
alexnet_w1_mlp_simclrhn_probe2,1,35,NaN,dog,cat,0.00,0035_nse_dnn_0.00_cat_10_n02123159_469.png,n02123159_469.png,0.0,-0.20794398,-0.13230841,-0.053482424
alexnet_w1_mlp_simclrhn_probe2,1,36,NaN,knife,truck,0.90,0036_nse_dnn_0.90_truck_10_n03417042_5004.png,n03417042_5004.png,0.0,-10.655186,-1.0119863,-6.8187723
alexnet_w1_mlp_simclrhn_probe2,1,37,NaN,knife,bird,0.10,0037_nse_dnn_0.10_bird_10_n02051845_6333.png,n02051845_6333.png,0.0,-3.816666,-0.09620222,-2.6307652
alexnet_w1_mlp_simclrhn_probe2,1,38,NaN,knife,clock,0.90,0038_nse_dnn_0.90_clock_10_n03196217_12701.png,n03196217_12701.png,0.0,-3.9516268,-1.2139499,-1.9358299
alexnet_w1_mlp_simclrhn_probe2,1,39,NaN,knife,chair,0.60,0039_nse_dnn_0.60_chair_10_n03376595_12341.png,n03376595_12341.png,0.0,-4.1924186,-0.8348445,-2.3741634
alexnet_w1_mlp_simclrhn_probe2,1,40,NaN,oven,bicycle,0.10,0040_nse_dnn_0.10_bicycle_10_n03792782_66837.png,n03792782_66837.png,0.0,-1.004126,-0.81309867,-0.13507669
alexnet_w1_mlp_simclrhn_probe2,1,41,NaN,bicycle,bicycle,0.05,0041_nse_dnn_0.05_bicycle_10_n02835271_20177.png,n02835271_20177.png,1.0,1.4648759,-0.71182567,1.5391605
alexnet_w1_mlp_simclrhn_probe2,1,42,NaN,knife,knife,0.00,0042_nse_dnn_0.00_knife_10_n03041632_22330.png,n03041632_22330.png,1.0,0.1279418,-0.9807998,0.7839987
alexnet_w1_mlp_simclrhn_probe2,1,43,NaN,knife,cat,0.60,0043_nse_dnn_0.60_cat_10_n02123045_5913.png,n02123045_5913.png,0.0,-5.2172146,-0.8831768,-3.0646276
alexnet_w1_mlp_simclrhn_probe2,1,44,NaN,elephant,elephant,0.20,0044_nse_dnn_0.20_elephant_10_n02504013_2464.png,n02504013_2464.png,1.0,-0.84925616,-1.0008142,0.10716772
alexnet_w1_mlp_simclrhn_probe2,1,45,NaN,knife,knife,0.90,0045_nse_dnn_0.90_knife_10_n03041632_99460.png,n03041632_99460.png,1.0,-1.019864,-3.8284497,1.98597
alexnet_w1_mlp_simclrhn_probe2,1,46,NaN,elephant,dog,0.00,0046_nse_dnn_0.00_dog_10_n02099601_8686.png,n02099601_8686.png,0.0,-0.9745261,-0.085464045,-0.6286618
alexnet_w1_mlp_simclrhn_probe2,1,47,NaN,knife,chair,0.90,0047_nse_dnn_0.90_chair_10_n02791124_5400.png,n02791124_5400.png,0.0,-4.8931785,-1.034984,-2.7281554
alexnet_w1_mlp_simclrhn_probe2,1,48,NaN,knife,chair,0.05,0048_nse_dnn_0.05_chair_10_n03376595_830.png,n03376595_830.png,0.0,-1.4220324,-0.79641116,-0.442381
alexnet_w1_mlp_simclrhn_probe2,1,49,NaN,knife,cat,0.90,0049_nse_dnn_0.90_cat_10_n02124075_6024.png,n02124075_6024.png,0.0,-6.662436,-1.0140365,-3.9940217
alexnet_w1_mlp_simclrhn_probe2,1,50,NaN,bicycle,bicycle,0.10,0050_nse_dnn_0.10_bicycle_10_n03792782_9004.png,n03792782_9004.png,1.0,-0.35582083,-1.1679416,0.57425606
alexnet_w1_mlp_simclrhn_probe2,1,51,NaN,knife,keyboard,0.60,0051_nse_dnn_0.60_keyboard_10_n03085013_24088.png,n03085013_24088.png,0.0,-4.698162,-1.1628568,-2.4998384
alexnet_w1_mlp_simclrhn_probe2,1,52,NaN,elephant,cat,0.10,0052_nse_dnn_0.10_cat_10_n02125311_33778.png,n02125311_33778.png,0.0,-1.1249573,-0.70514137,-0.2968547
alexnet_w1_mlp_simclrhn_probe2,1,53,NaN,bicycle,bicycle,0.00,0053_nse_dnn_0.00_bicycle_10_n03792782_7092.png,n03792782_7092.png,1.0,3.3710113,-0.69854105,2.877608
alexnet_w1_mlp_simclrhn_probe2,1,54,NaN,knife,airplane,0.35,0054_nse_dnn_0.35_airplane_10_n02690373_5724.png,n02690373_5724.png,0.0,-6.7030025,-0.5378243,-4.3594394
alexnet_w1_mlp_simclrhn_probe2,1,55,NaN,knife,bear,0.60,0055_nse_dnn_0.60_bear_10_n02133161_5637.png,n02133161_5637.png,0.0,-5.188636,-1.0358801,-2.936442
alexnet_w1_mlp_simclrhn_probe2,1,56,NaN,bear,bear,0.10,0056_nse_dnn_0.10_bear_10_n02132136_5365.png,n02132136_5365.png,1.0,-0.65777695,-0.6813753,0.01668657
alexnet_w1_mlp_simclrhn_probe2,1,57,NaN,knife,car,0.35,0057_nse_dnn_0.35_car_10_n03100240_1702.png,n03100240_1702.png,0.0,-5.356993,-0.90179825,-3.1502986
alexnet_w1_mlp_simclrhn_probe2,1,58,NaN,knife,oven,0.35,0058_nse_dnn_0.35_oven_10_n04111531_2677.png,n04111531_2677.png,0.0,-3.2349389,-0.87832654,-1.6663765
alexnet_w1_mlp_simclrhn_probe2,1,59,NaN,chair,oven,0.05,0059_nse_dnn_0.05_oven_10_n04111531_16583.png,n04111531_16583.png,0.0,0.13896899,0.22864287,-0.06340901
alexnet_w1_mlp_simclrhn_probe2,1,60,NaN,bicycle,chair,0.10,0060_nse_dnn_0.10_chair_10_n04099969_6266.png,n04099969_6266.png,0.0,-0.31501803,-0.071815655,-0.17197005
alexnet_w1_mlp_simclrhn_probe2,1,61,NaN,knife,oven,0.60,0061_nse_dnn_0.60_oven_10_n04111531_6695.png,n04111531_6695.png,0.0,-6.9563246,-0.9361003,-4.2569413
alexnet_w1_mlp_simclrhn_probe2,1,62,NaN,knife,car,0.10,0062_nse_dnn_0.10_car_10_n03100240_1438.png,n03100240_1438.png,0.0,-4.2766213,-0.48915964,-2.67814
alexnet_w1_mlp_simclrhn_probe2,1,63,NaN,knife,keyboard,0.20,0063_nse_dnn_0.20_keyboard_10_n04505470_4684.png,n04505470_4684.png,0.0,-2.7462168,-1.4250875,-0.93417954
alexnet_w1_mlp_simclrhn_probe2,1,64,NaN,chair,chair,0.00,0064_nse_dnn_0.00_chair_10_n04099969_8021.png,n04099969_8021.png,1.0,0.20999119,0.03164287,0.12611131
alexnet_w1_mlp_simclrhn_probe2,1,65,NaN,oven,car,0.20,0065_nse_dnn_0.20_car_10_n04285008_7139.png,n04285008_7139.png,0.0,-4.8187656,-1.198127,-2.560178
alexnet_w1_mlp_simclrhn_probe2,1,66,NaN,truck,truck,0.03,0066_nse_dnn_0.03_truck_10_n03796401_9207.png,n03796401_9207.png,1.0,0.9747896,0.5816156,0.278016
alexnet_w1_mlp_simclrhn_probe2,1,67,NaN,elephant,bottle,0.05,0067_nse_dnn_0.05_bottle_10_n04560804_3651.png,n04560804_3651.png,0.0,-0.87385803,-0.40145215,-0.33404142
alexnet_w1_mlp_simclrhn_probe2,1,68,NaN,knife,chair,0.60,0068_nse_dnn_0.60_chair_10_n03376595_3010.png,n03376595_3010.png,0.0,-4.3666143,-0.8669311,-2.47465
alexnet_w1_mlp_simclrhn_probe2,1,69,NaN,knife,bird,0.90,0069_nse_dnn_0.90_bird_10_n01514859_1951.png,n01514859_1951.png,0.0,-4.788189,-0.73361623,-2.8670158
alexnet_w1_mlp_simclrhn_probe2,1,70,NaN,bicycle,car,0.10,0070_nse_dnn_0.10_car_10_n03100240_4594.png,n03100240_4594.png,0.0,-1.4838495,-0.75391895,-0.51613885
alexnet_w1_mlp_simclrhn_probe2,1,71,NaN,knife,clock,0.35,0071_nse_dnn_0.35_clock_10_n03196217_3333.png,n03196217_3333.png,0.0,-2.6383295,-0.95928574,-1.1872633
alexnet_w1_mlp_simclrhn_probe2,1,72,NaN,oven,car,0.10,0072_nse_dnn_0.10_car_10_n02814533_90798.png,n02814533_90798.png,0.0,-3.0405655,-0.3357589,-1.912587
alexnet_w1_mlp_simclrhn_probe2,1,73,NaN,knife,keyboard,0.00,0073_nse_dnn_0.00_keyboard_10_n03085013_19547.png,n03085013_19547.png,0.0,0.82337785,1.1529007,-0.23300785
alexnet_w1_mlp_simclrhn_probe2,1,74,NaN,elephant,bear,0.05,0074_nse_dnn_0.05_bear_10_n02133161_545.png,n02133161_545.png,0.0,-0.44685245,-0.4305924,-0.011497597
alexnet_w1_mlp_simclrhn_probe2,1,75,NaN,knife,oven,0.90,0075_nse_dnn_0.90_oven_10_n04111531_6489.png,n04111531_6489.png,0.0,-7.5984883,-1.2966924,-4.456043
alexnet_w1_mlp_simclrhn_probe2,1,76,NaN,knife,dog,0.90,0076_nse_dnn_0.90_dog_10_n02105056_15299.png,n02105056_15299.png,0.0,-6.2438087,-1.0552348,-3.6688757
alexnet_w1_mlp_simclrhn_probe2,1,77,NaN,knife,knife,0.05,0077_nse_dnn_0.05_knife_10_n03041632_33255.png,n03041632_33255.png,1.0,-0.13791868,-0.34584728,0.14702773
alexnet_w1_mlp_simclrhn_probe2,1,78,NaN,knife,cat,0.20,0078_nse_dnn_0.20_cat_10_n02123394_5895.png,n02123394_5895.png,0.0,-1.5485746,-0.5060386,-0.7371843
alexnet_w1_mlp_simclrhn_probe2,1,79,NaN,knife,bottle,0.03,0079_nse_dnn_0.03_bottle_10_n03983396_11654.png,n03983396_11654.png,0.0,-0.5334369,0.04365239,-0.40806377
alexnet_w1_mlp_simclrhn_probe2,1,80,NaN,airplane,airplane,0.03,0080_nse_dnn_0.03_airplane_10_n02690373_3860.png,n02690373_3860.png,1.0,0.059802324,-0.27489635,0.23666771
alexnet_w1_mlp_simclrhn_probe2,1,81,NaN,oven,oven,0.03,0081_nse_dnn_0.03_oven_10_n04111531_6415.png,n04111531_6415.png,1.0,-0.25581127,-0.67088497,0.29350144
alexnet_w1_mlp_simclrhn_probe2,1,82,NaN,knife,knife,0.60,0082_nse_dnn_0.60_knife_10_n03041632_39342.png,n03041632_39342.png,1.0,-0.88073456,-3.3960454,1.7785933
alexnet_w1_mlp_simclrhn_probe2,1,83,NaN,knife,bear,0.60,0083_nse_dnn_0.60_bear_10_n02133161_4882.png,n02133161_4882.png,0.0,-4.868888,-0.9699054,-2.756997
alexnet_w1_mlp_simclrhn_probe2,1,84,NaN,bottle,bottle,0.00,0084_nse_dnn_0.00_bottle_10_n04591713_7474.png,n04591713_7474.png,1.0,0.24974413,-0.1824085,0.30557805
alexnet_w1_mlp_simclrhn_probe2,1,85,NaN,elephant,bear,0.20,0085_nse_dnn_0.20_bear_10_n02132136_17615.png,n02132136_17615.png,0.0,-1.3636408,-0.9493345,-0.2929588
alexnet_w1_mlp_simclrhn_probe2,1,86,NaN,knife,boat,0.60,0086_nse_dnn_0.60_boat_10_n03344393_382.png,n03344393_382.png,0.0,-7.5626397,-0.91515815,-4.7004795
alexnet_w1_mlp_simclrhn_probe2,1,87,NaN,airplane,truck,0.00,0087_nse_dnn_0.00_truck_10_n03796401_27811.png,n03796401_27811.png,0.0,1.0788902,1.4166279,-0.2388166
alexnet_w1_mlp_simclrhn_probe2,1,88,NaN,knife,keyboard,0.60,0088_nse_dnn_0.60_keyboard_10_n04505470_2603.png,n04505470_2603.png,0.0,-4.633799,-1.2245847,-2.4106786
alexnet_w1_mlp_simclrhn_probe2,1,89,NaN,knife,boat,0.35,0089_nse_dnn_0.35_boat_10_n03662601_16418.png,n03662601_16418.png,0.0,-4.3107886,-0.7835218,-2.4941545
alexnet_w1_mlp_simclrhn_probe2,1,90,NaN,knife,bear,0.35,0090_nse_dnn_0.35_bear_10_n02132136_2760.png,n02132136_2760.png,0.0,-2.8006172,-0.72521675,-1.4675297
alexnet_w1_mlp_simclrhn_probe2,1,91,NaN,bicycle,bicycle,0.05,0091_nse_dnn_0.05_bicycle_10_n02835271_10271.png,n02835271_10271.png,1.0,0.9234742,-0.74324405,1.1785477
alexnet_w1_mlp_simclrhn_probe2,1,92,NaN,knife,bear,0.10,0092_nse_dnn_0.10_bear_10_n02134084_9127.png,n02134084_9127.png,0.0,-0.70866334,-0.53593,-0.12214094
alexnet_w1_mlp_simclrhn_probe2,1,93,NaN,knife,bird,0.20,0093_nse_dnn_0.20_bird_10_n01797886_551.png,n01797886_551.png,0.0,-1.2835522,-0.49679494,-0.5563214
alexnet_w1_mlp_simclrhn_probe2,1,94,NaN,knife,truck,0.10,0094_nse_dnn_0.10_truck_10_n03417042_9559.png,n03417042_9559.png,0.0,-2.554092,-0.51123005,-1.4445215
alexnet_w1_mlp_simclrhn_probe2,1,95,NaN,knife,clock,0.90,0095_nse_dnn_0.90_clock_10_n02708093_3114.png,n02708093_3114.png,0.0,-3.9954422,-0.9689377,-2.1400619
alexnet_w1_mlp_simclrhn_probe2,1,96,NaN,knife,bicycle,0.05,0096_nse_dnn_0.05_bicycle_10_n03792782_122.png,n03792782_122.png,0.0,-0.5822464,-0.3585136,-0.158203
alexnet_w1_mlp_simclrhn_probe2,1,97,NaN,knife,oven,0.35,0097_nse_dnn_0.35_oven_10_n04111531_3702.png,n04111531_3702.png,0.0,-4.3173885,-0.8487669,-2.452686
alexnet_w1_mlp_simclrhn_probe2,1,98,NaN,knife,car,0.90,0098_nse_dnn_0.90_car_10_n02814533_93476.png,n02814533_93476.png,0.0,-10.001674,-1.0161734,-6.3537083
alexnet_w1_mlp_simclrhn_probe2,1,99,NaN,knife,cat,0.35,0099_nse_dnn_0.35_cat_10_n02123045_8491.png,n02123045_8491.png,0.0,-2.9234402,-0.8875714,-1.4395767
alexnet_w1_mlp_simclrhn_probe2,1,100,NaN,knife,chair,0.35,0100_nse_dnn_0.35_chair_10_n02791124_13469.png,n02791124_13469.png,0.0,-2.4569974,-0.68582165,-1.2524104
alexnet_w1_mlp_simclrhn_probe2,1,101,NaN,knife,dog,0.60,0101_nse_dnn_0.60_dog_10_n02096294_5451.png,n02096294_5451.png,0.0,-5.151829,-0.7915603,-3.0831757
alexnet_w1_mlp_simclrhn_probe2,1,102,NaN,knife,bicycle,0.35,0102_nse_dnn_0.35_bicycle_10_n03792782_44296.png,n03792782_44296.png,0.0,-2.9987147,-0.99173653,-1.4191478
alexnet_w1_mlp_simclrhn_probe2,1,103,NaN,knife,cat,0.90,0103_nse_dnn_0.90_cat_10_n02123597_7138.png,n02123597_7138.png,0.0,-6.190657,-1.0539854,-3.6321757
alexnet_w1_mlp_simclrhn_probe2,1,104,NaN,knife,bottle,0.35,0104_nse_dnn_0.35_bottle_10_n04560804_12736.png,n04560804_12736.png,0.0,-2.2612612,-0.7164472,-1.0923486
alexnet_w1_mlp_simclrhn_probe2,1,105,NaN,knife,oven,0.60,0105_nse_dnn_0.60_oven_10_n04111531_22797.png,n04111531_22797.png,0.0,-7.0362854,-0.69888306,-4.4812202
alexnet_w1_mlp_simclrhn_probe2,1,106,NaN,elephant,bird,0.10,0106_nse_dnn_0.10_bird_10_n02007558_7446.png,n02007558_7446.png,0.0,-1.2330986,-0.3728606,-0.6082801
alexnet_w1_mlp_simclrhn_probe2,1,107,NaN,knife,boat,0.60,0107_nse_dnn_0.60_boat_10_n03662601_16441.png,n03662601_16441.png,0.0,-6.807256,-0.83057654,-4.226151
alexnet_w1_mlp_simclrhn_probe2,1,108,NaN,knife,oven,0.60,0108_nse_dnn_0.60_oven_10_n04111531_22386.png,n04111531_22386.png,0.0,-6.9687853,-0.83078915,-4.340219
alexnet_w1_mlp_simclrhn_probe2,1,109,NaN,airplane,airplane,0.00,0109_nse_dnn_0.00_airplane_10_n02690373_1381.png,n02690373_1381.png,1.0,4.043453,-0.5228214,3.228844
alexnet_w1_mlp_simclrhn_probe2,1,110,NaN,knife,keyboard,0.20,0110_nse_dnn_0.20_keyboard_10_n03085013_20779.png,n03085013_20779.png,0.0,-2.4810524,-0.74960816,-1.224316
alexnet_w1_mlp_simclrhn_probe2,1,111,NaN,knife,dog,0.90,0111_nse_dnn_0.90_dog_10_n02095570_9488.png,n02095570_9488.png,0.0,-6.456014,-1.1964113,-3.719101
alexnet_w1_mlp_simclrhn_probe2,1,112,NaN,dog,dog,0.03,0112_nse_dnn_0.03_dog_10_n02107312_3262.png,n02107312_3262.png,1.0,0.59958893,0.5054093,0.066595055
alexnet_w1_mlp_simclrhn_probe2,1,113,NaN,oven,oven,0.03,0113_nse_dnn_0.03_oven_10_n04111531_10681.png,n04111531_10681.png,1.0,0.4689427,-0.3680882,0.59187025
alexnet_w1_mlp_simclrhn_probe2,1,114,NaN,knife,knife,0.90,0114_nse_dnn_0.90_knife_10_n03041632_29285.png,n03041632_29285.png,1.0,-0.9126662,-3.8168542,2.0535712
alexnet_w1_mlp_simclrhn_probe2,1,115,NaN,knife,elephant,0.60,0115_nse_dnn_0.60_elephant_10_n02504458_4776.png,n02504458_4776.png,0.0,-5.612667,-0.81831014,-3.3901222
alexnet_w1_mlp_simclrhn_probe2,1,116,NaN,elephant,boat,0.10,0116_nse_dnn_0.10_boat_10_n04273569_11940.png,n04273569_11940.png,0.0,-2.0613976,-0.34936616,-1.210589
alexnet_w1_mlp_simclrhn_probe2,1,117,NaN,elephant,cat,0.20,0117_nse_dnn_0.20_cat_10_n02123159_1413.png,n02123159_1413.png,0.0,-1.69518,-1.2835788,-0.29104608
alexnet_w1_mlp_simclrhn_probe2,1,118,NaN,knife,airplane,0.60,0118_nse_dnn_0.60_airplane_10_n02690373_6674.png,n02690373_6674.png,0.0,-10.083797,-0.5633898,-6.731945
alexnet_w1_mlp_simclrhn_probe2,1,119,NaN,knife,clock,0.35,0119_nse_dnn_0.35_clock_10_n04548280_5088.png,n04548280_5088.png,0.0,-2.1565802,-0.6248793,-1.0830761
alexnet_w1_mlp_simclrhn_probe2,1,120,NaN,knife,clock,0.05,0120_nse_dnn_0.05_clock_10_n02708093_6624.png,n02708093_6624.png,0.0,-0.7909894,-0.39310986,-0.28134334
alexnet_w1_mlp_simclrhn_probe2,1,121,NaN,knife,bicycle,0.20,0121_nse_dnn_0.20_bicycle_10_n03792782_29108.png,n03792782_29108.png,0.0,-1.8018098,-0.93303716,-0.61431503
alexnet_w1_mlp_simclrhn_probe2,1,122,NaN,knife,clock,0.20,0122_nse_dnn_0.20_clock_10_n04548280_8649.png,n04548280_8649.png,0.0,-2.1839366,-0.75945413,-1.0072613
alexnet_w1_mlp_simclrhn_probe2,1,123,NaN,elephant,knife,0.05,0123_nse_dnn_0.05_knife_10_n03041632_737.png,n03041632_737.png,0.0,-0.6730597,-0.243509,-0.30373824
alexnet_w1_mlp_simclrhn_probe2,1,124,NaN,clock,clock,0.10,0124_nse_dnn_0.10_clock_10_n04548280_8668.png,n04548280_8668.png,1.0,0.78718203,-1.1144873,1.3446833
alexnet_w1_mlp_simclrhn_probe2,1,125,NaN,bicycle,bird,0.03,0125_nse_dnn_0.03_bird_10_n01558993_34885.png,n01558993_34885.png,0.0,-0.44835368,0.1088168,-0.39397904
alexnet_w1_mlp_simclrhn_probe2,1,126,NaN,knife,truck,0.60,0126_nse_dnn_0.60_truck_10_n04467665_37833.png,n04467665_37833.png,0.0,-7.80038,-0.5177939,-5.149566
alexnet_w1_mlp_simclrhn_probe2,1,127,NaN,knife,boat,0.05,0127_nse_dnn_0.05_boat_10_n03662601_5176.png,n03662601_5176.png,0.0,-0.3424284,0.10042321,-0.31314337
alexnet_w1_mlp_simclrhn_probe2,1,128,NaN,chair,chair,0.00,0128_nse_dnn_0.00_chair_10_n03376595_9139.png,n03376595_9139.png,1.0,1.4217236,0.31807166,0.7803998
alexnet_w1_mlp_simclrhn_probe2,1,129,NaN,knife,oven,0.90,0129_nse_dnn_0.90_oven_10_n04111531_6211.png,n04111531_6211.png,0.0,-9.082685,-1.1655682,-5.5982475
alexnet_w1_mlp_simclrhn_probe2,1,130,NaN,boat,boat,0.00,0130_nse_dnn_0.00_boat_10_n04273569_11427.png,n04273569_11427.png,1.0,0.5113386,-0.24481945,0.5346845
alexnet_w1_mlp_simclrhn_probe2,1,131,NaN,bicycle,bicycle,0.05,0131_nse_dnn_0.05_bicycle_10_n03792782_17198.png,n03792782_17198.png,1.0,-0.3244798,-0.39686525,0.051184252
alexnet_w1_mlp_simclrhn_probe2,1,132,NaN,clock,clock,0.00,0132_nse_dnn_0.00_clock_10_n04548280_4560.png,n04548280_4560.png,1.0,0.44456863,-0.17203711,0.43600613
alexnet_w1_mlp_simclrhn_probe2,1,133,NaN,oven,knife,0.03,0133_nse_dnn_0.03_knife_10_n03041632_3781.png,n03041632_3781.png,0.0,-0.6410116,-0.055473626,-0.41403788
alexnet_w1_mlp_simclrhn_probe2,1,134,NaN,knife,clock,0.10,0134_nse_dnn_0.10_clock_10_n03196217_958.png,n03196217_958.png,0.0,-0.81979233,-0.011002116,-0.571901
alexnet_w1_mlp_simclrhn_probe2,1,135,NaN,knife,elephant,0.35,0135_nse_dnn_0.35_elephant_10_n02504458_485.png,n02504458_485.png,0.0,-2.7442803,-1.2299664,-1.0707817
alexnet_w1_mlp_simclrhn_probe2,1,136,NaN,bicycle,clock,0.00,0136_nse_dnn_0.00_clock_10_n02708093_1038.png,n02708093_1038.png,0.0,-0.4543513,0.6883671,-0.808024
alexnet_w1_mlp_simclrhn_probe2,1,137,NaN,oven,oven,0.03,0137_nse_dnn_0.03_oven_10_n04111531_1723.png,n04111531_1723.png,1.0,0.35256514,-0.58914423,0.6658891
alexnet_w1_mlp_simclrhn_probe2,1,138,NaN,dog,dog,0.03,0138_nse_dnn_0.03_dog_10_n02110806_27169.png,n02110806_27169.png,1.0,0.40479192,-1.4753575,1.3294665
alexnet_w1_mlp_simclrhn_probe2,1,139,NaN,airplane,airplane,0.00,0139_nse_dnn_0.00_airplane_10_n02690373_12505.png,n02690373_12505.png,1.0,2.197547,-0.37729883,1.820691
alexnet_w1_mlp_simclrhn_probe2,1,140,NaN,knife,bird,0.60,0140_nse_dnn_0.60_bird_10_n01828970_454.png,n01828970_454.png,0.0,-3.7361937,-1.4134138,-1.6424534
alexnet_w1_mlp_simclrhn_probe2,1,141,NaN,knife,oven,0.20,0141_nse_dnn_0.20_oven_10_n04111531_15635.png,n04111531_15635.png,0.0,-2.5779312,-0.80589914,-1.2530159
alexnet_w1_mlp_simclrhn_probe2,1,142,NaN,oven,car,0.00,0142_nse_dnn_0.00_car_10_n04285008_8700.png,n04285008_8700.png,0.0,-0.90856695,-0.2510578,-0.4649292
alexnet_w1_mlp_simclrhn_probe2,1,143,NaN,knife,keyboard,0.05,0143_nse_dnn_0.05_keyboard_10_n04505470_4592.png,n04505470_4592.png,0.0,-0.38558954,0.008781366,-0.27886236
alexnet_w1_mlp_simclrhn_probe2,1,144,NaN,knife,boat,0.20,0144_nse_dnn_0.20_boat_10_n03344393_9560.png,n03344393_9560.png,0.0,-2.3573353,-0.2539986,-1.4872837
alexnet_w1_mlp_simclrhn_probe2,1,145,NaN,bear,bear,0.00,0145_nse_dnn_0.00_bear_10_n02132136_5138.png,n02132136_5138.png,1.0,0.15732048,0.14517783,0.008586156
alexnet_w1_mlp_simclrhn_probe2,1,146,NaN,knife,chair,0.60,0146_nse_dnn_0.60_chair_10_n03376595_591.png,n03376595_591.png,0.0,-4.3327184,-0.9417063,-2.3978078
alexnet_w1_mlp_simclrhn_probe2,1,147,NaN,knife,keyboard,0.90,0147_nse_dnn_0.90_keyboard_10_n03085013_20590.png,n03085013_20590.png,0.0,-4.3937597,-1.0889022,-2.3368871
alexnet_w1_mlp_simclrhn_probe2,1,148,NaN,knife,dog,0.35,0148_nse_dnn_0.35_dog_10_n02094258_1224.png,n02094258_1224.png,0.0,-3.4825637,-0.7251369,-1.9497951
alexnet_w1_mlp_simclrhn_probe2,1,149,NaN,knife,clock,0.20,0149_nse_dnn_0.20_clock_10_n03196217_4486.png,n03196217_4486.png,0.0,-1.8843817,-0.6483363,-0.87401605
alexnet_w1_mlp_simclrhn_probe2,1,150,NaN,knife,bear,0.20,0150_nse_dnn_0.20_bear_10_n02134084_22150.png,n02134084_22150.png,0.0,-1.2381625,-0.4527125,-0.55539703
alexnet_w1_mlp_simclrhn_probe2,1,151,NaN,cat,cat,0.10,0151_nse_dnn_0.10_cat_10_n02123045_3098.png,n02123045_3098.png,1.0,0.20814575,-0.54287875,0.5310545
alexnet_w1_mlp_simclrhn_probe2,1,152,NaN,elephant,bear,0.20,0152_nse_dnn_0.20_bear_10_n02134418_271.png,n02134418_271.png,0.0,-0.9748932,-0.9684993,-0.0045211767
alexnet_w1_mlp_simclrhn_probe2,1,153,NaN,oven,oven,0.05,0153_nse_dnn_0.05_oven_10_n04111531_274.png,n04111531_274.png,1.0,0.18884325,-0.9421805,0.79975456
alexnet_w1_mlp_simclrhn_probe2,1,154,NaN,knife,knife,0.35,0154_nse_dnn_0.35_knife_10_n03041632_8563.png,n03041632_8563.png,1.0,-0.96768236,-2.1168444,0.8125803
alexnet_w1_mlp_simclrhn_probe2,1,155,NaN,car,car,0.00,0155_nse_dnn_0.00_car_10_n02814533_52389.png,n02814533_52389.png,1.0,4.902951,3.3374262,1.1069931
alexnet_w1_mlp_simclrhn_probe2,1,156,NaN,airplane,airplane,0.00,0156_nse_dnn_0.00_airplane_10_n02690373_10455.png,n02690373_10455.png,1.0,0.74607027,0.11768118,0.44433817
alexnet_w1_mlp_simclrhn_probe2,1,157,NaN,knife,truck,0.35,0157_nse_dnn_0.35_truck_10_n04467665_4810.png,n04467665_4810.png,0.0,-5.211119,-0.6370207,-3.2343762
alexnet_w1_mlp_simclrhn_probe2,1,158,NaN,knife,knife,0.10,0158_nse_dnn_0.10_knife_10_n03041632_3159.png,n03041632_3159.png,1.0,0.13531949,-1.4234667,1.1022283
alexnet_w1_mlp_simclrhn_probe2,1,159,NaN,knife,cat,0.05,0159_nse_dnn_0.05_cat_10_n02123597_13411.png,n02123597_13411.png,0.0,-1.1275101,-0.39220667,-0.51993805
alexnet_w1_mlp_simclrhn_probe2,1,160,NaN,knife,clock,0.10,0160_nse_dnn_0.10_clock_10_n04548280_2654.png,n04548280_2654.png,0.0,-0.98291105,0.05664199,-0.735075
alexnet_w1_mlp_simclrhn_probe2,1,161,NaN,knife,elephant,0.90,0161_nse_dnn_0.90_elephant_10_n02504013_405.png,n02504013_405.png,0.0,-6.9169006,-1.0434661,-4.1531453
alexnet_w1_mlp_simclrhn_probe2,1,162,NaN,elephant,bottle,0.05,0162_nse_dnn_0.05_bottle_10_n04560804_14729.png,n04560804_14729.png,0.0,-0.8354172,0.55417895,-0.98259294
alexnet_w1_mlp_simclrhn_probe2,1,163,NaN,knife,bottle,0.90,0163_nse_dnn_0.90_bottle_10_n02823428_5482.png,n02823428_5482.png,0.0,-3.924835,-1.0195017,-2.054381
alexnet_w1_mlp_simclrhn_probe2,1,164,NaN,knife,keyboard,0.90,0164_nse_dnn_0.90_keyboard_10_n04505470_4824.png,n04505470_4824.png,0.0,-3.9667659,-0.84893906,-2.2046366
alexnet_w1_mlp_simclrhn_probe2,1,165,NaN,knife,chair,0.20,0165_nse_dnn_0.20_chair_10_n04099969_14208.png,n04099969_14208.png,0.0,-1.5356711,-0.4282261,-0.7830819
alexnet_w1_mlp_simclrhn_probe2,1,166,NaN,elephant,elephant,0.00,0166_nse_dnn_0.00_elephant_10_n02504013_1647.png,n02504013_1647.png,1.0,3.3840199,0.53473103,2.0147517
alexnet_w1_mlp_simclrhn_probe2,1,167,NaN,elephant,cat,0.20,0167_nse_dnn_0.20_cat_10_n02123597_11564.png,n02123597_11564.png,0.0,-0.90271544,-0.56767994,-0.23690587
alexnet_w1_mlp_simclrhn_probe2,1,168,NaN,knife,car,0.35,0168_nse_dnn_0.35_car_10_n03100240_16653.png,n03100240_16653.png,0.0,-5.8956203,-0.53192455,-3.7927055
alexnet_w1_mlp_simclrhn_probe2,1,169,NaN,keyboard,oven,0.00,0169_nse_dnn_0.00_oven_10_n04111531_9611.png,n04111531_9611.png,0.0,-0.4051662,0.38732117,-0.5603732
alexnet_w1_mlp_simclrhn_probe2,1,170,NaN,elephant,car,0.05,0170_nse_dnn_0.05_car_10_n02814533_35054.png,n02814533_35054.png,0.0,-1.4297457,-0.2169544,-0.857573
alexnet_w1_mlp_simclrhn_probe2,1,171,NaN,oven,oven,0.20,0171_nse_dnn_0.20_oven_10_n04111531_3121.png,n04111531_3121.png,1.0,-1.1753861,-1.3087265,0.09428596
alexnet_w1_mlp_simclrhn_probe2,1,172,NaN,oven,chair,0.20,0172_nse_dnn_0.20_chair_10_n02791124_4969.png,n02791124_4969.png,0.0,-1.8674618,-1.5272036,-0.24059892
alexnet_w1_mlp_simclrhn_probe2,1,173,NaN,elephant,car,0.20,0173_nse_dnn_0.20_car_10_n02814533_211.png,n02814533_211.png,0.0,-3.3193543,-0.9635829,-1.6657821
alexnet_w1_mlp_simclrhn_probe2,1,174,NaN,dog,dog,0.00,0174_nse_dnn_0.00_dog_10_n02091244_13118.png,n02091244_13118.png,1.0,0.33076754,-0.06724061,0.28143427
alexnet_w1_mlp_simclrhn_probe2,1,175,NaN,knife,bottle,0.10,0175_nse_dnn_0.10_bottle_10_n04560804_3597.png,n04560804_3597.png,0.0,-0.9454257,-0.8503803,-0.06720724
alexnet_w1_mlp_simclrhn_probe2,1,176,NaN,knife,bottle,0.60,0176_nse_dnn_0.60_bottle_10_n04560804_30885.png,n04560804_30885.png,0.0,-3.0158584,-0.8263022,-1.54825
alexnet_w1_mlp_simclrhn_probe2,1,177,NaN,knife,bottle,0.60,0177_nse_dnn_0.60_bottle_10_n04560804_9813.png,n04560804_9813.png,0.0,-3.3795733,-1.0747585,-1.6297503
alexnet_w1_mlp_simclrhn_probe2,1,178,NaN,knife,boat,0.35,0178_nse_dnn_0.35_boat_10_n02951358_10003.png,n02951358_10003.png,0.0,-4.0808916,-0.62821615,-2.4414103
alexnet_w1_mlp_simclrhn_probe2,1,179,NaN,knife,bear,0.35,0179_nse_dnn_0.35_bear_10_n02133161_1500.png,n02133161_1500.png,0.0,-3.4045365,-0.5963472,-1.9856898
alexnet_w1_mlp_simclrhn_probe2,1,180,NaN,knife,oven,0.20,0180_nse_dnn_0.20_oven_10_n04111531_4467.png,n04111531_4467.png,0.0,-1.8829137,-0.40331358,-1.0462353
alexnet_w1_mlp_simclrhn_probe2,1,181,NaN,knife,clock,0.20,0181_nse_dnn_0.20_clock_10_n02708093_8002.png,n02708093_8002.png,0.0,-1.8038626,-1.1435184,-0.46693382
alexnet_w1_mlp_simclrhn_probe2,1,182,NaN,knife,boat,0.90,0182_nse_dnn_0.90_boat_10_n02951358_34261.png,n02951358_34261.png,0.0,-8.485011,-0.9937944,-5.29709
alexnet_w1_mlp_simclrhn_probe2,1,183,NaN,boat,boat,0.00,0183_nse_dnn_0.00_boat_10_n04612504_20067.png,n04612504_20067.png,1.0,2.4722693,0.92100674,1.0969083
alexnet_w1_mlp_simclrhn_probe2,1,184,NaN,knife,clock,0.35,0184_nse_dnn_0.35_clock_10_n03196217_6163.png,n03196217_6163.png,0.0,-2.1676686,-0.62696755,-1.0894401
alexnet_w1_mlp_simclrhn_probe2,1,185,NaN,keyboard,keyboard,0.03,0185_nse_dnn_0.03_keyboard_10_n03085013_23119.png,n03085013_23119.png,1.0,0.22574168,0.044706866,0.12801094
alexnet_w1_mlp_simclrhn_probe2,1,186,NaN,knife,clock,0.60,0186_nse_dnn_0.60_clock_10_n04548280_4358.png,n04548280_4358.png,0.0,-3.608485,-1.0118573,-1.8360931
alexnet_w1_mlp_simclrhn_probe2,1,187,NaN,elephant,dog,0.05,0187_nse_dnn_0.05_dog_10_n02101388_2968.png,n02101388_2968.png,0.0,-0.87697005,0.015052915,-0.6307555
alexnet_w1_mlp_simclrhn_probe2,1,188,NaN,oven,oven,0.10,0188_nse_dnn_0.10_oven_10_n04111531_8081.png,n04111531_8081.png,1.0,-0.40993583,-0.9182512,0.35943326
alexnet_w1_mlp_simclrhn_probe2,1,189,NaN,knife,keyboard,0.05,0189_nse_dnn_0.05_keyboard_10_n04505470_4994.png,n04505470_4994.png,0.0,-0.34535885,0.6558099,-0.7079332
alexnet_w1_mlp_simclrhn_probe2,1,190,NaN,bear,dog,0.10,0190_nse_dnn_0.10_dog_10_n02101006_16132.png,n02101006_16132.png,0.0,-1.7618319,-0.99624693,-0.5413503
alexnet_w1_mlp_simclrhn_probe2,1,191,NaN,elephant,elephant,0.10,0191_nse_dnn_0.10_elephant_10_n02504458_6888.png,n02504458_6888.png,1.0,-0.08990652,-0.5263467,0.3086098
alexnet_w1_mlp_simclrhn_probe2,1,192,NaN,knife,bird,0.60,0192_nse_dnn_0.60_bird_10_n02018207_43958.png,n02018207_43958.png,0.0,-4.3830447,-0.7904092,-2.5403771
alexnet_w1_mlp_simclrhn_probe2,1,193,NaN,cat,cat,0.03,0193_nse_dnn_0.03_cat_10_n02123045_2719.png,n02123045_2719.png,1.0,2.2042239,-1.2972656,2.475927
alexnet_w1_mlp_simclrhn_probe2,1,194,NaN,keyboard,keyboard,0.05,0194_nse_dnn_0.05_keyboard_10_n03085013_5611.png,n03085013_5611.png,1.0,1.1463686,-0.5294481,1.1849815
alexnet_w1_mlp_simclrhn_probe2,1,195,NaN,boat,boat,0.03,0195_nse_dnn_0.03_boat_10_n03344393_6892.png,n03344393_6892.png,1.0,0.09000411,-0.0482099,0.09773206
alexnet_w1_mlp_simclrhn_probe2,1,196,NaN,knife,chair,0.90,0196_nse_dnn_0.90_chair_10_n02791124_5411.png,n02791124_5411.png,0.0,-5.23254,-0.9873554,-3.001799
alexnet_w1_mlp_simclrhn_probe2,1,197,NaN,elephant,elephant,0.05,0197_nse_dnn_0.05_elephant_10_n02504013_8391.png,n02504013_8391.png,1.0,2.1765943,0.33342928,1.3033144
alexnet_w1_mlp_simclrhn_probe2,1,198,NaN,knife,chair,0.60,0198_nse_dnn_0.60_chair_10_n02791124_7167.png,n02791124_7167.png,0.0,-4.1560626,-0.95673823,-2.262264
alexnet_w1_mlp_simclrhn_probe2,1,199,NaN,oven,truck,0.10,0199_nse_dnn_0.10_truck_10_n03417042_2170.png,n03417042_2170.png,0.0,-2.4967735,-0.5623801,-1.3678228
alexnet_w1_mlp_simclrhn_probe2,1,200,NaN,knife,chair,0.35,0200_nse_dnn_0.35_chair_10_n04099969_2109.png,n04099969_2109.png,0.0,-3.070181,-1.3435869,-1.2208863
alexnet_w1_mlp_simclrhn_probe2,1,201,NaN,knife,chair,0.90,0201_nse_dnn_0.90_chair_10_n04429376_7321.png,n04429376_7321.png,0.0,-5.266303,-0.985296,-3.027129
alexnet_w1_mlp_simclrhn_probe2,1,202,NaN,knife,airplane,0.35,0202_nse_dnn_0.35_airplane_10_n02690373_1733.png,n02690373_1733.png,0.0,-6.6573663,-0.70053804,-4.212114
alexnet_w1_mlp_simclrhn_probe2,1,203,NaN,knife,bird,0.10,0203_nse_dnn_0.10_bird_10_n02006656_5719.png,n02006656_5719.png,0.0,-1.025082,-0.9026505,-0.086572155
alexnet_w1_mlp_simclrhn_probe2,1,204,NaN,bicycle,bicycle,0.03,0204_nse_dnn_0.03_bicycle_10_n03792782_12354.png,n03792782_12354.png,1.0,1.0739,-0.8063408,1.3295311
alexnet_w1_mlp_simclrhn_probe2,1,205,NaN,bottle,bottle,0.03,0205_nse_dnn_0.03_bottle_10_n04557648_12671.png,n04557648_12671.png,1.0,1.9286498,-0.76028186,1.9013618
alexnet_w1_mlp_simclrhn_probe2,1,206,NaN,elephant,elephant,0.05,0206_nse_dnn_0.05_elephant_10_n02504013_318.png,n02504013_318.png,1.0,1.3443276,0.11666159,0.868091
alexnet_w1_mlp_simclrhn_probe2,1,207,NaN,knife,boat,0.90,0207_nse_dnn_0.90_boat_10_n04273569_16078.png,n04273569_16078.png,0.0,-9.18179,-1.0895896,-5.7220507
alexnet_w1_mlp_simclrhn_probe2,1,208,NaN,knife,cat,0.03,0208_nse_dnn_0.03_cat_10_n02123597_9664.png,n02123597_9664.png,0.0,-0.9812514,0.16877423,-0.81319094
alexnet_w1_mlp_simclrhn_probe2,1,209,NaN,knife,clock,0.35,0209_nse_dnn_0.35_clock_10_n04548280_4113.png,n04548280_4113.png,0.0,-2.2437022,-0.6355573,-1.1371301
alexnet_w1_mlp_simclrhn_probe2,1,210,NaN,knife,keyboard,0.60,0210_nse_dnn_0.60_keyboard_10_n03085013_20363.png,n03085013_20363.png,0.0,-3.7809381,-1.0872252,-1.9047427
alexnet_w1_mlp_simclrhn_probe2,1,211,NaN,elephant,truck,0.03,0211_nse_dnn_0.03_truck_10_n04467665_67908.png,n04467665_67908.png,0.0,-0.7015031,-0.41894084,-0.19980168
alexnet_w1_mlp_simclrhn_probe2,1,212,NaN,knife,truck,0.90,0212_nse_dnn_0.90_truck_10_n04467665_61522.png,n04467665_61522.png,0.0,-9.368549,-1.1934041,-5.7807007
alexnet_w1_mlp_simclrhn_probe2,1,213,NaN,knife,cat,0.90,0213_nse_dnn_0.90_cat_10_n02123045_3648.png,n02123045_3648.png,0.0,-6.6566806,-0.7845497,-4.1522236
alexnet_w1_mlp_simclrhn_probe2,1,214,NaN,knife,dog,0.60,0214_nse_dnn_0.60_dog_10_n02107574_3685.png,n02107574_3685.png,0.0,-5.6164756,-0.8549254,-3.3669243
alexnet_w1_mlp_simclrhn_probe2,1,215,NaN,elephant,dog,0.20,0215_nse_dnn_0.20_dog_10_n02100236_4048.png,n02100236_4048.png,0.0,-2.116579,-0.67394936,-1.0200932
alexnet_w1_mlp_simclrhn_probe2,1,216,NaN,knife,bear,0.35,0216_nse_dnn_0.35_bear_10_n02134418_5073.png,n02134418_5073.png,0.0,-2.7603066,-0.75142,-1.4204973
alexnet_w1_mlp_simclrhn_probe2,1,217,NaN,knife,airplane,0.90,0217_nse_dnn_0.90_airplane_10_n02690373_9012.png,n02690373_9012.png,0.0,-12.170014,-0.8672743,-7.9922442
alexnet_w1_mlp_simclrhn_probe2,1,218,NaN,knife,cat,0.35,0218_nse_dnn_0.35_cat_10_n02123159_6439.png,n02123159_6439.png,0.0,-3.3708842,-0.8424089,-1.787902
alexnet_w1_mlp_simclrhn_probe2,1,219,NaN,knife,cat,0.60,0219_nse_dnn_0.60_cat_10_n02125311_3616.png,n02125311_3616.png,0.0,-4.8933954,-0.8718078,-2.8436918
alexnet_w1_mlp_simclrhn_probe2,1,220,NaN,knife,bottle,0.60,0220_nse_dnn_0.60_bottle_10_n04557648_4356.png,n04557648_4356.png,0.0,-3.1229079,-0.80817294,-1.6367648
alexnet_w1_mlp_simclrhn_probe2,1,221,NaN,knife,bird,0.35,0221_nse_dnn_0.35_bird_10_n02027492_6813.png,n02027492_6813.png,0.0,-2.6174507,-0.5310909,-1.4752791
alexnet_w1_mlp_simclrhn_probe2,1,222,NaN,chair,chair,0.03,0222_nse_dnn_0.03_chair_10_n04429376_26765.png,n04429376_26765.png,1.0,-0.0256553,-0.16278142,0.09696281
alexnet_w1_mlp_simclrhn_probe2,1,223,NaN,knife,elephant,0.35,0223_nse_dnn_0.35_elephant_10_n02504458_4811.png,n02504458_4811.png,0.0,-3.1518183,-0.571653,-1.8244525
alexnet_w1_mlp_simclrhn_probe2,1,224,NaN,oven,keyboard,0.20,0224_nse_dnn_0.20_keyboard_10_n04505470_1351.png,n04505470_1351.png,0.0,-3.8951647,-1.4257537,-1.7461373
alexnet_w1_mlp_simclrhn_probe2,1,225,NaN,chair,chair,0.05,0225_nse_dnn_0.05_chair_10_n04099969_2532.png,n04099969_2532.png,1.0,-0.330697,-0.6558311,0.22990453
alexnet_w1_mlp_simclrhn_probe2,1,226,NaN,knife,airplane,0.10,0226_nse_dnn_0.10_airplane_10_n02690373_8547.png,n02690373_8547.png,0.0,-1.989359,-0.31140864,-1.18649
alexnet_w1_mlp_simclrhn_probe2,1,227,NaN,knife,truck,0.35,0227_nse_dnn_0.35_truck_10_n03417042_23445.png,n03417042_23445.png,0.0,-5.111563,-0.65516996,-3.151146
alexnet_w1_mlp_simclrhn_probe2,1,228,NaN,knife,truck,0.90,0228_nse_dnn_0.90_truck_10_n04467665_48953.png,n04467665_48953.png,0.0,-10.905094,-1.2068746,-6.857677
alexnet_w1_mlp_simclrhn_probe2,1,229,NaN,knife,boat,0.20,0229_nse_dnn_0.20_boat_10_n03662601_11739.png,n03662601_11739.png,0.0,-2.6463714,-0.29382405,-1.6635022
alexnet_w1_mlp_simclrhn_probe2,1,230,NaN,cat,cat,0.03,0230_nse_dnn_0.03_cat_10_n02123597_4948.png,n02123597_4948.png,1.0,0.7544616,0.4544246,0.2121582
alexnet_w1_mlp_simclrhn_probe2,1,231,NaN,knife,oven,0.35,0231_nse_dnn_0.35_oven_10_n04111531_9411.png,n04111531_9411.png,0.0,-3.596521,-0.8249862,-1.959771
alexnet_w1_mlp_simclrhn_probe2,1,232,NaN,knife,bicycle,0.60,0232_nse_dnn_0.60_bicycle_10_n03792782_988.png,n03792782_988.png,0.0,-6.194403,-0.75115985,-3.8489544
alexnet_w1_mlp_simclrhn_probe2,1,233,NaN,oven,car,0.05,0233_nse_dnn_0.05_car_10_n02814533_65294.png,n02814533_65294.png,0.0,-1.5445247,0.13323703,-1.1863567
alexnet_w1_mlp_simclrhn_probe2,1,234,NaN,bottle,bottle,0.00,0234_nse_dnn_0.00_bottle_10_n04557648_10420.png,n04557648_10420.png,1.0,0.39848575,0.05434572,0.24334374
alexnet_w1_mlp_simclrhn_probe2,1,235,NaN,knife,chair,0.60,0235_nse_dnn_0.60_chair_10_n04099969_33329.png,n04099969_33329.png,0.0,-3.95566,-1.1441885,-1.9880105
alexnet_w1_mlp_simclrhn_probe2,1,236,NaN,knife,oven,0.35,0236_nse_dnn_0.35_oven_10_n04111531_20493.png,n04111531_20493.png,0.0,-3.4335978,-1.0052812,-1.7170792
alexnet_w1_mlp_simclrhn_probe2,1,237,NaN,knife,clock,0.10,0237_nse_dnn_0.10_clock_10_n04548280_7839.png,n04548280_7839.png,0.0,-0.49048057,-0.22259146,-0.18942621
alexnet_w1_mlp_simclrhn_probe2,1,238,NaN,knife,airplane,0.20,0238_nse_dnn_0.20_airplane_10_n02690373_7229.png,n02690373_7229.png,0.0,-3.1134129,-0.2516539,-2.023569
alexnet_w1_mlp_simclrhn_probe2,1,239,NaN,knife,airplane,0.10,0239_nse_dnn_0.10_airplane_10_n02690373_5003.png,n02690373_5003.png,0.0,-2.1572344,-0.12559031,-1.4365894
alexnet_w1_mlp_simclrhn_probe2,1,240,NaN,knife,chair,0.20,0240_nse_dnn_0.20_chair_10_n02791124_206.png,n02791124_206.png,0.0,-1.7742053,-1.318535,-0.3222076
alexnet_w1_mlp_simclrhn_probe2,1,241,NaN,oven,oven,0.00,0241_nse_dnn_0.00_oven_10_n04111531_7283.png,n04111531_7283.png,1.0,0.6186836,-0.0070854016,0.44248548
alexnet_w1_mlp_simclrhn_probe2,1,242,NaN,knife,chair,0.35,0242_nse_dnn_0.35_chair_10_n04429376_8124.png,n04429376_8124.png,0.0,-2.5266926,-0.864596,-1.1752799
alexnet_w1_mlp_simclrhn_probe2,1,243,NaN,keyboard,keyboard,0.00,0243_nse_dnn_0.00_keyboard_10_n04505470_3864.png,n04505470_3864.png,1.0,-0.0134476125,-0.20111868,0.13270348
alexnet_w1_mlp_simclrhn_probe2,1,244,NaN,knife,bottle,0.35,0244_nse_dnn_0.35_bottle_10_n03937543_3289.png,n03937543_3289.png,0.0,-2.4668133,-0.9281957,-1.0879669
alexnet_w1_mlp_simclrhn_probe2,1,245,NaN,knife,boat,0.10,0245_nse_dnn_0.10_boat_10_n03344393_5207.png,n03344393_5207.png,0.0,-1.2835752,-0.054433808,-0.8691342
alexnet_w1_mlp_simclrhn_probe2,1,246,NaN,knife,airplane,0.90,0246_nse_dnn_0.90_airplane_10_n02690373_629.png,n02690373_629.png,0.0,-11.9263735,-0.9470943,-7.763523
alexnet_w1_mlp_simclrhn_probe2,1,247,NaN,elephant,elephant,0.03,0247_nse_dnn_0.03_elephant_10_n02504013_104.png,n02504013_104.png,1.0,0.8259281,0.2848635,0.38259047
alexnet_w1_mlp_simclrhn_probe2,1,248,NaN,bicycle,bicycle,0.03,0248_nse_dnn_0.03_bicycle_10_n03792782_42626.png,n03792782_42626.png,1.0,-0.111059144,-0.5068375,0.27985758
alexnet_w1_mlp_simclrhn_probe2,1,249,NaN,knife,truck,0.35,0249_nse_dnn_0.35_truck_10_n03417042_6847.png,n03417042_6847.png,0.0,-5.15205,-0.446936,-3.327018
alexnet_w1_mlp_simclrhn_probe2,1,250,NaN,oven,chair,0.10,0250_nse_dnn_0.10_chair_10_n04429376_23573.png,n04429376_23573.png,0.0,-1.2735232,-0.58458227,-0.4871548
alexnet_w1_mlp_simclrhn_probe2,1,251,NaN,knife,clock,0.03,0251_nse_dnn_0.03_clock_10_n03196217_7637.png,n03196217_7637.png,0.0,0.065276854,0.45217073,-0.27357528
alexnet_w1_mlp_simclrhn_probe2,1,252,NaN,knife,airplane,0.05,0252_nse_dnn_0.05_airplane_10_n02690373_932.png,n02690373_932.png,0.0,-1.2013074,-0.31872022,-0.6240834
alexnet_w1_mlp_simclrhn_probe2,1,253,NaN,truck,truck,0.05,0253_nse_dnn_0.05_truck_10_n03417042_9478.png,n03417042_9478.png,1.0,-0.1573965,-0.19398358,0.025870979
alexnet_w1_mlp_simclrhn_probe2,1,254,NaN,clock,clock,0.05,0254_nse_dnn_0.05_clock_10_n04548280_7800.png,n04548280_7800.png,1.0,0.42204103,-0.0057925954,0.30252406
alexnet_w1_mlp_simclrhn_probe2,1,255,NaN,knife,keyboard,0.10,0255_nse_dnn_0.10_keyboard_10_n03085013_1698.png,n03085013_1698.png,0.0,-2.2964182,0.13620901,-1.7201272
alexnet_w1_mlp_simclrhn_probe2,1,256,NaN,knife,boat,0.20,0256_nse_dnn_0.20_boat_10_n04273569_32553.png,n04273569_32553.png,0.0,-2.6960652,-0.37068516,-1.644292
alexnet_w1_mlp_simclrhn_probe2,1,257,NaN,elephant,bear,0.03,0257_nse_dnn_0.03_bear_10_n02132136_23078.png,n02132136_23078.png,0.0,0.42949206,0.5253272,-0.06776568
alexnet_w1_mlp_simclrhn_probe2,1,258,NaN,bottle,bottle,0.00,0258_nse_dnn_0.00_bottle_10_n04591713_5476.png,n04591713_5476.png,1.0,0.3209277,-0.17470971,0.35046858
alexnet_w1_mlp_simclrhn_probe2,1,259,NaN,oven,knife,0.10,0259_nse_dnn_0.10_knife_10_n03041632_31849.png,n03041632_31849.png,0.0,-1.4643931,-0.72506416,-0.52278453
alexnet_w1_mlp_simclrhn_probe2,1,260,NaN,knife,truck,0.90,0260_nse_dnn_0.90_truck_10_n03417042_12908.png,n03417042_12908.png,0.0,-10.574696,-1.0457549,-6.7379785
alexnet_w1_mlp_simclrhn_probe2,1,261,NaN,knife,clock,0.60,0261_nse_dnn_0.60_clock_10_n02708093_1418.png,n02708093_1418.png,0.0,-3.1188478,-0.89313626,-1.5738158
alexnet_w1_mlp_simclrhn_probe2,1,262,NaN,airplane,car,0.05,0262_nse_dnn_0.05_car_10_n03100240_4173.png,n03100240_4173.png,0.0,-0.5154921,0.15248606,-0.4723319
alexnet_w1_mlp_simclrhn_probe2,1,263,NaN,keyboard,keyboard,0.10,0263_nse_dnn_0.10_keyboard_10_n03085013_25476.png,n03085013_25476.png,1.0,0.23392689,-0.56831604,0.5672714
alexnet_w1_mlp_simclrhn_probe2,1,264,NaN,cat,cat,0.05,0264_nse_dnn_0.05_cat_10_n02125311_34464.png,n02125311_34464.png,1.0,0.6366488,-0.5967835,0.87216836
alexnet_w1_mlp_simclrhn_probe2,1,265,NaN,knife,knife,0.20,0265_nse_dnn_0.20_knife_10_n03041632_36789.png,n03041632_36789.png,1.0,-0.5914695,-1.4503576,0.60732555
alexnet_w1_mlp_simclrhn_probe2,1,266,NaN,elephant,dog,0.03,0266_nse_dnn_0.03_dog_10_n02108915_3733.png,n02108915_3733.png,0.0,-0.6793606,-0.65789264,-0.0151801575
alexnet_w1_mlp_simclrhn_probe2,1,267,NaN,knife,knife,0.60,0267_nse_dnn_0.60_knife_10_n03041632_42162.png,n03041632_42162.png,1.0,-0.9805336,-3.1473317,1.5321577
alexnet_w1_mlp_simclrhn_probe2,1,268,NaN,knife,keyboard,0.10,0268_nse_dnn_0.10_keyboard_10_n03085013_29042.png,n03085013_29042.png,0.0,-1.8291146,-0.21139568,-1.1439
alexnet_w1_mlp_simclrhn_probe2,1,269,NaN,airplane,airplane,0.00,0269_nse_dnn_0.00_airplane_10_n02690373_19407.png,n02690373_19407.png,1.0,1.4635711,0.77509975,0.48682275
alexnet_w1_mlp_simclrhn_probe2,1,270,NaN,bear,bear,0.05,0270_nse_dnn_0.05_bear_10_n02134084_22029.png,n02134084_22029.png,1.0,-0.40591985,-0.5561269,0.10621242
alexnet_w1_mlp_simclrhn_probe2,1,271,NaN,knife,dog,0.60,0271_nse_dnn_0.60_dog_10_n02088238_11711.png,n02088238_11711.png,0.0,-5.265661,-0.91146314,-3.0788827
alexnet_w1_mlp_simclrhn_probe2,1,272,NaN,knife,elephant,0.20,0272_nse_dnn_0.20_elephant_10_n02504013_8522.png,n02504013_8522.png,0.0,-0.9209256,-0.7712123,-0.10586332
alexnet_w1_mlp_simclrhn_probe2,1,273,NaN,knife,elephant,0.60,0273_nse_dnn_0.60_elephant_10_n02504458_5941.png,n02504458_5941.png,0.0,-5.2022305,-0.78893185,-3.1206734
alexnet_w1_mlp_simclrhn_probe2,1,274,NaN,truck,truck,0.00,0274_nse_dnn_0.00_truck_10_n04467665_242.png,n04467665_242.png,1.0,2.5902858,1.4302001,0.82030445
alexnet_w1_mlp_simclrhn_probe2,1,275,NaN,keyboard,keyboard,0.00,0275_nse_dnn_0.00_keyboard_10_n04505470_4473.png,n04505470_4473.png,1.0,1.5310498,0.21808463,0.9284066
alexnet_w1_mlp_simclrhn_probe2,1,276,NaN,boat,boat,0.05,0276_nse_dnn_0.05_boat_10_n03662601_10811.png,n03662601_10811.png,1.0,-0.17544657,-0.5817563,0.28730437
alexnet_w1_mlp_simclrhn_probe2,1,277,NaN,oven,keyboard,0.03,0277_nse_dnn_0.03_keyboard_10_n03085013_20495.png,n03085013_20495.png,0.0,-0.07973783,0.17005803,-0.17663234
alexnet_w1_mlp_simclrhn_probe2,1,278,NaN,bicycle,bicycle,0.00,0278_nse_dnn_0.00_bicycle_10_n02835271_15038.png,n02835271_15038.png,1.0,3.9955788,-0.5139081,3.1886888
alexnet_w1_mlp_simclrhn_probe2,1,279,NaN,knife,bear,0.20,0279_nse_dnn_0.20_bear_10_n02134418_5271.png,n02134418_5271.png,0.0,-1.6748756,-0.4748506,-0.8485459
alexnet_w1_mlp_simclrhn_probe2,1,280,NaN,knife,chair,0.10,0280_nse_dnn_0.10_chair_10_n02791124_1217.png,n02791124_1217.png,0.0,-1.4700207,-0.24356623,-0.86723423
alexnet_w1_mlp_simclrhn_probe2,1,281,NaN,bear,elephant,0.10,0281_nse_dnn_0.10_elephant_10_n02504013_2394.png,n02504013_2394.png,0.0,-0.59253263,-0.5521822,-0.028532067
alexnet_w1_mlp_simclrhn_probe2,1,282,NaN,knife,dog,0.35,0282_nse_dnn_0.35_dog_10_n02105505_5576.png,n02105505_5576.png,0.0,-3.1271832,-0.70081556,-1.7157011
alexnet_w1_mlp_simclrhn_probe2,1,283,NaN,knife,airplane,0.10,0283_nse_dnn_0.10_airplane_10_n02690373_2579.png,n02690373_2579.png,0.0,-3.0121937,-0.54706895,-1.7431064
alexnet_w1_mlp_simclrhn_probe2,1,284,NaN,bear,dog,0.05,0284_nse_dnn_0.05_dog_10_n02102480_10015.png,n02102480_10015.png,0.0,-0.47723415,-0.10658495,-0.26208857
alexnet_w1_mlp_simclrhn_probe2,1,285,NaN,elephant,cat,0.10,0285_nse_dnn_0.10_cat_10_n02124075_5853.png,n02124075_5853.png,0.0,-0.93406326,-0.500843,-0.306333
alexnet_w1_mlp_simclrhn_probe2,1,286,NaN,airplane,truck,0.00,0286_nse_dnn_0.00_truck_10_n03796401_2012.png,n03796401_2012.png,0.0,0.22485489,0.78668475,-0.39727372
alexnet_w1_mlp_simclrhn_probe2,1,287,NaN,knife,keyboard,0.10,0287_nse_dnn_0.10_keyboard_10_n04505470_1286.png,n04505470_1286.png,0.0,-1.689475,-0.91477937,-0.5477926
alexnet_w1_mlp_simclrhn_probe2,1,288,NaN,oven,truck,0.10,0288_nse_dnn_0.10_truck_10_n04467665_74008.png,n04467665_74008.png,0.0,-1.6471604,-0.65309477,-0.70291054
alexnet_w1_mlp_simclrhn_probe2,1,289,NaN,knife,bottle,0.90,0289_nse_dnn_0.90_bottle_10_n04560804_10541.png,n04560804_10541.png,0.0,-3.7933998,-0.9778269,-1.9909108
alexnet_w1_mlp_simclrhn_probe2,1,290,NaN,knife,airplane,0.20,0290_nse_dnn_0.20_airplane_10_n02690373_8967.png,n02690373_8967.png,0.0,-3.9315147,-0.9254276,-2.1256247
alexnet_w1_mlp_simclrhn_probe2,1,291,NaN,knife,keyboard,0.60,0291_nse_dnn_0.60_keyboard_10_n04505470_3309.png,n04505470_3309.png,0.0,-5.334835,-1.3544025,-2.814591
alexnet_w1_mlp_simclrhn_probe2,1,292,NaN,car,car,0.05,0292_nse_dnn_0.05_car_10_n02814533_42665.png,n02814533_42665.png,1.0,1.4576272,0.9662902,0.34742773
alexnet_w1_mlp_simclrhn_probe2,1,293,NaN,knife,bicycle,0.03,0293_nse_dnn_0.03_bicycle_10_n03792782_6613.png,n03792782_6613.png,0.0,-1.0762906,-0.4684343,-0.4298193
alexnet_w1_mlp_simclrhn_probe2,1,294,NaN,knife,knife,0.00,0294_nse_dnn_0.00_knife_10_n03041632_38540.png,n03041632_38540.png,1.0,1.101222,-1.0293708,1.5065566
alexnet_w1_mlp_simclrhn_probe2,1,295,NaN,knife,dog,0.90,0295_nse_dnn_0.90_dog_10_n02109047_6542.png,n02109047_6542.png,0.0,-6.2451177,-1.1609951,-3.5950177
alexnet_w1_mlp_simclrhn_probe2,1,296,NaN,knife,bicycle,0.35,0296_nse_dnn_0.35_bicycle_10_n03792782_51156.png,n03792782_51156.png,0.0,-2.6792939,-1.7316482,-0.6700867
alexnet_w1_mlp_simclrhn_probe2,1,297,NaN,knife,bottle,0.10,0297_nse_dnn_0.10_bottle_10_n04579145_5795.png,n04579145_5795.png,0.0,-0.9977668,-0.23046108,-0.5425671
alexnet_w1_mlp_simclrhn_probe2,1,298,NaN,knife,chair,0.03,0298_nse_dnn_0.03_chair_10_n03376595_787.png,n03376595_787.png,0.0,-0.45270538,0.1636048,-0.43579713
alexnet_w1_mlp_simclrhn_probe2,1,299,NaN,knife,bottle,0.90,0299_nse_dnn_0.90_bottle_10_n04579145_1117.png,n04579145_1117.png,0.0,-3.9391763,-0.9413074,-2.1198134
alexnet_w1_mlp_simclrhn_probe2,1,300,NaN,bird,bird,0.00,0300_nse_dnn_0.00_bird_10_n01795545_11076.png,n01795545_11076.png,1.0,-0.48470476,-0.5403912,0.039376263
alexnet_w1_mlp_simclrhn_probe2,1,301,NaN,knife,clock,0.20,0301_nse_dnn_0.20_clock_10_n03196217_6741.png,n03196217_6741.png,0.0,-1.9021679,-0.8220532,-0.76375645
alexnet_w1_mlp_simclrhn_probe2,1,302,NaN,oven,oven,0.00,0302_nse_dnn_0.00_oven_10_n04111531_3555.png,n04111531_3555.png,1.0,0.5864626,0.037380874,0.38825944
alexnet_w1_mlp_simclrhn_probe2,1,303,NaN,knife,knife,0.20,0303_nse_dnn_0.20_knife_10_n03041632_36280.png,n03041632_36280.png,1.0,-0.28972197,-1.559199,0.89765584
alexnet_w1_mlp_simclrhn_probe2,1,304,NaN,truck,truck,0.03,0304_nse_dnn_0.03_truck_10_n04467665_74235.png,n04467665_74235.png,1.0,3.423421,1.7519192,1.1819303
alexnet_w1_mlp_simclrhn_probe2,1,305,NaN,knife,clock,0.90,0305_nse_dnn_0.90_clock_10_n04548280_6287.png,n04548280_6287.png,0.0,-4.096135,-1.0942775,-2.122634
alexnet_w1_mlp_simclrhn_probe2,1,306,NaN,elephant,elephant,0.00,0306_nse_dnn_0.00_elephant_10_n02504458_6472.png,n02504458_6472.png,1.0,2.80287,1.0717429,1.2240918
alexnet_w1_mlp_simclrhn_probe2,1,307,NaN,bicycle,bicycle,0.05,0307_nse_dnn_0.05_bicycle_10_n03792782_11034.png,n03792782_11034.png,1.0,0.6988416,-0.79692024,1.0576633
alexnet_w1_mlp_simclrhn_probe2,1,308,NaN,knife,dog,0.60,0308_nse_dnn_0.60_dog_10_n02109525_50916.png,n02109525_50916.png,0.0,-4.93862,-0.9125807,-2.8468397
alexnet_w1_mlp_simclrhn_probe2,1,309,NaN,knife,dog,0.60,0309_nse_dnn_0.60_dog_10_n02097658_1923.png,n02097658_1923.png,0.0,-5.17716,-0.929323,-3.003674
alexnet_w1_mlp_simclrhn_probe2,1,310,NaN,elephant,knife,0.03,0310_nse_dnn_0.03_knife_10_n03041632_22480.png,n03041632_22480.png,0.0,-0.9130136,0.2834217,-0.84600747
alexnet_w1_mlp_simclrhn_probe2,1,311,NaN,knife,elephant,0.35,0311_nse_dnn_0.35_elephant_10_n02504458_1041.png,n02504458_1041.png,0.0,-3.849964,-0.35912117,-2.4683986
alexnet_w1_mlp_simclrhn_probe2,1,312,NaN,elephant,knife,0.10,0312_nse_dnn_0.10_knife_10_n03041632_28129.png,n03041632_28129.png,0.0,-1.9553279,-0.4724954,-1.0485209
alexnet_w1_mlp_simclrhn_probe2,1,313,NaN,car,car,0.00,0313_nse_dnn_0.00_car_10_n03100240_14667.png,n03100240_14667.png,1.0,3.9000416,2.4791064,1.0047529
alexnet_w1_mlp_simclrhn_probe2,1,314,NaN,airplane,airplane,0.03,0314_nse_dnn_0.03_airplane_10_n02690373_3821.png,n02690373_3821.png,1.0,0.99266636,0.63656825,0.2517994
alexnet_w1_mlp_simclrhn_probe2,1,315,NaN,knife,cat,0.90,0315_nse_dnn_0.90_cat_10_n02124075_1183.png,n02124075_1183.png,0.0,-6.3448224,-1.1450686,-3.6767812
alexnet_w1_mlp_simclrhn_probe2,1,316,NaN,knife,car,0.90,0316_nse_dnn_0.90_car_10_n03100240_1194.png,n03100240_1194.png,0.0,-10.45108,-1.1185371,-6.599105
alexnet_w1_mlp_simclrhn_probe2,1,317,NaN,knife,oven,0.60,0317_nse_dnn_0.60_oven_10_n04111531_9370.png,n04111531_9370.png,0.0,-7.815073,-0.86187214,-4.9166555
alexnet_w1_mlp_simclrhn_probe2,1,318,NaN,knife,truck,0.20,0318_nse_dnn_0.20_truck_10_n03417042_10597.png,n03417042_10597.png,0.0,-3.420973,-0.5464566,-2.0325902
alexnet_w1_mlp_simclrhn_probe2,1,319,NaN,bicycle,truck,0.05,0319_nse_dnn_0.05_truck_10_n03417042_6489.png,n03417042_6489.png,0.0,-1.0709482,-0.06356382,-0.7123284
alexnet_w1_mlp_simclrhn_probe2,1,320,NaN,bicycle,bottle,0.05,0320_nse_dnn_0.05_bottle_10_n04591713_6662.png,n04591713_6662.png,0.0,-1.215359,-0.52724975,-0.4865667
alexnet_w1_mlp_simclrhn_probe2,1,321,NaN,knife,bottle,0.60,0321_nse_dnn_0.60_bottle_10_n04560804_4624.png,n04560804_4624.png,0.0,-3.053059,-1.0292332,-1.431061
alexnet_w1_mlp_simclrhn_probe2,1,322,NaN,bird,bird,0.00,0322_nse_dnn_0.00_bird_10_n01818515_7370.png,n01818515_7370.png,1.0,-0.14514701,-0.32776782,0.12913242
alexnet_w1_mlp_simclrhn_probe2,1,323,NaN,keyboard,keyboard,0.05,0323_nse_dnn_0.05_keyboard_10_n03085013_15646.png,n03085013_15646.png,1.0,0.58237237,-0.25116748,0.58940166
alexnet_w1_mlp_simclrhn_probe2,1,324,NaN,cat,cat,0.03,0324_nse_dnn_0.03_cat_10_n02124075_14924.png,n02124075_14924.png,1.0,0.8812925,-0.36210388,0.87921405
alexnet_w1_mlp_simclrhn_probe2,1,325,NaN,elephant,elephant,0.20,0325_nse_dnn_0.20_elephant_10_n02504013_18217.png,n02504013_18217.png,1.0,-0.40824315,-1.108976,0.49549294
alexnet_w1_mlp_simclrhn_probe2,1,326,NaN,knife,keyboard,0.35,0326_nse_dnn_0.35_keyboard_10_n04505470_4724.png,n04505470_4724.png,0.0,-2.8838367,-1.504288,-0.9754883
alexnet_w1_mlp_simclrhn_probe2,1,327,NaN,elephant,clock,0.20,0327_nse_dnn_0.20_clock_10_n04548280_9646.png,n04548280_9646.png,0.0,-2.0119607,-1.2456342,-0.5418747
alexnet_w1_mlp_simclrhn_probe2,1,328,NaN,knife,cat,0.35,0328_nse_dnn_0.35_cat_10_n02123394_6376.png,n02123394_6376.png,0.0,-3.0946627,-0.566654,-1.7875721
alexnet_w1_mlp_simclrhn_probe2,1,329,NaN,knife,elephant,0.35,0329_nse_dnn_0.35_elephant_10_n02504458_130.png,n02504458_130.png,0.0,-3.5989938,-0.6834115,-2.0616279
alexnet_w1_mlp_simclrhn_probe2,1,330,NaN,knife,cat,0.90,0330_nse_dnn_0.90_cat_10_n02124075_9291.png,n02124075_9291.png,0.0,-6.0497756,-1.0971506,-3.502035
alexnet_w1_mlp_simclrhn_probe2,1,331,NaN,knife,bird,0.10,0331_nse_dnn_0.10_bird_10_n02037110_3949.png,n02037110_3949.png,0.0,-0.485798,-0.35531372,-0.09226632
alexnet_w1_mlp_simclrhn_probe2,1,332,NaN,car,car,0.00,0332_nse_dnn_0.00_car_10_n04285008_10905.png,n04285008_10905.png,1.0,3.19339,2.2293832,0.68165565
alexnet_w1_mlp_simclrhn_probe2,1,333,NaN,elephant,chair,0.10,0333_nse_dnn_0.10_chair_10_n04429376_619.png,n04429376_619.png,0.0,-1.2198427,-0.5389711,-0.4814489
alexnet_w1_mlp_simclrhn_probe2,1,334,NaN,knife,boat,0.90,0334_nse_dnn_0.90_boat_10_n02951358_30335.png,n02951358_30335.png,0.0,-8.852422,-1.2172141,-5.398907
alexnet_w1_mlp_simclrhn_probe2,1,335,NaN,knife,oven,0.90,0335_nse_dnn_0.90_oven_10_n04111531_17995.png,n04111531_17995.png,0.0,-8.748426,-1.0511073,-5.4428267
alexnet_w1_mlp_simclrhn_probe2,1,336,NaN,knife,bird,0.35,0336_nse_dnn_0.35_bird_10_n01828970_11221.png,n01828970_11221.png,0.0,-2.5094733,-0.43012148,-1.4703238
alexnet_w1_mlp_simclrhn_probe2,1,337,NaN,elephant,elephant,0.10,0337_nse_dnn_0.10_elephant_10_n02504013_1719.png,n02504013_1719.png,1.0,0.10166903,-0.36743382,0.3317058
alexnet_w1_mlp_simclrhn_probe2,1,338,NaN,oven,oven,0.10,0338_nse_dnn_0.10_oven_10_n04111531_8009.png,n04111531_8009.png,1.0,-0.2787886,-0.33766064,0.041628823
alexnet_w1_mlp_simclrhn_probe2,1,339,NaN,knife,airplane,0.60,0339_nse_dnn_0.60_airplane_10_n02690373_8233.png,n02690373_8233.png,0.0,-11.172995,-0.9215353,-7.2488766
alexnet_w1_mlp_simclrhn_probe2,1,340,NaN,bear,dog,0.10,0340_nse_dnn_0.10_dog_10_n02092339_401.png,n02092339_401.png,0.0,-0.80223966,-0.62942106,-0.122201204
alexnet_w1_mlp_simclrhn_probe2,1,341,NaN,elephant,bottle,0.10,0341_nse_dnn_0.10_bottle_10_n02823428_11579.png,n02823428_11579.png,0.0,-1.1483457,-0.8827903,-0.18777601
alexnet_w1_mlp_simclrhn_probe2,1,342,NaN,knife,car,0.60,0342_nse_dnn_0.60_car_10_n04285008_6951.png,n04285008_6951.png,0.0,-8.743181,-0.6803782,-5.701263
alexnet_w1_mlp_simclrhn_probe2,1,343,NaN,knife,bicycle,0.35,0343_nse_dnn_0.35_bicycle_10_n03792782_12504.png,n03792782_12504.png,0.0,-3.8663065,-0.56810796,-2.3321786
alexnet_w1_mlp_simclrhn_probe2,1,344,NaN,bottle,bottle,0.00,0344_nse_dnn_0.00_bottle_10_n02823428_4073.png,n02823428_4073.png,1.0,0.8315469,-0.6428477,1.0425544
alexnet_w1_mlp_simclrhn_probe2,1,345,NaN,knife,elephant,0.35,0345_nse_dnn_0.35_elephant_10_n02504013_945.png,n02504013_945.png,0.0,-3.1385682,-0.4504301,-1.9008007
alexnet_w1_mlp_simclrhn_probe2,1,346,NaN,elephant,cat,0.10,0346_nse_dnn_0.10_cat_10_n02124075_12815.png,n02124075_12815.png,0.0,-0.8353197,-0.56046206,-0.1943537
alexnet_w1_mlp_simclrhn_probe2,1,347,NaN,knife,truck,0.60,0347_nse_dnn_0.60_truck_10_n03417042_4876.png,n03417042_4876.png,0.0,-8.382609,-1.1360462,-5.124094
alexnet_w1_mlp_simclrhn_probe2,1,348,NaN,chair,keyboard,0.05,0348_nse_dnn_0.05_keyboard_10_n04505470_4628.png,n04505470_4628.png,0.0,-2.3573067,1.033078,-2.3973641
alexnet_w1_mlp_simclrhn_probe2,1,349,NaN,knife,bear,0.20,0349_nse_dnn_0.20_bear_10_n02133161_1427.png,n02133161_1427.png,0.0,-2.013115,-0.6463182,-0.96647125
alexnet_w1_mlp_simclrhn_probe2,1,350,NaN,knife,boat,0.60,0350_nse_dnn_0.60_boat_10_n04273569_7296.png,n04273569_7296.png,0.0,-7.647896,-0.909335,-4.764882
alexnet_w1_mlp_simclrhn_probe2,1,351,NaN,knife,chair,0.90,0351_nse_dnn_0.90_chair_10_n04099969_41686.png,n04099969_41686.png,0.0,-5.1457205,-1.0370097,-2.9052973
alexnet_w1_mlp_simclrhn_probe2,1,352,NaN,bird,airplane,0.03,0352_nse_dnn_0.03_airplane_10_n02690373_10006.png,n02690373_10006.png,0.0,-1.8667011,-0.8122762,-0.7455911
alexnet_w1_mlp_simclrhn_probe2,1,353,NaN,knife,knife,0.90,0353_nse_dnn_0.90_knife_10_n03041632_20595.png,n03041632_20595.png,1.0,-1.2233088,-3.9273508,1.9120464
alexnet_w1_mlp_simclrhn_probe2,1,354,NaN,knife,oven,0.90,0354_nse_dnn_0.90_oven_10_n04111531_2054.png,n04111531_2054.png,0.0,-8.894712,-1.1173275,-5.4994416
alexnet_w1_mlp_simclrhn_probe2,1,355,NaN,oven,truck,0.20,0355_nse_dnn_0.20_truck_10_n04467665_40307.png,n04467665_40307.png,0.0,-3.6690295,-1.0837957,-1.8280363
alexnet_w1_mlp_simclrhn_probe2,1,356,NaN,bear,bear,0.00,0356_nse_dnn_0.00_bear_10_n02133161_396.png,n02133161_396.png,1.0,1.8583733,1.5880492,0.19114801
alexnet_w1_mlp_simclrhn_probe2,1,357,NaN,bear,dog,0.03,0357_nse_dnn_0.03_dog_10_n02105056_5636.png,n02105056_5636.png,0.0,-0.07812602,0.48498976,-0.398183
alexnet_w1_mlp_simclrhn_probe2,1,358,NaN,knife,bicycle,0.35,0358_nse_dnn_0.35_bicycle_10_n02835271_8798.png,n02835271_8798.png,0.0,-3.3921728,-1.1159075,-1.6095625
alexnet_w1_mlp_simclrhn_probe2,1,359,NaN,knife,bear,0.90,0359_nse_dnn_0.90_bear_10_n02134418_5478.png,n02134418_5478.png,0.0,-6.760215,-0.9748772,-4.0908513
alexnet_w1_mlp_simclrhn_probe2,1,360,NaN,knife,boat,0.90,0360_nse_dnn_0.90_boat_10_n04612504_4250.png,n04612504_4250.png,0.0,-9.0559845,-1.2365406,-5.529182
alexnet_w1_mlp_simclrhn_probe2,1,361,NaN,knife,knife,0.35,0361_nse_dnn_0.35_knife_10_n03041632_18959.png,n03041632_18959.png,1.0,-0.89531195,-2.3363795,1.0189887
alexnet_w1_mlp_simclrhn_probe2,1,362,NaN,knife,dog,0.35,0362_nse_dnn_0.35_dog_10_n02105251_6564.png,n02105251_6564.png,0.0,-3.4948804,-0.40214032,-2.1868975
alexnet_w1_mlp_simclrhn_probe2,1,363,NaN,knife,boat,0.90,0363_nse_dnn_0.90_boat_10_n04612504_7148.png,n04612504_7148.png,0.0,-8.444374,-1.0405234,-5.235313
alexnet_w1_mlp_simclrhn_probe2,1,364,NaN,knife,boat,0.03,0364_nse_dnn_0.03_boat_10_n04273569_4348.png,n04273569_4348.png,0.0,-0.30188924,0.027686313,-0.2330451
alexnet_w1_mlp_simclrhn_probe2,1,365,NaN,car,car,0.03,0365_nse_dnn_0.03_car_10_n02814533_88986.png,n02814533_88986.png,1.0,2.071044,1.1289605,0.6661536
alexnet_w1_mlp_simclrhn_probe2,1,366,NaN,bear,bear,0.03,0366_nse_dnn_0.03_bear_10_n02134418_2590.png,n02134418_2590.png,1.0,0.8987709,0.44623932,0.31998816
alexnet_w1_mlp_simclrhn_probe2,1,367,NaN,elephant,bird,0.20,0367_nse_dnn_0.20_bird_10_n02007558_5877.png,n02007558_5877.png,0.0,-1.1415056,-0.74571514,-0.27986613
alexnet_w1_mlp_simclrhn_probe2,1,368,NaN,clock,clock,0.05,0368_nse_dnn_0.05_clock_10_n02708093_1313.png,n02708093_1313.png,1.0,-0.316431,-1.1313205,0.5762139
alexnet_w1_mlp_simclrhn_probe2,1,369,NaN,knife,keyboard,0.35,0369_nse_dnn_0.35_keyboard_10_n03085013_20798.png,n03085013_20798.png,0.0,-2.9005504,-0.77883655,-1.5002784
alexnet_w1_mlp_simclrhn_probe2,1,370,NaN,knife,dog,0.90,0370_nse_dnn_0.90_dog_10_n02109525_13812.png,n02109525_13812.png,0.0,-6.2016115,-1.3927448,-3.4003823
alexnet_w1_mlp_simclrhn_probe2,1,371,NaN,bear,bear,0.20,0371_nse_dnn_0.20_bear_10_n02134418_4458.png,n02134418_4458.png,1.0,-1.3105998,-1.3742179,0.044984765
alexnet_w1_mlp_simclrhn_probe2,1,372,NaN,elephant,bottle,0.20,0372_nse_dnn_0.20_bottle_10_n04560804_21519.png,n04560804_21519.png,0.0,-1.957585,-1.2053814,-0.53188825
alexnet_w1_mlp_simclrhn_probe2,1,373,NaN,elephant,elephant,0.10,0373_nse_dnn_0.10_elephant_10_n02504458_8183.png,n02504458_8183.png,1.0,-0.1845977,-0.8079076,0.44074664
alexnet_w1_mlp_simclrhn_probe2,1,374,NaN,knife,keyboard,0.90,0374_nse_dnn_0.90_keyboard_10_n03085013_20330.png,n03085013_20330.png,0.0,-4.3668795,-1.0203706,-2.3663392
alexnet_w1_mlp_simclrhn_probe2,1,375,NaN,elephant,elephant,0.10,0375_nse_dnn_0.10_elephant_10_n02504013_5533.png,n02504013_5533.png,1.0,-0.21324795,-0.7496632,0.37930286
alexnet_w1_mlp_simclrhn_probe2,1,376,NaN,knife,oven,0.90,0376_nse_dnn_0.90_oven_10_n04111531_1009.png,n04111531_1009.png,0.0,-9.774966,-1.0391278,-6.1771703
alexnet_w1_mlp_simclrhn_probe2,1,377,NaN,bicycle,bicycle,0.05,0377_nse_dnn_0.05_bicycle_10_n03792782_48457.png,n03792782_48457.png,1.0,0.7186422,-0.9914657,1.2092289
alexnet_w1_mlp_simclrhn_probe2,1,378,NaN,elephant,cat,0.10,0378_nse_dnn_0.10_cat_10_n02124075_7240.png,n02124075_7240.png,0.0,-1.1498522,-0.9599364,-0.13429074
alexnet_w1_mlp_simclrhn_probe2,1,379,NaN,knife,car,0.60,0379_nse_dnn_0.60_car_10_n02814533_39597.png,n02814533_39597.png,0.0,-8.85077,-1.0203996,-5.536908
alexnet_w1_mlp_simclrhn_probe2,1,380,NaN,knife,chair,0.03,0380_nse_dnn_0.03_chair_10_n04429376_33792.png,n04429376_33792.png,0.0,-0.68122035,0.2812905,-0.68059796
alexnet_w1_mlp_simclrhn_probe2,1,381,NaN,knife,bicycle,0.60,0381_nse_dnn_0.60_bicycle_10_n03792782_15679.png,n03792782_15679.png,0.0,-5.9887824,-0.9416717,-3.5688462
alexnet_w1_mlp_simclrhn_probe2,1,382,NaN,knife,bicycle,0.60,0382_nse_dnn_0.60_bicycle_10_n02835271_9237.png,n02835271_9237.png,0.0,-5.325182,-1.060036,-3.015914
alexnet_w1_mlp_simclrhn_probe2,1,383,NaN,knife,bottle,0.35,0383_nse_dnn_0.35_bottle_10_n04591713_665.png,n04591713_665.png,0.0,-2.1647346,-1.2956189,-0.6145576
alexnet_w1_mlp_simclrhn_probe2,1,384,NaN,bear,cat,0.03,0384_nse_dnn_0.03_cat_10_n02123159_8257.png,n02123159_8257.png,0.0,-0.6175346,-0.44298458,-0.12342549
alexnet_w1_mlp_simclrhn_probe2,1,385,NaN,bear,dog,0.10,0385_nse_dnn_0.10_dog_10_n02108551_26509.png,n02108551_26509.png,0.0,-1.1389948,-0.4016552,-0.52137786
alexnet_w1_mlp_simclrhn_probe2,1,386,NaN,knife,clock,0.60,0386_nse_dnn_0.60_clock_10_n03196217_3697.png,n03196217_3697.png,0.0,-3.0261052,-0.8089033,-1.5677986
alexnet_w1_mlp_simclrhn_probe2,1,387,NaN,bicycle,bicycle,0.03,0387_nse_dnn_0.03_bicycle_10_n02835271_25268.png,n02835271_25268.png,1.0,1.002114,-0.8338461,1.2982199
alexnet_w1_mlp_simclrhn_probe2,1,388,NaN,oven,truck,0.10,0388_nse_dnn_0.10_truck_10_n03796401_407.png,n03796401_407.png,0.0,-3.6436684,-0.5249103,-2.205295
alexnet_w1_mlp_simclrhn_probe2,1,389,NaN,clock,clock,0.05,0389_nse_dnn_0.05_clock_10_n04548280_2045.png,n04548280_2045.png,1.0,0.37257767,-0.23114344,0.42689532
alexnet_w1_mlp_simclrhn_probe2,1,390,NaN,elephant,oven,0.05,0390_nse_dnn_0.05_oven_10_n04111531_5792.png,n04111531_5792.png,0.0,-0.28755054,-0.171433,-0.0821075
alexnet_w1_mlp_simclrhn_probe2,1,391,NaN,elephant,elephant,0.05,0391_nse_dnn_0.05_elephant_10_n02504458_8212.png,n02504458_8212.png,1.0,-0.10544345,-0.2675139,0.11460112
alexnet_w1_mlp_simclrhn_probe2,1,392,NaN,knife,bird,0.03,0392_nse_dnn_0.03_bird_10_n01843383_8624.png,n01843383_8624.png,0.0,-1.3560772,0.21131471,-1.1083134
alexnet_w1_mlp_simclrhn_probe2,1,393,NaN,knife,airplane,0.20,0393_nse_dnn_0.20_airplane_10_n02690373_4814.png,n02690373_4814.png,0.0,-4.4644504,-0.6739303,-2.6803026
alexnet_w1_mlp_simclrhn_probe2,1,394,NaN,knife,truck,0.60,0394_nse_dnn_0.60_truck_10_n03796401_6184.png,n03796401_6184.png,0.0,-8.578798,-1.0218034,-5.3436027
alexnet_w1_mlp_simclrhn_probe2,1,395,NaN,elephant,dog,0.03,0395_nse_dnn_0.03_dog_10_n02094114_1589.png,n02094114_1589.png,0.0,-0.2657679,-0.06474963,-0.14214139
alexnet_w1_mlp_simclrhn_probe2,1,396,NaN,knife,clock,0.90,0396_nse_dnn_0.90_clock_10_n02708093_6572.png,n02708093_6572.png,0.0,-3.9206266,-1.3882172,-1.7906839
alexnet_w1_mlp_simclrhn_probe2,1,397,NaN,knife,boat,0.60,0397_nse_dnn_0.60_boat_10_n02951358_15551.png,n02951358_15551.png,0.0,-8.126727,-0.9756868,-5.056549
alexnet_w1_mlp_simclrhn_probe2,1,398,NaN,knife,boat,0.35,0398_nse_dnn_0.35_boat_10_n03662601_7352.png,n03662601_7352.png,0.0,-4.1783185,-0.96508634,-2.2720983
alexnet_w1_mlp_simclrhn_probe2,1,399,NaN,knife,bicycle,0.60,0399_nse_dnn_0.60_bicycle_10_n03792782_14984.png,n03792782_14984.png,0.0,-6.3523426,-0.8138868,-3.9162798
alexnet_w1_mlp_simclrhn_probe2,1,400,NaN,knife,knife,0.35,0400_nse_dnn_0.35_knife_10_n03041632_84012.png,n03041632_84012.png,1.0,-1.3163038,-2.4122086,0.77492166
alexnet_w1_mlp_simclrhn_probe2,1,401,NaN,knife,keyboard,0.10,0401_nse_dnn_0.10_keyboard_10_n03085013_9146.png,n03085013_9146.png,0.0,-1.83662,-0.13849112,-1.2007585
alexnet_w1_mlp_simclrhn_probe2,1,402,NaN,knife,airplane,0.03,0402_nse_dnn_0.03_airplane_10_n02690373_6755.png,n02690373_6755.png,0.0,-1.0951174,-0.2720468,-0.5819988
alexnet_w1_mlp_simclrhn_probe2,1,403,NaN,knife,dog,0.20,0403_nse_dnn_0.20_dog_10_n02086079_17983.png,n02086079_17983.png,0.0,-2.0082908,-0.45018256,-1.101749
alexnet_w1_mlp_simclrhn_probe2,1,404,NaN,bear,bear,0.00,0404_nse_dnn_0.00_bear_10_n02134418_3284.png,n02134418_3284.png,1.0,1.3812176,0.63695943,0.52627003
alexnet_w1_mlp_simclrhn_probe2,1,405,NaN,knife,elephant,0.35,0405_nse_dnn_0.35_elephant_10_n02504458_8064.png,n02504458_8064.png,0.0,-2.1992462,-0.89069426,-0.92528594
alexnet_w1_mlp_simclrhn_probe2,1,406,NaN,knife,cat,0.20,0406_nse_dnn_0.20_cat_10_n02123394_289.png,n02123394_289.png,0.0,-1.6198648,-0.95808053,-0.46795216
alexnet_w1_mlp_simclrhn_probe2,1,407,NaN,knife,knife,0.20,0407_nse_dnn_0.20_knife_10_n03041632_18995.png,n03041632_18995.png,1.0,-0.5380386,-1.732947,0.84492785
alexnet_w1_mlp_simclrhn_probe2,1,408,NaN,knife,bird,0.03,0408_nse_dnn_0.03_bird_10_n01843065_4999.png,n01843065_4999.png,0.0,-0.9847824,0.06700611,-0.74372685
alexnet_w1_mlp_simclrhn_probe2,1,409,NaN,knife,keyboard,0.60,0409_nse_dnn_0.60_keyboard_10_n03085013_22417.png,n03085013_22417.png,0.0,-3.8158946,-1.0512426,-1.9549042
alexnet_w1_mlp_simclrhn_probe2,1,410,NaN,bear,bear,0.05,0410_nse_dnn_0.05_bear_10_n02132136_3224.png,n02132136_3224.png,1.0,-0.24097729,-0.47190666,0.16329172
alexnet_w1_mlp_simclrhn_probe2,1,411,NaN,bicycle,boat,0.05,0411_nse_dnn_0.05_boat_10_n03662601_33184.png,n03662601_33184.png,0.0,-1.063306,-0.6007081,-0.3271061
alexnet_w1_mlp_simclrhn_probe2,1,412,NaN,knife,bear,0.05,0412_nse_dnn_0.05_bear_10_n02133161_2396.png,n02133161_2396.png,0.0,-0.5293733,0.13596539,-0.4704655
alexnet_w1_mlp_simclrhn_probe2,1,413,NaN,knife,keyboard,0.35,0413_nse_dnn_0.35_keyboard_10_n03085013_24578.png,n03085013_24578.png,0.0,-2.9208755,-0.07765062,-2.0104637
alexnet_w1_mlp_simclrhn_probe2,1,414,NaN,knife,car,0.35,0414_nse_dnn_0.35_car_10_n02814533_4519.png,n02814533_4519.png,0.0,-5.853916,-0.58864313,-3.7231104
alexnet_w1_mlp_simclrhn_probe2,1,415,NaN,bottle,bottle,0.00,0415_nse_dnn_0.00_bottle_10_n03937543_2428.png,n03937543_2428.png,1.0,0.066100046,-0.048903074,0.08131949
alexnet_w1_mlp_simclrhn_probe2,1,416,NaN,elephant,dog,0.05,0416_nse_dnn_0.05_dog_10_n02091635_8296.png,n02091635_8296.png,0.0,-0.8463851,0.35571125,-0.8500105
alexnet_w1_mlp_simclrhn_probe2,1,417,NaN,knife,bottle,0.35,0417_nse_dnn_0.35_bottle_10_n03983396_11434.png,n03983396_11434.png,0.0,-2.1397088,-0.8109975,-0.93954074
alexnet_w1_mlp_simclrhn_probe2,1,418,NaN,bicycle,boat,0.00,0418_nse_dnn_0.00_boat_10_n02951358_7315.png,n02951358_7315.png,0.0,-0.5312506,0.14248583,-0.47640362
alexnet_w1_mlp_simclrhn_probe2,1,419,NaN,knife,bird,0.20,0419_nse_dnn_0.20_bird_10_n01860187_7297.png,n01860187_7297.png,0.0,-1.4059539,-1.1997291,-0.14582296
alexnet_w1_mlp_simclrhn_probe2,1,420,NaN,knife,oven,0.20,0420_nse_dnn_0.20_oven_10_n04111531_4250.png,n04111531_4250.png,0.0,-1.729425,-0.93895984,-0.5589433
alexnet_w1_mlp_simclrhn_probe2,1,421,NaN,knife,bear,0.20,0421_nse_dnn_0.20_bear_10_n02133161_9463.png,n02133161_9463.png,0.0,-1.4579912,-0.58062696,-0.62039024
alexnet_w1_mlp_simclrhn_probe2,1,422,NaN,bird,bird,0.00,0422_nse_dnn_0.00_bird_10_n02009229_4129.png,n02009229_4129.png,1.0,0.44320446,-0.13396227,0.40811852
alexnet_w1_mlp_simclrhn_probe2,1,423,NaN,knife,knife,0.10,0423_nse_dnn_0.10_knife_10_n03041632_30821.png,n03041632_30821.png,1.0,-0.2649472,-1.0652046,0.5658675
alexnet_w1_mlp_simclrhn_probe2,1,424,NaN,knife,cat,0.90,0424_nse_dnn_0.90_cat_10_n02123394_2490.png,n02123394_2490.png,0.0,-6.35438,-1.2474027,-3.6111784
alexnet_w1_mlp_simclrhn_probe2,1,425,NaN,dog,dog,0.00,0425_nse_dnn_0.00_dog_10_n02087394_2723.png,n02087394_2723.png,1.0,0.8220986,-0.19508886,0.71926016
alexnet_w1_mlp_simclrhn_probe2,1,426,NaN,knife,dog,0.90,0426_nse_dnn_0.90_dog_10_n02093754_5736.png,n02093754_5736.png,0.0,-6.586681,-1.0889043,-3.887515
alexnet_w1_mlp_simclrhn_probe2,1,427,NaN,knife,bottle,0.60,0427_nse_dnn_0.60_bottle_10_n02823428_9063.png,n02823428_9063.png,0.0,-3.1737206,-1.0521941,-1.5001458
alexnet_w1_mlp_simclrhn_probe2,1,428,NaN,knife,truck,0.60,0428_nse_dnn_0.60_truck_10_n04467665_20933.png,n04467665_20933.png,0.0,-8.477783,-0.84416246,-5.397785
alexnet_w1_mlp_simclrhn_probe2,1,429,NaN,knife,car,0.10,0429_nse_dnn_0.10_car_10_n03100240_5999.png,n03100240_5999.png,0.0,-4.7165933,0.02027373,-3.3494709
alexnet_w1_mlp_simclrhn_probe2,1,430,NaN,oven,oven,0.03,0430_nse_dnn_0.03_oven_10_n04111531_3671.png,n04111531_3671.png,1.0,0.0023984537,-0.0076349825,0.007094711
alexnet_w1_mlp_simclrhn_probe2,1,431,NaN,elephant,truck,0.05,0431_nse_dnn_0.05_truck_10_n03417042_7187.png,n03417042_7187.png,0.0,-1.683142,-0.44122428,-0.8781684
alexnet_w1_mlp_simclrhn_probe2,1,432,NaN,knife,bottle,0.35,0432_nse_dnn_0.35_bottle_10_n04557648_2954.png,n04557648_2954.png,0.0,-2.2142925,-0.7158016,-1.0595931
alexnet_w1_mlp_simclrhn_probe2,1,433,NaN,knife,elephant,0.35,0433_nse_dnn_0.35_elephant_10_n02504013_6645.png,n02504013_6645.png,0.0,-3.3967056,-0.57727337,-1.9936397
alexnet_w1_mlp_simclrhn_probe2,1,434,NaN,oven,keyboard,0.10,0434_nse_dnn_0.10_keyboard_10_n04505470_6876.png,n04505470_6876.png,0.0,-1.4738683,-0.629018,-0.59739935
alexnet_w1_mlp_simclrhn_probe2,1,435,NaN,elephant,bird,0.20,0435_nse_dnn_0.20_bird_10_n02056570_3286.png,n02056570_3286.png,0.0,-2.5244808,-1.1505152,-0.97154045
alexnet_w1_mlp_simclrhn_probe2,1,436,NaN,knife,bird,0.90,0436_nse_dnn_0.90_bird_10_n02037110_8826.png,n02037110_8826.png,0.0,-4.919291,-1.2089479,-2.6236088
alexnet_w1_mlp_simclrhn_probe2,1,437,NaN,car,car,0.00,0437_nse_dnn_0.00_car_10_n03100240_11400.png,n03100240_11400.png,1.0,2.4860675,2.084191,0.28416955
alexnet_w1_mlp_simclrhn_probe2,1,438,NaN,knife,bird,0.60,0438_nse_dnn_0.60_bird_10_n02018795_6389.png,n02018795_6389.png,0.0,-4.3634458,-0.8251393,-2.5019605
alexnet_w1_mlp_simclrhn_probe2,1,439,NaN,knife,oven,0.35,0439_nse_dnn_0.35_oven_10_n04111531_2458.png,n04111531_2458.png,0.0,-3.7032897,-0.91563797,-1.9711676
alexnet_w1_mlp_simclrhn_probe2,1,440,NaN,knife,cat,0.60,0440_nse_dnn_0.60_cat_10_n02123159_2256.png,n02123159_2256.png,0.0,-5.3407555,-0.9777061,-3.085142
alexnet_w1_mlp_simclrhn_probe2,1,441,NaN,elephant,elephant,0.03,0441_nse_dnn_0.03_elephant_10_n02504458_611.png,n02504458_611.png,1.0,4.1611342,2.1319962,1.4348173
alexnet_w1_mlp_simclrhn_probe2,1,442,NaN,elephant,knife,0.03,0442_nse_dnn_0.03_knife_10_n03041632_18141.png,n03041632_18141.png,0.0,-0.811664,1.3180164,-1.5059115
alexnet_w1_mlp_simclrhn_probe2,1,443,NaN,knife,bird,0.60,0443_nse_dnn_0.60_bird_10_n01843065_1871.png,n01843065_1871.png,0.0,-4.739978,-0.957382,-2.6746993
alexnet_w1_mlp_simclrhn_probe2,1,444,NaN,oven,bird,0.05,0444_nse_dnn_0.05_bird_10_n01833805_7361.png,n01833805_7361.png,0.0,-1.2919873,-0.12635832,-0.82422423
alexnet_w1_mlp_simclrhn_probe2,1,445,NaN,knife,elephant,0.20,0445_nse_dnn_0.20_elephant_10_n02504458_5827.png,n02504458_5827.png,0.0,-1.6385956,-1.1769888,-0.32640526
alexnet_w1_mlp_simclrhn_probe2,1,446,NaN,knife,bicycle,0.35,0446_nse_dnn_0.35_bicycle_10_n02835271_5825.png,n02835271_5825.png,0.0,-3.408134,-0.9405571,-1.7448405
alexnet_w1_mlp_simclrhn_probe2,1,447,NaN,knife,bear,0.90,0447_nse_dnn_0.90_bear_10_n02134084_12801.png,n02134084_12801.png,0.0,-7.017585,-1.1424136,-4.1543736
alexnet_w1_mlp_simclrhn_probe2,1,448,NaN,elephant,cat,0.10,0448_nse_dnn_0.10_cat_10_n02123394_3611.png,n02123394_3611.png,0.0,-0.91717315,-0.3303025,-0.41498023
alexnet_w1_mlp_simclrhn_probe2,1,449,NaN,knife,chair,0.35,0449_nse_dnn_0.35_chair_10_n04429376_9589.png,n04429376_9589.png,0.0,-2.928083,-0.66640073,-1.5992509
alexnet_w1_mlp_simclrhn_probe2,1,450,NaN,knife,cat,0.35,0450_nse_dnn_0.35_cat_10_n02123394_3885.png,n02123394_3885.png,0.0,-3.1244495,-0.70210147,-1.7128588
alexnet_w1_mlp_simclrhn_probe2,1,451,NaN,knife,elephant,0.90,0451_nse_dnn_0.90_elephant_10_n02504013_22633.png,n02504013_22633.png,0.0,-6.866502,-1.165785,-4.031016
alexnet_w1_mlp_simclrhn_probe2,1,452,NaN,knife,car,0.20,0452_nse_dnn_0.20_car_10_n02814533_2271.png,n02814533_2271.png,0.0,-4.0665984,-0.9567277,-2.1990106
alexnet_w1_mlp_simclrhn_probe2,1,453,NaN,elephant,truck,0.05,0453_nse_dnn_0.05_truck_10_n03417042_10150.png,n03417042_10150.png,0.0,-1.1495876,-0.44193602,-0.5003853
alexnet_w1_mlp_simclrhn_probe2,1,454,NaN,knife,oven,0.35,0454_nse_dnn_0.35_oven_10_n04111531_10583.png,n04111531_10583.png,0.0,-4.3229628,-0.58607763,-2.642377
alexnet_w1_mlp_simclrhn_probe2,1,455,NaN,bottle,bottle,0.03,0455_nse_dnn_0.03_bottle_10_n03937543_1602.png,n03937543_1602.png,1.0,1.840276,-0.5389849,1.6823916
alexnet_w1_mlp_simclrhn_probe2,1,456,NaN,knife,knife,0.03,0456_nse_dnn_0.03_knife_10_n03041632_3504.png,n03041632_3504.png,1.0,-0.32295215,-0.7320337,0.28926435
alexnet_w1_mlp_simclrhn_probe2,1,457,NaN,elephant,bicycle,0.03,0457_nse_dnn_0.03_bicycle_10_n03792782_1004.png,n03792782_1004.png,0.0,0.7050654,0.7426424,-0.026570933
alexnet_w1_mlp_simclrhn_probe2,1,458,NaN,cat,cat,0.05,0458_nse_dnn_0.05_cat_10_n02123394_8172.png,n02123394_8172.png,1.0,-0.36467806,-0.37290543,0.005817635
alexnet_w1_mlp_simclrhn_probe2,1,459,NaN,elephant,elephant,0.10,0459_nse_dnn_0.10_elephant_10_n02504013_156.png,n02504013_156.png,1.0,0.4666221,-0.53835535,0.71062636
alexnet_w1_mlp_simclrhn_probe2,1,460,NaN,oven,car,0.03,0460_nse_dnn_0.03_car_10_n04285008_5559.png,n04285008_5559.png,0.0,-1.4293089,0.21857944,-1.165233
alexnet_w1_mlp_simclrhn_probe2,1,461,NaN,knife,elephant,0.35,0461_nse_dnn_0.35_elephant_10_n02504458_6694.png,n02504458_6694.png,0.0,-2.415999,-0.782834,-1.154822
alexnet_w1_mlp_simclrhn_probe2,1,462,NaN,knife,car,0.90,0462_nse_dnn_0.90_car_10_n04285008_15003.png,n04285008_15003.png,0.0,-10.1347275,-0.90647656,-6.5253587
alexnet_w1_mlp_simclrhn_probe2,1,463,NaN,knife,chair,0.10,0463_nse_dnn_0.10_chair_10_n03376595_15723.png,n03376595_15723.png,0.0,-1.1165743,-0.38252926,-0.5190482
alexnet_w1_mlp_simclrhn_probe2,1,464,NaN,knife,knife,0.60,0464_nse_dnn_0.60_knife_10_n03041632_48816.png,n03041632_48816.png,1.0,-0.8745467,-3.3368297,1.741097
alexnet_w1_mlp_simclrhn_probe2,1,465,NaN,knife,chair,0.90,0465_nse_dnn_0.90_chair_10_n03376595_4142.png,n03376595_4142.png,0.0,-5.231415,-1.2734296,-2.7987182
alexnet_w1_mlp_simclrhn_probe2,1,466,NaN,knife,car,0.60,0466_nse_dnn_0.60_car_10_n04285008_2363.png,n04285008_2363.png,0.0,-8.882846,-0.8002838,-5.7152348
alexnet_w1_mlp_simclrhn_probe2,1,467,NaN,elephant,truck,0.10,0467_nse_dnn_0.10_truck_10_n03417042_7335.png,n03417042_7335.png,0.0,-3.180855,-0.5897713,-1.832173
alexnet_w1_mlp_simclrhn_probe2,1,468,NaN,oven,oven,0.00,0468_nse_dnn_0.00_oven_10_n04111531_6313.png,n04111531_6313.png,1.0,1.0479913,-0.12186407,0.8272127
alexnet_w1_mlp_simclrhn_probe2,1,469,NaN,elephant,bird,0.05,0469_nse_dnn_0.05_bird_10_n02033041_6728.png,n02033041_6728.png,0.0,-0.576588,-0.39175677,-0.1306954
alexnet_w1_mlp_simclrhn_probe2,1,470,NaN,oven,clock,0.00,0470_nse_dnn_0.00_clock_10_n04548280_1032.png,n04548280_1032.png,0.0,-2.2278996,-0.06985763,-1.5259662
alexnet_w1_mlp_simclrhn_probe2,1,471,NaN,knife,airplane,0.03,0471_nse_dnn_0.03_airplane_10_n02690373_1983.png,n02690373_1983.png,0.0,0.30444267,0.40589923,-0.07174062
alexnet_w1_mlp_simclrhn_probe2,1,472,NaN,chair,keyboard,0.00,0472_nse_dnn_0.00_keyboard_10_n03085013_23369.png,n03085013_23369.png,0.0,-0.858221,1.0720643,-1.3649178
alexnet_w1_mlp_simclrhn_probe2,1,473,NaN,knife,elephant,0.90,0473_nse_dnn_0.90_elephant_10_n02504458_2419.png,n02504458_2419.png,0.0,-7.220951,-1.0090795,-4.3924565
alexnet_w1_mlp_simclrhn_probe2,1,474,NaN,knife,truck,0.20,0474_nse_dnn_0.20_truck_10_n04467665_72022.png,n04467665_72022.png,0.0,-3.4085555,-0.7826529,-1.8567936
alexnet_w1_mlp_simclrhn_probe2,1,475,NaN,clock,bottle,0.05,0475_nse_dnn_0.05_bottle_10_n04579145_5289.png,n04579145_5289.png,0.0,-0.7331682,-0.23557572,-0.351851
alexnet_w1_mlp_simclrhn_probe2,1,476,NaN,clock,clock,0.05,0476_nse_dnn_0.05_clock_10_n02708093_2898.png,n02708093_2898.png,1.0,0.9597232,-1.0266873,1.4046043
alexnet_w1_mlp_simclrhn_probe2,1,477,NaN,bear,dog,0.20,0477_nse_dnn_0.20_dog_10_n02101556_4066.png,n02101556_4066.png,0.0,-1.8993706,-1.3576058,-0.38308552
alexnet_w1_mlp_simclrhn_probe2,1,478,NaN,knife,car,0.90,0478_nse_dnn_0.90_car_10_n04285008_17052.png,n04285008_17052.png,0.0,-10.455146,-1.1335218,-6.5913835
alexnet_w1_mlp_simclrhn_probe2,1,479,NaN,knife,truck,0.90,0479_nse_dnn_0.90_truck_10_n04467665_37811.png,n04467665_37811.png,0.0,-10.802633,-0.8046671,-7.0696297
alexnet_w1_mlp_simclrhn_probe2,1,480,NaN,oven,keyboard,0.20,0480_nse_dnn_0.20_keyboard_10_n04505470_578.png,n04505470_578.png,0.0,-3.959343,-0.6480789,-2.3414173
alexnet_w1_mlp_simclrhn_probe2,1,481,NaN,oven,cat,0.10,0481_nse_dnn_0.10_cat_10_n02123045_2721.png,n02123045_2721.png,0.0,-1.8902817,-1.4390516,-0.31906784
alexnet_w1_mlp_simclrhn_probe2,1,482,NaN,knife,car,0.10,0482_nse_dnn_0.10_car_10_n04285008_7776.png,n04285008_7776.png,0.0,-2.9731598,0.18441454,-2.2327423
alexnet_w1_mlp_simclrhn_probe2,1,483,NaN,knife,bottle,0.90,0483_nse_dnn_0.90_bottle_10_n04591713_2014.png,n04591713_2014.png,0.0,-3.6649952,-1.0254099,-1.8664687
alexnet_w1_mlp_simclrhn_probe2,1,484,NaN,elephant,bottle,0.10,0484_nse_dnn_0.10_bottle_10_n03983396_9662.png,n03983396_9662.png,0.0,-0.80183804,0.01337092,-0.5764398
alexnet_w1_mlp_simclrhn_probe2,1,485,NaN,knife,bicycle,0.35,0485_nse_dnn_0.35_bicycle_10_n03792782_10367.png,n03792782_10367.png,0.0,-3.7442517,-0.70683324,-2.1477792
alexnet_w1_mlp_simclrhn_probe2,1,486,NaN,knife,keyboard,0.60,0486_nse_dnn_0.60_keyboard_10_n03085013_22942.png,n03085013_22942.png,0.0,-3.7979822,-0.8728764,-2.0683622
alexnet_w1_mlp_simclrhn_probe2,1,487,NaN,cat,cat,0.00,0487_nse_dnn_0.00_cat_10_n02123597_3896.png,n02123597_3896.png,1.0,-0.3577722,-0.6564466,0.21119468
alexnet_w1_mlp_simclrhn_probe2,1,488,NaN,bicycle,bicycle,0.03,0488_nse_dnn_0.03_bicycle_10_n03792782_2649.png,n03792782_2649.png,1.0,0.4734885,-0.68508047,0.819232
alexnet_w1_mlp_simclrhn_probe2,1,489,NaN,bear,bear,0.10,0489_nse_dnn_0.10_bear_10_n02133161_2476.png,n02133161_2476.png,1.0,-0.35376072,-0.6477299,0.2078676
alexnet_w1_mlp_simclrhn_probe2,1,490,NaN,knife,car,0.10,0490_nse_dnn_0.10_car_10_n04285008_7249.png,n04285008_7249.png,0.0,-3.949228,-1.299391,-1.8737178
alexnet_w1_mlp_simclrhn_probe2,1,491,NaN,elephant,chair,0.20,0491_nse_dnn_0.20_chair_10_n04099969_8604.png,n04099969_8604.png,0.0,-1.6458273,-0.86781174,-0.5501401
alexnet_w1_mlp_simclrhn_probe2,1,492,NaN,bicycle,bicycle,0.05,0492_nse_dnn_0.05_bicycle_10_n02835271_5963.png,n02835271_5963.png,1.0,0.18198036,-0.71950364,0.63744545
alexnet_w1_mlp_simclrhn_probe2,1,493,NaN,knife,airplane,0.90,0493_nse_dnn_0.90_airplane_10_n02690373_17011.png,n02690373_17011.png,0.0,-12.090338,-0.86766315,-7.9356294
alexnet_w1_mlp_simclrhn_probe2,1,494,NaN,knife,bird,0.90,0494_nse_dnn_0.90_bird_10_n02028035_889.png,n02028035_889.png,0.0,-5.262219,-1.3512135,-2.7654986
alexnet_w1_mlp_simclrhn_probe2,1,495,NaN,knife,cat,0.60,0495_nse_dnn_0.60_cat_10_n02123159_7949.png,n02123159_7949.png,0.0,-5.3920064,-1.0430198,-3.075198
alexnet_w1_mlp_simclrhn_probe2,1,496,NaN,car,car,0.03,0496_nse_dnn_0.03_car_10_n03100240_15686.png,n03100240_15686.png,1.0,2.2160153,2.2004013,0.011040789
alexnet_w1_mlp_simclrhn_probe2,1,497,NaN,knife,cat,0.35,0497_nse_dnn_0.35_cat_10_n02123159_6106.png,n02123159_6106.png,0.0,-3.054471,-0.9931781,-1.4575542
alexnet_w1_mlp_simclrhn_probe2,1,498,NaN,cat,cat,0.00,0498_nse_dnn_0.00_cat_10_n02123394_7105.png,n02123394_7105.png,1.0,0.100095876,-0.38546184,0.34334114
alexnet_w1_mlp_simclrhn_probe2,1,499,NaN,knife,clock,0.35,0499_nse_dnn_0.35_clock_10_n04548280_4747.png,n04548280_4747.png,0.0,-3.059081,-1.1517632,-1.3486774
alexnet_w1_mlp_simclrhn_probe2,1,500,NaN,knife,elephant,0.20,0500_nse_dnn_0.20_elephant_10_n02504458_975.png,n02504458_975.png,0.0,-1.3916559,-1.2873244,-0.07377351
alexnet_w1_mlp_simclrhn_probe2,1,501,NaN,oven,boat,0.20,0501_nse_dnn_0.20_boat_10_n03344393_11590.png,n03344393_11590.png,0.0,-3.9274132,-0.8705975,-2.1614952
alexnet_w1_mlp_simclrhn_probe2,1,502,NaN,knife,airplane,0.90,0502_nse_dnn_0.90_airplane_10_n02690373_2026.png,n02690373_2026.png,0.0,-12.408659,-1.0579896,-8.026135
alexnet_w1_mlp_simclrhn_probe2,1,503,NaN,knife,clock,0.60,0503_nse_dnn_0.60_clock_10_n03196217_2346.png,n03196217_2346.png,0.0,-3.0259914,-0.7866617,-1.5834453
alexnet_w1_mlp_simclrhn_probe2,1,504,NaN,knife,truck,0.60,0504_nse_dnn_0.60_truck_10_n04467665_34932.png,n04467665_34932.png,0.0,-9.000223,-0.6488501,-5.9053125
alexnet_w1_mlp_simclrhn_probe2,1,505,NaN,knife,oven,0.35,0505_nse_dnn_0.35_oven_10_n04111531_13625.png,n04111531_13625.png,0.0,-4.262228,-0.74834824,-2.4846883
alexnet_w1_mlp_simclrhn_probe2,1,506,NaN,airplane,airplane,0.00,0506_nse_dnn_0.00_airplane_10_n02690373_8666.png,n02690373_8666.png,1.0,1.5641837,-0.27632487,1.3014361
alexnet_w1_mlp_simclrhn_probe2,1,507,NaN,knife,oven,0.35,0507_nse_dnn_0.35_oven_10_n04111531_4148.png,n04111531_4148.png,0.0,-4.4930816,-0.28209573,-2.9776165
alexnet_w1_mlp_simclrhn_probe2,1,508,NaN,dog,dog,0.00,0508_nse_dnn_0.00_dog_10_n02107683_7021.png,n02107683_7021.png,1.0,0.42658353,-0.4433813,0.615158
alexnet_w1_mlp_simclrhn_probe2,1,509,NaN,oven,bird,0.05,0509_nse_dnn_0.05_bird_10_n02025239_22440.png,n02025239_22440.png,0.0,-0.8362296,-0.62990475,-0.14589372
alexnet_w1_mlp_simclrhn_probe2,1,510,NaN,knife,elephant,0.90,0510_nse_dnn_0.90_elephant_10_n02504013_7032.png,n02504013_7032.png,0.0,-6.543269,-1.0443807,-3.8883014
alexnet_w1_mlp_simclrhn_probe2,1,511,NaN,knife,truck,0.90,0511_nse_dnn_0.90_truck_10_n03417042_10788.png,n03417042_10788.png,0.0,-10.090637,-1.1189682,-6.3439283
alexnet_w1_mlp_simclrhn_probe2,1,512,NaN,knife,knife,0.05,0512_nse_dnn_0.05_knife_10_n03041632_86118.png,n03041632_86118.png,1.0,-0.24819733,-0.65820086,0.28991628
alexnet_w1_mlp_simclrhn_probe2,1,513,NaN,clock,bottle,0.00,0513_nse_dnn_0.00_bottle_10_n04557648_9790.png,n04557648_9790.png,0.0,-0.21216266,-0.058196556,-0.10887048
alexnet_w1_mlp_simclrhn_probe2,1,514,NaN,knife,chair,0.90,0514_nse_dnn_0.90_chair_10_n02791124_8788.png,n02791124_8788.png,0.0,-5.153844,-1.0910511,-2.8728285
alexnet_w1_mlp_simclrhn_probe2,1,515,NaN,cat,dog,0.03,0515_nse_dnn_0.03_dog_10_n02095314_4996.png,n02095314_4996.png,0.0,-1.0872259,-0.3988571,-0.48675025
alexnet_w1_mlp_simclrhn_probe2,1,516,NaN,knife,keyboard,0.20,0516_nse_dnn_0.20_keyboard_10_n04505470_4679.png,n04505470_4679.png,0.0,-1.9557766,-0.7364744,-0.86217684
alexnet_w1_mlp_simclrhn_probe2,1,517,NaN,elephant,bird,0.03,0517_nse_dnn_0.03_bird_10_n01860187_24935.png,n01860187_24935.png,0.0,-0.5178399,-0.2486206,-0.1903668
alexnet_w1_mlp_simclrhn_probe2,1,518,NaN,knife,bicycle,0.60,0518_nse_dnn_0.60_bicycle_10_n02835271_14123.png,n02835271_14123.png,0.0,-6.2398434,-0.8445712,-3.8150337
alexnet_w1_mlp_simclrhn_probe2,1,519,NaN,knife,boat,0.10,0519_nse_dnn_0.10_boat_10_n03344393_7075.png,n03344393_7075.png,0.0,-1.0252787,0.05930793,-0.76691854
alexnet_w1_mlp_simclrhn_probe2,1,520,NaN,knife,knife,0.03,0520_nse_dnn_0.03_knife_10_n03041632_13130.png,n03041632_13130.png,1.0,0.7596879,-1.3264617,1.4751307
alexnet_w1_mlp_simclrhn_probe2,1,521,NaN,knife,bottle,0.20,0521_nse_dnn_0.20_bottle_10_n04591713_5569.png,n04591713_5569.png,0.0,-2.0001829,-0.4339921,-1.1074641
alexnet_w1_mlp_simclrhn_probe2,1,522,NaN,elephant,elephant,0.05,0522_nse_dnn_0.05_elephant_10_n02504013_19753.png,n02504013_19753.png,1.0,0.8338944,-0.16060418,0.7032167
alexnet_w1_mlp_simclrhn_probe2,1,523,NaN,knife,dog,0.60,0523_nse_dnn_0.60_dog_10_n02099849_4819.png,n02099849_4819.png,0.0,-5.5741053,-1.0057058,-3.2303462
alexnet_w1_mlp_simclrhn_probe2,1,524,NaN,knife,elephant,0.90,0524_nse_dnn_0.90_elephant_10_n02504458_12938.png,n02504458_12938.png,0.0,-6.8903146,-1.2023983,-4.021964
alexnet_w1_mlp_simclrhn_probe2,1,525,NaN,bottle,bottle,0.03,0525_nse_dnn_0.03_bottle_10_n02823428_901.png,n02823428_901.png,1.0,1.2192838,-0.49414086,1.2115742
alexnet_w1_mlp_simclrhn_probe2,1,526,NaN,car,bicycle,0.00,0526_nse_dnn_0.00_bicycle_10_n03792782_2024.png,n03792782_2024.png,0.0,0.44292372,1.447958,-0.71066654
alexnet_w1_mlp_simclrhn_probe2,1,527,NaN,oven,truck,0.05,0527_nse_dnn_0.05_truck_10_n03417042_24856.png,n03417042_24856.png,0.0,-1.9276012,-0.14041303,-1.2637329
alexnet_w1_mlp_simclrhn_probe2,1,528,NaN,elephant,elephant,0.00,0528_nse_dnn_0.00_elephant_10_n02504013_19694.png,n02504013_19694.png,1.0,3.9949696,1.5316672,1.7418178
alexnet_w1_mlp_simclrhn_probe2,1,529,NaN,knife,bird,0.20,0529_nse_dnn_0.20_bird_10_n01530575_10119.png,n01530575_10119.png,0.0,-1.2382301,-0.6848519,-0.3912975
alexnet_w1_mlp_simclrhn_probe2,1,530,NaN,elephant,bottle,0.20,0530_nse_dnn_0.20_bottle_10_n04557648_954.png,n04557648_954.png,0.0,-1.6488663,-0.92516744,-0.5117324
alexnet_w1_mlp_simclrhn_probe2,1,531,NaN,knife,cat,0.90,0531_nse_dnn_0.90_cat_10_n02123159_277.png,n02123159_277.png,0.0,-5.839663,-1.1542877,-3.3130608
alexnet_w1_mlp_simclrhn_probe2,1,532,NaN,knife,knife,0.00,0532_nse_dnn_0.00_knife_10_n03041632_289.png,n03041632_289.png,1.0,0.4892444,0.014172852,0.33592632
alexnet_w1_mlp_simclrhn_probe2,1,533,NaN,knife,truck,0.35,0533_nse_dnn_0.35_truck_10_n04467665_450.png,n04467665_450.png,0.0,-5.795286,-0.64393973,-3.642552
alexnet_w1_mlp_simclrhn_probe2,1,534,NaN,knife,knife,0.00,0534_nse_dnn_0.00_knife_10_n03041632_1607.png,n03041632_1607.png,1.0,0.29160234,-1.15549,1.0232489
alexnet_w1_mlp_simclrhn_probe2,1,535,NaN,knife,bird,0.20,0535_nse_dnn_0.20_bird_10_n01532829_4692.png,n01532829_4692.png,0.0,-1.6830949,-1.1685888,-0.36381075
alexnet_w1_mlp_simclrhn_probe2,1,536,NaN,elephant,dog,0.10,0536_nse_dnn_0.10_dog_10_n02102177_4771.png,n02102177_4771.png,0.0,-1.3667091,0.37391335,-1.230806
alexnet_w1_mlp_simclrhn_probe2,1,537,NaN,knife,car,0.10,0537_nse_dnn_0.10_car_10_n04285008_14554.png,n04285008_14554.png,0.0,-3.5885258,-0.8281069,-1.951911
alexnet_w1_mlp_simclrhn_probe2,1,538,NaN,clock,clock,0.00,0538_nse_dnn_0.00_clock_10_n04548280_3716.png,n04548280_3716.png,1.0,0.4539856,-0.33539915,0.5581793
alexnet_w1_mlp_simclrhn_probe2,1,539,NaN,car,car,0.03,0539_nse_dnn_0.03_car_10_n04285008_6849.png,n04285008_6849.png,1.0,-0.29778948,-0.39338192,0.067594066
alexnet_w1_mlp_simclrhn_probe2,1,540,NaN,knife,keyboard,0.35,0540_nse_dnn_0.35_keyboard_10_n03085013_24467.png,n03085013_24467.png,0.0,-3.286621,-0.71510106,-1.8183393
alexnet_w1_mlp_simclrhn_probe2,1,541,NaN,knife,clock,0.35,0541_nse_dnn_0.35_clock_10_n03196217_6672.png,n03196217_6672.png,0.0,-2.0746477,-0.316985,-1.2428552
alexnet_w1_mlp_simclrhn_probe2,1,542,NaN,bear,dog,0.10,0542_nse_dnn_0.10_dog_10_n02105251_5570.png,n02105251_5570.png,0.0,-1.4816487,-0.4260369,-0.74643034
alexnet_w1_mlp_simclrhn_probe2,1,543,NaN,knife,dog,0.35,0543_nse_dnn_0.35_dog_10_n02107574_3352.png,n02107574_3352.png,0.0,-3.1633961,-1.2619526,-1.3445235
alexnet_w1_mlp_simclrhn_probe2,1,544,NaN,knife,boat,0.60,0544_nse_dnn_0.60_boat_10_n03662601_8191.png,n03662601_8191.png,0.0,-6.9767776,-0.5885129,-4.517185
alexnet_w1_mlp_simclrhn_probe2,1,545,NaN,boat,boat,0.00,0545_nse_dnn_0.00_boat_10_n04612504_30617.png,n04612504_30617.png,1.0,1.9158623,1.4909499,0.3004585
alexnet_w1_mlp_simclrhn_probe2,1,546,NaN,knife,bear,0.60,0546_nse_dnn_0.60_bear_10_n02132136_2900.png,n02132136_2900.png,0.0,-5.816226,-0.72844154,-3.597607
alexnet_w1_mlp_simclrhn_probe2,1,547,NaN,oven,truck,0.10,0547_nse_dnn_0.10_truck_10_n03417042_8139.png,n03417042_8139.png,0.0,-3.5036929,-0.8605449,-1.8689879
alexnet_w1_mlp_simclrhn_probe2,1,548,NaN,knife,chair,0.03,0548_nse_dnn_0.03_chair_10_n03376595_5112.png,n03376595_5112.png,0.0,-0.66086173,-0.65481704,-0.0042742384
alexnet_w1_mlp_simclrhn_probe2,1,549,NaN,bird,bird,0.05,0549_nse_dnn_0.05_bird_10_n02006656_10360.png,n02006656_10360.png,1.0,-0.5254159,-0.8239675,0.21110788
alexnet_w1_mlp_simclrhn_probe2,1,550,NaN,knife,elephant,0.20,0550_nse_dnn_0.20_elephant_10_n02504458_2799.png,n02504458_2799.png,0.0,-1.5805451,-0.5969502,-0.69550663
alexnet_w1_mlp_simclrhn_probe2,1,551,NaN,knife,airplane,0.10,0551_nse_dnn_0.10_airplane_10_n02690373_6096.png,n02690373_6096.png,0.0,-2.3040237,-0.4536011,-1.3084464
alexnet_w1_mlp_simclrhn_probe2,1,552,NaN,knife,bird,0.20,0552_nse_dnn_0.20_bird_10_n02002556_139.png,n02002556_139.png,0.0,-1.3695114,-1.1312902,-0.1684478
alexnet_w1_mlp_simclrhn_probe2,1,553,NaN,car,car,0.00,0553_nse_dnn_0.00_car_10_n04285008_3056.png,n04285008_3056.png,1.0,0.7890425,0.5297565,0.18334289
alexnet_w1_mlp_simclrhn_probe2,1,554,NaN,knife,knife,0.10,0554_nse_dnn_0.10_knife_10_n03041632_14774.png,n03041632_14774.png,1.0,0.13001034,-1.0218234,0.81446946
alexnet_w1_mlp_simclrhn_probe2,1,555,NaN,knife,oven,0.20,0555_nse_dnn_0.20_oven_10_n04111531_2163.png,n04111531_2163.png,0.0,-1.8748727,-1.0650615,-0.572623
alexnet_w1_mlp_simclrhn_probe2,1,556,NaN,knife,cat,0.20,0556_nse_dnn_0.20_cat_10_n02123597_30864.png,n02123597_30864.png,0.0,-2.0709648,-0.6834511,-0.98112035
alexnet_w1_mlp_simclrhn_probe2,1,557,NaN,knife,boat,0.35,0557_nse_dnn_0.35_boat_10_n02951358_33559.png,n02951358_33559.png,0.0,-4.2219644,-0.7769233,-2.436012
alexnet_w1_mlp_simclrhn_probe2,1,558,NaN,knife,bicycle,0.60,0558_nse_dnn_0.60_bicycle_10_n02835271_4619.png,n02835271_4619.png,0.0,-6.7225876,-0.8884185,-4.1253805
alexnet_w1_mlp_simclrhn_probe2,1,559,NaN,knife,truck,0.03,0559_nse_dnn_0.03_truck_10_n03796401_21261.png,n03796401_21261.png,0.0,-0.79788053,-0.4794329,-0.22517647
alexnet_w1_mlp_simclrhn_probe2,1,560,NaN,knife,airplane,0.10,0560_nse_dnn_0.10_airplane_10_n02690373_2496.png,n02690373_2496.png,0.0,-2.754673,-0.27742964,-1.7516756
alexnet_w1_mlp_simclrhn_probe2,1,561,NaN,knife,boat,0.35,0561_nse_dnn_0.35_boat_10_n03662601_5419.png,n03662601_5419.png,0.0,-4.87506,-0.65982115,-2.9806242
alexnet_w1_mlp_simclrhn_probe2,1,562,NaN,airplane,airplane,0.03,0562_nse_dnn_0.03_airplane_10_n02690373_7686.png,n02690373_7686.png,1.0,1.2616687,1.0059854,0.1807954
alexnet_w1_mlp_simclrhn_probe2,1,563,NaN,knife,oven,0.90,0563_nse_dnn_0.90_oven_10_n04111531_5246.png,n04111531_5246.png,0.0,-9.3490925,-0.86441195,-5.999575
alexnet_w1_mlp_simclrhn_probe2,1,564,NaN,knife,bicycle,0.60,0564_nse_dnn_0.60_bicycle_10_n03792782_1099.png,n03792782_1099.png,0.0,-5.5523276,-0.95403147,-3.2514865
alexnet_w1_mlp_simclrhn_probe2,1,565,NaN,knife,chair,0.35,0565_nse_dnn_0.35_chair_10_n04099969_12909.png,n04099969_12909.png,0.0,-3.693143,-1.2566952,-1.7228286
alexnet_w1_mlp_simclrhn_probe2,1,566,NaN,elephant,elephant,0.03,0566_nse_dnn_0.03_elephant_10_n02504013_7147.png,n02504013_7147.png,1.0,-0.1171125,-0.14346969,0.018637348
alexnet_w1_mlp_simclrhn_probe2,1,567,NaN,knife,truck,0.35,0567_nse_dnn_0.35_truck_10_n04467665_44715.png,n04467665_44715.png,0.0,-5.186901,-1.3811153,-2.6910968
alexnet_w1_mlp_simclrhn_probe2,1,568,NaN,keyboard,keyboard,0.00,0568_nse_dnn_0.00_keyboard_10_n04505470_1338.png,n04505470_1338.png,1.0,1.9189026,0.030725837,1.3351426
alexnet_w1_mlp_simclrhn_probe2,1,569,NaN,knife,airplane,0.90,0569_nse_dnn_0.90_airplane_10_n02690373_4982.png,n02690373_4982.png,0.0,-12.997486,-0.8890359,-8.561967
alexnet_w1_mlp_simclrhn_probe2,1,570,NaN,knife,bicycle,0.90,0570_nse_dnn_0.90_bicycle_10_n03792782_3754.png,n03792782_3754.png,0.0,-7.4171944,-0.8122425,-4.6704063
alexnet_w1_mlp_simclrhn_probe2,1,571,NaN,elephant,bicycle,0.00,0571_nse_dnn_0.00_bicycle_10_n03792782_1418.png,n03792782_1418.png,0.0,0.016179115,0.23508155,-0.1547874
alexnet_w1_mlp_simclrhn_probe2,1,572,NaN,chair,truck,0.03,0572_nse_dnn_0.03_truck_10_n03796401_26359.png,n03796401_26359.png,0.0,-0.8612009,-0.17496407,-0.48524275
alexnet_w1_mlp_simclrhn_probe2,1,573,NaN,oven,car,0.05,0573_nse_dnn_0.05_car_10_n03100240_9149.png,n03100240_9149.png,0.0,-2.1613188,0.0470405,-1.5615458
alexnet_w1_mlp_simclrhn_probe2,1,574,NaN,knife,bird,0.90,0574_nse_dnn_0.90_bird_10_n01534433_14677.png,n01534433_14677.png,0.0,-5.159396,-0.9943582,-2.9451268
alexnet_w1_mlp_simclrhn_probe2,1,575,NaN,bicycle,car,0.03,0575_nse_dnn_0.03_car_10_n03100240_8683.png,n03100240_8683.png,0.0,0.27186733,0.28229135,-0.007370894
alexnet_w1_mlp_simclrhn_probe2,1,576,NaN,bicycle,chair,0.03,0576_nse_dnn_0.03_chair_10_n03376595_524.png,n03376595_524.png,0.0,0.1262201,1.974915,-1.3072248
alexnet_w1_mlp_simclrhn_probe2,1,577,NaN,elephant,dog,0.20,0577_nse_dnn_0.20_dog_10_n02094433_6402.png,n02094433_6402.png,0.0,-2.0701096,-0.85299057,-0.8606331
alexnet_w1_mlp_simclrhn_probe2,1,578,NaN,knife,car,0.20,0578_nse_dnn_0.20_car_10_n03100240_16803.png,n03100240_16803.png,0.0,-4.5339136,-1.1108422,-2.420477
alexnet_w1_mlp_simclrhn_probe2,1,579,NaN,bear,bicycle,0.20,0579_nse_dnn_0.20_bicycle_10_n03792782_15114.png,n03792782_15114.png,0.0,-1.4084308,-0.68273383,-0.51314527
alexnet_w1_mlp_simclrhn_probe2,1,580,NaN,knife,chair,0.60,0580_nse_dnn_0.60_chair_10_n04429376_21362.png,n04429376_21362.png,0.0,-4.4054675,-0.7115805,-2.6119726
alexnet_w1_mlp_simclrhn_probe2,1,581,NaN,knife,keyboard,0.90,0581_nse_dnn_0.90_keyboard_10_n04505470_3499.png,n04505470_3499.png,0.0,-4.876416,-1.2564237,-2.5597212
alexnet_w1_mlp_simclrhn_probe2,1,582,NaN,knife,boat,0.90,0582_nse_dnn_0.90_boat_10_n04273569_26577.png,n04273569_26577.png,0.0,-9.109363,-0.9293326,-5.784155
alexnet_w1_mlp_simclrhn_probe2,1,583,NaN,knife,boat,0.10,0583_nse_dnn_0.10_boat_10_n04273569_27325.png,n04273569_27325.png,0.0,-1.6010805,-0.5236442,-0.7618626
alexnet_w1_mlp_simclrhn_probe2,1,584,NaN,oven,keyboard,0.20,0584_nse_dnn_0.20_keyboard_10_n04505470_9570.png,n04505470_9570.png,0.0,-2.3716865,-0.7314539,-1.1598196
alexnet_w1_mlp_simclrhn_probe2,1,585,NaN,knife,bicycle,0.90,0585_nse_dnn_0.90_bicycle_10_n03792782_4067.png,n03792782_4067.png,0.0,-6.9698267,-1.1241677,-4.1335053
alexnet_w1_mlp_simclrhn_probe2,1,586,NaN,bear,bear,0.10,0586_nse_dnn_0.10_bear_10_n02132136_282.png,n02132136_282.png,1.0,-0.37511533,-0.39024967,0.010701591
alexnet_w1_mlp_simclrhn_probe2,1,587,NaN,knife,boat,0.03,0587_nse_dnn_0.03_boat_10_n04612504_30424.png,n04612504_30424.png,0.0,-0.66009057,0.20028494,-0.6083774
alexnet_w1_mlp_simclrhn_probe2,1,588,NaN,knife,knife,0.90,0588_nse_dnn_0.90_knife_10_n03041632_4879.png,n03041632_4879.png,1.0,-0.90417385,-3.5887058,1.8982508
alexnet_w1_mlp_simclrhn_probe2,1,589,NaN,elephant,elephant,0.05,0589_nse_dnn_0.05_elephant_10_n02504458_7634.png,n02504458_7634.png,1.0,0.19977924,-0.10389799,0.21473223
alexnet_w1_mlp_simclrhn_probe2,1,590,NaN,knife,cat,0.35,0590_nse_dnn_0.35_cat_10_n02123597_7615.png,n02123597_7615.png,0.0,-3.0394592,-0.6359463,-1.6995404
alexnet_w1_mlp_simclrhn_probe2,1,591,NaN,knife,bicycle,0.35,0591_nse_dnn_0.35_bicycle_10_n03792782_20387.png,n03792782_20387.png,0.0,-2.6638112,-1.0952187,-1.1091624
alexnet_w1_mlp_simclrhn_probe2,1,592,NaN,clock,clock,0.10,0592_nse_dnn_0.10_clock_10_n02708093_527.png,n02708093_527.png,1.0,-0.1451867,-1.4681458,0.93547344
alexnet_w1_mlp_simclrhn_probe2,1,593,NaN,elephant,elephant,0.05,0593_nse_dnn_0.05_elephant_10_n02504013_5501.png,n02504013_5501.png,1.0,0.50830245,-0.23879354,0.5282767
alexnet_w1_mlp_simclrhn_probe2,1,594,NaN,knife,dog,0.35,0594_nse_dnn_0.35_dog_10_n02106166_2273.png,n02106166_2273.png,0.0,-2.9657094,-0.79640335,-1.533931
alexnet_w1_mlp_simclrhn_probe2,1,595,NaN,boat,boat,0.03,0595_nse_dnn_0.03_boat_10_n03662601_34009.png,n03662601_34009.png,1.0,-0.095000885,-0.19254282,0.068972565
alexnet_w1_mlp_simclrhn_probe2,1,596,NaN,knife,boat,0.35,0596_nse_dnn_0.35_boat_10_n04273569_12536.png,n04273569_12536.png,0.0,-4.3269153,-0.9127581,-2.4141736
alexnet_w1_mlp_simclrhn_probe2,1,597,NaN,elephant,elephant,0.00,0597_nse_dnn_0.00_elephant_10_n02504013_8534.png,n02504013_8534.png,1.0,1.4012079,-0.40247515,1.2753966
alexnet_w1_mlp_simclrhn_probe2,1,598,NaN,knife,clock,0.35,0598_nse_dnn_0.35_clock_10_n04548280_156.png,n04548280_156.png,0.0,-2.955879,-0.8486941,-1.4900048
alexnet_w1_mlp_simclrhn_probe2,1,599,NaN,knife,bicycle,0.90,0599_nse_dnn_0.90_bicycle_10_n02835271_542.png,n02835271_542.png,0.0,-7.426103,-0.8456909,-4.653054
alexnet_w1_mlp_simclrhn_probe2,1,600,NaN,oven,bear,0.00,0600_nse_dnn_0.00_bear_10_n02133161_5434.png,n02133161_5434.png,0.0,-1.0636768,-0.2729215,-0.5591485
alexnet_w1_mlp_simclrhn_probe2,1,601,NaN,knife,truck,0.60,0601_nse_dnn_0.60_truck_10_n04467665_63829.png,n04467665_63829.png,0.0,-8.318864,-0.81731296,-5.3043976
alexnet_w1_mlp_simclrhn_probe2,1,602,NaN,knife,oven,0.90,0602_nse_dnn_0.90_oven_10_n04111531_10220.png,n04111531_10220.png,0.0,-9.208872,-1.0111265,-5.7966814
alexnet_w1_mlp_simclrhn_probe2,1,603,NaN,knife,boat,0.60,0603_nse_dnn_0.60_boat_10_n04273569_28074.png,n04273569_28074.png,0.0,-6.7080717,-0.9143891,-4.096752
alexnet_w1_mlp_simclrhn_probe2,1,604,NaN,cat,cat,0.00,0604_nse_dnn_0.00_cat_10_n02123394_2482.png,n02123394_2482.png,1.0,-0.35190567,-0.39663765,0.03163028
alexnet_w1_mlp_simclrhn_probe2,1,605,NaN,knife,boat,0.90,0605_nse_dnn_0.90_boat_10_n03662601_20381.png,n03662601_20381.png,0.0,-8.024843,-0.94461644,-5.0064764
alexnet_w1_mlp_simclrhn_probe2,1,606,NaN,knife,bird,0.35,0606_nse_dnn_0.35_bird_10_n01817953_12511.png,n01817953_12511.png,0.0,-2.8070087,-1.241265,-1.107148
alexnet_w1_mlp_simclrhn_probe2,1,607,NaN,cat,cat,0.05,0607_nse_dnn_0.05_cat_10_n02125311_5346.png,n02125311_5346.png,1.0,0.26778057,-0.24864087,0.3651651
alexnet_w1_mlp_simclrhn_probe2,1,608,NaN,elephant,oven,0.00,0608_nse_dnn_0.00_oven_10_n04111531_14758.png,n04111531_14758.png,0.0,-1.7060628,0.044490308,-1.237828
alexnet_w1_mlp_simclrhn_probe2,1,609,NaN,elephant,bird,0.10,0609_nse_dnn_0.10_bird_10_n02002556_1398.png,n02002556_1398.png,0.0,-0.93564814,-0.12170799,-0.5755426
alexnet_w1_mlp_simclrhn_probe2,1,610,NaN,knife,knife,0.05,0610_nse_dnn_0.05_knife_10_n03041632_99912.png,n03041632_99912.png,1.0,0.109359734,-0.38815185,0.35179383
alexnet_w1_mlp_simclrhn_probe2,1,611,NaN,knife,airplane,0.05,0611_nse_dnn_0.05_airplane_10_n02690373_1075.png,n02690373_1075.png,0.0,-1.0780371,0.2221623,-0.9193799
alexnet_w1_mlp_simclrhn_probe2,1,612,NaN,knife,cat,0.35,0612_nse_dnn_0.35_cat_10_n02123045_10834.png,n02123045_10834.png,0.0,-2.8915539,-0.9645299,-1.3626118
alexnet_w1_mlp_simclrhn_probe2,1,613,NaN,knife,car,0.60,0613_nse_dnn_0.60_car_10_n02814533_41478.png,n02814533_41478.png,0.0,-7.567064,-0.735894,-4.8303666
alexnet_w1_mlp_simclrhn_probe2,1,614,NaN,cat,cat,0.00,0614_nse_dnn_0.00_cat_10_n02123394_1602.png,n02123394_1602.png,1.0,0.7775031,0.11709302,0.46698043
alexnet_w1_mlp_simclrhn_probe2,1,615,NaN,knife,knife,0.03,0615_nse_dnn_0.03_knife_10_n03041632_21017.png,n03041632_21017.png,1.0,-0.32974833,-0.5626896,0.16471435
alexnet_w1_mlp_simclrhn_probe2,1,616,NaN,elephant,bear,0.03,0616_nse_dnn_0.03_bear_10_n02134084_572.png,n02134084_572.png,0.0,0.7385225,0.8437584,-0.074413
alexnet_w1_mlp_simclrhn_probe2,1,617,NaN,keyboard,clock,0.05,0617_nse_dnn_0.05_clock_10_n03196217_3987.png,n03196217_3987.png,0.0,-0.3180746,1.4142319,-1.2249256
