subj,session,trial,rt,object_response,category,condition,imagename,filename,is_correct,targ_act,max_nontarg_act,decision_margin
alexnet,1,1,NaN,chair,elephant,0.03,0001_nse_dnn_0.03_elephant_10_n02504458_7209.png,n02504458_7209.png,0.0,2.5327659,5.2102704,-1.8932817
alexnet,1,2,NaN,clock,knife,0.90,0002_nse_dnn_0.90_knife_10_n03041632_82878.png,n03041632_82878.png,0.0,1.3301181,3.2202663,-1.3365366
alexnet,1,3,NaN,clock,clock,0.00,0003_nse_dnn_0.00_clock_10_n03196217_9231.png,n03196217_9231.png,1.0,13.192505,6.4991665,4.732905
alexnet,1,4,NaN,chair,oven,0.00,0004_nse_dnn_0.00_oven_10_n04111531_11026.png,n04111531_11026.png,0.0,3.785401,5.206498,-1.0048673
alexnet,1,5,NaN,clock,clock,0.10,0005_nse_dnn_0.10_clock_10_n04548280_1114.png,n04548280_1114.png,1.0,4.4663224,2.5721076,1.3394122
alexnet,1,6,NaN,clock,clock,0.03,0006_nse_dnn_0.03_clock_10_n02708093_8100.png,n02708093_8100.png,1.0,7.804769,3.4795258,3.0584087
alexnet,1,7,NaN,clock,clock,0.00,0007_nse_dnn_0.00_clock_10_n02708093_3591.png,n02708093_3591.png,1.0,13.029435,7.494401,3.9138603
alexnet,1,8,NaN,clock,chair,0.00,0008_nse_dnn_0.00_chair_10_n03376595_16202.png,n03376595_16202.png,0.0,3.9936457,7.09666,-2.1941626
alexnet,1,9,NaN,clock,bottle,0.60,0009_nse_dnn_0.60_bottle_10_n02823428_3478.png,n02823428_3478.png,0.0,2.2093759,2.657048,-0.316552
alexnet,1,10,NaN,clock,dog,0.10,0010_nse_dnn_0.10_dog_10_n02087394_28673.png,n02087394_28673.png,0.0,0.78276503,3.1440752,-1.6696984
alexnet,1,11,NaN,cat,chair,0.10,0011_nse_dnn_0.10_chair_10_n04099969_1690.png,n04099969_1690.png,0.0,-0.02422966,2.7648633,-1.9721866
alexnet,1,12,NaN,elephant,cat,0.03,0012_nse_dnn_0.03_cat_10_n02125311_1736.png,n02125311_1736.png,0.0,2.5804927,3.843133,-0.8928215
alexnet,1,13,NaN,clock,bear,0.90,0013_nse_dnn_0.90_bear_10_n02133161_1169.png,n02133161_1169.png,0.0,0.12785375,3.0828407,-2.0894914
alexnet,1,14,NaN,clock,bear,0.90,0014_nse_dnn_0.90_bear_10_n02133161_8835.png,n02133161_8835.png,0.0,-0.31000423,2.9351692,-2.2946842
alexnet,1,15,NaN,cat,car,0.20,0015_nse_dnn_0.20_car_10_n02814533_5430.png,n02814533_5430.png,0.0,-1.1128958,1.7710711,-2.0392725
alexnet,1,16,NaN,clock,bear,0.60,0016_nse_dnn_0.60_bear_10_n02134418_3767.png,n02134418_3767.png,0.0,0.14655799,2.400546,-1.5938102
alexnet,1,17,NaN,cat,knife,0.20,0017_nse_dnn_0.20_knife_10_n03041632_10540.png,n03041632_10540.png,0.0,-1.4222383,1.8737937,-2.3306465
alexnet,1,18,NaN,cat,bicycle,0.20,0018_nse_dnn_0.20_bicycle_10_n02835271_1075.png,n02835271_1075.png,0.0,0.12715767,1.8821664,-1.2409786
alexnet,1,19,NaN,bear,bear,0.00,0019_nse_dnn_0.00_bear_10_n02134084_3888.png,n02134084_3888.png,1.0,3.4653695,3.0432713,0.29846847
alexnet,1,20,NaN,dog,dog,0.00,0020_nse_dnn_0.00_dog_10_n02085936_9009.png,n02085936_9009.png,1.0,3.6980786,2.6072507,0.77133185
alexnet,1,21,NaN,knife,knife,0.03,0021_nse_dnn_0.03_knife_10_n03041632_12651.png,n03041632_12651.png,1.0,3.0982523,2.3641543,0.51908565
alexnet,1,22,NaN,clock,bicycle,0.35,0022_nse_dnn_0.35_bicycle_10_n03792782_565.png,n03792782_565.png,0.0,-0.8775103,2.1640127,-2.1506815
alexnet,1,23,NaN,cat,boat,0.20,0023_nse_dnn_0.20_boat_10_n04612504_40672.png,n04612504_40672.png,0.0,-0.4994234,2.2179806,-1.921495
alexnet,1,24,NaN,clock,dog,0.05,0024_nse_dnn_0.05_dog_10_n02098105_146.png,n02098105_146.png,0.0,0.2562456,3.0210638,-1.9550217
alexnet,1,25,NaN,clock,clock,0.03,0025_nse_dnn_0.03_clock_10_n02708093_5944.png,n02708093_5944.png,1.0,5.9093933,2.9730783,2.0762882
alexnet,1,26,NaN,elephant,cat,0.03,0026_nse_dnn_0.03_cat_10_n02124075_14021.png,n02124075_14021.png,0.0,1.6356691,4.2743883,-1.8658562
alexnet,1,27,NaN,cat,bear,0.20,0027_nse_dnn_0.20_bear_10_n02133161_7184.png,n02133161_7184.png,0.0,-0.293446,1.7415029,-1.4389261
alexnet,1,28,NaN,bottle,bottle,0.00,0028_nse_dnn_0.00_bottle_10_n03937543_9745.png,n03937543_9745.png,1.0,4.1443872,3.4302616,0.5049631
alexnet,1,29,NaN,clock,airplane,0.60,0029_nse_dnn_0.60_airplane_10_n02690373_9605.png,n02690373_9605.png,0.0,-6.7973647,2.3422823,-6.462706
alexnet,1,30,NaN,cat,cat,0.20,0030_nse_dnn_0.20_cat_10_n02123045_7167.png,n02123045_7167.png,1.0,1.9770145,1.8441106,0.09397727
alexnet,1,31,NaN,airplane,airplane,0.05,0031_nse_dnn_0.05_airplane_10_n02690373_4706.png,n02690373_4706.png,1.0,2.5080252,1.7551947,0.5323316
alexnet,1,32,NaN,bottle,knife,0.35,0032_nse_dnn_0.35_knife_10_n03041632_45270.png,n03041632_45270.png,0.0,-0.06405461,1.6882695,-1.2390803
alexnet,1,33,NaN,clock,dog,0.35,0033_nse_dnn_0.35_dog_10_n02105855_9326.png,n02105855_9326.png,0.0,0.22257651,1.7396984,-1.0727673
alexnet,1,34,NaN,cat,bear,0.10,0034_nse_dnn_0.10_bear_10_n02134418_4349.png,n02134418_4349.png,0.0,0.73315454,2.4863687,-1.2397096
alexnet,1,35,NaN,cat,cat,0.00,0035_nse_dnn_0.00_cat_10_n02123159_469.png,n02123159_469.png,1.0,5.88772,3.9378514,1.3787653
alexnet,1,36,NaN,clock,truck,0.90,0036_nse_dnn_0.90_truck_10_n03417042_5004.png,n03417042_5004.png,0.0,-2.4117155,2.835006,-3.7099922
alexnet,1,37,NaN,cat,bird,0.10,0037_nse_dnn_0.10_bird_10_n02051845_6333.png,n02051845_6333.png,0.0,-2.9492724,2.1754117,-3.6236992
alexnet,1,38,NaN,clock,clock,0.90,0038_nse_dnn_0.90_clock_10_n03196217_12701.png,n03196217_12701.png,1.0,3.398882,2.504977,0.6320862
alexnet,1,39,NaN,clock,chair,0.60,0039_nse_dnn_0.60_chair_10_n03376595_12341.png,n03376595_12341.png,0.0,-1.7215941,2.76153,-3.1700473
alexnet,1,40,NaN,cat,bicycle,0.10,0040_nse_dnn_0.10_bicycle_10_n03792782_66837.png,n03792782_66837.png,0.0,1.2068733,1.3349243,-0.09054576
alexnet,1,41,NaN,bicycle,bicycle,0.05,0041_nse_dnn_0.05_bicycle_10_n02835271_20177.png,n02835271_20177.png,1.0,4.6676183,3.9510586,0.5066842
alexnet,1,42,NaN,knife,knife,0.00,0042_nse_dnn_0.00_knife_10_n03041632_22330.png,n03041632_22330.png,1.0,3.972279,3.8765218,0.0677106
alexnet,1,43,NaN,clock,cat,0.60,0043_nse_dnn_0.60_cat_10_n02123045_5913.png,n02123045_5913.png,0.0,0.16648483,2.9438572,-1.9638989
alexnet,1,44,NaN,bottle,elephant,0.20,0044_nse_dnn_0.20_elephant_10_n02504013_2464.png,n02504013_2464.png,0.0,-1.4462405,2.0105603,-2.4443274
alexnet,1,45,NaN,clock,knife,0.90,0045_nse_dnn_0.90_knife_10_n03041632_99460.png,n03041632_99460.png,0.0,0.92985886,3.1711485,-1.5848311
alexnet,1,46,NaN,oven,dog,0.00,0046_nse_dnn_0.00_dog_10_n02099601_8686.png,n02099601_8686.png,0.0,0.95864856,2.806013,-1.3062841
alexnet,1,47,NaN,clock,chair,0.90,0047_nse_dnn_0.90_chair_10_n02791124_5400.png,n02791124_5400.png,0.0,-1.7322342,3.1592052,-3.45877
alexnet,1,48,NaN,cat,chair,0.05,0048_nse_dnn_0.05_chair_10_n03376595_830.png,n03376595_830.png,0.0,1.1503807,1.8666182,-0.5064564
alexnet,1,49,NaN,clock,cat,0.90,0049_nse_dnn_0.90_cat_10_n02124075_6024.png,n02124075_6024.png,0.0,-0.28661957,3.5906422,-2.7416382
alexnet,1,50,NaN,clock,bicycle,0.10,0050_nse_dnn_0.10_bicycle_10_n03792782_9004.png,n03792782_9004.png,0.0,2.163663,2.9641924,-0.5660598
alexnet,1,51,NaN,clock,keyboard,0.60,0051_nse_dnn_0.60_keyboard_10_n03085013_24088.png,n03085013_24088.png,0.0,-0.62107515,2.9693642,-2.538824
alexnet,1,52,NaN,cat,cat,0.10,0052_nse_dnn_0.10_cat_10_n02125311_33778.png,n02125311_33778.png,1.0,2.70341,2.6705656,0.023224432
alexnet,1,53,NaN,bicycle,bicycle,0.00,0053_nse_dnn_0.00_bicycle_10_n03792782_7092.png,n03792782_7092.png,1.0,6.261119,3.6943004,1.8150148
alexnet,1,54,NaN,clock,airplane,0.35,0054_nse_dnn_0.35_airplane_10_n02690373_5724.png,n02690373_5724.png,0.0,-5.5804315,1.9945484,-5.3563194
alexnet,1,55,NaN,clock,bear,0.60,0055_nse_dnn_0.60_bear_10_n02133161_5637.png,n02133161_5637.png,0.0,-0.23051885,2.7306614,-2.0938706
alexnet,1,56,NaN,cat,bear,0.10,0056_nse_dnn_0.10_bear_10_n02132136_5365.png,n02132136_5365.png,0.0,-0.16373527,2.0979545,-1.5992562
alexnet,1,57,NaN,clock,car,0.35,0057_nse_dnn_0.35_car_10_n03100240_1702.png,n03100240_1702.png,0.0,-1.4207038,2.1813319,-2.5470238
alexnet,1,58,NaN,clock,oven,0.35,0058_nse_dnn_0.35_oven_10_n04111531_2677.png,n04111531_2677.png,0.0,-2.179022,2.0860112,-3.015834
alexnet,1,59,NaN,chair,oven,0.05,0059_nse_dnn_0.05_oven_10_n04111531_16583.png,n04111531_16583.png,0.0,2.1079872,2.7737303,-0.47075146
alexnet,1,60,NaN,bicycle,chair,0.10,0060_nse_dnn_0.10_chair_10_n04099969_6266.png,n04099969_6266.png,0.0,1.680832,3.0889232,-0.99567086
alexnet,1,61,NaN,clock,oven,0.60,0061_nse_dnn_0.60_oven_10_n04111531_6695.png,n04111531_6695.png,0.0,-1.3675561,3.1945908,-3.2259252
alexnet,1,62,NaN,clock,car,0.10,0062_nse_dnn_0.10_car_10_n03100240_1438.png,n03100240_1438.png,0.0,-0.19269788,4.2098517,-3.1130729
alexnet,1,63,NaN,clock,keyboard,0.20,0063_nse_dnn_0.20_keyboard_10_n04505470_4684.png,n04505470_4684.png,0.0,-0.7923238,2.2282338,-2.1358569
alexnet,1,64,NaN,chair,chair,0.00,0064_nse_dnn_0.00_chair_10_n04099969_8021.png,n04099969_8021.png,1.0,5.500616,3.429701,1.4643581
alexnet,1,65,NaN,clock,car,0.20,0065_nse_dnn_0.20_car_10_n04285008_7139.png,n04285008_7139.png,0.0,-0.69308376,2.1209757,-1.9898406
alexnet,1,66,NaN,truck,truck,0.03,0066_nse_dnn_0.03_truck_10_n03796401_9207.png,n03796401_9207.png,1.0,5.6222973,4.4061484,0.85994714
alexnet,1,67,NaN,clock,bottle,0.05,0067_nse_dnn_0.05_bottle_10_n04560804_3651.png,n04560804_3651.png,0.0,1.2818842,3.0726316,-1.2662497
alexnet,1,68,NaN,clock,chair,0.60,0068_nse_dnn_0.60_chair_10_n03376595_3010.png,n03376595_3010.png,0.0,-1.553232,2.7332428,-3.0309954
alexnet,1,69,NaN,clock,bird,0.90,0069_nse_dnn_0.90_bird_10_n01514859_1951.png,n01514859_1951.png,0.0,-1.0276655,3.3914049,-3.1247547
alexnet,1,70,NaN,bicycle,car,0.10,0070_nse_dnn_0.10_car_10_n03100240_4594.png,n03100240_4594.png,0.0,-0.8526642,4.515947,-3.7961812
alexnet,1,71,NaN,clock,clock,0.35,0071_nse_dnn_0.35_clock_10_n03196217_3333.png,n03196217_3333.png,1.0,2.1712348,1.5839735,0.41525647
alexnet,1,72,NaN,clock,car,0.10,0072_nse_dnn_0.10_car_10_n02814533_90798.png,n02814533_90798.png,0.0,-1.4096941,3.186866,-3.2502587
alexnet,1,73,NaN,keyboard,keyboard,0.00,0073_nse_dnn_0.00_keyboard_10_n03085013_19547.png,n03085013_19547.png,1.0,8.3418045,5.277693,2.166654
alexnet,1,74,NaN,clock,bear,0.05,0074_nse_dnn_0.05_bear_10_n02133161_545.png,n02133161_545.png,0.0,0.003958583,2.6026223,-1.8375329
alexnet,1,75,NaN,clock,oven,0.90,0075_nse_dnn_0.90_oven_10_n04111531_6489.png,n04111531_6489.png,0.0,-2.0119963,3.0888386,-3.606835
alexnet,1,76,NaN,clock,dog,0.90,0076_nse_dnn_0.90_dog_10_n02105056_15299.png,n02105056_15299.png,0.0,-0.5325039,3.0866191,-2.5591063
alexnet,1,77,NaN,chair,knife,0.05,0077_nse_dnn_0.05_knife_10_n03041632_33255.png,n03041632_33255.png,0.0,3.0955338,4.4109697,-0.93015367
alexnet,1,78,NaN,clock,cat,0.20,0078_nse_dnn_0.20_cat_10_n02123394_5895.png,n02123394_5895.png,0.0,1.7890762,1.7958561,-0.00479412
alexnet,1,79,NaN,bottle,bottle,0.03,0079_nse_dnn_0.03_bottle_10_n03983396_11654.png,n03983396_11654.png,1.0,4.890931,3.0057948,1.3329927
alexnet,1,80,NaN,airplane,airplane,0.03,0080_nse_dnn_0.03_airplane_10_n02690373_3860.png,n02690373_3860.png,1.0,5.997573,3.5445113,1.7345765
alexnet,1,81,NaN,chair,oven,0.03,0081_nse_dnn_0.03_oven_10_n04111531_6415.png,n04111531_6415.png,0.0,0.6146172,3.4147882,-1.9800198
alexnet,1,82,NaN,clock,knife,0.60,0082_nse_dnn_0.60_knife_10_n03041632_39342.png,n03041632_39342.png,0.0,0.79762673,2.554319,-1.242169
alexnet,1,83,NaN,clock,bear,0.60,0083_nse_dnn_0.60_bear_10_n02133161_4882.png,n02133161_4882.png,0.0,-0.23661375,3.0102413,-2.2958732
alexnet,1,84,NaN,bottle,bottle,0.00,0084_nse_dnn_0.00_bottle_10_n04591713_7474.png,n04591713_7474.png,1.0,6.713466,4.6397758,1.4663206
alexnet,1,85,NaN,cat,bear,0.20,0085_nse_dnn_0.20_bear_10_n02132136_17615.png,n02132136_17615.png,0.0,-0.15258135,1.8996726,-1.4511627
alexnet,1,86,NaN,clock,boat,0.60,0086_nse_dnn_0.60_boat_10_n03344393_382.png,n03344393_382.png,0.0,-1.3480347,2.8578968,-2.974043
alexnet,1,87,NaN,truck,truck,0.00,0087_nse_dnn_0.00_truck_10_n03796401_27811.png,n03796401_27811.png,1.0,4.8206267,4.4730268,0.2457903
alexnet,1,88,NaN,clock,keyboard,0.60,0088_nse_dnn_0.60_keyboard_10_n04505470_2603.png,n04505470_2603.png,0.0,-0.79957366,2.5374415,-2.359626
alexnet,1,89,NaN,clock,boat,0.35,0089_nse_dnn_0.35_boat_10_n03662601_16418.png,n03662601_16418.png,0.0,-1.2325625,1.6010987,-2.003701
alexnet,1,90,NaN,clock,bear,0.35,0090_nse_dnn_0.35_bear_10_n02132136_2760.png,n02132136_2760.png,0.0,0.007944927,1.8575794,-1.3078891
alexnet,1,91,NaN,bicycle,bicycle,0.05,0091_nse_dnn_0.05_bicycle_10_n02835271_10271.png,n02835271_10271.png,1.0,2.3298657,1.6627629,0.47171292
alexnet,1,92,NaN,clock,bear,0.10,0092_nse_dnn_0.10_bear_10_n02134084_9127.png,n02134084_9127.png,0.0,-0.11334103,2.28099,-1.6930476
alexnet,1,93,NaN,cat,bird,0.20,0093_nse_dnn_0.20_bird_10_n01797886_551.png,n01797886_551.png,0.0,-0.47838324,2.0036411,-1.7550564
alexnet,1,94,NaN,cat,truck,0.10,0094_nse_dnn_0.10_truck_10_n03417042_9559.png,n03417042_9559.png,0.0,-0.89530206,2.2470887,-2.2220058
alexnet,1,95,NaN,clock,clock,0.90,0095_nse_dnn_0.90_clock_10_n02708093_3114.png,n02708093_3114.png,1.0,3.4802876,2.504722,0.68982893
alexnet,1,96,NaN,bicycle,bicycle,0.05,0096_nse_dnn_0.05_bicycle_10_n03792782_122.png,n03792782_122.png,1.0,2.7105656,1.332161,0.9746793
alexnet,1,97,NaN,clock,oven,0.35,0097_nse_dnn_0.35_oven_10_n04111531_3702.png,n04111531_3702.png,0.0,-2.3339834,1.9170374,-3.0059257
alexnet,1,98,NaN,clock,car,0.90,0098_nse_dnn_0.90_car_10_n02814533_93476.png,n02814533_93476.png,0.0,-2.3499663,3.1546452,-3.8923483
alexnet,1,99,NaN,bottle,cat,0.35,0099_nse_dnn_0.35_cat_10_n02123045_8491.png,n02123045_8491.png,0.0,1.0801617,1.5402356,-0.3253214
alexnet,1,100,NaN,bottle,chair,0.35,0100_nse_dnn_0.35_chair_10_n02791124_13469.png,n02791124_13469.png,0.0,-1.608763,1.6792812,-2.3249984
alexnet,1,101,NaN,clock,dog,0.60,0101_nse_dnn_0.60_dog_10_n02096294_5451.png,n02096294_5451.png,0.0,-0.36276695,2.683668,-2.1541548
alexnet,1,102,NaN,clock,bicycle,0.35,0102_nse_dnn_0.35_bicycle_10_n03792782_44296.png,n03792782_44296.png,0.0,-0.4270551,1.8598732,-1.6171025
alexnet,1,103,NaN,clock,cat,0.90,0103_nse_dnn_0.90_cat_10_n02123597_7138.png,n02123597_7138.png,0.0,-0.4981016,3.4620934,-2.8002808
alexnet,1,104,NaN,clock,bottle,0.35,0104_nse_dnn_0.35_bottle_10_n04560804_12736.png,n04560804_12736.png,0.0,1.4596723,1.5042602,-0.031528372
alexnet,1,105,NaN,clock,oven,0.60,0105_nse_dnn_0.60_oven_10_n04111531_22797.png,n04111531_22797.png,0.0,-1.5759578,2.8563125,-3.1340883
alexnet,1,106,NaN,cat,bird,0.10,0106_nse_dnn_0.10_bird_10_n02007558_7446.png,n02007558_7446.png,0.0,-1.6178453,1.7253584,-2.364002
alexnet,1,107,NaN,clock,boat,0.60,0107_nse_dnn_0.60_boat_10_n03662601_16441.png,n03662601_16441.png,0.0,-1.3460481,2.745676,-2.8932862
alexnet,1,108,NaN,clock,oven,0.60,0108_nse_dnn_0.60_oven_10_n04111531_22386.png,n04111531_22386.png,0.0,-1.8528078,2.7959206,-3.2871475
alexnet,1,109,NaN,airplane,airplane,0.00,0109_nse_dnn_0.00_airplane_10_n02690373_1381.png,n02690373_1381.png,1.0,14.329213,5.7793355,6.045676
alexnet,1,110,NaN,cat,keyboard,0.20,0110_nse_dnn_0.20_keyboard_10_n03085013_20779.png,n03085013_20779.png,0.0,-1.8261049,1.6936401,-2.4888356
alexnet,1,111,NaN,clock,dog,0.90,0111_nse_dnn_0.90_dog_10_n02095570_9488.png,n02095570_9488.png,0.0,-0.54568106,3.4792576,-2.8460615
alexnet,1,112,NaN,cat,dog,0.03,0112_nse_dnn_0.03_dog_10_n02107312_3262.png,n02107312_3262.png,0.0,3.4910808,4.7367063,-0.88079023
alexnet,1,113,NaN,knife,oven,0.03,0113_nse_dnn_0.03_oven_10_n04111531_10681.png,n04111531_10681.png,0.0,3.6766744,4.4333744,-0.53506774
alexnet,1,114,NaN,clock,knife,0.90,0114_nse_dnn_0.90_knife_10_n03041632_29285.png,n03041632_29285.png,0.0,1.534017,3.6247685,-1.4783847
alexnet,1,115,NaN,clock,elephant,0.60,0115_nse_dnn_0.60_elephant_10_n02504458_4776.png,n02504458_4776.png,0.0,-4.495039,2.9697266,-5.2783866
alexnet,1,116,NaN,cat,boat,0.10,0116_nse_dnn_0.10_boat_10_n04273569_11940.png,n04273569_11940.png,0.0,-0.01586907,1.9296641,-1.3756998
alexnet,1,117,NaN,clock,cat,0.20,0117_nse_dnn_0.20_cat_10_n02123159_1413.png,n02123159_1413.png,0.0,1.7496548,1.7913628,-0.029492006
alexnet,1,118,NaN,clock,airplane,0.60,0118_nse_dnn_0.60_airplane_10_n02690373_6674.png,n02690373_6674.png,0.0,-6.263668,2.5590801,-6.238625
alexnet,1,119,NaN,clock,clock,0.35,0119_nse_dnn_0.35_clock_10_n04548280_5088.png,n04548280_5088.png,1.0,1.9530646,1.7026368,0.17707914
alexnet,1,120,NaN,bottle,clock,0.05,0120_nse_dnn_0.05_clock_10_n02708093_6624.png,n02708093_6624.png,0.0,2.3883598,2.7739546,-0.27265674
alexnet,1,121,NaN,cat,bicycle,0.20,0121_nse_dnn_0.20_bicycle_10_n03792782_29108.png,n03792782_29108.png,0.0,-0.38232532,1.6357795,-1.4270157
alexnet,1,122,NaN,clock,clock,0.20,0122_nse_dnn_0.20_clock_10_n04548280_8649.png,n04548280_8649.png,1.0,2.4614074,2.1429112,0.22521085
alexnet,1,123,NaN,clock,knife,0.05,0123_nse_dnn_0.05_knife_10_n03041632_737.png,n03041632_737.png,0.0,0.007986188,2.378988,-1.6765515
alexnet,1,124,NaN,clock,clock,0.10,0124_nse_dnn_0.10_clock_10_n04548280_8668.png,n04548280_8668.png,1.0,5.7548084,4.9766073,0.5502713
alexnet,1,125,NaN,elephant,bird,0.03,0125_nse_dnn_0.03_bird_10_n01558993_34885.png,n01558993_34885.png,0.0,-0.90784836,2.366601,-2.3153853
alexnet,1,126,NaN,clock,truck,0.60,0126_nse_dnn_0.60_truck_10_n04467665_37833.png,n04467665_37833.png,0.0,-2.3612144,2.7759578,-3.6325293
alexnet,1,127,NaN,boat,boat,0.05,0127_nse_dnn_0.05_boat_10_n03662601_5176.png,n03662601_5176.png,1.0,2.5740252,2.4135659,0.113461845
alexnet,1,128,NaN,chair,chair,0.00,0128_nse_dnn_0.00_chair_10_n03376595_9139.png,n03376595_9139.png,1.0,7.2031593,4.5919013,1.8464383
alexnet,1,129,NaN,clock,oven,0.90,0129_nse_dnn_0.90_oven_10_n04111531_6211.png,n04111531_6211.png,0.0,-2.097083,3.3768227,-3.8706357
alexnet,1,130,NaN,boat,boat,0.00,0130_nse_dnn_0.00_boat_10_n04273569_11427.png,n04273569_11427.png,1.0,5.667399,1.7298094,2.7842963
alexnet,1,131,NaN,clock,bicycle,0.05,0131_nse_dnn_0.05_bicycle_10_n03792782_17198.png,n03792782_17198.png,0.0,0.57186913,5.3886247,-3.4059603
alexnet,1,132,NaN,clock,clock,0.00,0132_nse_dnn_0.00_clock_10_n04548280_4560.png,n04548280_4560.png,1.0,6.973884,5.562566,0.99795276
alexnet,1,133,NaN,knife,knife,0.03,0133_nse_dnn_0.03_knife_10_n03041632_3781.png,n03041632_3781.png,1.0,2.3994899,2.1318533,0.18924761
alexnet,1,134,NaN,clock,clock,0.10,0134_nse_dnn_0.10_clock_10_n03196217_958.png,n03196217_958.png,1.0,2.3935912,2.1708543,0.15749873
alexnet,1,135,NaN,bottle,elephant,0.35,0135_nse_dnn_0.35_elephant_10_n02504458_485.png,n02504458_485.png,0.0,-1.6814337,2.0569003,-2.6434014
alexnet,1,136,NaN,clock,clock,0.00,0136_nse_dnn_0.00_clock_10_n02708093_1038.png,n02708093_1038.png,1.0,7.903175,3.9339643,2.806656
alexnet,1,137,NaN,oven,oven,0.03,0137_nse_dnn_0.03_oven_10_n04111531_1723.png,n04111531_1723.png,1.0,4.43597,3.9778414,0.32394573
alexnet,1,138,NaN,dog,dog,0.03,0138_nse_dnn_0.03_dog_10_n02110806_27169.png,n02110806_27169.png,1.0,4.3649507,3.9430788,0.2983085
alexnet,1,139,NaN,airplane,airplane,0.00,0139_nse_dnn_0.00_airplane_10_n02690373_12505.png,n02690373_12505.png,1.0,7.142827,3.5057595,2.5717952
alexnet,1,140,NaN,clock,bird,0.60,0140_nse_dnn_0.60_bird_10_n01828970_454.png,n01828970_454.png,0.0,-0.7018771,2.6034806,-2.337241
alexnet,1,141,NaN,cat,oven,0.20,0141_nse_dnn_0.20_oven_10_n04111531_15635.png,n04111531_15635.png,0.0,-3.9671326,2.3464599,-4.464384
alexnet,1,142,NaN,chair,car,0.00,0142_nse_dnn_0.00_car_10_n04285008_8700.png,n04285008_8700.png,0.0,0.8671027,3.8550014,-2.1127636
alexnet,1,143,NaN,keyboard,keyboard,0.05,0143_nse_dnn_0.05_keyboard_10_n04505470_4592.png,n04505470_4592.png,1.0,4.61128,4.481337,0.0918835
alexnet,1,144,NaN,cat,boat,0.20,0144_nse_dnn_0.20_boat_10_n03344393_9560.png,n03344393_9560.png,0.0,-0.6393405,1.5132242,-1.5220932
alexnet,1,145,NaN,elephant,bear,0.00,0145_nse_dnn_0.00_bear_10_n02132136_5138.png,n02132136_5138.png,0.0,3.4837155,4.036729,-0.3910395
alexnet,1,146,NaN,clock,chair,0.60,0146_nse_dnn_0.60_chair_10_n03376595_591.png,n03376595_591.png,0.0,-1.3557062,3.1531994,-3.1882777
alexnet,1,147,NaN,clock,keyboard,0.90,0147_nse_dnn_0.90_keyboard_10_n03085013_20590.png,n03085013_20590.png,0.0,-0.2617246,2.9096527,-2.2425025
alexnet,1,148,NaN,clock,dog,0.35,0148_nse_dnn_0.35_dog_10_n02094258_1224.png,n02094258_1224.png,0.0,0.27772367,2.0232008,-1.2342387
alexnet,1,149,NaN,cat,clock,0.20,0149_nse_dnn_0.20_clock_10_n03196217_4486.png,n03196217_4486.png,0.0,1.6076909,2.0565345,-0.31738037
alexnet,1,150,NaN,cat,bear,0.20,0150_nse_dnn_0.20_bear_10_n02134084_22150.png,n02134084_22150.png,0.0,-0.07464799,2.1394122,-1.5655769
alexnet,1,151,NaN,clock,cat,0.10,0151_nse_dnn_0.10_cat_10_n02123045_3098.png,n02123045_3098.png,0.0,2.7497225,3.1047275,-0.25102645
alexnet,1,152,NaN,clock,bear,0.20,0152_nse_dnn_0.20_bear_10_n02134418_271.png,n02134418_271.png,0.0,-0.065267175,1.6023588,-1.1791897
alexnet,1,153,NaN,bicycle,oven,0.05,0153_nse_dnn_0.05_oven_10_n04111531_274.png,n04111531_274.png,0.0,-1.0310173,2.3201647,-2.3696434
alexnet,1,154,NaN,bottle,knife,0.35,0154_nse_dnn_0.35_knife_10_n03041632_8563.png,n03041632_8563.png,0.0,-0.90769744,1.3451577,-1.5930092
alexnet,1,155,NaN,car,car,0.00,0155_nse_dnn_0.00_car_10_n02814533_52389.png,n02814533_52389.png,1.0,11.614944,8.049441,2.5211916
alexnet,1,156,NaN,keyboard,airplane,0.00,0156_nse_dnn_0.00_airplane_10_n02690373_10455.png,n02690373_10455.png,0.0,4.9383664,5.8223243,-0.62505263
alexnet,1,157,NaN,clock,truck,0.35,0157_nse_dnn_0.35_truck_10_n04467665_4810.png,n04467665_4810.png,0.0,-2.049141,1.6384087,-2.6074913
alexnet,1,158,NaN,cat,knife,0.10,0158_nse_dnn_0.10_knife_10_n03041632_3159.png,n03041632_3159.png,0.0,-2.1280546,2.408418,-3.2077703
alexnet,1,159,NaN,cat,cat,0.05,0159_nse_dnn_0.05_cat_10_n02123597_13411.png,n02123597_13411.png,1.0,2.9859247,1.6545128,0.9414504
alexnet,1,160,NaN,clock,clock,0.10,0160_nse_dnn_0.10_clock_10_n04548280_2654.png,n04548280_2654.png,1.0,2.4945776,1.5023128,0.7016372
alexnet,1,161,NaN,clock,elephant,0.90,0161_nse_dnn_0.90_elephant_10_n02504013_405.png,n02504013_405.png,0.0,-4.758713,3.0037994,-5.488925
alexnet,1,162,NaN,elephant,bottle,0.05,0162_nse_dnn_0.05_bottle_10_n04560804_14729.png,n04560804_14729.png,0.0,2.5647743,5.1542306,-1.8310221
alexnet,1,163,NaN,clock,bottle,0.90,0163_nse_dnn_0.90_bottle_10_n02823428_5482.png,n02823428_5482.png,0.0,2.4125774,3.2022197,-0.5583615
alexnet,1,164,NaN,clock,keyboard,0.90,0164_nse_dnn_0.90_keyboard_10_n04505470_4824.png,n04505470_4824.png,0.0,-0.4419775,3.409362,-2.7233083
alexnet,1,165,NaN,clock,chair,0.20,0165_nse_dnn_0.20_chair_10_n04099969_14208.png,n04099969_14208.png,0.0,-1.4148068,1.9861584,-2.4048457
alexnet,1,166,NaN,elephant,elephant,0.00,0166_nse_dnn_0.00_elephant_10_n02504013_1647.png,n02504013_1647.png,1.0,5.820984,2.5329661,2.3249798
alexnet,1,167,NaN,bottle,cat,0.20,0167_nse_dnn_0.20_cat_10_n02123597_11564.png,n02123597_11564.png,0.0,1.5623375,1.6567745,-0.06677704
alexnet,1,168,NaN,bottle,car,0.35,0168_nse_dnn_0.35_car_10_n03100240_16653.png,n03100240_16653.png,0.0,-1.6791857,1.5086638,-2.2541502
alexnet,1,169,NaN,oven,oven,0.00,0169_nse_dnn_0.00_oven_10_n04111531_9611.png,n04111531_9611.png,1.0,5.956284,5.885169,0.050285913
alexnet,1,170,NaN,clock,car,0.05,0170_nse_dnn_0.05_car_10_n02814533_35054.png,n02814533_35054.png,0.0,0.123697914,2.3439467,-1.569953
alexnet,1,171,NaN,clock,oven,0.20,0171_nse_dnn_0.20_oven_10_n04111531_3121.png,n04111531_3121.png,0.0,-1.9475048,1.3424349,-2.3263388
alexnet,1,172,NaN,clock,chair,0.20,0172_nse_dnn_0.20_chair_10_n02791124_4969.png,n02791124_4969.png,0.0,-1.0147204,2.1113944,-2.2104971
alexnet,1,173,NaN,clock,car,0.20,0173_nse_dnn_0.20_car_10_n02814533_211.png,n02814533_211.png,0.0,-1.4604079,2.5279071,-2.8201647
alexnet,1,174,NaN,dog,dog,0.00,0174_nse_dnn_0.00_dog_10_n02091244_13118.png,n02091244_13118.png,1.0,3.9322226,2.666753,0.8948221
alexnet,1,175,NaN,cat,bottle,0.10,0175_nse_dnn_0.10_bottle_10_n04560804_3597.png,n04560804_3597.png,0.0,1.7595141,2.917329,-0.8186988
alexnet,1,176,NaN,clock,bottle,0.60,0176_nse_dnn_0.60_bottle_10_n04560804_30885.png,n04560804_30885.png,0.0,2.12874,2.4606931,-0.23472625
alexnet,1,177,NaN,clock,bottle,0.60,0177_nse_dnn_0.60_bottle_10_n04560804_9813.png,n04560804_9813.png,0.0,2.0025105,2.2862182,-0.20061159
alexnet,1,178,NaN,clock,boat,0.35,0178_nse_dnn_0.35_boat_10_n02951358_10003.png,n02951358_10003.png,0.0,-0.7955214,1.5419798,-1.6528629
alexnet,1,179,NaN,clock,bear,0.35,0179_nse_dnn_0.35_bear_10_n02133161_1500.png,n02133161_1500.png,0.0,-0.10454467,1.9608059,-1.4604234
alexnet,1,180,NaN,cat,oven,0.20,0180_nse_dnn_0.20_oven_10_n04111531_4467.png,n04111531_4467.png,0.0,-2.9896538,1.7461888,-3.3487465
alexnet,1,181,NaN,bottle,clock,0.20,0181_nse_dnn_0.20_clock_10_n02708093_8002.png,n02708093_8002.png,0.0,1.0846483,1.1734117,-0.062765256
alexnet,1,182,NaN,clock,boat,0.90,0182_nse_dnn_0.90_boat_10_n02951358_34261.png,n02951358_34261.png,0.0,-1.6300198,2.965676,-3.2496479
alexnet,1,183,NaN,boat,boat,0.00,0183_nse_dnn_0.00_boat_10_n04612504_20067.png,n04612504_20067.png,1.0,5.220352,3.2123685,1.4198589
alexnet,1,184,NaN,clock,clock,0.35,0184_nse_dnn_0.35_clock_10_n03196217_6163.png,n03196217_6163.png,1.0,2.067001,1.5575098,0.36026478
alexnet,1,185,NaN,clock,keyboard,0.03,0185_nse_dnn_0.03_keyboard_10_n03085013_23119.png,n03085013_23119.png,0.0,3.6963794,3.8345757,-0.09771949
alexnet,1,186,NaN,clock,clock,0.60,0186_nse_dnn_0.60_clock_10_n04548280_4358.png,n04548280_4358.png,1.0,2.6592872,2.062166,0.4222285
alexnet,1,187,NaN,bottle,dog,0.05,0187_nse_dnn_0.05_dog_10_n02101388_2968.png,n02101388_2968.png,0.0,0.62691057,2.106801,-1.0464406
alexnet,1,188,NaN,clock,oven,0.10,0188_nse_dnn_0.10_oven_10_n04111531_8081.png,n04111531_8081.png,0.0,-0.65256894,3.7979076,-3.1469622
alexnet,1,189,NaN,knife,keyboard,0.05,0189_nse_dnn_0.05_keyboard_10_n04505470_4994.png,n04505470_4994.png,0.0,0.32346457,3.2711172,-2.084305
alexnet,1,190,NaN,clock,dog,0.10,0190_nse_dnn_0.10_dog_10_n02101006_16132.png,n02101006_16132.png,0.0,0.97290075,2.2329798,-0.89101046
alexnet,1,191,NaN,clock,elephant,0.10,0191_nse_dnn_0.10_elephant_10_n02504458_6888.png,n02504458_6888.png,0.0,-0.33866674,2.5701582,-2.05685
alexnet,1,192,NaN,clock,bird,0.60,0192_nse_dnn_0.60_bird_10_n02018207_43958.png,n02018207_43958.png,0.0,-0.90155226,3.09023,-2.8226163
alexnet,1,193,NaN,cat,cat,0.03,0193_nse_dnn_0.03_cat_10_n02123045_2719.png,n02123045_2719.png,1.0,6.3159256,4.927578,0.98171
alexnet,1,194,NaN,knife,keyboard,0.05,0194_nse_dnn_0.05_keyboard_10_n03085013_5611.png,n03085013_5611.png,0.0,4.7034607,5.353639,-0.4597456
alexnet,1,195,NaN,clock,boat,0.03,0195_nse_dnn_0.03_boat_10_n03344393_6892.png,n03344393_6892.png,0.0,1.9309177,2.4593933,-0.37368864
alexnet,1,196,NaN,clock,chair,0.90,0196_nse_dnn_0.90_chair_10_n02791124_5411.png,n02791124_5411.png,0.0,-1.8875753,3.6782475,-3.935631
alexnet,1,197,NaN,elephant,elephant,0.05,0197_nse_dnn_0.05_elephant_10_n02504013_8391.png,n02504013_8391.png,1.0,6.692747,2.3485618,3.071803
alexnet,1,198,NaN,clock,chair,0.60,0198_nse_dnn_0.60_chair_10_n02791124_7167.png,n02791124_7167.png,0.0,-1.5137986,2.65014,-2.9443493
alexnet,1,199,NaN,clock,truck,0.10,0199_nse_dnn_0.10_truck_10_n03417042_2170.png,n03417042_2170.png,0.0,0.5772251,3.4783309,-2.0513916
alexnet,1,200,NaN,bottle,chair,0.35,0200_nse_dnn_0.35_chair_10_n04099969_2109.png,n04099969_2109.png,0.0,-1.7420974,1.6803262,-2.420019
alexnet,1,201,NaN,clock,chair,0.90,0201_nse_dnn_0.90_chair_10_n04429376_7321.png,n04429376_7321.png,0.0,-1.9353254,3.4745963,-3.8253922
alexnet,1,202,NaN,clock,airplane,0.35,0202_nse_dnn_0.35_airplane_10_n02690373_1733.png,n02690373_1733.png,0.0,-5.341117,1.7833658,-5.0377703
alexnet,1,203,NaN,cat,bird,0.10,0203_nse_dnn_0.10_bird_10_n02006656_5719.png,n02006656_5719.png,0.0,-0.8211128,2.5889323,-2.411266
alexnet,1,204,NaN,chair,bicycle,0.03,0204_nse_dnn_0.03_bicycle_10_n03792782_12354.png,n03792782_12354.png,0.0,1.618295,3.4661202,-1.3066099
alexnet,1,205,NaN,bottle,bottle,0.03,0205_nse_dnn_0.03_bottle_10_n04557648_12671.png,n04557648_12671.png,1.0,8.795844,2.881926,4.1817718
alexnet,1,206,NaN,elephant,elephant,0.05,0206_nse_dnn_0.05_elephant_10_n02504013_318.png,n02504013_318.png,1.0,4.164893,1.9652666,1.5553708
alexnet,1,207,NaN,clock,boat,0.90,0207_nse_dnn_0.90_boat_10_n04273569_16078.png,n04273569_16078.png,0.0,-1.9296105,3.5589027,-3.8809648
alexnet,1,208,NaN,clock,cat,0.03,0208_nse_dnn_0.03_cat_10_n02123597_9664.png,n02123597_9664.png,0.0,1.6506561,3.344886,-1.1980015
alexnet,1,209,NaN,clock,clock,0.35,0209_nse_dnn_0.35_clock_10_n04548280_4113.png,n04548280_4113.png,1.0,1.4867893,1.4059628,0.057152983
alexnet,1,210,NaN,clock,keyboard,0.60,0210_nse_dnn_0.60_keyboard_10_n03085013_20363.png,n03085013_20363.png,0.0,-1.0932081,2.6794326,-2.6676598
alexnet,1,211,NaN,chair,truck,0.03,0211_nse_dnn_0.03_truck_10_n04467665_67908.png,n04467665_67908.png,0.0,2.6635225,3.7859318,-0.79366326
alexnet,1,212,NaN,clock,truck,0.90,0212_nse_dnn_0.90_truck_10_n04467665_61522.png,n04467665_61522.png,0.0,-2.6535573,3.0386455,-4.0249953
alexnet,1,213,NaN,clock,cat,0.90,0213_nse_dnn_0.90_cat_10_n02123045_3648.png,n02123045_3648.png,0.0,-0.10536754,3.5534346,-2.5871637
alexnet,1,214,NaN,clock,dog,0.60,0214_nse_dnn_0.60_dog_10_n02107574_3685.png,n02107574_3685.png,0.0,-0.3910763,2.747729,-2.2194705
alexnet,1,215,NaN,cat,dog,0.20,0215_nse_dnn_0.20_dog_10_n02100236_4048.png,n02100236_4048.png,0.0,0.69898146,1.8290128,-0.79905283
alexnet,1,216,NaN,clock,bear,0.35,0216_nse_dnn_0.35_bear_10_n02134418_5073.png,n02134418_5073.png,0.0,0.15101814,1.8710119,-1.2162192
alexnet,1,217,NaN,clock,airplane,0.90,0217_nse_dnn_0.90_airplane_10_n02690373_9012.png,n02690373_9012.png,0.0,-7.2631755,3.0394928,-7.285087
alexnet,1,218,NaN,clock,cat,0.35,0218_nse_dnn_0.35_cat_10_n02123159_6439.png,n02123159_6439.png,0.0,0.84876424,1.8167728,-0.68448544
alexnet,1,219,NaN,clock,cat,0.60,0219_nse_dnn_0.60_cat_10_n02125311_3616.png,n02125311_3616.png,0.0,-0.11442578,2.9335573,-2.1552496
alexnet,1,220,NaN,clock,bottle,0.60,0220_nse_dnn_0.60_bottle_10_n04557648_4356.png,n04557648_4356.png,0.0,2.2914407,2.5547454,-0.18618456
alexnet,1,221,NaN,clock,bird,0.35,0221_nse_dnn_0.35_bird_10_n02027492_6813.png,n02027492_6813.png,0.0,-0.41937608,1.63766,-1.4545442
alexnet,1,222,NaN,chair,chair,0.03,0222_nse_dnn_0.03_chair_10_n04429376_26765.png,n04429376_26765.png,1.0,3.7973266,2.986527,0.5733219
alexnet,1,223,NaN,clock,elephant,0.35,0223_nse_dnn_0.35_elephant_10_n02504458_4811.png,n02504458_4811.png,0.0,-1.7025005,2.0668871,-2.6653597
alexnet,1,224,NaN,cat,keyboard,0.20,0224_nse_dnn_0.20_keyboard_10_n04505470_1351.png,n04505470_1351.png,0.0,-1.0414665,1.7881861,-2.0008667
alexnet,1,225,NaN,chair,chair,0.05,0225_nse_dnn_0.05_chair_10_n04099969_2532.png,n04099969_2532.png,1.0,3.1832552,2.319116,0.6110386
alexnet,1,226,NaN,clock,airplane,0.10,0226_nse_dnn_0.10_airplane_10_n02690373_8547.png,n02690373_8547.png,0.0,-2.2869024,2.183047,-3.1607318
alexnet,1,227,NaN,clock,truck,0.35,0227_nse_dnn_0.35_truck_10_n03417042_23445.png,n03417042_23445.png,0.0,-1.9208305,1.6745132,-2.5422919
alexnet,1,228,NaN,clock,truck,0.90,0228_nse_dnn_0.90_truck_10_n04467665_48953.png,n04467665_48953.png,0.0,-2.825066,3.4904919,-4.465774
alexnet,1,229,NaN,cat,boat,0.20,0229_nse_dnn_0.20_boat_10_n03662601_11739.png,n03662601_11739.png,0.0,-0.81822187,1.6582178,-1.7511073
alexnet,1,230,NaN,cat,cat,0.03,0230_nse_dnn_0.03_cat_10_n02123597_4948.png,n02123597_4948.png,1.0,5.94255,1.9962234,2.7904744
alexnet,1,231,NaN,clock,oven,0.35,0231_nse_dnn_0.35_oven_10_n04111531_9411.png,n04111531_9411.png,0.0,-2.0707626,1.8236405,-2.753759
alexnet,1,232,NaN,clock,bicycle,0.60,0232_nse_dnn_0.60_bicycle_10_n03792782_988.png,n03792782_988.png,0.0,-1.4744318,2.50307,-2.8125186
alexnet,1,233,NaN,cat,car,0.05,0233_nse_dnn_0.05_car_10_n02814533_65294.png,n02814533_65294.png,0.0,-0.038029235,2.350445,-1.6889063
alexnet,1,234,NaN,bottle,bottle,0.00,0234_nse_dnn_0.00_bottle_10_n04557648_10420.png,n04557648_10420.png,1.0,5.484016,3.454197,1.4352988
alexnet,1,235,NaN,clock,chair,0.60,0235_nse_dnn_0.60_chair_10_n04099969_33329.png,n04099969_33329.png,0.0,-1.3453516,2.690194,-2.8535616
alexnet,1,236,NaN,clock,oven,0.35,0236_nse_dnn_0.35_oven_10_n04111531_20493.png,n04111531_20493.png,0.0,-2.654669,1.9712409,-3.2710123
alexnet,1,237,NaN,clock,clock,0.10,0237_nse_dnn_0.10_clock_10_n04548280_7839.png,n04548280_7839.png,1.0,4.2676544,1.8652877,1.6987298
alexnet,1,238,NaN,clock,airplane,0.20,0238_nse_dnn_0.20_airplane_10_n02690373_7229.png,n02690373_7229.png,0.0,-4.0937014,1.791469,-4.161444
alexnet,1,239,NaN,cat,airplane,0.10,0239_nse_dnn_0.10_airplane_10_n02690373_5003.png,n02690373_5003.png,0.0,-3.5494347,1.9347762,-3.8779228
alexnet,1,240,NaN,clock,chair,0.20,0240_nse_dnn_0.20_chair_10_n02791124_206.png,n02791124_206.png,0.0,-0.7678196,2.2995195,-2.1689365
alexnet,1,241,NaN,oven,oven,0.00,0241_nse_dnn_0.00_oven_10_n04111531_7283.png,n04111531_7283.png,1.0,6.235233,5.4415035,0.5612514
alexnet,1,242,NaN,clock,chair,0.35,0242_nse_dnn_0.35_chair_10_n04429376_8124.png,n04429376_8124.png,0.0,-0.36173105,2.364332,-1.9276177
alexnet,1,243,NaN,chair,keyboard,0.00,0243_nse_dnn_0.00_keyboard_10_n04505470_3864.png,n04505470_3864.png,0.0,3.3817239,3.5298014,-0.1047066
alexnet,1,244,NaN,clock,bottle,0.35,0244_nse_dnn_0.35_bottle_10_n03937543_3289.png,n03937543_3289.png,0.0,1.4865099,1.8515848,-0.2581469
alexnet,1,245,NaN,cat,boat,0.10,0245_nse_dnn_0.10_boat_10_n03344393_5207.png,n03344393_5207.png,0.0,-0.6103605,2.0520337,-1.882597
alexnet,1,246,NaN,clock,airplane,0.90,0246_nse_dnn_0.90_airplane_10_n02690373_629.png,n02690373_629.png,0.0,-7.212281,3.3497965,-7.468517
alexnet,1,247,NaN,elephant,elephant,0.03,0247_nse_dnn_0.03_elephant_10_n02504013_104.png,n02504013_104.png,1.0,3.6760826,3.2768238,0.28231865
alexnet,1,248,NaN,clock,bicycle,0.03,0248_nse_dnn_0.03_bicycle_10_n03792782_42626.png,n03792782_42626.png,0.0,-0.06899649,3.0171864,-2.1822608
alexnet,1,249,NaN,clock,truck,0.35,0249_nse_dnn_0.35_truck_10_n03417042_6847.png,n03417042_6847.png,0.0,-1.9800011,1.6341333,-2.555579
alexnet,1,250,NaN,clock,chair,0.10,0250_nse_dnn_0.10_chair_10_n04429376_23573.png,n04429376_23573.png,0.0,-0.33061665,2.4922938,-1.9960992
alexnet,1,251,NaN,knife,clock,0.03,0251_nse_dnn_0.03_clock_10_n03196217_7637.png,n03196217_7637.png,0.0,4.9805856,5.6610785,-0.48118114
alexnet,1,252,NaN,clock,airplane,0.05,0252_nse_dnn_0.05_airplane_10_n02690373_932.png,n02690373_932.png,0.0,-0.07905221,2.39888,-1.7521627
alexnet,1,253,NaN,bicycle,truck,0.05,0253_nse_dnn_0.05_truck_10_n03417042_9478.png,n03417042_9478.png,0.0,2.6823225,4.0273733,-0.95109457
alexnet,1,254,NaN,clock,clock,0.05,0254_nse_dnn_0.05_clock_10_n04548280_7800.png,n04548280_7800.png,1.0,7.0688744,4.184808,2.039343
alexnet,1,255,NaN,cat,keyboard,0.10,0255_nse_dnn_0.10_keyboard_10_n03085013_1698.png,n03085013_1698.png,0.0,-0.8485403,2.7061303,-2.5135317
alexnet,1,256,NaN,cat,boat,0.20,0256_nse_dnn_0.20_boat_10_n04273569_32553.png,n04273569_32553.png,0.0,-0.3967076,1.5763308,-1.3951489
alexnet,1,257,NaN,clock,bear,0.03,0257_nse_dnn_0.03_bear_10_n02132136_23078.png,n02132136_23078.png,0.0,1.3343844,2.2180388,-0.624838
alexnet,1,258,NaN,bottle,bottle,0.00,0258_nse_dnn_0.00_bottle_10_n04591713_5476.png,n04591713_5476.png,1.0,5.7483025,3.5620093,1.5459427
alexnet,1,259,NaN,cat,knife,0.10,0259_nse_dnn_0.10_knife_10_n03041632_31849.png,n03041632_31849.png,0.0,-2.2622166,2.5610716,-3.4105797
alexnet,1,260,NaN,clock,truck,0.90,0260_nse_dnn_0.90_truck_10_n03417042_12908.png,n03417042_12908.png,0.0,-2.951054,3.426728,-4.509773
alexnet,1,261,NaN,clock,clock,0.60,0261_nse_dnn_0.60_clock_10_n02708093_1418.png,n02708093_1418.png,1.0,2.6571739,2.0493443,0.42980042
alexnet,1,262,NaN,clock,car,0.05,0262_nse_dnn_0.05_car_10_n03100240_4173.png,n03100240_4173.png,0.0,2.058336,3.7856681,-1.2214082
alexnet,1,263,NaN,clock,keyboard,0.10,0263_nse_dnn_0.10_keyboard_10_n03085013_25476.png,n03085013_25476.png,0.0,1.7308447,2.7331295,-0.70872235
alexnet,1,264,NaN,clock,cat,0.05,0264_nse_dnn_0.05_cat_10_n02125311_34464.png,n02125311_34464.png,0.0,1.7501873,1.9600511,-0.1483961
alexnet,1,265,NaN,cat,knife,0.20,0265_nse_dnn_0.20_knife_10_n03041632_36789.png,n03041632_36789.png,0.0,-1.2018102,2.131551,-2.3570423
alexnet,1,266,NaN,bottle,dog,0.03,0266_nse_dnn_0.03_dog_10_n02108915_3733.png,n02108915_3733.png,0.0,0.7517719,3.5613818,-1.9866942
alexnet,1,267,NaN,clock,knife,0.60,0267_nse_dnn_0.60_knife_10_n03041632_42162.png,n03041632_42162.png,0.0,0.42784145,2.634317,-1.5602138
alexnet,1,268,NaN,clock,keyboard,0.10,0268_nse_dnn_0.10_keyboard_10_n03085013_29042.png,n03085013_29042.png,0.0,-0.53240436,3.6580322,-2.9630861
alexnet,1,269,NaN,airplane,airplane,0.00,0269_nse_dnn_0.00_airplane_10_n02690373_19407.png,n02690373_19407.png,1.0,9.709058,5.1054983,3.2552083
alexnet,1,270,NaN,clock,bear,0.05,0270_nse_dnn_0.05_bear_10_n02134084_22029.png,n02134084_22029.png,0.0,0.33255416,2.5452182,-1.5645899
alexnet,1,271,NaN,clock,dog,0.60,0271_nse_dnn_0.60_dog_10_n02088238_11711.png,n02088238_11711.png,0.0,-0.58703256,3.047191,-2.5697842
alexnet,1,272,NaN,cat,elephant,0.20,0272_nse_dnn_0.20_elephant_10_n02504013_8522.png,n02504013_8522.png,0.0,-1.9457358,2.0854232,-2.8504598
alexnet,1,273,NaN,clock,elephant,0.60,0273_nse_dnn_0.60_elephant_10_n02504458_5941.png,n02504458_5941.png,0.0,-4.367481,2.4536726,-4.823284
alexnet,1,274,NaN,chair,truck,0.00,0274_nse_dnn_0.00_truck_10_n04467665_242.png,n04467665_242.png,0.0,5.1925483,6.110676,-0.6492142
alexnet,1,275,NaN,keyboard,keyboard,0.00,0275_nse_dnn_0.00_keyboard_10_n04505470_4473.png,n04505470_4473.png,1.0,10.066906,6.1216254,2.7897346
alexnet,1,276,NaN,boat,boat,0.05,0276_nse_dnn_0.05_boat_10_n03662601_10811.png,n03662601_10811.png,1.0,2.5276344,1.9412413,0.41464254
alexnet,1,277,NaN,keyboard,keyboard,0.03,0277_nse_dnn_0.03_keyboard_10_n03085013_20495.png,n03085013_20495.png,1.0,7.9472404,4.17627,2.6664786
alexnet,1,278,NaN,bicycle,bicycle,0.00,0278_nse_dnn_0.00_bicycle_10_n02835271_15038.png,n02835271_15038.png,1.0,7.4707794,1.6589522,4.1095824
alexnet,1,279,NaN,cat,bear,0.20,0279_nse_dnn_0.20_bear_10_n02134418_5271.png,n02134418_5271.png,0.0,-0.17451873,2.022096,-1.5532413
alexnet,1,280,NaN,cat,chair,0.10,0280_nse_dnn_0.10_chair_10_n02791124_1217.png,n02791124_1217.png,0.0,0.6903821,2.2560093,-1.1070657
alexnet,1,281,NaN,clock,elephant,0.10,0281_nse_dnn_0.10_elephant_10_n02504013_2394.png,n02504013_2394.png,0.0,-2.1305892,2.236011,-3.0876524
alexnet,1,282,NaN,clock,dog,0.35,0282_nse_dnn_0.35_dog_10_n02105505_5576.png,n02105505_5576.png,0.0,0.39015737,1.7143211,-0.9363252
alexnet,1,283,NaN,cat,airplane,0.10,0283_nse_dnn_0.10_airplane_10_n02690373_2579.png,n02690373_2579.png,0.0,-2.945437,1.9826703,-3.484698
alexnet,1,284,NaN,elephant,dog,0.05,0284_nse_dnn_0.05_dog_10_n02102480_10015.png,n02102480_10015.png,0.0,1.4782772,4.171445,-1.9043572
alexnet,1,285,NaN,cat,cat,0.10,0285_nse_dnn_0.10_cat_10_n02124075_5853.png,n02124075_5853.png,1.0,2.5247095,2.2824457,0.17130637
alexnet,1,286,NaN,clock,truck,0.00,0286_nse_dnn_0.00_truck_10_n03796401_2012.png,n03796401_2012.png,0.0,4.3097496,7.7637806,-2.4423687
alexnet,1,287,NaN,cat,keyboard,0.10,0287_nse_dnn_0.10_keyboard_10_n04505470_1286.png,n04505470_1286.png,0.0,0.17681164,2.6109977,-1.7212294
alexnet,1,288,NaN,clock,truck,0.10,0288_nse_dnn_0.10_truck_10_n04467665_74008.png,n04467665_74008.png,0.0,-0.10831855,3.3737094,-2.4621656
alexnet,1,289,NaN,clock,bottle,0.90,0289_nse_dnn_0.90_bottle_10_n04560804_10541.png,n04560804_10541.png,0.0,2.4630637,3.5191307,-0.74675214
alexnet,1,290,NaN,cat,airplane,0.20,0290_nse_dnn_0.20_airplane_10_n02690373_8967.png,n02690373_8967.png,0.0,-3.9312222,1.1735386,-3.609611
alexnet,1,291,NaN,clock,keyboard,0.60,0291_nse_dnn_0.60_keyboard_10_n04505470_3309.png,n04505470_3309.png,0.0,-0.42767048,2.5887983,-2.1329656
alexnet,1,292,NaN,cat,car,0.05,0292_nse_dnn_0.05_car_10_n02814533_42665.png,n02814533_42665.png,0.0,1.9061364,3.8629339,-1.3836648
alexnet,1,293,NaN,bottle,bicycle,0.03,0293_nse_dnn_0.03_bicycle_10_n03792782_6613.png,n03792782_6613.png,0.0,1.1486778,2.5872493,-1.0172236
alexnet,1,294,NaN,knife,knife,0.00,0294_nse_dnn_0.00_knife_10_n03041632_38540.png,n03041632_38540.png,1.0,10.3292885,3.8237681,4.6000977
alexnet,1,295,NaN,clock,dog,0.90,0295_nse_dnn_0.90_dog_10_n02109047_6542.png,n02109047_6542.png,0.0,-0.5161966,3.0061646,-2.4906857
alexnet,1,296,NaN,clock,bicycle,0.35,0296_nse_dnn_0.35_bicycle_10_n03792782_51156.png,n03792782_51156.png,0.0,-0.16956174,1.7373123,-1.3483636
alexnet,1,297,NaN,clock,bottle,0.10,0297_nse_dnn_0.10_bottle_10_n04579145_5795.png,n04579145_5795.png,0.0,1.5294923,2.6951225,-0.82422507
alexnet,1,298,NaN,chair,chair,0.03,0298_nse_dnn_0.03_chair_10_n03376595_787.png,n03376595_787.png,1.0,4.3434687,1.548601,1.9762698
alexnet,1,299,NaN,clock,bottle,0.90,0299_nse_dnn_0.90_bottle_10_n04579145_1117.png,n04579145_1117.png,0.0,2.3887978,3.0724342,-0.48340395
alexnet,1,300,NaN,elephant,bird,0.00,0300_nse_dnn_0.00_bird_10_n01795545_11076.png,n01795545_11076.png,0.0,-1.9003311,2.9950228,-3.4615378
alexnet,1,301,NaN,cat,clock,0.20,0301_nse_dnn_0.20_clock_10_n03196217_6741.png,n03196217_6741.png,0.0,1.5399045,1.7414049,-0.14248231
alexnet,1,302,NaN,oven,oven,0.00,0302_nse_dnn_0.00_oven_10_n04111531_3555.png,n04111531_3555.png,1.0,5.6802454,4.8847713,0.5624851
alexnet,1,303,NaN,cat,knife,0.20,0303_nse_dnn_0.20_knife_10_n03041632_36280.png,n03041632_36280.png,0.0,-1.459261,2.0211852,-2.4610472
alexnet,1,304,NaN,truck,truck,0.03,0304_nse_dnn_0.03_truck_10_n04467665_74235.png,n04467665_74235.png,1.0,9.261618,5.0329843,2.9900954
alexnet,1,305,NaN,clock,clock,0.90,0305_nse_dnn_0.90_clock_10_n04548280_6287.png,n04548280_6287.png,1.0,3.1488998,2.2759924,0.61723876
alexnet,1,306,NaN,elephant,elephant,0.00,0306_nse_dnn_0.00_elephant_10_n02504458_6472.png,n02504458_6472.png,1.0,6.083741,4.6750693,0.9960814
alexnet,1,307,NaN,bicycle,bicycle,0.05,0307_nse_dnn_0.05_bicycle_10_n03792782_11034.png,n03792782_11034.png,1.0,3.1068373,2.7760572,0.2338968
alexnet,1,308,NaN,clock,dog,0.60,0308_nse_dnn_0.60_dog_10_n02109525_50916.png,n02109525_50916.png,0.0,-0.49818087,2.5996752,-2.190515
alexnet,1,309,NaN,clock,dog,0.60,0309_nse_dnn_0.60_dog_10_n02097658_1923.png,n02097658_1923.png,0.0,-0.22181156,2.7357464,-2.0913093
alexnet,1,310,NaN,bottle,knife,0.03,0310_nse_dnn_0.03_knife_10_n03041632_22480.png,n03041632_22480.png,0.0,3.3458972,4.055932,-0.5020705
alexnet,1,311,NaN,clock,elephant,0.35,0311_nse_dnn_0.35_elephant_10_n02504458_1041.png,n02504458_1041.png,0.0,-2.5213497,1.7125463,-2.9938169
alexnet,1,312,NaN,clock,knife,0.10,0312_nse_dnn_0.10_knife_10_n03041632_28129.png,n03041632_28129.png,0.0,-2.4699361,3.5530713,-4.258909
alexnet,1,313,NaN,car,car,0.00,0313_nse_dnn_0.00_car_10_n03100240_14667.png,n03100240_14667.png,1.0,6.9565225,6.1688986,0.5569342
alexnet,1,314,NaN,airplane,airplane,0.03,0314_nse_dnn_0.03_airplane_10_n02690373_3821.png,n02690373_3821.png,1.0,8.3035145,3.9484859,3.0794704
alexnet,1,315,NaN,clock,cat,0.90,0315_nse_dnn_0.90_cat_10_n02124075_1183.png,n02124075_1183.png,0.0,-0.31966534,3.3962736,-2.6275659
alexnet,1,316,NaN,clock,car,0.90,0316_nse_dnn_0.90_car_10_n03100240_1194.png,n03100240_1194.png,0.0,-2.212653,3.0115814,-3.6940918
alexnet,1,317,NaN,clock,oven,0.60,0317_nse_dnn_0.60_oven_10_n04111531_9370.png,n04111531_9370.png,0.0,-1.7756122,2.9135857,-3.3157637
alexnet,1,318,NaN,cat,truck,0.20,0318_nse_dnn_0.20_truck_10_n03417042_10597.png,n03417042_10597.png,0.0,-1.2860223,1.6577005,-2.0815263
alexnet,1,319,NaN,clock,truck,0.05,0319_nse_dnn_0.05_truck_10_n03417042_6489.png,n03417042_6489.png,0.0,2.5217462,3.3391743,-0.57800895
alexnet,1,320,NaN,elephant,bottle,0.05,0320_nse_dnn_0.05_bottle_10_n04591713_6662.png,n04591713_6662.png,0.0,2.0608432,3.6974967,-1.1572888
alexnet,1,321,NaN,clock,bottle,0.60,0321_nse_dnn_0.60_bottle_10_n04560804_4624.png,n04560804_4624.png,0.0,2.2295558,2.5946615,-0.25816867
alexnet,1,322,NaN,chair,bird,0.00,0322_nse_dnn_0.00_bird_10_n01818515_7370.png,n01818515_7370.png,0.0,-1.6735877,2.052999,-2.635095
alexnet,1,323,NaN,oven,keyboard,0.05,0323_nse_dnn_0.05_keyboard_10_n03085013_15646.png,n03085013_15646.png,0.0,0.87875557,2.46974,-1.1249958
alexnet,1,324,NaN,cat,cat,0.03,0324_nse_dnn_0.03_cat_10_n02124075_14924.png,n02124075_14924.png,1.0,4.788701,4.3476796,0.31184927
alexnet,1,325,NaN,clock,elephant,0.20,0325_nse_dnn_0.20_elephant_10_n02504013_18217.png,n02504013_18217.png,0.0,-2.05817,1.9953312,-2.8662581
alexnet,1,326,NaN,bottle,keyboard,0.35,0326_nse_dnn_0.35_keyboard_10_n04505470_4724.png,n04505470_4724.png,0.0,-0.6758981,1.6543311,-1.6477209
alexnet,1,327,NaN,cat,clock,0.20,0327_nse_dnn_0.20_clock_10_n04548280_9646.png,n04548280_9646.png,0.0,1.3490397,2.1038609,-0.5337392
alexnet,1,328,NaN,clock,cat,0.35,0328_nse_dnn_0.35_cat_10_n02123394_6376.png,n02123394_6376.png,0.0,1.2733226,1.8924414,-0.43778312
alexnet,1,329,NaN,clock,elephant,0.35,0329_nse_dnn_0.35_elephant_10_n02504458_130.png,n02504458_130.png,0.0,-3.160522,2.3139408,-3.8710296
alexnet,1,330,NaN,clock,cat,0.90,0330_nse_dnn_0.90_cat_10_n02124075_9291.png,n02124075_9291.png,0.0,-0.22396831,3.3756,-2.5452793
alexnet,1,331,NaN,cat,bird,0.10,0331_nse_dnn_0.10_bird_10_n02037110_3949.png,n02037110_3949.png,0.0,-0.29098016,2.1209242,-1.7054739
alexnet,1,332,NaN,car,car,0.00,0332_nse_dnn_0.00_car_10_n04285008_10905.png,n04285008_10905.png,1.0,8.666834,7.4577494,0.85495186
alexnet,1,333,NaN,clock,chair,0.10,0333_nse_dnn_0.10_chair_10_n04429376_619.png,n04429376_619.png,0.0,1.8818231,2.9988165,-0.78983366
alexnet,1,334,NaN,clock,boat,0.90,0334_nse_dnn_0.90_boat_10_n02951358_30335.png,n02951358_30335.png,0.0,-1.9457191,3.2057002,-3.6426034
alexnet,1,335,NaN,clock,oven,0.90,0335_nse_dnn_0.90_oven_10_n04111531_17995.png,n04111531_17995.png,0.0,-1.5714896,3.3561614,-3.4843755
alexnet,1,336,NaN,clock,bird,0.35,0336_nse_dnn_0.35_bird_10_n01828970_11221.png,n01828970_11221.png,0.0,-0.49468526,1.9502615,-1.7288384
alexnet,1,337,NaN,clock,elephant,0.10,0337_nse_dnn_0.10_elephant_10_n02504013_1719.png,n02504013_1719.png,0.0,-1.3174338,2.689922,-2.8336284
alexnet,1,338,NaN,clock,oven,0.10,0338_nse_dnn_0.10_oven_10_n04111531_8009.png,n04111531_8009.png,0.0,-1.3682437,2.6753032,-2.8592193
alexnet,1,339,NaN,clock,airplane,0.60,0339_nse_dnn_0.60_airplane_10_n02690373_8233.png,n02690373_8233.png,0.0,-6.4407063,2.4605436,-6.294134
alexnet,1,340,NaN,cat,dog,0.10,0340_nse_dnn_0.10_dog_10_n02092339_401.png,n02092339_401.png,0.0,1.58488,3.2789824,-1.1979113
alexnet,1,341,NaN,clock,bottle,0.10,0341_nse_dnn_0.10_bottle_10_n02823428_11579.png,n02823428_11579.png,0.0,1.9777755,4.1470156,-1.5338843
alexnet,1,342,NaN,clock,car,0.60,0342_nse_dnn_0.60_car_10_n04285008_6951.png,n04285008_6951.png,0.0,-2.084859,2.5812204,-3.2994165
alexnet,1,343,NaN,bottle,bicycle,0.35,0343_nse_dnn_0.35_bicycle_10_n03792782_12504.png,n03792782_12504.png,0.0,-0.7097913,1.5653313,-1.6087546
alexnet,1,344,NaN,bottle,bottle,0.00,0344_nse_dnn_0.00_bottle_10_n02823428_4073.png,n02823428_4073.png,1.0,9.385714,3.9851224,3.8187945
alexnet,1,345,NaN,clock,elephant,0.35,0345_nse_dnn_0.35_elephant_10_n02504013_945.png,n02504013_945.png,0.0,-2.8594196,2.5277226,-3.809285
alexnet,1,346,NaN,clock,cat,0.10,0346_nse_dnn_0.10_cat_10_n02124075_12815.png,n02124075_12815.png,0.0,3.0350955,3.4873302,-0.31977826
alexnet,1,347,NaN,clock,truck,0.60,0347_nse_dnn_0.60_truck_10_n03417042_4876.png,n03417042_4876.png,0.0,-2.563415,2.6994946,-3.7214394
alexnet,1,348,NaN,chair,keyboard,0.05,0348_nse_dnn_0.05_keyboard_10_n04505470_4628.png,n04505470_4628.png,0.0,-0.1066702,5.709512,-4.1126623
alexnet,1,349,NaN,cat,bear,0.20,0349_nse_dnn_0.20_bear_10_n02133161_1427.png,n02133161_1427.png,0.0,-0.10640317,1.9937576,-1.485038
alexnet,1,350,NaN,clock,boat,0.60,0350_nse_dnn_0.60_boat_10_n04273569_7296.png,n04273569_7296.png,0.0,-1.2195992,2.8790874,-2.898209
alexnet,1,351,NaN,clock,chair,0.90,0351_nse_dnn_0.90_chair_10_n04099969_41686.png,n04099969_41686.png,0.0,-1.9989841,3.053466,-3.5726218
alexnet,1,352,NaN,airplane,airplane,0.03,0352_nse_dnn_0.03_airplane_10_n02690373_10006.png,n02690373_10006.png,1.0,1.9372452,1.6840652,0.17902532
alexnet,1,353,NaN,clock,knife,0.90,0353_nse_dnn_0.90_knife_10_n03041632_20595.png,n03041632_20595.png,0.0,0.79022473,2.8465147,-1.4540166
alexnet,1,354,NaN,clock,oven,0.90,0354_nse_dnn_0.90_oven_10_n04111531_2054.png,n04111531_2054.png,0.0,-2.3612697,3.0773027,-3.8456514
alexnet,1,355,NaN,clock,truck,0.20,0355_nse_dnn_0.20_truck_10_n04467665_40307.png,n04467665_40307.png,0.0,-0.664168,2.6944065,-2.3748708
alexnet,1,356,NaN,bear,bear,0.00,0356_nse_dnn_0.00_bear_10_n02133161_396.png,n02133161_396.png,1.0,6.3012867,5.6587586,0.45433596
alexnet,1,357,NaN,cat,dog,0.03,0357_nse_dnn_0.03_dog_10_n02105056_5636.png,n02105056_5636.png,0.0,3.227883,3.946771,-0.50833046
alexnet,1,358,NaN,bottle,bicycle,0.35,0358_nse_dnn_0.35_bicycle_10_n02835271_8798.png,n02835271_8798.png,0.0,-0.81019336,1.5374451,-1.6600311
alexnet,1,359,NaN,clock,bear,0.90,0359_nse_dnn_0.90_bear_10_n02134418_5478.png,n02134418_5478.png,0.0,-0.092736185,3.2180443,-2.3410754
alexnet,1,360,NaN,clock,boat,0.90,0360_nse_dnn_0.90_boat_10_n04612504_4250.png,n04612504_4250.png,0.0,-1.909076,3.4544232,-3.7925668
alexnet,1,361,NaN,clock,knife,0.35,0361_nse_dnn_0.35_knife_10_n03041632_18959.png,n03041632_18959.png,0.0,-0.57207257,1.8873667,-1.7390863
alexnet,1,362,NaN,cat,dog,0.35,0362_nse_dnn_0.35_dog_10_n02105251_6564.png,n02105251_6564.png,0.0,0.5534252,1.6139855,-0.7499294
alexnet,1,363,NaN,clock,boat,0.90,0363_nse_dnn_0.90_boat_10_n04612504_7148.png,n04612504_7148.png,0.0,-1.4914094,3.1200447,-3.2607903
alexnet,1,364,NaN,airplane,boat,0.03,0364_nse_dnn_0.03_boat_10_n04273569_4348.png,n04273569_4348.png,0.0,2.153026,2.5176167,-0.2578045
alexnet,1,365,NaN,truck,car,0.03,0365_nse_dnn_0.03_car_10_n02814533_88986.png,n02814533_88986.png,0.0,4.911818,5.30336,-0.27686197
alexnet,1,366,NaN,clock,bear,0.03,0366_nse_dnn_0.03_bear_10_n02134418_2590.png,n02134418_2590.png,0.0,2.686345,3.8649204,-0.8333786
alexnet,1,367,NaN,cat,bird,0.20,0367_nse_dnn_0.20_bird_10_n02007558_5877.png,n02007558_5877.png,0.0,-0.85963714,1.3908669,-1.5913466
alexnet,1,368,NaN,clock,clock,0.05,0368_nse_dnn_0.05_clock_10_n02708093_1313.png,n02708093_1313.png,1.0,6.9005637,1.6734676,3.6961153
alexnet,1,369,NaN,clock,keyboard,0.35,0369_nse_dnn_0.35_keyboard_10_n03085013_20798.png,n03085013_20798.png,0.0,-1.0644046,1.5383238,-1.8404069
alexnet,1,370,NaN,clock,dog,0.90,0370_nse_dnn_0.90_dog_10_n02109525_13812.png,n02109525_13812.png,0.0,-0.5383601,3.421294,-2.7998984
alexnet,1,371,NaN,bottle,bear,0.20,0371_nse_dnn_0.20_bear_10_n02134418_4458.png,n02134418_4458.png,0.0,-0.18767335,1.61638,-1.2756584
alexnet,1,372,NaN,cat,bottle,0.20,0372_nse_dnn_0.20_bottle_10_n04560804_21519.png,n04560804_21519.png,0.0,1.3481443,1.8384823,-0.34672132
alexnet,1,373,NaN,clock,elephant,0.10,0373_nse_dnn_0.10_elephant_10_n02504458_8183.png,n02504458_8183.png,0.0,1.6538358,2.4651592,-0.57369226
alexnet,1,374,NaN,clock,keyboard,0.90,0374_nse_dnn_0.90_keyboard_10_n03085013_20330.png,n03085013_20330.png,0.0,-0.49815953,2.9047873,-2.406247
alexnet,1,375,NaN,cat,elephant,0.10,0375_nse_dnn_0.10_elephant_10_n02504013_5533.png,n02504013_5533.png,0.0,-0.8300463,2.5576413,-2.395457
alexnet,1,376,NaN,clock,oven,0.90,0376_nse_dnn_0.90_oven_10_n04111531_1009.png,n04111531_1009.png,0.0,-1.8595939,3.6201923,-3.8747938
alexnet,1,377,NaN,clock,bicycle,0.05,0377_nse_dnn_0.05_bicycle_10_n03792782_48457.png,n03792782_48457.png,0.0,1.5293629,2.9502976,-1.0047525
alexnet,1,378,NaN,cat,cat,0.10,0378_nse_dnn_0.10_cat_10_n02124075_7240.png,n02124075_7240.png,1.0,3.0211365,2.2273035,0.5613247
alexnet,1,379,NaN,clock,car,0.60,0379_nse_dnn_0.60_car_10_n02814533_39597.png,n02814533_39597.png,0.0,-2.0131378,3.0149667,-3.555407
alexnet,1,380,NaN,chair,chair,0.03,0380_nse_dnn_0.03_chair_10_n04429376_33792.png,n04429376_33792.png,1.0,4.6267557,3.4293196,0.8467152
alexnet,1,381,NaN,clock,bicycle,0.60,0381_nse_dnn_0.60_bicycle_10_n03792782_15679.png,n03792782_15679.png,0.0,-2.0084002,2.9509895,-3.506818
alexnet,1,382,NaN,clock,bicycle,0.60,0382_nse_dnn_0.60_bicycle_10_n02835271_9237.png,n02835271_9237.png,0.0,-1.5425974,2.5691578,-2.9074502
alexnet,1,383,NaN,bottle,bottle,0.35,0383_nse_dnn_0.35_bottle_10_n04591713_665.png,n04591713_665.png,1.0,1.9145778,1.7490906,0.11701719
alexnet,1,384,NaN,cat,cat,0.03,0384_nse_dnn_0.03_cat_10_n02123159_8257.png,n02123159_8257.png,1.0,2.883975,2.565094,0.22548294
alexnet,1,385,NaN,cat,dog,0.10,0385_nse_dnn_0.10_dog_10_n02108551_26509.png,n02108551_26509.png,0.0,1.2077768,2.5572925,-0.9542517
alexnet,1,386,NaN,clock,clock,0.60,0386_nse_dnn_0.60_clock_10_n03196217_3697.png,n03196217_3697.png,1.0,2.4271667,1.9538547,0.33468214
alexnet,1,387,NaN,bicycle,bicycle,0.03,0387_nse_dnn_0.03_bicycle_10_n02835271_25268.png,n02835271_25268.png,1.0,4.068718,3.216283,0.60276246
alexnet,1,388,NaN,clock,truck,0.10,0388_nse_dnn_0.10_truck_10_n03796401_407.png,n03796401_407.png,0.0,-1.5720072,3.1615732,-3.347147
alexnet,1,389,NaN,clock,clock,0.05,0389_nse_dnn_0.05_clock_10_n04548280_2045.png,n04548280_2045.png,1.0,5.7986093,3.0652137,1.9328026
alexnet,1,390,NaN,clock,oven,0.05,0390_nse_dnn_0.05_oven_10_n04111531_5792.png,n04111531_5792.png,0.0,0.5283794,3.2486503,-1.923522
alexnet,1,391,NaN,clock,elephant,0.05,0391_nse_dnn_0.05_elephant_10_n02504458_8212.png,n02504458_8212.png,0.0,1.1708103,2.796944,-1.1498501
alexnet,1,392,NaN,knife,bird,0.03,0392_nse_dnn_0.03_bird_10_n01843383_8624.png,n01843383_8624.png,0.0,-3.553161,3.2553835,-4.814368
alexnet,1,393,NaN,cat,airplane,0.20,0393_nse_dnn_0.20_airplane_10_n02690373_4814.png,n02690373_4814.png,0.0,-4.0611897,2.084528,-4.345679
alexnet,1,394,NaN,clock,truck,0.60,0394_nse_dnn_0.60_truck_10_n03796401_6184.png,n03796401_6184.png,0.0,-2.3488536,3.1121826,-3.8615358
alexnet,1,395,NaN,cat,dog,0.03,0395_nse_dnn_0.03_dog_10_n02094114_1589.png,n02094114_1589.png,0.0,1.7468846,2.2505722,-0.35616094
alexnet,1,396,NaN,clock,clock,0.90,0396_nse_dnn_0.90_clock_10_n02708093_6572.png,n02708093_6572.png,1.0,3.4587944,2.3054683,0.8155247
alexnet,1,397,NaN,clock,boat,0.60,0397_nse_dnn_0.60_boat_10_n02951358_15551.png,n02951358_15551.png,0.0,-1.2307662,2.741804,-2.8090312
alexnet,1,398,NaN,bottle,boat,0.35,0398_nse_dnn_0.35_boat_10_n03662601_7352.png,n03662601_7352.png,0.0,-1.0949221,1.504445,-1.8380302
alexnet,1,399,NaN,clock,bicycle,0.60,0399_nse_dnn_0.60_bicycle_10_n03792782_14984.png,n03792782_14984.png,0.0,-1.8705078,3.0306463,-3.4656394
alexnet,1,400,NaN,clock,knife,0.35,0400_nse_dnn_0.35_knife_10_n03041632_84012.png,n03041632_84012.png,0.0,-0.2551521,1.9097902,-1.5308454
alexnet,1,401,NaN,cat,keyboard,0.10,0401_nse_dnn_0.10_keyboard_10_n03085013_9146.png,n03085013_9146.png,0.0,-0.94029355,2.172775,-2.201272
alexnet,1,402,NaN,bird,airplane,0.03,0402_nse_dnn_0.03_airplane_10_n02690373_6755.png,n02690373_6755.png,0.0,0.91400206,1.6924464,-0.55044323
alexnet,1,403,NaN,cat,dog,0.20,0403_nse_dnn_0.20_dog_10_n02086079_17983.png,n02086079_17983.png,0.0,0.7802642,2.0407226,-0.89127874
alexnet,1,404,NaN,bear,bear,0.00,0404_nse_dnn_0.00_bear_10_n02134418_3284.png,n02134418_3284.png,1.0,2.9275432,2.5418742,0.27270916
alexnet,1,405,NaN,bottle,elephant,0.35,0405_nse_dnn_0.35_elephant_10_n02504458_8064.png,n02504458_8064.png,0.0,-2.6666813,1.604817,-3.0204053
alexnet,1,406,NaN,clock,cat,0.20,0406_nse_dnn_0.20_cat_10_n02123394_289.png,n02123394_289.png,0.0,1.9637548,2.0920389,-0.09071056
alexnet,1,407,NaN,cat,knife,0.20,0407_nse_dnn_0.20_knife_10_n03041632_18995.png,n03041632_18995.png,0.0,-1.2316424,2.1157355,-2.3669536
alexnet,1,408,NaN,knife,bird,0.03,0408_nse_dnn_0.03_bird_10_n01843065_4999.png,n01843065_4999.png,0.0,-1.9858961,2.4592242,-3.143175
alexnet,1,409,NaN,clock,keyboard,0.60,0409_nse_dnn_0.60_keyboard_10_n03085013_22417.png,n03085013_22417.png,0.0,-1.1924561,2.382116,-2.527604
alexnet,1,410,NaN,cat,bear,0.05,0410_nse_dnn_0.05_bear_10_n02132136_3224.png,n02132136_3224.png,0.0,1.3917328,2.1328309,-0.52403545
alexnet,1,411,NaN,clock,boat,0.05,0411_nse_dnn_0.05_boat_10_n03662601_33184.png,n03662601_33184.png,0.0,1.066104,4.5295024,-2.4489925
alexnet,1,412,NaN,clock,bear,0.05,0412_nse_dnn_0.05_bear_10_n02133161_2396.png,n02133161_2396.png,0.0,0.57939404,2.3733213,-1.2684981
alexnet,1,413,NaN,clock,keyboard,0.35,0413_nse_dnn_0.35_keyboard_10_n03085013_24578.png,n03085013_24578.png,0.0,-0.9799166,1.9141431,-2.0464091
alexnet,1,414,NaN,clock,car,0.35,0414_nse_dnn_0.35_car_10_n02814533_4519.png,n02814533_4519.png,0.0,-1.4335184,1.5517071,-2.1108735
alexnet,1,415,NaN,bottle,bottle,0.00,0415_nse_dnn_0.00_bottle_10_n03937543_2428.png,n03937543_2428.png,1.0,5.9902654,4.14612,1.3040076
alexnet,1,416,NaN,boat,dog,0.05,0416_nse_dnn_0.05_dog_10_n02091635_8296.png,n02091635_8296.png,0.0,0.94298065,2.0182097,-0.76030177
alexnet,1,417,NaN,clock,bottle,0.35,0417_nse_dnn_0.35_bottle_10_n03983396_11434.png,n03983396_11434.png,0.0,1.6632813,2.1787636,-0.36450103
alexnet,1,418,NaN,clock,boat,0.00,0418_nse_dnn_0.00_boat_10_n02951358_7315.png,n02951358_7315.png,0.0,1.4530175,2.7466133,-0.91471034
alexnet,1,419,NaN,cat,bird,0.20,0419_nse_dnn_0.20_bird_10_n01860187_7297.png,n01860187_7297.png,0.0,-0.8118187,1.6362146,-1.731021
alexnet,1,420,NaN,cat,oven,0.20,0420_nse_dnn_0.20_oven_10_n04111531_4250.png,n04111531_4250.png,0.0,-3.3517766,2.0527375,-3.8215687
alexnet,1,421,NaN,clock,bear,0.20,0421_nse_dnn_0.20_bear_10_n02133161_9463.png,n02133161_9463.png,0.0,-0.17969856,1.8183241,-1.4128155
alexnet,1,422,NaN,chair,bird,0.00,0422_nse_dnn_0.00_bird_10_n02009229_4129.png,n02009229_4129.png,0.0,-0.124321565,1.4587109,-1.1193731
alexnet,1,423,NaN,clock,knife,0.10,0423_nse_dnn_0.10_knife_10_n03041632_30821.png,n03041632_30821.png,0.0,-0.8116218,2.6157498,-2.4235177
alexnet,1,424,NaN,clock,cat,0.90,0424_nse_dnn_0.90_cat_10_n02123394_2490.png,n02123394_2490.png,0.0,-0.12229351,3.1467335,-2.311551
alexnet,1,425,NaN,dog,dog,0.00,0425_nse_dnn_0.00_dog_10_n02087394_2723.png,n02087394_2723.png,1.0,3.9897451,2.7097454,0.90509653
alexnet,1,426,NaN,clock,dog,0.90,0426_nse_dnn_0.90_dog_10_n02093754_5736.png,n02093754_5736.png,0.0,-0.49605396,3.2708485,-2.6636024
alexnet,1,427,NaN,clock,bottle,0.60,0427_nse_dnn_0.60_bottle_10_n02823428_9063.png,n02823428_9063.png,0.0,2.155143,3.0750344,-0.65046144
alexnet,1,428,NaN,clock,truck,0.60,0428_nse_dnn_0.60_truck_10_n04467665_20933.png,n04467665_20933.png,0.0,-2.166851,3.0356894,-3.6787517
alexnet,1,429,NaN,cat,car,0.10,0429_nse_dnn_0.10_car_10_n03100240_5999.png,n03100240_5999.png,0.0,-2.0609367,3.210151,-3.727222
alexnet,1,430,NaN,oven,oven,0.03,0430_nse_dnn_0.03_oven_10_n04111531_3671.png,n04111531_3671.png,1.0,3.890345,3.8280172,0.044072453
alexnet,1,431,NaN,clock,truck,0.05,0431_nse_dnn_0.05_truck_10_n03417042_7187.png,n03417042_7187.png,0.0,0.8165343,1.9041873,-0.76908684
alexnet,1,432,NaN,clock,bottle,0.35,0432_nse_dnn_0.35_bottle_10_n04557648_2954.png,n04557648_2954.png,0.0,1.6120075,1.6730328,-0.04315138
alexnet,1,433,NaN,clock,elephant,0.35,0433_nse_dnn_0.35_elephant_10_n02504013_6645.png,n02504013_6645.png,0.0,-3.2510097,1.9443607,-3.673682
alexnet,1,434,NaN,cat,keyboard,0.10,0434_nse_dnn_0.10_keyboard_10_n04505470_6876.png,n04505470_6876.png,0.0,-1.485542,1.514215,-2.1211486
alexnet,1,435,NaN,clock,bird,0.20,0435_nse_dnn_0.20_bird_10_n02056570_3286.png,n02056570_3286.png,0.0,-1.3998209,1.6892405,-2.1842961
alexnet,1,436,NaN,clock,bird,0.90,0436_nse_dnn_0.90_bird_10_n02037110_8826.png,n02037110_8826.png,0.0,-0.7882533,3.2876885,-2.8821263
alexnet,1,437,NaN,car,car,0.00,0437_nse_dnn_0.00_car_10_n03100240_11400.png,n03100240_11400.png,1.0,8.238385,6.624807,1.1409721
alexnet,1,438,NaN,clock,bird,0.60,0438_nse_dnn_0.60_bird_10_n02018795_6389.png,n02018795_6389.png,0.0,-0.539903,2.6549385,-2.259094
alexnet,1,439,NaN,clock,oven,0.35,0439_nse_dnn_0.35_oven_10_n04111531_2458.png,n04111531_2458.png,0.0,-2.8630016,1.8629609,-3.3417604
alexnet,1,440,NaN,clock,cat,0.60,0440_nse_dnn_0.60_cat_10_n02123159_2256.png,n02123159_2256.png,0.0,0.13136077,3.0273006,-2.0477388
alexnet,1,441,NaN,elephant,elephant,0.03,0441_nse_dnn_0.03_elephant_10_n02504458_611.png,n02504458_611.png,1.0,10.171395,5.6663465,3.1855507
alexnet,1,442,NaN,elephant,knife,0.03,0442_nse_dnn_0.03_knife_10_n03041632_18141.png,n03041632_18141.png,0.0,2.1331816,3.304165,-0.82801026
alexnet,1,443,NaN,clock,bird,0.60,0443_nse_dnn_0.60_bird_10_n01843065_1871.png,n01843065_1871.png,0.0,-0.7340949,2.9558752,-2.6092029
alexnet,1,444,NaN,bicycle,bird,0.05,0444_nse_dnn_0.05_bird_10_n01833805_7361.png,n01833805_7361.png,0.0,-1.6307096,1.4303939,-2.1645272
alexnet,1,445,NaN,cat,elephant,0.20,0445_nse_dnn_0.20_elephant_10_n02504458_5827.png,n02504458_5827.png,0.0,-3.1742482,2.2396195,-3.8281827
alexnet,1,446,NaN,bottle,bicycle,0.35,0446_nse_dnn_0.35_bicycle_10_n02835271_5825.png,n02835271_5825.png,0.0,-0.2452036,1.3531507,-1.1302072
alexnet,1,447,NaN,clock,bear,0.90,0447_nse_dnn_0.90_bear_10_n02134084_12801.png,n02134084_12801.png,0.0,-0.13395247,3.4495132,-2.5338929
alexnet,1,448,NaN,clock,cat,0.10,0448_nse_dnn_0.10_cat_10_n02123394_3611.png,n02123394_3611.png,0.0,2.2923987,2.7732413,-0.34000707
alexnet,1,449,NaN,clock,chair,0.35,0449_nse_dnn_0.35_chair_10_n04429376_9589.png,n04429376_9589.png,0.0,-1.2221354,1.8987993,-2.206834
alexnet,1,450,NaN,clock,cat,0.35,0450_nse_dnn_0.35_cat_10_n02123394_3885.png,n02123394_3885.png,0.0,0.7415455,2.0691712,-0.9387732
alexnet,1,451,NaN,clock,elephant,0.90,0451_nse_dnn_0.90_elephant_10_n02504013_22633.png,n02504013_22633.png,0.0,-4.721801,2.9867868,-5.4507947
alexnet,1,452,NaN,cat,car,0.20,0452_nse_dnn_0.20_car_10_n02814533_2271.png,n02814533_2271.png,0.0,-1.2439073,1.8519726,-2.189118
alexnet,1,453,NaN,clock,truck,0.05,0453_nse_dnn_0.05_truck_10_n03417042_10150.png,n03417042_10150.png,0.0,0.9487627,3.306698,-1.6673121
alexnet,1,454,NaN,clock,oven,0.35,0454_nse_dnn_0.35_oven_10_n04111531_10583.png,n04111531_10583.png,0.0,-2.317653,2.1591423,-3.1655724
alexnet,1,455,NaN,bottle,bottle,0.03,0455_nse_dnn_0.03_bottle_10_n03937543_1602.png,n03937543_1602.png,1.0,6.1535287,2.779309,2.3859336
alexnet,1,456,NaN,bottle,knife,0.03,0456_nse_dnn_0.03_knife_10_n03041632_3504.png,n03041632_3504.png,0.0,2.0750787,3.5330958,-1.0309738
alexnet,1,457,NaN,bicycle,bicycle,0.03,0457_nse_dnn_0.03_bicycle_10_n03792782_1004.png,n03792782_1004.png,1.0,7.196091,1.4944493,4.0316696
alexnet,1,458,NaN,clock,cat,0.05,0458_nse_dnn_0.05_cat_10_n02123394_8172.png,n02123394_8172.png,0.0,2.134376,3.2612565,-0.7968248
alexnet,1,459,NaN,clock,elephant,0.10,0459_nse_dnn_0.10_elephant_10_n02504013_156.png,n02504013_156.png,0.0,1.101977,2.5409036,-1.0174748
alexnet,1,460,NaN,oven,car,0.03,0460_nse_dnn_0.03_car_10_n04285008_5559.png,n04285008_5559.png,0.0,-0.9386732,4.4521017,-3.8118534
alexnet,1,461,NaN,bottle,elephant,0.35,0461_nse_dnn_0.35_elephant_10_n02504458_6694.png,n02504458_6694.png,0.0,-2.9539976,1.5527333,-3.1867402
alexnet,1,462,NaN,clock,car,0.90,0462_nse_dnn_0.90_car_10_n04285008_15003.png,n04285008_15003.png,0.0,-2.020032,3.4053314,-3.8363113
alexnet,1,463,NaN,cat,chair,0.10,0463_nse_dnn_0.10_chair_10_n03376595_15723.png,n03376595_15723.png,0.0,-0.7328714,2.3034713,-2.1470184
alexnet,1,464,NaN,clock,knife,0.60,0464_nse_dnn_0.60_knife_10_n03041632_48816.png,n03041632_48816.png,0.0,0.6107955,2.4849598,-1.3252343
alexnet,1,465,NaN,clock,chair,0.90,0465_nse_dnn_0.90_chair_10_n03376595_4142.png,n03376595_4142.png,0.0,-1.7411976,3.1041787,-3.4261982
alexnet,1,466,NaN,clock,car,0.60,0466_nse_dnn_0.60_car_10_n04285008_2363.png,n04285008_2363.png,0.0,-1.765398,3.2740052,-3.563396
alexnet,1,467,NaN,cat,truck,0.10,0467_nse_dnn_0.10_truck_10_n03417042_7335.png,n03417042_7335.png,0.0,-0.67797786,1.7867032,-1.7427927
alexnet,1,468,NaN,oven,oven,0.00,0468_nse_dnn_0.00_oven_10_n04111531_6313.png,n04111531_6313.png,1.0,5.0619035,2.9490366,1.4940225
alexnet,1,469,NaN,clock,bird,0.05,0469_nse_dnn_0.05_bird_10_n02033041_6728.png,n02033041_6728.png,0.0,-0.83766323,1.6963648,-1.7918284
alexnet,1,470,NaN,clock,clock,0.00,0470_nse_dnn_0.00_clock_10_n04548280_1032.png,n04548280_1032.png,1.0,4.420325,3.8575468,0.39794415
alexnet,1,471,NaN,airplane,airplane,0.03,0471_nse_dnn_0.03_airplane_10_n02690373_1983.png,n02690373_1983.png,1.0,4.654957,2.7449703,1.3505645
alexnet,1,472,NaN,chair,keyboard,0.00,0472_nse_dnn_0.00_keyboard_10_n03085013_23369.png,n03085013_23369.png,0.0,-0.682289,7.6354895,-5.881558
alexnet,1,473,NaN,clock,elephant,0.90,0473_nse_dnn_0.90_elephant_10_n02504458_2419.png,n02504458_2419.png,0.0,-5.2431164,3.722833,-6.3398833
alexnet,1,474,NaN,clock,truck,0.20,0474_nse_dnn_0.20_truck_10_n04467665_72022.png,n04467665_72022.png,0.0,-1.9628228,1.6043631,-2.5223813
alexnet,1,475,NaN,clock,bottle,0.05,0475_nse_dnn_0.05_bottle_10_n04579145_5289.png,n04579145_5289.png,0.0,2.0644784,3.5615892,-1.0586172
alexnet,1,476,NaN,clock,clock,0.05,0476_nse_dnn_0.05_clock_10_n02708093_2898.png,n02708093_2898.png,1.0,9.522118,4.797751,3.3406317
alexnet,1,477,NaN,cat,dog,0.20,0477_nse_dnn_0.20_dog_10_n02101556_4066.png,n02101556_4066.png,0.0,0.8783987,1.6749958,-0.5632792
alexnet,1,478,NaN,clock,car,0.90,0478_nse_dnn_0.90_car_10_n04285008_17052.png,n04285008_17052.png,0.0,-2.1303463,2.6767108,-3.399103
alexnet,1,479,NaN,clock,truck,0.90,0479_nse_dnn_0.90_truck_10_n04467665_37811.png,n04467665_37811.png,0.0,-2.7046084,3.3659134,-4.292507
alexnet,1,480,NaN,clock,keyboard,0.20,0480_nse_dnn_0.20_keyboard_10_n04505470_578.png,n04505470_578.png,0.0,0.17880023,3.082485,-2.053215
alexnet,1,481,NaN,clock,cat,0.10,0481_nse_dnn_0.10_cat_10_n02123045_2721.png,n02123045_2721.png,0.0,2.3541083,4.1739697,-1.2868364
alexnet,1,482,NaN,cat,car,0.10,0482_nse_dnn_0.10_car_10_n04285008_7776.png,n04285008_7776.png,0.0,-1.5487322,2.8325517,-3.0980356
alexnet,1,483,NaN,clock,bottle,0.90,0483_nse_dnn_0.90_bottle_10_n04591713_2014.png,n04591713_2014.png,0.0,2.3914764,2.9928036,-0.42520255
alexnet,1,484,NaN,clock,bottle,0.10,0484_nse_dnn_0.10_bottle_10_n03983396_9662.png,n03983396_9662.png,0.0,1.6910324,2.3731558,-0.4823341
alexnet,1,485,NaN,bottle,bicycle,0.35,0485_nse_dnn_0.35_bicycle_10_n03792782_10367.png,n03792782_10367.png,0.0,-0.6387911,1.5803984,-1.5692041
alexnet,1,486,NaN,clock,keyboard,0.60,0486_nse_dnn_0.60_keyboard_10_n03085013_22942.png,n03085013_22942.png,0.0,-0.28371322,2.6388743,-2.0665815
alexnet,1,487,NaN,bottle,cat,0.00,0487_nse_dnn_0.00_cat_10_n02123597_3896.png,n02123597_3896.png,0.0,0.8750634,4.553746,-2.6012216
alexnet,1,488,NaN,bicycle,bicycle,0.03,0488_nse_dnn_0.03_bicycle_10_n03792782_2649.png,n03792782_2649.png,1.0,6.243398,3.8523242,1.6907446
alexnet,1,489,NaN,cat,bear,0.10,0489_nse_dnn_0.10_bear_10_n02133161_2476.png,n02133161_2476.png,0.0,-0.2700802,2.0133178,-1.6146064
alexnet,1,490,NaN,clock,car,0.10,0490_nse_dnn_0.10_car_10_n04285008_7249.png,n04285008_7249.png,0.0,-1.8509437,4.016339,-4.148795
alexnet,1,491,NaN,clock,chair,0.20,0491_nse_dnn_0.20_chair_10_n04099969_8604.png,n04099969_8604.png,0.0,-0.526712,2.289815,-1.9915853
alexnet,1,492,NaN,clock,bicycle,0.05,0492_nse_dnn_0.05_bicycle_10_n02835271_5963.png,n02835271_5963.png,0.0,0.92004025,3.0751648,-1.5239033
alexnet,1,493,NaN,clock,airplane,0.90,0493_nse_dnn_0.90_airplane_10_n02690373_17011.png,n02690373_17011.png,0.0,-7.395376,3.0345237,-7.3750534
alexnet,1,494,NaN,clock,bird,0.90,0494_nse_dnn_0.90_bird_10_n02028035_889.png,n02028035_889.png,0.0,-0.84764534,3.1925685,-2.8568628
alexnet,1,495,NaN,clock,cat,0.60,0495_nse_dnn_0.60_cat_10_n02123159_7949.png,n02123159_7949.png,0.0,0.07269373,2.916467,-2.0108514
alexnet,1,496,NaN,truck,car,0.03,0496_nse_dnn_0.03_car_10_n03100240_15686.png,n03100240_15686.png,0.0,5.026447,6.1591773,-0.80096143
alexnet,1,497,NaN,clock,cat,0.35,0497_nse_dnn_0.35_cat_10_n02123159_6106.png,n02123159_6106.png,0.0,0.9774292,1.5351014,-0.3943338
alexnet,1,498,NaN,bottle,cat,0.00,0498_nse_dnn_0.00_cat_10_n02123394_7105.png,n02123394_7105.png,0.0,1.0218884,3.0000052,-1.3987399
alexnet,1,499,NaN,bottle,clock,0.35,0499_nse_dnn_0.35_clock_10_n04548280_4747.png,n04548280_4747.png,0.0,1.0045773,1.287878,-0.2003239
alexnet,1,500,NaN,cat,elephant,0.20,0500_nse_dnn_0.20_elephant_10_n02504458_975.png,n02504458_975.png,0.0,-2.250813,1.8582668,-2.9055583
alexnet,1,501,NaN,clock,boat,0.20,0501_nse_dnn_0.20_boat_10_n03344393_11590.png,n03344393_11590.png,0.0,-1.0936229,1.6668657,-1.9519602
alexnet,1,502,NaN,clock,airplane,0.90,0502_nse_dnn_0.90_airplane_10_n02690373_2026.png,n02690373_2026.png,0.0,-7.0842514,3.477746,-7.46846
alexnet,1,503,NaN,clock,clock,0.60,0503_nse_dnn_0.60_clock_10_n03196217_2346.png,n03196217_2346.png,1.0,2.4100537,2.1428897,0.18891348
alexnet,1,504,NaN,clock,truck,0.60,0504_nse_dnn_0.60_truck_10_n04467665_34932.png,n04467665_34932.png,0.0,-2.4384844,3.0841033,-3.9050593
alexnet,1,505,NaN,clock,oven,0.35,0505_nse_dnn_0.35_oven_10_n04111531_13625.png,n04111531_13625.png,0.0,-2.3069773,2.0626218,-3.0897734
alexnet,1,506,NaN,bottle,airplane,0.00,0506_nse_dnn_0.00_airplane_10_n02690373_8666.png,n02690373_8666.png,0.0,5.414263,5.5726767,-0.11201554
alexnet,1,507,NaN,clock,oven,0.35,0507_nse_dnn_0.35_oven_10_n04111531_4148.png,n04111531_4148.png,0.0,-2.9789958,1.7597336,-3.3507879
alexnet,1,508,NaN,dog,dog,0.00,0508_nse_dnn_0.00_dog_10_n02107683_7021.png,n02107683_7021.png,1.0,2.7886531,1.8936585,0.6328568
alexnet,1,509,NaN,cat,bird,0.05,0509_nse_dnn_0.05_bird_10_n02025239_22440.png,n02025239_22440.png,0.0,-1.0012032,1.4856261,-1.7584538
alexnet,1,510,NaN,clock,elephant,0.90,0510_nse_dnn_0.90_elephant_10_n02504013_7032.png,n02504013_7032.png,0.0,-4.945696,3.0496762,-5.6535816
alexnet,1,511,NaN,clock,truck,0.90,0511_nse_dnn_0.90_truck_10_n03417042_10788.png,n03417042_10788.png,0.0,-2.4314096,3.2438056,-4.0129833
alexnet,1,512,NaN,bottle,knife,0.05,0512_nse_dnn_0.05_knife_10_n03041632_86118.png,n03041632_86118.png,0.0,0.008072734,2.106812,-1.4840328
alexnet,1,513,NaN,bottle,bottle,0.00,0513_nse_dnn_0.00_bottle_10_n04557648_9790.png,n04557648_9790.png,1.0,4.240453,3.9621797,0.1967688
alexnet,1,514,NaN,clock,chair,0.90,0514_nse_dnn_0.90_chair_10_n02791124_8788.png,n02791124_8788.png,0.0,-1.9045999,2.856825,-3.366836
alexnet,1,515,NaN,chair,dog,0.03,0515_nse_dnn_0.03_dog_10_n02095314_4996.png,n02095314_4996.png,0.0,0.89319384,2.2207904,-0.93875253
alexnet,1,516,NaN,clock,keyboard,0.20,0516_nse_dnn_0.20_keyboard_10_n04505470_4679.png,n04505470_4679.png,0.0,-0.2422136,2.265788,-1.7734251
alexnet,1,517,NaN,knife,bird,0.03,0517_nse_dnn_0.03_bird_10_n01860187_24935.png,n01860187_24935.png,0.0,-1.3977747,2.4484997,-2.7197268
alexnet,1,518,NaN,clock,bicycle,0.60,0518_nse_dnn_0.60_bicycle_10_n02835271_14123.png,n02835271_14123.png,0.0,-1.6320817,2.7665129,-3.1102762
alexnet,1,519,NaN,cat,boat,0.10,0519_nse_dnn_0.10_boat_10_n03344393_7075.png,n03344393_7075.png,0.0,-0.46028233,2.0251548,-1.7574695
alexnet,1,520,NaN,knife,knife,0.03,0520_nse_dnn_0.03_knife_10_n03041632_13130.png,n03041632_13130.png,1.0,3.9994798,2.155853,1.303641
alexnet,1,521,NaN,cat,bottle,0.20,0521_nse_dnn_0.20_bottle_10_n04591713_5569.png,n04591713_5569.png,0.0,1.3415487,2.397445,-0.74663144
alexnet,1,522,NaN,cat,elephant,0.05,0522_nse_dnn_0.05_elephant_10_n02504013_19753.png,n02504013_19753.png,0.0,1.7687421,2.4264748,-0.46508726
alexnet,1,523,NaN,clock,dog,0.60,0523_nse_dnn_0.60_dog_10_n02099849_4819.png,n02099849_4819.png,0.0,-0.373764,2.9171858,-2.327053
alexnet,1,524,NaN,clock,elephant,0.90,0524_nse_dnn_0.90_elephant_10_n02504458_12938.png,n02504458_12938.png,0.0,-4.90415,3.0487957,-5.623582
alexnet,1,525,NaN,bottle,bottle,0.03,0525_nse_dnn_0.03_bottle_10_n02823428_901.png,n02823428_901.png,1.0,7.4282937,3.5498586,2.7424679
alexnet,1,526,NaN,clock,bicycle,0.00,0526_nse_dnn_0.00_bicycle_10_n03792782_2024.png,n03792782_2024.png,0.0,0.63180614,4.481505,-2.7221482
alexnet,1,527,NaN,clock,truck,0.05,0527_nse_dnn_0.05_truck_10_n03417042_24856.png,n03417042_24856.png,0.0,1.162188,3.2149973,-1.4515554
alexnet,1,528,NaN,elephant,elephant,0.00,0528_nse_dnn_0.00_elephant_10_n02504013_19694.png,n02504013_19694.png,1.0,6.9674816,2.6395116,3.060337
alexnet,1,529,NaN,cat,bird,0.20,0529_nse_dnn_0.20_bird_10_n01530575_10119.png,n01530575_10119.png,0.0,-0.7731872,1.8302056,-1.8408768
alexnet,1,530,NaN,clock,bottle,0.20,0530_nse_dnn_0.20_bottle_10_n04557648_954.png,n04557648_954.png,0.0,2.0450084,2.5807347,-0.3788157
alexnet,1,531,NaN,clock,cat,0.90,0531_nse_dnn_0.90_cat_10_n02123159_277.png,n02123159_277.png,0.0,-0.13861533,3.3845873,-2.4912806
alexnet,1,532,NaN,knife,knife,0.00,0532_nse_dnn_0.00_knife_10_n03041632_289.png,n03041632_289.png,1.0,6.7427893,3.0366457,2.6206393
alexnet,1,533,NaN,clock,truck,0.35,0533_nse_dnn_0.35_truck_10_n04467665_450.png,n04467665_450.png,0.0,-2.0324068,1.9638004,-2.8257453
alexnet,1,534,NaN,knife,knife,0.00,0534_nse_dnn_0.00_knife_10_n03041632_1607.png,n03041632_1607.png,1.0,4.5903277,2.7791195,1.2807176
alexnet,1,535,NaN,cat,bird,0.20,0535_nse_dnn_0.20_bird_10_n01532829_4692.png,n01532829_4692.png,0.0,-0.7153425,1.9012016,-1.8501762
alexnet,1,536,NaN,cat,dog,0.10,0536_nse_dnn_0.10_dog_10_n02102177_4771.png,n02102177_4771.png,0.0,0.8877612,2.5522547,-1.1769747
alexnet,1,537,NaN,clock,car,0.10,0537_nse_dnn_0.10_car_10_n04285008_14554.png,n04285008_14554.png,0.0,-2.0841339,3.0376835,-3.621672
alexnet,1,538,NaN,clock,clock,0.00,0538_nse_dnn_0.00_clock_10_n04548280_3716.png,n04548280_3716.png,1.0,6.3884187,3.9196315,1.7456962
alexnet,1,539,NaN,clock,car,0.03,0539_nse_dnn_0.03_car_10_n04285008_6849.png,n04285008_6849.png,0.0,2.4835436,3.8321626,-0.95361763
alexnet,1,540,NaN,clock,keyboard,0.35,0540_nse_dnn_0.35_keyboard_10_n03085013_24467.png,n03085013_24467.png,0.0,-0.90140474,1.9176677,-1.9933853
alexnet,1,541,NaN,clock,clock,0.35,0541_nse_dnn_0.35_clock_10_n03196217_6672.png,n03196217_6672.png,1.0,1.3997678,1.1972696,0.14318785
alexnet,1,542,NaN,cat,dog,0.10,0542_nse_dnn_0.10_dog_10_n02105251_5570.png,n02105251_5570.png,0.0,1.1765308,2.6886005,-1.0691948
alexnet,1,543,NaN,bottle,dog,0.35,0543_nse_dnn_0.35_dog_10_n02107574_3352.png,n02107574_3352.png,0.0,0.5958794,1.6254795,-0.72803724
alexnet,1,544,NaN,clock,boat,0.60,0544_nse_dnn_0.60_boat_10_n03662601_8191.png,n03662601_8191.png,0.0,-1.5857594,2.8372428,-3.1275349
alexnet,1,545,NaN,boat,boat,0.00,0545_nse_dnn_0.00_boat_10_n04612504_30617.png,n04612504_30617.png,1.0,8.471163,4.079451,3.1054091
alexnet,1,546,NaN,clock,bear,0.60,0546_nse_dnn_0.60_bear_10_n02132136_2900.png,n02132136_2900.png,0.0,-0.31066355,2.7854564,-2.1892874
alexnet,1,547,NaN,clock,truck,0.10,0547_nse_dnn_0.10_truck_10_n03417042_8139.png,n03417042_8139.png,0.0,-0.87513125,2.2387896,-2.2018745
alexnet,1,548,NaN,chair,chair,0.03,0548_nse_dnn_0.03_chair_10_n03376595_5112.png,n03376595_5112.png,1.0,3.01778,1.4100366,1.1368463
alexnet,1,549,NaN,cat,bird,0.05,0549_nse_dnn_0.05_bird_10_n02006656_10360.png,n02006656_10360.png,0.0,-1.1751814,2.36923,-2.5062773
alexnet,1,550,NaN,cat,elephant,0.20,0550_nse_dnn_0.20_elephant_10_n02504458_2799.png,n02504458_2799.png,0.0,-2.7547874,2.0483239,-3.3963125
alexnet,1,551,NaN,clock,airplane,0.10,0551_nse_dnn_0.10_airplane_10_n02690373_6096.png,n02690373_6096.png,0.0,-1.3224626,1.8105899,-2.2154026
alexnet,1,552,NaN,cat,bird,0.20,0552_nse_dnn_0.20_bird_10_n02002556_139.png,n02002556_139.png,0.0,-0.44160423,2.1599534,-1.839579
alexnet,1,553,NaN,airplane,car,0.00,0553_nse_dnn_0.00_car_10_n04285008_3056.png,n04285008_3056.png,0.0,6.3642936,6.7447996,-0.2690584
alexnet,1,554,NaN,cat,knife,0.10,0554_nse_dnn_0.10_knife_10_n03041632_14774.png,n03041632_14774.png,0.0,-2.3523345,2.1618717,-3.1920257
alexnet,1,555,NaN,clock,oven,0.20,0555_nse_dnn_0.20_oven_10_n04111531_2163.png,n04111531_2163.png,0.0,-2.6827273,2.1842146,-3.4414477
alexnet,1,556,NaN,cat,cat,0.20,0556_nse_dnn_0.20_cat_10_n02123597_30864.png,n02123597_30864.png,1.0,1.8293058,1.5382314,0.20582068
alexnet,1,557,NaN,bottle,boat,0.35,0557_nse_dnn_0.35_boat_10_n02951358_33559.png,n02951358_33559.png,0.0,-0.90034056,1.3501625,-1.591346
alexnet,1,558,NaN,clock,bicycle,0.60,0558_nse_dnn_0.60_bicycle_10_n02835271_4619.png,n02835271_4619.png,0.0,-1.4278505,2.691633,-2.9129148
alexnet,1,559,NaN,truck,truck,0.03,0559_nse_dnn_0.03_truck_10_n03796401_21261.png,n03796401_21261.png,1.0,3.0328186,2.91196,0.085459985
alexnet,1,560,NaN,clock,airplane,0.10,0560_nse_dnn_0.10_airplane_10_n02690373_2496.png,n02690373_2496.png,0.0,-1.8808379,2.008756,-2.7503583
alexnet,1,561,NaN,clock,boat,0.35,0561_nse_dnn_0.35_boat_10_n03662601_5419.png,n03662601_5419.png,0.0,-0.8182653,1.6981611,-1.7793823
alexnet,1,562,NaN,boat,airplane,0.03,0562_nse_dnn_0.03_airplane_10_n02690373_7686.png,n02690373_7686.png,0.0,2.9378498,3.5333996,-0.42111734
alexnet,1,563,NaN,clock,oven,0.90,0563_nse_dnn_0.90_oven_10_n04111531_5246.png,n04111531_5246.png,0.0,-1.464545,3.249778,-3.33353
alexnet,1,564,NaN,clock,bicycle,0.60,0564_nse_dnn_0.60_bicycle_10_n03792782_1099.png,n03792782_1099.png,0.0,-1.6221966,2.9238765,-3.214559
alexnet,1,565,NaN,clock,chair,0.35,0565_nse_dnn_0.35_chair_10_n04099969_12909.png,n04099969_12909.png,0.0,-1.9005568,1.5230751,-2.4208734
alexnet,1,566,NaN,cat,elephant,0.03,0566_nse_dnn_0.03_elephant_10_n02504013_7147.png,n02504013_7147.png,0.0,0.65161175,2.1369257,-1.0502756
alexnet,1,567,NaN,bottle,truck,0.35,0567_nse_dnn_0.35_truck_10_n04467665_44715.png,n04467665_44715.png,0.0,-1.4578995,1.3298452,-1.9712331
alexnet,1,568,NaN,keyboard,keyboard,0.00,0568_nse_dnn_0.00_keyboard_10_n04505470_1338.png,n04505470_1338.png,1.0,6.5604944,6.101362,0.3246555
alexnet,1,569,NaN,clock,airplane,0.90,0569_nse_dnn_0.90_airplane_10_n02690373_4982.png,n02690373_4982.png,0.0,-6.8657894,3.3306427,-7.209966
alexnet,1,570,NaN,clock,bicycle,0.90,0570_nse_dnn_0.90_bicycle_10_n03792782_3754.png,n03792782_3754.png,0.0,-1.8919071,2.4905775,-3.0988846
alexnet,1,571,NaN,chair,bicycle,0.00,0571_nse_dnn_0.00_bicycle_10_n03792782_1418.png,n03792782_1418.png,0.0,0.24971434,2.424307,-1.5376693
alexnet,1,572,NaN,chair,truck,0.03,0572_nse_dnn_0.03_truck_10_n03796401_26359.png,n03796401_26359.png,0.0,1.6852815,3.2777474,-1.1260434
alexnet,1,573,NaN,bicycle,car,0.05,0573_nse_dnn_0.05_car_10_n03100240_9149.png,n03100240_9149.png,0.0,-0.2732735,2.0734851,-1.6594089
alexnet,1,574,NaN,clock,bird,0.90,0574_nse_dnn_0.90_bird_10_n01534433_14677.png,n01534433_14677.png,0.0,-0.6879104,3.1783073,-2.7338288
alexnet,1,575,NaN,car,car,0.03,0575_nse_dnn_0.03_car_10_n03100240_8683.png,n03100240_8683.png,1.0,4.1639867,3.646132,0.36617857
alexnet,1,576,NaN,clock,chair,0.03,0576_nse_dnn_0.03_chair_10_n03376595_524.png,n03376595_524.png,0.0,2.824809,4.385023,-1.103238
alexnet,1,577,NaN,clock,dog,0.20,0577_nse_dnn_0.20_dog_10_n02094433_6402.png,n02094433_6402.png,0.0,0.7380096,1.8930947,-0.8167685
alexnet,1,578,NaN,cat,car,0.20,0578_nse_dnn_0.20_car_10_n03100240_16803.png,n03100240_16803.png,0.0,-1.0314523,1.963087,-2.117459
alexnet,1,579,NaN,cat,bicycle,0.20,0579_nse_dnn_0.20_bicycle_10_n03792782_15114.png,n03792782_15114.png,0.0,0.04744947,1.7823944,-1.2267914
alexnet,1,580,NaN,clock,chair,0.60,0580_nse_dnn_0.60_chair_10_n04429376_21362.png,n04429376_21362.png,0.0,-1.8429253,2.5795462,-3.1271596
alexnet,1,581,NaN,clock,keyboard,0.90,0581_nse_dnn_0.90_keyboard_10_n04505470_3499.png,n04505470_3499.png,0.0,-0.55819273,3.3602016,-2.7707233
alexnet,1,582,NaN,clock,boat,0.90,0582_nse_dnn_0.90_boat_10_n04273569_26577.png,n04273569_26577.png,0.0,-1.7772124,3.4083393,-3.6667387
alexnet,1,583,NaN,clock,boat,0.10,0583_nse_dnn_0.10_boat_10_n04273569_27325.png,n04273569_27325.png,0.0,0.5355388,2.2715645,-1.2275555
alexnet,1,584,NaN,clock,keyboard,0.20,0584_nse_dnn_0.20_keyboard_10_n04505470_9570.png,n04505470_9570.png,0.0,-0.8085277,1.3006696,-1.4914277
alexnet,1,585,NaN,clock,bicycle,0.90,0585_nse_dnn_0.90_bicycle_10_n03792782_4067.png,n03792782_4067.png,0.0,-2.2457848,3.1443825,-3.8114238
alexnet,1,586,NaN,clock,bear,0.10,0586_nse_dnn_0.10_bear_10_n02132136_282.png,n02132136_282.png,0.0,0.17397203,2.4908316,-1.638267
alexnet,1,587,NaN,boat,boat,0.03,0587_nse_dnn_0.03_boat_10_n04612504_30424.png,n04612504_30424.png,1.0,3.167374,2.3737986,0.5611425
alexnet,1,588,NaN,clock,knife,0.90,0588_nse_dnn_0.90_knife_10_n03041632_4879.png,n03041632_4879.png,0.0,1.2384384,3.011624,-1.2538316
alexnet,1,589,NaN,elephant,elephant,0.05,0589_nse_dnn_0.05_elephant_10_n02504458_7634.png,n02504458_7634.png,1.0,2.7259808,2.4320915,0.2078111
alexnet,1,590,NaN,clock,cat,0.35,0590_nse_dnn_0.35_cat_10_n02123597_7615.png,n02123597_7615.png,0.0,1.0915724,1.6718925,-0.4103483
alexnet,1,591,NaN,clock,bicycle,0.35,0591_nse_dnn_0.35_bicycle_10_n03792782_20387.png,n03792782_20387.png,0.0,-0.7482602,1.4228358,-1.5351968
alexnet,1,592,NaN,clock,clock,0.10,0592_nse_dnn_0.10_clock_10_n02708093_527.png,n02708093_527.png,1.0,6.555855,2.7637591,2.6814165
alexnet,1,593,NaN,bottle,elephant,0.05,0593_nse_dnn_0.05_elephant_10_n02504013_5501.png,n02504013_5501.png,0.0,1.6840608,1.8849316,-0.14203708
alexnet,1,594,NaN,clock,dog,0.35,0594_nse_dnn_0.35_dog_10_n02106166_2273.png,n02106166_2273.png,0.0,0.42999095,1.8501816,-1.0042264
alexnet,1,595,NaN,clock,boat,0.03,0595_nse_dnn_0.03_boat_10_n03662601_34009.png,n03662601_34009.png,0.0,2.8046966,4.7066827,-1.3449073
alexnet,1,596,NaN,clock,boat,0.35,0596_nse_dnn_0.35_boat_10_n04273569_12536.png,n04273569_12536.png,0.0,-1.1746795,2.1725376,-2.36684
alexnet,1,597,NaN,elephant,elephant,0.00,0597_nse_dnn_0.00_elephant_10_n02504013_8534.png,n02504013_8534.png,1.0,5.8826113,2.6757355,2.2676036
alexnet,1,598,NaN,clock,clock,0.35,0598_nse_dnn_0.35_clock_10_n04548280_156.png,n04548280_156.png,1.0,1.783342,1.6398299,0.101478405
alexnet,1,599,NaN,clock,bicycle,0.90,0599_nse_dnn_0.90_bicycle_10_n02835271_542.png,n02835271_542.png,0.0,-2.096943,3.2257445,-3.7637084
alexnet,1,600,NaN,chair,bear,0.00,0600_nse_dnn_0.00_bear_10_n02133161_5434.png,n02133161_5434.png,0.0,-0.69605535,3.2608848,-2.7979794
alexnet,1,601,NaN,clock,truck,0.60,0601_nse_dnn_0.60_truck_10_n04467665_63829.png,n04467665_63829.png,0.0,-2.3478117,2.4944274,-3.4239805
alexnet,1,602,NaN,clock,oven,0.90,0602_nse_dnn_0.90_oven_10_n04111531_10220.png,n04111531_10220.png,0.0,-1.4851842,3.3568347,-3.4238245
alexnet,1,603,NaN,clock,boat,0.60,0603_nse_dnn_0.60_boat_10_n04273569_28074.png,n04273569_28074.png,0.0,-1.5059782,2.97855,-3.1710403
alexnet,1,604,NaN,bottle,cat,0.00,0604_nse_dnn_0.00_cat_10_n02123394_2482.png,n02123394_2482.png,0.0,1.2557853,2.8217833,-1.1073278
alexnet,1,605,NaN,clock,boat,0.90,0605_nse_dnn_0.90_boat_10_n03662601_20381.png,n03662601_20381.png,0.0,-1.8025554,3.2393143,-3.5651402
alexnet,1,606,NaN,clock,bird,0.35,0606_nse_dnn_0.35_bird_10_n01817953_12511.png,n01817953_12511.png,0.0,-0.98912245,1.9193052,-2.056569
alexnet,1,607,NaN,cat,cat,0.05,0607_nse_dnn_0.05_cat_10_n02125311_5346.png,n02125311_5346.png,1.0,3.6655703,3.297519,0.26025158
alexnet,1,608,NaN,chair,oven,0.00,0608_nse_dnn_0.00_oven_10_n04111531_14758.png,n04111531_14758.png,0.0,1.6698081,4.574463,-2.0539012
alexnet,1,609,NaN,cat,bird,0.10,0609_nse_dnn_0.10_bird_10_n02002556_1398.png,n02002556_1398.png,0.0,-1.5915138,3.1226883,-3.333444
alexnet,1,610,NaN,bicycle,knife,0.05,0610_nse_dnn_0.05_knife_10_n03041632_99912.png,n03041632_99912.png,0.0,0.12407613,1.873595,-1.2370967
alexnet,1,611,NaN,clock,airplane,0.05,0611_nse_dnn_0.05_airplane_10_n02690373_1075.png,n02690373_1075.png,0.0,0.16247922,2.9168427,-1.9476292
alexnet,1,612,NaN,clock,cat,0.35,0612_nse_dnn_0.35_cat_10_n02123045_10834.png,n02123045_10834.png,0.0,1.0170053,1.7463408,-0.51571804
alexnet,1,613,NaN,clock,car,0.60,0613_nse_dnn_0.60_car_10_n02814533_41478.png,n02814533_41478.png,0.0,-1.9184123,2.987006,-3.4686546
alexnet,1,614,NaN,cat,cat,0.00,0614_nse_dnn_0.00_cat_10_n02123394_1602.png,n02123394_1602.png,1.0,6.58045,2.9563057,2.562657
alexnet,1,615,NaN,knife,knife,0.03,0615_nse_dnn_0.03_knife_10_n03041632_21017.png,n03041632_21017.png,1.0,2.3935583,2.1298268,0.18648632
alexnet,1,616,NaN,bear,bear,0.03,0616_nse_dnn_0.03_bear_10_n02134084_572.png,n02134084_572.png,1.0,4.5333805,3.5871665,0.6690743
alexnet,1,617,NaN,keyboard,clock,0.05,0617_nse_dnn_0.05_clock_10_n03196217_3987.png,n03196217_3987.png,0.0,4.101,5.2829514,-0.83576596
alexnet,1,618,NaN,cat,dog,0.03,0618_nse_dnn_0.03_dog_10_n02098286_6303.png,n02098286_6303.png,0.0,2.1871219,2.8677979,-0.4813106
alexnet,1,619,NaN,keyboard,keyboard,0.00,0619_nse_dnn_0.00_keyboard_10_n04505470_4379.png,n04505470_4379.png,1.0,7.3204937,4.3589125,2.0941541
alexnet,1,620,NaN,boat,boat,0.05,0620_nse_dnn_0.05_boat_10_n04273569_15138.png,n04273569_15138.png,1.0,2.7410443,1.5075098,0.8722406
alexnet,1,621,NaN,clock,airplane,0.90,0621_nse_dnn_0.90_airplane_10_n02690373_18234.png,n02690373_18234.png,0.0,-7.2871704,3.0461044,-7.306729
alexnet,1,622,NaN,clock,clock,0.90,0622_nse_dnn_0.90_clock_10_n03196217_2179.png,n03196217_2179.png,1.0,2.6566706,2.1583393,0.35237345
alexnet,1,623,NaN,bottle,bottle,0.03,0623_nse_dnn_0.03_bottle_10_n04579145_6860.png,n04579145_6860.png,1.0,9.398759,4.056789,3.7773433
alexnet,1,624,NaN,clock,car,0.35,0624_nse_dnn_0.35_car_10_n02814533_81455.png,n02814533_81455.png,0.0,-1.7863642,1.6567258,-2.4346323
alexnet,1,625,NaN,airplane,car,0.03,0625_nse_dnn_0.03_car_10_n04285008_6278.png,n04285008_6278.png,0.0,4.9194627,5.297841,-0.26755393
alexnet,1,626,NaN,clock,truck,0.05,0626_nse_dnn_0.05_truck_10_n04467665_3612.png,n04467665_3612.png,0.0,3.1014674,4.628429,-1.0797249
alexnet,1,627,NaN,clock,bottle,0.10,0627_nse_dnn_0.10_bottle_10_n03983396_10251.png,n03983396_10251.png,0.0,2.593807,3.6581612,-0.75261205
alexnet,1,628,NaN,clock,dog,0.60,0628_nse_dnn_0.60_dog_10_n02086646_6407.png,n02086646_6407.png,0.0,-0.4129617,2.6214383,-2.145645
alexnet,1,629,NaN,clock,oven,0.35,0629_nse_dnn_0.35_oven_10_n04111531_21404.png,n04111531_21404.png,0.0,-2.438768,2.0220525,-3.1542764
alexnet,1,630,NaN,clock,bottle,0.05,0630_nse_dnn_0.05_bottle_10_n03983396_3185.png,n03983396_3185.png,0.0,4.6582713,5.239162,-0.41075173
alexnet,1,631,NaN,clock,elephant,0.05,0631_nse_dnn_0.05_elephant_10_n02504013_13766.png,n02504013_13766.png,0.0,-0.380219,2.2001364,-1.8245869
alexnet,1,632,NaN,clock,bird,0.05,0632_nse_dnn_0.05_bird_10_n01514859_10633.png,n01514859_10633.png,0.0,-2.9026499,2.9943523,-4.1698103
alexnet,1,633,NaN,chair,chair,0.05,0633_nse_dnn_0.05_chair_10_n03376595_2351.png,n03376595_2351.png,1.0,2.964225,2.7228765,0.17065917
alexnet,1,634,NaN,bird,bird,0.00,0634_nse_dnn_0.00_bird_10_n02009912_31837.png,n02009912_31837.png,1.0,3.618169,2.5487368,0.7562028
alexnet,1,635,NaN,clock,dog,0.90,0635_nse_dnn_0.90_dog_10_n02110958_8971.png,n02110958_8971.png,0.0,-0.6500526,3.2427235,-2.7526083
alexnet,1,636,NaN,clock,dog,0.20,0636_nse_dnn_0.20_dog_10_n02113799_3680.png,n02113799_3680.png,0.0,0.4787078,2.0497541,-1.1108975
alexnet,1,637,NaN,clock,airplane,0.35,0637_nse_dnn_0.35_airplane_10_n02690373_6491.png,n02690373_6491.png,0.0,-5.4120593,1.9748902,-5.223362
alexnet,1,638,NaN,clock,clock,0.60,0638_nse_dnn_0.60_clock_10_n04548280_1438.png,n04548280_1438.png,1.0,3.1399174,2.3062823,0.589469
alexnet,1,639,NaN,airplane,airplane,0.05,0639_nse_dnn_0.05_airplane_10_n02690373_2981.png,n02690373_2981.png,1.0,4.069157,2.2425163,1.2916301
alexnet,1,640,NaN,clock,car,0.03,0640_nse_dnn_0.03_car_10_n04285008_7155.png,n04285008_7155.png,0.0,-1.8149137,4.362903,-4.3683763
alexnet,1,641,NaN,clock,chair,0.20,0641_nse_dnn_0.20_chair_10_n03376595_5909.png,n03376595_5909.png,0.0,-1.0318245,2.1075182,-2.2198505
alexnet,1,642,NaN,clock,elephant,0.60,0642_nse_dnn_0.60_elephant_10_n02504013_5876.png,n02504013_5876.png,0.0,-3.7144299,2.459172,-4.365396
alexnet,1,643,NaN,cat,cat,0.00,0643_nse_dnn_0.00_cat_10_n02125311_25104.png,n02125311_25104.png,1.0,8.327476,1.7480352,4.6523666
alexnet,1,644,NaN,clock,dog,0.90,0644_nse_dnn_0.90_dog_10_n02111277_11664.png,n02111277_11664.png,0.0,-0.52819496,3.5575936,-2.8890889
alexnet,1,645,NaN,clock,airplane,0.35,0645_nse_dnn_0.35_airplane_10_n02690373_2185.png,n02690373_2185.png,0.0,-5.5468473,1.8337618,-5.2188787
alexnet,1,646,NaN,elephant,bird,0.05,0646_nse_dnn_0.05_bird_10_n02017213_7721.png,n02017213_7721.png,0.0,-0.95967144,2.3047209,-2.308274
alexnet,1,647,NaN,clock,boat,0.05,0647_nse_dnn_0.05_boat_10_n03662601_25577.png,n03662601_25577.png,0.0,0.55328435,2.7803915,-1.5748025
alexnet,1,648,NaN,elephant,elephant,0.03,0648_nse_dnn_0.03_elephant_10_n02504013_8028.png,n02504013_8028.png,1.0,5.2490053,2.9473977,1.6274824
alexnet,1,649,NaN,clock,airplane,0.60,0649_nse_dnn_0.60_airplane_10_n02690373_6665.png,n02690373_6665.png,0.0,-6.6979265,2.6338155,-6.5985384
alexnet,1,650,NaN,clock,bird,0.60,0650_nse_dnn_0.60_bird_10_n02011460_2611.png,n02011460_2611.png,0.0,-1.0148059,3.0567062,-2.878994
alexnet,1,651,NaN,cat,knife,0.10,0651_nse_dnn_0.10_knife_10_n03041632_90407.png,n03041632_90407.png,0.0,-2.2743914,2.303178,-3.2368305
alexnet,1,652,NaN,airplane,airplane,0.03,0652_nse_dnn_0.03_airplane_10_n02690373_10817.png,n02690373_10817.png,1.0,5.5802345,2.441326,2.2195437
alexnet,1,653,NaN,bottle,bird,0.00,0653_nse_dnn_0.00_bird_10_n02051845_15350.png,n02051845_15350.png,0.0,-1.0905404,2.5034277,-2.5413194
alexnet,1,654,NaN,clock,knife,0.60,0654_nse_dnn_0.60_knife_10_n03041632_4269.png,n03041632_4269.png,0.0,0.3186192,2.4681263,-1.5199311
alexnet,1,655,NaN,bottle,bottle,0.03,0655_nse_dnn_0.03_bottle_10_n04560804_11426.png,n04560804_11426.png,1.0,5.562236,3.3447003,1.5680344
alexnet,1,656,NaN,cat,bicycle,0.20,0656_nse_dnn_0.20_bicycle_10_n03792782_7050.png,n03792782_7050.png,0.0,-0.102074265,2.0526032,-1.523587
alexnet,1,657,NaN,elephant,elephant,0.05,0657_nse_dnn_0.05_elephant_10_n02504013_9144.png,n02504013_9144.png,1.0,3.6860242,1.8749838,1.280599
alexnet,1,658,NaN,clock,bear,0.90,0658_nse_dnn_0.90_bear_10_n02134418_5630.png,n02134418_5630.png,0.0,-0.07003972,2.9909556,-2.1644506
alexnet,1,659,NaN,bear,bear,0.00,0659_nse_dnn_0.00_bear_10_n02133161_16147.png,n02133161_16147.png,1.0,3.32601,1.6576394,1.1797162
alexnet,1,660,NaN,clock,keyboard,0.05,0660_nse_dnn_0.05_keyboard_10_n03085013_6857.png,n03085013_6857.png,0.0,4.647272,5.931839,-0.90832597
alexnet,1,661,NaN,clock,car,0.90,0661_nse_dnn_0.90_car_10_n02814533_72079.png,n02814533_72079.png,0.0,-2.4669435,2.7893283,-3.7167456
alexnet,1,662,NaN,chair,chair,0.00,0662_nse_dnn_0.00_chair_10_n04429376_5770.png,n04429376_5770.png,1.0,6.9184337,5.1507087,1.2499703
alexnet,1,663,NaN,clock,dog,0.05,0663_nse_dnn_0.05_dog_10_n02112706_5500.png,n02112706_5500.png,0.0,0.91036737,2.445342,-1.085391
alexnet,1,664,NaN,clock,boat,0.60,0664_nse_dnn_0.60_boat_10_n03662601_32391.png,n03662601_32391.png,0.0,-1.5125959,2.5140998,-2.8473039
alexnet,1,665,NaN,cat,truck,0.20,0665_nse_dnn_0.20_truck_10_n03796401_16046.png,n03796401_16046.png,0.0,-0.77664983,1.7502624,-1.7867968
alexnet,1,666,NaN,clock,bottle,0.35,0666_nse_dnn_0.35_bottle_10_n04557648_310.png,n04557648_310.png,0.0,2.0062354,2.3589036,-0.24937414
alexnet,1,667,NaN,chair,chair,0.00,0667_nse_dnn_0.00_chair_10_n04429376_14995.png,n04429376_14995.png,1.0,7.683099,4.408422,2.3155463
alexnet,1,668,NaN,clock,oven,0.05,0668_nse_dnn_0.05_oven_10_n04111531_24096.png,n04111531_24096.png,0.0,-0.4606493,2.878277,-2.3609774
alexnet,1,669,NaN,elephant,bird,0.03,0669_nse_dnn_0.03_bird_10_n01855672_12414.png,n01855672_12414.png,0.0,-2.077166,4.127018,-4.3870206
alexnet,1,670,NaN,clock,chair,0.90,0670_nse_dnn_0.90_chair_10_n03376595_4887.png,n03376595_4887.png,0.0,-1.7436017,3.6942227,-3.8451226
alexnet,1,671,NaN,cat,bottle,0.20,0671_nse_dnn_0.20_bottle_10_n04557648_11992.png,n04557648_11992.png,0.0,1.2828338,2.1442838,-0.6091371
alexnet,1,672,NaN,cat,cat,0.20,0672_nse_dnn_0.20_cat_10_n02124075_951.png,n02124075_951.png,1.0,2.135588,1.3844298,0.531149
alexnet,1,673,NaN,clock,chair,0.10,0673_nse_dnn_0.10_chair_10_n04099969_8647.png,n04099969_8647.png,0.0,1.3719633,4.247385,-2.0332303
alexnet,1,674,NaN,bottle,bottle,0.00,0674_nse_dnn_0.00_bottle_10_n04591713_2808.png,n04591713_2808.png,1.0,5.7857623,2.917663,2.0280523
alexnet,1,675,NaN,clock,airplane,0.20,0675_nse_dnn_0.20_airplane_10_n02690373_15097.png,n02690373_15097.png,0.0,-4.1508913,1.6659187,-4.113106
alexnet,1,676,NaN,chair,knife,0.00,0676_nse_dnn_0.00_knife_10_n03041632_62810.png,n03041632_62810.png,0.0,3.7440724,4.8008814,-0.7472768
alexnet,1,677,NaN,clock,airplane,0.20,0677_nse_dnn_0.20_airplane_10_n02690373_1441.png,n02690373_1441.png,0.0,-4.3756075,1.800032,-4.3668365
alexnet,1,678,NaN,clock,clock,0.90,0678_nse_dnn_0.90_clock_10_n04548280_942.png,n04548280_942.png,1.0,3.7018554,2.6916025,0.7143567
alexnet,1,679,NaN,cat,bear,0.10,0679_nse_dnn_0.10_bear_10_n02133161_4060.png,n02133161_4060.png,0.0,-0.40127283,1.9740433,-1.6796021
alexnet,1,680,NaN,chair,chair,0.03,0680_nse_dnn_0.03_chair_10_n03376595_8227.png,n03376595_8227.png,1.0,5.980465,2.9536464,2.1402838
alexnet,1,681,NaN,cat,boat,0.20,0681_nse_dnn_0.20_boat_10_n02951358_28889.png,n02951358_28889.png,0.0,-0.7120251,1.5478798,-1.5979941
alexnet,1,682,NaN,boat,boat,0.00,0682_nse_dnn_0.00_boat_10_n04273569_1141.png,n04273569_1141.png,1.0,6.2105317,3.2745526,2.0760508
alexnet,1,683,NaN,dog,dog,0.00,0683_nse_dnn_0.00_dog_10_n02098105_5905.png,n02098105_5905.png,1.0,4.326638,2.441168,1.3332287
alexnet,1,684,NaN,bottle,bird,0.35,0684_nse_dnn_0.35_bird_10_n01534433_12864.png,n01534433_12864.png,0.0,-0.24305826,1.4675883,-1.2096099
alexnet,1,685,NaN,chair,keyboard,0.00,0685_nse_dnn_0.00_keyboard_10_n04505470_6847.png,n04505470_6847.png,0.0,1.7416825,3.8449407,-1.4872282
alexnet,1,686,NaN,clock,car,0.60,0686_nse_dnn_0.60_car_10_n02814533_92286.png,n02814533_92286.png,0.0,-2.16978,2.9281633,-3.6047904
alexnet,1,687,NaN,clock,clock,0.05,0687_nse_dnn_0.05_clock_10_n02708093_3462.png,n02708093_3462.png,1.0,2.3792298,1.8234478,0.3929972
alexnet,1,688,NaN,chair,elephant,0.00,0688_nse_dnn_0.00_elephant_10_n02504013_3602.png,n02504013_3602.png,0.0,-0.737101,2.7248232,-2.4479501
alexnet,1,689,NaN,cat,clock,0.20,0689_nse_dnn_0.20_clock_10_n02708093_2800.png,n02708093_2800.png,0.0,1.767169,2.2337286,-0.3299075
alexnet,1,690,NaN,elephant,bottle,0.03,0690_nse_dnn_0.03_bottle_10_n03983396_4627.png,n03983396_4627.png,0.0,1.1834433,4.4749084,-2.3274174
alexnet,1,691,NaN,clock,elephant,0.60,0691_nse_dnn_0.60_elephant_10_n02504458_6835.png,n02504458_6835.png,0.0,-4.081335,3.1144047,-5.088156
alexnet,1,692,NaN,cat,bicycle,0.10,0692_nse_dnn_0.10_bicycle_10_n02835271_7594.png,n02835271_7594.png,0.0,0.51631075,2.846527,-1.6477119
alexnet,1,693,NaN,clock,oven,0.10,0693_nse_dnn_0.10_oven_10_n04111531_538.png,n04111531_538.png,0.0,-1.8433049,2.5481758,-3.1052456
alexnet,1,694,NaN,elephant,elephant,0.03,0694_nse_dnn_0.03_elephant_10_n02504013_10909.png,n02504013_10909.png,1.0,5.6088552,2.320203,2.3254282
alexnet,1,695,NaN,clock,boat,0.90,0695_nse_dnn_0.90_boat_10_n03344393_771.png,n03344393_771.png,0.0,-1.7369407,3.8270652,-3.9343464
alexnet,1,696,NaN,clock,boat,0.10,0696_nse_dnn_0.10_boat_10_n02951358_15413.png,n02951358_15413.png,0.0,-0.3983056,2.7762072,-2.2447195
alexnet,1,697,NaN,clock,cat,0.60,0697_nse_dnn_0.60_cat_10_n02124075_12176.png,n02124075_12176.png,0.0,0.15159504,2.843836,-1.9037019
alexnet,1,698,NaN,clock,airplane,0.60,0698_nse_dnn_0.60_airplane_10_n02690373_5197.png,n02690373_5197.png,0.0,-6.668907,3.2426593,-7.0085363
alexnet,1,699,NaN,bicycle,bicycle,0.00,0699_nse_dnn_0.00_bicycle_10_n03792782_7101.png,n03792782_7101.png,1.0,6.19676,3.1386242,2.1624286
alexnet,1,700,NaN,clock,bicycle,0.60,0700_nse_dnn_0.60_bicycle_10_n02835271_358.png,n02835271_358.png,0.0,-1.827316,2.906029,-3.3469803
alexnet,1,701,NaN,elephant,dog,0.03,0701_nse_dnn_0.03_dog_10_n02092002_15319.png,n02092002_15319.png,0.0,3.6362014,5.570812,-1.3679764
alexnet,1,702,NaN,clock,airplane,0.10,0702_nse_dnn_0.10_airplane_10_n02690373_3818.png,n02690373_3818.png,0.0,-1.5879995,2.4820733,-2.877976
alexnet,1,703,NaN,cat,dog,0.10,0703_nse_dnn_0.10_dog_10_n02097130_7349.png,n02097130_7349.png,0.0,1.8024567,2.724044,-0.6516607
alexnet,1,704,NaN,cat,elephant,0.20,0704_nse_dnn_0.20_elephant_10_n02504013_7210.png,n02504013_7210.png,0.0,-1.9297439,1.7374729,-2.593114
alexnet,1,705,NaN,clock,clock,0.20,0705_nse_dnn_0.20_clock_10_n04548280_1109.png,n04548280_1109.png,1.0,1.8789467,1.727602,0.10701683
alexnet,1,706,NaN,bottle,boat,0.35,0706_nse_dnn_0.35_boat_10_n03344393_4143.png,n03344393_4143.png,0.0,-0.8053261,1.499548,-1.629792
alexnet,1,707,NaN,clock,oven,0.60,0707_nse_dnn_0.60_oven_10_n04111531_326.png,n04111531_326.png,0.0,-1.7372553,2.2964697,-2.8522742
alexnet,1,708,NaN,clock,bottle,0.35,0708_nse_dnn_0.35_bottle_10_n04557648_3529.png,n04557648_3529.png,0.0,1.4650465,1.849692,-0.2719854
alexnet,1,709,NaN,clock,knife,0.90,0709_nse_dnn_0.90_knife_10_n03041632_27960.png,n03041632_27960.png,0.0,1.087702,3.469226,-1.6839917
alexnet,1,710,NaN,elephant,elephant,0.00,0710_nse_dnn_0.00_elephant_10_n02504458_8889.png,n02504458_8889.png,1.0,6.859589,2.4619508,3.1095998
alexnet,1,711,NaN,cat,knife,0.05,0711_nse_dnn_0.05_knife_10_n03041632_38610.png,n03041632_38610.png,0.0,-0.5758132,2.5201266,-2.1891599
alexnet,1,712,NaN,elephant,bear,0.00,0712_nse_dnn_0.00_bear_10_n02132136_2263.png,n02132136_2263.png,0.0,4.0366178,6.460972,-1.7142773
alexnet,1,713,NaN,chair,bicycle,0.03,0713_nse_dnn_0.03_bicycle_10_n02835271_6167.png,n02835271_6167.png,0.0,1.6174887,1.8094296,-0.13572271
alexnet,1,714,NaN,airplane,bird,0.00,0714_nse_dnn_0.00_bird_10_n02027492_597.png,n02027492_597.png,0.0,3.0817647,3.45591,-0.26456067
alexnet,1,715,NaN,clock,boat,0.60,0715_nse_dnn_0.60_boat_10_n03662601_7585.png,n03662601_7585.png,0.0,-1.266649,2.3167627,-2.5338547
alexnet,1,716,NaN,cat,knife,0.10,0716_nse_dnn_0.10_knife_10_n03041632_22738.png,n03041632_22738.png,0.0,-2.5457094,2.584936,-3.6279142
alexnet,1,717,NaN,clock,clock,0.10,0717_nse_dnn_0.10_clock_10_n03196217_3140.png,n03196217_3140.png,1.0,6.116047,4.598492,1.0730733
alexnet,1,718,NaN,clock,truck,0.90,0718_nse_dnn_0.90_truck_10_n03417042_27988.png,n03417042_27988.png,0.0,-2.5400693,2.9025002,-3.848478
alexnet,1,719,NaN,clock,bear,0.60,0719_nse_dnn_0.60_bear_10_n02133161_97.png,n02133161_97.png,0.0,-0.038262427,2.7306974,-1.9579502
alexnet,1,720,NaN,clock,bottle,0.10,0720_nse_dnn_0.10_bottle_10_n04579145_815.png,n04579145_815.png,0.0,2.4534917,3.1181355,-0.46997413
alexnet,1,721,NaN,clock,clock,0.05,0721_nse_dnn_0.05_clock_10_n03196217_8792.png,n03196217_8792.png,1.0,4.843863,2.5358868,1.6319857
alexnet,1,722,NaN,clock,clock,0.90,0722_nse_dnn_0.90_clock_10_n04548280_2827.png,n04548280_2827.png,1.0,3.238123,2.4195201,0.5788396
alexnet,1,723,NaN,bottle,knife,0.35,0723_nse_dnn_0.35_knife_10_n03041632_2153.png,n03041632_2153.png,0.0,-0.97571373,1.567235,-1.7981364
alexnet,1,724,NaN,clock,car,0.60,0724_nse_dnn_0.60_car_10_n04285008_5078.png,n04285008_5078.png,0.0,-2.0501692,2.7695072,-3.408026
alexnet,1,725,NaN,clock,airplane,0.60,0725_nse_dnn_0.60_airplane_10_n02690373_3377.png,n02690373_3377.png,0.0,-6.867628,2.4777286,-6.6081653
alexnet,1,726,NaN,cat,bicycle,0.20,0726_nse_dnn_0.20_bicycle_10_n02835271_22623.png,n02835271_22623.png,0.0,-0.077438146,2.0251966,-1.4867872
alexnet,1,727,NaN,airplane,boat,0.00,0727_nse_dnn_0.00_boat_10_n03344393_1125.png,n03344393_1125.png,0.0,5.4638295,8.609231,-2.2241347
alexnet,1,728,NaN,clock,keyboard,0.10,0728_nse_dnn_0.10_keyboard_10_n04505470_4507.png,n04505470_4507.png,0.0,2.2167442,4.094315,-1.3276432
alexnet,1,729,NaN,knife,knife,0.00,0729_nse_dnn_0.00_knife_10_n03041632_25512.png,n03041632_25512.png,1.0,5.8403287,3.998617,1.3022869
alexnet,1,730,NaN,clock,airplane,0.35,0730_nse_dnn_0.35_airplane_10_n02690373_8524.png,n02690373_8524.png,0.0,-5.7884827,2.082867,-5.5658846
alexnet,1,731,NaN,clock,airplane,0.10,0731_nse_dnn_0.10_airplane_10_n02690373_2521.png,n02690373_2521.png,0.0,-2.090247,1.7451206,-2.7120144
