subj,session,trial,rt,object_response,category,condition,imagename,filename,is_correct,targ_act,max_nontarg_act,decision_margin
bagnet33,1,1,NaN,airplane,elephant,0.03,0001_nse_dnn_0.03_elephant_10_n02504458_7209.png,n02504458_7209.png,0.0,2.5490193,4.6432433,-1.48084
bagnet33,1,2,NaN,elephant,knife,0.90,0002_nse_dnn_0.90_knife_10_n03041632_82878.png,n03041632_82878.png,0.0,7.0382805,13.663385,-4.6846566
bagnet33,1,3,NaN,clock,clock,0.00,0003_nse_dnn_0.00_clock_10_n03196217_9231.png,n03196217_9231.png,1.0,9.276652,4.94653,3.0618591
bagnet33,1,4,NaN,chair,oven,0.00,0004_nse_dnn_0.00_oven_10_n04111531_11026.png,n04111531_11026.png,0.0,1.1398414,4.213884,-2.1736763
bagnet33,1,5,NaN,knife,clock,0.10,0005_nse_dnn_0.10_clock_10_n04548280_1114.png,n04548280_1114.png,0.0,-0.49766263,1.7558025,-1.5934405
bagnet33,1,6,NaN,truck,clock,0.03,0006_nse_dnn_0.03_clock_10_n02708093_8100.png,n02708093_8100.png,0.0,6.0190263,6.581647,-0.39783287
bagnet33,1,7,NaN,clock,clock,0.00,0007_nse_dnn_0.00_clock_10_n02708093_3591.png,n02708093_3591.png,1.0,22.518896,5.253164,12.208716
bagnet33,1,8,NaN,clock,chair,0.00,0008_nse_dnn_0.00_chair_10_n03376595_16202.png,n03376595_16202.png,0.0,2.5584197,6.630178,-2.879168
bagnet33,1,9,NaN,elephant,bottle,0.60,0009_nse_dnn_0.60_bottle_10_n02823428_3478.png,n02823428_3478.png,0.0,-2.9208655,9.646187,-8.886249
bagnet33,1,10,NaN,knife,dog,0.10,0010_nse_dnn_0.10_dog_10_n02087394_28673.png,n02087394_28673.png,0.0,-0.471794,2.3224497,-1.9758288
bagnet33,1,11,NaN,elephant,chair,0.10,0011_nse_dnn_0.10_chair_10_n04099969_1690.png,n04099969_1690.png,0.0,-0.0026123822,2.6172042,-1.8524901
bagnet33,1,12,NaN,knife,cat,0.03,0012_nse_dnn_0.03_cat_10_n02125311_1736.png,n02125311_1736.png,0.0,1.1213053,2.1809752,-0.74929976
bagnet33,1,13,NaN,elephant,bear,0.90,0013_nse_dnn_0.90_bear_10_n02133161_1169.png,n02133161_1169.png,0.0,-12.048699,13.924196,-18.365612
bagnet33,1,14,NaN,elephant,bear,0.90,0014_nse_dnn_0.90_bear_10_n02133161_8835.png,n02133161_8835.png,0.0,-11.884869,14.19791,-18.44331
bagnet33,1,15,NaN,knife,car,0.20,0015_nse_dnn_0.20_car_10_n02814533_5430.png,n02814533_5430.png,0.0,-2.5108702,3.077905,-3.951861
bagnet33,1,16,NaN,elephant,bear,0.60,0016_nse_dnn_0.60_bear_10_n02134418_3767.png,n02134418_3767.png,0.0,-7.4462113,8.150773,-11.028734
bagnet33,1,17,NaN,knife,knife,0.20,0017_nse_dnn_0.20_knife_10_n03041632_10540.png,n03041632_10540.png,1.0,2.981469,1.9470398,0.7314518
bagnet33,1,18,NaN,knife,bicycle,0.20,0018_nse_dnn_0.20_bicycle_10_n02835271_1075.png,n02835271_1075.png,0.0,-1.1886952,2.8865108,-2.8816056
bagnet33,1,19,NaN,elephant,bear,0.00,0019_nse_dnn_0.00_bear_10_n02134084_3888.png,n02134084_3888.png,0.0,-0.29450387,3.997932,-3.0352104
bagnet33,1,20,NaN,knife,dog,0.00,0020_nse_dnn_0.00_dog_10_n02085936_9009.png,n02085936_9009.png,0.0,0.77728516,2.1003087,-0.9355189
bagnet33,1,21,NaN,knife,knife,0.03,0021_nse_dnn_0.03_knife_10_n03041632_12651.png,n03041632_12651.png,1.0,3.0631967,2.6601593,0.28499043
bagnet33,1,22,NaN,chair,bicycle,0.35,0022_nse_dnn_0.35_bicycle_10_n03792782_565.png,n03792782_565.png,0.0,-2.7757025,6.053181,-6.242964
bagnet33,1,23,NaN,knife,boat,0.20,0023_nse_dnn_0.20_boat_10_n04612504_40672.png,n04612504_40672.png,0.0,0.3365783,3.21255,-2.033619
bagnet33,1,24,NaN,knife,dog,0.05,0024_nse_dnn_0.05_dog_10_n02098105_146.png,n02098105_146.png,0.0,0.09849252,3.0323162,-2.0745265
bagnet33,1,25,NaN,truck,clock,0.03,0025_nse_dnn_0.03_clock_10_n02708093_5944.png,n02708093_5944.png,0.0,4.106132,4.4689703,-0.2565654
bagnet33,1,26,NaN,knife,cat,0.03,0026_nse_dnn_0.03_cat_10_n02124075_14021.png,n02124075_14021.png,0.0,0.45923004,2.9688098,-1.774541
bagnet33,1,27,NaN,knife,bear,0.20,0027_nse_dnn_0.20_bear_10_n02133161_7184.png,n02133161_7184.png,0.0,-1.1674953,2.8758063,-2.859046
bagnet33,1,28,NaN,clock,bottle,0.00,0028_nse_dnn_0.00_bottle_10_n03937543_9745.png,n03937543_9745.png,0.0,2.020722,3.3507805,-0.94049346
bagnet33,1,29,NaN,elephant,airplane,0.60,0029_nse_dnn_0.60_airplane_10_n02690373_9605.png,n02690373_9605.png,0.0,-3.600809,10.40334,-9.90243
bagnet33,1,30,NaN,knife,cat,0.20,0030_nse_dnn_0.20_cat_10_n02123045_7167.png,n02123045_7167.png,0.0,1.0861417,3.0675607,-1.4010748
bagnet33,1,31,NaN,airplane,airplane,0.05,0031_nse_dnn_0.05_airplane_10_n02690373_4706.png,n02690373_4706.png,1.0,4.516875,2.693857,1.2890683
bagnet33,1,32,NaN,chair,knife,0.35,0032_nse_dnn_0.35_knife_10_n03041632_45270.png,n03041632_45270.png,0.0,4.7631407,6.5364847,-1.2539436
bagnet33,1,33,NaN,chair,dog,0.35,0033_nse_dnn_0.35_dog_10_n02105855_9326.png,n02105855_9326.png,0.0,-0.92082655,5.9796257,-4.8793564
bagnet33,1,34,NaN,knife,bear,0.10,0034_nse_dnn_0.10_bear_10_n02134418_4349.png,n02134418_4349.png,0.0,-0.054024592,2.0545151,-1.4909629
bagnet33,1,35,NaN,cat,cat,0.00,0035_nse_dnn_0.00_cat_10_n02123159_469.png,n02123159_469.png,1.0,1.3919414,0.9293094,0.32713023
bagnet33,1,36,NaN,elephant,truck,0.90,0036_nse_dnn_0.90_truck_10_n03417042_5004.png,n03417042_5004.png,0.0,1.9018617,12.864982,-7.752096
bagnet33,1,37,NaN,knife,bird,0.10,0037_nse_dnn_0.10_bird_10_n02051845_6333.png,n02051845_6333.png,0.0,-1.6624643,2.2603948,-2.7738805
bagnet33,1,38,NaN,elephant,clock,0.90,0038_nse_dnn_0.90_clock_10_n03196217_12701.png,n03196217_12701.png,0.0,-14.227773,14.297066,-20.170107
bagnet33,1,39,NaN,elephant,chair,0.60,0039_nse_dnn_0.60_chair_10_n03376595_12341.png,n03376595_12341.png,0.0,6.8923087,8.582425,-1.1950928
bagnet33,1,40,NaN,elephant,bicycle,0.10,0040_nse_dnn_0.10_bicycle_10_n03792782_66837.png,n03792782_66837.png,0.0,-1.6794229,2.6052892,-3.029749
bagnet33,1,41,NaN,airplane,bicycle,0.05,0041_nse_dnn_0.05_bicycle_10_n02835271_20177.png,n02835271_20177.png,0.0,1.980264,3.002558,-0.72287107
bagnet33,1,42,NaN,bottle,knife,0.00,0042_nse_dnn_0.00_knife_10_n03041632_22330.png,n03041632_22330.png,0.0,1.1243765,2.125734,-0.7080667
bagnet33,1,43,NaN,knife,cat,0.60,0043_nse_dnn_0.60_cat_10_n02123045_5913.png,n02123045_5913.png,0.0,4.4330196,8.695948,-3.0143454
bagnet33,1,44,NaN,knife,elephant,0.20,0044_nse_dnn_0.20_elephant_10_n02504013_2464.png,n02504013_2464.png,0.0,2.565135,2.7666306,-0.14247894
bagnet33,1,45,NaN,elephant,knife,0.90,0045_nse_dnn_0.90_knife_10_n03041632_99460.png,n03041632_99460.png,0.0,6.4208603,13.802971,-5.2199407
bagnet33,1,46,NaN,knife,dog,0.00,0046_nse_dnn_0.00_dog_10_n02099601_8686.png,n02099601_8686.png,0.0,0.1604967,2.6259987,-1.7433733
bagnet33,1,47,NaN,elephant,chair,0.90,0047_nse_dnn_0.90_chair_10_n02791124_5400.png,n02791124_5400.png,0.0,4.384861,12.266305,-5.5730224
bagnet33,1,48,NaN,knife,chair,0.05,0048_nse_dnn_0.05_chair_10_n03376595_830.png,n03376595_830.png,0.0,1.1650409,2.3687806,-0.85117257
bagnet33,1,49,NaN,elephant,cat,0.90,0049_nse_dnn_0.90_cat_10_n02124075_6024.png,n02124075_6024.png,0.0,8.941882,13.11716,-2.9523673
bagnet33,1,50,NaN,elephant,bicycle,0.10,0050_nse_dnn_0.10_bicycle_10_n03792782_9004.png,n03792782_9004.png,0.0,-0.61987054,2.5135255,-2.2156458
bagnet33,1,51,NaN,elephant,keyboard,0.60,0051_nse_dnn_0.60_keyboard_10_n03085013_24088.png,n03085013_24088.png,0.0,-6.9395266,13.056201,-14.139114
bagnet33,1,52,NaN,knife,cat,0.10,0052_nse_dnn_0.10_cat_10_n02125311_33778.png,n02125311_33778.png,0.0,1.9633528,2.7954655,-0.5883925
bagnet33,1,53,NaN,bicycle,bicycle,0.00,0053_nse_dnn_0.00_bicycle_10_n03792782_7092.png,n03792782_7092.png,1.0,5.7672257,4.6438737,0.7943299
bagnet33,1,54,NaN,chair,airplane,0.35,0054_nse_dnn_0.35_airplane_10_n02690373_5724.png,n02690373_5724.png,0.0,-4.57909,5.0629635,-6.8179617
bagnet33,1,55,NaN,elephant,bear,0.60,0055_nse_dnn_0.60_bear_10_n02133161_5637.png,n02133161_5637.png,0.0,-7.7434425,8.419587,-11.4289875
bagnet33,1,56,NaN,knife,bear,0.10,0056_nse_dnn_0.10_bear_10_n02132136_5365.png,n02132136_5365.png,0.0,-1.1528257,2.1360486,-2.3255854
bagnet33,1,57,NaN,chair,car,0.35,0057_nse_dnn_0.35_car_10_n03100240_1702.png,n03100240_1702.png,0.0,-4.196711,6.4562407,-7.532775
bagnet33,1,58,NaN,chair,oven,0.35,0058_nse_dnn_0.35_oven_10_n04111531_2677.png,n04111531_2677.png,0.0,-2.9743452,6.1444373,-6.4479527
bagnet33,1,59,NaN,chair,oven,0.05,0059_nse_dnn_0.05_oven_10_n04111531_16583.png,n04111531_16583.png,0.0,1.7214254,3.082129,-0.96216273
bagnet33,1,60,NaN,knife,chair,0.10,0060_nse_dnn_0.10_chair_10_n04099969_6266.png,n04099969_6266.png,0.0,0.44716123,1.8901305,-1.0203334
bagnet33,1,61,NaN,elephant,oven,0.60,0061_nse_dnn_0.60_oven_10_n04111531_6695.png,n04111531_6695.png,0.0,-3.1588855,9.08624,-8.658611
bagnet33,1,62,NaN,knife,car,0.10,0062_nse_dnn_0.10_car_10_n03100240_1438.png,n03100240_1438.png,0.0,0.5318099,2.3922348,-1.3155191
bagnet33,1,63,NaN,knife,keyboard,0.20,0063_nse_dnn_0.20_keyboard_10_n04505470_4684.png,n04505470_4684.png,0.0,-1.9161401,2.7217147,-3.2794585
bagnet33,1,64,NaN,chair,chair,0.00,0064_nse_dnn_0.00_chair_10_n04099969_8021.png,n04099969_8021.png,1.0,4.774879,2.897145,1.3277584
bagnet33,1,65,NaN,chair,car,0.20,0065_nse_dnn_0.20_car_10_n04285008_7139.png,n04285008_7139.png,0.0,-2.4777696,3.312254,-4.0941653
bagnet33,1,66,NaN,airplane,truck,0.03,0066_nse_dnn_0.03_truck_10_n03796401_9207.png,n03796401_9207.png,0.0,2.95292,4.8102674,-1.313343
bagnet33,1,67,NaN,chair,bottle,0.05,0067_nse_dnn_0.05_bottle_10_n04560804_3651.png,n04560804_3651.png,0.0,1.2717744,1.3525352,-0.057106536
bagnet33,1,68,NaN,elephant,chair,0.60,0068_nse_dnn_0.60_chair_10_n03376595_3010.png,n03376595_3010.png,0.0,6.8346477,9.72333,-2.0426066
bagnet33,1,69,NaN,elephant,bird,0.90,0069_nse_dnn_0.90_bird_10_n01514859_1951.png,n01514859_1951.png,0.0,-4.318982,11.944389,-11.49994
bagnet33,1,70,NaN,truck,car,0.10,0070_nse_dnn_0.10_car_10_n03100240_4594.png,n03100240_4594.png,0.0,1.5879661,2.9766195,-0.98192626
bagnet33,1,71,NaN,chair,clock,0.35,0071_nse_dnn_0.35_clock_10_n03196217_3333.png,n03196217_3333.png,0.0,-4.1611934,5.9919376,-7.1793485
bagnet33,1,72,NaN,knife,car,0.10,0072_nse_dnn_0.10_car_10_n02814533_90798.png,n02814533_90798.png,0.0,-0.4474341,2.128334,-1.8213432
bagnet33,1,73,NaN,keyboard,keyboard,0.00,0073_nse_dnn_0.00_keyboard_10_n03085013_19547.png,n03085013_19547.png,1.0,7.946095,6.5665298,0.9754999
bagnet33,1,74,NaN,elephant,bear,0.05,0074_nse_dnn_0.05_bear_10_n02133161_545.png,n02133161_545.png,0.0,0.33852255,0.9690999,-0.4458855
bagnet33,1,75,NaN,elephant,oven,0.90,0075_nse_dnn_0.90_oven_10_n04111531_6489.png,n04111531_6489.png,0.0,-1.0016414,14.060948,-10.65086
bagnet33,1,76,NaN,elephant,dog,0.90,0076_nse_dnn_0.90_dog_10_n02105056_15299.png,n02105056_15299.png,0.0,-1.1309371,13.225443,-10.151494
bagnet33,1,77,NaN,knife,knife,0.05,0077_nse_dnn_0.05_knife_10_n03041632_33255.png,n03041632_33255.png,1.0,2.6204782,2.003132,0.43652958
bagnet33,1,78,NaN,knife,cat,0.20,0078_nse_dnn_0.20_cat_10_n02123394_5895.png,n02123394_5895.png,0.0,0.637454,2.748407,-1.4926691
bagnet33,1,79,NaN,knife,bottle,0.03,0079_nse_dnn_0.03_bottle_10_n03983396_11654.png,n03983396_11654.png,0.0,1.2303685,1.9286113,-0.4937322
bagnet33,1,80,NaN,airplane,airplane,0.03,0080_nse_dnn_0.03_airplane_10_n02690373_3860.png,n02690373_3860.png,1.0,8.011199,2.9104364,3.6067836
bagnet33,1,81,NaN,knife,oven,0.03,0081_nse_dnn_0.03_oven_10_n04111531_6415.png,n04111531_6415.png,0.0,-1.689251,2.692768,-3.0985553
bagnet33,1,82,NaN,elephant,knife,0.60,0082_nse_dnn_0.60_knife_10_n03041632_39342.png,n03041632_39342.png,0.0,6.8469515,9.036238,-1.5480592
bagnet33,1,83,NaN,elephant,bear,0.60,0083_nse_dnn_0.60_bear_10_n02133161_4882.png,n02133161_4882.png,0.0,-7.243501,9.222214,-11.64302
bagnet33,1,84,NaN,bottle,bottle,0.00,0084_nse_dnn_0.00_bottle_10_n04591713_7474.png,n04591713_7474.png,1.0,4.721074,2.3696282,1.6627234
bagnet33,1,85,NaN,knife,bear,0.20,0085_nse_dnn_0.20_bear_10_n02132136_17615.png,n02132136_17615.png,0.0,-1.5560999,2.828586,-3.1004412
bagnet33,1,86,NaN,elephant,boat,0.60,0086_nse_dnn_0.60_boat_10_n03344393_382.png,n03344393_382.png,0.0,-8.975981,9.702211,-13.207477
bagnet33,1,87,NaN,airplane,truck,0.00,0087_nse_dnn_0.00_truck_10_n03796401_27811.png,n03796401_27811.png,0.0,4.896177,9.134752,-2.9971254
bagnet33,1,88,NaN,elephant,keyboard,0.60,0088_nse_dnn_0.60_keyboard_10_n04505470_2603.png,n04505470_2603.png,0.0,-6.9247336,10.372122,-12.230724
bagnet33,1,89,NaN,chair,boat,0.35,0089_nse_dnn_0.35_boat_10_n03662601_16418.png,n03662601_16418.png,0.0,-3.8172672,5.12835,-6.325506
bagnet33,1,90,NaN,chair,bear,0.35,0090_nse_dnn_0.35_bear_10_n02132136_2760.png,n02132136_2760.png,0.0,-3.9489722,5.8403225,-6.922077
bagnet33,1,91,NaN,airplane,bicycle,0.05,0091_nse_dnn_0.05_bicycle_10_n02835271_10271.png,n02835271_10271.png,0.0,2.0383162,2.3233318,-0.20153646
bagnet33,1,92,NaN,knife,bear,0.10,0092_nse_dnn_0.10_bear_10_n02134084_9127.png,n02134084_9127.png,0.0,-1.3435805,2.235182,-2.5305674
bagnet33,1,93,NaN,knife,bird,0.20,0093_nse_dnn_0.20_bird_10_n01797886_551.png,n01797886_551.png,0.0,-2.2140145,2.8794656,-3.6016345
bagnet33,1,94,NaN,knife,truck,0.10,0094_nse_dnn_0.10_truck_10_n03417042_9559.png,n03417042_9559.png,0.0,-0.8519551,3.2315512,-2.887475
bagnet33,1,95,NaN,elephant,clock,0.90,0095_nse_dnn_0.90_clock_10_n02708093_3114.png,n02708093_3114.png,0.0,-14.78521,13.7050905,-20.145683
bagnet33,1,96,NaN,knife,bicycle,0.05,0096_nse_dnn_0.05_bicycle_10_n03792782_122.png,n03792782_122.png,0.0,0.30528083,3.1970212,-2.0447693
bagnet33,1,97,NaN,chair,oven,0.35,0097_nse_dnn_0.35_oven_10_n04111531_3702.png,n04111531_3702.png,0.0,-3.1006913,5.552784,-6.118931
bagnet33,1,98,NaN,elephant,car,0.90,0098_nse_dnn_0.90_car_10_n02814533_93476.png,n02814533_93476.png,0.0,-2.1964505,12.73067,-10.555068
bagnet33,1,99,NaN,chair,cat,0.35,0099_nse_dnn_0.35_cat_10_n02123045_8491.png,n02123045_8491.png,0.0,0.12521096,6.869816,-4.769156
bagnet33,1,100,NaN,chair,chair,0.35,0100_nse_dnn_0.35_chair_10_n02791124_13469.png,n02791124_13469.png,1.0,5.842305,4.680655,0.8214107
bagnet33,1,101,NaN,elephant,dog,0.60,0101_nse_dnn_0.60_dog_10_n02096294_5451.png,n02096294_5451.png,0.0,0.07591835,10.984076,-7.713232
bagnet33,1,102,NaN,chair,bicycle,0.35,0102_nse_dnn_0.35_bicycle_10_n03792782_44296.png,n03792782_44296.png,0.0,-3.4293103,6.4714746,-7.0009127
bagnet33,1,103,NaN,elephant,cat,0.90,0103_nse_dnn_0.90_cat_10_n02123597_7138.png,n02123597_7138.png,0.0,8.49208,13.041546,-3.2169585
bagnet33,1,104,NaN,chair,bottle,0.35,0104_nse_dnn_0.35_bottle_10_n04560804_12736.png,n04560804_12736.png,0.0,0.051561594,5.1191955,-3.583358
bagnet33,1,105,NaN,elephant,oven,0.60,0105_nse_dnn_0.60_oven_10_n04111531_22797.png,n04111531_22797.png,0.0,-2.4913774,9.642103,-8.579666
bagnet33,1,106,NaN,knife,bird,0.10,0106_nse_dnn_0.10_bird_10_n02007558_7446.png,n02007558_7446.png,0.0,-0.95520246,1.9994587,-2.089261
bagnet33,1,107,NaN,elephant,boat,0.60,0107_nse_dnn_0.60_boat_10_n03662601_16441.png,n03662601_16441.png,0.0,-8.463468,8.502701,-11.996892
bagnet33,1,108,NaN,elephant,oven,0.60,0108_nse_dnn_0.60_oven_10_n04111531_22386.png,n04111531_22386.png,0.0,-2.510258,10.028556,-8.866281
bagnet33,1,109,NaN,airplane,airplane,0.00,0109_nse_dnn_0.00_airplane_10_n02690373_1381.png,n02690373_1381.png,1.0,17.541636,4.1394463,9.476779
bagnet33,1,110,NaN,knife,keyboard,0.20,0110_nse_dnn_0.20_keyboard_10_n03085013_20779.png,n03085013_20779.png,0.0,-1.5393791,2.816523,-3.0800881
bagnet33,1,111,NaN,elephant,dog,0.90,0111_nse_dnn_0.90_dog_10_n02095570_9488.png,n02095570_9488.png,0.0,-0.7526571,13.696371,-10.217006
bagnet33,1,112,NaN,knife,dog,0.03,0112_nse_dnn_0.03_dog_10_n02107312_3262.png,n02107312_3262.png,0.0,1.4039365,2.5294435,-0.7958536
bagnet33,1,113,NaN,airplane,oven,0.03,0113_nse_dnn_0.03_oven_10_n04111531_10681.png,n04111531_10681.png,0.0,0.6713657,3.025807,-1.6648413
bagnet33,1,114,NaN,elephant,knife,0.90,0114_nse_dnn_0.90_knife_10_n03041632_29285.png,n03041632_29285.png,0.0,6.316142,13.753986,-5.2593503
bagnet33,1,115,NaN,elephant,elephant,0.60,0115_nse_dnn_0.60_elephant_10_n02504458_4776.png,n02504458_4776.png,1.0,10.222271,7.8630705,1.6682067
bagnet33,1,116,NaN,knife,boat,0.10,0116_nse_dnn_0.10_boat_10_n04273569_11940.png,n04273569_11940.png,0.0,0.71677494,2.339308,-1.1473042
bagnet33,1,117,NaN,knife,cat,0.20,0117_nse_dnn_0.20_cat_10_n02123159_1413.png,n02123159_1413.png,0.0,0.6395634,3.2805097,-1.8674312
bagnet33,1,118,NaN,elephant,airplane,0.60,0118_nse_dnn_0.60_airplane_10_n02690373_6674.png,n02690373_6674.png,0.0,-4.3310366,10.542673,-10.517302
bagnet33,1,119,NaN,chair,clock,0.35,0119_nse_dnn_0.35_clock_10_n04548280_5088.png,n04548280_5088.png,0.0,-3.444636,5.0679297,-6.019293
bagnet33,1,120,NaN,knife,clock,0.05,0120_nse_dnn_0.05_clock_10_n02708093_6624.png,n02708093_6624.png,0.0,2.5114267,3.5253406,-0.7169454
bagnet33,1,121,NaN,knife,bicycle,0.20,0121_nse_dnn_0.20_bicycle_10_n03792782_29108.png,n03792782_29108.png,0.0,-1.4308136,2.8178244,-3.004241
bagnet33,1,122,NaN,knife,clock,0.20,0122_nse_dnn_0.20_clock_10_n04548280_8649.png,n04548280_8649.png,0.0,-1.0617752,3.5832105,-3.2845008
bagnet33,1,123,NaN,chair,knife,0.05,0123_nse_dnn_0.05_knife_10_n03041632_737.png,n03041632_737.png,0.0,1.0364013,1.5073156,-0.33298674
bagnet33,1,124,NaN,clock,clock,0.10,0124_nse_dnn_0.10_clock_10_n04548280_8668.png,n04548280_8668.png,1.0,2.517871,2.0683155,0.31788367
bagnet33,1,125,NaN,clock,bird,0.03,0125_nse_dnn_0.03_bird_10_n01558993_34885.png,n01558993_34885.png,0.0,-1.7847011,2.5523465,-3.0667558
bagnet33,1,126,NaN,elephant,truck,0.60,0126_nse_dnn_0.60_truck_10_n04467665_37833.png,n04467665_37833.png,0.0,0.7707404,10.074244,-6.5785704
bagnet33,1,127,NaN,knife,boat,0.05,0127_nse_dnn_0.05_boat_10_n03662601_5176.png,n03662601_5176.png,0.0,1.8764557,3.5934982,-1.2141324
bagnet33,1,128,NaN,chair,chair,0.00,0128_nse_dnn_0.00_chair_10_n03376595_9139.png,n03376595_9139.png,1.0,7.7111793,6.696892,0.7172096
bagnet33,1,129,NaN,elephant,oven,0.90,0129_nse_dnn_0.90_oven_10_n04111531_6211.png,n04111531_6211.png,0.0,-2.064197,11.64152,-9.691405
bagnet33,1,130,NaN,clock,boat,0.00,0130_nse_dnn_0.00_boat_10_n04273569_11427.png,n04273569_11427.png,0.0,2.006942,2.724062,-0.5070804
bagnet33,1,131,NaN,knife,bicycle,0.05,0131_nse_dnn_0.05_bicycle_10_n03792782_17198.png,n03792782_17198.png,0.0,0.46090406,1.8429519,-0.97725546
bagnet33,1,132,NaN,clock,clock,0.00,0132_nse_dnn_0.00_clock_10_n04548280_4560.png,n04548280_4560.png,1.0,10.791809,5.4148636,3.8020747
bagnet33,1,133,NaN,knife,knife,0.03,0133_nse_dnn_0.03_knife_10_n03041632_3781.png,n03041632_3781.png,1.0,3.9817362,1.9834955,1.4129696
bagnet33,1,134,NaN,knife,clock,0.10,0134_nse_dnn_0.10_clock_10_n03196217_958.png,n03196217_958.png,0.0,1.5146395,1.5790558,-0.045549195
bagnet33,1,135,NaN,chair,elephant,0.35,0135_nse_dnn_0.35_elephant_10_n02504458_485.png,n02504458_485.png,0.0,4.0510683,5.8741465,-1.2891109
bagnet33,1,136,NaN,clock,clock,0.00,0136_nse_dnn_0.00_clock_10_n02708093_1038.png,n02708093_1038.png,1.0,13.212463,2.4908047,7.5813575
bagnet33,1,137,NaN,chair,oven,0.03,0137_nse_dnn_0.03_oven_10_n04111531_1723.png,n04111531_1723.png,0.0,0.6738286,2.6145291,-1.3722825
bagnet33,1,138,NaN,knife,dog,0.03,0138_nse_dnn_0.03_dog_10_n02110806_27169.png,n02110806_27169.png,0.0,0.1918381,1.8958669,-1.2049303
bagnet33,1,139,NaN,airplane,airplane,0.00,0139_nse_dnn_0.00_airplane_10_n02690373_12505.png,n02690373_12505.png,1.0,6.4080095,2.6845043,2.632916
bagnet33,1,140,NaN,elephant,bird,0.60,0140_nse_dnn_0.60_bird_10_n01828970_454.png,n01828970_454.png,0.0,-4.838787,11.244054,-11.372286
bagnet33,1,141,NaN,knife,oven,0.20,0141_nse_dnn_0.20_oven_10_n04111531_15635.png,n04111531_15635.png,0.0,-1.5373021,2.743367,-3.0268903
bagnet33,1,142,NaN,bottle,car,0.00,0142_nse_dnn_0.00_car_10_n04285008_8700.png,n04285008_8700.png,0.0,0.08487415,3.2958248,-2.270485
bagnet33,1,143,NaN,keyboard,keyboard,0.05,0143_nse_dnn_0.05_keyboard_10_n04505470_4592.png,n04505470_4592.png,1.0,10.2815,2.698606,5.3619156
bagnet33,1,144,NaN,knife,boat,0.20,0144_nse_dnn_0.20_boat_10_n03344393_9560.png,n03344393_9560.png,0.0,0.77639973,2.8606887,-1.473815
bagnet33,1,145,NaN,chair,bear,0.00,0145_nse_dnn_0.00_bear_10_n02132136_5138.png,n02132136_5138.png,0.0,1.0908768,2.5542765,-1.0347798
bagnet33,1,146,NaN,elephant,chair,0.60,0146_nse_dnn_0.60_chair_10_n03376595_591.png,n03376595_591.png,0.0,7.046714,9.953476,-2.0553913
bagnet33,1,147,NaN,elephant,keyboard,0.90,0147_nse_dnn_0.90_keyboard_10_n03085013_20590.png,n03085013_20590.png,0.0,-8.795868,12.041876,-14.73451
bagnet33,1,148,NaN,chair,dog,0.35,0148_nse_dnn_0.35_dog_10_n02094258_1224.png,n02094258_1224.png,0.0,-1.2546116,6.01005,-5.1368914
bagnet33,1,149,NaN,knife,clock,0.20,0149_nse_dnn_0.20_clock_10_n03196217_4486.png,n03196217_4486.png,0.0,-0.627341,2.7355843,-2.3779473
bagnet33,1,150,NaN,knife,bear,0.20,0150_nse_dnn_0.20_bear_10_n02134084_22150.png,n02134084_22150.png,0.0,-1.7761333,2.740067,-3.1934357
bagnet33,1,151,NaN,knife,cat,0.10,0151_nse_dnn_0.10_cat_10_n02123045_3098.png,n02123045_3098.png,0.0,1.9930234,3.0147185,-0.7224476
bagnet33,1,152,NaN,knife,bear,0.20,0152_nse_dnn_0.20_bear_10_n02134418_271.png,n02134418_271.png,0.0,-1.0988216,2.7818272,-2.744033
bagnet33,1,153,NaN,knife,oven,0.05,0153_nse_dnn_0.05_oven_10_n04111531_274.png,n04111531_274.png,0.0,-0.87677926,2.132771,-2.1280735
bagnet33,1,154,NaN,chair,knife,0.35,0154_nse_dnn_0.35_knife_10_n03041632_8563.png,n03041632_8563.png,0.0,4.868023,5.7386746,-0.61564374
bagnet33,1,155,NaN,car,car,0.00,0155_nse_dnn_0.00_car_10_n02814533_52389.png,n02814533_52389.png,1.0,11.554363,8.062709,2.4689724
bagnet33,1,156,NaN,airplane,airplane,0.00,0156_nse_dnn_0.00_airplane_10_n02690373_10455.png,n02690373_10455.png,1.0,9.939685,6.024479,2.7684686
bagnet33,1,157,NaN,chair,truck,0.35,0157_nse_dnn_0.35_truck_10_n04467665_4810.png,n04467665_4810.png,0.0,-1.8050458,5.5877976,-5.2275295
bagnet33,1,158,NaN,knife,knife,0.10,0158_nse_dnn_0.10_knife_10_n03041632_3159.png,n03041632_3159.png,1.0,2.1942647,0.95638865,0.8753105
bagnet33,1,159,NaN,knife,cat,0.05,0159_nse_dnn_0.05_cat_10_n02123597_13411.png,n02123597_13411.png,0.0,0.9101797,2.8319101,-1.3588687
bagnet33,1,160,NaN,knife,clock,0.10,0160_nse_dnn_0.10_clock_10_n04548280_2654.png,n04548280_2654.png,0.0,1.144086,1.7877814,-0.45516136
bagnet33,1,161,NaN,elephant,elephant,0.90,0161_nse_dnn_0.90_elephant_10_n02504013_405.png,n02504013_405.png,1.0,14.016535,10.15856,2.7280004
bagnet33,1,162,NaN,knife,bottle,0.05,0162_nse_dnn_0.05_bottle_10_n04560804_14729.png,n04560804_14729.png,0.0,1.02231,1.8198235,-0.5639272
bagnet33,1,163,NaN,elephant,bottle,0.90,0163_nse_dnn_0.90_bottle_10_n02823428_5482.png,n02823428_5482.png,0.0,-2.7046063,11.969543,-10.376191
bagnet33,1,164,NaN,elephant,keyboard,0.90,0164_nse_dnn_0.90_keyboard_10_n04505470_4824.png,n04505470_4824.png,0.0,-9.621529,13.507466,-16.35467
bagnet33,1,165,NaN,knife,chair,0.20,0165_nse_dnn_0.20_chair_10_n04099969_14208.png,n04099969_14208.png,0.0,1.8853267,2.7665825,-0.62314194
bagnet33,1,166,NaN,bottle,elephant,0.00,0166_nse_dnn_0.00_elephant_10_n02504013_1647.png,n02504013_1647.png,0.0,2.2499287,2.6223443,-0.26333755
bagnet33,1,167,NaN,knife,cat,0.20,0167_nse_dnn_0.20_cat_10_n02123597_11564.png,n02123597_11564.png,0.0,0.7871361,2.975875,-1.547672
bagnet33,1,168,NaN,chair,car,0.35,0168_nse_dnn_0.35_car_10_n03100240_16653.png,n03100240_16653.png,0.0,-4.071511,5.6121745,-6.8473997
bagnet33,1,169,NaN,oven,oven,0.00,0169_nse_dnn_0.00_oven_10_n04111531_9611.png,n04111531_9611.png,1.0,6.58914,5.2351155,0.95743984
bagnet33,1,170,NaN,airplane,car,0.05,0170_nse_dnn_0.05_car_10_n02814533_35054.png,n02814533_35054.png,0.0,0.2397434,5.168241,-3.4849744
bagnet33,1,171,NaN,knife,oven,0.20,0171_nse_dnn_0.20_oven_10_n04111531_3121.png,n04111531_3121.png,0.0,-0.4499756,3.2500696,-2.616327
bagnet33,1,172,NaN,knife,chair,0.20,0172_nse_dnn_0.20_chair_10_n02791124_4969.png,n02791124_4969.png,0.0,2.0983195,3.194855,-0.7753677
bagnet33,1,173,NaN,knife,car,0.20,0173_nse_dnn_0.20_car_10_n02814533_211.png,n02814533_211.png,0.0,-3.0167055,3.2283618,-4.41593
bagnet33,1,174,NaN,chair,dog,0.00,0174_nse_dnn_0.00_dog_10_n02091244_13118.png,n02091244_13118.png,0.0,1.3155532,3.7089467,-1.6923848
bagnet33,1,175,NaN,knife,bottle,0.10,0175_nse_dnn_0.10_bottle_10_n04560804_3597.png,n04560804_3597.png,0.0,0.24362728,2.2513733,-1.4196908
bagnet33,1,176,NaN,elephant,bottle,0.60,0176_nse_dnn_0.60_bottle_10_n04560804_30885.png,n04560804_30885.png,0.0,-3.0015645,10.313297,-9.415029
bagnet33,1,177,NaN,elephant,bottle,0.60,0177_nse_dnn_0.60_bottle_10_n04560804_9813.png,n04560804_9813.png,0.0,-2.8942053,9.579778,-8.820438
bagnet33,1,178,NaN,chair,boat,0.35,0178_nse_dnn_0.35_boat_10_n02951358_10003.png,n02951358_10003.png,0.0,-3.760985,5.757884,-6.7308574
bagnet33,1,179,NaN,chair,bear,0.35,0179_nse_dnn_0.35_bear_10_n02133161_1500.png,n02133161_1500.png,0.0,-5.5772333,6.882689,-8.810496
bagnet33,1,180,NaN,knife,oven,0.20,0180_nse_dnn_0.20_oven_10_n04111531_4467.png,n04111531_4467.png,0.0,-1.4770561,3.1037214,-3.239099
bagnet33,1,181,NaN,knife,clock,0.20,0181_nse_dnn_0.20_clock_10_n02708093_8002.png,n02708093_8002.png,0.0,-1.0494515,3.0242648,-2.8805523
bagnet33,1,182,NaN,elephant,boat,0.90,0182_nse_dnn_0.90_boat_10_n02951358_34261.png,n02951358_34261.png,0.0,-14.440271,14.789438,-20.668526
bagnet33,1,183,NaN,airplane,boat,0.00,0183_nse_dnn_0.00_boat_10_n04612504_20067.png,n04612504_20067.png,0.0,4.8451176,5.7189827,-0.617916
bagnet33,1,184,NaN,chair,clock,0.35,0184_nse_dnn_0.35_clock_10_n03196217_6163.png,n03196217_6163.png,0.0,-3.811621,6.231059,-7.1012473
bagnet33,1,185,NaN,airplane,keyboard,0.03,0185_nse_dnn_0.03_keyboard_10_n03085013_23119.png,n03085013_23119.png,0.0,3.9678993,5.1005526,-0.8009068
bagnet33,1,186,NaN,elephant,clock,0.60,0186_nse_dnn_0.60_clock_10_n04548280_4358.png,n04548280_4358.png,0.0,-11.288112,9.975485,-15.035633
bagnet33,1,187,NaN,knife,dog,0.05,0187_nse_dnn_0.05_dog_10_n02101388_2968.png,n02101388_2968.png,0.0,-0.47720373,2.234428,-1.9174132
bagnet33,1,188,NaN,knife,oven,0.10,0188_nse_dnn_0.10_oven_10_n04111531_8081.png,n04111531_8081.png,0.0,0.73002326,2.9228315,-1.5505495
bagnet33,1,189,NaN,clock,keyboard,0.05,0189_nse_dnn_0.05_keyboard_10_n04505470_4994.png,n04505470_4994.png,0.0,0.5488845,2.2072108,-1.1726137
bagnet33,1,190,NaN,elephant,dog,0.10,0190_nse_dnn_0.10_dog_10_n02101006_16132.png,n02101006_16132.png,0.0,0.40552688,2.934585,-1.7883142
bagnet33,1,191,NaN,knife,elephant,0.10,0191_nse_dnn_0.10_elephant_10_n02504458_6888.png,n02504458_6888.png,0.0,0.06754041,1.4136363,-0.95183355
bagnet33,1,192,NaN,elephant,bird,0.60,0192_nse_dnn_0.60_bird_10_n02018207_43958.png,n02018207_43958.png,0.0,-4.707539,10.552012,-10.7901325
bagnet33,1,193,NaN,cat,cat,0.03,0193_nse_dnn_0.03_cat_10_n02123045_2719.png,n02123045_2719.png,1.0,4.139034,2.8354893,0.9217452
bagnet33,1,194,NaN,keyboard,keyboard,0.05,0194_nse_dnn_0.05_keyboard_10_n03085013_5611.png,n03085013_5611.png,1.0,11.865961,3.3365104,6.0312324
bagnet33,1,195,NaN,boat,boat,0.03,0195_nse_dnn_0.03_boat_10_n03344393_6892.png,n03344393_6892.png,1.0,3.0016065,2.9741602,0.019407444
bagnet33,1,196,NaN,elephant,chair,0.90,0196_nse_dnn_0.90_chair_10_n02791124_5411.png,n02791124_5411.png,0.0,4.560329,13.426938,-6.26964
bagnet33,1,197,NaN,elephant,elephant,0.05,0197_nse_dnn_0.05_elephant_10_n02504013_8391.png,n02504013_8391.png,1.0,5.943267,2.4778218,2.4504397
bagnet33,1,198,NaN,elephant,chair,0.60,0198_nse_dnn_0.60_chair_10_n02791124_7167.png,n02791124_7167.png,0.0,7.5691466,10.4811735,-2.059114
bagnet33,1,199,NaN,knife,truck,0.10,0199_nse_dnn_0.10_truck_10_n03417042_2170.png,n03417042_2170.png,0.0,1.0027515,2.274439,-0.899219
bagnet33,1,200,NaN,chair,chair,0.35,0200_nse_dnn_0.35_chair_10_n04099969_2109.png,n04099969_2109.png,1.0,6.4895926,4.8746715,1.1419216
bagnet33,1,201,NaN,elephant,chair,0.90,0201_nse_dnn_0.90_chair_10_n04429376_7321.png,n04429376_7321.png,0.0,4.978183,13.199537,-5.8133755
bagnet33,1,202,NaN,chair,airplane,0.35,0202_nse_dnn_0.35_airplane_10_n02690373_1733.png,n02690373_1733.png,0.0,-4.7115846,5.48107,-7.2072954
bagnet33,1,203,NaN,knife,bird,0.10,0203_nse_dnn_0.10_bird_10_n02006656_5719.png,n02006656_5719.png,0.0,-0.9499936,2.4373162,-2.3951898
bagnet33,1,204,NaN,chair,bicycle,0.03,0204_nse_dnn_0.03_bicycle_10_n03792782_12354.png,n03792782_12354.png,0.0,0.89150274,2.4087043,-1.0728235
bagnet33,1,205,NaN,bottle,bottle,0.03,0205_nse_dnn_0.03_bottle_10_n04557648_12671.png,n04557648_12671.png,1.0,7.3169937,4.968831,1.6604018
bagnet33,1,206,NaN,knife,elephant,0.05,0206_nse_dnn_0.05_elephant_10_n02504013_318.png,n02504013_318.png,0.0,2.2172863,2.3898652,-0.12203165
bagnet33,1,207,NaN,elephant,boat,0.90,0207_nse_dnn_0.90_boat_10_n04273569_16078.png,n04273569_16078.png,0.0,-12.354082,13.255998,-18.109062
bagnet33,1,208,NaN,knife,cat,0.03,0208_nse_dnn_0.03_cat_10_n02123597_9664.png,n02123597_9664.png,0.0,0.7200238,3.4906769,-1.9591476
bagnet33,1,209,NaN,chair,clock,0.35,0209_nse_dnn_0.35_clock_10_n04548280_4113.png,n04548280_4113.png,0.0,-3.1483562,5.401301,-6.0455203
bagnet33,1,210,NaN,elephant,keyboard,0.60,0210_nse_dnn_0.60_keyboard_10_n03085013_20363.png,n03085013_20363.png,0.0,-6.5359797,10.098865,-11.762611
bagnet33,1,211,NaN,airplane,truck,0.03,0211_nse_dnn_0.03_truck_10_n04467665_67908.png,n04467665_67908.png,0.0,4.626236,4.9873924,-0.2553762
bagnet33,1,212,NaN,elephant,truck,0.90,0212_nse_dnn_0.90_truck_10_n04467665_61522.png,n04467665_61522.png,0.0,2.6394727,15.018579,-8.753349
bagnet33,1,213,NaN,elephant,cat,0.90,0213_nse_dnn_0.90_cat_10_n02123045_3648.png,n02123045_3648.png,0.0,8.205043,12.619726,-3.1216526
bagnet33,1,214,NaN,elephant,dog,0.60,0214_nse_dnn_0.60_dog_10_n02107574_3685.png,n02107574_3685.png,0.0,-0.84768206,9.2093,-7.1113605
bagnet33,1,215,NaN,knife,dog,0.20,0215_nse_dnn_0.20_dog_10_n02100236_4048.png,n02100236_4048.png,0.0,-0.8402221,3.3709292,-2.9777336
bagnet33,1,216,NaN,chair,bear,0.35,0216_nse_dnn_0.35_bear_10_n02134418_5073.png,n02134418_5073.png,0.0,-4.6001453,6.3147316,-7.7179837
bagnet33,1,217,NaN,elephant,airplane,0.90,0217_nse_dnn_0.90_airplane_10_n02690373_9012.png,n02690373_9012.png,0.0,-3.5080996,13.118131,-11.75652
bagnet33,1,218,NaN,chair,cat,0.35,0218_nse_dnn_0.35_cat_10_n02123159_6439.png,n02123159_6439.png,0.0,-0.16690445,6.128156,-4.45128
bagnet33,1,219,NaN,elephant,cat,0.60,0219_nse_dnn_0.60_cat_10_n02125311_3616.png,n02125311_3616.png,0.0,4.5869923,11.234247,-4.7003193
bagnet33,1,220,NaN,elephant,bottle,0.60,0220_nse_dnn_0.60_bottle_10_n04557648_4356.png,n04557648_4356.png,0.0,-3.2017746,9.610497,-9.059645
bagnet33,1,221,NaN,knife,bird,0.35,0221_nse_dnn_0.35_bird_10_n02027492_6813.png,n02027492_6813.png,0.0,-3.598068,4.700123,-5.8677073
bagnet33,1,222,NaN,chair,chair,0.03,0222_nse_dnn_0.03_chair_10_n04429376_26765.png,n04429376_26765.png,1.0,4.6075177,2.9911768,1.1429256
bagnet33,1,223,NaN,chair,elephant,0.35,0223_nse_dnn_0.35_elephant_10_n02504458_4811.png,n02504458_4811.png,0.0,3.306445,5.962684,-1.8782449
bagnet33,1,224,NaN,elephant,keyboard,0.20,0224_nse_dnn_0.20_keyboard_10_n04505470_1351.png,n04505470_1351.png,0.0,-1.7967312,2.6895928,-3.1723104
bagnet33,1,225,NaN,chair,chair,0.05,0225_nse_dnn_0.05_chair_10_n04099969_2532.png,n04099969_2532.png,1.0,2.2082162,1.042806,0.82406944
bagnet33,1,226,NaN,knife,airplane,0.10,0226_nse_dnn_0.10_airplane_10_n02690373_8547.png,n02690373_8547.png,0.0,2.5055852,2.538909,-0.023563461
bagnet33,1,227,NaN,chair,truck,0.35,0227_nse_dnn_0.35_truck_10_n03417042_23445.png,n03417042_23445.png,0.0,-1.9271656,6.5884347,-6.0214386
bagnet33,1,228,NaN,elephant,truck,0.90,0228_nse_dnn_0.90_truck_10_n04467665_48953.png,n04467665_48953.png,0.0,2.0085912,12.673791,-7.541435
bagnet33,1,229,NaN,knife,boat,0.20,0229_nse_dnn_0.20_boat_10_n03662601_11739.png,n03662601_11739.png,0.0,-0.2159913,2.811094,-2.1404727
bagnet33,1,230,NaN,knife,cat,0.03,0230_nse_dnn_0.03_cat_10_n02123597_4948.png,n02123597_4948.png,0.0,2.0330446,2.82547,-0.5603294
bagnet33,1,231,NaN,chair,oven,0.35,0231_nse_dnn_0.35_oven_10_n04111531_9411.png,n04111531_9411.png,0.0,-2.8695579,5.4022555,-5.8490553
bagnet33,1,232,NaN,elephant,bicycle,0.60,0232_nse_dnn_0.60_bicycle_10_n03792782_988.png,n03792782_988.png,0.0,-5.5961213,10.755669,-11.562462
bagnet33,1,233,NaN,airplane,car,0.05,0233_nse_dnn_0.05_car_10_n02814533_65294.png,n02814533_65294.png,0.0,1.936025,4.89754,-2.0941074
bagnet33,1,234,NaN,bottle,bottle,0.00,0234_nse_dnn_0.00_bottle_10_n04557648_10420.png,n04557648_10420.png,1.0,5.6883965,4.3275223,0.9622834
bagnet33,1,235,NaN,elephant,chair,0.60,0235_nse_dnn_0.60_chair_10_n04099969_33329.png,n04099969_33329.png,0.0,7.3536453,9.897595,-1.7988443
bagnet33,1,236,NaN,chair,oven,0.35,0236_nse_dnn_0.35_oven_10_n04111531_20493.png,n04111531_20493.png,0.0,-3.7074404,6.9250474,-7.518305
bagnet33,1,237,NaN,clock,clock,0.10,0237_nse_dnn_0.10_clock_10_n04548280_7839.png,n04548280_7839.png,1.0,2.095186,1.4814588,0.4339707
bagnet33,1,238,NaN,knife,airplane,0.20,0238_nse_dnn_0.20_airplane_10_n02690373_7229.png,n02690373_7229.png,0.0,-0.4419303,3.0473912,-2.4673228
bagnet33,1,239,NaN,knife,airplane,0.10,0239_nse_dnn_0.10_airplane_10_n02690373_5003.png,n02690373_5003.png,0.0,1.7562773,2.157282,-0.2835532
bagnet33,1,240,NaN,knife,chair,0.20,0240_nse_dnn_0.20_chair_10_n02791124_206.png,n02791124_206.png,0.0,2.202295,2.949061,-0.5280432
bagnet33,1,241,NaN,airplane,oven,0.00,0241_nse_dnn_0.00_oven_10_n04111531_7283.png,n04111531_7283.png,0.0,3.4733334,4.6485114,-0.83097637
bagnet33,1,242,NaN,chair,chair,0.35,0242_nse_dnn_0.35_chair_10_n04429376_8124.png,n04429376_8124.png,1.0,6.012733,5.082596,0.6577063
bagnet33,1,243,NaN,airplane,keyboard,0.00,0243_nse_dnn_0.00_keyboard_10_n04505470_3864.png,n04505470_3864.png,0.0,3.3143678,5.575034,-1.5985326
bagnet33,1,244,NaN,chair,bottle,0.35,0244_nse_dnn_0.35_bottle_10_n03937543_3289.png,n03937543_3289.png,0.0,-0.35141984,6.828939,-5.0772805
bagnet33,1,245,NaN,knife,boat,0.10,0245_nse_dnn_0.10_boat_10_n03344393_5207.png,n03344393_5207.png,0.0,1.3979579,1.8469174,-0.3174623
bagnet33,1,246,NaN,elephant,airplane,0.90,0246_nse_dnn_0.90_airplane_10_n02690373_629.png,n02690373_629.png,0.0,-2.6744494,13.108702,-11.160374
bagnet33,1,247,NaN,chair,elephant,0.03,0247_nse_dnn_0.03_elephant_10_n02504013_104.png,n02504013_104.png,0.0,0.5348852,2.9872823,-1.7341067
bagnet33,1,248,NaN,knife,bicycle,0.03,0248_nse_dnn_0.03_bicycle_10_n03792782_42626.png,n03792782_42626.png,0.0,1.3513825,2.0369759,-0.48478773
bagnet33,1,249,NaN,chair,truck,0.35,0249_nse_dnn_0.35_truck_10_n03417042_6847.png,n03417042_6847.png,0.0,-1.8679903,5.7750516,-5.4044466
bagnet33,1,250,NaN,knife,chair,0.10,0250_nse_dnn_0.10_chair_10_n04429376_23573.png,n04429376_23573.png,0.0,0.7493131,2.5245304,-1.2552682
bagnet33,1,251,NaN,knife,clock,0.03,0251_nse_dnn_0.03_clock_10_n03196217_7637.png,n03196217_7637.png,0.0,3.3944483,3.5255556,-0.09270688
bagnet33,1,252,NaN,airplane,airplane,0.05,0252_nse_dnn_0.05_airplane_10_n02690373_932.png,n02690373_932.png,1.0,4.023346,2.7077982,0.9302327
bagnet33,1,253,NaN,truck,truck,0.05,0253_nse_dnn_0.05_truck_10_n03417042_9478.png,n03417042_9478.png,1.0,5.0162315,5.009564,0.0047147153
bagnet33,1,254,NaN,clock,clock,0.05,0254_nse_dnn_0.05_clock_10_n04548280_7800.png,n04548280_7800.png,1.0,6.816744,3.0877786,2.6367767
bagnet33,1,255,NaN,knife,keyboard,0.10,0255_nse_dnn_0.10_keyboard_10_n03085013_1698.png,n03085013_1698.png,0.0,-1.2550328,2.2454095,-2.4751866
bagnet33,1,256,NaN,knife,boat,0.20,0256_nse_dnn_0.20_boat_10_n04273569_32553.png,n04273569_32553.png,0.0,1.0474472,2.9701784,-1.3595762
bagnet33,1,257,NaN,knife,bear,0.03,0257_nse_dnn_0.03_bear_10_n02132136_23078.png,n02132136_23078.png,0.0,0.94027627,2.0155296,-0.76031893
bagnet33,1,258,NaN,knife,bottle,0.00,0258_nse_dnn_0.00_bottle_10_n04591713_5476.png,n04591713_5476.png,0.0,8.5514345,12.012559,-2.4473846
bagnet33,1,259,NaN,knife,knife,0.10,0259_nse_dnn_0.10_knife_10_n03041632_31849.png,n03041632_31849.png,1.0,2.4684427,0.86748654,1.132047
bagnet33,1,260,NaN,elephant,truck,0.90,0260_nse_dnn_0.90_truck_10_n03417042_12908.png,n03417042_12908.png,0.0,2.0832863,15.410574,-9.423816
bagnet33,1,261,NaN,elephant,clock,0.60,0261_nse_dnn_0.60_clock_10_n02708093_1418.png,n02708093_1418.png,0.0,-11.455017,8.698124,-14.2504225
bagnet33,1,262,NaN,car,car,0.05,0262_nse_dnn_0.05_car_10_n03100240_4173.png,n03100240_4173.png,1.0,6.207586,5.3465667,0.6088325
bagnet33,1,263,NaN,knife,keyboard,0.10,0263_nse_dnn_0.10_keyboard_10_n03085013_25476.png,n03085013_25476.png,0.0,0.31578103,3.0486188,-1.9324081
bagnet33,1,264,NaN,knife,cat,0.05,0264_nse_dnn_0.05_cat_10_n02125311_34464.png,n02125311_34464.png,0.0,0.9666173,2.7415433,-1.2550622
bagnet33,1,265,NaN,knife,knife,0.20,0265_nse_dnn_0.20_knife_10_n03041632_36789.png,n03041632_36789.png,1.0,2.745544,1.396621,0.95383257
bagnet33,1,266,NaN,elephant,dog,0.03,0266_nse_dnn_0.03_dog_10_n02108915_3733.png,n02108915_3733.png,0.0,0.62544256,2.898285,-1.6071423
bagnet33,1,267,NaN,elephant,knife,0.60,0267_nse_dnn_0.60_knife_10_n03041632_42162.png,n03041632_42162.png,0.0,8.17049,8.6551695,-0.34271997
bagnet33,1,268,NaN,knife,keyboard,0.10,0268_nse_dnn_0.10_keyboard_10_n03085013_29042.png,n03085013_29042.png,0.0,0.2152565,3.7015984,-2.4652162
bagnet33,1,269,NaN,airplane,airplane,0.00,0269_nse_dnn_0.00_airplane_10_n02690373_19407.png,n02690373_19407.png,1.0,9.465412,3.9504724,3.8996513
bagnet33,1,270,NaN,knife,bear,0.05,0270_nse_dnn_0.05_bear_10_n02134084_22029.png,n02134084_22029.png,0.0,-0.39990532,2.5608315,-2.0935571
bagnet33,1,271,NaN,elephant,dog,0.60,0271_nse_dnn_0.60_dog_10_n02088238_11711.png,n02088238_11711.png,0.0,-1.1462905,9.459683,-7.4995565
bagnet33,1,272,NaN,knife,elephant,0.20,0272_nse_dnn_0.20_elephant_10_n02504013_8522.png,n02504013_8522.png,0.0,0.40678573,2.9868526,-1.8243829
bagnet33,1,273,NaN,elephant,elephant,0.60,0273_nse_dnn_0.60_elephant_10_n02504458_5941.png,n02504458_5941.png,1.0,10.421617,7.9102144,1.7758296
bagnet33,1,274,NaN,truck,truck,0.00,0274_nse_dnn_0.00_truck_10_n04467665_242.png,n04467665_242.png,1.0,11.272337,7.2847447,2.8196535
bagnet33,1,275,NaN,keyboard,keyboard,0.00,0275_nse_dnn_0.00_keyboard_10_n04505470_4473.png,n04505470_4473.png,1.0,11.343789,5.0461025,4.453137
bagnet33,1,276,NaN,knife,boat,0.05,0276_nse_dnn_0.05_boat_10_n03662601_10811.png,n03662601_10811.png,0.0,2.258909,2.824072,-0.39963052
bagnet33,1,277,NaN,keyboard,keyboard,0.03,0277_nse_dnn_0.03_keyboard_10_n03085013_20495.png,n03085013_20495.png,1.0,10.965063,8.889439,1.4676882
bagnet33,1,278,NaN,bicycle,bicycle,0.00,0278_nse_dnn_0.00_bicycle_10_n02835271_15038.png,n02835271_15038.png,1.0,6.960897,2.938868,2.844004
bagnet33,1,279,NaN,knife,bear,0.20,0279_nse_dnn_0.20_bear_10_n02134418_5271.png,n02134418_5271.png,0.0,-2.222527,2.7405581,-3.5094311
bagnet33,1,280,NaN,knife,chair,0.10,0280_nse_dnn_0.10_chair_10_n02791124_1217.png,n02791124_1217.png,0.0,0.5780972,2.5773864,-1.413711
bagnet33,1,281,NaN,knife,elephant,0.10,0281_nse_dnn_0.10_elephant_10_n02504013_2394.png,n02504013_2394.png,0.0,0.6351026,2.414212,-1.2580203
bagnet33,1,282,NaN,chair,dog,0.35,0282_nse_dnn_0.35_dog_10_n02105505_5576.png,n02105505_5576.png,0.0,-1.070798,6.4077215,-5.2881117
bagnet33,1,283,NaN,knife,airplane,0.10,0283_nse_dnn_0.10_airplane_10_n02690373_2579.png,n02690373_2579.png,0.0,0.6326482,1.8748465,-0.8783668
bagnet33,1,284,NaN,elephant,dog,0.05,0284_nse_dnn_0.05_dog_10_n02102480_10015.png,n02102480_10015.png,0.0,1.6195539,2.7544808,-0.80251455
bagnet33,1,285,NaN,knife,cat,0.10,0285_nse_dnn_0.10_cat_10_n02124075_5853.png,n02124075_5853.png,0.0,1.4851307,2.076412,-0.41809902
bagnet33,1,286,NaN,airplane,truck,0.00,0286_nse_dnn_0.00_truck_10_n03796401_2012.png,n03796401_2012.png,0.0,5.976716,7.6111345,-1.1557084
bagnet33,1,287,NaN,knife,keyboard,0.10,0287_nse_dnn_0.10_keyboard_10_n04505470_1286.png,n04505470_1286.png,0.0,-2.4731207,3.5140946,-4.2336006
bagnet33,1,288,NaN,truck,truck,0.10,0288_nse_dnn_0.10_truck_10_n04467665_74008.png,n04467665_74008.png,1.0,2.0349665,1.4123094,0.44028503
bagnet33,1,289,NaN,elephant,bottle,0.90,0289_nse_dnn_0.90_bottle_10_n04560804_10541.png,n04560804_10541.png,0.0,-3.2069912,14.233214,-12.3320875
bagnet33,1,290,NaN,knife,airplane,0.20,0290_nse_dnn_0.20_airplane_10_n02690373_8967.png,n02690373_8967.png,0.0,0.12544894,3.4921143,-2.3805919
bagnet33,1,291,NaN,elephant,keyboard,0.60,0291_nse_dnn_0.60_keyboard_10_n04505470_3309.png,n04505470_3309.png,0.0,-7.6989965,9.431987,-12.113435
bagnet33,1,292,NaN,car,car,0.05,0292_nse_dnn_0.05_car_10_n02814533_42665.png,n02814533_42665.png,1.0,2.9378765,2.850203,0.061994474
bagnet33,1,293,NaN,knife,bicycle,0.03,0293_nse_dnn_0.03_bicycle_10_n03792782_6613.png,n03792782_6613.png,0.0,-0.47959888,4.4573693,-3.490964
bagnet33,1,294,NaN,knife,knife,0.00,0294_nse_dnn_0.00_knife_10_n03041632_38540.png,n03041632_38540.png,1.0,7.480176,3.6278336,2.7240174
bagnet33,1,295,NaN,elephant,dog,0.90,0295_nse_dnn_0.90_dog_10_n02109047_6542.png,n02109047_6542.png,0.0,-0.9157057,13.416646,-10.134503
bagnet33,1,296,NaN,chair,bicycle,0.35,0296_nse_dnn_0.35_bicycle_10_n03792782_51156.png,n03792782_51156.png,0.0,-3.445898,6.913185,-7.324978
bagnet33,1,297,NaN,knife,bottle,0.10,0297_nse_dnn_0.10_bottle_10_n04579145_5795.png,n04579145_5795.png,0.0,0.8472959,2.390005,-1.0908601
bagnet33,1,298,NaN,chair,chair,0.03,0298_nse_dnn_0.03_chair_10_n03376595_787.png,n03376595_787.png,1.0,4.4264803,2.4214272,1.4177866
bagnet33,1,299,NaN,elephant,bottle,0.90,0299_nse_dnn_0.90_bottle_10_n04579145_1117.png,n04579145_1117.png,0.0,-2.8466651,11.030651,-9.812745
bagnet33,1,300,NaN,airplane,bird,0.00,0300_nse_dnn_0.00_bird_10_n01795545_11076.png,n01795545_11076.png,0.0,-0.92198,3.4119136,-3.0645258
bagnet33,1,301,NaN,knife,clock,0.20,0301_nse_dnn_0.20_clock_10_n03196217_6741.png,n03196217_6741.png,0.0,-1.1247522,3.348092,-3.1627784
bagnet33,1,302,NaN,airplane,oven,0.00,0302_nse_dnn_0.00_oven_10_n04111531_3555.png,n04111531_3555.png,0.0,3.625671,4.593972,-0.68469244
bagnet33,1,303,NaN,knife,knife,0.20,0303_nse_dnn_0.20_knife_10_n03041632_36280.png,n03041632_36280.png,1.0,2.745284,1.952017,0.5609246
bagnet33,1,304,NaN,truck,truck,0.03,0304_nse_dnn_0.03_truck_10_n04467665_74235.png,n04467665_74235.png,1.0,10.499356,7.2731085,2.2813017
bagnet33,1,305,NaN,elephant,clock,0.90,0305_nse_dnn_0.90_clock_10_n04548280_6287.png,n04548280_6287.png,0.0,-14.37354,13.4973135,-19.70767
bagnet33,1,306,NaN,elephant,elephant,0.00,0306_nse_dnn_0.00_elephant_10_n02504458_6472.png,n02504458_6472.png,1.0,4.2196817,3.5752122,0.45570877
bagnet33,1,307,NaN,bicycle,bicycle,0.05,0307_nse_dnn_0.05_bicycle_10_n03792782_11034.png,n03792782_11034.png,1.0,3.049534,2.6158552,0.30665728
bagnet33,1,308,NaN,elephant,dog,0.60,0308_nse_dnn_0.60_dog_10_n02109525_50916.png,n02109525_50916.png,0.0,-0.90337735,11.0251255,-8.434726
bagnet33,1,309,NaN,elephant,dog,0.60,0309_nse_dnn_0.60_dog_10_n02097658_1923.png,n02097658_1923.png,0.0,-0.7631209,9.405599,-7.1903706
bagnet33,1,310,NaN,knife,knife,0.03,0310_nse_dnn_0.03_knife_10_n03041632_22480.png,n03041632_22480.png,1.0,3.6988382,2.6115696,0.768815
bagnet33,1,311,NaN,chair,elephant,0.35,0311_nse_dnn_0.35_elephant_10_n02504458_1041.png,n02504458_1041.png,0.0,1.8294582,5.1889157,-2.3754952
bagnet33,1,312,NaN,knife,knife,0.10,0312_nse_dnn_0.10_knife_10_n03041632_28129.png,n03041632_28129.png,1.0,2.5539925,1.9179692,0.4497364
bagnet33,1,313,NaN,airplane,car,0.00,0313_nse_dnn_0.00_car_10_n03100240_14667.png,n03100240_14667.png,0.0,7.3025265,8.697707,-0.98654175
bagnet33,1,314,NaN,airplane,airplane,0.03,0314_nse_dnn_0.03_airplane_10_n02690373_3821.png,n02690373_3821.png,1.0,9.67547,4.7505484,3.4824457
bagnet33,1,315,NaN,elephant,cat,0.90,0315_nse_dnn_0.90_cat_10_n02124075_1183.png,n02124075_1183.png,0.0,7.7699604,11.910988,-2.9281487
bagnet33,1,316,NaN,elephant,car,0.90,0316_nse_dnn_0.90_car_10_n03100240_1194.png,n03100240_1194.png,0.0,-1.7421083,12.53661,-10.096579
bagnet33,1,317,NaN,elephant,oven,0.60,0317_nse_dnn_0.60_oven_10_n04111531_9370.png,n04111531_9370.png,0.0,-3.4519691,8.251376,-8.275515
bagnet33,1,318,NaN,knife,truck,0.20,0318_nse_dnn_0.20_truck_10_n03417042_10597.png,n03417042_10597.png,0.0,-1.6209133,2.8382077,-3.1530745
bagnet33,1,319,NaN,airplane,truck,0.05,0319_nse_dnn_0.05_truck_10_n03417042_6489.png,n03417042_6489.png,0.0,4.8828926,5.9386325,-0.7465208
bagnet33,1,320,NaN,airplane,bottle,0.05,0320_nse_dnn_0.05_bottle_10_n04591713_6662.png,n04591713_6662.png,0.0,2.2041914,2.7107162,-0.35816714
bagnet33,1,321,NaN,elephant,bottle,0.60,0321_nse_dnn_0.60_bottle_10_n04560804_4624.png,n04560804_4624.png,0.0,-3.2108777,10.252672,-9.520167
bagnet33,1,322,NaN,chair,bird,0.00,0322_nse_dnn_0.00_bird_10_n01818515_7370.png,n01818515_7370.png,0.0,-0.7185942,2.4118094,-2.2135296
bagnet33,1,323,NaN,airplane,keyboard,0.05,0323_nse_dnn_0.05_keyboard_10_n03085013_15646.png,n03085013_15646.png,0.0,2.227892,5.7744026,-2.5077617
bagnet33,1,324,NaN,cat,cat,0.03,0324_nse_dnn_0.03_cat_10_n02124075_14924.png,n02124075_14924.png,1.0,7.14703,1.8734591,3.728978
bagnet33,1,325,NaN,knife,elephant,0.20,0325_nse_dnn_0.20_elephant_10_n02504013_18217.png,n02504013_18217.png,0.0,1.4190654,2.530044,-0.7855806
bagnet33,1,326,NaN,elephant,keyboard,0.35,0326_nse_dnn_0.35_keyboard_10_n04505470_4724.png,n04505470_4724.png,0.0,-4.1035776,7.403269,-8.136569
bagnet33,1,327,NaN,knife,clock,0.20,0327_nse_dnn_0.20_clock_10_n04548280_9646.png,n04548280_9646.png,0.0,-1.0041786,2.7074938,-2.6245487
bagnet33,1,328,NaN,chair,cat,0.35,0328_nse_dnn_0.35_cat_10_n02123394_6376.png,n02123394_6376.png,0.0,0.53472316,6.90732,-4.5061064
bagnet33,1,329,NaN,chair,elephant,0.35,0329_nse_dnn_0.35_elephant_10_n02504458_130.png,n02504458_130.png,0.0,2.35246,4.6861467,-1.6501658
bagnet33,1,330,NaN,elephant,cat,0.90,0330_nse_dnn_0.90_cat_10_n02124075_9291.png,n02124075_9291.png,0.0,8.313882,12.877505,-3.2269692
bagnet33,1,331,NaN,knife,bird,0.10,0331_nse_dnn_0.10_bird_10_n02037110_3949.png,n02037110_3949.png,0.0,-1.1546293,2.186994,-2.3628845
bagnet33,1,332,NaN,truck,car,0.00,0332_nse_dnn_0.00_car_10_n04285008_10905.png,n04285008_10905.png,0.0,8.471362,8.973388,-0.3549857
bagnet33,1,333,NaN,elephant,chair,0.10,0333_nse_dnn_0.10_chair_10_n04429376_619.png,n04429376_619.png,0.0,0.31895536,2.4320295,-1.494169
bagnet33,1,334,NaN,elephant,boat,0.90,0334_nse_dnn_0.90_boat_10_n02951358_30335.png,n02951358_30335.png,0.0,-14.2816925,15.256693,-20.886793
bagnet33,1,335,NaN,elephant,oven,0.90,0335_nse_dnn_0.90_oven_10_n04111531_17995.png,n04111531_17995.png,0.0,-0.9943378,14.978172,-11.2942705
bagnet33,1,336,NaN,chair,bird,0.35,0336_nse_dnn_0.35_bird_10_n01828970_11221.png,n01828970_11221.png,0.0,-4.0478144,5.507095,-6.756341
bagnet33,1,337,NaN,knife,elephant,0.10,0337_nse_dnn_0.10_elephant_10_n02504013_1719.png,n02504013_1719.png,0.0,1.7774477,2.0868208,-0.21875985
bagnet33,1,338,NaN,knife,oven,0.10,0338_nse_dnn_0.10_oven_10_n04111531_8009.png,n04111531_8009.png,0.0,-0.89426816,1.8453505,-1.937203
bagnet33,1,339,NaN,elephant,airplane,0.60,0339_nse_dnn_0.60_airplane_10_n02690373_8233.png,n02690373_8233.png,0.0,-4.318957,10.321076,-10.352067
bagnet33,1,340,NaN,knife,dog,0.10,0340_nse_dnn_0.10_dog_10_n02092339_401.png,n02092339_401.png,0.0,-0.33682737,2.720202,-2.1616461
bagnet33,1,341,NaN,knife,bottle,0.10,0341_nse_dnn_0.10_bottle_10_n02823428_11579.png,n02823428_11579.png,0.0,0.2028478,2.7686071,-1.814266
bagnet33,1,342,NaN,elephant,car,0.60,0342_nse_dnn_0.60_car_10_n04285008_6951.png,n04285008_6951.png,0.0,-3.8610737,9.373284,-9.358105
bagnet33,1,343,NaN,chair,bicycle,0.35,0343_nse_dnn_0.35_bicycle_10_n03792782_12504.png,n03792782_12504.png,0.0,-3.248756,6.1365247,-6.6363955
bagnet33,1,344,NaN,bottle,bottle,0.00,0344_nse_dnn_0.00_bottle_10_n02823428_4073.png,n02823428_4073.png,1.0,5.806535,3.414639,1.6913258
bagnet33,1,345,NaN,chair,elephant,0.35,0345_nse_dnn_0.35_elephant_10_n02504013_945.png,n02504013_945.png,0.0,2.4284334,6.0554495,-2.5646877
bagnet33,1,346,NaN,knife,cat,0.10,0346_nse_dnn_0.10_cat_10_n02124075_12815.png,n02124075_12815.png,0.0,1.6444811,2.469013,-0.58303213
bagnet33,1,347,NaN,elephant,truck,0.60,0347_nse_dnn_0.60_truck_10_n03417042_4876.png,n03417042_4876.png,0.0,0.9065887,10.183125,-6.5595016
bagnet33,1,348,NaN,chair,keyboard,0.05,0348_nse_dnn_0.05_keyboard_10_n04505470_4628.png,n04505470_4628.png,0.0,2.9244528,4.7203755,-1.2699091
bagnet33,1,349,NaN,knife,bear,0.20,0349_nse_dnn_0.20_bear_10_n02133161_1427.png,n02133161_1427.png,0.0,-1.8438569,2.7379708,-3.2398415
bagnet33,1,350,NaN,elephant,boat,0.60,0350_nse_dnn_0.60_boat_10_n04273569_7296.png,n04273569_7296.png,0.0,-9.064524,9.655269,-13.236892
bagnet33,1,351,NaN,elephant,chair,0.90,0351_nse_dnn_0.90_chair_10_n04099969_41686.png,n04099969_41686.png,0.0,4.47818,13.503116,-6.381593
bagnet33,1,352,NaN,airplane,airplane,0.03,0352_nse_dnn_0.03_airplane_10_n02690373_10006.png,n02690373_10006.png,1.0,3.5430312,2.3305438,0.8573581
bagnet33,1,353,NaN,elephant,knife,0.90,0353_nse_dnn_0.90_knife_10_n03041632_20595.png,n03041632_20595.png,0.0,6.727287,13.9875555,-5.1337852
bagnet33,1,354,NaN,elephant,oven,0.90,0354_nse_dnn_0.90_oven_10_n04111531_2054.png,n04111531_2054.png,0.0,-0.42492306,13.735344,-10.012821
bagnet33,1,355,NaN,knife,truck,0.20,0355_nse_dnn_0.20_truck_10_n04467665_40307.png,n04467665_40307.png,0.0,-1.3601621,3.4735274,-3.417935
bagnet33,1,356,NaN,chair,bear,0.00,0356_nse_dnn_0.00_bear_10_n02133161_396.png,n02133161_396.png,0.0,1.304559,2.2467668,-0.6662415
bagnet33,1,357,NaN,knife,dog,0.03,0357_nse_dnn_0.03_dog_10_n02105056_5636.png,n02105056_5636.png,0.0,0.25905356,2.5260434,-1.603004
bagnet33,1,358,NaN,chair,bicycle,0.35,0358_nse_dnn_0.35_bicycle_10_n02835271_8798.png,n02835271_8798.png,0.0,-3.4351757,6.087729,-6.7337103
bagnet33,1,359,NaN,elephant,bear,0.90,0359_nse_dnn_0.90_bear_10_n02134418_5478.png,n02134418_5478.png,0.0,-12.009443,14.235815,-18.5582
bagnet33,1,360,NaN,elephant,boat,0.90,0360_nse_dnn_0.90_boat_10_n04612504_4250.png,n04612504_4250.png,0.0,-12.9611845,13.461046,-18.683338
bagnet33,1,361,NaN,chair,knife,0.35,0361_nse_dnn_0.35_knife_10_n03041632_18959.png,n03041632_18959.png,0.0,4.7106733,6.0602117,-0.95426774
bagnet33,1,362,NaN,chair,dog,0.35,0362_nse_dnn_0.35_dog_10_n02105251_6564.png,n02105251_6564.png,0.0,-1.1930702,5.911517,-5.023702
bagnet33,1,363,NaN,elephant,boat,0.90,0363_nse_dnn_0.90_boat_10_n04612504_7148.png,n04612504_7148.png,0.0,-12.838452,13.735605,-18.790697
bagnet33,1,364,NaN,airplane,boat,0.03,0364_nse_dnn_0.03_boat_10_n04273569_4348.png,n04273569_4348.png,0.0,3.3197112,4.148718,-0.58619624
bagnet33,1,365,NaN,car,car,0.03,0365_nse_dnn_0.03_car_10_n02814533_88986.png,n02814533_88986.png,1.0,4.5521417,4.2240443,0.23199986
bagnet33,1,366,NaN,bear,bear,0.03,0366_nse_dnn_0.03_bear_10_n02134418_2590.png,n02134418_2590.png,1.0,2.0479853,1.4039443,0.4554058
bagnet33,1,367,NaN,knife,bird,0.20,0367_nse_dnn_0.20_bird_10_n02007558_5877.png,n02007558_5877.png,0.0,-1.9739475,3.1802435,-3.6445634
bagnet33,1,368,NaN,knife,clock,0.05,0368_nse_dnn_0.05_clock_10_n02708093_1313.png,n02708093_1313.png,0.0,3.0085106,3.298721,-0.2052098
bagnet33,1,369,NaN,chair,keyboard,0.35,0369_nse_dnn_0.35_keyboard_10_n03085013_20798.png,n03085013_20798.png,0.0,-2.3434837,6.4373994,-6.209022
bagnet33,1,370,NaN,elephant,dog,0.90,0370_nse_dnn_0.90_dog_10_n02109525_13812.png,n02109525_13812.png,0.0,-0.9159778,15.486276,-11.5981455
bagnet33,1,371,NaN,knife,bear,0.20,0371_nse_dnn_0.20_bear_10_n02134418_4458.png,n02134418_4458.png,0.0,-1.5166328,2.7242703,-2.9987712
bagnet33,1,372,NaN,knife,bottle,0.20,0372_nse_dnn_0.20_bottle_10_n04560804_21519.png,n04560804_21519.png,0.0,0.43760195,3.5079527,-2.1710658
bagnet33,1,373,NaN,knife,elephant,0.10,0373_nse_dnn_0.10_elephant_10_n02504458_8183.png,n02504458_8183.png,0.0,1.9802141,2.7342186,-0.5331617
bagnet33,1,374,NaN,elephant,keyboard,0.90,0374_nse_dnn_0.90_keyboard_10_n03085013_20330.png,n03085013_20330.png,0.0,-9.135615,12.545271,-15.330701
bagnet33,1,375,NaN,knife,elephant,0.10,0375_nse_dnn_0.10_elephant_10_n02504013_5533.png,n02504013_5533.png,0.0,0.08302474,2.2023773,-1.4986086
bagnet33,1,376,NaN,elephant,oven,0.90,0376_nse_dnn_0.90_oven_10_n04111531_1009.png,n04111531_1009.png,0.0,-0.60677624,14.020532,-10.343069
bagnet33,1,377,NaN,knife,bicycle,0.05,0377_nse_dnn_0.05_bicycle_10_n03792782_48457.png,n03792782_48457.png,0.0,0.5517928,1.5094472,-0.67716396
bagnet33,1,378,NaN,knife,cat,0.10,0378_nse_dnn_0.10_cat_10_n02124075_7240.png,n02124075_7240.png,0.0,1.1632166,2.7927752,-1.152272
bagnet33,1,379,NaN,elephant,car,0.60,0379_nse_dnn_0.60_car_10_n02814533_39597.png,n02814533_39597.png,0.0,-3.842261,10.518159,-10.15435
bagnet33,1,380,NaN,clock,chair,0.03,0380_nse_dnn_0.03_chair_10_n04429376_33792.png,n04429376_33792.png,0.0,3.0429304,3.1210861,-0.055264466
bagnet33,1,381,NaN,knife,bicycle,0.60,0381_nse_dnn_0.60_bicycle_10_n03792782_15679.png,n03792782_15679.png,0.0,-4.6495605,8.102449,-9.017034
bagnet33,1,382,NaN,elephant,bicycle,0.60,0382_nse_dnn_0.60_bicycle_10_n02835271_9237.png,n02835271_9237.png,0.0,-6.1256065,9.668052,-11.167803
bagnet33,1,383,NaN,knife,bottle,0.35,0383_nse_dnn_0.35_bottle_10_n04591713_665.png,n04591713_665.png,0.0,-0.34001282,5.77417,-4.3233805
bagnet33,1,384,NaN,knife,cat,0.03,0384_nse_dnn_0.03_cat_10_n02123159_8257.png,n02123159_8257.png,0.0,1.2288266,2.2164733,-0.6983717
bagnet33,1,385,NaN,knife,dog,0.10,0385_nse_dnn_0.10_dog_10_n02108551_26509.png,n02108551_26509.png,0.0,-0.5411797,1.8701621,-1.7050762
bagnet33,1,386,NaN,elephant,clock,0.60,0386_nse_dnn_0.60_clock_10_n03196217_3697.png,n03196217_3697.png,0.0,-10.97803,7.372767,-12.975974
bagnet33,1,387,NaN,airplane,bicycle,0.03,0387_nse_dnn_0.03_bicycle_10_n02835271_25268.png,n02835271_25268.png,0.0,2.0730932,4.118595,-1.4463884
bagnet33,1,388,NaN,knife,truck,0.10,0388_nse_dnn_0.10_truck_10_n03796401_407.png,n03796401_407.png,0.0,-0.19286063,2.9884963,-2.2495592
bagnet33,1,389,NaN,clock,clock,0.05,0389_nse_dnn_0.05_clock_10_n04548280_2045.png,n04548280_2045.png,1.0,4.917984,2.462132,1.7365496
bagnet33,1,390,NaN,knife,oven,0.05,0390_nse_dnn_0.05_oven_10_n04111531_5792.png,n04111531_5792.png,0.0,-1.3222344,1.9010937,-2.2792373
bagnet33,1,391,NaN,knife,elephant,0.05,0391_nse_dnn_0.05_elephant_10_n02504458_8212.png,n02504458_8212.png,0.0,0.88656676,2.7226868,-1.2983329
bagnet33,1,392,NaN,knife,bird,0.03,0392_nse_dnn_0.03_bird_10_n01843383_8624.png,n01843383_8624.png,0.0,-1.4857935,2.8630292,-3.075082
bagnet33,1,393,NaN,knife,airplane,0.20,0393_nse_dnn_0.20_airplane_10_n02690373_4814.png,n02690373_4814.png,0.0,-1.3205341,3.0625782,-3.0993285
bagnet33,1,394,NaN,elephant,truck,0.60,0394_nse_dnn_0.60_truck_10_n03796401_6184.png,n03796401_6184.png,0.0,1.031444,10.217758,-6.4957056
bagnet33,1,395,NaN,knife,dog,0.03,0395_nse_dnn_0.03_dog_10_n02094114_1589.png,n02094114_1589.png,0.0,1.9117209,2.3290772,-0.29511553
bagnet33,1,396,NaN,elephant,clock,0.90,0396_nse_dnn_0.90_clock_10_n02708093_6572.png,n02708093_6572.png,0.0,-14.6224375,13.172188,-19.653769
bagnet33,1,397,NaN,elephant,boat,0.60,0397_nse_dnn_0.60_boat_10_n02951358_15551.png,n02951358_15551.png,0.0,-9.4987335,10.15566,-13.897755
bagnet33,1,398,NaN,chair,boat,0.35,0398_nse_dnn_0.35_boat_10_n03662601_7352.png,n03662601_7352.png,0.0,-3.952369,6.356227,-7.289278
bagnet33,1,399,NaN,elephant,bicycle,0.60,0399_nse_dnn_0.60_bicycle_10_n03792782_14984.png,n03792782_14984.png,0.0,-5.6171966,8.856874,-10.2347145
bagnet33,1,400,NaN,chair,knife,0.35,0400_nse_dnn_0.35_knife_10_n03041632_84012.png,n03041632_84012.png,0.0,4.7228646,5.118324,-0.27963188
bagnet33,1,401,NaN,knife,keyboard,0.10,0401_nse_dnn_0.10_keyboard_10_n03085013_9146.png,n03085013_9146.png,0.0,-1.0588541,2.2256196,-2.3224735
bagnet33,1,402,NaN,airplane,airplane,0.03,0402_nse_dnn_0.03_airplane_10_n02690373_6755.png,n02690373_6755.png,1.0,4.222493,2.8736136,0.95380193
bagnet33,1,403,NaN,knife,dog,0.20,0403_nse_dnn_0.20_dog_10_n02086079_17983.png,n02086079_17983.png,0.0,-1.0429103,2.6070924,-2.5809417
bagnet33,1,404,NaN,knife,bear,0.00,0404_nse_dnn_0.00_bear_10_n02134418_3284.png,n02134418_3284.png,0.0,0.7504221,1.3692533,-0.43757972
bagnet33,1,405,NaN,chair,elephant,0.35,0405_nse_dnn_0.35_elephant_10_n02504458_8064.png,n02504458_8064.png,0.0,4.100401,7.000639,-2.050778
bagnet33,1,406,NaN,knife,cat,0.20,0406_nse_dnn_0.20_cat_10_n02123394_289.png,n02123394_289.png,0.0,0.59932387,3.2254608,-1.8569591
bagnet33,1,407,NaN,knife,knife,0.20,0407_nse_dnn_0.20_knife_10_n03041632_18995.png,n03041632_18995.png,1.0,2.8831894,1.6696038,0.8581346
bagnet33,1,408,NaN,knife,bird,0.03,0408_nse_dnn_0.03_bird_10_n01843065_4999.png,n01843065_4999.png,0.0,0.35048223,1.1321971,-0.55275595
bagnet33,1,409,NaN,elephant,keyboard,0.60,0409_nse_dnn_0.60_keyboard_10_n03085013_22417.png,n03085013_22417.png,0.0,-6.3280206,11.224878,-12.411774
bagnet33,1,410,NaN,knife,bear,0.05,0410_nse_dnn_0.05_bear_10_n02132136_3224.png,n02132136_3224.png,0.0,0.59853935,2.2154505,-1.1433289
bagnet33,1,411,NaN,airplane,boat,0.05,0411_nse_dnn_0.05_boat_10_n03662601_33184.png,n03662601_33184.png,0.0,3.1614082,4.5385203,-0.9737654
bagnet33,1,412,NaN,knife,bear,0.05,0412_nse_dnn_0.05_bear_10_n02133161_2396.png,n02133161_2396.png,0.0,-0.47454175,3.3375201,-2.6955347
bagnet33,1,413,NaN,chair,keyboard,0.35,0413_nse_dnn_0.35_keyboard_10_n03085013_24578.png,n03085013_24578.png,0.0,-2.2113361,5.526914,-5.4717693
bagnet33,1,414,NaN,chair,car,0.35,0414_nse_dnn_0.35_car_10_n02814533_4519.png,n02814533_4519.png,0.0,-4.059698,6.5164313,-7.478453
bagnet33,1,415,NaN,bottle,bottle,0.00,0415_nse_dnn_0.00_bottle_10_n03937543_2428.png,n03937543_2428.png,1.0,5.709687,1.180627,3.2025294
bagnet33,1,416,NaN,knife,dog,0.05,0416_nse_dnn_0.05_dog_10_n02091635_8296.png,n02091635_8296.png,0.0,0.18272537,3.3860135,-2.2650669
bagnet33,1,417,NaN,chair,bottle,0.35,0417_nse_dnn_0.35_bottle_10_n03983396_11434.png,n03983396_11434.png,0.0,-0.07947043,6.948046,-4.969205
bagnet33,1,418,NaN,airplane,boat,0.00,0418_nse_dnn_0.00_boat_10_n02951358_7315.png,n02951358_7315.png,0.0,1.1551178,3.002685,-1.3064274
bagnet33,1,419,NaN,knife,bird,0.20,0419_nse_dnn_0.20_bird_10_n01860187_7297.png,n01860187_7297.png,0.0,-2.2545626,2.7332425,-3.526911
bagnet33,1,420,NaN,knife,oven,0.20,0420_nse_dnn_0.20_oven_10_n04111531_4250.png,n04111531_4250.png,0.0,-1.5479897,3.2771347,-3.411878
bagnet33,1,421,NaN,knife,bear,0.20,0421_nse_dnn_0.20_bear_10_n02133161_9463.png,n02133161_9463.png,0.0,-2.2325358,2.9715393,-3.6798368
bagnet33,1,422,NaN,bottle,bird,0.00,0422_nse_dnn_0.00_bird_10_n02009229_4129.png,n02009229_4129.png,0.0,-0.18971826,1.63004,-1.2867634
bagnet33,1,423,NaN,knife,knife,0.10,0423_nse_dnn_0.10_knife_10_n03041632_30821.png,n03041632_30821.png,1.0,2.8330073,1.8134518,0.7209347
bagnet33,1,424,NaN,elephant,cat,0.90,0424_nse_dnn_0.90_cat_10_n02123394_2490.png,n02123394_2490.png,0.0,10.193261,12.433499,-1.5840876
bagnet33,1,425,NaN,bicycle,dog,0.00,0425_nse_dnn_0.00_dog_10_n02087394_2723.png,n02087394_2723.png,0.0,1.1678352,3.8423457,-1.8911645
bagnet33,1,426,NaN,elephant,dog,0.90,0426_nse_dnn_0.90_dog_10_n02093754_5736.png,n02093754_5736.png,0.0,-2.4157999,14.146709,-11.711463
bagnet33,1,427,NaN,elephant,bottle,0.60,0427_nse_dnn_0.60_bottle_10_n02823428_9063.png,n02823428_9063.png,0.0,-2.41486,10.11796,-8.862042
bagnet33,1,428,NaN,elephant,truck,0.60,0428_nse_dnn_0.60_truck_10_n04467665_20933.png,n04467665_20933.png,0.0,0.80490613,10.500217,-6.855621
bagnet33,1,429,NaN,knife,car,0.10,0429_nse_dnn_0.10_car_10_n03100240_5999.png,n03100240_5999.png,0.0,0.46432045,2.6409373,-1.5391006
bagnet33,1,430,NaN,airplane,oven,0.03,0430_nse_dnn_0.03_oven_10_n04111531_3671.png,n04111531_3671.png,0.0,1.166785,4.768491,-2.5467906
bagnet33,1,431,NaN,knife,truck,0.05,0431_nse_dnn_0.05_truck_10_n03417042_7187.png,n03417042_7187.png,0.0,1.2664504,3.3971696,-1.506646
bagnet33,1,432,NaN,chair,bottle,0.35,0432_nse_dnn_0.35_bottle_10_n04557648_2954.png,n04557648_2954.png,0.0,-0.09911684,6.1162376,-4.3949194
bagnet33,1,433,NaN,chair,elephant,0.35,0433_nse_dnn_0.35_elephant_10_n02504013_6645.png,n02504013_6645.png,0.0,1.8911874,5.6581516,-2.663646
bagnet33,1,434,NaN,knife,keyboard,0.10,0434_nse_dnn_0.10_keyboard_10_n04505470_6876.png,n04505470_6876.png,0.0,-1.1982298,3.7479334,-3.4974656
bagnet33,1,435,NaN,elephant,bird,0.20,0435_nse_dnn_0.20_bird_10_n02056570_3286.png,n02056570_3286.png,0.0,-1.9115797,3.2399905,-3.6427104
bagnet33,1,436,NaN,elephant,bird,0.90,0436_nse_dnn_0.90_bird_10_n02037110_8826.png,n02037110_8826.png,0.0,-4.3080044,13.223507,-12.39665
bagnet33,1,437,NaN,airplane,car,0.00,0437_nse_dnn_0.00_car_10_n03100240_11400.png,n03100240_11400.png,0.0,5.1856647,7.260586,-1.4671909
bagnet33,1,438,NaN,elephant,bird,0.60,0438_nse_dnn_0.60_bird_10_n02018795_6389.png,n02018795_6389.png,0.0,-4.8622375,10.528908,-10.8831835
bagnet33,1,439,NaN,chair,oven,0.35,0439_nse_dnn_0.35_oven_10_n04111531_2458.png,n04111531_2458.png,0.0,-2.8555963,6.635086,-6.710926
bagnet33,1,440,NaN,elephant,cat,0.60,0440_nse_dnn_0.60_cat_10_n02123159_2256.png,n02123159_2256.png,0.0,5.316538,9.171892,-2.7261472
bagnet33,1,441,NaN,elephant,elephant,0.03,0441_nse_dnn_0.03_elephant_10_n02504458_611.png,n02504458_611.png,1.0,7.6379843,2.8342829,3.39673
bagnet33,1,442,NaN,chair,knife,0.03,0442_nse_dnn_0.03_knife_10_n03041632_18141.png,n03041632_18141.png,0.0,3.066176,3.1950672,-0.09113986
bagnet33,1,443,NaN,elephant,bird,0.60,0443_nse_dnn_0.60_bird_10_n01843065_1871.png,n01843065_1871.png,0.0,-5.0656285,9.344435,-10.189453
bagnet33,1,444,NaN,elephant,bird,0.05,0444_nse_dnn_0.05_bird_10_n01833805_7361.png,n01833805_7361.png,0.0,1.3452152,1.3752259,-0.02122077
bagnet33,1,445,NaN,knife,elephant,0.20,0445_nse_dnn_0.20_elephant_10_n02504458_5827.png,n02504458_5827.png,0.0,1.4833477,3.259157,-1.2556868
bagnet33,1,446,NaN,chair,bicycle,0.35,0446_nse_dnn_0.35_bicycle_10_n02835271_5825.png,n02835271_5825.png,0.0,-3.3497076,5.383805,-6.175526
bagnet33,1,447,NaN,elephant,bear,0.90,0447_nse_dnn_0.90_bear_10_n02134084_12801.png,n02134084_12801.png,0.0,-12.214372,13.580872,-18.23999
bagnet33,1,448,NaN,knife,cat,0.10,0448_nse_dnn_0.10_cat_10_n02123394_3611.png,n02123394_3611.png,0.0,1.5264516,2.5813851,-0.7459507
bagnet33,1,449,NaN,chair,chair,0.35,0449_nse_dnn_0.35_chair_10_n04429376_9589.png,n04429376_9589.png,1.0,5.705943,4.9258986,0.5515748
bagnet33,1,450,NaN,chair,cat,0.35,0450_nse_dnn_0.35_cat_10_n02123394_3885.png,n02123394_3885.png,0.0,-0.46696827,5.9597664,-4.544388
bagnet33,1,451,NaN,elephant,elephant,0.90,0451_nse_dnn_0.90_elephant_10_n02504013_22633.png,n02504013_22633.png,1.0,14.927002,11.04643,2.743979
bagnet33,1,452,NaN,knife,car,0.20,0452_nse_dnn_0.20_car_10_n02814533_2271.png,n02814533_2271.png,0.0,-2.8068867,3.2687156,-4.2960997
bagnet33,1,453,NaN,airplane,truck,0.05,0453_nse_dnn_0.05_truck_10_n03417042_10150.png,n03417042_10150.png,0.0,0.33427984,3.0232165,-1.9013654
bagnet33,1,454,NaN,chair,oven,0.35,0454_nse_dnn_0.35_oven_10_n04111531_10583.png,n04111531_10583.png,0.0,-3.5888991,6.8564944,-7.3860087
bagnet33,1,455,NaN,bottle,bottle,0.03,0455_nse_dnn_0.03_bottle_10_n03937543_1602.png,n03937543_1602.png,1.0,9.18379,7.189644,1.4100745
bagnet33,1,456,NaN,clock,knife,0.03,0456_nse_dnn_0.03_knife_10_n03041632_3504.png,n03041632_3504.png,0.0,2.0158226,2.1328282,-0.08273544
bagnet33,1,457,NaN,bicycle,bicycle,0.03,0457_nse_dnn_0.03_bicycle_10_n03792782_1004.png,n03792782_1004.png,1.0,4.077204,2.3594065,1.2146665
bagnet33,1,458,NaN,knife,cat,0.05,0458_nse_dnn_0.05_cat_10_n02123394_8172.png,n02123394_8172.png,0.0,0.94876117,3.4014118,-1.7342858
bagnet33,1,459,NaN,knife,elephant,0.10,0459_nse_dnn_0.10_elephant_10_n02504013_156.png,n02504013_156.png,0.0,1.9511536,2.0717707,-0.08528912
bagnet33,1,460,NaN,chair,car,0.03,0460_nse_dnn_0.03_car_10_n04285008_5559.png,n04285008_5559.png,0.0,0.38370705,3.4362526,-2.1584756
bagnet33,1,461,NaN,chair,elephant,0.35,0461_nse_dnn_0.35_elephant_10_n02504458_6694.png,n02504458_6694.png,0.0,3.179428,6.167048,-2.1125662
bagnet33,1,462,NaN,elephant,car,0.90,0462_nse_dnn_0.90_car_10_n04285008_15003.png,n04285008_15003.png,0.0,-2.241456,13.567574,-11.178672
bagnet33,1,463,NaN,knife,chair,0.10,0463_nse_dnn_0.10_chair_10_n03376595_15723.png,n03376595_15723.png,0.0,0.4625215,2.3253007,-1.3171837
bagnet33,1,464,NaN,elephant,knife,0.60,0464_nse_dnn_0.60_knife_10_n03041632_48816.png,n03041632_48816.png,0.0,7.4987426,10.9948845,-2.4721458
bagnet33,1,465,NaN,elephant,chair,0.90,0465_nse_dnn_0.90_chair_10_n03376595_4142.png,n03376595_4142.png,0.0,4.870749,13.570086,-6.1513605
bagnet33,1,466,NaN,elephant,car,0.60,0466_nse_dnn_0.60_car_10_n04285008_2363.png,n04285008_2363.png,0.0,-3.3765182,8.690012,-8.532326
bagnet33,1,467,NaN,knife,truck,0.10,0467_nse_dnn_0.10_truck_10_n03417042_7335.png,n03417042_7335.png,0.0,-0.82104105,2.202808,-2.138184
bagnet33,1,468,NaN,chair,oven,0.00,0468_nse_dnn_0.00_oven_10_n04111531_6313.png,n04111531_6313.png,0.0,2.3342686,3.2210896,-0.62707716
bagnet33,1,469,NaN,knife,bird,0.05,0469_nse_dnn_0.05_bird_10_n02033041_6728.png,n02033041_6728.png,0.0,-0.2701047,2.5535226,-1.996606
bagnet33,1,470,NaN,chair,clock,0.00,0470_nse_dnn_0.00_clock_10_n04548280_1032.png,n04548280_1032.png,0.0,2.8238556,2.918491,-0.066917226
bagnet33,1,471,NaN,airplane,airplane,0.03,0471_nse_dnn_0.03_airplane_10_n02690373_1983.png,n02690373_1983.png,1.0,8.292324,5.134124,2.2331848
bagnet33,1,472,NaN,chair,keyboard,0.00,0472_nse_dnn_0.00_keyboard_10_n03085013_23369.png,n03085013_23369.png,0.0,1.6825551,4.7006335,-2.1341038
bagnet33,1,473,NaN,elephant,elephant,0.90,0473_nse_dnn_0.90_elephant_10_n02504458_2419.png,n02504458_2419.png,1.0,12.197599,7.7371345,3.154025
bagnet33,1,474,NaN,knife,truck,0.20,0474_nse_dnn_0.20_truck_10_n04467665_72022.png,n04467665_72022.png,0.0,-1.7050191,2.8882942,-3.247963
bagnet33,1,475,NaN,knife,bottle,0.05,0475_nse_dnn_0.05_bottle_10_n04579145_5289.png,n04579145_5289.png,0.0,0.5445394,2.9816651,-1.7233081
bagnet33,1,476,NaN,clock,clock,0.05,0476_nse_dnn_0.05_clock_10_n02708093_2898.png,n02708093_2898.png,1.0,8.43146,2.723686,4.036006
bagnet33,1,477,NaN,knife,dog,0.20,0477_nse_dnn_0.20_dog_10_n02101556_4066.png,n02101556_4066.png,0.0,-0.6784733,3.2163048,-2.754024
bagnet33,1,478,NaN,elephant,car,0.90,0478_nse_dnn_0.90_car_10_n04285008_17052.png,n04285008_17052.png,0.0,-1.8474325,13.685291,-10.9832945
bagnet33,1,479,NaN,elephant,truck,0.90,0479_nse_dnn_0.90_truck_10_n04467665_37811.png,n04467665_37811.png,0.0,2.430026,12.466894,-7.0971375
bagnet33,1,480,NaN,knife,keyboard,0.20,0480_nse_dnn_0.20_keyboard_10_n04505470_578.png,n04505470_578.png,0.0,-2.1834376,3.2361484,-3.8322263
bagnet33,1,481,NaN,knife,cat,0.10,0481_nse_dnn_0.10_cat_10_n02123045_2721.png,n02123045_2721.png,0.0,1.1103128,2.3979914,-0.9105263
bagnet33,1,482,NaN,knife,car,0.10,0482_nse_dnn_0.10_car_10_n04285008_7776.png,n04285008_7776.png,0.0,-0.87341595,2.092399,-2.0971477
bagnet33,1,483,NaN,elephant,bottle,0.90,0483_nse_dnn_0.90_bottle_10_n04591713_2014.png,n04591713_2014.png,0.0,-3.3372455,13.7921295,-12.112298
bagnet33,1,484,NaN,knife,bottle,0.10,0484_nse_dnn_0.10_bottle_10_n03983396_9662.png,n03983396_9662.png,0.0,0.96590436,2.19568,-0.86958265
bagnet33,1,485,NaN,chair,bicycle,0.35,0485_nse_dnn_0.35_bicycle_10_n03792782_10367.png,n03792782_10367.png,0.0,-3.6123943,5.2551055,-6.27027
bagnet33,1,486,NaN,elephant,keyboard,0.60,0486_nse_dnn_0.60_keyboard_10_n03085013_22942.png,n03085013_22942.png,0.0,-7.2090797,8.668819,-11.22737
bagnet33,1,487,NaN,cat,cat,0.00,0487_nse_dnn_0.00_cat_10_n02123597_3896.png,n02123597_3896.png,1.0,1.4816586,1.3889415,0.065560855
bagnet33,1,488,NaN,bicycle,bicycle,0.03,0488_nse_dnn_0.03_bicycle_10_n03792782_2649.png,n03792782_2649.png,1.0,4.0637126,2.1193593,1.3748654
bagnet33,1,489,NaN,knife,bear,0.10,0489_nse_dnn_0.10_bear_10_n02133161_2476.png,n02133161_2476.png,0.0,0.89455646,2.3455777,-1.026027
bagnet33,1,490,NaN,knife,car,0.10,0490_nse_dnn_0.10_car_10_n04285008_7249.png,n04285008_7249.png,0.0,-1.6848497,2.0585413,-2.6469772
bagnet33,1,491,NaN,knife,chair,0.20,0491_nse_dnn_0.20_chair_10_n04099969_8604.png,n04099969_8604.png,0.0,2.2962656,3.740345,-1.0211184
bagnet33,1,492,NaN,knife,bicycle,0.05,0492_nse_dnn_0.05_bicycle_10_n02835271_5963.png,n02835271_5963.png,0.0,0.20240608,1.322459,-0.791997
bagnet33,1,493,NaN,elephant,airplane,0.90,0493_nse_dnn_0.90_airplane_10_n02690373_17011.png,n02690373_17011.png,0.0,-4.1922674,14.415858,-13.157932
bagnet33,1,494,NaN,elephant,bird,0.90,0494_nse_dnn_0.90_bird_10_n02028035_889.png,n02028035_889.png,0.0,-5.089069,12.341221,-12.325077
bagnet33,1,495,NaN,elephant,cat,0.60,0495_nse_dnn_0.60_cat_10_n02123159_7949.png,n02123159_7949.png,0.0,3.7095244,9.100561,-3.812039
bagnet33,1,496,NaN,truck,car,0.03,0496_nse_dnn_0.03_car_10_n03100240_15686.png,n03100240_15686.png,0.0,5.252453,8.341242,-2.1841037
bagnet33,1,497,NaN,chair,cat,0.35,0497_nse_dnn_0.35_cat_10_n02123159_6106.png,n02123159_6106.png,0.0,0.58463556,6.3641286,-4.0867186
bagnet33,1,498,NaN,knife,cat,0.00,0498_nse_dnn_0.00_cat_10_n02123394_7105.png,n02123394_7105.png,0.0,0.3925359,2.7931275,-1.6974746
bagnet33,1,499,NaN,chair,clock,0.35,0499_nse_dnn_0.35_clock_10_n04548280_4747.png,n04548280_4747.png,0.0,-3.8427427,6.097249,-7.028636
bagnet33,1,500,NaN,knife,elephant,0.20,0500_nse_dnn_0.20_elephant_10_n02504458_975.png,n02504458_975.png,0.0,1.2916856,3.0399413,-1.2362036
bagnet33,1,501,NaN,knife,boat,0.20,0501_nse_dnn_0.20_boat_10_n03344393_11590.png,n03344393_11590.png,0.0,0.16254415,3.960429,-2.6855102
bagnet33,1,502,NaN,elephant,airplane,0.90,0502_nse_dnn_0.90_airplane_10_n02690373_2026.png,n02690373_2026.png,0.0,-4.398761,15.722213,-14.227677
bagnet33,1,503,NaN,elephant,clock,0.60,0503_nse_dnn_0.60_clock_10_n03196217_2346.png,n03196217_2346.png,0.0,-11.912868,11.532396,-16.578304
bagnet33,1,504,NaN,elephant,truck,0.60,0504_nse_dnn_0.60_truck_10_n04467665_34932.png,n04467665_34932.png,0.0,0.45886695,8.825827,-5.916334
bagnet33,1,505,NaN,chair,oven,0.35,0505_nse_dnn_0.35_oven_10_n04111531_13625.png,n04111531_13625.png,0.0,-3.0835922,5.678398,-6.195663
bagnet33,1,506,NaN,airplane,airplane,0.00,0506_nse_dnn_0.00_airplane_10_n02690373_8666.png,n02690373_8666.png,1.0,6.171523,4.189785,1.4013004
bagnet33,1,507,NaN,chair,oven,0.35,0507_nse_dnn_0.35_oven_10_n04111531_4148.png,n04111531_4148.png,0.0,-3.6785307,6.5742455,-7.249808
bagnet33,1,508,NaN,dog,dog,0.00,0508_nse_dnn_0.00_dog_10_n02107683_7021.png,n02107683_7021.png,1.0,2.1981816,1.637352,0.39656645
bagnet33,1,509,NaN,knife,bird,0.05,0509_nse_dnn_0.05_bird_10_n02025239_22440.png,n02025239_22440.png,0.0,1.7150412,2.948462,-0.87216026
bagnet33,1,510,NaN,elephant,elephant,0.90,0510_nse_dnn_0.90_elephant_10_n02504013_7032.png,n02504013_7032.png,1.0,12.424527,8.089025,3.0656633
bagnet33,1,511,NaN,elephant,truck,0.90,0511_nse_dnn_0.90_truck_10_n03417042_10788.png,n03417042_10788.png,0.0,2.1486993,12.80682,-7.53643
bagnet33,1,512,NaN,knife,knife,0.05,0512_nse_dnn_0.05_knife_10_n03041632_86118.png,n03041632_86118.png,1.0,2.9006472,1.0124328,1.3351692
bagnet33,1,513,NaN,bottle,bottle,0.00,0513_nse_dnn_0.00_bottle_10_n04557648_9790.png,n04557648_9790.png,1.0,3.534837,2.7049503,0.5868185
bagnet33,1,514,NaN,elephant,chair,0.90,0514_nse_dnn_0.90_chair_10_n02791124_8788.png,n02791124_8788.png,0.0,4.0126743,11.148041,-5.045466
bagnet33,1,515,NaN,knife,dog,0.03,0515_nse_dnn_0.03_dog_10_n02095314_4996.png,n02095314_4996.png,0.0,0.18186693,2.8144245,-1.8614994
bagnet33,1,516,NaN,knife,keyboard,0.20,0516_nse_dnn_0.20_keyboard_10_n04505470_4679.png,n04505470_4679.png,0.0,-1.7009157,2.9071658,-3.2584057
bagnet33,1,517,NaN,knife,bird,0.03,0517_nse_dnn_0.03_bird_10_n01860187_24935.png,n01860187_24935.png,0.0,-0.9550568,3.24944,-2.9730282
bagnet33,1,518,NaN,elephant,bicycle,0.60,0518_nse_dnn_0.60_bicycle_10_n02835271_14123.png,n02835271_14123.png,0.0,-5.675305,9.2971115,-10.587097
bagnet33,1,519,NaN,knife,boat,0.10,0519_nse_dnn_0.10_boat_10_n03344393_7075.png,n03344393_7075.png,0.0,1.6796668,1.8189031,-0.09845495
bagnet33,1,520,NaN,knife,knife,0.03,0520_nse_dnn_0.03_knife_10_n03041632_13130.png,n03041632_13130.png,1.0,4.898636,2.2854893,1.8477737
bagnet33,1,521,NaN,knife,bottle,0.20,0521_nse_dnn_0.20_bottle_10_n04591713_5569.png,n04591713_5569.png,0.0,0.5149961,2.8516188,-1.6522418
bagnet33,1,522,NaN,knife,elephant,0.05,0522_nse_dnn_0.05_elephant_10_n02504013_19753.png,n02504013_19753.png,0.0,-0.09789613,2.8288736,-2.0695388
bagnet33,1,523,NaN,elephant,dog,0.60,0523_nse_dnn_0.60_dog_10_n02099849_4819.png,n02099849_4819.png,0.0,-1.3236312,8.486753,-6.93699
bagnet33,1,524,NaN,elephant,elephant,0.90,0524_nse_dnn_0.90_elephant_10_n02504458_12938.png,n02504458_12938.png,1.0,14.673643,9.163251,3.8964357
bagnet33,1,525,NaN,bottle,bottle,0.03,0525_nse_dnn_0.03_bottle_10_n02823428_901.png,n02823428_901.png,1.0,5.6936865,4.5551295,0.80508137
bagnet33,1,526,NaN,airplane,bicycle,0.00,0526_nse_dnn_0.00_bicycle_10_n03792782_2024.png,n03792782_2024.png,0.0,0.96783847,5.825456,-3.4348545
bagnet33,1,527,NaN,airplane,truck,0.05,0527_nse_dnn_0.05_truck_10_n03417042_24856.png,n03417042_24856.png,0.0,0.8833578,3.0612164,-1.5399786
bagnet33,1,528,NaN,elephant,elephant,0.00,0528_nse_dnn_0.00_elephant_10_n02504013_19694.png,n02504013_19694.png,1.0,8.445522,2.0487077,4.523231
bagnet33,1,529,NaN,knife,bird,0.20,0529_nse_dnn_0.20_bird_10_n01530575_10119.png,n01530575_10119.png,0.0,-1.9501221,2.9992673,-3.4997468
bagnet33,1,530,NaN,knife,bottle,0.20,0530_nse_dnn_0.20_bottle_10_n04557648_954.png,n04557648_954.png,0.0,0.4529368,2.9429622,-1.7607138
bagnet33,1,531,NaN,elephant,cat,0.90,0531_nse_dnn_0.90_cat_10_n02123159_277.png,n02123159_277.png,0.0,8.562935,11.908947,-2.365988
bagnet33,1,532,NaN,knife,knife,0.00,0532_nse_dnn_0.00_knife_10_n03041632_289.png,n03041632_289.png,1.0,3.6841063,2.5175068,0.82491046
bagnet33,1,533,NaN,chair,truck,0.35,0533_nse_dnn_0.35_truck_10_n04467665_450.png,n04467665_450.png,0.0,-1.8664078,6.1016088,-5.6342387
bagnet33,1,534,NaN,knife,knife,0.00,0534_nse_dnn_0.00_knife_10_n03041632_1607.png,n03041632_1607.png,1.0,4.6376076,3.142808,1.056983
bagnet33,1,535,NaN,knife,bird,0.20,0535_nse_dnn_0.20_bird_10_n01532829_4692.png,n01532829_4692.png,0.0,-1.871734,3.210394,-3.5936072
bagnet33,1,536,NaN,elephant,dog,0.10,0536_nse_dnn_0.10_dog_10_n02102177_4771.png,n02102177_4771.png,0.0,-0.46711475,3.260813,-2.636043
bagnet33,1,537,NaN,knife,car,0.10,0537_nse_dnn_0.10_car_10_n04285008_14554.png,n04285008_14554.png,0.0,-0.871243,2.22167,-2.1870198
bagnet33,1,538,NaN,clock,clock,0.00,0538_nse_dnn_0.00_clock_10_n04548280_3716.png,n04548280_3716.png,1.0,3.7121763,3.004311,0.5005363
bagnet33,1,539,NaN,truck,car,0.03,0539_nse_dnn_0.03_car_10_n04285008_6849.png,n04285008_6849.png,0.0,5.735712,6.8802047,-0.8092785
bagnet33,1,540,NaN,chair,keyboard,0.35,0540_nse_dnn_0.35_keyboard_10_n03085013_24467.png,n03085013_24467.png,0.0,-2.645177,6.6212873,-6.5523796
bagnet33,1,541,NaN,chair,clock,0.35,0541_nse_dnn_0.35_clock_10_n03196217_6672.png,n03196217_6672.png,0.0,-3.4944627,6.7303214,-7.2300143
bagnet33,1,542,NaN,knife,dog,0.10,0542_nse_dnn_0.10_dog_10_n02105251_5570.png,n02105251_5570.png,0.0,-0.3323105,2.5045178,-2.0059404
bagnet33,1,543,NaN,chair,dog,0.35,0543_nse_dnn_0.35_dog_10_n02107574_3352.png,n02107574_3352.png,0.0,-0.93237454,5.14489,-4.297275
bagnet33,1,544,NaN,elephant,boat,0.60,0544_nse_dnn_0.60_boat_10_n03662601_8191.png,n03662601_8191.png,0.0,-8.833901,9.917334,-13.259127
bagnet33,1,545,NaN,airplane,boat,0.00,0545_nse_dnn_0.00_boat_10_n04612504_30617.png,n04612504_30617.png,0.0,5.4001365,6.737241,-0.9454755
bagnet33,1,546,NaN,elephant,bear,0.60,0546_nse_dnn_0.60_bear_10_n02132136_2900.png,n02132136_2900.png,0.0,-8.398127,8.502161,-11.950308
bagnet33,1,547,NaN,knife,truck,0.10,0547_nse_dnn_0.10_truck_10_n03417042_8139.png,n03417042_8139.png,0.0,-0.8473578,2.9805994,-2.7067745
bagnet33,1,548,NaN,knife,chair,0.03,0548_nse_dnn_0.03_chair_10_n03376595_5112.png,n03376595_5112.png,0.0,2.5339935,3.4062257,-0.6167613
bagnet33,1,549,NaN,knife,bird,0.05,0549_nse_dnn_0.05_bird_10_n02006656_10360.png,n02006656_10360.png,0.0,-0.8835707,2.7705019,-2.5838194
bagnet33,1,550,NaN,knife,elephant,0.20,0550_nse_dnn_0.20_elephant_10_n02504458_2799.png,n02504458_2799.png,0.0,0.0014379025,2.8455174,-2.0110679
bagnet33,1,551,NaN,airplane,airplane,0.10,0551_nse_dnn_0.10_airplane_10_n02690373_6096.png,n02690373_6096.png,1.0,3.2240589,2.649057,0.40658778
bagnet33,1,552,NaN,knife,bird,0.20,0552_nse_dnn_0.20_bird_10_n02002556_139.png,n02002556_139.png,0.0,-1.7381,2.8172038,-3.221086
bagnet33,1,553,NaN,airplane,car,0.00,0553_nse_dnn_0.00_car_10_n04285008_3056.png,n04285008_3056.png,0.0,3.9554627,7.7006354,-2.648237
bagnet33,1,554,NaN,knife,knife,0.10,0554_nse_dnn_0.10_knife_10_n03041632_14774.png,n03041632_14774.png,1.0,1.9255271,1.5421454,0.27109182
bagnet33,1,555,NaN,knife,oven,0.20,0555_nse_dnn_0.20_oven_10_n04111531_2163.png,n04111531_2163.png,0.0,-0.9580734,2.698967,-2.5859182
bagnet33,1,556,NaN,knife,cat,0.20,0556_nse_dnn_0.20_cat_10_n02123597_30864.png,n02123597_30864.png,0.0,0.7029689,2.974265,-1.6060491
bagnet33,1,557,NaN,chair,boat,0.35,0557_nse_dnn_0.35_boat_10_n02951358_33559.png,n02951358_33559.png,0.0,-3.843351,5.321077,-6.480229
bagnet33,1,558,NaN,elephant,bicycle,0.60,0558_nse_dnn_0.60_bicycle_10_n02835271_4619.png,n02835271_4619.png,0.0,-5.6542606,10.109851,-11.146911
bagnet33,1,559,NaN,truck,truck,0.03,0559_nse_dnn_0.03_truck_10_n03796401_21261.png,n03796401_21261.png,1.0,3.8789496,3.8454113,0.023715189
bagnet33,1,560,NaN,knife,airplane,0.10,0560_nse_dnn_0.10_airplane_10_n02690373_2496.png,n02690373_2496.png,0.0,0.86289716,2.2931824,-1.0113643
bagnet33,1,561,NaN,chair,boat,0.35,0561_nse_dnn_0.35_boat_10_n03662601_5419.png,n03662601_5419.png,0.0,-3.705848,5.759914,-6.6933045
bagnet33,1,562,NaN,airplane,airplane,0.03,0562_nse_dnn_0.03_airplane_10_n02690373_7686.png,n02690373_7686.png,1.0,8.282742,3.8696587,3.120521
bagnet33,1,563,NaN,elephant,oven,0.90,0563_nse_dnn_0.90_oven_10_n04111531_5246.png,n04111531_5246.png,0.0,-2.3325825,13.373208,-11.105671
bagnet33,1,564,NaN,elephant,bicycle,0.60,0564_nse_dnn_0.60_bicycle_10_n03792782_1099.png,n03792782_1099.png,0.0,-6.1508827,9.539661,-11.094891
bagnet33,1,565,NaN,chair,chair,0.35,0565_nse_dnn_0.35_chair_10_n04099969_12909.png,n04099969_12909.png,1.0,6.388089,4.510438,1.3276999
bagnet33,1,566,NaN,knife,elephant,0.03,0566_nse_dnn_0.03_elephant_10_n02504013_7147.png,n02504013_7147.png,0.0,1.0064948,1.9801639,-0.68848807
bagnet33,1,567,NaN,chair,truck,0.35,0567_nse_dnn_0.35_truck_10_n04467665_44715.png,n04467665_44715.png,0.0,-1.3255231,6.042553,-5.2100167
bagnet33,1,568,NaN,keyboard,keyboard,0.00,0568_nse_dnn_0.00_keyboard_10_n04505470_1338.png,n04505470_1338.png,1.0,10.868024,6.933952,2.781809
bagnet33,1,569,NaN,elephant,airplane,0.90,0569_nse_dnn_0.90_airplane_10_n02690373_4982.png,n02690373_4982.png,0.0,-5.0077076,13.724978,-13.246009
bagnet33,1,570,NaN,elephant,bicycle,0.90,0570_nse_dnn_0.90_bicycle_10_n03792782_3754.png,n03792782_3754.png,0.0,-6.273432,13.43128,-13.933335
bagnet33,1,571,NaN,chair,bicycle,0.00,0571_nse_dnn_0.00_bicycle_10_n03792782_1418.png,n03792782_1418.png,0.0,1.1031215,2.3056579,-0.8503216
bagnet33,1,572,NaN,truck,truck,0.03,0572_nse_dnn_0.03_truck_10_n03796401_26359.png,n03796401_26359.png,1.0,5.8618946,4.554965,0.9241388
bagnet33,1,573,NaN,airplane,car,0.05,0573_nse_dnn_0.05_car_10_n03100240_9149.png,n03100240_9149.png,0.0,0.5816643,3.491145,-2.0573134
bagnet33,1,574,NaN,elephant,bird,0.90,0574_nse_dnn_0.90_bird_10_n01534433_14677.png,n01534433_14677.png,0.0,-4.7257175,13.90905,-13.176771
bagnet33,1,575,NaN,airplane,car,0.03,0575_nse_dnn_0.03_car_10_n03100240_8683.png,n03100240_8683.png,0.0,5.5748916,6.743018,-0.82599026
bagnet33,1,576,NaN,chair,chair,0.03,0576_nse_dnn_0.03_chair_10_n03376595_524.png,n03376595_524.png,1.0,5.1084146,4.9914203,0.08272752
bagnet33,1,577,NaN,knife,dog,0.20,0577_nse_dnn_0.20_dog_10_n02094433_6402.png,n02094433_6402.png,0.0,-1.0711143,3.3842196,-3.1503968
bagnet33,1,578,NaN,knife,car,0.20,0578_nse_dnn_0.20_car_10_n03100240_16803.png,n03100240_16803.png,0.0,-2.3703413,2.9671018,-3.7741425
bagnet33,1,579,NaN,knife,bicycle,0.20,0579_nse_dnn_0.20_bicycle_10_n03792782_15114.png,n03792782_15114.png,0.0,-1.7131381,2.933681,-3.2857974
bagnet33,1,580,NaN,elephant,chair,0.60,0580_nse_dnn_0.60_chair_10_n04429376_21362.png,n04429376_21362.png,0.0,7.7153287,10.506854,-1.9739065
bagnet33,1,581,NaN,elephant,keyboard,0.90,0581_nse_dnn_0.90_keyboard_10_n04505470_3499.png,n04505470_3499.png,0.0,-10.303367,13.461007,-16.80395
bagnet33,1,582,NaN,elephant,boat,0.90,0582_nse_dnn_0.90_boat_10_n04273569_26577.png,n04273569_26577.png,0.0,-12.117807,13.47706,-18.098305
bagnet33,1,583,NaN,knife,boat,0.10,0583_nse_dnn_0.10_boat_10_n04273569_27325.png,n04273569_27325.png,0.0,1.9264648,2.3958406,-0.33189884
bagnet33,1,584,NaN,elephant,keyboard,0.20,0584_nse_dnn_0.20_keyboard_10_n04505470_9570.png,n04505470_9570.png,0.0,-2.590947,4.1029606,-4.733308
bagnet33,1,585,NaN,elephant,bicycle,0.90,0585_nse_dnn_0.90_bicycle_10_n03792782_4067.png,n03792782_4067.png,0.0,-7.14692,14.9976425,-15.65857
bagnet33,1,586,NaN,knife,bear,0.10,0586_nse_dnn_0.10_bear_10_n02132136_282.png,n02132136_282.png,0.0,0.10820198,2.5616336,-1.7348381
bagnet33,1,587,NaN,knife,boat,0.03,0587_nse_dnn_0.03_boat_10_n04612504_30424.png,n04612504_30424.png,0.0,2.162699,4.11682,-1.3817722
bagnet33,1,588,NaN,elephant,knife,0.90,0588_nse_dnn_0.90_knife_10_n03041632_4879.png,n03041632_4879.png,0.0,8.065371,13.474949,-3.8251495
bagnet33,1,589,NaN,knife,elephant,0.05,0589_nse_dnn_0.05_elephant_10_n02504458_7634.png,n02504458_7634.png,0.0,1.0840803,2.5324192,-1.0241302
bagnet33,1,590,NaN,chair,cat,0.35,0590_nse_dnn_0.35_cat_10_n02123597_7615.png,n02123597_7615.png,0.0,-0.12874638,5.6950645,-4.1180563
bagnet33,1,591,NaN,chair,bicycle,0.35,0591_nse_dnn_0.35_bicycle_10_n03792782_20387.png,n03792782_20387.png,0.0,-3.6346052,6.0489717,-6.847323
bagnet33,1,592,NaN,airplane,clock,0.10,0592_nse_dnn_0.10_clock_10_n02708093_527.png,n02708093_527.png,0.0,3.3355963,3.5246115,-0.1336539
bagnet33,1,593,NaN,knife,elephant,0.05,0593_nse_dnn_0.05_elephant_10_n02504013_5501.png,n02504013_5501.png,0.0,0.3524938,3.5283246,-2.2456515
bagnet33,1,594,NaN,chair,dog,0.35,0594_nse_dnn_0.35_dog_10_n02106166_2273.png,n02106166_2273.png,0.0,-0.9427353,5.005831,-4.206271
bagnet33,1,595,NaN,knife,boat,0.03,0595_nse_dnn_0.03_boat_10_n03662601_34009.png,n03662601_34009.png,0.0,1.7618603,3.2958343,-1.0846834
bagnet33,1,596,NaN,chair,boat,0.35,0596_nse_dnn_0.35_boat_10_n04273569_12536.png,n04273569_12536.png,0.0,-3.4388154,5.920328,-6.6179137
bagnet33,1,597,NaN,elephant,elephant,0.00,0597_nse_dnn_0.00_elephant_10_n02504013_8534.png,n02504013_8534.png,1.0,4.9886875,3.88455,0.78074306
bagnet33,1,598,NaN,chair,clock,0.35,0598_nse_dnn_0.35_clock_10_n04548280_156.png,n04548280_156.png,0.0,-2.678129,4.4676375,-5.0528197
bagnet33,1,599,NaN,elephant,bicycle,0.90,0599_nse_dnn_0.90_bicycle_10_n02835271_542.png,n02835271_542.png,0.0,-6.2901998,12.239255,-13.1023035
bagnet33,1,600,NaN,chair,bear,0.00,0600_nse_dnn_0.00_bear_10_n02133161_5434.png,n02133161_5434.png,0.0,-2.0420666,4.533515,-4.649638
bagnet33,1,601,NaN,elephant,truck,0.60,0601_nse_dnn_0.60_truck_10_n04467665_63829.png,n04467665_63829.png,0.0,0.359946,10.106356,-6.8917522
bagnet33,1,602,NaN,elephant,oven,0.90,0602_nse_dnn_0.90_oven_10_n04111531_10220.png,n04111531_10220.png,0.0,-2.186338,12.911795,-10.675992
bagnet33,1,603,NaN,elephant,boat,0.60,0603_nse_dnn_0.60_boat_10_n04273569_28074.png,n04273569_28074.png,0.0,-10.008112,11.003056,-14.85714
bagnet33,1,604,NaN,bottle,cat,0.00,0604_nse_dnn_0.00_cat_10_n02123394_2482.png,n02123394_2482.png,0.0,0.33913746,3.0280702,-1.9013625
bagnet33,1,605,NaN,elephant,boat,0.90,0605_nse_dnn_0.90_boat_10_n03662601_20381.png,n03662601_20381.png,0.0,-13.951296,14.019203,-19.77813
bagnet33,1,606,NaN,chair,bird,0.35,0606_nse_dnn_0.35_bird_10_n01817953_12511.png,n01817953_12511.png,0.0,-3.751416,6.491399,-7.242764
bagnet33,1,607,NaN,cat,cat,0.05,0607_nse_dnn_0.05_cat_10_n02125311_5346.png,n02125311_5346.png,1.0,2.130213,1.9448817,0.13104905
bagnet33,1,608,NaN,chair,oven,0.00,0608_nse_dnn_0.00_oven_10_n04111531_14758.png,n04111531_14758.png,0.0,-0.8500174,3.8470201,-3.3213072
bagnet33,1,609,NaN,knife,bird,0.10,0609_nse_dnn_0.10_bird_10_n02002556_1398.png,n02002556_1398.png,0.0,-0.7227629,2.5977185,-2.347935
bagnet33,1,610,NaN,knife,knife,0.05,0610_nse_dnn_0.05_knife_10_n03041632_99912.png,n03041632_99912.png,1.0,2.4960988,1.5238744,0.68746644
bagnet33,1,611,NaN,airplane,airplane,0.05,0611_nse_dnn_0.05_airplane_10_n02690373_1075.png,n02690373_1075.png,1.0,6.1155415,3.3907852,1.9266937
bagnet33,1,612,NaN,chair,cat,0.35,0612_nse_dnn_0.35_cat_10_n02123045_10834.png,n02123045_10834.png,0.0,0.4172772,5.832811,-3.8293605
bagnet33,1,613,NaN,elephant,car,0.60,0613_nse_dnn_0.60_car_10_n02814533_41478.png,n02814533_41478.png,0.0,-3.6659718,9.93498,-9.617326
bagnet33,1,614,NaN,cat,cat,0.00,0614_nse_dnn_0.00_cat_10_n02123394_1602.png,n02123394_1602.png,1.0,4.2465606,3.4911778,0.5341363
bagnet33,1,615,NaN,knife,knife,0.03,0615_nse_dnn_0.03_knife_10_n03041632_21017.png,n03041632_21017.png,1.0,3.2508826,2.3052762,0.6686448
bagnet33,1,616,NaN,knife,bear,0.03,0616_nse_dnn_0.03_bear_10_n02134084_572.png,n02134084_572.png,0.0,-0.5073803,1.9418671,-1.7318795
bagnet33,1,617,NaN,keyboard,clock,0.05,0617_nse_dnn_0.05_clock_10_n03196217_3987.png,n03196217_3987.png,0.0,3.4966068,6.874179,-2.3883042
bagnet33,1,618,NaN,dog,dog,0.03,0618_nse_dnn_0.03_dog_10_n02098286_6303.png,n02098286_6303.png,1.0,1.3850025,1.3216991,0.04476223
bagnet33,1,619,NaN,airplane,keyboard,0.00,0619_nse_dnn_0.00_keyboard_10_n04505470_4379.png,n04505470_4379.png,0.0,5.225398,8.3555565,-2.2133563
bagnet33,1,620,NaN,knife,boat,0.05,0620_nse_dnn_0.05_boat_10_n04273569_15138.png,n04273569_15138.png,0.0,1.9230111,2.8733745,-0.6720084
bagnet33,1,621,NaN,elephant,airplane,0.90,0621_nse_dnn_0.90_airplane_10_n02690373_18234.png,n02690373_18234.png,0.0,-3.5457845,14.473426,-12.741507
bagnet33,1,622,NaN,elephant,clock,0.90,0622_nse_dnn_0.90_clock_10_n03196217_2179.png,n03196217_2179.png,0.0,-14.510281,12.044371,-18.776974
bagnet33,1,623,NaN,bottle,bottle,0.03,0623_nse_dnn_0.03_bottle_10_n04579145_6860.png,n04579145_6860.png,1.0,4.5927196,2.3070016,1.6162467
bagnet33,1,624,NaN,chair,car,0.35,0624_nse_dnn_0.35_car_10_n02814533_81455.png,n02814533_81455.png,0.0,-4.200836,6.232503,-7.377485
bagnet33,1,625,NaN,truck,car,0.03,0625_nse_dnn_0.03_car_10_n04285008_6278.png,n04285008_6278.png,0.0,6.5421205,6.8390927,-0.20999111
bagnet33,1,626,NaN,airplane,truck,0.05,0626_nse_dnn_0.05_truck_10_n04467665_3612.png,n04467665_3612.png,0.0,4.230661,4.9120007,-0.48177996
bagnet33,1,627,NaN,knife,bottle,0.10,0627_nse_dnn_0.10_bottle_10_n03983396_10251.png,n03983396_10251.png,0.0,-0.00042944294,2.8159556,-1.991485
bagnet33,1,628,NaN,elephant,dog,0.60,0628_nse_dnn_0.60_dog_10_n02086646_6407.png,n02086646_6407.png,0.0,-1.1604592,11.152755,-8.706758
bagnet33,1,629,NaN,chair,oven,0.35,0629_nse_dnn_0.35_oven_10_n04111531_21404.png,n04111531_21404.png,0.0,-3.4652207,7.5314426,-7.775815
bagnet33,1,630,NaN,knife,bottle,0.05,0630_nse_dnn_0.05_bottle_10_n03983396_3185.png,n03983396_3185.png,0.0,1.5052693,3.8103614,-1.6299462
bagnet33,1,631,NaN,knife,elephant,0.05,0631_nse_dnn_0.05_elephant_10_n02504013_13766.png,n02504013_13766.png,0.0,-0.92217535,2.6519065,-2.5272577
bagnet33,1,632,NaN,knife,bird,0.05,0632_nse_dnn_0.05_bird_10_n01514859_10633.png,n01514859_10633.png,0.0,0.65490776,1.7881572,-0.8013284
bagnet33,1,633,NaN,elephant,chair,0.05,0633_nse_dnn_0.05_chair_10_n03376595_2351.png,n03376595_2351.png,0.0,1.3332691,2.298171,-0.6822887
bagnet33,1,634,NaN,airplane,bird,0.00,0634_nse_dnn_0.00_bird_10_n02009912_31837.png,n02009912_31837.png,0.0,1.256792,3.4259489,-1.5338256
bagnet33,1,635,NaN,elephant,dog,0.90,0635_nse_dnn_0.90_dog_10_n02110958_8971.png,n02110958_8971.png,0.0,-0.8198791,14.549494,-10.867788
bagnet33,1,636,NaN,knife,dog,0.20,0636_nse_dnn_0.20_dog_10_n02113799_3680.png,n02113799_3680.png,0.0,-0.9364858,3.111651,-2.862465
bagnet33,1,637,NaN,chair,airplane,0.35,0637_nse_dnn_0.35_airplane_10_n02690373_6491.png,n02690373_6491.png,0.0,-4.0386925,5.7970834,-6.9549437
bagnet33,1,638,NaN,knife,clock,0.60,0638_nse_dnn_0.60_clock_10_n04548280_1438.png,n04548280_1438.png,0.0,-11.006328,8.118149,-13.523047
bagnet33,1,639,NaN,airplane,airplane,0.05,0639_nse_dnn_0.05_airplane_10_n02690373_2981.png,n02690373_2981.png,1.0,5.401254,2.3404334,2.1643271
bagnet33,1,640,NaN,truck,car,0.03,0640_nse_dnn_0.03_car_10_n04285008_7155.png,n04285008_7155.png,0.0,0.4049376,2.3872943,-1.4017378
bagnet33,1,641,NaN,knife,chair,0.20,0641_nse_dnn_0.20_chair_10_n03376595_5909.png,n03376595_5909.png,0.0,1.7606622,2.9427962,-0.835895
bagnet33,1,642,NaN,knife,elephant,0.60,0642_nse_dnn_0.60_elephant_10_n02504013_5876.png,n02504013_5876.png,0.0,7.244878,8.109877,-0.61164653
bagnet33,1,643,NaN,cat,cat,0.00,0643_nse_dnn_0.00_cat_10_n02125311_25104.png,n02125311_25104.png,1.0,4.7905583,2.350111,1.7256569
bagnet33,1,644,NaN,elephant,dog,0.90,0644_nse_dnn_0.90_dog_10_n02111277_11664.png,n02111277_11664.png,0.0,-1.4031314,14.33715,-11.130059
bagnet33,1,645,NaN,chair,airplane,0.35,0645_nse_dnn_0.35_airplane_10_n02690373_2185.png,n02690373_2185.png,0.0,-4.0460596,4.777194,-6.2389827
bagnet33,1,646,NaN,elephant,bird,0.05,0646_nse_dnn_0.05_bird_10_n02017213_7721.png,n02017213_7721.png,0.0,-0.27799723,1.3561707,-1.1555313
bagnet33,1,647,NaN,airplane,boat,0.05,0647_nse_dnn_0.05_boat_10_n03662601_25577.png,n03662601_25577.png,0.0,1.5364504,3.2651854,-1.2224002
bagnet33,1,648,NaN,knife,elephant,0.03,0648_nse_dnn_0.03_elephant_10_n02504013_8028.png,n02504013_8028.png,0.0,0.5869062,2.1738052,-1.1221071
bagnet33,1,649,NaN,elephant,airplane,0.60,0649_nse_dnn_0.60_airplane_10_n02690373_6665.png,n02690373_6665.png,0.0,-4.932719,10.239412,-10.728317
bagnet33,1,650,NaN,elephant,bird,0.60,0650_nse_dnn_0.60_bird_10_n02011460_2611.png,n02011460_2611.png,0.0,-4.4679146,9.438453,-9.833287
bagnet33,1,651,NaN,knife,knife,0.10,0651_nse_dnn_0.10_knife_10_n03041632_90407.png,n03041632_90407.png,1.0,2.619614,2.2106771,0.28916195
bagnet33,1,652,NaN,airplane,airplane,0.03,0652_nse_dnn_0.03_airplane_10_n02690373_10817.png,n02690373_10817.png,1.0,7.2253323,3.2082608,2.8404987
bagnet33,1,653,NaN,chair,bird,0.00,0653_nse_dnn_0.00_bird_10_n02051845_15350.png,n02051845_15350.png,0.0,-0.045850035,3.407206,-2.4416795
bagnet33,1,654,NaN,elephant,knife,0.60,0654_nse_dnn_0.60_knife_10_n03041632_4269.png,n03041632_4269.png,0.0,6.8796372,10.971697,-2.8935232
bagnet33,1,655,NaN,bottle,bottle,0.03,0655_nse_dnn_0.03_bottle_10_n04560804_11426.png,n04560804_11426.png,1.0,4.991916,3.5689664,1.0061774
bagnet33,1,656,NaN,knife,bicycle,0.20,0656_nse_dnn_0.20_bicycle_10_n03792782_7050.png,n03792782_7050.png,0.0,-1.201885,3.065752,-3.0176754
bagnet33,1,657,NaN,elephant,elephant,0.05,0657_nse_dnn_0.05_elephant_10_n02504013_9144.png,n02504013_9144.png,1.0,3.4776406,2.036572,1.0189894
bagnet33,1,658,NaN,elephant,bear,0.90,0658_nse_dnn_0.90_bear_10_n02134418_5630.png,n02134418_5630.png,0.0,-13.537335,12.5894985,-18.474463
bagnet33,1,659,NaN,cat,bear,0.00,0659_nse_dnn_0.00_bear_10_n02133161_16147.png,n02133161_16147.png,0.0,1.4710486,1.7628587,-0.20634094
bagnet33,1,660,NaN,truck,keyboard,0.05,0660_nse_dnn_0.05_keyboard_10_n03085013_6857.png,n03085013_6857.png,0.0,4.6638236,5.5113025,-0.59925807
bagnet33,1,661,NaN,elephant,car,0.90,0661_nse_dnn_0.90_car_10_n02814533_72079.png,n02814533_72079.png,0.0,-2.461218,12.75469,-10.759272
bagnet33,1,662,NaN,chair,chair,0.00,0662_nse_dnn_0.00_chair_10_n04429376_5770.png,n04429376_5770.png,1.0,5.0189333,3.2552955,1.2470802
bagnet33,1,663,NaN,knife,dog,0.05,0663_nse_dnn_0.05_dog_10_n02112706_5500.png,n02112706_5500.png,0.0,0.2356935,2.737348,-1.768937
bagnet33,1,664,NaN,elephant,boat,0.60,0664_nse_dnn_0.60_boat_10_n03662601_32391.png,n03662601_32391.png,0.0,-9.469084,11.537005,-14.853548
bagnet33,1,665,NaN,knife,truck,0.20,0665_nse_dnn_0.20_truck_10_n03796401_16046.png,n03796401_16046.png,0.0,-1.5474514,3.1839788,-3.3456264
bagnet33,1,666,NaN,chair,bottle,0.35,0666_nse_dnn_0.35_bottle_10_n04557648_310.png,n04557648_310.png,0.0,-0.94263554,7.170661,-5.736967
bagnet33,1,667,NaN,chair,chair,0.00,0667_nse_dnn_0.00_chair_10_n04429376_14995.png,n04429376_14995.png,1.0,6.1641293,4.690368,1.0421065
bagnet33,1,668,NaN,knife,oven,0.05,0668_nse_dnn_0.05_oven_10_n04111531_24096.png,n04111531_24096.png,0.0,-0.46313855,2.7203872,-2.2510927
bagnet33,1,669,NaN,knife,bird,0.03,0669_nse_dnn_0.03_bird_10_n01855672_12414.png,n01855672_12414.png,0.0,-0.9360389,3.4552865,-3.1051362
bagnet33,1,670,NaN,elephant,chair,0.90,0670_nse_dnn_0.90_chair_10_n03376595_4887.png,n03376595_4887.png,0.0,4.0572023,12.602921,-6.0427356
bagnet33,1,671,NaN,knife,bottle,0.20,0671_nse_dnn_0.20_bottle_10_n04557648_11992.png,n04557648_11992.png,0.0,0.6860431,3.1670823,-1.7543597
bagnet33,1,672,NaN,knife,cat,0.20,0672_nse_dnn_0.20_cat_10_n02124075_951.png,n02124075_951.png,0.0,0.42186916,2.8959048,-1.7494075
bagnet33,1,673,NaN,knife,chair,0.10,0673_nse_dnn_0.10_chair_10_n04099969_8647.png,n04099969_8647.png,0.0,0.37938118,2.1014423,-1.2176812
bagnet33,1,674,NaN,bottle,bottle,0.00,0674_nse_dnn_0.00_bottle_10_n04591713_2808.png,n04591713_2808.png,1.0,8.163405,4.1342955,2.849011
bagnet33,1,675,NaN,knife,airplane,0.20,0675_nse_dnn_0.20_airplane_10_n02690373_15097.png,n02690373_15097.png,0.0,-1.3738436,2.7159903,-2.8919492
bagnet33,1,676,NaN,chair,knife,0.00,0676_nse_dnn_0.00_knife_10_n03041632_62810.png,n03041632_62810.png,0.0,3.1996217,3.6938043,-0.34943986
bagnet33,1,677,NaN,knife,airplane,0.20,0677_nse_dnn_0.20_airplane_10_n02690373_1441.png,n02690373_1441.png,0.0,-1.2546501,2.9592404,-2.9796705
bagnet33,1,678,NaN,elephant,clock,0.90,0678_nse_dnn_0.90_clock_10_n04548280_942.png,n04548280_942.png,0.0,-14.273883,12.98609,-19.275711
bagnet33,1,679,NaN,knife,bear,0.10,0679_nse_dnn_0.10_bear_10_n02133161_4060.png,n02133161_4060.png,0.0,-0.31338593,2.3264446,-1.8666421
bagnet33,1,680,NaN,chair,chair,0.03,0680_nse_dnn_0.03_chair_10_n03376595_8227.png,n03376595_8227.png,1.0,6.42098,3.1932516,2.2823486
bagnet33,1,681,NaN,knife,boat,0.20,0681_nse_dnn_0.20_boat_10_n02951358_28889.png,n02951358_28889.png,0.0,0.41572046,3.2161663,-1.9802142
bagnet33,1,682,NaN,airplane,boat,0.00,0682_nse_dnn_0.00_boat_10_n04273569_1141.png,n04273569_1141.png,0.0,4.5022855,4.5458307,-0.03079114
bagnet33,1,683,NaN,dog,dog,0.00,0683_nse_dnn_0.00_dog_10_n02098105_5905.png,n02098105_5905.png,1.0,2.7400236,2.1417892,0.42301562
bagnet33,1,684,NaN,chair,bird,0.35,0684_nse_dnn_0.35_bird_10_n01534433_12864.png,n01534433_12864.png,0.0,-3.9151194,5.2448435,-6.477072
bagnet33,1,685,NaN,airplane,keyboard,0.00,0685_nse_dnn_0.00_keyboard_10_n04505470_6847.png,n04505470_6847.png,0.0,1.4691117,7.4068346,-4.1986046
bagnet33,1,686,NaN,elephant,car,0.60,0686_nse_dnn_0.60_car_10_n02814533_92286.png,n02814533_92286.png,0.0,-3.6544907,9.570145,-9.35123
bagnet33,1,687,NaN,knife,clock,0.05,0687_nse_dnn_0.05_clock_10_n02708093_3462.png,n02708093_3462.png,0.0,1.1005367,2.484002,-0.9782578
bagnet33,1,688,NaN,elephant,elephant,0.00,0688_nse_dnn_0.00_elephant_10_n02504013_3602.png,n02504013_3602.png,1.0,4.752939,2.217701,1.7926842
bagnet33,1,689,NaN,knife,clock,0.20,0689_nse_dnn_0.20_clock_10_n02708093_2800.png,n02708093_2800.png,0.0,-0.9075851,2.9649205,-2.738275
bagnet33,1,690,NaN,chair,bottle,0.03,0690_nse_dnn_0.03_bottle_10_n03983396_4627.png,n03983396_4627.png,0.0,1.21848,3.2584934,-1.4425073
bagnet33,1,691,NaN,elephant,elephant,0.60,0691_nse_dnn_0.60_elephant_10_n02504458_6835.png,n02504458_6835.png,1.0,8.684092,7.6031632,0.76433176
bagnet33,1,692,NaN,knife,bicycle,0.10,0692_nse_dnn_0.10_bicycle_10_n02835271_7594.png,n02835271_7594.png,0.0,-0.036780015,2.1590328,-1.5526743
bagnet33,1,693,NaN,knife,oven,0.10,0693_nse_dnn_0.10_oven_10_n04111531_538.png,n04111531_538.png,0.0,0.6673126,2.6775005,-1.4214175
bagnet33,1,694,NaN,bicycle,elephant,0.03,0694_nse_dnn_0.03_elephant_10_n02504013_10909.png,n02504013_10909.png,0.0,2.629799,3.3424392,-0.5039128
bagnet33,1,695,NaN,elephant,boat,0.90,0695_nse_dnn_0.90_boat_10_n03344393_771.png,n03344393_771.png,0.0,-11.349562,12.665434,-16.981167
bagnet33,1,696,NaN,knife,boat,0.10,0696_nse_dnn_0.10_boat_10_n02951358_15413.png,n02951358_15413.png,0.0,0.5822937,2.3595507,-1.2567105
bagnet33,1,697,NaN,elephant,cat,0.60,0697_nse_dnn_0.60_cat_10_n02124075_12176.png,n02124075_12176.png,0.0,3.3689673,8.723892,-3.786504
bagnet33,1,698,NaN,elephant,airplane,0.60,0698_nse_dnn_0.60_airplane_10_n02690373_5197.png,n02690373_5197.png,0.0,-3.8012705,8.902087,-8.982631
bagnet33,1,699,NaN,bicycle,bicycle,0.00,0699_nse_dnn_0.00_bicycle_10_n03792782_7101.png,n03792782_7101.png,1.0,6.894685,2.830536,2.8737874
bagnet33,1,700,NaN,elephant,bicycle,0.60,0700_nse_dnn_0.60_bicycle_10_n02835271_358.png,n02835271_358.png,0.0,-6.361162,9.297221,-11.072149
bagnet33,1,701,NaN,dog,dog,0.03,0701_nse_dnn_0.03_dog_10_n02092002_15319.png,n02092002_15319.png,1.0,4.1212664,3.1578271,0.68125445
bagnet33,1,702,NaN,knife,airplane,0.10,0702_nse_dnn_0.10_airplane_10_n02690373_3818.png,n02690373_3818.png,0.0,1.8773954,2.093888,-0.15308343
bagnet33,1,703,NaN,knife,dog,0.10,0703_nse_dnn_0.10_dog_10_n02097130_7349.png,n02097130_7349.png,0.0,-0.15243223,2.0085435,-1.5280406
bagnet33,1,704,NaN,knife,elephant,0.20,0704_nse_dnn_0.20_elephant_10_n02504013_7210.png,n02504013_7210.png,0.0,0.61453724,2.8346941,-1.569888
bagnet33,1,705,NaN,knife,clock,0.20,0705_nse_dnn_0.20_clock_10_n04548280_1109.png,n04548280_1109.png,0.0,-1.625672,3.2421856,-3.442095
bagnet33,1,706,NaN,chair,boat,0.35,0706_nse_dnn_0.35_boat_10_n03344393_4143.png,n03344393_4143.png,0.0,-3.230774,6.2923408,-6.7338595
bagnet33,1,707,NaN,elephant,oven,0.60,0707_nse_dnn_0.60_oven_10_n04111531_326.png,n04111531_326.png,0.0,-1.5646062,8.81957,-7.3427215
bagnet33,1,708,NaN,chair,bottle,0.35,0708_nse_dnn_0.35_bottle_10_n04557648_3529.png,n04557648_3529.png,0.0,-0.18874349,6.460731,-4.7018886
bagnet33,1,709,NaN,elephant,knife,0.90,0709_nse_dnn_0.90_knife_10_n03041632_27960.png,n03041632_27960.png,0.0,7.741102,12.268834,-3.20159
bagnet33,1,710,NaN,elephant,elephant,0.00,0710_nse_dnn_0.00_elephant_10_n02504458_8889.png,n02504458_8889.png,1.0,7.0650187,3.8224564,2.2928379
bagnet33,1,711,NaN,knife,knife,0.05,0711_nse_dnn_0.05_knife_10_n03041632_38610.png,n03041632_38610.png,1.0,4.1764402,1.0575926,2.2053583
bagnet33,1,712,NaN,airplane,bear,0.00,0712_nse_dnn_0.00_bear_10_n02132136_2263.png,n02132136_2263.png,0.0,0.55123675,3.4214773,-2.0295668
bagnet33,1,713,NaN,chair,bicycle,0.03,0713_nse_dnn_0.03_bicycle_10_n02835271_6167.png,n02835271_6167.png,0.0,2.5830693,3.2818556,-0.49411651
bagnet33,1,714,NaN,airplane,bird,0.00,0714_nse_dnn_0.00_bird_10_n02027492_597.png,n02027492_597.png,0.0,0.6699369,3.389759,-1.9232048
bagnet33,1,715,NaN,elephant,boat,0.60,0715_nse_dnn_0.60_boat_10_n03662601_7585.png,n03662601_7585.png,0.0,-10.254371,11.070114,-15.078689
bagnet33,1,716,NaN,knife,knife,0.10,0716_nse_dnn_0.10_knife_10_n03041632_22738.png,n03041632_22738.png,1.0,2.0751338,1.5650939,0.3606527
bagnet33,1,717,NaN,knife,clock,0.10,0717_nse_dnn_0.10_clock_10_n03196217_3140.png,n03196217_3140.png,0.0,1.1314112,2.6769147,-1.092836
bagnet33,1,718,NaN,elephant,truck,0.90,0718_nse_dnn_0.90_truck_10_n03417042_27988.png,n03417042_27988.png,0.0,1.4377167,13.32057,-8.402447
bagnet33,1,719,NaN,elephant,bear,0.60,0719_nse_dnn_0.60_bear_10_n02133161_97.png,n02133161_97.png,0.0,-9.820484,8.5568075,-12.994708
bagnet33,1,720,NaN,elephant,bottle,0.10,0720_nse_dnn_0.10_bottle_10_n04579145_815.png,n04579145_815.png,0.0,-0.0197645,3.3886535,-2.4101155
bagnet33,1,721,NaN,knife,clock,0.05,0721_nse_dnn_0.05_clock_10_n03196217_8792.png,n03196217_8792.png,0.0,2.2893589,3.1384854,-0.60042316
