subj,session,trial,rt,object_response,category,condition,imagename,filename,is_correct,targ_act,max_nontarg_act,decision_margin
alexnet_w1_mlp_simclrhn_probe1,1,1,NaN,chair,elephant,0.03,0001_nse_dnn_0.03_elephant_10_n02504458_7209.png,n02504458_7209.png,0.0,-0.42088372,-0.33861428,-0.058173273
alexnet_w1_mlp_simclrhn_probe1,1,2,NaN,knife,knife,0.90,0002_nse_dnn_0.90_knife_10_n03041632_82878.png,n03041632_82878.png,1.0,-2.7942858,-4.292197,1.0591834
alexnet_w1_mlp_simclrhn_probe1,1,3,NaN,clock,clock,0.00,0003_nse_dnn_0.00_clock_10_n03196217_9231.png,n03196217_9231.png,1.0,1.6531157,1.001349,0.46086872
alexnet_w1_mlp_simclrhn_probe1,1,4,NaN,oven,oven,0.00,0004_nse_dnn_0.00_oven_10_n04111531_11026.png,n04111531_11026.png,1.0,-0.11512807,-0.58767337,0.33414
alexnet_w1_mlp_simclrhn_probe1,1,5,NaN,elephant,clock,0.10,0005_nse_dnn_0.10_clock_10_n04548280_1114.png,n04548280_1114.png,0.0,-1.9839926,-1.5024973,-0.34046856
alexnet_w1_mlp_simclrhn_probe1,1,6,NaN,clock,clock,0.03,0006_nse_dnn_0.03_clock_10_n02708093_8100.png,n02708093_8100.png,1.0,0.22056752,-0.34342384,0.39880213
alexnet_w1_mlp_simclrhn_probe1,1,7,NaN,clock,clock,0.00,0007_nse_dnn_0.00_clock_10_n02708093_3591.png,n02708093_3591.png,1.0,3.2005348,-0.24880755,2.4390533
alexnet_w1_mlp_simclrhn_probe1,1,8,NaN,chair,chair,0.00,0008_nse_dnn_0.00_chair_10_n03376595_16202.png,n03376595_16202.png,1.0,0.08268094,-0.003840367,0.0611798
alexnet_w1_mlp_simclrhn_probe1,1,9,NaN,knife,bottle,0.60,0009_nse_dnn_0.60_bottle_10_n02823428_3478.png,n02823428_3478.png,0.0,-6.768164,-2.1517162,-3.2643218
alexnet_w1_mlp_simclrhn_probe1,1,10,NaN,cat,dog,0.10,0010_nse_dnn_0.10_dog_10_n02087394_28673.png,n02087394_28673.png,0.0,-2.5673423,-1.4304432,-0.80390906
alexnet_w1_mlp_simclrhn_probe1,1,11,NaN,cat,chair,0.10,0011_nse_dnn_0.10_chair_10_n04099969_1690.png,n04099969_1690.png,0.0,-2.6654775,-1.3148673,-0.9550257
alexnet_w1_mlp_simclrhn_probe1,1,12,NaN,elephant,cat,0.03,0012_nse_dnn_0.03_cat_10_n02125311_1736.png,n02125311_1736.png,0.0,-0.1821605,1.0095749,-0.8426842
alexnet_w1_mlp_simclrhn_probe1,1,13,NaN,knife,bear,0.90,0013_nse_dnn_0.90_bear_10_n02133161_1169.png,n02133161_1169.png,0.0,-16.193409,-3.0762248,-9.2752495
alexnet_w1_mlp_simclrhn_probe1,1,14,NaN,knife,bear,0.90,0014_nse_dnn_0.90_bear_10_n02133161_8835.png,n02133161_8835.png,0.0,-17.256824,-2.6413667,-10.334689
alexnet_w1_mlp_simclrhn_probe1,1,15,NaN,knife,car,0.20,0015_nse_dnn_0.20_car_10_n02814533_5430.png,n02814533_5430.png,0.0,-5.5679164,-1.6985873,-2.736029
alexnet_w1_mlp_simclrhn_probe1,1,16,NaN,knife,bear,0.60,0016_nse_dnn_0.60_bear_10_n02134418_3767.png,n02134418_3767.png,0.0,-13.967663,-2.429399,-8.158784
alexnet_w1_mlp_simclrhn_probe1,1,17,NaN,knife,knife,0.20,0017_nse_dnn_0.20_knife_10_n03041632_10540.png,n03041632_10540.png,1.0,-1.2051758,-3.4034348,1.5544038
alexnet_w1_mlp_simclrhn_probe1,1,18,NaN,knife,bicycle,0.20,0018_nse_dnn_0.20_bicycle_10_n02835271_1075.png,n02835271_1075.png,0.0,-3.8252163,-1.7719095,-1.4519072
alexnet_w1_mlp_simclrhn_probe1,1,19,NaN,bear,bear,0.00,0019_nse_dnn_0.00_bear_10_n02134084_3888.png,n02134084_3888.png,1.0,0.93582165,0.8098948,0.08904373
alexnet_w1_mlp_simclrhn_probe1,1,20,NaN,dog,dog,0.00,0020_nse_dnn_0.00_dog_10_n02085936_9009.png,n02085936_9009.png,1.0,0.12561187,-0.45517254,0.41067663
alexnet_w1_mlp_simclrhn_probe1,1,21,NaN,knife,knife,0.03,0021_nse_dnn_0.03_knife_10_n03041632_12651.png,n03041632_12651.png,1.0,0.26072925,-1.3739401,1.1558858
alexnet_w1_mlp_simclrhn_probe1,1,22,NaN,knife,bicycle,0.35,0022_nse_dnn_0.35_bicycle_10_n03792782_565.png,n03792782_565.png,0.0,-8.651626,-1.6660209,-4.9395685
alexnet_w1_mlp_simclrhn_probe1,1,23,NaN,knife,boat,0.20,0023_nse_dnn_0.20_boat_10_n04612504_40672.png,n04612504_40672.png,0.0,-5.005245,-1.0734605,-2.7801917
alexnet_w1_mlp_simclrhn_probe1,1,24,NaN,elephant,dog,0.05,0024_nse_dnn_0.05_dog_10_n02098105_146.png,n02098105_146.png,0.0,-1.4676737,-0.39497352,-0.75851357
alexnet_w1_mlp_simclrhn_probe1,1,25,NaN,clock,clock,0.03,0025_nse_dnn_0.03_clock_10_n02708093_5944.png,n02708093_5944.png,1.0,-0.1784238,-0.4814212,0.21425153
alexnet_w1_mlp_simclrhn_probe1,1,26,NaN,knife,cat,0.03,0026_nse_dnn_0.03_cat_10_n02124075_14021.png,n02124075_14021.png,0.0,-1.2821068,-0.23846593,-0.7379655
alexnet_w1_mlp_simclrhn_probe1,1,27,NaN,knife,bear,0.20,0027_nse_dnn_0.20_bear_10_n02133161_7184.png,n02133161_7184.png,0.0,-2.1467452,-1.7329183,-0.29261985
alexnet_w1_mlp_simclrhn_probe1,1,28,NaN,bottle,bottle,0.00,0028_nse_dnn_0.00_bottle_10_n03937543_9745.png,n03937543_9745.png,1.0,-0.56469697,-0.5925742,0.019712165
alexnet_w1_mlp_simclrhn_probe1,1,29,NaN,knife,airplane,0.60,0029_nse_dnn_0.60_airplane_10_n02690373_9605.png,n02690373_9605.png,0.0,-15.425294,-2.3937058,-9.214725
alexnet_w1_mlp_simclrhn_probe1,1,30,NaN,knife,cat,0.20,0030_nse_dnn_0.20_cat_10_n02123045_7167.png,n02123045_7167.png,0.0,-2.9449272,-1.4897361,-1.0289755
alexnet_w1_mlp_simclrhn_probe1,1,31,NaN,airplane,airplane,0.05,0031_nse_dnn_0.05_airplane_10_n02690373_4706.png,n02690373_4706.png,1.0,0.00036527216,-0.5463188,0.38656402
alexnet_w1_mlp_simclrhn_probe1,1,32,NaN,knife,knife,0.35,0032_nse_dnn_0.35_knife_10_n03041632_45270.png,n03041632_45270.png,1.0,-1.7602979,-4.549505,1.9722675
alexnet_w1_mlp_simclrhn_probe1,1,33,NaN,knife,dog,0.35,0033_nse_dnn_0.35_dog_10_n02105855_9326.png,n02105855_9326.png,0.0,-6.399033,-1.9178091,-3.168704
alexnet_w1_mlp_simclrhn_probe1,1,34,NaN,knife,bear,0.10,0034_nse_dnn_0.10_bear_10_n02134418_4349.png,n02134418_4349.png,0.0,-1.3703811,-0.9608029,-0.28961554
alexnet_w1_mlp_simclrhn_probe1,1,35,NaN,cat,cat,0.00,0035_nse_dnn_0.00_cat_10_n02123159_469.png,n02123159_469.png,1.0,0.21946855,-0.22845596,0.31673044
alexnet_w1_mlp_simclrhn_probe1,1,36,NaN,knife,truck,0.90,0036_nse_dnn_0.90_truck_10_n03417042_5004.png,n03417042_5004.png,0.0,-19.71976,-2.8158345,-11.952882
alexnet_w1_mlp_simclrhn_probe1,1,37,NaN,knife,bird,0.10,0037_nse_dnn_0.10_bird_10_n02051845_6333.png,n02051845_6333.png,0.0,-5.903988,-0.15363951,-4.0661106
alexnet_w1_mlp_simclrhn_probe1,1,38,NaN,knife,clock,0.90,0038_nse_dnn_0.90_clock_10_n03196217_12701.png,n03196217_12701.png,0.0,-9.506234,-2.7524576,-4.7756414
alexnet_w1_mlp_simclrhn_probe1,1,39,NaN,knife,chair,0.60,0039_nse_dnn_0.60_chair_10_n03376595_12341.png,n03376595_12341.png,0.0,-9.04182,-2.2839994,-4.7785006
alexnet_w1_mlp_simclrhn_probe1,1,40,NaN,bicycle,bicycle,0.10,0040_nse_dnn_0.10_bicycle_10_n03792782_66837.png,n03792782_66837.png,1.0,-1.5747013,-1.7506628,0.12442357
alexnet_w1_mlp_simclrhn_probe1,1,41,NaN,bicycle,bicycle,0.05,0041_nse_dnn_0.05_bicycle_10_n02835271_20177.png,n02835271_20177.png,1.0,1.7881467,-2.0512192,2.7148418
alexnet_w1_mlp_simclrhn_probe1,1,42,NaN,knife,knife,0.00,0042_nse_dnn_0.00_knife_10_n03041632_22330.png,n03041632_22330.png,1.0,-0.56768465,-1.160541,0.4192128
alexnet_w1_mlp_simclrhn_probe1,1,43,NaN,knife,cat,0.60,0043_nse_dnn_0.60_cat_10_n02123045_5913.png,n02123045_5913.png,0.0,-9.528723,-2.9333224,-4.6636524
alexnet_w1_mlp_simclrhn_probe1,1,44,NaN,elephant,elephant,0.20,0044_nse_dnn_0.20_elephant_10_n02504013_2464.png,n02504013_2464.png,1.0,-0.5947739,-1.8410515,0.88125134
alexnet_w1_mlp_simclrhn_probe1,1,45,NaN,knife,knife,0.90,0045_nse_dnn_0.90_knife_10_n03041632_99460.png,n03041632_99460.png,1.0,-2.6452343,-3.459435,0.5757268
alexnet_w1_mlp_simclrhn_probe1,1,46,NaN,bear,dog,0.00,0046_nse_dnn_0.00_dog_10_n02099601_8686.png,n02099601_8686.png,0.0,-1.5820765,-0.7115294,-0.61556983
alexnet_w1_mlp_simclrhn_probe1,1,47,NaN,knife,chair,0.90,0047_nse_dnn_0.90_chair_10_n02791124_5400.png,n02791124_5400.png,0.0,-10.436598,-2.9466734,-5.2961764
alexnet_w1_mlp_simclrhn_probe1,1,48,NaN,knife,chair,0.05,0048_nse_dnn_0.05_chair_10_n03376595_830.png,n03376595_830.png,0.0,-1.7501824,-1.2438784,-0.358011
alexnet_w1_mlp_simclrhn_probe1,1,49,NaN,knife,cat,0.90,0049_nse_dnn_0.90_cat_10_n02124075_6024.png,n02124075_6024.png,0.0,-11.760505,-2.2938604,-6.6939287
alexnet_w1_mlp_simclrhn_probe1,1,50,NaN,bicycle,bicycle,0.10,0050_nse_dnn_0.10_bicycle_10_n03792782_9004.png,n03792782_9004.png,1.0,-0.5752839,-2.290966,1.2131705
alexnet_w1_mlp_simclrhn_probe1,1,51,NaN,knife,keyboard,0.60,0051_nse_dnn_0.60_keyboard_10_n03085013_24088.png,n03085013_24088.png,0.0,-5.0230203,-1.9494064,-2.1733732
alexnet_w1_mlp_simclrhn_probe1,1,52,NaN,knife,cat,0.10,0052_nse_dnn_0.10_cat_10_n02125311_33778.png,n02125311_33778.png,0.0,-1.247283,-1.226388,-0.014775
alexnet_w1_mlp_simclrhn_probe1,1,53,NaN,bicycle,bicycle,0.00,0053_nse_dnn_0.00_bicycle_10_n03792782_7092.png,n03792782_7092.png,1.0,3.3940659,-1.0822951,3.165265
alexnet_w1_mlp_simclrhn_probe1,1,54,NaN,knife,airplane,0.35,0054_nse_dnn_0.35_airplane_10_n02690373_5724.png,n02690373_5724.png,0.0,-10.957247,-1.7166736,-6.534072
alexnet_w1_mlp_simclrhn_probe1,1,55,NaN,knife,bear,0.60,0055_nse_dnn_0.60_bear_10_n02133161_5637.png,n02133161_5637.png,0.0,-13.307638,-2.469403,-7.6637897
alexnet_w1_mlp_simclrhn_probe1,1,56,NaN,knife,bear,0.10,0056_nse_dnn_0.10_bear_10_n02132136_5365.png,n02132136_5365.png,0.0,-1.5244551,-1.342592,-0.12859662
alexnet_w1_mlp_simclrhn_probe1,1,57,NaN,knife,car,0.35,0057_nse_dnn_0.35_car_10_n03100240_1702.png,n03100240_1702.png,0.0,-9.410835,-2.0357397,-5.21498
alexnet_w1_mlp_simclrhn_probe1,1,58,NaN,knife,oven,0.35,0058_nse_dnn_0.35_oven_10_n04111531_2677.png,n04111531_2677.png,0.0,-6.856827,-1.8657522,-3.5292227
alexnet_w1_mlp_simclrhn_probe1,1,59,NaN,chair,oven,0.05,0059_nse_dnn_0.05_oven_10_n04111531_16583.png,n04111531_16583.png,0.0,-0.9605595,-0.31398082,-0.45720017
alexnet_w1_mlp_simclrhn_probe1,1,60,NaN,chair,chair,0.10,0060_nse_dnn_0.10_chair_10_n04099969_6266.png,n04099969_6266.png,1.0,-0.75186217,-1.1171964,0.25833035
alexnet_w1_mlp_simclrhn_probe1,1,61,NaN,knife,oven,0.60,0061_nse_dnn_0.60_oven_10_n04111531_6695.png,n04111531_6695.png,0.0,-12.148939,-2.4353528,-6.868543
alexnet_w1_mlp_simclrhn_probe1,1,62,NaN,knife,car,0.10,0062_nse_dnn_0.10_car_10_n03100240_1438.png,n03100240_1438.png,0.0,-4.560455,-1.6815988,-2.0356588
alexnet_w1_mlp_simclrhn_probe1,1,63,NaN,knife,keyboard,0.20,0063_nse_dnn_0.20_keyboard_10_n04505470_4684.png,n04505470_4684.png,0.0,-3.332848,-1.899398,-1.0136023
alexnet_w1_mlp_simclrhn_probe1,1,64,NaN,chair,chair,0.00,0064_nse_dnn_0.00_chair_10_n04099969_8021.png,n04099969_8021.png,1.0,-0.13421074,-0.7907673,0.46425563
alexnet_w1_mlp_simclrhn_probe1,1,65,NaN,knife,car,0.20,0065_nse_dnn_0.20_car_10_n04285008_7139.png,n04285008_7139.png,0.0,-6.4566283,-2.1437767,-3.0496469
alexnet_w1_mlp_simclrhn_probe1,1,66,NaN,airplane,truck,0.03,0066_nse_dnn_0.03_truck_10_n03796401_9207.png,n03796401_9207.png,0.0,0.7370757,0.8177283,-0.057029996
alexnet_w1_mlp_simclrhn_probe1,1,67,NaN,elephant,bottle,0.05,0067_nse_dnn_0.05_bottle_10_n04560804_3651.png,n04560804_3651.png,0.0,-1.8808291,-0.8931863,-0.69836897
alexnet_w1_mlp_simclrhn_probe1,1,68,NaN,knife,chair,0.60,0068_nse_dnn_0.60_chair_10_n03376595_3010.png,n03376595_3010.png,0.0,-9.754577,-2.4567246,-5.160361
alexnet_w1_mlp_simclrhn_probe1,1,69,NaN,knife,bird,0.90,0069_nse_dnn_0.90_bird_10_n01514859_1951.png,n01514859_1951.png,0.0,-11.3303995,-2.637683,-6.146679
alexnet_w1_mlp_simclrhn_probe1,1,70,NaN,bicycle,car,0.10,0070_nse_dnn_0.10_car_10_n03100240_4594.png,n03100240_4594.png,0.0,-1.4472519,-1.2028506,-0.17281784
alexnet_w1_mlp_simclrhn_probe1,1,71,NaN,knife,clock,0.35,0071_nse_dnn_0.35_clock_10_n03196217_3333.png,n03196217_3333.png,0.0,-5.8585396,-1.5825515,-3.0235803
alexnet_w1_mlp_simclrhn_probe1,1,72,NaN,knife,car,0.10,0072_nse_dnn_0.10_car_10_n02814533_90798.png,n02814533_90798.png,0.0,-4.744213,-1.6630902,-2.1786828
alexnet_w1_mlp_simclrhn_probe1,1,73,NaN,knife,keyboard,0.00,0073_nse_dnn_0.00_keyboard_10_n03085013_19547.png,n03085013_19547.png,0.0,0.36094886,1.1140381,-0.5325145
alexnet_w1_mlp_simclrhn_probe1,1,74,NaN,elephant,bear,0.05,0074_nse_dnn_0.05_bear_10_n02133161_545.png,n02133161_545.png,0.0,-0.9291051,-0.890189,-0.027517846
alexnet_w1_mlp_simclrhn_probe1,1,75,NaN,knife,oven,0.90,0075_nse_dnn_0.90_oven_10_n04111531_6489.png,n04111531_6489.png,0.0,-14.511015,-3.278916,-7.942294
alexnet_w1_mlp_simclrhn_probe1,1,76,NaN,knife,dog,0.90,0076_nse_dnn_0.90_dog_10_n02105056_15299.png,n02105056_15299.png,0.0,-11.273453,-2.6411726,-6.1039443
alexnet_w1_mlp_simclrhn_probe1,1,77,NaN,knife,knife,0.05,0077_nse_dnn_0.05_knife_10_n03041632_33255.png,n03041632_33255.png,1.0,-0.21538454,-0.8687335,0.4619875
alexnet_w1_mlp_simclrhn_probe1,1,78,NaN,knife,cat,0.20,0078_nse_dnn_0.20_cat_10_n02123394_5895.png,n02123394_5895.png,0.0,-3.0447407,-1.6263673,-1.0029414
alexnet_w1_mlp_simclrhn_probe1,1,79,NaN,knife,bottle,0.03,0079_nse_dnn_0.03_bottle_10_n03983396_11654.png,n03983396_11654.png,0.0,-1.3504999,-0.53002155,-0.5801658
alexnet_w1_mlp_simclrhn_probe1,1,80,NaN,airplane,airplane,0.03,0080_nse_dnn_0.03_airplane_10_n02690373_3860.png,n02690373_3860.png,1.0,1.1657722,-1.1300795,1.6234124
alexnet_w1_mlp_simclrhn_probe1,1,81,NaN,chair,oven,0.03,0081_nse_dnn_0.03_oven_10_n04111531_6415.png,n04111531_6415.png,0.0,-1.6091623,-0.8092847,-0.5655989
alexnet_w1_mlp_simclrhn_probe1,1,82,NaN,knife,knife,0.60,0082_nse_dnn_0.60_knife_10_n03041632_39342.png,n03041632_39342.png,1.0,-2.2877994,-4.146853,1.3145494
alexnet_w1_mlp_simclrhn_probe1,1,83,NaN,knife,bear,0.60,0083_nse_dnn_0.60_bear_10_n02133161_4882.png,n02133161_4882.png,0.0,-12.162763,-3.0604386,-6.4363146
alexnet_w1_mlp_simclrhn_probe1,1,84,NaN,bottle,bottle,0.00,0084_nse_dnn_0.00_bottle_10_n04591713_7474.png,n04591713_7474.png,1.0,-0.14792487,-0.7417588,0.419904
alexnet_w1_mlp_simclrhn_probe1,1,85,NaN,knife,bear,0.20,0085_nse_dnn_0.20_bear_10_n02132136_17615.png,n02132136_17615.png,0.0,-3.7673666,-1.4965675,-1.6056975
alexnet_w1_mlp_simclrhn_probe1,1,86,NaN,knife,boat,0.60,0086_nse_dnn_0.60_boat_10_n03344393_382.png,n03344393_382.png,0.0,-17.550022,-2.2835975,-10.794992
alexnet_w1_mlp_simclrhn_probe1,1,87,NaN,airplane,truck,0.00,0087_nse_dnn_0.00_truck_10_n03796401_27811.png,n03796401_27811.png,0.0,1.021787,1.8615061,-0.59377104
alexnet_w1_mlp_simclrhn_probe1,1,88,NaN,knife,keyboard,0.60,0088_nse_dnn_0.60_keyboard_10_n04505470_2603.png,n04505470_2603.png,0.0,-5.3975134,-2.690559,-1.9141059
alexnet_w1_mlp_simclrhn_probe1,1,89,NaN,knife,boat,0.35,0089_nse_dnn_0.35_boat_10_n03662601_16418.png,n03662601_16418.png,0.0,-9.190921,-1.6851876,-5.307355
alexnet_w1_mlp_simclrhn_probe1,1,90,NaN,knife,bear,0.35,0090_nse_dnn_0.35_bear_10_n02132136_2760.png,n02132136_2760.png,0.0,-7.4121146,-1.9508893,-3.8616695
alexnet_w1_mlp_simclrhn_probe1,1,91,NaN,bicycle,bicycle,0.05,0091_nse_dnn_0.05_bicycle_10_n02835271_10271.png,n02835271_10271.png,1.0,1.2509017,-1.6208541,2.030638
alexnet_w1_mlp_simclrhn_probe1,1,92,NaN,knife,bear,0.10,0092_nse_dnn_0.10_bear_10_n02134084_9127.png,n02134084_9127.png,0.0,-1.9200435,-1.0576305,-0.60981804
alexnet_w1_mlp_simclrhn_probe1,1,93,NaN,knife,bird,0.20,0093_nse_dnn_0.20_bird_10_n01797886_551.png,n01797886_551.png,0.0,-3.243852,-1.2534155,-1.4074512
alexnet_w1_mlp_simclrhn_probe1,1,94,NaN,elephant,truck,0.10,0094_nse_dnn_0.10_truck_10_n03417042_9559.png,n03417042_9559.png,0.0,-4.1234074,-1.1254848,-2.1198514
alexnet_w1_mlp_simclrhn_probe1,1,95,NaN,knife,clock,0.90,0095_nse_dnn_0.90_clock_10_n02708093_3114.png,n02708093_3114.png,0.0,-9.275197,-2.5485153,-4.756482
alexnet_w1_mlp_simclrhn_probe1,1,96,NaN,knife,bicycle,0.05,0096_nse_dnn_0.05_bicycle_10_n03792782_122.png,n03792782_122.png,0.0,-1.0887996,-0.8088144,-0.19797944
alexnet_w1_mlp_simclrhn_probe1,1,97,NaN,knife,oven,0.35,0097_nse_dnn_0.35_oven_10_n04111531_3702.png,n04111531_3702.png,0.0,-7.426624,-1.4776275,-4.206576
alexnet_w1_mlp_simclrhn_probe1,1,98,NaN,knife,car,0.90,0098_nse_dnn_0.90_car_10_n02814533_93476.png,n02814533_93476.png,0.0,-18.309748,-2.961857,-10.852598
alexnet_w1_mlp_simclrhn_probe1,1,99,NaN,knife,cat,0.35,0099_nse_dnn_0.35_cat_10_n02123045_8491.png,n02123045_8491.png,0.0,-5.2906914,-1.4331422,-2.7276993
alexnet_w1_mlp_simclrhn_probe1,1,100,NaN,knife,chair,0.35,0100_nse_dnn_0.35_chair_10_n02791124_13469.png,n02791124_13469.png,0.0,-5.779717,-1.8893954,-2.7508729
alexnet_w1_mlp_simclrhn_probe1,1,101,NaN,knife,dog,0.60,0101_nse_dnn_0.60_dog_10_n02096294_5451.png,n02096294_5451.png,0.0,-9.822724,-2.2505746,-5.3543186
alexnet_w1_mlp_simclrhn_probe1,1,102,NaN,knife,bicycle,0.35,0102_nse_dnn_0.35_bicycle_10_n03792782_44296.png,n03792782_44296.png,0.0,-7.100683,-1.8726842,-3.6967535
alexnet_w1_mlp_simclrhn_probe1,1,103,NaN,knife,cat,0.90,0103_nse_dnn_0.90_cat_10_n02123597_7138.png,n02123597_7138.png,0.0,-11.656242,-2.8354697,-6.237228
alexnet_w1_mlp_simclrhn_probe1,1,104,NaN,knife,bottle,0.35,0104_nse_dnn_0.35_bottle_10_n04560804_12736.png,n04560804_12736.png,0.0,-4.970718,-1.6253431,-2.3655372
alexnet_w1_mlp_simclrhn_probe1,1,105,NaN,knife,oven,0.60,0105_nse_dnn_0.60_oven_10_n04111531_22797.png,n04111531_22797.png,0.0,-12.6483755,-2.1174064,-7.4465203
alexnet_w1_mlp_simclrhn_probe1,1,106,NaN,elephant,bird,0.10,0106_nse_dnn_0.10_bird_10_n02007558_7446.png,n02007558_7446.png,0.0,-1.8626912,-1.0063709,-0.6055099
alexnet_w1_mlp_simclrhn_probe1,1,107,NaN,knife,boat,0.60,0107_nse_dnn_0.60_boat_10_n03662601_16441.png,n03662601_16441.png,0.0,-15.910144,-2.8722086,-9.219213
alexnet_w1_mlp_simclrhn_probe1,1,108,NaN,knife,oven,0.60,0108_nse_dnn_0.60_oven_10_n04111531_22386.png,n04111531_22386.png,0.0,-12.751761,-2.3656626,-7.344081
alexnet_w1_mlp_simclrhn_probe1,1,109,NaN,airplane,airplane,0.00,0109_nse_dnn_0.00_airplane_10_n02690373_1381.png,n02690373_1381.png,1.0,4.603243,-1.1034205,4.03522
alexnet_w1_mlp_simclrhn_probe1,1,110,NaN,knife,keyboard,0.20,0110_nse_dnn_0.20_keyboard_10_n03085013_20779.png,n03085013_20779.png,0.0,-3.7892442,-1.557786,-1.5778792
alexnet_w1_mlp_simclrhn_probe1,1,111,NaN,knife,dog,0.90,0111_nse_dnn_0.90_dog_10_n02095570_9488.png,n02095570_9488.png,0.0,-11.825845,-3.0757432,-6.187256
alexnet_w1_mlp_simclrhn_probe1,1,112,NaN,cat,dog,0.03,0112_nse_dnn_0.03_dog_10_n02107312_3262.png,n02107312_3262.png,0.0,0.045801062,0.44979402,-0.28566617
alexnet_w1_mlp_simclrhn_probe1,1,113,NaN,oven,oven,0.03,0113_nse_dnn_0.03_oven_10_n04111531_10681.png,n04111531_10681.png,1.0,0.1584011,-1.071601,0.8697429
alexnet_w1_mlp_simclrhn_probe1,1,114,NaN,knife,knife,0.90,0114_nse_dnn_0.90_knife_10_n03041632_29285.png,n03041632_29285.png,1.0,-2.8306923,-4.0690727,0.8756672
alexnet_w1_mlp_simclrhn_probe1,1,115,NaN,knife,elephant,0.60,0115_nse_dnn_0.60_elephant_10_n02504458_4776.png,n02504458_4776.png,0.0,-12.290272,-2.2172472,-7.122704
alexnet_w1_mlp_simclrhn_probe1,1,116,NaN,elephant,boat,0.10,0116_nse_dnn_0.10_boat_10_n04273569_11940.png,n04273569_11940.png,0.0,-3.0747936,-0.6127727,-1.7409117
alexnet_w1_mlp_simclrhn_probe1,1,117,NaN,knife,cat,0.20,0117_nse_dnn_0.20_cat_10_n02123159_1413.png,n02123159_1413.png,0.0,-2.4639328,-1.8290148,-0.44895482
alexnet_w1_mlp_simclrhn_probe1,1,118,NaN,knife,airplane,0.60,0118_nse_dnn_0.60_airplane_10_n02690373_6674.png,n02690373_6674.png,0.0,-16.677975,-2.2679355,-10.189436
alexnet_w1_mlp_simclrhn_probe1,1,119,NaN,knife,clock,0.35,0119_nse_dnn_0.35_clock_10_n04548280_5088.png,n04548280_5088.png,0.0,-5.6850457,-2.0377836,-2.5790038
alexnet_w1_mlp_simclrhn_probe1,1,120,NaN,knife,clock,0.05,0120_nse_dnn_0.05_clock_10_n02708093_6624.png,n02708093_6624.png,0.0,-1.6471885,-1.1232717,-0.37046516
alexnet_w1_mlp_simclrhn_probe1,1,121,NaN,knife,bicycle,0.20,0121_nse_dnn_0.20_bicycle_10_n03792782_29108.png,n03792782_29108.png,0.0,-3.8911605,-1.7476332,-1.5157027
alexnet_w1_mlp_simclrhn_probe1,1,122,NaN,knife,clock,0.20,0122_nse_dnn_0.20_clock_10_n04548280_8649.png,n04548280_8649.png,0.0,-3.7083483,-1.0758916,-1.861428
alexnet_w1_mlp_simclrhn_probe1,1,123,NaN,elephant,knife,0.05,0123_nse_dnn_0.05_knife_10_n03041632_737.png,n03041632_737.png,0.0,-0.9766423,-0.1457715,-0.5875144
alexnet_w1_mlp_simclrhn_probe1,1,124,NaN,clock,clock,0.10,0124_nse_dnn_0.10_clock_10_n04548280_8668.png,n04548280_8668.png,1.0,1.3480145,-1.9741338,2.3491137
alexnet_w1_mlp_simclrhn_probe1,1,125,NaN,bicycle,bird,0.03,0125_nse_dnn_0.03_bird_10_n01558993_34885.png,n01558993_34885.png,0.0,-1.1011078,-0.1615373,-0.66437674
alexnet_w1_mlp_simclrhn_probe1,1,126,NaN,knife,truck,0.60,0126_nse_dnn_0.60_truck_10_n04467665_37833.png,n04467665_37833.png,0.0,-14.887308,-2.2050152,-8.967735
alexnet_w1_mlp_simclrhn_probe1,1,127,NaN,knife,boat,0.05,0127_nse_dnn_0.05_boat_10_n03662601_5176.png,n03662601_5176.png,0.0,-1.1770306,-0.5271108,-0.45956266
alexnet_w1_mlp_simclrhn_probe1,1,128,NaN,chair,chair,0.00,0128_nse_dnn_0.00_chair_10_n03376595_9139.png,n03376595_9139.png,1.0,0.9400899,-0.025198013,0.68256164
alexnet_w1_mlp_simclrhn_probe1,1,129,NaN,knife,oven,0.90,0129_nse_dnn_0.90_oven_10_n04111531_6211.png,n04111531_6211.png,0.0,-16.721441,-3.2392871,-9.533322
alexnet_w1_mlp_simclrhn_probe1,1,130,NaN,boat,boat,0.00,0130_nse_dnn_0.00_boat_10_n04273569_11427.png,n04273569_11427.png,1.0,0.05117334,-0.60768163,0.4658808
alexnet_w1_mlp_simclrhn_probe1,1,131,NaN,elephant,bicycle,0.05,0131_nse_dnn_0.05_bicycle_10_n03792782_17198.png,n03792782_17198.png,0.0,-1.2180716,-0.58093673,-0.4505224
alexnet_w1_mlp_simclrhn_probe1,1,132,NaN,clock,clock,0.00,0132_nse_dnn_0.00_clock_10_n04548280_4560.png,n04548280_4560.png,1.0,0.54371923,-0.27018824,0.5755195
alexnet_w1_mlp_simclrhn_probe1,1,133,NaN,knife,knife,0.03,0133_nse_dnn_0.03_knife_10_n03041632_3781.png,n03041632_3781.png,1.0,-0.82459855,-1.4683486,0.45520005
alexnet_w1_mlp_simclrhn_probe1,1,134,NaN,knife,clock,0.10,0134_nse_dnn_0.10_clock_10_n03196217_958.png,n03196217_958.png,0.0,-1.9228541,-0.8154088,-0.78308207
alexnet_w1_mlp_simclrhn_probe1,1,135,NaN,knife,elephant,0.35,0135_nse_dnn_0.35_elephant_10_n02504458_485.png,n02504458_485.png,0.0,-5.967429,-2.0571148,-2.7650099
alexnet_w1_mlp_simclrhn_probe1,1,136,NaN,bicycle,clock,0.00,0136_nse_dnn_0.00_clock_10_n02708093_1038.png,n02708093_1038.png,0.0,-0.48185587,0.5728996,-0.74582475
alexnet_w1_mlp_simclrhn_probe1,1,137,NaN,oven,oven,0.03,0137_nse_dnn_0.03_oven_10_n04111531_1723.png,n04111531_1723.png,1.0,0.013262615,-0.8733156,0.62690544
alexnet_w1_mlp_simclrhn_probe1,1,138,NaN,dog,dog,0.03,0138_nse_dnn_0.03_dog_10_n02110806_27169.png,n02110806_27169.png,1.0,-0.38681862,-1.1314768,0.5265528
alexnet_w1_mlp_simclrhn_probe1,1,139,NaN,airplane,airplane,0.00,0139_nse_dnn_0.00_airplane_10_n02690373_12505.png,n02690373_12505.png,1.0,1.995601,-0.9150742,2.0581582
alexnet_w1_mlp_simclrhn_probe1,1,140,NaN,knife,bird,0.60,0140_nse_dnn_0.60_bird_10_n01828970_454.png,n01828970_454.png,0.0,-8.643782,-2.4156356,-4.4039645
alexnet_w1_mlp_simclrhn_probe1,1,141,NaN,knife,oven,0.20,0141_nse_dnn_0.20_oven_10_n04111531_15635.png,n04111531_15635.png,0.0,-4.3335314,-1.1523025,-2.2494686
alexnet_w1_mlp_simclrhn_probe1,1,142,NaN,bicycle,car,0.00,0142_nse_dnn_0.00_car_10_n04285008_8700.png,n04285008_8700.png,0.0,-1.7140166,-0.83915806,-0.61861837
alexnet_w1_mlp_simclrhn_probe1,1,143,NaN,chair,keyboard,0.05,0143_nse_dnn_0.05_keyboard_10_n04505470_4592.png,n04505470_4592.png,0.0,-0.73622274,-0.61677366,-0.08446325
alexnet_w1_mlp_simclrhn_probe1,1,144,NaN,knife,boat,0.20,0144_nse_dnn_0.20_boat_10_n03344393_9560.png,n03344393_9560.png,0.0,-4.9598675,-1.321012,-2.5730593
alexnet_w1_mlp_simclrhn_probe1,1,145,NaN,elephant,bear,0.00,0145_nse_dnn_0.00_bear_10_n02132136_5138.png,n02132136_5138.png,0.0,-0.041514397,0.17949986,-0.15628068
alexnet_w1_mlp_simclrhn_probe1,1,146,NaN,knife,chair,0.60,0146_nse_dnn_0.60_chair_10_n03376595_591.png,n03376595_591.png,0.0,-9.056907,-2.2934604,-4.782479
alexnet_w1_mlp_simclrhn_probe1,1,147,NaN,knife,keyboard,0.90,0147_nse_dnn_0.90_keyboard_10_n03085013_20590.png,n03085013_20590.png,0.0,-4.352277,-2.804645,-1.0943409
alexnet_w1_mlp_simclrhn_probe1,1,148,NaN,knife,dog,0.35,0148_nse_dnn_0.35_dog_10_n02094258_1224.png,n02094258_1224.png,0.0,-6.301465,-1.7046988,-3.2504048
alexnet_w1_mlp_simclrhn_probe1,1,149,NaN,knife,clock,0.20,0149_nse_dnn_0.20_clock_10_n03196217_4486.png,n03196217_4486.png,0.0,-3.8812122,-1.2359439,-1.8704873
alexnet_w1_mlp_simclrhn_probe1,1,150,NaN,knife,bear,0.20,0150_nse_dnn_0.20_bear_10_n02134084_22150.png,n02134084_22150.png,0.0,-3.5474768,-1.5560782,-1.4081315
alexnet_w1_mlp_simclrhn_probe1,1,151,NaN,cat,cat,0.10,0151_nse_dnn_0.10_cat_10_n02123045_3098.png,n02123045_3098.png,1.0,0.42818913,-1.5995809,1.4338499
alexnet_w1_mlp_simclrhn_probe1,1,152,NaN,cat,bear,0.20,0152_nse_dnn_0.20_bear_10_n02134418_271.png,n02134418_271.png,0.0,-1.8793589,-1.6899968,-0.1338992
alexnet_w1_mlp_simclrhn_probe1,1,153,NaN,oven,oven,0.05,0153_nse_dnn_0.05_oven_10_n04111531_274.png,n04111531_274.png,1.0,-0.24228007,-1.5801721,0.9460326
alexnet_w1_mlp_simclrhn_probe1,1,154,NaN,knife,knife,0.35,0154_nse_dnn_0.35_knife_10_n03041632_8563.png,n03041632_8563.png,1.0,-1.7362318,-4.8602014,2.20898
alexnet_w1_mlp_simclrhn_probe1,1,155,NaN,car,car,0.00,0155_nse_dnn_0.00_car_10_n02814533_52389.png,n02814533_52389.png,1.0,5.18928,3.6180568,1.1110226
alexnet_w1_mlp_simclrhn_probe1,1,156,NaN,airplane,airplane,0.00,0156_nse_dnn_0.00_airplane_10_n02690373_10455.png,n02690373_10455.png,1.0,0.68373185,-0.34005976,0.72392994
alexnet_w1_mlp_simclrhn_probe1,1,157,NaN,knife,truck,0.35,0157_nse_dnn_0.35_truck_10_n04467665_4810.png,n04467665_4810.png,0.0,-9.987282,-1.7415524,-5.830611
alexnet_w1_mlp_simclrhn_probe1,1,158,NaN,knife,knife,0.10,0158_nse_dnn_0.10_knife_10_n03041632_3159.png,n03041632_3159.png,1.0,0.027365133,-2.2525957,1.6121758
alexnet_w1_mlp_simclrhn_probe1,1,159,NaN,knife,cat,0.05,0159_nse_dnn_0.05_cat_10_n02123597_13411.png,n02123597_13411.png,0.0,-1.7845396,-0.3619823,-1.0059
alexnet_w1_mlp_simclrhn_probe1,1,160,NaN,knife,clock,0.10,0160_nse_dnn_0.10_clock_10_n04548280_2654.png,n04548280_2654.png,0.0,-1.9306728,-0.13051061,-1.2729069
alexnet_w1_mlp_simclrhn_probe1,1,161,NaN,knife,elephant,0.90,0161_nse_dnn_0.90_elephant_10_n02504013_405.png,n02504013_405.png,0.0,-15.6662245,-2.8612597,-9.054478
alexnet_w1_mlp_simclrhn_probe1,1,162,NaN,elephant,bottle,0.05,0162_nse_dnn_0.05_bottle_10_n04560804_14729.png,n04560804_14729.png,0.0,-1.9213477,0.6490474,-1.8175437
alexnet_w1_mlp_simclrhn_probe1,1,163,NaN,knife,bottle,0.90,0163_nse_dnn_0.90_bottle_10_n02823428_5482.png,n02823428_5482.png,0.0,-7.976177,-2.3878336,-3.9515557
alexnet_w1_mlp_simclrhn_probe1,1,164,NaN,knife,keyboard,0.90,0164_nse_dnn_0.90_keyboard_10_n04505470_4824.png,n04505470_4824.png,0.0,-3.8485136,-2.5017138,-0.9523313
alexnet_w1_mlp_simclrhn_probe1,1,165,NaN,knife,chair,0.20,0165_nse_dnn_0.20_chair_10_n04099969_14208.png,n04099969_14208.png,0.0,-3.2643023,-1.3367127,-1.3630116
alexnet_w1_mlp_simclrhn_probe1,1,166,NaN,elephant,elephant,0.00,0166_nse_dnn_0.00_elephant_10_n02504013_1647.png,n02504013_1647.png,1.0,3.3610425,-0.04067946,2.4053807
alexnet_w1_mlp_simclrhn_probe1,1,167,NaN,elephant,cat,0.20,0167_nse_dnn_0.20_cat_10_n02123597_11564.png,n02123597_11564.png,0.0,-1.8943995,-1.8685708,-0.018263662
alexnet_w1_mlp_simclrhn_probe1,1,168,NaN,knife,car,0.35,0168_nse_dnn_0.35_car_10_n03100240_16653.png,n03100240_16653.png,0.0,-10.255454,-1.695482,-6.052814
alexnet_w1_mlp_simclrhn_probe1,1,169,NaN,keyboard,oven,0.00,0169_nse_dnn_0.00_oven_10_n04111531_9611.png,n04111531_9611.png,0.0,-0.8481327,0.28960055,-0.8044989
alexnet_w1_mlp_simclrhn_probe1,1,170,NaN,elephant,car,0.05,0170_nse_dnn_0.05_car_10_n02814533_35054.png,n02814533_35054.png,0.0,-3.135492,-0.31727153,-1.992783
alexnet_w1_mlp_simclrhn_probe1,1,171,NaN,knife,oven,0.20,0171_nse_dnn_0.20_oven_10_n04111531_3121.png,n04111531_3121.png,0.0,-2.8325489,-2.1095607,-0.5112298
alexnet_w1_mlp_simclrhn_probe1,1,172,NaN,knife,chair,0.20,0172_nse_dnn_0.20_chair_10_n02791124_4969.png,n02791124_4969.png,0.0,-2.9825735,-2.0524037,-0.6577294
alexnet_w1_mlp_simclrhn_probe1,1,173,NaN,bicycle,car,0.20,0173_nse_dnn_0.20_car_10_n02814533_211.png,n02814533_211.png,0.0,-4.4639325,-1.9024175,-1.8112645
alexnet_w1_mlp_simclrhn_probe1,1,174,NaN,elephant,dog,0.00,0174_nse_dnn_0.00_dog_10_n02091244_13118.png,n02091244_13118.png,0.0,-0.5320818,-0.4696033,-0.04417896
alexnet_w1_mlp_simclrhn_probe1,1,175,NaN,knife,bottle,0.10,0175_nse_dnn_0.10_bottle_10_n04560804_3597.png,n04560804_3597.png,0.0,-1.0376766,-0.9167821,-0.08548532
alexnet_w1_mlp_simclrhn_probe1,1,176,NaN,knife,bottle,0.60,0176_nse_dnn_0.60_bottle_10_n04560804_30885.png,n04560804_30885.png,0.0,-6.5243783,-2.3914835,-2.9223979
alexnet_w1_mlp_simclrhn_probe1,1,177,NaN,knife,bottle,0.60,0177_nse_dnn_0.60_bottle_10_n04560804_9813.png,n04560804_9813.png,0.0,-6.2337394,-2.5042157,-2.6371715
alexnet_w1_mlp_simclrhn_probe1,1,178,NaN,knife,boat,0.35,0178_nse_dnn_0.35_boat_10_n02951358_10003.png,n02951358_10003.png,0.0,-9.389413,-1.8751187,-5.3134084
alexnet_w1_mlp_simclrhn_probe1,1,179,NaN,knife,bear,0.35,0179_nse_dnn_0.35_bear_10_n02133161_1500.png,n02133161_1500.png,0.0,-8.118538,-1.9744093,-4.3445554
alexnet_w1_mlp_simclrhn_probe1,1,180,NaN,knife,oven,0.20,0180_nse_dnn_0.20_oven_10_n04111531_4467.png,n04111531_4467.png,0.0,-3.990738,-1.2967746,-1.9049197
alexnet_w1_mlp_simclrhn_probe1,1,181,NaN,knife,clock,0.20,0181_nse_dnn_0.20_clock_10_n02708093_8002.png,n02708093_8002.png,0.0,-3.106842,-1.6711812,-1.0151656
alexnet_w1_mlp_simclrhn_probe1,1,182,NaN,knife,boat,0.90,0182_nse_dnn_0.90_boat_10_n02951358_34261.png,n02951358_34261.png,0.0,-18.665329,-2.6945498,-11.293047
alexnet_w1_mlp_simclrhn_probe1,1,183,NaN,boat,boat,0.00,0183_nse_dnn_0.00_boat_10_n04612504_20067.png,n04612504_20067.png,1.0,2.002235,0.6819546,0.9335792
alexnet_w1_mlp_simclrhn_probe1,1,184,NaN,knife,clock,0.35,0184_nse_dnn_0.35_clock_10_n03196217_6163.png,n03196217_6163.png,0.0,-5.165282,-1.6186178,-2.5078702
alexnet_w1_mlp_simclrhn_probe1,1,185,NaN,keyboard,keyboard,0.03,0185_nse_dnn_0.03_keyboard_10_n03085013_23119.png,n03085013_23119.png,1.0,-0.34036988,-0.48132735,0.09967199
alexnet_w1_mlp_simclrhn_probe1,1,186,NaN,knife,clock,0.60,0186_nse_dnn_0.60_clock_10_n04548280_4358.png,n04548280_4358.png,0.0,-7.6155014,-2.332617,-3.7355635
alexnet_w1_mlp_simclrhn_probe1,1,187,NaN,cat,dog,0.05,0187_nse_dnn_0.05_dog_10_n02101388_2968.png,n02101388_2968.png,0.0,-1.3151468,-0.3889495,-0.6549204
alexnet_w1_mlp_simclrhn_probe1,1,188,NaN,knife,oven,0.10,0188_nse_dnn_0.10_oven_10_n04111531_8081.png,n04111531_8081.png,0.0,-1.6021056,-1.5151944,-0.0614555
alexnet_w1_mlp_simclrhn_probe1,1,189,NaN,knife,keyboard,0.05,0189_nse_dnn_0.05_keyboard_10_n04505470_4994.png,n04505470_4994.png,0.0,-0.61089814,-0.17641002,-0.3072295
alexnet_w1_mlp_simclrhn_probe1,1,190,NaN,elephant,dog,0.10,0190_nse_dnn_0.10_dog_10_n02101006_16132.png,n02101006_16132.png,0.0,-2.0652173,-0.7740064,-0.913024
alexnet_w1_mlp_simclrhn_probe1,1,191,NaN,elephant,elephant,0.10,0191_nse_dnn_0.10_elephant_10_n02504458_6888.png,n02504458_6888.png,1.0,-0.06777507,-1.0232105,0.6755949
alexnet_w1_mlp_simclrhn_probe1,1,192,NaN,knife,bird,0.60,0192_nse_dnn_0.60_bird_10_n02018207_43958.png,n02018207_43958.png,0.0,-10.02886,-2.5316422,-5.301334
alexnet_w1_mlp_simclrhn_probe1,1,193,NaN,cat,cat,0.03,0193_nse_dnn_0.03_cat_10_n02123045_2719.png,n02123045_2719.png,1.0,1.9275612,-1.2059263,2.2157102
alexnet_w1_mlp_simclrhn_probe1,1,194,NaN,keyboard,keyboard,0.05,0194_nse_dnn_0.05_keyboard_10_n03085013_5611.png,n03085013_5611.png,1.0,0.21666834,-0.9930059,0.85536885
alexnet_w1_mlp_simclrhn_probe1,1,195,NaN,bicycle,boat,0.03,0195_nse_dnn_0.03_boat_10_n03344393_6892.png,n03344393_6892.png,0.0,-0.80919945,-0.16925126,-0.4525117
alexnet_w1_mlp_simclrhn_probe1,1,196,NaN,knife,chair,0.90,0196_nse_dnn_0.90_chair_10_n02791124_5411.png,n02791124_5411.png,0.0,-11.381659,-3.06336,-5.881925
alexnet_w1_mlp_simclrhn_probe1,1,197,NaN,elephant,elephant,0.05,0197_nse_dnn_0.05_elephant_10_n02504013_8391.png,n02504013_8391.png,1.0,3.2682364,-0.001914531,2.312346
alexnet_w1_mlp_simclrhn_probe1,1,198,NaN,knife,chair,0.60,0198_nse_dnn_0.60_chair_10_n02791124_7167.png,n02791124_7167.png,0.0,-9.235878,-2.5519326,-4.7262635
alexnet_w1_mlp_simclrhn_probe1,1,199,NaN,elephant,truck,0.10,0199_nse_dnn_0.10_truck_10_n03417042_2170.png,n03417042_2170.png,0.0,-3.4355798,-1.4586482,-1.3979018
alexnet_w1_mlp_simclrhn_probe1,1,200,NaN,knife,chair,0.35,0200_nse_dnn_0.35_chair_10_n04099969_2109.png,n04099969_2109.png,0.0,-5.421794,-2.1517453,-2.3122735
alexnet_w1_mlp_simclrhn_probe1,1,201,NaN,knife,chair,0.90,0201_nse_dnn_0.90_chair_10_n04429376_7321.png,n04429376_7321.png,0.0,-11.408603,-2.603191,-6.226367
alexnet_w1_mlp_simclrhn_probe1,1,202,NaN,knife,airplane,0.35,0202_nse_dnn_0.35_airplane_10_n02690373_1733.png,n02690373_1733.png,0.0,-10.366169,-1.5562351,-6.2295637
alexnet_w1_mlp_simclrhn_probe1,1,203,NaN,knife,bird,0.10,0203_nse_dnn_0.10_bird_10_n02006656_5719.png,n02006656_5719.png,0.0,-2.138312,-1.233256,-0.6399713
alexnet_w1_mlp_simclrhn_probe1,1,204,NaN,bicycle,bicycle,0.03,0204_nse_dnn_0.03_bicycle_10_n03792782_12354.png,n03792782_12354.png,1.0,0.8305147,-1.2193851,1.449498
alexnet_w1_mlp_simclrhn_probe1,1,205,NaN,bottle,bottle,0.03,0205_nse_dnn_0.03_bottle_10_n04557648_12671.png,n04557648_12671.png,1.0,1.3612453,-1.6615016,2.137405
alexnet_w1_mlp_simclrhn_probe1,1,206,NaN,elephant,elephant,0.05,0206_nse_dnn_0.05_elephant_10_n02504013_318.png,n02504013_318.png,1.0,2.1117291,-0.5578933,1.8877082
alexnet_w1_mlp_simclrhn_probe1,1,207,NaN,knife,boat,0.90,0207_nse_dnn_0.90_boat_10_n04273569_16078.png,n04273569_16078.png,0.0,-20.807594,-3.1156518,-12.510093
alexnet_w1_mlp_simclrhn_probe1,1,208,NaN,knife,cat,0.03,0208_nse_dnn_0.03_cat_10_n02123597_9664.png,n02123597_9664.png,0.0,-1.1527764,-0.42212108,-0.51665133
alexnet_w1_mlp_simclrhn_probe1,1,209,NaN,knife,clock,0.35,0209_nse_dnn_0.35_clock_10_n04548280_4113.png,n04548280_4113.png,0.0,-5.331266,-1.6780767,-2.583195
alexnet_w1_mlp_simclrhn_probe1,1,210,NaN,knife,keyboard,0.60,0210_nse_dnn_0.60_keyboard_10_n03085013_20363.png,n03085013_20363.png,0.0,-3.7239444,-2.3982701,-0.9373933
alexnet_w1_mlp_simclrhn_probe1,1,211,NaN,chair,truck,0.03,0211_nse_dnn_0.03_truck_10_n04467665_67908.png,n04467665_67908.png,0.0,-1.387002,-0.83580554,-0.38975477
alexnet_w1_mlp_simclrhn_probe1,1,212,NaN,knife,truck,0.90,0212_nse_dnn_0.90_truck_10_n04467665_61522.png,n04467665_61522.png,0.0,-17.857708,-2.6352649,-10.763892
alexnet_w1_mlp_simclrhn_probe1,1,213,NaN,knife,cat,0.90,0213_nse_dnn_0.90_cat_10_n02123045_3648.png,n02123045_3648.png,0.0,-12.940112,-2.5798736,-7.325795
alexnet_w1_mlp_simclrhn_probe1,1,214,NaN,knife,dog,0.60,0214_nse_dnn_0.60_dog_10_n02107574_3685.png,n02107574_3685.png,0.0,-10.371096,-2.0214558,-5.904087
alexnet_w1_mlp_simclrhn_probe1,1,215,NaN,knife,dog,0.20,0215_nse_dnn_0.20_dog_10_n02100236_4048.png,n02100236_4048.png,0.0,-3.94902,-1.074503,-2.0325904
alexnet_w1_mlp_simclrhn_probe1,1,216,NaN,knife,bear,0.35,0216_nse_dnn_0.35_bear_10_n02134418_5073.png,n02134418_5073.png,0.0,-7.058083,-2.1850958,-3.4457223
alexnet_w1_mlp_simclrhn_probe1,1,217,NaN,knife,airplane,0.90,0217_nse_dnn_0.90_airplane_10_n02690373_9012.png,n02690373_9012.png,0.0,-20.696863,-2.2864137,-13.018154
alexnet_w1_mlp_simclrhn_probe1,1,218,NaN,knife,cat,0.35,0218_nse_dnn_0.35_cat_10_n02123159_6439.png,n02123159_6439.png,0.0,-6.2138524,-1.6228108,-3.2463567
alexnet_w1_mlp_simclrhn_probe1,1,219,NaN,knife,cat,0.60,0219_nse_dnn_0.60_cat_10_n02125311_3616.png,n02125311_3616.png,0.0,-9.937485,-2.5896115,-5.195731
alexnet_w1_mlp_simclrhn_probe1,1,220,NaN,knife,bottle,0.60,0220_nse_dnn_0.60_bottle_10_n04557648_4356.png,n04557648_4356.png,0.0,-6.467843,-2.3739908,-2.8947906
alexnet_w1_mlp_simclrhn_probe1,1,221,NaN,knife,bird,0.35,0221_nse_dnn_0.35_bird_10_n02027492_6813.png,n02027492_6813.png,0.0,-5.713713,-1.4322783,-3.0274317
alexnet_w1_mlp_simclrhn_probe1,1,222,NaN,chair,chair,0.03,0222_nse_dnn_0.03_chair_10_n04429376_26765.png,n04429376_26765.png,1.0,-0.6957922,-0.8807713,0.13079996
alexnet_w1_mlp_simclrhn_probe1,1,223,NaN,knife,elephant,0.35,0223_nse_dnn_0.35_elephant_10_n02504458_4811.png,n02504458_4811.png,0.0,-6.5527472,-1.5451427,-3.5409112
alexnet_w1_mlp_simclrhn_probe1,1,224,NaN,knife,keyboard,0.20,0224_nse_dnn_0.20_keyboard_10_n04505470_1351.png,n04505470_1351.png,0.0,-3.3164196,-2.4346507,-0.6235048
alexnet_w1_mlp_simclrhn_probe1,1,225,NaN,chair,chair,0.05,0225_nse_dnn_0.05_chair_10_n04099969_2532.png,n04099969_2532.png,1.0,-0.34029457,-1.427259,0.76859987
alexnet_w1_mlp_simclrhn_probe1,1,226,NaN,knife,airplane,0.10,0226_nse_dnn_0.10_airplane_10_n02690373_8547.png,n02690373_8547.png,0.0,-2.4597423,-1.1727527,-0.91003907
alexnet_w1_mlp_simclrhn_probe1,1,227,NaN,knife,truck,0.35,0227_nse_dnn_0.35_truck_10_n03417042_23445.png,n03417042_23445.png,0.0,-9.742763,-1.9055004,-5.5417814
alexnet_w1_mlp_simclrhn_probe1,1,228,NaN,knife,truck,0.90,0228_nse_dnn_0.90_truck_10_n04467665_48953.png,n04467665_48953.png,0.0,-19.762327,-2.9413495,-11.894228
alexnet_w1_mlp_simclrhn_probe1,1,229,NaN,knife,boat,0.20,0229_nse_dnn_0.20_boat_10_n03662601_11739.png,n03662601_11739.png,0.0,-5.4074135,-1.091497,-3.0518138
alexnet_w1_mlp_simclrhn_probe1,1,230,NaN,cat,cat,0.03,0230_nse_dnn_0.03_cat_10_n02123597_4948.png,n02123597_4948.png,1.0,0.582764,0.009803456,0.4051443
alexnet_w1_mlp_simclrhn_probe1,1,231,NaN,knife,oven,0.35,0231_nse_dnn_0.35_oven_10_n04111531_9411.png,n04111531_9411.png,0.0,-6.4673944,-1.6564227,-3.4018707
alexnet_w1_mlp_simclrhn_probe1,1,232,NaN,knife,bicycle,0.60,0232_nse_dnn_0.60_bicycle_10_n03792782_988.png,n03792782_988.png,0.0,-14.170389,-2.7126544,-8.101842
alexnet_w1_mlp_simclrhn_probe1,1,233,NaN,elephant,car,0.05,0233_nse_dnn_0.05_car_10_n02814533_65294.png,n02814533_65294.png,0.0,-2.1347382,0.17470305,-1.6330216
alexnet_w1_mlp_simclrhn_probe1,1,234,NaN,bottle,bottle,0.00,0234_nse_dnn_0.00_bottle_10_n04557648_10420.png,n04557648_10420.png,1.0,-0.02194233,-0.3456219,0.22887604
alexnet_w1_mlp_simclrhn_probe1,1,235,NaN,knife,chair,0.60,0235_nse_dnn_0.60_chair_10_n04099969_33329.png,n04099969_33329.png,0.0,-8.737738,-1.8626804,-4.8613997
alexnet_w1_mlp_simclrhn_probe1,1,236,NaN,knife,oven,0.35,0236_nse_dnn_0.35_oven_10_n04111531_20493.png,n04111531_20493.png,0.0,-6.8518987,-1.9797264,-3.445146
alexnet_w1_mlp_simclrhn_probe1,1,237,NaN,knife,clock,0.10,0237_nse_dnn_0.10_clock_10_n04548280_7839.png,n04548280_7839.png,0.0,-1.4719214,-1.0655453,-0.2873513
alexnet_w1_mlp_simclrhn_probe1,1,238,NaN,knife,airplane,0.20,0238_nse_dnn_0.20_airplane_10_n02690373_7229.png,n02690373_7229.png,0.0,-5.5916834,-1.5418098,-2.863693
alexnet_w1_mlp_simclrhn_probe1,1,239,NaN,knife,airplane,0.10,0239_nse_dnn_0.10_airplane_10_n02690373_5003.png,n02690373_5003.png,0.0,-3.29464,-0.7178438,-1.8220701
alexnet_w1_mlp_simclrhn_probe1,1,240,NaN,knife,chair,0.20,0240_nse_dnn_0.20_chair_10_n02791124_206.png,n02791124_206.png,0.0,-2.9300973,-1.9812584,-0.67093045
alexnet_w1_mlp_simclrhn_probe1,1,241,NaN,oven,oven,0.00,0241_nse_dnn_0.00_oven_10_n04111531_7283.png,n04111531_7283.png,1.0,0.40819323,-0.4027188,0.5734014
alexnet_w1_mlp_simclrhn_probe1,1,242,NaN,knife,chair,0.35,0242_nse_dnn_0.35_chair_10_n04429376_8124.png,n04429376_8124.png,0.0,-5.747607,-1.6795278,-2.8765666
alexnet_w1_mlp_simclrhn_probe1,1,243,NaN,keyboard,keyboard,0.00,0243_nse_dnn_0.00_keyboard_10_n04505470_3864.png,n04505470_3864.png,1.0,-1.2570899,-1.3722261,0.081413634
alexnet_w1_mlp_simclrhn_probe1,1,244,NaN,knife,bottle,0.35,0244_nse_dnn_0.35_bottle_10_n03937543_3289.png,n03937543_3289.png,0.0,-4.70844,-1.6767104,-2.1437564
alexnet_w1_mlp_simclrhn_probe1,1,245,NaN,knife,boat,0.10,0245_nse_dnn_0.10_boat_10_n03344393_5207.png,n03344393_5207.png,0.0,-3.3645134,-0.8156177,-1.8023416
alexnet_w1_mlp_simclrhn_probe1,1,246,NaN,knife,airplane,0.90,0246_nse_dnn_0.90_airplane_10_n02690373_629.png,n02690373_629.png,0.0,-19.490095,-2.8623183,-11.757614
alexnet_w1_mlp_simclrhn_probe1,1,247,NaN,elephant,elephant,0.03,0247_nse_dnn_0.03_elephant_10_n02504013_104.png,n02504013_104.png,1.0,1.6661153,0.55252373,0.78742814
alexnet_w1_mlp_simclrhn_probe1,1,248,NaN,bicycle,bicycle,0.03,0248_nse_dnn_0.03_bicycle_10_n03792782_42626.png,n03792782_42626.png,1.0,-0.71572286,-1.1539915,0.3099027
alexnet_w1_mlp_simclrhn_probe1,1,249,NaN,knife,truck,0.35,0249_nse_dnn_0.35_truck_10_n03417042_6847.png,n03417042_6847.png,0.0,-9.64142,-1.7208794,-5.6006684
alexnet_w1_mlp_simclrhn_probe1,1,250,NaN,elephant,chair,0.10,0250_nse_dnn_0.10_chair_10_n04429376_23573.png,n04429376_23573.png,0.0,-1.9839312,-1.2763891,-0.5003078
alexnet_w1_mlp_simclrhn_probe1,1,251,NaN,knife,clock,0.03,0251_nse_dnn_0.03_clock_10_n03196217_7637.png,n03196217_7637.png,0.0,-0.6071908,0.2838908,-0.6300898
alexnet_w1_mlp_simclrhn_probe1,1,252,NaN,knife,airplane,0.05,0252_nse_dnn_0.05_airplane_10_n02690373_932.png,n02690373_932.png,0.0,-1.8414521,-0.617216,-0.8656657
alexnet_w1_mlp_simclrhn_probe1,1,253,NaN,truck,truck,0.05,0253_nse_dnn_0.05_truck_10_n03417042_9478.png,n03417042_9478.png,1.0,-0.5344913,-0.8369997,0.21390575
alexnet_w1_mlp_simclrhn_probe1,1,254,NaN,clock,clock,0.05,0254_nse_dnn_0.05_clock_10_n04548280_7800.png,n04548280_7800.png,1.0,0.32614896,-0.024576917,0.24800065
alexnet_w1_mlp_simclrhn_probe1,1,255,NaN,knife,keyboard,0.10,0255_nse_dnn_0.10_keyboard_10_n03085013_1698.png,n03085013_1698.png,0.0,-2.52691,-0.17593087,-1.6623933
alexnet_w1_mlp_simclrhn_probe1,1,256,NaN,knife,boat,0.20,0256_nse_dnn_0.20_boat_10_n04273569_32553.png,n04273569_32553.png,0.0,-4.7231565,-1.2827137,-2.4327605
alexnet_w1_mlp_simclrhn_probe1,1,257,NaN,bear,bear,0.03,0257_nse_dnn_0.03_bear_10_n02132136_23078.png,n02132136_23078.png,1.0,0.67209303,0.6235368,0.034334425
alexnet_w1_mlp_simclrhn_probe1,1,258,NaN,bottle,bottle,0.00,0258_nse_dnn_0.00_bottle_10_n04591713_5476.png,n04591713_5476.png,1.0,-0.5101496,-1.3442411,0.5897918
alexnet_w1_mlp_simclrhn_probe1,1,259,NaN,oven,knife,0.10,0259_nse_dnn_0.10_knife_10_n03041632_31849.png,n03041632_31849.png,0.0,-1.6637273,-1.655365,-0.0059130345
alexnet_w1_mlp_simclrhn_probe1,1,260,NaN,knife,truck,0.90,0260_nse_dnn_0.90_truck_10_n03417042_12908.png,n03417042_12908.png,0.0,-19.940002,-2.9392998,-12.021312
alexnet_w1_mlp_simclrhn_probe1,1,261,NaN,knife,clock,0.60,0261_nse_dnn_0.60_clock_10_n02708093_1418.png,n02708093_1418.png,0.0,-8.032344,-2.3532858,-4.0157003
alexnet_w1_mlp_simclrhn_probe1,1,262,NaN,car,car,0.05,0262_nse_dnn_0.05_car_10_n03100240_4173.png,n03100240_4173.png,1.0,-0.47038734,-1.183328,0.5041252
alexnet_w1_mlp_simclrhn_probe1,1,263,NaN,keyboard,keyboard,0.10,0263_nse_dnn_0.10_keyboard_10_n03085013_25476.png,n03085013_25476.png,1.0,0.054035664,-1.060109,0.78781927
alexnet_w1_mlp_simclrhn_probe1,1,264,NaN,cat,cat,0.05,0264_nse_dnn_0.05_cat_10_n02125311_34464.png,n02125311_34464.png,1.0,0.67431945,-1.1155899,1.2656571
alexnet_w1_mlp_simclrhn_probe1,1,265,NaN,knife,knife,0.20,0265_nse_dnn_0.20_knife_10_n03041632_36789.png,n03041632_36789.png,1.0,-1.2963098,-2.2180076,0.6517387
alexnet_w1_mlp_simclrhn_probe1,1,266,NaN,dog,dog,0.03,0266_nse_dnn_0.03_dog_10_n02108915_3733.png,n02108915_3733.png,1.0,-1.2152405,-1.2500277,0.02459825
alexnet_w1_mlp_simclrhn_probe1,1,267,NaN,knife,knife,0.60,0267_nse_dnn_0.60_knife_10_n03041632_42162.png,n03041632_42162.png,1.0,-2.688806,-4.61614,1.3628309
alexnet_w1_mlp_simclrhn_probe1,1,268,NaN,knife,keyboard,0.10,0268_nse_dnn_0.10_keyboard_10_n03085013_29042.png,n03085013_29042.png,0.0,-2.873243,-0.8872091,-1.4043381
alexnet_w1_mlp_simclrhn_probe1,1,269,NaN,airplane,airplane,0.00,0269_nse_dnn_0.00_airplane_10_n02690373_19407.png,n02690373_19407.png,1.0,1.6304986,0.6163859,0.71708596
alexnet_w1_mlp_simclrhn_probe1,1,270,NaN,bear,bear,0.05,0270_nse_dnn_0.05_bear_10_n02134084_22029.png,n02134084_22029.png,1.0,-0.9640528,-1.074289,0.07794874
alexnet_w1_mlp_simclrhn_probe1,1,271,NaN,knife,dog,0.60,0271_nse_dnn_0.60_dog_10_n02088238_11711.png,n02088238_11711.png,0.0,-9.991524,-2.6175637,-5.214177
alexnet_w1_mlp_simclrhn_probe1,1,272,NaN,knife,elephant,0.20,0272_nse_dnn_0.20_elephant_10_n02504013_8522.png,n02504013_8522.png,0.0,-2.2735376,-1.1039069,-0.82705384
alexnet_w1_mlp_simclrhn_probe1,1,273,NaN,knife,elephant,0.60,0273_nse_dnn_0.60_elephant_10_n02504458_5941.png,n02504458_5941.png,0.0,-11.396594,-2.2310257,-6.4810357
alexnet_w1_mlp_simclrhn_probe1,1,274,NaN,truck,truck,0.00,0274_nse_dnn_0.00_truck_10_n04467665_242.png,n04467665_242.png,1.0,2.0308995,1.0957589,0.6612443
alexnet_w1_mlp_simclrhn_probe1,1,275,NaN,keyboard,keyboard,0.00,0275_nse_dnn_0.00_keyboard_10_n04505470_4473.png,n04505470_4473.png,1.0,1.0381207,-0.27325484,0.92728263
alexnet_w1_mlp_simclrhn_probe1,1,276,NaN,boat,boat,0.05,0276_nse_dnn_0.05_boat_10_n03662601_10811.png,n03662601_10811.png,1.0,-0.3848638,-1.2821124,0.63445055
alexnet_w1_mlp_simclrhn_probe1,1,277,NaN,keyboard,keyboard,0.03,0277_nse_dnn_0.03_keyboard_10_n03085013_20495.png,n03085013_20495.png,1.0,-0.4281919,-0.61729115,0.13371336
alexnet_w1_mlp_simclrhn_probe1,1,278,NaN,bicycle,bicycle,0.00,0278_nse_dnn_0.00_bicycle_10_n02835271_15038.png,n02835271_15038.png,1.0,3.7580705,-1.2047392,3.5092363
alexnet_w1_mlp_simclrhn_probe1,1,279,NaN,knife,bear,0.20,0279_nse_dnn_0.20_bear_10_n02134418_5271.png,n02134418_5271.png,0.0,-3.5236402,-1.3273115,-1.553039
alexnet_w1_mlp_simclrhn_probe1,1,280,NaN,knife,chair,0.10,0280_nse_dnn_0.10_chair_10_n02791124_1217.png,n02791124_1217.png,0.0,-2.2059484,-1.0153955,-0.841848
alexnet_w1_mlp_simclrhn_probe1,1,281,NaN,elephant,elephant,0.10,0281_nse_dnn_0.10_elephant_10_n02504013_2394.png,n02504013_2394.png,1.0,-0.9573959,-1.289397,0.23476022
alexnet_w1_mlp_simclrhn_probe1,1,282,NaN,knife,dog,0.35,0282_nse_dnn_0.35_dog_10_n02105505_5576.png,n02105505_5576.png,0.0,-6.118569,-1.5772498,-3.2111974
alexnet_w1_mlp_simclrhn_probe1,1,283,NaN,knife,airplane,0.10,0283_nse_dnn_0.10_airplane_10_n02690373_2579.png,n02690373_2579.png,0.0,-3.7348747,-0.8060426,-2.070997
alexnet_w1_mlp_simclrhn_probe1,1,284,NaN,bear,dog,0.05,0284_nse_dnn_0.05_dog_10_n02102480_10015.png,n02102480_10015.png,0.0,-1.1944008,-0.1535171,-0.7360159
alexnet_w1_mlp_simclrhn_probe1,1,285,NaN,knife,cat,0.10,0285_nse_dnn_0.10_cat_10_n02124075_5853.png,n02124075_5853.png,0.0,-1.2743962,-1.0594808,-0.15196814
alexnet_w1_mlp_simclrhn_probe1,1,286,NaN,airplane,truck,0.00,0286_nse_dnn_0.00_truck_10_n03796401_2012.png,n03796401_2012.png,0.0,0.22198233,1.2344103,-0.71589464
alexnet_w1_mlp_simclrhn_probe1,1,287,NaN,knife,keyboard,0.10,0287_nse_dnn_0.10_keyboard_10_n04505470_1286.png,n04505470_1286.png,0.0,-1.3494354,-0.92567134,-0.29964647
alexnet_w1_mlp_simclrhn_probe1,1,288,NaN,chair,truck,0.10,0288_nse_dnn_0.10_truck_10_n04467665_74008.png,n04467665_74008.png,0.0,-2.076433,-1.8462436,-0.16276844
alexnet_w1_mlp_simclrhn_probe1,1,289,NaN,knife,bottle,0.90,0289_nse_dnn_0.90_bottle_10_n04560804_10541.png,n04560804_10541.png,0.0,-7.4453473,-2.4256024,-3.5494957
alexnet_w1_mlp_simclrhn_probe1,1,290,NaN,knife,airplane,0.20,0290_nse_dnn_0.20_airplane_10_n02690373_8967.png,n02690373_8967.png,0.0,-5.7189097,-1.781108,-2.7844465
alexnet_w1_mlp_simclrhn_probe1,1,291,NaN,knife,keyboard,0.60,0291_nse_dnn_0.60_keyboard_10_n04505470_3309.png,n04505470_3309.png,0.0,-5.8290954,-2.516667,-2.3422406
alexnet_w1_mlp_simclrhn_probe1,1,292,NaN,car,car,0.05,0292_nse_dnn_0.05_car_10_n02814533_42665.png,n02814533_42665.png,1.0,1.3828803,0.3632236,0.72100616
alexnet_w1_mlp_simclrhn_probe1,1,293,NaN,cat,bicycle,0.03,0293_nse_dnn_0.03_bicycle_10_n03792782_6613.png,n03792782_6613.png,0.0,-1.3723342,-0.898943,-0.33473817
alexnet_w1_mlp_simclrhn_probe1,1,294,NaN,knife,knife,0.00,0294_nse_dnn_0.00_knife_10_n03041632_38540.png,n03041632_38540.png,1.0,0.7536257,-1.2502093,1.4169253
alexnet_w1_mlp_simclrhn_probe1,1,295,NaN,knife,dog,0.90,0295_nse_dnn_0.90_dog_10_n02109047_6542.png,n02109047_6542.png,0.0,-11.9614105,-2.984697,-6.347495
alexnet_w1_mlp_simclrhn_probe1,1,296,NaN,knife,bicycle,0.35,0296_nse_dnn_0.35_bicycle_10_n03792782_51156.png,n03792782_51156.png,0.0,-6.433392,-1.8646984,-3.2305543
alexnet_w1_mlp_simclrhn_probe1,1,297,NaN,knife,bottle,0.10,0297_nse_dnn_0.10_bottle_10_n04579145_5795.png,n04579145_5795.png,0.0,-1.6715431,-0.67258626,-0.70636916
alexnet_w1_mlp_simclrhn_probe1,1,298,NaN,chair,chair,0.03,0298_nse_dnn_0.03_chair_10_n03376595_787.png,n03376595_787.png,1.0,-0.75506806,-0.8435592,0.06257269
alexnet_w1_mlp_simclrhn_probe1,1,299,NaN,knife,bottle,0.90,0299_nse_dnn_0.90_bottle_10_n04579145_1117.png,n04579145_1117.png,0.0,-7.959919,-2.818212,-3.635736
alexnet_w1_mlp_simclrhn_probe1,1,300,NaN,airplane,bird,0.00,0300_nse_dnn_0.00_bird_10_n01795545_11076.png,n01795545_11076.png,0.0,-1.1363298,-0.37198585,-0.5404728
alexnet_w1_mlp_simclrhn_probe1,1,301,NaN,knife,clock,0.20,0301_nse_dnn_0.20_clock_10_n03196217_6741.png,n03196217_6741.png,0.0,-3.9301555,-1.3806648,-1.8027622
alexnet_w1_mlp_simclrhn_probe1,1,302,NaN,airplane,oven,0.00,0302_nse_dnn_0.00_oven_10_n04111531_3555.png,n04111531_3555.png,0.0,-0.46492234,-0.30394536,-0.113827914
alexnet_w1_mlp_simclrhn_probe1,1,303,NaN,knife,knife,0.20,0303_nse_dnn_0.20_knife_10_n03041632_36280.png,n03041632_36280.png,1.0,-0.84611416,-1.8945184,0.7413337
alexnet_w1_mlp_simclrhn_probe1,1,304,NaN,truck,truck,0.03,0304_nse_dnn_0.03_truck_10_n04467665_74235.png,n04467665_74235.png,1.0,3.4507637,1.7610998,1.1947728
alexnet_w1_mlp_simclrhn_probe1,1,305,NaN,knife,clock,0.90,0305_nse_dnn_0.90_clock_10_n04548280_6287.png,n04548280_6287.png,0.0,-9.391225,-2.4477932,-4.9097476
alexnet_w1_mlp_simclrhn_probe1,1,306,NaN,elephant,elephant,0.00,0306_nse_dnn_0.00_elephant_10_n02504458_6472.png,n02504458_6472.png,1.0,2.4411256,0.4042374,1.4402975
alexnet_w1_mlp_simclrhn_probe1,1,307,NaN,bicycle,bicycle,0.05,0307_nse_dnn_0.05_bicycle_10_n03792782_11034.png,n03792782_11034.png,1.0,0.4830569,-1.3220751,1.2764211
alexnet_w1_mlp_simclrhn_probe1,1,308,NaN,knife,dog,0.60,0308_nse_dnn_0.60_dog_10_n02109525_50916.png,n02109525_50916.png,0.0,-9.356051,-2.49127,-4.8541336
alexnet_w1_mlp_simclrhn_probe1,1,309,NaN,knife,dog,0.60,0309_nse_dnn_0.60_dog_10_n02097658_1923.png,n02097658_1923.png,0.0,-9.719049,-2.643487,-5.003178
alexnet_w1_mlp_simclrhn_probe1,1,310,NaN,elephant,knife,0.03,0310_nse_dnn_0.03_knife_10_n03041632_22480.png,n03041632_22480.png,0.0,-1.7210023,0.05456713,-1.2555172
alexnet_w1_mlp_simclrhn_probe1,1,311,NaN,knife,elephant,0.35,0311_nse_dnn_0.35_elephant_10_n02504458_1041.png,n02504458_1041.png,0.0,-8.409889,-1.4610155,-4.9135957
alexnet_w1_mlp_simclrhn_probe1,1,312,NaN,elephant,knife,0.10,0312_nse_dnn_0.10_knife_10_n03041632_28129.png,n03041632_28129.png,0.0,-2.0414734,-0.03016273,-1.4222114
alexnet_w1_mlp_simclrhn_probe1,1,313,NaN,car,car,0.00,0313_nse_dnn_0.00_car_10_n03100240_14667.png,n03100240_14667.png,1.0,4.247421,2.606629,1.1602151
alexnet_w1_mlp_simclrhn_probe1,1,314,NaN,airplane,airplane,0.03,0314_nse_dnn_0.03_airplane_10_n02690373_3821.png,n02690373_3821.png,1.0,2.0518324,-0.52804935,1.8242519
alexnet_w1_mlp_simclrhn_probe1,1,315,NaN,knife,cat,0.90,0315_nse_dnn_0.90_cat_10_n02124075_1183.png,n02124075_1183.png,0.0,-11.521683,-2.7606304,-6.1949997
alexnet_w1_mlp_simclrhn_probe1,1,316,NaN,knife,car,0.90,0316_nse_dnn_0.90_car_10_n03100240_1194.png,n03100240_1194.png,0.0,-19.04003,-2.8258743,-11.465139
alexnet_w1_mlp_simclrhn_probe1,1,317,NaN,knife,oven,0.60,0317_nse_dnn_0.60_oven_10_n04111531_9370.png,n04111531_9370.png,0.0,-14.283409,-2.5206017,-8.317561
alexnet_w1_mlp_simclrhn_probe1,1,318,NaN,knife,truck,0.20,0318_nse_dnn_0.20_truck_10_n03417042_10597.png,n03417042_10597.png,0.0,-5.8429375,-1.7578611,-2.8885853
alexnet_w1_mlp_simclrhn_probe1,1,319,NaN,elephant,truck,0.05,0319_nse_dnn_0.05_truck_10_n03417042_6489.png,n03417042_6489.png,0.0,-1.6720483,-0.35712567,-0.9297908
alexnet_w1_mlp_simclrhn_probe1,1,320,NaN,bicycle,bottle,0.05,0320_nse_dnn_0.05_bottle_10_n04591713_6662.png,n04591713_6662.png,0.0,-2.2799337,-1.0741657,-0.8526067
alexnet_w1_mlp_simclrhn_probe1,1,321,NaN,knife,bottle,0.60,0321_nse_dnn_0.60_bottle_10_n04560804_4624.png,n04560804_4624.png,0.0,-6.2757325,-2.3284316,-2.7911632
alexnet_w1_mlp_simclrhn_probe1,1,322,NaN,bird,bird,0.00,0322_nse_dnn_0.00_bird_10_n01818515_7370.png,n01818515_7370.png,1.0,-0.6860502,-0.9101801,0.15848379
alexnet_w1_mlp_simclrhn_probe1,1,323,NaN,keyboard,keyboard,0.05,0323_nse_dnn_0.05_keyboard_10_n03085013_15646.png,n03085013_15646.png,1.0,-0.24151732,-0.8411608,0.42401198
alexnet_w1_mlp_simclrhn_probe1,1,324,NaN,cat,cat,0.03,0324_nse_dnn_0.03_cat_10_n02124075_14924.png,n02124075_14924.png,1.0,0.91769624,-0.22483651,0.8078926
alexnet_w1_mlp_simclrhn_probe1,1,325,NaN,elephant,elephant,0.20,0325_nse_dnn_0.20_elephant_10_n02504013_18217.png,n02504013_18217.png,1.0,-1.301031,-1.9830222,0.48224062
alexnet_w1_mlp_simclrhn_probe1,1,326,NaN,knife,keyboard,0.35,0326_nse_dnn_0.35_keyboard_10_n04505470_4724.png,n04505470_4724.png,0.0,-3.427548,-2.18289,-0.88010615
alexnet_w1_mlp_simclrhn_probe1,1,327,NaN,knife,clock,0.20,0327_nse_dnn_0.20_clock_10_n04548280_9646.png,n04548280_9646.png,0.0,-3.483637,-1.6967788,-1.2634996
alexnet_w1_mlp_simclrhn_probe1,1,328,NaN,knife,cat,0.35,0328_nse_dnn_0.35_cat_10_n02123394_6376.png,n02123394_6376.png,0.0,-5.887923,-1.5530727,-3.065202
alexnet_w1_mlp_simclrhn_probe1,1,329,NaN,knife,elephant,0.35,0329_nse_dnn_0.35_elephant_10_n02504458_130.png,n02504458_130.png,0.0,-7.349326,-1.6142733,-4.055295
alexnet_w1_mlp_simclrhn_probe1,1,330,NaN,knife,cat,0.90,0330_nse_dnn_0.90_cat_10_n02124075_9291.png,n02124075_9291.png,0.0,-11.53819,-3.0531955,-5.9997973
alexnet_w1_mlp_simclrhn_probe1,1,331,NaN,knife,bird,0.10,0331_nse_dnn_0.10_bird_10_n02037110_3949.png,n02037110_3949.png,0.0,-1.6675578,-1.150914,-0.3653224
alexnet_w1_mlp_simclrhn_probe1,1,332,NaN,car,car,0.00,0332_nse_dnn_0.00_car_10_n04285008_10905.png,n04285008_10905.png,1.0,3.2755566,2.190071,0.76755416
alexnet_w1_mlp_simclrhn_probe1,1,333,NaN,elephant,chair,0.10,0333_nse_dnn_0.10_chair_10_n04429376_619.png,n04429376_619.png,0.0,-1.6552573,-0.99957347,-0.4636385
alexnet_w1_mlp_simclrhn_probe1,1,334,NaN,knife,boat,0.90,0334_nse_dnn_0.90_boat_10_n02951358_30335.png,n02951358_30335.png,0.0,-18.829784,-2.55946,-11.504857
alexnet_w1_mlp_simclrhn_probe1,1,335,NaN,knife,oven,0.90,0335_nse_dnn_0.90_oven_10_n04111531_17995.png,n04111531_17995.png,0.0,-15.542758,-2.4715838,-9.242717
alexnet_w1_mlp_simclrhn_probe1,1,336,NaN,knife,bird,0.35,0336_nse_dnn_0.35_bird_10_n01828970_11221.png,n01828970_11221.png,0.0,-6.076668,-1.4900907,-3.2431998
alexnet_w1_mlp_simclrhn_probe1,1,337,NaN,elephant,elephant,0.10,0337_nse_dnn_0.10_elephant_10_n02504013_1719.png,n02504013_1719.png,1.0,0.7734455,-0.91267014,1.1922638
alexnet_w1_mlp_simclrhn_probe1,1,338,NaN,chair,oven,0.10,0338_nse_dnn_0.10_oven_10_n04111531_8009.png,n04111531_8009.png,0.0,-1.1828678,-0.80492795,-0.2672438
alexnet_w1_mlp_simclrhn_probe1,1,339,NaN,knife,airplane,0.60,0339_nse_dnn_0.60_airplane_10_n02690373_8233.png,n02690373_8233.png,0.0,-17.290478,-2.5810113,-10.401164
alexnet_w1_mlp_simclrhn_probe1,1,340,NaN,elephant,dog,0.10,0340_nse_dnn_0.10_dog_10_n02092339_401.png,n02092339_401.png,0.0,-1.4232855,-0.482819,-0.6650103
alexnet_w1_mlp_simclrhn_probe1,1,341,NaN,bottle,bottle,0.10,0341_nse_dnn_0.10_bottle_10_n02823428_11579.png,n02823428_11579.png,1.0,-1.2241802,-1.630547,0.28734475
alexnet_w1_mlp_simclrhn_probe1,1,342,NaN,knife,car,0.60,0342_nse_dnn_0.60_car_10_n04285008_6951.png,n04285008_6951.png,0.0,-15.5647,-2.5051422,-9.234502
alexnet_w1_mlp_simclrhn_probe1,1,343,NaN,knife,bicycle,0.35,0343_nse_dnn_0.35_bicycle_10_n03792782_12504.png,n03792782_12504.png,0.0,-8.543456,-1.6954472,-4.8422737
alexnet_w1_mlp_simclrhn_probe1,1,344,NaN,bottle,bottle,0.00,0344_nse_dnn_0.00_bottle_10_n02823428_4073.png,n02823428_4073.png,1.0,0.7469963,-1.1985961,1.3757416
alexnet_w1_mlp_simclrhn_probe1,1,345,NaN,knife,elephant,0.35,0345_nse_dnn_0.35_elephant_10_n02504013_945.png,n02504013_945.png,0.0,-6.891466,-1.7246329,-3.653503
alexnet_w1_mlp_simclrhn_probe1,1,346,NaN,cat,cat,0.10,0346_nse_dnn_0.10_cat_10_n02124075_12815.png,n02124075_12815.png,1.0,-1.2023879,-1.5155828,0.22146222
alexnet_w1_mlp_simclrhn_probe1,1,347,NaN,knife,truck,0.60,0347_nse_dnn_0.60_truck_10_n03417042_4876.png,n03417042_4876.png,0.0,-15.355272,-2.3232942,-9.215
alexnet_w1_mlp_simclrhn_probe1,1,348,NaN,chair,keyboard,0.05,0348_nse_dnn_0.05_keyboard_10_n04505470_4628.png,n04505470_4628.png,0.0,-2.7165756,0.39943027,-2.2033489
alexnet_w1_mlp_simclrhn_probe1,1,349,NaN,knife,bear,0.20,0349_nse_dnn_0.20_bear_10_n02133161_1427.png,n02133161_1427.png,0.0,-3.690146,-1.0887847,-1.8394402
alexnet_w1_mlp_simclrhn_probe1,1,350,NaN,knife,boat,0.60,0350_nse_dnn_0.60_boat_10_n04273569_7296.png,n04273569_7296.png,0.0,-16.640821,-2.1739635,-10.229613
alexnet_w1_mlp_simclrhn_probe1,1,351,NaN,knife,chair,0.90,0351_nse_dnn_0.90_chair_10_n04099969_41686.png,n04099969_41686.png,0.0,-10.960962,-2.778309,-5.78601
alexnet_w1_mlp_simclrhn_probe1,1,352,NaN,knife,airplane,0.03,0352_nse_dnn_0.03_airplane_10_n02690373_10006.png,n02690373_10006.png,0.0,-2.7070684,-1.7718773,-0.66128004
alexnet_w1_mlp_simclrhn_probe1,1,353,NaN,knife,knife,0.90,0353_nse_dnn_0.90_knife_10_n03041632_20595.png,n03041632_20595.png,1.0,-2.8119287,-4.1774683,0.9655823
alexnet_w1_mlp_simclrhn_probe1,1,354,NaN,knife,oven,0.90,0354_nse_dnn_0.90_oven_10_n04111531_2054.png,n04111531_2054.png,0.0,-15.904963,-2.9792523,-9.139858
alexnet_w1_mlp_simclrhn_probe1,1,355,NaN,knife,truck,0.20,0355_nse_dnn_0.20_truck_10_n04467665_40307.png,n04467665_40307.png,0.0,-6.2760496,-1.8285311,-3.1448705
alexnet_w1_mlp_simclrhn_probe1,1,356,NaN,bear,bear,0.00,0356_nse_dnn_0.00_bear_10_n02133161_396.png,n02133161_396.png,1.0,1.6088136,1.0581863,0.38935235
alexnet_w1_mlp_simclrhn_probe1,1,357,NaN,bear,dog,0.03,0357_nse_dnn_0.03_dog_10_n02105056_5636.png,n02105056_5636.png,0.0,-0.6763499,0.11802444,-0.5617075
alexnet_w1_mlp_simclrhn_probe1,1,358,NaN,knife,bicycle,0.35,0358_nse_dnn_0.35_bicycle_10_n02835271_8798.png,n02835271_8798.png,0.0,-6.943717,-1.8532796,-3.5994828
alexnet_w1_mlp_simclrhn_probe1,1,359,NaN,knife,bear,0.90,0359_nse_dnn_0.90_bear_10_n02134418_5478.png,n02134418_5478.png,0.0,-17.14468,-2.857236,-10.102749
alexnet_w1_mlp_simclrhn_probe1,1,360,NaN,knife,boat,0.90,0360_nse_dnn_0.90_boat_10_n04612504_4250.png,n04612504_4250.png,0.0,-20.87868,-3.0795093,-12.585914
alexnet_w1_mlp_simclrhn_probe1,1,361,NaN,knife,knife,0.35,0361_nse_dnn_0.35_knife_10_n03041632_18959.png,n03041632_18959.png,1.0,-1.4196076,-4.3163676,2.0483186
alexnet_w1_mlp_simclrhn_probe1,1,362,NaN,knife,dog,0.35,0362_nse_dnn_0.35_dog_10_n02105251_6564.png,n02105251_6564.png,0.0,-6.4025474,-1.1960497,-3.6815498
alexnet_w1_mlp_simclrhn_probe1,1,363,NaN,knife,boat,0.90,0363_nse_dnn_0.90_boat_10_n04612504_7148.png,n04612504_7148.png,0.0,-19.652412,-2.609451,-12.051193
alexnet_w1_mlp_simclrhn_probe1,1,364,NaN,knife,boat,0.03,0364_nse_dnn_0.03_boat_10_n04273569_4348.png,n04273569_4348.png,0.0,-0.9121558,-0.56775975,-0.24352479
alexnet_w1_mlp_simclrhn_probe1,1,365,NaN,car,car,0.03,0365_nse_dnn_0.03_car_10_n02814533_88986.png,n02814533_88986.png,1.0,2.4350946,1.0576911,0.97397137
alexnet_w1_mlp_simclrhn_probe1,1,366,NaN,bear,bear,0.03,0366_nse_dnn_0.03_bear_10_n02134418_2590.png,n02134418_2590.png,1.0,1.3352289,0.36290336,0.687538
alexnet_w1_mlp_simclrhn_probe1,1,367,NaN,elephant,bird,0.20,0367_nse_dnn_0.20_bird_10_n02007558_5877.png,n02007558_5877.png,0.0,-2.4877796,-1.3381631,-0.8129016
alexnet_w1_mlp_simclrhn_probe1,1,368,NaN,clock,clock,0.05,0368_nse_dnn_0.05_clock_10_n02708093_1313.png,n02708093_1313.png,1.0,-0.8063886,-1.7623146,0.6759417
alexnet_w1_mlp_simclrhn_probe1,1,369,NaN,knife,keyboard,0.35,0369_nse_dnn_0.35_keyboard_10_n03085013_20798.png,n03085013_20798.png,0.0,-3.134696,-1.7166318,-1.0027229
alexnet_w1_mlp_simclrhn_probe1,1,370,NaN,knife,dog,0.90,0370_nse_dnn_0.90_dog_10_n02109525_13812.png,n02109525_13812.png,0.0,-11.41964,-2.7326212,-6.1426497
alexnet_w1_mlp_simclrhn_probe1,1,371,NaN,cat,bear,0.20,0371_nse_dnn_0.20_bear_10_n02134418_4458.png,n02134418_4458.png,0.0,-2.139507,-1.7444412,-0.2793538
alexnet_w1_mlp_simclrhn_probe1,1,372,NaN,knife,bottle,0.20,0372_nse_dnn_0.20_bottle_10_n04560804_21519.png,n04560804_21519.png,0.0,-3.461578,-1.8137068,-1.1652209
alexnet_w1_mlp_simclrhn_probe1,1,373,NaN,elephant,elephant,0.10,0373_nse_dnn_0.10_elephant_10_n02504458_8183.png,n02504458_8183.png,1.0,0.21336563,-1.5223471,1.2273343
alexnet_w1_mlp_simclrhn_probe1,1,374,NaN,knife,keyboard,0.90,0374_nse_dnn_0.90_keyboard_10_n03085013_20330.png,n03085013_20330.png,0.0,-4.39721,-2.6536942,-1.232852
alexnet_w1_mlp_simclrhn_probe1,1,375,NaN,elephant,elephant,0.10,0375_nse_dnn_0.10_elephant_10_n02504013_5533.png,n02504013_5533.png,1.0,-0.9489732,-1.6774062,0.5150799
alexnet_w1_mlp_simclrhn_probe1,1,376,NaN,knife,oven,0.90,0376_nse_dnn_0.90_oven_10_n04111531_1009.png,n04111531_1009.png,0.0,-16.973993,-2.7938983,-10.026841
alexnet_w1_mlp_simclrhn_probe1,1,377,NaN,bicycle,bicycle,0.05,0377_nse_dnn_0.05_bicycle_10_n03792782_48457.png,n03792782_48457.png,1.0,0.9467014,-1.8165519,1.9539151
alexnet_w1_mlp_simclrhn_probe1,1,378,NaN,elephant,cat,0.10,0378_nse_dnn_0.10_cat_10_n02124075_7240.png,n02124075_7240.png,0.0,-1.1654562,-1.094274,-0.05033337
alexnet_w1_mlp_simclrhn_probe1,1,379,NaN,knife,car,0.60,0379_nse_dnn_0.60_car_10_n02814533_39597.png,n02814533_39597.png,0.0,-15.221301,-2.436688,-9.040087
alexnet_w1_mlp_simclrhn_probe1,1,380,NaN,knife,chair,0.03,0380_nse_dnn_0.03_chair_10_n04429376_33792.png,n04429376_33792.png,0.0,-0.8691888,-0.37407023,-0.3501017
alexnet_w1_mlp_simclrhn_probe1,1,381,NaN,knife,bicycle,0.60,0381_nse_dnn_0.60_bicycle_10_n03792782_15679.png,n03792782_15679.png,0.0,-13.587296,-2.8135307,-7.618202
alexnet_w1_mlp_simclrhn_probe1,1,382,NaN,knife,bicycle,0.60,0382_nse_dnn_0.60_bicycle_10_n02835271_9237.png,n02835271_9237.png,0.0,-12.983708,-2.193654,-7.6297207
alexnet_w1_mlp_simclrhn_probe1,1,383,NaN,knife,bottle,0.35,0383_nse_dnn_0.35_bottle_10_n04591713_665.png,n04591713_665.png,0.0,-4.413106,-1.5974498,-1.9909697
alexnet_w1_mlp_simclrhn_probe1,1,384,NaN,elephant,cat,0.03,0384_nse_dnn_0.03_cat_10_n02123159_8257.png,n02123159_8257.png,0.0,-0.77079725,-0.5213392,-0.1763935
alexnet_w1_mlp_simclrhn_probe1,1,385,NaN,cat,dog,0.10,0385_nse_dnn_0.10_dog_10_n02108551_26509.png,n02108551_26509.png,0.0,-1.6794994,-0.8184933,-0.60882324
alexnet_w1_mlp_simclrhn_probe1,1,386,NaN,knife,clock,0.60,0386_nse_dnn_0.60_clock_10_n03196217_3697.png,n03196217_3697.png,0.0,-7.631378,-2.3576598,-3.729082
alexnet_w1_mlp_simclrhn_probe1,1,387,NaN,bicycle,bicycle,0.03,0387_nse_dnn_0.03_bicycle_10_n02835271_25268.png,n02835271_25268.png,1.0,1.0496995,-1.0965462,1.517625
alexnet_w1_mlp_simclrhn_probe1,1,388,NaN,oven,truck,0.10,0388_nse_dnn_0.10_truck_10_n03796401_407.png,n03796401_407.png,0.0,-5.193672,-1.6806698,-2.484068
alexnet_w1_mlp_simclrhn_probe1,1,389,NaN,clock,clock,0.05,0389_nse_dnn_0.05_clock_10_n04548280_2045.png,n04548280_2045.png,1.0,-0.0030883153,-1.4760962,1.0415738
alexnet_w1_mlp_simclrhn_probe1,1,390,NaN,elephant,oven,0.05,0390_nse_dnn_0.05_oven_10_n04111531_5792.png,n04111531_5792.png,0.0,-1.2078379,-0.58354425,-0.4414423
alexnet_w1_mlp_simclrhn_probe1,1,391,NaN,elephant,elephant,0.05,0391_nse_dnn_0.05_elephant_10_n02504458_8212.png,n02504458_8212.png,1.0,0.67724043,-1.4880581,1.5310973
alexnet_w1_mlp_simclrhn_probe1,1,392,NaN,knife,bird,0.03,0392_nse_dnn_0.03_bird_10_n01843383_8624.png,n01843383_8624.png,0.0,-2.4508898,0.017780013,-1.7456132
alexnet_w1_mlp_simclrhn_probe1,1,393,NaN,knife,airplane,0.20,0393_nse_dnn_0.20_airplane_10_n02690373_4814.png,n02690373_4814.png,0.0,-6.3596463,-1.3160894,-3.5663335
alexnet_w1_mlp_simclrhn_probe1,1,394,NaN,knife,truck,0.60,0394_nse_dnn_0.60_truck_10_n03796401_6184.png,n03796401_6184.png,0.0,-15.476521,-2.2604475,-9.345175
alexnet_w1_mlp_simclrhn_probe1,1,395,NaN,elephant,dog,0.03,0395_nse_dnn_0.03_dog_10_n02094114_1589.png,n02094114_1589.png,0.0,-0.8862762,-0.2607887,-0.44228643
alexnet_w1_mlp_simclrhn_probe1,1,396,NaN,knife,clock,0.90,0396_nse_dnn_0.90_clock_10_n02708093_6572.png,n02708093_6572.png,0.0,-9.527839,-3.364406,-4.358205
alexnet_w1_mlp_simclrhn_probe1,1,397,NaN,knife,boat,0.60,0397_nse_dnn_0.60_boat_10_n02951358_15551.png,n02951358_15551.png,0.0,-17.653181,-2.3935003,-10.790224
alexnet_w1_mlp_simclrhn_probe1,1,398,NaN,knife,boat,0.35,0398_nse_dnn_0.35_boat_10_n03662601_7352.png,n03662601_7352.png,0.0,-9.01017,-2.1849496,-4.8261595
alexnet_w1_mlp_simclrhn_probe1,1,399,NaN,knife,bicycle,0.60,0399_nse_dnn_0.60_bicycle_10_n03792782_14984.png,n03792782_14984.png,0.0,-14.145984,-2.4489195,-8.271073
alexnet_w1_mlp_simclrhn_probe1,1,400,NaN,knife,knife,0.35,0400_nse_dnn_0.35_knife_10_n03041632_84012.png,n03041632_84012.png,1.0,-1.435353,-4.928739,2.470197
alexnet_w1_mlp_simclrhn_probe1,1,401,NaN,knife,keyboard,0.10,0401_nse_dnn_0.10_keyboard_10_n03085013_9146.png,n03085013_9146.png,0.0,-2.6539612,-0.79328537,-1.3156965
alexnet_w1_mlp_simclrhn_probe1,1,402,NaN,bird,airplane,0.03,0402_nse_dnn_0.03_airplane_10_n02690373_6755.png,n02690373_6755.png,0.0,-1.3156489,-1.0746558,-0.17040789
alexnet_w1_mlp_simclrhn_probe1,1,403,NaN,knife,dog,0.20,0403_nse_dnn_0.20_dog_10_n02086079_17983.png,n02086079_17983.png,0.0,-3.747236,-1.540048,-1.5607177
alexnet_w1_mlp_simclrhn_probe1,1,404,NaN,bear,bear,0.00,0404_nse_dnn_0.00_bear_10_n02134418_3284.png,n02134418_3284.png,1.0,1.4337339,0.46121147,0.68767726
alexnet_w1_mlp_simclrhn_probe1,1,405,NaN,knife,elephant,0.35,0405_nse_dnn_0.35_elephant_10_n02504458_8064.png,n02504458_8064.png,0.0,-4.9629784,-2.1416965,-1.9949476
alexnet_w1_mlp_simclrhn_probe1,1,406,NaN,knife,cat,0.20,0406_nse_dnn_0.20_cat_10_n02123394_289.png,n02123394_289.png,0.0,-2.9648159,-1.5111201,-1.0279181
alexnet_w1_mlp_simclrhn_probe1,1,407,NaN,knife,knife,0.20,0407_nse_dnn_0.20_knife_10_n03041632_18995.png,n03041632_18995.png,1.0,-1.0672092,-3.1961672,1.5054007
alexnet_w1_mlp_simclrhn_probe1,1,408,NaN,knife,bird,0.03,0408_nse_dnn_0.03_bird_10_n01843065_4999.png,n01843065_4999.png,0.0,-1.9042472,-0.57877177,-0.9372527
alexnet_w1_mlp_simclrhn_probe1,1,409,NaN,knife,keyboard,0.60,0409_nse_dnn_0.60_keyboard_10_n03085013_22417.png,n03085013_22417.png,0.0,-3.8974657,-2.3465152,-1.0966877
alexnet_w1_mlp_simclrhn_probe1,1,410,NaN,bear,bear,0.05,0410_nse_dnn_0.05_bear_10_n02132136_3224.png,n02132136_3224.png,1.0,-0.5449762,-0.9730085,0.30266458
alexnet_w1_mlp_simclrhn_probe1,1,411,NaN,bicycle,boat,0.05,0411_nse_dnn_0.05_boat_10_n03662601_33184.png,n03662601_33184.png,0.0,-1.7063828,-0.52768135,-0.8334678
alexnet_w1_mlp_simclrhn_probe1,1,412,NaN,knife,bear,0.05,0412_nse_dnn_0.05_bear_10_n02133161_2396.png,n02133161_2396.png,0.0,-1.3857872,-0.054170936,-0.9415949
alexnet_w1_mlp_simclrhn_probe1,1,413,NaN,knife,keyboard,0.35,0413_nse_dnn_0.35_keyboard_10_n03085013_24578.png,n03085013_24578.png,0.0,-3.4701505,-1.2142717,-1.5951474
alexnet_w1_mlp_simclrhn_probe1,1,414,NaN,knife,car,0.35,0414_nse_dnn_0.35_car_10_n02814533_4519.png,n02814533_4519.png,0.0,-9.806296,-1.5800805,-5.816813
alexnet_w1_mlp_simclrhn_probe1,1,415,NaN,bottle,bottle,0.00,0415_nse_dnn_0.00_bottle_10_n03937543_2428.png,n03937543_2428.png,1.0,-0.018476384,-0.7706379,0.53185856
alexnet_w1_mlp_simclrhn_probe1,1,416,NaN,elephant,dog,0.05,0416_nse_dnn_0.05_dog_10_n02091635_8296.png,n02091635_8296.png,0.0,-1.608388,0.13256726,-1.2310413
alexnet_w1_mlp_simclrhn_probe1,1,417,NaN,knife,bottle,0.35,0417_nse_dnn_0.35_bottle_10_n03983396_11434.png,n03983396_11434.png,0.0,-4.6761003,-1.5696579,-2.1965866
alexnet_w1_mlp_simclrhn_probe1,1,418,NaN,bicycle,boat,0.00,0418_nse_dnn_0.00_boat_10_n02951358_7315.png,n02951358_7315.png,0.0,-0.933449,-0.29689732,-0.45011
alexnet_w1_mlp_simclrhn_probe1,1,419,NaN,knife,bird,0.20,0419_nse_dnn_0.20_bird_10_n01860187_7297.png,n01860187_7297.png,0.0,-3.3655987,-1.7147844,-1.167302
alexnet_w1_mlp_simclrhn_probe1,1,420,NaN,knife,oven,0.20,0420_nse_dnn_0.20_oven_10_n04111531_4250.png,n04111531_4250.png,0.0,-3.5951004,-1.5570586,-1.4411132
alexnet_w1_mlp_simclrhn_probe1,1,421,NaN,knife,bear,0.20,0421_nse_dnn_0.20_bear_10_n02133161_9463.png,n02133161_9463.png,0.0,-3.352447,-1.3607789,-1.4083221
alexnet_w1_mlp_simclrhn_probe1,1,422,NaN,bird,bird,0.00,0422_nse_dnn_0.00_bird_10_n02009229_4129.png,n02009229_4129.png,1.0,0.39366606,-0.39239448,0.55582875
alexnet_w1_mlp_simclrhn_probe1,1,423,NaN,knife,knife,0.10,0423_nse_dnn_0.10_knife_10_n03041632_30821.png,n03041632_30821.png,1.0,-0.2899189,-2.2106807,1.3581837
alexnet_w1_mlp_simclrhn_probe1,1,424,NaN,knife,cat,0.90,0424_nse_dnn_0.90_cat_10_n02123394_2490.png,n02123394_2490.png,0.0,-11.918907,-2.827135,-6.428854
alexnet_w1_mlp_simclrhn_probe1,1,425,NaN,dog,dog,0.00,0425_nse_dnn_0.00_dog_10_n02087394_2723.png,n02087394_2723.png,1.0,0.20608774,-0.6202552,0.5843127
alexnet_w1_mlp_simclrhn_probe1,1,426,NaN,knife,dog,0.90,0426_nse_dnn_0.90_dog_10_n02093754_5736.png,n02093754_5736.png,0.0,-12.097702,-2.450211,-6.821807
alexnet_w1_mlp_simclrhn_probe1,1,427,NaN,knife,bottle,0.60,0427_nse_dnn_0.60_bottle_10_n02823428_9063.png,n02823428_9063.png,0.0,-6.4839983,-2.283217,-2.970401
alexnet_w1_mlp_simclrhn_probe1,1,428,NaN,knife,truck,0.60,0428_nse_dnn_0.60_truck_10_n04467665_20933.png,n04467665_20933.png,0.0,-15.526127,-2.097403,-9.495543
alexnet_w1_mlp_simclrhn_probe1,1,429,NaN,knife,car,0.10,0429_nse_dnn_0.10_car_10_n03100240_5999.png,n03100240_5999.png,0.0,-4.227177,-0.55738235,-2.5949368
alexnet_w1_mlp_simclrhn_probe1,1,430,NaN,chair,oven,0.03,0430_nse_dnn_0.03_oven_10_n04111531_3671.png,n04111531_3671.png,0.0,-1.1994092,-0.41693234,-0.5532947
alexnet_w1_mlp_simclrhn_probe1,1,431,NaN,elephant,truck,0.05,0431_nse_dnn_0.05_truck_10_n03417042_7187.png,n03417042_7187.png,0.0,-2.7123423,-0.51180613,-1.5560142
alexnet_w1_mlp_simclrhn_probe1,1,432,NaN,knife,bottle,0.35,0432_nse_dnn_0.35_bottle_10_n04557648_2954.png,n04557648_2954.png,0.0,-4.500396,-1.4703805,-2.1425443
alexnet_w1_mlp_simclrhn_probe1,1,433,NaN,knife,elephant,0.35,0433_nse_dnn_0.35_elephant_10_n02504013_6645.png,n02504013_6645.png,0.0,-7.638033,-1.6618086,-4.225829
alexnet_w1_mlp_simclrhn_probe1,1,434,NaN,knife,keyboard,0.10,0434_nse_dnn_0.10_keyboard_10_n04505470_6876.png,n04505470_6876.png,0.0,-2.6016006,-2.2762597,-0.23005082
alexnet_w1_mlp_simclrhn_probe1,1,435,NaN,elephant,bird,0.20,0435_nse_dnn_0.20_bird_10_n02056570_3286.png,n02056570_3286.png,0.0,-5.6315618,-1.1992468,-3.13412
alexnet_w1_mlp_simclrhn_probe1,1,436,NaN,knife,bird,0.90,0436_nse_dnn_0.90_bird_10_n02037110_8826.png,n02037110_8826.png,0.0,-10.884603,-2.8719306,-5.665815
alexnet_w1_mlp_simclrhn_probe1,1,437,NaN,car,car,0.00,0437_nse_dnn_0.00_car_10_n03100240_11400.png,n03100240_11400.png,1.0,2.941719,2.8448434,0.06850144
alexnet_w1_mlp_simclrhn_probe1,1,438,NaN,knife,bird,0.60,0438_nse_dnn_0.60_bird_10_n02018795_6389.png,n02018795_6389.png,0.0,-9.554994,-2.4306235,-5.0376906
alexnet_w1_mlp_simclrhn_probe1,1,439,NaN,knife,oven,0.35,0439_nse_dnn_0.35_oven_10_n04111531_2458.png,n04111531_2458.png,0.0,-7.3909125,-2.086783,-3.750586
alexnet_w1_mlp_simclrhn_probe1,1,440,NaN,knife,cat,0.60,0440_nse_dnn_0.60_cat_10_n02123159_2256.png,n02123159_2256.png,0.0,-10.036711,-2.5357356,-5.3039904
alexnet_w1_mlp_simclrhn_probe1,1,441,NaN,elephant,elephant,0.03,0441_nse_dnn_0.03_elephant_10_n02504458_611.png,n02504458_611.png,1.0,4.6916914,1.9282255,1.9540654
alexnet_w1_mlp_simclrhn_probe1,1,442,NaN,elephant,knife,0.03,0442_nse_dnn_0.03_knife_10_n03041632_18141.png,n03041632_18141.png,0.0,-1.2674909,1.3621106,-1.8594091
alexnet_w1_mlp_simclrhn_probe1,1,443,NaN,knife,bird,0.60,0443_nse_dnn_0.60_bird_10_n01843065_1871.png,n01843065_1871.png,0.0,-10.494514,-2.3370233,-5.7682176
alexnet_w1_mlp_simclrhn_probe1,1,444,NaN,oven,bird,0.05,0444_nse_dnn_0.05_bird_10_n01833805_7361.png,n01833805_7361.png,0.0,-2.9890716,-0.8384864,-1.5206934
alexnet_w1_mlp_simclrhn_probe1,1,445,NaN,knife,elephant,0.20,0445_nse_dnn_0.20_elephant_10_n02504458_5827.png,n02504458_5827.png,0.0,-3.0546231,-1.6327817,-1.0053937
alexnet_w1_mlp_simclrhn_probe1,1,446,NaN,knife,bicycle,0.35,0446_nse_dnn_0.35_bicycle_10_n02835271_5825.png,n02835271_5825.png,0.0,-7.46349,-1.6149347,-4.1355534
alexnet_w1_mlp_simclrhn_probe1,1,447,NaN,knife,bear,0.90,0447_nse_dnn_0.90_bear_10_n02134084_12801.png,n02134084_12801.png,0.0,-16.098272,-2.9535093,-9.294751
alexnet_w1_mlp_simclrhn_probe1,1,448,NaN,elephant,cat,0.10,0448_nse_dnn_0.10_cat_10_n02123394_3611.png,n02123394_3611.png,0.0,-1.2275399,-0.689065,-0.38075927
alexnet_w1_mlp_simclrhn_probe1,1,449,NaN,knife,chair,0.35,0449_nse_dnn_0.35_chair_10_n04429376_9589.png,n04429376_9589.png,0.0,-5.8761377,-1.8176104,-2.8698123
alexnet_w1_mlp_simclrhn_probe1,1,450,NaN,knife,cat,0.35,0450_nse_dnn_0.35_cat_10_n02123394_3885.png,n02123394_3885.png,0.0,-5.954845,-1.7324538,-2.9856815
alexnet_w1_mlp_simclrhn_probe1,1,451,NaN,knife,elephant,0.90,0451_nse_dnn_0.90_elephant_10_n02504013_22633.png,n02504013_22633.png,0.0,-15.404396,-2.8754063,-8.859334
alexnet_w1_mlp_simclrhn_probe1,1,452,NaN,knife,car,0.20,0452_nse_dnn_0.20_car_10_n02814533_2271.png,n02814533_2271.png,0.0,-6.2568283,-2.0136576,-3.0003748
alexnet_w1_mlp_simclrhn_probe1,1,453,NaN,elephant,truck,0.05,0453_nse_dnn_0.05_truck_10_n03417042_10150.png,n03417042_10150.png,0.0,-1.8883163,-1.0130901,-0.61887836
alexnet_w1_mlp_simclrhn_probe1,1,454,NaN,knife,oven,0.35,0454_nse_dnn_0.35_oven_10_n04111531_10583.png,n04111531_10583.png,0.0,-8.350746,-1.6999787,-4.7028027
alexnet_w1_mlp_simclrhn_probe1,1,455,NaN,bottle,bottle,0.03,0455_nse_dnn_0.03_bottle_10_n03937543_1602.png,n03937543_1602.png,1.0,1.2894644,-1.277376,1.8150303
alexnet_w1_mlp_simclrhn_probe1,1,456,NaN,knife,knife,0.03,0456_nse_dnn_0.03_knife_10_n03041632_3504.png,n03041632_3504.png,1.0,-0.65143144,-0.9154234,0.1866705
alexnet_w1_mlp_simclrhn_probe1,1,457,NaN,bicycle,bicycle,0.03,0457_nse_dnn_0.03_bicycle_10_n03792782_1004.png,n03792782_1004.png,1.0,0.4629344,0.40262392,0.042645954
alexnet_w1_mlp_simclrhn_probe1,1,458,NaN,cat,cat,0.05,0458_nse_dnn_0.05_cat_10_n02123394_8172.png,n02123394_8172.png,1.0,-0.59098333,-1.0452738,0.32123187
alexnet_w1_mlp_simclrhn_probe1,1,459,NaN,elephant,elephant,0.10,0459_nse_dnn_0.10_elephant_10_n02504013_156.png,n02504013_156.png,1.0,0.71390647,-1.4021997,1.4963131
alexnet_w1_mlp_simclrhn_probe1,1,460,NaN,bicycle,car,0.03,0460_nse_dnn_0.03_car_10_n04285008_5559.png,n04285008_5559.png,0.0,-2.3265927,-0.50482374,-1.2881852
alexnet_w1_mlp_simclrhn_probe1,1,461,NaN,knife,elephant,0.35,0461_nse_dnn_0.35_elephant_10_n02504458_6694.png,n02504458_6694.png,0.0,-5.5192323,-2.0192974,-2.4748278
alexnet_w1_mlp_simclrhn_probe1,1,462,NaN,knife,car,0.90,0462_nse_dnn_0.90_car_10_n04285008_15003.png,n04285008_15003.png,0.0,-18.479286,-2.6196861,-11.214431
alexnet_w1_mlp_simclrhn_probe1,1,463,NaN,knife,chair,0.10,0463_nse_dnn_0.10_chair_10_n03376595_15723.png,n03376595_15723.png,0.0,-2.0547915,-0.81977224,-0.8732905
alexnet_w1_mlp_simclrhn_probe1,1,464,NaN,knife,knife,0.60,0464_nse_dnn_0.60_knife_10_n03041632_48816.png,n03041632_48816.png,1.0,-2.3838015,-4.6031466,1.569314
alexnet_w1_mlp_simclrhn_probe1,1,465,NaN,knife,chair,0.90,0465_nse_dnn_0.90_chair_10_n03376595_4142.png,n03376595_4142.png,0.0,-10.836009,-2.7779238,-5.697927
alexnet_w1_mlp_simclrhn_probe1,1,466,NaN,knife,car,0.60,0466_nse_dnn_0.60_car_10_n04285008_2363.png,n04285008_2363.png,0.0,-15.4578705,-2.5428216,-9.1323185
alexnet_w1_mlp_simclrhn_probe1,1,467,NaN,elephant,truck,0.10,0467_nse_dnn_0.10_truck_10_n03417042_7335.png,n03417042_7335.png,0.0,-4.768897,-0.9671581,-2.6882355
alexnet_w1_mlp_simclrhn_probe1,1,468,NaN,oven,oven,0.00,0468_nse_dnn_0.00_oven_10_n04111531_6313.png,n04111531_6313.png,1.0,0.7760385,-0.7986517,1.1134741
alexnet_w1_mlp_simclrhn_probe1,1,469,NaN,elephant,bird,0.05,0469_nse_dnn_0.05_bird_10_n02033041_6728.png,n02033041_6728.png,0.0,-0.65040797,-0.3924261,-0.18242073
alexnet_w1_mlp_simclrhn_probe1,1,470,NaN,oven,clock,0.00,0470_nse_dnn_0.00_clock_10_n04548280_1032.png,n04548280_1032.png,0.0,-2.0921981,-0.86482173,-0.86788625
alexnet_w1_mlp_simclrhn_probe1,1,471,NaN,airplane,airplane,0.03,0471_nse_dnn_0.03_airplane_10_n02690373_1983.png,n02690373_1983.png,1.0,0.9448854,-0.5309955,1.0436053
alexnet_w1_mlp_simclrhn_probe1,1,472,NaN,chair,keyboard,0.00,0472_nse_dnn_0.00_keyboard_10_n03085013_23369.png,n03085013_23369.png,0.0,-2.188859,1.0310658,-2.2768307
alexnet_w1_mlp_simclrhn_probe1,1,473,NaN,knife,elephant,0.90,0473_nse_dnn_0.90_elephant_10_n02504458_2419.png,n02504458_2419.png,0.0,-15.510527,-2.6556318,-9.089784
alexnet_w1_mlp_simclrhn_probe1,1,474,NaN,knife,truck,0.20,0474_nse_dnn_0.20_truck_10_n04467665_72022.png,n04467665_72022.png,0.0,-5.6839247,-1.3370694,-3.073691
alexnet_w1_mlp_simclrhn_probe1,1,475,NaN,knife,bottle,0.05,0475_nse_dnn_0.05_bottle_10_n04579145_5289.png,n04579145_5289.png,0.0,-1.0379177,-0.5254007,-0.3624043
alexnet_w1_mlp_simclrhn_probe1,1,476,NaN,clock,clock,0.05,0476_nse_dnn_0.05_clock_10_n02708093_2898.png,n02708093_2898.png,1.0,1.1399838,-0.93812245,1.469443
alexnet_w1_mlp_simclrhn_probe1,1,477,NaN,knife,dog,0.20,0477_nse_dnn_0.20_dog_10_n02101556_4066.png,n02101556_4066.png,0.0,-3.1567223,-1.837789,-0.93262666
alexnet_w1_mlp_simclrhn_probe1,1,478,NaN,knife,car,0.90,0478_nse_dnn_0.90_car_10_n04285008_17052.png,n04285008_17052.png,0.0,-17.346403,-2.6612864,-10.383945
alexnet_w1_mlp_simclrhn_probe1,1,479,NaN,knife,truck,0.90,0479_nse_dnn_0.90_truck_10_n04467665_37811.png,n04467665_37811.png,0.0,-19.753078,-2.3350158,-12.31643
alexnet_w1_mlp_simclrhn_probe1,1,480,NaN,elephant,keyboard,0.20,0480_nse_dnn_0.20_keyboard_10_n04505470_578.png,n04505470_578.png,0.0,-5.4697027,-1.7250607,-2.6478617
alexnet_w1_mlp_simclrhn_probe1,1,481,NaN,knife,cat,0.10,0481_nse_dnn_0.10_cat_10_n02123045_2721.png,n02123045_2721.png,0.0,-2.188793,-1.9866562,-0.14293227
alexnet_w1_mlp_simclrhn_probe1,1,482,NaN,knife,car,0.10,0482_nse_dnn_0.10_car_10_n04285008_7776.png,n04285008_7776.png,0.0,-4.992117,-0.81683177,-2.9523726
alexnet_w1_mlp_simclrhn_probe1,1,483,NaN,knife,bottle,0.90,0483_nse_dnn_0.90_bottle_10_n04591713_2014.png,n04591713_2014.png,0.0,-7.637719,-2.8306782,-3.3990915
alexnet_w1_mlp_simclrhn_probe1,1,484,NaN,elephant,bottle,0.10,0484_nse_dnn_0.10_bottle_10_n03983396_9662.png,n03983396_9662.png,0.0,-1.641317,-0.3197342,-0.93450016
alexnet_w1_mlp_simclrhn_probe1,1,485,NaN,knife,bicycle,0.35,0485_nse_dnn_0.35_bicycle_10_n03792782_10367.png,n03792782_10367.png,0.0,-8.28404,-2.022106,-4.4278564
alexnet_w1_mlp_simclrhn_probe1,1,486,NaN,knife,keyboard,0.60,0486_nse_dnn_0.60_keyboard_10_n03085013_22942.png,n03085013_22942.png,0.0,-4.2610817,-2.641179,-1.1454442
alexnet_w1_mlp_simclrhn_probe1,1,487,NaN,bird,cat,0.00,0487_nse_dnn_0.00_cat_10_n02123597_3896.png,n02123597_3896.png,0.0,-1.152235,-1.087415,-0.045834698
alexnet_w1_mlp_simclrhn_probe1,1,488,NaN,bicycle,bicycle,0.03,0488_nse_dnn_0.03_bicycle_10_n03792782_2649.png,n03792782_2649.png,1.0,0.20683102,-1.0988337,0.92324436
alexnet_w1_mlp_simclrhn_probe1,1,489,NaN,bear,bear,0.10,0489_nse_dnn_0.10_bear_10_n02133161_2476.png,n02133161_2476.png,1.0,-0.9758032,-0.9890977,0.009400644
alexnet_w1_mlp_simclrhn_probe1,1,490,NaN,bicycle,car,0.10,0490_nse_dnn_0.10_car_10_n04285008_7249.png,n04285008_7249.png,0.0,-4.7659755,-1.8221842,-2.081575
alexnet_w1_mlp_simclrhn_probe1,1,491,NaN,knife,chair,0.20,0491_nse_dnn_0.20_chair_10_n04099969_8604.png,n04099969_8604.png,0.0,-3.2381403,-1.3569138,-1.3302281
alexnet_w1_mlp_simclrhn_probe1,1,492,NaN,bicycle,bicycle,0.05,0492_nse_dnn_0.05_bicycle_10_n02835271_5963.png,n02835271_5963.png,1.0,0.28902754,-0.6501625,0.6641076
alexnet_w1_mlp_simclrhn_probe1,1,493,NaN,knife,airplane,0.90,0493_nse_dnn_0.90_airplane_10_n02690373_17011.png,n02690373_17011.png,0.0,-20.84291,-3.006535,-12.612223
alexnet_w1_mlp_simclrhn_probe1,1,494,NaN,knife,bird,0.90,0494_nse_dnn_0.90_bird_10_n02028035_889.png,n02028035_889.png,0.0,-11.642972,-3.0192084,-6.0979223
alexnet_w1_mlp_simclrhn_probe1,1,495,NaN,knife,cat,0.60,0495_nse_dnn_0.60_cat_10_n02123159_7949.png,n02123159_7949.png,0.0,-10.472203,-2.4488366,-5.673377
alexnet_w1_mlp_simclrhn_probe1,1,496,NaN,car,car,0.03,0496_nse_dnn_0.03_car_10_n03100240_15686.png,n03100240_15686.png,1.0,2.0971394,1.814184,0.2000797
alexnet_w1_mlp_simclrhn_probe1,1,497,NaN,knife,cat,0.35,0497_nse_dnn_0.35_cat_10_n02123159_6106.png,n02123159_6106.png,0.0,-5.891155,-1.7839618,-2.9042242
alexnet_w1_mlp_simclrhn_probe1,1,498,NaN,cat,cat,0.00,0498_nse_dnn_0.00_cat_10_n02123394_7105.png,n02123394_7105.png,1.0,0.01487498,-0.7870177,0.56702375
alexnet_w1_mlp_simclrhn_probe1,1,499,NaN,knife,clock,0.35,0499_nse_dnn_0.35_clock_10_n04548280_4747.png,n04548280_4747.png,0.0,-5.7056274,-1.3714375,-3.0647352
alexnet_w1_mlp_simclrhn_probe1,1,500,NaN,knife,elephant,0.20,0500_nse_dnn_0.20_elephant_10_n02504458_975.png,n02504458_975.png,0.0,-2.572081,-1.4650581,-0.7827835
alexnet_w1_mlp_simclrhn_probe1,1,501,NaN,knife,boat,0.20,0501_nse_dnn_0.20_boat_10_n03344393_11590.png,n03344393_11590.png,0.0,-5.8574786,-1.345479,-3.1904657
alexnet_w1_mlp_simclrhn_probe1,1,502,NaN,knife,airplane,0.90,0502_nse_dnn_0.90_airplane_10_n02690373_2026.png,n02690373_2026.png,0.0,-20.550243,-2.598844,-12.693556
alexnet_w1_mlp_simclrhn_probe1,1,503,NaN,knife,clock,0.60,0503_nse_dnn_0.60_clock_10_n03196217_2346.png,n03196217_2346.png,0.0,-7.6985307,-1.7425916,-4.211485
alexnet_w1_mlp_simclrhn_probe1,1,504,NaN,knife,truck,0.60,0504_nse_dnn_0.60_truck_10_n04467665_34932.png,n04467665_34932.png,0.0,-16.919329,-2.3932185,-10.271511
alexnet_w1_mlp_simclrhn_probe1,1,505,NaN,knife,oven,0.35,0505_nse_dnn_0.35_oven_10_n04111531_13625.png,n04111531_13625.png,0.0,-7.3991613,-1.4987123,-4.1722474
alexnet_w1_mlp_simclrhn_probe1,1,506,NaN,airplane,airplane,0.00,0506_nse_dnn_0.00_airplane_10_n02690373_8666.png,n02690373_8666.png,1.0,2.0962648,-0.5828226,1.894401
alexnet_w1_mlp_simclrhn_probe1,1,507,NaN,knife,oven,0.35,0507_nse_dnn_0.35_oven_10_n04111531_4148.png,n04111531_4148.png,0.0,-8.173194,-2.044753,-4.333462
alexnet_w1_mlp_simclrhn_probe1,1,508,NaN,dog,dog,0.00,0508_nse_dnn_0.00_dog_10_n02107683_7021.png,n02107683_7021.png,1.0,0.24676089,-0.11007854,0.25232357
alexnet_w1_mlp_simclrhn_probe1,1,509,NaN,bear,bird,0.05,0509_nse_dnn_0.05_bird_10_n02025239_22440.png,n02025239_22440.png,0.0,-1.8393779,-1.7136936,-0.088872194
alexnet_w1_mlp_simclrhn_probe1,1,510,NaN,knife,elephant,0.90,0510_nse_dnn_0.90_elephant_10_n02504013_7032.png,n02504013_7032.png,0.0,-14.871122,-2.5835297,-8.688641
alexnet_w1_mlp_simclrhn_probe1,1,511,NaN,knife,truck,0.90,0511_nse_dnn_0.90_truck_10_n03417042_10788.png,n03417042_10788.png,0.0,-18.789108,-2.8219237,-11.290504
alexnet_w1_mlp_simclrhn_probe1,1,512,NaN,knife,knife,0.05,0512_nse_dnn_0.05_knife_10_n03041632_86118.png,n03041632_86118.png,1.0,-0.50390685,-1.889261,0.97959334
alexnet_w1_mlp_simclrhn_probe1,1,513,NaN,clock,bottle,0.00,0513_nse_dnn_0.00_bottle_10_n04557648_9790.png,n04557648_9790.png,0.0,-0.65635633,-0.54607064,-0.07798377
alexnet_w1_mlp_simclrhn_probe1,1,514,NaN,knife,chair,0.90,0514_nse_dnn_0.90_chair_10_n02791124_8788.png,n02791124_8788.png,0.0,-11.007074,-2.6911402,-5.8802533
alexnet_w1_mlp_simclrhn_probe1,1,515,NaN,cat,dog,0.03,0515_nse_dnn_0.03_dog_10_n02095314_4996.png,n02095314_4996.png,0.0,-1.2983091,-0.39330304,-0.6399359
alexnet_w1_mlp_simclrhn_probe1,1,516,NaN,knife,keyboard,0.20,0516_nse_dnn_0.20_keyboard_10_n04505470_4679.png,n04505470_4679.png,0.0,-2.6771116,-1.2362125,-1.0188695
alexnet_w1_mlp_simclrhn_probe1,1,517,NaN,elephant,bird,0.03,0517_nse_dnn_0.03_bird_10_n01860187_24935.png,n01860187_24935.png,0.0,-1.5024227,-0.9088255,-0.4197366
alexnet_w1_mlp_simclrhn_probe1,1,518,NaN,knife,bicycle,0.60,0518_nse_dnn_0.60_bicycle_10_n02835271_14123.png,n02835271_14123.png,0.0,-14.319262,-2.115798,-8.629152
alexnet_w1_mlp_simclrhn_probe1,1,519,NaN,knife,boat,0.10,0519_nse_dnn_0.10_boat_10_n03344393_7075.png,n03344393_7075.png,0.0,-2.9108815,-0.9943638,-1.3551828
alexnet_w1_mlp_simclrhn_probe1,1,520,NaN,knife,knife,0.03,0520_nse_dnn_0.03_knife_10_n03041632_13130.png,n03041632_13130.png,1.0,0.38220012,-1.9435701,1.6445681
alexnet_w1_mlp_simclrhn_probe1,1,521,NaN,knife,bottle,0.20,0521_nse_dnn_0.20_bottle_10_n04591713_5569.png,n04591713_5569.png,0.0,-3.4593813,-0.7695689,-1.9019847
alexnet_w1_mlp_simclrhn_probe1,1,522,NaN,elephant,elephant,0.05,0522_nse_dnn_0.05_elephant_10_n02504013_19753.png,n02504013_19753.png,1.0,0.9698453,-0.39227945,0.9631676
alexnet_w1_mlp_simclrhn_probe1,1,523,NaN,knife,dog,0.60,0523_nse_dnn_0.60_dog_10_n02099849_4819.png,n02099849_4819.png,0.0,-10.031434,-2.6270266,-5.235707
alexnet_w1_mlp_simclrhn_probe1,1,524,NaN,knife,elephant,0.90,0524_nse_dnn_0.90_elephant_10_n02504458_12938.png,n02504458_12938.png,0.0,-15.809452,-2.494801,-9.414881
alexnet_w1_mlp_simclrhn_probe1,1,525,NaN,bottle,bottle,0.03,0525_nse_dnn_0.03_bottle_10_n02823428_901.png,n02823428_901.png,1.0,0.9731441,-0.9007335,1.3250315
alexnet_w1_mlp_simclrhn_probe1,1,526,NaN,car,bicycle,0.00,0526_nse_dnn_0.00_bicycle_10_n03792782_2024.png,n03792782_2024.png,0.0,0.47860417,1.0594686,-0.4107332
alexnet_w1_mlp_simclrhn_probe1,1,527,NaN,knife,truck,0.05,0527_nse_dnn_0.05_truck_10_n03417042_24856.png,n03417042_24856.png,0.0,-2.7763977,-1.1473731,-1.1518943
alexnet_w1_mlp_simclrhn_probe1,1,528,NaN,elephant,elephant,0.00,0528_nse_dnn_0.00_elephant_10_n02504013_19694.png,n02504013_19694.png,1.0,3.5505085,1.2339523,1.6380526
alexnet_w1_mlp_simclrhn_probe1,1,529,NaN,knife,bird,0.20,0529_nse_dnn_0.20_bird_10_n01530575_10119.png,n01530575_10119.png,0.0,-3.2175333,-1.3471785,-1.3225406
alexnet_w1_mlp_simclrhn_probe1,1,530,NaN,elephant,bottle,0.20,0530_nse_dnn_0.20_bottle_10_n04557648_954.png,n04557648_954.png,0.0,-3.494701,-1.2731409,-1.5708802
alexnet_w1_mlp_simclrhn_probe1,1,531,NaN,knife,cat,0.90,0531_nse_dnn_0.90_cat_10_n02123159_277.png,n02123159_277.png,0.0,-11.392783,-3.2962322,-5.7251263
alexnet_w1_mlp_simclrhn_probe1,1,532,NaN,knife,knife,0.00,0532_nse_dnn_0.00_knife_10_n03041632_289.png,n03041632_289.png,1.0,0.21569622,-0.47642085,0.48940068
alexnet_w1_mlp_simclrhn_probe1,1,533,NaN,knife,truck,0.35,0533_nse_dnn_0.35_truck_10_n04467665_450.png,n04467665_450.png,0.0,-10.873501,-1.7926358,-6.421141
alexnet_w1_mlp_simclrhn_probe1,1,534,NaN,knife,knife,0.00,0534_nse_dnn_0.00_knife_10_n03041632_1607.png,n03041632_1607.png,1.0,-0.36302102,-1.5242339,0.82110155
alexnet_w1_mlp_simclrhn_probe1,1,535,NaN,knife,bird,0.20,0535_nse_dnn_0.20_bird_10_n01532829_4692.png,n01532829_4692.png,0.0,-3.6591082,-1.663477,-1.4111243
alexnet_w1_mlp_simclrhn_probe1,1,536,NaN,elephant,dog,0.10,0536_nse_dnn_0.10_dog_10_n02102177_4771.png,n02102177_4771.png,0.0,-2.8647342,-0.10925695,-1.9484166
alexnet_w1_mlp_simclrhn_probe1,1,537,NaN,knife,car,0.10,0537_nse_dnn_0.10_car_10_n04285008_14554.png,n04285008_14554.png,0.0,-4.438154,-1.789636,-1.8727851
alexnet_w1_mlp_simclrhn_probe1,1,538,NaN,clock,clock,0.00,0538_nse_dnn_0.00_clock_10_n04548280_3716.png,n04548280_3716.png,1.0,0.40884972,-0.43944842,0.59983736
alexnet_w1_mlp_simclrhn_probe1,1,539,NaN,car,car,0.03,0539_nse_dnn_0.03_car_10_n04285008_6849.png,n04285008_6849.png,1.0,-0.45075426,-1.0027558,0.390324
alexnet_w1_mlp_simclrhn_probe1,1,540,NaN,knife,keyboard,0.35,0540_nse_dnn_0.35_keyboard_10_n03085013_24467.png,n03085013_24467.png,0.0,-4.003577,-2.3506174,-1.1688191
alexnet_w1_mlp_simclrhn_probe1,1,541,NaN,knife,clock,0.35,0541_nse_dnn_0.35_clock_10_n03196217_6672.png,n03196217_6672.png,0.0,-5.595798,-1.7148814,-2.7442224
alexnet_w1_mlp_simclrhn_probe1,1,542,NaN,elephant,dog,0.10,0542_nse_dnn_0.10_dog_10_n02105251_5570.png,n02105251_5570.png,0.0,-2.2287114,-0.4086172,-1.2870009
alexnet_w1_mlp_simclrhn_probe1,1,543,NaN,knife,dog,0.35,0543_nse_dnn_0.35_dog_10_n02107574_3352.png,n02107574_3352.png,0.0,-6.171204,-1.7413939,-3.1323488
alexnet_w1_mlp_simclrhn_probe1,1,544,NaN,knife,boat,0.60,0544_nse_dnn_0.60_boat_10_n03662601_8191.png,n03662601_8191.png,0.0,-16.218105,-2.143531,-9.952228
alexnet_w1_mlp_simclrhn_probe1,1,545,NaN,boat,boat,0.00,0545_nse_dnn_0.00_boat_10_n04612504_30617.png,n04612504_30617.png,1.0,1.610212,1.3614221,0.17592104
alexnet_w1_mlp_simclrhn_probe1,1,546,NaN,knife,bear,0.60,0546_nse_dnn_0.60_bear_10_n02132136_2900.png,n02132136_2900.png,0.0,-14.013731,-2.221639,-8.338268
alexnet_w1_mlp_simclrhn_probe1,1,547,NaN,elephant,truck,0.10,0547_nse_dnn_0.10_truck_10_n03417042_8139.png,n03417042_8139.png,0.0,-4.383082,-1.0552213,-2.3531528
alexnet_w1_mlp_simclrhn_probe1,1,548,NaN,chair,chair,0.03,0548_nse_dnn_0.03_chair_10_n03376595_5112.png,n03376595_5112.png,1.0,-1.2603047,-1.5268462,0.1884733
alexnet_w1_mlp_simclrhn_probe1,1,549,NaN,elephant,bird,0.05,0549_nse_dnn_0.05_bird_10_n02006656_10360.png,n02006656_10360.png,0.0,-1.0029597,-0.99108744,-0.008394978
alexnet_w1_mlp_simclrhn_probe1,1,550,NaN,knife,elephant,0.20,0550_nse_dnn_0.20_elephant_10_n02504458_2799.png,n02504458_2799.png,0.0,-3.2558322,-1.1563879,-1.4845314
alexnet_w1_mlp_simclrhn_probe1,1,551,NaN,knife,airplane,0.10,0551_nse_dnn_0.10_airplane_10_n02690373_6096.png,n02690373_6096.png,0.0,-1.7649107,-1.3891109,-0.26573056
alexnet_w1_mlp_simclrhn_probe1,1,552,NaN,knife,bird,0.20,0552_nse_dnn_0.20_bird_10_n02002556_139.png,n02002556_139.png,0.0,-2.9915612,-1.3883193,-1.1336633
alexnet_w1_mlp_simclrhn_probe1,1,553,NaN,car,car,0.00,0553_nse_dnn_0.00_car_10_n04285008_3056.png,n04285008_3056.png,1.0,0.95084596,-0.09164177,0.7371502
alexnet_w1_mlp_simclrhn_probe1,1,554,NaN,knife,knife,0.10,0554_nse_dnn_0.10_knife_10_n03041632_14774.png,n03041632_14774.png,1.0,-0.40242535,-1.0032216,0.42482713
alexnet_w1_mlp_simclrhn_probe1,1,555,NaN,knife,oven,0.20,0555_nse_dnn_0.20_oven_10_n04111531_2163.png,n04111531_2163.png,0.0,-3.482865,-1.7585291,-1.2192897
alexnet_w1_mlp_simclrhn_probe1,1,556,NaN,knife,cat,0.20,0556_nse_dnn_0.20_cat_10_n02123597_30864.png,n02123597_30864.png,0.0,-3.3810713,-0.9061741,-1.7500166
alexnet_w1_mlp_simclrhn_probe1,1,557,NaN,knife,boat,0.35,0557_nse_dnn_0.35_boat_10_n02951358_33559.png,n02951358_33559.png,0.0,-10.182432,-1.5937786,-6.0730953
alexnet_w1_mlp_simclrhn_probe1,1,558,NaN,knife,bicycle,0.60,0558_nse_dnn_0.60_bicycle_10_n02835271_4619.png,n02835271_4619.png,0.0,-14.807597,-2.2871609,-8.853286
alexnet_w1_mlp_simclrhn_probe1,1,559,NaN,knife,truck,0.03,0559_nse_dnn_0.03_truck_10_n03796401_21261.png,n03796401_21261.png,0.0,-1.2768571,-0.88337696,-0.2782325
alexnet_w1_mlp_simclrhn_probe1,1,560,NaN,knife,airplane,0.10,0560_nse_dnn_0.10_airplane_10_n02690373_2496.png,n02690373_2496.png,0.0,-2.780491,-1.0082463,-1.2531663
alexnet_w1_mlp_simclrhn_probe1,1,561,NaN,knife,boat,0.35,0561_nse_dnn_0.35_boat_10_n03662601_5419.png,n03662601_5419.png,0.0,-10.425815,-1.429775,-6.3611608
alexnet_w1_mlp_simclrhn_probe1,1,562,NaN,airplane,airplane,0.03,0562_nse_dnn_0.03_airplane_10_n02690373_7686.png,n02690373_7686.png,1.0,2.0963495,0.43326682,1.175977
alexnet_w1_mlp_simclrhn_probe1,1,563,NaN,knife,oven,0.90,0563_nse_dnn_0.90_oven_10_n04111531_5246.png,n04111531_5246.png,0.0,-16.518063,-2.660122,-9.799044
alexnet_w1_mlp_simclrhn_probe1,1,564,NaN,knife,bicycle,0.60,0564_nse_dnn_0.60_bicycle_10_n03792782_1099.png,n03792782_1099.png,0.0,-12.849622,-2.4660127,-7.3423204
alexnet_w1_mlp_simclrhn_probe1,1,565,NaN,knife,chair,0.35,0565_nse_dnn_0.35_chair_10_n04099969_12909.png,n04099969_12909.png,0.0,-5.598387,-1.6042235,-2.8243
alexnet_w1_mlp_simclrhn_probe1,1,566,NaN,elephant,elephant,0.03,0566_nse_dnn_0.03_elephant_10_n02504013_7147.png,n02504013_7147.png,1.0,-0.080792725,-0.6357772,0.3924333
alexnet_w1_mlp_simclrhn_probe1,1,567,NaN,knife,truck,0.35,0567_nse_dnn_0.35_truck_10_n04467665_44715.png,n04467665_44715.png,0.0,-9.896198,-2.415245,-5.289833
alexnet_w1_mlp_simclrhn_probe1,1,568,NaN,keyboard,keyboard,0.00,0568_nse_dnn_0.00_keyboard_10_n04505470_1338.png,n04505470_1338.png,1.0,1.9241827,-0.20717922,1.5071005
alexnet_w1_mlp_simclrhn_probe1,1,569,NaN,knife,airplane,0.90,0569_nse_dnn_0.90_airplane_10_n02690373_4982.png,n02690373_4982.png,0.0,-21.365559,-2.60845,-13.263279
alexnet_w1_mlp_simclrhn_probe1,1,570,NaN,knife,bicycle,0.90,0570_nse_dnn_0.90_bicycle_10_n03792782_3754.png,n03792782_3754.png,0.0,-17.298622,-2.314041,-10.595699
alexnet_w1_mlp_simclrhn_probe1,1,571,NaN,elephant,bicycle,0.00,0571_nse_dnn_0.00_bicycle_10_n03792782_1418.png,n03792782_1418.png,0.0,-0.52653855,-0.3404858,-0.13155916
alexnet_w1_mlp_simclrhn_probe1,1,572,NaN,elephant,truck,0.03,0572_nse_dnn_0.03_truck_10_n03796401_26359.png,n03796401_26359.png,0.0,-1.6352913,-0.36567265,-0.89775604
alexnet_w1_mlp_simclrhn_probe1,1,573,NaN,elephant,car,0.05,0573_nse_dnn_0.05_car_10_n03100240_9149.png,n03100240_9149.png,0.0,-3.462164,-0.46185115,-2.1215415
alexnet_w1_mlp_simclrhn_probe1,1,574,NaN,knife,bird,0.90,0574_nse_dnn_0.90_bird_10_n01534433_14677.png,n01534433_14677.png,0.0,-11.522465,-3.1232476,-5.9391437
alexnet_w1_mlp_simclrhn_probe1,1,575,NaN,car,car,0.03,0575_nse_dnn_0.03_car_10_n03100240_8683.png,n03100240_8683.png,1.0,0.44594398,-0.29911584,0.5268369
alexnet_w1_mlp_simclrhn_probe1,1,576,NaN,bicycle,chair,0.03,0576_nse_dnn_0.03_chair_10_n03376595_524.png,n03376595_524.png,0.0,-0.17379683,2.2252192,-1.6963606
alexnet_w1_mlp_simclrhn_probe1,1,577,NaN,knife,dog,0.20,0577_nse_dnn_0.20_dog_10_n02094433_6402.png,n02094433_6402.png,0.0,-4.105226,-1.700962,-1.7000713
alexnet_w1_mlp_simclrhn_probe1,1,578,NaN,knife,car,0.20,0578_nse_dnn_0.20_car_10_n03100240_16803.png,n03100240_16803.png,0.0,-6.3162255,-1.53374,-3.381728
alexnet_w1_mlp_simclrhn_probe1,1,579,NaN,elephant,bicycle,0.20,0579_nse_dnn_0.20_bicycle_10_n03792782_15114.png,n03792782_15114.png,0.0,-3.1563802,-1.5821189,-1.1131709
alexnet_w1_mlp_simclrhn_probe1,1,580,NaN,knife,chair,0.60,0580_nse_dnn_0.60_chair_10_n04429376_21362.png,n04429376_21362.png,0.0,-9.561172,-2.0391965,-5.3188396
alexnet_w1_mlp_simclrhn_probe1,1,581,NaN,knife,keyboard,0.90,0581_nse_dnn_0.90_keyboard_10_n04505470_3499.png,n04505470_3499.png,0.0,-4.823,-2.7947097,-1.4342178
alexnet_w1_mlp_simclrhn_probe1,1,582,NaN,knife,boat,0.90,0582_nse_dnn_0.90_boat_10_n04273569_26577.png,n04273569_26577.png,0.0,-21.236729,-2.806562,-13.032096
alexnet_w1_mlp_simclrhn_probe1,1,583,NaN,knife,boat,0.10,0583_nse_dnn_0.10_boat_10_n04273569_27325.png,n04273569_27325.png,0.0,-2.4273891,-1.1037184,-0.93597656
alexnet_w1_mlp_simclrhn_probe1,1,584,NaN,knife,keyboard,0.20,0584_nse_dnn_0.20_keyboard_10_n04505470_9570.png,n04505470_9570.png,0.0,-4.106578,-2.5536294,-1.0981004
alexnet_w1_mlp_simclrhn_probe1,1,585,NaN,knife,bicycle,0.90,0585_nse_dnn_0.90_bicycle_10_n03792782_4067.png,n03792782_4067.png,0.0,-17.016434,-3.0057626,-9.907042
alexnet_w1_mlp_simclrhn_probe1,1,586,NaN,elephant,bear,0.10,0586_nse_dnn_0.10_bear_10_n02132136_282.png,n02132136_282.png,0.0,-0.9602358,-0.8249512,-0.095660664
alexnet_w1_mlp_simclrhn_probe1,1,587,NaN,knife,boat,0.03,0587_nse_dnn_0.03_boat_10_n04612504_30424.png,n04612504_30424.png,0.0,-1.4019986,-0.27520043,-0.79676664
alexnet_w1_mlp_simclrhn_probe1,1,588,NaN,knife,knife,0.90,0588_nse_dnn_0.90_knife_10_n03041632_4879.png,n03041632_4879.png,1.0,-2.327487,-4.77582,1.7312328
alexnet_w1_mlp_simclrhn_probe1,1,589,NaN,elephant,elephant,0.05,0589_nse_dnn_0.05_elephant_10_n02504458_7634.png,n02504458_7634.png,1.0,1.0285645,-0.6849264,1.211621
alexnet_w1_mlp_simclrhn_probe1,1,590,NaN,knife,cat,0.35,0590_nse_dnn_0.35_cat_10_n02123597_7615.png,n02123597_7615.png,0.0,-5.9906745,-1.5227319,-3.1593127
alexnet_w1_mlp_simclrhn_probe1,1,591,NaN,knife,bicycle,0.35,0591_nse_dnn_0.35_bicycle_10_n03792782_20387.png,n03792782_20387.png,0.0,-6.464202,-1.8263457,-3.2794597
alexnet_w1_mlp_simclrhn_probe1,1,592,NaN,clock,clock,0.10,0592_nse_dnn_0.10_clock_10_n02708093_527.png,n02708093_527.png,1.0,-0.46845618,-3.2913735,1.996104
alexnet_w1_mlp_simclrhn_probe1,1,593,NaN,elephant,elephant,0.05,0593_nse_dnn_0.05_elephant_10_n02504013_5501.png,n02504013_5501.png,1.0,0.83895075,-0.64952254,1.0525095
alexnet_w1_mlp_simclrhn_probe1,1,594,NaN,knife,dog,0.35,0594_nse_dnn_0.35_dog_10_n02106166_2273.png,n02106166_2273.png,0.0,-5.871245,-1.7020355,-2.9480762
alexnet_w1_mlp_simclrhn_probe1,1,595,NaN,boat,boat,0.03,0595_nse_dnn_0.03_boat_10_n03662601_34009.png,n03662601_34009.png,1.0,-0.7156386,-0.9136166,0.1399916
alexnet_w1_mlp_simclrhn_probe1,1,596,NaN,knife,boat,0.35,0596_nse_dnn_0.35_boat_10_n04273569_12536.png,n04273569_12536.png,0.0,-10.253967,-2.0792863,-5.780372
alexnet_w1_mlp_simclrhn_probe1,1,597,NaN,elephant,elephant,0.00,0597_nse_dnn_0.00_elephant_10_n02504013_8534.png,n02504013_8534.png,1.0,1.3863803,-0.8119425,1.554449
alexnet_w1_mlp_simclrhn_probe1,1,598,NaN,knife,clock,0.35,0598_nse_dnn_0.35_clock_10_n04548280_156.png,n04548280_156.png,0.0,-5.688999,-1.7917044,-2.7558036
alexnet_w1_mlp_simclrhn_probe1,1,599,NaN,knife,bicycle,0.90,0599_nse_dnn_0.90_bicycle_10_n02835271_542.png,n02835271_542.png,0.0,-17.917307,-2.5589185,-10.860022
alexnet_w1_mlp_simclrhn_probe1,1,600,NaN,oven,bear,0.00,0600_nse_dnn_0.00_bear_10_n02133161_5434.png,n02133161_5434.png,0.0,-2.0683718,-1.4191238,-0.45908767
alexnet_w1_mlp_simclrhn_probe1,1,601,NaN,knife,truck,0.60,0601_nse_dnn_0.60_truck_10_n04467665_63829.png,n04467665_63829.png,0.0,-15.55283,-2.4774218,-9.245709
alexnet_w1_mlp_simclrhn_probe1,1,602,NaN,knife,oven,0.90,0602_nse_dnn_0.90_oven_10_n04111531_10220.png,n04111531_10220.png,0.0,-15.786099,-2.7121367,-9.244688
alexnet_w1_mlp_simclrhn_probe1,1,603,NaN,knife,boat,0.60,0603_nse_dnn_0.60_boat_10_n04273569_28074.png,n04273569_28074.png,0.0,-14.935389,-2.327704,-8.91498
alexnet_w1_mlp_simclrhn_probe1,1,604,NaN,bottle,cat,0.00,0604_nse_dnn_0.00_cat_10_n02123394_2482.png,n02123394_2482.png,0.0,-0.7413762,-0.49489528,-0.17428835
alexnet_w1_mlp_simclrhn_probe1,1,605,NaN,knife,boat,0.90,0605_nse_dnn_0.90_boat_10_n03662601_20381.png,n03662601_20381.png,0.0,-19.220987,-2.576062,-11.76974
alexnet_w1_mlp_simclrhn_probe1,1,606,NaN,knife,bird,0.35,0606_nse_dnn_0.35_bird_10_n01817953_12511.png,n01817953_12511.png,0.0,-6.87569,-1.3318383,-3.9200952
alexnet_w1_mlp_simclrhn_probe1,1,607,NaN,cat,cat,0.05,0607_nse_dnn_0.05_cat_10_n02125311_5346.png,n02125311_5346.png,1.0,-0.085061334,-1.3733475,0.9109559
alexnet_w1_mlp_simclrhn_probe1,1,608,NaN,elephant,oven,0.00,0608_nse_dnn_0.00_oven_10_n04111531_14758.png,n04111531_14758.png,0.0,-2.5999198,-0.32691896,-1.6072543
alexnet_w1_mlp_simclrhn_probe1,1,609,NaN,elephant,bird,0.10,0609_nse_dnn_0.10_bird_10_n02002556_1398.png,n02002556_1398.png,0.0,-1.632195,-0.3638153,-0.8968799
alexnet_w1_mlp_simclrhn_probe1,1,610,NaN,knife,knife,0.05,0610_nse_dnn_0.05_knife_10_n03041632_99912.png,n03041632_99912.png,1.0,-0.918504,-2.3765798,1.0310153
alexnet_w1_mlp_simclrhn_probe1,1,611,NaN,airplane,airplane,0.05,0611_nse_dnn_0.05_airplane_10_n02690373_1075.png,n02690373_1075.png,1.0,-0.45191994,-0.57589495,0.08766357
alexnet_w1_mlp_simclrhn_probe1,1,612,NaN,knife,cat,0.35,0612_nse_dnn_0.35_cat_10_n02123045_10834.png,n02123045_10834.png,0.0,-5.5894895,-1.4544008,-2.9239495
alexnet_w1_mlp_simclrhn_probe1,1,613,NaN,knife,car,0.60,0613_nse_dnn_0.60_car_10_n02814533_41478.png,n02814533_41478.png,0.0,-14.282673,-2.3884811,-8.410463
alexnet_w1_mlp_simclrhn_probe1,1,614,NaN,cat,cat,0.00,0614_nse_dnn_0.00_cat_10_n02123394_1602.png,n02123394_1602.png,1.0,0.8697927,-0.057566572,0.65574205
alexnet_w1_mlp_simclrhn_probe1,1,615,NaN,knife,knife,0.03,0615_nse_dnn_0.03_knife_10_n03041632_21017.png,n03041632_21017.png,1.0,-0.78822744,-1.1755376,0.27386963
alexnet_w1_mlp_simclrhn_probe1,1,616,NaN,elephant,bear,0.03,0616_nse_dnn_0.03_bear_10_n02134084_572.png,n02134084_572.png,0.0,0.9075984,1.253061,-0.24427901
alexnet_w1_mlp_simclrhn_probe1,1,617,NaN,keyboard,clock,0.05,0617_nse_dnn_0.05_clock_10_n03196217_3987.png,n03196217_3987.png,0.0,-0.54804057,1.471369,-1.4279383
alexnet_w1_mlp_simclrhn_probe1,1,618,NaN,dog,dog,0.03,0618_nse_dnn_0.03_dog_10_n02098286_6303.png,n02098286_6303.png,1.0,-0.44990617,-0.52181315,0.050845917
alexnet_w1_mlp_simclrhn_probe1,1,619,NaN,keyboard,keyboard,0.00,0619_nse_dnn_0.00_keyboard_10_n04505470_4379.png,n04505470_4379.png,1.0,0.99407583,0.74127376,0.17875807
