subj,session,trial,rt,object_response,category,condition,imagename,filename,is_correct,targ_act,max_nontarg_act,decision_margin
alexnet_w1_mlp_simclrhn_probe0,1,1,NaN,elephant,elephant,0.03,0001_nse_dnn_0.03_elephant_10_n02504458_7209.png,n02504458_7209.png,1.0,-0.9840932,-1.2866445,0.21393606
alexnet_w1_mlp_simclrhn_probe0,1,2,NaN,knife,knife,0.90,0002_nse_dnn_0.90_knife_10_n03041632_82878.png,n03041632_82878.png,1.0,-3.6692815,-6.712356,2.1517787
alexnet_w1_mlp_simclrhn_probe0,1,3,NaN,clock,clock,0.00,0003_nse_dnn_0.00_clock_10_n03196217_9231.png,n03196217_9231.png,1.0,1.5980161,0.80999815,0.5572129
alexnet_w1_mlp_simclrhn_probe0,1,4,NaN,oven,oven,0.00,0004_nse_dnn_0.00_oven_10_n04111531_11026.png,n04111531_11026.png,1.0,-0.98427343,-1.1744066,0.13444449
alexnet_w1_mlp_simclrhn_probe0,1,5,NaN,elephant,clock,0.10,0005_nse_dnn_0.10_clock_10_n04548280_1114.png,n04548280_1114.png,0.0,-2.3737335,-1.3902605,-0.6954205
alexnet_w1_mlp_simclrhn_probe0,1,6,NaN,oven,clock,0.03,0006_nse_dnn_0.03_clock_10_n02708093_8100.png,n02708093_8100.png,0.0,-0.8564363,-0.7820423,-0.052604493
alexnet_w1_mlp_simclrhn_probe0,1,7,NaN,clock,clock,0.00,0007_nse_dnn_0.00_clock_10_n02708093_3591.png,n02708093_3591.png,1.0,2.9728324,-0.4024671,2.386697
alexnet_w1_mlp_simclrhn_probe0,1,8,NaN,clock,chair,0.00,0008_nse_dnn_0.00_chair_10_n03376595_16202.png,n03376595_16202.png,0.0,-0.2623017,-0.16040228,-0.07205378
alexnet_w1_mlp_simclrhn_probe0,1,9,NaN,knife,bottle,0.60,0009_nse_dnn_0.60_bottle_10_n02823428_3478.png,n02823428_3478.png,0.0,-7.79977,-3.5985637,-2.9707015
alexnet_w1_mlp_simclrhn_probe0,1,10,NaN,elephant,dog,0.10,0010_nse_dnn_0.10_dog_10_n02087394_28673.png,n02087394_28673.png,0.0,-3.0916858,-1.1127578,-1.3993134
alexnet_w1_mlp_simclrhn_probe0,1,11,NaN,cat,chair,0.10,0011_nse_dnn_0.10_chair_10_n04099969_1690.png,n04099969_1690.png,0.0,-2.7070844,-1.5131432,-0.84424394
alexnet_w1_mlp_simclrhn_probe0,1,12,NaN,elephant,cat,0.03,0012_nse_dnn_0.03_cat_10_n02125311_1736.png,n02125311_1736.png,0.0,-1.0936161,0.26924467,-0.96368814
alexnet_w1_mlp_simclrhn_probe0,1,13,NaN,knife,bear,0.90,0013_nse_dnn_0.90_bear_10_n02133161_1169.png,n02133161_1169.png,0.0,-8.206194,-4.1812944,-2.8460338
alexnet_w1_mlp_simclrhn_probe0,1,14,NaN,knife,bear,0.90,0014_nse_dnn_0.90_bear_10_n02133161_8835.png,n02133161_8835.png,0.0,-8.343013,-3.9380362,-3.114789
alexnet_w1_mlp_simclrhn_probe0,1,15,NaN,knife,car,0.20,0015_nse_dnn_0.20_car_10_n02814533_5430.png,n02814533_5430.png,0.0,-6.7998548,-2.689012,-2.9068048
alexnet_w1_mlp_simclrhn_probe0,1,16,NaN,knife,bear,0.60,0016_nse_dnn_0.60_bear_10_n02134418_3767.png,n02134418_3767.png,0.0,-6.9805,-3.637515,-2.3638475
alexnet_w1_mlp_simclrhn_probe0,1,17,NaN,knife,knife,0.20,0017_nse_dnn_0.20_knife_10_n03041632_10540.png,n03041632_10540.png,1.0,-1.6586789,-2.216017,0.39409757
alexnet_w1_mlp_simclrhn_probe0,1,18,NaN,elephant,bicycle,0.20,0018_nse_dnn_0.20_bicycle_10_n02835271_1075.png,n02835271_1075.png,0.0,-2.9005384,-1.7929201,-0.78320444
alexnet_w1_mlp_simclrhn_probe0,1,19,NaN,bear,bear,0.00,0019_nse_dnn_0.00_bear_10_n02134084_3888.png,n02134084_3888.png,1.0,0.031140938,-0.16031505,0.13537984
alexnet_w1_mlp_simclrhn_probe0,1,20,NaN,dog,dog,0.00,0020_nse_dnn_0.00_dog_10_n02085936_9009.png,n02085936_9009.png,1.0,-1.0007716,-1.5712641,0.40339914
alexnet_w1_mlp_simclrhn_probe0,1,21,NaN,knife,knife,0.03,0021_nse_dnn_0.03_knife_10_n03041632_12651.png,n03041632_12651.png,1.0,-0.020886775,-1.0061461,0.6966835
alexnet_w1_mlp_simclrhn_probe0,1,22,NaN,knife,bicycle,0.35,0022_nse_dnn_0.35_bicycle_10_n03792782_565.png,n03792782_565.png,0.0,-6.4427366,-2.358487,-2.8880005
alexnet_w1_mlp_simclrhn_probe0,1,23,NaN,knife,boat,0.20,0023_nse_dnn_0.20_boat_10_n04612504_40672.png,n04612504_40672.png,0.0,-4.009662,-1.6705105,-1.65403
alexnet_w1_mlp_simclrhn_probe0,1,24,NaN,bear,dog,0.05,0024_nse_dnn_0.05_dog_10_n02098105_146.png,n02098105_146.png,0.0,-1.8074166,-0.7828442,-0.72448206
alexnet_w1_mlp_simclrhn_probe0,1,25,NaN,bottle,clock,0.03,0025_nse_dnn_0.03_clock_10_n02708093_5944.png,n02708093_5944.png,0.0,-1.1900028,-1.1278021,-0.043982513
alexnet_w1_mlp_simclrhn_probe0,1,26,NaN,knife,cat,0.03,0026_nse_dnn_0.03_cat_10_n02124075_14021.png,n02124075_14021.png,0.0,-1.6176287,-0.948953,-0.47282514
alexnet_w1_mlp_simclrhn_probe0,1,27,NaN,elephant,bear,0.20,0027_nse_dnn_0.20_bear_10_n02133161_7184.png,n02133161_7184.png,0.0,-2.0274231,-1.5394807,-0.34502742
alexnet_w1_mlp_simclrhn_probe0,1,28,NaN,airplane,bottle,0.00,0028_nse_dnn_0.00_bottle_10_n03937543_9745.png,n03937543_9745.png,0.0,-0.7354761,-0.60367244,-0.093199246
alexnet_w1_mlp_simclrhn_probe0,1,29,NaN,knife,airplane,0.60,0029_nse_dnn_0.60_airplane_10_n02690373_9605.png,n02690373_9605.png,0.0,-17.631796,-3.896633,-9.712227
alexnet_w1_mlp_simclrhn_probe0,1,30,NaN,cat,cat,0.20,0030_nse_dnn_0.20_cat_10_n02123045_7167.png,n02123045_7167.png,1.0,-2.052604,-2.1191106,0.047027286
alexnet_w1_mlp_simclrhn_probe0,1,31,NaN,airplane,airplane,0.05,0031_nse_dnn_0.05_airplane_10_n02690373_4706.png,n02690373_4706.png,1.0,-0.15292646,-1.3590422,0.85285264
alexnet_w1_mlp_simclrhn_probe0,1,32,NaN,knife,knife,0.35,0032_nse_dnn_0.35_knife_10_n03041632_45270.png,n03041632_45270.png,1.0,-3.0067687,-3.3563623,0.24720004
alexnet_w1_mlp_simclrhn_probe0,1,33,NaN,bear,dog,0.35,0033_nse_dnn_0.35_dog_10_n02105855_9326.png,n02105855_9326.png,0.0,-4.153981,-2.7077227,-1.0226592
alexnet_w1_mlp_simclrhn_probe0,1,34,NaN,bear,bear,0.10,0034_nse_dnn_0.10_bear_10_n02134418_4349.png,n02134418_4349.png,1.0,-0.6894998,-0.6938666,0.0030878047
alexnet_w1_mlp_simclrhn_probe0,1,35,NaN,cat,cat,0.00,0035_nse_dnn_0.00_cat_10_n02123159_469.png,n02123159_469.png,1.0,-1.0177563,-1.2256593,0.14700955
alexnet_w1_mlp_simclrhn_probe0,1,36,NaN,knife,truck,0.90,0036_nse_dnn_0.90_truck_10_n03417042_5004.png,n03417042_5004.png,0.0,-18.752602,-4.470341,-10.099084
alexnet_w1_mlp_simclrhn_probe0,1,37,NaN,knife,bird,0.10,0037_nse_dnn_0.10_bird_10_n02051845_6333.png,n02051845_6333.png,0.0,-4.278662,-1.475184,-1.9823585
alexnet_w1_mlp_simclrhn_probe0,1,38,NaN,knife,clock,0.90,0038_nse_dnn_0.90_clock_10_n03196217_12701.png,n03196217_12701.png,0.0,-6.8619194,-4.196289,-1.8848853
alexnet_w1_mlp_simclrhn_probe0,1,39,NaN,knife,chair,0.60,0039_nse_dnn_0.60_chair_10_n03376595_12341.png,n03376595_12341.png,0.0,-8.329454,-3.5274138,-3.3955555
alexnet_w1_mlp_simclrhn_probe0,1,40,NaN,cat,bicycle,0.10,0040_nse_dnn_0.10_bicycle_10_n03792782_66837.png,n03792782_66837.png,0.0,-2.7662365,-2.298145,-0.33099067
alexnet_w1_mlp_simclrhn_probe0,1,41,NaN,bicycle,bicycle,0.05,0041_nse_dnn_0.05_bicycle_10_n02835271_20177.png,n02835271_20177.png,1.0,0.50450766,-2.4506347,2.0896013
alexnet_w1_mlp_simclrhn_probe0,1,42,NaN,knife,knife,0.00,0042_nse_dnn_0.00_knife_10_n03041632_22330.png,n03041632_22330.png,1.0,-1.3806238,-1.7108822,0.23352794
alexnet_w1_mlp_simclrhn_probe0,1,43,NaN,knife,cat,0.60,0043_nse_dnn_0.60_cat_10_n02123045_5913.png,n02123045_5913.png,0.0,-5.852455,-3.9393017,-1.3528038
alexnet_w1_mlp_simclrhn_probe0,1,44,NaN,elephant,elephant,0.20,0044_nse_dnn_0.20_elephant_10_n02504013_2464.png,n02504013_2464.png,1.0,-1.0686449,-2.3533838,0.9084476
alexnet_w1_mlp_simclrhn_probe0,1,45,NaN,knife,knife,0.90,0045_nse_dnn_0.90_knife_10_n03041632_99460.png,n03041632_99460.png,1.0,-3.683863,-6.088864,1.7005925
alexnet_w1_mlp_simclrhn_probe0,1,46,NaN,bear,dog,0.00,0046_nse_dnn_0.00_dog_10_n02099601_8686.png,n02099601_8686.png,0.0,-2.1194437,-1.6181045,-0.35450035
alexnet_w1_mlp_simclrhn_probe0,1,47,NaN,knife,chair,0.90,0047_nse_dnn_0.90_chair_10_n02791124_5400.png,n02791124_5400.png,0.0,-10.316392,-4.383093,-4.195476
alexnet_w1_mlp_simclrhn_probe0,1,48,NaN,knife,chair,0.05,0048_nse_dnn_0.05_chair_10_n03376595_830.png,n03376595_830.png,0.0,-2.0437799,-1.8607477,-0.12942328
alexnet_w1_mlp_simclrhn_probe0,1,49,NaN,knife,cat,0.90,0049_nse_dnn_0.90_cat_10_n02124075_6024.png,n02124075_6024.png,0.0,-7.055533,-4.092936,-2.0948725
alexnet_w1_mlp_simclrhn_probe0,1,50,NaN,bicycle,bicycle,0.10,0050_nse_dnn_0.10_bicycle_10_n03792782_9004.png,n03792782_9004.png,1.0,-1.8717599,-2.451721,0.4100944
alexnet_w1_mlp_simclrhn_probe0,1,51,NaN,knife,keyboard,0.60,0051_nse_dnn_0.60_keyboard_10_n03085013_24088.png,n03085013_24088.png,0.0,-8.903376,-3.757435,-3.6387296
alexnet_w1_mlp_simclrhn_probe0,1,52,NaN,cat,cat,0.10,0052_nse_dnn_0.10_cat_10_n02125311_33778.png,n02125311_33778.png,1.0,-1.0292597,-1.0551727,0.018323258
alexnet_w1_mlp_simclrhn_probe0,1,53,NaN,bicycle,bicycle,0.00,0053_nse_dnn_0.00_bicycle_10_n03792782_7092.png,n03792782_7092.png,1.0,2.4002006,-1.9632014,3.085391
alexnet_w1_mlp_simclrhn_probe0,1,54,NaN,knife,airplane,0.35,0054_nse_dnn_0.35_airplane_10_n02690373_5724.png,n02690373_5724.png,0.0,-11.610335,-2.2040086,-6.651277
alexnet_w1_mlp_simclrhn_probe0,1,55,NaN,knife,bear,0.60,0055_nse_dnn_0.60_bear_10_n02133161_5637.png,n02133161_5637.png,0.0,-6.791857,-3.444478,-2.3669543
alexnet_w1_mlp_simclrhn_probe0,1,56,NaN,bear,bear,0.10,0056_nse_dnn_0.10_bear_10_n02132136_5365.png,n02132136_5365.png,1.0,-1.2759402,-1.7066717,0.3045732
alexnet_w1_mlp_simclrhn_probe0,1,57,NaN,knife,car,0.35,0057_nse_dnn_0.35_car_10_n03100240_1702.png,n03100240_1702.png,0.0,-9.218931,-2.8430848,-4.5084043
alexnet_w1_mlp_simclrhn_probe0,1,58,NaN,knife,oven,0.35,0058_nse_dnn_0.35_oven_10_n04111531_2677.png,n04111531_2677.png,0.0,-8.931429,-2.608486,-4.470996
alexnet_w1_mlp_simclrhn_probe0,1,59,NaN,knife,oven,0.05,0059_nse_dnn_0.05_oven_10_n04111531_16583.png,n04111531_16583.png,0.0,-1.0481929,-0.6736779,-0.26482207
alexnet_w1_mlp_simclrhn_probe0,1,60,NaN,chair,chair,0.10,0060_nse_dnn_0.10_chair_10_n04099969_6266.png,n04099969_6266.png,1.0,-0.6733176,-1.6081014,0.66099197
alexnet_w1_mlp_simclrhn_probe0,1,61,NaN,knife,oven,0.60,0061_nse_dnn_0.60_oven_10_n04111531_6695.png,n04111531_6695.png,0.0,-16.109503,-3.627295,-8.826254
alexnet_w1_mlp_simclrhn_probe0,1,62,NaN,cat,car,0.10,0062_nse_dnn_0.10_car_10_n03100240_1438.png,n03100240_1438.png,0.0,-3.931329,-2.8905127,-0.7359683
alexnet_w1_mlp_simclrhn_probe0,1,63,NaN,elephant,keyboard,0.20,0063_nse_dnn_0.20_keyboard_10_n04505470_4684.png,n04505470_4684.png,0.0,-4.555096,-1.9388533,-1.8499631
alexnet_w1_mlp_simclrhn_probe0,1,64,NaN,chair,chair,0.00,0064_nse_dnn_0.00_chair_10_n04099969_8021.png,n04099969_8021.png,1.0,-0.35149094,-1.0971142,0.52723527
alexnet_w1_mlp_simclrhn_probe0,1,65,NaN,knife,car,0.20,0065_nse_dnn_0.20_car_10_n04285008_7139.png,n04285008_7139.png,0.0,-6.7370644,-2.2188804,-3.1948383
alexnet_w1_mlp_simclrhn_probe0,1,66,NaN,truck,truck,0.03,0066_nse_dnn_0.03_truck_10_n03796401_9207.png,n03796401_9207.png,1.0,-0.56745124,-0.78849864,0.15630412
alexnet_w1_mlp_simclrhn_probe0,1,67,NaN,elephant,bottle,0.05,0067_nse_dnn_0.05_bottle_10_n04560804_3651.png,n04560804_3651.png,0.0,-2.3402057,-0.7515727,-1.1233331
alexnet_w1_mlp_simclrhn_probe0,1,68,NaN,knife,chair,0.60,0068_nse_dnn_0.60_chair_10_n03376595_3010.png,n03376595_3010.png,0.0,-8.600775,-3.444356,-3.6461387
alexnet_w1_mlp_simclrhn_probe0,1,69,NaN,knife,bird,0.90,0069_nse_dnn_0.90_bird_10_n01514859_1951.png,n01514859_1951.png,0.0,-5.8870707,-3.9600332,-1.3626213
alexnet_w1_mlp_simclrhn_probe0,1,70,NaN,car,car,0.10,0070_nse_dnn_0.10_car_10_n03100240_4594.png,n03100240_4594.png,1.0,-2.0498435,-2.8884535,0.59298676
alexnet_w1_mlp_simclrhn_probe0,1,71,NaN,knife,clock,0.35,0071_nse_dnn_0.35_clock_10_n03196217_3333.png,n03196217_3333.png,0.0,-4.6989207,-2.4677682,-1.5776631
alexnet_w1_mlp_simclrhn_probe0,1,72,NaN,elephant,car,0.10,0072_nse_dnn_0.10_car_10_n02814533_90798.png,n02814533_90798.png,0.0,-5.2350187,-1.591722,-2.5761998
alexnet_w1_mlp_simclrhn_probe0,1,73,NaN,knife,keyboard,0.00,0073_nse_dnn_0.00_keyboard_10_n03085013_19547.png,n03085013_19547.png,0.0,0.50443184,0.7561518,-0.1779929
alexnet_w1_mlp_simclrhn_probe0,1,74,NaN,bear,bear,0.05,0074_nse_dnn_0.05_bear_10_n02133161_545.png,n02133161_545.png,1.0,-0.5123016,-0.76763433,0.18054749
alexnet_w1_mlp_simclrhn_probe0,1,75,NaN,knife,oven,0.90,0075_nse_dnn_0.90_oven_10_n04111531_6489.png,n04111531_6489.png,0.0,-19.207933,-3.8410125,-10.866054
alexnet_w1_mlp_simclrhn_probe0,1,76,NaN,knife,dog,0.90,0076_nse_dnn_0.90_dog_10_n02105056_15299.png,n02105056_15299.png,0.0,-5.874564,-4.1945014,-1.1879838
alexnet_w1_mlp_simclrhn_probe0,1,77,NaN,knife,knife,0.05,0077_nse_dnn_0.05_knife_10_n03041632_33255.png,n03041632_33255.png,1.0,-0.7825167,-1.5611707,0.5505915
alexnet_w1_mlp_simclrhn_probe0,1,78,NaN,elephant,cat,0.20,0078_nse_dnn_0.20_cat_10_n02123394_5895.png,n02123394_5895.png,0.0,-2.3002832,-1.3074443,-0.7020431
alexnet_w1_mlp_simclrhn_probe0,1,79,NaN,knife,bottle,0.03,0079_nse_dnn_0.03_bottle_10_n03983396_11654.png,n03983396_11654.png,0.0,-1.6838481,-0.98379976,-0.49500898
alexnet_w1_mlp_simclrhn_probe0,1,80,NaN,airplane,airplane,0.03,0080_nse_dnn_0.03_airplane_10_n02690373_3860.png,n02690373_3860.png,1.0,1.0436788,-1.528144,1.8185532
alexnet_w1_mlp_simclrhn_probe0,1,81,NaN,chair,oven,0.03,0081_nse_dnn_0.03_oven_10_n04111531_6415.png,n04111531_6415.png,0.0,-2.3774202,-1.4971893,-0.6224173
alexnet_w1_mlp_simclrhn_probe0,1,82,NaN,knife,knife,0.60,0082_nse_dnn_0.60_knife_10_n03041632_39342.png,n03041632_39342.png,1.0,-3.5939133,-5.702823,1.4912245
alexnet_w1_mlp_simclrhn_probe0,1,83,NaN,knife,bear,0.60,0083_nse_dnn_0.60_bear_10_n02133161_4882.png,n02133161_4882.png,0.0,-6.7300606,-3.3237846,-2.4086008
alexnet_w1_mlp_simclrhn_probe0,1,84,NaN,bottle,bottle,0.00,0084_nse_dnn_0.00_bottle_10_n04591713_7474.png,n04591713_7474.png,1.0,-0.89328605,-1.7329489,0.5937313
alexnet_w1_mlp_simclrhn_probe0,1,85,NaN,elephant,bear,0.20,0085_nse_dnn_0.20_bear_10_n02132136_17615.png,n02132136_17615.png,0.0,-2.2011566,-1.3806922,-0.5801559
alexnet_w1_mlp_simclrhn_probe0,1,86,NaN,knife,boat,0.60,0086_nse_dnn_0.60_boat_10_n03344393_382.png,n03344393_382.png,0.0,-9.684867,-3.7428412,-4.201647
alexnet_w1_mlp_simclrhn_probe0,1,87,NaN,airplane,truck,0.00,0087_nse_dnn_0.00_truck_10_n03796401_27811.png,n03796401_27811.png,0.0,-0.06809129,0.30386752,-0.26301458
alexnet_w1_mlp_simclrhn_probe0,1,88,NaN,knife,keyboard,0.60,0088_nse_dnn_0.60_keyboard_10_n04505470_2603.png,n04505470_2603.png,0.0,-8.358653,-3.9792378,-3.0967145
alexnet_w1_mlp_simclrhn_probe0,1,89,NaN,knife,boat,0.35,0089_nse_dnn_0.35_boat_10_n03662601_16418.png,n03662601_16418.png,0.0,-6.3510566,-2.8022609,-2.5093775
alexnet_w1_mlp_simclrhn_probe0,1,90,NaN,knife,bear,0.35,0090_nse_dnn_0.35_bear_10_n02132136_2760.png,n02132136_2760.png,0.0,-3.5361996,-2.2696123,-0.8956125
alexnet_w1_mlp_simclrhn_probe0,1,91,NaN,bicycle,bicycle,0.05,0091_nse_dnn_0.05_bicycle_10_n02835271_10271.png,n02835271_10271.png,1.0,0.48207653,-2.1253905,1.8437577
alexnet_w1_mlp_simclrhn_probe0,1,92,NaN,elephant,bear,0.10,0092_nse_dnn_0.10_bear_10_n02134084_9127.png,n02134084_9127.png,0.0,-1.0906036,-0.84408617,-0.17431414
alexnet_w1_mlp_simclrhn_probe0,1,93,NaN,knife,bird,0.20,0093_nse_dnn_0.20_bird_10_n01797886_551.png,n01797886_551.png,0.0,-2.6122708,-1.5551069,-0.74752784
alexnet_w1_mlp_simclrhn_probe0,1,94,NaN,elephant,truck,0.10,0094_nse_dnn_0.10_truck_10_n03417042_9559.png,n03417042_9559.png,0.0,-4.831008,-1.5112786,-2.347403
alexnet_w1_mlp_simclrhn_probe0,1,95,NaN,knife,clock,0.90,0095_nse_dnn_0.90_clock_10_n02708093_3114.png,n02708093_3114.png,0.0,-6.8599696,-4.22508,-1.8631483
alexnet_w1_mlp_simclrhn_probe0,1,96,NaN,bicycle,bicycle,0.05,0096_nse_dnn_0.05_bicycle_10_n03792782_122.png,n03792782_122.png,1.0,-1.5935247,-1.665796,0.051103562
alexnet_w1_mlp_simclrhn_probe0,1,97,NaN,knife,oven,0.35,0097_nse_dnn_0.35_oven_10_n04111531_3702.png,n04111531_3702.png,0.0,-9.88955,-2.59283,-5.1595607
alexnet_w1_mlp_simclrhn_probe0,1,98,NaN,knife,car,0.90,0098_nse_dnn_0.90_car_10_n02814533_93476.png,n02814533_93476.png,0.0,-16.895885,-4.576361,-8.71122
alexnet_w1_mlp_simclrhn_probe0,1,99,NaN,knife,cat,0.35,0099_nse_dnn_0.35_cat_10_n02123045_8491.png,n02123045_8491.png,0.0,-3.6269197,-2.3688204,-0.8896106
alexnet_w1_mlp_simclrhn_probe0,1,100,NaN,knife,chair,0.35,0100_nse_dnn_0.35_chair_10_n02791124_13469.png,n02791124_13469.png,0.0,-6.31217,-2.2767055,-2.8535042
alexnet_w1_mlp_simclrhn_probe0,1,101,NaN,knife,dog,0.60,0101_nse_dnn_0.60_dog_10_n02096294_5451.png,n02096294_5451.png,0.0,-5.880133,-3.598043,-1.6136814
alexnet_w1_mlp_simclrhn_probe0,1,102,NaN,knife,bicycle,0.35,0102_nse_dnn_0.35_bicycle_10_n03792782_44296.png,n03792782_44296.png,0.0,-5.189927,-2.779669,-1.7043098
alexnet_w1_mlp_simclrhn_probe0,1,103,NaN,knife,cat,0.90,0103_nse_dnn_0.90_cat_10_n02123597_7138.png,n02123597_7138.png,0.0,-6.5817413,-4.155591,-1.7155473
alexnet_w1_mlp_simclrhn_probe0,1,104,NaN,knife,bottle,0.35,0104_nse_dnn_0.35_bottle_10_n04560804_12736.png,n04560804_12736.png,0.0,-4.9430127,-2.409972,-1.7911303
alexnet_w1_mlp_simclrhn_probe0,1,105,NaN,knife,oven,0.60,0105_nse_dnn_0.60_oven_10_n04111531_22797.png,n04111531_22797.png,0.0,-15.695672,-3.6007447,-8.552405
alexnet_w1_mlp_simclrhn_probe0,1,106,NaN,elephant,bird,0.10,0106_nse_dnn_0.10_bird_10_n02007558_7446.png,n02007558_7446.png,0.0,-3.180319,-1.7922485,-0.98151416
alexnet_w1_mlp_simclrhn_probe0,1,107,NaN,knife,boat,0.60,0107_nse_dnn_0.60_boat_10_n03662601_16441.png,n03662601_16441.png,0.0,-10.062944,-3.9097905,-4.350937
alexnet_w1_mlp_simclrhn_probe0,1,108,NaN,knife,oven,0.60,0108_nse_dnn_0.60_oven_10_n04111531_22386.png,n04111531_22386.png,0.0,-16.028894,-3.9868417,-8.5150175
alexnet_w1_mlp_simclrhn_probe0,1,109,NaN,airplane,airplane,0.00,0109_nse_dnn_0.00_airplane_10_n02690373_1381.png,n02690373_1381.png,1.0,4.9023995,-1.2918935,4.380027
alexnet_w1_mlp_simclrhn_probe0,1,110,NaN,knife,keyboard,0.20,0110_nse_dnn_0.20_keyboard_10_n03085013_20779.png,n03085013_20779.png,0.0,-4.920638,-2.1852,-1.9342469
alexnet_w1_mlp_simclrhn_probe0,1,111,NaN,knife,dog,0.90,0111_nse_dnn_0.90_dog_10_n02095570_9488.png,n02095570_9488.png,0.0,-6.3496575,-4.4333563,-1.3550296
alexnet_w1_mlp_simclrhn_probe0,1,112,NaN,dog,dog,0.03,0112_nse_dnn_0.03_dog_10_n02107312_3262.png,n02107312_3262.png,1.0,-1.2110907,-1.2168981,0.0041064518
alexnet_w1_mlp_simclrhn_probe0,1,113,NaN,oven,oven,0.03,0113_nse_dnn_0.03_oven_10_n04111531_10681.png,n04111531_10681.png,1.0,-0.08973695,-1.0089123,0.64995515
alexnet_w1_mlp_simclrhn_probe0,1,114,NaN,knife,knife,0.90,0114_nse_dnn_0.90_knife_10_n03041632_29285.png,n03041632_29285.png,1.0,-4.017778,-6.5304832,1.776751
alexnet_w1_mlp_simclrhn_probe0,1,115,NaN,knife,elephant,0.60,0115_nse_dnn_0.60_elephant_10_n02504458_4776.png,n02504458_4776.png,0.0,-6.5219097,-3.6059,-2.0619302
alexnet_w1_mlp_simclrhn_probe0,1,116,NaN,elephant,boat,0.10,0116_nse_dnn_0.10_boat_10_n04273569_11940.png,n04273569_11940.png,0.0,-3.8919594,-0.8799454,-2.1298156
alexnet_w1_mlp_simclrhn_probe0,1,117,NaN,cat,cat,0.20,0117_nse_dnn_0.20_cat_10_n02123159_1413.png,n02123159_1413.png,1.0,-1.414054,-1.9560527,0.38325092
alexnet_w1_mlp_simclrhn_probe0,1,118,NaN,knife,airplane,0.60,0118_nse_dnn_0.60_airplane_10_n02690373_6674.png,n02690373_6674.png,0.0,-18.110088,-3.7179039,-10.176811
alexnet_w1_mlp_simclrhn_probe0,1,119,NaN,knife,clock,0.35,0119_nse_dnn_0.35_clock_10_n04548280_5088.png,n04548280_5088.png,0.0,-4.518378,-2.9496396,-1.1092654
alexnet_w1_mlp_simclrhn_probe0,1,120,NaN,knife,clock,0.05,0120_nse_dnn_0.05_clock_10_n02708093_6624.png,n02708093_6624.png,0.0,-2.0617807,-1.490135,-0.4042146
alexnet_w1_mlp_simclrhn_probe0,1,121,NaN,elephant,bicycle,0.20,0121_nse_dnn_0.20_bicycle_10_n03792782_29108.png,n03792782_29108.png,0.0,-3.2271278,-2.195839,-0.72923136
alexnet_w1_mlp_simclrhn_probe0,1,122,NaN,knife,clock,0.20,0122_nse_dnn_0.20_clock_10_n04548280_8649.png,n04548280_8649.png,0.0,-3.2506216,-1.705389,-1.0926445
alexnet_w1_mlp_simclrhn_probe0,1,123,NaN,elephant,knife,0.05,0123_nse_dnn_0.05_knife_10_n03041632_737.png,n03041632_737.png,0.0,-1.4404199,-0.89973855,-0.38231945
alexnet_w1_mlp_simclrhn_probe0,1,124,NaN,clock,clock,0.10,0124_nse_dnn_0.10_clock_10_n04548280_8668.png,n04548280_8668.png,1.0,0.49411866,-2.9907649,2.4641848
alexnet_w1_mlp_simclrhn_probe0,1,125,NaN,bicycle,bird,0.03,0125_nse_dnn_0.03_bird_10_n01558993_34885.png,n01558993_34885.png,0.0,-1.7099924,-0.66487586,-0.739009
alexnet_w1_mlp_simclrhn_probe0,1,126,NaN,knife,truck,0.60,0126_nse_dnn_0.60_truck_10_n04467665_37833.png,n04467665_37833.png,0.0,-15.248699,-3.753076,-8.128633
alexnet_w1_mlp_simclrhn_probe0,1,127,NaN,boat,boat,0.05,0127_nse_dnn_0.05_boat_10_n03662601_5176.png,n03662601_5176.png,1.0,-0.42130995,-1.0137819,0.41894093
alexnet_w1_mlp_simclrhn_probe0,1,128,NaN,chair,chair,0.00,0128_nse_dnn_0.00_chair_10_n03376595_9139.png,n03376595_9139.png,1.0,0.39402914,0.00193277,0.27725402
alexnet_w1_mlp_simclrhn_probe0,1,129,NaN,knife,oven,0.90,0129_nse_dnn_0.90_oven_10_n04111531_6211.png,n04111531_6211.png,0.0,-19.409218,-4.193409,-10.759202
alexnet_w1_mlp_simclrhn_probe0,1,130,NaN,boat,boat,0.00,0130_nse_dnn_0.00_boat_10_n04273569_11427.png,n04273569_11427.png,1.0,0.2620135,-0.28987226,0.39024216
alexnet_w1_mlp_simclrhn_probe0,1,131,NaN,elephant,bicycle,0.05,0131_nse_dnn_0.05_bicycle_10_n03792782_17198.png,n03792782_17198.png,0.0,-2.3197057,-1.057395,-0.8925885
alexnet_w1_mlp_simclrhn_probe0,1,132,NaN,clock,clock,0.00,0132_nse_dnn_0.00_clock_10_n04548280_4560.png,n04548280_4560.png,1.0,0.49703166,-0.42785096,0.6539908
alexnet_w1_mlp_simclrhn_probe0,1,133,NaN,knife,knife,0.03,0133_nse_dnn_0.03_knife_10_n03041632_3781.png,n03041632_3781.png,1.0,-1.19371,-2.609463,1.0010886
alexnet_w1_mlp_simclrhn_probe0,1,134,NaN,knife,clock,0.10,0134_nse_dnn_0.10_clock_10_n03196217_958.png,n03196217_958.png,0.0,-1.406444,-0.75080115,-0.4636095
alexnet_w1_mlp_simclrhn_probe0,1,135,NaN,elephant,elephant,0.35,0135_nse_dnn_0.35_elephant_10_n02504458_485.png,n02504458_485.png,1.0,-2.4330525,-2.9908073,0.39439216
alexnet_w1_mlp_simclrhn_probe0,1,136,NaN,clock,clock,0.00,0136_nse_dnn_0.00_clock_10_n02708093_1038.png,n02708093_1038.png,1.0,-0.5825071,-0.72283214,0.09922481
alexnet_w1_mlp_simclrhn_probe0,1,137,NaN,oven,oven,0.03,0137_nse_dnn_0.03_oven_10_n04111531_1723.png,n04111531_1723.png,1.0,0.13421255,-1.3625911,1.0584002
alexnet_w1_mlp_simclrhn_probe0,1,138,NaN,dog,dog,0.03,0138_nse_dnn_0.03_dog_10_n02110806_27169.png,n02110806_27169.png,1.0,-0.8578061,-1.85258,0.70341134
alexnet_w1_mlp_simclrhn_probe0,1,139,NaN,airplane,airplane,0.00,0139_nse_dnn_0.00_airplane_10_n02690373_12505.png,n02690373_12505.png,1.0,1.4197698,-0.77844477,1.5543724
alexnet_w1_mlp_simclrhn_probe0,1,140,NaN,knife,bird,0.60,0140_nse_dnn_0.60_bird_10_n01828970_454.png,n01828970_454.png,0.0,-5.5973244,-3.8605115,-1.2281121
alexnet_w1_mlp_simclrhn_probe0,1,141,NaN,knife,oven,0.20,0141_nse_dnn_0.20_oven_10_n04111531_15635.png,n04111531_15635.png,0.0,-5.983613,-2.0436034,-2.7860076
alexnet_w1_mlp_simclrhn_probe0,1,142,NaN,bicycle,car,0.00,0142_nse_dnn_0.00_car_10_n04285008_8700.png,n04285008_8700.png,0.0,-2.5181904,-1.8033813,-0.5054463
alexnet_w1_mlp_simclrhn_probe0,1,143,NaN,chair,keyboard,0.05,0143_nse_dnn_0.05_keyboard_10_n04505470_4592.png,n04505470_4592.png,0.0,-1.0060054,-0.84224236,-0.11579796
alexnet_w1_mlp_simclrhn_probe0,1,144,NaN,knife,boat,0.20,0144_nse_dnn_0.20_boat_10_n03344393_9560.png,n03344393_9560.png,0.0,-3.755944,-1.6536832,-1.4865229
alexnet_w1_mlp_simclrhn_probe0,1,145,NaN,bear,bear,0.00,0145_nse_dnn_0.00_bear_10_n02132136_5138.png,n02132136_5138.png,1.0,-0.36330235,-0.36966497,0.00449905
alexnet_w1_mlp_simclrhn_probe0,1,146,NaN,knife,chair,0.60,0146_nse_dnn_0.60_chair_10_n03376595_591.png,n03376595_591.png,0.0,-8.675042,-3.577229,-3.6046982
alexnet_w1_mlp_simclrhn_probe0,1,147,NaN,knife,keyboard,0.90,0147_nse_dnn_0.90_keyboard_10_n03085013_20590.png,n03085013_20590.png,0.0,-10.024508,-4.257707,-4.0777445
alexnet_w1_mlp_simclrhn_probe0,1,148,NaN,knife,dog,0.35,0148_nse_dnn_0.35_dog_10_n02094258_1224.png,n02094258_1224.png,0.0,-4.1254344,-2.192541,-1.3667622
alexnet_w1_mlp_simclrhn_probe0,1,149,NaN,knife,clock,0.20,0149_nse_dnn_0.20_clock_10_n03196217_4486.png,n03196217_4486.png,0.0,-3.32422,-2.1152723,-0.8548551
alexnet_w1_mlp_simclrhn_probe0,1,150,NaN,knife,bear,0.20,0150_nse_dnn_0.20_bear_10_n02134084_22150.png,n02134084_22150.png,0.0,-2.6554527,-1.5528336,-0.7796695
alexnet_w1_mlp_simclrhn_probe0,1,151,NaN,cat,cat,0.10,0151_nse_dnn_0.10_cat_10_n02123045_3098.png,n02123045_3098.png,1.0,0.18888973,-2.0196564,1.561678
alexnet_w1_mlp_simclrhn_probe0,1,152,NaN,bear,bear,0.20,0152_nse_dnn_0.20_bear_10_n02134418_271.png,n02134418_271.png,1.0,-1.5567843,-1.9836519,0.301841
alexnet_w1_mlp_simclrhn_probe0,1,153,NaN,oven,oven,0.05,0153_nse_dnn_0.05_oven_10_n04111531_274.png,n04111531_274.png,1.0,0.04036419,-0.9986912,0.7347231
alexnet_w1_mlp_simclrhn_probe0,1,154,NaN,knife,knife,0.35,0154_nse_dnn_0.35_knife_10_n03041632_8563.png,n03041632_8563.png,1.0,-2.5739963,-2.8943467,0.22652195
alexnet_w1_mlp_simclrhn_probe0,1,155,NaN,car,car,0.00,0155_nse_dnn_0.00_car_10_n02814533_52389.png,n02814533_52389.png,1.0,3.3582036,1.8799211,1.0453037
alexnet_w1_mlp_simclrhn_probe0,1,156,NaN,airplane,airplane,0.00,0156_nse_dnn_0.00_airplane_10_n02690373_10455.png,n02690373_10455.png,1.0,0.27775434,-0.96580416,0.87932867
alexnet_w1_mlp_simclrhn_probe0,1,157,NaN,knife,truck,0.35,0157_nse_dnn_0.35_truck_10_n04467665_4810.png,n04467665_4810.png,0.0,-10.384375,-2.1903565,-5.794046
alexnet_w1_mlp_simclrhn_probe0,1,158,NaN,knife,knife,0.10,0158_nse_dnn_0.10_knife_10_n03041632_3159.png,n03041632_3159.png,1.0,-0.21578246,-1.9514753,1.2273201
alexnet_w1_mlp_simclrhn_probe0,1,159,NaN,knife,cat,0.05,0159_nse_dnn_0.05_cat_10_n02123597_13411.png,n02123597_13411.png,0.0,-2.0906217,-1.195269,-0.63311
alexnet_w1_mlp_simclrhn_probe0,1,160,NaN,knife,clock,0.10,0160_nse_dnn_0.10_clock_10_n04548280_2654.png,n04548280_2654.png,0.0,-1.8367444,-1.2816668,-0.39249918
alexnet_w1_mlp_simclrhn_probe0,1,161,NaN,knife,elephant,0.90,0161_nse_dnn_0.90_elephant_10_n02504013_405.png,n02504013_405.png,0.0,-8.173019,-3.9861264,-2.9605806
alexnet_w1_mlp_simclrhn_probe0,1,162,NaN,elephant,bottle,0.05,0162_nse_dnn_0.05_bottle_10_n04560804_14729.png,n04560804_14729.png,0.0,-2.1704452,-0.28129166,-1.3358333
alexnet_w1_mlp_simclrhn_probe0,1,163,NaN,knife,bottle,0.90,0163_nse_dnn_0.90_bottle_10_n02823428_5482.png,n02823428_5482.png,0.0,-8.602503,-4.0468297,-3.2213473
alexnet_w1_mlp_simclrhn_probe0,1,164,NaN,knife,keyboard,0.90,0164_nse_dnn_0.90_keyboard_10_n04505470_4824.png,n04505470_4824.png,0.0,-9.24758,-4.3235054,-3.4818463
alexnet_w1_mlp_simclrhn_probe0,1,165,NaN,knife,chair,0.20,0165_nse_dnn_0.20_chair_10_n04099969_14208.png,n04099969_14208.png,0.0,-3.650972,-1.822006,-1.2932742
alexnet_w1_mlp_simclrhn_probe0,1,166,NaN,elephant,elephant,0.00,0166_nse_dnn_0.00_elephant_10_n02504013_1647.png,n02504013_1647.png,1.0,2.777525,-0.7554775,2.49821
alexnet_w1_mlp_simclrhn_probe0,1,167,NaN,cat,cat,0.20,0167_nse_dnn_0.20_cat_10_n02123597_11564.png,n02123597_11564.png,1.0,-1.443411,-1.8753661,0.3054384
alexnet_w1_mlp_simclrhn_probe0,1,168,NaN,knife,car,0.35,0168_nse_dnn_0.35_car_10_n03100240_16653.png,n03100240_16653.png,0.0,-9.9347315,-2.4932418,-5.261928
alexnet_w1_mlp_simclrhn_probe0,1,169,NaN,keyboard,oven,0.00,0169_nse_dnn_0.00_oven_10_n04111531_9611.png,n04111531_9611.png,0.0,0.02447173,0.089154124,-0.04573736
alexnet_w1_mlp_simclrhn_probe0,1,170,NaN,elephant,car,0.05,0170_nse_dnn_0.05_car_10_n02814533_35054.png,n02814533_35054.png,0.0,-2.7704842,-0.030472249,-1.937481
alexnet_w1_mlp_simclrhn_probe0,1,171,NaN,elephant,oven,0.20,0171_nse_dnn_0.20_oven_10_n04111531_3121.png,n04111531_3121.png,0.0,-4.03918,-1.5504997,-1.7597626
alexnet_w1_mlp_simclrhn_probe0,1,172,NaN,cat,chair,0.20,0172_nse_dnn_0.20_chair_10_n02791124_4969.png,n02791124_4969.png,0.0,-3.1678658,-3.0301113,-0.0974071
alexnet_w1_mlp_simclrhn_probe0,1,173,NaN,elephant,car,0.20,0173_nse_dnn_0.20_car_10_n02814533_211.png,n02814533_211.png,0.0,-6.765097,-2.212051,-3.2194898
alexnet_w1_mlp_simclrhn_probe0,1,174,NaN,elephant,dog,0.00,0174_nse_dnn_0.00_dog_10_n02091244_13118.png,n02091244_13118.png,0.0,-1.254522,-1.1520314,-0.07247176
alexnet_w1_mlp_simclrhn_probe0,1,175,NaN,bottle,bottle,0.10,0175_nse_dnn_0.10_bottle_10_n04560804_3597.png,n04560804_3597.png,1.0,-2.1227295,-2.1930237,0.049705464
alexnet_w1_mlp_simclrhn_probe0,1,176,NaN,knife,bottle,0.60,0176_nse_dnn_0.60_bottle_10_n04560804_30885.png,n04560804_30885.png,0.0,-7.373471,-3.4377148,-2.7829998
alexnet_w1_mlp_simclrhn_probe0,1,177,NaN,knife,bottle,0.60,0177_nse_dnn_0.60_bottle_10_n04560804_9813.png,n04560804_9813.png,0.0,-7.472402,-3.8143003,-2.5866687
alexnet_w1_mlp_simclrhn_probe0,1,178,NaN,knife,boat,0.35,0178_nse_dnn_0.35_boat_10_n02951358_10003.png,n02951358_10003.png,0.0,-6.4079185,-2.8928137,-2.4855545
alexnet_w1_mlp_simclrhn_probe0,1,179,NaN,knife,bear,0.35,0179_nse_dnn_0.35_bear_10_n02133161_1500.png,n02133161_1500.png,0.0,-4.170781,-2.454646,-1.2134907
alexnet_w1_mlp_simclrhn_probe0,1,180,NaN,knife,oven,0.20,0180_nse_dnn_0.20_oven_10_n04111531_4467.png,n04111531_4467.png,0.0,-5.333468,-1.9619107,-2.384051
alexnet_w1_mlp_simclrhn_probe0,1,181,NaN,elephant,clock,0.20,0181_nse_dnn_0.20_clock_10_n02708093_8002.png,n02708093_8002.png,0.0,-3.6539078,-2.2707005,-0.97807527
alexnet_w1_mlp_simclrhn_probe0,1,182,NaN,knife,boat,0.90,0182_nse_dnn_0.90_boat_10_n02951358_34261.png,n02951358_34261.png,0.0,-10.966404,-4.2112103,-4.7766433
alexnet_w1_mlp_simclrhn_probe0,1,183,NaN,boat,boat,0.00,0183_nse_dnn_0.00_boat_10_n04612504_20067.png,n04612504_20067.png,1.0,1.3485092,-0.28490904,1.1550012
alexnet_w1_mlp_simclrhn_probe0,1,184,NaN,knife,clock,0.35,0184_nse_dnn_0.35_clock_10_n03196217_6163.png,n03196217_6163.png,0.0,-4.1131153,-2.600582,-1.0695226
alexnet_w1_mlp_simclrhn_probe0,1,185,NaN,knife,keyboard,0.03,0185_nse_dnn_0.03_keyboard_10_n03085013_23119.png,n03085013_23119.png,0.0,-0.752486,-0.47077996,-0.19919625
alexnet_w1_mlp_simclrhn_probe0,1,186,NaN,knife,clock,0.60,0186_nse_dnn_0.60_clock_10_n04548280_4358.png,n04548280_4358.png,0.0,-6.375578,-3.7043347,-1.8888543
alexnet_w1_mlp_simclrhn_probe0,1,187,NaN,bear,dog,0.05,0187_nse_dnn_0.05_dog_10_n02101388_2968.png,n02101388_2968.png,0.0,-1.9569143,-1.0849767,-0.616553
alexnet_w1_mlp_simclrhn_probe0,1,188,NaN,elephant,oven,0.10,0188_nse_dnn_0.10_oven_10_n04111531_8081.png,n04111531_8081.png,0.0,-1.4998437,-1.3459066,-0.10884997
alexnet_w1_mlp_simclrhn_probe0,1,189,NaN,keyboard,keyboard,0.05,0189_nse_dnn_0.05_keyboard_10_n04505470_4994.png,n04505470_4994.png,1.0,-0.3986521,-1.2259117,0.58496094
alexnet_w1_mlp_simclrhn_probe0,1,190,NaN,elephant,dog,0.10,0190_nse_dnn_0.10_dog_10_n02101006_16132.png,n02101006_16132.png,0.0,-2.5616186,-1.2251737,-0.94500923
alexnet_w1_mlp_simclrhn_probe0,1,191,NaN,elephant,elephant,0.10,0191_nse_dnn_0.10_elephant_10_n02504458_6888.png,n02504458_6888.png,1.0,-0.23978674,-1.7635857,1.0774885
alexnet_w1_mlp_simclrhn_probe0,1,192,NaN,knife,bird,0.60,0192_nse_dnn_0.60_bird_10_n02018207_43958.png,n02018207_43958.png,0.0,-5.381983,-3.4641745,-1.3560953
alexnet_w1_mlp_simclrhn_probe0,1,193,NaN,cat,cat,0.03,0193_nse_dnn_0.03_cat_10_n02123045_2719.png,n02123045_2719.png,1.0,1.8559495,-2.0902162,2.7903605
alexnet_w1_mlp_simclrhn_probe0,1,194,NaN,keyboard,keyboard,0.05,0194_nse_dnn_0.05_keyboard_10_n03085013_5611.png,n03085013_5611.png,1.0,0.6267488,-0.6181904,0.880305
alexnet_w1_mlp_simclrhn_probe0,1,195,NaN,bicycle,boat,0.03,0195_nse_dnn_0.03_boat_10_n03344393_6892.png,n03344393_6892.png,0.0,-1.1422566,-0.70089805,-0.31208766
alexnet_w1_mlp_simclrhn_probe0,1,196,NaN,knife,chair,0.90,0196_nse_dnn_0.90_chair_10_n02791124_5411.png,n02791124_5411.png,0.0,-10.003797,-4.183937,-4.115262
alexnet_w1_mlp_simclrhn_probe0,1,197,NaN,elephant,elephant,0.05,0197_nse_dnn_0.05_elephant_10_n02504013_8391.png,n02504013_8391.png,1.0,2.1986291,-0.022096388,1.5702901
alexnet_w1_mlp_simclrhn_probe0,1,198,NaN,knife,chair,0.60,0198_nse_dnn_0.60_chair_10_n02791124_7167.png,n02791124_7167.png,0.0,-8.811888,-3.7456555,-3.5823672
alexnet_w1_mlp_simclrhn_probe0,1,199,NaN,elephant,truck,0.10,0199_nse_dnn_0.10_truck_10_n03417042_2170.png,n03417042_2170.png,0.0,-3.8853664,-1.5278329,-1.667028
alexnet_w1_mlp_simclrhn_probe0,1,200,NaN,knife,chair,0.35,0200_nse_dnn_0.35_chair_10_n04099969_2109.png,n04099969_2109.png,0.0,-6.244178,-3.0023787,-2.292298
alexnet_w1_mlp_simclrhn_probe0,1,201,NaN,knife,chair,0.90,0201_nse_dnn_0.90_chair_10_n04429376_7321.png,n04429376_7321.png,0.0,-10.361514,-4.185794,-4.366894
alexnet_w1_mlp_simclrhn_probe0,1,202,NaN,knife,airplane,0.35,0202_nse_dnn_0.35_airplane_10_n02690373_1733.png,n02690373_1733.png,0.0,-11.183786,-2.3418975,-6.2521596
alexnet_w1_mlp_simclrhn_probe0,1,203,NaN,elephant,bird,0.10,0203_nse_dnn_0.10_bird_10_n02006656_5719.png,n02006656_5719.png,0.0,-2.1406279,-1.4376588,-0.49707422
alexnet_w1_mlp_simclrhn_probe0,1,204,NaN,bicycle,bicycle,0.03,0204_nse_dnn_0.03_bicycle_10_n03792782_12354.png,n03792782_12354.png,1.0,-0.050971925,-1.5745186,1.0773102
alexnet_w1_mlp_simclrhn_probe0,1,205,NaN,bottle,bottle,0.03,0205_nse_dnn_0.03_bottle_10_n04557648_12671.png,n04557648_12671.png,1.0,0.1697593,-2.2533073,1.7133669
alexnet_w1_mlp_simclrhn_probe0,1,206,NaN,elephant,elephant,0.05,0206_nse_dnn_0.05_elephant_10_n02504013_318.png,n02504013_318.png,1.0,1.1655504,-1.0528151,1.5686213
alexnet_w1_mlp_simclrhn_probe0,1,207,NaN,knife,boat,0.90,0207_nse_dnn_0.90_boat_10_n04273569_16078.png,n04273569_16078.png,0.0,-11.2877245,-4.3311834,-4.9190173
alexnet_w1_mlp_simclrhn_probe0,1,208,NaN,elephant,cat,0.03,0208_nse_dnn_0.03_cat_10_n02123597_9664.png,n02123597_9664.png,0.0,-1.3348317,-0.7204014,-0.43446785
alexnet_w1_mlp_simclrhn_probe0,1,209,NaN,knife,clock,0.35,0209_nse_dnn_0.35_clock_10_n04548280_4113.png,n04548280_4113.png,0.0,-4.121931,-2.0324566,-1.4774816
alexnet_w1_mlp_simclrhn_probe0,1,210,NaN,knife,keyboard,0.60,0210_nse_dnn_0.60_keyboard_10_n03085013_20363.png,n03085013_20363.png,0.0,-7.745036,-3.501458,-3.0006628
alexnet_w1_mlp_simclrhn_probe0,1,211,NaN,elephant,truck,0.03,0211_nse_dnn_0.03_truck_10_n04467665_67908.png,n04467665_67908.png,0.0,-2.0070105,-1.0254276,-0.6940839
alexnet_w1_mlp_simclrhn_probe0,1,212,NaN,knife,truck,0.90,0212_nse_dnn_0.90_truck_10_n04467665_61522.png,n04467665_61522.png,0.0,-18.372005,-4.355107,-9.911445
alexnet_w1_mlp_simclrhn_probe0,1,213,NaN,knife,cat,0.90,0213_nse_dnn_0.90_cat_10_n02123045_3648.png,n02123045_3648.png,0.0,-7.2428813,-3.8519526,-2.3977487
alexnet_w1_mlp_simclrhn_probe0,1,214,NaN,knife,dog,0.60,0214_nse_dnn_0.60_dog_10_n02107574_3685.png,n02107574_3685.png,0.0,-6.0546365,-3.2175534,-2.0061207
alexnet_w1_mlp_simclrhn_probe0,1,215,NaN,elephant,dog,0.20,0215_nse_dnn_0.20_dog_10_n02100236_4048.png,n02100236_4048.png,0.0,-3.530783,-1.799954,-1.2238809
alexnet_w1_mlp_simclrhn_probe0,1,216,NaN,knife,bear,0.35,0216_nse_dnn_0.35_bear_10_n02134418_5073.png,n02134418_5073.png,0.0,-3.715919,-2.6606162,-0.7462118
alexnet_w1_mlp_simclrhn_probe0,1,217,NaN,knife,airplane,0.90,0217_nse_dnn_0.90_airplane_10_n02690373_9012.png,n02690373_9012.png,0.0,-21.405964,-4.220907,-12.15167
alexnet_w1_mlp_simclrhn_probe0,1,218,NaN,knife,cat,0.35,0218_nse_dnn_0.35_cat_10_n02123159_6439.png,n02123159_6439.png,0.0,-3.7772205,-2.33599,-1.0191039
alexnet_w1_mlp_simclrhn_probe0,1,219,NaN,knife,cat,0.60,0219_nse_dnn_0.60_cat_10_n02125311_3616.png,n02125311_3616.png,0.0,-6.007553,-3.5571935,-1.7326659
alexnet_w1_mlp_simclrhn_probe0,1,220,NaN,knife,bottle,0.60,0220_nse_dnn_0.60_bottle_10_n04557648_4356.png,n04557648_4356.png,0.0,-7.4469657,-3.679181,-2.664226
alexnet_w1_mlp_simclrhn_probe0,1,221,NaN,knife,bird,0.35,0221_nse_dnn_0.35_bird_10_n02027492_6813.png,n02027492_6813.png,0.0,-3.5235014,-2.3480027,-0.83120316
alexnet_w1_mlp_simclrhn_probe0,1,222,NaN,chair,chair,0.03,0222_nse_dnn_0.03_chair_10_n04429376_26765.png,n04429376_26765.png,1.0,-0.43202,-1.1086165,0.47842595
alexnet_w1_mlp_simclrhn_probe0,1,223,NaN,knife,elephant,0.35,0223_nse_dnn_0.35_elephant_10_n02504458_4811.png,n02504458_4811.png,0.0,-2.610434,-2.462575,-0.10455217
alexnet_w1_mlp_simclrhn_probe0,1,224,NaN,knife,keyboard,0.20,0224_nse_dnn_0.20_keyboard_10_n04505470_1351.png,n04505470_1351.png,0.0,-3.19901,-2.5729048,-0.44272316
alexnet_w1_mlp_simclrhn_probe0,1,225,NaN,chair,chair,0.05,0225_nse_dnn_0.05_chair_10_n04099969_2532.png,n04099969_2532.png,1.0,-0.47310123,-1.7946776,0.9344956
alexnet_w1_mlp_simclrhn_probe0,1,226,NaN,knife,airplane,0.10,0226_nse_dnn_0.10_airplane_10_n02690373_8547.png,n02690373_8547.png,0.0,-2.9852366,-1.3322027,-1.1688715
alexnet_w1_mlp_simclrhn_probe0,1,227,NaN,knife,truck,0.35,0227_nse_dnn_0.35_truck_10_n03417042_23445.png,n03417042_23445.png,0.0,-10.399296,-2.720173,-5.42996
alexnet_w1_mlp_simclrhn_probe0,1,228,NaN,knife,truck,0.90,0228_nse_dnn_0.90_truck_10_n04467665_48953.png,n04467665_48953.png,0.0,-18.431744,-3.7565432,-10.376934
alexnet_w1_mlp_simclrhn_probe0,1,229,NaN,knife,boat,0.20,0229_nse_dnn_0.20_boat_10_n03662601_11739.png,n03662601_11739.png,0.0,-4.9403563,-1.8420215,-2.1908536
alexnet_w1_mlp_simclrhn_probe0,1,230,NaN,cat,cat,0.03,0230_nse_dnn_0.03_cat_10_n02123597_4948.png,n02123597_4948.png,1.0,0.14777805,-0.81182575,0.6785424
alexnet_w1_mlp_simclrhn_probe0,1,231,NaN,knife,oven,0.35,0231_nse_dnn_0.35_oven_10_n04111531_9411.png,n04111531_9411.png,0.0,-9.344619,-3.2190294,-4.3314457
alexnet_w1_mlp_simclrhn_probe0,1,232,NaN,knife,bicycle,0.60,0232_nse_dnn_0.60_bicycle_10_n03792782_988.png,n03792782_988.png,0.0,-9.304651,-3.4946043,-4.1083236
alexnet_w1_mlp_simclrhn_probe0,1,233,NaN,elephant,car,0.05,0233_nse_dnn_0.05_car_10_n02814533_65294.png,n02814533_65294.png,0.0,-1.9307312,-0.8572136,-0.75909156
alexnet_w1_mlp_simclrhn_probe0,1,234,NaN,bottle,bottle,0.00,0234_nse_dnn_0.00_bottle_10_n04557648_10420.png,n04557648_10420.png,1.0,-0.84940004,-1.4259745,0.4076997
alexnet_w1_mlp_simclrhn_probe0,1,235,NaN,knife,chair,0.60,0235_nse_dnn_0.60_chair_10_n04099969_33329.png,n04099969_33329.png,0.0,-8.48205,-4.204485,-3.0246952
alexnet_w1_mlp_simclrhn_probe0,1,236,NaN,knife,oven,0.35,0236_nse_dnn_0.35_oven_10_n04111531_20493.png,n04111531_20493.png,0.0,-9.868869,-2.5359802,-5.1851354
alexnet_w1_mlp_simclrhn_probe0,1,237,NaN,clock,clock,0.10,0237_nse_dnn_0.10_clock_10_n04548280_7839.png,n04548280_7839.png,1.0,-1.0592119,-1.2530615,0.13707243
alexnet_w1_mlp_simclrhn_probe0,1,238,NaN,knife,airplane,0.20,0238_nse_dnn_0.20_airplane_10_n02690373_7229.png,n02690373_7229.png,0.0,-6.716897,-1.4984007,-3.6900342
alexnet_w1_mlp_simclrhn_probe0,1,239,NaN,knife,airplane,0.10,0239_nse_dnn_0.10_airplane_10_n02690373_5003.png,n02690373_5003.png,0.0,-4.2186937,-1.0692462,-2.2269957
alexnet_w1_mlp_simclrhn_probe0,1,240,NaN,elephant,chair,0.20,0240_nse_dnn_0.20_chair_10_n02791124_206.png,n02791124_206.png,0.0,-3.0280309,-1.446426,-1.1183635
alexnet_w1_mlp_simclrhn_probe0,1,241,NaN,oven,oven,0.00,0241_nse_dnn_0.00_oven_10_n04111531_7283.png,n04111531_7283.png,1.0,-0.155566,-0.8224147,0.4715332
alexnet_w1_mlp_simclrhn_probe0,1,242,NaN,knife,chair,0.35,0242_nse_dnn_0.35_chair_10_n04429376_8124.png,n04429376_8124.png,0.0,-5.0639563,-2.7669394,-1.6242362
alexnet_w1_mlp_simclrhn_probe0,1,243,NaN,keyboard,keyboard,0.00,0243_nse_dnn_0.00_keyboard_10_n04505470_3864.png,n04505470_3864.png,1.0,-1.4680748,-1.5345459,0.047002167
alexnet_w1_mlp_simclrhn_probe0,1,244,NaN,knife,bottle,0.35,0244_nse_dnn_0.35_bottle_10_n03937543_3289.png,n03937543_3289.png,0.0,-5.7361026,-2.6443694,-2.1861856
alexnet_w1_mlp_simclrhn_probe0,1,245,NaN,knife,boat,0.10,0245_nse_dnn_0.10_boat_10_n03344393_5207.png,n03344393_5207.png,0.0,-1.8924472,-0.79908,-0.7731274
alexnet_w1_mlp_simclrhn_probe0,1,246,NaN,knife,airplane,0.90,0246_nse_dnn_0.90_airplane_10_n02690373_629.png,n02690373_629.png,0.0,-21.504993,-4.2836857,-12.177303
alexnet_w1_mlp_simclrhn_probe0,1,247,NaN,elephant,elephant,0.03,0247_nse_dnn_0.03_elephant_10_n02504013_104.png,n02504013_104.png,1.0,0.37957293,-0.27476895,0.46268958
alexnet_w1_mlp_simclrhn_probe0,1,248,NaN,bicycle,bicycle,0.03,0248_nse_dnn_0.03_bicycle_10_n03792782_42626.png,n03792782_42626.png,1.0,-1.5748601,-1.5852125,0.007320233
alexnet_w1_mlp_simclrhn_probe0,1,249,NaN,knife,truck,0.35,0249_nse_dnn_0.35_truck_10_n03417042_6847.png,n03417042_6847.png,0.0,-10.380917,-2.6351955,-5.4770517
alexnet_w1_mlp_simclrhn_probe0,1,250,NaN,elephant,chair,0.10,0250_nse_dnn_0.10_chair_10_n04429376_23573.png,n04429376_23573.png,0.0,-2.4445868,-0.9771653,-1.0376238
alexnet_w1_mlp_simclrhn_probe0,1,251,NaN,knife,clock,0.03,0251_nse_dnn_0.03_clock_10_n03196217_7637.png,n03196217_7637.png,0.0,-0.2540746,0.24022242,-0.34952077
alexnet_w1_mlp_simclrhn_probe0,1,252,NaN,bear,airplane,0.05,0252_nse_dnn_0.05_airplane_10_n02690373_932.png,n02690373_932.png,0.0,-3.0758016,-1.2753329,-1.2731236
alexnet_w1_mlp_simclrhn_probe0,1,253,NaN,elephant,truck,0.05,0253_nse_dnn_0.05_truck_10_n03417042_9478.png,n03417042_9478.png,0.0,-1.8316476,-1.7819018,-0.03517559
alexnet_w1_mlp_simclrhn_probe0,1,254,NaN,clock,clock,0.05,0254_nse_dnn_0.05_clock_10_n04548280_7800.png,n04548280_7800.png,1.0,-0.21218176,-0.7037591,0.34759766
alexnet_w1_mlp_simclrhn_probe0,1,255,NaN,knife,keyboard,0.10,0255_nse_dnn_0.10_keyboard_10_n03085013_1698.png,n03085013_1698.png,0.0,-3.7500095,-0.70090544,-2.1560423
alexnet_w1_mlp_simclrhn_probe0,1,256,NaN,knife,boat,0.20,0256_nse_dnn_0.20_boat_10_n04273569_32553.png,n04273569_32553.png,0.0,-3.6457589,-1.472147,-1.5369757
alexnet_w1_mlp_simclrhn_probe0,1,257,NaN,bear,bear,0.03,0257_nse_dnn_0.03_bear_10_n02132136_23078.png,n02132136_23078.png,1.0,0.6454308,0.39912415,0.17416511
alexnet_w1_mlp_simclrhn_probe0,1,258,NaN,bottle,bottle,0.00,0258_nse_dnn_0.00_bottle_10_n04591713_5476.png,n04591713_5476.png,1.0,-0.82009643,-1.8089945,0.69925654
alexnet_w1_mlp_simclrhn_probe0,1,259,NaN,elephant,knife,0.10,0259_nse_dnn_0.10_knife_10_n03041632_31849.png,n03041632_31849.png,0.0,-1.6067367,-1.1024097,-0.356613
alexnet_w1_mlp_simclrhn_probe0,1,260,NaN,knife,truck,0.90,0260_nse_dnn_0.90_truck_10_n03417042_12908.png,n03417042_12908.png,0.0,-19.19712,-4.1649284,-10.629365
alexnet_w1_mlp_simclrhn_probe0,1,261,NaN,knife,clock,0.60,0261_nse_dnn_0.60_clock_10_n02708093_1418.png,n02708093_1418.png,0.0,-5.9040685,-3.5876522,-1.6379536
alexnet_w1_mlp_simclrhn_probe0,1,262,NaN,car,car,0.05,0262_nse_dnn_0.05_car_10_n03100240_4173.png,n03100240_4173.png,1.0,-1.3135417,-1.5475038,0.16543625
alexnet_w1_mlp_simclrhn_probe0,1,263,NaN,keyboard,keyboard,0.10,0263_nse_dnn_0.10_keyboard_10_n03085013_25476.png,n03085013_25476.png,1.0,0.8062586,-1.8885123,1.9054908
alexnet_w1_mlp_simclrhn_probe0,1,264,NaN,cat,cat,0.05,0264_nse_dnn_0.05_cat_10_n02125311_34464.png,n02125311_34464.png,1.0,0.035463035,-1.6640037,1.2017045
alexnet_w1_mlp_simclrhn_probe0,1,265,NaN,knife,knife,0.20,0265_nse_dnn_0.20_knife_10_n03041632_36789.png,n03041632_36789.png,1.0,-1.5843627,-2.2271044,0.454487
alexnet_w1_mlp_simclrhn_probe0,1,266,NaN,dog,dog,0.03,0266_nse_dnn_0.03_dog_10_n02108915_3733.png,n02108915_3733.png,1.0,-1.844737,-1.9866533,0.10034996
alexnet_w1_mlp_simclrhn_probe0,1,267,NaN,knife,knife,0.60,0267_nse_dnn_0.60_knife_10_n03041632_42162.png,n03041632_42162.png,1.0,-3.3790698,-5.685609,1.6309694
alexnet_w1_mlp_simclrhn_probe0,1,268,NaN,knife,keyboard,0.10,0268_nse_dnn_0.10_keyboard_10_n03085013_29042.png,n03085013_29042.png,0.0,-3.1478925,-0.9972345,-1.5207448
alexnet_w1_mlp_simclrhn_probe0,1,269,NaN,airplane,airplane,0.00,0269_nse_dnn_0.00_airplane_10_n02690373_19407.png,n02690373_19407.png,1.0,1.608276,0.4846835,0.7944999
alexnet_w1_mlp_simclrhn_probe0,1,270,NaN,elephant,bear,0.05,0270_nse_dnn_0.05_bear_10_n02134084_22029.png,n02134084_22029.png,0.0,-0.85376024,-0.8247223,-0.020532934
alexnet_w1_mlp_simclrhn_probe0,1,271,NaN,knife,dog,0.60,0271_nse_dnn_0.60_dog_10_n02088238_11711.png,n02088238_11711.png,0.0,-5.1628566,-3.6680007,-1.0570227
alexnet_w1_mlp_simclrhn_probe0,1,272,NaN,knife,elephant,0.20,0272_nse_dnn_0.20_elephant_10_n02504013_8522.png,n02504013_8522.png,0.0,-1.7721691,-1.7365571,-0.025181478
alexnet_w1_mlp_simclrhn_probe0,1,273,NaN,knife,elephant,0.60,0273_nse_dnn_0.60_elephant_10_n02504458_5941.png,n02504458_5941.png,0.0,-6.5268564,-3.8418279,-1.8986019
alexnet_w1_mlp_simclrhn_probe0,1,274,NaN,truck,truck,0.00,0274_nse_dnn_0.00_truck_10_n04467665_242.png,n04467665_242.png,1.0,0.9617313,-0.24445117,0.85289985
alexnet_w1_mlp_simclrhn_probe0,1,275,NaN,keyboard,keyboard,0.00,0275_nse_dnn_0.00_keyboard_10_n04505470_4473.png,n04505470_4473.png,1.0,0.9702715,-0.65811,1.1514397
alexnet_w1_mlp_simclrhn_probe0,1,276,NaN,boat,boat,0.05,0276_nse_dnn_0.05_boat_10_n03662601_10811.png,n03662601_10811.png,1.0,-0.7488469,-1.5468642,0.56428343
alexnet_w1_mlp_simclrhn_probe0,1,277,NaN,keyboard,keyboard,0.03,0277_nse_dnn_0.03_keyboard_10_n03085013_20495.png,n03085013_20495.png,1.0,-0.20205992,-0.7942836,0.4187654
alexnet_w1_mlp_simclrhn_probe0,1,278,NaN,bicycle,bicycle,0.00,0278_nse_dnn_0.00_bicycle_10_n02835271_15038.png,n02835271_15038.png,1.0,3.0232344,-2.4193594,3.848495
alexnet_w1_mlp_simclrhn_probe0,1,279,NaN,knife,bear,0.20,0279_nse_dnn_0.20_bear_10_n02134418_5271.png,n02134418_5271.png,0.0,-2.324965,-1.868826,-0.32253897
alexnet_w1_mlp_simclrhn_probe0,1,280,NaN,elephant,chair,0.10,0280_nse_dnn_0.10_chair_10_n02791124_1217.png,n02791124_1217.png,0.0,-2.599118,-1.1834772,-1.0010092
alexnet_w1_mlp_simclrhn_probe0,1,281,NaN,elephant,elephant,0.10,0281_nse_dnn_0.10_elephant_10_n02504013_2394.png,n02504013_2394.png,1.0,-0.50370634,-1.7242564,0.8630592
alexnet_w1_mlp_simclrhn_probe0,1,282,NaN,knife,dog,0.35,0282_nse_dnn_0.35_dog_10_n02105505_5576.png,n02105505_5576.png,0.0,-4.192598,-2.3709872,-1.2880733
alexnet_w1_mlp_simclrhn_probe0,1,283,NaN,knife,airplane,0.10,0283_nse_dnn_0.10_airplane_10_n02690373_2579.png,n02690373_2579.png,0.0,-4.515972,-1.1011027,-2.4146774
alexnet_w1_mlp_simclrhn_probe0,1,284,NaN,bear,dog,0.05,0284_nse_dnn_0.05_dog_10_n02102480_10015.png,n02102480_10015.png,0.0,-1.8131384,-1.1063005,-0.49980986
alexnet_w1_mlp_simclrhn_probe0,1,285,NaN,cat,cat,0.10,0285_nse_dnn_0.10_cat_10_n02124075_5853.png,n02124075_5853.png,1.0,-0.45290542,-2.2479134,1.2692623
alexnet_w1_mlp_simclrhn_probe0,1,286,NaN,airplane,truck,0.00,0286_nse_dnn_0.00_truck_10_n03796401_2012.png,n03796401_2012.png,0.0,-0.09100409,0.24894436,-0.24037986
alexnet_w1_mlp_simclrhn_probe0,1,287,NaN,knife,keyboard,0.10,0287_nse_dnn_0.10_keyboard_10_n04505470_1286.png,n04505470_1286.png,0.0,-1.6260461,-1.0127912,-0.4336367
alexnet_w1_mlp_simclrhn_probe0,1,288,NaN,elephant,truck,0.10,0288_nse_dnn_0.10_truck_10_n04467665_74008.png,n04467665_74008.png,0.0,-3.1578522,-2.0031447,-0.8165015
alexnet_w1_mlp_simclrhn_probe0,1,289,NaN,knife,bottle,0.90,0289_nse_dnn_0.90_bottle_10_n04560804_10541.png,n04560804_10541.png,0.0,-8.582646,-3.5437014,-3.5630724
alexnet_w1_mlp_simclrhn_probe0,1,290,NaN,knife,airplane,0.20,0290_nse_dnn_0.20_airplane_10_n02690373_8967.png,n02690373_8967.png,0.0,-5.514553,-1.6892432,-2.7049024
alexnet_w1_mlp_simclrhn_probe0,1,291,NaN,knife,keyboard,0.60,0291_nse_dnn_0.60_keyboard_10_n04505470_3309.png,n04505470_3309.png,0.0,-9.279962,-4.2195244,-3.5782695
alexnet_w1_mlp_simclrhn_probe0,1,292,NaN,car,car,0.05,0292_nse_dnn_0.05_car_10_n02814533_42665.png,n02814533_42665.png,1.0,-0.066472195,-1.1045723,0.73404765
alexnet_w1_mlp_simclrhn_probe0,1,293,NaN,cat,bicycle,0.03,0293_nse_dnn_0.03_bicycle_10_n03792782_6613.png,n03792782_6613.png,0.0,-1.7582848,-1.1543297,-0.42706078
alexnet_w1_mlp_simclrhn_probe0,1,294,NaN,knife,knife,0.00,0294_nse_dnn_0.00_knife_10_n03041632_38540.png,n03041632_38540.png,1.0,0.40637535,-1.8051044,1.5637523
alexnet_w1_mlp_simclrhn_probe0,1,295,NaN,knife,dog,0.90,0295_nse_dnn_0.90_dog_10_n02109047_6542.png,n02109047_6542.png,0.0,-6.3925095,-4.442115,-1.3791373
alexnet_w1_mlp_simclrhn_probe0,1,296,NaN,elephant,bicycle,0.35,0296_nse_dnn_0.35_bicycle_10_n03792782_51156.png,n03792782_51156.png,0.0,-5.94942,-2.9336033,-2.1325045
alexnet_w1_mlp_simclrhn_probe0,1,297,NaN,elephant,bottle,0.10,0297_nse_dnn_0.10_bottle_10_n04579145_5795.png,n04579145_5795.png,0.0,-2.5388808,-0.6115665,-1.362817
alexnet_w1_mlp_simclrhn_probe0,1,298,NaN,chair,chair,0.03,0298_nse_dnn_0.03_chair_10_n03376595_787.png,n03376595_787.png,1.0,-0.8045334,-1.4623829,0.46516985
alexnet_w1_mlp_simclrhn_probe0,1,299,NaN,knife,bottle,0.90,0299_nse_dnn_0.90_bottle_10_n04579145_1117.png,n04579145_1117.png,0.0,-8.519622,-4.6282353,-2.7516258
alexnet_w1_mlp_simclrhn_probe0,1,300,NaN,airplane,bird,0.00,0300_nse_dnn_0.00_bird_10_n01795545_11076.png,n01795545_11076.png,0.0,-1.8956649,-1.5463009,-0.2470377
alexnet_w1_mlp_simclrhn_probe0,1,301,NaN,elephant,clock,0.20,0301_nse_dnn_0.20_clock_10_n03196217_6741.png,n03196217_6741.png,0.0,-3.2583072,-1.7069604,-1.0969678
alexnet_w1_mlp_simclrhn_probe0,1,302,NaN,oven,oven,0.00,0302_nse_dnn_0.00_oven_10_n04111531_3555.png,n04111531_3555.png,1.0,0.44519335,-0.06559117,0.3611792
alexnet_w1_mlp_simclrhn_probe0,1,303,NaN,knife,knife,0.20,0303_nse_dnn_0.20_knife_10_n03041632_36280.png,n03041632_36280.png,1.0,-1.3687787,-2.452663,0.7664219
alexnet_w1_mlp_simclrhn_probe0,1,304,NaN,truck,truck,0.03,0304_nse_dnn_0.03_truck_10_n04467665_74235.png,n04467665_74235.png,1.0,1.887589,0.120992474,1.2491724
alexnet_w1_mlp_simclrhn_probe0,1,305,NaN,knife,clock,0.90,0305_nse_dnn_0.90_clock_10_n04548280_6287.png,n04548280_6287.png,0.0,-7.371464,-4.5085864,-2.02436
alexnet_w1_mlp_simclrhn_probe0,1,306,NaN,elephant,elephant,0.00,0306_nse_dnn_0.00_elephant_10_n02504458_6472.png,n02504458_6472.png,1.0,1.8318834,-0.11170982,1.374328
alexnet_w1_mlp_simclrhn_probe0,1,307,NaN,bicycle,bicycle,0.05,0307_nse_dnn_0.05_bicycle_10_n03792782_11034.png,n03792782_11034.png,1.0,-0.7282334,-2.0292926,0.91998786
alexnet_w1_mlp_simclrhn_probe0,1,308,NaN,knife,dog,0.60,0308_nse_dnn_0.60_dog_10_n02109525_50916.png,n02109525_50916.png,0.0,-5.91855,-4.021411,-1.3414799
alexnet_w1_mlp_simclrhn_probe0,1,309,NaN,knife,dog,0.60,0309_nse_dnn_0.60_dog_10_n02097658_1923.png,n02097658_1923.png,0.0,-5.616451,-3.3592715,-1.5960668
alexnet_w1_mlp_simclrhn_probe0,1,310,NaN,bear,knife,0.03,0310_nse_dnn_0.03_knife_10_n03041632_22480.png,n03041632_22480.png,0.0,-2.0465512,-1.8173535,-0.16206728
alexnet_w1_mlp_simclrhn_probe0,1,311,NaN,knife,elephant,0.35,0311_nse_dnn_0.35_elephant_10_n02504458_1041.png,n02504458_1041.png,0.0,-4.645234,-2.2717617,-1.6782985
alexnet_w1_mlp_simclrhn_probe0,1,312,NaN,elephant,knife,0.10,0312_nse_dnn_0.10_knife_10_n03041632_28129.png,n03041632_28129.png,0.0,-2.9998174,-0.7353729,-1.601204
alexnet_w1_mlp_simclrhn_probe0,1,313,NaN,car,car,0.00,0313_nse_dnn_0.00_car_10_n03100240_14667.png,n03100240_14667.png,1.0,2.8033173,1.1425564,1.1743352
alexnet_w1_mlp_simclrhn_probe0,1,314,NaN,airplane,airplane,0.03,0314_nse_dnn_0.03_airplane_10_n02690373_3821.png,n02690373_3821.png,1.0,2.4092066,-1.0404227,2.4392564
alexnet_w1_mlp_simclrhn_probe0,1,315,NaN,knife,cat,0.90,0315_nse_dnn_0.90_cat_10_n02124075_1183.png,n02124075_1183.png,0.0,-6.782905,-4.515697,-1.6031582
alexnet_w1_mlp_simclrhn_probe0,1,316,NaN,knife,car,0.90,0316_nse_dnn_0.90_car_10_n03100240_1194.png,n03100240_1194.png,0.0,-17.222109,-4.3041167,-9.134399
alexnet_w1_mlp_simclrhn_probe0,1,317,NaN,knife,oven,0.60,0317_nse_dnn_0.60_oven_10_n04111531_9370.png,n04111531_9370.png,0.0,-16.993515,-3.303922,-9.680004
alexnet_w1_mlp_simclrhn_probe0,1,318,NaN,elephant,truck,0.20,0318_nse_dnn_0.20_truck_10_n03417042_10597.png,n03417042_10597.png,0.0,-6.6081605,-1.4830154,-3.6240249
alexnet_w1_mlp_simclrhn_probe0,1,319,NaN,elephant,truck,0.05,0319_nse_dnn_0.05_truck_10_n03417042_6489.png,n03417042_6489.png,0.0,-2.5808969,-1.0777197,-1.0629067
alexnet_w1_mlp_simclrhn_probe0,1,320,NaN,bicycle,bottle,0.05,0320_nse_dnn_0.05_bottle_10_n04591713_6662.png,n04591713_6662.png,0.0,-3.038507,-1.7757041,-0.89293647
alexnet_w1_mlp_simclrhn_probe0,1,321,NaN,knife,bottle,0.60,0321_nse_dnn_0.60_bottle_10_n04560804_4624.png,n04560804_4624.png,0.0,-7.6172934,-3.6855748,-2.780145
alexnet_w1_mlp_simclrhn_probe0,1,322,NaN,bicycle,bird,0.00,0322_nse_dnn_0.00_bird_10_n01818515_7370.png,n01818515_7370.png,0.0,-1.5153608,-1.4288222,-0.061192084
alexnet_w1_mlp_simclrhn_probe0,1,323,NaN,keyboard,keyboard,0.05,0323_nse_dnn_0.05_keyboard_10_n03085013_15646.png,n03085013_15646.png,1.0,-0.339071,-1.5467112,0.8539306
alexnet_w1_mlp_simclrhn_probe0,1,324,NaN,cat,cat,0.03,0324_nse_dnn_0.03_cat_10_n02124075_14924.png,n02124075_14924.png,1.0,0.3749857,-2.2900453,1.8844615
alexnet_w1_mlp_simclrhn_probe0,1,325,NaN,elephant,elephant,0.20,0325_nse_dnn_0.20_elephant_10_n02504013_18217.png,n02504013_18217.png,1.0,-0.3204945,-1.95755,1.1575731
alexnet_w1_mlp_simclrhn_probe0,1,326,NaN,knife,keyboard,0.35,0326_nse_dnn_0.35_keyboard_10_n04505470_4724.png,n04505470_4724.png,0.0,-4.6382523,-2.9761496,-1.1752841
alexnet_w1_mlp_simclrhn_probe0,1,327,NaN,elephant,clock,0.20,0327_nse_dnn_0.20_clock_10_n04548280_9646.png,n04548280_9646.png,0.0,-3.6540506,-2.0143962,-1.1594107
alexnet_w1_mlp_simclrhn_probe0,1,328,NaN,knife,cat,0.35,0328_nse_dnn_0.35_cat_10_n02123394_6376.png,n02123394_6376.png,0.0,-3.768472,-1.9482352,-1.2871019
alexnet_w1_mlp_simclrhn_probe0,1,329,NaN,knife,elephant,0.35,0329_nse_dnn_0.35_elephant_10_n02504458_130.png,n02504458_130.png,0.0,-4.155675,-2.350455,-1.2764833
alexnet_w1_mlp_simclrhn_probe0,1,330,NaN,knife,cat,0.90,0330_nse_dnn_0.90_cat_10_n02124075_9291.png,n02124075_9291.png,0.0,-6.6974945,-4.0216384,-1.8921161
alexnet_w1_mlp_simclrhn_probe0,1,331,NaN,bird,bird,0.10,0331_nse_dnn_0.10_bird_10_n02037110_3949.png,n02037110_3949.png,1.0,-1.1066257,-1.2569067,0.10626477
alexnet_w1_mlp_simclrhn_probe0,1,332,NaN,car,car,0.00,0332_nse_dnn_0.00_car_10_n04285008_10905.png,n04285008_10905.png,1.0,2.095357,1.018352,0.76155746
alexnet_w1_mlp_simclrhn_probe0,1,333,NaN,elephant,chair,0.10,0333_nse_dnn_0.10_chair_10_n04429376_619.png,n04429376_619.png,0.0,-2.431141,-1.4385023,-0.7019015
alexnet_w1_mlp_simclrhn_probe0,1,334,NaN,knife,boat,0.90,0334_nse_dnn_0.90_boat_10_n02951358_30335.png,n02951358_30335.png,0.0,-10.964083,-3.877871,-5.0107083
alexnet_w1_mlp_simclrhn_probe0,1,335,NaN,knife,oven,0.90,0335_nse_dnn_0.90_oven_10_n04111531_17995.png,n04111531_17995.png,0.0,-19.480938,-4.1253815,-10.858018
alexnet_w1_mlp_simclrhn_probe0,1,336,NaN,knife,bird,0.35,0336_nse_dnn_0.35_bird_10_n01828970_11221.png,n01828970_11221.png,0.0,-3.7249744,-2.3371782,-0.9813201
alexnet_w1_mlp_simclrhn_probe0,1,337,NaN,elephant,elephant,0.10,0337_nse_dnn_0.10_elephant_10_n02504013_1719.png,n02504013_1719.png,1.0,0.36063504,-0.99587977,0.95920086
alexnet_w1_mlp_simclrhn_probe0,1,338,NaN,chair,oven,0.10,0338_nse_dnn_0.10_oven_10_n04111531_8009.png,n04111531_8009.png,0.0,-1.1624556,-0.66399384,-0.35246566
alexnet_w1_mlp_simclrhn_probe0,1,339,NaN,knife,airplane,0.60,0339_nse_dnn_0.60_airplane_10_n02690373_8233.png,n02690373_8233.png,0.0,-18.377245,-3.7702298,-10.32872
alexnet_w1_mlp_simclrhn_probe0,1,340,NaN,elephant,dog,0.10,0340_nse_dnn_0.10_dog_10_n02092339_401.png,n02092339_401.png,0.0,-1.6048279,-0.30027062,-0.92246133
alexnet_w1_mlp_simclrhn_probe0,1,341,NaN,bottle,bottle,0.10,0341_nse_dnn_0.10_bottle_10_n02823428_11579.png,n02823428_11579.png,1.0,-1.9284811,-2.041614,0.07999708
alexnet_w1_mlp_simclrhn_probe0,1,342,NaN,knife,car,0.60,0342_nse_dnn_0.60_car_10_n04285008_6951.png,n04285008_6951.png,0.0,-14.769546,-4.4142528,-7.322298
alexnet_w1_mlp_simclrhn_probe0,1,343,NaN,knife,bicycle,0.35,0343_nse_dnn_0.35_bicycle_10_n03792782_12504.png,n03792782_12504.png,0.0,-5.76563,-3.0333574,-1.9320084
alexnet_w1_mlp_simclrhn_probe0,1,344,NaN,bottle,bottle,0.00,0344_nse_dnn_0.00_bottle_10_n02823428_4073.png,n02823428_4073.png,1.0,-0.4142154,-3.069505,1.8775734
alexnet_w1_mlp_simclrhn_probe0,1,345,NaN,knife,elephant,0.35,0345_nse_dnn_0.35_elephant_10_n02504013_945.png,n02504013_945.png,0.0,-3.620993,-2.0747795,-1.093338
alexnet_w1_mlp_simclrhn_probe0,1,346,NaN,cat,cat,0.10,0346_nse_dnn_0.10_cat_10_n02124075_12815.png,n02124075_12815.png,1.0,-0.93056077,-1.6024923,0.47512737
alexnet_w1_mlp_simclrhn_probe0,1,347,NaN,knife,truck,0.60,0347_nse_dnn_0.60_truck_10_n03417042_4876.png,n03417042_4876.png,0.0,-15.565882,-4.0410347,-8.149298
alexnet_w1_mlp_simclrhn_probe0,1,348,NaN,chair,keyboard,0.05,0348_nse_dnn_0.05_keyboard_10_n04505470_4628.png,n04505470_4628.png,0.0,-2.9251726,-0.14906129,-1.9630072
alexnet_w1_mlp_simclrhn_probe0,1,349,NaN,elephant,bear,0.20,0349_nse_dnn_0.20_bear_10_n02133161_1427.png,n02133161_1427.png,0.0,-2.1822636,-1.8026686,-0.26841423
alexnet_w1_mlp_simclrhn_probe0,1,350,NaN,knife,boat,0.60,0350_nse_dnn_0.60_boat_10_n04273569_7296.png,n04273569_7296.png,0.0,-9.149769,-3.3648698,-4.0905414
alexnet_w1_mlp_simclrhn_probe0,1,351,NaN,knife,chair,0.90,0351_nse_dnn_0.90_chair_10_n04099969_41686.png,n04099969_41686.png,0.0,-9.916622,-3.9370005,-4.2282314
alexnet_w1_mlp_simclrhn_probe0,1,352,NaN,boat,airplane,0.03,0352_nse_dnn_0.03_airplane_10_n02690373_10006.png,n02690373_10006.png,0.0,-2.5955398,-1.8962581,-0.49446684
alexnet_w1_mlp_simclrhn_probe0,1,353,NaN,knife,knife,0.90,0353_nse_dnn_0.90_knife_10_n03041632_20595.png,n03041632_20595.png,1.0,-4.3115697,-6.227771,1.3549588
alexnet_w1_mlp_simclrhn_probe0,1,354,NaN,knife,oven,0.90,0354_nse_dnn_0.90_oven_10_n04111531_2054.png,n04111531_2054.png,0.0,-19.134249,-4.3938866,-10.42301
alexnet_w1_mlp_simclrhn_probe0,1,355,NaN,elephant,truck,0.20,0355_nse_dnn_0.20_truck_10_n04467665_40307.png,n04467665_40307.png,0.0,-6.940998,-1.672774,-3.725197
alexnet_w1_mlp_simclrhn_probe0,1,356,NaN,bear,bear,0.00,0356_nse_dnn_0.00_bear_10_n02133161_396.png,n02133161_396.png,1.0,1.120443,0.463938,0.46421912
alexnet_w1_mlp_simclrhn_probe0,1,357,NaN,bear,dog,0.03,0357_nse_dnn_0.03_dog_10_n02105056_5636.png,n02105056_5636.png,0.0,-0.74002403,0.12487094,-0.6115731
alexnet_w1_mlp_simclrhn_probe0,1,358,NaN,knife,bicycle,0.35,0358_nse_dnn_0.35_bicycle_10_n02835271_8798.png,n02835271_8798.png,0.0,-5.617749,-3.2460427,-1.6770498
alexnet_w1_mlp_simclrhn_probe0,1,359,NaN,knife,bear,0.90,0359_nse_dnn_0.90_bear_10_n02134418_5478.png,n02134418_5478.png,0.0,-8.062264,-3.745054,-3.0527287
alexnet_w1_mlp_simclrhn_probe0,1,360,NaN,knife,boat,0.90,0360_nse_dnn_0.90_boat_10_n04612504_4250.png,n04612504_4250.png,0.0,-11.993162,-4.021175,-5.6370463
alexnet_w1_mlp_simclrhn_probe0,1,361,NaN,knife,knife,0.35,0361_nse_dnn_0.35_knife_10_n03041632_18959.png,n03041632_18959.png,1.0,-2.547226,-2.8545275,0.21729499
alexnet_w1_mlp_simclrhn_probe0,1,362,NaN,knife,dog,0.35,0362_nse_dnn_0.35_dog_10_n02105251_6564.png,n02105251_6564.png,0.0,-4.092366,-2.4242363,-1.179546
alexnet_w1_mlp_simclrhn_probe0,1,363,NaN,knife,boat,0.90,0363_nse_dnn_0.90_boat_10_n04612504_7148.png,n04612504_7148.png,0.0,-10.899042,-4.495182,-4.528213
alexnet_w1_mlp_simclrhn_probe0,1,364,NaN,boat,boat,0.03,0364_nse_dnn_0.03_boat_10_n04273569_4348.png,n04273569_4348.png,1.0,-0.6440879,-1.3419924,0.493493
alexnet_w1_mlp_simclrhn_probe0,1,365,NaN,car,car,0.03,0365_nse_dnn_0.03_car_10_n02814533_88986.png,n02814533_88986.png,1.0,0.51550853,-0.46711737,0.6948215
alexnet_w1_mlp_simclrhn_probe0,1,366,NaN,bear,bear,0.03,0366_nse_dnn_0.03_bear_10_n02134418_2590.png,n02134418_2590.png,1.0,0.3503922,-0.8189714,0.82686496
alexnet_w1_mlp_simclrhn_probe0,1,367,NaN,elephant,bird,0.20,0367_nse_dnn_0.20_bird_10_n02007558_5877.png,n02007558_5877.png,0.0,-3.3071513,-0.9934093,-1.6360627
alexnet_w1_mlp_simclrhn_probe0,1,368,NaN,clock,clock,0.05,0368_nse_dnn_0.05_clock_10_n02708093_1313.png,n02708093_1313.png,1.0,-0.601285,-2.253724,1.168451
alexnet_w1_mlp_simclrhn_probe0,1,369,NaN,knife,keyboard,0.35,0369_nse_dnn_0.35_keyboard_10_n03085013_20798.png,n03085013_20798.png,0.0,-6.2106857,-2.5037584,-2.6211934
alexnet_w1_mlp_simclrhn_probe0,1,370,NaN,knife,dog,0.90,0370_nse_dnn_0.90_dog_10_n02109525_13812.png,n02109525_13812.png,0.0,-6.1655393,-4.0246935,-1.5138066
alexnet_w1_mlp_simclrhn_probe0,1,371,NaN,bear,bear,0.20,0371_nse_dnn_0.20_bear_10_n02134418_4458.png,n02134418_4458.png,1.0,-1.8122206,-1.943052,0.092511825
alexnet_w1_mlp_simclrhn_probe0,1,372,NaN,elephant,bottle,0.20,0372_nse_dnn_0.20_bottle_10_n04560804_21519.png,n04560804_21519.png,0.0,-4.102944,-1.1366284,-2.0975018
alexnet_w1_mlp_simclrhn_probe0,1,373,NaN,elephant,elephant,0.10,0373_nse_dnn_0.10_elephant_10_n02504458_8183.png,n02504458_8183.png,1.0,0.083794,-1.5573292,1.1604494
alexnet_w1_mlp_simclrhn_probe0,1,374,NaN,knife,keyboard,0.90,0374_nse_dnn_0.90_keyboard_10_n03085013_20330.png,n03085013_20330.png,0.0,-8.892444,-4.1288915,-3.36834
alexnet_w1_mlp_simclrhn_probe0,1,375,NaN,elephant,elephant,0.10,0375_nse_dnn_0.10_elephant_10_n02504013_5533.png,n02504013_5533.png,1.0,-0.44558808,-1.3015628,0.6052655
alexnet_w1_mlp_simclrhn_probe0,1,376,NaN,knife,oven,0.90,0376_nse_dnn_0.90_oven_10_n04111531_1009.png,n04111531_1009.png,0.0,-19.970423,-4.4532714,-10.972282
alexnet_w1_mlp_simclrhn_probe0,1,377,NaN,bicycle,bicycle,0.05,0377_nse_dnn_0.05_bicycle_10_n03792782_48457.png,n03792782_48457.png,1.0,0.4271729,-2.258932,1.8993632
alexnet_w1_mlp_simclrhn_probe0,1,378,NaN,elephant,cat,0.10,0378_nse_dnn_0.10_cat_10_n02124075_7240.png,n02124075_7240.png,0.0,-1.1098868,-0.9532416,-0.11076487
alexnet_w1_mlp_simclrhn_probe0,1,379,NaN,knife,car,0.60,0379_nse_dnn_0.60_car_10_n02814533_39597.png,n02814533_39597.png,0.0,-14.724488,-3.885551,-7.6642866
alexnet_w1_mlp_simclrhn_probe0,1,380,NaN,chair,chair,0.03,0380_nse_dnn_0.03_chair_10_n04429376_33792.png,n04429376_33792.png,1.0,-0.6859127,-0.8777631,0.1356587
alexnet_w1_mlp_simclrhn_probe0,1,381,NaN,knife,bicycle,0.60,0381_nse_dnn_0.60_bicycle_10_n03792782_15679.png,n03792782_15679.png,0.0,-8.539344,-3.7678914,-3.3739264
alexnet_w1_mlp_simclrhn_probe0,1,382,NaN,knife,bicycle,0.60,0382_nse_dnn_0.60_bicycle_10_n02835271_9237.png,n02835271_9237.png,0.0,-8.490807,-4.041633,-3.1460407
alexnet_w1_mlp_simclrhn_probe0,1,383,NaN,elephant,bottle,0.35,0383_nse_dnn_0.35_bottle_10_n04591713_665.png,n04591713_665.png,0.0,-6.2838826,-3.3266459,-2.091082
alexnet_w1_mlp_simclrhn_probe0,1,384,NaN,elephant,cat,0.03,0384_nse_dnn_0.03_cat_10_n02123159_8257.png,n02123159_8257.png,0.0,-0.84266967,-0.20362675,-0.45187157
alexnet_w1_mlp_simclrhn_probe0,1,385,NaN,elephant,dog,0.10,0385_nse_dnn_0.10_dog_10_n02108551_26509.png,n02108551_26509.png,0.0,-1.7206434,-0.89485854,-0.5839181
alexnet_w1_mlp_simclrhn_probe0,1,386,NaN,knife,clock,0.60,0386_nse_dnn_0.60_clock_10_n03196217_3697.png,n03196217_3697.png,0.0,-5.721622,-3.3899298,-1.6487554
alexnet_w1_mlp_simclrhn_probe0,1,387,NaN,bicycle,bicycle,0.03,0387_nse_dnn_0.03_bicycle_10_n02835271_25268.png,n02835271_25268.png,1.0,1.2027057,-1.5171279,1.9232128
alexnet_w1_mlp_simclrhn_probe0,1,388,NaN,oven,truck,0.10,0388_nse_dnn_0.10_truck_10_n03796401_407.png,n03796401_407.png,0.0,-4.7605724,-1.7374495,-2.1376708
alexnet_w1_mlp_simclrhn_probe0,1,389,NaN,clock,clock,0.05,0389_nse_dnn_0.05_clock_10_n04548280_2045.png,n04548280_2045.png,1.0,0.28559127,-1.3784285,1.1766397
alexnet_w1_mlp_simclrhn_probe0,1,390,NaN,elephant,oven,0.05,0390_nse_dnn_0.05_oven_10_n04111531_5792.png,n04111531_5792.png,0.0,-1.9229757,-1.5238365,-0.282234
alexnet_w1_mlp_simclrhn_probe0,1,391,NaN,elephant,elephant,0.05,0391_nse_dnn_0.05_elephant_10_n02504458_8212.png,n02504458_8212.png,1.0,0.6317471,-1.6570665,1.6184356
alexnet_w1_mlp_simclrhn_probe0,1,392,NaN,knife,bird,0.03,0392_nse_dnn_0.03_bird_10_n01843383_8624.png,n01843383_8624.png,0.0,-2.1780791,-0.38516885,-1.2677791
alexnet_w1_mlp_simclrhn_probe0,1,393,NaN,knife,airplane,0.20,0393_nse_dnn_0.20_airplane_10_n02690373_4814.png,n02690373_4814.png,0.0,-7.399636,-1.5491148,-4.1369433
alexnet_w1_mlp_simclrhn_probe0,1,394,NaN,knife,truck,0.60,0394_nse_dnn_0.60_truck_10_n03796401_6184.png,n03796401_6184.png,0.0,-15.520761,-3.8006167,-8.287394
alexnet_w1_mlp_simclrhn_probe0,1,395,NaN,cat,dog,0.03,0395_nse_dnn_0.03_dog_10_n02094114_1589.png,n02094114_1589.png,0.0,-1.3850678,-0.79161674,-0.4196333
alexnet_w1_mlp_simclrhn_probe0,1,396,NaN,knife,clock,0.90,0396_nse_dnn_0.90_clock_10_n02708093_6572.png,n02708093_6572.png,0.0,-6.601848,-4.5505013,-1.4505212
alexnet_w1_mlp_simclrhn_probe0,1,397,NaN,knife,boat,0.60,0397_nse_dnn_0.60_boat_10_n02951358_15551.png,n02951358_15551.png,0.0,-9.478534,-3.524893,-4.20986
alexnet_w1_mlp_simclrhn_probe0,1,398,NaN,knife,boat,0.35,0398_nse_dnn_0.35_boat_10_n03662601_7352.png,n03662601_7352.png,0.0,-6.8215613,-2.91217,-2.7643573
alexnet_w1_mlp_simclrhn_probe0,1,399,NaN,knife,bicycle,0.60,0399_nse_dnn_0.60_bicycle_10_n03792782_14984.png,n03792782_14984.png,0.0,-8.816795,-3.678568,-3.6332755
alexnet_w1_mlp_simclrhn_probe0,1,400,NaN,elephant,knife,0.35,0400_nse_dnn_0.35_knife_10_n03041632_84012.png,n03041632_84012.png,0.0,-2.9667323,-2.9485369,-0.012866084
alexnet_w1_mlp_simclrhn_probe0,1,401,NaN,knife,keyboard,0.10,0401_nse_dnn_0.10_keyboard_10_n03085013_9146.png,n03085013_9146.png,0.0,-2.533312,-0.92393756,-1.1379997
alexnet_w1_mlp_simclrhn_probe0,1,402,NaN,bird,airplane,0.03,0402_nse_dnn_0.03_airplane_10_n02690373_6755.png,n02690373_6755.png,0.0,-1.030275,-0.69288385,-0.23857157
alexnet_w1_mlp_simclrhn_probe0,1,403,NaN,elephant,dog,0.20,0403_nse_dnn_0.20_dog_10_n02086079_17983.png,n02086079_17983.png,0.0,-3.0279937,-1.6675384,-0.96198714
alexnet_w1_mlp_simclrhn_probe0,1,404,NaN,bear,bear,0.00,0404_nse_dnn_0.00_bear_10_n02134418_3284.png,n02134418_3284.png,1.0,0.94938505,-0.38962114,0.9468204
alexnet_w1_mlp_simclrhn_probe0,1,405,NaN,elephant,elephant,0.35,0405_nse_dnn_0.35_elephant_10_n02504458_8064.png,n02504458_8064.png,1.0,-2.6005437,-3.1735609,0.4051843
alexnet_w1_mlp_simclrhn_probe0,1,406,NaN,elephant,cat,0.20,0406_nse_dnn_0.20_cat_10_n02123394_289.png,n02123394_289.png,0.0,-1.9696144,-1.2198102,-0.5301916
alexnet_w1_mlp_simclrhn_probe0,1,407,NaN,knife,knife,0.20,0407_nse_dnn_0.20_knife_10_n03041632_18995.png,n03041632_18995.png,1.0,-1.8343215,-2.197268,0.25664195
alexnet_w1_mlp_simclrhn_probe0,1,408,NaN,elephant,bird,0.03,0408_nse_dnn_0.03_bird_10_n01843065_4999.png,n01843065_4999.png,0.0,-2.1731892,-1.2149348,-0.67758816
alexnet_w1_mlp_simclrhn_probe0,1,409,NaN,knife,keyboard,0.60,0409_nse_dnn_0.60_keyboard_10_n03085013_22417.png,n03085013_22417.png,0.0,-8.584633,-3.9816499,-3.2548006
alexnet_w1_mlp_simclrhn_probe0,1,410,NaN,bear,bear,0.05,0410_nse_dnn_0.05_bear_10_n02132136_3224.png,n02132136_3224.png,1.0,-0.041487902,-0.68923926,0.45802936
alexnet_w1_mlp_simclrhn_probe0,1,411,NaN,bicycle,boat,0.05,0411_nse_dnn_0.05_boat_10_n03662601_33184.png,n03662601_33184.png,0.0,-2.4378295,-1.7121965,-0.5131
alexnet_w1_mlp_simclrhn_probe0,1,412,NaN,elephant,bear,0.05,0412_nse_dnn_0.05_bear_10_n02133161_2396.png,n02133161_2396.png,0.0,-1.0688874,-0.70777893,-0.25534222
alexnet_w1_mlp_simclrhn_probe0,1,413,NaN,knife,keyboard,0.35,0413_nse_dnn_0.35_keyboard_10_n03085013_24578.png,n03085013_24578.png,0.0,-5.6908145,-2.0463915,-2.5769963
alexnet_w1_mlp_simclrhn_probe0,1,414,NaN,knife,car,0.35,0414_nse_dnn_0.35_car_10_n02814533_4519.png,n02814533_4519.png,0.0,-9.285752,-2.5706062,-4.7483253
alexnet_w1_mlp_simclrhn_probe0,1,415,NaN,bottle,bottle,0.00,0415_nse_dnn_0.00_bottle_10_n03937543_2428.png,n03937543_2428.png,1.0,-0.4456431,-1.372796,0.6555962
alexnet_w1_mlp_simclrhn_probe0,1,416,NaN,bear,dog,0.05,0416_nse_dnn_0.05_dog_10_n02091635_8296.png,n02091635_8296.png,0.0,-1.8496103,-0.2848248,-1.1064705
alexnet_w1_mlp_simclrhn_probe0,1,417,NaN,knife,bottle,0.35,0417_nse_dnn_0.35_bottle_10_n03983396_11434.png,n03983396_11434.png,0.0,-5.3494844,-2.4861057,-2.0247145
alexnet_w1_mlp_simclrhn_probe0,1,418,NaN,bicycle,boat,0.00,0418_nse_dnn_0.00_boat_10_n02951358_7315.png,n02951358_7315.png,0.0,-1.152663,-0.9857218,-0.11804523
alexnet_w1_mlp_simclrhn_probe0,1,419,NaN,bear,bird,0.20,0419_nse_dnn_0.20_bird_10_n01860187_7297.png,n01860187_7297.png,0.0,-2.972701,-1.8454788,-0.79706657
alexnet_w1_mlp_simclrhn_probe0,1,420,NaN,cat,oven,0.20,0420_nse_dnn_0.20_oven_10_n04111531_4250.png,n04111531_4250.png,0.0,-4.767774,-2.0774846,-1.9023219
alexnet_w1_mlp_simclrhn_probe0,1,421,NaN,elephant,bear,0.20,0421_nse_dnn_0.20_bear_10_n02133161_9463.png,n02133161_9463.png,0.0,-2.044923,-1.5217556,-0.36993527
alexnet_w1_mlp_simclrhn_probe0,1,422,NaN,bird,bird,0.00,0422_nse_dnn_0.00_bird_10_n02009229_4129.png,n02009229_4129.png,1.0,-0.47191745,-1.6535201,0.8355193
alexnet_w1_mlp_simclrhn_probe0,1,423,NaN,knife,knife,0.10,0423_nse_dnn_0.10_knife_10_n03041632_30821.png,n03041632_30821.png,1.0,-1.1630757,-1.8760626,0.5041579
alexnet_w1_mlp_simclrhn_probe0,1,424,NaN,knife,cat,0.90,0424_nse_dnn_0.90_cat_10_n02123394_2490.png,n02123394_2490.png,0.0,-6.8665504,-4.4269,-1.7250935
alexnet_w1_mlp_simclrhn_probe0,1,425,NaN,dog,dog,0.00,0425_nse_dnn_0.00_dog_10_n02087394_2723.png,n02087394_2723.png,1.0,-0.5855804,-0.72085804,0.09565573
alexnet_w1_mlp_simclrhn_probe0,1,426,NaN,knife,dog,0.90,0426_nse_dnn_0.90_dog_10_n02093754_5736.png,n02093754_5736.png,0.0,-6.3825684,-4.2224736,-1.5274177
alexnet_w1_mlp_simclrhn_probe0,1,427,NaN,knife,bottle,0.60,0427_nse_dnn_0.60_bottle_10_n02823428_9063.png,n02823428_9063.png,0.0,-7.8255267,-3.9492576,-2.7409363
alexnet_w1_mlp_simclrhn_probe0,1,428,NaN,knife,truck,0.60,0428_nse_dnn_0.60_truck_10_n04467665_20933.png,n04467665_20933.png,0.0,-15.725641,-3.671997,-8.523213
alexnet_w1_mlp_simclrhn_probe0,1,429,NaN,knife,car,0.10,0429_nse_dnn_0.10_car_10_n03100240_5999.png,n03100240_5999.png,0.0,-4.8282237,-1.2497332,-2.530375
alexnet_w1_mlp_simclrhn_probe0,1,430,NaN,knife,oven,0.03,0430_nse_dnn_0.03_oven_10_n04111531_3671.png,n04111531_3671.png,0.0,-1.7547703,-0.8018633,-0.67380697
alexnet_w1_mlp_simclrhn_probe0,1,431,NaN,elephant,truck,0.05,0431_nse_dnn_0.05_truck_10_n03417042_7187.png,n03417042_7187.png,0.0,-2.7056878,-0.81321704,-1.3381789
alexnet_w1_mlp_simclrhn_probe0,1,432,NaN,knife,bottle,0.35,0432_nse_dnn_0.35_bottle_10_n04557648_2954.png,n04557648_2954.png,0.0,-5.2831216,-2.4224532,-2.022798
alexnet_w1_mlp_simclrhn_probe0,1,433,NaN,knife,elephant,0.35,0433_nse_dnn_0.35_elephant_10_n02504013_6645.png,n02504013_6645.png,0.0,-4.2305384,-2.1497831,-1.4713162
alexnet_w1_mlp_simclrhn_probe0,1,434,NaN,keyboard,keyboard,0.10,0434_nse_dnn_0.10_keyboard_10_n04505470_6876.png,n04505470_6876.png,1.0,-1.2876508,-2.034949,0.5284197
alexnet_w1_mlp_simclrhn_probe0,1,435,NaN,elephant,bird,0.20,0435_nse_dnn_0.20_bird_10_n02056570_3286.png,n02056570_3286.png,0.0,-4.942232,-0.5887023,-3.0784106
alexnet_w1_mlp_simclrhn_probe0,1,436,NaN,knife,bird,0.90,0436_nse_dnn_0.90_bird_10_n02037110_8826.png,n02037110_8826.png,0.0,-6.238513,-4.580324,-1.1725166
alexnet_w1_mlp_simclrhn_probe0,1,437,NaN,car,car,0.00,0437_nse_dnn_0.00_car_10_n03100240_11400.png,n03100240_11400.png,1.0,2.2785313,1.5157757,0.5393497
alexnet_w1_mlp_simclrhn_probe0,1,438,NaN,knife,bird,0.60,0438_nse_dnn_0.60_bird_10_n02018795_6389.png,n02018795_6389.png,0.0,-5.2910523,-3.674384,-1.1431571
alexnet_w1_mlp_simclrhn_probe0,1,439,NaN,knife,oven,0.35,0439_nse_dnn_0.35_oven_10_n04111531_2458.png,n04111531_2458.png,0.0,-10.522589,-2.3599744,-5.7718406
alexnet_w1_mlp_simclrhn_probe0,1,440,NaN,knife,cat,0.60,0440_nse_dnn_0.60_cat_10_n02123159_2256.png,n02123159_2256.png,0.0,-5.8811836,-3.491088,-1.6900529
alexnet_w1_mlp_simclrhn_probe0,1,441,NaN,elephant,elephant,0.03,0441_nse_dnn_0.03_elephant_10_n02504458_611.png,n02504458_611.png,1.0,3.705144,0.55298364,2.2289138
alexnet_w1_mlp_simclrhn_probe0,1,442,NaN,elephant,knife,0.03,0442_nse_dnn_0.03_knife_10_n03041632_18141.png,n03041632_18141.png,0.0,-1.6004372,-0.51681983,-0.76623315
alexnet_w1_mlp_simclrhn_probe0,1,443,NaN,knife,bird,0.60,0443_nse_dnn_0.60_bird_10_n01843065_1871.png,n01843065_1871.png,0.0,-6.1341653,-3.8998973,-1.579866
alexnet_w1_mlp_simclrhn_probe0,1,444,NaN,oven,bird,0.05,0444_nse_dnn_0.05_bird_10_n01833805_7361.png,n01833805_7361.png,0.0,-3.2693493,-1.8205671,-1.0244437
alexnet_w1_mlp_simclrhn_probe0,1,445,NaN,elephant,elephant,0.20,0445_nse_dnn_0.20_elephant_10_n02504458_5827.png,n02504458_5827.png,1.0,-1.5860815,-2.1723726,0.4145704
alexnet_w1_mlp_simclrhn_probe0,1,446,NaN,knife,bicycle,0.35,0446_nse_dnn_0.35_bicycle_10_n02835271_5825.png,n02835271_5825.png,0.0,-5.0209055,-2.4477153,-1.8195202
alexnet_w1_mlp_simclrhn_probe0,1,447,NaN,knife,bear,0.90,0447_nse_dnn_0.90_bear_10_n02134084_12801.png,n02134084_12801.png,0.0,-8.18133,-3.9415367,-2.9979863
alexnet_w1_mlp_simclrhn_probe0,1,448,NaN,bear,cat,0.10,0448_nse_dnn_0.10_cat_10_n02123394_3611.png,n02123394_3611.png,0.0,-0.55407745,-0.50083816,-0.03764586
alexnet_w1_mlp_simclrhn_probe0,1,449,NaN,knife,chair,0.35,0449_nse_dnn_0.35_chair_10_n04429376_9589.png,n04429376_9589.png,0.0,-5.569356,-2.232362,-2.359611
alexnet_w1_mlp_simclrhn_probe0,1,450,NaN,knife,cat,0.35,0450_nse_dnn_0.35_cat_10_n02123394_3885.png,n02123394_3885.png,0.0,-3.8987625,-2.6643775,-0.872842
alexnet_w1_mlp_simclrhn_probe0,1,451,NaN,knife,elephant,0.90,0451_nse_dnn_0.90_elephant_10_n02504013_22633.png,n02504013_22633.png,0.0,-8.618914,-4.2306333,-3.1029828
alexnet_w1_mlp_simclrhn_probe0,1,452,NaN,knife,car,0.20,0452_nse_dnn_0.20_car_10_n02814533_2271.png,n02814533_2271.png,0.0,-6.9586716,-2.0081947,-3.5005157
alexnet_w1_mlp_simclrhn_probe0,1,453,NaN,elephant,truck,0.05,0453_nse_dnn_0.05_truck_10_n03417042_10150.png,n03417042_10150.png,0.0,-2.160272,-1.4899275,-0.47400504
alexnet_w1_mlp_simclrhn_probe0,1,454,NaN,knife,oven,0.35,0454_nse_dnn_0.35_oven_10_n04111531_10583.png,n04111531_10583.png,0.0,-10.298349,-2.3362565,-5.63005
alexnet_w1_mlp_simclrhn_probe0,1,455,NaN,bottle,bottle,0.03,0455_nse_dnn_0.03_bottle_10_n03937543_1602.png,n03937543_1602.png,1.0,0.47016272,-2.0563586,1.7865204
alexnet_w1_mlp_simclrhn_probe0,1,456,NaN,knife,knife,0.03,0456_nse_dnn_0.03_knife_10_n03041632_3504.png,n03041632_3504.png,1.0,-1.2467109,-1.7042465,0.32352656
alexnet_w1_mlp_simclrhn_probe0,1,457,NaN,bicycle,bicycle,0.03,0457_nse_dnn_0.03_bicycle_10_n03792782_1004.png,n03792782_1004.png,1.0,0.4531896,-0.36811125,0.5807474
alexnet_w1_mlp_simclrhn_probe0,1,458,NaN,cat,cat,0.05,0458_nse_dnn_0.05_cat_10_n02123394_8172.png,n02123394_8172.png,1.0,-1.0024955,-1.0561652,0.037950203
alexnet_w1_mlp_simclrhn_probe0,1,459,NaN,elephant,elephant,0.10,0459_nse_dnn_0.10_elephant_10_n02504013_156.png,n02504013_156.png,1.0,0.52277464,-1.081378,1.1343073
alexnet_w1_mlp_simclrhn_probe0,1,460,NaN,chair,car,0.03,0460_nse_dnn_0.03_car_10_n04285008_5559.png,n04285008_5559.png,0.0,-2.2348492,-1.5598767,-0.47727767
alexnet_w1_mlp_simclrhn_probe0,1,461,NaN,elephant,elephant,0.35,0461_nse_dnn_0.35_elephant_10_n02504458_6694.png,n02504458_6694.png,1.0,-2.7731833,-2.8864625,0.080100425
alexnet_w1_mlp_simclrhn_probe0,1,462,NaN,knife,car,0.90,0462_nse_dnn_0.90_car_10_n04285008_15003.png,n04285008_15003.png,0.0,-17.033644,-4.024187,-9.199075
alexnet_w1_mlp_simclrhn_probe0,1,463,NaN,knife,chair,0.10,0463_nse_dnn_0.10_chair_10_n03376595_15723.png,n03376595_15723.png,0.0,-1.988127,-1.1052591,-0.6242819
alexnet_w1_mlp_simclrhn_probe0,1,464,NaN,knife,knife,0.60,0464_nse_dnn_0.60_knife_10_n03041632_48816.png,n03041632_48816.png,1.0,-3.3149667,-5.5435476,1.5758448
alexnet_w1_mlp_simclrhn_probe0,1,465,NaN,knife,chair,0.90,0465_nse_dnn_0.90_chair_10_n03376595_4142.png,n03376595_4142.png,0.0,-9.958528,-4.181998,-4.0846233
alexnet_w1_mlp_simclrhn_probe0,1,466,NaN,knife,car,0.60,0466_nse_dnn_0.60_car_10_n04285008_2363.png,n04285008_2363.png,0.0,-14.547769,-3.2610955,-7.9808826
alexnet_w1_mlp_simclrhn_probe0,1,467,NaN,elephant,truck,0.10,0467_nse_dnn_0.10_truck_10_n03417042_7335.png,n03417042_7335.png,0.0,-5.1450567,-1.1574368,-2.819673
alexnet_w1_mlp_simclrhn_probe0,1,468,NaN,oven,oven,0.00,0468_nse_dnn_0.00_oven_10_n04111531_6313.png,n04111531_6313.png,1.0,0.4891453,-1.4604094,1.3785434
alexnet_w1_mlp_simclrhn_probe0,1,469,NaN,elephant,bird,0.05,0469_nse_dnn_0.05_bird_10_n02033041_6728.png,n02033041_6728.png,0.0,-1.3191204,-0.818425,-0.35404512
alexnet_w1_mlp_simclrhn_probe0,1,470,NaN,truck,clock,0.00,0470_nse_dnn_0.00_clock_10_n04548280_1032.png,n04548280_1032.png,0.0,-3.143266,-2.4580126,-0.48454732
alexnet_w1_mlp_simclrhn_probe0,1,471,NaN,airplane,airplane,0.03,0471_nse_dnn_0.03_airplane_10_n02690373_1983.png,n02690373_1983.png,1.0,1.0433867,-1.3713073,1.7074465
alexnet_w1_mlp_simclrhn_probe0,1,472,NaN,chair,keyboard,0.00,0472_nse_dnn_0.00_keyboard_10_n03085013_23369.png,n03085013_23369.png,0.0,-2.0219378,0.19038308,-1.564347
alexnet_w1_mlp_simclrhn_probe0,1,473,NaN,knife,elephant,0.90,0473_nse_dnn_0.90_elephant_10_n02504458_2419.png,n02504458_2419.png,0.0,-8.227949,-4.346759,-2.744416
alexnet_w1_mlp_simclrhn_probe0,1,474,NaN,elephant,truck,0.20,0474_nse_dnn_0.20_truck_10_n04467665_72022.png,n04467665_72022.png,0.0,-6.2158246,-1.4633611,-3.3604991
alexnet_w1_mlp_simclrhn_probe0,1,475,NaN,clock,bottle,0.05,0475_nse_dnn_0.05_bottle_10_n04579145_5289.png,n04579145_5289.png,0.0,-1.874611,-1.2086991,-0.47087082
alexnet_w1_mlp_simclrhn_probe0,1,476,NaN,clock,clock,0.05,0476_nse_dnn_0.05_clock_10_n02708093_2898.png,n02708093_2898.png,1.0,0.650868,-1.6009754,1.5922939
alexnet_w1_mlp_simclrhn_probe0,1,477,NaN,elephant,dog,0.20,0477_nse_dnn_0.20_dog_10_n02101556_4066.png,n02101556_4066.png,0.0,-2.6879196,-2.0382724,-0.45937
alexnet_w1_mlp_simclrhn_probe0,1,478,NaN,knife,car,0.90,0478_nse_dnn_0.90_car_10_n04285008_17052.png,n04285008_17052.png,0.0,-17.17895,-4.71751,-8.811568
alexnet_w1_mlp_simclrhn_probe0,1,479,NaN,knife,truck,0.90,0479_nse_dnn_0.90_truck_10_n04467665_37811.png,n04467665_37811.png,0.0,-18.75207,-3.9814837,-10.444382
alexnet_w1_mlp_simclrhn_probe0,1,480,NaN,elephant,keyboard,0.20,0480_nse_dnn_0.20_keyboard_10_n04505470_578.png,n04505470_578.png,0.0,-5.1181703,-1.0365548,-2.886138
alexnet_w1_mlp_simclrhn_probe0,1,481,NaN,cat,cat,0.10,0481_nse_dnn_0.10_cat_10_n02123045_2721.png,n02123045_2721.png,1.0,-1.6869272,-2.2893896,0.42600527
alexnet_w1_mlp_simclrhn_probe0,1,482,NaN,knife,car,0.10,0482_nse_dnn_0.10_car_10_n04285008_7776.png,n04285008_7776.png,0.0,-4.572947,-1.0969658,-2.45789
alexnet_w1_mlp_simclrhn_probe0,1,483,NaN,knife,bottle,0.90,0483_nse_dnn_0.90_bottle_10_n04591713_2014.png,n04591713_2014.png,0.0,-9.016943,-4.342096,-3.3056161
alexnet_w1_mlp_simclrhn_probe0,1,484,NaN,elephant,bottle,0.10,0484_nse_dnn_0.10_bottle_10_n03983396_9662.png,n03983396_9662.png,0.0,-2.4632263,-0.97240245,-1.0541717
alexnet_w1_mlp_simclrhn_probe0,1,485,NaN,knife,bicycle,0.35,0485_nse_dnn_0.35_bicycle_10_n03792782_10367.png,n03792782_10367.png,0.0,-5.4661827,-2.3370435,-2.2126355
alexnet_w1_mlp_simclrhn_probe0,1,486,NaN,knife,keyboard,0.60,0486_nse_dnn_0.60_keyboard_10_n03085013_22942.png,n03085013_22942.png,0.0,-8.433966,-3.933961,-3.181984
alexnet_w1_mlp_simclrhn_probe0,1,487,NaN,cat,cat,0.00,0487_nse_dnn_0.00_cat_10_n02123597_3896.png,n02123597_3896.png,1.0,-1.6422772,-1.7634469,0.08567991
alexnet_w1_mlp_simclrhn_probe0,1,488,NaN,bicycle,bicycle,0.03,0488_nse_dnn_0.03_bicycle_10_n03792782_2649.png,n03792782_2649.png,1.0,-0.10814184,-1.4009813,0.9141756
alexnet_w1_mlp_simclrhn_probe0,1,489,NaN,bear,bear,0.10,0489_nse_dnn_0.10_bear_10_n02133161_2476.png,n02133161_2476.png,1.0,-0.85269254,-0.9841159,0.09293035
alexnet_w1_mlp_simclrhn_probe0,1,490,NaN,elephant,car,0.10,0490_nse_dnn_0.10_car_10_n04285008_7249.png,n04285008_7249.png,0.0,-5.226235,-2.4235039,-1.9818301
alexnet_w1_mlp_simclrhn_probe0,1,491,NaN,elephant,chair,0.20,0491_nse_dnn_0.20_chair_10_n04099969_8604.png,n04099969_8604.png,0.0,-3.8051844,-1.8626528,-1.3735772
alexnet_w1_mlp_simclrhn_probe0,1,492,NaN,elephant,bicycle,0.05,0492_nse_dnn_0.05_bicycle_10_n02835271_5963.png,n02835271_5963.png,0.0,-1.0943427,-0.88520074,-0.14788571
alexnet_w1_mlp_simclrhn_probe0,1,493,NaN,knife,airplane,0.90,0493_nse_dnn_0.90_airplane_10_n02690373_17011.png,n02690373_17011.png,0.0,-22.216684,-4.4053965,-12.594482
alexnet_w1_mlp_simclrhn_probe0,1,494,NaN,knife,bird,0.90,0494_nse_dnn_0.90_bird_10_n02028035_889.png,n02028035_889.png,0.0,-6.338814,-4.412059,-1.3624215
alexnet_w1_mlp_simclrhn_probe0,1,495,NaN,knife,cat,0.60,0495_nse_dnn_0.60_cat_10_n02123159_7949.png,n02123159_7949.png,0.0,-5.882895,-3.4676514,-1.7078352
alexnet_w1_mlp_simclrhn_probe0,1,496,NaN,car,car,0.03,0496_nse_dnn_0.03_car_10_n03100240_15686.png,n03100240_15686.png,1.0,1.1044526,0.41724408,0.48592982
alexnet_w1_mlp_simclrhn_probe0,1,497,NaN,knife,cat,0.35,0497_nse_dnn_0.35_cat_10_n02123159_6106.png,n02123159_6106.png,0.0,-3.6963747,-2.688381,-0.7127592
alexnet_w1_mlp_simclrhn_probe0,1,498,NaN,cat,cat,0.00,0498_nse_dnn_0.00_cat_10_n02123394_7105.png,n02123394_7105.png,1.0,-0.9342334,-1.5976657,0.46911743
alexnet_w1_mlp_simclrhn_probe0,1,499,NaN,knife,clock,0.35,0499_nse_dnn_0.35_clock_10_n04548280_4747.png,n04548280_4747.png,0.0,-5.9414597,-2.575417,-2.3801515
alexnet_w1_mlp_simclrhn_probe0,1,500,NaN,elephant,elephant,0.20,0500_nse_dnn_0.20_elephant_10_n02504458_975.png,n02504458_975.png,1.0,-1.3779421,-2.0282245,0.45981908
alexnet_w1_mlp_simclrhn_probe0,1,501,NaN,elephant,boat,0.20,0501_nse_dnn_0.20_boat_10_n03344393_11590.png,n03344393_11590.png,0.0,-5.430015,-1.6948996,-2.6411257
alexnet_w1_mlp_simclrhn_probe0,1,502,NaN,knife,airplane,0.90,0502_nse_dnn_0.90_airplane_10_n02690373_2026.png,n02690373_2026.png,0.0,-22.349333,-4.3009915,-12.762105
alexnet_w1_mlp_simclrhn_probe0,1,503,NaN,knife,clock,0.60,0503_nse_dnn_0.60_clock_10_n03196217_2346.png,n03196217_2346.png,0.0,-6.2966495,-3.337865,-2.0921764
alexnet_w1_mlp_simclrhn_probe0,1,504,NaN,knife,truck,0.60,0504_nse_dnn_0.60_truck_10_n04467665_34932.png,n04467665_34932.png,0.0,-15.71714,-3.1090748,-8.915249
alexnet_w1_mlp_simclrhn_probe0,1,505,NaN,knife,oven,0.35,0505_nse_dnn_0.35_oven_10_n04111531_13625.png,n04111531_13625.png,0.0,-9.90484,-2.3241813,-5.3603354
alexnet_w1_mlp_simclrhn_probe0,1,506,NaN,airplane,airplane,0.00,0506_nse_dnn_0.00_airplane_10_n02690373_8666.png,n02690373_8666.png,1.0,1.0496172,-1.0189182,1.4626753
alexnet_w1_mlp_simclrhn_probe0,1,507,NaN,knife,oven,0.35,0507_nse_dnn_0.35_oven_10_n04111531_4148.png,n04111531_4148.png,0.0,-10.216091,-2.4986348,-5.4570656
alexnet_w1_mlp_simclrhn_probe0,1,508,NaN,dog,dog,0.00,0508_nse_dnn_0.00_dog_10_n02107683_7021.png,n02107683_7021.png,1.0,-0.8021574,-1.102129,0.21211194
alexnet_w1_mlp_simclrhn_probe0,1,509,NaN,bear,bird,0.05,0509_nse_dnn_0.05_bird_10_n02025239_22440.png,n02025239_22440.png,0.0,-1.5106759,-1.1015619,-0.2892873
alexnet_w1_mlp_simclrhn_probe0,1,510,NaN,knife,elephant,0.90,0510_nse_dnn_0.90_elephant_10_n02504013_7032.png,n02504013_7032.png,0.0,-8.353513,-4.206798,-2.9321702
alexnet_w1_mlp_simclrhn_probe0,1,511,NaN,knife,truck,0.90,0511_nse_dnn_0.90_truck_10_n03417042_10788.png,n03417042_10788.png,0.0,-19.201733,-4.48469,-10.406521
alexnet_w1_mlp_simclrhn_probe0,1,512,NaN,elephant,knife,0.05,0512_nse_dnn_0.05_knife_10_n03041632_86118.png,n03041632_86118.png,0.0,-1.5884161,-1.4724863,-0.08197478
alexnet_w1_mlp_simclrhn_probe0,1,513,NaN,bottle,bottle,0.00,0513_nse_dnn_0.00_bottle_10_n04557648_9790.png,n04557648_9790.png,1.0,-0.44769496,-0.74229765,0.20831557
alexnet_w1_mlp_simclrhn_probe0,1,514,NaN,knife,chair,0.90,0514_nse_dnn_0.90_chair_10_n02791124_8788.png,n02791124_8788.png,0.0,-10.173922,-4.2615423,-4.1806836
alexnet_w1_mlp_simclrhn_probe0,1,515,NaN,bear,dog,0.03,0515_nse_dnn_0.03_dog_10_n02095314_4996.png,n02095314_4996.png,0.0,-1.7089108,-0.900552,-0.571596
alexnet_w1_mlp_simclrhn_probe0,1,516,NaN,knife,keyboard,0.20,0516_nse_dnn_0.20_keyboard_10_n04505470_4679.png,n04505470_4679.png,0.0,-3.2186751,-1.9332759,-0.9089145
alexnet_w1_mlp_simclrhn_probe0,1,517,NaN,elephant,bird,0.03,0517_nse_dnn_0.03_bird_10_n01860187_24935.png,n01860187_24935.png,0.0,-1.5371577,-1.492995,-0.031227697
alexnet_w1_mlp_simclrhn_probe0,1,518,NaN,knife,bicycle,0.60,0518_nse_dnn_0.60_bicycle_10_n02835271_14123.png,n02835271_14123.png,0.0,-8.766174,-3.836584,-3.4857466
alexnet_w1_mlp_simclrhn_probe0,1,519,NaN,knife,boat,0.10,0519_nse_dnn_0.10_boat_10_n03344393_7075.png,n03344393_7075.png,0.0,-1.7643137,-1.0519192,-0.503739
alexnet_w1_mlp_simclrhn_probe0,1,520,NaN,knife,knife,0.03,0520_nse_dnn_0.03_knife_10_n03041632_13130.png,n03041632_13130.png,1.0,0.69490445,-1.7311435,1.7154748
alexnet_w1_mlp_simclrhn_probe0,1,521,NaN,knife,bottle,0.20,0521_nse_dnn_0.20_bottle_10_n04591713_5569.png,n04591713_5569.png,0.0,-4.0237803,-1.199389,-1.9971464
alexnet_w1_mlp_simclrhn_probe0,1,522,NaN,elephant,elephant,0.05,0522_nse_dnn_0.05_elephant_10_n02504013_19753.png,n02504013_19753.png,1.0,0.67376125,-0.098974824,0.5464069
alexnet_w1_mlp_simclrhn_probe0,1,523,NaN,knife,dog,0.60,0523_nse_dnn_0.60_dog_10_n02099849_4819.png,n02099849_4819.png,0.0,-5.46789,-3.59295,-1.3257825
alexnet_w1_mlp_simclrhn_probe0,1,524,NaN,knife,elephant,0.90,0524_nse_dnn_0.90_elephant_10_n02504458_12938.png,n02504458_12938.png,0.0,-8.1590805,-3.7219243,-3.1375432
alexnet_w1_mlp_simclrhn_probe0,1,525,NaN,bottle,bottle,0.03,0525_nse_dnn_0.03_bottle_10_n02823428_901.png,n02823428_901.png,1.0,0.1808046,-2.0636623,1.5870777
alexnet_w1_mlp_simclrhn_probe0,1,526,NaN,car,bicycle,0.00,0526_nse_dnn_0.00_bicycle_10_n03792782_2024.png,n03792782_2024.png,0.0,-1.0256047,-0.8553989,-0.1203537
alexnet_w1_mlp_simclrhn_probe0,1,527,NaN,knife,truck,0.05,0527_nse_dnn_0.05_truck_10_n03417042_24856.png,n03417042_24856.png,0.0,-2.6171832,-1.7319859,-0.625929
alexnet_w1_mlp_simclrhn_probe0,1,528,NaN,elephant,elephant,0.00,0528_nse_dnn_0.00_elephant_10_n02504013_19694.png,n02504013_19694.png,1.0,2.2137418,0.36764553,1.3053873
alexnet_w1_mlp_simclrhn_probe0,1,529,NaN,knife,bird,0.20,0529_nse_dnn_0.20_bird_10_n01530575_10119.png,n01530575_10119.png,0.0,-2.4453495,-1.9876782,-0.32362247
alexnet_w1_mlp_simclrhn_probe0,1,530,NaN,elephant,bottle,0.20,0530_nse_dnn_0.20_bottle_10_n04557648_954.png,n04557648_954.png,0.0,-4.1420493,-0.9439876,-2.2613711
alexnet_w1_mlp_simclrhn_probe0,1,531,NaN,knife,cat,0.90,0531_nse_dnn_0.90_cat_10_n02123159_277.png,n02123159_277.png,0.0,-7.3679214,-4.2911654,-2.175595
alexnet_w1_mlp_simclrhn_probe0,1,532,NaN,knife,knife,0.00,0532_nse_dnn_0.00_knife_10_n03041632_289.png,n03041632_289.png,1.0,0.12259905,-0.63883644,0.5384162
alexnet_w1_mlp_simclrhn_probe0,1,533,NaN,knife,truck,0.35,0533_nse_dnn_0.35_truck_10_n04467665_450.png,n04467665_450.png,0.0,-10.546799,-2.568939,-5.6411986
alexnet_w1_mlp_simclrhn_probe0,1,534,NaN,knife,knife,0.00,0534_nse_dnn_0.00_knife_10_n03041632_1607.png,n03041632_1607.png,1.0,-0.8177526,-2.613912,1.2700766
alexnet_w1_mlp_simclrhn_probe0,1,535,NaN,elephant,bird,0.20,0535_nse_dnn_0.20_bird_10_n01532829_4692.png,n01532829_4692.png,0.0,-3.1764169,-1.5732301,-1.1336242
alexnet_w1_mlp_simclrhn_probe0,1,536,NaN,elephant,dog,0.10,0536_nse_dnn_0.10_dog_10_n02102177_4771.png,n02102177_4771.png,0.0,-2.2718613,-0.3523184,-1.3573219
alexnet_w1_mlp_simclrhn_probe0,1,537,NaN,elephant,car,0.10,0537_nse_dnn_0.10_car_10_n04285008_14554.png,n04285008_14554.png,0.0,-5.300016,-2.2780724,-2.1368368
alexnet_w1_mlp_simclrhn_probe0,1,538,NaN,clock,clock,0.00,0538_nse_dnn_0.00_clock_10_n04548280_3716.png,n04548280_3716.png,1.0,-0.21506011,-1.1663665,0.6726752
alexnet_w1_mlp_simclrhn_probe0,1,539,NaN,car,car,0.03,0539_nse_dnn_0.03_car_10_n04285008_6849.png,n04285008_6849.png,1.0,-1.1647009,-1.4031157,0.16858478
alexnet_w1_mlp_simclrhn_probe0,1,540,NaN,knife,keyboard,0.35,0540_nse_dnn_0.35_keyboard_10_n03085013_24467.png,n03085013_24467.png,0.0,-5.555955,-2.9139755,-1.8681617
alexnet_w1_mlp_simclrhn_probe0,1,541,NaN,knife,clock,0.35,0541_nse_dnn_0.35_clock_10_n03196217_6672.png,n03196217_6672.png,0.0,-4.4614177,-2.4519093,-1.4209371
alexnet_w1_mlp_simclrhn_probe0,1,542,NaN,elephant,dog,0.10,0542_nse_dnn_0.10_dog_10_n02105251_5570.png,n02105251_5570.png,0.0,-2.1756017,-0.80953956,-0.96595186
alexnet_w1_mlp_simclrhn_probe0,1,543,NaN,knife,dog,0.35,0543_nse_dnn_0.35_dog_10_n02107574_3352.png,n02107574_3352.png,0.0,-3.9551766,-2.778066,-0.832343
alexnet_w1_mlp_simclrhn_probe0,1,544,NaN,knife,boat,0.60,0544_nse_dnn_0.60_boat_10_n03662601_8191.png,n03662601_8191.png,0.0,-9.566712,-3.6935644,-4.1529427
alexnet_w1_mlp_simclrhn_probe0,1,545,NaN,boat,boat,0.00,0545_nse_dnn_0.00_boat_10_n04612504_30617.png,n04612504_30617.png,1.0,1.539777,0.8180738,0.51032126
alexnet_w1_mlp_simclrhn_probe0,1,546,NaN,knife,bear,0.60,0546_nse_dnn_0.60_bear_10_n02132136_2900.png,n02132136_2900.png,0.0,-6.741843,-3.3662739,-2.386888
alexnet_w1_mlp_simclrhn_probe0,1,547,NaN,elephant,truck,0.10,0547_nse_dnn_0.10_truck_10_n03417042_8139.png,n03417042_8139.png,0.0,-4.2318716,-1.2246516,-2.1264257
alexnet_w1_mlp_simclrhn_probe0,1,548,NaN,chair,chair,0.03,0548_nse_dnn_0.03_chair_10_n03376595_5112.png,n03376595_5112.png,1.0,-1.3757601,-1.5350137,0.1126093
alexnet_w1_mlp_simclrhn_probe0,1,549,NaN,elephant,bird,0.05,0549_nse_dnn_0.05_bird_10_n02006656_10360.png,n02006656_10360.png,0.0,-1.3545045,-0.9781556,-0.26611882
alexnet_w1_mlp_simclrhn_probe0,1,550,NaN,knife,elephant,0.20,0550_nse_dnn_0.20_elephant_10_n02504458_2799.png,n02504458_2799.png,0.0,-2.345954,-1.7605853,-0.41391814
alexnet_w1_mlp_simclrhn_probe0,1,551,NaN,knife,airplane,0.10,0551_nse_dnn_0.10_airplane_10_n02690373_6096.png,n02690373_6096.png,0.0,-2.1456196,-2.0050428,-0.09940284
alexnet_w1_mlp_simclrhn_probe0,1,552,NaN,cat,bird,0.20,0552_nse_dnn_0.20_bird_10_n02002556_139.png,n02002556_139.png,0.0,-2.7849202,-2.36732,-0.2952879
alexnet_w1_mlp_simclrhn_probe0,1,553,NaN,car,car,0.00,0553_nse_dnn_0.00_car_10_n04285008_3056.png,n04285008_3056.png,1.0,0.86317855,-0.31962126,0.83636576
alexnet_w1_mlp_simclrhn_probe0,1,554,NaN,knife,knife,0.10,0554_nse_dnn_0.10_knife_10_n03041632_14774.png,n03041632_14774.png,1.0,-0.77335256,-1.066044,0.20696409
alexnet_w1_mlp_simclrhn_probe0,1,555,NaN,elephant,oven,0.20,0555_nse_dnn_0.20_oven_10_n04111531_2163.png,n04111531_2163.png,0.0,-4.5982256,-1.5089068,-2.1844783
alexnet_w1_mlp_simclrhn_probe0,1,556,NaN,cat,cat,0.20,0556_nse_dnn_0.20_cat_10_n02123597_30864.png,n02123597_30864.png,1.0,-1.7972813,-1.9435122,0.103400886
alexnet_w1_mlp_simclrhn_probe0,1,557,NaN,knife,boat,0.35,0557_nse_dnn_0.35_boat_10_n02951358_33559.png,n02951358_33559.png,0.0,-6.5151854,-2.5770462,-2.784685
alexnet_w1_mlp_simclrhn_probe0,1,558,NaN,knife,bicycle,0.60,0558_nse_dnn_0.60_bicycle_10_n02835271_4619.png,n02835271_4619.png,0.0,-9.537369,-3.995657,-3.918582
alexnet_w1_mlp_simclrhn_probe0,1,559,NaN,knife,truck,0.03,0559_nse_dnn_0.03_truck_10_n03796401_21261.png,n03796401_21261.png,0.0,-1.5946083,-0.6315105,-0.681013
alexnet_w1_mlp_simclrhn_probe0,1,560,NaN,knife,airplane,0.10,0560_nse_dnn_0.10_airplane_10_n02690373_2496.png,n02690373_2496.png,0.0,-4.098894,-1.3049166,-1.9756404
alexnet_w1_mlp_simclrhn_probe0,1,561,NaN,knife,boat,0.35,0561_nse_dnn_0.35_boat_10_n03662601_5419.png,n03662601_5419.png,0.0,-6.94979,-2.3155096,-3.276931
alexnet_w1_mlp_simclrhn_probe0,1,562,NaN,airplane,airplane,0.03,0562_nse_dnn_0.03_airplane_10_n02690373_7686.png,n02690373_7686.png,1.0,0.92091966,-0.55846035,1.0460796
alexnet_w1_mlp_simclrhn_probe0,1,563,NaN,knife,oven,0.90,0563_nse_dnn_0.90_oven_10_n04111531_5246.png,n04111531_5246.png,0.0,-20.306585,-4.0787315,-11.474826
alexnet_w1_mlp_simclrhn_probe0,1,564,NaN,knife,bicycle,0.60,0564_nse_dnn_0.60_bicycle_10_n03792782_1099.png,n03792782_1099.png,0.0,-8.9741,-3.5320237,-3.8481295
alexnet_w1_mlp_simclrhn_probe0,1,565,NaN,knife,chair,0.35,0565_nse_dnn_0.35_chair_10_n04099969_12909.png,n04099969_12909.png,0.0,-7.311571,-2.6661267,-3.2848253
alexnet_w1_mlp_simclrhn_probe0,1,566,NaN,elephant,elephant,0.03,0566_nse_dnn_0.03_elephant_10_n02504013_7147.png,n02504013_7147.png,1.0,-0.1355016,-0.6288125,0.3488235
alexnet_w1_mlp_simclrhn_probe0,1,567,NaN,elephant,truck,0.35,0567_nse_dnn_0.35_truck_10_n04467665_44715.png,n04467665_44715.png,0.0,-11.236745,-2.4035358,-6.246022
alexnet_w1_mlp_simclrhn_probe0,1,568,NaN,keyboard,keyboard,0.00,0568_nse_dnn_0.00_keyboard_10_n04505470_1338.png,n04505470_1338.png,1.0,1.4581813,-0.6475135,1.4889511
alexnet_w1_mlp_simclrhn_probe0,1,569,NaN,knife,airplane,0.90,0569_nse_dnn_0.90_airplane_10_n02690373_4982.png,n02690373_4982.png,0.0,-22.478786,-4.3163223,-12.842802
alexnet_w1_mlp_simclrhn_probe0,1,570,NaN,knife,bicycle,0.90,0570_nse_dnn_0.90_bicycle_10_n03792782_3754.png,n03792782_3754.png,0.0,-10.4663315,-4.427672,-4.269977
alexnet_w1_mlp_simclrhn_probe0,1,571,NaN,bicycle,bicycle,0.00,0571_nse_dnn_0.00_bicycle_10_n03792782_1418.png,n03792782_1418.png,1.0,-1.0222839,-1.2373146,0.15204965
alexnet_w1_mlp_simclrhn_probe0,1,572,NaN,elephant,truck,0.03,0572_nse_dnn_0.03_truck_10_n03796401_26359.png,n03796401_26359.png,0.0,-2.0422535,-1.2733088,-0.543726
alexnet_w1_mlp_simclrhn_probe0,1,573,NaN,elephant,car,0.05,0573_nse_dnn_0.05_car_10_n03100240_9149.png,n03100240_9149.png,0.0,-2.9360354,-0.765278,-1.5349572
alexnet_w1_mlp_simclrhn_probe0,1,574,NaN,knife,bird,0.90,0574_nse_dnn_0.90_bird_10_n01534433_14677.png,n01534433_14677.png,0.0,-6.3562293,-4.144897,-1.5636481
alexnet_w1_mlp_simclrhn_probe0,1,575,NaN,car,car,0.03,0575_nse_dnn_0.03_car_10_n03100240_8683.png,n03100240_8683.png,1.0,-0.14431731,-1.5853516,1.0189651
alexnet_w1_mlp_simclrhn_probe0,1,576,NaN,bicycle,chair,0.03,0576_nse_dnn_0.03_chair_10_n03376595_524.png,n03376595_524.png,0.0,-0.30985236,1.1729147,-1.0484747
alexnet_w1_mlp_simclrhn_probe0,1,577,NaN,elephant,dog,0.20,0577_nse_dnn_0.20_dog_10_n02094433_6402.png,n02094433_6402.png,0.0,-3.2835114,-1.112988,-1.5347918
alexnet_w1_mlp_simclrhn_probe0,1,578,NaN,elephant,car,0.20,0578_nse_dnn_0.20_car_10_n03100240_16803.png,n03100240_16803.png,0.0,-7.80218,-2.2742095,-3.9088655
alexnet_w1_mlp_simclrhn_probe0,1,579,NaN,elephant,bicycle,0.20,0579_nse_dnn_0.20_bicycle_10_n03792782_15114.png,n03792782_15114.png,0.0,-3.867218,-1.4648999,-1.6986954
alexnet_w1_mlp_simclrhn_probe0,1,580,NaN,knife,chair,0.60,0580_nse_dnn_0.60_chair_10_n04429376_21362.png,n04429376_21362.png,0.0,-8.743725,-3.4030242,-3.7764456
alexnet_w1_mlp_simclrhn_probe0,1,581,NaN,knife,keyboard,0.90,0581_nse_dnn_0.90_keyboard_10_n04505470_3499.png,n04505470_3499.png,0.0,-9.334714,-4.348071,-3.526089
alexnet_w1_mlp_simclrhn_probe0,1,582,NaN,knife,boat,0.90,0582_nse_dnn_0.90_boat_10_n04273569_26577.png,n04273569_26577.png,0.0,-11.836116,-4.201359,-5.3985887
alexnet_w1_mlp_simclrhn_probe0,1,583,NaN,elephant,boat,0.10,0583_nse_dnn_0.10_boat_10_n04273569_27325.png,n04273569_27325.png,0.0,-1.9718869,-1.3634546,-0.4302266
alexnet_w1_mlp_simclrhn_probe0,1,584,NaN,elephant,keyboard,0.20,0584_nse_dnn_0.20_keyboard_10_n04505470_9570.png,n04505470_9570.png,0.0,-3.7262566,-1.8935313,-1.2959325
alexnet_w1_mlp_simclrhn_probe0,1,585,NaN,knife,bicycle,0.90,0585_nse_dnn_0.90_bicycle_10_n03792782_4067.png,n03792782_4067.png,0.0,-10.404479,-4.198565,-4.388244
alexnet_w1_mlp_simclrhn_probe0,1,586,NaN,bear,bear,0.10,0586_nse_dnn_0.10_bear_10_n02132136_282.png,n02132136_282.png,1.0,-1.085283,-1.2060766,0.08541396
alexnet_w1_mlp_simclrhn_probe0,1,587,NaN,knife,boat,0.03,0587_nse_dnn_0.03_boat_10_n04612504_30424.png,n04612504_30424.png,0.0,-1.000508,-0.4554653,-0.38540334
alexnet_w1_mlp_simclrhn_probe0,1,588,NaN,knife,knife,0.90,0588_nse_dnn_0.90_knife_10_n03041632_4879.png,n03041632_4879.png,1.0,-4.2802196,-6.46461,1.5445974
alexnet_w1_mlp_simclrhn_probe0,1,589,NaN,elephant,elephant,0.05,0589_nse_dnn_0.05_elephant_10_n02504458_7634.png,n02504458_7634.png,1.0,0.9233973,-0.79683495,1.2163879
alexnet_w1_mlp_simclrhn_probe0,1,590,NaN,knife,cat,0.35,0590_nse_dnn_0.35_cat_10_n02123597_7615.png,n02123597_7615.png,0.0,-3.7784703,-2.597177,-0.8353005
alexnet_w1_mlp_simclrhn_probe0,1,591,NaN,knife,bicycle,0.35,0591_nse_dnn_0.35_bicycle_10_n03792782_20387.png,n03792782_20387.png,0.0,-5.5800753,-3.1339207,-1.7296926
alexnet_w1_mlp_simclrhn_probe0,1,592,NaN,clock,clock,0.10,0592_nse_dnn_0.10_clock_10_n02708093_527.png,n02708093_527.png,1.0,-1.4433862,-3.337833,1.3395761
alexnet_w1_mlp_simclrhn_probe0,1,593,NaN,elephant,elephant,0.05,0593_nse_dnn_0.05_elephant_10_n02504013_5501.png,n02504013_5501.png,1.0,0.5255492,-0.4196978,0.6683905
alexnet_w1_mlp_simclrhn_probe0,1,594,NaN,knife,dog,0.35,0594_nse_dnn_0.35_dog_10_n02106166_2273.png,n02106166_2273.png,0.0,-4.1067133,-2.65582,-1.0259366
alexnet_w1_mlp_simclrhn_probe0,1,595,NaN,boat,boat,0.03,0595_nse_dnn_0.03_boat_10_n03662601_34009.png,n03662601_34009.png,1.0,-0.7354783,-1.710479,0.68942964
alexnet_w1_mlp_simclrhn_probe0,1,596,NaN,knife,boat,0.35,0596_nse_dnn_0.35_boat_10_n04273569_12536.png,n04273569_12536.png,0.0,-7.146074,-2.6577024,-3.1737578
alexnet_w1_mlp_simclrhn_probe0,1,597,NaN,elephant,elephant,0.00,0597_nse_dnn_0.00_elephant_10_n02504013_8534.png,n02504013_8534.png,1.0,0.08844073,-1.7439947,1.2957276
alexnet_w1_mlp_simclrhn_probe0,1,598,NaN,knife,clock,0.35,0598_nse_dnn_0.35_clock_10_n04548280_156.png,n04548280_156.png,0.0,-5.072583,-2.5277483,-1.7994701
alexnet_w1_mlp_simclrhn_probe0,1,599,NaN,knife,bicycle,0.90,0599_nse_dnn_0.90_bicycle_10_n02835271_542.png,n02835271_542.png,0.0,-10.068586,-4.3408217,-4.0501413
alexnet_w1_mlp_simclrhn_probe0,1,600,NaN,oven,bear,0.00,0600_nse_dnn_0.00_bear_10_n02133161_5434.png,n02133161_5434.png,0.0,-1.8740554,-1.3857539,-0.34528133
alexnet_w1_mlp_simclrhn_probe0,1,601,NaN,knife,truck,0.60,0601_nse_dnn_0.60_truck_10_n04467665_63829.png,n04467665_63829.png,0.0,-15.543048,-3.8409052,-8.274665
alexnet_w1_mlp_simclrhn_probe0,1,602,NaN,knife,oven,0.90,0602_nse_dnn_0.90_oven_10_n04111531_10220.png,n04111531_10220.png,0.0,-20.470678,-4.010802,-11.638891
alexnet_w1_mlp_simclrhn_probe0,1,603,NaN,knife,boat,0.60,0603_nse_dnn_0.60_boat_10_n04273569_28074.png,n04273569_28074.png,0.0,-9.878401,-3.7382495,-4.3417425
alexnet_w1_mlp_simclrhn_probe0,1,604,NaN,cat,cat,0.00,0604_nse_dnn_0.00_cat_10_n02123394_2482.png,n02123394_2482.png,1.0,-1.9178663,-1.9314075,0.009575006
alexnet_w1_mlp_simclrhn_probe0,1,605,NaN,knife,boat,0.90,0605_nse_dnn_0.90_boat_10_n03662601_20381.png,n03662601_20381.png,0.0,-10.985534,-4.2235103,-4.7814727
alexnet_w1_mlp_simclrhn_probe0,1,606,NaN,knife,bird,0.35,0606_nse_dnn_0.35_bird_10_n01817953_12511.png,n01817953_12511.png,0.0,-4.8296256,-2.6552782,-1.5374959
alexnet_w1_mlp_simclrhn_probe0,1,607,NaN,cat,cat,0.05,0607_nse_dnn_0.05_cat_10_n02125311_5346.png,n02125311_5346.png,1.0,-0.0477059,-1.3674362,0.9331902
alexnet_w1_mlp_simclrhn_probe0,1,608,NaN,elephant,oven,0.00,0608_nse_dnn_0.00_oven_10_n04111531_14758.png,n04111531_14758.png,0.0,-3.8695464,-1.1802204,-1.9016408
alexnet_w1_mlp_simclrhn_probe0,1,609,NaN,elephant,bird,0.10,0609_nse_dnn_0.10_bird_10_n02002556_1398.png,n02002556_1398.png,0.0,-2.78008,-0.8510506,-1.3640299
alexnet_w1_mlp_simclrhn_probe0,1,610,NaN,knife,knife,0.05,0610_nse_dnn_0.05_knife_10_n03041632_99912.png,n03041632_99912.png,1.0,-0.80582416,-1.6986405,0.6313165
alexnet_w1_mlp_simclrhn_probe0,1,611,NaN,knife,airplane,0.05,0611_nse_dnn_0.05_airplane_10_n02690373_1075.png,n02690373_1075.png,0.0,-1.416029,-1.3301691,-0.060712114
alexnet_w1_mlp_simclrhn_probe0,1,612,NaN,knife,cat,0.35,0612_nse_dnn_0.35_cat_10_n02123045_10834.png,n02123045_10834.png,0.0,-3.4199533,-2.8859084,-0.37762684
alexnet_w1_mlp_simclrhn_probe0,1,613,NaN,knife,car,0.60,0613_nse_dnn_0.60_car_10_n02814533_41478.png,n02814533_41478.png,0.0,-14.303215,-3.7349243,-7.47291
alexnet_w1_mlp_simclrhn_probe0,1,614,NaN,cat,cat,0.00,0614_nse_dnn_0.00_cat_10_n02123394_1602.png,n02123394_1602.png,1.0,0.4097834,-0.4911655,0.6370671
alexnet_w1_mlp_simclrhn_probe0,1,615,NaN,knife,knife,0.03,0615_nse_dnn_0.03_knife_10_n03041632_21017.png,n03041632_21017.png,1.0,-1.1845744,-1.54302,0.25345936
alexnet_w1_mlp_simclrhn_probe0,1,616,NaN,elephant,bear,0.03,0616_nse_dnn_0.03_bear_10_n02134084_572.png,n02134084_572.png,0.0,0.07576108,0.23750858,-0.11437275
alexnet_w1_mlp_simclrhn_probe0,1,617,NaN,keyboard,clock,0.05,0617_nse_dnn_0.05_clock_10_n03196217_3987.png,n03196217_3987.png,0.0,-0.4945799,1.6309698,-1.5029907
alexnet_w1_mlp_simclrhn_probe0,1,618,NaN,dog,dog,0.03,0618_nse_dnn_0.03_dog_10_n02098286_6303.png,n02098286_6303.png,1.0,-1.3590183,-1.6970683,0.23903745
