subj,session,trial,rt,object_response,category,condition,imagename,filename,is_correct,targ_act,max_nontarg_act,decision_margin
alexnet_w3_mlp_simclrhn_probe2,1,1,NaN,elephant,elephant,0.03,0001_nse_dnn_0.03_elephant_10_n02504458_7209.png,n02504458_7209.png,1.0,0.1156585,-0.32018054,0.30818474
alexnet_w3_mlp_simclrhn_probe2,1,2,NaN,knife,knife,0.90,0002_nse_dnn_0.90_knife_10_n03041632_82878.png,n03041632_82878.png,1.0,-0.012089133,-2.9817963,2.0999
alexnet_w3_mlp_simclrhn_probe2,1,3,NaN,oven,clock,0.00,0003_nse_dnn_0.00_clock_10_n03196217_9231.png,n03196217_9231.png,0.0,1.0714284,1.5101265,-0.31020638
alexnet_w3_mlp_simclrhn_probe2,1,4,NaN,oven,oven,0.00,0004_nse_dnn_0.00_oven_10_n04111531_11026.png,n04111531_11026.png,1.0,0.63491446,-0.020336464,0.46333236
alexnet_w3_mlp_simclrhn_probe2,1,5,NaN,clock,clock,0.10,0005_nse_dnn_0.10_clock_10_n04548280_1114.png,n04548280_1114.png,1.0,-0.6179578,-0.90166897,0.20061411
alexnet_w3_mlp_simclrhn_probe2,1,6,NaN,oven,clock,0.03,0006_nse_dnn_0.03_clock_10_n02708093_8100.png,n02708093_8100.png,0.0,0.31659624,0.39493668,-0.05539506
alexnet_w3_mlp_simclrhn_probe2,1,7,NaN,clock,clock,0.00,0007_nse_dnn_0.00_clock_10_n02708093_3591.png,n02708093_3591.png,1.0,3.8756797,0.05805531,2.6994681
alexnet_w3_mlp_simclrhn_probe2,1,8,NaN,clock,chair,0.00,0008_nse_dnn_0.00_chair_10_n03376595_16202.png,n03376595_16202.png,0.0,0.48332033,0.55581796,-0.05126357
alexnet_w3_mlp_simclrhn_probe2,1,9,NaN,knife,bottle,0.60,0009_nse_dnn_0.60_bottle_10_n02823428_3478.png,n02823428_3478.png,0.0,-2.6216962,-0.49127856,-1.5064328
alexnet_w3_mlp_simclrhn_probe2,1,10,NaN,oven,dog,0.10,0010_nse_dnn_0.10_dog_10_n02087394_28673.png,n02087394_28673.png,0.0,-1.7553595,-0.29389623,-1.0334107
alexnet_w3_mlp_simclrhn_probe2,1,11,NaN,oven,chair,0.10,0011_nse_dnn_0.10_chair_10_n04099969_1690.png,n04099969_1690.png,0.0,-1.4978665,-0.50734293,-0.70040596
alexnet_w3_mlp_simclrhn_probe2,1,12,NaN,elephant,cat,0.03,0012_nse_dnn_0.03_cat_10_n02125311_1736.png,n02125311_1736.png,0.0,0.0009659131,0.6206454,-0.43817958
alexnet_w3_mlp_simclrhn_probe2,1,13,NaN,knife,bear,0.90,0013_nse_dnn_0.90_bear_10_n02133161_1169.png,n02133161_1169.png,0.0,-5.7205577,-0.36751568,-3.7851725
alexnet_w3_mlp_simclrhn_probe2,1,14,NaN,knife,bear,0.90,0014_nse_dnn_0.90_bear_10_n02133161_8835.png,n02133161_8835.png,0.0,-5.559371,-0.19902259,-3.7903388
alexnet_w3_mlp_simclrhn_probe2,1,15,NaN,knife,car,0.20,0015_nse_dnn_0.20_car_10_n02814533_5430.png,n02814533_5430.png,0.0,-3.8277884,-0.41575074,-2.412675
alexnet_w3_mlp_simclrhn_probe2,1,16,NaN,knife,bear,0.60,0016_nse_dnn_0.60_bear_10_n02134418_3767.png,n02134418_3767.png,0.0,-4.603574,-0.18187046,-3.1266165
alexnet_w3_mlp_simclrhn_probe2,1,17,NaN,knife,knife,0.20,0017_nse_dnn_0.20_knife_10_n03041632_10540.png,n03041632_10540.png,1.0,-0.42917296,-1.6869746,0.88940006
alexnet_w3_mlp_simclrhn_probe2,1,18,NaN,knife,bicycle,0.20,0018_nse_dnn_0.20_bicycle_10_n02835271_1075.png,n02835271_1075.png,0.0,-1.6372228,-0.61528563,-0.7226187
alexnet_w3_mlp_simclrhn_probe2,1,19,NaN,bear,bear,0.00,0019_nse_dnn_0.00_bear_10_n02134084_3888.png,n02134084_3888.png,1.0,0.7304525,0.56375897,0.117870115
alexnet_w3_mlp_simclrhn_probe2,1,20,NaN,dog,dog,0.00,0020_nse_dnn_0.00_dog_10_n02085936_9009.png,n02085936_9009.png,1.0,0.001377542,-0.9267389,0.6562774
alexnet_w3_mlp_simclrhn_probe2,1,21,NaN,knife,knife,0.03,0021_nse_dnn_0.03_knife_10_n03041632_12651.png,n03041632_12651.png,1.0,1.0279912,-0.41626358,1.0212424
alexnet_w3_mlp_simclrhn_probe2,1,22,NaN,knife,bicycle,0.35,0022_nse_dnn_0.35_bicycle_10_n03792782_565.png,n03792782_565.png,0.0,-2.774327,-0.02791065,-1.9420097
alexnet_w3_mlp_simclrhn_probe2,1,23,NaN,knife,boat,0.20,0023_nse_dnn_0.20_boat_10_n04612504_40672.png,n04612504_40672.png,0.0,-2.1194623,0.22087806,-1.6548706
alexnet_w3_mlp_simclrhn_probe2,1,24,NaN,oven,dog,0.05,0024_nse_dnn_0.05_dog_10_n02098105_146.png,n02098105_146.png,0.0,-1.1304643,-0.38163513,-0.5295022
alexnet_w3_mlp_simclrhn_probe2,1,25,NaN,clock,clock,0.03,0025_nse_dnn_0.03_clock_10_n02708093_5944.png,n02708093_5944.png,1.0,0.6478537,0.029975435,0.43690592
alexnet_w3_mlp_simclrhn_probe2,1,26,NaN,knife,cat,0.03,0026_nse_dnn_0.03_cat_10_n02124075_14021.png,n02124075_14021.png,0.0,-0.61731416,0.010357112,-0.4438306
alexnet_w3_mlp_simclrhn_probe2,1,27,NaN,knife,bear,0.20,0027_nse_dnn_0.20_bear_10_n02133161_7184.png,n02133161_7184.png,0.0,-1.1343337,-0.36205134,-0.54608613
alexnet_w3_mlp_simclrhn_probe2,1,28,NaN,airplane,bottle,0.00,0028_nse_dnn_0.00_bottle_10_n03937543_9745.png,n03937543_9745.png,0.0,-0.21161029,-0.027328,-0.13030726
alexnet_w3_mlp_simclrhn_probe2,1,29,NaN,knife,airplane,0.60,0029_nse_dnn_0.60_airplane_10_n02690373_9605.png,n02690373_9605.png,0.0,-8.525042,-0.2790849,-5.830772
alexnet_w3_mlp_simclrhn_probe2,1,30,NaN,knife,cat,0.20,0030_nse_dnn_0.20_cat_10_n02123045_7167.png,n02123045_7167.png,0.0,-1.359696,-0.52959526,-0.5869699
alexnet_w3_mlp_simclrhn_probe2,1,31,NaN,knife,airplane,0.05,0031_nse_dnn_0.05_airplane_10_n02690373_4706.png,n02690373_4706.png,0.0,-0.9845936,-0.020621248,-0.6816314
alexnet_w3_mlp_simclrhn_probe2,1,32,NaN,knife,knife,0.35,0032_nse_dnn_0.35_knife_10_n03041632_45270.png,n03041632_45270.png,1.0,-0.5323234,-2.0891538,1.1008453
alexnet_w3_mlp_simclrhn_probe2,1,33,NaN,knife,dog,0.35,0033_nse_dnn_0.35_dog_10_n02105855_9326.png,n02105855_9326.png,0.0,-2.1596775,-0.38028327,-1.2582217
alexnet_w3_mlp_simclrhn_probe2,1,34,NaN,knife,bear,0.10,0034_nse_dnn_0.10_bear_10_n02134418_4349.png,n02134418_4349.png,0.0,-0.52739584,-0.14993277,-0.2669067
alexnet_w3_mlp_simclrhn_probe2,1,35,NaN,cat,cat,0.00,0035_nse_dnn_0.00_cat_10_n02123159_469.png,n02123159_469.png,1.0,-0.27721962,-0.33332586,0.039673105
alexnet_w3_mlp_simclrhn_probe2,1,36,NaN,knife,truck,0.90,0036_nse_dnn_0.90_truck_10_n03417042_5004.png,n03417042_5004.png,0.0,-8.744907,-0.31443608,-5.9612436
alexnet_w3_mlp_simclrhn_probe2,1,37,NaN,knife,bird,0.10,0037_nse_dnn_0.10_bird_10_n02051845_6333.png,n02051845_6333.png,0.0,-3.2842038,-0.4821674,-1.9813389
alexnet_w3_mlp_simclrhn_probe2,1,38,NaN,knife,clock,0.90,0038_nse_dnn_0.90_clock_10_n03196217_12701.png,n03196217_12701.png,0.0,-3.2621553,-0.36940145,-2.045486
alexnet_w3_mlp_simclrhn_probe2,1,39,NaN,knife,chair,0.60,0039_nse_dnn_0.60_chair_10_n03376595_12341.png,n03376595_12341.png,0.0,-3.270574,-0.20424557,-2.1682217
alexnet_w3_mlp_simclrhn_probe2,1,40,NaN,oven,bicycle,0.10,0040_nse_dnn_0.10_bicycle_10_n03792782_66837.png,n03792782_66837.png,0.0,-1.3221121,-0.650034,-0.47523096
alexnet_w3_mlp_simclrhn_probe2,1,41,NaN,bicycle,bicycle,0.05,0041_nse_dnn_0.05_bicycle_10_n02835271_20177.png,n02835271_20177.png,1.0,1.7001106,-1.0882487,1.9716678
alexnet_w3_mlp_simclrhn_probe2,1,42,NaN,knife,knife,0.00,0042_nse_dnn_0.00_knife_10_n03041632_22330.png,n03041632_22330.png,1.0,0.36652815,-0.5586831,0.65422314
alexnet_w3_mlp_simclrhn_probe2,1,43,NaN,knife,cat,0.60,0043_nse_dnn_0.60_cat_10_n02123045_5913.png,n02123045_5913.png,0.0,-3.3251657,-0.24450919,-2.178353
alexnet_w3_mlp_simclrhn_probe2,1,44,NaN,knife,elephant,0.20,0044_nse_dnn_0.20_elephant_10_n02504013_2464.png,n02504013_2464.png,0.0,-1.152356,-0.43166405,-0.5096062
alexnet_w3_mlp_simclrhn_probe2,1,45,NaN,knife,knife,0.90,0045_nse_dnn_0.90_knife_10_n03041632_99460.png,n03041632_99460.png,1.0,-0.022773772,-2.9010332,2.0352368
alexnet_w3_mlp_simclrhn_probe2,1,46,NaN,elephant,dog,0.00,0046_nse_dnn_0.00_dog_10_n02099601_8686.png,n02099601_8686.png,0.0,-1.1063943,-0.33005458,-0.5489551
alexnet_w3_mlp_simclrhn_probe2,1,47,NaN,knife,chair,0.90,0047_nse_dnn_0.90_chair_10_n02791124_5400.png,n02791124_5400.png,0.0,-4.6767883,-0.2935305,-3.0994315
alexnet_w3_mlp_simclrhn_probe2,1,48,NaN,knife,chair,0.05,0048_nse_dnn_0.05_chair_10_n03376595_830.png,n03376595_830.png,0.0,-0.87080044,-0.28539753,-0.41394237
alexnet_w3_mlp_simclrhn_probe2,1,49,NaN,knife,cat,0.90,0049_nse_dnn_0.90_cat_10_n02124075_6024.png,n02124075_6024.png,0.0,-4.6107183,-0.44088572,-2.948517
alexnet_w3_mlp_simclrhn_probe2,1,50,NaN,oven,bicycle,0.10,0050_nse_dnn_0.10_bicycle_10_n03792782_9004.png,n03792782_9004.png,0.0,-0.689566,-0.64647496,-0.03046998
alexnet_w3_mlp_simclrhn_probe2,1,51,NaN,knife,keyboard,0.60,0051_nse_dnn_0.60_keyboard_10_n03085013_24088.png,n03085013_24088.png,0.0,-5.1302834,-0.31808084,-3.402741
alexnet_w3_mlp_simclrhn_probe2,1,52,NaN,elephant,cat,0.10,0052_nse_dnn_0.10_cat_10_n02125311_33778.png,n02125311_33778.png,0.0,-0.86195046,-0.46688402,-0.27935416
alexnet_w3_mlp_simclrhn_probe2,1,53,NaN,bicycle,bicycle,0.00,0053_nse_dnn_0.00_bicycle_10_n03792782_7092.png,n03792782_7092.png,1.0,3.8127093,-0.09535004,2.7634153
alexnet_w3_mlp_simclrhn_probe2,1,54,NaN,knife,airplane,0.35,0054_nse_dnn_0.35_airplane_10_n02690373_5724.png,n02690373_5724.png,0.0,-5.6344953,0.052957863,-4.021637
alexnet_w3_mlp_simclrhn_probe2,1,55,NaN,knife,bear,0.60,0055_nse_dnn_0.60_bear_10_n02133161_5637.png,n02133161_5637.png,0.0,-4.4615417,-0.03469962,-3.1302502
alexnet_w3_mlp_simclrhn_probe2,1,56,NaN,bear,bear,0.10,0056_nse_dnn_0.10_bear_10_n02132136_5365.png,n02132136_5365.png,1.0,-0.740169,-0.7423236,0.0015235243
alexnet_w3_mlp_simclrhn_probe2,1,57,NaN,knife,car,0.35,0057_nse_dnn_0.35_car_10_n03100240_1702.png,n03100240_1702.png,0.0,-4.925518,-0.14553013,-3.379962
alexnet_w3_mlp_simclrhn_probe2,1,58,NaN,knife,oven,0.35,0058_nse_dnn_0.35_oven_10_n04111531_2677.png,n04111531_2677.png,0.0,-3.3803053,-0.28082752,-2.1916618
alexnet_w3_mlp_simclrhn_probe2,1,59,NaN,knife,oven,0.05,0059_nse_dnn_0.05_oven_10_n04111531_16583.png,n04111531_16583.png,0.0,0.27722353,0.47180948,-0.13759305
alexnet_w3_mlp_simclrhn_probe2,1,60,NaN,bicycle,chair,0.10,0060_nse_dnn_0.10_chair_10_n04099969_6266.png,n04099969_6266.png,0.0,0.14155716,0.39275897,-0.1776265
alexnet_w3_mlp_simclrhn_probe2,1,61,NaN,knife,oven,0.60,0061_nse_dnn_0.60_oven_10_n04111531_6695.png,n04111531_6695.png,0.0,-6.3670177,-0.15172365,-4.3948765
alexnet_w3_mlp_simclrhn_probe2,1,62,NaN,knife,car,0.10,0062_nse_dnn_0.10_car_10_n03100240_1438.png,n03100240_1438.png,0.0,-4.0773735,-0.4280455,-2.5804646
alexnet_w3_mlp_simclrhn_probe2,1,63,NaN,knife,keyboard,0.20,0063_nse_dnn_0.20_keyboard_10_n04505470_4684.png,n04505470_4684.png,0.0,-2.1872947,-0.7463045,-1.018934
alexnet_w3_mlp_simclrhn_probe2,1,64,NaN,chair,chair,0.00,0064_nse_dnn_0.00_chair_10_n04099969_8021.png,n04099969_8021.png,1.0,0.758445,0.22943288,0.37406808
alexnet_w3_mlp_simclrhn_probe2,1,65,NaN,knife,car,0.20,0065_nse_dnn_0.20_car_10_n04285008_7139.png,n04285008_7139.png,0.0,-4.884365,-0.7263594,-2.940154
alexnet_w3_mlp_simclrhn_probe2,1,66,NaN,truck,truck,0.03,0066_nse_dnn_0.03_truck_10_n03796401_9207.png,n03796401_9207.png,1.0,1.305859,0.62693757,0.48006994
alexnet_w3_mlp_simclrhn_probe2,1,67,NaN,knife,bottle,0.05,0067_nse_dnn_0.05_bottle_10_n04560804_3651.png,n04560804_3651.png,0.0,-0.6670739,-0.41079786,-0.18121453
alexnet_w3_mlp_simclrhn_probe2,1,68,NaN,knife,chair,0.60,0068_nse_dnn_0.60_chair_10_n03376595_3010.png,n03376595_3010.png,0.0,-3.5236964,-0.2795632,-2.2939487
alexnet_w3_mlp_simclrhn_probe2,1,69,NaN,knife,bird,0.90,0069_nse_dnn_0.90_bird_10_n01514859_1951.png,n01514859_1951.png,0.0,-4.049096,-0.33213037,-2.6282916
alexnet_w3_mlp_simclrhn_probe2,1,70,NaN,bicycle,car,0.10,0070_nse_dnn_0.10_car_10_n03100240_4594.png,n03100240_4594.png,0.0,-0.8880908,-0.54389524,-0.243383
alexnet_w3_mlp_simclrhn_probe2,1,71,NaN,knife,clock,0.35,0071_nse_dnn_0.35_clock_10_n03196217_3333.png,n03196217_3333.png,0.0,-1.8734426,0.09878805,-1.3945777
alexnet_w3_mlp_simclrhn_probe2,1,72,NaN,knife,car,0.10,0072_nse_dnn_0.10_car_10_n02814533_90798.png,n02814533_90798.png,0.0,-2.1742692,-0.19226281,-1.4014902
alexnet_w3_mlp_simclrhn_probe2,1,73,NaN,keyboard,keyboard,0.00,0073_nse_dnn_0.00_keyboard_10_n03085013_19547.png,n03085013_19547.png,1.0,1.4344419,1.3785695,0.039507784
alexnet_w3_mlp_simclrhn_probe2,1,74,NaN,oven,bear,0.05,0074_nse_dnn_0.05_bear_10_n02133161_545.png,n02133161_545.png,0.0,-0.5110431,-0.24040379,-0.19137089
alexnet_w3_mlp_simclrhn_probe2,1,75,NaN,knife,oven,0.90,0075_nse_dnn_0.90_oven_10_n04111531_6489.png,n04111531_6489.png,0.0,-8.035835,-0.28641784,-5.4796658
alexnet_w3_mlp_simclrhn_probe2,1,76,NaN,knife,dog,0.90,0076_nse_dnn_0.90_dog_10_n02105056_15299.png,n02105056_15299.png,0.0,-3.666225,-0.39830267,-2.31077
alexnet_w3_mlp_simclrhn_probe2,1,77,NaN,knife,knife,0.05,0077_nse_dnn_0.05_knife_10_n03041632_33255.png,n03041632_33255.png,1.0,0.2028253,-0.19626696,0.28220084
alexnet_w3_mlp_simclrhn_probe2,1,78,NaN,knife,cat,0.20,0078_nse_dnn_0.20_cat_10_n02123394_5895.png,n02123394_5895.png,0.0,-1.2567468,-0.20842104,-0.7412783
alexnet_w3_mlp_simclrhn_probe2,1,79,NaN,knife,bottle,0.03,0079_nse_dnn_0.03_bottle_10_n03983396_11654.png,n03983396_11654.png,0.0,-0.30558458,0.2014082,-0.35849807
alexnet_w3_mlp_simclrhn_probe2,1,80,NaN,airplane,airplane,0.03,0080_nse_dnn_0.03_airplane_10_n02690373_3860.png,n02690373_3860.png,1.0,0.96172,-0.3856178,0.95271164
alexnet_w3_mlp_simclrhn_probe2,1,81,NaN,oven,oven,0.03,0081_nse_dnn_0.03_oven_10_n04111531_6415.png,n04111531_6415.png,1.0,-0.12384616,-0.4131617,0.20457697
alexnet_w3_mlp_simclrhn_probe2,1,82,NaN,knife,knife,0.60,0082_nse_dnn_0.60_knife_10_n03041632_39342.png,n03041632_39342.png,1.0,-0.07689139,-2.2972405,1.5700239
alexnet_w3_mlp_simclrhn_probe2,1,83,NaN,knife,bear,0.60,0083_nse_dnn_0.60_bear_10_n02133161_4882.png,n02133161_4882.png,0.0,-4.1808324,-0.12540911,-2.8676174
alexnet_w3_mlp_simclrhn_probe2,1,84,NaN,bottle,bottle,0.00,0084_nse_dnn_0.00_bottle_10_n04591713_7474.png,n04591713_7474.png,1.0,0.42626014,-0.04683843,0.33453122
alexnet_w3_mlp_simclrhn_probe2,1,85,NaN,knife,bear,0.20,0085_nse_dnn_0.20_bear_10_n02132136_17615.png,n02132136_17615.png,0.0,-1.2467088,-0.2709566,-0.68996096
alexnet_w3_mlp_simclrhn_probe2,1,86,NaN,knife,boat,0.60,0086_nse_dnn_0.60_boat_10_n03344393_382.png,n03344393_382.png,0.0,-4.8653345,-0.37889743,-3.17239
alexnet_w3_mlp_simclrhn_probe2,1,87,NaN,airplane,truck,0.00,0087_nse_dnn_0.00_truck_10_n03796401_27811.png,n03796401_27811.png,0.0,0.83581257,0.9378002,-0.07211617
alexnet_w3_mlp_simclrhn_probe2,1,88,NaN,knife,keyboard,0.60,0088_nse_dnn_0.60_keyboard_10_n04505470_2603.png,n04505470_2603.png,0.0,-4.760793,-0.23466504,-3.2004561
alexnet_w3_mlp_simclrhn_probe2,1,89,NaN,knife,boat,0.35,0089_nse_dnn_0.35_boat_10_n03662601_16418.png,n03662601_16418.png,0.0,-3.4753418,-0.17548847,-2.3333488
alexnet_w3_mlp_simclrhn_probe2,1,90,NaN,knife,bear,0.35,0090_nse_dnn_0.35_bear_10_n02132136_2760.png,n02132136_2760.png,0.0,-2.3055246,0.047160313,-1.6635995
alexnet_w3_mlp_simclrhn_probe2,1,91,NaN,bicycle,bicycle,0.05,0091_nse_dnn_0.05_bicycle_10_n02835271_10271.png,n02835271_10271.png,1.0,0.5883674,-0.69159806,0.9050722
alexnet_w3_mlp_simclrhn_probe2,1,92,NaN,knife,bear,0.10,0092_nse_dnn_0.10_bear_10_n02134084_9127.png,n02134084_9127.png,0.0,-0.709269,-0.34205866,-0.2596569
alexnet_w3_mlp_simclrhn_probe2,1,93,NaN,knife,bird,0.20,0093_nse_dnn_0.20_bird_10_n01797886_551.png,n01797886_551.png,0.0,-1.1593522,-0.023227543,-0.8033614
alexnet_w3_mlp_simclrhn_probe2,1,94,NaN,knife,truck,0.10,0094_nse_dnn_0.10_truck_10_n03417042_9559.png,n03417042_9559.png,0.0,-2.979657,-0.17764553,-1.9813213
alexnet_w3_mlp_simclrhn_probe2,1,95,NaN,knife,clock,0.90,0095_nse_dnn_0.90_clock_10_n02708093_3114.png,n02708093_3114.png,0.0,-3.4043996,-0.4282509,-2.104455
alexnet_w3_mlp_simclrhn_probe2,1,96,NaN,knife,bicycle,0.05,0096_nse_dnn_0.05_bicycle_10_n03792782_122.png,n03792782_122.png,0.0,-0.95944005,-0.49300954,-0.3298162
alexnet_w3_mlp_simclrhn_probe2,1,97,NaN,knife,oven,0.35,0097_nse_dnn_0.35_oven_10_n04111531_3702.png,n04111531_3702.png,0.0,-4.012393,-0.3523882,-2.5880144
alexnet_w3_mlp_simclrhn_probe2,1,98,NaN,knife,car,0.90,0098_nse_dnn_0.90_car_10_n02814533_93476.png,n02814533_93476.png,0.0,-8.411239,-0.5777765,-5.5390944
alexnet_w3_mlp_simclrhn_probe2,1,99,NaN,knife,cat,0.35,0099_nse_dnn_0.35_cat_10_n02123045_8491.png,n02123045_8491.png,0.0,-2.1220858,-0.2409985,-1.3301296
alexnet_w3_mlp_simclrhn_probe2,1,100,NaN,knife,chair,0.35,0100_nse_dnn_0.35_chair_10_n02791124_13469.png,n02791124_13469.png,0.0,-2.479278,0.13247722,-1.84679
alexnet_w3_mlp_simclrhn_probe2,1,101,NaN,knife,dog,0.60,0101_nse_dnn_0.60_dog_10_n02096294_5451.png,n02096294_5451.png,0.0,-3.6023195,0.068366334,-2.5955667
alexnet_w3_mlp_simclrhn_probe2,1,102,NaN,knife,bicycle,0.35,0102_nse_dnn_0.35_bicycle_10_n03792782_44296.png,n03792782_44296.png,0.0,-2.490291,-0.35560313,-1.5094523
alexnet_w3_mlp_simclrhn_probe2,1,103,NaN,knife,cat,0.90,0103_nse_dnn_0.90_cat_10_n02123597_7138.png,n02123597_7138.png,0.0,-4.584474,-0.17190734,-3.1201558
alexnet_w3_mlp_simclrhn_probe2,1,104,NaN,knife,bottle,0.35,0104_nse_dnn_0.35_bottle_10_n04560804_12736.png,n04560804_12736.png,0.0,-1.5646238,-0.012144923,-1.0977684
alexnet_w3_mlp_simclrhn_probe2,1,105,NaN,knife,oven,0.60,0105_nse_dnn_0.60_oven_10_n04111531_22797.png,n04111531_22797.png,0.0,-5.9334393,-0.10581158,-4.120755
alexnet_w3_mlp_simclrhn_probe2,1,106,NaN,elephant,bird,0.10,0106_nse_dnn_0.10_bird_10_n02007558_7446.png,n02007558_7446.png,0.0,-1.2778561,-0.5833378,-0.49109864
alexnet_w3_mlp_simclrhn_probe2,1,107,NaN,knife,boat,0.60,0107_nse_dnn_0.60_boat_10_n03662601_16441.png,n03662601_16441.png,0.0,-4.721511,-0.28324807,-3.138326
alexnet_w3_mlp_simclrhn_probe2,1,108,NaN,knife,oven,0.60,0108_nse_dnn_0.60_oven_10_n04111531_22386.png,n04111531_22386.png,0.0,-6.4354267,-0.28396386,-4.3497415
alexnet_w3_mlp_simclrhn_probe2,1,109,NaN,airplane,airplane,0.00,0109_nse_dnn_0.00_airplane_10_n02690373_1381.png,n02690373_1381.png,1.0,5.89918,-0.5089773,4.5312514
alexnet_w3_mlp_simclrhn_probe2,1,110,NaN,knife,keyboard,0.20,0110_nse_dnn_0.20_keyboard_10_n03085013_20779.png,n03085013_20779.png,0.0,-2.5462844,-0.5799992,-1.3903736
alexnet_w3_mlp_simclrhn_probe2,1,111,NaN,knife,dog,0.90,0111_nse_dnn_0.90_dog_10_n02095570_9488.png,n02095570_9488.png,0.0,-4.0846953,-0.4470344,-2.5722148
alexnet_w3_mlp_simclrhn_probe2,1,112,NaN,dog,dog,0.03,0112_nse_dnn_0.03_dog_10_n02107312_3262.png,n02107312_3262.png,1.0,0.46396643,0.025226504,0.31023598
alexnet_w3_mlp_simclrhn_probe2,1,113,NaN,oven,oven,0.03,0113_nse_dnn_0.03_oven_10_n04111531_10681.png,n04111531_10681.png,1.0,0.63533175,-0.14178196,0.5495024
alexnet_w3_mlp_simclrhn_probe2,1,114,NaN,knife,knife,0.90,0114_nse_dnn_0.90_knife_10_n03041632_29285.png,n03041632_29285.png,1.0,0.01313889,-2.9112265,2.0678387
alexnet_w3_mlp_simclrhn_probe2,1,115,NaN,knife,elephant,0.60,0115_nse_dnn_0.60_elephant_10_n02504458_4776.png,n02504458_4776.png,0.0,-4.7554126,-0.20425545,-3.218154
alexnet_w3_mlp_simclrhn_probe2,1,116,NaN,elephant,boat,0.10,0116_nse_dnn_0.10_boat_10_n04273569_11940.png,n04273569_11940.png,0.0,-1.9246819,-0.61532587,-0.9258545
alexnet_w3_mlp_simclrhn_probe2,1,117,NaN,knife,cat,0.20,0117_nse_dnn_0.20_cat_10_n02123159_1413.png,n02123159_1413.png,0.0,-1.2090453,-0.65778434,-0.38980037
alexnet_w3_mlp_simclrhn_probe2,1,118,NaN,knife,airplane,0.60,0118_nse_dnn_0.60_airplane_10_n02690373_6674.png,n02690373_6674.png,0.0,-8.890261,-0.15628669,-6.175853
alexnet_w3_mlp_simclrhn_probe2,1,119,NaN,knife,clock,0.35,0119_nse_dnn_0.35_clock_10_n04548280_5088.png,n04548280_5088.png,0.0,-1.7037507,0.14453065,-1.3069323
alexnet_w3_mlp_simclrhn_probe2,1,120,NaN,knife,clock,0.05,0120_nse_dnn_0.05_clock_10_n02708093_6624.png,n02708093_6624.png,0.0,-0.8116698,-0.12904313,-0.48269
alexnet_w3_mlp_simclrhn_probe2,1,121,NaN,knife,bicycle,0.20,0121_nse_dnn_0.20_bicycle_10_n03792782_29108.png,n03792782_29108.png,0.0,-1.3969669,-0.5200523,-0.6200723
alexnet_w3_mlp_simclrhn_probe2,1,122,NaN,knife,clock,0.20,0122_nse_dnn_0.20_clock_10_n04548280_8649.png,n04548280_8649.png,0.0,-1.5713092,0.12965684,-1.2027646
alexnet_w3_mlp_simclrhn_probe2,1,123,NaN,knife,knife,0.05,0123_nse_dnn_0.05_knife_10_n03041632_737.png,n03041632_737.png,1.0,-0.115308285,-0.33899426,0.15816988
alexnet_w3_mlp_simclrhn_probe2,1,124,NaN,clock,clock,0.10,0124_nse_dnn_0.10_clock_10_n04548280_8668.png,n04548280_8668.png,1.0,0.9872349,-1.0438716,1.4362092
alexnet_w3_mlp_simclrhn_probe2,1,125,NaN,bicycle,bird,0.03,0125_nse_dnn_0.03_bird_10_n01558993_34885.png,n01558993_34885.png,0.0,-0.26141688,-0.13642225,-0.088384554
alexnet_w3_mlp_simclrhn_probe2,1,126,NaN,knife,truck,0.60,0126_nse_dnn_0.60_truck_10_n04467665_37833.png,n04467665_37833.png,0.0,-7.0880513,0.028549805,-5.032197
alexnet_w3_mlp_simclrhn_probe2,1,127,NaN,knife,boat,0.05,0127_nse_dnn_0.05_boat_10_n03662601_5176.png,n03662601_5176.png,0.0,-0.18611817,-0.042389754,-0.10163134
alexnet_w3_mlp_simclrhn_probe2,1,128,NaN,chair,chair,0.00,0128_nse_dnn_0.00_chair_10_n03376595_9139.png,n03376595_9139.png,1.0,1.7286465,0.45770976,0.898688
alexnet_w3_mlp_simclrhn_probe2,1,129,NaN,knife,oven,0.90,0129_nse_dnn_0.90_oven_10_n04111531_6211.png,n04111531_6211.png,0.0,-7.4675407,-0.35428634,-5.0298305
alexnet_w3_mlp_simclrhn_probe2,1,130,NaN,boat,boat,0.00,0130_nse_dnn_0.00_boat_10_n04273569_11427.png,n04273569_11427.png,1.0,0.56429887,-0.10193458,0.47109818
alexnet_w3_mlp_simclrhn_probe2,1,131,NaN,oven,bicycle,0.05,0131_nse_dnn_0.05_bicycle_10_n03792782_17198.png,n03792782_17198.png,0.0,-0.2779763,-0.1038066,-0.123156585
alexnet_w3_mlp_simclrhn_probe2,1,132,NaN,clock,clock,0.00,0132_nse_dnn_0.00_clock_10_n04548280_4560.png,n04548280_4560.png,1.0,0.8273232,0.5440017,0.20033856
alexnet_w3_mlp_simclrhn_probe2,1,133,NaN,oven,knife,0.03,0133_nse_dnn_0.03_knife_10_n03041632_3781.png,n03041632_3781.png,0.0,-0.500378,-0.07191993,-0.30296564
alexnet_w3_mlp_simclrhn_probe2,1,134,NaN,knife,clock,0.10,0134_nse_dnn_0.10_clock_10_n03196217_958.png,n03196217_958.png,0.0,-0.2594064,0.42158246,-0.48153183
alexnet_w3_mlp_simclrhn_probe2,1,135,NaN,knife,elephant,0.35,0135_nse_dnn_0.35_elephant_10_n02504458_485.png,n02504458_485.png,0.0,-1.3928258,-0.42572975,-0.6838402
alexnet_w3_mlp_simclrhn_probe2,1,136,NaN,bicycle,clock,0.00,0136_nse_dnn_0.00_clock_10_n02708093_1038.png,n02708093_1038.png,0.0,-0.0077791214,0.67242056,-0.4809738
alexnet_w3_mlp_simclrhn_probe2,1,137,NaN,oven,oven,0.03,0137_nse_dnn_0.03_oven_10_n04111531_1723.png,n04111531_1723.png,1.0,0.65328145,-0.3167674,0.6859281
alexnet_w3_mlp_simclrhn_probe2,1,138,NaN,dog,dog,0.03,0138_nse_dnn_0.03_dog_10_n02110806_27169.png,n02110806_27169.png,1.0,0.41918284,-1.6711828,1.4781117
alexnet_w3_mlp_simclrhn_probe2,1,139,NaN,airplane,airplane,0.00,0139_nse_dnn_0.00_airplane_10_n02690373_12505.png,n02690373_12505.png,1.0,2.2713041,-0.01479541,1.6165165
alexnet_w3_mlp_simclrhn_probe2,1,140,NaN,knife,bird,0.60,0140_nse_dnn_0.60_bird_10_n01828970_454.png,n01828970_454.png,0.0,-3.4106357,-0.56181914,-2.0144176
alexnet_w3_mlp_simclrhn_probe2,1,141,NaN,knife,oven,0.20,0141_nse_dnn_0.20_oven_10_n04111531_15635.png,n04111531_15635.png,0.0,-2.142424,-0.4788072,-1.1763548
alexnet_w3_mlp_simclrhn_probe2,1,142,NaN,oven,car,0.00,0142_nse_dnn_0.00_car_10_n04285008_8700.png,n04285008_8700.png,0.0,-0.56297845,-0.12619208,-0.3088546
alexnet_w3_mlp_simclrhn_probe2,1,143,NaN,knife,keyboard,0.05,0143_nse_dnn_0.05_keyboard_10_n04505470_4592.png,n04505470_4592.png,0.0,0.20057373,0.32443893,-0.087585926
alexnet_w3_mlp_simclrhn_probe2,1,144,NaN,knife,boat,0.20,0144_nse_dnn_0.20_boat_10_n03344393_9560.png,n03344393_9560.png,0.0,-1.7080204,0.28624552,-1.4101591
alexnet_w3_mlp_simclrhn_probe2,1,145,NaN,elephant,bear,0.00,0145_nse_dnn_0.00_bear_10_n02132136_5138.png,n02132136_5138.png,0.0,0.16244888,0.20128147,-0.027458789
alexnet_w3_mlp_simclrhn_probe2,1,146,NaN,knife,chair,0.60,0146_nse_dnn_0.60_chair_10_n03376595_591.png,n03376595_591.png,0.0,-3.5819092,-0.38121477,-2.2632327
alexnet_w3_mlp_simclrhn_probe2,1,147,NaN,knife,keyboard,0.90,0147_nse_dnn_0.90_keyboard_10_n03085013_20590.png,n03085013_20590.png,0.0,-5.8025618,-0.30192095,-3.8895404
alexnet_w3_mlp_simclrhn_probe2,1,148,NaN,knife,dog,0.35,0148_nse_dnn_0.35_dog_10_n02094258_1224.png,n02094258_1224.png,0.0,-2.4922764,0.22579457,-1.9219664
alexnet_w3_mlp_simclrhn_probe2,1,149,NaN,knife,clock,0.20,0149_nse_dnn_0.20_clock_10_n03196217_4486.png,n03196217_4486.png,0.0,-1.374351,-0.065199316,-0.92571
alexnet_w3_mlp_simclrhn_probe2,1,150,NaN,knife,bear,0.20,0150_nse_dnn_0.20_bear_10_n02134084_22150.png,n02134084_22150.png,0.0,-1.5596955,0.121122815,-1.188518
alexnet_w3_mlp_simclrhn_probe2,1,151,NaN,cat,cat,0.10,0151_nse_dnn_0.10_cat_10_n02123045_3098.png,n02123045_3098.png,1.0,0.82686186,-0.5334204,0.96186477
alexnet_w3_mlp_simclrhn_probe2,1,152,NaN,bear,bear,0.20,0152_nse_dnn_0.20_bear_10_n02134418_271.png,n02134418_271.png,1.0,-1.0064205,-1.1117058,0.074447945
alexnet_w3_mlp_simclrhn_probe2,1,153,NaN,oven,oven,0.05,0153_nse_dnn_0.05_oven_10_n04111531_274.png,n04111531_274.png,1.0,0.26661325,-0.74674433,0.7165521
alexnet_w3_mlp_simclrhn_probe2,1,154,NaN,knife,knife,0.35,0154_nse_dnn_0.35_knife_10_n03041632_8563.png,n03041632_8563.png,1.0,-0.3630669,-1.7862424,1.006337
alexnet_w3_mlp_simclrhn_probe2,1,155,NaN,car,car,0.00,0155_nse_dnn_0.00_car_10_n02814533_52389.png,n02814533_52389.png,1.0,4.7638993,2.9807768,1.260858
alexnet_w3_mlp_simclrhn_probe2,1,156,NaN,airplane,airplane,0.00,0156_nse_dnn_0.00_airplane_10_n02690373_10455.png,n02690373_10455.png,1.0,0.55636674,0.040365443,0.36486802
alexnet_w3_mlp_simclrhn_probe2,1,157,NaN,knife,truck,0.35,0157_nse_dnn_0.35_truck_10_n04467665_4810.png,n04467665_4810.png,0.0,-4.9951572,0.19130974,-3.667386
alexnet_w3_mlp_simclrhn_probe2,1,158,NaN,knife,knife,0.10,0158_nse_dnn_0.10_knife_10_n03041632_3159.png,n03041632_3159.png,1.0,0.7545467,-1.753975,1.7737927
alexnet_w3_mlp_simclrhn_probe2,1,159,NaN,knife,cat,0.05,0159_nse_dnn_0.05_cat_10_n02123597_13411.png,n02123597_13411.png,0.0,-0.9654605,-0.4169895,-0.38782755
alexnet_w3_mlp_simclrhn_probe2,1,160,NaN,knife,clock,0.10,0160_nse_dnn_0.10_clock_10_n04548280_2654.png,n04548280_2654.png,0.0,-0.9372497,0.2847515,-0.8640853
alexnet_w3_mlp_simclrhn_probe2,1,161,NaN,knife,elephant,0.90,0161_nse_dnn_0.90_elephant_10_n02504013_405.png,n02504013_405.png,0.0,-5.541042,-0.20967562,-3.7698452
alexnet_w3_mlp_simclrhn_probe2,1,162,NaN,elephant,bottle,0.05,0162_nse_dnn_0.05_bottle_10_n04560804_14729.png,n04560804_14729.png,0.0,-0.35623336,0.08808547,-0.31418085
alexnet_w3_mlp_simclrhn_probe2,1,163,NaN,knife,bottle,0.90,0163_nse_dnn_0.90_bottle_10_n02823428_5482.png,n02823428_5482.png,0.0,-2.980556,-0.2234553,-1.9495647
alexnet_w3_mlp_simclrhn_probe2,1,164,NaN,knife,keyboard,0.90,0164_nse_dnn_0.90_keyboard_10_n04505470_4824.png,n04505470_4824.png,0.0,-5.6177726,-0.06745207,-3.9246695
alexnet_w3_mlp_simclrhn_probe2,1,165,NaN,knife,chair,0.20,0165_nse_dnn_0.20_chair_10_n04099969_14208.png,n04099969_14208.png,0.0,-1.162204,-0.14746812,-0.7175267
alexnet_w3_mlp_simclrhn_probe2,1,166,NaN,elephant,elephant,0.00,0166_nse_dnn_0.00_elephant_10_n02504013_1647.png,n02504013_1647.png,1.0,4.026033,0.79494363,2.2847252
alexnet_w3_mlp_simclrhn_probe2,1,167,NaN,elephant,cat,0.20,0167_nse_dnn_0.20_cat_10_n02123597_11564.png,n02123597_11564.png,0.0,-1.1465961,-0.5112313,-0.44927076
alexnet_w3_mlp_simclrhn_probe2,1,168,NaN,knife,car,0.35,0168_nse_dnn_0.35_car_10_n03100240_16653.png,n03100240_16653.png,0.0,-4.507031,-0.030920789,-3.1650877
alexnet_w3_mlp_simclrhn_probe2,1,169,NaN,keyboard,oven,0.00,0169_nse_dnn_0.00_oven_10_n04111531_9611.png,n04111531_9611.png,0.0,-0.124280885,0.6342143,-0.5363371
alexnet_w3_mlp_simclrhn_probe2,1,170,NaN,elephant,car,0.05,0170_nse_dnn_0.05_car_10_n02814533_35054.png,n02814533_35054.png,0.0,-1.316581,-0.33320552,-0.6953515
alexnet_w3_mlp_simclrhn_probe2,1,171,NaN,knife,oven,0.20,0171_nse_dnn_0.20_oven_10_n04111531_3121.png,n04111531_3121.png,0.0,-0.7271347,-0.64079463,-0.061051648
alexnet_w3_mlp_simclrhn_probe2,1,172,NaN,knife,chair,0.20,0172_nse_dnn_0.20_chair_10_n02791124_4969.png,n02791124_4969.png,0.0,-0.9257184,-0.5441973,-0.26977617
alexnet_w3_mlp_simclrhn_probe2,1,173,NaN,knife,car,0.20,0173_nse_dnn_0.20_car_10_n02814533_211.png,n02814533_211.png,0.0,-3.928868,-0.654094,-2.315615
alexnet_w3_mlp_simclrhn_probe2,1,174,NaN,dog,dog,0.00,0174_nse_dnn_0.00_dog_10_n02091244_13118.png,n02091244_13118.png,1.0,0.31172898,-0.8817376,0.8439083
alexnet_w3_mlp_simclrhn_probe2,1,175,NaN,knife,bottle,0.10,0175_nse_dnn_0.10_bottle_10_n04560804_3597.png,n04560804_3597.png,0.0,-1.0364076,-0.7875519,-0.17596756
alexnet_w3_mlp_simclrhn_probe2,1,176,NaN,knife,bottle,0.60,0176_nse_dnn_0.60_bottle_10_n04560804_30885.png,n04560804_30885.png,0.0,-2.489284,0.06260146,-1.8044556
alexnet_w3_mlp_simclrhn_probe2,1,177,NaN,knife,bottle,0.60,0177_nse_dnn_0.60_bottle_10_n04560804_9813.png,n04560804_9813.png,0.0,-2.647094,-0.37851816,-1.6041254
alexnet_w3_mlp_simclrhn_probe2,1,178,NaN,knife,boat,0.35,0178_nse_dnn_0.35_boat_10_n02951358_10003.png,n02951358_10003.png,0.0,-2.8409264,-0.21794182,-1.8547302
alexnet_w3_mlp_simclrhn_probe2,1,179,NaN,knife,bear,0.35,0179_nse_dnn_0.35_bear_10_n02133161_1500.png,n02133161_1500.png,0.0,-2.5594592,0.026601568,-1.8286211
alexnet_w3_mlp_simclrhn_probe2,1,180,NaN,knife,oven,0.20,0180_nse_dnn_0.20_oven_10_n04111531_4467.png,n04111531_4467.png,0.0,-1.5825322,-0.07334587,-1.0671558
alexnet_w3_mlp_simclrhn_probe2,1,181,NaN,knife,clock,0.20,0181_nse_dnn_0.20_clock_10_n02708093_8002.png,n02708093_8002.png,0.0,-1.6969442,-0.8200418,-0.62006366
alexnet_w3_mlp_simclrhn_probe2,1,182,NaN,knife,boat,0.90,0182_nse_dnn_0.90_boat_10_n02951358_34261.png,n02951358_34261.png,0.0,-5.708066,-0.3355137,-3.7989683
alexnet_w3_mlp_simclrhn_probe2,1,183,NaN,boat,boat,0.00,0183_nse_dnn_0.00_boat_10_n04612504_20067.png,n04612504_20067.png,1.0,3.2102516,1.6307666,1.1168646
alexnet_w3_mlp_simclrhn_probe2,1,184,NaN,knife,clock,0.35,0184_nse_dnn_0.35_clock_10_n03196217_6163.png,n03196217_6163.png,0.0,-1.5345869,-0.070841864,-1.035024
alexnet_w3_mlp_simclrhn_probe2,1,185,NaN,keyboard,keyboard,0.03,0185_nse_dnn_0.03_keyboard_10_n03085013_23119.png,n03085013_23119.png,1.0,0.56551087,0.26159558,0.21490057
alexnet_w3_mlp_simclrhn_probe2,1,186,NaN,knife,clock,0.60,0186_nse_dnn_0.60_clock_10_n04548280_4358.png,n04548280_4358.png,0.0,-2.8666592,-0.35019118,-1.7794117
alexnet_w3_mlp_simclrhn_probe2,1,187,NaN,bear,dog,0.05,0187_nse_dnn_0.05_dog_10_n02101388_2968.png,n02101388_2968.png,0.0,-0.783059,0.22071719,-0.70977694
alexnet_w3_mlp_simclrhn_probe2,1,188,NaN,oven,oven,0.10,0188_nse_dnn_0.10_oven_10_n04111531_8081.png,n04111531_8081.png,1.0,-0.023788162,-0.14372405,0.084807485
alexnet_w3_mlp_simclrhn_probe2,1,189,NaN,knife,keyboard,0.05,0189_nse_dnn_0.05_keyboard_10_n04505470_4994.png,n04505470_4994.png,0.0,-0.23291439,0.51636344,-0.5298194
alexnet_w3_mlp_simclrhn_probe2,1,190,NaN,oven,dog,0.10,0190_nse_dnn_0.10_dog_10_n02101006_16132.png,n02101006_16132.png,0.0,-1.3000525,-0.7528065,-0.3869614
alexnet_w3_mlp_simclrhn_probe2,1,191,NaN,elephant,elephant,0.10,0191_nse_dnn_0.10_elephant_10_n02504458_6888.png,n02504458_6888.png,1.0,0.124320894,-0.27514574,0.28246558
alexnet_w3_mlp_simclrhn_probe2,1,192,NaN,knife,bird,0.60,0192_nse_dnn_0.60_bird_10_n02018207_43958.png,n02018207_43958.png,0.0,-3.6291344,-0.23993602,-2.3965251
alexnet_w3_mlp_simclrhn_probe2,1,193,NaN,cat,cat,0.03,0193_nse_dnn_0.03_cat_10_n02123045_2719.png,n02123045_2719.png,1.0,3.1781762,-0.9731577,2.9354362
alexnet_w3_mlp_simclrhn_probe2,1,194,NaN,keyboard,keyboard,0.05,0194_nse_dnn_0.05_keyboard_10_n03085013_5611.png,n03085013_5611.png,1.0,1.8831367,-0.26317438,1.5176711
alexnet_w3_mlp_simclrhn_probe2,1,195,NaN,boat,boat,0.03,0195_nse_dnn_0.03_boat_10_n03344393_6892.png,n03344393_6892.png,1.0,0.14079803,-0.02314978,0.11592862
alexnet_w3_mlp_simclrhn_probe2,1,196,NaN,knife,chair,0.90,0196_nse_dnn_0.90_chair_10_n02791124_5411.png,n02791124_5411.png,0.0,-4.491006,-0.651054,-2.7152562
alexnet_w3_mlp_simclrhn_probe2,1,197,NaN,elephant,elephant,0.05,0197_nse_dnn_0.05_elephant_10_n02504013_8391.png,n02504013_8391.png,1.0,1.3548661,0.059788745,0.9157581
alexnet_w3_mlp_simclrhn_probe2,1,198,NaN,knife,chair,0.60,0198_nse_dnn_0.60_chair_10_n02791124_7167.png,n02791124_7167.png,0.0,-3.5842698,-0.2555521,-2.3537588
alexnet_w3_mlp_simclrhn_probe2,1,199,NaN,oven,truck,0.10,0199_nse_dnn_0.10_truck_10_n03417042_2170.png,n03417042_2170.png,0.0,-2.0138974,-0.42668116,-1.1223314
alexnet_w3_mlp_simclrhn_probe2,1,200,NaN,knife,chair,0.35,0200_nse_dnn_0.35_chair_10_n04099969_2109.png,n04099969_2109.png,0.0,-2.3408997,-0.012407437,-1.6464926
alexnet_w3_mlp_simclrhn_probe2,1,201,NaN,knife,chair,0.90,0201_nse_dnn_0.90_chair_10_n04429376_7321.png,n04429376_7321.png,0.0,-4.4165916,-0.19213206,-2.9871442
alexnet_w3_mlp_simclrhn_probe2,1,202,NaN,knife,airplane,0.35,0202_nse_dnn_0.35_airplane_10_n02690373_1733.png,n02690373_1733.png,0.0,-5.5543528,0.062076986,-3.9714158
alexnet_w3_mlp_simclrhn_probe2,1,203,NaN,elephant,bird,0.10,0203_nse_dnn_0.10_bird_10_n02006656_5719.png,n02006656_5719.png,0.0,-0.971313,-0.8892635,-0.05801775
alexnet_w3_mlp_simclrhn_probe2,1,204,NaN,bicycle,bicycle,0.03,0204_nse_dnn_0.03_bicycle_10_n03792782_12354.png,n03792782_12354.png,1.0,1.029835,-0.7401533,1.2515707
alexnet_w3_mlp_simclrhn_probe2,1,205,NaN,bottle,bottle,0.03,0205_nse_dnn_0.03_bottle_10_n04557648_12671.png,n04557648_12671.png,1.0,2.2032177,-0.8623229,2.1676648
alexnet_w3_mlp_simclrhn_probe2,1,206,NaN,elephant,elephant,0.05,0206_nse_dnn_0.05_elephant_10_n02504013_318.png,n02504013_318.png,1.0,0.6994332,-0.003845945,0.49729344
alexnet_w3_mlp_simclrhn_probe2,1,207,NaN,knife,boat,0.90,0207_nse_dnn_0.90_boat_10_n04273569_16078.png,n04273569_16078.png,0.0,-5.6827574,-0.16682892,-3.9003503
alexnet_w3_mlp_simclrhn_probe2,1,208,NaN,knife,cat,0.03,0208_nse_dnn_0.03_cat_10_n02123597_9664.png,n02123597_9664.png,0.0,-1.0104429,0.37018734,-0.97625303
alexnet_w3_mlp_simclrhn_probe2,1,209,NaN,knife,clock,0.35,0209_nse_dnn_0.35_clock_10_n04548280_4113.png,n04548280_4113.png,0.0,-1.3234793,0.19590312,-1.0743656
alexnet_w3_mlp_simclrhn_probe2,1,210,NaN,knife,keyboard,0.60,0210_nse_dnn_0.60_keyboard_10_n03085013_20363.png,n03085013_20363.png,0.0,-4.6021433,-0.12204294,-3.1679091
alexnet_w3_mlp_simclrhn_probe2,1,211,NaN,truck,truck,0.03,0211_nse_dnn_0.03_truck_10_n04467665_67908.png,n04467665_67908.png,1.0,-0.2631088,-0.33226246,0.04889903
alexnet_w3_mlp_simclrhn_probe2,1,212,NaN,knife,truck,0.90,0212_nse_dnn_0.90_truck_10_n04467665_61522.png,n04467665_61522.png,0.0,-8.241205,-0.6040816,-5.400262
alexnet_w3_mlp_simclrhn_probe2,1,213,NaN,knife,cat,0.90,0213_nse_dnn_0.90_cat_10_n02123045_3648.png,n02123045_3648.png,0.0,-4.4382157,-0.035556167,-3.1131504
alexnet_w3_mlp_simclrhn_probe2,1,214,NaN,knife,dog,0.60,0214_nse_dnn_0.60_dog_10_n02107574_3685.png,n02107574_3685.png,0.0,-3.5894048,-0.07376552,-2.4859324
alexnet_w3_mlp_simclrhn_probe2,1,215,NaN,knife,dog,0.20,0215_nse_dnn_0.20_dog_10_n02100236_4048.png,n02100236_4048.png,0.0,-1.8726383,-0.40754217,-1.0359795
alexnet_w3_mlp_simclrhn_probe2,1,216,NaN,knife,bear,0.35,0216_nse_dnn_0.35_bear_10_n02134418_5073.png,n02134418_5073.png,0.0,-2.0908723,-0.4174176,-1.1833112
alexnet_w3_mlp_simclrhn_probe2,1,217,NaN,knife,airplane,0.90,0217_nse_dnn_0.90_airplane_10_n02690373_9012.png,n02690373_9012.png,0.0,-10.7719145,-0.5123129,-7.254634
alexnet_w3_mlp_simclrhn_probe2,1,218,NaN,knife,cat,0.35,0218_nse_dnn_0.35_cat_10_n02123159_6439.png,n02123159_6439.png,0.0,-2.3401213,-0.36589676,-1.3959876
alexnet_w3_mlp_simclrhn_probe2,1,219,NaN,knife,cat,0.60,0219_nse_dnn_0.60_cat_10_n02125311_3616.png,n02125311_3616.png,0.0,-3.461811,-0.18316929,-2.3183498
alexnet_w3_mlp_simclrhn_probe2,1,220,NaN,knife,bottle,0.60,0220_nse_dnn_0.60_bottle_10_n04557648_4356.png,n04557648_4356.png,0.0,-2.4847527,-0.39222664,-1.4796393
alexnet_w3_mlp_simclrhn_probe2,1,221,NaN,knife,bird,0.35,0221_nse_dnn_0.35_bird_10_n02027492_6813.png,n02027492_6813.png,0.0,-2.114172,-0.53470445,-1.1168522
alexnet_w3_mlp_simclrhn_probe2,1,222,NaN,chair,chair,0.03,0222_nse_dnn_0.03_chair_10_n04429376_26765.png,n04429376_26765.png,1.0,0.28383505,0.21751076,0.046898358
alexnet_w3_mlp_simclrhn_probe2,1,223,NaN,knife,elephant,0.35,0223_nse_dnn_0.35_elephant_10_n02504458_4811.png,n02504458_4811.png,0.0,-1.9401405,0.031552345,-1.3941973
alexnet_w3_mlp_simclrhn_probe2,1,224,NaN,knife,keyboard,0.20,0224_nse_dnn_0.20_keyboard_10_n04505470_1351.png,n04505470_1351.png,0.0,-2.8482566,-1.6224873,-0.86674976
alexnet_w3_mlp_simclrhn_probe2,1,225,NaN,chair,chair,0.05,0225_nse_dnn_0.05_chair_10_n04099969_2532.png,n04099969_2532.png,1.0,0.13386072,-0.42528248,0.39537394
alexnet_w3_mlp_simclrhn_probe2,1,226,NaN,knife,airplane,0.10,0226_nse_dnn_0.10_airplane_10_n02690373_8547.png,n02690373_8547.png,0.0,-1.6384659,0.06680725,-1.2058102
alexnet_w3_mlp_simclrhn_probe2,1,227,NaN,knife,truck,0.35,0227_nse_dnn_0.35_truck_10_n03417042_23445.png,n03417042_23445.png,0.0,-4.3843384,0.15278293,-3.2082293
alexnet_w3_mlp_simclrhn_probe2,1,228,NaN,knife,truck,0.90,0228_nse_dnn_0.90_truck_10_n04467665_48953.png,n04467665_48953.png,0.0,-9.19432,-0.07800378,-6.446209
alexnet_w3_mlp_simclrhn_probe2,1,229,NaN,knife,boat,0.20,0229_nse_dnn_0.20_boat_10_n03662601_11739.png,n03662601_11739.png,0.0,-2.2664964,-0.10131019,-1.5310179
alexnet_w3_mlp_simclrhn_probe2,1,230,NaN,cat,cat,0.03,0230_nse_dnn_0.03_cat_10_n02123597_4948.png,n02123597_4948.png,1.0,0.82625085,0.2104365,0.4354465
alexnet_w3_mlp_simclrhn_probe2,1,231,NaN,knife,oven,0.35,0231_nse_dnn_0.35_oven_10_n04111531_9411.png,n04111531_9411.png,0.0,-3.0410523,0.010442004,-2.1577325
alexnet_w3_mlp_simclrhn_probe2,1,232,NaN,knife,bicycle,0.60,0232_nse_dnn_0.60_bicycle_10_n03792782_988.png,n03792782_988.png,0.0,-4.392344,-0.09712382,-3.0371795
alexnet_w3_mlp_simclrhn_probe2,1,233,NaN,oven,car,0.05,0233_nse_dnn_0.05_car_10_n02814533_65294.png,n02814533_65294.png,0.0,-1.7313544,0.16815941,-1.3431591
alexnet_w3_mlp_simclrhn_probe2,1,234,NaN,bottle,bottle,0.00,0234_nse_dnn_0.00_bottle_10_n04557648_10420.png,n04557648_10420.png,1.0,1.1828252,-0.028644115,0.8566382
alexnet_w3_mlp_simclrhn_probe2,1,235,NaN,knife,chair,0.60,0235_nse_dnn_0.60_chair_10_n04099969_33329.png,n04099969_33329.png,0.0,-3.209708,-0.5496541,-1.8809421
alexnet_w3_mlp_simclrhn_probe2,1,236,NaN,knife,oven,0.35,0236_nse_dnn_0.35_oven_10_n04111531_20493.png,n04111531_20493.png,0.0,-3.7783825,-0.292808,-2.4646733
alexnet_w3_mlp_simclrhn_probe2,1,237,NaN,knife,clock,0.10,0237_nse_dnn_0.10_clock_10_n04548280_7839.png,n04548280_7839.png,0.0,-0.07344755,-0.011374738,-0.043892104
alexnet_w3_mlp_simclrhn_probe2,1,238,NaN,knife,airplane,0.20,0238_nse_dnn_0.20_airplane_10_n02690373_7229.png,n02690373_7229.png,0.0,-3.0075374,0.31437773,-2.3489487
alexnet_w3_mlp_simclrhn_probe2,1,239,NaN,knife,airplane,0.10,0239_nse_dnn_0.10_airplane_10_n02690373_5003.png,n02690373_5003.png,0.0,-3.042855,-0.32889003,-1.9190631
alexnet_w3_mlp_simclrhn_probe2,1,240,NaN,knife,chair,0.20,0240_nse_dnn_0.20_chair_10_n02791124_206.png,n02791124_206.png,0.0,-1.0586522,-0.40138727,-0.46475646
alexnet_w3_mlp_simclrhn_probe2,1,241,NaN,oven,oven,0.00,0241_nse_dnn_0.00_oven_10_n04111531_7283.png,n04111531_7283.png,1.0,0.6513648,0.062392265,0.4164665
alexnet_w3_mlp_simclrhn_probe2,1,242,NaN,knife,chair,0.35,0242_nse_dnn_0.35_chair_10_n04429376_8124.png,n04429376_8124.png,0.0,-1.6394427,0.14488426,-1.2617097
alexnet_w3_mlp_simclrhn_probe2,1,243,NaN,keyboard,keyboard,0.00,0243_nse_dnn_0.00_keyboard_10_n04505470_3864.png,n04505470_3864.png,1.0,0.27505654,-0.12391262,0.28211382
alexnet_w3_mlp_simclrhn_probe2,1,244,NaN,knife,bottle,0.35,0244_nse_dnn_0.35_bottle_10_n03937543_3289.png,n03937543_3289.png,0.0,-1.8975542,-0.5630852,-0.94361204
alexnet_w3_mlp_simclrhn_probe2,1,245,NaN,knife,boat,0.10,0245_nse_dnn_0.10_boat_10_n03344393_5207.png,n03344393_5207.png,0.0,-0.9874455,0.24906218,-0.874343
alexnet_w3_mlp_simclrhn_probe2,1,246,NaN,knife,airplane,0.90,0246_nse_dnn_0.90_airplane_10_n02690373_629.png,n02690373_629.png,0.0,-10.399584,-0.18130517,-7.2254143
alexnet_w3_mlp_simclrhn_probe2,1,247,NaN,elephant,elephant,0.03,0247_nse_dnn_0.03_elephant_10_n02504013_104.png,n02504013_104.png,1.0,0.15098278,-0.017492492,0.11913001
alexnet_w3_mlp_simclrhn_probe2,1,248,NaN,bicycle,bicycle,0.03,0248_nse_dnn_0.03_bicycle_10_n03792782_42626.png,n03792782_42626.png,1.0,0.07281987,-0.51772076,0.4175753
alexnet_w3_mlp_simclrhn_probe2,1,249,NaN,knife,truck,0.35,0249_nse_dnn_0.35_truck_10_n03417042_6847.png,n03417042_6847.png,0.0,-4.4474616,-0.06995708,-3.0953631
alexnet_w3_mlp_simclrhn_probe2,1,250,NaN,knife,chair,0.10,0250_nse_dnn_0.10_chair_10_n04429376_23573.png,n04429376_23573.png,0.0,-0.9544946,-0.3802744,-0.40603498
alexnet_w3_mlp_simclrhn_probe2,1,251,NaN,knife,clock,0.03,0251_nse_dnn_0.03_clock_10_n03196217_7637.png,n03196217_7637.png,0.0,0.40104815,0.52466387,-0.08740951
alexnet_w3_mlp_simclrhn_probe2,1,252,NaN,knife,airplane,0.05,0252_nse_dnn_0.05_airplane_10_n02690373_932.png,n02690373_932.png,0.0,-1.9667586,-0.4756445,-1.054377
alexnet_w3_mlp_simclrhn_probe2,1,253,NaN,truck,truck,0.05,0253_nse_dnn_0.05_truck_10_n03417042_9478.png,n03417042_9478.png,1.0,0.20473292,0.032564063,0.12174177
alexnet_w3_mlp_simclrhn_probe2,1,254,NaN,clock,clock,0.05,0254_nse_dnn_0.05_clock_10_n04548280_7800.png,n04548280_7800.png,1.0,0.53184813,0.23358501,0.21090388
alexnet_w3_mlp_simclrhn_probe2,1,255,NaN,knife,keyboard,0.10,0255_nse_dnn_0.10_keyboard_10_n03085013_1698.png,n03085013_1698.png,0.0,-2.3062592,0.43649337,-1.9394189
alexnet_w3_mlp_simclrhn_probe2,1,256,NaN,knife,boat,0.20,0256_nse_dnn_0.20_boat_10_n04273569_32553.png,n04273569_32553.png,0.0,-2.2068107,0.25983018,-1.7441785
alexnet_w3_mlp_simclrhn_probe2,1,257,NaN,bear,bear,0.03,0257_nse_dnn_0.03_bear_10_n02132136_23078.png,n02132136_23078.png,1.0,0.31333536,0.26066184,0.037245803
alexnet_w3_mlp_simclrhn_probe2,1,258,NaN,bottle,bottle,0.00,0258_nse_dnn_0.00_bottle_10_n04591713_5476.png,n04591713_5476.png,1.0,1.0432601,0.07104476,0.68746006
alexnet_w3_mlp_simclrhn_probe2,1,259,NaN,oven,knife,0.10,0259_nse_dnn_0.10_knife_10_n03041632_31849.png,n03041632_31849.png,0.0,-1.0479367,-0.3329959,-0.5055395
alexnet_w3_mlp_simclrhn_probe2,1,260,NaN,knife,truck,0.90,0260_nse_dnn_0.90_truck_10_n03417042_12908.png,n03417042_12908.png,0.0,-8.821107,-0.25064814,-6.0602293
alexnet_w3_mlp_simclrhn_probe2,1,261,NaN,knife,clock,0.60,0261_nse_dnn_0.60_clock_10_n02708093_1418.png,n02708093_1418.png,0.0,-2.5819123,-0.22578378,-1.6660345
alexnet_w3_mlp_simclrhn_probe2,1,262,NaN,airplane,car,0.05,0262_nse_dnn_0.05_car_10_n03100240_4173.png,n03100240_4173.png,0.0,-0.0462388,0.4544145,-0.35401532
alexnet_w3_mlp_simclrhn_probe2,1,263,NaN,keyboard,keyboard,0.10,0263_nse_dnn_0.10_keyboard_10_n03085013_25476.png,n03085013_25476.png,1.0,0.6919637,-0.31648463,0.7130807
alexnet_w3_mlp_simclrhn_probe2,1,264,NaN,cat,cat,0.05,0264_nse_dnn_0.05_cat_10_n02125311_34464.png,n02125311_34464.png,1.0,0.82441443,-0.7230825,1.0942456
alexnet_w3_mlp_simclrhn_probe2,1,265,NaN,knife,knife,0.20,0265_nse_dnn_0.20_knife_10_n03041632_36789.png,n03041632_36789.png,1.0,-0.06354697,-1.060643,0.7050533
alexnet_w3_mlp_simclrhn_probe2,1,266,NaN,dog,dog,0.03,0266_nse_dnn_0.03_dog_10_n02108915_3733.png,n02108915_3733.png,1.0,-0.60444206,-1.0457644,0.31206205
alexnet_w3_mlp_simclrhn_probe2,1,267,NaN,knife,knife,0.60,0267_nse_dnn_0.60_knife_10_n03041632_42162.png,n03041632_42162.png,1.0,-0.33984658,-2.645554,1.6303813
alexnet_w3_mlp_simclrhn_probe2,1,268,NaN,knife,keyboard,0.10,0268_nse_dnn_0.10_keyboard_10_n03085013_29042.png,n03085013_29042.png,0.0,-1.0706489,0.32646295,-0.9879073
alexnet_w3_mlp_simclrhn_probe2,1,269,NaN,airplane,airplane,0.00,0269_nse_dnn_0.00_airplane_10_n02690373_19407.png,n02690373_19407.png,1.0,1.5520891,0.72297275,0.5862738
alexnet_w3_mlp_simclrhn_probe2,1,270,NaN,oven,bear,0.05,0270_nse_dnn_0.05_bear_10_n02134084_22029.png,n02134084_22029.png,0.0,-0.4051147,-0.33619088,-0.04873651
alexnet_w3_mlp_simclrhn_probe2,1,271,NaN,knife,dog,0.60,0271_nse_dnn_0.60_dog_10_n02088238_11711.png,n02088238_11711.png,0.0,-3.4894407,-0.32159716,-2.2400038
alexnet_w3_mlp_simclrhn_probe2,1,272,NaN,knife,elephant,0.20,0272_nse_dnn_0.20_elephant_10_n02504013_8522.png,n02504013_8522.png,0.0,-1.1520026,-0.079936475,-0.7580652
alexnet_w3_mlp_simclrhn_probe2,1,273,NaN,knife,elephant,0.60,0273_nse_dnn_0.60_elephant_10_n02504458_5941.png,n02504458_5941.png,0.0,-5.0081587,-0.0054689497,-3.537436
alexnet_w3_mlp_simclrhn_probe2,1,274,NaN,truck,truck,0.00,0274_nse_dnn_0.00_truck_10_n04467665_242.png,n04467665_242.png,1.0,2.9495502,1.7132117,0.87422335
alexnet_w3_mlp_simclrhn_probe2,1,275,NaN,keyboard,keyboard,0.00,0275_nse_dnn_0.00_keyboard_10_n04505470_4473.png,n04505470_4473.png,1.0,1.9324362,0.40369517,1.0809833
alexnet_w3_mlp_simclrhn_probe2,1,276,NaN,boat,boat,0.05,0276_nse_dnn_0.05_boat_10_n03662601_10811.png,n03662601_10811.png,1.0,-0.3268863,-0.5118538,0.13079178
alexnet_w3_mlp_simclrhn_probe2,1,277,NaN,keyboard,keyboard,0.03,0277_nse_dnn_0.03_keyboard_10_n03085013_20495.png,n03085013_20495.png,1.0,0.67298007,0.14665338,0.37216917
alexnet_w3_mlp_simclrhn_probe2,1,278,NaN,bicycle,bicycle,0.00,0278_nse_dnn_0.00_bicycle_10_n02835271_15038.png,n02835271_15038.png,1.0,4.774052,-0.85347366,3.9792616
alexnet_w3_mlp_simclrhn_probe2,1,279,NaN,knife,bear,0.20,0279_nse_dnn_0.20_bear_10_n02134418_5271.png,n02134418_5271.png,0.0,-1.3602636,-0.34681833,-0.716614
alexnet_w3_mlp_simclrhn_probe2,1,280,NaN,knife,chair,0.10,0280_nse_dnn_0.10_chair_10_n02791124_1217.png,n02791124_1217.png,0.0,-0.7792241,0.2783023,-0.7477841
alexnet_w3_mlp_simclrhn_probe2,1,281,NaN,knife,elephant,0.10,0281_nse_dnn_0.10_elephant_10_n02504013_2394.png,n02504013_2394.png,0.0,-0.67620856,-0.3228032,-0.24989533
alexnet_w3_mlp_simclrhn_probe2,1,282,NaN,knife,dog,0.35,0282_nse_dnn_0.35_dog_10_n02105505_5576.png,n02105505_5576.png,0.0,-2.2686749,-0.16528928,-1.4873182
alexnet_w3_mlp_simclrhn_probe2,1,283,NaN,knife,airplane,0.10,0283_nse_dnn_0.10_airplane_10_n02690373_2579.png,n02690373_2579.png,0.0,-2.3282793,-0.13119064,-1.5535764
alexnet_w3_mlp_simclrhn_probe2,1,284,NaN,dog,dog,0.05,0284_nse_dnn_0.05_dog_10_n02102480_10015.png,n02102480_10015.png,1.0,-0.2921738,-0.33771154,0.032200046
alexnet_w3_mlp_simclrhn_probe2,1,285,NaN,cat,cat,0.10,0285_nse_dnn_0.10_cat_10_n02124075_5853.png,n02124075_5853.png,1.0,-0.4640188,-1.1134489,0.4592164
alexnet_w3_mlp_simclrhn_probe2,1,286,NaN,airplane,truck,0.00,0286_nse_dnn_0.00_truck_10_n03796401_2012.png,n03796401_2012.png,0.0,0.5230865,0.68350804,-0.11343517
alexnet_w3_mlp_simclrhn_probe2,1,287,NaN,knife,keyboard,0.10,0287_nse_dnn_0.10_keyboard_10_n04505470_1286.png,n04505470_1286.png,0.0,-1.3879354,-0.37334293,-0.71742517
alexnet_w3_mlp_simclrhn_probe2,1,288,NaN,chair,truck,0.10,0288_nse_dnn_0.10_truck_10_n04467665_74008.png,n04467665_74008.png,0.0,-1.3558311,-0.6825267,-0.47609815
alexnet_w3_mlp_simclrhn_probe2,1,289,NaN,knife,bottle,0.90,0289_nse_dnn_0.90_bottle_10_n04560804_10541.png,n04560804_10541.png,0.0,-2.8737931,-0.11388393,-1.9515505
alexnet_w3_mlp_simclrhn_probe2,1,290,NaN,knife,airplane,0.20,0290_nse_dnn_0.20_airplane_10_n02690373_8967.png,n02690373_8967.png,0.0,-3.0844097,-0.13918468,-2.0825887
alexnet_w3_mlp_simclrhn_probe2,1,291,NaN,knife,keyboard,0.60,0291_nse_dnn_0.60_keyboard_10_n04505470_3309.png,n04505470_3309.png,0.0,-5.245789,-0.27348715,-3.5159485
alexnet_w3_mlp_simclrhn_probe2,1,292,NaN,car,car,0.05,0292_nse_dnn_0.05_car_10_n02814533_42665.png,n02814533_42665.png,1.0,1.6976643,1.1905034,0.35861692
alexnet_w3_mlp_simclrhn_probe2,1,293,NaN,knife,bicycle,0.03,0293_nse_dnn_0.03_bicycle_10_n03792782_6613.png,n03792782_6613.png,0.0,-1.2291514,-0.27430773,-0.67517644
alexnet_w3_mlp_simclrhn_probe2,1,294,NaN,knife,knife,0.00,0294_nse_dnn_0.00_knife_10_n03041632_38540.png,n03041632_38540.png,1.0,1.3576033,-0.7177633,1.4675057
alexnet_w3_mlp_simclrhn_probe2,1,295,NaN,knife,dog,0.90,0295_nse_dnn_0.90_dog_10_n02109047_6542.png,n02109047_6542.png,0.0,-3.8659875,-0.64908445,-2.2746942
alexnet_w3_mlp_simclrhn_probe2,1,296,NaN,knife,bicycle,0.35,0296_nse_dnn_0.35_bicycle_10_n03792782_51156.png,n03792782_51156.png,0.0,-2.7464106,-0.985134,-1.2454107
alexnet_w3_mlp_simclrhn_probe2,1,297,NaN,knife,bottle,0.10,0297_nse_dnn_0.10_bottle_10_n04579145_5795.png,n04579145_5795.png,0.0,-0.8993477,-0.123535894,-0.54858184
alexnet_w3_mlp_simclrhn_probe2,1,298,NaN,knife,chair,0.03,0298_nse_dnn_0.03_chair_10_n03376595_787.png,n03376595_787.png,0.0,-0.052220374,0.29024273,-0.242158
alexnet_w3_mlp_simclrhn_probe2,1,299,NaN,knife,bottle,0.90,0299_nse_dnn_0.90_bottle_10_n04579145_1117.png,n04579145_1117.png,0.0,-2.8310397,-0.4475259,-1.6853987
alexnet_w3_mlp_simclrhn_probe2,1,300,NaN,bird,bird,0.00,0300_nse_dnn_0.00_bird_10_n01795545_11076.png,n01795545_11076.png,1.0,-0.54934615,-0.7543298,0.14494534
alexnet_w3_mlp_simclrhn_probe2,1,301,NaN,knife,clock,0.20,0301_nse_dnn_0.20_clock_10_n03196217_6741.png,n03196217_6741.png,0.0,-1.2002412,0.26201966,-1.0339745
alexnet_w3_mlp_simclrhn_probe2,1,302,NaN,oven,oven,0.00,0302_nse_dnn_0.00_oven_10_n04111531_3555.png,n04111531_3555.png,1.0,0.7847668,0.004701847,0.5515892
alexnet_w3_mlp_simclrhn_probe2,1,303,NaN,knife,knife,0.20,0303_nse_dnn_0.20_knife_10_n03041632_36280.png,n03041632_36280.png,1.0,-0.07976766,-1.3429412,0.89319855
alexnet_w3_mlp_simclrhn_probe2,1,304,NaN,truck,truck,0.03,0304_nse_dnn_0.03_truck_10_n04467665_74235.png,n04467665_74235.png,1.0,3.808548,1.7274842,1.4715344
alexnet_w3_mlp_simclrhn_probe2,1,305,NaN,knife,clock,0.90,0305_nse_dnn_0.90_clock_10_n04548280_6287.png,n04548280_6287.png,0.0,-3.488725,-0.48963785,-2.1206748
alexnet_w3_mlp_simclrhn_probe2,1,306,NaN,elephant,elephant,0.00,0306_nse_dnn_0.00_elephant_10_n02504458_6472.png,n02504458_6472.png,1.0,3.9140515,1.4207981,1.7629964
alexnet_w3_mlp_simclrhn_probe2,1,307,NaN,bicycle,bicycle,0.05,0307_nse_dnn_0.05_bicycle_10_n03792782_11034.png,n03792782_11034.png,1.0,0.5764756,-0.81887805,0.98666406
alexnet_w3_mlp_simclrhn_probe2,1,308,NaN,knife,dog,0.60,0308_nse_dnn_0.60_dog_10_n02109525_50916.png,n02109525_50916.png,0.0,-3.5553634,-0.37333435,-2.2500343
alexnet_w3_mlp_simclrhn_probe2,1,309,NaN,knife,dog,0.60,0309_nse_dnn_0.60_dog_10_n02097658_1923.png,n02097658_1923.png,0.0,-3.4637284,-0.4567588,-2.1262486
alexnet_w3_mlp_simclrhn_probe2,1,310,NaN,knife,knife,0.03,0310_nse_dnn_0.03_knife_10_n03041632_22480.png,n03041632_22480.png,1.0,-0.09940839,-0.53159374,0.3056012
alexnet_w3_mlp_simclrhn_probe2,1,311,NaN,knife,elephant,0.35,0311_nse_dnn_0.35_elephant_10_n02504458_1041.png,n02504458_1041.png,0.0,-3.305367,0.036461443,-2.3630295
alexnet_w3_mlp_simclrhn_probe2,1,312,NaN,elephant,knife,0.10,0312_nse_dnn_0.10_knife_10_n03041632_28129.png,n03041632_28129.png,0.0,-1.5627077,-0.5715124,-0.7008809
alexnet_w3_mlp_simclrhn_probe2,1,313,NaN,car,car,0.00,0313_nse_dnn_0.00_car_10_n03100240_14667.png,n03100240_14667.png,1.0,4.183693,2.628377,1.0997745
alexnet_w3_mlp_simclrhn_probe2,1,314,NaN,airplane,airplane,0.03,0314_nse_dnn_0.03_airplane_10_n02690373_3821.png,n02690373_3821.png,1.0,1.6828232,0.4827944,0.8485485
alexnet_w3_mlp_simclrhn_probe2,1,315,NaN,knife,cat,0.90,0315_nse_dnn_0.90_cat_10_n02124075_1183.png,n02124075_1183.png,0.0,-4.266414,-0.68779606,-2.5304651
alexnet_w3_mlp_simclrhn_probe2,1,316,NaN,knife,car,0.90,0316_nse_dnn_0.90_car_10_n03100240_1194.png,n03100240_1194.png,0.0,-7.9349484,-0.20824714,-5.463603
alexnet_w3_mlp_simclrhn_probe2,1,317,NaN,knife,oven,0.60,0317_nse_dnn_0.60_oven_10_n04111531_9370.png,n04111531_9370.png,0.0,-6.6625757,-0.114922434,-4.62989
alexnet_w3_mlp_simclrhn_probe2,1,318,NaN,knife,truck,0.20,0318_nse_dnn_0.20_truck_10_n03417042_10597.png,n03417042_10597.png,0.0,-3.1932793,-0.4867239,-1.9138237
alexnet_w3_mlp_simclrhn_probe2,1,319,NaN,oven,truck,0.05,0319_nse_dnn_0.05_truck_10_n03417042_6489.png,n03417042_6489.png,0.0,-0.73348653,-0.3677045,-0.25864697
alexnet_w3_mlp_simclrhn_probe2,1,320,NaN,keyboard,bottle,0.05,0320_nse_dnn_0.05_bottle_10_n04591713_6662.png,n04591713_6662.png,0.0,-0.88076013,-0.26803166,-0.43326446
alexnet_w3_mlp_simclrhn_probe2,1,321,NaN,knife,bottle,0.60,0321_nse_dnn_0.60_bottle_10_n04560804_4624.png,n04560804_4624.png,0.0,-2.591634,-0.4360835,-1.5242044
alexnet_w3_mlp_simclrhn_probe2,1,322,NaN,bird,bird,0.00,0322_nse_dnn_0.00_bird_10_n01818515_7370.png,n01818515_7370.png,1.0,-0.19947217,-0.355471,0.11030782
alexnet_w3_mlp_simclrhn_probe2,1,323,NaN,keyboard,keyboard,0.05,0323_nse_dnn_0.05_keyboard_10_n03085013_15646.png,n03085013_15646.png,1.0,0.86015946,-0.1748803,0.73188365
alexnet_w3_mlp_simclrhn_probe2,1,324,NaN,cat,cat,0.03,0324_nse_dnn_0.03_cat_10_n02124075_14924.png,n02124075_14924.png,1.0,1.6311617,-0.6758321,1.6312909
alexnet_w3_mlp_simclrhn_probe2,1,325,NaN,elephant,elephant,0.20,0325_nse_dnn_0.20_elephant_10_n02504013_18217.png,n02504013_18217.png,1.0,-0.23200753,-0.59715235,0.25819638
alexnet_w3_mlp_simclrhn_probe2,1,326,NaN,knife,keyboard,0.35,0326_nse_dnn_0.35_keyboard_10_n04505470_4724.png,n04505470_4724.png,0.0,-2.639652,-1.0790949,-1.1034806
alexnet_w3_mlp_simclrhn_probe2,1,327,NaN,knife,clock,0.20,0327_nse_dnn_0.20_clock_10_n04548280_9646.png,n04548280_9646.png,0.0,-1.7775959,-0.9778823,-0.5654829
alexnet_w3_mlp_simclrhn_probe2,1,328,NaN,knife,cat,0.35,0328_nse_dnn_0.35_cat_10_n02123394_6376.png,n02123394_6376.png,0.0,-2.448287,-0.012016684,-1.7227032
alexnet_w3_mlp_simclrhn_probe2,1,329,NaN,knife,elephant,0.35,0329_nse_dnn_0.35_elephant_10_n02504458_130.png,n02504458_130.png,0.0,-3.2560377,-0.11568691,-2.2205634
alexnet_w3_mlp_simclrhn_probe2,1,330,NaN,knife,cat,0.90,0330_nse_dnn_0.90_cat_10_n02124075_9291.png,n02124075_9291.png,0.0,-4.130426,-0.39648908,-2.6402922
alexnet_w3_mlp_simclrhn_probe2,1,331,NaN,knife,bird,0.10,0331_nse_dnn_0.10_bird_10_n02037110_3949.png,n02037110_3949.png,0.0,-0.5708137,-0.28026143,-0.2054515
alexnet_w3_mlp_simclrhn_probe2,1,332,NaN,car,car,0.00,0332_nse_dnn_0.00_car_10_n04285008_10905.png,n04285008_10905.png,1.0,3.7690315,2.6465087,0.7937435
alexnet_w3_mlp_simclrhn_probe2,1,333,NaN,oven,chair,0.10,0333_nse_dnn_0.10_chair_10_n04429376_619.png,n04429376_619.png,0.0,-0.7024933,-0.5210035,-0.12833269
alexnet_w3_mlp_simclrhn_probe2,1,334,NaN,knife,boat,0.90,0334_nse_dnn_0.90_boat_10_n02951358_30335.png,n02951358_30335.png,0.0,-6.022898,-0.46961337,-3.9267652
alexnet_w3_mlp_simclrhn_probe2,1,335,NaN,knife,oven,0.90,0335_nse_dnn_0.90_oven_10_n04111531_17995.png,n04111531_17995.png,0.0,-8.087603,-0.31662837,-5.494909
alexnet_w3_mlp_simclrhn_probe2,1,336,NaN,knife,bird,0.35,0336_nse_dnn_0.35_bird_10_n01828970_11221.png,n01828970_11221.png,0.0,-2.1311898,-0.14444119,-1.4048434
alexnet_w3_mlp_simclrhn_probe2,1,337,NaN,elephant,elephant,0.10,0337_nse_dnn_0.10_elephant_10_n02504013_1719.png,n02504013_1719.png,1.0,-0.20178667,-0.31031054,0.07673797
alexnet_w3_mlp_simclrhn_probe2,1,338,NaN,knife,oven,0.10,0338_nse_dnn_0.10_oven_10_n04111531_8009.png,n04111531_8009.png,0.0,-0.04687141,0.10736865,-0.10906419
alexnet_w3_mlp_simclrhn_probe2,1,339,NaN,knife,airplane,0.60,0339_nse_dnn_0.60_airplane_10_n02690373_8233.png,n02690373_8233.png,0.0,-9.548319,-0.4849462,-6.4087725
alexnet_w3_mlp_simclrhn_probe2,1,340,NaN,bear,dog,0.10,0340_nse_dnn_0.10_dog_10_n02092339_401.png,n02092339_401.png,0.0,-0.70418555,-0.48493832,-0.1550312
alexnet_w3_mlp_simclrhn_probe2,1,341,NaN,knife,bottle,0.10,0341_nse_dnn_0.10_bottle_10_n02823428_11579.png,n02823428_11579.png,0.0,-0.7536054,-0.6270412,-0.08949441
alexnet_w3_mlp_simclrhn_probe2,1,342,NaN,knife,car,0.60,0342_nse_dnn_0.60_car_10_n04285008_6951.png,n04285008_6951.png,0.0,-7.39778,-0.65556896,-4.767463
alexnet_w3_mlp_simclrhn_probe2,1,343,NaN,knife,bicycle,0.35,0343_nse_dnn_0.35_bicycle_10_n03792782_12504.png,n03792782_12504.png,0.0,-2.7435508,-0.118053585,-1.8565068
alexnet_w3_mlp_simclrhn_probe2,1,344,NaN,bottle,bottle,0.00,0344_nse_dnn_0.00_bottle_10_n02823428_4073.png,n02823428_4073.png,1.0,1.4182959,-0.4617753,1.3294111
alexnet_w3_mlp_simclrhn_probe2,1,345,NaN,knife,elephant,0.35,0345_nse_dnn_0.35_elephant_10_n02504013_945.png,n02504013_945.png,0.0,-2.9122484,0.17146426,-2.180514
alexnet_w3_mlp_simclrhn_probe2,1,346,NaN,elephant,cat,0.10,0346_nse_dnn_0.10_cat_10_n02124075_12815.png,n02124075_12815.png,0.0,-0.87109905,-0.7307836,-0.099218026
alexnet_w3_mlp_simclrhn_probe2,1,347,NaN,knife,truck,0.60,0347_nse_dnn_0.60_truck_10_n03417042_4876.png,n03417042_4876.png,0.0,-6.952634,-0.42094877,-4.618599
alexnet_w3_mlp_simclrhn_probe2,1,348,NaN,chair,keyboard,0.05,0348_nse_dnn_0.05_keyboard_10_n04505470_4628.png,n04505470_4628.png,0.0,-1.7078891,1.1328075,-2.0086758
alexnet_w3_mlp_simclrhn_probe2,1,349,NaN,knife,bear,0.20,0349_nse_dnn_0.20_bear_10_n02133161_1427.png,n02133161_1427.png,0.0,-1.6318315,-0.38795516,-0.87955344
alexnet_w3_mlp_simclrhn_probe2,1,350,NaN,knife,boat,0.60,0350_nse_dnn_0.60_boat_10_n04273569_7296.png,n04273569_7296.png,0.0,-4.7649918,-0.08603954,-3.308519
alexnet_w3_mlp_simclrhn_probe2,1,351,NaN,knife,chair,0.90,0351_nse_dnn_0.90_chair_10_n04099969_41686.png,n04099969_41686.png,0.0,-4.2117395,-0.2984925,-2.7670836
alexnet_w3_mlp_simclrhn_probe2,1,352,NaN,oven,airplane,0.03,0352_nse_dnn_0.03_airplane_10_n02690373_10006.png,n02690373_10006.png,0.0,-1.4568076,-0.65605295,-0.5662191
alexnet_w3_mlp_simclrhn_probe2,1,353,NaN,knife,knife,0.90,0353_nse_dnn_0.90_knife_10_n03041632_20595.png,n03041632_20595.png,1.0,-0.2044876,-3.0559106,2.0162606
alexnet_w3_mlp_simclrhn_probe2,1,354,NaN,knife,oven,0.90,0354_nse_dnn_0.90_oven_10_n04111531_2054.png,n04111531_2054.png,0.0,-7.6642265,-0.3363261,-5.181608
alexnet_w3_mlp_simclrhn_probe2,1,355,NaN,knife,truck,0.20,0355_nse_dnn_0.20_truck_10_n04467665_40307.png,n04467665_40307.png,0.0,-3.1436713,-0.3927095,-1.9452238
alexnet_w3_mlp_simclrhn_probe2,1,356,NaN,bear,bear,0.00,0356_nse_dnn_0.00_bear_10_n02133161_396.png,n02133161_396.png,1.0,1.8839265,1.4587498,0.30064535
alexnet_w3_mlp_simclrhn_probe2,1,357,NaN,bear,dog,0.03,0357_nse_dnn_0.03_dog_10_n02105056_5636.png,n02105056_5636.png,0.0,-0.14043993,0.3676005,-0.35923883
alexnet_w3_mlp_simclrhn_probe2,1,358,NaN,knife,bicycle,0.35,0358_nse_dnn_0.35_bicycle_10_n02835271_8798.png,n02835271_8798.png,0.0,-2.7452292,-0.7560899,-1.406534
alexnet_w3_mlp_simclrhn_probe2,1,359,NaN,knife,bear,0.90,0359_nse_dnn_0.90_bear_10_n02134418_5478.png,n02134418_5478.png,0.0,-5.245247,-0.119258836,-3.624621
alexnet_w3_mlp_simclrhn_probe2,1,360,NaN,knife,boat,0.90,0360_nse_dnn_0.90_boat_10_n04612504_4250.png,n04612504_4250.png,0.0,-6.216813,-0.5116074,-4.0341897
alexnet_w3_mlp_simclrhn_probe2,1,361,NaN,knife,knife,0.35,0361_nse_dnn_0.35_knife_10_n03041632_18959.png,n03041632_18959.png,1.0,-0.22031732,-1.600025,0.97560066
alexnet_w3_mlp_simclrhn_probe2,1,362,NaN,knife,dog,0.35,0362_nse_dnn_0.35_dog_10_n02105251_6564.png,n02105251_6564.png,0.0,-2.3297036,-0.11621487,-1.5651728
alexnet_w3_mlp_simclrhn_probe2,1,363,NaN,knife,boat,0.90,0363_nse_dnn_0.90_boat_10_n04612504_7148.png,n04612504_7148.png,0.0,-5.794726,-0.2569127,-3.9158254
alexnet_w3_mlp_simclrhn_probe2,1,364,NaN,boat,boat,0.03,0364_nse_dnn_0.03_boat_10_n04273569_4348.png,n04273569_4348.png,1.0,0.09948423,-0.031869546,0.09288114
alexnet_w3_mlp_simclrhn_probe2,1,365,NaN,car,car,0.03,0365_nse_dnn_0.03_car_10_n02814533_88986.png,n02814533_88986.png,1.0,2.0634923,1.1755018,0.6279041
alexnet_w3_mlp_simclrhn_probe2,1,366,NaN,bear,bear,0.03,0366_nse_dnn_0.03_bear_10_n02134418_2590.png,n02134418_2590.png,1.0,0.9063104,-0.022466838,0.65674466
alexnet_w3_mlp_simclrhn_probe2,1,367,NaN,elephant,bird,0.20,0367_nse_dnn_0.20_bird_10_n02007558_5877.png,n02007558_5877.png,0.0,-1.5507442,-0.82573634,-0.51265794
alexnet_w3_mlp_simclrhn_probe2,1,368,NaN,clock,clock,0.05,0368_nse_dnn_0.05_clock_10_n02708093_1313.png,n02708093_1313.png,1.0,-0.0016158024,-1.1220328,0.79225445
alexnet_w3_mlp_simclrhn_probe2,1,369,NaN,knife,keyboard,0.35,0369_nse_dnn_0.35_keyboard_10_n03085013_20798.png,n03085013_20798.png,0.0,-3.399936,-0.1876863,-2.2714036
alexnet_w3_mlp_simclrhn_probe2,1,370,NaN,knife,dog,0.90,0370_nse_dnn_0.90_dog_10_n02109525_13812.png,n02109525_13812.png,0.0,-4.045212,-0.5920856,-2.441729
alexnet_w3_mlp_simclrhn_probe2,1,371,NaN,elephant,bear,0.20,0371_nse_dnn_0.20_bear_10_n02134418_4458.png,n02134418_4458.png,0.0,-0.83973086,-0.79376435,-0.03250323
alexnet_w3_mlp_simclrhn_probe2,1,372,NaN,knife,bottle,0.20,0372_nse_dnn_0.20_bottle_10_n04560804_21519.png,n04560804_21519.png,0.0,-1.3851537,-0.45984942,-0.6542889
alexnet_w3_mlp_simclrhn_probe2,1,373,NaN,elephant,elephant,0.10,0373_nse_dnn_0.10_elephant_10_n02504458_8183.png,n02504458_8183.png,1.0,-0.31835225,-0.46431914,0.103214175
alexnet_w3_mlp_simclrhn_probe2,1,374,NaN,knife,keyboard,0.90,0374_nse_dnn_0.90_keyboard_10_n03085013_20330.png,n03085013_20330.png,0.0,-5.3428736,-0.37118375,-3.5155156
alexnet_w3_mlp_simclrhn_probe2,1,375,NaN,elephant,elephant,0.10,0375_nse_dnn_0.10_elephant_10_n02504013_5533.png,n02504013_5533.png,1.0,0.19172359,-0.65303767,0.5973364
alexnet_w3_mlp_simclrhn_probe2,1,376,NaN,knife,oven,0.90,0376_nse_dnn_0.90_oven_10_n04111531_1009.png,n04111531_1009.png,0.0,-8.05578,-0.6865283,-5.2108483
alexnet_w3_mlp_simclrhn_probe2,1,377,NaN,bicycle,bicycle,0.05,0377_nse_dnn_0.05_bicycle_10_n03792782_48457.png,n03792782_48457.png,1.0,0.8519256,-0.8453702,1.2001693
alexnet_w3_mlp_simclrhn_probe2,1,378,NaN,elephant,cat,0.10,0378_nse_dnn_0.10_cat_10_n02124075_7240.png,n02124075_7240.png,0.0,-1.0186809,-0.8624269,-0.1104883
alexnet_w3_mlp_simclrhn_probe2,1,379,NaN,knife,car,0.60,0379_nse_dnn_0.60_car_10_n02814533_39597.png,n02814533_39597.png,0.0,-6.587307,-0.16263328,-4.54293
alexnet_w3_mlp_simclrhn_probe2,1,380,NaN,clock,chair,0.03,0380_nse_dnn_0.03_chair_10_n04429376_33792.png,n04429376_33792.png,0.0,-0.22400224,0.19390357,-0.29550403
alexnet_w3_mlp_simclrhn_probe2,1,381,NaN,knife,bicycle,0.60,0381_nse_dnn_0.60_bicycle_10_n03792782_15679.png,n03792782_15679.png,0.0,-4.064537,-0.40092653,-2.5905638
alexnet_w3_mlp_simclrhn_probe2,1,382,NaN,knife,bicycle,0.60,0382_nse_dnn_0.60_bicycle_10_n02835271_9237.png,n02835271_9237.png,0.0,-3.7794611,-0.6541437,-2.2099333
alexnet_w3_mlp_simclrhn_probe2,1,383,NaN,knife,bottle,0.35,0383_nse_dnn_0.35_bottle_10_n04591713_665.png,n04591713_665.png,0.0,-1.9624757,-0.3603938,-1.132843
alexnet_w3_mlp_simclrhn_probe2,1,384,NaN,bear,cat,0.03,0384_nse_dnn_0.03_cat_10_n02123159_8257.png,n02123159_8257.png,0.0,-0.44836488,-0.37339878,-0.05300904
alexnet_w3_mlp_simclrhn_probe2,1,385,NaN,bear,dog,0.10,0385_nse_dnn_0.10_dog_10_n02108551_26509.png,n02108551_26509.png,0.0,-1.0598091,-0.4004634,-0.4662278
alexnet_w3_mlp_simclrhn_probe2,1,386,NaN,knife,clock,0.60,0386_nse_dnn_0.60_clock_10_n03196217_3697.png,n03196217_3697.png,0.0,-2.4628043,-0.06645313,-1.6944761
alexnet_w3_mlp_simclrhn_probe2,1,387,NaN,bicycle,bicycle,0.03,0387_nse_dnn_0.03_bicycle_10_n02835271_25268.png,n02835271_25268.png,1.0,1.4347587,-0.3247885,1.2441878
alexnet_w3_mlp_simclrhn_probe2,1,388,NaN,oven,truck,0.10,0388_nse_dnn_0.10_truck_10_n03796401_407.png,n03796401_407.png,0.0,-3.6395345,-0.49921456,-2.2205415
alexnet_w3_mlp_simclrhn_probe2,1,389,NaN,clock,clock,0.05,0389_nse_dnn_0.05_clock_10_n04548280_2045.png,n04548280_2045.png,1.0,0.48461902,-0.13475114,0.43796086
alexnet_w3_mlp_simclrhn_probe2,1,390,NaN,oven,oven,0.05,0390_nse_dnn_0.05_oven_10_n04111531_5792.png,n04111531_5792.png,1.0,-0.018913776,-0.33216473,0.22150189
alexnet_w3_mlp_simclrhn_probe2,1,391,NaN,oven,elephant,0.05,0391_nse_dnn_0.05_elephant_10_n02504458_8212.png,n02504458_8212.png,0.0,-0.2964744,-0.03571531,-0.18438452
alexnet_w3_mlp_simclrhn_probe2,1,392,NaN,knife,bird,0.03,0392_nse_dnn_0.03_bird_10_n01843383_8624.png,n01843383_8624.png,0.0,-1.2155175,0.3652646,-1.1177818
alexnet_w3_mlp_simclrhn_probe2,1,393,NaN,knife,airplane,0.20,0393_nse_dnn_0.20_airplane_10_n02690373_4814.png,n02690373_4814.png,0.0,-3.990201,0.16603297,-2.9389012
alexnet_w3_mlp_simclrhn_probe2,1,394,NaN,knife,truck,0.60,0394_nse_dnn_0.60_truck_10_n03796401_6184.png,n03796401_6184.png,0.0,-7.1663885,-0.20770144,-4.9205346
alexnet_w3_mlp_simclrhn_probe2,1,395,NaN,cat,dog,0.03,0395_nse_dnn_0.03_dog_10_n02094114_1589.png,n02094114_1589.png,0.0,-0.35560766,-0.14324422,-0.15016364
alexnet_w3_mlp_simclrhn_probe2,1,396,NaN,knife,clock,0.90,0396_nse_dnn_0.90_clock_10_n02708093_6572.png,n02708093_6572.png,0.0,-3.3663661,-0.63088524,-1.934277
alexnet_w3_mlp_simclrhn_probe2,1,397,NaN,knife,boat,0.60,0397_nse_dnn_0.60_boat_10_n02951358_15551.png,n02951358_15551.png,0.0,-4.780844,-0.12571104,-3.2916763
alexnet_w3_mlp_simclrhn_probe2,1,398,NaN,knife,boat,0.35,0398_nse_dnn_0.35_boat_10_n03662601_7352.png,n03662601_7352.png,0.0,-3.2475677,-0.1926968,-2.16012
alexnet_w3_mlp_simclrhn_probe2,1,399,NaN,knife,bicycle,0.60,0399_nse_dnn_0.60_bicycle_10_n03792782_14984.png,n03792782_14984.png,0.0,-4.272581,-0.32303083,-2.7927537
alexnet_w3_mlp_simclrhn_probe2,1,400,NaN,knife,knife,0.35,0400_nse_dnn_0.35_knife_10_n03041632_84012.png,n03041632_84012.png,1.0,-0.3457133,-1.8980097,1.0976393
alexnet_w3_mlp_simclrhn_probe2,1,401,NaN,knife,keyboard,0.10,0401_nse_dnn_0.10_keyboard_10_n03085013_9146.png,n03085013_9146.png,0.0,-1.6313212,0.18763463,-1.286196
alexnet_w3_mlp_simclrhn_probe2,1,402,NaN,knife,airplane,0.03,0402_nse_dnn_0.03_airplane_10_n02690373_6755.png,n02690373_6755.png,0.0,-0.908464,-0.26927802,-0.45197278
alexnet_w3_mlp_simclrhn_probe2,1,403,NaN,knife,dog,0.20,0403_nse_dnn_0.20_dog_10_n02086079_17983.png,n02086079_17983.png,0.0,-1.7309643,-0.17169243,-1.1025717
alexnet_w3_mlp_simclrhn_probe2,1,404,NaN,bear,bear,0.00,0404_nse_dnn_0.00_bear_10_n02134418_3284.png,n02134418_3284.png,1.0,1.4616218,0.12509853,0.9450647
alexnet_w3_mlp_simclrhn_probe2,1,405,NaN,knife,elephant,0.35,0405_nse_dnn_0.35_elephant_10_n02504458_8064.png,n02504458_8064.png,0.0,-1.9354217,-0.31901878,-1.1429695
alexnet_w3_mlp_simclrhn_probe2,1,406,NaN,knife,cat,0.20,0406_nse_dnn_0.20_cat_10_n02123394_289.png,n02123394_289.png,0.0,-1.3084694,-0.23165253,-0.76142454
alexnet_w3_mlp_simclrhn_probe2,1,407,NaN,knife,knife,0.20,0407_nse_dnn_0.20_knife_10_n03041632_18995.png,n03041632_18995.png,1.0,0.16326073,-1.3666261,1.0817934
alexnet_w3_mlp_simclrhn_probe2,1,408,NaN,knife,bird,0.03,0408_nse_dnn_0.03_bird_10_n01843065_4999.png,n01843065_4999.png,0.0,-0.8460419,-0.23820655,-0.4298045
alexnet_w3_mlp_simclrhn_probe2,1,409,NaN,knife,keyboard,0.60,0409_nse_dnn_0.60_keyboard_10_n03085013_22417.png,n03085013_22417.png,0.0,-5.029663,-0.6330924,-3.108845
alexnet_w3_mlp_simclrhn_probe2,1,410,NaN,bear,bear,0.05,0410_nse_dnn_0.05_bear_10_n02132136_3224.png,n02132136_3224.png,1.0,-0.13475923,-0.48537967,0.2479261
alexnet_w3_mlp_simclrhn_probe2,1,411,NaN,bicycle,boat,0.05,0411_nse_dnn_0.05_boat_10_n03662601_33184.png,n03662601_33184.png,0.0,-1.4024782,-0.84493387,-0.3942434
alexnet_w3_mlp_simclrhn_probe2,1,412,NaN,knife,bear,0.05,0412_nse_dnn_0.05_bear_10_n02133161_2396.png,n02133161_2396.png,0.0,-0.56950843,-0.21306565,-0.2520431
alexnet_w3_mlp_simclrhn_probe2,1,413,NaN,knife,keyboard,0.35,0413_nse_dnn_0.35_keyboard_10_n03085013_24578.png,n03085013_24578.png,0.0,-3.0850525,0.51755595,-2.5474288
alexnet_w3_mlp_simclrhn_probe2,1,414,NaN,knife,car,0.35,0414_nse_dnn_0.35_car_10_n02814533_4519.png,n02814533_4519.png,0.0,-4.7228274,-0.18375525,-3.2096086
alexnet_w3_mlp_simclrhn_probe2,1,415,NaN,bottle,bottle,0.00,0415_nse_dnn_0.00_bottle_10_n03937543_2428.png,n03937543_2428.png,1.0,0.14555584,-0.28997198,0.30796465
alexnet_w3_mlp_simclrhn_probe2,1,416,NaN,elephant,dog,0.05,0416_nse_dnn_0.05_dog_10_n02091635_8296.png,n02091635_8296.png,0.0,-0.700474,0.20810175,-0.6424601
alexnet_w3_mlp_simclrhn_probe2,1,417,NaN,knife,bottle,0.35,0417_nse_dnn_0.35_bottle_10_n03983396_11434.png,n03983396_11434.png,0.0,-1.4457805,0.02313368,-1.0386791
alexnet_w3_mlp_simclrhn_probe2,1,418,NaN,bicycle,boat,0.00,0418_nse_dnn_0.00_boat_10_n02951358_7315.png,n02951358_7315.png,0.0,-0.20402214,0.114279,-0.2250729
alexnet_w3_mlp_simclrhn_probe2,1,419,NaN,knife,bird,0.20,0419_nse_dnn_0.20_bird_10_n01860187_7297.png,n01860187_7297.png,0.0,-1.1994635,-0.82275695,-0.26637176
alexnet_w3_mlp_simclrhn_probe2,1,420,NaN,knife,oven,0.20,0420_nse_dnn_0.20_oven_10_n04111531_4250.png,n04111531_4250.png,0.0,-1.8227551,-0.3262217,-1.058209
alexnet_w3_mlp_simclrhn_probe2,1,421,NaN,knife,bear,0.20,0421_nse_dnn_0.20_bear_10_n02133161_9463.png,n02133161_9463.png,0.0,-1.141155,-0.17491233,-0.6832368
alexnet_w3_mlp_simclrhn_probe2,1,422,NaN,bird,bird,0.00,0422_nse_dnn_0.00_bird_10_n02009229_4129.png,n02009229_4129.png,1.0,1.2247337,-0.720266,1.3753225
alexnet_w3_mlp_simclrhn_probe2,1,423,NaN,knife,knife,0.10,0423_nse_dnn_0.10_knife_10_n03041632_30821.png,n03041632_30821.png,1.0,-0.54801583,-1.4854405,0.6628593
alexnet_w3_mlp_simclrhn_probe2,1,424,NaN,knife,cat,0.90,0424_nse_dnn_0.90_cat_10_n02123394_2490.png,n02123394_2490.png,0.0,-4.3183417,-0.25533378,-2.8729804
alexnet_w3_mlp_simclrhn_probe2,1,425,NaN,dog,dog,0.00,0425_nse_dnn_0.00_dog_10_n02087394_2723.png,n02087394_2723.png,1.0,0.56982183,-0.43785983,0.71253854
alexnet_w3_mlp_simclrhn_probe2,1,426,NaN,knife,dog,0.90,0426_nse_dnn_0.90_dog_10_n02093754_5736.png,n02093754_5736.png,0.0,-4.1486464,-0.37471643,-2.6685715
alexnet_w3_mlp_simclrhn_probe2,1,427,NaN,knife,bottle,0.60,0427_nse_dnn_0.60_bottle_10_n02823428_9063.png,n02823428_9063.png,0.0,-2.5185192,-0.3270706,-1.5495882
alexnet_w3_mlp_simclrhn_probe2,1,428,NaN,knife,truck,0.60,0428_nse_dnn_0.60_truck_10_n04467665_20933.png,n04467665_20933.png,0.0,-7.0034933,-0.3660729,-4.693365
alexnet_w3_mlp_simclrhn_probe2,1,429,NaN,knife,car,0.10,0429_nse_dnn_0.10_car_10_n03100240_5999.png,n03100240_5999.png,0.0,-4.8153114,0.40422678,-3.6907709
alexnet_w3_mlp_simclrhn_probe2,1,430,NaN,chair,oven,0.03,0430_nse_dnn_0.03_oven_10_n04111531_3671.png,n04111531_3671.png,0.0,0.25892612,0.37304777,-0.08069619
alexnet_w3_mlp_simclrhn_probe2,1,431,NaN,oven,truck,0.05,0431_nse_dnn_0.05_truck_10_n03417042_7187.png,n03417042_7187.png,0.0,-1.5144875,-0.302965,-0.85667586
alexnet_w3_mlp_simclrhn_probe2,1,432,NaN,knife,bottle,0.35,0432_nse_dnn_0.35_bottle_10_n04557648_2954.png,n04557648_2954.png,0.0,-1.7342602,-0.15763113,-1.1148452
alexnet_w3_mlp_simclrhn_probe2,1,433,NaN,knife,elephant,0.35,0433_nse_dnn_0.35_elephant_10_n02504013_6645.png,n02504013_6645.png,0.0,-3.088194,0.17375404,-2.3065455
alexnet_w3_mlp_simclrhn_probe2,1,434,NaN,chair,keyboard,0.10,0434_nse_dnn_0.10_keyboard_10_n04505470_6876.png,n04505470_6876.png,0.0,-0.85730004,-0.5267694,-0.23372047
alexnet_w3_mlp_simclrhn_probe2,1,435,NaN,elephant,bird,0.20,0435_nse_dnn_0.20_bird_10_n02056570_3286.png,n02056570_3286.png,0.0,-1.7194383,-0.5945356,-0.79542637
alexnet_w3_mlp_simclrhn_probe2,1,436,NaN,knife,bird,0.90,0436_nse_dnn_0.90_bird_10_n02037110_8826.png,n02037110_8826.png,0.0,-4.225601,-0.59987265,-2.5637774
alexnet_w3_mlp_simclrhn_probe2,1,437,NaN,car,car,0.00,0437_nse_dnn_0.00_car_10_n03100240_11400.png,n03100240_11400.png,1.0,1.9583999,1.6341475,0.22928105
alexnet_w3_mlp_simclrhn_probe2,1,438,NaN,knife,bird,0.60,0438_nse_dnn_0.60_bird_10_n02018795_6389.png,n02018795_6389.png,0.0,-3.671225,-0.22027841,-2.4401877
alexnet_w3_mlp_simclrhn_probe2,1,439,NaN,knife,oven,0.35,0439_nse_dnn_0.35_oven_10_n04111531_2458.png,n04111531_2458.png,0.0,-4.1137676,0.01087147,-2.9165602
alexnet_w3_mlp_simclrhn_probe2,1,440,NaN,knife,cat,0.60,0440_nse_dnn_0.60_cat_10_n02123159_2256.png,n02123159_2256.png,0.0,-3.6121762,-0.20258203,-2.410947
alexnet_w3_mlp_simclrhn_probe2,1,441,NaN,elephant,elephant,0.03,0441_nse_dnn_0.03_elephant_10_n02504458_611.png,n02504458_611.png,1.0,4.992407,1.9930007,2.1209004
alexnet_w3_mlp_simclrhn_probe2,1,442,NaN,elephant,knife,0.03,0442_nse_dnn_0.03_knife_10_n03041632_18141.png,n03041632_18141.png,0.0,-0.035190146,0.37994108,-0.2935421
alexnet_w3_mlp_simclrhn_probe2,1,443,NaN,knife,bird,0.60,0443_nse_dnn_0.60_bird_10_n01843065_1871.png,n01843065_1871.png,0.0,-3.468274,-0.19945961,-2.311401
alexnet_w3_mlp_simclrhn_probe2,1,444,NaN,oven,bird,0.05,0444_nse_dnn_0.05_bird_10_n01833805_7361.png,n01833805_7361.png,0.0,-1.4686059,0.01329115,-1.0478594
alexnet_w3_mlp_simclrhn_probe2,1,445,NaN,knife,elephant,0.20,0445_nse_dnn_0.20_elephant_10_n02504458_5827.png,n02504458_5827.png,0.0,-1.3530505,-0.6961919,-0.46446916
alexnet_w3_mlp_simclrhn_probe2,1,446,NaN,knife,bicycle,0.35,0446_nse_dnn_0.35_bicycle_10_n02835271_5825.png,n02835271_5825.png,0.0,-2.6798778,-0.6856891,-1.4101044
alexnet_w3_mlp_simclrhn_probe2,1,447,NaN,knife,bear,0.90,0447_nse_dnn_0.90_bear_10_n02134084_12801.png,n02134084_12801.png,0.0,-5.8229313,-0.28492516,-3.915962
alexnet_w3_mlp_simclrhn_probe2,1,448,NaN,knife,cat,0.10,0448_nse_dnn_0.10_cat_10_n02123394_3611.png,n02123394_3611.png,0.0,-0.7505525,-0.3057958,-0.31449047
alexnet_w3_mlp_simclrhn_probe2,1,449,NaN,knife,chair,0.35,0449_nse_dnn_0.35_chair_10_n04429376_9589.png,n04429376_9589.png,0.0,-2.2387938,0.0007583499,-1.5836027
alexnet_w3_mlp_simclrhn_probe2,1,450,NaN,knife,cat,0.35,0450_nse_dnn_0.35_cat_10_n02123394_3885.png,n02123394_3885.png,0.0,-2.4186182,0.08618653,-1.7711643
alexnet_w3_mlp_simclrhn_probe2,1,451,NaN,knife,elephant,0.90,0451_nse_dnn_0.90_elephant_10_n02504013_22633.png,n02504013_22633.png,0.0,-6.468526,-0.35173777,-4.3252225
alexnet_w3_mlp_simclrhn_probe2,1,452,NaN,knife,car,0.20,0452_nse_dnn_0.20_car_10_n02814533_2271.png,n02814533_2271.png,0.0,-3.6625748,-0.22685406,-2.4294214
alexnet_w3_mlp_simclrhn_probe2,1,453,NaN,elephant,truck,0.05,0453_nse_dnn_0.05_truck_10_n03417042_10150.png,n03417042_10150.png,0.0,-0.84074223,-0.6528142,-0.13288517
alexnet_w3_mlp_simclrhn_probe2,1,454,NaN,knife,oven,0.35,0454_nse_dnn_0.35_oven_10_n04111531_10583.png,n04111531_10583.png,0.0,-4.142133,0.16472481,-3.0454085
alexnet_w3_mlp_simclrhn_probe2,1,455,NaN,bottle,bottle,0.03,0455_nse_dnn_0.03_bottle_10_n03937543_1602.png,n03937543_1602.png,1.0,1.9833386,-0.350034,1.6499436
alexnet_w3_mlp_simclrhn_probe2,1,456,NaN,knife,knife,0.03,0456_nse_dnn_0.03_knife_10_n03041632_3504.png,n03041632_3504.png,1.0,-0.047172505,-0.5800476,0.3767996
alexnet_w3_mlp_simclrhn_probe2,1,457,NaN,bicycle,bicycle,0.03,0457_nse_dnn_0.03_bicycle_10_n03792782_1004.png,n03792782_1004.png,1.0,1.6976511,0.4850104,0.8574665
alexnet_w3_mlp_simclrhn_probe2,1,458,NaN,bear,cat,0.05,0458_nse_dnn_0.05_cat_10_n02123394_8172.png,n02123394_8172.png,0.0,-0.37259328,-0.36927593,-0.002345725
alexnet_w3_mlp_simclrhn_probe2,1,459,NaN,elephant,elephant,0.10,0459_nse_dnn_0.10_elephant_10_n02504013_156.png,n02504013_156.png,1.0,-0.06836854,-0.4242624,0.25165495
alexnet_w3_mlp_simclrhn_probe2,1,460,NaN,oven,car,0.03,0460_nse_dnn_0.03_car_10_n04285008_5559.png,n04285008_5559.png,0.0,-0.9121557,0.54818606,-1.0326176
alexnet_w3_mlp_simclrhn_probe2,1,461,NaN,knife,elephant,0.35,0461_nse_dnn_0.35_elephant_10_n02504458_6694.png,n02504458_6694.png,0.0,-2.4310677,-0.08996997,-1.6554062
alexnet_w3_mlp_simclrhn_probe2,1,462,NaN,knife,car,0.90,0462_nse_dnn_0.90_car_10_n04285008_15003.png,n04285008_15003.png,0.0,-8.204331,-0.19789672,-5.661404
alexnet_w3_mlp_simclrhn_probe2,1,463,NaN,knife,chair,0.10,0463_nse_dnn_0.10_chair_10_n03376595_15723.png,n03376595_15723.png,0.0,-1.2058468,-0.033213485,-0.82917696
alexnet_w3_mlp_simclrhn_probe2,1,464,NaN,knife,knife,0.60,0464_nse_dnn_0.60_knife_10_n03041632_48816.png,n03041632_48816.png,1.0,-0.16153035,-2.5519662,1.6902934
alexnet_w3_mlp_simclrhn_probe2,1,465,NaN,knife,chair,0.90,0465_nse_dnn_0.90_chair_10_n03376595_4142.png,n03376595_4142.png,0.0,-4.308967,-0.15015046,-2.9407277
alexnet_w3_mlp_simclrhn_probe2,1,466,NaN,knife,car,0.60,0466_nse_dnn_0.60_car_10_n04285008_2363.png,n04285008_2363.png,0.0,-6.779232,-0.11569697,-4.711831
alexnet_w3_mlp_simclrhn_probe2,1,467,NaN,knife,truck,0.10,0467_nse_dnn_0.10_truck_10_n03417042_7335.png,n03417042_7335.png,0.0,-3.3038216,-0.34240028,-2.094041
alexnet_w3_mlp_simclrhn_probe2,1,468,NaN,oven,oven,0.00,0468_nse_dnn_0.00_oven_10_n04111531_6313.png,n04111531_6313.png,1.0,1.6292431,-0.019578628,1.1658931
alexnet_w3_mlp_simclrhn_probe2,1,469,NaN,bird,bird,0.05,0469_nse_dnn_0.05_bird_10_n02033041_6728.png,n02033041_6728.png,1.0,-0.29237923,-0.5129504,0.15596738
alexnet_w3_mlp_simclrhn_probe2,1,470,NaN,oven,clock,0.00,0470_nse_dnn_0.00_clock_10_n04548280_1032.png,n04548280_1032.png,0.0,-1.6266712,0.23931503,-1.3194516
alexnet_w3_mlp_simclrhn_probe2,1,471,NaN,airplane,airplane,0.03,0471_nse_dnn_0.03_airplane_10_n02690373_1983.png,n02690373_1983.png,1.0,0.8325529,0.39478034,0.30955195
alexnet_w3_mlp_simclrhn_probe2,1,472,NaN,chair,keyboard,0.00,0472_nse_dnn_0.00_keyboard_10_n03085013_23369.png,n03085013_23369.png,0.0,-0.2585326,1.2843578,-1.0909883
alexnet_w3_mlp_simclrhn_probe2,1,473,NaN,knife,elephant,0.90,0473_nse_dnn_0.90_elephant_10_n02504458_2419.png,n02504458_2419.png,0.0,-6.1473236,-0.6364497,-3.8967762
alexnet_w3_mlp_simclrhn_probe2,1,474,NaN,knife,truck,0.20,0474_nse_dnn_0.20_truck_10_n04467665_72022.png,n04467665_72022.png,0.0,-2.8681583,-0.051232282,-1.9918675
alexnet_w3_mlp_simclrhn_probe2,1,475,NaN,knife,bottle,0.05,0475_nse_dnn_0.05_bottle_10_n04579145_5289.png,n04579145_5289.png,0.0,-0.7867261,-0.14960316,-0.450514
alexnet_w3_mlp_simclrhn_probe2,1,476,NaN,clock,clock,0.05,0476_nse_dnn_0.05_clock_10_n02708093_2898.png,n02708093_2898.png,1.0,1.3357744,-0.66530657,1.4149779
alexnet_w3_mlp_simclrhn_probe2,1,477,NaN,knife,dog,0.20,0477_nse_dnn_0.20_dog_10_n02101556_4066.png,n02101556_4066.png,0.0,-1.6254843,-0.8203902,-0.56928754
alexnet_w3_mlp_simclrhn_probe2,1,478,NaN,knife,car,0.90,0478_nse_dnn_0.90_car_10_n04285008_17052.png,n04285008_17052.png,0.0,-8.384873,-0.53313565,-5.552017
alexnet_w3_mlp_simclrhn_probe2,1,479,NaN,knife,truck,0.90,0479_nse_dnn_0.90_truck_10_n04467665_37811.png,n04467665_37811.png,0.0,-8.629699,-0.14063108,-6.0026774
alexnet_w3_mlp_simclrhn_probe2,1,480,NaN,knife,keyboard,0.20,0480_nse_dnn_0.20_keyboard_10_n04505470_578.png,n04505470_578.png,0.0,-2.541719,-0.91369426,-1.1511873
alexnet_w3_mlp_simclrhn_probe2,1,481,NaN,oven,cat,0.10,0481_nse_dnn_0.10_cat_10_n02123045_2721.png,n02123045_2721.png,0.0,-1.7558146,-1.3559662,-0.28273547
alexnet_w3_mlp_simclrhn_probe2,1,482,NaN,knife,car,0.10,0482_nse_dnn_0.10_car_10_n04285008_7776.png,n04285008_7776.png,0.0,-3.8187459,0.26401463,-2.8869476
alexnet_w3_mlp_simclrhn_probe2,1,483,NaN,knife,bottle,0.90,0483_nse_dnn_0.90_bottle_10_n04591713_2014.png,n04591713_2014.png,0.0,-2.979876,-0.44562182,-1.7919885
alexnet_w3_mlp_simclrhn_probe2,1,484,NaN,knife,bottle,0.10,0484_nse_dnn_0.10_bottle_10_n03983396_9662.png,n03983396_9662.png,0.0,-0.8468512,-0.18503834,-0.4679724
alexnet_w3_mlp_simclrhn_probe2,1,485,NaN,knife,bicycle,0.35,0485_nse_dnn_0.35_bicycle_10_n03792782_10367.png,n03792782_10367.png,0.0,-2.7308974,-0.07400109,-1.8787094
alexnet_w3_mlp_simclrhn_probe2,1,486,NaN,knife,keyboard,0.60,0486_nse_dnn_0.60_keyboard_10_n03085013_22942.png,n03085013_22942.png,0.0,-5.1029077,-0.52689373,-3.2357306
alexnet_w3_mlp_simclrhn_probe2,1,487,NaN,cat,cat,0.00,0487_nse_dnn_0.00_cat_10_n02123597_3896.png,n02123597_3896.png,1.0,-0.50402457,-0.5447401,0.028790217
alexnet_w3_mlp_simclrhn_probe2,1,488,NaN,bicycle,bicycle,0.03,0488_nse_dnn_0.03_bicycle_10_n03792782_2649.png,n03792782_2649.png,1.0,1.2040954,-0.6019204,1.277046
alexnet_w3_mlp_simclrhn_probe2,1,489,NaN,bear,bear,0.10,0489_nse_dnn_0.10_bear_10_n02133161_2476.png,n02133161_2476.png,1.0,-0.42059526,-0.8757354,0.3218327
alexnet_w3_mlp_simclrhn_probe2,1,490,NaN,knife,car,0.10,0490_nse_dnn_0.10_car_10_n04285008_7249.png,n04285008_7249.png,0.0,-3.2304761,-0.78877705,-1.726542
alexnet_w3_mlp_simclrhn_probe2,1,491,NaN,knife,chair,0.20,0491_nse_dnn_0.20_chair_10_n04099969_8604.png,n04099969_8604.png,0.0,-1.4439985,-0.31207678,-0.80038947
alexnet_w3_mlp_simclrhn_probe2,1,492,NaN,bicycle,bicycle,0.05,0492_nse_dnn_0.05_bicycle_10_n02835271_5963.png,n02835271_5963.png,1.0,0.020297527,-0.34854925,0.26081407
alexnet_w3_mlp_simclrhn_probe2,1,493,NaN,knife,airplane,0.90,0493_nse_dnn_0.90_airplane_10_n02690373_17011.png,n02690373_17011.png,0.0,-11.3481245,-0.4352016,-7.716602
alexnet_w3_mlp_simclrhn_probe2,1,494,NaN,knife,bird,0.90,0494_nse_dnn_0.90_bird_10_n02028035_889.png,n02028035_889.png,0.0,-4.2419615,-0.5412549,-2.6167946
alexnet_w3_mlp_simclrhn_probe2,1,495,NaN,knife,cat,0.60,0495_nse_dnn_0.60_cat_10_n02123159_7949.png,n02123159_7949.png,0.0,-3.675646,-0.11218049,-2.5197508
alexnet_w3_mlp_simclrhn_probe2,1,496,NaN,car,car,0.03,0496_nse_dnn_0.03_car_10_n03100240_15686.png,n03100240_15686.png,1.0,1.6760503,1.525253,0.10662976
alexnet_w3_mlp_simclrhn_probe2,1,497,NaN,knife,cat,0.35,0497_nse_dnn_0.35_cat_10_n02123159_6106.png,n02123159_6106.png,0.0,-2.1680596,-0.34982225,-1.2856879
alexnet_w3_mlp_simclrhn_probe2,1,498,NaN,cat,cat,0.00,0498_nse_dnn_0.00_cat_10_n02123394_7105.png,n02123394_7105.png,1.0,0.006863763,-0.6931501,0.49498457
alexnet_w3_mlp_simclrhn_probe2,1,499,NaN,knife,clock,0.35,0499_nse_dnn_0.35_clock_10_n04548280_4747.png,n04548280_4747.png,0.0,-3.4211261,-1.0157616,-1.7008495
alexnet_w3_mlp_simclrhn_probe2,1,500,NaN,knife,elephant,0.20,0500_nse_dnn_0.20_elephant_10_n02504458_975.png,n02504458_975.png,0.0,-0.93972236,-0.5943672,-0.24420297
alexnet_w3_mlp_simclrhn_probe2,1,501,NaN,knife,boat,0.20,0501_nse_dnn_0.20_boat_10_n03344393_11590.png,n03344393_11590.png,0.0,-3.128334,-0.25060523,-2.0348616
alexnet_w3_mlp_simclrhn_probe2,1,502,NaN,knife,airplane,0.90,0502_nse_dnn_0.90_airplane_10_n02690373_2026.png,n02690373_2026.png,0.0,-10.864046,-0.38012105,-7.4132543
alexnet_w3_mlp_simclrhn_probe2,1,503,NaN,knife,clock,0.60,0503_nse_dnn_0.60_clock_10_n03196217_2346.png,n03196217_2346.png,0.0,-2.5162847,-0.05455546,-1.7407055
alexnet_w3_mlp_simclrhn_probe2,1,504,NaN,knife,truck,0.60,0504_nse_dnn_0.60_truck_10_n04467665_34932.png,n04467665_34932.png,0.0,-7.061338,-0.06695832,-4.945773
alexnet_w3_mlp_simclrhn_probe2,1,505,NaN,knife,oven,0.35,0505_nse_dnn_0.35_oven_10_n04111531_13625.png,n04111531_13625.png,0.0,-3.9487298,0.03086482,-2.8139982
alexnet_w3_mlp_simclrhn_probe2,1,506,NaN,airplane,airplane,0.00,0506_nse_dnn_0.00_airplane_10_n02690373_8666.png,n02690373_8666.png,1.0,2.0349667,-0.15189987,1.5463482
alexnet_w3_mlp_simclrhn_probe2,1,507,NaN,knife,oven,0.35,0507_nse_dnn_0.35_oven_10_n04111531_4148.png,n04111531_4148.png,0.0,-3.845783,0.08725211,-2.781076
alexnet_w3_mlp_simclrhn_probe2,1,508,NaN,dog,dog,0.00,0508_nse_dnn_0.00_dog_10_n02107683_7021.png,n02107683_7021.png,1.0,0.5257398,-0.94901705,1.0428106
alexnet_w3_mlp_simclrhn_probe2,1,509,NaN,oven,bird,0.05,0509_nse_dnn_0.05_bird_10_n02025239_22440.png,n02025239_22440.png,0.0,-0.7198487,-0.6487724,-0.050258517
alexnet_w3_mlp_simclrhn_probe2,1,510,NaN,knife,elephant,0.90,0510_nse_dnn_0.90_elephant_10_n02504013_7032.png,n02504013_7032.png,0.0,-5.6431837,-0.3671689,-3.730706
alexnet_w3_mlp_simclrhn_probe2,1,511,NaN,knife,truck,0.90,0511_nse_dnn_0.90_truck_10_n03417042_10788.png,n03417042_10788.png,0.0,-8.550898,-0.5126579,-5.6838937
alexnet_w3_mlp_simclrhn_probe2,1,512,NaN,knife,knife,0.05,0512_nse_dnn_0.05_knife_10_n03041632_86118.png,n03041632_86118.png,1.0,-0.19471137,-0.594324,0.28256878
alexnet_w3_mlp_simclrhn_probe2,1,513,NaN,bottle,bottle,0.00,0513_nse_dnn_0.00_bottle_10_n04557648_9790.png,n04557648_9790.png,1.0,0.12690869,-0.075556256,0.14316434
alexnet_w3_mlp_simclrhn_probe2,1,514,NaN,knife,chair,0.90,0514_nse_dnn_0.90_chair_10_n02791124_8788.png,n02791124_8788.png,0.0,-4.3431973,-0.59581804,-2.6497974
alexnet_w3_mlp_simclrhn_probe2,1,515,NaN,bird,dog,0.03,0515_nse_dnn_0.03_dog_10_n02095314_4996.png,n02095314_4996.png,0.0,-0.9465128,-0.22119164,-0.51287955
alexnet_w3_mlp_simclrhn_probe2,1,516,NaN,knife,keyboard,0.20,0516_nse_dnn_0.20_keyboard_10_n04505470_4679.png,n04505470_4679.png,0.0,-1.3937302,-0.030293625,-0.9640953
alexnet_w3_mlp_simclrhn_probe2,1,517,NaN,bird,bird,0.03,0517_nse_dnn_0.03_bird_10_n01860187_24935.png,n01860187_24935.png,1.0,-0.32503214,-0.4498899,0.08828776
alexnet_w3_mlp_simclrhn_probe2,1,518,NaN,knife,bicycle,0.60,0518_nse_dnn_0.60_bicycle_10_n02835271_14123.png,n02835271_14123.png,0.0,-4.3421373,-0.4435595,-2.756711
alexnet_w3_mlp_simclrhn_probe2,1,519,NaN,knife,boat,0.10,0519_nse_dnn_0.10_boat_10_n03344393_7075.png,n03344393_7075.png,0.0,-1.0016254,0.32771817,-0.93998784
alexnet_w3_mlp_simclrhn_probe2,1,520,NaN,knife,knife,0.03,0520_nse_dnn_0.03_knife_10_n03041632_13130.png,n03041632_13130.png,1.0,1.1951315,-1.2030821,1.6957932
alexnet_w3_mlp_simclrhn_probe2,1,521,NaN,knife,bottle,0.20,0521_nse_dnn_0.20_bottle_10_n04591713_5569.png,n04591713_5569.png,0.0,-1.4031838,-0.033000365,-0.96886605
alexnet_w3_mlp_simclrhn_probe2,1,522,NaN,elephant,elephant,0.05,0522_nse_dnn_0.05_elephant_10_n02504013_19753.png,n02504013_19753.png,1.0,0.5318446,-0.021001115,0.39092097
alexnet_w3_mlp_simclrhn_probe2,1,523,NaN,knife,dog,0.60,0523_nse_dnn_0.60_dog_10_n02099849_4819.png,n02099849_4819.png,0.0,-3.4636893,-0.39989993,-2.1664262
alexnet_w3_mlp_simclrhn_probe2,1,524,NaN,knife,elephant,0.90,0524_nse_dnn_0.90_elephant_10_n02504458_12938.png,n02504458_12938.png,0.0,-5.7398415,-0.23879293,-3.889829
alexnet_w3_mlp_simclrhn_probe2,1,525,NaN,bottle,bottle,0.03,0525_nse_dnn_0.03_bottle_10_n02823428_901.png,n02823428_901.png,1.0,2.1797452,-0.3266345,1.7722781
alexnet_w3_mlp_simclrhn_probe2,1,526,NaN,car,bicycle,0.00,0526_nse_dnn_0.00_bicycle_10_n03792782_2024.png,n03792782_2024.png,0.0,0.5602906,1.073361,-0.36279562
alexnet_w3_mlp_simclrhn_probe2,1,527,NaN,oven,truck,0.05,0527_nse_dnn_0.05_truck_10_n03417042_24856.png,n03417042_24856.png,0.0,-1.7457242,-0.10405417,-1.160836
alexnet_w3_mlp_simclrhn_probe2,1,528,NaN,elephant,elephant,0.00,0528_nse_dnn_0.00_elephant_10_n02504013_19694.png,n02504013_19694.png,1.0,4.141701,1.3645117,1.9637696
alexnet_w3_mlp_simclrhn_probe2,1,529,NaN,knife,bird,0.20,0529_nse_dnn_0.20_bird_10_n01530575_10119.png,n01530575_10119.png,0.0,-1.169948,-0.5055479,-0.4698018
alexnet_w3_mlp_simclrhn_probe2,1,530,NaN,knife,bottle,0.20,0530_nse_dnn_0.20_bottle_10_n04557648_954.png,n04557648_954.png,0.0,-1.2900499,-0.29569417,-0.7031157
alexnet_w3_mlp_simclrhn_probe2,1,531,NaN,knife,cat,0.90,0531_nse_dnn_0.90_cat_10_n02123159_277.png,n02123159_277.png,0.0,-4.28138,-0.34835654,-2.7810678
alexnet_w3_mlp_simclrhn_probe2,1,532,NaN,knife,knife,0.00,0532_nse_dnn_0.00_knife_10_n03041632_289.png,n03041632_289.png,1.0,0.7595605,0.033303726,0.5135411
alexnet_w3_mlp_simclrhn_probe2,1,533,NaN,knife,truck,0.35,0533_nse_dnn_0.35_truck_10_n04467665_450.png,n04467665_450.png,0.0,-4.847888,-0.24751785,-3.2529528
alexnet_w3_mlp_simclrhn_probe2,1,534,NaN,knife,knife,0.00,0534_nse_dnn_0.00_knife_10_n03041632_1607.png,n03041632_1607.png,1.0,0.602035,-0.8836745,1.0505552
alexnet_w3_mlp_simclrhn_probe2,1,535,NaN,knife,bird,0.20,0535_nse_dnn_0.20_bird_10_n01532829_4692.png,n01532829_4692.png,0.0,-1.3424684,-0.4891674,-0.6033749
alexnet_w3_mlp_simclrhn_probe2,1,536,NaN,bear,dog,0.10,0536_nse_dnn_0.10_dog_10_n02102177_4771.png,n02102177_4771.png,0.0,-0.9733743,-0.0019116215,-0.68692786
alexnet_w3_mlp_simclrhn_probe2,1,537,NaN,knife,car,0.10,0537_nse_dnn_0.10_car_10_n04285008_14554.png,n04285008_14554.png,0.0,-3.46478,-0.63730836,-1.9993244
alexnet_w3_mlp_simclrhn_probe2,1,538,NaN,clock,clock,0.00,0538_nse_dnn_0.00_clock_10_n04548280_3716.png,n04548280_3716.png,1.0,0.56834275,-0.3416983,0.6434962
alexnet_w3_mlp_simclrhn_probe2,1,539,NaN,car,car,0.03,0539_nse_dnn_0.03_car_10_n04285008_6849.png,n04285008_6849.png,1.0,-0.11640775,-0.19951497,0.05876568
alexnet_w3_mlp_simclrhn_probe2,1,540,NaN,knife,keyboard,0.35,0540_nse_dnn_0.35_keyboard_10_n03085013_24467.png,n03085013_24467.png,0.0,-3.3895128,-0.518726,-2.0299528
alexnet_w3_mlp_simclrhn_probe2,1,541,NaN,knife,clock,0.35,0541_nse_dnn_0.35_clock_10_n03196217_6672.png,n03196217_6672.png,0.0,-1.638786,0.29717147,-1.3689287
alexnet_w3_mlp_simclrhn_probe2,1,542,NaN,bear,dog,0.10,0542_nse_dnn_0.10_dog_10_n02105251_5570.png,n02105251_5570.png,0.0,-1.4290786,-0.6353103,-0.56127894
alexnet_w3_mlp_simclrhn_probe2,1,543,NaN,knife,dog,0.35,0543_nse_dnn_0.35_dog_10_n02107574_3352.png,n02107574_3352.png,0.0,-2.240584,-0.49298793,-1.235737
alexnet_w3_mlp_simclrhn_probe2,1,544,NaN,knife,boat,0.60,0544_nse_dnn_0.60_boat_10_n03662601_8191.png,n03662601_8191.png,0.0,-4.788891,-0.28140196,-3.187276
alexnet_w3_mlp_simclrhn_probe2,1,545,NaN,boat,boat,0.00,0545_nse_dnn_0.00_boat_10_n04612504_30617.png,n04612504_30617.png,1.0,2.0434585,1.7413511,0.21362215
alexnet_w3_mlp_simclrhn_probe2,1,546,NaN,knife,bear,0.60,0546_nse_dnn_0.60_bear_10_n02132136_2900.png,n02132136_2900.png,0.0,-4.421681,-0.08717808,-3.0649562
alexnet_w3_mlp_simclrhn_probe2,1,547,NaN,knife,truck,0.10,0547_nse_dnn_0.10_truck_10_n03417042_8139.png,n03417042_8139.png,0.0,-2.640242,-0.37761325,-1.5999202
alexnet_w3_mlp_simclrhn_probe2,1,548,NaN,chair,chair,0.03,0548_nse_dnn_0.03_chair_10_n03376595_5112.png,n03376595_5112.png,1.0,-0.17274788,-0.4777612,0.215677
alexnet_w3_mlp_simclrhn_probe2,1,549,NaN,bird,bird,0.05,0549_nse_dnn_0.05_bird_10_n02006656_10360.png,n02006656_10360.png,1.0,-0.32585007,-0.71769756,0.27707803
alexnet_w3_mlp_simclrhn_probe2,1,550,NaN,knife,elephant,0.20,0550_nse_dnn_0.20_elephant_10_n02504458_2799.png,n02504458_2799.png,0.0,-1.7125596,-0.020539477,-1.1964389
alexnet_w3_mlp_simclrhn_probe2,1,551,NaN,knife,airplane,0.10,0551_nse_dnn_0.10_airplane_10_n02690373_6096.png,n02690373_6096.png,0.0,-2.1815286,-0.23342538,-1.377517
alexnet_w3_mlp_simclrhn_probe2,1,552,NaN,knife,bird,0.20,0552_nse_dnn_0.20_bird_10_n02002556_139.png,n02002556_139.png,0.0,-1.5547867,-1.1805032,-0.26465836
alexnet_w3_mlp_simclrhn_probe2,1,553,NaN,car,car,0.00,0553_nse_dnn_0.00_car_10_n04285008_3056.png,n04285008_3056.png,1.0,0.96768254,0.73349494,0.16559565
alexnet_w3_mlp_simclrhn_probe2,1,554,NaN,knife,knife,0.10,0554_nse_dnn_0.10_knife_10_n03041632_14774.png,n03041632_14774.png,1.0,0.52365196,-0.68364024,0.85368454
alexnet_w3_mlp_simclrhn_probe2,1,555,NaN,knife,oven,0.20,0555_nse_dnn_0.20_oven_10_n04111531_2163.png,n04111531_2163.png,0.0,-1.4856572,-0.10819429,-0.9740133
alexnet_w3_mlp_simclrhn_probe2,1,556,NaN,knife,cat,0.20,0556_nse_dnn_0.20_cat_10_n02123597_30864.png,n02123597_30864.png,0.0,-1.7459702,-0.3211788,-1.0074797
alexnet_w3_mlp_simclrhn_probe2,1,557,NaN,knife,boat,0.35,0557_nse_dnn_0.35_boat_10_n02951358_33559.png,n02951358_33559.png,0.0,-2.961719,-0.2791455,-1.896866
alexnet_w3_mlp_simclrhn_probe2,1,558,NaN,knife,bicycle,0.60,0558_nse_dnn_0.60_bicycle_10_n02835271_4619.png,n02835271_4619.png,0.0,-4.1905293,-0.38651806,-2.6898422
alexnet_w3_mlp_simclrhn_probe2,1,559,NaN,knife,truck,0.03,0559_nse_dnn_0.03_truck_10_n03796401_21261.png,n03796401_21261.png,0.0,-0.3983719,-0.38268572,-0.011091807
alexnet_w3_mlp_simclrhn_probe2,1,560,NaN,knife,airplane,0.10,0560_nse_dnn_0.10_airplane_10_n02690373_2496.png,n02690373_2496.png,0.0,-2.8941715,0.07860489,-2.1020703
alexnet_w3_mlp_simclrhn_probe2,1,561,NaN,knife,boat,0.35,0561_nse_dnn_0.35_boat_10_n03662601_5419.png,n03662601_5419.png,0.0,-3.2765164,-0.108261704,-2.2402945
alexnet_w3_mlp_simclrhn_probe2,1,562,NaN,airplane,airplane,0.03,0562_nse_dnn_0.03_airplane_10_n02690373_7686.png,n02690373_7686.png,1.0,1.5061117,0.80181074,0.49801603
alexnet_w3_mlp_simclrhn_probe2,1,563,NaN,knife,oven,0.90,0563_nse_dnn_0.90_oven_10_n04111531_5246.png,n04111531_5246.png,0.0,-8.290769,-0.12274763,-5.7756634
alexnet_w3_mlp_simclrhn_probe2,1,564,NaN,knife,bicycle,0.60,0564_nse_dnn_0.60_bicycle_10_n03792782_1099.png,n03792782_1099.png,0.0,-3.9856286,-0.3398808,-2.577933
alexnet_w3_mlp_simclrhn_probe2,1,565,NaN,knife,chair,0.35,0565_nse_dnn_0.35_chair_10_n04099969_12909.png,n04099969_12909.png,0.0,-3.2461727,-0.5866754,-1.8805486
alexnet_w3_mlp_simclrhn_probe2,1,566,NaN,elephant,elephant,0.03,0566_nse_dnn_0.03_elephant_10_n02504013_7147.png,n02504013_7147.png,1.0,0.03619418,0.011574252,0.017408919
alexnet_w3_mlp_simclrhn_probe2,1,567,NaN,knife,truck,0.35,0567_nse_dnn_0.35_truck_10_n04467665_44715.png,n04467665_44715.png,0.0,-4.5893316,-0.14849335,-3.140147
alexnet_w3_mlp_simclrhn_probe2,1,568,NaN,keyboard,keyboard,0.00,0568_nse_dnn_0.00_keyboard_10_n04505470_1338.png,n04505470_1338.png,1.0,2.9695878,0.059316635,2.0578725
alexnet_w3_mlp_simclrhn_probe2,1,569,NaN,knife,airplane,0.90,0569_nse_dnn_0.90_airplane_10_n02690373_4982.png,n02690373_4982.png,0.0,-11.793385,-0.42894796,-8.03587
alexnet_w3_mlp_simclrhn_probe2,1,570,NaN,knife,bicycle,0.90,0570_nse_dnn_0.90_bicycle_10_n03792782_3754.png,n03792782_3754.png,0.0,-5.021084,-0.19691141,-3.411205
alexnet_w3_mlp_simclrhn_probe2,1,571,NaN,elephant,bicycle,0.00,0571_nse_dnn_0.00_bicycle_10_n03792782_1418.png,n03792782_1418.png,0.0,0.09398927,0.124877006,-0.02184093
alexnet_w3_mlp_simclrhn_probe2,1,572,NaN,chair,truck,0.03,0572_nse_dnn_0.03_truck_10_n03796401_26359.png,n03796401_26359.png,0.0,-0.55438596,-0.054790813,-0.3532671
alexnet_w3_mlp_simclrhn_probe2,1,573,NaN,oven,car,0.05,0573_nse_dnn_0.05_car_10_n03100240_9149.png,n03100240_9149.png,0.0,-1.841653,0.2826139,-1.5020835
alexnet_w3_mlp_simclrhn_probe2,1,574,NaN,knife,bird,0.90,0574_nse_dnn_0.90_bird_10_n01534433_14677.png,n01534433_14677.png,0.0,-4.3578115,-0.46969467,-2.7493138
alexnet_w3_mlp_simclrhn_probe2,1,575,NaN,car,car,0.03,0575_nse_dnn_0.03_car_10_n03100240_8683.png,n03100240_8683.png,1.0,1.017035,0.21459094,0.5674137
alexnet_w3_mlp_simclrhn_probe2,1,576,NaN,bicycle,chair,0.03,0576_nse_dnn_0.03_chair_10_n03376595_524.png,n03376595_524.png,0.0,0.33630353,1.503185,-0.8251099
alexnet_w3_mlp_simclrhn_probe2,1,577,NaN,knife,dog,0.20,0577_nse_dnn_0.20_dog_10_n02094433_6402.png,n02094433_6402.png,0.0,-1.7206242,-0.3104971,-0.9971105
alexnet_w3_mlp_simclrhn_probe2,1,578,NaN,knife,car,0.20,0578_nse_dnn_0.20_car_10_n03100240_16803.png,n03100240_16803.png,0.0,-4.9351997,-0.8223164,-2.908248
alexnet_w3_mlp_simclrhn_probe2,1,579,NaN,knife,bicycle,0.20,0579_nse_dnn_0.20_bicycle_10_n03792782_15114.png,n03792782_15114.png,0.0,-1.7521567,-0.36704224,-0.9794238
alexnet_w3_mlp_simclrhn_probe2,1,580,NaN,knife,chair,0.60,0580_nse_dnn_0.60_chair_10_n04429376_21362.png,n04429376_21362.png,0.0,-3.5310688,-0.13915434,-2.3984456
alexnet_w3_mlp_simclrhn_probe2,1,581,NaN,knife,keyboard,0.90,0581_nse_dnn_0.90_keyboard_10_n04505470_3499.png,n04505470_3499.png,0.0,-5.55569,-0.38397703,-3.6569533
alexnet_w3_mlp_simclrhn_probe2,1,582,NaN,knife,boat,0.90,0582_nse_dnn_0.90_boat_10_n04273569_26577.png,n04273569_26577.png,0.0,-5.8947334,-0.41266185,-3.87641
alexnet_w3_mlp_simclrhn_probe2,1,583,NaN,knife,boat,0.10,0583_nse_dnn_0.10_boat_10_n04273569_27325.png,n04273569_27325.png,0.0,-1.0778158,-0.48549598,-0.41883335
alexnet_w3_mlp_simclrhn_probe2,1,584,NaN,oven,keyboard,0.20,0584_nse_dnn_0.20_keyboard_10_n04505470_9570.png,n04505470_9570.png,0.0,-1.1378536,-0.62196815,-0.36478612
alexnet_w3_mlp_simclrhn_probe2,1,585,NaN,knife,bicycle,0.90,0585_nse_dnn_0.90_bicycle_10_n03792782_4067.png,n03792782_4067.png,0.0,-5.0875354,-0.51841855,-3.2308533
alexnet_w3_mlp_simclrhn_probe2,1,586,NaN,bear,bear,0.10,0586_nse_dnn_0.10_bear_10_n02132136_282.png,n02132136_282.png,1.0,-0.61663556,-0.7321516,0.0816822
alexnet_w3_mlp_simclrhn_probe2,1,587,NaN,knife,boat,0.03,0587_nse_dnn_0.03_boat_10_n04612504_30424.png,n04612504_30424.png,0.0,-0.29609087,0.19270095,-0.34562802
alexnet_w3_mlp_simclrhn_probe2,1,588,NaN,knife,knife,0.90,0588_nse_dnn_0.90_knife_10_n03041632_4879.png,n03041632_4879.png,1.0,-0.21907228,-3.0367494,1.9923986
alexnet_w3_mlp_simclrhn_probe2,1,589,NaN,elephant,elephant,0.05,0589_nse_dnn_0.05_elephant_10_n02504458_7634.png,n02504458_7634.png,1.0,0.04932391,-0.03151206,0.057159662
alexnet_w3_mlp_simclrhn_probe2,1,590,NaN,knife,cat,0.35,0590_nse_dnn_0.35_cat_10_n02123597_7615.png,n02123597_7615.png,0.0,-2.470672,-0.20079118,-1.6050481
alexnet_w3_mlp_simclrhn_probe2,1,591,NaN,knife,bicycle,0.35,0591_nse_dnn_0.35_bicycle_10_n03792782_20387.png,n03792782_20387.png,0.0,-2.4765363,-0.48457608,-1.4085286
alexnet_w3_mlp_simclrhn_probe2,1,592,NaN,clock,clock,0.10,0592_nse_dnn_0.10_clock_10_n02708093_527.png,n02708093_527.png,1.0,0.42174545,-1.5074729,1.3641634
alexnet_w3_mlp_simclrhn_probe2,1,593,NaN,elephant,elephant,0.05,0593_nse_dnn_0.05_elephant_10_n02504013_5501.png,n02504013_5501.png,1.0,0.4095801,-0.16217925,0.4042949
alexnet_w3_mlp_simclrhn_probe2,1,594,NaN,knife,dog,0.35,0594_nse_dnn_0.35_dog_10_n02106166_2273.png,n02106166_2273.png,0.0,-2.530534,-0.210031,-1.6408434
alexnet_w3_mlp_simclrhn_probe2,1,595,NaN,boat,boat,0.03,0595_nse_dnn_0.03_boat_10_n03662601_34009.png,n03662601_34009.png,1.0,0.63935006,0.13513757,0.3565321
alexnet_w3_mlp_simclrhn_probe2,1,596,NaN,knife,boat,0.35,0596_nse_dnn_0.35_boat_10_n04273569_12536.png,n04273569_12536.png,0.0,-2.983252,-0.06308457,-2.0648704
alexnet_w3_mlp_simclrhn_probe2,1,597,NaN,elephant,elephant,0.00,0597_nse_dnn_0.00_elephant_10_n02504013_8534.png,n02504013_8534.png,1.0,0.99788076,-0.36399245,0.96298975
alexnet_w3_mlp_simclrhn_probe2,1,598,NaN,knife,clock,0.35,0598_nse_dnn_0.35_clock_10_n04548280_156.png,n04548280_156.png,0.0,-2.6027982,-0.49262393,-1.4921185
alexnet_w3_mlp_simclrhn_probe2,1,599,NaN,knife,bicycle,0.90,0599_nse_dnn_0.90_bicycle_10_n02835271_542.png,n02835271_542.png,0.0,-4.605466,-0.3545606,-3.0058439
alexnet_w3_mlp_simclrhn_probe2,1,600,NaN,oven,bear,0.00,0600_nse_dnn_0.00_bear_10_n02133161_5434.png,n02133161_5434.png,0.0,-0.9964653,-0.34560627,-0.46022686
alexnet_w3_mlp_simclrhn_probe2,1,601,NaN,knife,truck,0.60,0601_nse_dnn_0.60_truck_10_n04467665_63829.png,n04467665_63829.png,0.0,-7.0434437,-0.25990957,-4.796683
alexnet_w3_mlp_simclrhn_probe2,1,602,NaN,knife,oven,0.90,0602_nse_dnn_0.90_oven_10_n04111531_10220.png,n04111531_10220.png,0.0,-7.9186306,-0.093163475,-5.533441
alexnet_w3_mlp_simclrhn_probe2,1,603,NaN,knife,boat,0.60,0603_nse_dnn_0.60_boat_10_n04273569_28074.png,n04273569_28074.png,0.0,-4.851363,-0.3654151,-3.1720443
alexnet_w3_mlp_simclrhn_probe2,1,604,NaN,cat,cat,0.00,0604_nse_dnn_0.00_cat_10_n02123394_2482.png,n02123394_2482.png,1.0,0.4005809,-0.7936964,0.8444816
alexnet_w3_mlp_simclrhn_probe2,1,605,NaN,knife,boat,0.90,0605_nse_dnn_0.90_boat_10_n03662601_20381.png,n03662601_20381.png,0.0,-5.6522636,-0.10816382,-3.9202707
alexnet_w3_mlp_simclrhn_probe2,1,606,NaN,knife,bird,0.35,0606_nse_dnn_0.35_bird_10_n01817953_12511.png,n01817953_12511.png,0.0,-2.1965022,-0.4228187,-1.2541837
alexnet_w3_mlp_simclrhn_probe2,1,607,NaN,cat,cat,0.05,0607_nse_dnn_0.05_cat_10_n02125311_5346.png,n02125311_5346.png,1.0,0.2616149,-0.45616013,0.50754356
alexnet_w3_mlp_simclrhn_probe2,1,608,NaN,elephant,oven,0.00,0608_nse_dnn_0.00_oven_10_n04111531_14758.png,n04111531_14758.png,0.0,-1.5464063,-0.21705526,-0.9399931
alexnet_w3_mlp_simclrhn_probe2,1,609,NaN,elephant,bird,0.10,0609_nse_dnn_0.10_bird_10_n02002556_1398.png,n02002556_1398.png,0.0,-0.83417696,-0.11824907,-0.5062375
alexnet_w3_mlp_simclrhn_probe2,1,610,NaN,knife,knife,0.05,0610_nse_dnn_0.05_knife_10_n03041632_99912.png,n03041632_99912.png,1.0,0.19351104,-0.54202545,0.5201028
alexnet_w3_mlp_simclrhn_probe2,1,611,NaN,knife,airplane,0.05,0611_nse_dnn_0.05_airplane_10_n02690373_1075.png,n02690373_1075.png,0.0,-0.83897215,0.18005878,-0.7205637
alexnet_w3_mlp_simclrhn_probe2,1,612,NaN,knife,cat,0.35,0612_nse_dnn_0.35_cat_10_n02123045_10834.png,n02123045_10834.png,0.0,-2.0317786,-0.5284462,-1.0630165
alexnet_w3_mlp_simclrhn_probe2,1,613,NaN,knife,car,0.60,0613_nse_dnn_0.60_car_10_n02814533_41478.png,n02814533_41478.png,0.0,-6.7623725,-0.110035084,-4.703913
alexnet_w3_mlp_simclrhn_probe2,1,614,NaN,cat,cat,0.00,0614_nse_dnn_0.00_cat_10_n02123394_1602.png,n02123394_1602.png,1.0,0.6667869,-0.19370002,0.60845613
alexnet_w3_mlp_simclrhn_probe2,1,615,NaN,knife,knife,0.03,0615_nse_dnn_0.03_knife_10_n03041632_21017.png,n03041632_21017.png,1.0,-0.020317107,-0.7943206,0.54730314
alexnet_w3_mlp_simclrhn_probe2,1,616,NaN,bear,bear,0.03,0616_nse_dnn_0.03_bear_10_n02134084_572.png,n02134084_572.png,1.0,0.83686054,0.3665323,0.33257228
alexnet_w3_mlp_simclrhn_probe2,1,617,NaN,keyboard,clock,0.05,0617_nse_dnn_0.05_clock_10_n03196217_3987.png,n03196217_3987.png,0.0,-0.36692825,1.7833731,-1.5204928
