subj,session,trial,rt,object_response,category,condition,imagename,filename,is_correct,targ_act,max_nontarg_act,decision_margin
convnext_large,1,1,NaN,elephant,elephant,0.03,0001_nse_dnn_0.03_elephant_10_n02504458_7209.png,n02504458_7209.png,1.0,4.7518024,1.6769097,2.1742775
convnext_large,1,2,NaN,clock,knife,0.90,0002_nse_dnn_0.90_knife_10_n03041632_82878.png,n03041632_82878.png,0.0,-0.87457633,4.5554314,-3.8395956
convnext_large,1,3,NaN,clock,clock,0.00,0003_nse_dnn_0.00_clock_10_n03196217_9231.png,n03196217_9231.png,1.0,5.6266522,1.3845959,2.9995868
convnext_large,1,4,NaN,oven,oven,0.00,0004_nse_dnn_0.00_oven_10_n04111531_11026.png,n04111531_11026.png,1.0,6.9331446,1.7517802,3.663778
convnext_large,1,5,NaN,clock,clock,0.10,0005_nse_dnn_0.10_clock_10_n04548280_1114.png,n04548280_1114.png,1.0,4.9141326,0.29832503,3.2638688
convnext_large,1,6,NaN,clock,clock,0.03,0006_nse_dnn_0.03_clock_10_n02708093_8100.png,n02708093_8100.png,1.0,3.2321503,0.60094553,1.8605428
convnext_large,1,7,NaN,clock,clock,0.00,0007_nse_dnn_0.00_clock_10_n02708093_3591.png,n02708093_3591.png,1.0,5.3128314,1.0309818,3.0277252
convnext_large,1,8,NaN,chair,chair,0.00,0008_nse_dnn_0.00_chair_10_n03376595_16202.png,n03376595_16202.png,1.0,2.1914523,1.0425237,0.8124152
convnext_large,1,9,NaN,clock,bottle,0.60,0009_nse_dnn_0.60_bottle_10_n02823428_3478.png,n02823428_3478.png,0.0,0.31750387,4.46028,-2.929385
convnext_large,1,10,NaN,dog,dog,0.10,0010_nse_dnn_0.10_dog_10_n02087394_28673.png,n02087394_28673.png,1.0,0.75789255,0.2672439,0.346941
convnext_large,1,11,NaN,chair,chair,0.10,0011_nse_dnn_0.10_chair_10_n04099969_1690.png,n04099969_1690.png,1.0,4.076949,2.3292701,1.2357957
convnext_large,1,12,NaN,cat,cat,0.03,0012_nse_dnn_0.03_cat_10_n02125311_1736.png,n02125311_1736.png,1.0,2.5752223,0.5119901,1.4589255
convnext_large,1,13,NaN,clock,bear,0.90,0013_nse_dnn_0.90_bear_10_n02133161_1169.png,n02133161_1169.png,0.0,-1.0658369,4.5408425,-3.9645212
convnext_large,1,14,NaN,clock,bear,0.90,0014_nse_dnn_0.90_bear_10_n02133161_8835.png,n02133161_8835.png,0.0,-1.0650271,4.4963107,-3.9324598
convnext_large,1,15,NaN,car,car,0.20,0015_nse_dnn_0.20_car_10_n02814533_5430.png,n02814533_5430.png,1.0,4.814382,1.629714,2.2519004
convnext_large,1,16,NaN,clock,bear,0.60,0016_nse_dnn_0.60_bear_10_n02134418_3767.png,n02134418_3767.png,0.0,-1.0204462,4.533207,-3.927026
convnext_large,1,17,NaN,clock,knife,0.20,0017_nse_dnn_0.20_knife_10_n03041632_10540.png,n03041632_10540.png,0.0,0.8930073,1.4466203,-0.39146355
convnext_large,1,18,NaN,clock,bicycle,0.20,0018_nse_dnn_0.20_bicycle_10_n02835271_1075.png,n02835271_1075.png,0.0,3.2863417,3.3182418,-0.022556825
convnext_large,1,19,NaN,bear,bear,0.00,0019_nse_dnn_0.00_bear_10_n02134084_3888.png,n02134084_3888.png,1.0,2.6394665,0.7569624,1.3311315
convnext_large,1,20,NaN,dog,dog,0.00,0020_nse_dnn_0.00_dog_10_n02085936_9009.png,n02085936_9009.png,1.0,0.42908376,0.4071384,0.015517712
convnext_large,1,21,NaN,knife,knife,0.03,0021_nse_dnn_0.03_knife_10_n03041632_12651.png,n03041632_12651.png,1.0,7.351956,1.2175825,4.3376575
convnext_large,1,22,NaN,clock,bicycle,0.35,0022_nse_dnn_0.35_bicycle_10_n03792782_565.png,n03792782_565.png,0.0,-1.3165703,4.086439,-3.8205047
convnext_large,1,23,NaN,clock,boat,0.20,0023_nse_dnn_0.20_boat_10_n04612504_40672.png,n04612504_40672.png,0.0,0.24169905,2.71124,-1.7462293
convnext_large,1,24,NaN,keyboard,dog,0.05,0024_nse_dnn_0.05_dog_10_n02098105_146.png,n02098105_146.png,0.0,0.9319887,1.5841478,-0.46114612
convnext_large,1,25,NaN,clock,clock,0.03,0025_nse_dnn_0.03_clock_10_n02708093_5944.png,n02708093_5944.png,1.0,4.2480335,0.44923988,2.6861527
convnext_large,1,26,NaN,cat,cat,0.03,0026_nse_dnn_0.03_cat_10_n02124075_14021.png,n02124075_14021.png,1.0,2.4375408,1.1830984,0.8870247
convnext_large,1,27,NaN,bear,bear,0.20,0027_nse_dnn_0.20_bear_10_n02133161_7184.png,n02133161_7184.png,1.0,2.443217,1.4238182,0.7208238
convnext_large,1,28,NaN,bottle,bottle,0.00,0028_nse_dnn_0.00_bottle_10_n03937543_9745.png,n03937543_9745.png,1.0,1.268813,0.7431984,0.37166566
convnext_large,1,29,NaN,clock,airplane,0.60,0029_nse_dnn_0.60_airplane_10_n02690373_9605.png,n02690373_9605.png,0.0,-0.3553176,4.349559,-3.3268502
convnext_large,1,30,NaN,cat,cat,0.20,0030_nse_dnn_0.20_cat_10_n02123045_7167.png,n02123045_7167.png,1.0,1.8175081,0.6204974,0.84641445
convnext_large,1,31,NaN,airplane,airplane,0.05,0031_nse_dnn_0.05_airplane_10_n02690373_4706.png,n02690373_4706.png,1.0,8.249012,0.2932127,5.6255994
convnext_large,1,32,NaN,clock,knife,0.35,0032_nse_dnn_0.35_knife_10_n03041632_45270.png,n03041632_45270.png,0.0,0.27332506,2.3518667,-1.469751
convnext_large,1,33,NaN,clock,dog,0.35,0033_nse_dnn_0.35_dog_10_n02105855_9326.png,n02105855_9326.png,0.0,-0.69223034,2.891545,-2.534112
convnext_large,1,34,NaN,bear,bear,0.10,0034_nse_dnn_0.10_bear_10_n02134418_4349.png,n02134418_4349.png,1.0,3.036273,0.9364281,1.4848146
convnext_large,1,35,NaN,cat,cat,0.00,0035_nse_dnn_0.00_cat_10_n02123159_469.png,n02123159_469.png,1.0,4.057573,0.4530626,2.5487738
convnext_large,1,36,NaN,clock,truck,0.90,0036_nse_dnn_0.90_truck_10_n03417042_5004.png,n03417042_5004.png,0.0,-1.2802922,4.4805655,-4.0735416
convnext_large,1,37,NaN,airplane,bird,0.10,0037_nse_dnn_0.10_bird_10_n02051845_6333.png,n02051845_6333.png,0.0,0.8749149,2.6367803,-1.245827
convnext_large,1,38,NaN,clock,clock,0.90,0038_nse_dnn_0.90_clock_10_n03196217_12701.png,n03196217_12701.png,1.0,4.6301603,0.7099976,2.7719736
convnext_large,1,39,NaN,clock,chair,0.60,0039_nse_dnn_0.60_chair_10_n03376595_12341.png,n03376595_12341.png,0.0,0.45932472,4.3726068,-2.7671082
convnext_large,1,40,NaN,bicycle,bicycle,0.10,0040_nse_dnn_0.10_bicycle_10_n03792782_66837.png,n03792782_66837.png,1.0,3.2097635,0.46122628,1.9435093
convnext_large,1,41,NaN,bicycle,bicycle,0.05,0041_nse_dnn_0.05_bicycle_10_n02835271_20177.png,n02835271_20177.png,1.0,5.3422103,1.120625,2.9851117
convnext_large,1,42,NaN,knife,knife,0.00,0042_nse_dnn_0.00_knife_10_n03041632_22330.png,n03041632_22330.png,1.0,2.8991542,1.0643872,1.2973762
convnext_large,1,43,NaN,clock,cat,0.60,0043_nse_dnn_0.60_cat_10_n02123045_5913.png,n02123045_5913.png,0.0,-1.0752581,4.4533496,-3.909316
convnext_large,1,44,NaN,elephant,elephant,0.20,0044_nse_dnn_0.20_elephant_10_n02504013_2464.png,n02504013_2464.png,1.0,1.1963221,0.54981756,0.45714775
convnext_large,1,45,NaN,clock,knife,0.90,0045_nse_dnn_0.90_knife_10_n03041632_99460.png,n03041632_99460.png,0.0,-0.8642386,4.537308,-3.8194706
convnext_large,1,46,NaN,dog,dog,0.00,0046_nse_dnn_0.00_dog_10_n02099601_8686.png,n02099601_8686.png,1.0,0.66809136,0.54505444,0.08700024
convnext_large,1,47,NaN,clock,chair,0.90,0047_nse_dnn_0.90_chair_10_n02791124_5400.png,n02791124_5400.png,0.0,0.3481359,4.580934,-2.9930403
convnext_large,1,48,NaN,chair,chair,0.05,0048_nse_dnn_0.05_chair_10_n03376595_830.png,n03376595_830.png,1.0,3.3522851,2.4425232,0.6432988
convnext_large,1,49,NaN,clock,cat,0.90,0049_nse_dnn_0.90_cat_10_n02124075_6024.png,n02124075_6024.png,0.0,-1.0375575,4.5375214,-3.942176
convnext_large,1,50,NaN,bicycle,bicycle,0.10,0050_nse_dnn_0.10_bicycle_10_n03792782_9004.png,n03792782_9004.png,1.0,5.4621,0.32512268,3.6323915
convnext_large,1,51,NaN,clock,keyboard,0.60,0051_nse_dnn_0.60_keyboard_10_n03085013_24088.png,n03085013_24088.png,0.0,0.8206589,4.3261313,-2.4787433
convnext_large,1,52,NaN,cat,cat,0.10,0052_nse_dnn_0.10_cat_10_n02125311_33778.png,n02125311_33778.png,1.0,1.6710588,0.7001595,0.68652946
convnext_large,1,53,NaN,bicycle,bicycle,0.00,0053_nse_dnn_0.00_bicycle_10_n03792782_7092.png,n03792782_7092.png,1.0,6.804284,0.4290266,4.507988
convnext_large,1,54,NaN,clock,airplane,0.35,0054_nse_dnn_0.35_airplane_10_n02690373_5724.png,n02690373_5724.png,0.0,-0.286353,4.0622888,-3.0749543
convnext_large,1,55,NaN,clock,bear,0.60,0055_nse_dnn_0.60_bear_10_n02133161_5637.png,n02133161_5637.png,0.0,-1.0950599,4.47405,-3.9379554
convnext_large,1,56,NaN,bear,bear,0.10,0056_nse_dnn_0.10_bear_10_n02132136_5365.png,n02132136_5365.png,1.0,1.4065756,1.3648695,0.029490655
convnext_large,1,57,NaN,clock,car,0.35,0057_nse_dnn_0.35_car_10_n03100240_1702.png,n03100240_1702.png,0.0,-0.88348085,3.5630023,-3.1441383
convnext_large,1,58,NaN,clock,oven,0.35,0058_nse_dnn_0.35_oven_10_n04111531_2677.png,n04111531_2677.png,0.0,-0.76796556,3.1749933,-2.788093
convnext_large,1,59,NaN,oven,oven,0.05,0059_nse_dnn_0.05_oven_10_n04111531_16583.png,n04111531_16583.png,1.0,4.9630256,3.5474086,1.0009924
convnext_large,1,60,NaN,chair,chair,0.10,0060_nse_dnn_0.10_chair_10_n04099969_6266.png,n04099969_6266.png,1.0,2.8126678,0.85911006,1.3813739
convnext_large,1,61,NaN,clock,oven,0.60,0061_nse_dnn_0.60_oven_10_n04111531_6695.png,n04111531_6695.png,0.0,-0.83089036,4.6021314,-3.8417265
convnext_large,1,62,NaN,car,car,0.10,0062_nse_dnn_0.10_car_10_n03100240_1438.png,n03100240_1438.png,1.0,4.8423867,0.80667233,2.8536808
convnext_large,1,63,NaN,keyboard,keyboard,0.20,0063_nse_dnn_0.20_keyboard_10_n04505470_4684.png,n04505470_4684.png,1.0,4.368389,4.1625214,0.1455705
convnext_large,1,64,NaN,chair,chair,0.00,0064_nse_dnn_0.00_chair_10_n04099969_8021.png,n04099969_8021.png,1.0,3.7704892,0.20963795,2.5179021
convnext_large,1,65,NaN,car,car,0.20,0065_nse_dnn_0.20_car_10_n04285008_7139.png,n04285008_7139.png,1.0,4.677675,1.9336702,1.9403044
convnext_large,1,66,NaN,truck,truck,0.03,0066_nse_dnn_0.03_truck_10_n03796401_9207.png,n03796401_9207.png,1.0,2.6971445,1.2862825,0.99763006
convnext_large,1,67,NaN,bottle,bottle,0.05,0067_nse_dnn_0.05_bottle_10_n04560804_3651.png,n04560804_3651.png,1.0,0.67283285,0.53710544,0.09597377
convnext_large,1,68,NaN,clock,chair,0.60,0068_nse_dnn_0.60_chair_10_n03376595_3010.png,n03376595_3010.png,0.0,0.3801926,4.471088,-2.8926997
convnext_large,1,69,NaN,clock,bird,0.90,0069_nse_dnn_0.90_bird_10_n01514859_1951.png,n01514859_1951.png,0.0,-0.2176031,4.5427227,-3.3660588
convnext_large,1,70,NaN,car,car,0.10,0070_nse_dnn_0.10_car_10_n03100240_4594.png,n03100240_4594.png,1.0,5.4844127,0.52365166,3.507788
convnext_large,1,71,NaN,clock,clock,0.35,0071_nse_dnn_0.35_clock_10_n03196217_3333.png,n03196217_3333.png,1.0,3.9428728,1.6358883,1.6312844
convnext_large,1,72,NaN,car,car,0.10,0072_nse_dnn_0.10_car_10_n02814533_90798.png,n02814533_90798.png,1.0,2.6518838,1.0910239,1.1036947
convnext_large,1,73,NaN,keyboard,keyboard,0.00,0073_nse_dnn_0.00_keyboard_10_n03085013_19547.png,n03085013_19547.png,1.0,6.981788,0.3837457,4.6655207
convnext_large,1,74,NaN,keyboard,bear,0.05,0074_nse_dnn_0.05_bear_10_n02133161_545.png,n02133161_545.png,0.0,0.99147344,1.0252352,-0.023873156
convnext_large,1,75,NaN,clock,oven,0.90,0075_nse_dnn_0.90_oven_10_n04111531_6489.png,n04111531_6489.png,0.0,-0.7593239,4.452769,-3.6855063
convnext_large,1,76,NaN,clock,dog,0.90,0076_nse_dnn_0.90_dog_10_n02105056_15299.png,n02105056_15299.png,0.0,-1.2035886,4.458861,-4.0039563
convnext_large,1,77,NaN,keyboard,knife,0.05,0077_nse_dnn_0.05_knife_10_n03041632_33255.png,n03041632_33255.png,0.0,0.69701564,1.4263045,-0.5156851
convnext_large,1,78,NaN,clock,cat,0.20,0078_nse_dnn_0.20_cat_10_n02123394_5895.png,n02123394_5895.png,0.0,0.36683643,2.9075463,-1.7965533
convnext_large,1,79,NaN,bottle,bottle,0.03,0079_nse_dnn_0.03_bottle_10_n03983396_11654.png,n03983396_11654.png,1.0,3.8559551,0.75223583,2.194661
convnext_large,1,80,NaN,airplane,airplane,0.03,0080_nse_dnn_0.03_airplane_10_n02690373_3860.png,n02690373_3860.png,1.0,8.458418,0.6925487,5.4912987
convnext_large,1,81,NaN,oven,oven,0.03,0081_nse_dnn_0.03_oven_10_n04111531_6415.png,n04111531_6415.png,1.0,4.163561,2.7218895,1.0194156
convnext_large,1,82,NaN,clock,knife,0.60,0082_nse_dnn_0.60_knife_10_n03041632_39342.png,n03041632_39342.png,0.0,-0.8259479,4.435471,-3.720385
convnext_large,1,83,NaN,clock,bear,0.60,0083_nse_dnn_0.60_bear_10_n02133161_4882.png,n02133161_4882.png,0.0,-1.0748316,4.529691,-3.962996
convnext_large,1,84,NaN,bottle,bottle,0.00,0084_nse_dnn_0.00_bottle_10_n04591713_7474.png,n04591713_7474.png,1.0,4.7178564,1.0249354,2.6112897
convnext_large,1,85,NaN,clock,bear,0.20,0085_nse_dnn_0.20_bear_10_n02132136_17615.png,n02132136_17615.png,0.0,0.87044066,1.4584475,-0.41578358
convnext_large,1,86,NaN,clock,boat,0.60,0086_nse_dnn_0.60_boat_10_n03344393_382.png,n03344393_382.png,0.0,-1.4476674,4.391907,-4.129203
convnext_large,1,87,NaN,truck,truck,0.00,0087_nse_dnn_0.00_truck_10_n03796401_27811.png,n03796401_27811.png,1.0,2.1901345,0.58088136,1.1379138
convnext_large,1,88,NaN,clock,keyboard,0.60,0088_nse_dnn_0.60_keyboard_10_n04505470_2603.png,n04505470_2603.png,0.0,0.73750806,4.45858,-2.6311953
convnext_large,1,89,NaN,clock,boat,0.35,0089_nse_dnn_0.35_boat_10_n03662601_16418.png,n03662601_16418.png,0.0,-1.3884109,3.6955616,-3.5949116
convnext_large,1,90,NaN,clock,bear,0.35,0090_nse_dnn_0.35_bear_10_n02132136_2760.png,n02132136_2760.png,0.0,-0.9726931,4.192553,-3.6523805
convnext_large,1,91,NaN,bicycle,bicycle,0.05,0091_nse_dnn_0.05_bicycle_10_n02835271_10271.png,n02835271_10271.png,1.0,5.3911247,1.3888791,2.8300152
convnext_large,1,92,NaN,bear,bear,0.10,0092_nse_dnn_0.10_bear_10_n02134084_9127.png,n02134084_9127.png,1.0,1.4790834,0.92088604,0.39470515
convnext_large,1,93,NaN,clock,bird,0.20,0093_nse_dnn_0.20_bird_10_n01797886_551.png,n01797886_551.png,0.0,-0.75188315,2.6278174,-2.3898094
convnext_large,1,94,NaN,truck,truck,0.10,0094_nse_dnn_0.10_truck_10_n03417042_9559.png,n03417042_9559.png,1.0,3.8922806,1.9249663,1.3911012
convnext_large,1,95,NaN,clock,clock,0.90,0095_nse_dnn_0.90_clock_10_n02708093_3114.png,n02708093_3114.png,1.0,4.555484,0.7744099,2.673623
convnext_large,1,96,NaN,bicycle,bicycle,0.05,0096_nse_dnn_0.05_bicycle_10_n03792782_122.png,n03792782_122.png,1.0,5.377079,0.76823664,3.2589438
convnext_large,1,97,NaN,clock,oven,0.35,0097_nse_dnn_0.35_oven_10_n04111531_3702.png,n04111531_3702.png,0.0,-1.0156317,3.4890893,-3.1853187
convnext_large,1,98,NaN,clock,car,0.90,0098_nse_dnn_0.90_car_10_n02814533_93476.png,n02814533_93476.png,0.0,-1.2544338,4.43088,-4.020124
convnext_large,1,99,NaN,clock,cat,0.35,0099_nse_dnn_0.35_cat_10_n02123045_8491.png,n02123045_8491.png,0.0,-0.798466,3.3869922,-2.9595659
convnext_large,1,100,NaN,clock,chair,0.35,0100_nse_dnn_0.35_chair_10_n02791124_13469.png,n02791124_13469.png,0.0,0.08404344,3.122516,-2.1485245
convnext_large,1,101,NaN,clock,dog,0.60,0101_nse_dnn_0.60_dog_10_n02096294_5451.png,n02096294_5451.png,0.0,-1.1531172,4.520579,-4.011909
convnext_large,1,102,NaN,clock,bicycle,0.35,0102_nse_dnn_0.35_bicycle_10_n03792782_44296.png,n03792782_44296.png,0.0,-1.1955792,3.1208878,-3.052203
convnext_large,1,103,NaN,clock,cat,0.90,0103_nse_dnn_0.90_cat_10_n02123597_7138.png,n02123597_7138.png,0.0,-1.0290176,4.5055203,-3.9135094
convnext_large,1,104,NaN,clock,bottle,0.35,0104_nse_dnn_0.35_bottle_10_n04560804_12736.png,n04560804_12736.png,0.0,0.2613081,4.113829,-2.7241437
convnext_large,1,105,NaN,clock,oven,0.60,0105_nse_dnn_0.60_oven_10_n04111531_22797.png,n04111531_22797.png,0.0,-0.7823788,4.4377365,-3.6911788
convnext_large,1,106,NaN,bird,bird,0.10,0106_nse_dnn_0.10_bird_10_n02007558_7446.png,n02007558_7446.png,1.0,1.003206,0.79913545,0.14429969
convnext_large,1,107,NaN,clock,boat,0.60,0107_nse_dnn_0.60_boat_10_n03662601_16441.png,n03662601_16441.png,0.0,-1.3765166,4.500294,-4.155533
convnext_large,1,108,NaN,clock,oven,0.60,0108_nse_dnn_0.60_oven_10_n04111531_22386.png,n04111531_22386.png,0.0,-0.9241132,4.597342,-3.9042585
convnext_large,1,109,NaN,airplane,airplane,0.00,0109_nse_dnn_0.00_airplane_10_n02690373_1381.png,n02690373_1381.png,1.0,8.230881,0.33725184,5.581639
convnext_large,1,110,NaN,clock,keyboard,0.20,0110_nse_dnn_0.20_keyboard_10_n03085013_20779.png,n03085013_20779.png,0.0,0.55228037,1.6969515,-0.8094048
convnext_large,1,111,NaN,clock,dog,0.90,0111_nse_dnn_0.90_dog_10_n02095570_9488.png,n02095570_9488.png,0.0,-1.1933569,4.464484,-4.000698
convnext_large,1,112,NaN,dog,dog,0.03,0112_nse_dnn_0.03_dog_10_n02107312_3262.png,n02107312_3262.png,1.0,0.25414443,0.20084417,0.037688978
convnext_large,1,113,NaN,oven,oven,0.03,0113_nse_dnn_0.03_oven_10_n04111531_10681.png,n04111531_10681.png,1.0,5.40745,1.6329489,2.6689756
convnext_large,1,114,NaN,clock,knife,0.90,0114_nse_dnn_0.90_knife_10_n03041632_29285.png,n03041632_29285.png,0.0,-0.8500734,4.496881,-3.7808678
convnext_large,1,115,NaN,clock,elephant,0.60,0115_nse_dnn_0.60_elephant_10_n02504458_4776.png,n02504458_4776.png,0.0,-0.840724,4.315492,-3.6459954
convnext_large,1,116,NaN,boat,boat,0.10,0116_nse_dnn_0.10_boat_10_n04273569_11940.png,n04273569_11940.png,1.0,1.9517038,1.2221024,0.5159061
convnext_large,1,117,NaN,cat,cat,0.20,0117_nse_dnn_0.20_cat_10_n02123159_1413.png,n02123159_1413.png,1.0,3.772911,1.2184235,1.8062956
convnext_large,1,118,NaN,clock,airplane,0.60,0118_nse_dnn_0.60_airplane_10_n02690373_6674.png,n02690373_6674.png,0.0,-0.19345814,4.611795,-3.3978271
convnext_large,1,119,NaN,clock,clock,0.35,0119_nse_dnn_0.35_clock_10_n04548280_5088.png,n04548280_5088.png,1.0,4.0586805,0.7808422,2.3177817
convnext_large,1,120,NaN,clock,clock,0.05,0120_nse_dnn_0.05_clock_10_n02708093_6624.png,n02708093_6624.png,1.0,2.6503296,0.84238523,1.2784097
convnext_large,1,121,NaN,clock,bicycle,0.20,0121_nse_dnn_0.20_bicycle_10_n03792782_29108.png,n03792782_29108.png,0.0,1.053616,1.8177465,-0.5403218
convnext_large,1,122,NaN,clock,clock,0.20,0122_nse_dnn_0.20_clock_10_n04548280_8649.png,n04548280_8649.png,1.0,5.108011,1.8530804,2.3015835
convnext_large,1,123,NaN,knife,knife,0.05,0123_nse_dnn_0.05_knife_10_n03041632_737.png,n03041632_737.png,1.0,5.958656,1.4466217,3.1904902
convnext_large,1,124,NaN,clock,clock,0.10,0124_nse_dnn_0.10_clock_10_n04548280_8668.png,n04548280_8668.png,1.0,5.4565177,0.5476336,3.4711053
convnext_large,1,125,NaN,bear,bird,0.03,0125_nse_dnn_0.03_bird_10_n01558993_34885.png,n01558993_34885.png,0.0,0.32777593,1.4221163,-0.77381545
convnext_large,1,126,NaN,clock,truck,0.60,0126_nse_dnn_0.60_truck_10_n04467665_37833.png,n04467665_37833.png,0.0,-1.218566,4.412197,-3.9815507
convnext_large,1,127,NaN,boat,boat,0.05,0127_nse_dnn_0.05_boat_10_n03662601_5176.png,n03662601_5176.png,1.0,3.127846,1.9585752,0.8267993
convnext_large,1,128,NaN,chair,chair,0.00,0128_nse_dnn_0.00_chair_10_n03376595_9139.png,n03376595_9139.png,1.0,2.431271,0.44330537,1.405704
convnext_large,1,129,NaN,clock,oven,0.90,0129_nse_dnn_0.90_oven_10_n04111531_6211.png,n04111531_6211.png,0.0,-0.79648376,4.4360375,-3.6999512
convnext_large,1,130,NaN,boat,boat,0.00,0130_nse_dnn_0.00_boat_10_n04273569_11427.png,n04273569_11427.png,1.0,3.4388175,0.39882296,2.1496007
convnext_large,1,131,NaN,bicycle,bicycle,0.05,0131_nse_dnn_0.05_bicycle_10_n03792782_17198.png,n03792782_17198.png,1.0,5.7352667,0.65729827,3.590666
convnext_large,1,132,NaN,clock,clock,0.00,0132_nse_dnn_0.00_clock_10_n04548280_4560.png,n04548280_4560.png,1.0,4.270186,0.59414274,2.5993552
convnext_large,1,133,NaN,knife,knife,0.03,0133_nse_dnn_0.03_knife_10_n03041632_3781.png,n03041632_3781.png,1.0,6.4418697,0.4074471,4.2669816
convnext_large,1,134,NaN,clock,clock,0.10,0134_nse_dnn_0.10_clock_10_n03196217_958.png,n03196217_958.png,1.0,3.7377808,1.0418047,1.9063431
convnext_large,1,135,NaN,elephant,elephant,0.35,0135_nse_dnn_0.35_elephant_10_n02504458_485.png,n02504458_485.png,1.0,2.1832561,1.6848673,0.35241416
convnext_large,1,136,NaN,clock,clock,0.00,0136_nse_dnn_0.00_clock_10_n02708093_1038.png,n02708093_1038.png,1.0,5.4701715,0.5498702,3.4791787
convnext_large,1,137,NaN,oven,oven,0.03,0137_nse_dnn_0.03_oven_10_n04111531_1723.png,n04111531_1723.png,1.0,8.574195,0.42764032,5.760484
convnext_large,1,138,NaN,airplane,dog,0.03,0138_nse_dnn_0.03_dog_10_n02110806_27169.png,n02110806_27169.png,0.0,0.51142895,1.312983,-0.5667843
convnext_large,1,139,NaN,airplane,airplane,0.00,0139_nse_dnn_0.00_airplane_10_n02690373_12505.png,n02690373_12505.png,1.0,8.446623,0.5958827,5.5513115
convnext_large,1,140,NaN,clock,bird,0.60,0140_nse_dnn_0.60_bird_10_n01828970_454.png,n01828970_454.png,0.0,-0.22822359,4.3965964,-3.2702417
convnext_large,1,141,NaN,keyboard,oven,0.20,0141_nse_dnn_0.20_oven_10_n04111531_15635.png,n04111531_15635.png,0.0,1.321903,2.9282093,-1.1358302
convnext_large,1,142,NaN,car,car,0.00,0142_nse_dnn_0.00_car_10_n04285008_8700.png,n04285008_8700.png,1.0,5.217339,0.5045314,3.3324583
convnext_large,1,143,NaN,keyboard,keyboard,0.05,0143_nse_dnn_0.05_keyboard_10_n04505470_4592.png,n04505470_4592.png,1.0,5.0762587,0.94949055,2.9180658
convnext_large,1,144,NaN,clock,boat,0.20,0144_nse_dnn_0.20_boat_10_n03344393_9560.png,n03344393_9560.png,0.0,-0.028969591,2.6498075,-1.8941814
convnext_large,1,145,NaN,bear,bear,0.00,0145_nse_dnn_0.00_bear_10_n02132136_5138.png,n02132136_5138.png,1.0,3.7885556,0.9001721,2.0423956
convnext_large,1,146,NaN,clock,chair,0.60,0146_nse_dnn_0.60_chair_10_n03376595_591.png,n03376595_591.png,0.0,0.42992443,4.5524697,-2.9150798
convnext_large,1,147,NaN,clock,keyboard,0.90,0147_nse_dnn_0.90_keyboard_10_n03085013_20590.png,n03085013_20590.png,0.0,0.74113494,4.38452,-2.5762625
convnext_large,1,148,NaN,clock,dog,0.35,0148_nse_dnn_0.35_dog_10_n02094258_1224.png,n02094258_1224.png,0.0,-1.0157771,4.117006,-3.6294258
convnext_large,1,149,NaN,clock,clock,0.20,0149_nse_dnn_0.20_clock_10_n03196217_4486.png,n03196217_4486.png,1.0,4.7659593,0.45274448,3.0499034
convnext_large,1,150,NaN,clock,bear,0.20,0150_nse_dnn_0.20_bear_10_n02134084_22150.png,n02134084_22150.png,0.0,0.05201684,1.8160702,-1.247374
convnext_large,1,151,NaN,cat,cat,0.10,0151_nse_dnn_0.10_cat_10_n02123045_3098.png,n02123045_3098.png,1.0,5.1465774,0.8556673,3.0341318
convnext_large,1,152,NaN,bear,bear,0.20,0152_nse_dnn_0.20_bear_10_n02134418_271.png,n02134418_271.png,1.0,3.3939953,1.7570374,1.1575041
convnext_large,1,153,NaN,keyboard,oven,0.05,0153_nse_dnn_0.05_oven_10_n04111531_274.png,n04111531_274.png,0.0,0.4444051,0.9781972,-0.37744805
convnext_large,1,154,NaN,clock,knife,0.35,0154_nse_dnn_0.35_knife_10_n03041632_8563.png,n03041632_8563.png,0.0,-0.19143236,2.5554743,-1.9423565
convnext_large,1,155,NaN,car,car,0.00,0155_nse_dnn_0.00_car_10_n02814533_52389.png,n02814533_52389.png,1.0,4.2331104,0.96899104,2.308081
convnext_large,1,156,NaN,airplane,airplane,0.00,0156_nse_dnn_0.00_airplane_10_n02690373_10455.png,n02690373_10455.png,1.0,8.128809,1.197396,4.901249
convnext_large,1,157,NaN,clock,truck,0.35,0157_nse_dnn_0.35_truck_10_n04467665_4810.png,n04467665_4810.png,0.0,-1.0684532,3.969597,-3.5624394
convnext_large,1,158,NaN,knife,knife,0.10,0158_nse_dnn_0.10_knife_10_n03041632_3159.png,n03041632_3159.png,1.0,7.4438887,0.9979068,4.5579977
convnext_large,1,159,NaN,knife,cat,0.05,0159_nse_dnn_0.05_cat_10_n02123597_13411.png,n02123597_13411.png,0.0,-0.16630687,2.9553165,-2.2073212
convnext_large,1,160,NaN,clock,clock,0.10,0160_nse_dnn_0.10_clock_10_n04548280_2654.png,n04548280_2654.png,1.0,3.7244828,2.0488248,1.1848692
convnext_large,1,161,NaN,clock,elephant,0.90,0161_nse_dnn_0.90_elephant_10_n02504013_405.png,n02504013_405.png,0.0,-0.8681125,4.5330186,-3.8191764
convnext_large,1,162,NaN,bottle,bottle,0.05,0162_nse_dnn_0.05_bottle_10_n04560804_14729.png,n04560804_14729.png,1.0,1.0238463,0.9795169,0.03134558
convnext_large,1,163,NaN,clock,bottle,0.90,0163_nse_dnn_0.90_bottle_10_n02823428_5482.png,n02823428_5482.png,0.0,0.40673548,4.535833,-2.9197128
convnext_large,1,164,NaN,clock,keyboard,0.90,0164_nse_dnn_0.90_keyboard_10_n04505470_4824.png,n04505470_4824.png,0.0,0.7738973,4.427464,-2.583462
convnext_large,1,165,NaN,clock,chair,0.20,0165_nse_dnn_0.20_chair_10_n04099969_14208.png,n04099969_14208.png,0.0,0.38525105,2.9868011,-1.8395737
convnext_large,1,166,NaN,elephant,elephant,0.00,0166_nse_dnn_0.00_elephant_10_n02504013_1647.png,n02504013_1647.png,1.0,7.124342,0.14710283,4.9336534
convnext_large,1,167,NaN,bear,cat,0.20,0167_nse_dnn_0.20_cat_10_n02123597_11564.png,n02123597_11564.png,0.0,1.0545746,1.7887452,-0.51913697
convnext_large,1,168,NaN,clock,car,0.35,0168_nse_dnn_0.35_car_10_n03100240_16653.png,n03100240_16653.png,0.0,-1.1737295,3.8388317,-3.5444162
convnext_large,1,169,NaN,oven,oven,0.00,0169_nse_dnn_0.00_oven_10_n04111531_9611.png,n04111531_9611.png,1.0,9.229736,1.0221325,5.8036523
convnext_large,1,170,NaN,airplane,car,0.05,0170_nse_dnn_0.05_car_10_n02814533_35054.png,n02814533_35054.png,0.0,1.14945,3.553512,-1.6999288
convnext_large,1,171,NaN,keyboard,oven,0.20,0171_nse_dnn_0.20_oven_10_n04111531_3121.png,n04111531_3121.png,0.0,-0.7552687,1.2209843,-1.397422
convnext_large,1,172,NaN,chair,chair,0.20,0172_nse_dnn_0.20_chair_10_n02791124_4969.png,n02791124_4969.png,1.0,3.294085,2.4295425,0.6113239
convnext_large,1,173,NaN,car,car,0.20,0173_nse_dnn_0.20_car_10_n02814533_211.png,n02814533_211.png,1.0,2.5397074,0.98309886,1.1006885
convnext_large,1,174,NaN,dog,dog,0.00,0174_nse_dnn_0.00_dog_10_n02091244_13118.png,n02091244_13118.png,1.0,0.6126168,0.2471211,0.2584445
convnext_large,1,175,NaN,bottle,bottle,0.10,0175_nse_dnn_0.10_bottle_10_n04560804_3597.png,n04560804_3597.png,1.0,1.9154953,0.48495376,1.0115457
convnext_large,1,176,NaN,clock,bottle,0.60,0176_nse_dnn_0.60_bottle_10_n04560804_30885.png,n04560804_30885.png,0.0,0.2644885,4.480593,-2.9812362
convnext_large,1,177,NaN,clock,bottle,0.60,0177_nse_dnn_0.60_bottle_10_n04560804_9813.png,n04560804_9813.png,0.0,0.24443963,4.3240423,-2.8847148
convnext_large,1,178,NaN,clock,boat,0.35,0178_nse_dnn_0.35_boat_10_n02951358_10003.png,n02951358_10003.png,0.0,-1.2993864,3.8569362,-3.6460707
convnext_large,1,179,NaN,clock,bear,0.35,0179_nse_dnn_0.35_bear_10_n02133161_1500.png,n02133161_1500.png,0.0,-1.1324824,4.306841,-3.8461826
convnext_large,1,180,NaN,keyboard,oven,0.20,0180_nse_dnn_0.20_oven_10_n04111531_4467.png,n04111531_4467.png,0.0,-0.06690717,2.6543763,-1.924238
convnext_large,1,181,NaN,clock,clock,0.20,0181_nse_dnn_0.20_clock_10_n02708093_8002.png,n02708093_8002.png,1.0,4.769146,0.8011019,2.805831
convnext_large,1,182,NaN,clock,boat,0.90,0182_nse_dnn_0.90_boat_10_n02951358_34261.png,n02951358_34261.png,0.0,-1.3584527,4.4598594,-4.114168
convnext_large,1,183,NaN,boat,boat,0.00,0183_nse_dnn_0.00_boat_10_n04612504_20067.png,n04612504_20067.png,1.0,2.7776954,0.32324845,1.7355561
convnext_large,1,184,NaN,clock,clock,0.35,0184_nse_dnn_0.35_clock_10_n03196217_6163.png,n03196217_6163.png,1.0,3.6516316,0.5547447,2.1898298
convnext_large,1,185,NaN,keyboard,keyboard,0.03,0185_nse_dnn_0.03_keyboard_10_n03085013_23119.png,n03085013_23119.png,1.0,5.7404084,1.4443196,3.0377934
convnext_large,1,186,NaN,clock,clock,0.60,0186_nse_dnn_0.60_clock_10_n04548280_4358.png,n04548280_4358.png,1.0,4.52551,0.75154686,2.6685948
convnext_large,1,187,NaN,dog,dog,0.05,0187_nse_dnn_0.05_dog_10_n02101388_2968.png,n02101388_2968.png,1.0,1.1858767,0.82861334,0.25262338
convnext_large,1,188,NaN,oven,oven,0.10,0188_nse_dnn_0.10_oven_10_n04111531_8081.png,n04111531_8081.png,1.0,2.7036402,1.8843031,0.5793589
convnext_large,1,189,NaN,keyboard,keyboard,0.05,0189_nse_dnn_0.05_keyboard_10_n04505470_4994.png,n04505470_4994.png,1.0,5.0789165,0.3918109,3.3142843
convnext_large,1,190,NaN,dog,dog,0.10,0190_nse_dnn_0.10_dog_10_n02101006_16132.png,n02101006_16132.png,1.0,0.81229335,0.63199,0.12749371
convnext_large,1,191,NaN,elephant,elephant,0.10,0191_nse_dnn_0.10_elephant_10_n02504458_6888.png,n02504458_6888.png,1.0,4.2180147,0.40399316,2.6969206
convnext_large,1,192,NaN,clock,bird,0.60,0192_nse_dnn_0.60_bird_10_n02018207_43958.png,n02018207_43958.png,0.0,-0.23562312,4.5558524,-3.3880847
convnext_large,1,193,NaN,cat,cat,0.03,0193_nse_dnn_0.03_cat_10_n02123045_2719.png,n02123045_2719.png,1.0,5.2336483,0.69710976,3.2078173
convnext_large,1,194,NaN,keyboard,keyboard,0.05,0194_nse_dnn_0.05_keyboard_10_n03085013_5611.png,n03085013_5611.png,1.0,5.39598,2.131642,2.3082354
convnext_large,1,195,NaN,boat,boat,0.03,0195_nse_dnn_0.03_boat_10_n03344393_6892.png,n03344393_6892.png,1.0,2.8989558,0.9628936,1.3690027
convnext_large,1,196,NaN,clock,chair,0.90,0196_nse_dnn_0.90_chair_10_n02791124_5411.png,n02791124_5411.png,0.0,0.3000751,4.4523835,-2.9361255
convnext_large,1,197,NaN,elephant,elephant,0.05,0197_nse_dnn_0.05_elephant_10_n02504013_8391.png,n02504013_8391.png,1.0,6.9231033,0.46346998,4.567651
convnext_large,1,198,NaN,clock,chair,0.60,0198_nse_dnn_0.60_chair_10_n02791124_7167.png,n02791124_7167.png,0.0,0.36457884,4.580525,-2.9811242
convnext_large,1,199,NaN,truck,truck,0.10,0199_nse_dnn_0.10_truck_10_n03417042_2170.png,n03417042_2170.png,1.0,2.849378,0.41777438,1.7194035
convnext_large,1,200,NaN,clock,chair,0.35,0200_nse_dnn_0.35_chair_10_n04099969_2109.png,n04099969_2109.png,0.0,0.85676247,2.6294894,-1.2535073
convnext_large,1,201,NaN,clock,chair,0.90,0201_nse_dnn_0.90_chair_10_n04429376_7321.png,n04429376_7321.png,0.0,0.37456653,4.491413,-2.91105
convnext_large,1,202,NaN,clock,airplane,0.35,0202_nse_dnn_0.35_airplane_10_n02690373_1733.png,n02690373_1733.png,0.0,-0.3935758,3.7250984,-2.9123425
convnext_large,1,203,NaN,clock,bird,0.10,0203_nse_dnn_0.10_bird_10_n02006656_5719.png,n02006656_5719.png,0.0,0.33177552,0.78918767,-0.32343924
convnext_large,1,204,NaN,bicycle,bicycle,0.03,0204_nse_dnn_0.03_bicycle_10_n03792782_12354.png,n03792782_12354.png,1.0,5.258794,0.6652659,3.2481148
convnext_large,1,205,NaN,bottle,bottle,0.03,0205_nse_dnn_0.03_bottle_10_n04557648_12671.png,n04557648_12671.png,1.0,3.213629,0.61115086,1.8402299
convnext_large,1,206,NaN,elephant,elephant,0.05,0206_nse_dnn_0.05_elephant_10_n02504013_318.png,n02504013_318.png,1.0,6.4270782,0.79981405,3.9790766
convnext_large,1,207,NaN,clock,boat,0.90,0207_nse_dnn_0.90_boat_10_n04273569_16078.png,n04273569_16078.png,0.0,-1.3220545,4.489579,-4.1094456
convnext_large,1,208,NaN,boat,cat,0.03,0208_nse_dnn_0.03_cat_10_n02123597_9664.png,n02123597_9664.png,0.0,0.7565935,0.92126596,-0.116441
convnext_large,1,209,NaN,clock,clock,0.35,0209_nse_dnn_0.35_clock_10_n04548280_4113.png,n04548280_4113.png,1.0,4.3501525,0.67908454,2.595837
convnext_large,1,210,NaN,clock,keyboard,0.60,0210_nse_dnn_0.60_keyboard_10_n03085013_20363.png,n03085013_20363.png,0.0,0.67483675,4.586269,-2.7658002
convnext_large,1,211,NaN,truck,truck,0.03,0211_nse_dnn_0.03_truck_10_n04467665_67908.png,n04467665_67908.png,1.0,2.8637989,1.5971887,0.89562863
convnext_large,1,212,NaN,clock,truck,0.90,0212_nse_dnn_0.90_truck_10_n04467665_61522.png,n04467665_61522.png,0.0,-1.2337058,4.3476405,-3.946608
convnext_large,1,213,NaN,clock,cat,0.90,0213_nse_dnn_0.90_cat_10_n02123045_3648.png,n02123045_3648.png,0.0,-1.0227141,4.5209737,-3.9199793
convnext_large,1,214,NaN,clock,dog,0.60,0214_nse_dnn_0.60_dog_10_n02107574_3685.png,n02107574_3685.png,0.0,-1.1339984,4.462391,-3.9572449
convnext_large,1,215,NaN,clock,dog,0.20,0215_nse_dnn_0.20_dog_10_n02100236_4048.png,n02100236_4048.png,0.0,0.7582911,0.79348475,-0.024885649
convnext_large,1,216,NaN,clock,bear,0.35,0216_nse_dnn_0.35_bear_10_n02134418_5073.png,n02134418_5073.png,0.0,-0.87183404,3.5212867,-3.1064055
convnext_large,1,217,NaN,clock,airplane,0.90,0217_nse_dnn_0.90_airplane_10_n02690373_9012.png,n02690373_9012.png,0.0,-0.24376822,4.4766307,-3.337826
convnext_large,1,218,NaN,clock,cat,0.35,0218_nse_dnn_0.35_cat_10_n02123159_6439.png,n02123159_6439.png,0.0,-0.8364795,3.7929485,-3.2735
convnext_large,1,219,NaN,clock,cat,0.60,0219_nse_dnn_0.60_cat_10_n02125311_3616.png,n02125311_3616.png,0.0,-1.0662407,4.56395,-3.981146
convnext_large,1,220,NaN,clock,bottle,0.60,0220_nse_dnn_0.60_bottle_10_n04557648_4356.png,n04557648_4356.png,0.0,0.29614022,4.4280906,-2.9217303
convnext_large,1,221,NaN,clock,bird,0.35,0221_nse_dnn_0.35_bird_10_n02027492_6813.png,n02027492_6813.png,0.0,-0.47204757,3.512699,-2.8176413
convnext_large,1,222,NaN,chair,chair,0.03,0222_nse_dnn_0.03_chair_10_n04429376_26765.png,n04429376_26765.png,1.0,3.7129006,0.28931573,2.4208403
convnext_large,1,223,NaN,clock,elephant,0.35,0223_nse_dnn_0.35_elephant_10_n02504458_4811.png,n02504458_4811.png,0.0,-0.79393864,3.3995647,-2.9652548
convnext_large,1,224,NaN,keyboard,keyboard,0.20,0224_nse_dnn_0.20_keyboard_10_n04505470_1351.png,n04505470_1351.png,1.0,6.2989497,0.46664017,4.124066
convnext_large,1,225,NaN,chair,chair,0.05,0225_nse_dnn_0.05_chair_10_n04099969_2532.png,n04099969_2532.png,1.0,2.963785,0.47899106,1.7570146
convnext_large,1,226,NaN,airplane,airplane,0.10,0226_nse_dnn_0.10_airplane_10_n02690373_8547.png,n02690373_8547.png,1.0,3.3264265,0.9673942,1.6680878
convnext_large,1,227,NaN,clock,truck,0.35,0227_nse_dnn_0.35_truck_10_n03417042_23445.png,n03417042_23445.png,0.0,-0.95366085,3.885402,-3.421734
convnext_large,1,228,NaN,clock,truck,0.90,0228_nse_dnn_0.90_truck_10_n04467665_48953.png,n04467665_48953.png,0.0,-1.2321641,4.533025,-4.0766044
convnext_large,1,229,NaN,clock,boat,0.20,0229_nse_dnn_0.20_boat_10_n03662601_11739.png,n03662601_11739.png,0.0,-1.2837409,2.7993221,-2.8871617
convnext_large,1,230,NaN,cat,cat,0.03,0230_nse_dnn_0.03_cat_10_n02123597_4948.png,n02123597_4948.png,1.0,2.25623,0.49396938,1.2461065
convnext_large,1,231,NaN,clock,oven,0.35,0231_nse_dnn_0.35_oven_10_n04111531_9411.png,n04111531_9411.png,0.0,0.82283294,3.4565423,-1.8623139
convnext_large,1,232,NaN,clock,bicycle,0.60,0232_nse_dnn_0.60_bicycle_10_n03792782_988.png,n03792782_988.png,0.0,-1.4824746,4.3652487,-4.1349645
convnext_large,1,233,NaN,car,car,0.05,0233_nse_dnn_0.05_car_10_n02814533_65294.png,n02814533_65294.png,1.0,4.939839,3.4679585,1.0407766
convnext_large,1,234,NaN,bottle,bottle,0.00,0234_nse_dnn_0.00_bottle_10_n04557648_10420.png,n04557648_10420.png,1.0,3.730988,0.8940522,2.0060165
convnext_large,1,235,NaN,clock,chair,0.60,0235_nse_dnn_0.60_chair_10_n04099969_33329.png,n04099969_33329.png,0.0,0.38055062,3.977502,-2.543429
convnext_large,1,236,NaN,clock,oven,0.35,0236_nse_dnn_0.35_oven_10_n04111531_20493.png,n04111531_20493.png,0.0,-0.7323175,3.002305,-2.6407769
convnext_large,1,237,NaN,clock,clock,0.10,0237_nse_dnn_0.10_clock_10_n04548280_7839.png,n04548280_7839.png,1.0,5.4200234,0.5648237,3.4331448
convnext_large,1,238,NaN,clock,airplane,0.20,0238_nse_dnn_0.20_airplane_10_n02690373_7229.png,n02690373_7229.png,0.0,0.69518507,1.5978063,-0.63824964
convnext_large,1,239,NaN,airplane,airplane,0.10,0239_nse_dnn_0.10_airplane_10_n02690373_5003.png,n02690373_5003.png,1.0,5.859252,0.34467742,3.899393
convnext_large,1,240,NaN,chair,chair,0.20,0240_nse_dnn_0.20_chair_10_n02791124_206.png,n02791124_206.png,1.0,4.183412,1.0436362,2.2201567
convnext_large,1,241,NaN,oven,oven,0.00,0241_nse_dnn_0.00_oven_10_n04111531_7283.png,n04111531_7283.png,1.0,8.75108,0.19215836,6.052071
convnext_large,1,242,NaN,clock,chair,0.35,0242_nse_dnn_0.35_chair_10_n04429376_8124.png,n04429376_8124.png,0.0,0.5107362,4.231639,-2.6310756
convnext_large,1,243,NaN,keyboard,keyboard,0.00,0243_nse_dnn_0.00_keyboard_10_n04505470_3864.png,n04505470_3864.png,1.0,5.7720065,0.60617113,3.6527972
convnext_large,1,244,NaN,clock,bottle,0.35,0244_nse_dnn_0.35_bottle_10_n03937543_3289.png,n03937543_3289.png,0.0,0.10055726,3.6804447,-2.5313628
convnext_large,1,245,NaN,clock,boat,0.10,0245_nse_dnn_0.10_boat_10_n03344393_5207.png,n03344393_5207.png,0.0,0.6609075,3.2442772,-1.8267183
convnext_large,1,246,NaN,clock,airplane,0.90,0246_nse_dnn_0.90_airplane_10_n02690373_629.png,n02690373_629.png,0.0,-0.3062996,4.573482,-3.4505267
convnext_large,1,247,NaN,elephant,elephant,0.03,0247_nse_dnn_0.03_elephant_10_n02504013_104.png,n02504013_104.png,1.0,5.423688,1.5825162,2.7161186
convnext_large,1,248,NaN,bicycle,bicycle,0.03,0248_nse_dnn_0.03_bicycle_10_n03792782_42626.png,n03792782_42626.png,1.0,5.971597,0.31077945,4.0028024
convnext_large,1,249,NaN,clock,truck,0.35,0249_nse_dnn_0.35_truck_10_n03417042_6847.png,n03417042_6847.png,0.0,-1.0626497,3.8309402,-3.4602907
convnext_large,1,250,NaN,keyboard,chair,0.10,0250_nse_dnn_0.10_chair_10_n04429376_23573.png,n04429376_23573.png,0.0,0.2934329,1.2837311,-0.7002466
convnext_large,1,251,NaN,clock,clock,0.03,0251_nse_dnn_0.03_clock_10_n03196217_7637.png,n03196217_7637.png,1.0,3.1638038,2.2559228,0.64196885
convnext_large,1,252,NaN,airplane,airplane,0.05,0252_nse_dnn_0.05_airplane_10_n02690373_932.png,n02690373_932.png,1.0,6.6338797,0.7438339,4.1648912
convnext_large,1,253,NaN,truck,truck,0.05,0253_nse_dnn_0.05_truck_10_n03417042_9478.png,n03417042_9478.png,1.0,3.863994,2.4680495,0.98708177
convnext_large,1,254,NaN,clock,clock,0.05,0254_nse_dnn_0.05_clock_10_n04548280_7800.png,n04548280_7800.png,1.0,5.387975,0.6490302,3.3509402
convnext_large,1,255,NaN,keyboard,keyboard,0.10,0255_nse_dnn_0.10_keyboard_10_n03085013_1698.png,n03085013_1698.png,1.0,2.122965,1.721543,0.28384832
convnext_large,1,256,NaN,boat,boat,0.20,0256_nse_dnn_0.20_boat_10_n04273569_32553.png,n04273569_32553.png,1.0,1.9253218,1.6625139,0.18583329
convnext_large,1,257,NaN,bear,bear,0.03,0257_nse_dnn_0.03_bear_10_n02132136_23078.png,n02132136_23078.png,1.0,4.6963706,1.0190438,2.6002626
convnext_large,1,258,NaN,bottle,bottle,0.00,0258_nse_dnn_0.00_bottle_10_n04591713_5476.png,n04591713_5476.png,1.0,2.265931,1.09082,0.8309289
convnext_large,1,259,NaN,knife,knife,0.10,0259_nse_dnn_0.10_knife_10_n03041632_31849.png,n03041632_31849.png,1.0,1.677773,1.0100695,0.4721377
convnext_large,1,260,NaN,clock,truck,0.90,0260_nse_dnn_0.90_truck_10_n03417042_12908.png,n03417042_12908.png,0.0,-1.284889,4.614942,-4.1718106
convnext_large,1,261,NaN,clock,clock,0.60,0261_nse_dnn_0.60_clock_10_n02708093_1418.png,n02708093_1418.png,1.0,4.4647775,0.8444339,2.5599697
convnext_large,1,262,NaN,car,car,0.05,0262_nse_dnn_0.05_car_10_n03100240_4173.png,n03100240_4173.png,1.0,5.3749156,2.0335174,2.3627255
convnext_large,1,263,NaN,keyboard,keyboard,0.10,0263_nse_dnn_0.10_keyboard_10_n03085013_25476.png,n03085013_25476.png,1.0,5.292349,1.5590043,2.6398733
convnext_large,1,264,NaN,cat,cat,0.05,0264_nse_dnn_0.05_cat_10_n02125311_34464.png,n02125311_34464.png,1.0,2.2337449,0.59140146,1.1613122
convnext_large,1,265,NaN,clock,knife,0.20,0265_nse_dnn_0.20_knife_10_n03041632_36789.png,n03041632_36789.png,0.0,-1.1322012,2.7849853,-2.769869
convnext_large,1,266,NaN,airplane,dog,0.03,0266_nse_dnn_0.03_dog_10_n02108915_3733.png,n02108915_3733.png,0.0,0.10868037,0.55062795,-0.31250414
convnext_large,1,267,NaN,clock,knife,0.60,0267_nse_dnn_0.60_knife_10_n03041632_42162.png,n03041632_42162.png,0.0,-0.97435397,4.5233994,-3.8874986
convnext_large,1,268,NaN,keyboard,keyboard,0.10,0268_nse_dnn_0.10_keyboard_10_n03085013_29042.png,n03085013_29042.png,1.0,3.1155577,2.403651,0.50339407
convnext_large,1,269,NaN,airplane,airplane,0.00,0269_nse_dnn_0.00_airplane_10_n02690373_19407.png,n02690373_19407.png,1.0,9.219481,1.2562984,5.6308208
convnext_large,1,270,NaN,airplane,bear,0.05,0270_nse_dnn_0.05_bear_10_n02134084_22029.png,n02134084_22029.png,0.0,0.65480095,6.133894,-3.8743038
convnext_large,1,271,NaN,clock,dog,0.60,0271_nse_dnn_0.60_dog_10_n02088238_11711.png,n02088238_11711.png,0.0,-1.1494613,4.483722,-3.9832623
convnext_large,1,272,NaN,keyboard,elephant,0.20,0272_nse_dnn_0.20_elephant_10_n02504013_8522.png,n02504013_8522.png,0.0,1.1325439,1.8346372,-0.4964549
convnext_large,1,273,NaN,clock,elephant,0.60,0273_nse_dnn_0.60_elephant_10_n02504458_5941.png,n02504458_5941.png,0.0,-0.93804353,4.605043,-3.9195542
convnext_large,1,274,NaN,truck,truck,0.00,0274_nse_dnn_0.00_truck_10_n04467665_242.png,n04467665_242.png,1.0,3.537493,0.29179323,2.2950563
convnext_large,1,275,NaN,keyboard,keyboard,0.00,0275_nse_dnn_0.00_keyboard_10_n04505470_4473.png,n04505470_4473.png,1.0,4.9569807,0.47865295,3.166656
convnext_large,1,276,NaN,boat,boat,0.05,0276_nse_dnn_0.05_boat_10_n03662601_10811.png,n03662601_10811.png,1.0,1.0308863,0.58066314,0.31835586
convnext_large,1,277,NaN,keyboard,keyboard,0.03,0277_nse_dnn_0.03_keyboard_10_n03085013_20495.png,n03085013_20495.png,1.0,6.4049463,0.440004,4.217851
convnext_large,1,278,NaN,bicycle,bicycle,0.00,0278_nse_dnn_0.00_bicycle_10_n02835271_15038.png,n02835271_15038.png,1.0,5.063139,1.0251778,2.8552697
convnext_large,1,279,NaN,bear,bear,0.20,0279_nse_dnn_0.20_bear_10_n02134418_5271.png,n02134418_5271.png,1.0,1.8029346,1.5048481,0.21077901
convnext_large,1,280,NaN,chair,chair,0.10,0280_nse_dnn_0.10_chair_10_n02791124_1217.png,n02791124_1217.png,1.0,2.3988724,1.523505,0.61897826
convnext_large,1,281,NaN,bottle,elephant,0.10,0281_nse_dnn_0.10_elephant_10_n02504013_2394.png,n02504013_2394.png,0.0,-0.0068413913,1.296523,-0.9216178
convnext_large,1,282,NaN,clock,dog,0.35,0282_nse_dnn_0.35_dog_10_n02105505_5576.png,n02105505_5576.png,0.0,-0.6948169,3.8188503,-3.1916447
convnext_large,1,283,NaN,airplane,airplane,0.10,0283_nse_dnn_0.10_airplane_10_n02690373_2579.png,n02690373_2579.png,1.0,3.930705,0.38624752,2.50631
convnext_large,1,284,NaN,dog,dog,0.05,0284_nse_dnn_0.05_dog_10_n02102480_10015.png,n02102480_10015.png,1.0,0.8289049,0.24200267,0.41500258
convnext_large,1,285,NaN,cat,cat,0.10,0285_nse_dnn_0.10_cat_10_n02124075_5853.png,n02124075_5853.png,1.0,3.580053,0.6006697,2.1067424
convnext_large,1,286,NaN,truck,truck,0.00,0286_nse_dnn_0.00_truck_10_n03796401_2012.png,n03796401_2012.png,1.0,3.0204146,1.2006884,1.2867408
convnext_large,1,287,NaN,keyboard,keyboard,0.10,0287_nse_dnn_0.10_keyboard_10_n04505470_1286.png,n04505470_1286.png,1.0,5.270792,0.7277722,3.2124002
convnext_large,1,288,NaN,truck,truck,0.10,0288_nse_dnn_0.10_truck_10_n04467665_74008.png,n04467665_74008.png,1.0,2.560165,0.8347905,1.220024
convnext_large,1,289,NaN,clock,bottle,0.90,0289_nse_dnn_0.90_bottle_10_n04560804_10541.png,n04560804_10541.png,0.0,0.41089198,4.492624,-2.8862202
convnext_large,1,290,NaN,airplane,airplane,0.20,0290_nse_dnn_0.20_airplane_10_n02690373_8967.png,n02690373_8967.png,1.0,6.042326,0.81950426,3.6930928
convnext_large,1,291,NaN,clock,keyboard,0.60,0291_nse_dnn_0.60_keyboard_10_n04505470_3309.png,n04505470_3309.png,0.0,0.80466443,4.30815,-2.4773383
convnext_large,1,292,NaN,car,car,0.05,0292_nse_dnn_0.05_car_10_n02814533_42665.png,n02814533_42665.png,1.0,4.6116834,1.1150765,2.4724743
convnext_large,1,293,NaN,bicycle,bicycle,0.03,0293_nse_dnn_0.03_bicycle_10_n03792782_6613.png,n03792782_6613.png,1.0,3.9213448,1.2294981,1.9034231
convnext_large,1,294,NaN,knife,knife,0.00,0294_nse_dnn_0.00_knife_10_n03041632_38540.png,n03041632_38540.png,1.0,7.7078705,0.22828993,5.288862
convnext_large,1,295,NaN,clock,dog,0.90,0295_nse_dnn_0.90_dog_10_n02109047_6542.png,n02109047_6542.png,0.0,-1.1832339,4.4681425,-3.9961267
convnext_large,1,296,NaN,clock,bicycle,0.35,0296_nse_dnn_0.35_bicycle_10_n03792782_51156.png,n03792782_51156.png,0.0,-1.0069308,2.738979,-2.6487584
convnext_large,1,297,NaN,bottle,bottle,0.10,0297_nse_dnn_0.10_bottle_10_n04579145_5795.png,n04579145_5795.png,1.0,3.9360287,1.1568171,1.9651994
convnext_large,1,298,NaN,chair,chair,0.03,0298_nse_dnn_0.03_chair_10_n03376595_787.png,n03376595_787.png,1.0,3.426038,1.0934805,1.6493673
convnext_large,1,299,NaN,clock,bottle,0.90,0299_nse_dnn_0.90_bottle_10_n04579145_1117.png,n04579145_1117.png,0.0,0.29030707,4.4076276,-2.9113853
convnext_large,1,300,NaN,keyboard,bird,0.00,0300_nse_dnn_0.00_bird_10_n01795545_11076.png,n01795545_11076.png,0.0,0.04439252,0.57768285,-0.37709323
convnext_large,1,301,NaN,knife,clock,0.20,0301_nse_dnn_0.20_clock_10_n03196217_6741.png,n03196217_6741.png,0.0,1.4711199,2.027656,-0.39353052
convnext_large,1,302,NaN,oven,oven,0.00,0302_nse_dnn_0.00_oven_10_n04111531_3555.png,n04111531_3555.png,1.0,8.570766,1.4106289,5.062982
convnext_large,1,303,NaN,clock,knife,0.20,0303_nse_dnn_0.20_knife_10_n03041632_36280.png,n03041632_36280.png,0.0,0.74988735,3.1505058,-1.6974937
convnext_large,1,304,NaN,truck,truck,0.03,0304_nse_dnn_0.03_truck_10_n04467665_74235.png,n04467665_74235.png,1.0,2.4146497,1.0133187,0.99089074
convnext_large,1,305,NaN,clock,clock,0.90,0305_nse_dnn_0.90_clock_10_n04548280_6287.png,n04548280_6287.png,1.0,4.5699916,0.7098044,2.7295644
convnext_large,1,306,NaN,elephant,elephant,0.00,0306_nse_dnn_0.00_elephant_10_n02504458_6472.png,n02504458_6472.png,1.0,6.904969,0.5393113,4.5011997
convnext_large,1,307,NaN,bicycle,bicycle,0.05,0307_nse_dnn_0.05_bicycle_10_n03792782_11034.png,n03792782_11034.png,1.0,5.287066,3.786087,1.0613524
convnext_large,1,308,NaN,clock,dog,0.60,0308_nse_dnn_0.60_dog_10_n02109525_50916.png,n02109525_50916.png,0.0,-1.1770339,4.3568177,-3.9130242
convnext_large,1,309,NaN,clock,dog,0.60,0309_nse_dnn_0.60_dog_10_n02097658_1923.png,n02097658_1923.png,0.0,-1.1600244,4.4342465,-3.955747
convnext_large,1,310,NaN,knife,knife,0.03,0310_nse_dnn_0.03_knife_10_n03041632_22480.png,n03041632_22480.png,1.0,7.34479,0.80539656,4.6240497
convnext_large,1,311,NaN,clock,elephant,0.35,0311_nse_dnn_0.35_elephant_10_n02504458_1041.png,n02504458_1041.png,0.0,-0.79676694,4.140642,-3.4912753
convnext_large,1,312,NaN,knife,knife,0.10,0312_nse_dnn_0.10_knife_10_n03041632_28129.png,n03041632_28129.png,1.0,1.470947,0.36728528,0.7804067
convnext_large,1,313,NaN,car,car,0.00,0313_nse_dnn_0.00_car_10_n03100240_14667.png,n03100240_14667.png,1.0,6.1702595,1.1826706,3.526758
convnext_large,1,314,NaN,airplane,airplane,0.03,0314_nse_dnn_0.03_airplane_10_n02690373_3821.png,n02690373_3821.png,1.0,7.9169865,0.3274262,5.3666296
convnext_large,1,315,NaN,clock,cat,0.90,0315_nse_dnn_0.90_cat_10_n02124075_1183.png,n02124075_1183.png,0.0,-1.0409518,4.422479,-3.863229
convnext_large,1,316,NaN,clock,car,0.90,0316_nse_dnn_0.90_car_10_n03100240_1194.png,n03100240_1194.png,0.0,-1.2609301,4.486207,-4.0638394
convnext_large,1,317,NaN,clock,oven,0.60,0317_nse_dnn_0.60_oven_10_n04111531_9370.png,n04111531_9370.png,0.0,-0.8417391,4.455169,-3.7454798
convnext_large,1,318,NaN,clock,truck,0.20,0318_nse_dnn_0.20_truck_10_n03417042_10597.png,n03417042_10597.png,0.0,-0.6906542,2.0417397,-1.9320943
convnext_large,1,319,NaN,truck,truck,0.05,0319_nse_dnn_0.05_truck_10_n03417042_6489.png,n03417042_6489.png,1.0,2.9685392,1.0979671,1.3226942
convnext_large,1,320,NaN,bottle,bottle,0.05,0320_nse_dnn_0.05_bottle_10_n04591713_6662.png,n04591713_6662.png,1.0,1.8885224,0.92488533,0.6813943
convnext_large,1,321,NaN,clock,bottle,0.60,0321_nse_dnn_0.60_bottle_10_n04560804_4624.png,n04560804_4624.png,0.0,0.24143347,4.2264266,-2.8178158
convnext_large,1,322,NaN,elephant,bird,0.00,0322_nse_dnn_0.00_bird_10_n01818515_7370.png,n01818515_7370.png,0.0,0.70017517,1.011437,-0.2200954
convnext_large,1,323,NaN,keyboard,keyboard,0.05,0323_nse_dnn_0.05_keyboard_10_n03085013_15646.png,n03085013_15646.png,1.0,7.13194,1.7054496,3.8371081
convnext_large,1,324,NaN,cat,cat,0.03,0324_nse_dnn_0.03_cat_10_n02124075_14924.png,n02124075_14924.png,1.0,4.69332,0.5332654,2.9416027
convnext_large,1,325,NaN,bear,elephant,0.20,0325_nse_dnn_0.20_elephant_10_n02504013_18217.png,n02504013_18217.png,0.0,2.1220875,2.7193372,-0.42231935
convnext_large,1,326,NaN,keyboard,keyboard,0.35,0326_nse_dnn_0.35_keyboard_10_n04505470_4724.png,n04505470_4724.png,1.0,5.1244154,2.380353,1.9403452
convnext_large,1,327,NaN,clock,clock,0.20,0327_nse_dnn_0.20_clock_10_n04548280_9646.png,n04548280_9646.png,1.0,5.0454345,2.6410239,1.700175
convnext_large,1,328,NaN,clock,cat,0.35,0328_nse_dnn_0.35_cat_10_n02123394_6376.png,n02123394_6376.png,0.0,-0.89664286,3.658563,-3.221017
convnext_large,1,329,NaN,clock,elephant,0.35,0329_nse_dnn_0.35_elephant_10_n02504458_130.png,n02504458_130.png,0.0,-0.84717524,4.119822,-3.5121975
convnext_large,1,330,NaN,clock,cat,0.90,0330_nse_dnn_0.90_cat_10_n02124075_9291.png,n02124075_9291.png,0.0,-1.0077475,4.36639,-3.8000894
convnext_large,1,331,NaN,clock,bird,0.10,0331_nse_dnn_0.10_bird_10_n02037110_3949.png,n02037110_3949.png,0.0,0.24039072,2.1891153,-1.3779564
convnext_large,1,332,NaN,car,car,0.00,0332_nse_dnn_0.00_car_10_n04285008_10905.png,n04285008_10905.png,1.0,6.7716994,1.0132816,4.0718164
convnext_large,1,333,NaN,chair,chair,0.10,0333_nse_dnn_0.10_chair_10_n04429376_619.png,n04429376_619.png,1.0,3.2689538,0.57313925,1.9062288
convnext_large,1,334,NaN,clock,boat,0.90,0334_nse_dnn_0.90_boat_10_n02951358_30335.png,n02951358_30335.png,0.0,-1.3392837,4.5726295,-4.1803536
convnext_large,1,335,NaN,clock,oven,0.90,0335_nse_dnn_0.90_oven_10_n04111531_17995.png,n04111531_17995.png,0.0,-0.84538084,4.531806,-3.8022454
convnext_large,1,336,NaN,clock,bird,0.35,0336_nse_dnn_0.35_bird_10_n01828970_11221.png,n01828970_11221.png,0.0,-0.45698488,3.336651,-2.6825056
convnext_large,1,337,NaN,elephant,elephant,0.10,0337_nse_dnn_0.10_elephant_10_n02504013_1719.png,n02504013_1719.png,1.0,6.4892473,2.5474782,2.7872517
convnext_large,1,338,NaN,oven,oven,0.10,0338_nse_dnn_0.10_oven_10_n04111531_8009.png,n04111531_8009.png,1.0,5.9292984,1.8104094,2.9124942
convnext_large,1,339,NaN,clock,airplane,0.60,0339_nse_dnn_0.60_airplane_10_n02690373_8233.png,n02690373_8233.png,0.0,-0.30064753,4.5473857,-3.4280775
convnext_large,1,340,NaN,dog,dog,0.10,0340_nse_dnn_0.10_dog_10_n02092339_401.png,n02092339_401.png,1.0,0.8109427,0.37268844,0.30989257
convnext_large,1,341,NaN,bottle,bottle,0.10,0341_nse_dnn_0.10_bottle_10_n02823428_11579.png,n02823428_11579.png,1.0,3.319884,2.9363186,0.27122173
convnext_large,1,342,NaN,clock,car,0.60,0342_nse_dnn_0.60_car_10_n04285008_6951.png,n04285008_6951.png,0.0,-1.2423353,4.4319477,-4.012324
convnext_large,1,343,NaN,clock,bicycle,0.35,0343_nse_dnn_0.35_bicycle_10_n03792782_12504.png,n03792782_12504.png,0.0,-1.2414184,3.8785782,-3.6203845
convnext_large,1,344,NaN,bottle,bottle,0.00,0344_nse_dnn_0.00_bottle_10_n02823428_4073.png,n02823428_4073.png,1.0,2.2753909,0.54829377,1.2212421
convnext_large,1,345,NaN,clock,elephant,0.35,0345_nse_dnn_0.35_elephant_10_n02504013_945.png,n02504013_945.png,0.0,-0.76642966,4.2242026,-3.52891
convnext_large,1,346,NaN,cat,cat,0.10,0346_nse_dnn_0.10_cat_10_n02124075_12815.png,n02124075_12815.png,1.0,4.5780854,0.42576072,2.936137
convnext_large,1,347,NaN,clock,truck,0.60,0347_nse_dnn_0.60_truck_10_n03417042_4876.png,n03417042_4876.png,0.0,-1.1866522,4.050098,-3.7029417
convnext_large,1,348,NaN,keyboard,keyboard,0.05,0348_nse_dnn_0.05_keyboard_10_n04505470_4628.png,n04505470_4628.png,1.0,6.0096645,0.78735286,3.6927319
convnext_large,1,349,NaN,clock,bear,0.20,0349_nse_dnn_0.20_bear_10_n02133161_1427.png,n02133161_1427.png,0.0,0.15095358,1.3207653,-0.8271818
convnext_large,1,350,NaN,clock,boat,0.60,0350_nse_dnn_0.60_boat_10_n04273569_7296.png,n04273569_7296.png,0.0,-1.3633758,4.5311418,-4.168053
convnext_large,1,351,NaN,clock,chair,0.90,0351_nse_dnn_0.90_chair_10_n04099969_41686.png,n04099969_41686.png,0.0,0.36451426,4.506264,-2.9286594
convnext_large,1,352,NaN,airplane,airplane,0.03,0352_nse_dnn_0.03_airplane_10_n02690373_10006.png,n02690373_10006.png,1.0,7.9133253,0.93170214,4.9367533
convnext_large,1,353,NaN,clock,knife,0.90,0353_nse_dnn_0.90_knife_10_n03041632_20595.png,n03041632_20595.png,0.0,-0.87457246,4.5184083,-3.8134131
convnext_large,1,354,NaN,clock,oven,0.90,0354_nse_dnn_0.90_oven_10_n04111531_2054.png,n04111531_2054.png,0.0,-0.75413734,4.3821435,-3.631899
convnext_large,1,355,NaN,truck,truck,0.20,0355_nse_dnn_0.20_truck_10_n04467665_40307.png,n04467665_40307.png,1.0,4.4476275,1.5755692,2.030852
convnext_large,1,356,NaN,bear,bear,0.00,0356_nse_dnn_0.00_bear_10_n02133161_396.png,n02133161_396.png,1.0,5.586373,1.6479732,2.7848692
convnext_large,1,357,NaN,bear,dog,0.03,0357_nse_dnn_0.03_dog_10_n02105056_5636.png,n02105056_5636.png,0.0,-0.008705315,0.93570304,-0.66779757
convnext_large,1,358,NaN,clock,bicycle,0.35,0358_nse_dnn_0.35_bicycle_10_n02835271_8798.png,n02835271_8798.png,0.0,-0.79138315,2.756857,-2.5089848
convnext_large,1,359,NaN,clock,bear,0.90,0359_nse_dnn_0.90_bear_10_n02134418_5478.png,n02134418_5478.png,0.0,-1.1249913,4.4994187,-3.9770586
convnext_large,1,360,NaN,clock,boat,0.90,0360_nse_dnn_0.90_boat_10_n04612504_4250.png,n04612504_4250.png,0.0,-1.3316486,4.472121,-4.1038847
convnext_large,1,361,NaN,clock,knife,0.35,0361_nse_dnn_0.35_knife_10_n03041632_18959.png,n03041632_18959.png,0.0,-0.49551633,3.320009,-2.6979837
convnext_large,1,362,NaN,clock,dog,0.35,0362_nse_dnn_0.35_dog_10_n02105251_6564.png,n02105251_6564.png,0.0,-0.78626496,3.4918013,-3.0250497
convnext_large,1,363,NaN,clock,boat,0.90,0363_nse_dnn_0.90_boat_10_n04612504_7148.png,n04612504_7148.png,0.0,-1.355972,4.5512867,-4.177063
convnext_large,1,364,NaN,boat,boat,0.03,0364_nse_dnn_0.03_boat_10_n04273569_4348.png,n04273569_4348.png,1.0,3.3701644,1.5067692,1.3176194
convnext_large,1,365,NaN,car,car,0.03,0365_nse_dnn_0.03_car_10_n02814533_88986.png,n02814533_88986.png,1.0,4.1545086,1.3447125,1.986826
convnext_large,1,366,NaN,bear,bear,0.03,0366_nse_dnn_0.03_bear_10_n02134418_2590.png,n02134418_2590.png,1.0,3.9441543,0.3427821,2.5465548
convnext_large,1,367,NaN,elephant,bird,0.20,0367_nse_dnn_0.20_bird_10_n02007558_5877.png,n02007558_5877.png,0.0,0.49545044,2.124095,-1.1516255
convnext_large,1,368,NaN,clock,clock,0.05,0368_nse_dnn_0.05_clock_10_n02708093_1313.png,n02708093_1313.png,1.0,5.7777267,0.30222654,3.8717632
convnext_large,1,369,NaN,clock,keyboard,0.35,0369_nse_dnn_0.35_keyboard_10_n03085013_20798.png,n03085013_20798.png,0.0,0.7593615,3.8348846,-2.1747234
convnext_large,1,370,NaN,clock,dog,0.90,0370_nse_dnn_0.90_dog_10_n02109525_13812.png,n02109525_13812.png,0.0,-1.1988003,4.462423,-4.0030894
convnext_large,1,371,NaN,bear,bear,0.20,0371_nse_dnn_0.20_bear_10_n02134418_4458.png,n02134418_4458.png,1.0,2.8571675,0.81114364,1.4467573
convnext_large,1,372,NaN,bottle,bottle,0.20,0372_nse_dnn_0.20_bottle_10_n04560804_21519.png,n04560804_21519.png,1.0,2.4860275,1.9302677,0.39298153
convnext_large,1,373,NaN,elephant,elephant,0.10,0373_nse_dnn_0.10_elephant_10_n02504458_8183.png,n02504458_8183.png,1.0,4.7516775,1.2630742,2.4668152
convnext_large,1,374,NaN,clock,keyboard,0.90,0374_nse_dnn_0.90_keyboard_10_n03085013_20330.png,n03085013_20330.png,0.0,0.76963896,4.5216055,-2.653041
convnext_large,1,375,NaN,elephant,elephant,0.10,0375_nse_dnn_0.10_elephant_10_n02504013_5533.png,n02504013_5533.png,1.0,5.674131,0.972523,3.3245387
convnext_large,1,376,NaN,clock,oven,0.90,0376_nse_dnn_0.90_oven_10_n04111531_1009.png,n04111531_1009.png,0.0,-0.7930651,4.5651746,-3.7888477
convnext_large,1,377,NaN,bicycle,bicycle,0.05,0377_nse_dnn_0.05_bicycle_10_n03792782_48457.png,n03792782_48457.png,1.0,6.659494,0.40654358,4.4215035
convnext_large,1,378,NaN,cat,cat,0.10,0378_nse_dnn_0.10_cat_10_n02124075_7240.png,n02124075_7240.png,1.0,1.614607,0.9359975,0.47984937
convnext_large,1,379,NaN,clock,car,0.60,0379_nse_dnn_0.60_car_10_n02814533_39597.png,n02814533_39597.png,0.0,-1.2463742,4.415209,-4.0033436
convnext_large,1,380,NaN,chair,chair,0.03,0380_nse_dnn_0.03_chair_10_n04429376_33792.png,n04429376_33792.png,1.0,3.5431743,2.1390216,0.9928859
convnext_large,1,381,NaN,clock,bicycle,0.60,0381_nse_dnn_0.60_bicycle_10_n03792782_15679.png,n03792782_15679.png,0.0,-1.5414596,4.480408,-4.2581034
convnext_large,1,382,NaN,clock,bicycle,0.60,0382_nse_dnn_0.60_bicycle_10_n02835271_9237.png,n02835271_9237.png,0.0,-1.4939439,4.4620776,-4.211543
convnext_large,1,383,NaN,bottle,bottle,0.35,0383_nse_dnn_0.35_bottle_10_n04591713_665.png,n04591713_665.png,1.0,2.7613313,1.642944,0.7908193
convnext_large,1,384,NaN,cat,cat,0.03,0384_nse_dnn_0.03_cat_10_n02123159_8257.png,n02123159_8257.png,1.0,4.1426888,0.3722416,2.6661088
convnext_large,1,385,NaN,bear,dog,0.10,0385_nse_dnn_0.10_dog_10_n02108551_26509.png,n02108551_26509.png,0.0,0.70269096,4.3081617,-2.5494528
convnext_large,1,386,NaN,clock,clock,0.60,0386_nse_dnn_0.60_clock_10_n03196217_3697.png,n03196217_3697.png,1.0,4.5960884,0.8341368,2.6601017
convnext_large,1,387,NaN,bicycle,bicycle,0.03,0387_nse_dnn_0.03_bicycle_10_n02835271_25268.png,n02835271_25268.png,1.0,5.2525415,0.8693431,3.0993893
convnext_large,1,388,NaN,truck,truck,0.10,0388_nse_dnn_0.10_truck_10_n03796401_407.png,n03796401_407.png,1.0,2.0629287,1.6086117,0.32125062
convnext_large,1,389,NaN,clock,clock,0.05,0389_nse_dnn_0.05_clock_10_n04548280_2045.png,n04548280_2045.png,1.0,5.2487545,1.6655686,2.533695
convnext_large,1,390,NaN,oven,oven,0.05,0390_nse_dnn_0.05_oven_10_n04111531_5792.png,n04111531_5792.png,1.0,5.957068,0.7748933,3.664351
convnext_large,1,391,NaN,elephant,elephant,0.05,0391_nse_dnn_0.05_elephant_10_n02504458_8212.png,n02504458_8212.png,1.0,4.8424387,2.11715,1.9270701
convnext_large,1,392,NaN,knife,bird,0.03,0392_nse_dnn_0.03_bird_10_n01843383_8624.png,n01843383_8624.png,0.0,-0.8476379,1.3626647,-1.56292
convnext_large,1,393,NaN,airplane,airplane,0.20,0393_nse_dnn_0.20_airplane_10_n02690373_4814.png,n02690373_4814.png,1.0,2.93533,1.1065017,1.2931769
convnext_large,1,394,NaN,clock,truck,0.60,0394_nse_dnn_0.60_truck_10_n03796401_6184.png,n03796401_6184.png,0.0,-1.210225,4.2826943,-3.8840806
convnext_large,1,395,NaN,cat,dog,0.03,0395_nse_dnn_0.03_dog_10_n02094114_1589.png,n02094114_1589.png,0.0,1.1200022,1.3176528,-0.13976014
convnext_large,1,396,NaN,clock,clock,0.90,0396_nse_dnn_0.90_clock_10_n02708093_6572.png,n02708093_6572.png,1.0,4.4964643,0.70770204,2.6790595
convnext_large,1,397,NaN,clock,boat,0.60,0397_nse_dnn_0.60_boat_10_n02951358_15551.png,n02951358_15551.png,0.0,-1.4225873,4.457622,-4.157936
convnext_large,1,398,NaN,clock,boat,0.35,0398_nse_dnn_0.35_boat_10_n03662601_7352.png,n03662601_7352.png,0.0,-1.3559692,3.362009,-3.3361146
convnext_large,1,399,NaN,clock,bicycle,0.60,0399_nse_dnn_0.60_bicycle_10_n03792782_14984.png,n03792782_14984.png,0.0,-1.5651586,4.5220766,-4.3043256
convnext_large,1,400,NaN,clock,knife,0.35,0400_nse_dnn_0.35_knife_10_n03041632_84012.png,n03041632_84012.png,0.0,-0.8018031,2.913325,-2.6269925
convnext_large,1,401,NaN,clock,keyboard,0.10,0401_nse_dnn_0.10_keyboard_10_n03085013_9146.png,n03085013_9146.png,0.0,0.36115128,2.486448,-1.5028118
convnext_large,1,402,NaN,airplane,airplane,0.03,0402_nse_dnn_0.03_airplane_10_n02690373_6755.png,n02690373_6755.png,1.0,7.0419693,1.1585368,4.160215
convnext_large,1,403,NaN,clock,dog,0.20,0403_nse_dnn_0.20_dog_10_n02086079_17983.png,n02086079_17983.png,0.0,-0.3414634,2.2350943,-1.8219014
convnext_large,1,404,NaN,bear,bear,0.00,0404_nse_dnn_0.00_bear_10_n02134418_3284.png,n02134418_3284.png,1.0,3.0277586,0.3378522,1.9020511
convnext_large,1,405,NaN,elephant,elephant,0.35,0405_nse_dnn_0.35_elephant_10_n02504458_8064.png,n02504458_8064.png,1.0,3.0385253,2.4474401,0.41796035
convnext_large,1,406,NaN,clock,cat,0.20,0406_nse_dnn_0.20_cat_10_n02123394_289.png,n02123394_289.png,0.0,0.5663546,1.5143296,-0.67031956
convnext_large,1,407,NaN,knife,knife,0.20,0407_nse_dnn_0.20_knife_10_n03041632_18995.png,n03041632_18995.png,1.0,4.675726,2.3844602,1.6201695
convnext_large,1,408,NaN,clock,bird,0.03,0408_nse_dnn_0.03_bird_10_n01843065_4999.png,n01843065_4999.png,0.0,0.1977534,0.752676,-0.39238954
convnext_large,1,409,NaN,clock,keyboard,0.60,0409_nse_dnn_0.60_keyboard_10_n03085013_22417.png,n03085013_22417.png,0.0,0.7683325,4.4411683,-2.5970871
convnext_large,1,410,NaN,bear,bear,0.05,0410_nse_dnn_0.05_bear_10_n02132136_3224.png,n02132136_3224.png,1.0,3.9772575,0.6738123,2.3358884
convnext_large,1,411,NaN,boat,boat,0.05,0411_nse_dnn_0.05_boat_10_n03662601_33184.png,n03662601_33184.png,1.0,2.0588803,1.8045906,0.17981
convnext_large,1,412,NaN,bear,bear,0.05,0412_nse_dnn_0.05_bear_10_n02133161_2396.png,n02133161_2396.png,1.0,1.7651062,1.1363356,0.44460794
convnext_large,1,413,NaN,clock,keyboard,0.35,0413_nse_dnn_0.35_keyboard_10_n03085013_24578.png,n03085013_24578.png,0.0,1.954742,3.834298,-1.3290467
convnext_large,1,414,NaN,clock,car,0.35,0414_nse_dnn_0.35_car_10_n02814533_4519.png,n02814533_4519.png,0.0,-1.1695558,3.850919,-3.5500119
convnext_large,1,415,NaN,bottle,bottle,0.00,0415_nse_dnn_0.00_bottle_10_n03937543_2428.png,n03937543_2428.png,1.0,2.6290762,0.13866583,1.7609861
convnext_large,1,416,NaN,dog,dog,0.05,0416_nse_dnn_0.05_dog_10_n02091635_8296.png,n02091635_8296.png,1.0,0.8769582,0.3984751,0.33833864
convnext_large,1,417,NaN,clock,bottle,0.35,0417_nse_dnn_0.35_bottle_10_n03983396_11434.png,n03983396_11434.png,0.0,1.8104379,3.6300592,-1.2866666
convnext_large,1,418,NaN,boat,boat,0.00,0418_nse_dnn_0.00_boat_10_n02951358_7315.png,n02951358_7315.png,1.0,3.9742057,1.8347296,1.5128382
convnext_large,1,419,NaN,bird,bird,0.20,0419_nse_dnn_0.20_bird_10_n01860187_7297.png,n01860187_7297.png,1.0,1.0123355,0.64656115,0.25864157
convnext_large,1,420,NaN,clock,oven,0.20,0420_nse_dnn_0.20_oven_10_n04111531_4250.png,n04111531_4250.png,0.0,-0.5288998,1.252236,-1.2594532
convnext_large,1,421,NaN,clock,bear,0.20,0421_nse_dnn_0.20_bear_10_n02133161_9463.png,n02133161_9463.png,0.0,0.6255612,1.7869562,-0.82123035
convnext_large,1,422,NaN,bird,bird,0.00,0422_nse_dnn_0.00_bird_10_n02009229_4129.png,n02009229_4129.png,1.0,0.4549339,0.25512785,0.14128423
convnext_large,1,423,NaN,knife,knife,0.10,0423_nse_dnn_0.10_knife_10_n03041632_30821.png,n03041632_30821.png,1.0,2.480204,1.6172879,0.61017394
convnext_large,1,424,NaN,clock,cat,0.90,0424_nse_dnn_0.90_cat_10_n02123394_2490.png,n02123394_2490.png,0.0,-1.068939,4.5509124,-3.973835
convnext_large,1,425,NaN,dog,dog,0.00,0425_nse_dnn_0.00_dog_10_n02087394_2723.png,n02087394_2723.png,1.0,0.77590895,0.30901068,0.33014694
convnext_large,1,426,NaN,clock,dog,0.90,0426_nse_dnn_0.90_dog_10_n02093754_5736.png,n02093754_5736.png,0.0,-1.2173892,4.5779853,-4.0979486
convnext_large,1,427,NaN,clock,bottle,0.60,0427_nse_dnn_0.60_bottle_10_n02823428_9063.png,n02823428_9063.png,0.0,0.2887939,4.363444,-2.8812125
convnext_large,1,428,NaN,clock,truck,0.60,0428_nse_dnn_0.60_truck_10_n04467665_20933.png,n04467665_20933.png,0.0,-1.2527876,4.488762,-4.059889
convnext_large,1,429,NaN,car,car,0.10,0429_nse_dnn_0.10_car_10_n03100240_5999.png,n03100240_5999.png,1.0,6.533966,2.0792027,3.1499934
convnext_large,1,430,NaN,oven,oven,0.03,0430_nse_dnn_0.03_oven_10_n04111531_3671.png,n04111531_3671.png,1.0,2.8392467,1.7483605,0.7713731
convnext_large,1,431,NaN,truck,truck,0.05,0431_nse_dnn_0.05_truck_10_n03417042_7187.png,n03417042_7187.png,1.0,2.7667,1.147659,1.144835
convnext_large,1,432,NaN,clock,bottle,0.35,0432_nse_dnn_0.35_bottle_10_n04557648_2954.png,n04557648_2954.png,0.0,0.0028817442,3.9696589,-2.804935
convnext_large,1,433,NaN,clock,elephant,0.35,0433_nse_dnn_0.35_elephant_10_n02504013_6645.png,n02504013_6645.png,0.0,-0.74698615,4.192477,-3.4927282
convnext_large,1,434,NaN,keyboard,keyboard,0.10,0434_nse_dnn_0.10_keyboard_10_n04505470_6876.png,n04505470_6876.png,1.0,4.659894,1.9496102,1.91646
convnext_large,1,435,NaN,keyboard,bird,0.20,0435_nse_dnn_0.20_bird_10_n02056570_3286.png,n02056570_3286.png,0.0,-0.84769773,1.9195111,-1.9567121
convnext_large,1,436,NaN,clock,bird,0.90,0436_nse_dnn_0.90_bird_10_n02037110_8826.png,n02037110_8826.png,0.0,-0.1718193,4.521909,-3.3189673
convnext_large,1,437,NaN,car,car,0.00,0437_nse_dnn_0.00_car_10_n03100240_11400.png,n03100240_11400.png,1.0,6.446474,0.75501734,4.024468
convnext_large,1,438,NaN,clock,bird,0.60,0438_nse_dnn_0.60_bird_10_n02018795_6389.png,n02018795_6389.png,0.0,-0.29823887,4.5021663,-3.394399
convnext_large,1,439,NaN,clock,oven,0.35,0439_nse_dnn_0.35_oven_10_n04111531_2458.png,n04111531_2458.png,0.0,-0.7551576,3.9961786,-3.359702
convnext_large,1,440,NaN,clock,cat,0.60,0440_nse_dnn_0.60_cat_10_n02123159_2256.png,n02123159_2256.png,0.0,-1.0351615,4.4829984,-3.9019284
convnext_large,1,441,NaN,elephant,elephant,0.03,0441_nse_dnn_0.03_elephant_10_n02504458_611.png,n02504458_611.png,1.0,5.9756465,0.30965495,4.006461
convnext_large,1,442,NaN,knife,knife,0.03,0442_nse_dnn_0.03_knife_10_n03041632_18141.png,n03041632_18141.png,1.0,7.813951,-0.096694864,5.5936713
convnext_large,1,443,NaN,clock,bird,0.60,0443_nse_dnn_0.60_bird_10_n01843065_1871.png,n01843065_1871.png,0.0,-0.35947987,4.460549,-3.4082751
convnext_large,1,444,NaN,bird,bird,0.05,0444_nse_dnn_0.05_bird_10_n01833805_7361.png,n01833805_7361.png,1.0,0.8622638,0.73469555,0.09020437
convnext_large,1,445,NaN,clock,elephant,0.20,0445_nse_dnn_0.20_elephant_10_n02504458_5827.png,n02504458_5827.png,0.0,0.5167614,1.2379633,-0.50996673
convnext_large,1,446,NaN,clock,bicycle,0.35,0446_nse_dnn_0.35_bicycle_10_n02835271_5825.png,n02835271_5825.png,0.0,-0.4684595,3.983095,-3.1477244
convnext_large,1,447,NaN,clock,bear,0.90,0447_nse_dnn_0.90_bear_10_n02134084_12801.png,n02134084_12801.png,0.0,-1.099916,4.5195904,-3.973591
convnext_large,1,448,NaN,cat,cat,0.10,0448_nse_dnn_0.10_cat_10_n02123394_3611.png,n02123394_3611.png,1.0,4.3704624,0.3690761,2.8294075
convnext_large,1,449,NaN,clock,chair,0.35,0449_nse_dnn_0.35_chair_10_n04429376_9589.png,n04429376_9589.png,0.0,0.4218393,4.2748427,-2.724485
convnext_large,1,450,NaN,clock,cat,0.35,0450_nse_dnn_0.35_cat_10_n02123394_3885.png,n02123394_3885.png,0.0,-0.6975115,3.6222897,-3.054561
convnext_large,1,451,NaN,clock,elephant,0.90,0451_nse_dnn_0.90_elephant_10_n02504013_22633.png,n02504013_22633.png,0.0,-0.85898626,4.515969,-3.8006673
convnext_large,1,452,NaN,car,car,0.20,0452_nse_dnn_0.20_car_10_n02814533_2271.png,n02814533_2271.png,1.0,3.371669,2.600308,0.54543465
convnext_large,1,453,NaN,truck,truck,0.05,0453_nse_dnn_0.05_truck_10_n03417042_10150.png,n03417042_10150.png,1.0,3.4926553,2.2990756,0.8439883
convnext_large,1,454,NaN,clock,oven,0.35,0454_nse_dnn_0.35_oven_10_n04111531_10583.png,n04111531_10583.png,0.0,-0.7174722,4.1974835,-3.4753985
convnext_large,1,455,NaN,bottle,bottle,0.03,0455_nse_dnn_0.03_bottle_10_n03937543_1602.png,n03937543_1602.png,1.0,1.487451,1.039953,0.31642884
convnext_large,1,456,NaN,knife,knife,0.03,0456_nse_dnn_0.03_knife_10_n03041632_3504.png,n03041632_3504.png,1.0,1.2008566,0.76087284,0.31111547
convnext_large,1,457,NaN,bicycle,bicycle,0.03,0457_nse_dnn_0.03_bicycle_10_n03792782_1004.png,n03792782_1004.png,1.0,6.2503233,1.0792843,3.656477
convnext_large,1,458,NaN,cat,cat,0.05,0458_nse_dnn_0.05_cat_10_n02123394_8172.png,n02123394_8172.png,1.0,1.9376262,0.20012604,1.2285982
convnext_large,1,459,NaN,elephant,elephant,0.10,0459_nse_dnn_0.10_elephant_10_n02504013_156.png,n02504013_156.png,1.0,6.53598,0.59484327,4.2010183
convnext_large,1,460,NaN,car,car,0.03,0460_nse_dnn_0.03_car_10_n04285008_5559.png,n04285008_5559.png,1.0,4.5153894,1.2248434,2.3267674
convnext_large,1,461,NaN,clock,elephant,0.35,0461_nse_dnn_0.35_elephant_10_n02504458_6694.png,n02504458_6694.png,0.0,-0.3969083,2.9050663,-2.3348486
convnext_large,1,462,NaN,clock,car,0.90,0462_nse_dnn_0.90_car_10_n04285008_15003.png,n04285008_15003.png,0.0,-1.2315474,4.5530853,-4.090353
convnext_large,1,463,NaN,chair,chair,0.10,0463_nse_dnn_0.10_chair_10_n03376595_15723.png,n03376595_15723.png,1.0,2.3506057,1.1229761,0.8680653
convnext_large,1,464,NaN,clock,knife,0.60,0464_nse_dnn_0.60_knife_10_n03041632_48816.png,n03041632_48816.png,0.0,-0.6559846,4.4771223,-3.6296546
convnext_large,1,465,NaN,clock,chair,0.90,0465_nse_dnn_0.90_chair_10_n03376595_4142.png,n03376595_4142.png,0.0,0.31921095,4.5079837,-2.9619095
convnext_large,1,466,NaN,clock,car,0.60,0466_nse_dnn_0.60_car_10_n04285008_2363.png,n04285008_2363.png,0.0,-1.2544702,4.462637,-4.0426054
convnext_large,1,467,NaN,truck,truck,0.10,0467_nse_dnn_0.10_truck_10_n03417042_7335.png,n03417042_7335.png,1.0,2.9532516,2.6351326,0.22494414
convnext_large,1,468,NaN,oven,oven,0.00,0468_nse_dnn_0.00_oven_10_n04111531_6313.png,n04111531_6313.png,1.0,8.162046,2.016962,4.345231
convnext_large,1,469,NaN,cat,bird,0.05,0469_nse_dnn_0.05_bird_10_n02033041_6728.png,n02033041_6728.png,0.0,0.5864393,1.747253,-0.82081914
convnext_large,1,470,NaN,clock,clock,0.00,0470_nse_dnn_0.00_clock_10_n04548280_1032.png,n04548280_1032.png,1.0,2.0669358,0.78632146,0.9055311
convnext_large,1,471,NaN,airplane,airplane,0.03,0471_nse_dnn_0.03_airplane_10_n02690373_1983.png,n02690373_1983.png,1.0,8.458902,0.6533485,5.51936
convnext_large,1,472,NaN,keyboard,keyboard,0.00,0472_nse_dnn_0.00_keyboard_10_n03085013_23369.png,n03085013_23369.png,1.0,3.9624777,1.2748985,1.9004055
convnext_large,1,473,NaN,clock,elephant,0.90,0473_nse_dnn_0.90_elephant_10_n02504458_2419.png,n02504458_2419.png,0.0,-0.82207644,4.5012603,-3.7641675
convnext_large,1,474,NaN,keyboard,truck,0.20,0474_nse_dnn_0.20_truck_10_n04467665_72022.png,n04467665_72022.png,0.0,1.6034828,2.935945,-0.9421931
convnext_large,1,475,NaN,bottle,bottle,0.05,0475_nse_dnn_0.05_bottle_10_n04579145_5289.png,n04579145_5289.png,1.0,2.5067942,1.505574,0.7079696
convnext_large,1,476,NaN,clock,clock,0.05,0476_nse_dnn_0.05_clock_10_n02708093_2898.png,n02708093_2898.png,1.0,4.8512435,0.25578198,3.249482
convnext_large,1,477,NaN,keyboard,dog,0.20,0477_nse_dnn_0.20_dog_10_n02101556_4066.png,n02101556_4066.png,0.0,0.59471565,0.63940656,-0.031601243
convnext_large,1,478,NaN,clock,car,0.90,0478_nse_dnn_0.90_car_10_n04285008_17052.png,n04285008_17052.png,0.0,-1.2579526,4.3843904,-3.9897392
convnext_large,1,479,NaN,clock,truck,0.90,0479_nse_dnn_0.90_truck_10_n04467665_37811.png,n04467665_37811.png,0.0,-1.237287,4.478973,-4.042006
convnext_large,1,480,NaN,keyboard,keyboard,0.20,0480_nse_dnn_0.20_keyboard_10_n04505470_578.png,n04505470_578.png,1.0,7.0283856,0.88058466,4.3471518
convnext_large,1,481,NaN,cat,cat,0.10,0481_nse_dnn_0.10_cat_10_n02123045_2721.png,n02123045_2721.png,1.0,2.7582169,0.66560996,1.4796966
convnext_large,1,482,NaN,car,car,0.10,0482_nse_dnn_0.10_car_10_n04285008_7776.png,n04285008_7776.png,1.0,5.115921,2.7981248,1.6389295
convnext_large,1,483,NaN,clock,bottle,0.90,0483_nse_dnn_0.90_bottle_10_n04591713_2014.png,n04591713_2014.png,0.0,0.38471982,4.3944077,-2.8352776
convnext_large,1,484,NaN,bottle,bottle,0.10,0484_nse_dnn_0.10_bottle_10_n03983396_9662.png,n03983396_9662.png,1.0,4.193819,0.488194,2.6202726
convnext_large,1,485,NaN,clock,bicycle,0.35,0485_nse_dnn_0.35_bicycle_10_n03792782_10367.png,n03792782_10367.png,0.0,-1.0881054,4.0285487,-3.618021
convnext_large,1,486,NaN,clock,keyboard,0.60,0486_nse_dnn_0.60_keyboard_10_n03085013_22942.png,n03085013_22942.png,0.0,0.75310016,4.473967,-2.6310503
convnext_large,1,487,NaN,cat,cat,0.00,0487_nse_dnn_0.00_cat_10_n02123597_3896.png,n02123597_3896.png,1.0,3.177653,0.62164223,1.8073726
convnext_large,1,488,NaN,bicycle,bicycle,0.03,0488_nse_dnn_0.03_bicycle_10_n03792782_2649.png,n03792782_2649.png,1.0,6.782089,1.9920254,3.3870866
convnext_large,1,489,NaN,bear,bear,0.10,0489_nse_dnn_0.10_bear_10_n02133161_2476.png,n02133161_2476.png,1.0,3.6007032,0.8643806,1.9348723
convnext_large,1,490,NaN,car,car,0.10,0490_nse_dnn_0.10_car_10_n04285008_7249.png,n04285008_7249.png,1.0,5.3929253,2.1009724,2.3277621
convnext_large,1,491,NaN,chair,chair,0.20,0491_nse_dnn_0.20_chair_10_n04099969_8604.png,n04099969_8604.png,1.0,2.6449187,2.1323335,0.36245245
convnext_large,1,492,NaN,bicycle,bicycle,0.05,0492_nse_dnn_0.05_bicycle_10_n02835271_5963.png,n02835271_5963.png,1.0,5.449856,1.3488086,2.8998783
convnext_large,1,493,NaN,clock,airplane,0.90,0493_nse_dnn_0.90_airplane_10_n02690373_17011.png,n02690373_17011.png,0.0,-0.19142699,4.415353,-3.2574854
convnext_large,1,494,NaN,clock,bird,0.90,0494_nse_dnn_0.90_bird_10_n02028035_889.png,n02028035_889.png,0.0,-0.14350455,4.480787,-3.269868
convnext_large,1,495,NaN,clock,cat,0.60,0495_nse_dnn_0.60_cat_10_n02123159_7949.png,n02123159_7949.png,0.0,-1.1080688,4.4853845,-3.955169
convnext_large,1,496,NaN,car,car,0.03,0496_nse_dnn_0.03_car_10_n03100240_15686.png,n03100240_15686.png,1.0,4.4308596,3.7020469,0.51534843
convnext_large,1,497,NaN,clock,cat,0.35,0497_nse_dnn_0.35_cat_10_n02123159_6106.png,n02123159_6106.png,0.0,-0.62540704,2.9993951,-2.5631223
convnext_large,1,498,NaN,cat,cat,0.00,0498_nse_dnn_0.00_cat_10_n02123394_7105.png,n02123394_7105.png,1.0,1.6258501,0.902585,0.5114256
convnext_large,1,499,NaN,clock,clock,0.35,0499_nse_dnn_0.35_clock_10_n04548280_4747.png,n04548280_4747.png,1.0,1.7734419,0.73953223,0.7310846
convnext_large,1,500,NaN,clock,elephant,0.20,0500_nse_dnn_0.20_elephant_10_n02504458_975.png,n02504458_975.png,0.0,1.3631027,1.7045012,-0.24140519
convnext_large,1,501,NaN,keyboard,boat,0.20,0501_nse_dnn_0.20_boat_10_n03344393_11590.png,n03344393_11590.png,0.0,0.21479097,2.1317384,-1.3554866
convnext_large,1,502,NaN,clock,airplane,0.90,0502_nse_dnn_0.90_airplane_10_n02690373_2026.png,n02690373_2026.png,0.0,-0.14179295,4.4739203,-3.263802
convnext_large,1,503,NaN,clock,clock,0.60,0503_nse_dnn_0.60_clock_10_n03196217_2346.png,n03196217_2346.png,1.0,4.442901,0.72226644,2.630886
convnext_large,1,504,NaN,clock,truck,0.60,0504_nse_dnn_0.60_truck_10_n04467665_34932.png,n04467665_34932.png,0.0,-1.2234787,4.4316683,-3.998793
convnext_large,1,505,NaN,clock,oven,0.35,0505_nse_dnn_0.35_oven_10_n04111531_13625.png,n04111531_13625.png,0.0,-0.72660166,4.274423,-3.5362585
convnext_large,1,506,NaN,airplane,airplane,0.00,0506_nse_dnn_0.00_airplane_10_n02690373_8666.png,n02690373_8666.png,1.0,8.99617,0.4642851,6.0329537
convnext_large,1,507,NaN,clock,oven,0.35,0507_nse_dnn_0.35_oven_10_n04111531_4148.png,n04111531_4148.png,0.0,-0.76785445,4.1532483,-3.479745
convnext_large,1,508,NaN,dog,dog,0.00,0508_nse_dnn_0.00_dog_10_n02107683_7021.png,n02107683_7021.png,1.0,0.97247565,0.23958167,0.5182343
convnext_large,1,509,NaN,airplane,bird,0.05,0509_nse_dnn_0.05_bird_10_n02025239_22440.png,n02025239_22440.png,0.0,-1.0886765,1.5151639,-1.8411932
convnext_large,1,510,NaN,clock,elephant,0.90,0510_nse_dnn_0.90_elephant_10_n02504013_7032.png,n02504013_7032.png,0.0,-0.8806201,4.545746,-3.8370202
convnext_large,1,511,NaN,clock,truck,0.90,0511_nse_dnn_0.90_truck_10_n03417042_10788.png,n03417042_10788.png,0.0,-1.2997065,4.5558743,-4.140521
convnext_large,1,512,NaN,bottle,knife,0.05,0512_nse_dnn_0.05_knife_10_n03041632_86118.png,n03041632_86118.png,0.0,0.3551764,1.9322368,-1.1151502
convnext_large,1,513,NaN,bottle,bottle,0.00,0513_nse_dnn_0.00_bottle_10_n04557648_9790.png,n04557648_9790.png,1.0,4.2403564,0.5007588,2.6442947
convnext_large,1,514,NaN,clock,chair,0.90,0514_nse_dnn_0.90_chair_10_n02791124_8788.png,n02791124_8788.png,0.0,0.3566655,4.5373163,-2.9561665
convnext_large,1,515,NaN,elephant,dog,0.03,0515_nse_dnn_0.03_dog_10_n02095314_4996.png,n02095314_4996.png,0.0,0.61796945,0.8145453,-0.1390001
convnext_large,1,516,NaN,keyboard,keyboard,0.20,0516_nse_dnn_0.20_keyboard_10_n04505470_4679.png,n04505470_4679.png,1.0,5.3545623,2.7049768,1.8735399
convnext_large,1,517,NaN,elephant,bird,0.03,0517_nse_dnn_0.03_bird_10_n01860187_24935.png,n01860187_24935.png,0.0,0.52642107,0.5502826,-0.016872648
convnext_large,1,518,NaN,clock,bicycle,0.60,0518_nse_dnn_0.60_bicycle_10_n02835271_14123.png,n02835271_14123.png,0.0,-1.5826716,4.4964795,-4.2986093
convnext_large,1,519,NaN,clock,boat,0.10,0519_nse_dnn_0.10_boat_10_n03344393_7075.png,n03344393_7075.png,0.0,-0.10476514,2.6766412,-1.9667513
convnext_large,1,520,NaN,knife,knife,0.03,0520_nse_dnn_0.03_knife_10_n03041632_13130.png,n03041632_13130.png,1.0,7.612948,0.19398156,5.2460012
convnext_large,1,521,NaN,clock,bottle,0.20,0521_nse_dnn_0.20_bottle_10_n04591713_5569.png,n04591713_5569.png,0.0,0.787375,3.0366695,-1.5904914
convnext_large,1,522,NaN,elephant,elephant,0.05,0522_nse_dnn_0.05_elephant_10_n02504013_19753.png,n02504013_19753.png,1.0,6.2031837,0.59298813,3.9670074
convnext_large,1,523,NaN,clock,dog,0.60,0523_nse_dnn_0.60_dog_10_n02099849_4819.png,n02099849_4819.png,0.0,-1.1724157,4.4119697,-3.948757
convnext_large,1,524,NaN,clock,elephant,0.90,0524_nse_dnn_0.90_elephant_10_n02504458_12938.png,n02504458_12938.png,0.0,-0.86832654,4.535356,-3.8209808
convnext_large,1,525,NaN,bottle,bottle,0.03,0525_nse_dnn_0.03_bottle_10_n02823428_901.png,n02823428_901.png,1.0,3.4381106,0.57163286,2.0269058
convnext_large,1,526,NaN,bicycle,bicycle,0.00,0526_nse_dnn_0.00_bicycle_10_n03792782_2024.png,n03792782_2024.png,1.0,6.5871315,3.7288692,2.0210967
convnext_large,1,527,NaN,truck,truck,0.05,0527_nse_dnn_0.05_truck_10_n03417042_24856.png,n03417042_24856.png,1.0,1.7307942,1.6465213,0.05958991
convnext_large,1,528,NaN,elephant,elephant,0.00,0528_nse_dnn_0.00_elephant_10_n02504013_19694.png,n02504013_19694.png,1.0,6.5224667,0.62913173,4.1672173
convnext_large,1,529,NaN,clock,bird,0.20,0529_nse_dnn_0.20_bird_10_n01530575_10119.png,n01530575_10119.png,0.0,-0.8017143,2.8576076,-2.5875313
convnext_large,1,530,NaN,clock,bottle,0.20,0530_nse_dnn_0.20_bottle_10_n04557648_954.png,n04557648_954.png,0.0,0.08459468,1.5839573,-1.0602095
convnext_large,1,531,NaN,clock,cat,0.90,0531_nse_dnn_0.90_cat_10_n02123159_277.png,n02123159_277.png,0.0,-1.0787672,4.4506726,-3.9099045
convnext_large,1,532,NaN,knife,knife,0.00,0532_nse_dnn_0.00_knife_10_n03041632_289.png,n03041632_289.png,1.0,8.41596,0.52794546,5.5776687
convnext_large,1,533,NaN,clock,truck,0.35,0533_nse_dnn_0.35_truck_10_n04467665_450.png,n04467665_450.png,0.0,-1.0712036,3.7789097,-3.429548
convnext_large,1,534,NaN,knife,knife,0.00,0534_nse_dnn_0.00_knife_10_n03041632_1607.png,n03041632_1607.png,1.0,8.064923,0.7163154,5.1962504
convnext_large,1,535,NaN,clock,bird,0.20,0535_nse_dnn_0.20_bird_10_n01532829_4692.png,n01532829_4692.png,0.0,0.58461034,0.9548686,-0.26181215
convnext_large,1,536,NaN,dog,dog,0.10,0536_nse_dnn_0.10_dog_10_n02102177_4771.png,n02102177_4771.png,1.0,0.9591348,0.94278926,0.011558057
convnext_large,1,537,NaN,car,car,0.10,0537_nse_dnn_0.10_car_10_n04285008_14554.png,n04285008_14554.png,1.0,4.24291,0.7559486,2.4656541
convnext_large,1,538,NaN,clock,clock,0.00,0538_nse_dnn_0.00_clock_10_n04548280_3716.png,n04548280_3716.png,1.0,4.123568,1.8974454,1.5741065
convnext_large,1,539,NaN,car,car,0.03,0539_nse_dnn_0.03_car_10_n04285008_6849.png,n04285008_6849.png,1.0,6.420814,3.0660775,2.372157
convnext_large,1,540,NaN,clock,keyboard,0.35,0540_nse_dnn_0.35_keyboard_10_n03085013_24467.png,n03085013_24467.png,0.0,0.82323927,3.6695309,-2.0126321
convnext_large,1,541,NaN,clock,clock,0.35,0541_nse_dnn_0.35_clock_10_n03196217_6672.png,n03196217_6672.png,1.0,3.9585426,1.4566901,1.769077
convnext_large,1,542,NaN,elephant,dog,0.10,0542_nse_dnn_0.10_dog_10_n02105251_5570.png,n02105251_5570.png,0.0,1.2998863,2.25765,-0.6772411
convnext_large,1,543,NaN,clock,dog,0.35,0543_nse_dnn_0.35_dog_10_n02107574_3352.png,n02107574_3352.png,0.0,0.17516507,2.35967,-1.5446781
convnext_large,1,544,NaN,clock,boat,0.60,0544_nse_dnn_0.60_boat_10_n03662601_8191.png,n03662601_8191.png,0.0,-1.3417078,4.5156083,-4.141748
convnext_large,1,545,NaN,boat,boat,0.00,0545_nse_dnn_0.00_boat_10_n04612504_30617.png,n04612504_30617.png,1.0,2.834064,0.7028597,1.5069891
convnext_large,1,546,NaN,clock,bear,0.60,0546_nse_dnn_0.60_bear_10_n02132136_2900.png,n02132136_2900.png,0.0,-1.0642066,4.5405173,-3.9631383
convnext_large,1,547,NaN,truck,truck,0.10,0547_nse_dnn_0.10_truck_10_n03417042_8139.png,n03417042_8139.png,1.0,2.8764598,1.5330095,0.94996285
convnext_large,1,548,NaN,chair,chair,0.03,0548_nse_dnn_0.03_chair_10_n03376595_5112.png,n03376595_5112.png,1.0,3.644988,1.0332627,1.8467687
convnext_large,1,549,NaN,bird,bird,0.05,0549_nse_dnn_0.05_bird_10_n02006656_10360.png,n02006656_10360.png,1.0,0.80847985,0.3258746,0.34125346
convnext_large,1,550,NaN,clock,elephant,0.20,0550_nse_dnn_0.20_elephant_10_n02504458_2799.png,n02504458_2799.png,0.0,0.40993753,1.90096,-1.0543121
convnext_large,1,551,NaN,airplane,airplane,0.10,0551_nse_dnn_0.10_airplane_10_n02690373_6096.png,n02690373_6096.png,1.0,8.417564,0.35357186,5.702104
convnext_large,1,552,NaN,bird,bird,0.20,0552_nse_dnn_0.20_bird_10_n02002556_139.png,n02002556_139.png,1.0,1.5724304,1.1777205,0.279102
convnext_large,1,553,NaN,car,car,0.00,0553_nse_dnn_0.00_car_10_n04285008_3056.png,n04285008_3056.png,1.0,5.33208,1.1967367,2.9241292
convnext_large,1,554,NaN,knife,knife,0.10,0554_nse_dnn_0.10_knife_10_n03041632_14774.png,n03041632_14774.png,1.0,7.3786163,1.7173094,4.0031486
convnext_large,1,555,NaN,clock,oven,0.20,0555_nse_dnn_0.20_oven_10_n04111531_2163.png,n04111531_2163.png,0.0,-0.4073869,1.8715402,-1.6114448
convnext_large,1,556,NaN,cat,cat,0.20,0556_nse_dnn_0.20_cat_10_n02123597_30864.png,n02123597_30864.png,1.0,2.8441675,1.2263235,1.1439885
convnext_large,1,557,NaN,clock,boat,0.35,0557_nse_dnn_0.35_boat_10_n02951358_33559.png,n02951358_33559.png,0.0,-1.1886959,3.4652612,-3.290845
convnext_large,1,558,NaN,clock,bicycle,0.60,0558_nse_dnn_0.60_bicycle_10_n02835271_4619.png,n02835271_4619.png,0.0,-1.5235393,4.4019403,-4.189947
convnext_large,1,559,NaN,truck,truck,0.03,0559_nse_dnn_0.03_truck_10_n03796401_21261.png,n03796401_21261.png,1.0,2.3201137,0.38658476,1.3672115
convnext_large,1,560,NaN,airplane,airplane,0.10,0560_nse_dnn_0.10_airplane_10_n02690373_2496.png,n02690373_2496.png,1.0,4.2648354,1.2783419,2.11177
convnext_large,1,561,NaN,clock,boat,0.35,0561_nse_dnn_0.35_boat_10_n03662601_5419.png,n03662601_5419.png,0.0,-1.4933599,4.0123096,-3.8930964
convnext_large,1,562,NaN,airplane,airplane,0.03,0562_nse_dnn_0.03_airplane_10_n02690373_7686.png,n02690373_7686.png,1.0,8.065465,1.0138912,4.9862156
convnext_large,1,563,NaN,clock,oven,0.90,0563_nse_dnn_0.90_oven_10_n04111531_5246.png,n04111531_5246.png,0.0,-0.78629446,4.538208,-3.7649918
convnext_large,1,564,NaN,clock,bicycle,0.60,0564_nse_dnn_0.60_bicycle_10_n03792782_1099.png,n03792782_1099.png,0.0,-1.6010227,4.4043145,-4.2464147
convnext_large,1,565,NaN,keyboard,chair,0.35,0565_nse_dnn_0.35_chair_10_n04099969_12909.png,n04099969_12909.png,0.0,0.071321726,3.4285722,-2.3739345
convnext_large,1,566,NaN,elephant,elephant,0.03,0566_nse_dnn_0.03_elephant_10_n02504013_7147.png,n02504013_7147.png,1.0,2.16298,1.7232313,0.31094933
convnext_large,1,567,NaN,clock,truck,0.35,0567_nse_dnn_0.35_truck_10_n04467665_44715.png,n04467665_44715.png,0.0,-0.8083711,3.073538,-2.7449243
convnext_large,1,568,NaN,keyboard,keyboard,0.00,0568_nse_dnn_0.00_keyboard_10_n04505470_1338.png,n04505470_1338.png,1.0,5.003637,0.721637,3.027831
convnext_large,1,569,NaN,clock,airplane,0.90,0569_nse_dnn_0.90_airplane_10_n02690373_4982.png,n02690373_4982.png,0.0,-0.07369721,4.513768,-3.2438278
convnext_large,1,570,NaN,clock,bicycle,0.90,0570_nse_dnn_0.90_bicycle_10_n03792782_3754.png,n03792782_3754.png,0.0,-1.5298517,4.536429,-4.289508
convnext_large,1,571,NaN,bicycle,bicycle,0.00,0571_nse_dnn_0.00_bicycle_10_n03792782_1418.png,n03792782_1418.png,1.0,5.9174986,1.1196913,3.3925622
convnext_large,1,572,NaN,truck,truck,0.03,0572_nse_dnn_0.03_truck_10_n03796401_26359.png,n03796401_26359.png,1.0,2.4722078,0.7197113,1.2392021
convnext_large,1,573,NaN,car,car,0.05,0573_nse_dnn_0.05_car_10_n03100240_9149.png,n03100240_9149.png,1.0,5.6707673,1.6951032,2.8112192
convnext_large,1,574,NaN,clock,bird,0.90,0574_nse_dnn_0.90_bird_10_n01534433_14677.png,n01534433_14677.png,0.0,-0.1856994,4.4688587,-3.2912698
convnext_large,1,575,NaN,car,car,0.03,0575_nse_dnn_0.03_car_10_n03100240_8683.png,n03100240_8683.png,1.0,6.545215,1.4708908,3.5880895
convnext_large,1,576,NaN,chair,chair,0.03,0576_nse_dnn_0.03_chair_10_n03376595_524.png,n03376595_524.png,1.0,2.113192,0.34949136,1.2471248
convnext_large,1,577,NaN,clock,dog,0.20,0577_nse_dnn_0.20_dog_10_n02094433_6402.png,n02094433_6402.png,0.0,0.85318506,1.238337,-0.27234358
convnext_large,1,578,NaN,keyboard,car,0.20,0578_nse_dnn_0.20_car_10_n03100240_16803.png,n03100240_16803.png,0.0,0.75751716,0.81948066,-0.04381481
convnext_large,1,579,NaN,bicycle,bicycle,0.20,0579_nse_dnn_0.20_bicycle_10_n03792782_15114.png,n03792782_15114.png,1.0,3.988473,2.3551133,1.1549597
convnext_large,1,580,NaN,clock,chair,0.60,0580_nse_dnn_0.60_chair_10_n04429376_21362.png,n04429376_21362.png,0.0,0.39432895,4.5849214,-2.9631963
convnext_large,1,581,NaN,clock,keyboard,0.90,0581_nse_dnn_0.90_keyboard_10_n04505470_3499.png,n04505470_3499.png,0.0,0.80530906,4.4451327,-2.573744
convnext_large,1,582,NaN,clock,boat,0.90,0582_nse_dnn_0.90_boat_10_n04273569_26577.png,n04273569_26577.png,0.0,-1.3053771,4.4945164,-4.101144
convnext_large,1,583,NaN,boat,boat,0.10,0583_nse_dnn_0.10_boat_10_n04273569_27325.png,n04273569_27325.png,1.0,2.8400972,1.4381945,0.9912949
convnext_large,1,584,NaN,keyboard,keyboard,0.20,0584_nse_dnn_0.20_keyboard_10_n04505470_9570.png,n04505470_9570.png,1.0,2.6967742,1.5036983,0.84363204
convnext_large,1,585,NaN,clock,bicycle,0.90,0585_nse_dnn_0.90_bicycle_10_n03792782_4067.png,n03792782_4067.png,0.0,-1.5749118,4.4963174,-4.2930074
convnext_large,1,586,NaN,bear,bear,0.10,0586_nse_dnn_0.10_bear_10_n02132136_282.png,n02132136_282.png,1.0,3.7926643,0.56735903,2.2806354
convnext_large,1,587,NaN,boat,boat,0.03,0587_nse_dnn_0.03_boat_10_n04612504_30424.png,n04612504_30424.png,1.0,2.9825644,1.419508,1.1052479
convnext_large,1,588,NaN,clock,knife,0.90,0588_nse_dnn_0.90_knife_10_n03041632_4879.png,n03041632_4879.png,0.0,-0.8133997,4.528618,-3.777377
convnext_large,1,589,NaN,elephant,elephant,0.05,0589_nse_dnn_0.05_elephant_10_n02504458_7634.png,n02504458_7634.png,1.0,6.5826187,1.041056,3.9184766
convnext_large,1,590,NaN,clock,cat,0.35,0590_nse_dnn_0.35_cat_10_n02123597_7615.png,n02123597_7615.png,0.0,-0.7567053,3.747535,-3.1849787
convnext_large,1,591,NaN,clock,bicycle,0.35,0591_nse_dnn_0.35_bicycle_10_n03792782_20387.png,n03792782_20387.png,0.0,0.9763403,3.1287177,-1.5219606
convnext_large,1,592,NaN,clock,clock,0.10,0592_nse_dnn_0.10_clock_10_n02708093_527.png,n02708093_527.png,1.0,5.325644,0.27467835,3.5715723
convnext_large,1,593,NaN,elephant,elephant,0.05,0593_nse_dnn_0.05_elephant_10_n02504013_5501.png,n02504013_5501.png,1.0,4.971691,0.59930086,3.0917468
convnext_large,1,594,NaN,clock,dog,0.35,0594_nse_dnn_0.35_dog_10_n02106166_2273.png,n02106166_2273.png,0.0,-0.366291,3.1635933,-2.4960053
convnext_large,1,595,NaN,boat,boat,0.03,0595_nse_dnn_0.03_boat_10_n03662601_34009.png,n03662601_34009.png,1.0,3.5283387,1.4735372,1.4529641
convnext_large,1,596,NaN,clock,boat,0.35,0596_nse_dnn_0.35_boat_10_n04273569_12536.png,n04273569_12536.png,0.0,-0.94730616,3.427784,-3.093656
convnext_large,1,597,NaN,elephant,elephant,0.00,0597_nse_dnn_0.00_elephant_10_n02504013_8534.png,n02504013_8534.png,1.0,6.0141783,0.2740394,4.0588913
convnext_large,1,598,NaN,clock,clock,0.35,0598_nse_dnn_0.35_clock_10_n04548280_156.png,n04548280_156.png,1.0,3.3956215,0.91831005,1.7517239
convnext_large,1,599,NaN,clock,bicycle,0.90,0599_nse_dnn_0.90_bicycle_10_n02835271_542.png,n02835271_542.png,0.0,-1.5664806,4.5110393,-4.297456
convnext_large,1,600,NaN,bear,bear,0.00,0600_nse_dnn_0.00_bear_10_n02133161_5434.png,n02133161_5434.png,1.0,2.909346,1.6469426,0.89265406
convnext_large,1,601,NaN,clock,truck,0.60,0601_nse_dnn_0.60_truck_10_n04467665_63829.png,n04467665_63829.png,0.0,-1.2676098,4.5529113,-4.1157303
convnext_large,1,602,NaN,clock,oven,0.90,0602_nse_dnn_0.90_oven_10_n04111531_10220.png,n04111531_10220.png,0.0,-0.83542395,4.48548,-3.762447
convnext_large,1,603,NaN,clock,boat,0.60,0603_nse_dnn_0.60_boat_10_n04273569_28074.png,n04273569_28074.png,0.0,-1.4227318,4.4556346,-4.156633
convnext_large,1,604,NaN,cat,cat,0.00,0604_nse_dnn_0.00_cat_10_n02123394_2482.png,n02123394_2482.png,1.0,2.2587118,0.40089893,1.3136721
convnext_large,1,605,NaN,clock,boat,0.90,0605_nse_dnn_0.90_boat_10_n03662601_20381.png,n03662601_20381.png,0.0,-1.3975859,4.403229,-4.1017957
convnext_large,1,606,NaN,clock,bird,0.35,0606_nse_dnn_0.35_bird_10_n01817953_12511.png,n01817953_12511.png,0.0,-0.87638736,2.5986207,-2.4572017
convnext_large,1,607,NaN,cat,cat,0.05,0607_nse_dnn_0.05_cat_10_n02125311_5346.png,n02125311_5346.png,1.0,2.410062,0.9717814,1.0170181
convnext_large,1,608,NaN,oven,oven,0.00,0608_nse_dnn_0.00_oven_10_n04111531_14758.png,n04111531_14758.png,1.0,3.5334527,0.7176237,1.9910918
convnext_large,1,609,NaN,bird,bird,0.10,0609_nse_dnn_0.10_bird_10_n02002556_1398.png,n02002556_1398.png,1.0,0.44063267,0.40103328,0.028000997
convnext_large,1,610,NaN,airplane,knife,0.05,0610_nse_dnn_0.05_knife_10_n03041632_99912.png,n03041632_99912.png,0.0,2.4086907,3.801089,-0.9845743
convnext_large,1,611,NaN,airplane,airplane,0.05,0611_nse_dnn_0.05_airplane_10_n02690373_1075.png,n02690373_1075.png,1.0,4.9220767,1.2905563,2.5678728
convnext_large,1,612,NaN,clock,cat,0.35,0612_nse_dnn_0.35_cat_10_n02123045_10834.png,n02123045_10834.png,0.0,-0.5670676,3.4317799,-2.8276122
convnext_large,1,613,NaN,clock,car,0.60,0613_nse_dnn_0.60_car_10_n02814533_41478.png,n02814533_41478.png,0.0,-1.2688785,4.5462155,-4.1118927
convnext_large,1,614,NaN,cat,cat,0.00,0614_nse_dnn_0.00_cat_10_n02123394_1602.png,n02123394_1602.png,1.0,1.9616185,0.45426786,1.0658579
convnext_large,1,615,NaN,knife,knife,0.03,0615_nse_dnn_0.03_knife_10_n03041632_21017.png,n03041632_21017.png,1.0,5.0745525,2.48724,1.8295062
convnext_large,1,616,NaN,bear,bear,0.03,0616_nse_dnn_0.03_bear_10_n02134084_572.png,n02134084_572.png,1.0,3.2035449,0.62207705,1.8253734
convnext_large,1,617,NaN,clock,clock,0.05,0617_nse_dnn_0.05_clock_10_n03196217_3987.png,n03196217_3987.png,1.0,2.723736,1.016257,1.20737
convnext_large,1,618,NaN,dog,dog,0.03,0618_nse_dnn_0.03_dog_10_n02098286_6303.png,n02098286_6303.png,1.0,0.5991471,0.20121801,0.28137836
convnext_large,1,619,NaN,keyboard,keyboard,0.00,0619_nse_dnn_0.00_keyboard_10_n04505470_4379.png,n04505470_4379.png,1.0,5.0350375,0.97230625,2.8727849
convnext_large,1,620,NaN,boat,boat,0.05,0620_nse_dnn_0.05_boat_10_n04273569_15138.png,n04273569_15138.png,1.0,3.4938042,1.0242845,1.7462142
convnext_large,1,621,NaN,clock,airplane,0.90,0621_nse_dnn_0.90_airplane_10_n02690373_18234.png,n02690373_18234.png,0.0,-0.28169477,4.5128493,-3.3902547
convnext_large,1,622,NaN,clock,clock,0.90,0622_nse_dnn_0.90_clock_10_n03196217_2179.png,n03196217_2179.png,1.0,4.4674535,0.7178291,2.6513848
convnext_large,1,623,NaN,bottle,bottle,0.03,0623_nse_dnn_0.03_bottle_10_n04579145_6860.png,n04579145_6860.png,1.0,2.4983432,0.49538445,1.4163058
convnext_large,1,624,NaN,keyboard,car,0.35,0624_nse_dnn_0.35_car_10_n02814533_81455.png,n02814533_81455.png,0.0,0.8153921,3.098477,-1.6143848
convnext_large,1,625,NaN,car,car,0.03,0625_nse_dnn_0.03_car_10_n04285008_6278.png,n04285008_6278.png,1.0,6.429219,1.6606475,3.371889
convnext_large,1,626,NaN,truck,truck,0.05,0626_nse_dnn_0.05_truck_10_n04467665_3612.png,n04467665_3612.png,1.0,3.4408398,1.30928,1.5072404
convnext_large,1,627,NaN,bottle,bottle,0.10,0627_nse_dnn_0.10_bottle_10_n03983396_10251.png,n03983396_10251.png,1.0,4.4933643,0.6254712,2.7350135
convnext_large,1,628,NaN,clock,dog,0.60,0628_nse_dnn_0.60_dog_10_n02086646_6407.png,n02086646_6407.png,0.0,-1.1491807,4.3696356,-3.9023924
convnext_large,1,629,NaN,clock,oven,0.35,0629_nse_dnn_0.35_oven_10_n04111531_21404.png,n04111531_21404.png,0.0,-1.0391647,3.36501,-3.1142218
convnext_large,1,630,NaN,bottle,bottle,0.05,0630_nse_dnn_0.05_bottle_10_n03983396_3185.png,n03983396_3185.png,1.0,4.372043,0.65320414,2.6296163
convnext_large,1,631,NaN,elephant,elephant,0.05,0631_nse_dnn_0.05_elephant_10_n02504013_13766.png,n02504013_13766.png,1.0,1.3268573,1.2987758,0.019856645
convnext_large,1,632,NaN,dog,bird,0.05,0632_nse_dnn_0.05_bird_10_n01514859_10633.png,n01514859_10633.png,0.0,0.5687243,0.7622864,-0.13686912
convnext_large,1,633,NaN,chair,chair,0.05,0633_nse_dnn_0.05_chair_10_n03376595_2351.png,n03376595_2351.png,1.0,2.172121,0.85423994,0.9318827
convnext_large,1,634,NaN,bird,bird,0.00,0634_nse_dnn_0.00_bird_10_n02009912_31837.png,n02009912_31837.png,1.0,0.75598633,0.51177865,0.17268091
convnext_large,1,635,NaN,clock,dog,0.90,0635_nse_dnn_0.90_dog_10_n02110958_8971.png,n02110958_8971.png,0.0,-1.2022389,4.444182,-3.9926226
convnext_large,1,636,NaN,dog,dog,0.20,0636_nse_dnn_0.20_dog_10_n02113799_3680.png,n02113799_3680.png,1.0,0.9123922,0.31096867,0.42527065
convnext_large,1,637,NaN,clock,airplane,0.35,0637_nse_dnn_0.35_airplane_10_n02690373_6491.png,n02690373_6491.png,0.0,0.40114534,2.7726517,-1.6769081
convnext_large,1,638,NaN,clock,clock,0.60,0638_nse_dnn_0.60_clock_10_n04548280_1438.png,n04548280_1438.png,1.0,4.4791393,0.78133947,2.6147394
convnext_large,1,639,NaN,airplane,airplane,0.05,0639_nse_dnn_0.05_airplane_10_n02690373_2981.png,n02690373_2981.png,1.0,8.016796,0.7334944,5.150072
convnext_large,1,640,NaN,car,car,0.03,0640_nse_dnn_0.03_car_10_n04285008_7155.png,n04285008_7155.png,1.0,5.732941,3.5018592,1.5776132
convnext_large,1,641,NaN,chair,chair,0.20,0641_nse_dnn_0.20_chair_10_n03376595_5909.png,n03376595_5909.png,1.0,2.198636,2.0622957,0.09640721
convnext_large,1,642,NaN,clock,elephant,0.60,0642_nse_dnn_0.60_elephant_10_n02504013_5876.png,n02504013_5876.png,0.0,-0.8315259,4.3986907,-3.6983216
convnext_large,1,643,NaN,cat,cat,0.00,0643_nse_dnn_0.00_cat_10_n02125311_25104.png,n02125311_25104.png,1.0,2.0230858,0.4320605,1.1250248
convnext_large,1,644,NaN,clock,dog,0.90,0644_nse_dnn_0.90_dog_10_n02111277_11664.png,n02111277_11664.png,0.0,-1.2078977,4.4197,-3.9793127
convnext_large,1,645,NaN,clock,airplane,0.35,0645_nse_dnn_0.35_airplane_10_n02690373_2185.png,n02690373_2185.png,0.0,-0.38002634,3.2268612,-2.5504546
convnext_large,1,646,NaN,elephant,bird,0.05,0646_nse_dnn_0.05_bird_10_n02017213_7721.png,n02017213_7721.png,0.0,-0.233149,2.546493,-1.9655038
convnext_large,1,647,NaN,boat,boat,0.05,0647_nse_dnn_0.05_boat_10_n03662601_25577.png,n03662601_25577.png,1.0,3.150544,2.0560193,0.7739458
convnext_large,1,648,NaN,elephant,elephant,0.03,0648_nse_dnn_0.03_elephant_10_n02504013_8028.png,n02504013_8028.png,1.0,5.295161,0.74762046,3.2155967
convnext_large,1,649,NaN,clock,airplane,0.60,0649_nse_dnn_0.60_airplane_10_n02690373_6665.png,n02690373_6665.png,0.0,-0.2677284,4.4720573,-3.3515346
convnext_large,1,650,NaN,clock,bird,0.60,0650_nse_dnn_0.60_bird_10_n02011460_2611.png,n02011460_2611.png,0.0,-0.22882336,4.488237,-3.3354652
convnext_large,1,651,NaN,airplane,knife,0.10,0651_nse_dnn_0.10_knife_10_n03041632_90407.png,n03041632_90407.png,0.0,-0.8638387,2.1501276,-2.131196
convnext_large,1,652,NaN,airplane,airplane,0.03,0652_nse_dnn_0.03_airplane_10_n02690373_10817.png,n02690373_10817.png,1.0,7.9678383,0.35360113,5.384079
convnext_large,1,653,NaN,airplane,bird,0.00,0653_nse_dnn_0.00_bird_10_n02051845_15350.png,n02051845_15350.png,0.0,0.35748136,0.5412444,-0.12994008
convnext_large,1,654,NaN,clock,knife,0.60,0654_nse_dnn_0.60_knife_10_n03041632_4269.png,n03041632_4269.png,0.0,-0.8779397,4.3804936,-3.7182739
convnext_large,1,655,NaN,bottle,bottle,0.03,0655_nse_dnn_0.03_bottle_10_n04560804_11426.png,n04560804_11426.png,1.0,2.3691964,0.26529425,1.4876834
convnext_large,1,656,NaN,clock,bicycle,0.20,0656_nse_dnn_0.20_bicycle_10_n03792782_7050.png,n03792782_7050.png,0.0,-0.79652506,2.1317914,-2.0706325
convnext_large,1,657,NaN,elephant,elephant,0.05,0657_nse_dnn_0.05_elephant_10_n02504013_9144.png,n02504013_9144.png,1.0,6.210602,0.5439352,4.0069385
convnext_large,1,658,NaN,clock,bear,0.90,0658_nse_dnn_0.90_bear_10_n02134418_5630.png,n02134418_5630.png,0.0,-1.0887144,4.4463615,-3.91389
convnext_large,1,659,NaN,bear,bear,0.00,0659_nse_dnn_0.00_bear_10_n02133161_16147.png,n02133161_16147.png,1.0,5.2080936,0.57895094,3.2732983
convnext_large,1,660,NaN,keyboard,keyboard,0.05,0660_nse_dnn_0.05_keyboard_10_n03085013_6857.png,n03085013_6857.png,1.0,7.0035377,1.0697247,4.1958394
convnext_large,1,661,NaN,clock,car,0.90,0661_nse_dnn_0.90_car_10_n02814533_72079.png,n02814533_72079.png,0.0,-1.2229481,4.361019,-3.948461
convnext_large,1,662,NaN,chair,chair,0.00,0662_nse_dnn_0.00_chair_10_n04429376_5770.png,n04429376_5770.png,1.0,3.1857932,0.80882955,1.6807672
convnext_large,1,663,NaN,airplane,dog,0.05,0663_nse_dnn_0.05_dog_10_n02112706_5500.png,n02112706_5500.png,0.0,-0.3305242,1.616431,-1.3767053
convnext_large,1,664,NaN,clock,boat,0.60,0664_nse_dnn_0.60_boat_10_n03662601_32391.png,n03662601_32391.png,0.0,-1.3706223,4.5344434,-4.175512
convnext_large,1,665,NaN,truck,truck,0.20,0665_nse_dnn_0.20_truck_10_n03796401_16046.png,n03796401_16046.png,1.0,3.5458279,2.0079377,1.0874527
convnext_large,1,666,NaN,clock,bottle,0.35,0666_nse_dnn_0.35_bottle_10_n04557648_310.png,n04557648_310.png,0.0,0.5524224,2.0704505,-1.073408
convnext_large,1,667,NaN,chair,chair,0.00,0667_nse_dnn_0.00_chair_10_n04429376_14995.png,n04429376_14995.png,1.0,2.2444768,0.86171865,0.9777577
convnext_large,1,668,NaN,oven,oven,0.05,0668_nse_dnn_0.05_oven_10_n04111531_24096.png,n04111531_24096.png,1.0,1.436811,1.0475687,0.27523586
convnext_large,1,669,NaN,knife,bird,0.03,0669_nse_dnn_0.03_bird_10_n01855672_12414.png,n01855672_12414.png,0.0,0.337485,0.37686226,-0.027843937
convnext_large,1,670,NaN,clock,chair,0.90,0670_nse_dnn_0.90_chair_10_n03376595_4887.png,n03376595_4887.png,0.0,0.32939088,4.5594587,-2.9911096
convnext_large,1,671,NaN,keyboard,bottle,0.20,0671_nse_dnn_0.20_bottle_10_n04557648_11992.png,n04557648_11992.png,0.0,0.25586525,1.2018144,-0.6688871
convnext_large,1,672,NaN,clock,cat,0.20,0672_nse_dnn_0.20_cat_10_n02124075_951.png,n02124075_951.png,0.0,1.2455133,1.6556848,-0.29003507
convnext_large,1,673,NaN,chair,chair,0.10,0673_nse_dnn_0.10_chair_10_n04099969_8647.png,n04099969_8647.png,1.0,4.3408365,0.90430623,2.4299939
convnext_large,1,674,NaN,bottle,bottle,0.00,0674_nse_dnn_0.00_bottle_10_n04591713_2808.png,n04591713_2808.png,1.0,4.2772093,0.8838394,2.3994749
convnext_large,1,675,NaN,airplane,airplane,0.20,0675_nse_dnn_0.20_airplane_10_n02690373_15097.png,n02690373_15097.png,1.0,3.6248147,1.6062837,1.427317
convnext_large,1,676,NaN,knife,knife,0.00,0676_nse_dnn_0.00_knife_10_n03041632_62810.png,n03041632_62810.png,1.0,4.268761,1.3107302,2.0916438
convnext_large,1,677,NaN,clock,airplane,0.20,0677_nse_dnn_0.20_airplane_10_n02690373_1441.png,n02690373_1441.png,0.0,0.61758345,2.2153437,-1.1297871
convnext_large,1,678,NaN,clock,clock,0.90,0678_nse_dnn_0.90_clock_10_n04548280_942.png,n04548280_942.png,1.0,4.567162,0.7399839,2.7062235
convnext_large,1,679,NaN,cat,bear,0.10,0679_nse_dnn_0.10_bear_10_n02133161_4060.png,n02133161_4060.png,0.0,1.3384732,1.4098091,-0.050442107
convnext_large,1,680,NaN,chair,chair,0.03,0680_nse_dnn_0.03_chair_10_n03376595_8227.png,n03376595_8227.png,1.0,3.3091466,0.6387496,1.8882558
convnext_large,1,681,NaN,clock,boat,0.20,0681_nse_dnn_0.20_boat_10_n02951358_28889.png,n02951358_28889.png,0.0,-0.2766561,2.2167614,-1.7631124
convnext_large,1,682,NaN,boat,boat,0.00,0682_nse_dnn_0.00_boat_10_n04273569_1141.png,n04273569_1141.png,1.0,2.8010585,0.4201415,1.6835626
convnext_large,1,683,NaN,dog,dog,0.00,0683_nse_dnn_0.00_dog_10_n02098105_5905.png,n02098105_5905.png,1.0,0.94585794,0.66401,0.19929661
convnext_large,1,684,NaN,clock,bird,0.35,0684_nse_dnn_0.35_bird_10_n01534433_12864.png,n01534433_12864.png,0.0,-0.50136244,3.5015116,-2.8304594
convnext_large,1,685,NaN,keyboard,keyboard,0.00,0685_nse_dnn_0.00_keyboard_10_n04505470_6847.png,n04505470_6847.png,1.0,2.5006528,1.5044632,0.7044124
convnext_large,1,686,NaN,clock,car,0.60,0686_nse_dnn_0.60_car_10_n02814533_92286.png,n02814533_92286.png,0.0,-1.2528672,4.3960586,-3.9943938
convnext_large,1,687,NaN,clock,clock,0.05,0687_nse_dnn_0.05_clock_10_n02708093_3462.png,n02708093_3462.png,1.0,3.0976255,0.31738997,1.9659234
convnext_large,1,688,NaN,elephant,elephant,0.00,0688_nse_dnn_0.00_elephant_10_n02504013_3602.png,n02504013_3602.png,1.0,7.1517096,0.7317492,4.5395975
convnext_large,1,689,NaN,clock,clock,0.20,0689_nse_dnn_0.20_clock_10_n02708093_2800.png,n02708093_2800.png,1.0,2.3311968,0.4477967,1.3317649
convnext_large,1,690,NaN,chair,bottle,0.03,0690_nse_dnn_0.03_bottle_10_n03983396_4627.png,n03983396_4627.png,0.0,-0.37429598,2.4216757,-1.9770505
convnext_large,1,691,NaN,clock,elephant,0.60,0691_nse_dnn_0.60_elephant_10_n02504458_6835.png,n02504458_6835.png,0.0,-0.8476591,4.4713492,-3.761107
convnext_large,1,692,NaN,bicycle,bicycle,0.10,0692_nse_dnn_0.10_bicycle_10_n02835271_7594.png,n02835271_7594.png,1.0,5.335122,0.9952089,3.0687823
convnext_large,1,693,NaN,oven,oven,0.10,0693_nse_dnn_0.10_oven_10_n04111531_538.png,n04111531_538.png,1.0,5.9477496,1.0505908,3.462814
convnext_large,1,694,NaN,elephant,elephant,0.03,0694_nse_dnn_0.03_elephant_10_n02504013_10909.png,n02504013_10909.png,1.0,5.306739,1.5845404,2.6319919
convnext_large,1,695,NaN,clock,boat,0.90,0695_nse_dnn_0.90_boat_10_n03344393_771.png,n03344393_771.png,0.0,-1.3810129,4.4539313,-4.125929
convnext_large,1,696,NaN,clock,boat,0.10,0696_nse_dnn_0.10_boat_10_n02951358_15413.png,n02951358_15413.png,0.0,0.2447658,1.8846439,-1.159569
