subj,session,trial,rt,object_response,category,condition,imagename,filename,is_correct,targ_act,max_nontarg_act,decision_margin
vit_b_16,1,1,NaN,elephant,elephant,0.03,0001_nse_dnn_0.03_elephant_10_n02504458_7209.png,n02504458_7209.png,1.0,4.608202,1.4186428,2.255359
vit_b_16,1,2,NaN,clock,knife,0.90,0002_nse_dnn_0.90_knife_10_n03041632_82878.png,n03041632_82878.png,0.0,1.4879465,3.2505834,-1.2463726
vit_b_16,1,3,NaN,clock,clock,0.00,0003_nse_dnn_0.00_clock_10_n03196217_9231.png,n03196217_9231.png,1.0,6.8313117,2.7239563,2.9043386
vit_b_16,1,4,NaN,oven,oven,0.00,0004_nse_dnn_0.00_oven_10_n04111531_11026.png,n04111531_11026.png,1.0,2.5975919,2.2077444,0.27566382
vit_b_16,1,5,NaN,clock,clock,0.10,0005_nse_dnn_0.10_clock_10_n04548280_1114.png,n04548280_1114.png,1.0,5.6442227,1.3842174,3.0122788
vit_b_16,1,6,NaN,clock,clock,0.03,0006_nse_dnn_0.03_clock_10_n02708093_8100.png,n02708093_8100.png,1.0,5.0995774,2.9945197,1.4885006
vit_b_16,1,7,NaN,clock,clock,0.00,0007_nse_dnn_0.00_clock_10_n02708093_3591.png,n02708093_3591.png,1.0,4.800938,2.0955129,1.9130245
vit_b_16,1,8,NaN,chair,chair,0.00,0008_nse_dnn_0.00_chair_10_n03376595_16202.png,n03376595_16202.png,1.0,2.7308667,2.2738764,0.32314092
vit_b_16,1,9,NaN,clock,bottle,0.60,0009_nse_dnn_0.60_bottle_10_n02823428_3478.png,n02823428_3478.png,0.0,0.2869765,2.9861517,-1.9086051
vit_b_16,1,10,NaN,dog,dog,0.10,0010_nse_dnn_0.10_dog_10_n02087394_28673.png,n02087394_28673.png,1.0,1.5000176,0.58123046,0.6496807
vit_b_16,1,11,NaN,airplane,chair,0.10,0011_nse_dnn_0.10_chair_10_n04099969_1690.png,n04099969_1690.png,0.0,0.57378745,1.7990316,-0.8663785
vit_b_16,1,12,NaN,cat,cat,0.03,0012_nse_dnn_0.03_cat_10_n02125311_1736.png,n02125311_1736.png,1.0,1.7546571,0.4228406,0.9417365
vit_b_16,1,13,NaN,clock,bear,0.90,0013_nse_dnn_0.90_bear_10_n02133161_1169.png,n02133161_1169.png,0.0,-0.90143037,3.348113,-3.004881
vit_b_16,1,14,NaN,clock,bear,0.90,0014_nse_dnn_0.90_bear_10_n02133161_8835.png,n02133161_8835.png,0.0,-0.82360363,3.251686,-2.881665
vit_b_16,1,15,NaN,car,car,0.20,0015_nse_dnn_0.20_car_10_n02814533_5430.png,n02814533_5430.png,1.0,6.0634637,2.3795135,2.6049461
vit_b_16,1,16,NaN,clock,bear,0.60,0016_nse_dnn_0.60_bear_10_n02134418_3767.png,n02134418_3767.png,0.0,-0.7458242,2.9460547,-2.6105525
vit_b_16,1,17,NaN,knife,knife,0.20,0017_nse_dnn_0.20_knife_10_n03041632_10540.png,n03041632_10540.png,1.0,3.5419154,1.9165319,1.1493198
vit_b_16,1,18,NaN,bicycle,bicycle,0.20,0018_nse_dnn_0.20_bicycle_10_n02835271_1075.png,n02835271_1075.png,1.0,4.9049234,2.5958092,1.6327903
vit_b_16,1,19,NaN,bear,bear,0.00,0019_nse_dnn_0.00_bear_10_n02134084_3888.png,n02134084_3888.png,1.0,2.713433,0.67518365,1.4412601
vit_b_16,1,20,NaN,knife,dog,0.00,0020_nse_dnn_0.00_dog_10_n02085936_9009.png,n02085936_9009.png,0.0,0.054845564,1.3196526,-0.8943536
vit_b_16,1,21,NaN,knife,knife,0.03,0021_nse_dnn_0.03_knife_10_n03041632_12651.png,n03041632_12651.png,1.0,8.1221,2.0000691,4.3289294
vit_b_16,1,22,NaN,clock,bicycle,0.35,0022_nse_dnn_0.35_bicycle_10_n03792782_565.png,n03792782_565.png,0.0,-0.9337096,2.9764426,-2.7648952
vit_b_16,1,23,NaN,boat,boat,0.20,0023_nse_dnn_0.20_boat_10_n04612504_40672.png,n04612504_40672.png,1.0,2.7930703,2.005256,0.5570689
vit_b_16,1,24,NaN,airplane,dog,0.05,0024_nse_dnn_0.05_dog_10_n02098105_146.png,n02098105_146.png,0.0,0.70488816,2.1322584,-1.0093032
vit_b_16,1,25,NaN,clock,clock,0.03,0025_nse_dnn_0.03_clock_10_n02708093_5944.png,n02708093_5944.png,1.0,5.3963265,0.7479206,3.2869196
vit_b_16,1,26,NaN,cat,cat,0.03,0026_nse_dnn_0.03_cat_10_n02124075_14021.png,n02124075_14021.png,1.0,3.1754053,2.0583577,0.78987193
vit_b_16,1,27,NaN,airplane,bear,0.20,0027_nse_dnn_0.20_bear_10_n02133161_7184.png,n02133161_7184.png,0.0,0.2240265,1.6854644,-1.0333927
vit_b_16,1,28,NaN,bottle,bottle,0.00,0028_nse_dnn_0.00_bottle_10_n03937543_9745.png,n03937543_9745.png,1.0,0.89947903,0.42902246,0.33266303
vit_b_16,1,29,NaN,clock,airplane,0.60,0029_nse_dnn_0.60_airplane_10_n02690373_9605.png,n02690373_9605.png,0.0,2.1770458,2.54693,-0.26154765
vit_b_16,1,30,NaN,clock,cat,0.20,0030_nse_dnn_0.20_cat_10_n02123045_7167.png,n02123045_7167.png,0.0,0.6381627,1.54461,-0.6409551
vit_b_16,1,31,NaN,airplane,airplane,0.05,0031_nse_dnn_0.05_airplane_10_n02690373_4706.png,n02690373_4706.png,1.0,8.887371,0.2962125,6.074867
vit_b_16,1,32,NaN,clock,knife,0.35,0032_nse_dnn_0.35_knife_10_n03041632_45270.png,n03041632_45270.png,0.0,0.16987057,1.705844,-1.0860972
vit_b_16,1,33,NaN,clock,dog,0.35,0033_nse_dnn_0.35_dog_10_n02105855_9326.png,n02105855_9326.png,0.0,-0.051281296,1.8919039,-1.3740394
vit_b_16,1,34,NaN,bear,bear,0.10,0034_nse_dnn_0.10_bear_10_n02134418_4349.png,n02134418_4349.png,1.0,2.5088556,2.0666335,0.31269827
vit_b_16,1,35,NaN,cat,cat,0.00,0035_nse_dnn_0.00_cat_10_n02123159_469.png,n02123159_469.png,1.0,4.868159,0.3842164,3.1706262
vit_b_16,1,36,NaN,clock,truck,0.90,0036_nse_dnn_0.90_truck_10_n03417042_5004.png,n03417042_5004.png,0.0,-1.3365644,3.162339,-3.181205
vit_b_16,1,37,NaN,airplane,bird,0.10,0037_nse_dnn_0.10_bird_10_n02051845_6333.png,n02051845_6333.png,0.0,1.1667311,2.0691042,-0.63807416
vit_b_16,1,38,NaN,clock,clock,0.90,0038_nse_dnn_0.90_clock_10_n03196217_12701.png,n03196217_12701.png,1.0,3.262417,1.6590577,1.1337463
vit_b_16,1,39,NaN,clock,chair,0.60,0039_nse_dnn_0.60_chair_10_n03376595_12341.png,n03376595_12341.png,0.0,-0.07365017,2.9083998,-2.1086278
vit_b_16,1,40,NaN,airplane,bicycle,0.10,0040_nse_dnn_0.10_bicycle_10_n03792782_66837.png,n03792782_66837.png,0.0,0.63525224,2.0957804,-1.0327494
vit_b_16,1,41,NaN,bicycle,bicycle,0.05,0041_nse_dnn_0.05_bicycle_10_n02835271_20177.png,n02835271_20177.png,1.0,4.297796,2.1754205,1.500746
vit_b_16,1,42,NaN,knife,knife,0.00,0042_nse_dnn_0.00_knife_10_n03041632_22330.png,n03041632_22330.png,1.0,5.9233456,0.92413425,3.5349762
vit_b_16,1,43,NaN,clock,cat,0.60,0043_nse_dnn_0.60_cat_10_n02123045_5913.png,n02123045_5913.png,0.0,-0.25720388,2.9034445,-2.234916
vit_b_16,1,44,NaN,airplane,elephant,0.20,0044_nse_dnn_0.20_elephant_10_n02504013_2464.png,n02504013_2464.png,0.0,1.1179645,2.2076244,-0.77050596
vit_b_16,1,45,NaN,clock,knife,0.90,0045_nse_dnn_0.90_knife_10_n03041632_99460.png,n03041632_99460.png,0.0,1.4624693,3.2952564,-1.2959762
vit_b_16,1,46,NaN,knife,dog,0.00,0046_nse_dnn_0.00_dog_10_n02099601_8686.png,n02099601_8686.png,0.0,0.06735443,1.5291237,-1.0336269
vit_b_16,1,47,NaN,clock,chair,0.90,0047_nse_dnn_0.90_chair_10_n02791124_5400.png,n02791124_5400.png,0.0,-0.025674611,3.221162,-2.2958603
vit_b_16,1,48,NaN,airplane,chair,0.05,0048_nse_dnn_0.05_chair_10_n03376595_830.png,n03376595_830.png,0.0,1.8632452,2.0088208,-0.102937445
vit_b_16,1,49,NaN,clock,cat,0.90,0049_nse_dnn_0.90_cat_10_n02124075_6024.png,n02124075_6024.png,0.0,-0.34078836,3.4178717,-2.657774
vit_b_16,1,50,NaN,bicycle,bicycle,0.10,0050_nse_dnn_0.10_bicycle_10_n03792782_9004.png,n03792782_9004.png,1.0,5.1937065,2.062902,2.213813
vit_b_16,1,51,NaN,clock,keyboard,0.60,0051_nse_dnn_0.60_keyboard_10_n03085013_24088.png,n03085013_24088.png,0.0,0.48350677,3.1030362,-1.852287
vit_b_16,1,52,NaN,chair,cat,0.10,0052_nse_dnn_0.10_cat_10_n02125311_33778.png,n02125311_33778.png,0.0,0.54318327,1.7539381,-0.856133
vit_b_16,1,53,NaN,bicycle,bicycle,0.00,0053_nse_dnn_0.00_bicycle_10_n03792782_7092.png,n03792782_7092.png,1.0,5.523057,1.6936365,2.7078092
vit_b_16,1,54,NaN,airplane,airplane,0.35,0054_nse_dnn_0.35_airplane_10_n02690373_5724.png,n02690373_5724.png,1.0,2.502036,2.3044727,0.13969843
vit_b_16,1,55,NaN,clock,bear,0.60,0055_nse_dnn_0.60_bear_10_n02133161_5637.png,n02133161_5637.png,0.0,-0.7844103,2.9090497,-2.6116707
vit_b_16,1,56,NaN,airplane,bear,0.10,0056_nse_dnn_0.10_bear_10_n02132136_5365.png,n02132136_5365.png,0.0,1.1171645,3.0050569,-1.3349415
vit_b_16,1,57,NaN,clock,car,0.35,0057_nse_dnn_0.35_car_10_n03100240_1702.png,n03100240_1702.png,0.0,-0.010538697,2.117996,-1.5051014
vit_b_16,1,58,NaN,clock,oven,0.35,0058_nse_dnn_0.35_oven_10_n04111531_2677.png,n04111531_2677.png,0.0,-0.18332791,2.1768122,-1.668871
vit_b_16,1,59,NaN,oven,oven,0.05,0059_nse_dnn_0.05_oven_10_n04111531_16583.png,n04111531_16583.png,1.0,6.523787,1.5205384,3.537831
vit_b_16,1,60,NaN,chair,chair,0.10,0060_nse_dnn_0.10_chair_10_n04099969_6266.png,n04099969_6266.png,1.0,2.656901,2.234929,0.29837912
vit_b_16,1,61,NaN,clock,oven,0.60,0061_nse_dnn_0.60_oven_10_n04111531_6695.png,n04111531_6695.png,0.0,-0.7055389,3.252319,-2.7986283
vit_b_16,1,62,NaN,car,car,0.10,0062_nse_dnn_0.10_car_10_n03100240_1438.png,n03100240_1438.png,1.0,6.005759,1.4199545,3.2426531
vit_b_16,1,63,NaN,keyboard,keyboard,0.20,0063_nse_dnn_0.20_keyboard_10_n04505470_4684.png,n04505470_4684.png,1.0,5.645896,3.3752327,1.6056014
vit_b_16,1,64,NaN,chair,chair,0.00,0064_nse_dnn_0.00_chair_10_n04099969_8021.png,n04099969_8021.png,1.0,2.9979644,0.8832823,1.4953061
vit_b_16,1,65,NaN,car,car,0.20,0065_nse_dnn_0.20_car_10_n04285008_7139.png,n04285008_7139.png,1.0,4.5482206,3.072227,1.0436851
vit_b_16,1,66,NaN,truck,truck,0.03,0066_nse_dnn_0.03_truck_10_n03796401_9207.png,n03796401_9207.png,1.0,1.9094737,1.739385,0.12027084
vit_b_16,1,67,NaN,clock,bottle,0.05,0067_nse_dnn_0.05_bottle_10_n04560804_3651.png,n04560804_3651.png,0.0,0.96157366,2.0532305,-0.771918
vit_b_16,1,68,NaN,clock,chair,0.60,0068_nse_dnn_0.60_chair_10_n03376595_3010.png,n03376595_3010.png,0.0,-0.14878906,3.2642548,-2.4133866
vit_b_16,1,69,NaN,clock,bird,0.90,0069_nse_dnn_0.90_bird_10_n01514859_1951.png,n01514859_1951.png,0.0,1.0382996,3.3891437,-1.6622978
vit_b_16,1,70,NaN,car,car,0.10,0070_nse_dnn_0.10_car_10_n03100240_4594.png,n03100240_4594.png,1.0,5.079312,1.991443,2.1834528
vit_b_16,1,71,NaN,clock,clock,0.35,0071_nse_dnn_0.35_clock_10_n03196217_3333.png,n03196217_3333.png,1.0,3.3631058,1.8104999,1.0978582
vit_b_16,1,72,NaN,car,car,0.10,0072_nse_dnn_0.10_car_10_n02814533_90798.png,n02814533_90798.png,1.0,2.9628136,2.8416119,0.08570258
vit_b_16,1,73,NaN,keyboard,keyboard,0.00,0073_nse_dnn_0.00_keyboard_10_n03085013_19547.png,n03085013_19547.png,1.0,6.9654326,0.2875807,4.721955
vit_b_16,1,74,NaN,bear,bear,0.05,0074_nse_dnn_0.05_bear_10_n02133161_545.png,n02133161_545.png,1.0,0.98687136,0.89453,0.065295205
vit_b_16,1,75,NaN,clock,oven,0.90,0075_nse_dnn_0.90_oven_10_n04111531_6489.png,n04111531_6489.png,0.0,-0.5446385,3.11481,-2.587621
vit_b_16,1,76,NaN,clock,dog,0.90,0076_nse_dnn_0.90_dog_10_n02105056_15299.png,n02105056_15299.png,0.0,-0.8465175,3.0732536,-2.7716968
vit_b_16,1,77,NaN,knife,knife,0.05,0077_nse_dnn_0.05_knife_10_n03041632_33255.png,n03041632_33255.png,1.0,3.776862,2.2188523,1.1016792
vit_b_16,1,78,NaN,clock,cat,0.20,0078_nse_dnn_0.20_cat_10_n02123394_5895.png,n02123394_5895.png,0.0,0.21556085,2.2399447,-1.4314555
vit_b_16,1,79,NaN,bottle,bottle,0.03,0079_nse_dnn_0.03_bottle_10_n03983396_11654.png,n03983396_11654.png,1.0,4.197278,2.0519254,1.5169934
vit_b_16,1,80,NaN,airplane,airplane,0.03,0080_nse_dnn_0.03_airplane_10_n02690373_3860.png,n02690373_3860.png,1.0,8.770236,0.51605326,5.836589
vit_b_16,1,81,NaN,bicycle,oven,0.03,0081_nse_dnn_0.03_oven_10_n04111531_6415.png,n04111531_6415.png,0.0,-0.60283726,2.0699148,-1.8899212
vit_b_16,1,82,NaN,clock,knife,0.60,0082_nse_dnn_0.60_knife_10_n03041632_39342.png,n03041632_39342.png,0.0,0.9598861,2.8574288,-1.3417654
vit_b_16,1,83,NaN,clock,bear,0.60,0083_nse_dnn_0.60_bear_10_n02133161_4882.png,n02133161_4882.png,0.0,-0.7675078,2.9560547,-2.6329563
vit_b_16,1,84,NaN,bottle,bottle,0.00,0084_nse_dnn_0.00_bottle_10_n04591713_7474.png,n04591713_7474.png,1.0,3.3485196,0.97134256,1.680918
vit_b_16,1,85,NaN,airplane,bear,0.20,0085_nse_dnn_0.20_bear_10_n02132136_17615.png,n02132136_17615.png,0.0,0.4814347,1.9631795,-1.0477518
vit_b_16,1,86,NaN,clock,boat,0.60,0086_nse_dnn_0.60_boat_10_n03344393_382.png,n03344393_382.png,0.0,-0.27643728,2.9658196,-2.2926219
vit_b_16,1,87,NaN,truck,truck,0.00,0087_nse_dnn_0.00_truck_10_n03796401_27811.png,n03796401_27811.png,1.0,2.0227776,0.79502106,0.86815494
vit_b_16,1,88,NaN,clock,keyboard,0.60,0088_nse_dnn_0.60_keyboard_10_n04505470_2603.png,n04505470_2603.png,0.0,0.43270648,2.8934891,-1.740036
vit_b_16,1,89,NaN,airplane,boat,0.35,0089_nse_dnn_0.35_boat_10_n03662601_16418.png,n03662601_16418.png,0.0,0.7523111,2.1679018,-1.0009737
vit_b_16,1,90,NaN,clock,bear,0.35,0090_nse_dnn_0.35_bear_10_n02132136_2760.png,n02132136_2760.png,0.0,-0.41717565,2.553672,-2.1007066
vit_b_16,1,91,NaN,bicycle,bicycle,0.05,0091_nse_dnn_0.05_bicycle_10_n02835271_10271.png,n02835271_10271.png,1.0,4.1132336,0.8506661,2.3069837
vit_b_16,1,92,NaN,bear,bear,0.10,0092_nse_dnn_0.10_bear_10_n02134084_9127.png,n02134084_9127.png,1.0,1.8481913,1.3675584,0.3398588
vit_b_16,1,93,NaN,airplane,bird,0.20,0093_nse_dnn_0.20_bird_10_n01797886_551.png,n01797886_551.png,0.0,0.4022004,1.7345673,-0.94212574
vit_b_16,1,94,NaN,truck,truck,0.10,0094_nse_dnn_0.10_truck_10_n03417042_9559.png,n03417042_9559.png,1.0,3.7738755,1.3752445,1.6960883
vit_b_16,1,95,NaN,clock,clock,0.90,0095_nse_dnn_0.90_clock_10_n02708093_3114.png,n02708093_3114.png,1.0,3.2980595,1.6481307,1.1666759
vit_b_16,1,96,NaN,bicycle,bicycle,0.05,0096_nse_dnn_0.05_bicycle_10_n03792782_122.png,n03792782_122.png,1.0,8.193568,0.32269412,5.5655484
vit_b_16,1,97,NaN,clock,oven,0.35,0097_nse_dnn_0.35_oven_10_n04111531_3702.png,n04111531_3702.png,0.0,-0.14374965,1.6728057,-1.2844986
vit_b_16,1,98,NaN,clock,car,0.90,0098_nse_dnn_0.90_car_10_n02814533_93476.png,n02814533_93476.png,0.0,-0.760289,3.2122443,-2.8090053
vit_b_16,1,99,NaN,clock,cat,0.35,0099_nse_dnn_0.35_cat_10_n02123045_8491.png,n02123045_8491.png,0.0,0.10993291,2.4908123,-1.683536
vit_b_16,1,100,NaN,airplane,chair,0.35,0100_nse_dnn_0.35_chair_10_n02791124_13469.png,n02791124_13469.png,0.0,-0.18173182,2.3051944,-1.7585223
vit_b_16,1,101,NaN,clock,dog,0.60,0101_nse_dnn_0.60_dog_10_n02096294_5451.png,n02096294_5451.png,0.0,-0.7941087,2.7173996,-2.4830112
vit_b_16,1,102,NaN,clock,bicycle,0.35,0102_nse_dnn_0.35_bicycle_10_n03792782_44296.png,n03792782_44296.png,0.0,-0.5840645,2.2128785,-1.9777373
vit_b_16,1,103,NaN,clock,cat,0.90,0103_nse_dnn_0.90_cat_10_n02123597_7138.png,n02123597_7138.png,0.0,-0.32482266,3.3436725,-2.5940177
vit_b_16,1,104,NaN,clock,bottle,0.35,0104_nse_dnn_0.35_bottle_10_n04560804_12736.png,n04560804_12736.png,0.0,0.45324722,2.654296,-1.5563765
vit_b_16,1,105,NaN,clock,oven,0.60,0105_nse_dnn_0.60_oven_10_n04111531_22797.png,n04111531_22797.png,0.0,-0.61271214,3.0122147,-2.5632105
vit_b_16,1,106,NaN,clock,bird,0.10,0106_nse_dnn_0.10_bird_10_n02007558_7446.png,n02007558_7446.png,0.0,0.56189185,0.6215569,-0.042189542
vit_b_16,1,107,NaN,clock,boat,0.60,0107_nse_dnn_0.60_boat_10_n03662601_16441.png,n03662601_16441.png,0.0,-0.28817216,3.1871395,-2.4574165
vit_b_16,1,108,NaN,clock,oven,0.60,0108_nse_dnn_0.60_oven_10_n04111531_22386.png,n04111531_22386.png,0.0,-0.7753026,2.975111,-2.651943
vit_b_16,1,109,NaN,airplane,airplane,0.00,0109_nse_dnn_0.00_airplane_10_n02690373_1381.png,n02690373_1381.png,1.0,8.8667555,0.29397708,6.06187
vit_b_16,1,110,NaN,clock,keyboard,0.20,0110_nse_dnn_0.20_keyboard_10_n03085013_20779.png,n03085013_20779.png,0.0,0.275281,1.8723105,-1.1292703
vit_b_16,1,111,NaN,clock,dog,0.90,0111_nse_dnn_0.90_dog_10_n02095570_9488.png,n02095570_9488.png,0.0,-0.9034131,3.3733828,-3.0241513
vit_b_16,1,112,NaN,airplane,dog,0.03,0112_nse_dnn_0.03_dog_10_n02107312_3262.png,n02107312_3262.png,0.0,-0.18229301,2.5288825,-1.9170905
vit_b_16,1,113,NaN,oven,oven,0.03,0113_nse_dnn_0.03_oven_10_n04111531_10681.png,n04111531_10681.png,1.0,8.488793,0.86389816,5.391615
vit_b_16,1,114,NaN,clock,knife,0.90,0114_nse_dnn_0.90_knife_10_n03041632_29285.png,n03041632_29285.png,0.0,1.6438289,3.287597,-1.1623195
vit_b_16,1,115,NaN,clock,elephant,0.60,0115_nse_dnn_0.60_elephant_10_n02504458_4776.png,n02504458_4776.png,0.0,-0.7771148,2.7920725,-2.5237966
vit_b_16,1,116,NaN,boat,boat,0.10,0116_nse_dnn_0.10_boat_10_n04273569_11940.png,n04273569_11940.png,1.0,2.4462144,1.7825874,0.46925518
vit_b_16,1,117,NaN,cat,cat,0.20,0117_nse_dnn_0.20_cat_10_n02123159_1413.png,n02123159_1413.png,1.0,4.222756,1.4660368,1.9492948
vit_b_16,1,118,NaN,clock,airplane,0.60,0118_nse_dnn_0.60_airplane_10_n02690373_6674.png,n02690373_6674.png,0.0,1.877042,3.092521,-0.8594734
vit_b_16,1,119,NaN,clock,clock,0.35,0119_nse_dnn_0.35_clock_10_n04548280_5088.png,n04548280_5088.png,1.0,2.84725,1.613166,0.87262917
vit_b_16,1,120,NaN,clock,clock,0.05,0120_nse_dnn_0.05_clock_10_n02708093_6624.png,n02708093_6624.png,1.0,4.5020957,0.6673693,2.711561
vit_b_16,1,121,NaN,bicycle,bicycle,0.20,0121_nse_dnn_0.20_bicycle_10_n03792782_29108.png,n03792782_29108.png,1.0,4.251844,3.230381,0.72228336
vit_b_16,1,122,NaN,clock,clock,0.20,0122_nse_dnn_0.20_clock_10_n04548280_8649.png,n04548280_8649.png,1.0,3.6740468,2.368237,0.92334694
vit_b_16,1,123,NaN,knife,knife,0.05,0123_nse_dnn_0.05_knife_10_n03041632_737.png,n03041632_737.png,1.0,6.468124,2.095418,3.09197
vit_b_16,1,124,NaN,clock,clock,0.10,0124_nse_dnn_0.10_clock_10_n04548280_8668.png,n04548280_8668.png,1.0,5.3359966,1.8148853,2.489802
vit_b_16,1,125,NaN,bird,bird,0.03,0125_nse_dnn_0.03_bird_10_n01558993_34885.png,n01558993_34885.png,1.0,1.1656579,0.68443763,0.3402741
vit_b_16,1,126,NaN,clock,truck,0.60,0126_nse_dnn_0.60_truck_10_n04467665_37833.png,n04467665_37833.png,0.0,-1.2157634,2.9853008,-2.970601
vit_b_16,1,127,NaN,boat,boat,0.05,0127_nse_dnn_0.05_boat_10_n03662601_5176.png,n03662601_5176.png,1.0,3.31883,1.201738,1.4970102
vit_b_16,1,128,NaN,chair,chair,0.00,0128_nse_dnn_0.00_chair_10_n03376595_9139.png,n03376595_9139.png,1.0,2.1857278,1.0821711,0.7803325
vit_b_16,1,129,NaN,clock,oven,0.90,0129_nse_dnn_0.90_oven_10_n04111531_6211.png,n04111531_6211.png,0.0,-0.5936819,3.1658633,-2.6583998
vit_b_16,1,130,NaN,boat,boat,0.00,0130_nse_dnn_0.00_boat_10_n04273569_11427.png,n04273569_11427.png,1.0,4.886252,1.6557127,2.2843363
vit_b_16,1,131,NaN,bicycle,bicycle,0.05,0131_nse_dnn_0.05_bicycle_10_n03792782_17198.png,n03792782_17198.png,1.0,5.97707,1.5323712,3.1428766
vit_b_16,1,132,NaN,clock,clock,0.00,0132_nse_dnn_0.00_clock_10_n04548280_4560.png,n04548280_4560.png,1.0,4.336477,0.81530726,2.489843
vit_b_16,1,133,NaN,knife,knife,0.03,0133_nse_dnn_0.03_knife_10_n03041632_3781.png,n03041632_3781.png,1.0,7.8511477,0.5369738,5.1719017
vit_b_16,1,134,NaN,clock,clock,0.10,0134_nse_dnn_0.10_clock_10_n03196217_958.png,n03196217_958.png,1.0,3.8759968,1.0961626,1.9656397
vit_b_16,1,135,NaN,elephant,elephant,0.35,0135_nse_dnn_0.35_elephant_10_n02504458_485.png,n02504458_485.png,1.0,3.4863834,1.6910886,1.2694652
vit_b_16,1,136,NaN,clock,clock,0.00,0136_nse_dnn_0.00_clock_10_n02708093_1038.png,n02708093_1038.png,1.0,5.6235294,0.99879086,3.270184
vit_b_16,1,137,NaN,oven,oven,0.03,0137_nse_dnn_0.03_oven_10_n04111531_1723.png,n04111531_1723.png,1.0,7.9607353,2.2583795,4.0321746
vit_b_16,1,138,NaN,dog,dog,0.03,0138_nse_dnn_0.03_dog_10_n02110806_27169.png,n02110806_27169.png,1.0,0.9041474,0.29761127,0.42888582
vit_b_16,1,139,NaN,airplane,airplane,0.00,0139_nse_dnn_0.00_airplane_10_n02690373_12505.png,n02690373_12505.png,1.0,8.245378,0.72882444,5.315006
vit_b_16,1,140,NaN,clock,bird,0.60,0140_nse_dnn_0.60_bird_10_n01828970_454.png,n01828970_454.png,0.0,1.1022158,2.7589839,-1.171512
vit_b_16,1,141,NaN,knife,oven,0.20,0141_nse_dnn_0.20_oven_10_n04111531_15635.png,n04111531_15635.png,0.0,0.056735784,3.4490442,-2.3987243
vit_b_16,1,142,NaN,car,car,0.00,0142_nse_dnn_0.00_car_10_n04285008_8700.png,n04285008_8700.png,1.0,5.310472,1.6959743,2.555836
vit_b_16,1,143,NaN,keyboard,keyboard,0.05,0143_nse_dnn_0.05_keyboard_10_n04505470_4592.png,n04505470_4592.png,1.0,4.3213654,2.8335042,1.0520767
vit_b_16,1,144,NaN,airplane,boat,0.20,0144_nse_dnn_0.20_boat_10_n03344393_9560.png,n03344393_9560.png,0.0,1.7731812,3.2233605,-1.0254316
vit_b_16,1,145,NaN,bear,bear,0.00,0145_nse_dnn_0.00_bear_10_n02132136_5138.png,n02132136_5138.png,1.0,1.7828517,1.5500375,0.1646245
vit_b_16,1,146,NaN,clock,chair,0.60,0146_nse_dnn_0.60_chair_10_n03376595_591.png,n03376595_591.png,0.0,0.12922065,3.3783028,-2.297448
vit_b_16,1,147,NaN,clock,keyboard,0.90,0147_nse_dnn_0.90_keyboard_10_n03085013_20590.png,n03085013_20590.png,0.0,0.34710288,3.1492956,-1.9814495
vit_b_16,1,148,NaN,clock,dog,0.35,0148_nse_dnn_0.35_dog_10_n02094258_1224.png,n02094258_1224.png,0.0,-0.73790115,2.4909232,-2.2831237
vit_b_16,1,149,NaN,clock,clock,0.20,0149_nse_dnn_0.20_clock_10_n03196217_4486.png,n03196217_4486.png,1.0,3.4170387,2.177534,0.8764621
vit_b_16,1,150,NaN,airplane,bear,0.20,0150_nse_dnn_0.20_bear_10_n02134084_22150.png,n02134084_22150.png,0.0,0.69583076,3.6326475,-2.076643
vit_b_16,1,151,NaN,cat,cat,0.10,0151_nse_dnn_0.10_cat_10_n02123045_3098.png,n02123045_3098.png,1.0,5.0382967,0.7832002,3.0088077
vit_b_16,1,152,NaN,airplane,bear,0.20,0152_nse_dnn_0.20_bear_10_n02134418_271.png,n02134418_271.png,0.0,0.50978315,1.8283418,-0.9323618
vit_b_16,1,153,NaN,oven,oven,0.05,0153_nse_dnn_0.05_oven_10_n04111531_274.png,n04111531_274.png,1.0,6.4203844,1.7081522,3.3320513
vit_b_16,1,154,NaN,clock,knife,0.35,0154_nse_dnn_0.35_knife_10_n03041632_8563.png,n03041632_8563.png,0.0,0.5896772,2.1213448,-1.0830525
vit_b_16,1,155,NaN,car,car,0.00,0155_nse_dnn_0.00_car_10_n02814533_52389.png,n02814533_52389.png,1.0,2.6435642,1.5034262,0.8061994
vit_b_16,1,156,NaN,airplane,airplane,0.00,0156_nse_dnn_0.00_airplane_10_n02690373_10455.png,n02690373_10455.png,1.0,8.989775,1.1344959,5.554521
vit_b_16,1,157,NaN,airplane,truck,0.35,0157_nse_dnn_0.35_truck_10_n04467665_4810.png,n04467665_4810.png,0.0,-0.96215713,2.6177883,-2.5314038
vit_b_16,1,158,NaN,knife,knife,0.10,0158_nse_dnn_0.10_knife_10_n03041632_3159.png,n03041632_3159.png,1.0,8.509278,2.319235,4.377022
vit_b_16,1,159,NaN,knife,cat,0.05,0159_nse_dnn_0.05_cat_10_n02123597_13411.png,n02123597_13411.png,0.0,-0.52460706,2.5223966,-2.154557
vit_b_16,1,160,NaN,clock,clock,0.10,0160_nse_dnn_0.10_clock_10_n04548280_2654.png,n04548280_2654.png,1.0,4.307382,2.0222495,1.6158328
vit_b_16,1,161,NaN,clock,elephant,0.90,0161_nse_dnn_0.90_elephant_10_n02504013_405.png,n02504013_405.png,0.0,-0.9695631,3.3878114,-3.0811293
vit_b_16,1,162,NaN,bottle,bottle,0.05,0162_nse_dnn_0.05_bottle_10_n04560804_14729.png,n04560804_14729.png,1.0,1.3705475,1.2616864,0.07697642
vit_b_16,1,163,NaN,clock,bottle,0.90,0163_nse_dnn_0.90_bottle_10_n02823428_5482.png,n02823428_5482.png,0.0,0.36567312,3.3377602,-2.101583
vit_b_16,1,164,NaN,clock,keyboard,0.90,0164_nse_dnn_0.90_keyboard_10_n04505470_4824.png,n04505470_4824.png,0.0,0.3655967,3.1430817,-1.9639784
vit_b_16,1,165,NaN,clock,chair,0.20,0165_nse_dnn_0.20_chair_10_n04099969_14208.png,n04099969_14208.png,0.0,0.17689182,2.5647285,-1.6884556
vit_b_16,1,166,NaN,elephant,elephant,0.00,0166_nse_dnn_0.00_elephant_10_n02504013_1647.png,n02504013_1647.png,1.0,6.870586,0.79817724,4.2938414
vit_b_16,1,167,NaN,cat,cat,0.20,0167_nse_dnn_0.20_cat_10_n02123597_11564.png,n02123597_11564.png,1.0,1.9275516,1.489281,0.3099041
vit_b_16,1,168,NaN,airplane,car,0.35,0168_nse_dnn_0.35_car_10_n03100240_16653.png,n03100240_16653.png,0.0,-0.5111916,2.61269,-2.2089179
vit_b_16,1,169,NaN,oven,oven,0.00,0169_nse_dnn_0.00_oven_10_n04111531_9611.png,n04111531_9611.png,1.0,7.8691306,1.8097116,4.2846565
vit_b_16,1,170,NaN,airplane,car,0.05,0170_nse_dnn_0.05_car_10_n02814533_35054.png,n02814533_35054.png,0.0,0.6100751,4.2907987,-2.6026647
vit_b_16,1,171,NaN,airplane,oven,0.20,0171_nse_dnn_0.20_oven_10_n04111531_3121.png,n04111531_3121.png,0.0,0.6709879,1.5173153,-0.5984438
vit_b_16,1,172,NaN,chair,chair,0.20,0172_nse_dnn_0.20_chair_10_n02791124_4969.png,n02791124_4969.png,1.0,2.9113975,2.551375,0.2545744
vit_b_16,1,173,NaN,airplane,car,0.20,0173_nse_dnn_0.20_car_10_n02814533_211.png,n02814533_211.png,0.0,3.6056945,3.6770537,-0.050458547
vit_b_16,1,174,NaN,airplane,dog,0.00,0174_nse_dnn_0.00_dog_10_n02091244_13118.png,n02091244_13118.png,0.0,0.056963045,1.9270555,-1.322355
vit_b_16,1,175,NaN,airplane,bottle,0.10,0175_nse_dnn_0.10_bottle_10_n04560804_3597.png,n04560804_3597.png,0.0,1.2465146,3.0510778,-1.276019
vit_b_16,1,176,NaN,clock,bottle,0.60,0176_nse_dnn_0.60_bottle_10_n04560804_30885.png,n04560804_30885.png,0.0,0.24217603,2.8301973,-1.8300074
vit_b_16,1,177,NaN,clock,bottle,0.60,0177_nse_dnn_0.60_bottle_10_n04560804_9813.png,n04560804_9813.png,0.0,0.30241987,2.7863414,-1.7563978
vit_b_16,1,178,NaN,clock,boat,0.35,0178_nse_dnn_0.35_boat_10_n02951358_10003.png,n02951358_10003.png,0.0,-0.17453705,2.0288284,-1.5580146
vit_b_16,1,179,NaN,clock,bear,0.35,0179_nse_dnn_0.35_bear_10_n02133161_1500.png,n02133161_1500.png,0.0,-0.4808749,2.711686,-2.2574813
vit_b_16,1,180,NaN,airplane,oven,0.20,0180_nse_dnn_0.20_oven_10_n04111531_4467.png,n04111531_4467.png,0.0,0.9774945,2.3789005,-0.99094373
vit_b_16,1,181,NaN,clock,clock,0.20,0181_nse_dnn_0.20_clock_10_n02708093_8002.png,n02708093_8002.png,1.0,5.6502643,0.6079042,3.5654871
vit_b_16,1,182,NaN,clock,boat,0.90,0182_nse_dnn_0.90_boat_10_n02951358_34261.png,n02951358_34261.png,0.0,-0.46976456,3.209788,-2.6018367
vit_b_16,1,183,NaN,boat,boat,0.00,0183_nse_dnn_0.00_boat_10_n04612504_20067.png,n04612504_20067.png,1.0,2.808968,0.48663008,1.6421411
vit_b_16,1,184,NaN,clock,clock,0.35,0184_nse_dnn_0.35_clock_10_n03196217_6163.png,n03196217_6163.png,1.0,1.8489617,0.850435,0.706065
vit_b_16,1,185,NaN,keyboard,keyboard,0.03,0185_nse_dnn_0.03_keyboard_10_n03085013_23119.png,n03085013_23119.png,1.0,6.0313306,0.74718165,3.7364578
vit_b_16,1,186,NaN,clock,clock,0.60,0186_nse_dnn_0.60_clock_10_n04548280_4358.png,n04548280_4358.png,1.0,3.184331,1.8921634,0.91370046
vit_b_16,1,187,NaN,airplane,dog,0.05,0187_nse_dnn_0.05_dog_10_n02101388_2968.png,n02101388_2968.png,0.0,0.6360657,2.0206385,-0.9790408
vit_b_16,1,188,NaN,oven,oven,0.10,0188_nse_dnn_0.10_oven_10_n04111531_8081.png,n04111531_8081.png,1.0,6.334155,2.1923602,2.9286914
vit_b_16,1,189,NaN,keyboard,keyboard,0.05,0189_nse_dnn_0.05_keyboard_10_n04505470_4994.png,n04505470_4994.png,1.0,5.413147,1.318569,2.8953037
vit_b_16,1,190,NaN,airplane,dog,0.10,0190_nse_dnn_0.10_dog_10_n02101006_16132.png,n02101006_16132.png,0.0,0.60238653,2.7336721,-1.5070466
vit_b_16,1,191,NaN,elephant,elephant,0.10,0191_nse_dnn_0.10_elephant_10_n02504458_6888.png,n02504458_6888.png,1.0,5.925599,0.5220528,3.8208842
vit_b_16,1,192,NaN,clock,bird,0.60,0192_nse_dnn_0.60_bird_10_n02018207_43958.png,n02018207_43958.png,0.0,1.0519274,2.9509919,-1.3428414
vit_b_16,1,193,NaN,cat,cat,0.03,0193_nse_dnn_0.03_cat_10_n02123045_2719.png,n02123045_2719.png,1.0,4.2364593,1.1157956,2.2066424
vit_b_16,1,194,NaN,keyboard,keyboard,0.05,0194_nse_dnn_0.05_keyboard_10_n03085013_5611.png,n03085013_5611.png,1.0,5.8248663,0.38209373,3.8486214
vit_b_16,1,195,NaN,boat,boat,0.03,0195_nse_dnn_0.03_boat_10_n03344393_6892.png,n03344393_6892.png,1.0,2.9870958,0.9033866,1.473405
vit_b_16,1,196,NaN,clock,chair,0.90,0196_nse_dnn_0.90_chair_10_n02791124_5411.png,n02791124_5411.png,0.0,-0.07163526,3.413656,-2.464473
vit_b_16,1,197,NaN,elephant,elephant,0.05,0197_nse_dnn_0.05_elephant_10_n02504013_8391.png,n02504013_8391.png,1.0,6.4608135,1.4506805,3.5426989
vit_b_16,1,198,NaN,clock,chair,0.60,0198_nse_dnn_0.60_chair_10_n02791124_7167.png,n02791124_7167.png,0.0,-0.18154919,3.023883,-2.266583
vit_b_16,1,199,NaN,airplane,truck,0.10,0199_nse_dnn_0.10_truck_10_n03417042_2170.png,n03417042_2170.png,0.0,2.4869492,2.8184485,-0.23440543
vit_b_16,1,200,NaN,clock,chair,0.35,0200_nse_dnn_0.35_chair_10_n04099969_2109.png,n04099969_2109.png,0.0,0.2811796,1.9678062,-1.1926252
vit_b_16,1,201,NaN,clock,chair,0.90,0201_nse_dnn_0.90_chair_10_n04429376_7321.png,n04429376_7321.png,0.0,-0.008684114,3.2784472,-2.324353
vit_b_16,1,202,NaN,clock,airplane,0.35,0202_nse_dnn_0.35_airplane_10_n02690373_1733.png,n02690373_1733.png,0.0,2.4736247,2.6460736,-0.12193977
vit_b_16,1,203,NaN,airplane,bird,0.10,0203_nse_dnn_0.10_bird_10_n02006656_5719.png,n02006656_5719.png,0.0,0.91453725,1.9540923,-0.7350764
vit_b_16,1,204,NaN,bicycle,bicycle,0.03,0204_nse_dnn_0.03_bicycle_10_n03792782_12354.png,n03792782_12354.png,1.0,6.157611,1.3635358,3.389923
vit_b_16,1,205,NaN,airplane,bottle,0.03,0205_nse_dnn_0.03_bottle_10_n04557648_12671.png,n04557648_12671.png,0.0,2.2060394,3.2389004,-0.73034304
vit_b_16,1,206,NaN,elephant,elephant,0.05,0206_nse_dnn_0.05_elephant_10_n02504013_318.png,n02504013_318.png,1.0,6.5428867,3.0459173,2.4727309
vit_b_16,1,207,NaN,clock,boat,0.90,0207_nse_dnn_0.90_boat_10_n04273569_16078.png,n04273569_16078.png,0.0,-0.48439032,3.17206,-2.5855007
vit_b_16,1,208,NaN,clock,cat,0.03,0208_nse_dnn_0.03_cat_10_n02123597_9664.png,n02123597_9664.png,0.0,0.5664301,1.9029016,-0.9450281
vit_b_16,1,209,NaN,clock,clock,0.35,0209_nse_dnn_0.35_clock_10_n04548280_4113.png,n04548280_4113.png,1.0,2.6461544,2.1352918,0.3612344
vit_b_16,1,210,NaN,clock,keyboard,0.60,0210_nse_dnn_0.60_keyboard_10_n03085013_20363.png,n03085013_20363.png,0.0,0.520123,3.1475532,-1.8578738
vit_b_16,1,211,NaN,airplane,truck,0.03,0211_nse_dnn_0.03_truck_10_n04467665_67908.png,n04467665_67908.png,0.0,2.4263227,3.6606317,-0.87278825
vit_b_16,1,212,NaN,clock,truck,0.90,0212_nse_dnn_0.90_truck_10_n04467665_61522.png,n04467665_61522.png,0.0,-1.3627634,3.2897933,-3.2898543
vit_b_16,1,213,NaN,clock,cat,0.90,0213_nse_dnn_0.90_cat_10_n02123045_3648.png,n02123045_3648.png,0.0,-0.27771547,3.2833874,-2.51808
vit_b_16,1,214,NaN,clock,dog,0.60,0214_nse_dnn_0.60_dog_10_n02107574_3685.png,n02107574_3685.png,0.0,-0.88729185,3.26019,-2.9327126
vit_b_16,1,215,NaN,clock,dog,0.20,0215_nse_dnn_0.20_dog_10_n02100236_4048.png,n02100236_4048.png,0.0,0.7356304,1.8812238,-0.81005687
vit_b_16,1,216,NaN,clock,bear,0.35,0216_nse_dnn_0.35_bear_10_n02134418_5073.png,n02134418_5073.png,0.0,-0.12816495,2.1898327,-1.639072
vit_b_16,1,217,NaN,clock,airplane,0.90,0217_nse_dnn_0.90_airplane_10_n02690373_9012.png,n02690373_9012.png,0.0,1.2911063,3.1299992,-1.3002936
vit_b_16,1,218,NaN,clock,cat,0.35,0218_nse_dnn_0.35_cat_10_n02123159_6439.png,n02123159_6439.png,0.0,0.27674738,2.2823591,-1.4181817
vit_b_16,1,219,NaN,clock,cat,0.60,0219_nse_dnn_0.60_cat_10_n02125311_3616.png,n02125311_3616.png,0.0,-0.32060665,2.9334838,-2.3009896
vit_b_16,1,220,NaN,clock,bottle,0.60,0220_nse_dnn_0.60_bottle_10_n04557648_4356.png,n04557648_4356.png,0.0,0.52050406,3.2422192,-1.9245433
vit_b_16,1,221,NaN,airplane,bird,0.35,0221_nse_dnn_0.35_bird_10_n02027492_6813.png,n02027492_6813.png,0.0,1.1507617,2.2351007,-0.7667435
vit_b_16,1,222,NaN,chair,chair,0.03,0222_nse_dnn_0.03_chair_10_n04429376_26765.png,n04429376_26765.png,1.0,2.1261306,1.3535837,0.5462732
vit_b_16,1,223,NaN,clock,elephant,0.35,0223_nse_dnn_0.35_elephant_10_n02504458_4811.png,n02504458_4811.png,0.0,-0.1330839,2.607084,-1.9375913
vit_b_16,1,224,NaN,keyboard,keyboard,0.20,0224_nse_dnn_0.20_keyboard_10_n04505470_1351.png,n04505470_1351.png,1.0,4.972548,1.7056516,2.3100445
vit_b_16,1,225,NaN,chair,chair,0.05,0225_nse_dnn_0.05_chair_10_n04099969_2532.png,n04099969_2532.png,1.0,2.6788976,0.3794538,1.6259522
vit_b_16,1,226,NaN,airplane,airplane,0.10,0226_nse_dnn_0.10_airplane_10_n02690373_8547.png,n02690373_8547.png,1.0,5.4510326,2.4446056,2.125865
vit_b_16,1,227,NaN,clock,truck,0.35,0227_nse_dnn_0.35_truck_10_n03417042_23445.png,n03417042_23445.png,0.0,-0.95880294,2.067047,-2.139599
vit_b_16,1,228,NaN,clock,truck,0.90,0228_nse_dnn_0.90_truck_10_n04467665_48953.png,n04467665_48953.png,0.0,-1.3072371,3.2535105,-3.2249355
vit_b_16,1,229,NaN,clock,boat,0.20,0229_nse_dnn_0.20_boat_10_n03662601_11739.png,n03662601_11739.png,0.0,0.43063766,2.7538242,-1.6427411
vit_b_16,1,230,NaN,cat,cat,0.03,0230_nse_dnn_0.03_cat_10_n02123597_4948.png,n02123597_4948.png,1.0,1.9447289,0.9924269,0.6733792
vit_b_16,1,231,NaN,clock,oven,0.35,0231_nse_dnn_0.35_oven_10_n04111531_9411.png,n04111531_9411.png,0.0,0.947898,2.130247,-0.8360472
vit_b_16,1,232,NaN,clock,bicycle,0.60,0232_nse_dnn_0.60_bicycle_10_n03792782_988.png,n03792782_988.png,0.0,-0.98107564,2.99691,-2.8128607
vit_b_16,1,233,NaN,car,car,0.05,0233_nse_dnn_0.05_car_10_n02814533_65294.png,n02814533_65294.png,1.0,4.0197635,2.7751348,0.8800854
vit_b_16,1,234,NaN,bottle,bottle,0.00,0234_nse_dnn_0.00_bottle_10_n04557648_10420.png,n04557648_10420.png,1.0,4.3590913,1.1615047,2.2610352
vit_b_16,1,235,NaN,clock,chair,0.60,0235_nse_dnn_0.60_chair_10_n04099969_33329.png,n04099969_33329.png,0.0,0.0074285716,3.0942612,-2.1827202
vit_b_16,1,236,NaN,clock,oven,0.35,0236_nse_dnn_0.35_oven_10_n04111531_20493.png,n04111531_20493.png,0.0,-0.852348,1.8841385,-1.9349881
vit_b_16,1,237,NaN,clock,clock,0.10,0237_nse_dnn_0.10_clock_10_n04548280_7839.png,n04548280_7839.png,1.0,6.0314555,1.0974789,3.4888484
vit_b_16,1,238,NaN,airplane,airplane,0.20,0238_nse_dnn_0.20_airplane_10_n02690373_7229.png,n02690373_7229.png,1.0,3.7141156,2.0680175,1.1639671
vit_b_16,1,239,NaN,airplane,airplane,0.10,0239_nse_dnn_0.10_airplane_10_n02690373_5003.png,n02690373_5003.png,1.0,4.9452896,0.5944203,3.0765293
vit_b_16,1,240,NaN,chair,chair,0.20,0240_nse_dnn_0.20_chair_10_n02791124_206.png,n02791124_206.png,1.0,2.8783538,1.7379242,0.80640554
vit_b_16,1,241,NaN,oven,oven,0.00,0241_nse_dnn_0.00_oven_10_n04111531_7283.png,n04111531_7283.png,1.0,5.1297283,2.4536147,1.8922981
vit_b_16,1,242,NaN,clock,chair,0.35,0242_nse_dnn_0.35_chair_10_n04429376_8124.png,n04429376_8124.png,0.0,0.25243422,2.9170558,-1.8841721
vit_b_16,1,243,NaN,keyboard,keyboard,0.00,0243_nse_dnn_0.00_keyboard_10_n04505470_3864.png,n04505470_3864.png,1.0,6.736993,2.6550558,2.8863652
vit_b_16,1,244,NaN,clock,bottle,0.35,0244_nse_dnn_0.35_bottle_10_n03937543_3289.png,n03937543_3289.png,0.0,0.28597805,2.292365,-1.4187299
vit_b_16,1,245,NaN,airplane,boat,0.10,0245_nse_dnn_0.10_boat_10_n03344393_5207.png,n03344393_5207.png,0.0,2.2249253,2.5826128,-0.25292325
vit_b_16,1,246,NaN,clock,airplane,0.90,0246_nse_dnn_0.90_airplane_10_n02690373_629.png,n02690373_629.png,0.0,1.5547179,3.135286,-1.1176305
vit_b_16,1,247,NaN,clock,elephant,0.03,0247_nse_dnn_0.03_elephant_10_n02504013_104.png,n02504013_104.png,0.0,-0.5008958,1.388504,-1.3360074
vit_b_16,1,248,NaN,bicycle,bicycle,0.03,0248_nse_dnn_0.03_bicycle_10_n03792782_42626.png,n03792782_42626.png,1.0,5.7499104,0.6426265,3.611395
vit_b_16,1,249,NaN,clock,truck,0.35,0249_nse_dnn_0.35_truck_10_n03417042_6847.png,n03417042_6847.png,0.0,-0.91971326,2.4454448,-2.3795261
vit_b_16,1,250,NaN,clock,chair,0.10,0250_nse_dnn_0.10_chair_10_n04429376_23573.png,n04429376_23573.png,0.0,0.3727036,2.5309527,-1.5261127
vit_b_16,1,251,NaN,clock,clock,0.03,0251_nse_dnn_0.03_clock_10_n03196217_7637.png,n03196217_7637.png,1.0,4.2629476,1.4727976,1.972934
vit_b_16,1,252,NaN,airplane,airplane,0.05,0252_nse_dnn_0.05_airplane_10_n02690373_932.png,n02690373_932.png,1.0,7.5337105,0.15929408,5.2145
vit_b_16,1,253,NaN,truck,truck,0.05,0253_nse_dnn_0.05_truck_10_n03417042_9478.png,n03417042_9478.png,1.0,4.0904646,2.9738097,0.78959423
vit_b_16,1,254,NaN,clock,clock,0.05,0254_nse_dnn_0.05_clock_10_n04548280_7800.png,n04548280_7800.png,1.0,5.034889,0.4993775,3.2070913
vit_b_16,1,255,NaN,keyboard,keyboard,0.10,0255_nse_dnn_0.10_keyboard_10_n03085013_1698.png,n03085013_1698.png,1.0,3.4025562,1.3784523,1.4312576
vit_b_16,1,256,NaN,airplane,boat,0.20,0256_nse_dnn_0.20_boat_10_n04273569_32553.png,n04273569_32553.png,0.0,1.7397518,2.5402546,-0.56604093
vit_b_16,1,257,NaN,bear,bear,0.03,0257_nse_dnn_0.03_bear_10_n02132136_23078.png,n02132136_23078.png,1.0,4.749669,1.4651216,2.3225257
vit_b_16,1,258,NaN,bottle,bottle,0.00,0258_nse_dnn_0.00_bottle_10_n04591713_5476.png,n04591713_5476.png,1.0,2.291414,1.7143253,0.40806335
vit_b_16,1,259,NaN,knife,knife,0.10,0259_nse_dnn_0.10_knife_10_n03041632_31849.png,n03041632_31849.png,1.0,3.760301,3.2612004,0.3529175
vit_b_16,1,260,NaN,clock,truck,0.90,0260_nse_dnn_0.90_truck_10_n03417042_12908.png,n03417042_12908.png,0.0,-1.3952394,3.3106651,-3.327577
vit_b_16,1,261,NaN,clock,clock,0.60,0261_nse_dnn_0.60_clock_10_n02708093_1418.png,n02708093_1418.png,1.0,3.4124324,1.8241798,1.1230643
vit_b_16,1,262,NaN,car,car,0.05,0262_nse_dnn_0.05_car_10_n03100240_4173.png,n03100240_4173.png,1.0,5.794212,1.6503476,2.9301546
vit_b_16,1,263,NaN,keyboard,keyboard,0.10,0263_nse_dnn_0.10_keyboard_10_n03085013_25476.png,n03085013_25476.png,1.0,4.416224,2.1699634,1.5883461
vit_b_16,1,264,NaN,airplane,cat,0.05,0264_nse_dnn_0.05_cat_10_n02125311_34464.png,n02125311_34464.png,0.0,1.3028889,2.5535145,-0.88432586
vit_b_16,1,265,NaN,clock,knife,0.20,0265_nse_dnn_0.20_knife_10_n03041632_36789.png,n03041632_36789.png,0.0,0.833041,2.8698146,-1.4402165
vit_b_16,1,266,NaN,airplane,dog,0.03,0266_nse_dnn_0.03_dog_10_n02108915_3733.png,n02108915_3733.png,0.0,-0.24382162,1.714995,-1.3850926
vit_b_16,1,267,NaN,clock,knife,0.60,0267_nse_dnn_0.60_knife_10_n03041632_42162.png,n03041632_42162.png,0.0,1.0478207,3.1218445,-1.4665563
vit_b_16,1,268,NaN,clock,keyboard,0.10,0268_nse_dnn_0.10_keyboard_10_n03085013_29042.png,n03085013_29042.png,0.0,2.5751343,2.6276815,-0.037156492
vit_b_16,1,269,NaN,airplane,airplane,0.00,0269_nse_dnn_0.00_airplane_10_n02690373_19407.png,n02690373_19407.png,1.0,8.621621,0.40219212,5.812014
vit_b_16,1,270,NaN,airplane,bear,0.05,0270_nse_dnn_0.05_bear_10_n02134084_22029.png,n02134084_22029.png,0.0,1.2074212,4.1841636,-2.1048746
vit_b_16,1,271,NaN,clock,dog,0.60,0271_nse_dnn_0.60_dog_10_n02088238_11711.png,n02088238_11711.png,0.0,-0.85504115,3.0013406,-2.7268739
vit_b_16,1,272,NaN,clock,elephant,0.20,0272_nse_dnn_0.20_elephant_10_n02504013_8522.png,n02504013_8522.png,0.0,1.5662193,1.7511705,-0.13078023
vit_b_16,1,273,NaN,clock,elephant,0.60,0273_nse_dnn_0.60_elephant_10_n02504458_5941.png,n02504458_5941.png,0.0,-0.84831256,3.0786655,-2.776793
vit_b_16,1,274,NaN,truck,truck,0.00,0274_nse_dnn_0.00_truck_10_n04467665_242.png,n04467665_242.png,1.0,3.2567766,1.0818415,1.5379114
vit_b_16,1,275,NaN,keyboard,keyboard,0.00,0275_nse_dnn_0.00_keyboard_10_n04505470_4473.png,n04505470_4473.png,1.0,5.1706014,0.47947648,3.3171263
vit_b_16,1,276,NaN,boat,boat,0.05,0276_nse_dnn_0.05_boat_10_n03662601_10811.png,n03662601_10811.png,1.0,1.1490419,0.7093568,0.31090432
vit_b_16,1,277,NaN,keyboard,keyboard,0.03,0277_nse_dnn_0.03_keyboard_10_n03085013_20495.png,n03085013_20495.png,1.0,5.941346,0.62078226,3.7622068
vit_b_16,1,278,NaN,bicycle,bicycle,0.00,0278_nse_dnn_0.00_bicycle_10_n02835271_15038.png,n02835271_15038.png,1.0,5.657374,2.3646348,2.328318
vit_b_16,1,279,NaN,clock,bear,0.20,0279_nse_dnn_0.20_bear_10_n02134418_5271.png,n02134418_5271.png,0.0,-0.19376823,2.092514,-1.6166457
vit_b_16,1,280,NaN,chair,chair,0.10,0280_nse_dnn_0.10_chair_10_n02791124_1217.png,n02791124_1217.png,1.0,2.3900058,1.732303,0.46506613
vit_b_16,1,281,NaN,airplane,elephant,0.10,0281_nse_dnn_0.10_elephant_10_n02504013_2394.png,n02504013_2394.png,0.0,-0.11760907,1.9398562,-1.4548477
vit_b_16,1,282,NaN,clock,dog,0.35,0282_nse_dnn_0.35_dog_10_n02105505_5576.png,n02105505_5576.png,0.0,-0.7463529,2.6766398,-2.4204214
vit_b_16,1,283,NaN,airplane,airplane,0.10,0283_nse_dnn_0.10_airplane_10_n02690373_2579.png,n02690373_2579.png,1.0,7.209121,0.5170774,4.7319894
vit_b_16,1,284,NaN,airplane,dog,0.05,0284_nse_dnn_0.05_dog_10_n02102480_10015.png,n02102480_10015.png,0.0,0.6072305,2.8643858,-1.5960499
vit_b_16,1,285,NaN,cat,cat,0.10,0285_nse_dnn_0.10_cat_10_n02124075_5853.png,n02124075_5853.png,1.0,3.4788854,2.2905684,0.84026706
vit_b_16,1,286,NaN,truck,truck,0.00,0286_nse_dnn_0.00_truck_10_n03796401_2012.png,n03796401_2012.png,1.0,3.6912408,0.82663333,2.0255833
vit_b_16,1,287,NaN,keyboard,keyboard,0.10,0287_nse_dnn_0.10_keyboard_10_n04505470_1286.png,n04505470_1286.png,1.0,5.4248476,0.46313512,3.5084605
vit_b_16,1,288,NaN,truck,truck,0.10,0288_nse_dnn_0.10_truck_10_n04467665_74008.png,n04467665_74008.png,1.0,2.4314961,0.5406047,1.3370621
vit_b_16,1,289,NaN,clock,bottle,0.90,0289_nse_dnn_0.90_bottle_10_n04560804_10541.png,n04560804_10541.png,0.0,0.38711,3.4218197,-2.1458638
vit_b_16,1,290,NaN,airplane,airplane,0.20,0290_nse_dnn_0.20_airplane_10_n02690373_8967.png,n02690373_8967.png,1.0,6.469843,0.47079924,4.2419643
vit_b_16,1,291,NaN,clock,keyboard,0.60,0291_nse_dnn_0.60_keyboard_10_n04505470_3309.png,n04505470_3309.png,0.0,0.5293255,2.792916,-1.6006002
vit_b_16,1,292,NaN,car,car,0.05,0292_nse_dnn_0.05_car_10_n02814533_42665.png,n02814533_42665.png,1.0,4.3324122,1.9122196,1.7113347
vit_b_16,1,293,NaN,bicycle,bicycle,0.03,0293_nse_dnn_0.03_bicycle_10_n03792782_6613.png,n03792782_6613.png,1.0,2.0933743,1.8719275,0.1565865
vit_b_16,1,294,NaN,knife,knife,0.00,0294_nse_dnn_0.00_knife_10_n03041632_38540.png,n03041632_38540.png,1.0,8.905997,0.40856105,6.008595
vit_b_16,1,295,NaN,clock,dog,0.90,0295_nse_dnn_0.90_dog_10_n02109047_6542.png,n02109047_6542.png,0.0,-0.87146723,3.1990824,-2.8783133
vit_b_16,1,296,NaN,clock,bicycle,0.35,0296_nse_dnn_0.35_bicycle_10_n03792782_51156.png,n03792782_51156.png,0.0,-0.3056273,1.4684094,-1.2544334
vit_b_16,1,297,NaN,airplane,bottle,0.10,0297_nse_dnn_0.10_bottle_10_n04579145_5795.png,n04579145_5795.png,0.0,1.8778765,1.9807283,-0.07272717
vit_b_16,1,298,NaN,chair,chair,0.03,0298_nse_dnn_0.03_chair_10_n03376595_787.png,n03376595_787.png,1.0,2.2816563,1.0809039,0.8490602
vit_b_16,1,299,NaN,clock,bottle,0.90,0299_nse_dnn_0.90_bottle_10_n04579145_1117.png,n04579145_1117.png,0.0,0.25566807,3.2787597,-2.1376486
vit_b_16,1,300,NaN,knife,bird,0.00,0300_nse_dnn_0.00_bird_10_n01795545_11076.png,n01795545_11076.png,0.0,-0.16235638,0.9648235,-0.7970365
vit_b_16,1,301,NaN,keyboard,clock,0.20,0301_nse_dnn_0.20_clock_10_n03196217_6741.png,n03196217_6741.png,0.0,1.7403883,1.8399966,-0.070433706
vit_b_16,1,302,NaN,oven,oven,0.00,0302_nse_dnn_0.00_oven_10_n04111531_3555.png,n04111531_3555.png,1.0,5.0509086,1.5020901,2.5093937
vit_b_16,1,303,NaN,clock,knife,0.20,0303_nse_dnn_0.20_knife_10_n03041632_36280.png,n03041632_36280.png,0.0,1.9254465,2.484706,-0.39545614
vit_b_16,1,304,NaN,truck,truck,0.03,0304_nse_dnn_0.03_truck_10_n04467665_74235.png,n04467665_74235.png,1.0,1.8633256,1.0759672,0.5567465
vit_b_16,1,305,NaN,clock,clock,0.90,0305_nse_dnn_0.90_clock_10_n04548280_6287.png,n04548280_6287.png,1.0,3.1989539,1.6880447,1.0683742
vit_b_16,1,306,NaN,elephant,elephant,0.00,0306_nse_dnn_0.00_elephant_10_n02504458_6472.png,n02504458_6472.png,1.0,6.0611124,2.136672,2.7749984
vit_b_16,1,307,NaN,bicycle,bicycle,0.05,0307_nse_dnn_0.05_bicycle_10_n03792782_11034.png,n03792782_11034.png,1.0,5.0818224,2.1640108,2.0632045
vit_b_16,1,308,NaN,clock,dog,0.60,0308_nse_dnn_0.60_dog_10_n02109525_50916.png,n02109525_50916.png,0.0,-0.7813616,2.892894,-2.5980911
vit_b_16,1,309,NaN,clock,dog,0.60,0309_nse_dnn_0.60_dog_10_n02097658_1923.png,n02097658_1923.png,0.0,-0.8861984,3.311517,-2.968233
vit_b_16,1,310,NaN,knife,knife,0.03,0310_nse_dnn_0.03_knife_10_n03041632_22480.png,n03041632_22480.png,1.0,6.865208,1.3635614,3.8902519
vit_b_16,1,311,NaN,clock,elephant,0.35,0311_nse_dnn_0.35_elephant_10_n02504458_1041.png,n02504458_1041.png,0.0,-0.6404449,2.697405,-2.3602164
vit_b_16,1,312,NaN,airplane,knife,0.10,0312_nse_dnn_0.10_knife_10_n03041632_28129.png,n03041632_28129.png,0.0,1.3870968,2.3493657,-0.6804269
vit_b_16,1,313,NaN,car,car,0.00,0313_nse_dnn_0.00_car_10_n03100240_14667.png,n03100240_14667.png,1.0,5.5799165,1.3081652,3.0205843
vit_b_16,1,314,NaN,airplane,airplane,0.03,0314_nse_dnn_0.03_airplane_10_n02690373_3821.png,n02690373_3821.png,1.0,8.943587,0.2935381,6.1165085
vit_b_16,1,315,NaN,clock,cat,0.90,0315_nse_dnn_0.90_cat_10_n02124075_1183.png,n02124075_1183.png,0.0,-0.39396763,3.4664638,-2.7297373
vit_b_16,1,316,NaN,clock,car,0.90,0316_nse_dnn_0.90_car_10_n03100240_1194.png,n03100240_1194.png,0.0,-0.7896786,3.135814,-2.7757425
vit_b_16,1,317,NaN,clock,oven,0.60,0317_nse_dnn_0.60_oven_10_n04111531_9370.png,n04111531_9370.png,0.0,-0.7793812,3.273103,-2.865539
vit_b_16,1,318,NaN,airplane,truck,0.20,0318_nse_dnn_0.20_truck_10_n03417042_10597.png,n03417042_10597.png,0.0,-0.15936558,2.385384,-1.7994099
vit_b_16,1,319,NaN,airplane,truck,0.05,0319_nse_dnn_0.05_truck_10_n03417042_6489.png,n03417042_6489.png,0.0,1.0997999,2.4225464,-0.93532306
vit_b_16,1,320,NaN,bottle,bottle,0.05,0320_nse_dnn_0.05_bottle_10_n04591713_6662.png,n04591713_6662.png,1.0,2.1883845,1.9396158,0.17590603
vit_b_16,1,321,NaN,clock,bottle,0.60,0321_nse_dnn_0.60_bottle_10_n04560804_4624.png,n04560804_4624.png,0.0,0.5546688,3.1114,-1.8078821
vit_b_16,1,322,NaN,knife,bird,0.00,0322_nse_dnn_0.00_bird_10_n01818515_7370.png,n01818515_7370.png,0.0,-0.06597979,3.0411131,-2.1970465
vit_b_16,1,323,NaN,keyboard,keyboard,0.05,0323_nse_dnn_0.05_keyboard_10_n03085013_15646.png,n03085013_15646.png,1.0,7.287757,1.4134684,4.1537495
vit_b_16,1,324,NaN,cat,cat,0.03,0324_nse_dnn_0.03_cat_10_n02124075_14924.png,n02124075_14924.png,1.0,3.2064095,1.47988,1.2208407
vit_b_16,1,325,NaN,elephant,elephant,0.20,0325_nse_dnn_0.20_elephant_10_n02504013_18217.png,n02504013_18217.png,1.0,3.5343175,2.0414114,1.055644
vit_b_16,1,326,NaN,keyboard,keyboard,0.35,0326_nse_dnn_0.35_keyboard_10_n04505470_4724.png,n04505470_4724.png,1.0,5.95823,2.4994552,2.445723
vit_b_16,1,327,NaN,clock,clock,0.20,0327_nse_dnn_0.20_clock_10_n04548280_9646.png,n04548280_9646.png,1.0,5.2379003,0.47706386,3.3664198
vit_b_16,1,328,NaN,clock,cat,0.35,0328_nse_dnn_0.35_cat_10_n02123394_6376.png,n02123394_6376.png,0.0,0.6761064,2.4278088,-1.2386405
vit_b_16,1,329,NaN,clock,elephant,0.35,0329_nse_dnn_0.35_elephant_10_n02504458_130.png,n02504458_130.png,0.0,-0.5935333,2.6481633,-2.2922256
vit_b_16,1,330,NaN,clock,cat,0.90,0330_nse_dnn_0.90_cat_10_n02124075_9291.png,n02124075_9291.png,0.0,-0.2826713,3.175009,-2.4449492
vit_b_16,1,331,NaN,airplane,bird,0.10,0331_nse_dnn_0.10_bird_10_n02037110_3949.png,n02037110_3949.png,0.0,1.0999454,2.363537,-0.89349425
vit_b_16,1,332,NaN,car,car,0.00,0332_nse_dnn_0.00_car_10_n04285008_10905.png,n04285008_10905.png,1.0,6.461846,1.6099896,3.4307804
vit_b_16,1,333,NaN,chair,chair,0.10,0333_nse_dnn_0.10_chair_10_n04429376_619.png,n04429376_619.png,1.0,3.5340214,1.5885048,1.375688
vit_b_16,1,334,NaN,clock,boat,0.90,0334_nse_dnn_0.90_boat_10_n02951358_30335.png,n02951358_30335.png,0.0,-0.6208056,3.1937153,-2.6972735
vit_b_16,1,335,NaN,clock,oven,0.90,0335_nse_dnn_0.90_oven_10_n04111531_17995.png,n04111531_17995.png,0.0,-0.573404,3.2159092,-2.679449
vit_b_16,1,336,NaN,clock,bird,0.35,0336_nse_dnn_0.35_bird_10_n01828970_11221.png,n01828970_11221.png,0.0,0.2708628,2.3374627,-1.4613068
vit_b_16,1,337,NaN,elephant,elephant,0.10,0337_nse_dnn_0.10_elephant_10_n02504013_1719.png,n02504013_1719.png,1.0,5.3988647,2.5196397,2.0359197
vit_b_16,1,338,NaN,oven,oven,0.10,0338_nse_dnn_0.10_oven_10_n04111531_8009.png,n04111531_8009.png,1.0,3.9487655,2.3696797,1.1165823
vit_b_16,1,339,NaN,clock,airplane,0.60,0339_nse_dnn_0.60_airplane_10_n02690373_8233.png,n02690373_8233.png,0.0,2.0680475,2.8544471,-0.5560685
vit_b_16,1,340,NaN,elephant,dog,0.10,0340_nse_dnn_0.10_dog_10_n02092339_401.png,n02092339_401.png,0.0,1.0305146,3.2640657,-1.579359
vit_b_16,1,341,NaN,clock,bottle,0.10,0341_nse_dnn_0.10_bottle_10_n02823428_11579.png,n02823428_11579.png,0.0,2.9698212,3.6286545,-0.46586546
vit_b_16,1,342,NaN,clock,car,0.60,0342_nse_dnn_0.60_car_10_n04285008_6951.png,n04285008_6951.png,0.0,-0.77745104,3.1210728,-2.7566726
vit_b_16,1,343,NaN,airplane,bicycle,0.35,0343_nse_dnn_0.35_bicycle_10_n03792782_12504.png,n03792782_12504.png,0.0,-0.72755265,2.348288,-2.174948
vit_b_16,1,344,NaN,bottle,bottle,0.00,0344_nse_dnn_0.00_bottle_10_n02823428_4073.png,n02823428_4073.png,1.0,2.777743,0.7108308,1.4615276
vit_b_16,1,345,NaN,clock,elephant,0.35,0345_nse_dnn_0.35_elephant_10_n02504013_945.png,n02504013_945.png,0.0,-0.7911418,2.8677742,-2.5872443
vit_b_16,1,346,NaN,cat,cat,0.10,0346_nse_dnn_0.10_cat_10_n02124075_12815.png,n02124075_12815.png,1.0,4.0256767,1.6059781,1.7109854
vit_b_16,1,347,NaN,clock,truck,0.60,0347_nse_dnn_0.60_truck_10_n03417042_4876.png,n03417042_4876.png,0.0,-1.2633898,3.0755017,-3.0680597
vit_b_16,1,348,NaN,airplane,keyboard,0.05,0348_nse_dnn_0.05_keyboard_10_n04505470_4628.png,n04505470_4628.png,0.0,1.929153,2.465221,-0.3790573
vit_b_16,1,349,NaN,airplane,bear,0.20,0349_nse_dnn_0.20_bear_10_n02133161_1427.png,n02133161_1427.png,0.0,0.23614249,1.3453838,-0.784352
vit_b_16,1,350,NaN,clock,boat,0.60,0350_nse_dnn_0.60_boat_10_n04273569_7296.png,n04273569_7296.png,0.0,-0.54175013,3.2436438,-2.6766777
vit_b_16,1,351,NaN,clock,chair,0.90,0351_nse_dnn_0.90_chair_10_n04099969_41686.png,n04099969_41686.png,0.0,-0.11009322,3.2284029,-2.3606732
vit_b_16,1,352,NaN,airplane,airplane,0.03,0352_nse_dnn_0.03_airplane_10_n02690373_10006.png,n02690373_10006.png,1.0,7.894215,1.4505893,4.5563316
vit_b_16,1,353,NaN,clock,knife,0.90,0353_nse_dnn_0.90_knife_10_n03041632_20595.png,n03041632_20595.png,0.0,1.427584,3.2209675,-1.2681136
vit_b_16,1,354,NaN,clock,oven,0.90,0354_nse_dnn_0.90_oven_10_n04111531_2054.png,n04111531_2054.png,0.0,-0.69498247,3.222639,-2.770177
vit_b_16,1,355,NaN,truck,truck,0.20,0355_nse_dnn_0.20_truck_10_n04467665_40307.png,n04467665_40307.png,1.0,3.3264265,2.1083803,0.8612887
vit_b_16,1,356,NaN,bear,bear,0.00,0356_nse_dnn_0.00_bear_10_n02133161_396.png,n02133161_396.png,1.0,5.1679754,2.643808,1.784856
vit_b_16,1,357,NaN,clock,dog,0.03,0357_nse_dnn_0.03_dog_10_n02105056_5636.png,n02105056_5636.png,0.0,-0.1785206,0.43018603,-0.4304206
vit_b_16,1,358,NaN,clock,bicycle,0.35,0358_nse_dnn_0.35_bicycle_10_n02835271_8798.png,n02835271_8798.png,0.0,-0.42625403,1.5035847,-1.3646021
vit_b_16,1,359,NaN,clock,bear,0.90,0359_nse_dnn_0.90_bear_10_n02134418_5478.png,n02134418_5478.png,0.0,-0.78064346,3.334898,-2.9101274
vit_b_16,1,360,NaN,clock,boat,0.90,0360_nse_dnn_0.90_boat_10_n04612504_4250.png,n04612504_4250.png,0.0,-0.5837358,3.3167229,-2.758041
vit_b_16,1,361,NaN,clock,knife,0.35,0361_nse_dnn_0.35_knife_10_n03041632_18959.png,n03041632_18959.png,0.0,0.6353865,1.8826224,-0.88192886
vit_b_16,1,362,NaN,clock,dog,0.35,0362_nse_dnn_0.35_dog_10_n02105251_6564.png,n02105251_6564.png,0.0,-0.72064316,2.5576327,-2.3180912
vit_b_16,1,363,NaN,clock,boat,0.90,0363_nse_dnn_0.90_boat_10_n04612504_7148.png,n04612504_7148.png,0.0,-0.4544775,2.9782975,-2.4273386
vit_b_16,1,364,NaN,boat,boat,0.03,0364_nse_dnn_0.03_boat_10_n04273569_4348.png,n04273569_4348.png,1.0,2.307976,1.4474705,0.60846925
vit_b_16,1,365,NaN,car,car,0.03,0365_nse_dnn_0.03_car_10_n02814533_88986.png,n02814533_88986.png,1.0,4.2722144,1.2932899,2.1064177
vit_b_16,1,366,NaN,bear,bear,0.03,0366_nse_dnn_0.03_bear_10_n02134418_2590.png,n02134418_2590.png,1.0,3.6434538,0.15364245,2.4676692
vit_b_16,1,367,NaN,elephant,bird,0.20,0367_nse_dnn_0.20_bird_10_n02007558_5877.png,n02007558_5877.png,0.0,0.049589194,5.1102943,-3.578459
vit_b_16,1,368,NaN,clock,clock,0.05,0368_nse_dnn_0.05_clock_10_n02708093_1313.png,n02708093_1313.png,1.0,4.8335814,2.8875055,1.3760835
vit_b_16,1,369,NaN,clock,keyboard,0.35,0369_nse_dnn_0.35_keyboard_10_n03085013_20798.png,n03085013_20798.png,0.0,0.2702184,2.8251197,-1.806588
vit_b_16,1,370,NaN,clock,dog,0.90,0370_nse_dnn_0.90_dog_10_n02109525_13812.png,n02109525_13812.png,0.0,-0.91334295,3.3979473,-3.0485427
vit_b_16,1,371,NaN,bear,bear,0.20,0371_nse_dnn_0.20_bear_10_n02134418_4458.png,n02134418_4458.png,1.0,1.2718921,1.2345649,0.026394296
vit_b_16,1,372,NaN,airplane,bottle,0.20,0372_nse_dnn_0.20_bottle_10_n04560804_21519.png,n04560804_21519.png,0.0,0.93297094,2.3615117,-1.0101309
vit_b_16,1,373,NaN,elephant,elephant,0.10,0373_nse_dnn_0.10_elephant_10_n02504458_8183.png,n02504458_8183.png,1.0,5.4464464,0.57295066,3.4460819
vit_b_16,1,374,NaN,clock,keyboard,0.90,0374_nse_dnn_0.90_keyboard_10_n03085013_20330.png,n03085013_20330.png,0.0,0.3246343,3.219613,-2.047059
vit_b_16,1,375,NaN,elephant,elephant,0.10,0375_nse_dnn_0.10_elephant_10_n02504013_5533.png,n02504013_5533.png,1.0,4.635583,2.1949673,1.725776
vit_b_16,1,376,NaN,clock,oven,0.90,0376_nse_dnn_0.90_oven_10_n04111531_1009.png,n04111531_1009.png,0.0,-0.44059327,3.315593,-2.6560247
vit_b_16,1,377,NaN,bicycle,bicycle,0.05,0377_nse_dnn_0.05_bicycle_10_n03792782_48457.png,n03792782_48457.png,1.0,4.889953,1.3610444,2.4953153
vit_b_16,1,378,NaN,airplane,cat,0.10,0378_nse_dnn_0.10_cat_10_n02124075_7240.png,n02124075_7240.png,0.0,0.18599637,1.988928,-1.2748652
vit_b_16,1,379,NaN,clock,car,0.60,0379_nse_dnn_0.60_car_10_n02814533_39597.png,n02814533_39597.png,0.0,-0.8598526,3.0554483,-2.7685359
vit_b_16,1,380,NaN,chair,chair,0.03,0380_nse_dnn_0.03_chair_10_n04429376_33792.png,n04429376_33792.png,1.0,3.707448,2.4316347,0.90213627
vit_b_16,1,381,NaN,clock,bicycle,0.60,0381_nse_dnn_0.60_bicycle_10_n03792782_15679.png,n03792782_15679.png,0.0,-1.1019115,3.277958,-3.0970354
vit_b_16,1,382,NaN,clock,bicycle,0.60,0382_nse_dnn_0.60_bicycle_10_n02835271_9237.png,n02835271_9237.png,0.0,-0.98136085,3.0219529,-2.8307703
vit_b_16,1,383,NaN,clock,bottle,0.35,0383_nse_dnn_0.35_bottle_10_n04591713_665.png,n04591713_665.png,0.0,1.8597146,2.0879302,-0.16137278
vit_b_16,1,384,NaN,cat,cat,0.03,0384_nse_dnn_0.03_cat_10_n02123159_8257.png,n02123159_8257.png,1.0,5.0016775,0.6106904,3.1048968
vit_b_16,1,385,NaN,bear,dog,0.10,0385_nse_dnn_0.10_dog_10_n02108551_26509.png,n02108551_26509.png,0.0,0.38964912,4.8171225,-3.1306965
vit_b_16,1,386,NaN,clock,clock,0.60,0386_nse_dnn_0.60_clock_10_n03196217_3697.png,n03196217_3697.png,1.0,2.9759576,1.9695221,0.7116574
vit_b_16,1,387,NaN,bicycle,bicycle,0.03,0387_nse_dnn_0.03_bicycle_10_n02835271_25268.png,n02835271_25268.png,1.0,4.1425114,1.5351136,1.8437086
vit_b_16,1,388,NaN,oven,truck,0.10,0388_nse_dnn_0.10_truck_10_n03796401_407.png,n03796401_407.png,0.0,1.1693723,2.3398426,-0.82764745
vit_b_16,1,389,NaN,clock,clock,0.05,0389_nse_dnn_0.05_clock_10_n04548280_2045.png,n04548280_2045.png,1.0,5.387072,0.4920049,3.4613352
vit_b_16,1,390,NaN,oven,oven,0.05,0390_nse_dnn_0.05_oven_10_n04111531_5792.png,n04111531_5792.png,1.0,2.6576061,2.34876,0.21838728
vit_b_16,1,391,NaN,airplane,elephant,0.05,0391_nse_dnn_0.05_elephant_10_n02504458_8212.png,n02504458_8212.png,0.0,1.5138445,2.0971165,-0.4124356
vit_b_16,1,392,NaN,bottle,bird,0.03,0392_nse_dnn_0.03_bird_10_n01843383_8624.png,n01843383_8624.png,0.0,-0.45733947,1.758901,-1.5671186
vit_b_16,1,393,NaN,airplane,airplane,0.20,0393_nse_dnn_0.20_airplane_10_n02690373_4814.png,n02690373_4814.png,1.0,4.7568445,1.5226668,2.2869089
vit_b_16,1,394,NaN,clock,truck,0.60,0394_nse_dnn_0.60_truck_10_n03796401_6184.png,n03796401_6184.png,0.0,-1.2836107,2.9998465,-3.0288618
vit_b_16,1,395,NaN,cat,dog,0.03,0395_nse_dnn_0.03_dog_10_n02094114_1589.png,n02094114_1589.png,0.0,0.9033457,1.4341437,-0.37533084
vit_b_16,1,396,NaN,clock,clock,0.90,0396_nse_dnn_0.90_clock_10_n02708093_6572.png,n02708093_6572.png,1.0,3.2114408,1.6417292,1.1099538
vit_b_16,1,397,NaN,clock,boat,0.60,0397_nse_dnn_0.60_boat_10_n02951358_15551.png,n02951358_15551.png,0.0,-0.2653907,2.947606,-2.271932
vit_b_16,1,398,NaN,clock,boat,0.35,0398_nse_dnn_0.35_boat_10_n03662601_7352.png,n03662601_7352.png,0.0,0.3304439,2.4972954,-1.5321954
vit_b_16,1,399,NaN,clock,bicycle,0.60,0399_nse_dnn_0.60_bicycle_10_n03792782_14984.png,n03792782_14984.png,0.0,-0.91361946,3.2239656,-2.9257145
vit_b_16,1,400,NaN,clock,knife,0.35,0400_nse_dnn_0.35_knife_10_n03041632_84012.png,n03041632_84012.png,0.0,0.691924,1.7650915,-0.7588441
vit_b_16,1,401,NaN,knife,keyboard,0.10,0401_nse_dnn_0.10_keyboard_10_n03085013_9146.png,n03085013_9146.png,0.0,0.8962108,2.299583,-0.992334
vit_b_16,1,402,NaN,airplane,airplane,0.03,0402_nse_dnn_0.03_airplane_10_n02690373_6755.png,n02690373_6755.png,1.0,8.118342,0.6892309,5.2531753
vit_b_16,1,403,NaN,clock,dog,0.20,0403_nse_dnn_0.20_dog_10_n02086079_17983.png,n02086079_17983.png,0.0,0.2199661,1.7704226,-1.0963384
vit_b_16,1,404,NaN,bear,bear,0.00,0404_nse_dnn_0.00_bear_10_n02134418_3284.png,n02134418_3284.png,1.0,2.4714842,1.2981533,0.82967025
vit_b_16,1,405,NaN,elephant,elephant,0.35,0405_nse_dnn_0.35_elephant_10_n02504458_8064.png,n02504458_8064.png,1.0,3.1393075,1.7559189,0.9782035
vit_b_16,1,406,NaN,clock,cat,0.20,0406_nse_dnn_0.20_cat_10_n02123394_289.png,n02123394_289.png,0.0,1.6741872,1.7995777,-0.088664494
vit_b_16,1,407,NaN,knife,knife,0.20,0407_nse_dnn_0.20_knife_10_n03041632_18995.png,n03041632_18995.png,1.0,2.748554,2.1895561,0.39527118
vit_b_16,1,408,NaN,airplane,bird,0.03,0408_nse_dnn_0.03_bird_10_n01843065_4999.png,n01843065_4999.png,0.0,0.27413136,0.4263898,-0.10766299
vit_b_16,1,409,NaN,clock,keyboard,0.60,0409_nse_dnn_0.60_keyboard_10_n03085013_22417.png,n03085013_22417.png,0.0,0.298992,3.1515725,-2.017079
vit_b_16,1,410,NaN,bear,bear,0.05,0410_nse_dnn_0.05_bear_10_n02132136_3224.png,n02132136_3224.png,1.0,5.404919,0.90901107,3.1790872
vit_b_16,1,411,NaN,boat,boat,0.05,0411_nse_dnn_0.05_boat_10_n03662601_33184.png,n03662601_33184.png,1.0,3.212541,1.7974871,1.0005943
vit_b_16,1,412,NaN,airplane,bear,0.05,0412_nse_dnn_0.05_bear_10_n02133161_2396.png,n02133161_2396.png,0.0,0.58857286,1.4531626,-0.6113573
vit_b_16,1,413,NaN,airplane,keyboard,0.35,0413_nse_dnn_0.35_keyboard_10_n03085013_24578.png,n03085013_24578.png,0.0,0.8452195,2.9413588,-1.4821944
vit_b_16,1,414,NaN,clock,car,0.35,0414_nse_dnn_0.35_car_10_n02814533_4519.png,n02814533_4519.png,0.0,-0.330766,2.3134556,-1.869747
vit_b_16,1,415,NaN,bottle,bottle,0.00,0415_nse_dnn_0.00_bottle_10_n03937543_2428.png,n03937543_2428.png,1.0,2.3793533,0.6986479,1.1884382
vit_b_16,1,416,NaN,dog,dog,0.05,0416_nse_dnn_0.05_dog_10_n02091635_8296.png,n02091635_8296.png,1.0,0.4370493,0.42144522,0.01103375
vit_b_16,1,417,NaN,clock,bottle,0.35,0417_nse_dnn_0.35_bottle_10_n03983396_11434.png,n03983396_11434.png,0.0,1.3778044,2.6854413,-0.9246389
vit_b_16,1,418,NaN,boat,boat,0.00,0418_nse_dnn_0.00_boat_10_n02951358_7315.png,n02951358_7315.png,1.0,3.4429169,2.9819512,0.32595193
vit_b_16,1,419,NaN,elephant,bird,0.20,0419_nse_dnn_0.20_bird_10_n01860187_7297.png,n01860187_7297.png,0.0,0.15445535,2.2470353,-1.4796774
vit_b_16,1,420,NaN,airplane,oven,0.20,0420_nse_dnn_0.20_oven_10_n04111531_4250.png,n04111531_4250.png,0.0,1.0866758,1.6223162,-0.37875503
vit_b_16,1,421,NaN,airplane,bear,0.20,0421_nse_dnn_0.20_bear_10_n02133161_9463.png,n02133161_9463.png,0.0,0.035015352,1.7467808,-1.2104009
vit_b_16,1,422,NaN,bird,bird,0.00,0422_nse_dnn_0.00_bird_10_n02009229_4129.png,n02009229_4129.png,1.0,0.22473481,0.19536178,0.020769872
vit_b_16,1,423,NaN,knife,knife,0.10,0423_nse_dnn_0.10_knife_10_n03041632_30821.png,n03041632_30821.png,1.0,3.4441159,3.407664,0.025775326
vit_b_16,1,424,NaN,clock,cat,0.90,0424_nse_dnn_0.90_cat_10_n02123394_2490.png,n02123394_2490.png,0.0,-0.28491637,3.3685234,-2.583372
vit_b_16,1,425,NaN,airplane,dog,0.00,0425_nse_dnn_0.00_dog_10_n02087394_2723.png,n02087394_2723.png,0.0,0.36113325,1.2641903,-0.6385578
vit_b_16,1,426,NaN,clock,dog,0.90,0426_nse_dnn_0.90_dog_10_n02093754_5736.png,n02093754_5736.png,0.0,-0.88783157,3.3250153,-2.9789326
vit_b_16,1,427,NaN,clock,bottle,0.60,0427_nse_dnn_0.60_bottle_10_n02823428_9063.png,n02823428_9063.png,0.0,0.37380543,3.2248695,-2.0160067
vit_b_16,1,428,NaN,clock,truck,0.60,0428_nse_dnn_0.60_truck_10_n04467665_20933.png,n04467665_20933.png,0.0,-1.2609785,2.7925446,-2.8662736
vit_b_16,1,429,NaN,car,car,0.10,0429_nse_dnn_0.10_car_10_n03100240_5999.png,n03100240_5999.png,1.0,5.476587,2.3962083,2.1781566
vit_b_16,1,430,NaN,clock,oven,0.03,0430_nse_dnn_0.03_oven_10_n04111531_3671.png,n04111531_3671.png,0.0,1.290994,2.8510926,-1.1031562
vit_b_16,1,431,NaN,airplane,truck,0.05,0431_nse_dnn_0.05_truck_10_n03417042_7187.png,n03417042_7187.png,0.0,0.9748277,1.8553535,-0.62262577
vit_b_16,1,432,NaN,clock,bottle,0.35,0432_nse_dnn_0.35_bottle_10_n04557648_2954.png,n04557648_2954.png,0.0,0.15383665,2.5525794,-1.6961672
vit_b_16,1,433,NaN,clock,elephant,0.35,0433_nse_dnn_0.35_elephant_10_n02504013_6645.png,n02504013_6645.png,0.0,-0.63839084,2.8505554,-2.4670575
vit_b_16,1,434,NaN,keyboard,keyboard,0.10,0434_nse_dnn_0.10_keyboard_10_n04505470_6876.png,n04505470_6876.png,1.0,6.4019375,1.788992,3.261845
vit_b_16,1,435,NaN,airplane,bird,0.20,0435_nse_dnn_0.20_bird_10_n02056570_3286.png,n02056570_3286.png,0.0,-0.15206234,1.038073,-0.84155273
vit_b_16,1,436,NaN,clock,bird,0.90,0436_nse_dnn_0.90_bird_10_n02037110_8826.png,n02037110_8826.png,0.0,1.0165579,3.180556,-1.5301778
vit_b_16,1,437,NaN,car,car,0.00,0437_nse_dnn_0.00_car_10_n03100240_11400.png,n03100240_11400.png,1.0,5.066011,1.3910415,2.5985959
vit_b_16,1,438,NaN,clock,bird,0.60,0438_nse_dnn_0.60_bird_10_n02018795_6389.png,n02018795_6389.png,0.0,1.5619034,3.0636322,-1.0618827
vit_b_16,1,439,NaN,clock,oven,0.35,0439_nse_dnn_0.35_oven_10_n04111531_2458.png,n04111531_2458.png,0.0,-0.77398884,2.6231241,-2.4021215
vit_b_16,1,440,NaN,clock,cat,0.60,0440_nse_dnn_0.60_cat_10_n02123159_2256.png,n02123159_2256.png,0.0,-0.25586954,3.153949,-2.4111059
vit_b_16,1,441,NaN,elephant,elephant,0.03,0441_nse_dnn_0.03_elephant_10_n02504458_611.png,n02504458_611.png,1.0,5.7312775,0.8076903,3.481502
vit_b_16,1,442,NaN,knife,knife,0.03,0442_nse_dnn_0.03_knife_10_n03041632_18141.png,n03041632_18141.png,1.0,7.6884823,0.957572,4.7594724
vit_b_16,1,443,NaN,clock,bird,0.60,0443_nse_dnn_0.60_bird_10_n01843065_1871.png,n01843065_1871.png,0.0,1.487506,3.0147686,-1.0799377
vit_b_16,1,444,NaN,airplane,bird,0.05,0444_nse_dnn_0.05_bird_10_n01833805_7361.png,n01833805_7361.png,0.0,1.1660013,2.2014384,-0.7321646
vit_b_16,1,445,NaN,elephant,elephant,0.20,0445_nse_dnn_0.20_elephant_10_n02504458_5827.png,n02504458_5827.png,1.0,2.5588,1.7849592,0.5471881
vit_b_16,1,446,NaN,clock,bicycle,0.35,0446_nse_dnn_0.35_bicycle_10_n02835271_5825.png,n02835271_5825.png,0.0,-0.47886634,2.1444817,-1.8549871
vit_b_16,1,447,NaN,clock,bear,0.90,0447_nse_dnn_0.90_bear_10_n02134084_12801.png,n02134084_12801.png,0.0,-0.8223545,3.4082377,-2.9914806
vit_b_16,1,448,NaN,cat,cat,0.10,0448_nse_dnn_0.10_cat_10_n02123394_3611.png,n02123394_3611.png,1.0,3.7728703,1.6865672,1.4752392
vit_b_16,1,449,NaN,clock,chair,0.35,0449_nse_dnn_0.35_chair_10_n04429376_9589.png,n04429376_9589.png,0.0,-0.13917664,2.935112,-2.1738503
vit_b_16,1,450,NaN,clock,cat,0.35,0450_nse_dnn_0.35_cat_10_n02123394_3885.png,n02123394_3885.png,0.0,-0.29501137,2.1843383,-1.753165
vit_b_16,1,451,NaN,clock,elephant,0.90,0451_nse_dnn_0.90_elephant_10_n02504013_22633.png,n02504013_22633.png,0.0,-0.92371976,3.2043931,-2.9190166
vit_b_16,1,452,NaN,airplane,car,0.20,0452_nse_dnn_0.20_car_10_n02814533_2271.png,n02814533_2271.png,0.0,3.492674,3.9628,-0.33242923
vit_b_16,1,453,NaN,truck,truck,0.05,0453_nse_dnn_0.05_truck_10_n03417042_10150.png,n03417042_10150.png,1.0,3.7931545,0.7933226,2.1212015
vit_b_16,1,454,NaN,clock,oven,0.35,0454_nse_dnn_0.35_oven_10_n04111531_10583.png,n04111531_10583.png,0.0,-0.742523,2.8976123,-2.5739644
vit_b_16,1,455,NaN,airplane,bottle,0.03,0455_nse_dnn_0.03_bottle_10_n03937543_1602.png,n03937543_1602.png,0.0,1.2311202,2.4742882,-0.8790525
vit_b_16,1,456,NaN,chair,knife,0.03,0456_nse_dnn_0.03_knife_10_n03041632_3504.png,n03041632_3504.png,0.0,1.4361635,1.7799138,-0.24306813
vit_b_16,1,457,NaN,bicycle,bicycle,0.03,0457_nse_dnn_0.03_bicycle_10_n03792782_1004.png,n03792782_1004.png,1.0,7.745923,1.2341101,4.6045475
vit_b_16,1,458,NaN,cat,cat,0.05,0458_nse_dnn_0.05_cat_10_n02123394_8172.png,n02123394_8172.png,1.0,1.8119634,0.4118021,0.99006355
vit_b_16,1,459,NaN,elephant,elephant,0.10,0459_nse_dnn_0.10_elephant_10_n02504013_156.png,n02504013_156.png,1.0,3.6581125,1.838469,1.2866822
vit_b_16,1,460,NaN,airplane,car,0.03,0460_nse_dnn_0.03_car_10_n04285008_5559.png,n04285008_5559.png,0.0,0.62089235,1.1899356,-0.40237433
vit_b_16,1,461,NaN,clock,elephant,0.35,0461_nse_dnn_0.35_elephant_10_n02504458_6694.png,n02504458_6694.png,0.0,-0.23845965,1.7564567,-1.410619
vit_b_16,1,462,NaN,clock,car,0.90,0462_nse_dnn_0.90_car_10_n04285008_15003.png,n04285008_15003.png,0.0,-0.7620697,3.3310692,-2.8942862
vit_b_16,1,463,NaN,chair,chair,0.10,0463_nse_dnn_0.10_chair_10_n03376595_15723.png,n03376595_15723.png,1.0,2.5288684,1.5674282,0.6798409
vit_b_16,1,464,NaN,clock,knife,0.60,0464_nse_dnn_0.60_knife_10_n03041632_48816.png,n03041632_48816.png,0.0,1.0703306,2.9859707,-1.3545622
vit_b_16,1,465,NaN,clock,chair,0.90,0465_nse_dnn_0.90_chair_10_n03376595_4142.png,n03376595_4142.png,0.0,-0.045017228,3.2519157,-2.3312836
vit_b_16,1,466,NaN,clock,car,0.60,0466_nse_dnn_0.60_car_10_n04285008_2363.png,n04285008_2363.png,0.0,-0.740381,3.0309181,-2.6667113
vit_b_16,1,467,NaN,truck,truck,0.10,0467_nse_dnn_0.10_truck_10_n03417042_7335.png,n03417042_7335.png,1.0,3.3307533,1.3642321,1.3905406
vit_b_16,1,468,NaN,oven,oven,0.00,0468_nse_dnn_0.00_oven_10_n04111531_6313.png,n04111531_6313.png,1.0,8.829487,1.735638,5.0161085
vit_b_16,1,469,NaN,bird,bird,0.05,0469_nse_dnn_0.05_bird_10_n02033041_6728.png,n02033041_6728.png,1.0,1.6341894,0.38139528,0.8858592
vit_b_16,1,470,NaN,clock,clock,0.00,0470_nse_dnn_0.00_clock_10_n04548280_1032.png,n04548280_1032.png,1.0,3.3087132,2.136861,0.8286246
vit_b_16,1,471,NaN,airplane,airplane,0.03,0471_nse_dnn_0.03_airplane_10_n02690373_1983.png,n02690373_1983.png,1.0,8.721837,0.16649917,6.0495377
vit_b_16,1,472,NaN,keyboard,keyboard,0.00,0472_nse_dnn_0.00_keyboard_10_n03085013_23369.png,n03085013_23369.png,1.0,2.7153587,2.0549922,0.46694967
vit_b_16,1,473,NaN,clock,elephant,0.90,0473_nse_dnn_0.90_elephant_10_n02504458_2419.png,n02504458_2419.png,0.0,-0.89744604,3.3635654,-3.0129902
vit_b_16,1,474,NaN,airplane,truck,0.20,0474_nse_dnn_0.20_truck_10_n04467665_72022.png,n04467665_72022.png,0.0,0.95501816,3.6175725,-1.8827102
vit_b_16,1,475,NaN,airplane,bottle,0.05,0475_nse_dnn_0.05_bottle_10_n04579145_5289.png,n04579145_5289.png,0.0,1.6410905,2.220592,-0.40976945
vit_b_16,1,476,NaN,clock,clock,0.05,0476_nse_dnn_0.05_clock_10_n02708093_2898.png,n02708093_2898.png,1.0,5.919719,2.5080144,2.4124396
vit_b_16,1,477,NaN,airplane,dog,0.20,0477_nse_dnn_0.20_dog_10_n02101556_4066.png,n02101556_4066.png,0.0,0.042862106,2.1225839,-1.4705853
vit_b_16,1,478,NaN,clock,car,0.90,0478_nse_dnn_0.90_car_10_n04285008_17052.png,n04285008_17052.png,0.0,-0.86667967,3.3031323,-2.9485025
vit_b_16,1,479,NaN,clock,truck,0.90,0479_nse_dnn_0.90_truck_10_n04467665_37811.png,n04467665_37811.png,0.0,-1.2689749,3.3131196,-3.2400303
vit_b_16,1,480,NaN,keyboard,keyboard,0.20,0480_nse_dnn_0.20_keyboard_10_n04505470_578.png,n04505470_578.png,1.0,6.1776943,0.8961042,3.7346482
vit_b_16,1,481,NaN,cat,cat,0.10,0481_nse_dnn_0.10_cat_10_n02123045_2721.png,n02123045_2721.png,1.0,2.4089005,2.2490754,0.1130134
vit_b_16,1,482,NaN,car,car,0.10,0482_nse_dnn_0.10_car_10_n04285008_7776.png,n04285008_7776.png,1.0,4.9367027,1.6087478,2.3532195
vit_b_16,1,483,NaN,clock,bottle,0.90,0483_nse_dnn_0.90_bottle_10_n04591713_2014.png,n04591713_2014.png,0.0,0.38039508,3.2985737,-2.063464
vit_b_16,1,484,NaN,bottle,bottle,0.10,0484_nse_dnn_0.10_bottle_10_n03983396_9662.png,n03983396_9662.png,1.0,4.3337426,2.6302297,1.2045655
vit_b_16,1,485,NaN,clock,bicycle,0.35,0485_nse_dnn_0.35_bicycle_10_n03792782_10367.png,n03792782_10367.png,0.0,-0.77168685,2.6828444,-2.4427226
vit_b_16,1,486,NaN,clock,keyboard,0.60,0486_nse_dnn_0.60_keyboard_10_n03085013_22942.png,n03085013_22942.png,0.0,0.41436765,3.2662888,-2.0166128
vit_b_16,1,487,NaN,cat,cat,0.00,0487_nse_dnn_0.00_cat_10_n02123597_3896.png,n02123597_3896.png,1.0,2.7431896,1.3164908,1.0088284
vit_b_16,1,488,NaN,bicycle,bicycle,0.03,0488_nse_dnn_0.03_bicycle_10_n03792782_2649.png,n03792782_2649.png,1.0,5.990247,4.1613727,1.2932093
vit_b_16,1,489,NaN,bear,bear,0.10,0489_nse_dnn_0.10_bear_10_n02133161_2476.png,n02133161_2476.png,1.0,2.2010224,1.2523891,0.67078507
vit_b_16,1,490,NaN,car,car,0.10,0490_nse_dnn_0.10_car_10_n04285008_7249.png,n04285008_7249.png,1.0,4.907425,3.4146647,1.0555409
vit_b_16,1,491,NaN,chair,chair,0.20,0491_nse_dnn_0.20_chair_10_n04099969_8604.png,n04099969_8604.png,1.0,3.4102051,1.7157217,1.1981807
vit_b_16,1,492,NaN,bicycle,bicycle,0.05,0492_nse_dnn_0.05_bicycle_10_n02835271_5963.png,n02835271_5963.png,1.0,5.4637628,1.4568847,2.8332906
vit_b_16,1,493,NaN,clock,airplane,0.90,0493_nse_dnn_0.90_airplane_10_n02690373_17011.png,n02690373_17011.png,0.0,1.5632577,3.244628,-1.1889083
vit_b_16,1,494,NaN,clock,bird,0.90,0494_nse_dnn_0.90_bird_10_n02028035_889.png,n02028035_889.png,0.0,1.2144034,3.3303,-1.4961649
vit_b_16,1,495,NaN,clock,cat,0.60,0495_nse_dnn_0.60_cat_10_n02123159_7949.png,n02123159_7949.png,0.0,-0.37995958,3.2210906,-2.546327
vit_b_16,1,496,NaN,car,car,0.03,0496_nse_dnn_0.03_car_10_n03100240_15686.png,n03100240_15686.png,1.0,4.910067,2.9879093,1.3591708
vit_b_16,1,497,NaN,clock,cat,0.35,0497_nse_dnn_0.35_cat_10_n02123159_6106.png,n02123159_6106.png,0.0,0.3014141,2.3608677,-1.4562538
vit_b_16,1,498,NaN,cat,cat,0.00,0498_nse_dnn_0.00_cat_10_n02123394_7105.png,n02123394_7105.png,1.0,1.579566,1.3240411,0.18068337
vit_b_16,1,499,NaN,airplane,clock,0.35,0499_nse_dnn_0.35_clock_10_n04548280_4747.png,n04548280_4747.png,0.0,0.62745523,2.670856,-1.4449025
vit_b_16,1,500,NaN,clock,elephant,0.20,0500_nse_dnn_0.20_elephant_10_n02504458_975.png,n02504458_975.png,0.0,0.030273141,1.712217,-1.1893139
vit_b_16,1,501,NaN,airplane,boat,0.20,0501_nse_dnn_0.20_boat_10_n03344393_11590.png,n03344393_11590.png,0.0,1.3957132,2.3072295,-0.64453936
vit_b_16,1,502,NaN,clock,airplane,0.90,0502_nse_dnn_0.90_airplane_10_n02690373_2026.png,n02690373_2026.png,0.0,1.4649471,3.2351131,-1.2516965
vit_b_16,1,503,NaN,clock,clock,0.60,0503_nse_dnn_0.60_clock_10_n03196217_2346.png,n03196217_2346.png,1.0,3.0575187,1.7960544,0.89199
vit_b_16,1,504,NaN,clock,truck,0.60,0504_nse_dnn_0.60_truck_10_n04467665_34932.png,n04467665_34932.png,0.0,-1.3385689,3.328265,-3.29995
vit_b_16,1,505,NaN,clock,oven,0.35,0505_nse_dnn_0.35_oven_10_n04111531_13625.png,n04111531_13625.png,0.0,-0.5732522,2.8627148,-2.4295955
vit_b_16,1,506,NaN,airplane,airplane,0.00,0506_nse_dnn_0.00_airplane_10_n02690373_8666.png,n02690373_8666.png,1.0,8.41694,0.8780238,5.3308187
vit_b_16,1,507,NaN,clock,oven,0.35,0507_nse_dnn_0.35_oven_10_n04111531_4148.png,n04111531_4148.png,0.0,-0.92325485,2.7022905,-2.5636477
vit_b_16,1,508,NaN,knife,dog,0.00,0508_nse_dnn_0.00_dog_10_n02107683_7021.png,n02107683_7021.png,0.0,-0.221219,2.194793,-1.7083786
vit_b_16,1,509,NaN,airplane,bird,0.05,0509_nse_dnn_0.05_bird_10_n02025239_22440.png,n02025239_22440.png,0.0,0.18261307,2.1031487,-1.3580238
vit_b_16,1,510,NaN,clock,elephant,0.90,0510_nse_dnn_0.90_elephant_10_n02504013_7032.png,n02504013_7032.png,0.0,-0.8810577,3.2820148,-2.9437368
vit_b_16,1,511,NaN,clock,truck,0.90,0511_nse_dnn_0.90_truck_10_n03417042_10788.png,n03417042_10788.png,0.0,-1.3248131,3.2223408,-3.2153234
vit_b_16,1,512,NaN,clock,knife,0.05,0512_nse_dnn_0.05_knife_10_n03041632_86118.png,n03041632_86118.png,0.0,0.96103823,1.9144272,-0.6741478
vit_b_16,1,513,NaN,bottle,bottle,0.00,0513_nse_dnn_0.00_bottle_10_n04557648_9790.png,n04557648_9790.png,1.0,4.081283,1.3873861,1.9048729
vit_b_16,1,514,NaN,clock,chair,0.90,0514_nse_dnn_0.90_chair_10_n02791124_8788.png,n02791124_8788.png,0.0,-0.042291462,3.1697464,-2.2712538
vit_b_16,1,515,NaN,airplane,dog,0.03,0515_nse_dnn_0.03_dog_10_n02095314_4996.png,n02095314_4996.png,0.0,0.26253754,1.975048,-1.2109277
vit_b_16,1,516,NaN,keyboard,keyboard,0.20,0516_nse_dnn_0.20_keyboard_10_n04505470_4679.png,n04505470_4679.png,1.0,5.339282,3.3990424,1.3719567
vit_b_16,1,517,NaN,airplane,bird,0.03,0517_nse_dnn_0.03_bird_10_n01860187_24935.png,n01860187_24935.png,0.0,0.40109724,1.4584893,-0.7476891
vit_b_16,1,518,NaN,clock,bicycle,0.60,0518_nse_dnn_0.60_bicycle_10_n02835271_14123.png,n02835271_14123.png,0.0,-1.025122,2.930579,-2.797103
vit_b_16,1,519,NaN,clock,boat,0.10,0519_nse_dnn_0.10_boat_10_n03344393_7075.png,n03344393_7075.png,0.0,1.8917234,2.4929092,-0.42510256
vit_b_16,1,520,NaN,knife,knife,0.03,0520_nse_dnn_0.03_knife_10_n03041632_13130.png,n03041632_13130.png,1.0,8.845395,0.8105053,5.681525
vit_b_16,1,521,NaN,clock,bottle,0.20,0521_nse_dnn_0.20_bottle_10_n04591713_5569.png,n04591713_5569.png,0.0,0.56595564,2.4111755,-1.3047675
vit_b_16,1,522,NaN,elephant,elephant,0.05,0522_nse_dnn_0.05_elephant_10_n02504013_19753.png,n02504013_19753.png,1.0,6.169387,1.0823638,3.5970683
vit_b_16,1,523,NaN,clock,dog,0.60,0523_nse_dnn_0.60_dog_10_n02099849_4819.png,n02099849_4819.png,0.0,-0.8679855,3.1296937,-2.826786
vit_b_16,1,524,NaN,clock,elephant,0.90,0524_nse_dnn_0.90_elephant_10_n02504458_12938.png,n02504458_12938.png,0.0,-0.99474275,3.235049,-2.9909143
vit_b_16,1,525,NaN,bottle,bottle,0.03,0525_nse_dnn_0.03_bottle_10_n02823428_901.png,n02823428_901.png,1.0,3.4147377,1.5440279,1.3227916
vit_b_16,1,526,NaN,bicycle,bicycle,0.00,0526_nse_dnn_0.00_bicycle_10_n03792782_2024.png,n03792782_2024.png,1.0,5.9041815,2.964296,2.0788128
vit_b_16,1,527,NaN,truck,truck,0.05,0527_nse_dnn_0.05_truck_10_n03417042_24856.png,n03417042_24856.png,1.0,3.087679,1.3874923,1.2022135
vit_b_16,1,528,NaN,elephant,elephant,0.00,0528_nse_dnn_0.00_elephant_10_n02504013_19694.png,n02504013_19694.png,1.0,6.8870983,0.8580914,4.2631516
vit_b_16,1,529,NaN,clock,bird,0.20,0529_nse_dnn_0.20_bird_10_n01530575_10119.png,n01530575_10119.png,0.0,-0.20088457,2.031818,-1.5787591
vit_b_16,1,530,NaN,chair,bottle,0.20,0530_nse_dnn_0.20_bottle_10_n04557648_954.png,n04557648_954.png,0.0,-0.12528238,2.0380304,-1.5296931
vit_b_16,1,531,NaN,clock,cat,0.90,0531_nse_dnn_0.90_cat_10_n02123159_277.png,n02123159_277.png,0.0,-0.28719607,3.2503834,-2.5014465
vit_b_16,1,532,NaN,knife,knife,0.00,0532_nse_dnn_0.00_knife_10_n03041632_289.png,n03041632_289.png,1.0,9.493805,1.1996742,5.8648357
vit_b_16,1,533,NaN,clock,truck,0.35,0533_nse_dnn_0.35_truck_10_n04467665_450.png,n04467665_450.png,0.0,-1.0557905,2.586606,-2.5755632
vit_b_16,1,534,NaN,knife,knife,0.00,0534_nse_dnn_0.00_knife_10_n03041632_1607.png,n03041632_1607.png,1.0,8.669569,1.1086807,5.3463554
vit_b_16,1,535,NaN,airplane,bird,0.20,0535_nse_dnn_0.20_bird_10_n01532829_4692.png,n01532829_4692.png,0.0,0.5605493,1.4919043,-0.6585674
vit_b_16,1,536,NaN,clock,dog,0.10,0536_nse_dnn_0.10_dog_10_n02102177_4771.png,n02102177_4771.png,0.0,0.19211084,2.1642063,-1.3944821
vit_b_16,1,537,NaN,car,car,0.10,0537_nse_dnn_0.10_car_10_n04285008_14554.png,n04285008_14554.png,1.0,5.9738216,1.4608257,3.19117
vit_b_16,1,538,NaN,clock,clock,0.00,0538_nse_dnn_0.00_clock_10_n04548280_3716.png,n04548280_3716.png,1.0,4.8951354,1.5893801,2.337522
vit_b_16,1,539,NaN,car,car,0.03,0539_nse_dnn_0.03_car_10_n04285008_6849.png,n04285008_6849.png,1.0,4.6377974,2.724805,1.3526899
vit_b_16,1,540,NaN,clock,keyboard,0.35,0540_nse_dnn_0.35_keyboard_10_n03085013_24467.png,n03085013_24467.png,0.0,0.44186002,2.5255988,-1.4734259
vit_b_16,1,541,NaN,clock,clock,0.35,0541_nse_dnn_0.35_clock_10_n03196217_6672.png,n03196217_6672.png,1.0,3.0250905,2.2208056,0.5687153
vit_b_16,1,542,NaN,airplane,dog,0.10,0542_nse_dnn_0.10_dog_10_n02105251_5570.png,n02105251_5570.png,0.0,0.4278571,2.1918871,-1.2473576
vit_b_16,1,543,NaN,elephant,dog,0.35,0543_nse_dnn_0.35_dog_10_n02107574_3352.png,n02107574_3352.png,0.0,-0.37358198,2.32947,-1.9113463
vit_b_16,1,544,NaN,clock,boat,0.60,0544_nse_dnn_0.60_boat_10_n03662601_8191.png,n03662601_8191.png,0.0,-0.29965848,3.005821,-2.337327
vit_b_16,1,545,NaN,boat,boat,0.00,0545_nse_dnn_0.00_boat_10_n04612504_30617.png,n04612504_30617.png,1.0,3.1248784,0.61033916,1.7780478
vit_b_16,1,546,NaN,clock,bear,0.60,0546_nse_dnn_0.60_bear_10_n02132136_2900.png,n02132136_2900.png,0.0,-0.79660916,3.123682,-2.7720644
vit_b_16,1,547,NaN,truck,truck,0.10,0547_nse_dnn_0.10_truck_10_n03417042_8139.png,n03417042_8139.png,1.0,3.8927407,1.6675724,1.5734316
vit_b_16,1,548,NaN,chair,chair,0.03,0548_nse_dnn_0.03_chair_10_n03376595_5112.png,n03376595_5112.png,1.0,3.6791968,1.8713796,1.2783198
vit_b_16,1,549,NaN,elephant,bird,0.05,0549_nse_dnn_0.05_bird_10_n02006656_10360.png,n02006656_10360.png,0.0,0.85581005,1.6354761,-0.5513072
vit_b_16,1,550,NaN,clock,elephant,0.20,0550_nse_dnn_0.20_elephant_10_n02504458_2799.png,n02504458_2799.png,0.0,0.370049,1.8911716,-1.0755961
vit_b_16,1,551,NaN,airplane,airplane,0.10,0551_nse_dnn_0.10_airplane_10_n02690373_6096.png,n02690373_6096.png,1.0,8.707996,0.26264468,5.9717655
vit_b_16,1,552,NaN,airplane,bird,0.20,0552_nse_dnn_0.20_bird_10_n02002556_139.png,n02002556_139.png,0.0,1.7714217,2.6652064,-0.6320013
vit_b_16,1,553,NaN,car,car,0.00,0553_nse_dnn_0.00_car_10_n04285008_3056.png,n04285008_3056.png,1.0,5.449203,1.9978793,2.4404545
vit_b_16,1,554,NaN,knife,knife,0.10,0554_nse_dnn_0.10_knife_10_n03041632_14774.png,n03041632_14774.png,1.0,5.579229,2.4192946,2.234411
vit_b_16,1,555,NaN,clock,oven,0.20,0555_nse_dnn_0.20_oven_10_n04111531_2163.png,n04111531_2163.png,0.0,0.69720346,2.0860827,-0.982086
vit_b_16,1,556,NaN,cat,cat,0.20,0556_nse_dnn_0.20_cat_10_n02123597_30864.png,n02123597_30864.png,1.0,3.5941162,1.6496416,1.3749511
vit_b_16,1,557,NaN,airplane,boat,0.35,0557_nse_dnn_0.35_boat_10_n02951358_33559.png,n02951358_33559.png,0.0,0.29323298,2.414526,-1.4999807
vit_b_16,1,558,NaN,clock,bicycle,0.60,0558_nse_dnn_0.60_bicycle_10_n02835271_4619.png,n02835271_4619.png,0.0,-1.0541606,3.1600208,-2.9798763
vit_b_16,1,559,NaN,truck,truck,0.03,0559_nse_dnn_0.03_truck_10_n03796401_21261.png,n03796401_21261.png,1.0,1.2742411,0.3600221,0.64645046
vit_b_16,1,560,NaN,airplane,airplane,0.10,0560_nse_dnn_0.10_airplane_10_n02690373_2496.png,n02690373_2496.png,1.0,6.623954,2.9439816,2.6021333
vit_b_16,1,561,NaN,clock,boat,0.35,0561_nse_dnn_0.35_boat_10_n03662601_5419.png,n03662601_5419.png,0.0,0.008633709,2.3019354,-1.6216093
vit_b_16,1,562,NaN,airplane,airplane,0.03,0562_nse_dnn_0.03_airplane_10_n02690373_7686.png,n02690373_7686.png,1.0,8.191588,0.42942515,5.4886785
vit_b_16,1,563,NaN,clock,oven,0.90,0563_nse_dnn_0.90_oven_10_n04111531_5246.png,n04111531_5246.png,0.0,-0.5825929,3.1626437,-2.6482823
vit_b_16,1,564,NaN,clock,bicycle,0.60,0564_nse_dnn_0.60_bicycle_10_n03792782_1099.png,n03792782_1099.png,0.0,-1.0028621,3.1184256,-2.9141905
vit_b_16,1,565,NaN,airplane,chair,0.35,0565_nse_dnn_0.35_chair_10_n04099969_12909.png,n04099969_12909.png,0.0,0.13373914,1.5373251,-0.9924852
vit_b_16,1,566,NaN,elephant,elephant,0.03,0566_nse_dnn_0.03_elephant_10_n02504013_7147.png,n02504013_7147.png,1.0,6.1388087,1.0974832,3.5647554
vit_b_16,1,567,NaN,clock,truck,0.35,0567_nse_dnn_0.35_truck_10_n04467665_44715.png,n04467665_44715.png,0.0,-0.1344328,2.4725456,-1.8434122
vit_b_16,1,568,NaN,keyboard,keyboard,0.00,0568_nse_dnn_0.00_keyboard_10_n04505470_1338.png,n04505470_1338.png,1.0,5.0412145,1.21544,2.7052312
vit_b_16,1,569,NaN,clock,airplane,0.90,0569_nse_dnn_0.90_airplane_10_n02690373_4982.png,n02690373_4982.png,0.0,1.4696902,3.0676708,-1.1299429
vit_b_16,1,570,NaN,clock,bicycle,0.90,0570_nse_dnn_0.90_bicycle_10_n03792782_3754.png,n03792782_3754.png,0.0,-1.0422354,3.2229936,-3.0159726
vit_b_16,1,571,NaN,bicycle,bicycle,0.00,0571_nse_dnn_0.00_bicycle_10_n03792782_1418.png,n03792782_1418.png,1.0,5.7043996,2.0861115,2.558516
vit_b_16,1,572,NaN,airplane,truck,0.03,0572_nse_dnn_0.03_truck_10_n03796401_26359.png,n03796401_26359.png,0.0,1.1775253,2.9485085,-1.2522743
vit_b_16,1,573,NaN,car,car,0.05,0573_nse_dnn_0.05_car_10_n03100240_9149.png,n03100240_9149.png,1.0,4.0562844,3.112626,0.6672672
vit_b_16,1,574,NaN,clock,bird,0.90,0574_nse_dnn_0.90_bird_10_n01534433_14677.png,n01534433_14677.png,0.0,1.1064937,3.2864144,-1.5414367
vit_b_16,1,575,NaN,car,car,0.03,0575_nse_dnn_0.03_car_10_n03100240_8683.png,n03100240_8683.png,1.0,7.1710305,2.122994,3.569501
vit_b_16,1,576,NaN,chair,chair,0.03,0576_nse_dnn_0.03_chair_10_n03376595_524.png,n03376595_524.png,1.0,1.9828386,0.7721461,0.85608894
vit_b_16,1,577,NaN,cat,dog,0.20,0577_nse_dnn_0.20_dog_10_n02094433_6402.png,n02094433_6402.png,0.0,0.9552685,1.5008513,-0.38578528
vit_b_16,1,578,NaN,car,car,0.20,0578_nse_dnn_0.20_car_10_n03100240_16803.png,n03100240_16803.png,1.0,4.4972997,1.8731351,1.8555646
vit_b_16,1,579,NaN,bicycle,bicycle,0.20,0579_nse_dnn_0.20_bicycle_10_n03792782_15114.png,n03792782_15114.png,1.0,2.7251213,2.0744727,0.46007803
vit_b_16,1,580,NaN,clock,chair,0.60,0580_nse_dnn_0.60_chair_10_n04429376_21362.png,n04429376_21362.png,0.0,-0.1368686,3.2602508,-2.4021263
vit_b_16,1,581,NaN,clock,keyboard,0.90,0581_nse_dnn_0.90_keyboard_10_n04505470_3499.png,n04505470_3499.png,0.0,0.3178719,3.194579,-2.0341392
vit_b_16,1,582,NaN,clock,boat,0.90,0582_nse_dnn_0.90_boat_10_n04273569_26577.png,n04273569_26577.png,0.0,-0.5551399,3.300443,-2.7263088
vit_b_16,1,583,NaN,boat,boat,0.10,0583_nse_dnn_0.10_boat_10_n04273569_27325.png,n04273569_27325.png,1.0,3.7015102,1.2254488,1.7508398
vit_b_16,1,584,NaN,keyboard,keyboard,0.20,0584_nse_dnn_0.20_keyboard_10_n04505470_9570.png,n04505470_9570.png,1.0,7.3389797,2.089082,3.7122386
vit_b_16,1,585,NaN,clock,bicycle,0.90,0585_nse_dnn_0.90_bicycle_10_n03792782_4067.png,n03792782_4067.png,0.0,-0.9643789,3.1444957,-2.9054134
vit_b_16,1,586,NaN,bear,bear,0.10,0586_nse_dnn_0.10_bear_10_n02132136_282.png,n02132136_282.png,1.0,4.2039046,2.245576,1.3847475
vit_b_16,1,587,NaN,boat,boat,0.03,0587_nse_dnn_0.03_boat_10_n04612504_30424.png,n04612504_30424.png,1.0,2.7336204,0.79618776,1.3699718
vit_b_16,1,588,NaN,clock,knife,0.90,0588_nse_dnn_0.90_knife_10_n03041632_4879.png,n03041632_4879.png,0.0,1.5863862,3.2698758,-1.1904069
vit_b_16,1,589,NaN,elephant,elephant,0.05,0589_nse_dnn_0.05_elephant_10_n02504458_7634.png,n02504458_7634.png,1.0,4.9871616,1.9887077,2.1202273
vit_b_16,1,590,NaN,clock,cat,0.35,0590_nse_dnn_0.35_cat_10_n02123597_7615.png,n02123597_7615.png,0.0,-0.06344881,2.4940565,-1.8084295
vit_b_16,1,591,NaN,clock,bicycle,0.35,0591_nse_dnn_0.35_bicycle_10_n03792782_20387.png,n03792782_20387.png,0.0,-0.06490606,1.4776896,-1.0907799
vit_b_16,1,592,NaN,clock,clock,0.10,0592_nse_dnn_0.10_clock_10_n02708093_527.png,n02708093_527.png,1.0,5.866928,1.5560632,3.0482419
vit_b_16,1,593,NaN,elephant,elephant,0.05,0593_nse_dnn_0.05_elephant_10_n02504013_5501.png,n02504013_5501.png,1.0,6.6154695,1.840589,3.3763504
vit_b_16,1,594,NaN,clock,dog,0.35,0594_nse_dnn_0.35_dog_10_n02106166_2273.png,n02106166_2273.png,0.0,-0.48725381,2.2220201,-1.9157461
vit_b_16,1,595,NaN,boat,boat,0.03,0595_nse_dnn_0.03_boat_10_n03662601_34009.png,n03662601_34009.png,1.0,3.5000274,2.2208285,0.9045302
vit_b_16,1,596,NaN,airplane,boat,0.35,0596_nse_dnn_0.35_boat_10_n04273569_12536.png,n04273569_12536.png,0.0,0.23255882,2.255362,-1.4303379
vit_b_16,1,597,NaN,elephant,elephant,0.00,0597_nse_dnn_0.00_elephant_10_n02504013_8534.png,n02504013_8534.png,1.0,6.9617424,0.2805616,4.7243085
vit_b_16,1,598,NaN,clock,clock,0.35,0598_nse_dnn_0.35_clock_10_n04548280_156.png,n04548280_156.png,1.0,2.4294052,1.3889843,0.7356887
vit_b_16,1,599,NaN,clock,bicycle,0.90,0599_nse_dnn_0.90_bicycle_10_n02835271_542.png,n02835271_542.png,0.0,-0.9373338,3.2263582,-2.944175
vit_b_16,1,600,NaN,bear,bear,0.00,0600_nse_dnn_0.00_bear_10_n02133161_5434.png,n02133161_5434.png,1.0,3.496344,2.0982862,0.9885763
vit_b_16,1,601,NaN,clock,truck,0.60,0601_nse_dnn_0.60_truck_10_n04467665_63829.png,n04467665_63829.png,0.0,-1.2704341,2.9093065,-2.9555233
vit_b_16,1,602,NaN,clock,oven,0.90,0602_nse_dnn_0.90_oven_10_n04111531_10220.png,n04111531_10220.png,0.0,-0.5095949,3.3089874,-2.7001455
vit_b_16,1,603,NaN,clock,boat,0.60,0603_nse_dnn_0.60_boat_10_n04273569_28074.png,n04273569_28074.png,0.0,-0.24590485,3.2127235,-2.4456196
vit_b_16,1,604,NaN,cat,cat,0.00,0604_nse_dnn_0.00_cat_10_n02123394_2482.png,n02123394_2482.png,1.0,2.624178,1.5644608,0.7493332
vit_b_16,1,605,NaN,clock,boat,0.90,0605_nse_dnn_0.90_boat_10_n03662601_20381.png,n03662601_20381.png,0.0,-0.4666935,3.3298557,-2.6845655
vit_b_16,1,606,NaN,clock,bird,0.35,0606_nse_dnn_0.35_bird_10_n01817953_12511.png,n01817953_12511.png,0.0,0.22113635,1.5727955,-0.9557674
vit_b_16,1,607,NaN,cat,cat,0.05,0607_nse_dnn_0.05_cat_10_n02125311_5346.png,n02125311_5346.png,1.0,1.8991543,1.0846008,0.5759763
vit_b_16,1,608,NaN,oven,oven,0.00,0608_nse_dnn_0.00_oven_10_n04111531_14758.png,n04111531_14758.png,1.0,4.7110205,1.9610436,1.9445274
vit_b_16,1,609,NaN,clock,bird,0.10,0609_nse_dnn_0.10_bird_10_n02002556_1398.png,n02002556_1398.png,0.0,0.21035066,1.8787842,-1.1797607
vit_b_16,1,610,NaN,knife,knife,0.05,0610_nse_dnn_0.05_knife_10_n03041632_99912.png,n03041632_99912.png,1.0,2.005561,0.9310204,0.75981504
vit_b_16,1,611,NaN,airplane,airplane,0.05,0611_nse_dnn_0.05_airplane_10_n02690373_1075.png,n02690373_1075.png,1.0,6.6959715,0.56776875,4.333294
vit_b_16,1,612,NaN,clock,cat,0.35,0612_nse_dnn_0.35_cat_10_n02123045_10834.png,n02123045_10834.png,0.0,0.3902152,1.8228804,-1.0130473
vit_b_16,1,613,NaN,clock,car,0.60,0613_nse_dnn_0.60_car_10_n02814533_41478.png,n02814533_41478.png,0.0,-0.73090464,2.691518,-2.4200182
vit_b_16,1,614,NaN,cat,cat,0.00,0614_nse_dnn_0.00_cat_10_n02123394_1602.png,n02123394_1602.png,1.0,1.3567878,0.7990595,0.39437348
vit_b_16,1,615,NaN,knife,knife,0.03,0615_nse_dnn_0.03_knife_10_n03041632_21017.png,n03041632_21017.png,1.0,1.8284911,1.0385584,0.5585668
vit_b_16,1,616,NaN,bear,bear,0.03,0616_nse_dnn_0.03_bear_10_n02134084_572.png,n02134084_572.png,1.0,3.2101016,1.6999012,1.067873
vit_b_16,1,617,NaN,clock,clock,0.05,0617_nse_dnn_0.05_clock_10_n03196217_3987.png,n03196217_3987.png,1.0,4.120587,2.3762412,1.2334386
vit_b_16,1,618,NaN,airplane,dog,0.03,0618_nse_dnn_0.03_dog_10_n02098286_6303.png,n02098286_6303.png,0.0,-0.2592244,2.8552275,-2.20225
vit_b_16,1,619,NaN,keyboard,keyboard,0.00,0619_nse_dnn_0.00_keyboard_10_n04505470_4379.png,n04505470_4379.png,1.0,5.36766,0.7826865,3.242066
vit_b_16,1,620,NaN,boat,boat,0.05,0620_nse_dnn_0.05_boat_10_n04273569_15138.png,n04273569_15138.png,1.0,4.1701326,1.0358729,2.2162564
vit_b_16,1,621,NaN,clock,airplane,0.90,0621_nse_dnn_0.90_airplane_10_n02690373_18234.png,n02690373_18234.png,0.0,1.3130091,3.2564259,-1.3742032
vit_b_16,1,622,NaN,clock,clock,0.90,0622_nse_dnn_0.90_clock_10_n03196217_2179.png,n03196217_2179.png,1.0,3.0734718,1.5351565,1.0877532
vit_b_16,1,623,NaN,bottle,bottle,0.03,0623_nse_dnn_0.03_bottle_10_n04579145_6860.png,n04579145_6860.png,1.0,2.5187972,1.3300315,0.8405843
vit_b_16,1,624,NaN,airplane,car,0.35,0624_nse_dnn_0.35_car_10_n02814533_81455.png,n02814533_81455.png,0.0,1.2510484,2.726203,-1.0430918
vit_b_16,1,625,NaN,car,car,0.03,0625_nse_dnn_0.03_car_10_n04285008_6278.png,n04285008_6278.png,1.0,5.3741508,1.6003474,2.6684818
vit_b_16,1,626,NaN,truck,truck,0.05,0626_nse_dnn_0.05_truck_10_n04467665_3612.png,n04467665_3612.png,1.0,4.5098825,1.9488314,1.8109365
vit_b_16,1,627,NaN,bottle,bottle,0.10,0627_nse_dnn_0.10_bottle_10_n03983396_10251.png,n03983396_10251.png,1.0,3.700708,1.1500243,1.8036057
vit_b_16,1,628,NaN,clock,dog,0.60,0628_nse_dnn_0.60_dog_10_n02086646_6407.png,n02086646_6407.png,0.0,-0.8183205,3.086551,-2.761161
vit_b_16,1,629,NaN,clock,oven,0.35,0629_nse_dnn_0.35_oven_10_n04111531_21404.png,n04111531_21404.png,0.0,-1.0857967,2.3638513,-2.4392695
vit_b_16,1,630,NaN,bottle,bottle,0.05,0630_nse_dnn_0.05_bottle_10_n03983396_3185.png,n03983396_3185.png,1.0,3.3754268,2.1618989,0.85809386
vit_b_16,1,631,NaN,elephant,elephant,0.05,0631_nse_dnn_0.05_elephant_10_n02504013_13766.png,n02504013_13766.png,1.0,2.9324582,0.8383117,1.4807853
vit_b_16,1,632,NaN,bird,bird,0.05,0632_nse_dnn_0.05_bird_10_n01514859_10633.png,n01514859_10633.png,1.0,0.5172009,0.18394718,0.23564596
vit_b_16,1,633,NaN,chair,chair,0.05,0633_nse_dnn_0.05_chair_10_n03376595_2351.png,n03376595_2351.png,1.0,2.2260892,1.9455264,0.19838792
vit_b_16,1,634,NaN,airplane,bird,0.00,0634_nse_dnn_0.00_bird_10_n02009912_31837.png,n02009912_31837.png,0.0,0.56946623,1.1081328,-0.3808948
vit_b_16,1,635,NaN,clock,dog,0.90,0635_nse_dnn_0.90_dog_10_n02110958_8971.png,n02110958_8971.png,0.0,-0.9054939,3.269782,-2.9523659
vit_b_16,1,636,NaN,airplane,dog,0.20,0636_nse_dnn_0.20_dog_10_n02113799_3680.png,n02113799_3680.png,0.0,0.4360569,2.6417136,-1.5596349
vit_b_16,1,637,NaN,airplane,airplane,0.35,0637_nse_dnn_0.35_airplane_10_n02690373_6491.png,n02690373_6491.png,1.0,4.253461,1.1332074,2.2063525
vit_b_16,1,638,NaN,clock,clock,0.60,0638_nse_dnn_0.60_clock_10_n04548280_1438.png,n04548280_1438.png,1.0,3.2225208,2.004364,0.861367
vit_b_16,1,639,NaN,airplane,airplane,0.05,0639_nse_dnn_0.05_airplane_10_n02690373_2981.png,n02690373_2981.png,1.0,8.665901,0.5594865,5.732101
vit_b_16,1,640,NaN,car,car,0.03,0640_nse_dnn_0.03_car_10_n04285008_7155.png,n04285008_7155.png,1.0,5.26292,1.5970781,2.5921416
vit_b_16,1,641,NaN,bottle,chair,0.20,0641_nse_dnn_0.20_chair_10_n03376595_5909.png,n03376595_5909.png,0.0,1.6862164,2.5638487,-0.62057984
vit_b_16,1,642,NaN,clock,elephant,0.60,0642_nse_dnn_0.60_elephant_10_n02504013_5876.png,n02504013_5876.png,0.0,-0.50962174,2.7569644,-2.3098254
vit_b_16,1,643,NaN,knife,cat,0.00,0643_nse_dnn_0.00_cat_10_n02125311_25104.png,n02125311_25104.png,0.0,0.84434456,1.5286964,-0.48390985
vit_b_16,1,644,NaN,clock,dog,0.90,0644_nse_dnn_0.90_dog_10_n02111277_11664.png,n02111277_11664.png,0.0,-0.9008872,3.3034604,-2.9729228
vit_b_16,1,645,NaN,airplane,airplane,0.35,0645_nse_dnn_0.35_airplane_10_n02690373_2185.png,n02690373_2185.png,1.0,3.1086102,1.5880615,1.0751903
vit_b_16,1,646,NaN,clock,bird,0.05,0646_nse_dnn_0.05_bird_10_n02017213_7721.png,n02017213_7721.png,0.0,0.5684021,2.1041458,-1.0859348
vit_b_16,1,647,NaN,boat,boat,0.05,0647_nse_dnn_0.05_boat_10_n03662601_25577.png,n03662601_25577.png,1.0,3.0463448,2.0528665,0.7024953
vit_b_16,1,648,NaN,elephant,elephant,0.03,0648_nse_dnn_0.03_elephant_10_n02504013_8028.png,n02504013_8028.png,1.0,6.4669113,0.7099502,4.070786
vit_b_16,1,649,NaN,clock,airplane,0.60,0649_nse_dnn_0.60_airplane_10_n02690373_6665.png,n02690373_6665.png,0.0,1.7404394,3.2035873,-1.0346018
vit_b_16,1,650,NaN,clock,bird,0.60,0650_nse_dnn_0.60_bird_10_n02011460_2611.png,n02011460_2611.png,0.0,1.0867342,3.1256034,-1.4416984
vit_b_16,1,651,NaN,knife,knife,0.10,0651_nse_dnn_0.10_knife_10_n03041632_90407.png,n03041632_90407.png,1.0,2.3348117,1.9134631,0.29793844
vit_b_16,1,652,NaN,airplane,airplane,0.03,0652_nse_dnn_0.03_airplane_10_n02690373_10817.png,n02690373_10817.png,1.0,8.755749,0.25146252,6.013438
vit_b_16,1,653,NaN,airplane,bird,0.00,0653_nse_dnn_0.00_bird_10_n02051845_15350.png,n02051845_15350.png,0.0,0.08270711,1.8257898,-1.2325456
vit_b_16,1,654,NaN,clock,knife,0.60,0654_nse_dnn_0.60_knife_10_n03041632_4269.png,n03041632_4269.png,0.0,1.0331092,2.9575903,-1.3608137
vit_b_16,1,655,NaN,bottle,bottle,0.03,0655_nse_dnn_0.03_bottle_10_n04560804_11426.png,n04560804_11426.png,1.0,1.4838365,0.19667058,0.9101638
vit_b_16,1,656,NaN,clock,bicycle,0.20,0656_nse_dnn_0.20_bicycle_10_n03792782_7050.png,n03792782_7050.png,0.0,-0.029325739,1.2361497,-0.89482623
vit_b_16,1,657,NaN,elephant,elephant,0.05,0657_nse_dnn_0.05_elephant_10_n02504013_9144.png,n02504013_9144.png,1.0,7.028347,1.4996396,3.9093866
vit_b_16,1,658,NaN,clock,bear,0.90,0658_nse_dnn_0.90_bear_10_n02134418_5630.png,n02134418_5630.png,0.0,-0.8061668,3.007227,-2.6964767
vit_b_16,1,659,NaN,bear,bear,0.00,0659_nse_dnn_0.00_bear_10_n02133161_16147.png,n02133161_16147.png,1.0,4.2565117,0.8736801,2.392023
vit_b_16,1,660,NaN,keyboard,keyboard,0.05,0660_nse_dnn_0.05_keyboard_10_n03085013_6857.png,n03085013_6857.png,1.0,5.649688,3.2639456,1.6869745
vit_b_16,1,661,NaN,clock,car,0.90,0661_nse_dnn_0.90_car_10_n02814533_72079.png,n02814533_72079.png,0.0,-0.79043263,3.2293327,-2.8424034
vit_b_16,1,662,NaN,chair,chair,0.00,0662_nse_dnn_0.00_chair_10_n04429376_5770.png,n04429376_5770.png,1.0,3.691288,3.2518559,0.31072545
vit_b_16,1,663,NaN,knife,dog,0.05,0663_nse_dnn_0.05_dog_10_n02112706_5500.png,n02112706_5500.png,0.0,0.5308982,1.3352005,-0.5687277
vit_b_16,1,664,NaN,clock,boat,0.60,0664_nse_dnn_0.60_boat_10_n03662601_32391.png,n03662601_32391.png,0.0,-0.08301324,2.965896,-2.1559043
vit_b_16,1,665,NaN,airplane,truck,0.20,0665_nse_dnn_0.20_truck_10_n03796401_16046.png,n03796401_16046.png,0.0,2.9024248,3.3284788,-0.3012657
vit_b_16,1,666,NaN,clock,bottle,0.35,0666_nse_dnn_0.35_bottle_10_n04557648_310.png,n04557648_310.png,0.0,1.2715331,2.0941498,-0.58167785
vit_b_16,1,667,NaN,chair,chair,0.00,0667_nse_dnn_0.00_chair_10_n04429376_14995.png,n04429376_14995.png,1.0,2.446633,1.0137135,1.0132272
vit_b_16,1,668,NaN,oven,oven,0.05,0668_nse_dnn_0.05_oven_10_n04111531_24096.png,n04111531_24096.png,1.0,6.905406,1.5383468,3.795084
vit_b_16,1,669,NaN,bird,bird,0.03,0669_nse_dnn_0.03_bird_10_n01855672_12414.png,n01855672_12414.png,1.0,0.4139346,0.29951254,0.08090861
vit_b_16,1,670,NaN,clock,chair,0.90,0670_nse_dnn_0.90_chair_10_n03376595_4887.png,n03376595_4887.png,0.0,0.0238854,3.2759693,-2.2995706
vit_b_16,1,671,NaN,airplane,bottle,0.20,0671_nse_dnn_0.20_bottle_10_n04557648_11992.png,n04557648_11992.png,0.0,0.0947897,1.3010883,-0.8529819
vit_b_16,1,672,NaN,cat,cat,0.20,0672_nse_dnn_0.20_cat_10_n02124075_951.png,n02124075_951.png,1.0,3.5925503,1.0894645,1.7699488
vit_b_16,1,673,NaN,chair,chair,0.10,0673_nse_dnn_0.10_chair_10_n04099969_8647.png,n04099969_8647.png,1.0,3.270576,2.9351368,0.23719133
vit_b_16,1,674,NaN,bottle,bottle,0.00,0674_nse_dnn_0.00_bottle_10_n04591713_2808.png,n04591713_2808.png,1.0,3.8511937,2.1734319,1.1863568
vit_b_16,1,675,NaN,airplane,airplane,0.20,0675_nse_dnn_0.20_airplane_10_n02690373_15097.png,n02690373_15097.png,1.0,7.7042217,1.0131582,4.7312965
vit_b_16,1,676,NaN,knife,knife,0.00,0676_nse_dnn_0.00_knife_10_n03041632_62810.png,n03041632_62810.png,1.0,7.586849,0.38426134,5.092999
vit_b_16,1,677,NaN,keyboard,airplane,0.20,0677_nse_dnn_0.20_airplane_10_n02690373_1441.png,n02690373_1441.png,0.0,1.9572958,3.470027,-1.0696625
vit_b_16,1,678,NaN,clock,clock,0.90,0678_nse_dnn_0.90_clock_10_n04548280_942.png,n04548280_942.png,1.0,3.2985623,1.704338,1.1272869
vit_b_16,1,679,NaN,bear,bear,0.10,0679_nse_dnn_0.10_bear_10_n02133161_4060.png,n02133161_4060.png,1.0,2.0398567,1.6326036,0.28797138
vit_b_16,1,680,NaN,chair,chair,0.03,0680_nse_dnn_0.03_chair_10_n03376595_8227.png,n03376595_8227.png,1.0,3.3795178,2.264813,0.7882154
vit_b_16,1,681,NaN,airplane,boat,0.20,0681_nse_dnn_0.20_boat_10_n02951358_28889.png,n02951358_28889.png,0.0,1.6065658,2.2390342,-0.44722265
vit_b_16,1,682,NaN,boat,boat,0.00,0682_nse_dnn_0.00_boat_10_n04273569_1141.png,n04273569_1141.png,1.0,2.502979,1.501212,0.70835626
vit_b_16,1,683,NaN,dog,dog,0.00,0683_nse_dnn_0.00_dog_10_n02098105_5905.png,n02098105_5905.png,1.0,0.7088812,0.38767496,0.22712712
vit_b_16,1,684,NaN,airplane,bird,0.35,0684_nse_dnn_0.35_bird_10_n01534433_12864.png,n01534433_12864.png,0.0,0.5625795,2.5757544,-1.4235297
vit_b_16,1,685,NaN,keyboard,keyboard,0.00,0685_nse_dnn_0.00_keyboard_10_n04505470_6847.png,n04505470_6847.png,1.0,2.8662167,2.014398,0.6023267
vit_b_16,1,686,NaN,clock,car,0.60,0686_nse_dnn_0.60_car_10_n02814533_92286.png,n02814533_92286.png,0.0,-0.7491128,3.1009245,-2.7223876
vit_b_16,1,687,NaN,clock,clock,0.05,0687_nse_dnn_0.05_clock_10_n02708093_3462.png,n02708093_3462.png,1.0,5.41165,0.5238731,3.4561806
vit_b_16,1,688,NaN,elephant,elephant,0.00,0688_nse_dnn_0.00_elephant_10_n02504013_3602.png,n02504013_3602.png,1.0,6.9285507,1.3156732,3.9689038
vit_b_16,1,689,NaN,clock,clock,0.20,0689_nse_dnn_0.20_clock_10_n02708093_2800.png,n02708093_2800.png,1.0,3.3837278,1.9123663,1.0404097
vit_b_16,1,690,NaN,chair,bottle,0.03,0690_nse_dnn_0.03_bottle_10_n03983396_4627.png,n03983396_4627.png,0.0,0.5961154,1.3815271,-0.5553699
vit_b_16,1,691,NaN,clock,elephant,0.60,0691_nse_dnn_0.60_elephant_10_n02504458_6835.png,n02504458_6835.png,0.0,-0.87689584,3.214751,-2.8932312
vit_b_16,1,692,NaN,bicycle,bicycle,0.10,0692_nse_dnn_0.10_bicycle_10_n02835271_7594.png,n02835271_7594.png,1.0,6.801194,0.8115333,4.2353296
vit_b_16,1,693,NaN,oven,oven,0.10,0693_nse_dnn_0.10_oven_10_n04111531_538.png,n04111531_538.png,1.0,6.7196755,2.255633,3.156555
vit_b_16,1,694,NaN,elephant,elephant,0.03,0694_nse_dnn_0.03_elephant_10_n02504013_10909.png,n02504013_10909.png,1.0,6.021922,1.1700699,3.4307778
vit_b_16,1,695,NaN,clock,boat,0.90,0695_nse_dnn_0.90_boat_10_n03344393_771.png,n03344393_771.png,0.0,-0.58682084,3.3928702,-2.8140666
vit_b_16,1,696,NaN,airplane,boat,0.10,0696_nse_dnn_0.10_boat_10_n02951358_15413.png,n02951358_15413.png,0.0,2.129797,2.6141663,-0.3425008
vit_b_16,1,697,NaN,clock,cat,0.60,0697_nse_dnn_0.60_cat_10_n02124075_12176.png,n02124075_12176.png,0.0,-0.2552786,3.247081,-2.4765422
vit_b_16,1,698,NaN,clock,airplane,0.60,0698_nse_dnn_0.60_airplane_10_n02690373_5197.png,n02690373_5197.png,0.0,2.14857,3.0714095,-0.652546
vit_b_16,1,699,NaN,bicycle,bicycle,0.00,0699_nse_dnn_0.00_bicycle_10_n03792782_7101.png,n03792782_7101.png,1.0,5.8272114,3.1590924,1.8866451
vit_b_16,1,700,NaN,clock,bicycle,0.60,0700_nse_dnn_0.60_bicycle_10_n02835271_358.png,n02835271_358.png,0.0,-1.0011362,3.2097473,-2.9775443
vit_b_16,1,701,NaN,airplane,dog,0.03,0701_nse_dnn_0.03_dog_10_n02092002_15319.png,n02092002_15319.png,0.0,-0.28196022,1.7288419,-1.4218518
vit_b_16,1,702,NaN,airplane,airplane,0.10,0702_nse_dnn_0.10_airplane_10_n02690373_3818.png,n02690373_3818.png,1.0,3.5480542,2.36119,0.8392397
vit_b_16,1,703,NaN,elephant,dog,0.10,0703_nse_dnn_0.10_dog_10_n02097130_7349.png,n02097130_7349.png,0.0,0.6512154,2.3429303,-1.1962231
vit_b_16,1,704,NaN,elephant,elephant,0.20,0704_nse_dnn_0.20_elephant_10_n02504013_7210.png,n02504013_7210.png,1.0,4.328157,2.9205108,0.9953562
vit_b_16,1,705,NaN,clock,clock,0.20,0705_nse_dnn_0.20_clock_10_n04548280_1109.png,n04548280_1109.png,1.0,1.9054704,1.4723176,0.3062853
vit_b_16,1,706,NaN,clock,boat,0.35,0706_nse_dnn_0.35_boat_10_n03344393_4143.png,n03344393_4143.png,0.0,-0.2508967,2.4761739,-1.9283302
vit_b_16,1,707,NaN,clock,oven,0.60,0707_nse_dnn_0.60_oven_10_n04111531_326.png,n04111531_326.png,0.0,-0.5794996,3.0224285,-2.546948
vit_b_16,1,708,NaN,airplane,bottle,0.35,0708_nse_dnn_0.35_bottle_10_n04557648_3529.png,n04557648_3529.png,0.0,-0.4144556,2.2631705,-1.8933676
vit_b_16,1,709,NaN,clock,knife,0.90,0709_nse_dnn_0.90_knife_10_n03041632_27960.png,n03041632_27960.png,0.0,1.6790665,3.302615,-1.148022
vit_b_16,1,710,NaN,elephant,elephant,0.00,0710_nse_dnn_0.00_elephant_10_n02504458_8889.png,n02504458_8889.png,1.0,7.116526,0.26769066,4.8428583
vit_b_16,1,711,NaN,knife,knife,0.05,0711_nse_dnn_0.05_knife_10_n03041632_38610.png,n03041632_38610.png,1.0,7.64008,1.8726904,4.0781603
vit_b_16,1,712,NaN,bear,bear,0.00,0712_nse_dnn_0.00_bear_10_n02132136_2263.png,n02132136_2263.png,1.0,3.5275204,1.6362377,1.3373388
vit_b_16,1,713,NaN,bicycle,bicycle,0.03,0713_nse_dnn_0.03_bicycle_10_n02835271_6167.png,n02835271_6167.png,1.0,4.442896,1.349104,2.1876414
vit_b_16,1,714,NaN,bird,bird,0.00,0714_nse_dnn_0.00_bird_10_n02027492_597.png,n02027492_597.png,1.0,1.427189,0.1750329,0.8854081
vit_b_16,1,715,NaN,clock,boat,0.60,0715_nse_dnn_0.60_boat_10_n03662601_7585.png,n03662601_7585.png,0.0,-0.3437211,3.0451756,-2.396312
vit_b_16,1,716,NaN,airplane,knife,0.10,0716_nse_dnn_0.10_knife_10_n03041632_22738.png,n03041632_22738.png,0.0,1.9705032,2.1830697,-0.15030721
vit_b_16,1,717,NaN,clock,clock,0.10,0717_nse_dnn_0.10_clock_10_n03196217_3140.png,n03196217_3140.png,1.0,5.449158,0.4346273,3.545809
vit_b_16,1,718,NaN,clock,truck,0.90,0718_nse_dnn_0.90_truck_10_n03417042_27988.png,n03417042_27988.png,0.0,-1.3205141,3.2560081,-3.23609
vit_b_16,1,719,NaN,clock,bear,0.60,0719_nse_dnn_0.60_bear_10_n02133161_97.png,n02133161_97.png,0.0,-0.8225102,3.0561826,-2.74265
vit_b_16,1,720,NaN,bottle,bottle,0.10,0720_nse_dnn_0.10_bottle_10_n04579145_815.png,n04579145_815.png,1.0,3.4207385,3.1529279,0.18937068
vit_b_16,1,721,NaN,clock,clock,0.05,0721_nse_dnn_0.05_clock_10_n03196217_8792.png,n03196217_8792.png,1.0,5.323675,1.8801444,2.434944
vit_b_16,1,722,NaN,clock,clock,0.90,0722_nse_dnn_0.90_clock_10_n04548280_2827.png,n04548280_2827.png,1.0,3.3317196,1.5525101,1.2580911
vit_b_16,1,723,NaN,clock,knife,0.35,0723_nse_dnn_0.35_knife_10_n03041632_2153.png,n03041632_2153.png,0.0,1.6829985,1.8877095,-0.14475252
vit_b_16,1,724,NaN,clock,car,0.60,0724_nse_dnn_0.60_car_10_n04285008_5078.png,n04285008_5078.png,0.0,-0.83448887,3.2166736,-2.8646047
