subj,session,trial,rt,object_response,category,condition,imagename,filename,is_correct,targ_act,max_nontarg_act,decision_margin
alexnet_w3_mlp_simclrhn_probe1,1,1,NaN,elephant,elephant,0.03,0001_nse_dnn_0.03_elephant_10_n02504458_7209.png,n02504458_7209.png,1.0,-0.14946939,-0.8408951,0.48891184
alexnet_w3_mlp_simclrhn_probe1,1,2,NaN,knife,knife,0.90,0002_nse_dnn_0.90_knife_10_n03041632_82878.png,n03041632_82878.png,1.0,-2.6049042,-8.926118,4.4697733
alexnet_w3_mlp_simclrhn_probe1,1,3,NaN,clock,clock,0.00,0003_nse_dnn_0.00_clock_10_n03196217_9231.png,n03196217_9231.png,1.0,1.2852678,0.6711974,0.43421337
alexnet_w3_mlp_simclrhn_probe1,1,4,NaN,oven,oven,0.00,0004_nse_dnn_0.00_oven_10_n04111531_11026.png,n04111531_11026.png,1.0,-0.00068597496,-0.42898297,0.3028517
alexnet_w3_mlp_simclrhn_probe1,1,5,NaN,clock,clock,0.10,0005_nse_dnn_0.10_clock_10_n04548280_1114.png,n04548280_1114.png,1.0,-1.3699155,-2.2910924,0.65137047
alexnet_w3_mlp_simclrhn_probe1,1,6,NaN,clock,clock,0.03,0006_nse_dnn_0.03_clock_10_n02708093_8100.png,n02708093_8100.png,1.0,-0.08409246,-0.2949447,0.14909504
alexnet_w3_mlp_simclrhn_probe1,1,7,NaN,clock,clock,0.00,0007_nse_dnn_0.00_clock_10_n02708093_3591.png,n02708093_3591.png,1.0,4.2105923,-0.44517222,3.2921228
alexnet_w3_mlp_simclrhn_probe1,1,8,NaN,chair,chair,0.00,0008_nse_dnn_0.00_chair_10_n03376595_16202.png,n03376595_16202.png,1.0,-0.055981666,-0.225475,0.11984989
alexnet_w3_mlp_simclrhn_probe1,1,9,NaN,knife,bottle,0.60,0009_nse_dnn_0.60_bottle_10_n02823428_3478.png,n02823428_3478.png,0.0,-7.8111234,-2.807293,-3.5382426
alexnet_w3_mlp_simclrhn_probe1,1,10,NaN,elephant,dog,0.10,0010_nse_dnn_0.10_dog_10_n02087394_28673.png,n02087394_28673.png,0.0,-2.5443103,-0.99554855,-1.09514
alexnet_w3_mlp_simclrhn_probe1,1,11,NaN,oven,chair,0.10,0011_nse_dnn_0.10_chair_10_n04099969_1690.png,n04099969_1690.png,0.0,-2.6502454,-1.9790173,-0.47463
alexnet_w3_mlp_simclrhn_probe1,1,12,NaN,elephant,cat,0.03,0012_nse_dnn_0.03_cat_10_n02125311_1736.png,n02125311_1736.png,0.0,-0.055831593,1.4299593,-1.0506128
alexnet_w3_mlp_simclrhn_probe1,1,13,NaN,knife,bear,0.90,0013_nse_dnn_0.90_bear_10_n02133161_1169.png,n02133161_1169.png,0.0,-16.687271,-3.1626382,-9.56336
alexnet_w3_mlp_simclrhn_probe1,1,14,NaN,knife,bear,0.90,0014_nse_dnn_0.90_bear_10_n02133161_8835.png,n02133161_8835.png,0.0,-16.595678,-3.00406,-9.610725
alexnet_w3_mlp_simclrhn_probe1,1,15,NaN,knife,car,0.20,0015_nse_dnn_0.20_car_10_n02814533_5430.png,n02814533_5430.png,0.0,-6.010006,-1.7141863,-3.0376034
alexnet_w3_mlp_simclrhn_probe1,1,16,NaN,knife,bear,0.60,0016_nse_dnn_0.60_bear_10_n02134418_3767.png,n02134418_3767.png,0.0,-13.964574,-2.864945,-7.848623
alexnet_w3_mlp_simclrhn_probe1,1,17,NaN,knife,knife,0.20,0017_nse_dnn_0.20_knife_10_n03041632_10540.png,n03041632_10540.png,1.0,-1.3790704,-4.083345,1.912211
alexnet_w3_mlp_simclrhn_probe1,1,18,NaN,knife,bicycle,0.20,0018_nse_dnn_0.20_bicycle_10_n02835271_1075.png,n02835271_1075.png,0.0,-3.7248588,-2.1225812,-1.1329813
alexnet_w3_mlp_simclrhn_probe1,1,19,NaN,bear,bear,0.00,0019_nse_dnn_0.00_bear_10_n02134084_3888.png,n02134084_3888.png,1.0,1.192975,0.9691817,0.15824579
alexnet_w3_mlp_simclrhn_probe1,1,20,NaN,dog,dog,0.00,0020_nse_dnn_0.00_dog_10_n02085936_9009.png,n02085936_9009.png,1.0,-0.2554933,-1.5245111,0.8973311
alexnet_w3_mlp_simclrhn_probe1,1,21,NaN,knife,knife,0.03,0021_nse_dnn_0.03_knife_10_n03041632_12651.png,n03041632_12651.png,1.0,0.48149866,-1.2434579,1.2197285
alexnet_w3_mlp_simclrhn_probe1,1,22,NaN,knife,bicycle,0.35,0022_nse_dnn_0.35_bicycle_10_n03792782_565.png,n03792782_565.png,0.0,-9.292306,-2.21063,-5.007501
alexnet_w3_mlp_simclrhn_probe1,1,23,NaN,knife,boat,0.20,0023_nse_dnn_0.20_boat_10_n04612504_40672.png,n04612504_40672.png,0.0,-4.882914,-1.5131943,-2.3827517
alexnet_w3_mlp_simclrhn_probe1,1,24,NaN,bear,dog,0.05,0024_nse_dnn_0.05_dog_10_n02098105_146.png,n02098105_146.png,0.0,-1.8020229,-1.1729324,-0.4448342
alexnet_w3_mlp_simclrhn_probe1,1,25,NaN,clock,clock,0.03,0025_nse_dnn_0.03_clock_10_n02708093_5944.png,n02708093_5944.png,1.0,-0.14715089,-0.94351095,0.5631116
alexnet_w3_mlp_simclrhn_probe1,1,26,NaN,knife,cat,0.03,0026_nse_dnn_0.03_cat_10_n02124075_14021.png,n02124075_14021.png,0.0,-1.1191789,-0.31402755,-0.569328
alexnet_w3_mlp_simclrhn_probe1,1,27,NaN,knife,bear,0.20,0027_nse_dnn_0.20_bear_10_n02133161_7184.png,n02133161_7184.png,0.0,-3.1170835,-1.9327681,-0.8374375
alexnet_w3_mlp_simclrhn_probe1,1,28,NaN,airplane,bottle,0.00,0028_nse_dnn_0.00_bottle_10_n03937543_9745.png,n03937543_9745.png,0.0,-0.68767196,-0.54699445,-0.09947403
alexnet_w3_mlp_simclrhn_probe1,1,29,NaN,knife,airplane,0.60,0029_nse_dnn_0.60_airplane_10_n02690373_9605.png,n02690373_9605.png,0.0,-15.612902,-2.9200487,-8.975203
alexnet_w3_mlp_simclrhn_probe1,1,30,NaN,knife,cat,0.20,0030_nse_dnn_0.20_cat_10_n02123045_7167.png,n02123045_7167.png,0.0,-3.4750977,-1.9727056,-1.0623516
alexnet_w3_mlp_simclrhn_probe1,1,31,NaN,airplane,airplane,0.05,0031_nse_dnn_0.05_airplane_10_n02690373_4706.png,n02690373_4706.png,1.0,-0.48032242,-0.7676448,0.20316762
alexnet_w3_mlp_simclrhn_probe1,1,32,NaN,knife,knife,0.35,0032_nse_dnn_0.35_knife_10_n03041632_45270.png,n03041632_45270.png,1.0,-2.1731215,-5.577624,2.4073467
alexnet_w3_mlp_simclrhn_probe1,1,33,NaN,knife,dog,0.35,0033_nse_dnn_0.35_dog_10_n02105855_9326.png,n02105855_9326.png,0.0,-7.300678,-2.5763228,-3.3406234
alexnet_w3_mlp_simclrhn_probe1,1,34,NaN,elephant,bear,0.10,0034_nse_dnn_0.10_bear_10_n02134418_4349.png,n02134418_4349.png,0.0,-1.4997392,-1.2686567,-0.16339996
alexnet_w3_mlp_simclrhn_probe1,1,35,NaN,cat,cat,0.00,0035_nse_dnn_0.00_cat_10_n02123159_469.png,n02123159_469.png,1.0,0.10857594,-0.36709923,0.33635315
alexnet_w3_mlp_simclrhn_probe1,1,36,NaN,knife,truck,0.90,0036_nse_dnn_0.90_truck_10_n03417042_5004.png,n03417042_5004.png,0.0,-20.704126,-3.3471751,-12.273218
alexnet_w3_mlp_simclrhn_probe1,1,37,NaN,knife,bird,0.10,0037_nse_dnn_0.10_bird_10_n02051845_6333.png,n02051845_6333.png,0.0,-7.2113423,-1.1697295,-4.272065
alexnet_w3_mlp_simclrhn_probe1,1,38,NaN,knife,clock,0.90,0038_nse_dnn_0.90_clock_10_n03196217_12701.png,n03196217_12701.png,0.0,-9.173783,-3.3357582,-4.128107
alexnet_w3_mlp_simclrhn_probe1,1,39,NaN,knife,chair,0.60,0039_nse_dnn_0.60_chair_10_n03376595_12341.png,n03376595_12341.png,0.0,-11.602282,-3.0519338,-6.0460095
alexnet_w3_mlp_simclrhn_probe1,1,40,NaN,oven,bicycle,0.10,0040_nse_dnn_0.10_bicycle_10_n03792782_66837.png,n03792782_66837.png,0.0,-2.2615752,-2.2482233,-0.009441231
alexnet_w3_mlp_simclrhn_probe1,1,41,NaN,bicycle,bicycle,0.05,0041_nse_dnn_0.05_bicycle_10_n02835271_20177.png,n02835271_20177.png,1.0,1.6963949,-2.506343,2.9717844
alexnet_w3_mlp_simclrhn_probe1,1,42,NaN,knife,knife,0.00,0042_nse_dnn_0.00_knife_10_n03041632_22330.png,n03041632_22330.png,1.0,-0.4638394,-1.2761136,0.5743646
alexnet_w3_mlp_simclrhn_probe1,1,43,NaN,knife,cat,0.60,0043_nse_dnn_0.60_cat_10_n02123045_5913.png,n02123045_5913.png,0.0,-11.281741,-3.187574,-5.723441
alexnet_w3_mlp_simclrhn_probe1,1,44,NaN,knife,elephant,0.20,0044_nse_dnn_0.20_elephant_10_n02504013_2464.png,n02504013_2464.png,0.0,-1.9663115,-1.9597118,-0.004666668
alexnet_w3_mlp_simclrhn_probe1,1,45,NaN,knife,knife,0.90,0045_nse_dnn_0.90_knife_10_n03041632_99460.png,n03041632_99460.png,1.0,-2.6662912,-8.827395,4.356559
alexnet_w3_mlp_simclrhn_probe1,1,46,NaN,elephant,dog,0.00,0046_nse_dnn_0.00_dog_10_n02099601_8686.png,n02099601_8686.png,0.0,-1.4958287,-0.6519748,-0.5966949
alexnet_w3_mlp_simclrhn_probe1,1,47,NaN,knife,chair,0.90,0047_nse_dnn_0.90_chair_10_n02791124_5400.png,n02791124_5400.png,0.0,-14.328525,-3.3626575,-7.7540393
alexnet_w3_mlp_simclrhn_probe1,1,48,NaN,knife,chair,0.05,0048_nse_dnn_0.05_chair_10_n03376595_830.png,n03376595_830.png,0.0,-2.1614807,-1.2587364,-0.6383366
alexnet_w3_mlp_simclrhn_probe1,1,49,NaN,knife,cat,0.90,0049_nse_dnn_0.90_cat_10_n02124075_6024.png,n02124075_6024.png,0.0,-14.573344,-3.2435024,-8.011408
alexnet_w3_mlp_simclrhn_probe1,1,50,NaN,bicycle,bicycle,0.10,0050_nse_dnn_0.10_bicycle_10_n03792782_9004.png,n03792782_9004.png,1.0,-1.4155369,-3.3305998,1.354154
alexnet_w3_mlp_simclrhn_probe1,1,51,NaN,knife,keyboard,0.60,0051_nse_dnn_0.60_keyboard_10_n03085013_24088.png,n03085013_24088.png,0.0,-8.190166,-2.2056391,-4.2317
alexnet_w3_mlp_simclrhn_probe1,1,52,NaN,knife,cat,0.10,0052_nse_dnn_0.10_cat_10_n02125311_33778.png,n02125311_33778.png,0.0,-1.6657168,-1.579514,-0.060954545
alexnet_w3_mlp_simclrhn_probe1,1,53,NaN,bicycle,bicycle,0.00,0053_nse_dnn_0.00_bicycle_10_n03792782_7092.png,n03792782_7092.png,1.0,4.2651186,-1.2285653,3.8846211
alexnet_w3_mlp_simclrhn_probe1,1,54,NaN,knife,airplane,0.35,0054_nse_dnn_0.35_airplane_10_n02690373_5724.png,n02690373_5724.png,0.0,-11.242863,-1.872625,-6.6257586
alexnet_w3_mlp_simclrhn_probe1,1,55,NaN,knife,bear,0.60,0055_nse_dnn_0.60_bear_10_n02133161_5637.png,n02133161_5637.png,0.0,-13.896819,-2.6007156,-7.9875517
alexnet_w3_mlp_simclrhn_probe1,1,56,NaN,bear,bear,0.10,0056_nse_dnn_0.10_bear_10_n02132136_5365.png,n02132136_5365.png,1.0,-1.6062729,-1.6784514,0.051037896
alexnet_w3_mlp_simclrhn_probe1,1,57,NaN,knife,car,0.35,0057_nse_dnn_0.35_car_10_n03100240_1702.png,n03100240_1702.png,0.0,-10.178811,-2.3097062,-5.5642977
alexnet_w3_mlp_simclrhn_probe1,1,58,NaN,knife,oven,0.35,0058_nse_dnn_0.35_oven_10_n04111531_2677.png,n04111531_2677.png,0.0,-7.954117,-1.953124,-4.243343
alexnet_w3_mlp_simclrhn_probe1,1,59,NaN,knife,oven,0.05,0059_nse_dnn_0.05_oven_10_n04111531_16583.png,n04111531_16583.png,0.0,-0.6727016,0.016446883,-0.4873016
alexnet_w3_mlp_simclrhn_probe1,1,60,NaN,chair,chair,0.10,0060_nse_dnn_0.10_chair_10_n04099969_6266.png,n04099969_6266.png,1.0,-0.17824608,-0.863256,0.48437515
alexnet_w3_mlp_simclrhn_probe1,1,61,NaN,knife,oven,0.60,0061_nse_dnn_0.60_oven_10_n04111531_6695.png,n04111531_6695.png,0.0,-14.390225,-2.812954,-8.186367
alexnet_w3_mlp_simclrhn_probe1,1,62,NaN,knife,car,0.10,0062_nse_dnn_0.10_car_10_n03100240_1438.png,n03100240_1438.png,0.0,-4.760486,-2.3859887,-1.6790233
alexnet_w3_mlp_simclrhn_probe1,1,63,NaN,knife,keyboard,0.20,0063_nse_dnn_0.20_keyboard_10_n04505470_4684.png,n04505470_4684.png,0.0,-3.8670013,-1.9060661,-1.3865906
alexnet_w3_mlp_simclrhn_probe1,1,64,NaN,chair,chair,0.00,0064_nse_dnn_0.00_chair_10_n04099969_8021.png,n04099969_8021.png,1.0,0.11438066,-0.9480992,0.75128675
alexnet_w3_mlp_simclrhn_probe1,1,65,NaN,knife,car,0.20,0065_nse_dnn_0.20_car_10_n04285008_7139.png,n04285008_7139.png,0.0,-7.783624,-2.2558465,-3.908729
alexnet_w3_mlp_simclrhn_probe1,1,66,NaN,truck,truck,0.03,0066_nse_dnn_0.03_truck_10_n03796401_9207.png,n03796401_9207.png,1.0,0.7684028,0.4708456,0.21040472
alexnet_w3_mlp_simclrhn_probe1,1,67,NaN,elephant,bottle,0.05,0067_nse_dnn_0.05_bottle_10_n04560804_3651.png,n04560804_3651.png,0.0,-1.773091,-1.3706942,-0.28453752
alexnet_w3_mlp_simclrhn_probe1,1,68,NaN,knife,chair,0.60,0068_nse_dnn_0.60_chair_10_n03376595_3010.png,n03376595_3010.png,0.0,-11.795707,-2.9168868,-6.278274
alexnet_w3_mlp_simclrhn_probe1,1,69,NaN,knife,bird,0.90,0069_nse_dnn_0.90_bird_10_n01514859_1951.png,n01514859_1951.png,0.0,-12.651226,-3.0883389,-6.7619824
alexnet_w3_mlp_simclrhn_probe1,1,70,NaN,car,car,0.10,0070_nse_dnn_0.10_car_10_n03100240_4594.png,n03100240_4594.png,1.0,-0.35879064,-1.7835069,1.0074265
alexnet_w3_mlp_simclrhn_probe1,1,71,NaN,knife,clock,0.35,0071_nse_dnn_0.35_clock_10_n03196217_3333.png,n03196217_3333.png,0.0,-5.18927,-2.079,-2.1992931
alexnet_w3_mlp_simclrhn_probe1,1,72,NaN,knife,car,0.10,0072_nse_dnn_0.10_car_10_n02814533_90798.png,n02814533_90798.png,0.0,-4.786366,-1.6937296,-2.186824
alexnet_w3_mlp_simclrhn_probe1,1,73,NaN,knife,keyboard,0.00,0073_nse_dnn_0.00_keyboard_10_n03085013_19547.png,n03085013_19547.png,0.0,0.79479694,1.1243002,-0.23299402
alexnet_w3_mlp_simclrhn_probe1,1,74,NaN,bear,bear,0.05,0074_nse_dnn_0.05_bear_10_n02133161_545.png,n02133161_545.png,1.0,-0.97520566,-1.2131238,0.16823353
alexnet_w3_mlp_simclrhn_probe1,1,75,NaN,knife,oven,0.90,0075_nse_dnn_0.90_oven_10_n04111531_6489.png,n04111531_6489.png,0.0,-17.910225,-2.8601203,-10.642031
alexnet_w3_mlp_simclrhn_probe1,1,76,NaN,knife,dog,0.90,0076_nse_dnn_0.90_dog_10_n02105056_15299.png,n02105056_15299.png,0.0,-12.532194,-3.3438702,-6.497126
alexnet_w3_mlp_simclrhn_probe1,1,77,NaN,knife,knife,0.05,0077_nse_dnn_0.05_knife_10_n03041632_33255.png,n03041632_33255.png,1.0,0.12365285,-0.9376823,0.75047725
alexnet_w3_mlp_simclrhn_probe1,1,78,NaN,knife,cat,0.20,0078_nse_dnn_0.20_cat_10_n02123394_5895.png,n02123394_5895.png,0.0,-3.9860747,-1.9991707,-1.4049534
alexnet_w3_mlp_simclrhn_probe1,1,79,NaN,knife,bottle,0.03,0079_nse_dnn_0.03_bottle_10_n03983396_11654.png,n03983396_11654.png,0.0,-1.2706727,-0.5069927,-0.5400033
alexnet_w3_mlp_simclrhn_probe1,1,80,NaN,airplane,airplane,0.03,0080_nse_dnn_0.03_airplane_10_n02690373_3860.png,n02690373_3860.png,1.0,1.8468556,-1.0233471,2.0295398
alexnet_w3_mlp_simclrhn_probe1,1,81,NaN,chair,oven,0.03,0081_nse_dnn_0.03_oven_10_n04111531_6415.png,n04111531_6415.png,0.0,-1.4630563,-0.7472094,-0.5061802
alexnet_w3_mlp_simclrhn_probe1,1,82,NaN,knife,knife,0.60,0082_nse_dnn_0.60_knife_10_n03041632_39342.png,n03041632_39342.png,1.0,-3.0074232,-7.6263337,3.2660632
alexnet_w3_mlp_simclrhn_probe1,1,83,NaN,knife,bear,0.60,0083_nse_dnn_0.60_bear_10_n02133161_4882.png,n02133161_4882.png,0.0,-13.070216,-2.713634,-7.32321
alexnet_w3_mlp_simclrhn_probe1,1,84,NaN,bottle,bottle,0.00,0084_nse_dnn_0.00_bottle_10_n04591713_7474.png,n04591713_7474.png,1.0,0.1756845,-0.53665876,0.50370276
alexnet_w3_mlp_simclrhn_probe1,1,85,NaN,knife,bear,0.20,0085_nse_dnn_0.20_bear_10_n02132136_17615.png,n02132136_17615.png,0.0,-4.357613,-1.566807,-1.973398
alexnet_w3_mlp_simclrhn_probe1,1,86,NaN,knife,boat,0.60,0086_nse_dnn_0.60_boat_10_n03344393_382.png,n03344393_382.png,0.0,-13.340509,-2.974904,-7.32959
alexnet_w3_mlp_simclrhn_probe1,1,87,NaN,airplane,truck,0.00,0087_nse_dnn_0.00_truck_10_n03796401_27811.png,n03796401_27811.png,0.0,0.62705183,0.9946229,-0.25991198
alexnet_w3_mlp_simclrhn_probe1,1,88,NaN,knife,keyboard,0.60,0088_nse_dnn_0.60_keyboard_10_n04505470_2603.png,n04505470_2603.png,0.0,-8.320772,-3.2959027,-3.5531194
alexnet_w3_mlp_simclrhn_probe1,1,89,NaN,knife,boat,0.35,0089_nse_dnn_0.35_boat_10_n03662601_16418.png,n03662601_16418.png,0.0,-7.7756777,-1.9223257,-4.138945
alexnet_w3_mlp_simclrhn_probe1,1,90,NaN,knife,bear,0.35,0090_nse_dnn_0.35_bear_10_n02132136_2760.png,n02132136_2760.png,0.0,-7.310292,-1.9041195,-3.822741
alexnet_w3_mlp_simclrhn_probe1,1,91,NaN,bicycle,bicycle,0.05,0091_nse_dnn_0.05_bicycle_10_n02835271_10271.png,n02835271_10271.png,1.0,1.0156658,-2.208867,2.2800891
alexnet_w3_mlp_simclrhn_probe1,1,92,NaN,knife,bear,0.10,0092_nse_dnn_0.10_bear_10_n02134084_9127.png,n02134084_9127.png,0.0,-2.165553,-1.1778822,-0.6983888
alexnet_w3_mlp_simclrhn_probe1,1,93,NaN,knife,bird,0.20,0093_nse_dnn_0.20_bird_10_n01797886_551.png,n01797886_551.png,0.0,-4.0213823,-1.4958584,-1.7858151
alexnet_w3_mlp_simclrhn_probe1,1,94,NaN,knife,truck,0.10,0094_nse_dnn_0.10_truck_10_n03417042_9559.png,n03417042_9559.png,0.0,-5.1329117,-1.1750529,-2.7986288
alexnet_w3_mlp_simclrhn_probe1,1,95,NaN,knife,clock,0.90,0095_nse_dnn_0.90_clock_10_n02708093_3114.png,n02708093_3114.png,0.0,-9.061978,-3.4197266,-3.9896748
alexnet_w3_mlp_simclrhn_probe1,1,96,NaN,bicycle,bicycle,0.05,0096_nse_dnn_0.05_bicycle_10_n03792782_122.png,n03792782_122.png,1.0,-1.1677401,-1.5505917,0.27071697
alexnet_w3_mlp_simclrhn_probe1,1,97,NaN,knife,oven,0.35,0097_nse_dnn_0.35_oven_10_n04111531_3702.png,n04111531_3702.png,0.0,-8.7723465,-2.4394407,-4.4780407
alexnet_w3_mlp_simclrhn_probe1,1,98,NaN,knife,car,0.90,0098_nse_dnn_0.90_car_10_n02814533_93476.png,n02814533_93476.png,0.0,-18.19636,-3.7196498,-10.23658
alexnet_w3_mlp_simclrhn_probe1,1,99,NaN,knife,cat,0.35,0099_nse_dnn_0.35_cat_10_n02123045_8491.png,n02123045_8491.png,0.0,-7.1939397,-2.0149815,-3.6620762
alexnet_w3_mlp_simclrhn_probe1,1,100,NaN,knife,chair,0.35,0100_nse_dnn_0.35_chair_10_n02791124_13469.png,n02791124_13469.png,0.0,-7.7565875,-1.5646443,-4.378365
alexnet_w3_mlp_simclrhn_probe1,1,101,NaN,knife,dog,0.60,0101_nse_dnn_0.60_dog_10_n02096294_5451.png,n02096294_5451.png,0.0,-12.151798,-2.8037314,-6.610081
alexnet_w3_mlp_simclrhn_probe1,1,102,NaN,knife,bicycle,0.35,0102_nse_dnn_0.35_bicycle_10_n03792782_44296.png,n03792782_44296.png,0.0,-7.6934013,-2.235978,-3.8589811
alexnet_w3_mlp_simclrhn_probe1,1,103,NaN,knife,cat,0.90,0103_nse_dnn_0.90_cat_10_n02123597_7138.png,n02123597_7138.png,0.0,-14.043327,-3.3113947,-7.5886226
alexnet_w3_mlp_simclrhn_probe1,1,104,NaN,knife,bottle,0.35,0104_nse_dnn_0.35_bottle_10_n04560804_12736.png,n04560804_12736.png,0.0,-5.0363617,-1.9973819,-2.1488833
alexnet_w3_mlp_simclrhn_probe1,1,105,NaN,knife,oven,0.60,0105_nse_dnn_0.60_oven_10_n04111531_22797.png,n04111531_22797.png,0.0,-13.634805,-2.6408112,-7.7739277
alexnet_w3_mlp_simclrhn_probe1,1,106,NaN,elephant,bird,0.10,0106_nse_dnn_0.10_bird_10_n02007558_7446.png,n02007558_7446.png,0.0,-2.4447176,-1.3938036,-0.74310845
alexnet_w3_mlp_simclrhn_probe1,1,107,NaN,knife,boat,0.60,0107_nse_dnn_0.60_boat_10_n03662601_16441.png,n03662601_16441.png,0.0,-14.222349,-3.4470172,-7.61931
alexnet_w3_mlp_simclrhn_probe1,1,108,NaN,knife,oven,0.60,0108_nse_dnn_0.60_oven_10_n04111531_22386.png,n04111531_22386.png,0.0,-14.392149,-3.0224915,-8.039562
alexnet_w3_mlp_simclrhn_probe1,1,109,NaN,airplane,airplane,0.00,0109_nse_dnn_0.00_airplane_10_n02690373_1381.png,n02690373_1381.png,1.0,6.040728,-1.2247849,5.1374936
alexnet_w3_mlp_simclrhn_probe1,1,110,NaN,knife,keyboard,0.20,0110_nse_dnn_0.20_keyboard_10_n03085013_20779.png,n03085013_20779.png,0.0,-4.307439,-1.8066362,-1.7683345
alexnet_w3_mlp_simclrhn_probe1,1,111,NaN,knife,dog,0.90,0111_nse_dnn_0.90_dog_10_n02095570_9488.png,n02095570_9488.png,0.0,-13.284216,-3.3085096,-7.0538898
alexnet_w3_mlp_simclrhn_probe1,1,112,NaN,cat,dog,0.03,0112_nse_dnn_0.03_dog_10_n02107312_3262.png,n02107312_3262.png,0.0,-0.066387534,-0.025820196,-0.028685441
alexnet_w3_mlp_simclrhn_probe1,1,113,NaN,oven,oven,0.03,0113_nse_dnn_0.03_oven_10_n04111531_10681.png,n04111531_10681.png,1.0,0.36393702,-0.95364326,0.93166995
alexnet_w3_mlp_simclrhn_probe1,1,114,NaN,knife,knife,0.90,0114_nse_dnn_0.90_knife_10_n03041632_29285.png,n03041632_29285.png,1.0,-3.094688,-8.559174,3.8639748
alexnet_w3_mlp_simclrhn_probe1,1,115,NaN,knife,elephant,0.60,0115_nse_dnn_0.60_elephant_10_n02504458_4776.png,n02504458_4776.png,0.0,-13.710668,-2.6529167,-7.8190107
alexnet_w3_mlp_simclrhn_probe1,1,116,NaN,elephant,boat,0.10,0116_nse_dnn_0.10_boat_10_n04273569_11940.png,n04273569_11940.png,0.0,-3.5013282,-1.0635023,-1.7238033
alexnet_w3_mlp_simclrhn_probe1,1,117,NaN,knife,cat,0.20,0117_nse_dnn_0.20_cat_10_n02123159_1413.png,n02123159_1413.png,0.0,-3.306678,-2.4261827,-0.6226042
alexnet_w3_mlp_simclrhn_probe1,1,118,NaN,knife,airplane,0.60,0118_nse_dnn_0.60_airplane_10_n02690373_6674.png,n02690373_6674.png,0.0,-17.3936,-2.9607549,-10.205564
alexnet_w3_mlp_simclrhn_probe1,1,119,NaN,knife,clock,0.35,0119_nse_dnn_0.35_clock_10_n04548280_5088.png,n04548280_5088.png,0.0,-5.538985,-2.3135552,-2.280723
alexnet_w3_mlp_simclrhn_probe1,1,120,NaN,knife,clock,0.05,0120_nse_dnn_0.05_clock_10_n02708093_6624.png,n02708093_6624.png,0.0,-1.8022164,-1.1133585,-0.4870961
alexnet_w3_mlp_simclrhn_probe1,1,121,NaN,knife,bicycle,0.20,0121_nse_dnn_0.20_bicycle_10_n03792782_29108.png,n03792782_29108.png,0.0,-4.2053947,-1.9580896,-1.5890847
alexnet_w3_mlp_simclrhn_probe1,1,122,NaN,knife,clock,0.20,0122_nse_dnn_0.20_clock_10_n04548280_8649.png,n04548280_8649.png,0.0,-3.001971,-1.3983239,-1.1339498
alexnet_w3_mlp_simclrhn_probe1,1,123,NaN,knife,knife,0.05,0123_nse_dnn_0.05_knife_10_n03041632_737.png,n03041632_737.png,1.0,-0.6784841,-0.7570394,0.055547018
alexnet_w3_mlp_simclrhn_probe1,1,124,NaN,clock,clock,0.10,0124_nse_dnn_0.10_clock_10_n04548280_8668.png,n04548280_8668.png,1.0,1.2657312,-2.8416774,2.9043765
alexnet_w3_mlp_simclrhn_probe1,1,125,NaN,bicycle,bird,0.03,0125_nse_dnn_0.03_bird_10_n01558993_34885.png,n01558993_34885.png,0.0,-1.3595419,-0.49132124,-0.61392474
alexnet_w3_mlp_simclrhn_probe1,1,126,NaN,knife,truck,0.60,0126_nse_dnn_0.60_truck_10_n04467665_37833.png,n04467665_37833.png,0.0,-16.18178,-2.8689651,-9.413582
alexnet_w3_mlp_simclrhn_probe1,1,127,NaN,boat,boat,0.05,0127_nse_dnn_0.05_boat_10_n03662601_5176.png,n03662601_5176.png,1.0,-0.6222031,-0.8361249,0.15126555
alexnet_w3_mlp_simclrhn_probe1,1,128,NaN,chair,chair,0.00,0128_nse_dnn_0.00_chair_10_n03376595_9139.png,n03376595_9139.png,1.0,0.97063386,-0.112000704,0.7655383
alexnet_w3_mlp_simclrhn_probe1,1,129,NaN,knife,oven,0.90,0129_nse_dnn_0.90_oven_10_n04111531_6211.png,n04111531_6211.png,0.0,-17.093456,-3.4743714,-9.630148
alexnet_w3_mlp_simclrhn_probe1,1,130,NaN,boat,boat,0.00,0130_nse_dnn_0.00_boat_10_n04273569_11427.png,n04273569_11427.png,1.0,0.043612145,-0.77703,0.5802816
alexnet_w3_mlp_simclrhn_probe1,1,131,NaN,elephant,bicycle,0.05,0131_nse_dnn_0.05_bicycle_10_n03792782_17198.png,n03792782_17198.png,0.0,-1.3292668,-1.1754329,-0.10877697
alexnet_w3_mlp_simclrhn_probe1,1,132,NaN,clock,clock,0.00,0132_nse_dnn_0.00_clock_10_n04548280_4560.png,n04548280_4560.png,1.0,0.263108,-0.50943965,0.54627365
alexnet_w3_mlp_simclrhn_probe1,1,133,NaN,knife,knife,0.03,0133_nse_dnn_0.03_knife_10_n03041632_3781.png,n03041632_3781.png,1.0,-0.5808525,-1.1035893,0.36963072
alexnet_w3_mlp_simclrhn_probe1,1,134,NaN,knife,clock,0.10,0134_nse_dnn_0.10_clock_10_n03196217_958.png,n03196217_958.png,0.0,-1.9438363,-0.94150805,-0.7087531
alexnet_w3_mlp_simclrhn_probe1,1,135,NaN,knife,elephant,0.35,0135_nse_dnn_0.35_elephant_10_n02504458_485.png,n02504458_485.png,0.0,-5.4198885,-2.625216,-1.9761319
alexnet_w3_mlp_simclrhn_probe1,1,136,NaN,bicycle,clock,0.00,0136_nse_dnn_0.00_clock_10_n02708093_1038.png,n02708093_1038.png,0.0,-0.111617126,0.67780674,-0.558207
alexnet_w3_mlp_simclrhn_probe1,1,137,NaN,oven,oven,0.03,0137_nse_dnn_0.03_oven_10_n04111531_1723.png,n04111531_1723.png,1.0,0.438046,-0.7945329,0.87156487
alexnet_w3_mlp_simclrhn_probe1,1,138,NaN,dog,dog,0.03,0138_nse_dnn_0.03_dog_10_n02110806_27169.png,n02110806_27169.png,1.0,-0.37449107,-2.239958,1.3190844
alexnet_w3_mlp_simclrhn_probe1,1,139,NaN,airplane,airplane,0.00,0139_nse_dnn_0.00_airplane_10_n02690373_12505.png,n02690373_12505.png,1.0,2.0381985,-0.7630385,1.9807738
alexnet_w3_mlp_simclrhn_probe1,1,140,NaN,knife,bird,0.60,0140_nse_dnn_0.60_bird_10_n01828970_454.png,n01828970_454.png,0.0,-10.867317,-3.0694518,-5.5139236
alexnet_w3_mlp_simclrhn_probe1,1,141,NaN,knife,oven,0.20,0141_nse_dnn_0.20_oven_10_n04111531_15635.png,n04111531_15635.png,0.0,-4.3962517,-1.4914374,-2.054014
alexnet_w3_mlp_simclrhn_probe1,1,142,NaN,oven,car,0.00,0142_nse_dnn_0.00_car_10_n04285008_8700.png,n04285008_8700.png,0.0,-1.6341606,-1.0089033,-0.44212374
alexnet_w3_mlp_simclrhn_probe1,1,143,NaN,keyboard,keyboard,0.05,0143_nse_dnn_0.05_keyboard_10_n04505470_4592.png,n04505470_4592.png,1.0,-0.21334937,-0.30965358,0.06809736
alexnet_w3_mlp_simclrhn_probe1,1,144,NaN,knife,boat,0.20,0144_nse_dnn_0.20_boat_10_n03344393_9560.png,n03344393_9560.png,0.0,-4.946972,-1.474332,-2.4555273
alexnet_w3_mlp_simclrhn_probe1,1,145,NaN,elephant,bear,0.00,0145_nse_dnn_0.00_bear_10_n02132136_5138.png,n02132136_5138.png,0.0,-0.22006142,-0.1356354,-0.05969821
alexnet_w3_mlp_simclrhn_probe1,1,146,NaN,knife,chair,0.60,0146_nse_dnn_0.60_chair_10_n03376595_591.png,n03376595_591.png,0.0,-11.701134,-2.9072275,-6.2182307
alexnet_w3_mlp_simclrhn_probe1,1,147,NaN,knife,keyboard,0.90,0147_nse_dnn_0.90_keyboard_10_n03085013_20590.png,n03085013_20590.png,0.0,-9.458714,-3.0950737,-4.499773
alexnet_w3_mlp_simclrhn_probe1,1,148,NaN,knife,dog,0.35,0148_nse_dnn_0.35_dog_10_n02094258_1224.png,n02094258_1224.png,0.0,-7.6906667,-1.9442977,-4.0632963
alexnet_w3_mlp_simclrhn_probe1,1,149,NaN,knife,clock,0.20,0149_nse_dnn_0.20_clock_10_n03196217_4486.png,n03196217_4486.png,0.0,-3.444886,-1.2738471,-1.5351564
alexnet_w3_mlp_simclrhn_probe1,1,150,NaN,knife,bear,0.20,0150_nse_dnn_0.20_bear_10_n02134084_22150.png,n02134084_22150.png,0.0,-4.0735993,-1.5827441,-1.7613007
alexnet_w3_mlp_simclrhn_probe1,1,151,NaN,cat,cat,0.10,0151_nse_dnn_0.10_cat_10_n02123045_3098.png,n02123045_3098.png,1.0,0.618468,-2.5018425,2.2063928
alexnet_w3_mlp_simclrhn_probe1,1,152,NaN,bear,bear,0.20,0152_nse_dnn_0.20_bear_10_n02134418_271.png,n02134418_271.png,1.0,-2.4595737,-2.5563307,0.06841749
alexnet_w3_mlp_simclrhn_probe1,1,153,NaN,oven,oven,0.05,0153_nse_dnn_0.05_oven_10_n04111531_274.png,n04111531_274.png,1.0,0.041683152,-1.7540649,1.2697856
alexnet_w3_mlp_simclrhn_probe1,1,154,NaN,knife,knife,0.35,0154_nse_dnn_0.35_knife_10_n03041632_8563.png,n03041632_8563.png,1.0,-2.0361092,-5.1753435,2.219774
alexnet_w3_mlp_simclrhn_probe1,1,155,NaN,car,car,0.00,0155_nse_dnn_0.00_car_10_n02814533_52389.png,n02814533_52389.png,1.0,5.549027,3.5854914,1.3884293
alexnet_w3_mlp_simclrhn_probe1,1,156,NaN,airplane,airplane,0.00,0156_nse_dnn_0.00_airplane_10_n02690373_10455.png,n02690373_10455.png,1.0,0.38585413,-0.12240192,0.35939133
alexnet_w3_mlp_simclrhn_probe1,1,157,NaN,knife,truck,0.35,0157_nse_dnn_0.35_truck_10_n04467665_4810.png,n04467665_4810.png,0.0,-11.098211,-1.7644415,-6.5999722
alexnet_w3_mlp_simclrhn_probe1,1,158,NaN,knife,knife,0.10,0158_nse_dnn_0.10_knife_10_n03041632_3159.png,n03041632_3159.png,1.0,0.25448936,-3.6343727,2.7498407
alexnet_w3_mlp_simclrhn_probe1,1,159,NaN,knife,cat,0.05,0159_nse_dnn_0.05_cat_10_n02123597_13411.png,n02123597_13411.png,0.0,-2.0387328,-0.7695355,-0.89745796
alexnet_w3_mlp_simclrhn_probe1,1,160,NaN,knife,clock,0.10,0160_nse_dnn_0.10_clock_10_n04548280_2654.png,n04548280_2654.png,0.0,-1.9432688,-0.89967513,-0.73793215
alexnet_w3_mlp_simclrhn_probe1,1,161,NaN,knife,elephant,0.90,0161_nse_dnn_0.90_elephant_10_n02504013_405.png,n02504013_405.png,0.0,-17.270111,-3.3931904,-9.812465
alexnet_w3_mlp_simclrhn_probe1,1,162,NaN,elephant,bottle,0.05,0162_nse_dnn_0.05_bottle_10_n04560804_14729.png,n04560804_14729.png,0.0,-1.65784,-0.09208251,-1.1071578
alexnet_w3_mlp_simclrhn_probe1,1,163,NaN,knife,bottle,0.90,0163_nse_dnn_0.90_bottle_10_n02823428_5482.png,n02823428_5482.png,0.0,-9.003837,-3.2413473,-4.074695
alexnet_w3_mlp_simclrhn_probe1,1,164,NaN,knife,keyboard,0.90,0164_nse_dnn_0.90_keyboard_10_n04505470_4824.png,n04505470_4824.png,0.0,-9.138472,-2.90716,-4.406203
alexnet_w3_mlp_simclrhn_probe1,1,165,NaN,knife,chair,0.20,0165_nse_dnn_0.20_chair_10_n04099969_14208.png,n04099969_14208.png,0.0,-4.172414,-1.6964314,-1.750784
alexnet_w3_mlp_simclrhn_probe1,1,166,NaN,elephant,elephant,0.00,0166_nse_dnn_0.00_elephant_10_n02504013_1647.png,n02504013_1647.png,1.0,4.6405377,0.2529596,3.1024861
alexnet_w3_mlp_simclrhn_probe1,1,167,NaN,cat,cat,0.20,0167_nse_dnn_0.20_cat_10_n02123597_11564.png,n02123597_11564.png,1.0,-2.293967,-2.3576381,0.045022275
alexnet_w3_mlp_simclrhn_probe1,1,168,NaN,knife,car,0.35,0168_nse_dnn_0.35_car_10_n03100240_16653.png,n03100240_16653.png,0.0,-10.372815,-2.0266047,-5.9016623
alexnet_w3_mlp_simclrhn_probe1,1,169,NaN,keyboard,oven,0.00,0169_nse_dnn_0.00_oven_10_n04111531_9611.png,n04111531_9611.png,0.0,-0.49267387,0.5910713,-0.7663236
alexnet_w3_mlp_simclrhn_probe1,1,170,NaN,elephant,car,0.05,0170_nse_dnn_0.05_car_10_n02814533_35054.png,n02814533_35054.png,0.0,-3.2872407,-0.57488585,-1.9179245
alexnet_w3_mlp_simclrhn_probe1,1,171,NaN,elephant,oven,0.20,0171_nse_dnn_0.20_oven_10_n04111531_3121.png,n04111531_3121.png,0.0,-2.6701865,-2.0523472,-0.43687838
alexnet_w3_mlp_simclrhn_probe1,1,172,NaN,knife,chair,0.20,0172_nse_dnn_0.20_chair_10_n02791124_4969.png,n02791124_4969.png,0.0,-2.9462373,-2.4900267,-0.32258964
alexnet_w3_mlp_simclrhn_probe1,1,173,NaN,knife,car,0.20,0173_nse_dnn_0.20_car_10_n02814533_211.png,n02814533_211.png,0.0,-6.043982,-2.5760748,-2.4521806
alexnet_w3_mlp_simclrhn_probe1,1,174,NaN,dog,dog,0.00,0174_nse_dnn_0.00_dog_10_n02091244_13118.png,n02091244_13118.png,1.0,-0.30597985,-1.03672,0.51671135
alexnet_w3_mlp_simclrhn_probe1,1,175,NaN,knife,bottle,0.10,0175_nse_dnn_0.10_bottle_10_n04560804_3597.png,n04560804_3597.png,0.0,-1.8481902,-1.8037782,-0.031404037
alexnet_w3_mlp_simclrhn_probe1,1,176,NaN,knife,bottle,0.60,0176_nse_dnn_0.60_bottle_10_n04560804_30885.png,n04560804_30885.png,0.0,-7.4742208,-2.327563,-3.6392367
alexnet_w3_mlp_simclrhn_probe1,1,177,NaN,knife,bottle,0.60,0177_nse_dnn_0.60_bottle_10_n04560804_9813.png,n04560804_9813.png,0.0,-8.007205,-3.0398998,-3.5124152
alexnet_w3_mlp_simclrhn_probe1,1,178,NaN,knife,boat,0.35,0178_nse_dnn_0.35_boat_10_n02951358_10003.png,n02951358_10003.png,0.0,-8.465153,-2.4879985,-4.226486
alexnet_w3_mlp_simclrhn_probe1,1,179,NaN,knife,bear,0.35,0179_nse_dnn_0.35_bear_10_n02133161_1500.png,n02133161_1500.png,0.0,-8.017573,-2.3271787,-4.0237164
alexnet_w3_mlp_simclrhn_probe1,1,180,NaN,knife,oven,0.20,0180_nse_dnn_0.20_oven_10_n04111531_4467.png,n04111531_4467.png,0.0,-4.1065736,-1.5837288,-1.7839206
alexnet_w3_mlp_simclrhn_probe1,1,181,NaN,knife,clock,0.20,0181_nse_dnn_0.20_clock_10_n02708093_8002.png,n02708093_8002.png,0.0,-2.8092859,-2.0498116,-0.53702945
alexnet_w3_mlp_simclrhn_probe1,1,182,NaN,knife,boat,0.90,0182_nse_dnn_0.90_boat_10_n02951358_34261.png,n02951358_34261.png,0.0,-16.16624,-3.215811,-9.157337
alexnet_w3_mlp_simclrhn_probe1,1,183,NaN,boat,boat,0.00,0183_nse_dnn_0.00_boat_10_n04612504_20067.png,n04612504_20067.png,1.0,2.7226624,1.0829985,1.1594175
alexnet_w3_mlp_simclrhn_probe1,1,184,NaN,knife,clock,0.35,0184_nse_dnn_0.35_clock_10_n03196217_6163.png,n03196217_6163.png,0.0,-4.8860765,-2.1751175,-1.9169375
alexnet_w3_mlp_simclrhn_probe1,1,185,NaN,keyboard,keyboard,0.03,0185_nse_dnn_0.03_keyboard_10_n03085013_23119.png,n03085013_23119.png,1.0,-0.047543995,-0.3566284,0.21855567
alexnet_w3_mlp_simclrhn_probe1,1,186,NaN,knife,clock,0.60,0186_nse_dnn_0.60_clock_10_n04548280_4358.png,n04548280_4358.png,0.0,-7.5584736,-2.8894067,-3.301529
alexnet_w3_mlp_simclrhn_probe1,1,187,NaN,bear,dog,0.05,0187_nse_dnn_0.05_dog_10_n02101388_2968.png,n02101388_2968.png,0.0,-1.2557815,-0.24356997,-0.7157417
alexnet_w3_mlp_simclrhn_probe1,1,188,NaN,oven,oven,0.10,0188_nse_dnn_0.10_oven_10_n04111531_8081.png,n04111531_8081.png,1.0,-1.1724186,-1.3494211,0.12515971
alexnet_w3_mlp_simclrhn_probe1,1,189,NaN,keyboard,keyboard,0.05,0189_nse_dnn_0.05_keyboard_10_n04505470_4994.png,n04505470_4994.png,1.0,-0.49484065,-0.58263993,0.062083468
alexnet_w3_mlp_simclrhn_probe1,1,190,NaN,elephant,dog,0.10,0190_nse_dnn_0.10_dog_10_n02101006_16132.png,n02101006_16132.png,0.0,-2.4404318,-1.6830696,-0.535536
alexnet_w3_mlp_simclrhn_probe1,1,191,NaN,elephant,elephant,0.10,0191_nse_dnn_0.10_elephant_10_n02504458_6888.png,n02504458_6888.png,1.0,-0.5462487,-1.8379691,0.91338426
alexnet_w3_mlp_simclrhn_probe1,1,192,NaN,knife,bird,0.60,0192_nse_dnn_0.60_bird_10_n02018207_43958.png,n02018207_43958.png,0.0,-11.002303,-2.6150117,-5.9307103
alexnet_w3_mlp_simclrhn_probe1,1,193,NaN,cat,cat,0.03,0193_nse_dnn_0.03_cat_10_n02123045_2719.png,n02123045_2719.png,1.0,3.7269652,-2.999751,4.7565064
alexnet_w3_mlp_simclrhn_probe1,1,194,NaN,keyboard,keyboard,0.05,0194_nse_dnn_0.05_keyboard_10_n03085013_5611.png,n03085013_5611.png,1.0,0.43939722,-1.173006,1.1401412
alexnet_w3_mlp_simclrhn_probe1,1,195,NaN,bicycle,boat,0.03,0195_nse_dnn_0.03_boat_10_n03344393_6892.png,n03344393_6892.png,0.0,-0.56093943,-0.2870232,-0.19368804
alexnet_w3_mlp_simclrhn_probe1,1,196,NaN,knife,chair,0.90,0196_nse_dnn_0.90_chair_10_n02791124_5411.png,n02791124_5411.png,0.0,-14.11738,-3.4867663,-7.5169787
alexnet_w3_mlp_simclrhn_probe1,1,197,NaN,elephant,elephant,0.05,0197_nse_dnn_0.05_elephant_10_n02504013_8391.png,n02504013_8391.png,1.0,2.6515355,-0.5548839,2.267281
alexnet_w3_mlp_simclrhn_probe1,1,198,NaN,knife,chair,0.60,0198_nse_dnn_0.60_chair_10_n02791124_7167.png,n02791124_7167.png,0.0,-11.878952,-2.8618178,-6.3760767
alexnet_w3_mlp_simclrhn_probe1,1,199,NaN,elephant,truck,0.10,0199_nse_dnn_0.10_truck_10_n03417042_2170.png,n03417042_2170.png,0.0,-3.408263,-1.9059922,-1.0622659
alexnet_w3_mlp_simclrhn_probe1,1,200,NaN,knife,chair,0.35,0200_nse_dnn_0.35_chair_10_n04099969_2109.png,n04099969_2109.png,0.0,-6.817968,-2.2199583,-3.251284
alexnet_w3_mlp_simclrhn_probe1,1,201,NaN,knife,chair,0.90,0201_nse_dnn_0.90_chair_10_n04429376_7321.png,n04429376_7321.png,0.0,-14.463486,-3.422595,-7.807089
alexnet_w3_mlp_simclrhn_probe1,1,202,NaN,knife,airplane,0.35,0202_nse_dnn_0.35_airplane_10_n02690373_1733.png,n02690373_1733.png,0.0,-11.092535,-1.8491449,-6.536064
alexnet_w3_mlp_simclrhn_probe1,1,203,NaN,cat,bird,0.10,0203_nse_dnn_0.10_bird_10_n02006656_5719.png,n02006656_5719.png,0.0,-2.1483762,-1.6930757,-0.3219461
alexnet_w3_mlp_simclrhn_probe1,1,204,NaN,bicycle,bicycle,0.03,0204_nse_dnn_0.03_bicycle_10_n03792782_12354.png,n03792782_12354.png,1.0,0.91783917,-1.5591274,1.7514799
alexnet_w3_mlp_simclrhn_probe1,1,205,NaN,bottle,bottle,0.03,0205_nse_dnn_0.03_bottle_10_n04557648_12671.png,n04557648_12671.png,1.0,1.5116495,-2.1366725,2.5797534
alexnet_w3_mlp_simclrhn_probe1,1,206,NaN,elephant,elephant,0.05,0206_nse_dnn_0.05_elephant_10_n02504013_318.png,n02504013_318.png,1.0,1.8998147,-0.57380664,1.7491145
alexnet_w3_mlp_simclrhn_probe1,1,207,NaN,knife,boat,0.90,0207_nse_dnn_0.90_boat_10_n04273569_16078.png,n04273569_16078.png,0.0,-16.71025,-3.2471855,-9.519825
alexnet_w3_mlp_simclrhn_probe1,1,208,NaN,knife,cat,0.03,0208_nse_dnn_0.03_cat_10_n02123597_9664.png,n02123597_9664.png,0.0,-1.4101347,-0.5012082,-0.6427081
alexnet_w3_mlp_simclrhn_probe1,1,209,NaN,knife,clock,0.35,0209_nse_dnn_0.35_clock_10_n04548280_4113.png,n04548280_4113.png,0.0,-4.787908,-1.9014364,-2.0410438
alexnet_w3_mlp_simclrhn_probe1,1,210,NaN,knife,keyboard,0.60,0210_nse_dnn_0.60_keyboard_10_n03085013_20363.png,n03085013_20363.png,0.0,-7.6817245,-2.9116268,-3.3729684
alexnet_w3_mlp_simclrhn_probe1,1,211,NaN,elephant,truck,0.03,0211_nse_dnn_0.03_truck_10_n04467665_67908.png,n04467665_67908.png,0.0,-1.1004802,-0.6233498,-0.33738217
alexnet_w3_mlp_simclrhn_probe1,1,212,NaN,knife,truck,0.90,0212_nse_dnn_0.90_truck_10_n04467665_61522.png,n04467665_61522.png,0.0,-19.652578,-3.6247754,-11.333368
alexnet_w3_mlp_simclrhn_probe1,1,213,NaN,knife,cat,0.90,0213_nse_dnn_0.90_cat_10_n02123045_3648.png,n02123045_3648.png,0.0,-14.525758,-3.0682888,-8.101654
alexnet_w3_mlp_simclrhn_probe1,1,214,NaN,knife,dog,0.60,0214_nse_dnn_0.60_dog_10_n02107574_3685.png,n02107574_3685.png,0.0,-11.666654,-2.5639682,-6.436571
alexnet_w3_mlp_simclrhn_probe1,1,215,NaN,knife,dog,0.20,0215_nse_dnn_0.20_dog_10_n02100236_4048.png,n02100236_4048.png,0.0,-5.214899,-1.7998863,-2.4147787
alexnet_w3_mlp_simclrhn_probe1,1,216,NaN,knife,bear,0.35,0216_nse_dnn_0.35_bear_10_n02134418_5073.png,n02134418_5073.png,0.0,-6.926218,-2.74868,-2.9539654
alexnet_w3_mlp_simclrhn_probe1,1,217,NaN,knife,airplane,0.90,0217_nse_dnn_0.90_airplane_10_n02690373_9012.png,n02690373_9012.png,0.0,-20.544245,-3.4524922,-12.085694
alexnet_w3_mlp_simclrhn_probe1,1,218,NaN,knife,cat,0.35,0218_nse_dnn_0.35_cat_10_n02123159_6439.png,n02123159_6439.png,0.0,-7.153719,-2.152419,-3.536453
alexnet_w3_mlp_simclrhn_probe1,1,219,NaN,knife,cat,0.60,0219_nse_dnn_0.60_cat_10_n02125311_3616.png,n02125311_3616.png,0.0,-11.6132765,-2.8285751,-6.211722
alexnet_w3_mlp_simclrhn_probe1,1,220,NaN,knife,bottle,0.60,0220_nse_dnn_0.60_bottle_10_n04557648_4356.png,n04557648_4356.png,0.0,-7.3763695,-3.0481415,-3.0605195
alexnet_w3_mlp_simclrhn_probe1,1,221,NaN,knife,bird,0.35,0221_nse_dnn_0.35_bird_10_n02027492_6813.png,n02027492_6813.png,0.0,-6.7331076,-2.0580776,-3.3057454
alexnet_w3_mlp_simclrhn_probe1,1,222,NaN,chair,chair,0.03,0222_nse_dnn_0.03_chair_10_n04429376_26765.png,n04429376_26765.png,1.0,-0.354267,-1.2484615,0.632291
alexnet_w3_mlp_simclrhn_probe1,1,223,NaN,knife,elephant,0.35,0223_nse_dnn_0.35_elephant_10_n02504458_4811.png,n02504458_4811.png,0.0,-6.48638,-2.0363822,-3.1466238
alexnet_w3_mlp_simclrhn_probe1,1,224,NaN,keyboard,keyboard,0.20,0224_nse_dnn_0.20_keyboard_10_n04505470_1351.png,n04505470_1351.png,1.0,-2.7395105,-3.0242448,0.20133752
alexnet_w3_mlp_simclrhn_probe1,1,225,NaN,chair,chair,0.05,0225_nse_dnn_0.05_chair_10_n04099969_2532.png,n04099969_2532.png,1.0,-0.10822046,-1.790801,1.1897641
alexnet_w3_mlp_simclrhn_probe1,1,226,NaN,knife,airplane,0.10,0226_nse_dnn_0.10_airplane_10_n02690373_8547.png,n02690373_8547.png,0.0,-2.7807953,-1.0519166,-1.2225019
alexnet_w3_mlp_simclrhn_probe1,1,227,NaN,knife,truck,0.35,0227_nse_dnn_0.35_truck_10_n03417042_23445.png,n03417042_23445.png,0.0,-10.724703,-1.7876966,-6.3194175
alexnet_w3_mlp_simclrhn_probe1,1,228,NaN,knife,truck,0.90,0228_nse_dnn_0.90_truck_10_n04467665_48953.png,n04467665_48953.png,0.0,-21.056324,-2.868422,-12.860789
alexnet_w3_mlp_simclrhn_probe1,1,229,NaN,knife,boat,0.20,0229_nse_dnn_0.20_boat_10_n03662601_11739.png,n03662601_11739.png,0.0,-5.766216,-1.2992628,-3.158613
alexnet_w3_mlp_simclrhn_probe1,1,230,NaN,cat,cat,0.03,0230_nse_dnn_0.03_cat_10_n02123597_4948.png,n02123597_4948.png,1.0,0.81933475,-0.09208921,0.6444741
alexnet_w3_mlp_simclrhn_probe1,1,231,NaN,knife,oven,0.35,0231_nse_dnn_0.35_oven_10_n04111531_9411.png,n04111531_9411.png,0.0,-7.692404,-2.1688576,-3.9057372
alexnet_w3_mlp_simclrhn_probe1,1,232,NaN,knife,bicycle,0.60,0232_nse_dnn_0.60_bicycle_10_n03792782_988.png,n03792782_988.png,0.0,-13.890963,-2.6975431,-7.9149427
alexnet_w3_mlp_simclrhn_probe1,1,233,NaN,elephant,car,0.05,0233_nse_dnn_0.05_car_10_n02814533_65294.png,n02814533_65294.png,0.0,-2.0774071,-1.1730013,-0.6395115
alexnet_w3_mlp_simclrhn_probe1,1,234,NaN,bottle,bottle,0.00,0234_nse_dnn_0.00_bottle_10_n04557648_10420.png,n04557648_10420.png,1.0,0.5409679,-0.69454855,0.8736421
alexnet_w3_mlp_simclrhn_probe1,1,235,NaN,knife,chair,0.60,0235_nse_dnn_0.60_chair_10_n04099969_33329.png,n04099969_33329.png,0.0,-10.561772,-2.9107044,-5.410122
alexnet_w3_mlp_simclrhn_probe1,1,236,NaN,knife,oven,0.35,0236_nse_dnn_0.35_oven_10_n04111531_20493.png,n04111531_20493.png,0.0,-8.438528,-2.1412876,-4.4528213
alexnet_w3_mlp_simclrhn_probe1,1,237,NaN,clock,clock,0.10,0237_nse_dnn_0.10_clock_10_n04548280_7839.png,n04548280_7839.png,1.0,-0.6878894,-1.0961487,0.28868294
alexnet_w3_mlp_simclrhn_probe1,1,238,NaN,knife,airplane,0.20,0238_nse_dnn_0.20_airplane_10_n02690373_7229.png,n02690373_7229.png,0.0,-6.852563,-1.1134008,-4.0582004
alexnet_w3_mlp_simclrhn_probe1,1,239,NaN,knife,airplane,0.10,0239_nse_dnn_0.10_airplane_10_n02690373_5003.png,n02690373_5003.png,0.0,-3.692557,-0.81864274,-2.0321643
alexnet_w3_mlp_simclrhn_probe1,1,240,NaN,knife,chair,0.20,0240_nse_dnn_0.20_chair_10_n02791124_206.png,n02791124_206.png,0.0,-3.1152394,-2.4871483,-0.44412747
alexnet_w3_mlp_simclrhn_probe1,1,241,NaN,oven,oven,0.00,0241_nse_dnn_0.00_oven_10_n04111531_7283.png,n04111531_7283.png,1.0,0.5926366,-0.33941478,0.6590598
alexnet_w3_mlp_simclrhn_probe1,1,242,NaN,knife,chair,0.35,0242_nse_dnn_0.35_chair_10_n04429376_8124.png,n04429376_8124.png,0.0,-6.779067,-2.341241,-3.138017
alexnet_w3_mlp_simclrhn_probe1,1,243,NaN,keyboard,keyboard,0.00,0243_nse_dnn_0.00_keyboard_10_n04505470_3864.png,n04505470_3864.png,1.0,-0.99903107,-1.3535044,0.25065053
alexnet_w3_mlp_simclrhn_probe1,1,244,NaN,knife,bottle,0.35,0244_nse_dnn_0.35_bottle_10_n03937543_3289.png,n03937543_3289.png,0.0,-5.5021667,-2.3238404,-2.2474163
alexnet_w3_mlp_simclrhn_probe1,1,245,NaN,knife,boat,0.10,0245_nse_dnn_0.10_boat_10_n03344393_5207.png,n03344393_5207.png,0.0,-3.0840948,-0.7036554,-1.6832248
alexnet_w3_mlp_simclrhn_probe1,1,246,NaN,knife,airplane,0.90,0246_nse_dnn_0.90_airplane_10_n02690373_629.png,n02690373_629.png,0.0,-20.832222,-3.1596022,-12.4964285
alexnet_w3_mlp_simclrhn_probe1,1,247,NaN,elephant,elephant,0.03,0247_nse_dnn_0.03_elephant_10_n02504013_104.png,n02504013_104.png,1.0,0.92451495,0.13784748,0.5562579
alexnet_w3_mlp_simclrhn_probe1,1,248,NaN,bicycle,bicycle,0.03,0248_nse_dnn_0.03_bicycle_10_n03792782_42626.png,n03792782_42626.png,1.0,-0.10013935,-1.0804044,0.69315207
alexnet_w3_mlp_simclrhn_probe1,1,249,NaN,knife,truck,0.35,0249_nse_dnn_0.35_truck_10_n03417042_6847.png,n03417042_6847.png,0.0,-10.311296,-2.2066722,-5.7308345
alexnet_w3_mlp_simclrhn_probe1,1,250,NaN,elephant,chair,0.10,0250_nse_dnn_0.10_chair_10_n04429376_23573.png,n04429376_23573.png,0.0,-2.313579,-1.498986,-0.5760043
alexnet_w3_mlp_simclrhn_probe1,1,251,NaN,knife,clock,0.03,0251_nse_dnn_0.03_clock_10_n03196217_7637.png,n03196217_7637.png,0.0,-0.2515509,0.3379932,-0.41687065
alexnet_w3_mlp_simclrhn_probe1,1,252,NaN,knife,airplane,0.05,0252_nse_dnn_0.05_airplane_10_n02690373_932.png,n02690373_932.png,0.0,-2.7224896,-1.292003,-1.0115068
alexnet_w3_mlp_simclrhn_probe1,1,253,NaN,truck,truck,0.05,0253_nse_dnn_0.05_truck_10_n03417042_9478.png,n03417042_9478.png,1.0,0.16874026,-0.5601066,0.5153726
alexnet_w3_mlp_simclrhn_probe1,1,254,NaN,clock,clock,0.05,0254_nse_dnn_0.05_clock_10_n04548280_7800.png,n04548280_7800.png,1.0,0.40394667,-0.18231143,0.4145471
alexnet_w3_mlp_simclrhn_probe1,1,255,NaN,knife,keyboard,0.10,0255_nse_dnn_0.10_keyboard_10_n03085013_1698.png,n03085013_1698.png,0.0,-3.1981986,-0.34970987,-2.014186
alexnet_w3_mlp_simclrhn_probe1,1,256,NaN,knife,boat,0.20,0256_nse_dnn_0.20_boat_10_n04273569_32553.png,n04273569_32553.png,0.0,-4.501855,-1.2341833,-2.310593
alexnet_w3_mlp_simclrhn_probe1,1,257,NaN,bear,bear,0.03,0257_nse_dnn_0.03_bear_10_n02132136_23078.png,n02132136_23078.png,1.0,0.707068,0.6029601,0.07361542
alexnet_w3_mlp_simclrhn_probe1,1,258,NaN,bottle,bottle,0.00,0258_nse_dnn_0.00_bottle_10_n04591713_5476.png,n04591713_5476.png,1.0,0.14397638,-0.9206114,0.7527772
alexnet_w3_mlp_simclrhn_probe1,1,259,NaN,knife,knife,0.10,0259_nse_dnn_0.10_knife_10_n03041632_31849.png,n03041632_31849.png,1.0,-1.6363344,-1.7082496,0.05085169
alexnet_w3_mlp_simclrhn_probe1,1,260,NaN,knife,truck,0.90,0260_nse_dnn_0.90_truck_10_n03417042_12908.png,n03417042_12908.png,0.0,-21.18753,-3.0604146,-12.817806
alexnet_w3_mlp_simclrhn_probe1,1,261,NaN,knife,clock,0.60,0261_nse_dnn_0.60_clock_10_n02708093_1418.png,n02708093_1418.png,0.0,-7.6412487,-2.9768517,-3.298227
alexnet_w3_mlp_simclrhn_probe1,1,262,NaN,car,car,0.05,0262_nse_dnn_0.05_car_10_n03100240_4173.png,n03100240_4173.png,1.0,-0.1244471,-0.48331118,0.2537552
alexnet_w3_mlp_simclrhn_probe1,1,263,NaN,keyboard,keyboard,0.10,0263_nse_dnn_0.10_keyboard_10_n03085013_25476.png,n03085013_25476.png,1.0,0.25771254,-2.097508,1.6653924
alexnet_w3_mlp_simclrhn_probe1,1,264,NaN,cat,cat,0.05,0264_nse_dnn_0.05_cat_10_n02125311_34464.png,n02125311_34464.png,1.0,0.941443,-1.2557759,1.5536684
alexnet_w3_mlp_simclrhn_probe1,1,265,NaN,knife,knife,0.20,0265_nse_dnn_0.20_knife_10_n03041632_36789.png,n03041632_36789.png,1.0,-1.5222989,-3.2933648,1.2523327
alexnet_w3_mlp_simclrhn_probe1,1,266,NaN,dog,dog,0.03,0266_nse_dnn_0.03_dog_10_n02108915_3733.png,n02108915_3733.png,1.0,-1.0005995,-1.4357432,0.30769306
alexnet_w3_mlp_simclrhn_probe1,1,267,NaN,knife,knife,0.60,0267_nse_dnn_0.60_knife_10_n03041632_42162.png,n03041632_42162.png,1.0,-2.6719668,-7.7187624,3.5686235
alexnet_w3_mlp_simclrhn_probe1,1,268,NaN,knife,keyboard,0.10,0268_nse_dnn_0.10_keyboard_10_n03085013_29042.png,n03085013_29042.png,0.0,-2.4805622,-0.47266662,-1.4197966
alexnet_w3_mlp_simclrhn_probe1,1,269,NaN,airplane,airplane,0.00,0269_nse_dnn_0.00_airplane_10_n02690373_19407.png,n02690373_19407.png,1.0,1.7996126,0.4575432,0.94898635
alexnet_w3_mlp_simclrhn_probe1,1,270,NaN,bear,bear,0.05,0270_nse_dnn_0.05_bear_10_n02134084_22029.png,n02134084_22029.png,1.0,-1.1402264,-1.3434613,0.14370878
alexnet_w3_mlp_simclrhn_probe1,1,271,NaN,knife,dog,0.60,0271_nse_dnn_0.60_dog_10_n02088238_11711.png,n02088238_11711.png,0.0,-11.147115,-2.9374466,-5.8051124
alexnet_w3_mlp_simclrhn_probe1,1,272,NaN,knife,elephant,0.20,0272_nse_dnn_0.20_elephant_10_n02504013_8522.png,n02504013_8522.png,0.0,-3.3573475,-1.3943124,-1.3880755
alexnet_w3_mlp_simclrhn_probe1,1,273,NaN,knife,elephant,0.60,0273_nse_dnn_0.60_elephant_10_n02504458_5941.png,n02504458_5941.png,0.0,-14.276348,-3.0718422,-7.9227824
alexnet_w3_mlp_simclrhn_probe1,1,274,NaN,truck,truck,0.00,0274_nse_dnn_0.00_truck_10_n04467665_242.png,n04467665_242.png,1.0,2.7577496,1.7922655,0.68270034
alexnet_w3_mlp_simclrhn_probe1,1,275,NaN,keyboard,keyboard,0.00,0275_nse_dnn_0.00_keyboard_10_n04505470_4473.png,n04505470_4473.png,1.0,1.5363438,-0.27879548,1.2834973
alexnet_w3_mlp_simclrhn_probe1,1,276,NaN,boat,boat,0.05,0276_nse_dnn_0.05_boat_10_n03662601_10811.png,n03662601_10811.png,1.0,-0.7688416,-1.4751544,0.49943855
alexnet_w3_mlp_simclrhn_probe1,1,277,NaN,keyboard,keyboard,0.03,0277_nse_dnn_0.03_keyboard_10_n03085013_20495.png,n03085013_20495.png,1.0,0.46042603,-0.76839626,0.8689085
alexnet_w3_mlp_simclrhn_probe1,1,278,NaN,bicycle,bicycle,0.00,0278_nse_dnn_0.00_bicycle_10_n02835271_15038.png,n02835271_15038.png,1.0,4.795204,-1.2203391,4.253631
alexnet_w3_mlp_simclrhn_probe1,1,279,NaN,knife,bear,0.20,0279_nse_dnn_0.20_bear_10_n02134418_5271.png,n02134418_5271.png,0.0,-4.105441,-1.9232994,-1.5430073
alexnet_w3_mlp_simclrhn_probe1,1,280,NaN,knife,chair,0.10,0280_nse_dnn_0.10_chair_10_n02791124_1217.png,n02791124_1217.png,0.0,-2.1292958,-0.82740307,-0.9205772
alexnet_w3_mlp_simclrhn_probe1,1,281,NaN,elephant,elephant,0.10,0281_nse_dnn_0.10_elephant_10_n02504013_2394.png,n02504013_2394.png,1.0,-0.91819704,-1.4561034,0.38035727
alexnet_w3_mlp_simclrhn_probe1,1,282,NaN,knife,dog,0.35,0282_nse_dnn_0.35_dog_10_n02105505_5576.png,n02105505_5576.png,0.0,-7.604216,-2.2422967,-3.7914495
alexnet_w3_mlp_simclrhn_probe1,1,283,NaN,knife,airplane,0.10,0283_nse_dnn_0.10_airplane_10_n02690373_2579.png,n02690373_2579.png,0.0,-4.166675,-0.79036164,-2.3874142
alexnet_w3_mlp_simclrhn_probe1,1,284,NaN,bear,dog,0.05,0284_nse_dnn_0.05_dog_10_n02102480_10015.png,n02102480_10015.png,0.0,-0.7970665,-0.2944226,-0.35542294
alexnet_w3_mlp_simclrhn_probe1,1,285,NaN,cat,cat,0.10,0285_nse_dnn_0.10_cat_10_n02124075_5853.png,n02124075_5853.png,1.0,-0.7495167,-2.019844,0.8982571
alexnet_w3_mlp_simclrhn_probe1,1,286,NaN,airplane,truck,0.00,0286_nse_dnn_0.00_truck_10_n03796401_2012.png,n03796401_2012.png,0.0,0.75306034,1.1315356,-0.26762247
alexnet_w3_mlp_simclrhn_probe1,1,287,NaN,knife,keyboard,0.10,0287_nse_dnn_0.10_keyboard_10_n04505470_1286.png,n04505470_1286.png,0.0,-1.2576053,-1.2562568,-0.0009535303
alexnet_w3_mlp_simclrhn_probe1,1,288,NaN,chair,truck,0.10,0288_nse_dnn_0.10_truck_10_n04467665_74008.png,n04467665_74008.png,0.0,-2.4961925,-2.1572504,-0.23966822
alexnet_w3_mlp_simclrhn_probe1,1,289,NaN,knife,bottle,0.90,0289_nse_dnn_0.90_bottle_10_n04560804_10541.png,n04560804_10541.png,0.0,-8.994874,-2.7341163,-4.427024
alexnet_w3_mlp_simclrhn_probe1,1,290,NaN,knife,airplane,0.20,0290_nse_dnn_0.20_airplane_10_n02690373_8967.png,n02690373_8967.png,0.0,-5.8177896,-1.7219008,-2.8962307
alexnet_w3_mlp_simclrhn_probe1,1,291,NaN,knife,keyboard,0.60,0291_nse_dnn_0.60_keyboard_10_n04505470_3309.png,n04505470_3309.png,0.0,-8.784761,-3.4026575,-3.8057222
alexnet_w3_mlp_simclrhn_probe1,1,292,NaN,car,car,0.05,0292_nse_dnn_0.05_car_10_n02814533_42665.png,n02814533_42665.png,1.0,2.4035099,0.94315124,1.0326295
alexnet_w3_mlp_simclrhn_probe1,1,293,NaN,cat,bicycle,0.03,0293_nse_dnn_0.03_bicycle_10_n03792782_6613.png,n03792782_6613.png,0.0,-1.8473613,-1.0792934,-0.5431061
alexnet_w3_mlp_simclrhn_probe1,1,294,NaN,knife,knife,0.00,0294_nse_dnn_0.00_knife_10_n03041632_38540.png,n03041632_38540.png,1.0,1.2383819,-1.3886944,1.8576233
alexnet_w3_mlp_simclrhn_probe1,1,295,NaN,knife,dog,0.90,0295_nse_dnn_0.90_dog_10_n02109047_6542.png,n02109047_6542.png,0.0,-12.787147,-3.1900826,-6.786149
alexnet_w3_mlp_simclrhn_probe1,1,296,NaN,knife,bicycle,0.35,0296_nse_dnn_0.35_bicycle_10_n03792782_51156.png,n03792782_51156.png,0.0,-7.6154604,-2.496886,-3.6193786
alexnet_w3_mlp_simclrhn_probe1,1,297,NaN,knife,bottle,0.10,0297_nse_dnn_0.10_bottle_10_n04579145_5795.png,n04579145_5795.png,0.0,-2.05214,-1.1263702,-0.65461814
alexnet_w3_mlp_simclrhn_probe1,1,298,NaN,chair,chair,0.03,0298_nse_dnn_0.03_chair_10_n03376595_787.png,n03376595_787.png,1.0,-0.58238244,-0.7487246,0.11762166
alexnet_w3_mlp_simclrhn_probe1,1,299,NaN,knife,bottle,0.90,0299_nse_dnn_0.90_bottle_10_n04579145_1117.png,n04579145_1117.png,0.0,-8.78503,-3.7393706,-3.5678205
alexnet_w3_mlp_simclrhn_probe1,1,300,NaN,airplane,bird,0.00,0300_nse_dnn_0.00_bird_10_n01795545_11076.png,n01795545_11076.png,0.0,-1.1137496,-0.76855487,-0.24408956
alexnet_w3_mlp_simclrhn_probe1,1,301,NaN,knife,clock,0.20,0301_nse_dnn_0.20_clock_10_n03196217_6741.png,n03196217_6741.png,0.0,-3.1902094,-1.6294317,-1.1036365
alexnet_w3_mlp_simclrhn_probe1,1,302,NaN,oven,oven,0.00,0302_nse_dnn_0.00_oven_10_n04111531_3555.png,n04111531_3555.png,1.0,0.22442491,-0.9609057,0.8381553
alexnet_w3_mlp_simclrhn_probe1,1,303,NaN,knife,knife,0.20,0303_nse_dnn_0.20_knife_10_n03041632_36280.png,n03041632_36280.png,1.0,-1.45905,-3.753602,1.6224931
alexnet_w3_mlp_simclrhn_probe1,1,304,NaN,truck,truck,0.03,0304_nse_dnn_0.03_truck_10_n04467665_74235.png,n04467665_74235.png,1.0,3.7837071,1.6340328,1.5200493
alexnet_w3_mlp_simclrhn_probe1,1,305,NaN,knife,clock,0.90,0305_nse_dnn_0.90_clock_10_n04548280_6287.png,n04548280_6287.png,0.0,-9.264477,-3.4713125,-4.096386
alexnet_w3_mlp_simclrhn_probe1,1,306,NaN,elephant,elephant,0.00,0306_nse_dnn_0.00_elephant_10_n02504458_6472.png,n02504458_6472.png,1.0,3.939005,0.89530516,2.1522207
alexnet_w3_mlp_simclrhn_probe1,1,307,NaN,bicycle,bicycle,0.05,0307_nse_dnn_0.05_bicycle_10_n03792782_11034.png,n03792782_11034.png,1.0,0.66808283,-1.5264499,1.5517691
alexnet_w3_mlp_simclrhn_probe1,1,308,NaN,knife,dog,0.60,0308_nse_dnn_0.60_dog_10_n02109525_50916.png,n02109525_50916.png,0.0,-11.15352,-3.2151945,-5.6132436
alexnet_w3_mlp_simclrhn_probe1,1,309,NaN,knife,dog,0.60,0309_nse_dnn_0.60_dog_10_n02097658_1923.png,n02097658_1923.png,0.0,-11.402575,-3.005702,-5.9374857
alexnet_w3_mlp_simclrhn_probe1,1,310,NaN,elephant,knife,0.03,0310_nse_dnn_0.03_knife_10_n03041632_22480.png,n03041632_22480.png,0.0,-1.3177453,-1.260387,-0.040558502
alexnet_w3_mlp_simclrhn_probe1,1,311,NaN,knife,elephant,0.35,0311_nse_dnn_0.35_elephant_10_n02504458_1041.png,n02504458_1041.png,0.0,-9.522204,-2.0552478,-5.279936
alexnet_w3_mlp_simclrhn_probe1,1,312,NaN,elephant,knife,0.10,0312_nse_dnn_0.10_knife_10_n03041632_28129.png,n03041632_28129.png,0.0,-2.6797106,-1.2114391,-1.0382247
alexnet_w3_mlp_simclrhn_probe1,1,313,NaN,car,car,0.00,0313_nse_dnn_0.00_car_10_n03100240_14667.png,n03100240_14667.png,1.0,4.5368447,2.7698686,1.2494408
alexnet_w3_mlp_simclrhn_probe1,1,314,NaN,airplane,airplane,0.03,0314_nse_dnn_0.03_airplane_10_n02690373_3821.png,n02690373_3821.png,1.0,2.790576,-1.0163519,2.6919045
alexnet_w3_mlp_simclrhn_probe1,1,315,NaN,knife,cat,0.90,0315_nse_dnn_0.90_cat_10_n02124075_1183.png,n02124075_1183.png,0.0,-13.320537,-3.3142123,-7.07554
alexnet_w3_mlp_simclrhn_probe1,1,316,NaN,knife,car,0.90,0316_nse_dnn_0.90_car_10_n03100240_1194.png,n03100240_1194.png,0.0,-18.56991,-3.26328,-10.823422
alexnet_w3_mlp_simclrhn_probe1,1,317,NaN,knife,oven,0.60,0317_nse_dnn_0.60_oven_10_n04111531_9370.png,n04111531_9370.png,0.0,-14.9145355,-2.705556,-8.633053
alexnet_w3_mlp_simclrhn_probe1,1,318,NaN,knife,truck,0.20,0318_nse_dnn_0.20_truck_10_n03417042_10597.png,n03417042_10597.png,0.0,-6.3673306,-2.2370338,-2.9205608
alexnet_w3_mlp_simclrhn_probe1,1,319,NaN,elephant,truck,0.05,0319_nse_dnn_0.05_truck_10_n03417042_6489.png,n03417042_6489.png,0.0,-1.5057434,-0.91663957,-0.4165593
alexnet_w3_mlp_simclrhn_probe1,1,320,NaN,knife,bottle,0.05,0320_nse_dnn_0.05_bottle_10_n04591713_6662.png,n04591713_6662.png,0.0,-2.671702,-1.6492401,-0.7229897
alexnet_w3_mlp_simclrhn_probe1,1,321,NaN,knife,bottle,0.60,0321_nse_dnn_0.60_bottle_10_n04560804_4624.png,n04560804_4624.png,0.0,-7.6348076,-2.4998662,-3.6309516
alexnet_w3_mlp_simclrhn_probe1,1,322,NaN,bicycle,bird,0.00,0322_nse_dnn_0.00_bird_10_n01818515_7370.png,n01818515_7370.png,0.0,-0.85640156,-0.6279104,-0.16156767
alexnet_w3_mlp_simclrhn_probe1,1,323,NaN,keyboard,keyboard,0.05,0323_nse_dnn_0.05_keyboard_10_n03085013_15646.png,n03085013_15646.png,1.0,-0.35996282,-1.1157594,0.5344289
alexnet_w3_mlp_simclrhn_probe1,1,324,NaN,cat,cat,0.03,0324_nse_dnn_0.03_cat_10_n02124075_14924.png,n02124075_14924.png,1.0,1.9808006,-1.5339397,2.485297
alexnet_w3_mlp_simclrhn_probe1,1,325,NaN,elephant,elephant,0.20,0325_nse_dnn_0.20_elephant_10_n02504013_18217.png,n02504013_18217.png,1.0,-1.513224,-2.2093334,0.4922237
alexnet_w3_mlp_simclrhn_probe1,1,326,NaN,knife,keyboard,0.35,0326_nse_dnn_0.35_keyboard_10_n04505470_4724.png,n04505470_4724.png,0.0,-4.9855633,-2.4675975,-1.7804707
alexnet_w3_mlp_simclrhn_probe1,1,327,NaN,knife,clock,0.20,0327_nse_dnn_0.20_clock_10_n04548280_9646.png,n04548280_9646.png,0.0,-3.4552345,-2.54224,-0.6455847
alexnet_w3_mlp_simclrhn_probe1,1,328,NaN,knife,cat,0.35,0328_nse_dnn_0.35_cat_10_n02123394_6376.png,n02123394_6376.png,0.0,-7.44532,-2.017374,-3.8381376
alexnet_w3_mlp_simclrhn_probe1,1,329,NaN,knife,elephant,0.35,0329_nse_dnn_0.35_elephant_10_n02504458_130.png,n02504458_130.png,0.0,-9.08827,-2.0578089,-4.971287
alexnet_w3_mlp_simclrhn_probe1,1,330,NaN,knife,cat,0.90,0330_nse_dnn_0.90_cat_10_n02124075_9291.png,n02124075_9291.png,0.0,-13.233188,-3.3882723,-6.9614067
alexnet_w3_mlp_simclrhn_probe1,1,331,NaN,knife,bird,0.10,0331_nse_dnn_0.10_bird_10_n02037110_3949.png,n02037110_3949.png,0.0,-2.0418243,-1.130516,-0.64439225
alexnet_w3_mlp_simclrhn_probe1,1,332,NaN,car,car,0.00,0332_nse_dnn_0.00_car_10_n04285008_10905.png,n04285008_10905.png,1.0,4.1592107,2.8772774,0.90646374
alexnet_w3_mlp_simclrhn_probe1,1,333,NaN,chair,chair,0.10,0333_nse_dnn_0.10_chair_10_n04429376_619.png,n04429376_619.png,1.0,-1.8725227,-1.9901386,0.08316703
alexnet_w3_mlp_simclrhn_probe1,1,334,NaN,knife,boat,0.90,0334_nse_dnn_0.90_boat_10_n02951358_30335.png,n02951358_30335.png,0.0,-16.54551,-3.1530356,-9.469909
alexnet_w3_mlp_simclrhn_probe1,1,335,NaN,knife,oven,0.90,0335_nse_dnn_0.90_oven_10_n04111531_17995.png,n04111531_17995.png,0.0,-17.411537,-2.8923273,-10.266632
alexnet_w3_mlp_simclrhn_probe1,1,336,NaN,knife,bird,0.35,0336_nse_dnn_0.35_bird_10_n01828970_11221.png,n01828970_11221.png,0.0,-6.976862,-2.1381068,-3.4215167
alexnet_w3_mlp_simclrhn_probe1,1,337,NaN,elephant,elephant,0.10,0337_nse_dnn_0.10_elephant_10_n02504013_1719.png,n02504013_1719.png,1.0,0.045266826,-1.373325,1.003096
alexnet_w3_mlp_simclrhn_probe1,1,338,NaN,oven,oven,0.10,0338_nse_dnn_0.10_oven_10_n04111531_8009.png,n04111531_8009.png,1.0,-0.904832,-0.9197548,0.010552011
alexnet_w3_mlp_simclrhn_probe1,1,339,NaN,knife,airplane,0.60,0339_nse_dnn_0.60_airplane_10_n02690373_8233.png,n02690373_8233.png,0.0,-17.940756,-3.0370407,-10.538518
alexnet_w3_mlp_simclrhn_probe1,1,340,NaN,elephant,dog,0.10,0340_nse_dnn_0.10_dog_10_n02092339_401.png,n02092339_401.png,0.0,-1.4195293,-0.4860995,-0.6600346
alexnet_w3_mlp_simclrhn_probe1,1,341,NaN,bottle,bottle,0.10,0341_nse_dnn_0.10_bottle_10_n02823428_11579.png,n02823428_11579.png,1.0,-1.7205083,-2.1439672,0.2994306
alexnet_w3_mlp_simclrhn_probe1,1,342,NaN,knife,car,0.60,0342_nse_dnn_0.60_car_10_n04285008_6951.png,n04285008_6951.png,0.0,-15.618245,-3.5451365,-8.536977
alexnet_w3_mlp_simclrhn_probe1,1,343,NaN,knife,bicycle,0.35,0343_nse_dnn_0.35_bicycle_10_n03792782_12504.png,n03792782_12504.png,0.0,-8.563646,-2.2979288,-4.4305315
alexnet_w3_mlp_simclrhn_probe1,1,344,NaN,bottle,bottle,0.00,0344_nse_dnn_0.00_bottle_10_n02823428_4073.png,n02823428_4073.png,1.0,0.99760014,-1.3841354,1.6841414
alexnet_w3_mlp_simclrhn_probe1,1,345,NaN,knife,elephant,0.35,0345_nse_dnn_0.35_elephant_10_n02504013_945.png,n02504013_945.png,0.0,-8.464447,-2.06326,-4.526323
alexnet_w3_mlp_simclrhn_probe1,1,346,NaN,knife,cat,0.10,0346_nse_dnn_0.10_cat_10_n02124075_12815.png,n02124075_12815.png,0.0,-1.9982339,-1.7535905,-0.17298904
alexnet_w3_mlp_simclrhn_probe1,1,347,NaN,knife,truck,0.60,0347_nse_dnn_0.60_truck_10_n03417042_4876.png,n03417042_4876.png,0.0,-15.963538,-2.8165238,-9.296344
alexnet_w3_mlp_simclrhn_probe1,1,348,NaN,chair,keyboard,0.05,0348_nse_dnn_0.05_keyboard_10_n04505470_4628.png,n04505470_4628.png,0.0,-2.7618003,0.45005047,-2.2711215
alexnet_w3_mlp_simclrhn_probe1,1,349,NaN,knife,bear,0.20,0349_nse_dnn_0.20_bear_10_n02133161_1427.png,n02133161_1427.png,0.0,-4.301668,-1.7160993,-1.8282733
alexnet_w3_mlp_simclrhn_probe1,1,350,NaN,knife,boat,0.60,0350_nse_dnn_0.60_boat_10_n04273569_7296.png,n04273569_7296.png,0.0,-13.707962,-2.719657,-7.769905
alexnet_w3_mlp_simclrhn_probe1,1,351,NaN,knife,chair,0.90,0351_nse_dnn_0.90_chair_10_n04099969_41686.png,n04099969_41686.png,0.0,-13.713067,-3.3187397,-7.3498993
alexnet_w3_mlp_simclrhn_probe1,1,352,NaN,boat,airplane,0.03,0352_nse_dnn_0.03_airplane_10_n02690373_10006.png,n02690373_10006.png,0.0,-1.8775384,-1.6271133,-0.1770773
alexnet_w3_mlp_simclrhn_probe1,1,353,NaN,knife,knife,0.90,0353_nse_dnn_0.90_knife_10_n03041632_20595.png,n03041632_20595.png,1.0,-3.1236475,-9.208764,4.3028274
alexnet_w3_mlp_simclrhn_probe1,1,354,NaN,knife,oven,0.90,0354_nse_dnn_0.90_oven_10_n04111531_2054.png,n04111531_2054.png,0.0,-17.117735,-3.214613,-9.830992
alexnet_w3_mlp_simclrhn_probe1,1,355,NaN,knife,truck,0.20,0355_nse_dnn_0.20_truck_10_n04467665_40307.png,n04467665_40307.png,0.0,-6.934309,-2.0444043,-3.457685
alexnet_w3_mlp_simclrhn_probe1,1,356,NaN,bear,bear,0.00,0356_nse_dnn_0.00_bear_10_n02133161_396.png,n02133161_396.png,1.0,2.314527,1.6087351,0.4990703
alexnet_w3_mlp_simclrhn_probe1,1,357,NaN,bear,dog,0.03,0357_nse_dnn_0.03_dog_10_n02105056_5636.png,n02105056_5636.png,0.0,-0.6856419,0.26109195,-0.66944194
alexnet_w3_mlp_simclrhn_probe1,1,358,NaN,knife,bicycle,0.35,0358_nse_dnn_0.35_bicycle_10_n02835271_8798.png,n02835271_8798.png,0.0,-7.0976763,-2.6248078,-3.1627955
alexnet_w3_mlp_simclrhn_probe1,1,359,NaN,knife,bear,0.90,0359_nse_dnn_0.90_bear_10_n02134418_5478.png,n02134418_5478.png,0.0,-16.113934,-3.031894,-9.2504
alexnet_w3_mlp_simclrhn_probe1,1,360,NaN,knife,boat,0.90,0360_nse_dnn_0.90_boat_10_n04612504_4250.png,n04612504_4250.png,0.0,-17.189692,-3.1891825,-9.899856
alexnet_w3_mlp_simclrhn_probe1,1,361,NaN,knife,knife,0.35,0361_nse_dnn_0.35_knife_10_n03041632_18959.png,n03041632_18959.png,1.0,-2.6411188,-5.6667886,2.1394718
alexnet_w3_mlp_simclrhn_probe1,1,362,NaN,knife,dog,0.35,0362_nse_dnn_0.35_dog_10_n02105251_6564.png,n02105251_6564.png,0.0,-7.25168,-1.9453163,-3.7521658
alexnet_w3_mlp_simclrhn_probe1,1,363,NaN,knife,boat,0.90,0363_nse_dnn_0.90_boat_10_n04612504_7148.png,n04612504_7148.png,0.0,-16.720882,-3.410616,-9.411779
alexnet_w3_mlp_simclrhn_probe1,1,364,NaN,boat,boat,0.03,0364_nse_dnn_0.03_boat_10_n04273569_4348.png,n04273569_4348.png,1.0,-0.4894411,-0.94851464,0.32461402
alexnet_w3_mlp_simclrhn_probe1,1,365,NaN,car,car,0.03,0365_nse_dnn_0.03_car_10_n02814533_88986.png,n02814533_88986.png,1.0,2.2490458,0.6856197,1.1055093
alexnet_w3_mlp_simclrhn_probe1,1,366,NaN,bear,bear,0.03,0366_nse_dnn_0.03_bear_10_n02134418_2590.png,n02134418_2590.png,1.0,1.2840455,-0.39035916,1.1839828
alexnet_w3_mlp_simclrhn_probe1,1,367,NaN,elephant,bird,0.20,0367_nse_dnn_0.20_bird_10_n02007558_5877.png,n02007558_5877.png,0.0,-3.5244646,-1.617322,-1.3485535
alexnet_w3_mlp_simclrhn_probe1,1,368,NaN,clock,clock,0.05,0368_nse_dnn_0.05_clock_10_n02708093_1313.png,n02708093_1313.png,1.0,-0.43595243,-2.853379,1.7093787
alexnet_w3_mlp_simclrhn_probe1,1,369,NaN,knife,keyboard,0.35,0369_nse_dnn_0.35_keyboard_10_n03085013_20798.png,n03085013_20798.png,0.0,-5.91027,-2.065574,-2.7186108
alexnet_w3_mlp_simclrhn_probe1,1,370,NaN,knife,dog,0.90,0370_nse_dnn_0.90_dog_10_n02109525_13812.png,n02109525_13812.png,0.0,-12.997462,-3.1578329,-6.957669
alexnet_w3_mlp_simclrhn_probe1,1,371,NaN,bear,bear,0.20,0371_nse_dnn_0.20_bear_10_n02134418_4458.png,n02134418_4458.png,1.0,-2.2849889,-2.4953218,0.1487278
alexnet_w3_mlp_simclrhn_probe1,1,372,NaN,knife,bottle,0.20,0372_nse_dnn_0.20_bottle_10_n04560804_21519.png,n04560804_21519.png,0.0,-3.2568166,-2.1811507,-0.7606107
alexnet_w3_mlp_simclrhn_probe1,1,373,NaN,elephant,elephant,0.10,0373_nse_dnn_0.10_elephant_10_n02504458_8183.png,n02504458_8183.png,1.0,-0.05081871,-1.5652065,1.0708339
alexnet_w3_mlp_simclrhn_probe1,1,374,NaN,knife,keyboard,0.90,0374_nse_dnn_0.90_keyboard_10_n03085013_20330.png,n03085013_20330.png,0.0,-8.969699,-3.5949874,-3.800495
alexnet_w3_mlp_simclrhn_probe1,1,375,NaN,elephant,elephant,0.10,0375_nse_dnn_0.10_elephant_10_n02504013_5533.png,n02504013_5533.png,1.0,-0.9276577,-1.9406608,0.7163014
alexnet_w3_mlp_simclrhn_probe1,1,376,NaN,knife,oven,0.90,0376_nse_dnn_0.90_oven_10_n04111531_1009.png,n04111531_1009.png,0.0,-18.07425,-3.4482777,-10.342124
alexnet_w3_mlp_simclrhn_probe1,1,377,NaN,bicycle,bicycle,0.05,0377_nse_dnn_0.05_bicycle_10_n03792782_48457.png,n03792782_48457.png,1.0,1.4936762,-1.8276219,2.3485124
alexnet_w3_mlp_simclrhn_probe1,1,378,NaN,cat,cat,0.10,0378_nse_dnn_0.10_cat_10_n02124075_7240.png,n02124075_7240.png,1.0,-1.626527,-1.7587384,0.09348761
alexnet_w3_mlp_simclrhn_probe1,1,379,NaN,knife,car,0.60,0379_nse_dnn_0.60_car_10_n02814533_39597.png,n02814533_39597.png,0.0,-15.498268,-3.0435872,-8.806789
alexnet_w3_mlp_simclrhn_probe1,1,380,NaN,clock,chair,0.03,0380_nse_dnn_0.03_chair_10_n04429376_33792.png,n04429376_33792.png,0.0,-0.7465081,-0.29126438,-0.32190594
alexnet_w3_mlp_simclrhn_probe1,1,381,NaN,knife,bicycle,0.60,0381_nse_dnn_0.60_bicycle_10_n03792782_15679.png,n03792782_15679.png,0.0,-12.7850685,-3.1183467,-6.8354044
alexnet_w3_mlp_simclrhn_probe1,1,382,NaN,knife,bicycle,0.60,0382_nse_dnn_0.60_bicycle_10_n02835271_9237.png,n02835271_9237.png,0.0,-13.062157,-3.191457,-6.979639
alexnet_w3_mlp_simclrhn_probe1,1,383,NaN,knife,bottle,0.35,0383_nse_dnn_0.35_bottle_10_n04591713_665.png,n04591713_665.png,0.0,-5.774816,-2.873486,-2.0515501
alexnet_w3_mlp_simclrhn_probe1,1,384,NaN,elephant,cat,0.03,0384_nse_dnn_0.03_cat_10_n02123159_8257.png,n02123159_8257.png,0.0,-0.6269463,-0.23220587,-0.27912363
alexnet_w3_mlp_simclrhn_probe1,1,385,NaN,bear,dog,0.10,0385_nse_dnn_0.10_dog_10_n02108551_26509.png,n02108551_26509.png,0.0,-1.8867368,-1.1840572,-0.49686944
alexnet_w3_mlp_simclrhn_probe1,1,386,NaN,knife,clock,0.60,0386_nse_dnn_0.60_clock_10_n03196217_3697.png,n03196217_3697.png,0.0,-7.508329,-2.7422726,-3.3701105
alexnet_w3_mlp_simclrhn_probe1,1,387,NaN,bicycle,bicycle,0.03,0387_nse_dnn_0.03_bicycle_10_n02835271_25268.png,n02835271_25268.png,1.0,1.6129684,-1.1494278,1.9533092
alexnet_w3_mlp_simclrhn_probe1,1,388,NaN,oven,truck,0.10,0388_nse_dnn_0.10_truck_10_n03796401_407.png,n03796401_407.png,0.0,-5.899518,-1.4972094,-3.1129022
alexnet_w3_mlp_simclrhn_probe1,1,389,NaN,clock,clock,0.05,0389_nse_dnn_0.05_clock_10_n04548280_2045.png,n04548280_2045.png,1.0,0.4593939,-1.443579,1.345605
alexnet_w3_mlp_simclrhn_probe1,1,390,NaN,oven,oven,0.05,0390_nse_dnn_0.05_oven_10_n04111531_5792.png,n04111531_5792.png,1.0,-1.2136705,-1.4596618,0.17394215
alexnet_w3_mlp_simclrhn_probe1,1,391,NaN,elephant,elephant,0.05,0391_nse_dnn_0.05_elephant_10_n02504458_8212.png,n02504458_8212.png,1.0,0.23229957,-1.6207391,1.3102962
alexnet_w3_mlp_simclrhn_probe1,1,392,NaN,knife,bird,0.03,0392_nse_dnn_0.03_bird_10_n01843383_8624.png,n01843383_8624.png,0.0,-2.383099,0.020225964,-1.6994075
alexnet_w3_mlp_simclrhn_probe1,1,393,NaN,knife,airplane,0.20,0393_nse_dnn_0.20_airplane_10_n02690373_4814.png,n02690373_4814.png,0.0,-7.349147,-0.9850446,-4.5001
alexnet_w3_mlp_simclrhn_probe1,1,394,NaN,knife,truck,0.60,0394_nse_dnn_0.60_truck_10_n03796401_6184.png,n03796401_6184.png,0.0,-16.636822,-2.9749217,-9.660422
alexnet_w3_mlp_simclrhn_probe1,1,395,NaN,cat,dog,0.03,0395_nse_dnn_0.03_dog_10_n02094114_1589.png,n02094114_1589.png,0.0,-0.7330043,-0.14921026,-0.4128047
alexnet_w3_mlp_simclrhn_probe1,1,396,NaN,knife,clock,0.90,0396_nse_dnn_0.90_clock_10_n02708093_6572.png,n02708093_6572.png,0.0,-8.823484,-3.8168883,-3.540198
alexnet_w3_mlp_simclrhn_probe1,1,397,NaN,knife,boat,0.60,0397_nse_dnn_0.60_boat_10_n02951358_15551.png,n02951358_15551.png,0.0,-14.050186,-2.8674994,-7.907354
alexnet_w3_mlp_simclrhn_probe1,1,398,NaN,knife,boat,0.35,0398_nse_dnn_0.35_boat_10_n03662601_7352.png,n03662601_7352.png,0.0,-8.319339,-2.2628515,-4.282583
alexnet_w3_mlp_simclrhn_probe1,1,399,NaN,knife,bicycle,0.60,0399_nse_dnn_0.60_bicycle_10_n03792782_14984.png,n03792782_14984.png,0.0,-14.51318,-3.1364963,-8.04453
alexnet_w3_mlp_simclrhn_probe1,1,400,NaN,knife,knife,0.35,0400_nse_dnn_0.35_knife_10_n03041632_84012.png,n03041632_84012.png,1.0,-2.3107886,-5.3197546,2.1276603
alexnet_w3_mlp_simclrhn_probe1,1,401,NaN,knife,keyboard,0.10,0401_nse_dnn_0.10_keyboard_10_n03085013_9146.png,n03085013_9146.png,0.0,-2.6037958,-0.9658905,-1.1581739
alexnet_w3_mlp_simclrhn_probe1,1,402,NaN,airplane,airplane,0.03,0402_nse_dnn_0.03_airplane_10_n02690373_6755.png,n02690373_6755.png,1.0,-1.3130955,-1.3153156,0.0015698859
alexnet_w3_mlp_simclrhn_probe1,1,403,NaN,knife,dog,0.20,0403_nse_dnn_0.20_dog_10_n02086079_17983.png,n02086079_17983.png,0.0,-4.1720314,-1.8884556,-1.6147319
alexnet_w3_mlp_simclrhn_probe1,1,404,NaN,bear,bear,0.00,0404_nse_dnn_0.00_bear_10_n02134418_3284.png,n02134418_3284.png,1.0,1.7649959,0.23918404,1.078912
alexnet_w3_mlp_simclrhn_probe1,1,405,NaN,knife,elephant,0.35,0405_nse_dnn_0.35_elephant_10_n02504458_8064.png,n02504458_8064.png,0.0,-5.590535,-2.5082994,-2.1794698
alexnet_w3_mlp_simclrhn_probe1,1,406,NaN,knife,cat,0.20,0406_nse_dnn_0.20_cat_10_n02123394_289.png,n02123394_289.png,0.0,-3.8903296,-1.8461488,-1.4454541
alexnet_w3_mlp_simclrhn_probe1,1,407,NaN,knife,knife,0.20,0407_nse_dnn_0.20_knife_10_n03041632_18995.png,n03041632_18995.png,1.0,-1.2103059,-3.544513,1.6505337
alexnet_w3_mlp_simclrhn_probe1,1,408,NaN,knife,bird,0.03,0408_nse_dnn_0.03_bird_10_n01843065_4999.png,n01843065_4999.png,0.0,-2.2461047,-1.2653747,-0.6934809
alexnet_w3_mlp_simclrhn_probe1,1,409,NaN,knife,keyboard,0.60,0409_nse_dnn_0.60_keyboard_10_n03085013_22417.png,n03085013_22417.png,0.0,-8.311162,-2.9320292,-3.8036213
alexnet_w3_mlp_simclrhn_probe1,1,410,NaN,bear,bear,0.05,0410_nse_dnn_0.05_bear_10_n02132136_3224.png,n02132136_3224.png,1.0,-0.0380503,-0.81116056,0.5466715
alexnet_w3_mlp_simclrhn_probe1,1,411,NaN,bicycle,boat,0.05,0411_nse_dnn_0.05_boat_10_n03662601_33184.png,n03662601_33184.png,0.0,-2.0062268,-0.8199133,-0.83885026
alexnet_w3_mlp_simclrhn_probe1,1,412,NaN,knife,bear,0.05,0412_nse_dnn_0.05_bear_10_n02133161_2396.png,n02133161_2396.png,0.0,-1.0727795,-0.7469057,-0.23042761
alexnet_w3_mlp_simclrhn_probe1,1,413,NaN,knife,keyboard,0.35,0413_nse_dnn_0.35_keyboard_10_n03085013_24578.png,n03085013_24578.png,0.0,-5.5629654,-1.4387517,-2.9162595
alexnet_w3_mlp_simclrhn_probe1,1,414,NaN,knife,car,0.35,0414_nse_dnn_0.35_car_10_n02814533_4519.png,n02814533_4519.png,0.0,-9.939633,-2.141252,-5.5142884
alexnet_w3_mlp_simclrhn_probe1,1,415,NaN,bottle,bottle,0.00,0415_nse_dnn_0.00_bottle_10_n03937543_2428.png,n03937543_2428.png,1.0,0.038489375,-1.1675087,0.85276943
alexnet_w3_mlp_simclrhn_probe1,1,416,NaN,elephant,dog,0.05,0416_nse_dnn_0.05_dog_10_n02091635_8296.png,n02091635_8296.png,0.0,-1.5706257,0.18042323,-1.2381786
alexnet_w3_mlp_simclrhn_probe1,1,417,NaN,knife,bottle,0.35,0417_nse_dnn_0.35_bottle_10_n03983396_11434.png,n03983396_11434.png,0.0,-5.3931937,-2.0719483,-2.3484752
alexnet_w3_mlp_simclrhn_probe1,1,418,NaN,bicycle,boat,0.00,0418_nse_dnn_0.00_boat_10_n02951358_7315.png,n02951358_7315.png,0.0,-0.78356206,-0.57278854,-0.14903939
alexnet_w3_mlp_simclrhn_probe1,1,419,NaN,knife,bird,0.20,0419_nse_dnn_0.20_bird_10_n01860187_7297.png,n01860187_7297.png,0.0,-4.2109475,-2.2920308,-1.356879
alexnet_w3_mlp_simclrhn_probe1,1,420,NaN,knife,oven,0.20,0420_nse_dnn_0.20_oven_10_n04111531_4250.png,n04111531_4250.png,0.0,-4.1865506,-1.7761905,-1.704382
alexnet_w3_mlp_simclrhn_probe1,1,421,NaN,knife,bear,0.20,0421_nse_dnn_0.20_bear_10_n02133161_9463.png,n02133161_9463.png,0.0,-4.089628,-1.9833848,-1.489339
alexnet_w3_mlp_simclrhn_probe1,1,422,NaN,bird,bird,0.00,0422_nse_dnn_0.00_bird_10_n02009229_4129.png,n02009229_4129.png,1.0,0.81941926,-1.1687458,1.405845
alexnet_w3_mlp_simclrhn_probe1,1,423,NaN,knife,knife,0.10,0423_nse_dnn_0.10_knife_10_n03041632_30821.png,n03041632_30821.png,1.0,-0.7755201,-2.8336282,1.4553022
alexnet_w3_mlp_simclrhn_probe1,1,424,NaN,knife,cat,0.90,0424_nse_dnn_0.90_cat_10_n02123394_2490.png,n02123394_2490.png,0.0,-13.848794,-2.9478958,-7.708099
alexnet_w3_mlp_simclrhn_probe1,1,425,NaN,dog,dog,0.00,0425_nse_dnn_0.00_dog_10_n02087394_2723.png,n02087394_2723.png,1.0,-0.1380767,-1.1711482,0.7304919
alexnet_w3_mlp_simclrhn_probe1,1,426,NaN,knife,dog,0.90,0426_nse_dnn_0.90_dog_10_n02093754_5736.png,n02093754_5736.png,0.0,-13.588366,-3.2644353,-7.300122
alexnet_w3_mlp_simclrhn_probe1,1,427,NaN,knife,bottle,0.60,0427_nse_dnn_0.60_bottle_10_n02823428_9063.png,n02823428_9063.png,0.0,-7.92201,-2.8152542,-3.6110218
alexnet_w3_mlp_simclrhn_probe1,1,428,NaN,knife,truck,0.60,0428_nse_dnn_0.60_truck_10_n04467665_20933.png,n04467665_20933.png,0.0,-16.831282,-3.0662105,-9.733376
alexnet_w3_mlp_simclrhn_probe1,1,429,NaN,knife,car,0.10,0429_nse_dnn_0.10_car_10_n03100240_5999.png,n03100240_5999.png,0.0,-5.331587,-0.32933083,-3.5371292
alexnet_w3_mlp_simclrhn_probe1,1,430,NaN,chair,oven,0.03,0430_nse_dnn_0.03_oven_10_n04111531_3671.png,n04111531_3671.png,0.0,-1.0704595,-0.3350407,-0.52001965
alexnet_w3_mlp_simclrhn_probe1,1,431,NaN,chair,truck,0.05,0431_nse_dnn_0.05_truck_10_n03417042_7187.png,n03417042_7187.png,0.0,-2.8801286,-1.3219814,-1.1017765
alexnet_w3_mlp_simclrhn_probe1,1,432,NaN,knife,bottle,0.35,0432_nse_dnn_0.35_bottle_10_n04557648_2954.png,n04557648_2954.png,0.0,-5.079188,-1.980202,-2.191314
alexnet_w3_mlp_simclrhn_probe1,1,433,NaN,knife,elephant,0.35,0433_nse_dnn_0.35_elephant_10_n02504013_6645.png,n02504013_6645.png,0.0,-8.789257,-1.9491018,-4.83672
alexnet_w3_mlp_simclrhn_probe1,1,434,NaN,oven,keyboard,0.10,0434_nse_dnn_0.10_keyboard_10_n04505470_6876.png,n04505470_6876.png,0.0,-2.1576352,-1.8815649,-0.19521123
alexnet_w3_mlp_simclrhn_probe1,1,435,NaN,elephant,bird,0.20,0435_nse_dnn_0.20_bird_10_n02056570_3286.png,n02056570_3286.png,0.0,-5.10349,-1.4207684,-2.6040776
alexnet_w3_mlp_simclrhn_probe1,1,436,NaN,knife,bird,0.90,0436_nse_dnn_0.90_bird_10_n02037110_8826.png,n02037110_8826.png,0.0,-13.199818,-3.695798,-6.720357
alexnet_w3_mlp_simclrhn_probe1,1,437,NaN,car,car,0.00,0437_nse_dnn_0.00_car_10_n03100240_11400.png,n03100240_11400.png,1.0,3.0018053,2.2828164,0.50840193
alexnet_w3_mlp_simclrhn_probe1,1,438,NaN,knife,bird,0.60,0438_nse_dnn_0.60_bird_10_n02018795_6389.png,n02018795_6389.png,0.0,-11.208426,-2.7778137,-5.9613433
alexnet_w3_mlp_simclrhn_probe1,1,439,NaN,knife,oven,0.35,0439_nse_dnn_0.35_oven_10_n04111531_2458.png,n04111531_2458.png,0.0,-8.961961,-2.1343923,-4.8278203
alexnet_w3_mlp_simclrhn_probe1,1,440,NaN,knife,cat,0.60,0440_nse_dnn_0.60_cat_10_n02123159_2256.png,n02123159_2256.png,0.0,-11.973762,-2.7411373,-6.528451
alexnet_w3_mlp_simclrhn_probe1,1,441,NaN,elephant,elephant,0.03,0441_nse_dnn_0.03_elephant_10_n02504458_611.png,n02504458_611.png,1.0,5.698105,1.7724714,2.775842
alexnet_w3_mlp_simclrhn_probe1,1,442,NaN,elephant,knife,0.03,0442_nse_dnn_0.03_knife_10_n03041632_18141.png,n03041632_18141.png,0.0,-0.8806432,0.4829059,-0.96417487
alexnet_w3_mlp_simclrhn_probe1,1,443,NaN,knife,bird,0.60,0443_nse_dnn_0.60_bird_10_n01843065_1871.png,n01843065_1871.png,0.0,-11.313273,-2.9815893,-5.8913903
alexnet_w3_mlp_simclrhn_probe1,1,444,NaN,oven,bird,0.05,0444_nse_dnn_0.05_bird_10_n01833805_7361.png,n01833805_7361.png,0.0,-2.9426055,-1.3640692,-1.1161938
alexnet_w3_mlp_simclrhn_probe1,1,445,NaN,knife,elephant,0.20,0445_nse_dnn_0.20_elephant_10_n02504458_5827.png,n02504458_5827.png,0.0,-3.4209557,-1.7687687,-1.1682726
alexnet_w3_mlp_simclrhn_probe1,1,446,NaN,knife,bicycle,0.35,0446_nse_dnn_0.35_bicycle_10_n02835271_5825.png,n02835271_5825.png,0.0,-7.527179,-1.7841661,-4.060923
alexnet_w3_mlp_simclrhn_probe1,1,447,NaN,knife,bear,0.90,0447_nse_dnn_0.90_bear_10_n02134084_12801.png,n02134084_12801.png,0.0,-16.719978,-2.9818134,-9.71435
alexnet_w3_mlp_simclrhn_probe1,1,448,NaN,elephant,cat,0.10,0448_nse_dnn_0.10_cat_10_n02123394_3611.png,n02123394_3611.png,0.0,-1.1682369,-0.75468814,-0.2924231
alexnet_w3_mlp_simclrhn_probe1,1,449,NaN,knife,chair,0.35,0449_nse_dnn_0.35_chair_10_n04429376_9589.png,n04429376_9589.png,0.0,-7.182512,-1.9633803,-3.6904833
alexnet_w3_mlp_simclrhn_probe1,1,450,NaN,knife,cat,0.35,0450_nse_dnn_0.35_cat_10_n02123394_3885.png,n02123394_3885.png,0.0,-7.47727,-2.216714,-3.719775
alexnet_w3_mlp_simclrhn_probe1,1,451,NaN,knife,elephant,0.90,0451_nse_dnn_0.90_elephant_10_n02504013_22633.png,n02504013_22633.png,0.0,-18.651653,-3.0072062,-11.062295
alexnet_w3_mlp_simclrhn_probe1,1,452,NaN,knife,car,0.20,0452_nse_dnn_0.20_car_10_n02814533_2271.png,n02814533_2271.png,0.0,-7.4788003,-1.6817551,-4.09913
alexnet_w3_mlp_simclrhn_probe1,1,453,NaN,knife,truck,0.05,0453_nse_dnn_0.05_truck_10_n03417042_10150.png,n03417042_10150.png,0.0,-1.3274348,-1.3223016,-0.0036296865
alexnet_w3_mlp_simclrhn_probe1,1,454,NaN,knife,oven,0.35,0454_nse_dnn_0.35_oven_10_n04111531_10583.png,n04111531_10583.png,0.0,-9.080751,-1.9280163,-5.057748
alexnet_w3_mlp_simclrhn_probe1,1,455,NaN,bottle,bottle,0.03,0455_nse_dnn_0.03_bottle_10_n03937543_1602.png,n03937543_1602.png,1.0,1.205973,-1.915447,2.2071772
alexnet_w3_mlp_simclrhn_probe1,1,456,NaN,knife,knife,0.03,0456_nse_dnn_0.03_knife_10_n03041632_3504.png,n03041632_3504.png,1.0,-0.45368838,-1.1472,0.49038675
alexnet_w3_mlp_simclrhn_probe1,1,457,NaN,bicycle,bicycle,0.03,0457_nse_dnn_0.03_bicycle_10_n03792782_1004.png,n03792782_1004.png,1.0,1.5703208,-0.16947559,1.2302219
alexnet_w3_mlp_simclrhn_probe1,1,458,NaN,cat,cat,0.05,0458_nse_dnn_0.05_cat_10_n02123394_8172.png,n02123394_8172.png,1.0,-0.3643845,-0.62461,0.18400723
alexnet_w3_mlp_simclrhn_probe1,1,459,NaN,elephant,elephant,0.10,0459_nse_dnn_0.10_elephant_10_n02504013_156.png,n02504013_156.png,1.0,-0.123749435,-1.7503942,1.1502116
alexnet_w3_mlp_simclrhn_probe1,1,460,NaN,bicycle,car,0.03,0460_nse_dnn_0.03_car_10_n04285008_5559.png,n04285008_5559.png,0.0,-1.9228431,-0.37388468,-1.095279
alexnet_w3_mlp_simclrhn_probe1,1,461,NaN,knife,elephant,0.35,0461_nse_dnn_0.35_elephant_10_n02504458_6694.png,n02504458_6694.png,0.0,-7.1249866,-2.5163481,-3.2587998
alexnet_w3_mlp_simclrhn_probe1,1,462,NaN,knife,car,0.90,0462_nse_dnn_0.90_car_10_n04285008_15003.png,n04285008_15003.png,0.0,-19.03475,-3.1926455,-11.20206
alexnet_w3_mlp_simclrhn_probe1,1,463,NaN,knife,chair,0.10,0463_nse_dnn_0.10_chair_10_n03376595_15723.png,n03376595_15723.png,0.0,-2.3333883,-0.8932513,-1.0183307
alexnet_w3_mlp_simclrhn_probe1,1,464,NaN,knife,knife,0.60,0464_nse_dnn_0.60_knife_10_n03041632_48816.png,n03041632_48816.png,1.0,-2.8329446,-7.731445,3.463763
alexnet_w3_mlp_simclrhn_probe1,1,465,NaN,knife,chair,0.90,0465_nse_dnn_0.90_chair_10_n03376595_4142.png,n03376595_4142.png,0.0,-13.926007,-2.9442492,-7.765276
alexnet_w3_mlp_simclrhn_probe1,1,466,NaN,knife,car,0.60,0466_nse_dnn_0.60_car_10_n04285008_2363.png,n04285008_2363.png,0.0,-15.254588,-2.4661655,-9.042781
alexnet_w3_mlp_simclrhn_probe1,1,467,NaN,elephant,truck,0.10,0467_nse_dnn_0.10_truck_10_n03417042_7335.png,n03417042_7335.png,0.0,-5.2871504,-1.1383905,-2.9336162
alexnet_w3_mlp_simclrhn_probe1,1,468,NaN,oven,oven,0.00,0468_nse_dnn_0.00_oven_10_n04111531_6313.png,n04111531_6313.png,1.0,1.4965582,-0.7599639,1.5956022
alexnet_w3_mlp_simclrhn_probe1,1,469,NaN,bird,bird,0.05,0469_nse_dnn_0.05_bird_10_n02033041_6728.png,n02033041_6728.png,1.0,-0.58476645,-0.66545105,0.05705263
alexnet_w3_mlp_simclrhn_probe1,1,470,NaN,oven,clock,0.00,0470_nse_dnn_0.00_clock_10_n04548280_1032.png,n04548280_1032.png,0.0,-2.3056307,-0.84035945,-1.0361032
alexnet_w3_mlp_simclrhn_probe1,1,471,NaN,airplane,airplane,0.03,0471_nse_dnn_0.03_airplane_10_n02690373_1983.png,n02690373_1983.png,1.0,1.2423487,-0.3985441,1.1602864
alexnet_w3_mlp_simclrhn_probe1,1,472,NaN,chair,keyboard,0.00,0472_nse_dnn_0.00_keyboard_10_n03085013_23369.png,n03085013_23369.png,0.0,-1.7158098,0.92082614,-1.8643832
alexnet_w3_mlp_simclrhn_probe1,1,473,NaN,knife,elephant,0.90,0473_nse_dnn_0.90_elephant_10_n02504458_2419.png,n02504458_2419.png,0.0,-18.077621,-3.3267808,-10.43042
alexnet_w3_mlp_simclrhn_probe1,1,474,NaN,knife,truck,0.20,0474_nse_dnn_0.20_truck_10_n04467665_72022.png,n04467665_72022.png,0.0,-5.5164337,-1.6456891,-2.7370298
alexnet_w3_mlp_simclrhn_probe1,1,475,NaN,knife,bottle,0.05,0475_nse_dnn_0.05_bottle_10_n04579145_5289.png,n04579145_5289.png,0.0,-1.5846454,-0.6175868,-0.6838137
alexnet_w3_mlp_simclrhn_probe1,1,476,NaN,clock,clock,0.05,0476_nse_dnn_0.05_clock_10_n02708093_2898.png,n02708093_2898.png,1.0,1.6790967,-1.4199475,2.1913552
alexnet_w3_mlp_simclrhn_probe1,1,477,NaN,knife,dog,0.20,0477_nse_dnn_0.20_dog_10_n02101556_4066.png,n02101556_4066.png,0.0,-4.0021853,-1.9010397,-1.4857345
alexnet_w3_mlp_simclrhn_probe1,1,478,NaN,knife,car,0.90,0478_nse_dnn_0.90_car_10_n04285008_17052.png,n04285008_17052.png,0.0,-18.616518,-3.2987788,-10.831278
alexnet_w3_mlp_simclrhn_probe1,1,479,NaN,knife,truck,0.90,0479_nse_dnn_0.90_truck_10_n04467665_37811.png,n04467665_37811.png,0.0,-20.768328,-3.1327531,-12.470235
alexnet_w3_mlp_simclrhn_probe1,1,480,NaN,knife,keyboard,0.20,0480_nse_dnn_0.20_keyboard_10_n04505470_578.png,n04505470_578.png,0.0,-3.639548,-2.5963988,-0.7376179
alexnet_w3_mlp_simclrhn_probe1,1,481,NaN,knife,cat,0.10,0481_nse_dnn_0.10_cat_10_n02123045_2721.png,n02123045_2721.png,0.0,-2.9733636,-2.7434022,-0.16260727
alexnet_w3_mlp_simclrhn_probe1,1,482,NaN,knife,car,0.10,0482_nse_dnn_0.10_car_10_n04285008_7776.png,n04285008_7776.png,0.0,-6.2295127,-0.9055762,-3.7645917
alexnet_w3_mlp_simclrhn_probe1,1,483,NaN,knife,bottle,0.90,0483_nse_dnn_0.90_bottle_10_n04591713_2014.png,n04591713_2014.png,0.0,-9.009741,-3.5413296,-3.866751
alexnet_w3_mlp_simclrhn_probe1,1,484,NaN,knife,bottle,0.10,0484_nse_dnn_0.10_bottle_10_n03983396_9662.png,n03983396_9662.png,0.0,-1.9130566,-1.397695,-0.36441574
alexnet_w3_mlp_simclrhn_probe1,1,485,NaN,knife,bicycle,0.35,0485_nse_dnn_0.35_bicycle_10_n03792782_10367.png,n03792782_10367.png,0.0,-8.535694,-1.9816768,-4.63439
alexnet_w3_mlp_simclrhn_probe1,1,486,NaN,knife,keyboard,0.60,0486_nse_dnn_0.60_keyboard_10_n03085013_22942.png,n03085013_22942.png,0.0,-8.145908,-3.066741,-3.5915136
alexnet_w3_mlp_simclrhn_probe1,1,487,NaN,cat,cat,0.00,0487_nse_dnn_0.00_cat_10_n02123597_3896.png,n02123597_3896.png,1.0,-1.0201404,-1.2791468,0.18314517
alexnet_w3_mlp_simclrhn_probe1,1,488,NaN,bicycle,bicycle,0.03,0488_nse_dnn_0.03_bicycle_10_n03792782_2649.png,n03792782_2649.png,1.0,1.5902185,-0.96695334,1.8081936
alexnet_w3_mlp_simclrhn_probe1,1,489,NaN,bear,bear,0.10,0489_nse_dnn_0.10_bear_10_n02133161_2476.png,n02133161_2476.png,1.0,-0.7158936,-1.2216911,0.35765284
alexnet_w3_mlp_simclrhn_probe1,1,490,NaN,knife,car,0.10,0490_nse_dnn_0.10_car_10_n04285008_7249.png,n04285008_7249.png,0.0,-5.00151,-2.224514,-1.9636328
alexnet_w3_mlp_simclrhn_probe1,1,491,NaN,knife,chair,0.20,0491_nse_dnn_0.20_chair_10_n04099969_8604.png,n04099969_8604.png,0.0,-3.7182686,-1.5566558,-1.5284913
alexnet_w3_mlp_simclrhn_probe1,1,492,NaN,bicycle,bicycle,0.05,0492_nse_dnn_0.05_bicycle_10_n02835271_5963.png,n02835271_5963.png,1.0,-0.23458987,-0.7873428,0.39085534
alexnet_w3_mlp_simclrhn_probe1,1,493,NaN,knife,airplane,0.90,0493_nse_dnn_0.90_airplane_10_n02690373_17011.png,n02690373_17011.png,0.0,-21.87613,-3.7115226,-12.8443165
alexnet_w3_mlp_simclrhn_probe1,1,494,NaN,knife,bird,0.90,0494_nse_dnn_0.90_bird_10_n02028035_889.png,n02028035_889.png,0.0,-12.78165,-3.6280468,-6.4725747
alexnet_w3_mlp_simclrhn_probe1,1,495,NaN,knife,cat,0.60,0495_nse_dnn_0.60_cat_10_n02123159_7949.png,n02123159_7949.png,0.0,-12.16989,-2.8320613,-6.602843
alexnet_w3_mlp_simclrhn_probe1,1,496,NaN,car,car,0.03,0496_nse_dnn_0.03_car_10_n03100240_15686.png,n03100240_15686.png,1.0,2.2153301,1.6155491,0.42410925
alexnet_w3_mlp_simclrhn_probe1,1,497,NaN,knife,cat,0.35,0497_nse_dnn_0.35_cat_10_n02123159_6106.png,n02123159_6106.png,0.0,-6.5838513,-2.063085,-3.1966646
alexnet_w3_mlp_simclrhn_probe1,1,498,NaN,cat,cat,0.00,0498_nse_dnn_0.00_cat_10_n02123394_7105.png,n02123394_7105.png,1.0,-0.0887627,-0.9717906,0.624395
alexnet_w3_mlp_simclrhn_probe1,1,499,NaN,knife,clock,0.35,0499_nse_dnn_0.35_clock_10_n04548280_4747.png,n04548280_4747.png,0.0,-5.645361,-2.0070379,-2.5726829
alexnet_w3_mlp_simclrhn_probe1,1,500,NaN,knife,elephant,0.20,0500_nse_dnn_0.20_elephant_10_n02504458_975.png,n02504458_975.png,0.0,-2.8790662,-1.6503706,-0.868819
alexnet_w3_mlp_simclrhn_probe1,1,501,NaN,knife,boat,0.20,0501_nse_dnn_0.20_boat_10_n03344393_11590.png,n03344393_11590.png,0.0,-6.1583424,-1.8015716,-3.080702
alexnet_w3_mlp_simclrhn_probe1,1,502,NaN,knife,airplane,0.90,0502_nse_dnn_0.90_airplane_10_n02690373_2026.png,n02690373_2026.png,0.0,-21.21793,-3.4224796,-12.583283
alexnet_w3_mlp_simclrhn_probe1,1,503,NaN,knife,clock,0.60,0503_nse_dnn_0.60_clock_10_n03196217_2346.png,n03196217_2346.png,0.0,-7.9774346,-2.459583,-3.9017105
alexnet_w3_mlp_simclrhn_probe1,1,504,NaN,knife,truck,0.60,0504_nse_dnn_0.60_truck_10_n04467665_34932.png,n04467665_34932.png,0.0,-17.162666,-2.825925,-10.137608
alexnet_w3_mlp_simclrhn_probe1,1,505,NaN,knife,oven,0.35,0505_nse_dnn_0.35_oven_10_n04111531_13625.png,n04111531_13625.png,0.0,-8.798227,-2.1536715,-4.6984105
alexnet_w3_mlp_simclrhn_probe1,1,506,NaN,airplane,airplane,0.00,0506_nse_dnn_0.00_airplane_10_n02690373_8666.png,n02690373_8666.png,1.0,2.483695,-0.35033596,2.0039628
alexnet_w3_mlp_simclrhn_probe1,1,507,NaN,knife,oven,0.35,0507_nse_dnn_0.35_oven_10_n04111531_4148.png,n04111531_4148.png,0.0,-8.581881,-2.2434993,-4.4819126
alexnet_w3_mlp_simclrhn_probe1,1,508,NaN,dog,dog,0.00,0508_nse_dnn_0.00_dog_10_n02107683_7021.png,n02107683_7021.png,1.0,0.29521555,-0.3098063,0.42781505
alexnet_w3_mlp_simclrhn_probe1,1,509,NaN,bear,bird,0.05,0509_nse_dnn_0.05_bird_10_n02025239_22440.png,n02025239_22440.png,0.0,-1.9329269,-1.6800458,-0.1788139
alexnet_w3_mlp_simclrhn_probe1,1,510,NaN,knife,elephant,0.90,0510_nse_dnn_0.90_elephant_10_n02504013_7032.png,n02504013_7032.png,0.0,-16.983852,-3.3490357,-9.641272
alexnet_w3_mlp_simclrhn_probe1,1,511,NaN,knife,truck,0.90,0511_nse_dnn_0.90_truck_10_n03417042_10788.png,n03417042_10788.png,0.0,-20.400799,-3.2738287,-12.110597
alexnet_w3_mlp_simclrhn_probe1,1,512,NaN,knife,knife,0.05,0512_nse_dnn_0.05_knife_10_n03041632_86118.png,n03041632_86118.png,1.0,-1.1447687,-1.8813511,0.52084243
alexnet_w3_mlp_simclrhn_probe1,1,513,NaN,bottle,bottle,0.00,0513_nse_dnn_0.00_bottle_10_n04557648_9790.png,n04557648_9790.png,1.0,-0.40825263,-0.8494755,0.3119917
alexnet_w3_mlp_simclrhn_probe1,1,514,NaN,knife,chair,0.90,0514_nse_dnn_0.90_chair_10_n02791124_8788.png,n02791124_8788.png,0.0,-14.349462,-3.4557369,-7.703027
alexnet_w3_mlp_simclrhn_probe1,1,515,NaN,bear,dog,0.03,0515_nse_dnn_0.03_dog_10_n02095314_4996.png,n02095314_4996.png,0.0,-1.5779908,-0.7266852,-0.60196394
alexnet_w3_mlp_simclrhn_probe1,1,516,NaN,knife,keyboard,0.20,0516_nse_dnn_0.20_keyboard_10_n04505470_4679.png,n04505470_4679.png,0.0,-3.2956343,-2.0011022,-0.91537243
alexnet_w3_mlp_simclrhn_probe1,1,517,NaN,bird,bird,0.03,0517_nse_dnn_0.03_bird_10_n01860187_24935.png,n01860187_24935.png,1.0,-1.1843326,-1.2333679,0.034673203
alexnet_w3_mlp_simclrhn_probe1,1,518,NaN,knife,bicycle,0.60,0518_nse_dnn_0.60_bicycle_10_n02835271_14123.png,n02835271_14123.png,0.0,-14.297884,-2.9759452,-8.005819
alexnet_w3_mlp_simclrhn_probe1,1,519,NaN,knife,boat,0.10,0519_nse_dnn_0.10_boat_10_n03344393_7075.png,n03344393_7075.png,0.0,-2.7604036,-0.96700674,-1.2681231
alexnet_w3_mlp_simclrhn_probe1,1,520,NaN,knife,knife,0.03,0520_nse_dnn_0.03_knife_10_n03041632_13130.png,n03041632_13130.png,1.0,1.0566342,-2.1033554,2.23445
alexnet_w3_mlp_simclrhn_probe1,1,521,NaN,knife,bottle,0.20,0521_nse_dnn_0.20_bottle_10_n04591713_5569.png,n04591713_5569.png,0.0,-4.0551357,-1.0820146,-2.1023142
alexnet_w3_mlp_simclrhn_probe1,1,522,NaN,elephant,elephant,0.05,0522_nse_dnn_0.05_elephant_10_n02504013_19753.png,n02504013_19753.png,1.0,1.2306521,-0.16962719,0.990147
alexnet_w3_mlp_simclrhn_probe1,1,523,NaN,knife,dog,0.60,0523_nse_dnn_0.60_dog_10_n02099849_4819.png,n02099849_4819.png,0.0,-11.231493,-2.8909483,-5.897656
alexnet_w3_mlp_simclrhn_probe1,1,524,NaN,knife,elephant,0.90,0524_nse_dnn_0.90_elephant_10_n02504458_12938.png,n02504458_12938.png,0.0,-17.71545,-2.9315004,-10.453832
alexnet_w3_mlp_simclrhn_probe1,1,525,NaN,bottle,bottle,0.03,0525_nse_dnn_0.03_bottle_10_n02823428_901.png,n02823428_901.png,1.0,1.7944677,-1.2164199,2.129019
alexnet_w3_mlp_simclrhn_probe1,1,526,NaN,car,bicycle,0.00,0526_nse_dnn_0.00_bicycle_10_n03792782_2024.png,n03792782_2024.png,0.0,0.6184499,0.8110542,-0.13619182
alexnet_w3_mlp_simclrhn_probe1,1,527,NaN,knife,truck,0.05,0527_nse_dnn_0.05_truck_10_n03417042_24856.png,n03417042_24856.png,0.0,-3.0324216,-1.024517,-1.4198029
alexnet_w3_mlp_simclrhn_probe1,1,528,NaN,elephant,elephant,0.00,0528_nse_dnn_0.00_elephant_10_n02504013_19694.png,n02504013_19694.png,1.0,4.064809,1.2625461,1.9814991
alexnet_w3_mlp_simclrhn_probe1,1,529,NaN,knife,bird,0.20,0529_nse_dnn_0.20_bird_10_n01530575_10119.png,n01530575_10119.png,0.0,-4.0947638,-1.6680092,-1.7159746
alexnet_w3_mlp_simclrhn_probe1,1,530,NaN,elephant,bottle,0.20,0530_nse_dnn_0.20_bottle_10_n04557648_954.png,n04557648_954.png,0.0,-4.0467153,-2.248088,-1.2718216
alexnet_w3_mlp_simclrhn_probe1,1,531,NaN,knife,cat,0.90,0531_nse_dnn_0.90_cat_10_n02123159_277.png,n02123159_277.png,0.0,-13.940118,-3.3928673,-7.4580326
alexnet_w3_mlp_simclrhn_probe1,1,532,NaN,knife,knife,0.00,0532_nse_dnn_0.00_knife_10_n03041632_289.png,n03041632_289.png,1.0,0.48915285,-0.57676166,0.7537154
alexnet_w3_mlp_simclrhn_probe1,1,533,NaN,knife,truck,0.35,0533_nse_dnn_0.35_truck_10_n04467665_450.png,n04467665_450.png,0.0,-11.508942,-2.2696128,-6.5331917
alexnet_w3_mlp_simclrhn_probe1,1,534,NaN,knife,knife,0.00,0534_nse_dnn_0.00_knife_10_n03041632_1607.png,n03041632_1607.png,1.0,-0.10933995,-1.7747673,1.177635
alexnet_w3_mlp_simclrhn_probe1,1,535,NaN,knife,bird,0.20,0535_nse_dnn_0.20_bird_10_n01532829_4692.png,n01532829_4692.png,0.0,-3.9893863,-2.0695539,-1.3575265
alexnet_w3_mlp_simclrhn_probe1,1,536,NaN,elephant,dog,0.10,0536_nse_dnn_0.10_dog_10_n02102177_4771.png,n02102177_4771.png,0.0,-2.4590797,-0.40319672,-1.4537288
alexnet_w3_mlp_simclrhn_probe1,1,537,NaN,knife,car,0.10,0537_nse_dnn_0.10_car_10_n04285008_14554.png,n04285008_14554.png,0.0,-5.3581886,-1.9867251,-2.3839848
alexnet_w3_mlp_simclrhn_probe1,1,538,NaN,clock,clock,0.00,0538_nse_dnn_0.00_clock_10_n04548280_3716.png,n04548280_3716.png,1.0,0.34213796,-0.3700771,0.5036121
alexnet_w3_mlp_simclrhn_probe1,1,539,NaN,car,car,0.03,0539_nse_dnn_0.03_car_10_n04285008_6849.png,n04285008_6849.png,1.0,-0.52310455,-1.2256162,0.49675077
alexnet_w3_mlp_simclrhn_probe1,1,540,NaN,knife,keyboard,0.35,0540_nse_dnn_0.35_keyboard_10_n03085013_24467.png,n03085013_24467.png,0.0,-5.4436336,-2.7281346,-1.9201478
alexnet_w3_mlp_simclrhn_probe1,1,541,NaN,knife,clock,0.35,0541_nse_dnn_0.35_clock_10_n03196217_6672.png,n03196217_6672.png,0.0,-5.2868094,-1.8648239,-2.4197092
alexnet_w3_mlp_simclrhn_probe1,1,542,NaN,elephant,dog,0.10,0542_nse_dnn_0.10_dog_10_n02105251_5570.png,n02105251_5570.png,0.0,-2.3097854,-1.4316503,-0.62093526
alexnet_w3_mlp_simclrhn_probe1,1,543,NaN,knife,dog,0.35,0543_nse_dnn_0.35_dog_10_n02107574_3352.png,n02107574_3352.png,0.0,-6.8531523,-1.9015405,-3.5013182
alexnet_w3_mlp_simclrhn_probe1,1,544,NaN,knife,boat,0.60,0544_nse_dnn_0.60_boat_10_n03662601_8191.png,n03662601_8191.png,0.0,-14.068991,-3.1091056,-7.749809
alexnet_w3_mlp_simclrhn_probe1,1,545,NaN,boat,boat,0.00,0545_nse_dnn_0.00_boat_10_n04612504_30617.png,n04612504_30617.png,1.0,1.6588113,0.6696766,0.6994239
alexnet_w3_mlp_simclrhn_probe1,1,546,NaN,knife,bear,0.60,0546_nse_dnn_0.60_bear_10_n02132136_2900.png,n02132136_2900.png,0.0,-13.463248,-2.5336342,-7.7284045
alexnet_w3_mlp_simclrhn_probe1,1,547,NaN,knife,truck,0.10,0547_nse_dnn_0.10_truck_10_n03417042_8139.png,n03417042_8139.png,0.0,-4.1486115,-1.4017386,-1.9423325
alexnet_w3_mlp_simclrhn_probe1,1,548,NaN,chair,chair,0.03,0548_nse_dnn_0.03_chair_10_n03376595_5112.png,n03376595_5112.png,1.0,-1.0701433,-1.4630637,0.27783668
alexnet_w3_mlp_simclrhn_probe1,1,549,NaN,bird,bird,0.05,0549_nse_dnn_0.05_bird_10_n02006656_10360.png,n02006656_10360.png,1.0,-1.0525515,-1.215949,0.11553952
alexnet_w3_mlp_simclrhn_probe1,1,550,NaN,knife,elephant,0.20,0550_nse_dnn_0.20_elephant_10_n02504458_2799.png,n02504458_2799.png,0.0,-4.3396425,-1.3345487,-2.1249223
alexnet_w3_mlp_simclrhn_probe1,1,551,NaN,knife,airplane,0.10,0551_nse_dnn_0.10_airplane_10_n02690373_6096.png,n02690373_6096.png,0.0,-2.0151045,-1.5001872,-0.36410156
alexnet_w3_mlp_simclrhn_probe1,1,552,NaN,knife,bird,0.20,0552_nse_dnn_0.20_bird_10_n02002556_139.png,n02002556_139.png,0.0,-4.2127395,-2.1110787,-1.4860985
alexnet_w3_mlp_simclrhn_probe1,1,553,NaN,car,car,0.00,0553_nse_dnn_0.00_car_10_n04285008_3056.png,n04285008_3056.png,1.0,0.78196067,-0.1543816,0.66209394
alexnet_w3_mlp_simclrhn_probe1,1,554,NaN,knife,knife,0.10,0554_nse_dnn_0.10_knife_10_n03041632_14774.png,n03041632_14774.png,1.0,-0.5810376,-1.8513288,0.8982316
alexnet_w3_mlp_simclrhn_probe1,1,555,NaN,knife,oven,0.20,0555_nse_dnn_0.20_oven_10_n04111531_2163.png,n04111531_2163.png,0.0,-3.885571,-2.306878,-1.1163045
alexnet_w3_mlp_simclrhn_probe1,1,556,NaN,knife,cat,0.20,0556_nse_dnn_0.20_cat_10_n02123597_30864.png,n02123597_30864.png,0.0,-4.296494,-1.125421,-2.2422872
alexnet_w3_mlp_simclrhn_probe1,1,557,NaN,knife,boat,0.35,0557_nse_dnn_0.35_boat_10_n02951358_33559.png,n02951358_33559.png,0.0,-8.04465,-2.0118043,-4.265866
alexnet_w3_mlp_simclrhn_probe1,1,558,NaN,knife,bicycle,0.60,0558_nse_dnn_0.60_bicycle_10_n02835271_4619.png,n02835271_4619.png,0.0,-13.96023,-3.0934696,-7.68396
alexnet_w3_mlp_simclrhn_probe1,1,559,NaN,knife,truck,0.03,0559_nse_dnn_0.03_truck_10_n03796401_21261.png,n03796401_21261.png,0.0,-0.9547701,-0.692924,-0.18515313
alexnet_w3_mlp_simclrhn_probe1,1,560,NaN,knife,airplane,0.10,0560_nse_dnn_0.10_airplane_10_n02690373_2496.png,n02690373_2496.png,0.0,-4.1398754,-1.1903046,-2.0856614
alexnet_w3_mlp_simclrhn_probe1,1,561,NaN,knife,boat,0.35,0561_nse_dnn_0.35_boat_10_n03662601_5419.png,n03662601_5419.png,0.0,-9.26782,-2.1095636,-5.0616517
alexnet_w3_mlp_simclrhn_probe1,1,562,NaN,airplane,airplane,0.03,0562_nse_dnn_0.03_airplane_10_n02690373_7686.png,n02690373_7686.png,1.0,1.8595016,0.15971558,1.2019303
alexnet_w3_mlp_simclrhn_probe1,1,563,NaN,knife,oven,0.90,0563_nse_dnn_0.90_oven_10_n04111531_5246.png,n04111531_5246.png,0.0,-18.303646,-3.1080647,-10.744899
alexnet_w3_mlp_simclrhn_probe1,1,564,NaN,knife,bicycle,0.60,0564_nse_dnn_0.60_bicycle_10_n03792782_1099.png,n03792782_1099.png,0.0,-13.3411255,-2.9644287,-7.337433
alexnet_w3_mlp_simclrhn_probe1,1,565,NaN,knife,chair,0.35,0565_nse_dnn_0.35_chair_10_n04099969_12909.png,n04099969_12909.png,0.0,-7.4292436,-2.1170726,-3.756272
alexnet_w3_mlp_simclrhn_probe1,1,566,NaN,elephant,elephant,0.03,0566_nse_dnn_0.03_elephant_10_n02504013_7147.png,n02504013_7147.png,1.0,-0.1535428,-0.6846108,0.37552178
alexnet_w3_mlp_simclrhn_probe1,1,567,NaN,knife,truck,0.35,0567_nse_dnn_0.35_truck_10_n04467665_44715.png,n04467665_44715.png,0.0,-11.141837,-2.6171484,-6.0278654
alexnet_w3_mlp_simclrhn_probe1,1,568,NaN,keyboard,keyboard,0.00,0568_nse_dnn_0.00_keyboard_10_n04505470_1338.png,n04505470_1338.png,1.0,2.4424374,-0.42489025,2.0275068
alexnet_w3_mlp_simclrhn_probe1,1,569,NaN,knife,airplane,0.90,0569_nse_dnn_0.90_airplane_10_n02690373_4982.png,n02690373_4982.png,0.0,-22.15305,-3.150913,-13.43654
alexnet_w3_mlp_simclrhn_probe1,1,570,NaN,knife,bicycle,0.90,0570_nse_dnn_0.90_bicycle_10_n03792782_3754.png,n03792782_3754.png,0.0,-16.775839,-3.5663884,-9.340492
alexnet_w3_mlp_simclrhn_probe1,1,571,NaN,elephant,bicycle,0.00,0571_nse_dnn_0.00_bicycle_10_n03792782_1418.png,n03792782_1418.png,0.0,-0.28906006,-0.11071043,-0.12611224
alexnet_w3_mlp_simclrhn_probe1,1,572,NaN,knife,truck,0.03,0572_nse_dnn_0.03_truck_10_n03796401_26359.png,n03796401_26359.png,0.0,-1.3949152,-0.3190018,-0.7607857
alexnet_w3_mlp_simclrhn_probe1,1,573,NaN,oven,car,0.05,0573_nse_dnn_0.05_car_10_n03100240_9149.png,n03100240_9149.png,0.0,-2.9356806,-0.69839543,-1.5819995
alexnet_w3_mlp_simclrhn_probe1,1,574,NaN,knife,bird,0.90,0574_nse_dnn_0.90_bird_10_n01534433_14677.png,n01534433_14677.png,0.0,-12.891537,-3.3821824,-6.724129
alexnet_w3_mlp_simclrhn_probe1,1,575,NaN,car,car,0.03,0575_nse_dnn_0.03_car_10_n03100240_8683.png,n03100240_8683.png,1.0,1.6019322,-0.63466275,1.5815115
alexnet_w3_mlp_simclrhn_probe1,1,576,NaN,bicycle,chair,0.03,0576_nse_dnn_0.03_chair_10_n03376595_524.png,n03376595_524.png,0.0,-0.48371103,1.7820058,-1.6021037
alexnet_w3_mlp_simclrhn_probe1,1,577,NaN,knife,dog,0.20,0577_nse_dnn_0.20_dog_10_n02094433_6402.png,n02094433_6402.png,0.0,-4.8241816,-2.0062258,-1.9925957
alexnet_w3_mlp_simclrhn_probe1,1,578,NaN,knife,car,0.20,0578_nse_dnn_0.20_car_10_n03100240_16803.png,n03100240_16803.png,0.0,-8.300072,-2.0907428,-4.3906584
alexnet_w3_mlp_simclrhn_probe1,1,579,NaN,knife,bicycle,0.20,0579_nse_dnn_0.20_bicycle_10_n03792782_15114.png,n03792782_15114.png,0.0,-4.609309,-2.3283498,-1.6128819
alexnet_w3_mlp_simclrhn_probe1,1,580,NaN,knife,chair,0.60,0580_nse_dnn_0.60_chair_10_n04429376_21362.png,n04429376_21362.png,0.0,-11.680527,-2.5657554,-6.4451165
alexnet_w3_mlp_simclrhn_probe1,1,581,NaN,knife,keyboard,0.90,0581_nse_dnn_0.90_keyboard_10_n04505470_3499.png,n04505470_3499.png,0.0,-9.470922,-3.5982718,-4.152591
alexnet_w3_mlp_simclrhn_probe1,1,582,NaN,knife,boat,0.90,0582_nse_dnn_0.90_boat_10_n04273569_26577.png,n04273569_26577.png,0.0,-17.061815,-3.338602,-9.703777
alexnet_w3_mlp_simclrhn_probe1,1,583,NaN,knife,boat,0.10,0583_nse_dnn_0.10_boat_10_n04273569_27325.png,n04273569_27325.png,0.0,-2.0208561,-1.5277061,-0.3487097
alexnet_w3_mlp_simclrhn_probe1,1,584,NaN,oven,keyboard,0.20,0584_nse_dnn_0.20_keyboard_10_n04505470_9570.png,n04505470_9570.png,0.0,-3.6682653,-1.9845939,-1.1905355
alexnet_w3_mlp_simclrhn_probe1,1,585,NaN,knife,bicycle,0.90,0585_nse_dnn_0.90_bicycle_10_n03792782_4067.png,n03792782_4067.png,0.0,-17.001984,-3.5738177,-9.495147
alexnet_w3_mlp_simclrhn_probe1,1,586,NaN,bear,bear,0.10,0586_nse_dnn_0.10_bear_10_n02132136_282.png,n02132136_282.png,1.0,-1.278949,-1.6379194,0.2538304
alexnet_w3_mlp_simclrhn_probe1,1,587,NaN,knife,boat,0.03,0587_nse_dnn_0.03_boat_10_n04612504_30424.png,n04612504_30424.png,0.0,-1.1295736,-0.33429232,-0.5623488
alexnet_w3_mlp_simclrhn_probe1,1,588,NaN,knife,knife,0.90,0588_nse_dnn_0.90_knife_10_n03041632_4879.png,n03041632_4879.png,1.0,-3.2962098,-8.477772,3.6639175
alexnet_w3_mlp_simclrhn_probe1,1,589,NaN,elephant,elephant,0.05,0589_nse_dnn_0.05_elephant_10_n02504458_7634.png,n02504458_7634.png,1.0,0.8274646,-0.40247166,0.86969626
alexnet_w3_mlp_simclrhn_probe1,1,590,NaN,knife,cat,0.35,0590_nse_dnn_0.35_cat_10_n02123597_7615.png,n02123597_7615.png,0.0,-7.4232993,-2.0909514,-3.7705395
alexnet_w3_mlp_simclrhn_probe1,1,591,NaN,knife,bicycle,0.35,0591_nse_dnn_0.35_bicycle_10_n03792782_20387.png,n03792782_20387.png,0.0,-7.6773796,-2.3983457,-3.7328405
alexnet_w3_mlp_simclrhn_probe1,1,592,NaN,clock,clock,0.10,0592_nse_dnn_0.10_clock_10_n02708093_527.png,n02708093_527.png,1.0,-0.7637401,-3.2020695,1.7241594
alexnet_w3_mlp_simclrhn_probe1,1,593,NaN,elephant,elephant,0.05,0593_nse_dnn_0.05_elephant_10_n02504013_5501.png,n02504013_5501.png,1.0,0.80562484,-0.7429729,1.095024
alexnet_w3_mlp_simclrhn_probe1,1,594,NaN,knife,dog,0.35,0594_nse_dnn_0.35_dog_10_n02106166_2273.png,n02106166_2273.png,0.0,-7.3559036,-2.1671047,-3.669035
alexnet_w3_mlp_simclrhn_probe1,1,595,NaN,boat,boat,0.03,0595_nse_dnn_0.03_boat_10_n03662601_34009.png,n03662601_34009.png,1.0,0.18255799,-0.8013584,0.69573396
alexnet_w3_mlp_simclrhn_probe1,1,596,NaN,knife,boat,0.35,0596_nse_dnn_0.35_boat_10_n04273569_12536.png,n04273569_12536.png,0.0,-8.673012,-2.117809,-4.635228
alexnet_w3_mlp_simclrhn_probe1,1,597,NaN,elephant,elephant,0.00,0597_nse_dnn_0.00_elephant_10_n02504013_8534.png,n02504013_8534.png,1.0,1.267379,-0.88257515,1.5202473
alexnet_w3_mlp_simclrhn_probe1,1,598,NaN,knife,clock,0.35,0598_nse_dnn_0.35_clock_10_n04548280_156.png,n04548280_156.png,0.0,-5.754446,-2.5391402,-2.2735646
alexnet_w3_mlp_simclrhn_probe1,1,599,NaN,knife,bicycle,0.90,0599_nse_dnn_0.90_bicycle_10_n02835271_542.png,n02835271_542.png,0.0,-16.595825,-3.1913917,-9.478366
alexnet_w3_mlp_simclrhn_probe1,1,600,NaN,chair,bear,0.00,0600_nse_dnn_0.00_bear_10_n02133161_5434.png,n02133161_5434.png,0.0,-1.8560752,-1.5005761,-0.25137576
alexnet_w3_mlp_simclrhn_probe1,1,601,NaN,knife,truck,0.60,0601_nse_dnn_0.60_truck_10_n04467665_63829.png,n04467665_63829.png,0.0,-16.335653,-2.853281,-9.533477
alexnet_w3_mlp_simclrhn_probe1,1,602,NaN,knife,oven,0.90,0602_nse_dnn_0.90_oven_10_n04111531_10220.png,n04111531_10220.png,0.0,-17.662117,-3.2541518,-10.18797
alexnet_w3_mlp_simclrhn_probe1,1,603,NaN,knife,boat,0.60,0603_nse_dnn_0.60_boat_10_n04273569_28074.png,n04273569_28074.png,0.0,-13.525441,-2.8642128,-7.5386267
alexnet_w3_mlp_simclrhn_probe1,1,604,NaN,cat,cat,0.00,0604_nse_dnn_0.00_cat_10_n02123394_2482.png,n02123394_2482.png,1.0,-0.2103101,-0.7420068,0.37596634
alexnet_w3_mlp_simclrhn_probe1,1,605,NaN,knife,boat,0.90,0605_nse_dnn_0.90_boat_10_n03662601_20381.png,n03662601_20381.png,0.0,-16.496515,-3.3806555,-9.274314
alexnet_w3_mlp_simclrhn_probe1,1,606,NaN,knife,bird,0.35,0606_nse_dnn_0.35_bird_10_n01817953_12511.png,n01817953_12511.png,0.0,-7.640892,-2.2297459,-3.8262582
alexnet_w3_mlp_simclrhn_probe1,1,607,NaN,cat,cat,0.05,0607_nse_dnn_0.05_cat_10_n02125311_5346.png,n02125311_5346.png,1.0,0.40719202,-1.1651869,1.1118398
alexnet_w3_mlp_simclrhn_probe1,1,608,NaN,elephant,oven,0.00,0608_nse_dnn_0.00_oven_10_n04111531_14758.png,n04111531_14758.png,0.0,-2.7013187,-0.49045435,-1.5633172
alexnet_w3_mlp_simclrhn_probe1,1,609,NaN,elephant,bird,0.10,0609_nse_dnn_0.10_bird_10_n02002556_1398.png,n02002556_1398.png,0.0,-1.8136545,-0.22416344,-1.12394
alexnet_w3_mlp_simclrhn_probe1,1,610,NaN,knife,knife,0.05,0610_nse_dnn_0.05_knife_10_n03041632_99912.png,n03041632_99912.png,1.0,-1.0696862,-2.50702,1.0163485
alexnet_w3_mlp_simclrhn_probe1,1,611,NaN,knife,airplane,0.05,0611_nse_dnn_0.05_airplane_10_n02690373_1075.png,n02690373_1075.png,0.0,-0.88917977,-0.8422203,-0.033205353
alexnet_w3_mlp_simclrhn_probe1,1,612,NaN,knife,cat,0.35,0612_nse_dnn_0.35_cat_10_n02123045_10834.png,n02123045_10834.png,0.0,-6.4511166,-2.3874154,-2.8734708
alexnet_w3_mlp_simclrhn_probe1,1,613,NaN,knife,car,0.60,0613_nse_dnn_0.60_car_10_n02814533_41478.png,n02814533_41478.png,0.0,-14.997869,-2.8433537,-8.59454
alexnet_w3_mlp_simclrhn_probe1,1,614,NaN,cat,cat,0.00,0614_nse_dnn_0.00_cat_10_n02123394_1602.png,n02123394_1602.png,1.0,0.87460995,-0.34666437,0.8635714
alexnet_w3_mlp_simclrhn_probe1,1,615,NaN,knife,knife,0.03,0615_nse_dnn_0.03_knife_10_n03041632_21017.png,n03041632_21017.png,1.0,-0.6021589,-1.7641765,0.82167053
alexnet_w3_mlp_simclrhn_probe1,1,616,NaN,bear,bear,0.03,0616_nse_dnn_0.03_bear_10_n02134084_572.png,n02134084_572.png,1.0,1.2382545,1.1268215,0.07879505
alexnet_w3_mlp_simclrhn_probe1,1,617,NaN,keyboard,clock,0.05,0617_nse_dnn_0.05_clock_10_n03196217_3987.png,n03196217_3987.png,0.0,-1.5255026,1.1102502,-1.8637587
alexnet_w3_mlp_simclrhn_probe1,1,618,NaN,dog,dog,0.03,0618_nse_dnn_0.03_dog_10_n02098286_6303.png,n02098286_6303.png,1.0,-0.34125623,-0.6802082,0.23967524
alexnet_w3_mlp_simclrhn_probe1,1,619,NaN,keyboard,keyboard,0.00,0619_nse_dnn_0.00_keyboard_10_n04505470_4379.png,n04505470_4379.png,1.0,1.7282016,0.8848132,0.5963657
alexnet_w3_mlp_simclrhn_probe1,1,620,NaN,bear,boat,0.05,0620_nse_dnn_0.05_boat_10_n04273569_15138.png,n04273569_15138.png,0.0,-1.2056086,-1.1481727,-0.040613294
