subj,session,trial,rt,object_response,category,condition,imagename,filename,is_correct,targ_act,max_nontarg_act,decision_margin
alexnet_w1_mlp_simclrhn_probe0,1,1,NaN,bicycle,elephant,0.03,0001_nse_dnn_0.03_elephant_10_n02504458_7209.png,n02504458_7209.png,0.0,-2.1908956,-2.1700597,-0.01473319
alexnet_w1_mlp_simclrhn_probe0,1,2,NaN,knife,knife,0.90,0002_nse_dnn_0.90_knife_10_n03041632_82878.png,n03041632_82878.png,1.0,-1.9166337,-2.721097,0.56884146
alexnet_w1_mlp_simclrhn_probe0,1,3,NaN,clock,clock,0.00,0003_nse_dnn_0.00_clock_10_n03196217_9231.png,n03196217_9231.png,1.0,1.4957142,0.02386713,1.040753
alexnet_w1_mlp_simclrhn_probe0,1,4,NaN,oven,oven,0.00,0004_nse_dnn_0.00_oven_10_n04111531_11026.png,n04111531_11026.png,1.0,-1.6458845,-2.0409863,0.27937916
alexnet_w1_mlp_simclrhn_probe0,1,5,NaN,elephant,clock,0.10,0005_nse_dnn_0.10_clock_10_n04548280_1114.png,n04548280_1114.png,0.0,-3.0513685,-1.0120593,-1.4420092
alexnet_w1_mlp_simclrhn_probe0,1,6,NaN,clock,clock,0.03,0006_nse_dnn_0.03_clock_10_n02708093_8100.png,n02708093_8100.png,1.0,-0.8368682,-1.3146489,0.33784193
alexnet_w1_mlp_simclrhn_probe0,1,7,NaN,clock,clock,0.00,0007_nse_dnn_0.00_clock_10_n02708093_3591.png,n02708093_3591.png,1.0,1.8673118,-0.9788445,2.0125365
alexnet_w1_mlp_simclrhn_probe0,1,8,NaN,clock,chair,0.00,0008_nse_dnn_0.00_chair_10_n03376595_16202.png,n03376595_16202.png,0.0,-1.0109092,-0.9050569,-0.07484888
alexnet_w1_mlp_simclrhn_probe0,1,9,NaN,knife,bottle,0.60,0009_nse_dnn_0.60_bottle_10_n02823428_3478.png,n02823428_3478.png,0.0,-7.436986,-1.6259284,-4.1090384
alexnet_w1_mlp_simclrhn_probe0,1,10,NaN,bear,dog,0.10,0010_nse_dnn_0.10_dog_10_n02087394_28673.png,n02087394_28673.png,0.0,-3.0766864,-1.2793849,-1.2708842
alexnet_w1_mlp_simclrhn_probe0,1,11,NaN,cat,chair,0.10,0011_nse_dnn_0.10_chair_10_n04099969_1690.png,n04099969_1690.png,0.0,-3.812995,-1.3187586,-1.7636915
alexnet_w1_mlp_simclrhn_probe0,1,12,NaN,elephant,cat,0.03,0012_nse_dnn_0.03_cat_10_n02125311_1736.png,n02125311_1736.png,0.0,-1.459434,-0.2967537,-0.8221392
alexnet_w1_mlp_simclrhn_probe0,1,13,NaN,knife,bear,0.90,0013_nse_dnn_0.90_bear_10_n02133161_1169.png,n02133161_1169.png,0.0,-11.611891,-2.3251317,-6.5667305
alexnet_w1_mlp_simclrhn_probe0,1,14,NaN,knife,bear,0.90,0014_nse_dnn_0.90_bear_10_n02133161_8835.png,n02133161_8835.png,0.0,-11.89044,-1.6262877,-7.257852
alexnet_w1_mlp_simclrhn_probe0,1,15,NaN,knife,car,0.20,0015_nse_dnn_0.20_car_10_n02814533_5430.png,n02814533_5430.png,0.0,-6.578031,-2.5051088,-2.879991
alexnet_w1_mlp_simclrhn_probe0,1,16,NaN,knife,bear,0.60,0016_nse_dnn_0.60_bear_10_n02134418_3767.png,n02134418_3767.png,0.0,-9.634467,-1.5363917,-5.7262044
alexnet_w1_mlp_simclrhn_probe0,1,17,NaN,knife,knife,0.20,0017_nse_dnn_0.20_knife_10_n03041632_10540.png,n03041632_10540.png,1.0,-1.259722,-3.4522145,1.5503263
alexnet_w1_mlp_simclrhn_probe0,1,18,NaN,knife,bicycle,0.20,0018_nse_dnn_0.20_bicycle_10_n02835271_1075.png,n02835271_1075.png,0.0,-3.4869447,-2.6161041,-0.61577725
alexnet_w1_mlp_simclrhn_probe0,1,19,NaN,bear,bear,0.00,0019_nse_dnn_0.00_bear_10_n02134084_3888.png,n02134084_3888.png,1.0,-0.3374153,-0.4705324,0.09412799
alexnet_w1_mlp_simclrhn_probe0,1,20,NaN,dog,dog,0.00,0020_nse_dnn_0.00_dog_10_n02085936_9009.png,n02085936_9009.png,1.0,-1.0133935,-1.3452744,0.23467526
alexnet_w1_mlp_simclrhn_probe0,1,21,NaN,knife,knife,0.03,0021_nse_dnn_0.03_knife_10_n03041632_12651.png,n03041632_12651.png,1.0,-0.32526904,-1.1341696,0.57197905
alexnet_w1_mlp_simclrhn_probe0,1,22,NaN,knife,bicycle,0.35,0022_nse_dnn_0.35_bicycle_10_n03792782_565.png,n03792782_565.png,0.0,-7.966958,-1.9731586,-4.238256
alexnet_w1_mlp_simclrhn_probe0,1,23,NaN,knife,boat,0.20,0023_nse_dnn_0.20_boat_10_n04612504_40672.png,n04612504_40672.png,0.0,-5.798935,-1.4549079,-3.071691
alexnet_w1_mlp_simclrhn_probe0,1,24,NaN,bear,dog,0.05,0024_nse_dnn_0.05_dog_10_n02098105_146.png,n02098105_146.png,0.0,-2.0686715,-1.0078949,-0.7500823
alexnet_w1_mlp_simclrhn_probe0,1,25,NaN,clock,clock,0.03,0025_nse_dnn_0.03_clock_10_n02708093_5944.png,n02708093_5944.png,1.0,-1.6370791,-1.8945655,0.18207034
alexnet_w1_mlp_simclrhn_probe0,1,26,NaN,knife,cat,0.03,0026_nse_dnn_0.03_cat_10_n02124075_14021.png,n02124075_14021.png,0.0,-1.6512223,-1.0095161,-0.45375484
alexnet_w1_mlp_simclrhn_probe0,1,27,NaN,bear,bear,0.20,0027_nse_dnn_0.20_bear_10_n02133161_7184.png,n02133161_7184.png,1.0,-1.6432364,-1.7513179,0.076425135
alexnet_w1_mlp_simclrhn_probe0,1,28,NaN,bottle,bottle,0.00,0028_nse_dnn_0.00_bottle_10_n03937543_9745.png,n03937543_9745.png,1.0,-0.6934681,-0.8217036,0.0906762
alexnet_w1_mlp_simclrhn_probe0,1,29,NaN,knife,airplane,0.60,0029_nse_dnn_0.60_airplane_10_n02690373_9605.png,n02690373_9605.png,0.0,-20.327797,-2.3592005,-12.705717
alexnet_w1_mlp_simclrhn_probe0,1,30,NaN,knife,cat,0.20,0030_nse_dnn_0.20_cat_10_n02123045_7167.png,n02123045_7167.png,0.0,-3.2650366,-2.3661795,-0.635588
alexnet_w1_mlp_simclrhn_probe0,1,31,NaN,airplane,airplane,0.05,0031_nse_dnn_0.05_airplane_10_n02690373_4706.png,n02690373_4706.png,1.0,-0.057904124,-1.7115058,1.1692729
alexnet_w1_mlp_simclrhn_probe0,1,32,NaN,knife,knife,0.35,0032_nse_dnn_0.35_knife_10_n03041632_45270.png,n03041632_45270.png,1.0,-2.2370942,-4.5646367,1.6458211
alexnet_w1_mlp_simclrhn_probe0,1,33,NaN,knife,dog,0.35,0033_nse_dnn_0.35_dog_10_n02105855_9326.png,n02105855_9326.png,0.0,-5.709816,-2.824769,-2.0400362
alexnet_w1_mlp_simclrhn_probe0,1,34,NaN,bear,bear,0.10,0034_nse_dnn_0.10_bear_10_n02134418_4349.png,n02134418_4349.png,1.0,-0.40836692,-0.9288564,0.36804163
alexnet_w1_mlp_simclrhn_probe0,1,35,NaN,cat,cat,0.00,0035_nse_dnn_0.00_cat_10_n02123159_469.png,n02123159_469.png,1.0,-1.1367583,-1.2311101,0.066716775
alexnet_w1_mlp_simclrhn_probe0,1,36,NaN,knife,truck,0.90,0036_nse_dnn_0.90_truck_10_n03417042_5004.png,n03417042_5004.png,0.0,-20.031101,-2.0916371,-12.685118
alexnet_w1_mlp_simclrhn_probe0,1,37,NaN,knife,bird,0.10,0037_nse_dnn_0.10_bird_10_n02051845_6333.png,n02051845_6333.png,0.0,-4.9833407,-0.8470875,-2.9247727
alexnet_w1_mlp_simclrhn_probe0,1,38,NaN,knife,clock,0.90,0038_nse_dnn_0.90_clock_10_n03196217_12701.png,n03196217_12701.png,0.0,-10.720342,-2.1039262,-6.0927258
alexnet_w1_mlp_simclrhn_probe0,1,39,NaN,knife,chair,0.60,0039_nse_dnn_0.60_chair_10_n03376595_12341.png,n03376595_12341.png,0.0,-7.6211624,-2.1579895,-3.8630466
alexnet_w1_mlp_simclrhn_probe0,1,40,NaN,knife,bicycle,0.10,0040_nse_dnn_0.10_bicycle_10_n03792782_66837.png,n03792782_66837.png,0.0,-3.084452,-2.158989,-0.6544011
alexnet_w1_mlp_simclrhn_probe0,1,41,NaN,bicycle,bicycle,0.05,0041_nse_dnn_0.05_bicycle_10_n02835271_20177.png,n02835271_20177.png,1.0,0.010397106,-3.0633593,2.173474
alexnet_w1_mlp_simclrhn_probe0,1,42,NaN,chair,knife,0.00,0042_nse_dnn_0.00_knife_10_n03041632_22330.png,n03041632_22330.png,0.0,-2.264657,-2.2054794,-0.04184491
alexnet_w1_mlp_simclrhn_probe0,1,43,NaN,knife,cat,0.60,0043_nse_dnn_0.60_cat_10_n02123045_5913.png,n02123045_5913.png,0.0,-7.7509503,-2.4564815,-3.7437549
alexnet_w1_mlp_simclrhn_probe0,1,44,NaN,elephant,elephant,0.20,0044_nse_dnn_0.20_elephant_10_n02504013_2464.png,n02504013_2464.png,1.0,-0.43383217,-2.3587914,1.3611517
alexnet_w1_mlp_simclrhn_probe0,1,45,NaN,knife,knife,0.90,0045_nse_dnn_0.90_knife_10_n03041632_99460.png,n03041632_99460.png,1.0,-2.2248304,-2.290742,0.046606492
alexnet_w1_mlp_simclrhn_probe0,1,46,NaN,bear,dog,0.00,0046_nse_dnn_0.00_dog_10_n02099601_8686.png,n02099601_8686.png,0.0,-2.6025596,-1.6429443,-0.6785504
alexnet_w1_mlp_simclrhn_probe0,1,47,NaN,knife,chair,0.90,0047_nse_dnn_0.90_chair_10_n02791124_5400.png,n02791124_5400.png,0.0,-8.481041,-2.5084429,-4.2232647
alexnet_w1_mlp_simclrhn_probe0,1,48,NaN,knife,chair,0.05,0048_nse_dnn_0.05_chair_10_n03376595_830.png,n03376595_830.png,0.0,-1.9435127,-1.9110887,-0.022927212
alexnet_w1_mlp_simclrhn_probe0,1,49,NaN,keyboard,cat,0.90,0049_nse_dnn_0.90_cat_10_n02124075_6024.png,n02124075_6024.png,0.0,-9.569701,-1.8275683,-5.474515
alexnet_w1_mlp_simclrhn_probe0,1,50,NaN,bicycle,bicycle,0.10,0050_nse_dnn_0.10_bicycle_10_n03792782_9004.png,n03792782_9004.png,1.0,-0.9040769,-3.4014835,1.7659333
alexnet_w1_mlp_simclrhn_probe0,1,51,NaN,knife,keyboard,0.60,0051_nse_dnn_0.60_keyboard_10_n03085013_24088.png,n03085013_24088.png,0.0,-6.114953,-2.5538278,-2.518096
alexnet_w1_mlp_simclrhn_probe0,1,52,NaN,cat,cat,0.10,0052_nse_dnn_0.10_cat_10_n02125311_33778.png,n02125311_33778.png,1.0,-1.3791871,-1.542888,0.115754046
alexnet_w1_mlp_simclrhn_probe0,1,53,NaN,bicycle,bicycle,0.00,0053_nse_dnn_0.00_bicycle_10_n03792782_7092.png,n03792782_7092.png,1.0,1.4543555,-3.2140393,3.3010538
alexnet_w1_mlp_simclrhn_probe0,1,54,NaN,knife,airplane,0.35,0054_nse_dnn_0.35_airplane_10_n02690373_5724.png,n02690373_5724.png,0.0,-12.4987135,-1.1010153,-8.05939
alexnet_w1_mlp_simclrhn_probe0,1,55,NaN,knife,bear,0.60,0055_nse_dnn_0.60_bear_10_n02133161_5637.png,n02133161_5637.png,0.0,-9.957815,-2.1684866,-5.5078874
alexnet_w1_mlp_simclrhn_probe0,1,56,NaN,knife,bear,0.10,0056_nse_dnn_0.10_bear_10_n02132136_5365.png,n02132136_5365.png,0.0,-1.4089806,-1.2435193,-0.116998814
alexnet_w1_mlp_simclrhn_probe0,1,57,NaN,knife,car,0.35,0057_nse_dnn_0.35_car_10_n03100240_1702.png,n03100240_1702.png,0.0,-9.819847,-2.9270818,-4.873921
alexnet_w1_mlp_simclrhn_probe0,1,58,NaN,knife,oven,0.35,0058_nse_dnn_0.35_oven_10_n04111531_2677.png,n04111531_2677.png,0.0,-7.623884,-2.74281,-3.4514406
alexnet_w1_mlp_simclrhn_probe0,1,59,NaN,knife,oven,0.05,0059_nse_dnn_0.05_oven_10_n04111531_16583.png,n04111531_16583.png,0.0,-2.0722802,-1.0845762,-0.6984122
alexnet_w1_mlp_simclrhn_probe0,1,60,NaN,chair,chair,0.10,0060_nse_dnn_0.10_chair_10_n04099969_6266.png,n04099969_6266.png,1.0,-1.7649857,-2.3691247,0.42719078
alexnet_w1_mlp_simclrhn_probe0,1,61,NaN,knife,oven,0.60,0061_nse_dnn_0.60_oven_10_n04111531_6695.png,n04111531_6695.png,0.0,-13.750557,-1.9667232,-8.332429
alexnet_w1_mlp_simclrhn_probe0,1,62,NaN,knife,car,0.10,0062_nse_dnn_0.10_car_10_n03100240_1438.png,n03100240_1438.png,0.0,-4.178932,-2.8157265,-0.963932
alexnet_w1_mlp_simclrhn_probe0,1,63,NaN,knife,keyboard,0.20,0063_nse_dnn_0.20_keyboard_10_n04505470_4684.png,n04505470_4684.png,0.0,-5.408343,-2.764645,-1.8693767
alexnet_w1_mlp_simclrhn_probe0,1,64,NaN,chair,chair,0.00,0064_nse_dnn_0.00_chair_10_n04099969_8021.png,n04099969_8021.png,1.0,-1.067387,-1.407777,0.24069206
alexnet_w1_mlp_simclrhn_probe0,1,65,NaN,elephant,car,0.20,0065_nse_dnn_0.20_car_10_n04285008_7139.png,n04285008_7139.png,0.0,-6.6047273,-2.7313893,-2.7388637
alexnet_w1_mlp_simclrhn_probe0,1,66,NaN,truck,truck,0.03,0066_nse_dnn_0.03_truck_10_n03796401_9207.png,n03796401_9207.png,1.0,-1.0108869,-1.1616849,0.106630266
alexnet_w1_mlp_simclrhn_probe0,1,67,NaN,elephant,bottle,0.05,0067_nse_dnn_0.05_bottle_10_n04560804_3651.png,n04560804_3651.png,0.0,-2.5934615,-0.92630154,-1.1788602
alexnet_w1_mlp_simclrhn_probe0,1,68,NaN,knife,chair,0.60,0068_nse_dnn_0.60_chair_10_n03376595_3010.png,n03376595_3010.png,0.0,-7.579548,-1.4765372,-4.31548
alexnet_w1_mlp_simclrhn_probe0,1,69,NaN,knife,bird,0.90,0069_nse_dnn_0.90_bird_10_n01514859_1951.png,n01514859_1951.png,0.0,-6.749156,-2.3349779,-3.1212952
alexnet_w1_mlp_simclrhn_probe0,1,70,NaN,car,car,0.10,0070_nse_dnn_0.10_car_10_n03100240_4594.png,n03100240_4594.png,1.0,-2.5642946,-2.7366638,0.12188346
alexnet_w1_mlp_simclrhn_probe0,1,71,NaN,knife,clock,0.35,0071_nse_dnn_0.35_clock_10_n03196217_3333.png,n03196217_3333.png,0.0,-7.9069066,-2.1309009,-4.084253
alexnet_w1_mlp_simclrhn_probe0,1,72,NaN,elephant,car,0.10,0072_nse_dnn_0.10_car_10_n02814533_90798.png,n02814533_90798.png,0.0,-5.71044,-2.0078855,-2.6181016
alexnet_w1_mlp_simclrhn_probe0,1,73,NaN,knife,keyboard,0.00,0073_nse_dnn_0.00_keyboard_10_n03085013_19547.png,n03085013_19547.png,0.0,0.03722799,0.522235,-0.34295174
alexnet_w1_mlp_simclrhn_probe0,1,74,NaN,bear,bear,0.05,0074_nse_dnn_0.05_bear_10_n02133161_545.png,n02133161_545.png,1.0,-0.50565195,-0.82890826,0.22857673
alexnet_w1_mlp_simclrhn_probe0,1,75,NaN,knife,oven,0.90,0075_nse_dnn_0.90_oven_10_n04111531_6489.png,n04111531_6489.png,0.0,-17.784264,-3.1312342,-10.361257
alexnet_w1_mlp_simclrhn_probe0,1,76,NaN,knife,dog,0.90,0076_nse_dnn_0.90_dog_10_n02105056_15299.png,n02105056_15299.png,0.0,-8.304333,-2.0673976,-4.410179
alexnet_w1_mlp_simclrhn_probe0,1,77,NaN,knife,knife,0.05,0077_nse_dnn_0.05_knife_10_n03041632_33255.png,n03041632_33255.png,1.0,-1.1104304,-2.2180653,0.7832162
alexnet_w1_mlp_simclrhn_probe0,1,78,NaN,knife,cat,0.20,0078_nse_dnn_0.20_cat_10_n02123394_5895.png,n02123394_5895.png,0.0,-2.9165184,-1.88695,-0.7280148
alexnet_w1_mlp_simclrhn_probe0,1,79,NaN,knife,bottle,0.03,0079_nse_dnn_0.03_bottle_10_n03983396_11654.png,n03983396_11654.png,0.0,-1.7356043,-1.0864934,-0.45899072
alexnet_w1_mlp_simclrhn_probe0,1,80,NaN,airplane,airplane,0.03,0080_nse_dnn_0.03_airplane_10_n02690373_3860.png,n02690373_3860.png,1.0,0.44679254,-2.0441527,1.7613643
alexnet_w1_mlp_simclrhn_probe0,1,81,NaN,elephant,oven,0.03,0081_nse_dnn_0.03_oven_10_n04111531_6415.png,n04111531_6415.png,0.0,-2.9714875,-2.2374709,-0.5190282
alexnet_w1_mlp_simclrhn_probe0,1,82,NaN,knife,knife,0.60,0082_nse_dnn_0.60_knife_10_n03041632_39342.png,n03041632_39342.png,1.0,-1.659711,-3.7065582,1.4473397
alexnet_w1_mlp_simclrhn_probe0,1,83,NaN,knife,bear,0.60,0083_nse_dnn_0.60_bear_10_n02133161_4882.png,n02133161_4882.png,0.0,-9.494944,-3.7244067,-4.0803857
alexnet_w1_mlp_simclrhn_probe0,1,84,NaN,bottle,bottle,0.00,0084_nse_dnn_0.00_bottle_10_n04591713_7474.png,n04591713_7474.png,1.0,-1.3721992,-1.8372399,0.32883343
alexnet_w1_mlp_simclrhn_probe0,1,85,NaN,knife,bear,0.20,0085_nse_dnn_0.20_bear_10_n02132136_17615.png,n02132136_17615.png,0.0,-2.8374317,-1.5267407,-0.9267985
alexnet_w1_mlp_simclrhn_probe0,1,86,NaN,knife,boat,0.60,0086_nse_dnn_0.60_boat_10_n03344393_382.png,n03344393_382.png,0.0,-17.080671,-1.8580357,-10.764029
alexnet_w1_mlp_simclrhn_probe0,1,87,NaN,airplane,truck,0.00,0087_nse_dnn_0.00_truck_10_n03796401_27811.png,n03796401_27811.png,0.0,-0.45353568,0.15165938,-0.42793754
alexnet_w1_mlp_simclrhn_probe0,1,88,NaN,knife,keyboard,0.60,0088_nse_dnn_0.60_keyboard_10_n04505470_2603.png,n04505470_2603.png,0.0,-6.2128234,-3.0895336,-2.2084994
alexnet_w1_mlp_simclrhn_probe0,1,89,NaN,knife,boat,0.35,0089_nse_dnn_0.35_boat_10_n03662601_16418.png,n03662601_16418.png,0.0,-10.511063,-1.784805,-6.170396
alexnet_w1_mlp_simclrhn_probe0,1,90,NaN,knife,bear,0.35,0090_nse_dnn_0.35_bear_10_n02132136_2760.png,n02132136_2760.png,0.0,-4.769562,-2.545824,-1.57242
alexnet_w1_mlp_simclrhn_probe0,1,91,NaN,bicycle,bicycle,0.05,0091_nse_dnn_0.05_bicycle_10_n02835271_10271.png,n02835271_10271.png,1.0,0.14680457,-2.6529326,1.9797132
alexnet_w1_mlp_simclrhn_probe0,1,92,NaN,elephant,bear,0.10,0092_nse_dnn_0.10_bear_10_n02134084_9127.png,n02134084_9127.png,0.0,-1.026011,-0.75481915,-0.19176158
alexnet_w1_mlp_simclrhn_probe0,1,93,NaN,knife,bird,0.20,0093_nse_dnn_0.20_bird_10_n01797886_551.png,n01797886_551.png,0.0,-3.133508,-1.4493628,-1.1908705
alexnet_w1_mlp_simclrhn_probe0,1,94,NaN,elephant,truck,0.10,0094_nse_dnn_0.10_truck_10_n03417042_9559.png,n03417042_9559.png,0.0,-5.1360445,-1.3235989,-2.6958063
alexnet_w1_mlp_simclrhn_probe0,1,95,NaN,knife,clock,0.90,0095_nse_dnn_0.90_clock_10_n02708093_3114.png,n02708093_3114.png,0.0,-11.195537,-1.5556675,-6.8164167
alexnet_w1_mlp_simclrhn_probe0,1,96,NaN,knife,bicycle,0.05,0096_nse_dnn_0.05_bicycle_10_n03792782_122.png,n03792782_122.png,0.0,-1.4982224,-1.1448395,-0.24987939
alexnet_w1_mlp_simclrhn_probe0,1,97,NaN,knife,oven,0.35,0097_nse_dnn_0.35_oven_10_n04111531_3702.png,n04111531_3702.png,0.0,-7.9454637,-1.6778152,-4.431897
alexnet_w1_mlp_simclrhn_probe0,1,98,NaN,knife,car,0.90,0098_nse_dnn_0.90_car_10_n02814533_93476.png,n02814533_93476.png,0.0,-18.78258,-2.2128053,-11.7166
alexnet_w1_mlp_simclrhn_probe0,1,99,NaN,knife,cat,0.35,0099_nse_dnn_0.35_cat_10_n02123045_8491.png,n02123045_8491.png,0.0,-4.9073253,-1.6351457,-2.3137803
alexnet_w1_mlp_simclrhn_probe0,1,100,NaN,knife,chair,0.35,0100_nse_dnn_0.35_chair_10_n02791124_13469.png,n02791124_13469.png,0.0,-5.9236546,-2.4950316,-2.4244025
alexnet_w1_mlp_simclrhn_probe0,1,101,NaN,knife,dog,0.60,0101_nse_dnn_0.60_dog_10_n02096294_5451.png,n02096294_5451.png,0.0,-7.6987143,-2.6229744,-3.58909
alexnet_w1_mlp_simclrhn_probe0,1,102,NaN,knife,bicycle,0.35,0102_nse_dnn_0.35_bicycle_10_n03792782_44296.png,n03792782_44296.png,0.0,-6.3643928,-2.2347913,-2.9200692
alexnet_w1_mlp_simclrhn_probe0,1,103,NaN,knife,cat,0.90,0103_nse_dnn_0.90_cat_10_n02123597_7138.png,n02123597_7138.png,0.0,-9.45607,-1.6828132,-5.496523
alexnet_w1_mlp_simclrhn_probe0,1,104,NaN,knife,bottle,0.35,0104_nse_dnn_0.35_bottle_10_n04560804_12736.png,n04560804_12736.png,0.0,-5.7629194,-1.6155868,-2.9326072
alexnet_w1_mlp_simclrhn_probe0,1,105,NaN,knife,oven,0.60,0105_nse_dnn_0.60_oven_10_n04111531_22797.png,n04111531_22797.png,0.0,-13.77858,-1.8520869,-8.433304
alexnet_w1_mlp_simclrhn_probe0,1,106,NaN,elephant,bird,0.10,0106_nse_dnn_0.10_bird_10_n02007558_7446.png,n02007558_7446.png,0.0,-2.858205,-2.4495773,-0.28894347
alexnet_w1_mlp_simclrhn_probe0,1,107,NaN,knife,boat,0.60,0107_nse_dnn_0.60_boat_10_n03662601_16441.png,n03662601_16441.png,0.0,-16.113585,-2.7057161,-9.480795
alexnet_w1_mlp_simclrhn_probe0,1,108,NaN,knife,oven,0.60,0108_nse_dnn_0.60_oven_10_n04111531_22386.png,n04111531_22386.png,0.0,-13.862518,-2.2384677,-8.219445
alexnet_w1_mlp_simclrhn_probe0,1,109,NaN,airplane,airplane,0.00,0109_nse_dnn_0.00_airplane_10_n02690373_1381.png,n02690373_1381.png,1.0,4.0480156,-2.194286,4.4139743
alexnet_w1_mlp_simclrhn_probe0,1,110,NaN,knife,keyboard,0.20,0110_nse_dnn_0.20_keyboard_10_n03085013_20779.png,n03085013_20779.png,0.0,-5.1776443,-1.4535482,-2.6333337
alexnet_w1_mlp_simclrhn_probe0,1,111,NaN,knife,dog,0.90,0111_nse_dnn_0.90_dog_10_n02095570_9488.png,n02095570_9488.png,0.0,-8.64042,-2.7247949,-4.1829786
alexnet_w1_mlp_simclrhn_probe0,1,112,NaN,cat,dog,0.03,0112_nse_dnn_0.03_dog_10_n02107312_3262.png,n02107312_3262.png,0.0,-1.6555811,-1.364972,-0.20549168
alexnet_w1_mlp_simclrhn_probe0,1,113,NaN,oven,oven,0.03,0113_nse_dnn_0.03_oven_10_n04111531_10681.png,n04111531_10681.png,1.0,-0.139072,-1.501638,0.9634797
alexnet_w1_mlp_simclrhn_probe0,1,114,NaN,knife,knife,0.90,0114_nse_dnn_0.90_knife_10_n03041632_29285.png,n03041632_29285.png,1.0,-2.2178779,-2.6830652,0.3289371
alexnet_w1_mlp_simclrhn_probe0,1,115,NaN,knife,elephant,0.60,0115_nse_dnn_0.60_elephant_10_n02504458_4776.png,n02504458_4776.png,0.0,-9.457758,-2.0873022,-5.2116995
alexnet_w1_mlp_simclrhn_probe0,1,116,NaN,elephant,boat,0.10,0116_nse_dnn_0.10_boat_10_n04273569_11940.png,n04273569_11940.png,0.0,-4.126265,-1.010151,-2.2034254
alexnet_w1_mlp_simclrhn_probe0,1,117,NaN,knife,cat,0.20,0117_nse_dnn_0.20_cat_10_n02123159_1413.png,n02123159_1413.png,0.0,-2.3244607,-2.2396443,-0.05997429
alexnet_w1_mlp_simclrhn_probe0,1,118,NaN,knife,airplane,0.60,0118_nse_dnn_0.60_airplane_10_n02690373_6674.png,n02690373_6674.png,0.0,-19.473154,-2.4155717,-12.061533
alexnet_w1_mlp_simclrhn_probe0,1,119,NaN,knife,clock,0.35,0119_nse_dnn_0.35_clock_10_n04548280_5088.png,n04548280_5088.png,0.0,-6.702545,-2.1818185,-3.1966364
alexnet_w1_mlp_simclrhn_probe0,1,120,NaN,knife,clock,0.05,0120_nse_dnn_0.05_clock_10_n02708093_6624.png,n02708093_6624.png,0.0,-2.3400087,-1.8001573,-0.3817326
alexnet_w1_mlp_simclrhn_probe0,1,121,NaN,knife,bicycle,0.20,0121_nse_dnn_0.20_bicycle_10_n03792782_29108.png,n03792782_29108.png,0.0,-4.0082436,-1.8072867,-1.5563115
alexnet_w1_mlp_simclrhn_probe0,1,122,NaN,knife,clock,0.20,0122_nse_dnn_0.20_clock_10_n04548280_8649.png,n04548280_8649.png,0.0,-5.0748086,-1.6263838,-2.4384046
alexnet_w1_mlp_simclrhn_probe0,1,123,NaN,elephant,knife,0.05,0123_nse_dnn_0.05_knife_10_n03041632_737.png,n03041632_737.png,0.0,-2.235357,-1.3530959,-0.62385285
alexnet_w1_mlp_simclrhn_probe0,1,124,NaN,clock,clock,0.10,0124_nse_dnn_0.10_clock_10_n04548280_8668.png,n04548280_8668.png,1.0,-0.34733948,-2.9930372,1.870791
alexnet_w1_mlp_simclrhn_probe0,1,125,NaN,bicycle,bird,0.03,0125_nse_dnn_0.03_bird_10_n01558993_34885.png,n01558993_34885.png,0.0,-2.4111383,-0.8807448,-1.0821517
alexnet_w1_mlp_simclrhn_probe0,1,126,NaN,knife,truck,0.60,0126_nse_dnn_0.60_truck_10_n04467665_37833.png,n04467665_37833.png,0.0,-16.612362,-2.6657891,-9.861716
alexnet_w1_mlp_simclrhn_probe0,1,127,NaN,knife,boat,0.05,0127_nse_dnn_0.05_boat_10_n03662601_5176.png,n03662601_5176.png,0.0,-1.0932558,-0.8968462,-0.13888255
alexnet_w1_mlp_simclrhn_probe0,1,128,NaN,chair,chair,0.00,0128_nse_dnn_0.00_chair_10_n03376595_9139.png,n03376595_9139.png,1.0,-0.29407632,-0.98290753,0.48707724
alexnet_w1_mlp_simclrhn_probe0,1,129,NaN,knife,oven,0.90,0129_nse_dnn_0.90_oven_10_n04111531_6211.png,n04111531_6211.png,0.0,-18.553118,-2.9493918,-11.033501
alexnet_w1_mlp_simclrhn_probe0,1,130,NaN,boat,boat,0.00,0130_nse_dnn_0.00_boat_10_n04273569_11427.png,n04273569_11427.png,1.0,0.21574552,-0.32379237,0.3815109
alexnet_w1_mlp_simclrhn_probe0,1,131,NaN,elephant,bicycle,0.05,0131_nse_dnn_0.05_bicycle_10_n03792782_17198.png,n03792782_17198.png,0.0,-2.793336,-1.1824992,-1.1390336
alexnet_w1_mlp_simclrhn_probe0,1,132,NaN,clock,clock,0.00,0132_nse_dnn_0.00_clock_10_n04548280_4560.png,n04548280_4560.png,1.0,0.22957428,-0.96954715,0.84790695
alexnet_w1_mlp_simclrhn_probe0,1,133,NaN,knife,knife,0.03,0133_nse_dnn_0.03_knife_10_n03041632_3781.png,n03041632_3781.png,1.0,-1.2761139,-3.1320376,1.3123363
alexnet_w1_mlp_simclrhn_probe0,1,134,NaN,knife,clock,0.10,0134_nse_dnn_0.10_clock_10_n03196217_958.png,n03196217_958.png,0.0,-1.8344475,-0.87679315,-0.6771639
alexnet_w1_mlp_simclrhn_probe0,1,135,NaN,knife,elephant,0.35,0135_nse_dnn_0.35_elephant_10_n02504458_485.png,n02504458_485.png,0.0,-3.9190445,-2.6367288,-0.90673417
alexnet_w1_mlp_simclrhn_probe0,1,136,NaN,clock,clock,0.00,0136_nse_dnn_0.00_clock_10_n02708093_1038.png,n02708093_1038.png,1.0,-1.5316224,-2.0216994,0.3465368
alexnet_w1_mlp_simclrhn_probe0,1,137,NaN,oven,oven,0.03,0137_nse_dnn_0.03_oven_10_n04111531_1723.png,n04111531_1723.png,1.0,-0.7407127,-1.8054821,0.7529057
alexnet_w1_mlp_simclrhn_probe0,1,138,NaN,dog,dog,0.03,0138_nse_dnn_0.03_dog_10_n02110806_27169.png,n02110806_27169.png,1.0,-1.2885873,-1.9209443,0.44714394
alexnet_w1_mlp_simclrhn_probe0,1,139,NaN,airplane,airplane,0.00,0139_nse_dnn_0.00_airplane_10_n02690373_12505.png,n02690373_12505.png,1.0,1.0485829,-1.1811265,1.5766426
alexnet_w1_mlp_simclrhn_probe0,1,140,NaN,knife,bird,0.60,0140_nse_dnn_0.60_bird_10_n01828970_454.png,n01828970_454.png,0.0,-5.785024,-2.0670667,-2.628993
alexnet_w1_mlp_simclrhn_probe0,1,141,NaN,knife,oven,0.20,0141_nse_dnn_0.20_oven_10_n04111531_15635.png,n04111531_15635.png,0.0,-5.354763,-1.7215009,-2.5691044
alexnet_w1_mlp_simclrhn_probe0,1,142,NaN,bicycle,car,0.00,0142_nse_dnn_0.00_car_10_n04285008_8700.png,n04285008_8700.png,0.0,-2.987876,-2.3159754,-0.4751054
alexnet_w1_mlp_simclrhn_probe0,1,143,NaN,chair,keyboard,0.05,0143_nse_dnn_0.05_keyboard_10_n04505470_4592.png,n04505470_4592.png,0.0,-1.6211321,-1.4095732,-0.14959477
alexnet_w1_mlp_simclrhn_probe0,1,144,NaN,knife,boat,0.20,0144_nse_dnn_0.20_boat_10_n03344393_9560.png,n03344393_9560.png,0.0,-5.9820037,-1.6665148,-3.0515115
alexnet_w1_mlp_simclrhn_probe0,1,145,NaN,bear,bear,0.00,0145_nse_dnn_0.00_bear_10_n02132136_5138.png,n02132136_5138.png,1.0,-0.5974428,-0.6319227,0.024380984
alexnet_w1_mlp_simclrhn_probe0,1,146,NaN,knife,chair,0.60,0146_nse_dnn_0.60_chair_10_n03376595_591.png,n03376595_591.png,0.0,-7.2367573,-1.8108232,-3.8367147
alexnet_w1_mlp_simclrhn_probe0,1,147,NaN,knife,keyboard,0.90,0147_nse_dnn_0.90_keyboard_10_n03085013_20590.png,n03085013_20590.png,0.0,-3.270269,-2.281982,-0.6988244
alexnet_w1_mlp_simclrhn_probe0,1,148,NaN,knife,dog,0.35,0148_nse_dnn_0.35_dog_10_n02094258_1224.png,n02094258_1224.png,0.0,-5.211715,-2.070554,-2.2211363
alexnet_w1_mlp_simclrhn_probe0,1,149,NaN,knife,clock,0.20,0149_nse_dnn_0.20_clock_10_n03196217_4486.png,n03196217_4486.png,0.0,-4.5889363,-1.6626933,-2.0691664
alexnet_w1_mlp_simclrhn_probe0,1,150,NaN,knife,bear,0.20,0150_nse_dnn_0.20_bear_10_n02134084_22150.png,n02134084_22150.png,0.0,-3.4403095,-1.6633756,-1.256482
alexnet_w1_mlp_simclrhn_probe0,1,151,NaN,cat,cat,0.10,0151_nse_dnn_0.10_cat_10_n02123045_3098.png,n02123045_3098.png,1.0,-0.13643615,-1.2521992,0.7889636
alexnet_w1_mlp_simclrhn_probe0,1,152,NaN,bear,bear,0.20,0152_nse_dnn_0.20_bear_10_n02134418_271.png,n02134418_271.png,1.0,-1.9633107,-2.3263166,0.25668392
alexnet_w1_mlp_simclrhn_probe0,1,153,NaN,oven,oven,0.05,0153_nse_dnn_0.05_oven_10_n04111531_274.png,n04111531_274.png,1.0,-0.29648915,-1.5985473,0.92069423
alexnet_w1_mlp_simclrhn_probe0,1,154,NaN,knife,knife,0.35,0154_nse_dnn_0.35_knife_10_n03041632_8563.png,n03041632_8563.png,1.0,-2.6866236,-4.4553514,1.2506794
alexnet_w1_mlp_simclrhn_probe0,1,155,NaN,car,car,0.00,0155_nse_dnn_0.00_car_10_n02814533_52389.png,n02814533_52389.png,1.0,3.2971284,1.9471365,0.9545885
alexnet_w1_mlp_simclrhn_probe0,1,156,NaN,airplane,airplane,0.00,0156_nse_dnn_0.00_airplane_10_n02690373_10455.png,n02690373_10455.png,1.0,-0.56761754,-1.6346474,0.754504
alexnet_w1_mlp_simclrhn_probe0,1,157,NaN,knife,truck,0.35,0157_nse_dnn_0.35_truck_10_n04467665_4810.png,n04467665_4810.png,0.0,-10.96616,-1.9386547,-6.38341
alexnet_w1_mlp_simclrhn_probe0,1,158,NaN,knife,knife,0.10,0158_nse_dnn_0.10_knife_10_n03041632_3159.png,n03041632_3159.png,1.0,-0.4112031,-2.2383237,1.2919693
alexnet_w1_mlp_simclrhn_probe0,1,159,NaN,knife,cat,0.05,0159_nse_dnn_0.05_cat_10_n02123597_13411.png,n02123597_13411.png,0.0,-2.5491965,-1.2530544,-0.9165109
alexnet_w1_mlp_simclrhn_probe0,1,160,NaN,knife,clock,0.10,0160_nse_dnn_0.10_clock_10_n04548280_2654.png,n04548280_2654.png,0.0,-2.9682884,-0.9761276,-1.4086704
alexnet_w1_mlp_simclrhn_probe0,1,161,NaN,knife,elephant,0.90,0161_nse_dnn_0.90_elephant_10_n02504013_405.png,n02504013_405.png,0.0,-11.625908,-2.3200502,-6.580235
alexnet_w1_mlp_simclrhn_probe0,1,162,NaN,elephant,bottle,0.05,0162_nse_dnn_0.05_bottle_10_n04560804_14729.png,n04560804_14729.png,0.0,-2.751822,-0.23938057,-1.7765644
alexnet_w1_mlp_simclrhn_probe0,1,163,NaN,knife,bottle,0.90,0163_nse_dnn_0.90_bottle_10_n02823428_5482.png,n02823428_5482.png,0.0,-8.713232,-1.6164695,-5.018169
alexnet_w1_mlp_simclrhn_probe0,1,164,NaN,knife,keyboard,0.90,0164_nse_dnn_0.90_keyboard_10_n04505470_4824.png,n04505470_4824.png,0.0,-2.8961794,-1.4186326,-1.0447834
alexnet_w1_mlp_simclrhn_probe0,1,165,NaN,knife,chair,0.20,0165_nse_dnn_0.20_chair_10_n04099969_14208.png,n04099969_14208.png,0.0,-3.661995,-1.7935236,-1.3212088
alexnet_w1_mlp_simclrhn_probe0,1,166,NaN,elephant,elephant,0.00,0166_nse_dnn_0.00_elephant_10_n02504013_1647.png,n02504013_1647.png,1.0,2.3671818,-1.0927973,2.4465747
alexnet_w1_mlp_simclrhn_probe0,1,167,NaN,bear,cat,0.20,0167_nse_dnn_0.20_cat_10_n02123597_11564.png,n02123597_11564.png,0.0,-2.3833287,-2.2301579,-0.10830813
alexnet_w1_mlp_simclrhn_probe0,1,168,NaN,knife,car,0.35,0168_nse_dnn_0.35_car_10_n03100240_16653.png,n03100240_16653.png,0.0,-9.700833,-1.6337935,-5.7042584
alexnet_w1_mlp_simclrhn_probe0,1,169,NaN,keyboard,oven,0.00,0169_nse_dnn_0.00_oven_10_n04111531_9611.png,n04111531_9611.png,0.0,-0.9639118,-0.88285196,-0.057317946
alexnet_w1_mlp_simclrhn_probe0,1,170,NaN,elephant,car,0.05,0170_nse_dnn_0.05_car_10_n02814533_35054.png,n02814533_35054.png,0.0,-2.931258,-0.7666756,-1.5305908
alexnet_w1_mlp_simclrhn_probe0,1,171,NaN,bear,oven,0.20,0171_nse_dnn_0.20_oven_10_n04111531_3121.png,n04111531_3121.png,0.0,-4.0508285,-2.3021965,-1.2364695
alexnet_w1_mlp_simclrhn_probe0,1,172,NaN,knife,chair,0.20,0172_nse_dnn_0.20_chair_10_n02791124_4969.png,n02791124_4969.png,0.0,-4.014877,-2.876902,-0.8046697
alexnet_w1_mlp_simclrhn_probe0,1,173,NaN,bicycle,car,0.20,0173_nse_dnn_0.20_car_10_n02814533_211.png,n02814533_211.png,0.0,-5.7009654,-2.7358007,-2.096688
alexnet_w1_mlp_simclrhn_probe0,1,174,NaN,elephant,dog,0.00,0174_nse_dnn_0.00_dog_10_n02091244_13118.png,n02091244_13118.png,0.0,-1.8538355,-1.7871008,-0.04718854
alexnet_w1_mlp_simclrhn_probe0,1,175,NaN,knife,bottle,0.10,0175_nse_dnn_0.10_bottle_10_n04560804_3597.png,n04560804_3597.png,0.0,-1.6868107,-1.0540992,-0.4473946
alexnet_w1_mlp_simclrhn_probe0,1,176,NaN,knife,bottle,0.60,0176_nse_dnn_0.60_bottle_10_n04560804_30885.png,n04560804_30885.png,0.0,-7.4319177,-2.4888246,-3.4952948
alexnet_w1_mlp_simclrhn_probe0,1,177,NaN,knife,bottle,0.60,0177_nse_dnn_0.60_bottle_10_n04560804_9813.png,n04560804_9813.png,0.0,-6.7133384,-2.015925,-3.321573
alexnet_w1_mlp_simclrhn_probe0,1,178,NaN,knife,boat,0.35,0178_nse_dnn_0.35_boat_10_n02951358_10003.png,n02951358_10003.png,0.0,-9.598033,-1.8269546,-5.4949822
alexnet_w1_mlp_simclrhn_probe0,1,179,NaN,knife,bear,0.35,0179_nse_dnn_0.35_bear_10_n02133161_1500.png,n02133161_1500.png,0.0,-5.609106,-2.005354,-2.5482376
alexnet_w1_mlp_simclrhn_probe0,1,180,NaN,knife,oven,0.20,0180_nse_dnn_0.20_oven_10_n04111531_4467.png,n04111531_4467.png,0.0,-4.8892093,-2.1717153,-1.9215585
alexnet_w1_mlp_simclrhn_probe0,1,181,NaN,knife,clock,0.20,0181_nse_dnn_0.20_clock_10_n02708093_8002.png,n02708093_8002.png,0.0,-5.3010025,-3.0316565,-1.6046699
alexnet_w1_mlp_simclrhn_probe0,1,182,NaN,knife,boat,0.90,0182_nse_dnn_0.90_boat_10_n02951358_34261.png,n02951358_34261.png,0.0,-18.33566,-1.7973051,-11.694385
alexnet_w1_mlp_simclrhn_probe0,1,183,NaN,boat,boat,0.00,0183_nse_dnn_0.00_boat_10_n04612504_20067.png,n04612504_20067.png,1.0,0.55110866,-1.168927,1.2162489
alexnet_w1_mlp_simclrhn_probe0,1,184,NaN,knife,clock,0.35,0184_nse_dnn_0.35_clock_10_n03196217_6163.png,n03196217_6163.png,0.0,-6.520603,-1.69255,-3.4139495
alexnet_w1_mlp_simclrhn_probe0,1,185,NaN,keyboard,keyboard,0.03,0185_nse_dnn_0.03_keyboard_10_n03085013_23119.png,n03085013_23119.png,1.0,-1.4414254,-1.5022418,0.043003693
alexnet_w1_mlp_simclrhn_probe0,1,186,NaN,knife,clock,0.60,0186_nse_dnn_0.60_clock_10_n04548280_4358.png,n04548280_4358.png,0.0,-8.531722,-1.8623462,-4.715961
alexnet_w1_mlp_simclrhn_probe0,1,187,NaN,bear,dog,0.05,0187_nse_dnn_0.05_dog_10_n02101388_2968.png,n02101388_2968.png,0.0,-2.1062853,-0.8871927,-0.86202866
alexnet_w1_mlp_simclrhn_probe0,1,188,NaN,knife,oven,0.10,0188_nse_dnn_0.10_oven_10_n04111531_8081.png,n04111531_8081.png,0.0,-2.283506,-1.9118233,-0.26281932
alexnet_w1_mlp_simclrhn_probe0,1,189,NaN,keyboard,keyboard,0.05,0189_nse_dnn_0.05_keyboard_10_n04505470_4994.png,n04505470_4994.png,1.0,-1.0067306,-1.34828,0.2415119
alexnet_w1_mlp_simclrhn_probe0,1,190,NaN,elephant,dog,0.10,0190_nse_dnn_0.10_dog_10_n02101006_16132.png,n02101006_16132.png,0.0,-3.009627,-1.1583182,-1.3090731
alexnet_w1_mlp_simclrhn_probe0,1,191,NaN,elephant,elephant,0.10,0191_nse_dnn_0.10_elephant_10_n02504458_6888.png,n02504458_6888.png,1.0,0.24517447,-1.9039997,1.5196956
alexnet_w1_mlp_simclrhn_probe0,1,192,NaN,knife,bird,0.60,0192_nse_dnn_0.60_bird_10_n02018207_43958.png,n02018207_43958.png,0.0,-6.791361,-1.9010158,-3.4579961
alexnet_w1_mlp_simclrhn_probe0,1,193,NaN,cat,cat,0.03,0193_nse_dnn_0.03_cat_10_n02123045_2719.png,n02123045_2719.png,1.0,0.63379747,-1.869762,1.7702838
alexnet_w1_mlp_simclrhn_probe0,1,194,NaN,keyboard,keyboard,0.05,0194_nse_dnn_0.05_keyboard_10_n03085013_5611.png,n03085013_5611.png,1.0,0.30862802,-0.8367636,0.80991423
alexnet_w1_mlp_simclrhn_probe0,1,195,NaN,bicycle,boat,0.03,0195_nse_dnn_0.03_boat_10_n03344393_6892.png,n03344393_6892.png,0.0,-1.9260012,-1.0477991,-0.62098265
alexnet_w1_mlp_simclrhn_probe0,1,196,NaN,knife,chair,0.90,0196_nse_dnn_0.90_chair_10_n02791124_5411.png,n02791124_5411.png,0.0,-9.784153,-2.847666,-4.904837
alexnet_w1_mlp_simclrhn_probe0,1,197,NaN,elephant,elephant,0.05,0197_nse_dnn_0.05_elephant_10_n02504013_8391.png,n02504013_8391.png,1.0,2.7337947,0.35833645,1.6797026
alexnet_w1_mlp_simclrhn_probe0,1,198,NaN,knife,chair,0.60,0198_nse_dnn_0.60_chair_10_n02791124_7167.png,n02791124_7167.png,0.0,-7.244152,-1.9987669,-3.7090476
alexnet_w1_mlp_simclrhn_probe0,1,199,NaN,elephant,truck,0.10,0199_nse_dnn_0.10_truck_10_n03417042_2170.png,n03417042_2170.png,0.0,-4.1728325,-2.1032405,-1.4634225
alexnet_w1_mlp_simclrhn_probe0,1,200,NaN,knife,chair,0.35,0200_nse_dnn_0.35_chair_10_n04099969_2109.png,n04099969_2109.png,0.0,-5.866614,-3.2688968,-1.8368634
alexnet_w1_mlp_simclrhn_probe0,1,201,NaN,knife,chair,0.90,0201_nse_dnn_0.90_chair_10_n04429376_7321.png,n04429376_7321.png,0.0,-9.148943,-1.790422,-5.20326
alexnet_w1_mlp_simclrhn_probe0,1,202,NaN,knife,airplane,0.35,0202_nse_dnn_0.35_airplane_10_n02690373_1733.png,n02690373_1733.png,0.0,-13.620319,-1.3898119,-8.648275
alexnet_w1_mlp_simclrhn_probe0,1,203,NaN,knife,bird,0.10,0203_nse_dnn_0.10_bird_10_n02006656_5719.png,n02006656_5719.png,0.0,-2.2679367,-1.212069,-0.7466112
alexnet_w1_mlp_simclrhn_probe0,1,204,NaN,bicycle,bicycle,0.03,0204_nse_dnn_0.03_bicycle_10_n03792782_12354.png,n03792782_12354.png,1.0,-0.57167673,-1.7630148,0.84240323
alexnet_w1_mlp_simclrhn_probe0,1,205,NaN,bottle,bottle,0.03,0205_nse_dnn_0.03_bottle_10_n04557648_12671.png,n04557648_12671.png,1.0,-0.096025094,-2.6206398,1.7851722
alexnet_w1_mlp_simclrhn_probe0,1,206,NaN,elephant,elephant,0.05,0206_nse_dnn_0.05_elephant_10_n02504013_318.png,n02504013_318.png,1.0,1.0164145,-1.0695741,1.4750167
alexnet_w1_mlp_simclrhn_probe0,1,207,NaN,keyboard,boat,0.90,0207_nse_dnn_0.90_boat_10_n04273569_16078.png,n04273569_16078.png,0.0,-19.145906,-2.1826272,-11.99485
alexnet_w1_mlp_simclrhn_probe0,1,208,NaN,elephant,cat,0.03,0208_nse_dnn_0.03_cat_10_n02123597_9664.png,n02123597_9664.png,0.0,-1.3481821,-0.6059847,-0.5248128
alexnet_w1_mlp_simclrhn_probe0,1,209,NaN,knife,clock,0.35,0209_nse_dnn_0.35_clock_10_n04548280_4113.png,n04548280_4113.png,0.0,-7.164833,-1.7443594,-3.8328538
alexnet_w1_mlp_simclrhn_probe0,1,210,NaN,knife,keyboard,0.60,0210_nse_dnn_0.60_keyboard_10_n03085013_20363.png,n03085013_20363.png,0.0,-3.6235514,-2.0311694,-1.1259841
alexnet_w1_mlp_simclrhn_probe0,1,211,NaN,bear,truck,0.03,0211_nse_dnn_0.03_truck_10_n04467665_67908.png,n04467665_67908.png,0.0,-2.8949585,-2.0539157,-0.5947071
alexnet_w1_mlp_simclrhn_probe0,1,212,NaN,knife,truck,0.90,0212_nse_dnn_0.90_truck_10_n04467665_61522.png,n04467665_61522.png,0.0,-20.092619,-2.2721024,-12.601008
alexnet_w1_mlp_simclrhn_probe0,1,213,NaN,knife,cat,0.90,0213_nse_dnn_0.90_cat_10_n02123045_3648.png,n02123045_3648.png,0.0,-10.295348,-1.8420076,-5.9774146
alexnet_w1_mlp_simclrhn_probe0,1,214,NaN,knife,dog,0.60,0214_nse_dnn_0.60_dog_10_n02107574_3685.png,n02107574_3685.png,0.0,-8.08506,-1.7924248,-4.4495654
alexnet_w1_mlp_simclrhn_probe0,1,215,NaN,knife,dog,0.20,0215_nse_dnn_0.20_dog_10_n02100236_4048.png,n02100236_4048.png,0.0,-3.6378338,-1.7194629,-1.3564931
alexnet_w1_mlp_simclrhn_probe0,1,216,NaN,knife,bear,0.35,0216_nse_dnn_0.35_bear_10_n02134418_5073.png,n02134418_5073.png,0.0,-5.1929297,-2.5042844,-1.9011594
alexnet_w1_mlp_simclrhn_probe0,1,217,NaN,knife,airplane,0.90,0217_nse_dnn_0.90_airplane_10_n02690373_9012.png,n02690373_9012.png,0.0,-24.13021,-1.7448499,-15.82884
alexnet_w1_mlp_simclrhn_probe0,1,218,NaN,knife,cat,0.35,0218_nse_dnn_0.35_cat_10_n02123159_6439.png,n02123159_6439.png,0.0,-5.268775,-1.391923,-2.7413485
alexnet_w1_mlp_simclrhn_probe0,1,219,NaN,knife,cat,0.60,0219_nse_dnn_0.60_cat_10_n02125311_3616.png,n02125311_3616.png,0.0,-8.30151,-2.4086585,-4.1668754
alexnet_w1_mlp_simclrhn_probe0,1,220,NaN,knife,bottle,0.60,0220_nse_dnn_0.60_bottle_10_n04557648_4356.png,n04557648_4356.png,0.0,-7.6210794,-2.3888881,-3.6997178
alexnet_w1_mlp_simclrhn_probe0,1,221,NaN,knife,bird,0.35,0221_nse_dnn_0.35_bird_10_n02027492_6813.png,n02027492_6813.png,0.0,-3.5377717,-1.2025418,-1.6512569
alexnet_w1_mlp_simclrhn_probe0,1,222,NaN,chair,chair,0.03,0222_nse_dnn_0.03_chair_10_n04429376_26765.png,n04429376_26765.png,1.0,-1.2953562,-1.3140091,0.013189604
alexnet_w1_mlp_simclrhn_probe0,1,223,NaN,knife,elephant,0.35,0223_nse_dnn_0.35_elephant_10_n02504458_4811.png,n02504458_4811.png,0.0,-4.508484,-2.3716116,-1.5109969
alexnet_w1_mlp_simclrhn_probe0,1,224,NaN,knife,keyboard,0.20,0224_nse_dnn_0.20_keyboard_10_n04505470_1351.png,n04505470_1351.png,0.0,-4.410275,-1.4907806,-2.0643942
alexnet_w1_mlp_simclrhn_probe0,1,225,NaN,chair,chair,0.05,0225_nse_dnn_0.05_chair_10_n04099969_2532.png,n04099969_2532.png,1.0,-0.8017391,-1.9254949,0.7946154
alexnet_w1_mlp_simclrhn_probe0,1,226,NaN,knife,airplane,0.10,0226_nse_dnn_0.10_airplane_10_n02690373_8547.png,n02690373_8547.png,0.0,-3.458037,-1.8174282,-1.1600856
alexnet_w1_mlp_simclrhn_probe0,1,227,NaN,knife,truck,0.35,0227_nse_dnn_0.35_truck_10_n03417042_23445.png,n03417042_23445.png,0.0,-11.338055,-2.2932644,-6.3956327
alexnet_w1_mlp_simclrhn_probe0,1,228,NaN,keyboard,truck,0.90,0228_nse_dnn_0.90_truck_10_n04467665_48953.png,n04467665_48953.png,0.0,-19.535072,-1.8491108,-12.505863
alexnet_w1_mlp_simclrhn_probe0,1,229,NaN,knife,boat,0.20,0229_nse_dnn_0.20_boat_10_n03662601_11739.png,n03662601_11739.png,0.0,-6.32687,-1.4702324,-3.4341614
alexnet_w1_mlp_simclrhn_probe0,1,230,NaN,cat,cat,0.03,0230_nse_dnn_0.03_cat_10_n02123597_4948.png,n02123597_4948.png,1.0,-0.007608915,-1.0155194,0.71270037
alexnet_w1_mlp_simclrhn_probe0,1,231,NaN,knife,oven,0.35,0231_nse_dnn_0.35_oven_10_n04111531_9411.png,n04111531_9411.png,0.0,-7.5925875,-2.3563905,-3.7025504
alexnet_w1_mlp_simclrhn_probe0,1,232,NaN,knife,bicycle,0.60,0232_nse_dnn_0.60_bicycle_10_n03792782_988.png,n03792782_988.png,0.0,-11.734672,-2.2478378,-6.7082043
alexnet_w1_mlp_simclrhn_probe0,1,233,NaN,elephant,car,0.05,0233_nse_dnn_0.05_car_10_n02814533_65294.png,n02814533_65294.png,0.0,-2.7055378,-0.70612645,-1.4137974
alexnet_w1_mlp_simclrhn_probe0,1,234,NaN,bottle,bottle,0.00,0234_nse_dnn_0.00_bottle_10_n04557648_10420.png,n04557648_10420.png,1.0,-1.5683981,-1.9890203,0.29742482
alexnet_w1_mlp_simclrhn_probe0,1,235,NaN,knife,chair,0.60,0235_nse_dnn_0.60_chair_10_n04099969_33329.png,n04099969_33329.png,0.0,-8.011234,-1.6974301,-4.464534
alexnet_w1_mlp_simclrhn_probe0,1,236,NaN,knife,oven,0.35,0236_nse_dnn_0.35_oven_10_n04111531_20493.png,n04111531_20493.png,0.0,-8.259336,-2.3209822,-4.199051
alexnet_w1_mlp_simclrhn_probe0,1,237,NaN,knife,clock,0.10,0237_nse_dnn_0.10_clock_10_n04548280_7839.png,n04548280_7839.png,0.0,-2.2246985,-1.4825788,-0.5247579
alexnet_w1_mlp_simclrhn_probe0,1,238,NaN,knife,airplane,0.20,0238_nse_dnn_0.20_airplane_10_n02690373_7229.png,n02690373_7229.png,0.0,-8.159823,-1.8277377,-4.477461
alexnet_w1_mlp_simclrhn_probe0,1,239,NaN,knife,airplane,0.10,0239_nse_dnn_0.10_airplane_10_n02690373_5003.png,n02690373_5003.png,0.0,-3.7628918,-0.7980264,-2.0964766
alexnet_w1_mlp_simclrhn_probe0,1,240,NaN,elephant,chair,0.20,0240_nse_dnn_0.20_chair_10_n02791124_206.png,n02791124_206.png,0.0,-3.4500241,-2.2835722,-0.8248061
alexnet_w1_mlp_simclrhn_probe0,1,241,NaN,oven,oven,0.00,0241_nse_dnn_0.00_oven_10_n04111531_7283.png,n04111531_7283.png,1.0,-0.64715284,-1.0405737,0.27819058
alexnet_w1_mlp_simclrhn_probe0,1,242,NaN,knife,chair,0.35,0242_nse_dnn_0.35_chair_10_n04429376_8124.png,n04429376_8124.png,0.0,-5.2481165,-2.2913127,-2.090776
alexnet_w1_mlp_simclrhn_probe0,1,243,NaN,keyboard,keyboard,0.00,0243_nse_dnn_0.00_keyboard_10_n04505470_3864.png,n04505470_3864.png,1.0,-2.6364632,-2.7068303,0.049757052
alexnet_w1_mlp_simclrhn_probe0,1,244,NaN,knife,bottle,0.35,0244_nse_dnn_0.35_bottle_10_n03937543_3289.png,n03937543_3289.png,0.0,-5.9340553,-1.7231072,-2.9775898
alexnet_w1_mlp_simclrhn_probe0,1,245,NaN,knife,boat,0.10,0245_nse_dnn_0.10_boat_10_n03344393_5207.png,n03344393_5207.png,0.0,-3.1166196,-0.55530995,-1.8111194
alexnet_w1_mlp_simclrhn_probe0,1,246,NaN,keyboard,airplane,0.90,0246_nse_dnn_0.90_airplane_10_n02690373_629.png,n02690373_629.png,0.0,-22.415806,-2.816507,-13.858797
alexnet_w1_mlp_simclrhn_probe0,1,247,NaN,elephant,elephant,0.03,0247_nse_dnn_0.03_elephant_10_n02504013_104.png,n02504013_104.png,1.0,0.6239163,0.040841915,0.41229585
alexnet_w1_mlp_simclrhn_probe0,1,248,NaN,elephant,bicycle,0.03,0248_nse_dnn_0.03_bicycle_10_n03792782_42626.png,n03792782_42626.png,0.0,-2.5213468,-1.9252902,-0.42147565
alexnet_w1_mlp_simclrhn_probe0,1,249,NaN,knife,truck,0.35,0249_nse_dnn_0.35_truck_10_n03417042_6847.png,n03417042_6847.png,0.0,-10.318744,-2.1971524,-5.7428327
alexnet_w1_mlp_simclrhn_probe0,1,250,NaN,elephant,chair,0.10,0250_nse_dnn_0.10_chair_10_n04429376_23573.png,n04429376_23573.png,0.0,-2.6343908,-1.3902767,-0.8797216
alexnet_w1_mlp_simclrhn_probe0,1,251,NaN,knife,clock,0.03,0251_nse_dnn_0.03_clock_10_n03196217_7637.png,n03196217_7637.png,0.0,-0.7773058,-0.045490682,-0.51747143
alexnet_w1_mlp_simclrhn_probe0,1,252,NaN,bear,airplane,0.05,0252_nse_dnn_0.05_airplane_10_n02690373_932.png,n02690373_932.png,0.0,-2.7373908,-0.91380763,-1.289468
alexnet_w1_mlp_simclrhn_probe0,1,253,NaN,elephant,truck,0.05,0253_nse_dnn_0.05_truck_10_n03417042_9478.png,n03417042_9478.png,0.0,-2.711385,-2.0301414,-0.481712
alexnet_w1_mlp_simclrhn_probe0,1,254,NaN,clock,clock,0.05,0254_nse_dnn_0.05_clock_10_n04548280_7800.png,n04548280_7800.png,1.0,-0.73962194,-0.94275606,0.14363752
alexnet_w1_mlp_simclrhn_probe0,1,255,NaN,knife,keyboard,0.10,0255_nse_dnn_0.10_keyboard_10_n03085013_1698.png,n03085013_1698.png,0.0,-3.5264044,-0.4473579,-2.1772146
alexnet_w1_mlp_simclrhn_probe0,1,256,NaN,knife,boat,0.20,0256_nse_dnn_0.20_boat_10_n04273569_32553.png,n04273569_32553.png,0.0,-5.8869843,-1.6793866,-2.975221
alexnet_w1_mlp_simclrhn_probe0,1,257,NaN,bear,bear,0.03,0257_nse_dnn_0.03_bear_10_n02132136_23078.png,n02132136_23078.png,1.0,1.0198183,0.6569265,0.25660324
alexnet_w1_mlp_simclrhn_probe0,1,258,NaN,bottle,bottle,0.00,0258_nse_dnn_0.00_bottle_10_n04591713_5476.png,n04591713_5476.png,1.0,-1.8034507,-2.6885839,0.62588364
alexnet_w1_mlp_simclrhn_probe0,1,259,NaN,elephant,knife,0.10,0259_nse_dnn_0.10_knife_10_n03041632_31849.png,n03041632_31849.png,0.0,-1.6124492,-1.389034,-0.15797836
alexnet_w1_mlp_simclrhn_probe0,1,260,NaN,knife,truck,0.90,0260_nse_dnn_0.90_truck_10_n03417042_12908.png,n03417042_12908.png,0.0,-19.75878,-2.5697544,-12.154477
alexnet_w1_mlp_simclrhn_probe0,1,261,NaN,knife,clock,0.60,0261_nse_dnn_0.60_clock_10_n02708093_1418.png,n02708093_1418.png,0.0,-10.067592,-2.0582657,-5.663449
alexnet_w1_mlp_simclrhn_probe0,1,262,NaN,car,car,0.05,0262_nse_dnn_0.05_car_10_n03100240_4173.png,n03100240_4173.png,1.0,-1.4270016,-1.6864592,0.18346423
alexnet_w1_mlp_simclrhn_probe0,1,263,NaN,keyboard,keyboard,0.10,0263_nse_dnn_0.10_keyboard_10_n03085013_25476.png,n03085013_25476.png,1.0,0.34974748,-1.1120822,1.0336697
alexnet_w1_mlp_simclrhn_probe0,1,264,NaN,cat,cat,0.05,0264_nse_dnn_0.05_cat_10_n02125311_34464.png,n02125311_34464.png,1.0,-0.05833735,-1.5873343,1.0811641
alexnet_w1_mlp_simclrhn_probe0,1,265,NaN,knife,knife,0.20,0265_nse_dnn_0.20_knife_10_n03041632_36789.png,n03041632_36789.png,1.0,-1.4900563,-2.5909855,0.77847457
alexnet_w1_mlp_simclrhn_probe0,1,266,NaN,bear,dog,0.03,0266_nse_dnn_0.03_dog_10_n02108915_3733.png,n02108915_3733.png,0.0,-2.1257668,-1.8686874,-0.18178256
alexnet_w1_mlp_simclrhn_probe0,1,267,NaN,knife,knife,0.60,0267_nse_dnn_0.60_knife_10_n03041632_42162.png,n03041632_42162.png,1.0,-2.8120668,-4.953477,1.5142057
alexnet_w1_mlp_simclrhn_probe0,1,268,NaN,knife,keyboard,0.10,0268_nse_dnn_0.10_keyboard_10_n03085013_29042.png,n03085013_29042.png,0.0,-4.228933,-1.4380152,-1.9734768
alexnet_w1_mlp_simclrhn_probe0,1,269,NaN,airplane,airplane,0.00,0269_nse_dnn_0.00_airplane_10_n02690373_19407.png,n02690373_19407.png,1.0,1.0694422,0.21258657,0.60588837
alexnet_w1_mlp_simclrhn_probe0,1,270,NaN,bear,bear,0.05,0270_nse_dnn_0.05_bear_10_n02134084_22029.png,n02134084_22029.png,1.0,-1.0350962,-1.4659069,0.30462918
alexnet_w1_mlp_simclrhn_probe0,1,271,NaN,knife,dog,0.60,0271_nse_dnn_0.60_dog_10_n02088238_11711.png,n02088238_11711.png,0.0,-7.713761,-1.9890015,-4.048016
alexnet_w1_mlp_simclrhn_probe0,1,272,NaN,knife,elephant,0.20,0272_nse_dnn_0.20_elephant_10_n02504013_8522.png,n02504013_8522.png,0.0,-2.4723725,-1.9697173,-0.35543096
alexnet_w1_mlp_simclrhn_probe0,1,273,NaN,knife,elephant,0.60,0273_nse_dnn_0.60_elephant_10_n02504458_5941.png,n02504458_5941.png,0.0,-9.187235,-2.015209,-5.0713882
alexnet_w1_mlp_simclrhn_probe0,1,274,NaN,truck,truck,0.00,0274_nse_dnn_0.00_truck_10_n04467665_242.png,n04467665_242.png,1.0,0.52861625,-0.99985486,1.0807923
alexnet_w1_mlp_simclrhn_probe0,1,275,NaN,keyboard,keyboard,0.00,0275_nse_dnn_0.00_keyboard_10_n04505470_4473.png,n04505470_4473.png,1.0,0.3185612,-1.229482,1.0946319
alexnet_w1_mlp_simclrhn_probe0,1,276,NaN,boat,boat,0.05,0276_nse_dnn_0.05_boat_10_n03662601_10811.png,n03662601_10811.png,1.0,-0.66446674,-1.696888,0.7300321
alexnet_w1_mlp_simclrhn_probe0,1,277,NaN,keyboard,keyboard,0.03,0277_nse_dnn_0.03_keyboard_10_n03085013_20495.png,n03085013_20495.png,1.0,-1.4044675,-1.7237222,0.22574721
alexnet_w1_mlp_simclrhn_probe0,1,278,NaN,bicycle,bicycle,0.00,0278_nse_dnn_0.00_bicycle_10_n02835271_15038.png,n02835271_15038.png,1.0,2.188696,-2.8400936,3.5558913
alexnet_w1_mlp_simclrhn_probe0,1,279,NaN,knife,bear,0.20,0279_nse_dnn_0.20_bear_10_n02134418_5271.png,n02134418_5271.png,0.0,-1.8707969,-1.5820322,-0.2041875
alexnet_w1_mlp_simclrhn_probe0,1,280,NaN,elephant,chair,0.10,0280_nse_dnn_0.10_chair_10_n02791124_1217.png,n02791124_1217.png,0.0,-2.5385938,-1.259366,-0.9045506
alexnet_w1_mlp_simclrhn_probe0,1,281,NaN,elephant,elephant,0.10,0281_nse_dnn_0.10_elephant_10_n02504013_2394.png,n02504013_2394.png,1.0,-0.6534363,-1.4474516,0.5614536
alexnet_w1_mlp_simclrhn_probe0,1,282,NaN,knife,dog,0.35,0282_nse_dnn_0.35_dog_10_n02105505_5576.png,n02105505_5576.png,0.0,-4.9177623,-1.440398,-2.458868
alexnet_w1_mlp_simclrhn_probe0,1,283,NaN,knife,airplane,0.10,0283_nse_dnn_0.10_airplane_10_n02690373_2579.png,n02690373_2579.png,0.0,-4.1313787,-0.48815393,-2.576149
alexnet_w1_mlp_simclrhn_probe0,1,284,NaN,bear,dog,0.05,0284_nse_dnn_0.05_dog_10_n02102480_10015.png,n02102480_10015.png,0.0,-2.524988,-1.1397223,-0.9795307
alexnet_w1_mlp_simclrhn_probe0,1,285,NaN,cat,cat,0.10,0285_nse_dnn_0.10_cat_10_n02124075_5853.png,n02124075_5853.png,1.0,-0.83502024,-1.1405274,0.21602616
alexnet_w1_mlp_simclrhn_probe0,1,286,NaN,airplane,truck,0.00,0286_nse_dnn_0.00_truck_10_n03796401_2012.png,n03796401_2012.png,0.0,-0.7105607,0.12651572,-0.59190243
alexnet_w1_mlp_simclrhn_probe0,1,287,NaN,knife,keyboard,0.10,0287_nse_dnn_0.10_keyboard_10_n04505470_1286.png,n04505470_1286.png,0.0,-1.6982341,-0.35259026,-0.9515138
alexnet_w1_mlp_simclrhn_probe0,1,288,NaN,elephant,truck,0.10,0288_nse_dnn_0.10_truck_10_n04467665_74008.png,n04467665_74008.png,0.0,-3.3122346,-2.6359124,-0.47823203
alexnet_w1_mlp_simclrhn_probe0,1,289,NaN,knife,bottle,0.90,0289_nse_dnn_0.90_bottle_10_n04560804_10541.png,n04560804_10541.png,0.0,-7.920883,-1.9825364,-4.199045
alexnet_w1_mlp_simclrhn_probe0,1,290,NaN,knife,airplane,0.20,0290_nse_dnn_0.20_airplane_10_n02690373_8967.png,n02690373_8967.png,0.0,-8.018207,-2.0893078,-4.1923647
alexnet_w1_mlp_simclrhn_probe0,1,291,NaN,knife,keyboard,0.60,0291_nse_dnn_0.60_keyboard_10_n04505470_3309.png,n04505470_3309.png,0.0,-7.074576,-2.724669,-3.0758488
alexnet_w1_mlp_simclrhn_probe0,1,292,NaN,car,car,0.05,0292_nse_dnn_0.05_car_10_n02814533_42665.png,n02814533_42665.png,1.0,-0.21759373,-1.2983228,0.76419085
alexnet_w1_mlp_simclrhn_probe0,1,293,NaN,cat,bicycle,0.03,0293_nse_dnn_0.03_bicycle_10_n03792782_6613.png,n03792782_6613.png,0.0,-1.7474748,-1.2213112,-0.37205383
alexnet_w1_mlp_simclrhn_probe0,1,294,NaN,knife,knife,0.00,0294_nse_dnn_0.00_knife_10_n03041632_38540.png,n03041632_38540.png,1.0,-0.15762812,-2.29406,1.5106856
alexnet_w1_mlp_simclrhn_probe0,1,295,NaN,knife,dog,0.90,0295_nse_dnn_0.90_dog_10_n02109047_6542.png,n02109047_6542.png,0.0,-9.200708,-3.0682793,-4.3362823
alexnet_w1_mlp_simclrhn_probe0,1,296,NaN,knife,bicycle,0.35,0296_nse_dnn_0.35_bicycle_10_n03792782_51156.png,n03792782_51156.png,0.0,-6.7518516,-2.6935296,-2.869667
alexnet_w1_mlp_simclrhn_probe0,1,297,NaN,elephant,bottle,0.10,0297_nse_dnn_0.10_bottle_10_n04579145_5795.png,n04579145_5795.png,0.0,-2.5068963,-1.0310029,-1.0436143
alexnet_w1_mlp_simclrhn_probe0,1,298,NaN,chair,chair,0.03,0298_nse_dnn_0.03_chair_10_n03376595_787.png,n03376595_787.png,1.0,-1.6337564,-2.3597636,0.5133646
alexnet_w1_mlp_simclrhn_probe0,1,299,NaN,knife,bottle,0.90,0299_nse_dnn_0.90_bottle_10_n04579145_1117.png,n04579145_1117.png,0.0,-8.37071,-1.8336275,-4.6224155
alexnet_w1_mlp_simclrhn_probe0,1,300,NaN,airplane,bird,0.00,0300_nse_dnn_0.00_bird_10_n01795545_11076.png,n01795545_11076.png,0.0,-2.103031,-1.6960361,-0.2877888
alexnet_w1_mlp_simclrhn_probe0,1,301,NaN,knife,clock,0.20,0301_nse_dnn_0.20_clock_10_n03196217_6741.png,n03196217_6741.png,0.0,-5.4914536,-1.8895699,-2.5469165
alexnet_w1_mlp_simclrhn_probe0,1,302,NaN,airplane,oven,0.00,0302_nse_dnn_0.00_oven_10_n04111531_3555.png,n04111531_3555.png,0.0,-0.32881406,0.33343753,-0.4682826
alexnet_w1_mlp_simclrhn_probe0,1,303,NaN,knife,knife,0.20,0303_nse_dnn_0.20_knife_10_n03041632_36280.png,n03041632_36280.png,1.0,-0.4679619,-1.7864168,0.9322884
alexnet_w1_mlp_simclrhn_probe0,1,304,NaN,truck,truck,0.03,0304_nse_dnn_0.03_truck_10_n04467665_74235.png,n04467665_74235.png,1.0,0.86407864,-0.96897554,1.2961651
alexnet_w1_mlp_simclrhn_probe0,1,305,NaN,knife,clock,0.90,0305_nse_dnn_0.90_clock_10_n04548280_6287.png,n04548280_6287.png,0.0,-11.589973,-2.7514458,-6.249783
alexnet_w1_mlp_simclrhn_probe0,1,306,NaN,elephant,elephant,0.00,0306_nse_dnn_0.00_elephant_10_n02504458_6472.png,n02504458_6472.png,1.0,0.44018155,-0.86790144,0.9249544
alexnet_w1_mlp_simclrhn_probe0,1,307,NaN,bicycle,bicycle,0.05,0307_nse_dnn_0.05_bicycle_10_n03792782_11034.png,n03792782_11034.png,1.0,-1.2398062,-2.7272387,1.0517737
alexnet_w1_mlp_simclrhn_probe0,1,308,NaN,knife,dog,0.60,0308_nse_dnn_0.60_dog_10_n02109525_50916.png,n02109525_50916.png,0.0,-7.4094563,-2.311333,-3.6049178
alexnet_w1_mlp_simclrhn_probe0,1,309,NaN,knife,dog,0.60,0309_nse_dnn_0.60_dog_10_n02097658_1923.png,n02097658_1923.png,0.0,-7.44014,-2.1261299,-3.7575724
alexnet_w1_mlp_simclrhn_probe0,1,310,NaN,elephant,knife,0.03,0310_nse_dnn_0.03_knife_10_n03041632_22480.png,n03041632_22480.png,0.0,-2.903349,-1.6229997,-0.90534365
alexnet_w1_mlp_simclrhn_probe0,1,311,NaN,knife,elephant,0.35,0311_nse_dnn_0.35_elephant_10_n02504458_1041.png,n02504458_1041.png,0.0,-6.141836,-0.9630013,-3.6619895
alexnet_w1_mlp_simclrhn_probe0,1,312,NaN,elephant,knife,0.10,0312_nse_dnn_0.10_knife_10_n03041632_28129.png,n03041632_28129.png,0.0,-2.9055443,-0.40784064,-1.7661432
alexnet_w1_mlp_simclrhn_probe0,1,313,NaN,car,car,0.00,0313_nse_dnn_0.00_car_10_n03100240_14667.png,n03100240_14667.png,1.0,2.3428159,0.6741811,1.179903
alexnet_w1_mlp_simclrhn_probe0,1,314,NaN,airplane,airplane,0.03,0314_nse_dnn_0.03_airplane_10_n02690373_3821.png,n02690373_3821.png,1.0,1.5732296,-1.7756016,2.3679812
alexnet_w1_mlp_simclrhn_probe0,1,315,NaN,knife,cat,0.90,0315_nse_dnn_0.90_cat_10_n02124075_1183.png,n02124075_1183.png,0.0,-10.034677,-2.5669494,-5.2804804
alexnet_w1_mlp_simclrhn_probe0,1,316,NaN,knife,car,0.90,0316_nse_dnn_0.90_car_10_n03100240_1194.png,n03100240_1194.png,0.0,-17.226976,-2.8880649,-10.139141
alexnet_w1_mlp_simclrhn_probe0,1,317,NaN,knife,oven,0.60,0317_nse_dnn_0.60_oven_10_n04111531_9370.png,n04111531_9370.png,0.0,-15.565037,-2.0700953,-9.542365
alexnet_w1_mlp_simclrhn_probe0,1,318,NaN,knife,truck,0.20,0318_nse_dnn_0.20_truck_10_n03417042_10597.png,n03417042_10597.png,0.0,-6.405416,-1.9615397,-3.1422951
alexnet_w1_mlp_simclrhn_probe0,1,319,NaN,elephant,truck,0.05,0319_nse_dnn_0.05_truck_10_n03417042_6489.png,n03417042_6489.png,0.0,-3.357039,-1.4382888,-1.3567613
alexnet_w1_mlp_simclrhn_probe0,1,320,NaN,bicycle,bottle,0.05,0320_nse_dnn_0.05_bottle_10_n04591713_6662.png,n04591713_6662.png,0.0,-3.0795343,-1.3300345,-1.2370832
alexnet_w1_mlp_simclrhn_probe0,1,321,NaN,knife,bottle,0.60,0321_nse_dnn_0.60_bottle_10_n04560804_4624.png,n04560804_4624.png,0.0,-7.477117,-2.4073253,-3.5848842
alexnet_w1_mlp_simclrhn_probe0,1,322,NaN,bird,bird,0.00,0322_nse_dnn_0.00_bird_10_n01818515_7370.png,n01818515_7370.png,1.0,-1.6452236,-2.0030658,0.25303265
alexnet_w1_mlp_simclrhn_probe0,1,323,NaN,keyboard,keyboard,0.05,0323_nse_dnn_0.05_keyboard_10_n03085013_15646.png,n03085013_15646.png,1.0,-0.7993976,-1.5770668,0.54989517
alexnet_w1_mlp_simclrhn_probe0,1,324,NaN,cat,cat,0.03,0324_nse_dnn_0.03_cat_10_n02124075_14924.png,n02124075_14924.png,1.0,-0.662257,-2.201865,1.0886673
alexnet_w1_mlp_simclrhn_probe0,1,325,NaN,elephant,elephant,0.20,0325_nse_dnn_0.20_elephant_10_n02504013_18217.png,n02504013_18217.png,1.0,-1.0141366,-2.0837026,0.7562974
alexnet_w1_mlp_simclrhn_probe0,1,326,NaN,knife,keyboard,0.35,0326_nse_dnn_0.35_keyboard_10_n04505470_4724.png,n04505470_4724.png,0.0,-3.631011,-2.4765332,-0.81633914
alexnet_w1_mlp_simclrhn_probe0,1,327,NaN,knife,clock,0.20,0327_nse_dnn_0.20_clock_10_n04548280_9646.png,n04548280_9646.png,0.0,-4.853682,-1.9352263,-2.0636597
alexnet_w1_mlp_simclrhn_probe0,1,328,NaN,knife,cat,0.35,0328_nse_dnn_0.35_cat_10_n02123394_6376.png,n02123394_6376.png,0.0,-5.6396794,-1.5600636,-2.884724
alexnet_w1_mlp_simclrhn_probe0,1,329,NaN,knife,elephant,0.35,0329_nse_dnn_0.35_elephant_10_n02504458_130.png,n02504458_130.png,0.0,-5.5335884,-1.3376274,-2.9669926
alexnet_w1_mlp_simclrhn_probe0,1,330,NaN,knife,cat,0.90,0330_nse_dnn_0.90_cat_10_n02124075_9291.png,n02124075_9291.png,0.0,-9.995513,-2.5668542,-5.252855
alexnet_w1_mlp_simclrhn_probe0,1,331,NaN,knife,bird,0.10,0331_nse_dnn_0.10_bird_10_n02037110_3949.png,n02037110_3949.png,0.0,-1.2647476,-1.1097388,-0.10960777
alexnet_w1_mlp_simclrhn_probe0,1,332,NaN,car,car,0.00,0332_nse_dnn_0.00_car_10_n04285008_10905.png,n04285008_10905.png,1.0,1.3878579,0.35529777,0.73013026
alexnet_w1_mlp_simclrhn_probe0,1,333,NaN,elephant,chair,0.10,0333_nse_dnn_0.10_chair_10_n04429376_619.png,n04429376_619.png,0.0,-2.6310306,-1.3872617,-0.8794774
alexnet_w1_mlp_simclrhn_probe0,1,334,NaN,knife,boat,0.90,0334_nse_dnn_0.90_boat_10_n02951358_30335.png,n02951358_30335.png,0.0,-19.645798,-2.5501285,-12.088464
alexnet_w1_mlp_simclrhn_probe0,1,335,NaN,knife,oven,0.90,0335_nse_dnn_0.90_oven_10_n04111531_17995.png,n04111531_17995.png,0.0,-17.336206,-2.1654065,-10.727376
alexnet_w1_mlp_simclrhn_probe0,1,336,NaN,knife,bird,0.35,0336_nse_dnn_0.35_bird_10_n01828970_11221.png,n01828970_11221.png,0.0,-4.262334,-1.1605332,-2.1933043
alexnet_w1_mlp_simclrhn_probe0,1,337,NaN,elephant,elephant,0.10,0337_nse_dnn_0.10_elephant_10_n02504013_1719.png,n02504013_1719.png,1.0,0.9045583,-0.706651,1.139297
alexnet_w1_mlp_simclrhn_probe0,1,338,NaN,chair,oven,0.10,0338_nse_dnn_0.10_oven_10_n04111531_8009.png,n04111531_8009.png,0.0,-1.7895703,-1.048394,-0.5240908
alexnet_w1_mlp_simclrhn_probe0,1,339,NaN,knife,airplane,0.60,0339_nse_dnn_0.60_airplane_10_n02690373_8233.png,n02690373_8233.png,0.0,-19.374588,-1.4508612,-12.673989
alexnet_w1_mlp_simclrhn_probe0,1,340,NaN,elephant,dog,0.10,0340_nse_dnn_0.10_dog_10_n02092339_401.png,n02092339_401.png,0.0,-1.8432986,-0.6932093,-0.81323594
alexnet_w1_mlp_simclrhn_probe0,1,341,NaN,elephant,bottle,0.10,0341_nse_dnn_0.10_bottle_10_n02823428_11579.png,n02823428_11579.png,0.0,-1.8569431,-1.3478446,-0.35998702
alexnet_w1_mlp_simclrhn_probe0,1,342,NaN,knife,car,0.60,0342_nse_dnn_0.60_car_10_n04285008_6951.png,n04285008_6951.png,0.0,-15.007515,-2.5308084,-8.822364
alexnet_w1_mlp_simclrhn_probe0,1,343,NaN,knife,bicycle,0.35,0343_nse_dnn_0.35_bicycle_10_n03792782_12504.png,n03792782_12504.png,0.0,-7.22453,-1.8660245,-3.7890358
alexnet_w1_mlp_simclrhn_probe0,1,344,NaN,bottle,bottle,0.00,0344_nse_dnn_0.00_bottle_10_n02823428_4073.png,n02823428_4073.png,1.0,-1.2292318,-2.9805083,1.2383395
alexnet_w1_mlp_simclrhn_probe0,1,345,NaN,knife,elephant,0.35,0345_nse_dnn_0.35_elephant_10_n02504013_945.png,n02504013_945.png,0.0,-4.9832954,-1.8033109,-2.2485888
alexnet_w1_mlp_simclrhn_probe0,1,346,NaN,elephant,cat,0.10,0346_nse_dnn_0.10_cat_10_n02124075_12815.png,n02124075_12815.png,0.0,-1.0388201,-0.8577635,-0.12802637
alexnet_w1_mlp_simclrhn_probe0,1,347,NaN,knife,truck,0.60,0347_nse_dnn_0.60_truck_10_n03417042_4876.png,n03417042_4876.png,0.0,-17.86216,-3.6244767,-10.067562
alexnet_w1_mlp_simclrhn_probe0,1,348,NaN,chair,keyboard,0.05,0348_nse_dnn_0.05_keyboard_10_n04505470_4628.png,n04505470_4628.png,0.0,-4.1208625,-1.5835063,-1.7941817
alexnet_w1_mlp_simclrhn_probe0,1,349,NaN,knife,bear,0.20,0349_nse_dnn_0.20_bear_10_n02133161_1427.png,n02133161_1427.png,0.0,-2.641724,-1.2772145,-0.964854
alexnet_w1_mlp_simclrhn_probe0,1,350,NaN,knife,boat,0.60,0350_nse_dnn_0.60_boat_10_n04273569_7296.png,n04273569_7296.png,0.0,-16.8901,-2.3428066,-10.28649
alexnet_w1_mlp_simclrhn_probe0,1,351,NaN,knife,chair,0.90,0351_nse_dnn_0.90_chair_10_n04099969_41686.png,n04099969_41686.png,0.0,-8.756681,-2.3786187,-4.5099716
alexnet_w1_mlp_simclrhn_probe0,1,352,NaN,knife,airplane,0.03,0352_nse_dnn_0.03_airplane_10_n02690373_10006.png,n02690373_10006.png,0.0,-3.1741726,-2.166646,-0.7124289
alexnet_w1_mlp_simclrhn_probe0,1,353,NaN,knife,knife,0.90,0353_nse_dnn_0.90_knife_10_n03041632_20595.png,n03041632_20595.png,1.0,-1.7916865,-3.0289285,0.8748622
alexnet_w1_mlp_simclrhn_probe0,1,354,NaN,keyboard,oven,0.90,0354_nse_dnn_0.90_oven_10_n04111531_2054.png,n04111531_2054.png,0.0,-18.258959,-1.6933569,-11.713649
alexnet_w1_mlp_simclrhn_probe0,1,355,NaN,elephant,truck,0.20,0355_nse_dnn_0.20_truck_10_n04467665_40307.png,n04467665_40307.png,0.0,-8.644089,-2.4246683,-4.3977942
alexnet_w1_mlp_simclrhn_probe0,1,356,NaN,bear,bear,0.00,0356_nse_dnn_0.00_bear_10_n02133161_396.png,n02133161_396.png,1.0,0.21652836,-0.44238758,0.46592394
alexnet_w1_mlp_simclrhn_probe0,1,357,NaN,bear,dog,0.03,0357_nse_dnn_0.03_dog_10_n02105056_5636.png,n02105056_5636.png,0.0,-0.968364,-0.1164947,-0.6023626
alexnet_w1_mlp_simclrhn_probe0,1,358,NaN,knife,bicycle,0.35,0358_nse_dnn_0.35_bicycle_10_n02835271_8798.png,n02835271_8798.png,0.0,-6.844082,-2.3889396,-3.1502612
alexnet_w1_mlp_simclrhn_probe0,1,359,NaN,knife,bear,0.90,0359_nse_dnn_0.90_bear_10_n02134418_5478.png,n02134418_5478.png,0.0,-12.205436,-1.7092419,-7.42193
alexnet_w1_mlp_simclrhn_probe0,1,360,NaN,knife,boat,0.90,0360_nse_dnn_0.90_boat_10_n04612504_4250.png,n04612504_4250.png,0.0,-20.072271,-2.442412,-12.466194
alexnet_w1_mlp_simclrhn_probe0,1,361,NaN,knife,knife,0.35,0361_nse_dnn_0.35_knife_10_n03041632_18959.png,n03041632_18959.png,1.0,-1.7054157,-4.00805,1.6282083
alexnet_w1_mlp_simclrhn_probe0,1,362,NaN,knife,dog,0.35,0362_nse_dnn_0.35_dog_10_n02105251_6564.png,n02105251_6564.png,0.0,-4.8359075,-1.4898248,-2.3660378
alexnet_w1_mlp_simclrhn_probe0,1,363,NaN,knife,boat,0.90,0363_nse_dnn_0.90_boat_10_n04612504_7148.png,n04612504_7148.png,0.0,-18.533573,-2.0491586,-11.656241
alexnet_w1_mlp_simclrhn_probe0,1,364,NaN,boat,boat,0.03,0364_nse_dnn_0.03_boat_10_n04273569_4348.png,n04273569_4348.png,1.0,-1.4570887,-1.6341631,0.12521054
alexnet_w1_mlp_simclrhn_probe0,1,365,NaN,car,car,0.03,0365_nse_dnn_0.03_car_10_n02814533_88986.png,n02814533_88986.png,1.0,0.130397,-0.38519365,0.36457765
alexnet_w1_mlp_simclrhn_probe0,1,366,NaN,bear,bear,0.03,0366_nse_dnn_0.03_bear_10_n02134418_2590.png,n02134418_2590.png,1.0,0.33067387,-0.35499188,0.4848389
alexnet_w1_mlp_simclrhn_probe0,1,367,NaN,bear,bird,0.20,0367_nse_dnn_0.20_bird_10_n02007558_5877.png,n02007558_5877.png,0.0,-3.2349622,-1.8074167,-1.0094272
alexnet_w1_mlp_simclrhn_probe0,1,368,NaN,clock,clock,0.05,0368_nse_dnn_0.05_clock_10_n02708093_1313.png,n02708093_1313.png,1.0,-0.39309514,-2.1073074,1.2121311
alexnet_w1_mlp_simclrhn_probe0,1,369,NaN,knife,keyboard,0.35,0369_nse_dnn_0.35_keyboard_10_n03085013_20798.png,n03085013_20798.png,0.0,-3.4596202,-1.4303493,-1.4349113
alexnet_w1_mlp_simclrhn_probe0,1,370,NaN,knife,dog,0.90,0370_nse_dnn_0.90_dog_10_n02109525_13812.png,n02109525_13812.png,0.0,-8.819533,-2.9832942,-4.126844
alexnet_w1_mlp_simclrhn_probe0,1,371,NaN,bear,bear,0.20,0371_nse_dnn_0.20_bear_10_n02134418_4458.png,n02134418_4458.png,1.0,-2.0931363,-2.1617815,0.048539516
alexnet_w1_mlp_simclrhn_probe0,1,372,NaN,elephant,bottle,0.20,0372_nse_dnn_0.20_bottle_10_n04560804_21519.png,n04560804_21519.png,0.0,-4.5179777,-1.1242054,-2.3997595
alexnet_w1_mlp_simclrhn_probe0,1,373,NaN,elephant,elephant,0.10,0373_nse_dnn_0.10_elephant_10_n02504458_8183.png,n02504458_8183.png,1.0,-0.18582955,-1.9300758,1.2333684
alexnet_w1_mlp_simclrhn_probe0,1,374,NaN,knife,keyboard,0.90,0374_nse_dnn_0.90_keyboard_10_n03085013_20330.png,n03085013_20330.png,0.0,-3.413146,-2.0977087,-0.9301547
alexnet_w1_mlp_simclrhn_probe0,1,375,NaN,elephant,elephant,0.10,0375_nse_dnn_0.10_elephant_10_n02504013_5533.png,n02504013_5533.png,1.0,-0.53521407,-1.1139884,0.40925527
alexnet_w1_mlp_simclrhn_probe0,1,376,NaN,knife,oven,0.90,0376_nse_dnn_0.90_oven_10_n04111531_1009.png,n04111531_1009.png,0.0,-18.098883,-1.3087759,-11.872399
alexnet_w1_mlp_simclrhn_probe0,1,377,NaN,bicycle,bicycle,0.05,0377_nse_dnn_0.05_bicycle_10_n03792782_48457.png,n03792782_48457.png,1.0,-0.06990096,-2.5648007,1.7641605
alexnet_w1_mlp_simclrhn_probe0,1,378,NaN,elephant,cat,0.10,0378_nse_dnn_0.10_cat_10_n02124075_7240.png,n02124075_7240.png,0.0,-1.3660151,-1.2186413,-0.10420901
alexnet_w1_mlp_simclrhn_probe0,1,379,NaN,knife,car,0.60,0379_nse_dnn_0.60_car_10_n02814533_39597.png,n02814533_39597.png,0.0,-15.126002,-2.820437,-8.701348
alexnet_w1_mlp_simclrhn_probe0,1,380,NaN,clock,chair,0.03,0380_nse_dnn_0.03_chair_10_n04429376_33792.png,n04429376_33792.png,0.0,-1.5033754,-1.1817921,-0.22739372
alexnet_w1_mlp_simclrhn_probe0,1,381,NaN,knife,bicycle,0.60,0381_nse_dnn_0.60_bicycle_10_n03792782_15679.png,n03792782_15679.png,0.0,-11.391399,-2.72017,-6.131485
alexnet_w1_mlp_simclrhn_probe0,1,382,NaN,knife,bicycle,0.60,0382_nse_dnn_0.60_bicycle_10_n02835271_9237.png,n02835271_9237.png,0.0,-11.69104,-2.3320036,-6.6178384
alexnet_w1_mlp_simclrhn_probe0,1,383,NaN,knife,bottle,0.35,0383_nse_dnn_0.35_bottle_10_n04591713_665.png,n04591713_665.png,0.0,-6.006607,-2.7026973,-2.3362172
alexnet_w1_mlp_simclrhn_probe0,1,384,NaN,bear,cat,0.03,0384_nse_dnn_0.03_cat_10_n02123159_8257.png,n02123159_8257.png,0.0,-1.1546901,-0.43383208,-0.50972366
alexnet_w1_mlp_simclrhn_probe0,1,385,NaN,bear,dog,0.10,0385_nse_dnn_0.10_dog_10_n02108551_26509.png,n02108551_26509.png,0.0,-1.8890252,-1.1315717,-0.53560054
alexnet_w1_mlp_simclrhn_probe0,1,386,NaN,knife,clock,0.60,0386_nse_dnn_0.60_clock_10_n03196217_3697.png,n03196217_3697.png,0.0,-8.710841,-1.6812141,-4.970697
alexnet_w1_mlp_simclrhn_probe0,1,387,NaN,bicycle,bicycle,0.03,0387_nse_dnn_0.03_bicycle_10_n02835271_25268.png,n02835271_25268.png,1.0,0.49783427,-2.123597,1.8536317
alexnet_w1_mlp_simclrhn_probe0,1,388,NaN,knife,truck,0.10,0388_nse_dnn_0.10_truck_10_n03796401_407.png,n03796401_407.png,0.0,-5.3956347,-1.9427862,-2.4415326
alexnet_w1_mlp_simclrhn_probe0,1,389,NaN,clock,clock,0.05,0389_nse_dnn_0.05_clock_10_n04548280_2045.png,n04548280_2045.png,1.0,-0.0849098,-1.2675879,0.83627975
alexnet_w1_mlp_simclrhn_probe0,1,390,NaN,elephant,oven,0.05,0390_nse_dnn_0.05_oven_10_n04111531_5792.png,n04111531_5792.png,0.0,-2.5491948,-1.5299163,-0.72073877
alexnet_w1_mlp_simclrhn_probe0,1,391,NaN,elephant,elephant,0.05,0391_nse_dnn_0.05_elephant_10_n02504458_8212.png,n02504458_8212.png,1.0,0.5472673,-1.6038549,1.5210731
alexnet_w1_mlp_simclrhn_probe0,1,392,NaN,knife,bird,0.03,0392_nse_dnn_0.03_bird_10_n01843383_8624.png,n01843383_8624.png,0.0,-2.557447,-0.5923189,-1.3895555
alexnet_w1_mlp_simclrhn_probe0,1,393,NaN,knife,airplane,0.20,0393_nse_dnn_0.20_airplane_10_n02690373_4814.png,n02690373_4814.png,0.0,-8.23268,-1.290003,-4.9092145
alexnet_w1_mlp_simclrhn_probe0,1,394,NaN,knife,truck,0.60,0394_nse_dnn_0.60_truck_10_n03796401_6184.png,n03796401_6184.png,0.0,-17.084965,-2.1719046,-10.545126
alexnet_w1_mlp_simclrhn_probe0,1,395,NaN,elephant,dog,0.03,0395_nse_dnn_0.03_dog_10_n02094114_1589.png,n02094114_1589.png,0.0,-1.4652712,-0.7664262,-0.49415806
alexnet_w1_mlp_simclrhn_probe0,1,396,NaN,knife,clock,0.90,0396_nse_dnn_0.90_clock_10_n02708093_6572.png,n02708093_6572.png,0.0,-11.11322,-3.0333238,-5.71335
alexnet_w1_mlp_simclrhn_probe0,1,397,NaN,knife,boat,0.60,0397_nse_dnn_0.60_boat_10_n02951358_15551.png,n02951358_15551.png,0.0,-17.310553,-2.3855484,-10.553572
alexnet_w1_mlp_simclrhn_probe0,1,398,NaN,knife,boat,0.35,0398_nse_dnn_0.35_boat_10_n03662601_7352.png,n03662601_7352.png,0.0,-10.812725,-2.3905585,-5.9553714
alexnet_w1_mlp_simclrhn_probe0,1,399,NaN,knife,bicycle,0.60,0399_nse_dnn_0.60_bicycle_10_n03792782_14984.png,n03792782_14984.png,0.0,-11.700201,-1.6057297,-7.137869
alexnet_w1_mlp_simclrhn_probe0,1,400,NaN,knife,knife,0.35,0400_nse_dnn_0.35_knife_10_n03041632_84012.png,n03041632_84012.png,1.0,-2.3190684,-4.564791,1.5879658
alexnet_w1_mlp_simclrhn_probe0,1,401,NaN,knife,keyboard,0.10,0401_nse_dnn_0.10_keyboard_10_n03085013_9146.png,n03085013_9146.png,0.0,-3.031579,-0.6807009,-1.6623219
alexnet_w1_mlp_simclrhn_probe0,1,402,NaN,bird,airplane,0.03,0402_nse_dnn_0.03_airplane_10_n02690373_6755.png,n02690373_6755.png,0.0,-1.4789366,-0.64610577,-0.5889003
alexnet_w1_mlp_simclrhn_probe0,1,403,NaN,elephant,dog,0.20,0403_nse_dnn_0.20_dog_10_n02086079_17983.png,n02086079_17983.png,0.0,-3.3404522,-2.2531474,-0.7688406
alexnet_w1_mlp_simclrhn_probe0,1,404,NaN,bear,bear,0.00,0404_nse_dnn_0.00_bear_10_n02134418_3284.png,n02134418_3284.png,1.0,0.6146065,-0.7109276,0.9372942
alexnet_w1_mlp_simclrhn_probe0,1,405,NaN,knife,elephant,0.35,0405_nse_dnn_0.35_elephant_10_n02504458_8064.png,n02504458_8064.png,0.0,-3.9199884,-2.815295,-0.7811362
alexnet_w1_mlp_simclrhn_probe0,1,406,NaN,elephant,cat,0.20,0406_nse_dnn_0.20_cat_10_n02123394_289.png,n02123394_289.png,0.0,-2.8700964,-1.6006027,-0.89766765
alexnet_w1_mlp_simclrhn_probe0,1,407,NaN,knife,knife,0.20,0407_nse_dnn_0.20_knife_10_n03041632_18995.png,n03041632_18995.png,1.0,-1.7625898,-2.703361,0.66522574
alexnet_w1_mlp_simclrhn_probe0,1,408,NaN,bear,bird,0.03,0408_nse_dnn_0.03_bird_10_n01843065_4999.png,n01843065_4999.png,0.0,-2.3750467,-1.5423803,-0.58878404
alexnet_w1_mlp_simclrhn_probe0,1,409,NaN,knife,keyboard,0.60,0409_nse_dnn_0.60_keyboard_10_n03085013_22417.png,n03085013_22417.png,0.0,-4.2232018,-1.6345235,-1.8304721
alexnet_w1_mlp_simclrhn_probe0,1,410,NaN,bear,bear,0.05,0410_nse_dnn_0.05_bear_10_n02132136_3224.png,n02132136_3224.png,1.0,-0.4630347,-1.2026188,0.52296495
alexnet_w1_mlp_simclrhn_probe0,1,411,NaN,bicycle,boat,0.05,0411_nse_dnn_0.05_boat_10_n03662601_33184.png,n03662601_33184.png,0.0,-2.4755921,-1.652621,-0.58192843
alexnet_w1_mlp_simclrhn_probe0,1,412,NaN,knife,bear,0.05,0412_nse_dnn_0.05_bear_10_n02133161_2396.png,n02133161_2396.png,0.0,-1.368419,-1.0193988,-0.24679458
alexnet_w1_mlp_simclrhn_probe0,1,413,NaN,knife,keyboard,0.35,0413_nse_dnn_0.35_keyboard_10_n03085013_24578.png,n03085013_24578.png,0.0,-4.2052927,-2.210084,-1.4108256
alexnet_w1_mlp_simclrhn_probe0,1,414,NaN,knife,car,0.35,0414_nse_dnn_0.35_car_10_n02814533_4519.png,n02814533_4519.png,0.0,-9.977838,-1.9587278,-5.670367
alexnet_w1_mlp_simclrhn_probe0,1,415,NaN,bottle,bottle,0.00,0415_nse_dnn_0.00_bottle_10_n03937543_2428.png,n03937543_2428.png,1.0,-0.74651253,-1.4425942,0.49220404
alexnet_w1_mlp_simclrhn_probe0,1,416,NaN,bear,dog,0.05,0416_nse_dnn_0.05_dog_10_n02091635_8296.png,n02091635_8296.png,0.0,-1.9392859,-0.32374904,-1.1423571
alexnet_w1_mlp_simclrhn_probe0,1,417,NaN,knife,bottle,0.35,0417_nse_dnn_0.35_bottle_10_n03983396_11434.png,n03983396_11434.png,0.0,-6.2651467,-1.8710678,-3.1070833
alexnet_w1_mlp_simclrhn_probe0,1,418,NaN,bicycle,boat,0.00,0418_nse_dnn_0.00_boat_10_n02951358_7315.png,n02951358_7315.png,0.0,-1.8205872,-1.292058,-0.37372658
alexnet_w1_mlp_simclrhn_probe0,1,419,NaN,knife,bird,0.20,0419_nse_dnn_0.20_bird_10_n01860187_7297.png,n01860187_7297.png,0.0,-3.4044268,-2.506868,-0.63467
alexnet_w1_mlp_simclrhn_probe0,1,420,NaN,knife,oven,0.20,0420_nse_dnn_0.20_oven_10_n04111531_4250.png,n04111531_4250.png,0.0,-3.6191068,-2.0716782,-1.0941973
alexnet_w1_mlp_simclrhn_probe0,1,421,NaN,elephant,bear,0.20,0421_nse_dnn_0.20_bear_10_n02133161_9463.png,n02133161_9463.png,0.0,-2.4975238,-1.8317691,-0.47075966
alexnet_w1_mlp_simclrhn_probe0,1,422,NaN,bird,bird,0.00,0422_nse_dnn_0.00_bird_10_n02009229_4129.png,n02009229_4129.png,1.0,-0.9522112,-1.5774459,0.44210768
alexnet_w1_mlp_simclrhn_probe0,1,423,NaN,knife,knife,0.10,0423_nse_dnn_0.10_knife_10_n03041632_30821.png,n03041632_30821.png,1.0,-0.49777454,-1.7795485,0.90635115
alexnet_w1_mlp_simclrhn_probe0,1,424,NaN,knife,cat,0.90,0424_nse_dnn_0.90_cat_10_n02123394_2490.png,n02123394_2490.png,0.0,-9.931521,-2.0744424,-5.555794
alexnet_w1_mlp_simclrhn_probe0,1,425,NaN,elephant,dog,0.00,0425_nse_dnn_0.00_dog_10_n02087394_2723.png,n02087394_2723.png,0.0,-1.2310916,-1.2030008,-0.01986322
alexnet_w1_mlp_simclrhn_probe0,1,426,NaN,knife,dog,0.90,0426_nse_dnn_0.90_dog_10_n02093754_5736.png,n02093754_5736.png,0.0,-8.9805155,-2.1959083,-4.7974415
alexnet_w1_mlp_simclrhn_probe0,1,427,NaN,knife,bottle,0.60,0427_nse_dnn_0.60_bottle_10_n02823428_9063.png,n02823428_9063.png,0.0,-7.9172463,-2.5304837,-3.8090165
alexnet_w1_mlp_simclrhn_probe0,1,428,NaN,knife,truck,0.60,0428_nse_dnn_0.60_truck_10_n04467665_20933.png,n04467665_20933.png,0.0,-17.103928,-1.569427,-10.98455
alexnet_w1_mlp_simclrhn_probe0,1,429,NaN,knife,car,0.10,0429_nse_dnn_0.10_car_10_n03100240_5999.png,n03100240_5999.png,0.0,-4.913819,-1.2413362,-2.5968373
alexnet_w1_mlp_simclrhn_probe0,1,430,NaN,chair,oven,0.03,0430_nse_dnn_0.03_oven_10_n04111531_3671.png,n04111531_3671.png,0.0,-2.436988,-1.0775411,-0.9612742
alexnet_w1_mlp_simclrhn_probe0,1,431,NaN,elephant,truck,0.05,0431_nse_dnn_0.05_truck_10_n03417042_7187.png,n03417042_7187.png,0.0,-3.0359435,-0.94092965,-1.4813986
alexnet_w1_mlp_simclrhn_probe0,1,432,NaN,knife,bottle,0.35,0432_nse_dnn_0.35_bottle_10_n04557648_2954.png,n04557648_2954.png,0.0,-5.3417463,-1.4537725,-2.7492127
alexnet_w1_mlp_simclrhn_probe0,1,433,NaN,knife,elephant,0.35,0433_nse_dnn_0.35_elephant_10_n02504013_6645.png,n02504013_6645.png,0.0,-5.8892484,-1.295984,-3.2479286
alexnet_w1_mlp_simclrhn_probe0,1,434,NaN,keyboard,keyboard,0.10,0434_nse_dnn_0.10_keyboard_10_n04505470_6876.png,n04505470_6876.png,1.0,-2.3534937,-2.3548641,0.0009690404
alexnet_w1_mlp_simclrhn_probe0,1,435,NaN,elephant,bird,0.20,0435_nse_dnn_0.20_bird_10_n02056570_3286.png,n02056570_3286.png,0.0,-5.77604,0.040804803,-4.1131306
alexnet_w1_mlp_simclrhn_probe0,1,436,NaN,knife,bird,0.90,0436_nse_dnn_0.90_bird_10_n02037110_8826.png,n02037110_8826.png,0.0,-7.314565,-2.6831908,-3.2748764
alexnet_w1_mlp_simclrhn_probe0,1,437,NaN,car,car,0.00,0437_nse_dnn_0.00_car_10_n03100240_11400.png,n03100240_11400.png,1.0,2.3876216,1.7803468,0.4294082
alexnet_w1_mlp_simclrhn_probe0,1,438,NaN,knife,bird,0.60,0438_nse_dnn_0.60_bird_10_n02018795_6389.png,n02018795_6389.png,0.0,-6.1898804,-1.8609167,-3.0610397
alexnet_w1_mlp_simclrhn_probe0,1,439,NaN,knife,oven,0.35,0439_nse_dnn_0.35_oven_10_n04111531_2458.png,n04111531_2458.png,0.0,-8.622957,-2.5371246,-4.3033338
alexnet_w1_mlp_simclrhn_probe0,1,440,NaN,knife,cat,0.60,0440_nse_dnn_0.60_cat_10_n02123159_2256.png,n02123159_2256.png,0.0,-8.026565,-2.500136,-3.9077752
alexnet_w1_mlp_simclrhn_probe0,1,441,NaN,elephant,elephant,0.03,0441_nse_dnn_0.03_elephant_10_n02504458_611.png,n02504458_611.png,1.0,2.8451252,0.6356682,1.562322
alexnet_w1_mlp_simclrhn_probe0,1,442,NaN,elephant,knife,0.03,0442_nse_dnn_0.03_knife_10_n03041632_18141.png,n03041632_18141.png,0.0,-2.3206174,-0.75509953,-1.1069883
alexnet_w1_mlp_simclrhn_probe0,1,443,NaN,knife,bird,0.60,0443_nse_dnn_0.60_bird_10_n01843065_1871.png,n01843065_1871.png,0.0,-6.7485723,-2.0313194,-3.3356016
alexnet_w1_mlp_simclrhn_probe0,1,444,NaN,oven,bird,0.05,0444_nse_dnn_0.05_bird_10_n01833805_7361.png,n01833805_7361.png,0.0,-4.050439,-1.8585418,-1.5499052
alexnet_w1_mlp_simclrhn_probe0,1,445,NaN,knife,elephant,0.20,0445_nse_dnn_0.20_elephant_10_n02504458_5827.png,n02504458_5827.png,0.0,-1.9765558,-1.7429782,-0.1651643
alexnet_w1_mlp_simclrhn_probe0,1,446,NaN,knife,bicycle,0.35,0446_nse_dnn_0.35_bicycle_10_n02835271_5825.png,n02835271_5825.png,0.0,-6.825084,-1.8443637,-3.5219014
alexnet_w1_mlp_simclrhn_probe0,1,447,NaN,knife,bear,0.90,0447_nse_dnn_0.90_bear_10_n02134084_12801.png,n02134084_12801.png,0.0,-11.807591,-2.3771772,-6.66831
alexnet_w1_mlp_simclrhn_probe0,1,448,NaN,elephant,cat,0.10,0448_nse_dnn_0.10_cat_10_n02123394_3611.png,n02123394_3611.png,0.0,-1.1424487,-0.41645443,-0.51335543
alexnet_w1_mlp_simclrhn_probe0,1,449,NaN,knife,chair,0.35,0449_nse_dnn_0.35_chair_10_n04429376_9589.png,n04429376_9589.png,0.0,-4.7115,-1.9085243,-1.9820033
alexnet_w1_mlp_simclrhn_probe0,1,450,NaN,knife,cat,0.35,0450_nse_dnn_0.35_cat_10_n02123394_3885.png,n02123394_3885.png,0.0,-5.8444023,-2.0125146,-2.709554
alexnet_w1_mlp_simclrhn_probe0,1,451,NaN,knife,elephant,0.90,0451_nse_dnn_0.90_elephant_10_n02504013_22633.png,n02504013_22633.png,0.0,-11.636393,-2.366642,-6.5547037
alexnet_w1_mlp_simclrhn_probe0,1,452,NaN,knife,car,0.20,0452_nse_dnn_0.20_car_10_n02814533_2271.png,n02814533_2271.png,0.0,-6.5850563,-2.2026124,-3.098856
alexnet_w1_mlp_simclrhn_probe0,1,453,NaN,elephant,truck,0.05,0453_nse_dnn_0.05_truck_10_n03417042_10150.png,n03417042_10150.png,0.0,-2.4572022,-1.4825397,-0.6891905
alexnet_w1_mlp_simclrhn_probe0,1,454,NaN,knife,oven,0.35,0454_nse_dnn_0.35_oven_10_n04111531_10583.png,n04111531_10583.png,0.0,-9.751379,-2.0877688,-5.418991
alexnet_w1_mlp_simclrhn_probe0,1,455,NaN,bottle,bottle,0.03,0455_nse_dnn_0.03_bottle_10_n03937543_1602.png,n03937543_1602.png,1.0,-0.13286962,-2.5566413,1.7138654
alexnet_w1_mlp_simclrhn_probe0,1,456,NaN,knife,knife,0.03,0456_nse_dnn_0.03_knife_10_n03041632_3504.png,n03041632_3504.png,1.0,-1.726213,-2.3315256,0.42802066
alexnet_w1_mlp_simclrhn_probe0,1,457,NaN,bicycle,bicycle,0.03,0457_nse_dnn_0.03_bicycle_10_n03792782_1004.png,n03792782_1004.png,1.0,-0.6803334,-0.80477655,0.08799461
alexnet_w1_mlp_simclrhn_probe0,1,458,NaN,bear,cat,0.05,0458_nse_dnn_0.05_cat_10_n02123394_8172.png,n02123394_8172.png,0.0,-1.193211,-0.9068352,-0.20249824
alexnet_w1_mlp_simclrhn_probe0,1,459,NaN,elephant,elephant,0.10,0459_nse_dnn_0.10_elephant_10_n02504013_156.png,n02504013_156.png,1.0,0.66541517,-0.63290197,0.9180489
alexnet_w1_mlp_simclrhn_probe0,1,460,NaN,bicycle,car,0.03,0460_nse_dnn_0.03_car_10_n04285008_5559.png,n04285008_5559.png,0.0,-2.967643,-1.8205204,-0.8111382
alexnet_w1_mlp_simclrhn_probe0,1,461,NaN,knife,elephant,0.35,0461_nse_dnn_0.35_elephant_10_n02504458_6694.png,n02504458_6694.png,0.0,-4.3772926,-2.569355,-1.278405
alexnet_w1_mlp_simclrhn_probe0,1,462,NaN,knife,car,0.90,0462_nse_dnn_0.90_car_10_n04285008_15003.png,n04285008_15003.png,0.0,-17.860353,-2.1715164,-11.093683
alexnet_w1_mlp_simclrhn_probe0,1,463,NaN,knife,chair,0.10,0463_nse_dnn_0.10_chair_10_n03376595_15723.png,n03376595_15723.png,0.0,-2.2745085,-1.106038,-0.82623345
alexnet_w1_mlp_simclrhn_probe0,1,464,NaN,knife,knife,0.60,0464_nse_dnn_0.60_knife_10_n03041632_48816.png,n03041632_48816.png,1.0,-2.1184049,-3.9186635,1.2729751
alexnet_w1_mlp_simclrhn_probe0,1,465,NaN,knife,chair,0.90,0465_nse_dnn_0.90_chair_10_n03376595_4142.png,n03376595_4142.png,0.0,-8.88736,-2.189661,-4.735988
alexnet_w1_mlp_simclrhn_probe0,1,466,NaN,knife,car,0.60,0466_nse_dnn_0.60_car_10_n04285008_2363.png,n04285008_2363.png,0.0,-14.749812,-2.6115143,-8.583073
alexnet_w1_mlp_simclrhn_probe0,1,467,NaN,elephant,truck,0.10,0467_nse_dnn_0.10_truck_10_n03417042_7335.png,n03417042_7335.png,0.0,-5.1085587,-1.4801347,-2.5656831
alexnet_w1_mlp_simclrhn_probe0,1,468,NaN,oven,oven,0.00,0468_nse_dnn_0.00_oven_10_n04111531_6313.png,n04111531_6313.png,1.0,0.06649141,-1.502416,1.109385
alexnet_w1_mlp_simclrhn_probe0,1,469,NaN,elephant,bird,0.05,0469_nse_dnn_0.05_bird_10_n02033041_6728.png,n02033041_6728.png,0.0,-1.5380667,-1.0122641,-0.3717986
alexnet_w1_mlp_simclrhn_probe0,1,470,NaN,knife,clock,0.00,0470_nse_dnn_0.00_clock_10_n04548280_1032.png,n04548280_1032.png,0.0,-4.0358043,-2.9796789,-0.74679345
alexnet_w1_mlp_simclrhn_probe0,1,471,NaN,airplane,airplane,0.03,0471_nse_dnn_0.03_airplane_10_n02690373_1983.png,n02690373_1983.png,1.0,0.0330426,-1.6953974,1.2221916
alexnet_w1_mlp_simclrhn_probe0,1,472,NaN,chair,keyboard,0.00,0472_nse_dnn_0.00_keyboard_10_n03085013_23369.png,n03085013_23369.png,0.0,-3.0064874,-0.48809293,-1.7807739
alexnet_w1_mlp_simclrhn_probe0,1,473,NaN,knife,elephant,0.90,0473_nse_dnn_0.90_elephant_10_n02504458_2419.png,n02504458_2419.png,0.0,-12.068006,-2.3352888,-6.88207
alexnet_w1_mlp_simclrhn_probe0,1,474,NaN,elephant,truck,0.20,0474_nse_dnn_0.20_truck_10_n04467665_72022.png,n04467665_72022.png,0.0,-7.3336425,-1.7153168,-3.9727564
alexnet_w1_mlp_simclrhn_probe0,1,475,NaN,knife,bottle,0.05,0475_nse_dnn_0.05_bottle_10_n04579145_5289.png,n04579145_5289.png,0.0,-1.4443843,-1.1060967,-0.23920545
alexnet_w1_mlp_simclrhn_probe0,1,476,NaN,clock,clock,0.05,0476_nse_dnn_0.05_clock_10_n02708093_2898.png,n02708093_2898.png,1.0,0.2379102,-1.6706451,1.3495524
alexnet_w1_mlp_simclrhn_probe0,1,477,NaN,knife,dog,0.20,0477_nse_dnn_0.20_dog_10_n02101556_4066.png,n02101556_4066.png,0.0,-2.8853788,-2.3728123,-0.3624393
alexnet_w1_mlp_simclrhn_probe0,1,478,NaN,knife,car,0.90,0478_nse_dnn_0.90_car_10_n04285008_17052.png,n04285008_17052.png,0.0,-16.93679,-2.4997678,-10.208517
alexnet_w1_mlp_simclrhn_probe0,1,479,NaN,knife,truck,0.90,0479_nse_dnn_0.90_truck_10_n04467665_37811.png,n04467665_37811.png,0.0,-20.525745,-1.568393,-13.404872
alexnet_w1_mlp_simclrhn_probe0,1,480,NaN,elephant,keyboard,0.20,0480_nse_dnn_0.20_keyboard_10_n04505470_578.png,n04505470_578.png,0.0,-8.111025,0.1482704,-5.840204
alexnet_w1_mlp_simclrhn_probe0,1,481,NaN,cat,cat,0.10,0481_nse_dnn_0.10_cat_10_n02123045_2721.png,n02123045_2721.png,1.0,-2.0092764,-2.0957522,0.06114766
alexnet_w1_mlp_simclrhn_probe0,1,482,NaN,knife,car,0.10,0482_nse_dnn_0.10_car_10_n04285008_7776.png,n04285008_7776.png,0.0,-3.9682224,-1.1903715,-1.9642372
alexnet_w1_mlp_simclrhn_probe0,1,483,NaN,knife,bottle,0.90,0483_nse_dnn_0.90_bottle_10_n04591713_2014.png,n04591713_2014.png,0.0,-9.257521,-2.512185,-4.7696724
alexnet_w1_mlp_simclrhn_probe0,1,484,NaN,elephant,bottle,0.10,0484_nse_dnn_0.10_bottle_10_n03983396_9662.png,n03983396_9662.png,0.0,-2.6143987,-0.60935175,-1.4177822
alexnet_w1_mlp_simclrhn_probe0,1,485,NaN,knife,bicycle,0.35,0485_nse_dnn_0.35_bicycle_10_n03792782_10367.png,n03792782_10367.png,0.0,-7.017256,-1.845114,-3.6572568
alexnet_w1_mlp_simclrhn_probe0,1,486,NaN,knife,keyboard,0.60,0486_nse_dnn_0.60_keyboard_10_n03085013_22942.png,n03085013_22942.png,0.0,-4.42795,-2.4665434,-1.3869238
alexnet_w1_mlp_simclrhn_probe0,1,487,NaN,bird,cat,0.00,0487_nse_dnn_0.00_cat_10_n02123597_3896.png,n02123597_3896.png,0.0,-2.2298467,-2.0697215,-0.113225654
alexnet_w1_mlp_simclrhn_probe0,1,488,NaN,bicycle,bicycle,0.03,0488_nse_dnn_0.03_bicycle_10_n03792782_2649.png,n03792782_2649.png,1.0,-1.1436559,-1.9861021,0.5956994
alexnet_w1_mlp_simclrhn_probe0,1,489,NaN,bear,bear,0.10,0489_nse_dnn_0.10_bear_10_n02133161_2476.png,n02133161_2476.png,1.0,-1.151722,-1.8059094,0.46258038
alexnet_w1_mlp_simclrhn_probe0,1,490,NaN,elephant,car,0.10,0490_nse_dnn_0.10_car_10_n04285008_7249.png,n04285008_7249.png,0.0,-5.3704667,-2.6746192,-1.9062521
alexnet_w1_mlp_simclrhn_probe0,1,491,NaN,knife,chair,0.20,0491_nse_dnn_0.20_chair_10_n04099969_8604.png,n04099969_8604.png,0.0,-4.1674776,-1.9456217,-1.5710894
alexnet_w1_mlp_simclrhn_probe0,1,492,NaN,elephant,bicycle,0.05,0492_nse_dnn_0.05_bicycle_10_n02835271_5963.png,n02835271_5963.png,0.0,-1.2765002,-1.080997,-0.13824166
alexnet_w1_mlp_simclrhn_probe0,1,493,NaN,knife,airplane,0.90,0493_nse_dnn_0.90_airplane_10_n02690373_17011.png,n02690373_17011.png,0.0,-24.90388,-2.6875334,-15.70933
alexnet_w1_mlp_simclrhn_probe0,1,494,NaN,knife,bird,0.90,0494_nse_dnn_0.90_bird_10_n02028035_889.png,n02028035_889.png,0.0,-6.9071608,-1.7481555,-3.6479676
alexnet_w1_mlp_simclrhn_probe0,1,495,NaN,knife,cat,0.60,0495_nse_dnn_0.60_cat_10_n02123159_7949.png,n02123159_7949.png,0.0,-8.575234,-1.6771923,-4.8776526
alexnet_w1_mlp_simclrhn_probe0,1,496,NaN,car,car,0.03,0496_nse_dnn_0.03_car_10_n03100240_15686.png,n03100240_15686.png,1.0,0.9491469,0.46810842,0.3401456
alexnet_w1_mlp_simclrhn_probe0,1,497,NaN,knife,cat,0.35,0497_nse_dnn_0.35_cat_10_n02123159_6106.png,n02123159_6106.png,0.0,-5.7838836,-2.0127857,-2.666569
alexnet_w1_mlp_simclrhn_probe0,1,498,NaN,cat,cat,0.00,0498_nse_dnn_0.00_cat_10_n02123394_7105.png,n02123394_7105.png,1.0,-0.94174194,-1.4139735,0.3339181
alexnet_w1_mlp_simclrhn_probe0,1,499,NaN,knife,clock,0.35,0499_nse_dnn_0.35_clock_10_n04548280_4747.png,n04548280_4747.png,0.0,-8.345567,-1.6291625,-4.7492146
alexnet_w1_mlp_simclrhn_probe0,1,500,NaN,knife,elephant,0.20,0500_nse_dnn_0.20_elephant_10_n02504458_975.png,n02504458_975.png,0.0,-2.048402,-1.9639987,-0.059682213
alexnet_w1_mlp_simclrhn_probe0,1,501,NaN,knife,boat,0.20,0501_nse_dnn_0.20_boat_10_n03344393_11590.png,n03344393_11590.png,0.0,-7.2594595,-2.1155057,-3.6373246
alexnet_w1_mlp_simclrhn_probe0,1,502,NaN,knife,airplane,0.90,0502_nse_dnn_0.90_airplane_10_n02690373_2026.png,n02690373_2026.png,0.0,-23.943954,-1.3928967,-15.946006
alexnet_w1_mlp_simclrhn_probe0,1,503,NaN,knife,clock,0.60,0503_nse_dnn_0.60_clock_10_n03196217_2346.png,n03196217_2346.png,0.0,-9.792063,-1.9763296,-5.526558
alexnet_w1_mlp_simclrhn_probe0,1,504,NaN,knife,truck,0.60,0504_nse_dnn_0.60_truck_10_n04467665_34932.png,n04467665_34932.png,0.0,-17.184237,-1.6308311,-10.997919
alexnet_w1_mlp_simclrhn_probe0,1,505,NaN,knife,oven,0.35,0505_nse_dnn_0.35_oven_10_n04111531_13625.png,n04111531_13625.png,0.0,-7.7276983,-1.6214638,-4.31776
alexnet_w1_mlp_simclrhn_probe0,1,506,NaN,airplane,airplane,0.00,0506_nse_dnn_0.00_airplane_10_n02690373_8666.png,n02690373_8666.png,1.0,0.87073386,-1.4175221,1.6180413
alexnet_w1_mlp_simclrhn_probe0,1,507,NaN,knife,oven,0.35,0507_nse_dnn_0.35_oven_10_n04111531_4148.png,n04111531_4148.png,0.0,-9.105946,-2.1570728,-4.913595
alexnet_w1_mlp_simclrhn_probe0,1,508,NaN,dog,dog,0.00,0508_nse_dnn_0.00_dog_10_n02107683_7021.png,n02107683_7021.png,1.0,-1.1989921,-1.6927423,0.34913412
alexnet_w1_mlp_simclrhn_probe0,1,509,NaN,bear,bird,0.05,0509_nse_dnn_0.05_bird_10_n02025239_22440.png,n02025239_22440.png,0.0,-1.9268777,-1.4461566,-0.33992118
alexnet_w1_mlp_simclrhn_probe0,1,510,NaN,knife,elephant,0.90,0510_nse_dnn_0.90_elephant_10_n02504013_7032.png,n02504013_7032.png,0.0,-11.526414,-2.7833257,-6.1822968
alexnet_w1_mlp_simclrhn_probe0,1,511,NaN,knife,truck,0.90,0511_nse_dnn_0.90_truck_10_n03417042_10788.png,n03417042_10788.png,0.0,-20.457851,-3.182001,-12.215871
alexnet_w1_mlp_simclrhn_probe0,1,512,NaN,knife,knife,0.05,0512_nse_dnn_0.05_knife_10_n03041632_86118.png,n03041632_86118.png,1.0,-1.1520345,-1.2146806,0.044297434
alexnet_w1_mlp_simclrhn_probe0,1,513,NaN,bottle,bottle,0.00,0513_nse_dnn_0.00_bottle_10_n04557648_9790.png,n04557648_9790.png,1.0,-0.69007057,-0.8807055,0.13479924
alexnet_w1_mlp_simclrhn_probe0,1,514,NaN,knife,chair,0.90,0514_nse_dnn_0.90_chair_10_n02791124_8788.png,n02791124_8788.png,0.0,-8.717839,-2.2466695,-4.575808
alexnet_w1_mlp_simclrhn_probe0,1,515,NaN,bear,dog,0.03,0515_nse_dnn_0.03_dog_10_n02095314_4996.png,n02095314_4996.png,0.0,-1.9228609,-1.1338216,-0.557935
alexnet_w1_mlp_simclrhn_probe0,1,516,NaN,knife,keyboard,0.20,0516_nse_dnn_0.20_keyboard_10_n04505470_4679.png,n04505470_4679.png,0.0,-3.3036468,-1.4788568,-1.2903214
alexnet_w1_mlp_simclrhn_probe0,1,517,NaN,elephant,bird,0.03,0517_nse_dnn_0.03_bird_10_n01860187_24935.png,n01860187_24935.png,0.0,-1.8603392,-1.4000874,-0.32544717
alexnet_w1_mlp_simclrhn_probe0,1,518,NaN,knife,bicycle,0.60,0518_nse_dnn_0.60_bicycle_10_n02835271_14123.png,n02835271_14123.png,0.0,-12.020997,-1.7329147,-7.2747726
alexnet_w1_mlp_simclrhn_probe0,1,519,NaN,knife,boat,0.10,0519_nse_dnn_0.10_boat_10_n03344393_7075.png,n03344393_7075.png,0.0,-2.5160682,-1.1817523,-0.94350386
alexnet_w1_mlp_simclrhn_probe0,1,520,NaN,knife,knife,0.03,0520_nse_dnn_0.03_knife_10_n03041632_13130.png,n03041632_13130.png,1.0,-0.042310566,-2.0347462,1.4088647
alexnet_w1_mlp_simclrhn_probe0,1,521,NaN,knife,bottle,0.20,0521_nse_dnn_0.20_bottle_10_n04591713_5569.png,n04591713_5569.png,0.0,-4.0037084,-0.5800166,-2.4209156
alexnet_w1_mlp_simclrhn_probe0,1,522,NaN,elephant,elephant,0.05,0522_nse_dnn_0.05_elephant_10_n02504013_19753.png,n02504013_19753.png,1.0,0.067175336,-0.72742236,0.56186545
alexnet_w1_mlp_simclrhn_probe0,1,523,NaN,knife,dog,0.60,0523_nse_dnn_0.60_dog_10_n02099849_4819.png,n02099849_4819.png,0.0,-7.608065,-2.16929,-3.8457947
alexnet_w1_mlp_simclrhn_probe0,1,524,NaN,knife,elephant,0.90,0524_nse_dnn_0.90_elephant_10_n02504458_12938.png,n02504458_12938.png,0.0,-11.640635,-1.8168789,-6.946444
alexnet_w1_mlp_simclrhn_probe0,1,525,NaN,bottle,bottle,0.03,0525_nse_dnn_0.03_bottle_10_n02823428_901.png,n02823428_901.png,1.0,-0.5254682,-2.730982,1.559534
alexnet_w1_mlp_simclrhn_probe0,1,526,NaN,car,bicycle,0.00,0526_nse_dnn_0.00_bicycle_10_n03792782_2024.png,n03792782_2024.png,0.0,-1.4678199,-1.1762601,-0.20616393
alexnet_w1_mlp_simclrhn_probe0,1,527,NaN,elephant,truck,0.05,0527_nse_dnn_0.05_truck_10_n03417042_24856.png,n03417042_24856.png,0.0,-3.2069106,-1.8523483,-0.9578202
alexnet_w1_mlp_simclrhn_probe0,1,528,NaN,elephant,elephant,0.00,0528_nse_dnn_0.00_elephant_10_n02504013_19694.png,n02504013_19694.png,1.0,1.4198555,-0.37554377,1.269539
alexnet_w1_mlp_simclrhn_probe0,1,529,NaN,knife,bird,0.20,0529_nse_dnn_0.20_bird_10_n01530575_10119.png,n01530575_10119.png,0.0,-2.677645,-1.2634828,-0.99996364
alexnet_w1_mlp_simclrhn_probe0,1,530,NaN,elephant,bottle,0.20,0530_nse_dnn_0.20_bottle_10_n04557648_954.png,n04557648_954.png,0.0,-4.6637926,-0.8796463,-2.6757956
alexnet_w1_mlp_simclrhn_probe0,1,531,NaN,knife,cat,0.90,0531_nse_dnn_0.90_cat_10_n02123159_277.png,n02123159_277.png,0.0,-9.727439,-2.9831748,-4.768915
alexnet_w1_mlp_simclrhn_probe0,1,532,NaN,knife,knife,0.00,0532_nse_dnn_0.00_knife_10_n03041632_289.png,n03041632_289.png,1.0,-0.20536765,-0.73621476,0.37536559
alexnet_w1_mlp_simclrhn_probe0,1,533,NaN,knife,truck,0.35,0533_nse_dnn_0.35_truck_10_n04467665_450.png,n04467665_450.png,0.0,-11.630057,-1.610528,-7.0848775
alexnet_w1_mlp_simclrhn_probe0,1,534,NaN,knife,knife,0.00,0534_nse_dnn_0.00_knife_10_n03041632_1607.png,n03041632_1607.png,1.0,-1.520608,-3.1472077,1.1501797
alexnet_w1_mlp_simclrhn_probe0,1,535,NaN,knife,bird,0.20,0535_nse_dnn_0.20_bird_10_n01532829_4692.png,n01532829_4692.png,0.0,-4.0403256,-1.9049069,-1.5099692
alexnet_w1_mlp_simclrhn_probe0,1,536,NaN,elephant,dog,0.10,0536_nse_dnn_0.10_dog_10_n02102177_4771.png,n02102177_4771.png,0.0,-2.7811503,0.1294128,-2.058079
alexnet_w1_mlp_simclrhn_probe0,1,537,NaN,knife,car,0.10,0537_nse_dnn_0.10_car_10_n04285008_14554.png,n04285008_14554.png,0.0,-4.700314,-2.1518557,-1.8020322
alexnet_w1_mlp_simclrhn_probe0,1,538,NaN,clock,clock,0.00,0538_nse_dnn_0.00_clock_10_n04548280_3716.png,n04548280_3716.png,1.0,-0.5790437,-1.5869936,0.71272814
alexnet_w1_mlp_simclrhn_probe0,1,539,NaN,car,car,0.03,0539_nse_dnn_0.03_car_10_n04285008_6849.png,n04285008_6849.png,1.0,-1.688743,-2.0792165,0.27610645
alexnet_w1_mlp_simclrhn_probe0,1,540,NaN,knife,keyboard,0.35,0540_nse_dnn_0.35_keyboard_10_n03085013_24467.png,n03085013_24467.png,0.0,-4.2227187,-2.4106615,-1.281318
alexnet_w1_mlp_simclrhn_probe0,1,541,NaN,knife,clock,0.35,0541_nse_dnn_0.35_clock_10_n03196217_6672.png,n03196217_6672.png,0.0,-6.368953,-1.8320615,-3.2080672
alexnet_w1_mlp_simclrhn_probe0,1,542,NaN,elephant,dog,0.10,0542_nse_dnn_0.10_dog_10_n02105251_5570.png,n02105251_5570.png,0.0,-2.350276,-0.28719246,-1.4588205
alexnet_w1_mlp_simclrhn_probe0,1,543,NaN,knife,dog,0.35,0543_nse_dnn_0.35_dog_10_n02107574_3352.png,n02107574_3352.png,0.0,-5.192936,-2.0444813,-2.2262936
alexnet_w1_mlp_simclrhn_probe0,1,544,NaN,knife,boat,0.60,0544_nse_dnn_0.60_boat_10_n03662601_8191.png,n03662601_8191.png,0.0,-15.6732435,-1.8447542,-9.778218
alexnet_w1_mlp_simclrhn_probe0,1,545,NaN,boat,boat,0.00,0545_nse_dnn_0.00_boat_10_n04612504_30617.png,n04612504_30617.png,1.0,1.0126383,0.72742337,0.20167744
alexnet_w1_mlp_simclrhn_probe0,1,546,NaN,knife,bear,0.60,0546_nse_dnn_0.60_bear_10_n02132136_2900.png,n02132136_2900.png,0.0,-10.277409,-2.5759668,-5.4457417
alexnet_w1_mlp_simclrhn_probe0,1,547,NaN,elephant,truck,0.10,0547_nse_dnn_0.10_truck_10_n03417042_8139.png,n03417042_8139.png,0.0,-5.0651283,-1.3676097,-2.6145406
alexnet_w1_mlp_simclrhn_probe0,1,548,NaN,chair,chair,0.03,0548_nse_dnn_0.03_chair_10_n03376595_5112.png,n03376595_5112.png,1.0,-1.9077003,-1.9829599,0.05321655
alexnet_w1_mlp_simclrhn_probe0,1,549,NaN,elephant,bird,0.05,0549_nse_dnn_0.05_bird_10_n02006656_10360.png,n02006656_10360.png,0.0,-1.9516068,-1.4679224,-0.34201646
alexnet_w1_mlp_simclrhn_probe0,1,550,NaN,knife,elephant,0.20,0550_nse_dnn_0.20_elephant_10_n02504458_2799.png,n02504458_2799.png,0.0,-2.9095461,-1.468758,-1.0187911
alexnet_w1_mlp_simclrhn_probe0,1,551,NaN,knife,airplane,0.10,0551_nse_dnn_0.10_airplane_10_n02690373_6096.png,n02690373_6096.png,0.0,-3.0565596,-2.3245695,-0.5175952
alexnet_w1_mlp_simclrhn_probe0,1,552,NaN,knife,bird,0.20,0552_nse_dnn_0.20_bird_10_n02002556_139.png,n02002556_139.png,0.0,-2.5780668,-1.5577228,-0.7214922
alexnet_w1_mlp_simclrhn_probe0,1,553,NaN,car,car,0.00,0553_nse_dnn_0.00_car_10_n04285008_3056.png,n04285008_3056.png,1.0,0.9779477,-0.51381063,1.0548325
alexnet_w1_mlp_simclrhn_probe0,1,554,NaN,knife,knife,0.10,0554_nse_dnn_0.10_knife_10_n03041632_14774.png,n03041632_14774.png,1.0,-0.85340464,-0.8982772,0.03172971
alexnet_w1_mlp_simclrhn_probe0,1,555,NaN,knife,oven,0.20,0555_nse_dnn_0.20_oven_10_n04111531_2163.png,n04111531_2163.png,0.0,-3.807471,-2.6347086,-0.8292683
alexnet_w1_mlp_simclrhn_probe0,1,556,NaN,knife,cat,0.20,0556_nse_dnn_0.20_cat_10_n02123597_30864.png,n02123597_30864.png,0.0,-3.1419308,-1.3935946,-1.2362604
alexnet_w1_mlp_simclrhn_probe0,1,557,NaN,knife,boat,0.35,0557_nse_dnn_0.35_boat_10_n02951358_33559.png,n02951358_33559.png,0.0,-10.988225,-1.677122,-6.5839443
alexnet_w1_mlp_simclrhn_probe0,1,558,NaN,knife,bicycle,0.60,0558_nse_dnn_0.60_bicycle_10_n02835271_4619.png,n02835271_4619.png,0.0,-12.296002,-1.8263173,-7.403185
alexnet_w1_mlp_simclrhn_probe0,1,559,NaN,knife,truck,0.03,0559_nse_dnn_0.03_truck_10_n03796401_21261.png,n03796401_21261.png,0.0,-1.8570678,-1.493861,-0.25682604
alexnet_w1_mlp_simclrhn_probe0,1,560,NaN,knife,airplane,0.10,0560_nse_dnn_0.10_airplane_10_n02690373_2496.png,n02690373_2496.png,0.0,-4.382633,-2.092556,-1.6193291
alexnet_w1_mlp_simclrhn_probe0,1,561,NaN,knife,boat,0.35,0561_nse_dnn_0.35_boat_10_n03662601_5419.png,n03662601_5419.png,0.0,-10.428311,-1.4078372,-6.378439
alexnet_w1_mlp_simclrhn_probe0,1,562,NaN,airplane,airplane,0.03,0562_nse_dnn_0.03_airplane_10_n02690373_7686.png,n02690373_7686.png,1.0,0.9897341,-0.76631916,1.2417171
alexnet_w1_mlp_simclrhn_probe0,1,563,NaN,knife,oven,0.90,0563_nse_dnn_0.90_oven_10_n04111531_5246.png,n04111531_5246.png,0.0,-17.537224,-1.9435169,-11.026416
alexnet_w1_mlp_simclrhn_probe0,1,564,NaN,knife,bicycle,0.60,0564_nse_dnn_0.60_bicycle_10_n03792782_1099.png,n03792782_1099.png,0.0,-11.4361,-2.0638552,-6.627178
alexnet_w1_mlp_simclrhn_probe0,1,565,NaN,knife,chair,0.35,0565_nse_dnn_0.35_chair_10_n04099969_12909.png,n04099969_12909.png,0.0,-5.690237,-1.3635103,-3.059458
alexnet_w1_mlp_simclrhn_probe0,1,566,NaN,elephant,elephant,0.03,0566_nse_dnn_0.03_elephant_10_n02504013_7147.png,n02504013_7147.png,1.0,-0.41075367,-0.65823257,0.174994
alexnet_w1_mlp_simclrhn_probe0,1,567,NaN,elephant,truck,0.35,0567_nse_dnn_0.35_truck_10_n04467665_44715.png,n04467665_44715.png,0.0,-12.545934,-4.405156,-5.756399
alexnet_w1_mlp_simclrhn_probe0,1,568,NaN,keyboard,keyboard,0.00,0568_nse_dnn_0.00_keyboard_10_n04505470_1338.png,n04505470_1338.png,1.0,0.77000403,-1.1862497,1.3832803
alexnet_w1_mlp_simclrhn_probe0,1,569,NaN,knife,airplane,0.90,0569_nse_dnn_0.90_airplane_10_n02690373_4982.png,n02690373_4982.png,0.0,-25.376156,-2.206127,-16.383684
alexnet_w1_mlp_simclrhn_probe0,1,570,NaN,knife,bicycle,0.90,0570_nse_dnn_0.90_bicycle_10_n03792782_3754.png,n03792782_3754.png,0.0,-14.42701,-2.0827322,-8.728723
alexnet_w1_mlp_simclrhn_probe0,1,571,NaN,bear,bicycle,0.00,0571_nse_dnn_0.00_bicycle_10_n03792782_1418.png,n03792782_1418.png,0.0,-1.6206453,-1.5957456,-0.017606761
alexnet_w1_mlp_simclrhn_probe0,1,572,NaN,elephant,truck,0.03,0572_nse_dnn_0.03_truck_10_n03796401_26359.png,n03796401_26359.png,0.0,-2.3615057,-1.2705171,-0.77144545
alexnet_w1_mlp_simclrhn_probe0,1,573,NaN,elephant,car,0.05,0573_nse_dnn_0.05_car_10_n03100240_9149.png,n03100240_9149.png,0.0,-3.5932972,-1.4655621,-1.5045359
alexnet_w1_mlp_simclrhn_probe0,1,574,NaN,keyboard,bird,0.90,0574_nse_dnn_0.90_bird_10_n01534433_14677.png,n01534433_14677.png,0.0,-7.0463305,-2.044416,-3.5368876
alexnet_w1_mlp_simclrhn_probe0,1,575,NaN,car,car,0.03,0575_nse_dnn_0.03_car_10_n03100240_8683.png,n03100240_8683.png,1.0,-0.562496,-1.3625855,0.56574875
alexnet_w1_mlp_simclrhn_probe0,1,576,NaN,bicycle,chair,0.03,0576_nse_dnn_0.03_chair_10_n03376595_524.png,n03376595_524.png,0.0,-1.0725509,0.26006585,-0.9423024
alexnet_w1_mlp_simclrhn_probe0,1,577,NaN,elephant,dog,0.20,0577_nse_dnn_0.20_dog_10_n02094433_6402.png,n02094433_6402.png,0.0,-3.9581325,-1.3058414,-1.875453
alexnet_w1_mlp_simclrhn_probe0,1,578,NaN,knife,car,0.20,0578_nse_dnn_0.20_car_10_n03100240_16803.png,n03100240_16803.png,0.0,-6.5032105,-2.1814127,-3.0559726
alexnet_w1_mlp_simclrhn_probe0,1,579,NaN,elephant,bicycle,0.20,0579_nse_dnn_0.20_bicycle_10_n03792782_15114.png,n03792782_15114.png,0.0,-3.730164,-1.9096322,-1.2873105
alexnet_w1_mlp_simclrhn_probe0,1,580,NaN,knife,chair,0.60,0580_nse_dnn_0.60_chair_10_n04429376_21362.png,n04429376_21362.png,0.0,-7.822756,-1.5844867,-4.4111223
alexnet_w1_mlp_simclrhn_probe0,1,581,NaN,knife,keyboard,0.90,0581_nse_dnn_0.90_keyboard_10_n04505470_3499.png,n04505470_3499.png,0.0,-4.8133426,-2.2809873,-1.7906456
alexnet_w1_mlp_simclrhn_probe0,1,582,NaN,knife,boat,0.90,0582_nse_dnn_0.90_boat_10_n04273569_26577.png,n04273569_26577.png,0.0,-19.85257,-1.9706105,-12.644455
alexnet_w1_mlp_simclrhn_probe0,1,583,NaN,knife,boat,0.10,0583_nse_dnn_0.10_boat_10_n04273569_27325.png,n04273569_27325.png,0.0,-2.70531,-1.3969549,-0.9251469
alexnet_w1_mlp_simclrhn_probe0,1,584,NaN,knife,keyboard,0.20,0584_nse_dnn_0.20_keyboard_10_n04505470_9570.png,n04505470_9570.png,0.0,-5.778016,-3.151464,-1.8572528
alexnet_w1_mlp_simclrhn_probe0,1,585,NaN,knife,bicycle,0.90,0585_nse_dnn_0.90_bicycle_10_n03792782_4067.png,n03792782_4067.png,0.0,-13.983142,-2.4099097,-8.183512
alexnet_w1_mlp_simclrhn_probe0,1,586,NaN,bear,bear,0.10,0586_nse_dnn_0.10_bear_10_n02132136_282.png,n02132136_282.png,1.0,-0.6994337,-1.0770183,0.26699263
alexnet_w1_mlp_simclrhn_probe0,1,587,NaN,knife,boat,0.03,0587_nse_dnn_0.03_boat_10_n04612504_30424.png,n04612504_30424.png,0.0,-1.4353842,-0.5933116,-0.5954352
alexnet_w1_mlp_simclrhn_probe0,1,588,NaN,knife,knife,0.90,0588_nse_dnn_0.90_knife_10_n03041632_4879.png,n03041632_4879.png,1.0,-2.328486,-5.071723,1.9397615
alexnet_w1_mlp_simclrhn_probe0,1,589,NaN,elephant,elephant,0.05,0589_nse_dnn_0.05_elephant_10_n02504458_7634.png,n02504458_7634.png,1.0,0.73225737,-0.670815,0.992122
alexnet_w1_mlp_simclrhn_probe0,1,590,NaN,knife,cat,0.35,0590_nse_dnn_0.35_cat_10_n02123597_7615.png,n02123597_7615.png,0.0,-5.4630027,-1.6034083,-2.7291453
alexnet_w1_mlp_simclrhn_probe0,1,591,NaN,knife,bicycle,0.35,0591_nse_dnn_0.35_bicycle_10_n03792782_20387.png,n03792782_20387.png,0.0,-6.7315197,-2.2887049,-3.1415446
alexnet_w1_mlp_simclrhn_probe0,1,592,NaN,clock,clock,0.10,0592_nse_dnn_0.10_clock_10_n02708093_527.png,n02708093_527.png,1.0,-1.1354803,-3.2142398,1.4699051
alexnet_w1_mlp_simclrhn_probe0,1,593,NaN,elephant,elephant,0.05,0593_nse_dnn_0.05_elephant_10_n02504013_5501.png,n02504013_5501.png,1.0,0.3910522,-0.43862528,0.5866706
alexnet_w1_mlp_simclrhn_probe0,1,594,NaN,knife,dog,0.35,0594_nse_dnn_0.35_dog_10_n02106166_2273.png,n02106166_2273.png,0.0,-4.621236,-1.30975,-2.3415742
alexnet_w1_mlp_simclrhn_probe0,1,595,NaN,boat,boat,0.03,0595_nse_dnn_0.03_boat_10_n03662601_34009.png,n03662601_34009.png,1.0,-1.2396067,-1.6338189,0.27875006
alexnet_w1_mlp_simclrhn_probe0,1,596,NaN,knife,boat,0.35,0596_nse_dnn_0.35_boat_10_n04273569_12536.png,n04273569_12536.png,0.0,-10.732313,-1.9513813,-6.2090564
alexnet_w1_mlp_simclrhn_probe0,1,597,NaN,elephant,elephant,0.00,0597_nse_dnn_0.00_elephant_10_n02504013_8534.png,n02504013_8534.png,1.0,0.13586983,-1.9165093,1.4512513
alexnet_w1_mlp_simclrhn_probe0,1,598,NaN,knife,clock,0.35,0598_nse_dnn_0.35_clock_10_n04548280_156.png,n04548280_156.png,0.0,-7.0352893,-1.9106839,-3.6236432
alexnet_w1_mlp_simclrhn_probe0,1,599,NaN,knife,bicycle,0.90,0599_nse_dnn_0.90_bicycle_10_n02835271_542.png,n02835271_542.png,0.0,-15.340591,-1.9594657,-9.4618845
alexnet_w1_mlp_simclrhn_probe0,1,600,NaN,elephant,bear,0.00,0600_nse_dnn_0.00_bear_10_n02133161_5434.png,n02133161_5434.png,0.0,-2.4504616,-1.9395134,-0.36129493
alexnet_w1_mlp_simclrhn_probe0,1,601,NaN,knife,truck,0.60,0601_nse_dnn_0.60_truck_10_n04467665_63829.png,n04467665_63829.png,0.0,-17.482376,-3.272639,-10.047801
alexnet_w1_mlp_simclrhn_probe0,1,602,NaN,knife,oven,0.90,0602_nse_dnn_0.90_oven_10_n04111531_10220.png,n04111531_10220.png,0.0,-17.773706,-1.6510748,-11.400422
alexnet_w1_mlp_simclrhn_probe0,1,603,NaN,knife,boat,0.60,0603_nse_dnn_0.60_boat_10_n04273569_28074.png,n04273569_28074.png,0.0,-15.515959,-2.1456707,-9.454222
alexnet_w1_mlp_simclrhn_probe0,1,604,NaN,bottle,cat,0.00,0604_nse_dnn_0.00_cat_10_n02123394_2482.png,n02123394_2482.png,0.0,-2.2842762,-1.8328552,-0.31920287
alexnet_w1_mlp_simclrhn_probe0,1,605,NaN,knife,boat,0.90,0605_nse_dnn_0.90_boat_10_n03662601_20381.png,n03662601_20381.png,0.0,-18.221539,-2.0271525,-11.45116
alexnet_w1_mlp_simclrhn_probe0,1,606,NaN,knife,bird,0.35,0606_nse_dnn_0.35_bird_10_n01817953_12511.png,n01817953_12511.png,0.0,-6.018868,-1.7192085,-3.0403185
alexnet_w1_mlp_simclrhn_probe0,1,607,NaN,cat,cat,0.05,0607_nse_dnn_0.05_cat_10_n02125311_5346.png,n02125311_5346.png,1.0,-0.42718235,-1.2887439,0.60921603
alexnet_w1_mlp_simclrhn_probe0,1,608,NaN,elephant,oven,0.00,0608_nse_dnn_0.00_oven_10_n04111531_14758.png,n04111531_14758.png,0.0,-4.9324446,-2.0075555,-2.068209
alexnet_w1_mlp_simclrhn_probe0,1,609,NaN,elephant,bird,0.10,0609_nse_dnn_0.10_bird_10_n02002556_1398.png,n02002556_1398.png,0.0,-2.8887331,-1.4465888,-1.0197501
alexnet_w1_mlp_simclrhn_probe0,1,610,NaN,knife,knife,0.05,0610_nse_dnn_0.05_knife_10_n03041632_99912.png,n03041632_99912.png,1.0,-1.2499907,-2.490925,0.8774731
alexnet_w1_mlp_simclrhn_probe0,1,611,NaN,knife,airplane,0.05,0611_nse_dnn_0.05_airplane_10_n02690373_1075.png,n02690373_1075.png,0.0,-1.5734475,-1.3857797,-0.13270113
alexnet_w1_mlp_simclrhn_probe0,1,612,NaN,knife,cat,0.35,0612_nse_dnn_0.35_cat_10_n02123045_10834.png,n02123045_10834.png,0.0,-5.3648663,-1.9518824,-2.4133441
alexnet_w1_mlp_simclrhn_probe0,1,613,NaN,knife,car,0.60,0613_nse_dnn_0.60_car_10_n02814533_41478.png,n02814533_41478.png,0.0,-14.526543,-2.788768,-8.29986
alexnet_w1_mlp_simclrhn_probe0,1,614,NaN,cat,cat,0.00,0614_nse_dnn_0.00_cat_10_n02123394_1602.png,n02123394_1602.png,1.0,0.20750655,-0.66409904,0.6163182
alexnet_w1_mlp_simclrhn_probe0,1,615,NaN,knife,knife,0.03,0615_nse_dnn_0.03_knife_10_n03041632_21017.png,n03041632_21017.png,1.0,-1.2746912,-1.9585972,0.48359454
alexnet_w1_mlp_simclrhn_probe0,1,616,NaN,elephant,bear,0.03,0616_nse_dnn_0.03_bear_10_n02134084_572.png,n02134084_572.png,0.0,-0.30300844,-0.26577312,-0.026329348
alexnet_w1_mlp_simclrhn_probe0,1,617,NaN,keyboard,clock,0.05,0617_nse_dnn_0.05_clock_10_n03196217_3987.png,n03196217_3987.png,0.0,-0.08311669,1.8990502,-1.4016037
alexnet_w1_mlp_simclrhn_probe0,1,618,NaN,dog,dog,0.03,0618_nse_dnn_0.03_dog_10_n02098286_6303.png,n02098286_6303.png,1.0,-1.6334487,-1.8783883,0.17319843
