subj,session,trial,rt,object_response,category,condition,imagename,filename,is_correct,targ_act,max_nontarg_act,decision_margin
alexnet_w1_mlp_simclrhn_probe3,1,1,NaN,oven,elephant,0.03,0001_nse_dnn_0.03_elephant_10_n02504458_7209.png,n02504458_7209.png,0.0,0.7695178,0.7795579,-0.007099426
alexnet_w1_mlp_simclrhn_probe3,1,2,NaN,knife,knife,0.90,0002_nse_dnn_0.90_knife_10_n03041632_82878.png,n03041632_82878.png,1.0,1.2619798,1.0578113,0.14436898
alexnet_w1_mlp_simclrhn_probe3,1,3,NaN,oven,clock,0.00,0003_nse_dnn_0.00_clock_10_n03196217_9231.png,n03196217_9231.png,0.0,1.3396784,2.0429802,-0.49730948
alexnet_w1_mlp_simclrhn_probe3,1,4,NaN,oven,oven,0.00,0004_nse_dnn_0.00_oven_10_n04111531_11026.png,n04111531_11026.png,1.0,1.2552285,0.58105665,0.4767115
alexnet_w1_mlp_simclrhn_probe3,1,5,NaN,elephant,clock,0.10,0005_nse_dnn_0.10_clock_10_n04548280_1114.png,n04548280_1114.png,0.0,0.27162966,0.813454,-0.38312766
alexnet_w1_mlp_simclrhn_probe3,1,6,NaN,oven,clock,0.03,0006_nse_dnn_0.03_clock_10_n02708093_8100.png,n02708093_8100.png,0.0,0.64916754,1.644587,-0.7038679
alexnet_w1_mlp_simclrhn_probe3,1,7,NaN,clock,clock,0.00,0007_nse_dnn_0.00_clock_10_n02708093_3591.png,n02708093_3591.png,1.0,3.9707158,0.66999996,2.3339586
alexnet_w1_mlp_simclrhn_probe3,1,8,NaN,chair,chair,0.00,0008_nse_dnn_0.00_chair_10_n03376595_16202.png,n03376595_16202.png,1.0,0.9467324,0.9321041,0.010343764
alexnet_w1_mlp_simclrhn_probe3,1,9,NaN,knife,bottle,0.60,0009_nse_dnn_0.60_bottle_10_n02823428_3478.png,n02823428_3478.png,0.0,-0.8336869,0.8891144,-1.2182044
alexnet_w1_mlp_simclrhn_probe3,1,10,NaN,oven,dog,0.10,0010_nse_dnn_0.10_dog_10_n02087394_28673.png,n02087394_28673.png,0.0,0.08050076,0.4458726,-0.25835693
alexnet_w1_mlp_simclrhn_probe3,1,11,NaN,clock,chair,0.10,0011_nse_dnn_0.10_chair_10_n04099969_1690.png,n04099969_1690.png,0.0,-0.06491339,0.24471188,-0.21893813
alexnet_w1_mlp_simclrhn_probe3,1,12,NaN,elephant,cat,0.03,0012_nse_dnn_0.03_cat_10_n02125311_1736.png,n02125311_1736.png,0.0,0.66016275,1.0882183,-0.302681
alexnet_w1_mlp_simclrhn_probe3,1,13,NaN,knife,bear,0.90,0013_nse_dnn_0.90_bear_10_n02133161_1169.png,n02133161_1169.png,0.0,-0.9050034,1.0567372,-1.3871601
alexnet_w1_mlp_simclrhn_probe3,1,14,NaN,knife,bear,0.90,0014_nse_dnn_0.90_bear_10_n02133161_8835.png,n02133161_8835.png,0.0,-0.8150542,1.2040274,-1.4277064
alexnet_w1_mlp_simclrhn_probe3,1,15,NaN,knife,car,0.20,0015_nse_dnn_0.20_car_10_n02814533_5430.png,n02814533_5430.png,0.0,-0.4207585,0.36961898,-0.5588813
alexnet_w1_mlp_simclrhn_probe3,1,16,NaN,knife,bear,0.60,0016_nse_dnn_0.60_bear_10_n02134418_3767.png,n02134418_3767.png,0.0,-0.5922972,1.1517855,-1.2332528
alexnet_w1_mlp_simclrhn_probe3,1,17,NaN,knife,knife,0.20,0017_nse_dnn_0.20_knife_10_n03041632_10540.png,n03041632_10540.png,1.0,0.43954954,0.2155238,0.15841012
alexnet_w1_mlp_simclrhn_probe3,1,18,NaN,knife,bicycle,0.20,0018_nse_dnn_0.20_bicycle_10_n02835271_1075.png,n02835271_1075.png,0.0,-0.0781308,0.2606422,-0.2395487
alexnet_w1_mlp_simclrhn_probe3,1,19,NaN,bear,bear,0.00,0019_nse_dnn_0.00_bear_10_n02134084_3888.png,n02134084_3888.png,1.0,1.4416194,1.3754594,0.04678216
alexnet_w1_mlp_simclrhn_probe3,1,20,NaN,bear,dog,0.00,0020_nse_dnn_0.00_dog_10_n02085936_9009.png,n02085936_9009.png,0.0,0.15810633,0.25353912,-0.067481175
alexnet_w1_mlp_simclrhn_probe3,1,21,NaN,knife,knife,0.03,0021_nse_dnn_0.03_knife_10_n03041632_12651.png,n03041632_12651.png,1.0,1.1252247,0.13008717,0.70366853
alexnet_w1_mlp_simclrhn_probe3,1,22,NaN,knife,bicycle,0.35,0022_nse_dnn_0.35_bicycle_10_n03792782_565.png,n03792782_565.png,0.0,-0.10424902,0.71414125,-0.5786893
alexnet_w1_mlp_simclrhn_probe3,1,23,NaN,knife,boat,0.20,0023_nse_dnn_0.20_boat_10_n04612504_40672.png,n04612504_40672.png,0.0,-0.4091084,0.64765,-0.747241
alexnet_w1_mlp_simclrhn_probe3,1,24,NaN,elephant,dog,0.05,0024_nse_dnn_0.05_dog_10_n02098105_146.png,n02098105_146.png,0.0,-0.051231805,0.41447422,-0.3293039
alexnet_w1_mlp_simclrhn_probe3,1,25,NaN,clock,clock,0.03,0025_nse_dnn_0.03_clock_10_n02708093_5944.png,n02708093_5944.png,1.0,1.3052152,1.1070883,0.14009689
alexnet_w1_mlp_simclrhn_probe3,1,26,NaN,knife,cat,0.03,0026_nse_dnn_0.03_cat_10_n02124075_14021.png,n02124075_14021.png,0.0,0.13075854,0.63093007,-0.3536747
alexnet_w1_mlp_simclrhn_probe3,1,27,NaN,knife,bear,0.20,0027_nse_dnn_0.20_bear_10_n02133161_7184.png,n02133161_7184.png,0.0,0.03075508,0.2567919,-0.15983216
alexnet_w1_mlp_simclrhn_probe3,1,28,NaN,bottle,bottle,0.00,0028_nse_dnn_0.00_bottle_10_n03937543_9745.png,n03937543_9745.png,1.0,0.4825705,0.19167121,0.20569685
alexnet_w1_mlp_simclrhn_probe3,1,29,NaN,knife,airplane,0.60,0029_nse_dnn_0.60_airplane_10_n02690373_9605.png,n02690373_9605.png,0.0,-0.20720832,0.8616816,-0.75581926
alexnet_w1_mlp_simclrhn_probe3,1,30,NaN,knife,cat,0.20,0030_nse_dnn_0.20_cat_10_n02123045_7167.png,n02123045_7167.png,0.0,-0.15700188,0.37732854,-0.3778287
alexnet_w1_mlp_simclrhn_probe3,1,31,NaN,knife,airplane,0.05,0031_nse_dnn_0.05_airplane_10_n02690373_4706.png,n02690373_4706.png,0.0,0.3955593,0.8546003,-0.324591
alexnet_w1_mlp_simclrhn_probe3,1,32,NaN,knife,knife,0.35,0032_nse_dnn_0.35_knife_10_n03041632_45270.png,n03041632_45270.png,1.0,0.2604276,0.18891223,0.050569
alexnet_w1_mlp_simclrhn_probe3,1,33,NaN,knife,dog,0.35,0033_nse_dnn_0.35_dog_10_n02105855_9326.png,n02105855_9326.png,0.0,-0.08412741,0.3719855,-0.32252055
alexnet_w1_mlp_simclrhn_probe3,1,34,NaN,knife,bear,0.10,0034_nse_dnn_0.10_bear_10_n02134418_4349.png,n02134418_4349.png,0.0,0.284893,0.37896103,-0.06651614
alexnet_w1_mlp_simclrhn_probe3,1,35,NaN,cat,cat,0.00,0035_nse_dnn_0.00_cat_10_n02123159_469.png,n02123159_469.png,1.0,0.48557743,0.38092878,0.07399777
alexnet_w1_mlp_simclrhn_probe3,1,36,NaN,knife,truck,0.90,0036_nse_dnn_0.90_truck_10_n03417042_5004.png,n03417042_5004.png,0.0,-0.1825626,1.187218,-0.96858114
alexnet_w1_mlp_simclrhn_probe3,1,37,NaN,knife,bird,0.10,0037_nse_dnn_0.10_bird_10_n02051845_6333.png,n02051845_6333.png,0.0,-0.46516913,1.2446511,-1.2090255
alexnet_w1_mlp_simclrhn_probe3,1,38,NaN,keyboard,clock,0.90,0038_nse_dnn_0.90_clock_10_n03196217_12701.png,n03196217_12701.png,0.0,0.35976458,1.3510977,-0.7009784
alexnet_w1_mlp_simclrhn_probe3,1,39,NaN,knife,chair,0.60,0039_nse_dnn_0.60_chair_10_n03376595_12341.png,n03376595_12341.png,0.0,0.034346685,1.073102,-0.7345109
alexnet_w1_mlp_simclrhn_probe3,1,40,NaN,oven,bicycle,0.10,0040_nse_dnn_0.10_bicycle_10_n03792782_66837.png,n03792782_66837.png,0.0,0.17134497,0.25042453,-0.0559177
alexnet_w1_mlp_simclrhn_probe3,1,41,NaN,bicycle,bicycle,0.05,0041_nse_dnn_0.05_bicycle_10_n02835271_20177.png,n02835271_20177.png,1.0,2.1784866,0.43459564,1.2331172
alexnet_w1_mlp_simclrhn_probe3,1,42,NaN,knife,knife,0.00,0042_nse_dnn_0.00_knife_10_n03041632_22330.png,n03041632_22330.png,1.0,0.8501122,0.4204844,0.30379274
alexnet_w1_mlp_simclrhn_probe3,1,43,NaN,knife,cat,0.60,0043_nse_dnn_0.60_cat_10_n02123045_5913.png,n02123045_5913.png,0.0,-0.77507395,1.0614619,-1.298627
alexnet_w1_mlp_simclrhn_probe3,1,44,NaN,bear,elephant,0.20,0044_nse_dnn_0.20_elephant_10_n02504013_2464.png,n02504013_2464.png,0.0,0.31458774,0.3292721,-0.010383403
alexnet_w1_mlp_simclrhn_probe3,1,45,NaN,keyboard,knife,0.90,0045_nse_dnn_0.90_knife_10_n03041632_99460.png,n03041632_99460.png,0.0,1.2097502,1.2617352,-0.036758963
alexnet_w1_mlp_simclrhn_probe3,1,46,NaN,elephant,dog,0.00,0046_nse_dnn_0.00_dog_10_n02099601_8686.png,n02099601_8686.png,0.0,0.14873484,0.825518,-0.478558
alexnet_w1_mlp_simclrhn_probe3,1,47,NaN,knife,chair,0.90,0047_nse_dnn_0.90_chair_10_n02791124_5400.png,n02791124_5400.png,0.0,0.06824054,1.142803,-0.7598304
alexnet_w1_mlp_simclrhn_probe3,1,48,NaN,knife,chair,0.05,0048_nse_dnn_0.05_chair_10_n03376595_830.png,n03376595_830.png,0.0,0.045733694,0.3414858,-0.20912832
alexnet_w1_mlp_simclrhn_probe3,1,49,NaN,keyboard,cat,0.90,0049_nse_dnn_0.90_cat_10_n02124075_6024.png,n02124075_6024.png,0.0,-1.0430913,1.3576343,-1.6975694
alexnet_w1_mlp_simclrhn_probe3,1,50,NaN,bicycle,bicycle,0.10,0050_nse_dnn_0.10_bicycle_10_n03792782_9004.png,n03792782_9004.png,1.0,0.5595588,0.15225142,0.28800982
alexnet_w1_mlp_simclrhn_probe3,1,51,NaN,knife,keyboard,0.60,0051_nse_dnn_0.60_keyboard_10_n03085013_24088.png,n03085013_24088.png,0.0,0.6528779,0.9157616,-0.18588683
alexnet_w1_mlp_simclrhn_probe3,1,52,NaN,elephant,cat,0.10,0052_nse_dnn_0.10_cat_10_n02125311_33778.png,n02125311_33778.png,0.0,-0.10861963,0.24275489,-0.2484593
alexnet_w1_mlp_simclrhn_probe3,1,53,NaN,bicycle,bicycle,0.00,0053_nse_dnn_0.00_bicycle_10_n03792782_7092.png,n03792782_7092.png,1.0,4.772967,1.1804849,2.5402684
alexnet_w1_mlp_simclrhn_probe3,1,54,NaN,knife,airplane,0.35,0054_nse_dnn_0.35_airplane_10_n02690373_5724.png,n02690373_5724.png,0.0,-0.19411305,0.7831907,-0.6910581
alexnet_w1_mlp_simclrhn_probe3,1,55,NaN,knife,bear,0.60,0055_nse_dnn_0.60_bear_10_n02133161_5637.png,n02133161_5637.png,0.0,-0.6903466,0.85483897,-1.0926112
alexnet_w1_mlp_simclrhn_probe3,1,56,NaN,knife,bear,0.10,0056_nse_dnn_0.10_bear_10_n02132136_5365.png,n02132136_5365.png,0.0,0.031577636,0.27118364,-0.16942704
alexnet_w1_mlp_simclrhn_probe3,1,57,NaN,knife,car,0.35,0057_nse_dnn_0.35_car_10_n03100240_1702.png,n03100240_1702.png,0.0,-0.42514965,0.6277952,-0.7445445
alexnet_w1_mlp_simclrhn_probe3,1,58,NaN,knife,oven,0.35,0058_nse_dnn_0.35_oven_10_n04111531_2677.png,n04111531_2677.png,0.0,-1.0370805,0.5103289,-1.0941837
alexnet_w1_mlp_simclrhn_probe3,1,59,NaN,oven,oven,0.05,0059_nse_dnn_0.05_oven_10_n04111531_16583.png,n04111531_16583.png,1.0,1.3474504,1.0380621,0.21877055
alexnet_w1_mlp_simclrhn_probe3,1,60,NaN,bicycle,chair,0.10,0060_nse_dnn_0.10_chair_10_n04099969_6266.png,n04099969_6266.png,0.0,0.5167217,0.80401003,-0.2031435
alexnet_w1_mlp_simclrhn_probe3,1,61,NaN,knife,oven,0.60,0061_nse_dnn_0.60_oven_10_n04111531_6695.png,n04111531_6695.png,0.0,-2.4514358,0.9394523,-2.39772
alexnet_w1_mlp_simclrhn_probe3,1,62,NaN,knife,car,0.10,0062_nse_dnn_0.10_car_10_n03100240_1438.png,n03100240_1438.png,0.0,-0.4640883,0.7943455,-0.8898471
alexnet_w1_mlp_simclrhn_probe3,1,63,NaN,keyboard,keyboard,0.20,0063_nse_dnn_0.20_keyboard_10_n04505470_4684.png,n04505470_4684.png,1.0,0.23312996,0.093478076,0.0987488
alexnet_w1_mlp_simclrhn_probe3,1,64,NaN,chair,chair,0.00,0064_nse_dnn_0.00_chair_10_n04099969_8021.png,n04099969_8021.png,1.0,0.8472047,0.67409813,0.12240482
alexnet_w1_mlp_simclrhn_probe3,1,65,NaN,knife,car,0.20,0065_nse_dnn_0.20_car_10_n04285008_7139.png,n04285008_7139.png,0.0,-0.47587875,0.3328498,-0.57185745
alexnet_w1_mlp_simclrhn_probe3,1,66,NaN,truck,truck,0.03,0066_nse_dnn_0.03_truck_10_n03796401_9207.png,n03796401_9207.png,1.0,1.5400906,0.6168873,0.6528033
alexnet_w1_mlp_simclrhn_probe3,1,67,NaN,elephant,bottle,0.05,0067_nse_dnn_0.05_bottle_10_n04560804_3651.png,n04560804_3651.png,0.0,0.061252415,0.7225748,-0.46762553
alexnet_w1_mlp_simclrhn_probe3,1,68,NaN,knife,chair,0.60,0068_nse_dnn_0.60_chair_10_n03376595_3010.png,n03376595_3010.png,0.0,0.049667746,0.9990859,-0.67134005
alexnet_w1_mlp_simclrhn_probe3,1,69,NaN,knife,bird,0.90,0069_nse_dnn_0.90_bird_10_n01514859_1951.png,n01514859_1951.png,0.0,-0.61457145,1.3416908,-1.3832864
alexnet_w1_mlp_simclrhn_probe3,1,70,NaN,car,car,0.10,0070_nse_dnn_0.10_car_10_n03100240_4594.png,n03100240_4594.png,1.0,0.5614371,0.27563155,0.20209503
alexnet_w1_mlp_simclrhn_probe3,1,71,NaN,knife,clock,0.35,0071_nse_dnn_0.35_clock_10_n03196217_3333.png,n03196217_3333.png,0.0,0.15861537,0.659611,-0.3542574
alexnet_w1_mlp_simclrhn_probe3,1,72,NaN,oven,car,0.10,0072_nse_dnn_0.10_car_10_n02814533_90798.png,n02814533_90798.png,0.0,-0.40521455,0.803527,-0.8547094
alexnet_w1_mlp_simclrhn_probe3,1,73,NaN,knife,keyboard,0.00,0073_nse_dnn_0.00_keyboard_10_n03085013_19547.png,n03085013_19547.png,0.0,0.76388466,1.438231,-0.47683486
alexnet_w1_mlp_simclrhn_probe3,1,74,NaN,oven,bear,0.05,0074_nse_dnn_0.05_bear_10_n02133161_545.png,n02133161_545.png,0.0,0.12087586,0.35263008,-0.16387498
alexnet_w1_mlp_simclrhn_probe3,1,75,NaN,knife,oven,0.90,0075_nse_dnn_0.90_oven_10_n04111531_6489.png,n04111531_6489.png,0.0,-2.6884577,0.8896998,-2.5301394
alexnet_w1_mlp_simclrhn_probe3,1,76,NaN,knife,dog,0.90,0076_nse_dnn_0.90_dog_10_n02105056_15299.png,n02105056_15299.png,0.0,-0.17650391,1.259408,-1.0153431
alexnet_w1_mlp_simclrhn_probe3,1,77,NaN,knife,knife,0.05,0077_nse_dnn_0.05_knife_10_n03041632_33255.png,n03041632_33255.png,1.0,0.64099866,0.497983,0.10112734
alexnet_w1_mlp_simclrhn_probe3,1,78,NaN,knife,cat,0.20,0078_nse_dnn_0.20_cat_10_n02123394_5895.png,n02123394_5895.png,0.0,-0.23893951,0.4856087,-0.512333
alexnet_w1_mlp_simclrhn_probe3,1,79,NaN,knife,bottle,0.03,0079_nse_dnn_0.03_bottle_10_n03983396_11654.png,n03983396_11654.png,0.0,0.21296783,0.574147,-0.25539225
alexnet_w1_mlp_simclrhn_probe3,1,80,NaN,airplane,airplane,0.03,0080_nse_dnn_0.03_airplane_10_n02690373_3860.png,n02690373_3860.png,1.0,0.7259592,0.5369481,0.13365103
alexnet_w1_mlp_simclrhn_probe3,1,81,NaN,oven,oven,0.03,0081_nse_dnn_0.03_oven_10_n04111531_6415.png,n04111531_6415.png,1.0,0.70874727,0.32922032,0.26836607
alexnet_w1_mlp_simclrhn_probe3,1,82,NaN,knife,knife,0.60,0082_nse_dnn_0.60_knife_10_n03041632_39342.png,n03041632_39342.png,1.0,1.0841137,0.58371365,0.3538363
alexnet_w1_mlp_simclrhn_probe3,1,83,NaN,knife,bear,0.60,0083_nse_dnn_0.60_bear_10_n02133161_4882.png,n02133161_4882.png,0.0,-0.4950098,0.914671,-0.9967949
alexnet_w1_mlp_simclrhn_probe3,1,84,NaN,bottle,bottle,0.00,0084_nse_dnn_0.00_bottle_10_n04591713_7474.png,n04591713_7474.png,1.0,0.8817768,0.45860294,0.29922912
alexnet_w1_mlp_simclrhn_probe3,1,85,NaN,elephant,bear,0.20,0085_nse_dnn_0.20_bear_10_n02132136_17615.png,n02132136_17615.png,0.0,0.13278249,0.28841043,-0.11004557
alexnet_w1_mlp_simclrhn_probe3,1,86,NaN,knife,boat,0.60,0086_nse_dnn_0.60_boat_10_n03344393_382.png,n03344393_382.png,0.0,-0.6195115,1.019669,-1.1590757
alexnet_w1_mlp_simclrhn_probe3,1,87,NaN,airplane,truck,0.00,0087_nse_dnn_0.00_truck_10_n03796401_27811.png,n03796401_27811.png,0.0,1.3730547,1.7551546,-0.2701854
alexnet_w1_mlp_simclrhn_probe3,1,88,NaN,knife,keyboard,0.60,0088_nse_dnn_0.60_keyboard_10_n04505470_2603.png,n04505470_2603.png,0.0,0.3790793,0.8218135,-0.31306037
alexnet_w1_mlp_simclrhn_probe3,1,89,NaN,knife,boat,0.35,0089_nse_dnn_0.35_boat_10_n03662601_16418.png,n03662601_16418.png,0.0,-0.41405073,0.6050995,-0.72064805
alexnet_w1_mlp_simclrhn_probe3,1,90,NaN,knife,bear,0.35,0090_nse_dnn_0.35_bear_10_n02132136_2760.png,n02132136_2760.png,0.0,-0.04161279,0.62887645,-0.4741075
alexnet_w1_mlp_simclrhn_probe3,1,91,NaN,bicycle,bicycle,0.05,0091_nse_dnn_0.05_bicycle_10_n02835271_10271.png,n02835271_10271.png,1.0,1.3938283,0.37087262,0.7233389
alexnet_w1_mlp_simclrhn_probe3,1,92,NaN,knife,bear,0.10,0092_nse_dnn_0.10_bear_10_n02134084_9127.png,n02134084_9127.png,0.0,0.11040989,0.3318811,-0.1566038
alexnet_w1_mlp_simclrhn_probe3,1,93,NaN,knife,bird,0.20,0093_nse_dnn_0.20_bird_10_n01797886_551.png,n01797886_551.png,0.0,-0.23880292,0.49203378,-0.5167796
alexnet_w1_mlp_simclrhn_probe3,1,94,NaN,knife,truck,0.10,0094_nse_dnn_0.10_truck_10_n03417042_9559.png,n03417042_9559.png,0.0,-0.35319257,0.44785887,-0.5664289
alexnet_w1_mlp_simclrhn_probe3,1,95,NaN,knife,clock,0.90,0095_nse_dnn_0.90_clock_10_n02708093_3114.png,n02708093_3114.png,0.0,0.3545188,1.2940611,-0.66435677
alexnet_w1_mlp_simclrhn_probe3,1,96,NaN,knife,bicycle,0.05,0096_nse_dnn_0.05_bicycle_10_n03792782_122.png,n03792782_122.png,0.0,0.14609222,0.37507087,-0.16191235
alexnet_w1_mlp_simclrhn_probe3,1,97,NaN,knife,oven,0.35,0097_nse_dnn_0.35_oven_10_n04111531_3702.png,n04111531_3702.png,0.0,-1.4105406,0.72794074,-1.5121347
alexnet_w1_mlp_simclrhn_probe3,1,98,NaN,knife,car,0.90,0098_nse_dnn_0.90_car_10_n02814533_93476.png,n02814533_93476.png,0.0,-0.4348705,1.1687487,-1.1339301
alexnet_w1_mlp_simclrhn_probe3,1,99,NaN,knife,cat,0.35,0099_nse_dnn_0.35_cat_10_n02123045_8491.png,n02123045_8491.png,0.0,-0.5252118,0.5545602,-0.7635141
alexnet_w1_mlp_simclrhn_probe3,1,100,NaN,knife,chair,0.35,0100_nse_dnn_0.35_chair_10_n02791124_13469.png,n02791124_13469.png,0.0,0.024656057,0.5186297,-0.34929213
alexnet_w1_mlp_simclrhn_probe3,1,101,NaN,knife,dog,0.60,0101_nse_dnn_0.60_dog_10_n02096294_5451.png,n02096294_5451.png,0.0,-0.14403234,1.115301,-0.8904832
alexnet_w1_mlp_simclrhn_probe3,1,102,NaN,knife,bicycle,0.35,0102_nse_dnn_0.35_bicycle_10_n03792782_44296.png,n03792782_44296.png,0.0,-0.06455381,0.44434953,-0.359849
alexnet_w1_mlp_simclrhn_probe3,1,103,NaN,knife,cat,0.90,0103_nse_dnn_0.90_cat_10_n02123597_7138.png,n02123597_7138.png,0.0,-0.9752032,1.1453071,-1.4994273
alexnet_w1_mlp_simclrhn_probe3,1,104,NaN,knife,bottle,0.35,0104_nse_dnn_0.35_bottle_10_n04560804_12736.png,n04560804_12736.png,0.0,-0.39039034,0.6608452,-0.7433358
alexnet_w1_mlp_simclrhn_probe3,1,105,NaN,knife,oven,0.60,0105_nse_dnn_0.60_oven_10_n04111531_22797.png,n04111531_22797.png,0.0,-2.428936,1.1431,-2.525811
alexnet_w1_mlp_simclrhn_probe3,1,106,NaN,elephant,bird,0.10,0106_nse_dnn_0.10_bird_10_n02007558_7446.png,n02007558_7446.png,0.0,-0.15539247,0.39862436,-0.39174905
alexnet_w1_mlp_simclrhn_probe3,1,107,NaN,knife,boat,0.60,0107_nse_dnn_0.60_boat_10_n03662601_16441.png,n03662601_16441.png,0.0,-0.39500993,1.0837996,-1.0456764
alexnet_w1_mlp_simclrhn_probe3,1,108,NaN,knife,oven,0.60,0108_nse_dnn_0.60_oven_10_n04111531_22386.png,n04111531_22386.png,0.0,-2.4915864,1.1172657,-2.551844
alexnet_w1_mlp_simclrhn_probe3,1,109,NaN,airplane,airplane,0.00,0109_nse_dnn_0.00_airplane_10_n02690373_1381.png,n02690373_1381.png,1.0,4.0757256,0.7456051,2.3547509
alexnet_w1_mlp_simclrhn_probe3,1,110,NaN,knife,keyboard,0.20,0110_nse_dnn_0.20_keyboard_10_n03085013_20779.png,n03085013_20779.png,0.0,-0.19758853,0.28545666,-0.34156454
alexnet_w1_mlp_simclrhn_probe3,1,111,NaN,knife,dog,0.90,0111_nse_dnn_0.90_dog_10_n02095570_9488.png,n02095570_9488.png,0.0,-0.18486361,1.110054,-0.915645
alexnet_w1_mlp_simclrhn_probe3,1,112,NaN,cat,dog,0.03,0112_nse_dnn_0.03_dog_10_n02107312_3262.png,n02107312_3262.png,0.0,1.170561,1.2284876,-0.04096033
alexnet_w1_mlp_simclrhn_probe3,1,113,NaN,oven,oven,0.03,0113_nse_dnn_0.03_oven_10_n04111531_10681.png,n04111531_10681.png,1.0,1.0503728,0.43730268,0.43350604
alexnet_w1_mlp_simclrhn_probe3,1,114,NaN,knife,knife,0.90,0114_nse_dnn_0.90_knife_10_n03041632_29285.png,n03041632_29285.png,1.0,1.19594,1.1701125,0.01826282
alexnet_w1_mlp_simclrhn_probe3,1,115,NaN,knife,elephant,0.60,0115_nse_dnn_0.60_elephant_10_n02504458_4776.png,n02504458_4776.png,0.0,-0.53242624,1.0337521,-1.1074554
alexnet_w1_mlp_simclrhn_probe3,1,116,NaN,cat,boat,0.10,0116_nse_dnn_0.10_boat_10_n04273569_11940.png,n04273569_11940.png,0.0,-0.20754263,0.12752293,-0.23692712
alexnet_w1_mlp_simclrhn_probe3,1,117,NaN,elephant,cat,0.20,0117_nse_dnn_0.20_cat_10_n02123159_1413.png,n02123159_1413.png,0.0,-0.15025692,0.19963989,-0.2474144
alexnet_w1_mlp_simclrhn_probe3,1,118,NaN,knife,airplane,0.60,0118_nse_dnn_0.60_airplane_10_n02690373_6674.png,n02690373_6674.png,0.0,-0.12799622,1.2186168,-0.9521992
alexnet_w1_mlp_simclrhn_probe3,1,119,NaN,knife,clock,0.35,0119_nse_dnn_0.35_clock_10_n04548280_5088.png,n04548280_5088.png,0.0,0.014659901,0.73200214,-0.50723755
alexnet_w1_mlp_simclrhn_probe3,1,120,NaN,clock,clock,0.05,0120_nse_dnn_0.05_clock_10_n02708093_6624.png,n02708093_6624.png,1.0,0.3539439,0.29094496,0.044546984
alexnet_w1_mlp_simclrhn_probe3,1,121,NaN,knife,bicycle,0.20,0121_nse_dnn_0.20_bicycle_10_n03792782_29108.png,n03792782_29108.png,0.0,-0.11179937,0.19854286,-0.2194451
alexnet_w1_mlp_simclrhn_probe3,1,122,NaN,knife,clock,0.20,0122_nse_dnn_0.20_clock_10_n04548280_8649.png,n04548280_8649.png,0.0,0.0075455806,0.62554353,-0.43699056
alexnet_w1_mlp_simclrhn_probe3,1,123,NaN,elephant,knife,0.05,0123_nse_dnn_0.05_knife_10_n03041632_737.png,n03041632_737.png,0.0,0.40942526,0.59963685,-0.13449991
alexnet_w1_mlp_simclrhn_probe3,1,124,NaN,clock,clock,0.10,0124_nse_dnn_0.10_clock_10_n04548280_8668.png,n04548280_8668.png,1.0,1.3636996,0.6998618,0.46940416
alexnet_w1_mlp_simclrhn_probe3,1,125,NaN,bicycle,bird,0.03,0125_nse_dnn_0.03_bird_10_n01558993_34885.png,n01558993_34885.png,0.0,0.30208948,0.532072,-0.1626222
alexnet_w1_mlp_simclrhn_probe3,1,126,NaN,knife,truck,0.60,0126_nse_dnn_0.60_truck_10_n04467665_37833.png,n04467665_37833.png,0.0,-0.23807965,1.178865,-1.0019312
alexnet_w1_mlp_simclrhn_probe3,1,127,NaN,knife,boat,0.05,0127_nse_dnn_0.05_boat_10_n03662601_5176.png,n03662601_5176.png,0.0,0.16154116,0.5995711,-0.30973396
alexnet_w1_mlp_simclrhn_probe3,1,128,NaN,chair,chair,0.00,0128_nse_dnn_0.00_chair_10_n03376595_9139.png,n03376595_9139.png,1.0,2.038342,1.1533567,0.62577915
alexnet_w1_mlp_simclrhn_probe3,1,129,NaN,knife,oven,0.90,0129_nse_dnn_0.90_oven_10_n04111531_6211.png,n04111531_6211.png,0.0,-3.357357,1.1577051,-3.1926312
alexnet_w1_mlp_simclrhn_probe3,1,130,NaN,boat,boat,0.00,0130_nse_dnn_0.00_boat_10_n04273569_11427.png,n04273569_11427.png,1.0,0.94413507,0.3820961,0.39742157
alexnet_w1_mlp_simclrhn_probe3,1,131,NaN,oven,bicycle,0.05,0131_nse_dnn_0.05_bicycle_10_n03792782_17198.png,n03792782_17198.png,0.0,0.48017007,0.77033937,-0.20518069
alexnet_w1_mlp_simclrhn_probe3,1,132,NaN,oven,clock,0.00,0132_nse_dnn_0.00_clock_10_n04548280_4560.png,n04548280_4560.png,0.0,1.3402787,1.3924937,-0.03692157
alexnet_w1_mlp_simclrhn_probe3,1,133,NaN,oven,knife,0.03,0133_nse_dnn_0.03_knife_10_n03041632_3781.png,n03041632_3781.png,0.0,0.34274206,0.89966017,-0.39380062
alexnet_w1_mlp_simclrhn_probe3,1,134,NaN,knife,clock,0.10,0134_nse_dnn_0.10_clock_10_n03196217_958.png,n03196217_958.png,0.0,0.16827661,0.65677285,-0.34541902
alexnet_w1_mlp_simclrhn_probe3,1,135,NaN,elephant,elephant,0.35,0135_nse_dnn_0.35_elephant_10_n02504458_485.png,n02504458_485.png,1.0,0.3598813,0.23393264,0.08905916
alexnet_w1_mlp_simclrhn_probe3,1,136,NaN,bicycle,clock,0.00,0136_nse_dnn_0.00_clock_10_n02708093_1038.png,n02708093_1038.png,0.0,0.57217807,1.288378,-0.50642985
alexnet_w1_mlp_simclrhn_probe3,1,137,NaN,oven,oven,0.03,0137_nse_dnn_0.03_oven_10_n04111531_1723.png,n04111531_1723.png,1.0,1.0883777,0.39707205,0.4888269
alexnet_w1_mlp_simclrhn_probe3,1,138,NaN,dog,dog,0.03,0138_nse_dnn_0.03_dog_10_n02110806_27169.png,n02110806_27169.png,1.0,0.7326145,0.28095075,0.3193745
alexnet_w1_mlp_simclrhn_probe3,1,139,NaN,airplane,airplane,0.00,0139_nse_dnn_0.00_airplane_10_n02690373_12505.png,n02690373_12505.png,1.0,2.5123327,0.49755976,1.4246596
alexnet_w1_mlp_simclrhn_probe3,1,140,NaN,knife,bird,0.60,0140_nse_dnn_0.60_bird_10_n01828970_454.png,n01828970_454.png,0.0,-0.48444656,0.8214551,-0.9234119
alexnet_w1_mlp_simclrhn_probe3,1,141,NaN,knife,oven,0.20,0141_nse_dnn_0.20_oven_10_n04111531_15635.png,n04111531_15635.png,0.0,-0.58794045,0.56542695,-0.8155539
alexnet_w1_mlp_simclrhn_probe3,1,142,NaN,oven,car,0.00,0142_nse_dnn_0.00_car_10_n04285008_8700.png,n04285008_8700.png,0.0,-0.24324949,0.90147316,-0.8094412
alexnet_w1_mlp_simclrhn_probe3,1,143,NaN,knife,keyboard,0.05,0143_nse_dnn_0.05_keyboard_10_n04505470_4592.png,n04505470_4592.png,0.0,0.57360685,0.7727773,-0.1408348
alexnet_w1_mlp_simclrhn_probe3,1,144,NaN,knife,boat,0.20,0144_nse_dnn_0.20_boat_10_n03344393_9560.png,n03344393_9560.png,0.0,-0.2615207,0.6753768,-0.6624866
alexnet_w1_mlp_simclrhn_probe3,1,145,NaN,bear,bear,0.00,0145_nse_dnn_0.00_bear_10_n02132136_5138.png,n02132136_5138.png,1.0,0.5671278,0.49353758,0.052036166
alexnet_w1_mlp_simclrhn_probe3,1,146,NaN,knife,chair,0.60,0146_nse_dnn_0.60_chair_10_n03376595_591.png,n03376595_591.png,0.0,0.04946769,0.9537872,-0.6394505
alexnet_w1_mlp_simclrhn_probe3,1,147,NaN,knife,keyboard,0.90,0147_nse_dnn_0.90_keyboard_10_n03085013_20590.png,n03085013_20590.png,0.0,1.1745889,1.1842282,-0.0068159886
alexnet_w1_mlp_simclrhn_probe3,1,148,NaN,knife,dog,0.35,0148_nse_dnn_0.35_dog_10_n02094258_1224.png,n02094258_1224.png,0.0,-0.12487913,0.6922127,-0.5777712
alexnet_w1_mlp_simclrhn_probe3,1,149,NaN,knife,clock,0.20,0149_nse_dnn_0.20_clock_10_n03196217_4486.png,n03196217_4486.png,0.0,0.10013295,0.48761022,-0.27398783
alexnet_w1_mlp_simclrhn_probe3,1,150,NaN,knife,bear,0.20,0150_nse_dnn_0.20_bear_10_n02134084_22150.png,n02134084_22150.png,0.0,-0.05175249,0.54096127,-0.41911194
alexnet_w1_mlp_simclrhn_probe3,1,151,NaN,cat,cat,0.10,0151_nse_dnn_0.10_cat_10_n02123045_3098.png,n02123045_3098.png,1.0,0.9448765,0.38414273,0.39649868
alexnet_w1_mlp_simclrhn_probe3,1,152,NaN,bear,bear,0.20,0152_nse_dnn_0.20_bear_10_n02134418_271.png,n02134418_271.png,1.0,0.39992273,0.2858108,0.08068932
alexnet_w1_mlp_simclrhn_probe3,1,153,NaN,oven,oven,0.05,0153_nse_dnn_0.05_oven_10_n04111531_274.png,n04111531_274.png,1.0,0.6663341,0.09662669,0.40284398
alexnet_w1_mlp_simclrhn_probe3,1,154,NaN,knife,knife,0.35,0154_nse_dnn_0.35_knife_10_n03041632_8563.png,n03041632_8563.png,1.0,0.5090028,0.2540588,0.18027264
alexnet_w1_mlp_simclrhn_probe3,1,155,NaN,car,car,0.00,0155_nse_dnn_0.00_car_10_n02814533_52389.png,n02814533_52389.png,1.0,6.3057957,3.9390583,1.6735361
alexnet_w1_mlp_simclrhn_probe3,1,156,NaN,airplane,airplane,0.00,0156_nse_dnn_0.00_airplane_10_n02690373_10455.png,n02690373_10455.png,1.0,1.0704956,0.8485305,0.15695305
alexnet_w1_mlp_simclrhn_probe3,1,157,NaN,knife,truck,0.35,0157_nse_dnn_0.35_truck_10_n04467665_4810.png,n04467665_4810.png,0.0,-0.22957894,0.6569361,-0.6268608
alexnet_w1_mlp_simclrhn_probe3,1,158,NaN,knife,knife,0.10,0158_nse_dnn_0.10_knife_10_n03041632_3159.png,n03041632_3159.png,1.0,0.8239528,0.09611485,0.51465917
alexnet_w1_mlp_simclrhn_probe3,1,159,NaN,knife,cat,0.05,0159_nse_dnn_0.05_cat_10_n02123597_13411.png,n02123597_13411.png,0.0,-0.055819005,0.55437374,-0.43147147
alexnet_w1_mlp_simclrhn_probe3,1,160,NaN,knife,clock,0.10,0160_nse_dnn_0.10_clock_10_n04548280_2654.png,n04548280_2654.png,0.0,0.401122,0.8373746,-0.3084772
alexnet_w1_mlp_simclrhn_probe3,1,161,NaN,keyboard,elephant,0.90,0161_nse_dnn_0.90_elephant_10_n02504013_405.png,n02504013_405.png,0.0,-0.48891866,1.2218509,-1.2096968
alexnet_w1_mlp_simclrhn_probe3,1,162,NaN,elephant,bottle,0.05,0162_nse_dnn_0.05_bottle_10_n04560804_14729.png,n04560804_14729.png,0.0,-0.034373436,1.0541403,-0.76969546
alexnet_w1_mlp_simclrhn_probe3,1,163,NaN,knife,bottle,0.90,0163_nse_dnn_0.90_bottle_10_n02823428_5482.png,n02823428_5482.png,0.0,-0.8694907,1.1890469,-1.4556059
alexnet_w1_mlp_simclrhn_probe3,1,164,NaN,knife,keyboard,0.90,0164_nse_dnn_0.90_keyboard_10_n04505470_4824.png,n04505470_4824.png,0.0,1.1220365,1.2300658,-0.0763883
alexnet_w1_mlp_simclrhn_probe3,1,165,NaN,knife,chair,0.20,0165_nse_dnn_0.20_chair_10_n04099969_14208.png,n04099969_14208.png,0.0,0.019761894,0.47424528,-0.3213683
alexnet_w1_mlp_simclrhn_probe3,1,166,NaN,elephant,elephant,0.00,0166_nse_dnn_0.00_elephant_10_n02504013_1647.png,n02504013_1647.png,1.0,4.609499,1.5495392,2.1637185
alexnet_w1_mlp_simclrhn_probe3,1,167,NaN,elephant,cat,0.20,0167_nse_dnn_0.20_cat_10_n02123597_11564.png,n02123597_11564.png,0.0,0.23409216,0.27319074,-0.02764687
alexnet_w1_mlp_simclrhn_probe3,1,168,NaN,knife,car,0.35,0168_nse_dnn_0.35_car_10_n03100240_16653.png,n03100240_16653.png,0.0,-0.37425137,0.78114885,-0.8169914
alexnet_w1_mlp_simclrhn_probe3,1,169,NaN,keyboard,oven,0.00,0169_nse_dnn_0.00_oven_10_n04111531_9611.png,n04111531_9611.png,0.0,0.2022964,0.9960948,-0.5613003
alexnet_w1_mlp_simclrhn_probe3,1,170,NaN,elephant,car,0.05,0170_nse_dnn_0.05_car_10_n02814533_35054.png,n02814533_35054.png,0.0,-0.20996459,0.36678392,-0.4078228
alexnet_w1_mlp_simclrhn_probe3,1,171,NaN,elephant,oven,0.20,0171_nse_dnn_0.20_oven_10_n04111531_3121.png,n04111531_3121.png,0.0,0.1263443,0.15206288,-0.018185785
alexnet_w1_mlp_simclrhn_probe3,1,172,NaN,elephant,chair,0.20,0172_nse_dnn_0.20_chair_10_n02791124_4969.png,n02791124_4969.png,0.0,0.12633795,0.43323964,-0.21701227
alexnet_w1_mlp_simclrhn_probe3,1,173,NaN,knife,car,0.20,0173_nse_dnn_0.20_car_10_n02814533_211.png,n02814533_211.png,0.0,-0.40015975,0.16395418,-0.39888877
alexnet_w1_mlp_simclrhn_probe3,1,174,NaN,dog,dog,0.00,0174_nse_dnn_0.00_dog_10_n02091244_13118.png,n02091244_13118.png,1.0,0.7372415,0.38193095,0.25124252
alexnet_w1_mlp_simclrhn_probe3,1,175,NaN,bottle,bottle,0.10,0175_nse_dnn_0.10_bottle_10_n04560804_3597.png,n04560804_3597.png,1.0,0.55050683,0.49920604,0.03627514
alexnet_w1_mlp_simclrhn_probe3,1,176,NaN,knife,bottle,0.60,0176_nse_dnn_0.60_bottle_10_n04560804_30885.png,n04560804_30885.png,0.0,-0.6345502,1.0131326,-1.1650877
alexnet_w1_mlp_simclrhn_probe3,1,177,NaN,keyboard,bottle,0.60,0177_nse_dnn_0.60_bottle_10_n04560804_9813.png,n04560804_9813.png,0.0,-0.7402609,0.97323483,-1.2116245
alexnet_w1_mlp_simclrhn_probe3,1,178,NaN,knife,boat,0.35,0178_nse_dnn_0.35_boat_10_n02951358_10003.png,n02951358_10003.png,0.0,-0.18797393,0.7278979,-0.6476192
alexnet_w1_mlp_simclrhn_probe3,1,179,NaN,knife,bear,0.35,0179_nse_dnn_0.35_bear_10_n02133161_1500.png,n02133161_1500.png,0.0,-0.30620047,0.7459298,-0.7439684
alexnet_w1_mlp_simclrhn_probe3,1,180,NaN,knife,oven,0.20,0180_nse_dnn_0.20_oven_10_n04111531_4467.png,n04111531_4467.png,0.0,-0.03333039,0.78720576,-0.5802067
alexnet_w1_mlp_simclrhn_probe3,1,181,NaN,knife,clock,0.20,0181_nse_dnn_0.20_clock_10_n02708093_8002.png,n02708093_8002.png,0.0,-0.11574507,0.30553207,-0.29788792
alexnet_w1_mlp_simclrhn_probe3,1,182,NaN,knife,boat,0.90,0182_nse_dnn_0.90_boat_10_n02951358_34261.png,n02951358_34261.png,0.0,-0.6374496,1.208039,-1.3049576
alexnet_w1_mlp_simclrhn_probe3,1,183,NaN,boat,boat,0.00,0183_nse_dnn_0.00_boat_10_n04612504_20067.png,n04612504_20067.png,1.0,4.233046,1.908322,1.6438283
alexnet_w1_mlp_simclrhn_probe3,1,184,NaN,knife,clock,0.35,0184_nse_dnn_0.35_clock_10_n03196217_6163.png,n03196217_6163.png,0.0,0.22358684,0.7569357,-0.3771346
alexnet_w1_mlp_simclrhn_probe3,1,185,NaN,keyboard,keyboard,0.03,0185_nse_dnn_0.03_keyboard_10_n03085013_23119.png,n03085013_23119.png,1.0,0.85080254,0.5630039,0.20350437
alexnet_w1_mlp_simclrhn_probe3,1,186,NaN,knife,clock,0.60,0186_nse_dnn_0.60_clock_10_n04548280_4358.png,n04548280_4358.png,0.0,0.291756,1.0654535,-0.5470868
alexnet_w1_mlp_simclrhn_probe3,1,187,NaN,bear,dog,0.05,0187_nse_dnn_0.05_dog_10_n02101388_2968.png,n02101388_2968.png,0.0,0.22602098,0.63283086,-0.287658
alexnet_w1_mlp_simclrhn_probe3,1,188,NaN,oven,oven,0.10,0188_nse_dnn_0.10_oven_10_n04111531_8081.png,n04111531_8081.png,1.0,0.68449455,0.42374507,0.18437773
alexnet_w1_mlp_simclrhn_probe3,1,189,NaN,knife,keyboard,0.05,0189_nse_dnn_0.05_keyboard_10_n04505470_4994.png,n04505470_4994.png,0.0,1.0251681,1.3445059,-0.22580595
alexnet_w1_mlp_simclrhn_probe3,1,190,NaN,bear,dog,0.10,0190_nse_dnn_0.10_dog_10_n02101006_16132.png,n02101006_16132.png,0.0,0.12412138,0.44147843,-0.22440533
alexnet_w1_mlp_simclrhn_probe3,1,191,NaN,elephant,elephant,0.10,0191_nse_dnn_0.10_elephant_10_n02504458_6888.png,n02504458_6888.png,1.0,0.7340399,0.31104907,0.29909968
alexnet_w1_mlp_simclrhn_probe3,1,192,NaN,knife,bird,0.60,0192_nse_dnn_0.60_bird_10_n02018207_43958.png,n02018207_43958.png,0.0,-0.5814033,1.0816647,-1.1759667
alexnet_w1_mlp_simclrhn_probe3,1,193,NaN,cat,cat,0.03,0193_nse_dnn_0.03_cat_10_n02123045_2719.png,n02123045_2719.png,1.0,3.6512015,0.16360205,2.4661052
alexnet_w1_mlp_simclrhn_probe3,1,194,NaN,keyboard,keyboard,0.05,0194_nse_dnn_0.05_keyboard_10_n03085013_5611.png,n03085013_5611.png,1.0,2.2224584,0.40467092,1.2853699
alexnet_w1_mlp_simclrhn_probe3,1,195,NaN,boat,boat,0.03,0195_nse_dnn_0.03_boat_10_n03344393_6892.png,n03344393_6892.png,1.0,0.46252704,0.41355097,0.03463131
alexnet_w1_mlp_simclrhn_probe3,1,196,NaN,knife,chair,0.90,0196_nse_dnn_0.90_chair_10_n02791124_5411.png,n02791124_5411.png,0.0,0.06297484,1.2718304,-0.85479003
alexnet_w1_mlp_simclrhn_probe3,1,197,NaN,elephant,elephant,0.05,0197_nse_dnn_0.05_elephant_10_n02504013_8391.png,n02504013_8391.png,1.0,2.7431626,1.0377035,1.2059417
alexnet_w1_mlp_simclrhn_probe3,1,198,NaN,knife,chair,0.60,0198_nse_dnn_0.60_chair_10_n02791124_7167.png,n02791124_7167.png,0.0,0.012993082,0.89958775,-0.6269171
alexnet_w1_mlp_simclrhn_probe3,1,199,NaN,oven,truck,0.10,0199_nse_dnn_0.10_truck_10_n03417042_2170.png,n03417042_2170.png,0.0,-0.30718607,0.46727994,-0.5476302
alexnet_w1_mlp_simclrhn_probe3,1,200,NaN,knife,chair,0.35,0200_nse_dnn_0.35_chair_10_n04099969_2109.png,n04099969_2109.png,0.0,0.09068374,0.43468678,-0.24324687
alexnet_w1_mlp_simclrhn_probe3,1,201,NaN,knife,chair,0.90,0201_nse_dnn_0.90_chair_10_n04429376_7321.png,n04429376_7321.png,0.0,0.047959015,1.239907,-0.8428346
alexnet_w1_mlp_simclrhn_probe3,1,202,NaN,knife,airplane,0.35,0202_nse_dnn_0.35_airplane_10_n02690373_1733.png,n02690373_1733.png,0.0,-0.168687,0.73894346,-0.64179164
alexnet_w1_mlp_simclrhn_probe3,1,203,NaN,knife,bird,0.10,0203_nse_dnn_0.10_bird_10_n02006656_5719.png,n02006656_5719.png,0.0,-0.18439853,0.22644225,-0.2905083
alexnet_w1_mlp_simclrhn_probe3,1,204,NaN,bicycle,bicycle,0.03,0204_nse_dnn_0.03_bicycle_10_n03792782_12354.png,n03792782_12354.png,1.0,1.464586,0.20070404,0.89369947
alexnet_w1_mlp_simclrhn_probe3,1,205,NaN,bottle,bottle,0.03,0205_nse_dnn_0.03_bottle_10_n04557648_12671.png,n04557648_12671.png,1.0,2.7768614,0.398305,1.6818935
alexnet_w1_mlp_simclrhn_probe3,1,206,NaN,elephant,elephant,0.05,0206_nse_dnn_0.05_elephant_10_n02504013_318.png,n02504013_318.png,1.0,1.5973978,0.5579242,0.7350188
alexnet_w1_mlp_simclrhn_probe3,1,207,NaN,keyboard,boat,0.90,0207_nse_dnn_0.90_boat_10_n04273569_16078.png,n04273569_16078.png,0.0,-0.7202948,1.1948117,-1.3541849
alexnet_w1_mlp_simclrhn_probe3,1,208,NaN,knife,cat,0.03,0208_nse_dnn_0.03_cat_10_n02123597_9664.png,n02123597_9664.png,0.0,0.029335106,0.74521023,-0.5062002
alexnet_w1_mlp_simclrhn_probe3,1,209,NaN,knife,clock,0.35,0209_nse_dnn_0.35_clock_10_n04548280_4113.png,n04548280_4113.png,0.0,0.202854,0.72324216,-0.36797002
alexnet_w1_mlp_simclrhn_probe3,1,210,NaN,knife,keyboard,0.60,0210_nse_dnn_0.60_keyboard_10_n03085013_20363.png,n03085013_20363.png,0.0,0.81420267,0.8799437,-0.046485953
alexnet_w1_mlp_simclrhn_probe3,1,211,NaN,knife,truck,0.03,0211_nse_dnn_0.03_truck_10_n04467665_67908.png,n04467665_67908.png,0.0,0.021006413,0.49224028,-0.33321267
alexnet_w1_mlp_simclrhn_probe3,1,212,NaN,knife,truck,0.90,0212_nse_dnn_0.90_truck_10_n04467665_61522.png,n04467665_61522.png,0.0,-0.18504615,1.0042123,-0.8409327
alexnet_w1_mlp_simclrhn_probe3,1,213,NaN,keyboard,cat,0.90,0213_nse_dnn_0.90_cat_10_n02123045_3648.png,n02123045_3648.png,0.0,-1.1077213,1.3385851,-1.7297999
alexnet_w1_mlp_simclrhn_probe3,1,214,NaN,knife,dog,0.60,0214_nse_dnn_0.60_dog_10_n02107574_3685.png,n02107574_3685.png,0.0,-0.26388854,0.99598974,-0.8908685
alexnet_w1_mlp_simclrhn_probe3,1,215,NaN,elephant,dog,0.20,0215_nse_dnn_0.20_dog_10_n02100236_4048.png,n02100236_4048.png,0.0,-0.06986125,0.4705617,-0.38213676
alexnet_w1_mlp_simclrhn_probe3,1,216,NaN,knife,bear,0.35,0216_nse_dnn_0.35_bear_10_n02134418_5073.png,n02134418_5073.png,0.0,-0.2481237,0.66799414,-0.6477932
alexnet_w1_mlp_simclrhn_probe3,1,217,NaN,knife,airplane,0.90,0217_nse_dnn_0.90_airplane_10_n02690373_9012.png,n02690373_9012.png,0.0,-0.22506472,1.2471709,-1.0410279
alexnet_w1_mlp_simclrhn_probe3,1,218,NaN,knife,cat,0.35,0218_nse_dnn_0.35_cat_10_n02123159_6439.png,n02123159_6439.png,0.0,-0.5225504,0.5705869,-0.7729648
alexnet_w1_mlp_simclrhn_probe3,1,219,NaN,knife,cat,0.60,0219_nse_dnn_0.60_cat_10_n02125311_3616.png,n02125311_3616.png,0.0,-0.76305836,0.97718775,-1.2305398
alexnet_w1_mlp_simclrhn_probe3,1,220,NaN,knife,bottle,0.60,0220_nse_dnn_0.60_bottle_10_n04557648_4356.png,n04557648_4356.png,0.0,-0.6415289,1.0801778,-1.2174305
alexnet_w1_mlp_simclrhn_probe3,1,221,NaN,knife,bird,0.35,0221_nse_dnn_0.35_bird_10_n02027492_6813.png,n02027492_6813.png,0.0,-0.3537924,0.79340327,-0.8111899
alexnet_w1_mlp_simclrhn_probe3,1,222,NaN,oven,chair,0.03,0222_nse_dnn_0.03_chair_10_n04429376_26765.png,n04429376_26765.png,0.0,0.40941805,0.8056954,-0.2802104
alexnet_w1_mlp_simclrhn_probe3,1,223,NaN,knife,elephant,0.35,0223_nse_dnn_0.35_elephant_10_n02504458_4811.png,n02504458_4811.png,0.0,0.06564982,0.6709546,-0.4280151
alexnet_w1_mlp_simclrhn_probe3,1,224,NaN,keyboard,keyboard,0.20,0224_nse_dnn_0.20_keyboard_10_n04505470_1351.png,n04505470_1351.png,1.0,0.28396484,0.10934487,0.12347497
alexnet_w1_mlp_simclrhn_probe3,1,225,NaN,chair,chair,0.05,0225_nse_dnn_0.05_chair_10_n04099969_2532.png,n04099969_2532.png,1.0,0.46762803,0.1166271,0.24819514
alexnet_w1_mlp_simclrhn_probe3,1,226,NaN,knife,airplane,0.10,0226_nse_dnn_0.10_airplane_10_n02690373_8547.png,n02690373_8547.png,0.0,-0.07052916,0.5134583,-0.41294152
alexnet_w1_mlp_simclrhn_probe3,1,227,NaN,knife,truck,0.35,0227_nse_dnn_0.35_truck_10_n03417042_23445.png,n03417042_23445.png,0.0,-0.27256122,0.66215587,-0.66094476
alexnet_w1_mlp_simclrhn_probe3,1,228,NaN,keyboard,truck,0.90,0228_nse_dnn_0.90_truck_10_n04467665_48953.png,n04467665_48953.png,0.0,-0.12992573,1.3896197,-1.0744809
alexnet_w1_mlp_simclrhn_probe3,1,229,NaN,knife,boat,0.20,0229_nse_dnn_0.20_boat_10_n03662601_11739.png,n03662601_11739.png,0.0,-0.20720811,0.71533513,-0.6523366
alexnet_w1_mlp_simclrhn_probe3,1,230,NaN,cat,cat,0.03,0230_nse_dnn_0.03_cat_10_n02123597_4948.png,n02123597_4948.png,1.0,0.9490362,0.6733348,0.19495034
alexnet_w1_mlp_simclrhn_probe3,1,231,NaN,knife,oven,0.35,0231_nse_dnn_0.35_oven_10_n04111531_9411.png,n04111531_9411.png,0.0,-1.0361923,0.66924983,-1.2059298
alexnet_w1_mlp_simclrhn_probe3,1,232,NaN,knife,bicycle,0.60,0232_nse_dnn_0.60_bicycle_10_n03792782_988.png,n03792782_988.png,0.0,-0.36506692,1.1113862,-1.04401
alexnet_w1_mlp_simclrhn_probe3,1,233,NaN,oven,car,0.05,0233_nse_dnn_0.05_car_10_n02814533_65294.png,n02814533_65294.png,0.0,-0.22738303,1.1165707,-0.9503188
alexnet_w1_mlp_simclrhn_probe3,1,234,NaN,bottle,bottle,0.00,0234_nse_dnn_0.00_bottle_10_n04557648_10420.png,n04557648_10420.png,1.0,1.3598201,0.87741506,0.3411119
alexnet_w1_mlp_simclrhn_probe3,1,235,NaN,knife,chair,0.60,0235_nse_dnn_0.60_chair_10_n04099969_33329.png,n04099969_33329.png,0.0,0.051852196,0.77620065,-0.5121917
alexnet_w1_mlp_simclrhn_probe3,1,236,NaN,knife,oven,0.35,0236_nse_dnn_0.35_oven_10_n04111531_20493.png,n04111531_20493.png,0.0,-1.0450479,0.5210146,-1.1073734
alexnet_w1_mlp_simclrhn_probe3,1,237,NaN,knife,clock,0.10,0237_nse_dnn_0.10_clock_10_n04548280_7839.png,n04548280_7839.png,0.0,0.5561159,0.87823474,-0.2277724
alexnet_w1_mlp_simclrhn_probe3,1,238,NaN,knife,airplane,0.20,0238_nse_dnn_0.20_airplane_10_n02690373_7229.png,n02690373_7229.png,0.0,-0.11074644,0.64837503,-0.53677994
alexnet_w1_mlp_simclrhn_probe3,1,239,NaN,knife,airplane,0.10,0239_nse_dnn_0.10_airplane_10_n02690373_5003.png,n02690373_5003.png,0.0,-0.19396824,0.55403155,-0.5289157
alexnet_w1_mlp_simclrhn_probe3,1,240,NaN,elephant,chair,0.20,0240_nse_dnn_0.20_chair_10_n02791124_206.png,n02791124_206.png,0.0,0.12651011,0.2628273,-0.09639081
alexnet_w1_mlp_simclrhn_probe3,1,241,NaN,oven,oven,0.00,0241_nse_dnn_0.00_oven_10_n04111531_7283.png,n04111531_7283.png,1.0,1.2679648,0.6193241,0.45865828
alexnet_w1_mlp_simclrhn_probe3,1,242,NaN,knife,chair,0.35,0242_nse_dnn_0.35_chair_10_n04429376_8124.png,n04429376_8124.png,0.0,-0.07884515,0.48529822,-0.3989096
alexnet_w1_mlp_simclrhn_probe3,1,243,NaN,keyboard,keyboard,0.00,0243_nse_dnn_0.00_keyboard_10_n04505470_3864.png,n04505470_3864.png,1.0,1.1500349,0.7157462,0.30708846
alexnet_w1_mlp_simclrhn_probe3,1,244,NaN,knife,bottle,0.35,0244_nse_dnn_0.35_bottle_10_n03937543_3289.png,n03937543_3289.png,0.0,-0.3935687,0.6211135,-0.71748865
alexnet_w1_mlp_simclrhn_probe3,1,245,NaN,knife,boat,0.10,0245_nse_dnn_0.10_boat_10_n03344393_5207.png,n03344393_5207.png,0.0,-0.1481955,0.5296767,-0.47932804
alexnet_w1_mlp_simclrhn_probe3,1,246,NaN,knife,airplane,0.90,0246_nse_dnn_0.90_airplane_10_n02690373_629.png,n02690373_629.png,0.0,-0.17754869,1.0714728,-0.8831915
alexnet_w1_mlp_simclrhn_probe3,1,247,NaN,elephant,elephant,0.03,0247_nse_dnn_0.03_elephant_10_n02504013_104.png,n02504013_104.png,1.0,1.2581322,0.8997538,0.2534118
alexnet_w1_mlp_simclrhn_probe3,1,248,NaN,oven,bicycle,0.03,0248_nse_dnn_0.03_bicycle_10_n03792782_42626.png,n03792782_42626.png,0.0,0.49852687,0.55616915,-0.040759247
alexnet_w1_mlp_simclrhn_probe3,1,249,NaN,knife,truck,0.35,0249_nse_dnn_0.35_truck_10_n03417042_6847.png,n03417042_6847.png,0.0,-0.24928458,0.75466865,-0.70990217
alexnet_w1_mlp_simclrhn_probe3,1,250,NaN,knife,chair,0.10,0250_nse_dnn_0.10_chair_10_n04429376_23573.png,n04429376_23573.png,0.0,-0.04570152,0.426013,-0.33355254
alexnet_w1_mlp_simclrhn_probe3,1,251,NaN,knife,clock,0.03,0251_nse_dnn_0.03_clock_10_n03196217_7637.png,n03196217_7637.png,0.0,0.40769854,0.98805434,-0.4103735
alexnet_w1_mlp_simclrhn_probe3,1,252,NaN,knife,airplane,0.05,0252_nse_dnn_0.05_airplane_10_n02690373_932.png,n02690373_932.png,0.0,0.034085613,0.49260378,-0.3242213
alexnet_w1_mlp_simclrhn_probe3,1,253,NaN,oven,truck,0.05,0253_nse_dnn_0.05_truck_10_n03417042_9478.png,n03417042_9478.png,0.0,0.5088422,0.75341123,-0.17293644
alexnet_w1_mlp_simclrhn_probe3,1,254,NaN,knife,clock,0.05,0254_nse_dnn_0.05_clock_10_n04548280_7800.png,n04548280_7800.png,0.0,0.96348363,0.96560585,-0.0015006386
alexnet_w1_mlp_simclrhn_probe3,1,255,NaN,knife,keyboard,0.10,0255_nse_dnn_0.10_keyboard_10_n03085013_1698.png,n03085013_1698.png,0.0,0.07157603,1.0060438,-0.6607685
alexnet_w1_mlp_simclrhn_probe3,1,256,NaN,knife,boat,0.20,0256_nse_dnn_0.20_boat_10_n04273569_32553.png,n04273569_32553.png,0.0,-0.20604682,0.6782886,-0.62531954
alexnet_w1_mlp_simclrhn_probe3,1,257,NaN,elephant,bear,0.03,0257_nse_dnn_0.03_bear_10_n02132136_23078.png,n02132136_23078.png,0.0,0.5876739,0.5908767,-0.0022647188
alexnet_w1_mlp_simclrhn_probe3,1,258,NaN,bottle,bottle,0.00,0258_nse_dnn_0.00_bottle_10_n04591713_5476.png,n04591713_5476.png,1.0,1.1671455,0.91834426,0.17592904
alexnet_w1_mlp_simclrhn_probe3,1,259,NaN,cat,knife,0.10,0259_nse_dnn_0.10_knife_10_n03041632_31849.png,n03041632_31849.png,0.0,0.01894632,0.15787478,-0.098237254
alexnet_w1_mlp_simclrhn_probe3,1,260,NaN,keyboard,truck,0.90,0260_nse_dnn_0.90_truck_10_n03417042_12908.png,n03417042_12908.png,0.0,-0.19271556,1.1954116,-0.9815541
alexnet_w1_mlp_simclrhn_probe3,1,261,NaN,knife,clock,0.60,0261_nse_dnn_0.60_clock_10_n02708093_1418.png,n02708093_1418.png,0.0,0.31064793,0.96318734,-0.46141502
alexnet_w1_mlp_simclrhn_probe3,1,262,NaN,airplane,car,0.05,0262_nse_dnn_0.05_car_10_n03100240_4173.png,n03100240_4173.png,0.0,0.16381739,0.9913193,-0.5851322
alexnet_w1_mlp_simclrhn_probe3,1,263,NaN,keyboard,keyboard,0.10,0263_nse_dnn_0.10_keyboard_10_n03085013_25476.png,n03085013_25476.png,1.0,1.3882048,0.55581886,0.5885858
alexnet_w1_mlp_simclrhn_probe3,1,264,NaN,cat,cat,0.05,0264_nse_dnn_0.05_cat_10_n02125311_34464.png,n02125311_34464.png,1.0,1.2946764,0.19561116,0.77715653
alexnet_w1_mlp_simclrhn_probe3,1,265,NaN,knife,knife,0.20,0265_nse_dnn_0.20_knife_10_n03041632_36789.png,n03041632_36789.png,1.0,0.44629294,0.15442663,0.20638065
alexnet_w1_mlp_simclrhn_probe3,1,266,NaN,dog,dog,0.03,0266_nse_dnn_0.03_dog_10_n02108915_3733.png,n02108915_3733.png,1.0,0.37141672,0.31507266,0.03984127
alexnet_w1_mlp_simclrhn_probe3,1,267,NaN,knife,knife,0.60,0267_nse_dnn_0.60_knife_10_n03041632_42162.png,n03041632_42162.png,1.0,0.96196663,0.49662638,0.32904527
alexnet_w1_mlp_simclrhn_probe3,1,268,NaN,knife,keyboard,0.10,0268_nse_dnn_0.10_keyboard_10_n03085013_29042.png,n03085013_29042.png,0.0,0.34269494,0.8661607,-0.3701462
alexnet_w1_mlp_simclrhn_probe3,1,269,NaN,airplane,airplane,0.00,0269_nse_dnn_0.00_airplane_10_n02690373_19407.png,n02690373_19407.png,1.0,1.2571687,1.0160462,0.17049934
alexnet_w1_mlp_simclrhn_probe3,1,270,NaN,cat,bear,0.05,0270_nse_dnn_0.05_bear_10_n02134084_22029.png,n02134084_22029.png,0.0,0.12633504,0.19698875,-0.049959715
alexnet_w1_mlp_simclrhn_probe3,1,271,NaN,knife,dog,0.60,0271_nse_dnn_0.60_dog_10_n02088238_11711.png,n02088238_11711.png,0.0,-0.11963154,0.95028746,-0.756547
alexnet_w1_mlp_simclrhn_probe3,1,272,NaN,knife,elephant,0.20,0272_nse_dnn_0.20_elephant_10_n02504013_8522.png,n02504013_8522.png,0.0,0.31511796,0.45410964,-0.098281965
alexnet_w1_mlp_simclrhn_probe3,1,273,NaN,knife,elephant,0.60,0273_nse_dnn_0.60_elephant_10_n02504458_5941.png,n02504458_5941.png,0.0,-0.56599003,1.1177449,-1.1905804
alexnet_w1_mlp_simclrhn_probe3,1,274,NaN,truck,truck,0.00,0274_nse_dnn_0.00_truck_10_n04467665_242.png,n04467665_242.png,1.0,3.7695768,1.5075907,1.5994658
alexnet_w1_mlp_simclrhn_probe3,1,275,NaN,keyboard,keyboard,0.00,0275_nse_dnn_0.00_keyboard_10_n04505470_4473.png,n04505470_4473.png,1.0,2.1235971,1.2665163,0.6060477
alexnet_w1_mlp_simclrhn_probe3,1,276,NaN,boat,boat,0.05,0276_nse_dnn_0.05_boat_10_n03662601_10811.png,n03662601_10811.png,1.0,0.30975455,0.24271253,0.04740587
alexnet_w1_mlp_simclrhn_probe3,1,277,NaN,oven,keyboard,0.03,0277_nse_dnn_0.03_keyboard_10_n03085013_20495.png,n03085013_20495.png,0.0,0.9325806,1.6371732,-0.4982222
alexnet_w1_mlp_simclrhn_probe3,1,278,NaN,bicycle,bicycle,0.00,0278_nse_dnn_0.00_bicycle_10_n02835271_15038.png,n02835271_15038.png,1.0,5.397354,0.6351658,3.3673759
alexnet_w1_mlp_simclrhn_probe3,1,279,NaN,knife,bear,0.20,0279_nse_dnn_0.20_bear_10_n02134418_5271.png,n02134418_5271.png,0.0,0.14705512,0.6152121,-0.33103696
alexnet_w1_mlp_simclrhn_probe3,1,280,NaN,knife,chair,0.10,0280_nse_dnn_0.10_chair_10_n02791124_1217.png,n02791124_1217.png,0.0,0.24419023,0.8400269,-0.42132017
alexnet_w1_mlp_simclrhn_probe3,1,281,NaN,knife,elephant,0.10,0281_nse_dnn_0.10_elephant_10_n02504013_2394.png,n02504013_2394.png,0.0,-0.034914818,0.31953892,-0.25063664
alexnet_w1_mlp_simclrhn_probe3,1,282,NaN,knife,dog,0.35,0282_nse_dnn_0.35_dog_10_n02105505_5576.png,n02105505_5576.png,0.0,-0.07335637,0.6527518,-0.513436
alexnet_w1_mlp_simclrhn_probe3,1,283,NaN,knife,airplane,0.10,0283_nse_dnn_0.10_airplane_10_n02690373_2579.png,n02690373_2579.png,0.0,-0.07417141,0.404736,-0.3386387
alexnet_w1_mlp_simclrhn_probe3,1,284,NaN,bear,dog,0.05,0284_nse_dnn_0.05_dog_10_n02102480_10015.png,n02102480_10015.png,0.0,0.39120218,0.4390631,-0.033842783
alexnet_w1_mlp_simclrhn_probe3,1,285,NaN,elephant,cat,0.10,0285_nse_dnn_0.10_cat_10_n02124075_5853.png,n02124075_5853.png,0.0,-0.104818724,0.5400075,-0.45596096
alexnet_w1_mlp_simclrhn_probe3,1,286,NaN,clock,truck,0.00,0286_nse_dnn_0.00_truck_10_n03796401_2012.png,n03796401_2012.png,0.0,0.74242616,1.0606078,-0.2249884
alexnet_w1_mlp_simclrhn_probe3,1,287,NaN,keyboard,keyboard,0.10,0287_nse_dnn_0.10_keyboard_10_n04505470_1286.png,n04505470_1286.png,1.0,0.47847104,0.41296408,0.04632042
alexnet_w1_mlp_simclrhn_probe3,1,288,NaN,oven,truck,0.10,0288_nse_dnn_0.10_truck_10_n04467665_74008.png,n04467665_74008.png,0.0,-0.093758285,0.72178805,-0.57667834
alexnet_w1_mlp_simclrhn_probe3,1,289,NaN,knife,bottle,0.90,0289_nse_dnn_0.90_bottle_10_n04560804_10541.png,n04560804_10541.png,0.0,-0.8741399,1.2542758,-1.5050172
alexnet_w1_mlp_simclrhn_probe3,1,290,NaN,knife,airplane,0.20,0290_nse_dnn_0.20_airplane_10_n02690373_8967.png,n02690373_8967.png,0.0,-0.36257565,0.34339058,-0.49919352
alexnet_w1_mlp_simclrhn_probe3,1,291,NaN,knife,keyboard,0.60,0291_nse_dnn_0.60_keyboard_10_n04505470_3309.png,n04505470_3309.png,0.0,0.19248816,0.89205706,-0.49466988
alexnet_w1_mlp_simclrhn_probe3,1,292,NaN,car,car,0.05,0292_nse_dnn_0.05_car_10_n02814533_42665.png,n02814533_42665.png,1.0,1.4939793,1.3499801,0.10182282
alexnet_w1_mlp_simclrhn_probe3,1,293,NaN,knife,bicycle,0.03,0293_nse_dnn_0.03_bicycle_10_n03792782_6613.png,n03792782_6613.png,0.0,-0.27195948,0.19133016,-0.32759526
alexnet_w1_mlp_simclrhn_probe3,1,294,NaN,knife,knife,0.00,0294_nse_dnn_0.00_knife_10_n03041632_38540.png,n03041632_38540.png,1.0,1.4766328,0.19133037,0.9088461
alexnet_w1_mlp_simclrhn_probe3,1,295,NaN,knife,dog,0.90,0295_nse_dnn_0.90_dog_10_n02109047_6542.png,n02109047_6542.png,0.0,-0.19083144,1.2258317,-1.0017321
alexnet_w1_mlp_simclrhn_probe3,1,296,NaN,elephant,bicycle,0.35,0296_nse_dnn_0.35_bicycle_10_n03792782_51156.png,n03792782_51156.png,0.0,0.045683183,0.19537699,-0.10584951
alexnet_w1_mlp_simclrhn_probe3,1,297,NaN,knife,bottle,0.10,0297_nse_dnn_0.10_bottle_10_n04579145_5795.png,n04579145_5795.png,0.0,0.052224033,0.5995706,-0.38703245
alexnet_w1_mlp_simclrhn_probe3,1,298,NaN,knife,chair,0.03,0298_nse_dnn_0.03_chair_10_n03376595_787.png,n03376595_787.png,0.0,0.69584084,0.81059694,-0.081144825
alexnet_w1_mlp_simclrhn_probe3,1,299,NaN,knife,bottle,0.90,0299_nse_dnn_0.90_bottle_10_n04579145_1117.png,n04579145_1117.png,0.0,-0.9227172,1.3250229,-1.5893924
alexnet_w1_mlp_simclrhn_probe3,1,300,NaN,airplane,bird,0.00,0300_nse_dnn_0.00_bird_10_n01795545_11076.png,n01795545_11076.png,0.0,0.14486441,0.33888298,-0.13719185
alexnet_w1_mlp_simclrhn_probe3,1,301,NaN,knife,clock,0.20,0301_nse_dnn_0.20_clock_10_n03196217_6741.png,n03196217_6741.png,0.0,-0.009952853,0.4400528,-0.31820205
alexnet_w1_mlp_simclrhn_probe3,1,302,NaN,oven,oven,0.00,0302_nse_dnn_0.00_oven_10_n04111531_3555.png,n04111531_3555.png,1.0,1.2268796,0.51204795,0.5054623
alexnet_w1_mlp_simclrhn_probe3,1,303,NaN,knife,knife,0.20,0303_nse_dnn_0.20_knife_10_n03041632_36280.png,n03041632_36280.png,1.0,0.672603,0.22841339,0.31408948
alexnet_w1_mlp_simclrhn_probe3,1,304,NaN,truck,truck,0.03,0304_nse_dnn_0.03_truck_10_n04467665_74235.png,n04467665_74235.png,1.0,3.695658,1.0049254,1.9026352
alexnet_w1_mlp_simclrhn_probe3,1,305,NaN,knife,clock,0.90,0305_nse_dnn_0.90_clock_10_n04548280_6287.png,n04548280_6287.png,0.0,0.45178494,1.290518,-0.59307384
alexnet_w1_mlp_simclrhn_probe3,1,306,NaN,elephant,elephant,0.00,0306_nse_dnn_0.00_elephant_10_n02504458_6472.png,n02504458_6472.png,1.0,3.5537992,1.9316832,1.1470093
alexnet_w1_mlp_simclrhn_probe3,1,307,NaN,bicycle,bicycle,0.05,0307_nse_dnn_0.05_bicycle_10_n03792782_11034.png,n03792782_11034.png,1.0,1.3855895,0.22626436,0.81976664
alexnet_w1_mlp_simclrhn_probe3,1,308,NaN,knife,dog,0.60,0308_nse_dnn_0.60_dog_10_n02109525_50916.png,n02109525_50916.png,0.0,-0.13787147,0.96180695,-0.77759004
alexnet_w1_mlp_simclrhn_probe3,1,309,NaN,knife,dog,0.60,0309_nse_dnn_0.60_dog_10_n02097658_1923.png,n02097658_1923.png,0.0,-0.11221199,1.0171553,-0.79858327
alexnet_w1_mlp_simclrhn_probe3,1,310,NaN,elephant,knife,0.03,0310_nse_dnn_0.03_knife_10_n03041632_22480.png,n03041632_22480.png,0.0,0.29990447,1.5616179,-0.8921661
alexnet_w1_mlp_simclrhn_probe3,1,311,NaN,knife,elephant,0.35,0311_nse_dnn_0.35_elephant_10_n02504458_1041.png,n02504458_1041.png,0.0,-0.38877666,0.8810944,-0.89793444
alexnet_w1_mlp_simclrhn_probe3,1,312,NaN,elephant,knife,0.10,0312_nse_dnn_0.10_knife_10_n03041632_28129.png,n03041632_28129.png,0.0,-0.020886227,0.27669904,-0.21042456
alexnet_w1_mlp_simclrhn_probe3,1,313,NaN,car,car,0.00,0313_nse_dnn_0.00_car_10_n03100240_14667.png,n03100240_14667.png,1.0,4.889728,2.6119208,1.6106529
alexnet_w1_mlp_simclrhn_probe3,1,314,NaN,airplane,airplane,0.03,0314_nse_dnn_0.03_airplane_10_n02690373_3821.png,n02690373_3821.png,1.0,2.030281,1.515013,0.36434957
alexnet_w1_mlp_simclrhn_probe3,1,315,NaN,knife,cat,0.90,0315_nse_dnn_0.90_cat_10_n02124075_1183.png,n02124075_1183.png,0.0,-0.96100473,1.1634489,-1.5022155
alexnet_w1_mlp_simclrhn_probe3,1,316,NaN,keyboard,car,0.90,0316_nse_dnn_0.90_car_10_n03100240_1194.png,n03100240_1194.png,0.0,-0.49953625,1.0659021,-1.1069322
alexnet_w1_mlp_simclrhn_probe3,1,317,NaN,knife,oven,0.60,0317_nse_dnn_0.60_oven_10_n04111531_9370.png,n04111531_9370.png,0.0,-2.8186212,1.048415,-2.7344074
alexnet_w1_mlp_simclrhn_probe3,1,318,NaN,knife,truck,0.20,0318_nse_dnn_0.20_truck_10_n03417042_10597.png,n03417042_10597.png,0.0,-0.2625153,0.5115156,-0.5473225
alexnet_w1_mlp_simclrhn_probe3,1,319,NaN,bicycle,truck,0.05,0319_nse_dnn_0.05_truck_10_n03417042_6489.png,n03417042_6489.png,0.0,0.1345,0.82944006,-0.49139684
alexnet_w1_mlp_simclrhn_probe3,1,320,NaN,keyboard,bottle,0.05,0320_nse_dnn_0.05_bottle_10_n04591713_6662.png,n04591713_6662.png,0.0,0.3366192,0.9165324,-0.41006055
alexnet_w1_mlp_simclrhn_probe3,1,321,NaN,knife,bottle,0.60,0321_nse_dnn_0.60_bottle_10_n04560804_4624.png,n04560804_4624.png,0.0,-0.6791654,0.9190698,-1.130123
alexnet_w1_mlp_simclrhn_probe3,1,322,NaN,bird,bird,0.00,0322_nse_dnn_0.00_bird_10_n01818515_7370.png,n01818515_7370.png,1.0,0.4342361,0.3918733,0.02995503
alexnet_w1_mlp_simclrhn_probe3,1,323,NaN,keyboard,keyboard,0.05,0323_nse_dnn_0.05_keyboard_10_n03085013_15646.png,n03085013_15646.png,1.0,1.7118545,0.7038852,0.7127419
alexnet_w1_mlp_simclrhn_probe3,1,324,NaN,cat,cat,0.03,0324_nse_dnn_0.03_cat_10_n02124075_14924.png,n02124075_14924.png,1.0,1.9191235,0.39088953,1.0806247
alexnet_w1_mlp_simclrhn_probe3,1,325,NaN,elephant,elephant,0.20,0325_nse_dnn_0.20_elephant_10_n02504013_18217.png,n02504013_18217.png,1.0,0.73422956,0.4368138,0.2103047
alexnet_w1_mlp_simclrhn_probe3,1,326,NaN,keyboard,keyboard,0.35,0326_nse_dnn_0.35_keyboard_10_n04505470_4724.png,n04505470_4724.png,1.0,1.0224727,0.35773835,0.47003818
alexnet_w1_mlp_simclrhn_probe3,1,327,NaN,elephant,clock,0.20,0327_nse_dnn_0.20_clock_10_n04548280_9646.png,n04548280_9646.png,0.0,0.30306825,0.39627436,-0.06590667
alexnet_w1_mlp_simclrhn_probe3,1,328,NaN,knife,cat,0.35,0328_nse_dnn_0.35_cat_10_n02123394_6376.png,n02123394_6376.png,0.0,-0.4908589,0.7731076,-0.89375937
alexnet_w1_mlp_simclrhn_probe3,1,329,NaN,knife,elephant,0.35,0329_nse_dnn_0.35_elephant_10_n02504458_130.png,n02504458_130.png,0.0,-0.39907318,0.7419348,-0.80681443
alexnet_w1_mlp_simclrhn_probe3,1,330,NaN,knife,cat,0.90,0330_nse_dnn_0.90_cat_10_n02124075_9291.png,n02124075_9291.png,0.0,-0.98033625,1.1328305,-1.4942346
alexnet_w1_mlp_simclrhn_probe3,1,331,NaN,knife,bird,0.10,0331_nse_dnn_0.10_bird_10_n02037110_3949.png,n02037110_3949.png,0.0,-0.11295086,0.32642022,-0.31068227
alexnet_w1_mlp_simclrhn_probe3,1,332,NaN,car,car,0.00,0332_nse_dnn_0.00_car_10_n04285008_10905.png,n04285008_10905.png,1.0,4.3768277,2.9533634,1.0065413
alexnet_w1_mlp_simclrhn_probe3,1,333,NaN,elephant,chair,0.10,0333_nse_dnn_0.10_chair_10_n04429376_619.png,n04429376_619.png,0.0,-0.15557815,0.541068,-0.49260324
alexnet_w1_mlp_simclrhn_probe3,1,334,NaN,knife,boat,0.90,0334_nse_dnn_0.90_boat_10_n02951358_30335.png,n02951358_30335.png,0.0,-0.7168418,1.1875193,-1.3465867
alexnet_w1_mlp_simclrhn_probe3,1,335,NaN,knife,oven,0.90,0335_nse_dnn_0.90_oven_10_n04111531_17995.png,n04111531_17995.png,0.0,-3.1763945,1.2151132,-3.105265
alexnet_w1_mlp_simclrhn_probe3,1,336,NaN,knife,bird,0.35,0336_nse_dnn_0.35_bird_10_n01828970_11221.png,n01828970_11221.png,0.0,-0.36782825,0.83204406,-0.84843785
alexnet_w1_mlp_simclrhn_probe3,1,337,NaN,elephant,elephant,0.10,0337_nse_dnn_0.10_elephant_10_n02504013_1719.png,n02504013_1719.png,1.0,0.58709836,0.37120968,0.15265635
alexnet_w1_mlp_simclrhn_probe3,1,338,NaN,oven,oven,0.10,0338_nse_dnn_0.10_oven_10_n04111531_8009.png,n04111531_8009.png,1.0,0.7992835,0.5336969,0.1877981
alexnet_w1_mlp_simclrhn_probe3,1,339,NaN,keyboard,airplane,0.60,0339_nse_dnn_0.60_airplane_10_n02690373_8233.png,n02690373_8233.png,0.0,-0.33580816,1.0613158,-0.9879158
alexnet_w1_mlp_simclrhn_probe3,1,340,NaN,dog,dog,0.10,0340_nse_dnn_0.10_dog_10_n02092339_401.png,n02092339_401.png,1.0,0.16493165,0.10820696,0.04011042
alexnet_w1_mlp_simclrhn_probe3,1,341,NaN,knife,bottle,0.10,0341_nse_dnn_0.10_bottle_10_n02823428_11579.png,n02823428_11579.png,0.0,0.16572927,0.35058784,-0.13071476
alexnet_w1_mlp_simclrhn_probe3,1,342,NaN,knife,car,0.60,0342_nse_dnn_0.60_car_10_n04285008_6951.png,n04285008_6951.png,0.0,-0.47032037,1.2073797,-1.1863132
alexnet_w1_mlp_simclrhn_probe3,1,343,NaN,knife,bicycle,0.35,0343_nse_dnn_0.35_bicycle_10_n03792782_12504.png,n03792782_12504.png,0.0,-0.24136117,0.8304469,-0.7578828
alexnet_w1_mlp_simclrhn_probe3,1,344,NaN,bottle,bottle,0.00,0344_nse_dnn_0.00_bottle_10_n02823428_4073.png,n02823428_4073.png,1.0,1.8034134,0.36831322,1.0147691
alexnet_w1_mlp_simclrhn_probe3,1,345,NaN,knife,elephant,0.35,0345_nse_dnn_0.35_elephant_10_n02504013_945.png,n02504013_945.png,0.0,-0.10076672,0.8653814,-0.6831699
alexnet_w1_mlp_simclrhn_probe3,1,346,NaN,elephant,cat,0.10,0346_nse_dnn_0.10_cat_10_n02124075_12815.png,n02124075_12815.png,0.0,0.09176258,0.41491085,-0.22850035
alexnet_w1_mlp_simclrhn_probe3,1,347,NaN,knife,truck,0.60,0347_nse_dnn_0.60_truck_10_n03417042_4876.png,n03417042_4876.png,0.0,-0.25066367,0.9652184,-0.8597585
alexnet_w1_mlp_simclrhn_probe3,1,348,NaN,chair,keyboard,0.05,0348_nse_dnn_0.05_keyboard_10_n04505470_4628.png,n04505470_4628.png,0.0,-0.87330556,1.751556,-1.8560575
alexnet_w1_mlp_simclrhn_probe3,1,349,NaN,knife,bear,0.20,0349_nse_dnn_0.20_bear_10_n02133161_1427.png,n02133161_1427.png,0.0,-0.008679975,0.5416198,-0.3891207
alexnet_w1_mlp_simclrhn_probe3,1,350,NaN,knife,boat,0.60,0350_nse_dnn_0.60_boat_10_n04273569_7296.png,n04273569_7296.png,0.0,-0.63980037,1.0542736,-1.1978911
alexnet_w1_mlp_simclrhn_probe3,1,351,NaN,knife,chair,0.90,0351_nse_dnn_0.90_chair_10_n04099969_41686.png,n04099969_41686.png,0.0,0.046171293,1.207285,-0.8210314
alexnet_w1_mlp_simclrhn_probe3,1,352,NaN,knife,airplane,0.03,0352_nse_dnn_0.03_airplane_10_n02690373_10006.png,n02690373_10006.png,0.0,-0.05054514,0.22524849,-0.19501553
alexnet_w1_mlp_simclrhn_probe3,1,353,NaN,keyboard,knife,0.90,0353_nse_dnn_0.90_knife_10_n03041632_20595.png,n03041632_20595.png,0.0,1.056453,1.244704,-0.13311358
alexnet_w1_mlp_simclrhn_probe3,1,354,NaN,keyboard,oven,0.90,0354_nse_dnn_0.90_oven_10_n04111531_2054.png,n04111531_2054.png,0.0,-3.2042055,1.1897652,-3.1070063
alexnet_w1_mlp_simclrhn_probe3,1,355,NaN,knife,truck,0.20,0355_nse_dnn_0.20_truck_10_n04467665_40307.png,n04467665_40307.png,0.0,-0.40997347,0.31664774,-0.5137988
alexnet_w1_mlp_simclrhn_probe3,1,356,NaN,bear,bear,0.00,0356_nse_dnn_0.00_bear_10_n02133161_396.png,n02133161_396.png,1.0,1.9869548,1.665895,0.22702359
alexnet_w1_mlp_simclrhn_probe3,1,357,NaN,bear,dog,0.03,0357_nse_dnn_0.03_dog_10_n02105056_5636.png,n02105056_5636.png,0.0,0.37572038,0.94239926,-0.40070248
alexnet_w1_mlp_simclrhn_probe3,1,358,NaN,knife,bicycle,0.35,0358_nse_dnn_0.35_bicycle_10_n02835271_8798.png,n02835271_8798.png,0.0,-0.18312263,0.5645372,-0.5286754
alexnet_w1_mlp_simclrhn_probe3,1,359,NaN,knife,bear,0.90,0359_nse_dnn_0.90_bear_10_n02134418_5478.png,n02134418_5478.png,0.0,-0.8043487,1.1701607,-1.396189
alexnet_w1_mlp_simclrhn_probe3,1,360,NaN,keyboard,boat,0.90,0360_nse_dnn_0.90_boat_10_n04612504_4250.png,n04612504_4250.png,0.0,-0.99249446,1.1055884,-1.4835688
alexnet_w1_mlp_simclrhn_probe3,1,361,NaN,knife,knife,0.35,0361_nse_dnn_0.35_knife_10_n03041632_18959.png,n03041632_18959.png,1.0,0.6666815,0.2673793,0.28234932
alexnet_w1_mlp_simclrhn_probe3,1,362,NaN,knife,dog,0.35,0362_nse_dnn_0.35_dog_10_n02105251_6564.png,n02105251_6564.png,0.0,-0.15413503,0.8930131,-0.74044555
alexnet_w1_mlp_simclrhn_probe3,1,363,NaN,knife,boat,0.90,0363_nse_dnn_0.90_boat_10_n04612504_7148.png,n04612504_7148.png,0.0,-0.61014414,1.1354537,-1.2343241
alexnet_w1_mlp_simclrhn_probe3,1,364,NaN,knife,boat,0.03,0364_nse_dnn_0.03_boat_10_n04273569_4348.png,n04273569_4348.png,0.0,0.56454384,0.7811824,-0.1531866
alexnet_w1_mlp_simclrhn_probe3,1,365,NaN,car,car,0.03,0365_nse_dnn_0.03_car_10_n02814533_88986.png,n02814533_88986.png,1.0,3.1811562,1.9201142,0.8916914
alexnet_w1_mlp_simclrhn_probe3,1,366,NaN,bear,bear,0.03,0366_nse_dnn_0.03_bear_10_n02134418_2590.png,n02134418_2590.png,1.0,0.9089176,0.40220252,0.35830167
alexnet_w1_mlp_simclrhn_probe3,1,367,NaN,knife,bird,0.20,0367_nse_dnn_0.20_bird_10_n02007558_5877.png,n02007558_5877.png,0.0,-0.17524534,0.1143065,-0.20474409
alexnet_w1_mlp_simclrhn_probe3,1,368,NaN,clock,clock,0.05,0368_nse_dnn_0.05_clock_10_n02708093_1313.png,n02708093_1313.png,1.0,0.955159,0.61276454,0.24210946
alexnet_w1_mlp_simclrhn_probe3,1,369,NaN,knife,keyboard,0.35,0369_nse_dnn_0.35_keyboard_10_n03085013_20798.png,n03085013_20798.png,0.0,0.43195435,0.5847361,-0.10803302
alexnet_w1_mlp_simclrhn_probe3,1,370,NaN,keyboard,dog,0.90,0370_nse_dnn_0.90_dog_10_n02109525_13812.png,n02109525_13812.png,0.0,-0.21426384,1.0270274,-0.8777254
alexnet_w1_mlp_simclrhn_probe3,1,371,NaN,bear,bear,0.20,0371_nse_dnn_0.20_bear_10_n02134418_4458.png,n02134418_4458.png,1.0,0.38857773,0.2137793,0.12360115
alexnet_w1_mlp_simclrhn_probe3,1,372,NaN,elephant,bottle,0.20,0372_nse_dnn_0.20_bottle_10_n04560804_21519.png,n04560804_21519.png,0.0,-0.17467798,0.30172834,-0.33687016
alexnet_w1_mlp_simclrhn_probe3,1,373,NaN,elephant,elephant,0.10,0373_nse_dnn_0.10_elephant_10_n02504458_8183.png,n02504458_8183.png,1.0,0.4018673,0.19596457,0.14559522
alexnet_w1_mlp_simclrhn_probe3,1,374,NaN,knife,keyboard,0.90,0374_nse_dnn_0.90_keyboard_10_n03085013_20330.png,n03085013_20330.png,0.0,1.0304179,1.1884193,-0.11172388
alexnet_w1_mlp_simclrhn_probe3,1,375,NaN,elephant,elephant,0.10,0375_nse_dnn_0.10_elephant_10_n02504013_5533.png,n02504013_5533.png,1.0,0.40328094,0.27297327,0.09214144
alexnet_w1_mlp_simclrhn_probe3,1,376,NaN,keyboard,oven,0.90,0376_nse_dnn_0.90_oven_10_n04111531_1009.png,n04111531_1009.png,0.0,-3.575935,1.3293859,-3.4685855
alexnet_w1_mlp_simclrhn_probe3,1,377,NaN,bicycle,bicycle,0.05,0377_nse_dnn_0.05_bicycle_10_n03792782_48457.png,n03792782_48457.png,1.0,1.2070985,0.36746064,0.59371364
alexnet_w1_mlp_simclrhn_probe3,1,378,NaN,clock,cat,0.10,0378_nse_dnn_0.10_cat_10_n02124075_7240.png,n02124075_7240.png,0.0,0.036910485,0.14851801,-0.078918435
alexnet_w1_mlp_simclrhn_probe3,1,379,NaN,knife,car,0.60,0379_nse_dnn_0.60_car_10_n02814533_39597.png,n02814533_39597.png,0.0,-0.46492478,0.99664044,-1.0334827
alexnet_w1_mlp_simclrhn_probe3,1,380,NaN,knife,chair,0.03,0380_nse_dnn_0.03_chair_10_n04429376_33792.png,n04429376_33792.png,0.0,-0.07432665,0.8416445,-0.6476894
alexnet_w1_mlp_simclrhn_probe3,1,381,NaN,knife,bicycle,0.60,0381_nse_dnn_0.60_bicycle_10_n03792782_15679.png,n03792782_15679.png,0.0,-0.35808843,0.9983914,-0.9591761
alexnet_w1_mlp_simclrhn_probe3,1,382,NaN,knife,bicycle,0.60,0382_nse_dnn_0.60_bicycle_10_n02835271_9237.png,n02835271_9237.png,0.0,-0.23380533,0.97908556,-0.85764337
alexnet_w1_mlp_simclrhn_probe3,1,383,NaN,elephant,bottle,0.35,0383_nse_dnn_0.35_bottle_10_n04591713_665.png,n04591713_665.png,0.0,-0.6523635,0.7208247,-0.9709907
alexnet_w1_mlp_simclrhn_probe3,1,384,NaN,oven,cat,0.03,0384_nse_dnn_0.03_cat_10_n02123159_8257.png,n02123159_8257.png,0.0,0.12635325,0.19540298,-0.048825532
alexnet_w1_mlp_simclrhn_probe3,1,385,NaN,bear,dog,0.10,0385_nse_dnn_0.10_dog_10_n02108551_26509.png,n02108551_26509.png,0.0,0.07834295,0.26761,-0.13383204
alexnet_w1_mlp_simclrhn_probe3,1,386,NaN,knife,clock,0.60,0386_nse_dnn_0.60_clock_10_n03196217_3697.png,n03196217_3697.png,0.0,0.3484194,0.98049873,-0.4469476
alexnet_w1_mlp_simclrhn_probe3,1,387,NaN,bicycle,bicycle,0.03,0387_nse_dnn_0.03_bicycle_10_n02835271_25268.png,n02835271_25268.png,1.0,1.8423669,0.74950117,0.7727728
alexnet_w1_mlp_simclrhn_probe3,1,388,NaN,oven,truck,0.10,0388_nse_dnn_0.10_truck_10_n03796401_407.png,n03796401_407.png,0.0,-0.4932347,0.5356251,-0.7275138
alexnet_w1_mlp_simclrhn_probe3,1,389,NaN,clock,clock,0.05,0389_nse_dnn_0.05_clock_10_n04548280_2045.png,n04548280_2045.png,1.0,0.7532417,0.56421953,0.13365887
alexnet_w1_mlp_simclrhn_probe3,1,390,NaN,oven,oven,0.05,0390_nse_dnn_0.05_oven_10_n04111531_5792.png,n04111531_5792.png,1.0,0.49929214,0.4609297,0.027126344
alexnet_w1_mlp_simclrhn_probe3,1,391,NaN,oven,elephant,0.05,0391_nse_dnn_0.05_elephant_10_n02504458_8212.png,n02504458_8212.png,0.0,0.5633124,0.6145173,-0.036207303
alexnet_w1_mlp_simclrhn_probe3,1,392,NaN,knife,bird,0.03,0392_nse_dnn_0.03_bird_10_n01843383_8624.png,n01843383_8624.png,0.0,-0.16339563,0.7106444,-0.61803967
alexnet_w1_mlp_simclrhn_probe3,1,393,NaN,knife,airplane,0.20,0393_nse_dnn_0.20_airplane_10_n02690373_4814.png,n02690373_4814.png,0.0,-0.06821197,0.54149884,-0.43113065
alexnet_w1_mlp_simclrhn_probe3,1,394,NaN,knife,truck,0.60,0394_nse_dnn_0.60_truck_10_n03796401_6184.png,n03796401_6184.png,0.0,-0.24234897,0.9631467,-0.85241413
alexnet_w1_mlp_simclrhn_probe3,1,395,NaN,cat,dog,0.03,0395_nse_dnn_0.03_dog_10_n02094114_1589.png,n02094114_1589.png,0.0,0.25059468,0.32252887,-0.05086516
alexnet_w1_mlp_simclrhn_probe3,1,396,NaN,knife,clock,0.90,0396_nse_dnn_0.90_clock_10_n02708093_6572.png,n02708093_6572.png,0.0,0.29646802,0.9619062,-0.47053584
alexnet_w1_mlp_simclrhn_probe3,1,397,NaN,knife,boat,0.60,0397_nse_dnn_0.60_boat_10_n02951358_15551.png,n02951358_15551.png,0.0,-0.71006405,1.0554137,-1.2483814
alexnet_w1_mlp_simclrhn_probe3,1,398,NaN,knife,boat,0.35,0398_nse_dnn_0.35_boat_10_n03662601_7352.png,n03662601_7352.png,0.0,-0.29986113,0.5458846,-0.59803253
alexnet_w1_mlp_simclrhn_probe3,1,399,NaN,knife,bicycle,0.60,0399_nse_dnn_0.60_bicycle_10_n03792782_14984.png,n03792782_14984.png,0.0,-0.44075158,1.1081889,-1.0952663
alexnet_w1_mlp_simclrhn_probe3,1,400,NaN,elephant,knife,0.35,0400_nse_dnn_0.35_knife_10_n03041632_84012.png,n03041632_84012.png,0.0,0.4583677,0.50777626,-0.034937125
alexnet_w1_mlp_simclrhn_probe3,1,401,NaN,knife,keyboard,0.10,0401_nse_dnn_0.10_keyboard_10_n03085013_9146.png,n03085013_9146.png,0.0,-0.29330713,0.56367946,-0.60598105
alexnet_w1_mlp_simclrhn_probe3,1,402,NaN,knife,airplane,0.03,0402_nse_dnn_0.03_airplane_10_n02690373_6755.png,n02690373_6755.png,0.0,0.036683053,0.50995624,-0.3346547
alexnet_w1_mlp_simclrhn_probe3,1,403,NaN,knife,dog,0.20,0403_nse_dnn_0.20_dog_10_n02086079_17983.png,n02086079_17983.png,0.0,-0.059034247,0.57228535,-0.44641036
alexnet_w1_mlp_simclrhn_probe3,1,404,NaN,bear,bear,0.00,0404_nse_dnn_0.00_bear_10_n02134418_3284.png,n02134418_3284.png,1.0,1.5957038,0.82796824,0.54287106
alexnet_w1_mlp_simclrhn_probe3,1,405,NaN,knife,elephant,0.35,0405_nse_dnn_0.35_elephant_10_n02504458_8064.png,n02504458_8064.png,0.0,-0.058122493,0.4997759,-0.39449376
alexnet_w1_mlp_simclrhn_probe3,1,406,NaN,knife,cat,0.20,0406_nse_dnn_0.20_cat_10_n02123394_289.png,n02123394_289.png,0.0,-0.22362338,0.28731877,-0.36129066
alexnet_w1_mlp_simclrhn_probe3,1,407,NaN,knife,knife,0.20,0407_nse_dnn_0.20_knife_10_n03041632_18995.png,n03041632_18995.png,1.0,0.67021716,0.110509224,0.3957733
alexnet_w1_mlp_simclrhn_probe3,1,408,NaN,knife,bird,0.03,0408_nse_dnn_0.03_bird_10_n01843065_4999.png,n01843065_4999.png,0.0,-0.13351619,0.5971073,-0.5166288
alexnet_w1_mlp_simclrhn_probe3,1,409,NaN,knife,keyboard,0.60,0409_nse_dnn_0.60_keyboard_10_n03085013_22417.png,n03085013_22417.png,0.0,0.77422637,0.897099,-0.08688409
alexnet_w1_mlp_simclrhn_probe3,1,410,NaN,knife,bear,0.05,0410_nse_dnn_0.05_bear_10_n02132136_3224.png,n02132136_3224.png,0.0,0.035901353,0.19550039,-0.112853564
alexnet_w1_mlp_simclrhn_probe3,1,411,NaN,bicycle,boat,0.05,0411_nse_dnn_0.05_boat_10_n03662601_33184.png,n03662601_33184.png,0.0,0.14280345,0.29166654,-0.1052621
alexnet_w1_mlp_simclrhn_probe3,1,412,NaN,knife,bear,0.05,0412_nse_dnn_0.05_bear_10_n02133161_2396.png,n02133161_2396.png,0.0,0.35270122,0.86413103,-0.36163548
alexnet_w1_mlp_simclrhn_probe3,1,413,NaN,knife,keyboard,0.35,0413_nse_dnn_0.35_keyboard_10_n03085013_24578.png,n03085013_24578.png,0.0,0.20142622,1.1360619,-0.66088724
alexnet_w1_mlp_simclrhn_probe3,1,414,NaN,knife,car,0.35,0414_nse_dnn_0.35_car_10_n02814533_4519.png,n02814533_4519.png,0.0,-0.3780229,0.81609356,-0.84436786
alexnet_w1_mlp_simclrhn_probe3,1,415,NaN,clock,bottle,0.00,0415_nse_dnn_0.00_bottle_10_n03937543_2428.png,n03937543_2428.png,0.0,0.36111245,0.3973573,-0.025628993
alexnet_w1_mlp_simclrhn_probe3,1,416,NaN,bear,dog,0.05,0416_nse_dnn_0.05_dog_10_n02091635_8296.png,n02091635_8296.png,0.0,0.10947851,0.6353078,-0.37181744
alexnet_w1_mlp_simclrhn_probe3,1,417,NaN,knife,bottle,0.35,0417_nse_dnn_0.35_bottle_10_n03983396_11434.png,n03983396_11434.png,0.0,-0.26811,0.68814003,-0.67617095
alexnet_w1_mlp_simclrhn_probe3,1,418,NaN,bicycle,boat,0.00,0418_nse_dnn_0.00_boat_10_n02951358_7315.png,n02951358_7315.png,0.0,0.2755519,0.5588796,-0.20034297
alexnet_w1_mlp_simclrhn_probe3,1,419,NaN,clock,bird,0.20,0419_nse_dnn_0.20_bird_10_n01860187_7297.png,n01860187_7297.png,0.0,-0.30416378,0.18569215,-0.34638047
alexnet_w1_mlp_simclrhn_probe3,1,420,NaN,knife,oven,0.20,0420_nse_dnn_0.20_oven_10_n04111531_4250.png,n04111531_4250.png,0.0,-0.29518658,0.34072357,-0.4496564
alexnet_w1_mlp_simclrhn_probe3,1,421,NaN,knife,bear,0.20,0421_nse_dnn_0.20_bear_10_n02133161_9463.png,n02133161_9463.png,0.0,0.1349891,0.63059896,-0.35044912
alexnet_w1_mlp_simclrhn_probe3,1,422,NaN,bird,bird,0.00,0422_nse_dnn_0.00_bird_10_n02009229_4129.png,n02009229_4129.png,1.0,0.8985683,0.13062638,0.5430169
alexnet_w1_mlp_simclrhn_probe3,1,423,NaN,knife,knife,0.10,0423_nse_dnn_0.10_knife_10_n03041632_30821.png,n03041632_30821.png,1.0,0.5634874,0.1812525,0.27028093
alexnet_w1_mlp_simclrhn_probe3,1,424,NaN,keyboard,cat,0.90,0424_nse_dnn_0.90_cat_10_n02123394_2490.png,n02123394_2490.png,0.0,-0.9441994,1.2603648,-1.5588622
alexnet_w1_mlp_simclrhn_probe3,1,425,NaN,dog,dog,0.00,0425_nse_dnn_0.00_dog_10_n02087394_2723.png,n02087394_2723.png,1.0,0.9047469,0.37606677,0.37383327
alexnet_w1_mlp_simclrhn_probe3,1,426,NaN,knife,dog,0.90,0426_nse_dnn_0.90_dog_10_n02093754_5736.png,n02093754_5736.png,0.0,-0.2079557,1.1877716,-0.9869282
alexnet_w1_mlp_simclrhn_probe3,1,427,NaN,knife,bottle,0.60,0427_nse_dnn_0.60_bottle_10_n02823428_9063.png,n02823428_9063.png,0.0,-0.70718753,0.8611462,-1.1089795
alexnet_w1_mlp_simclrhn_probe3,1,428,NaN,knife,truck,0.60,0428_nse_dnn_0.60_truck_10_n04467665_20933.png,n04467665_20933.png,0.0,-0.22031537,1.0017757,-0.8641489
alexnet_w1_mlp_simclrhn_probe3,1,429,NaN,knife,car,0.10,0429_nse_dnn_0.10_car_10_n03100240_5999.png,n03100240_5999.png,0.0,-0.5290893,1.2764232,-1.2766901
alexnet_w1_mlp_simclrhn_probe3,1,430,NaN,oven,oven,0.03,0430_nse_dnn_0.03_oven_10_n04111531_3671.png,n04111531_3671.png,1.0,0.87992394,0.69610196,0.12998177
alexnet_w1_mlp_simclrhn_probe3,1,431,NaN,oven,truck,0.05,0431_nse_dnn_0.05_truck_10_n03417042_7187.png,n03417042_7187.png,0.0,-0.34794337,0.39866018,-0.5279284
alexnet_w1_mlp_simclrhn_probe3,1,432,NaN,knife,bottle,0.35,0432_nse_dnn_0.35_bottle_10_n04557648_2954.png,n04557648_2954.png,0.0,-0.35909748,0.668959,-0.72694576
alexnet_w1_mlp_simclrhn_probe3,1,433,NaN,knife,elephant,0.35,0433_nse_dnn_0.35_elephant_10_n02504013_6645.png,n02504013_6645.png,0.0,-0.31999803,0.72634643,-0.73987734
alexnet_w1_mlp_simclrhn_probe3,1,434,NaN,keyboard,keyboard,0.10,0434_nse_dnn_0.10_keyboard_10_n04505470_6876.png,n04505470_6876.png,1.0,0.32042152,0.11062311,0.14834988
alexnet_w1_mlp_simclrhn_probe3,1,435,NaN,elephant,bird,0.20,0435_nse_dnn_0.20_bird_10_n02056570_3286.png,n02056570_3286.png,0.0,-0.5600133,0.75346065,-0.92876637
alexnet_w1_mlp_simclrhn_probe3,1,436,NaN,knife,bird,0.90,0436_nse_dnn_0.90_bird_10_n02037110_8826.png,n02037110_8826.png,0.0,-0.6327393,1.1215128,-1.2404436
alexnet_w1_mlp_simclrhn_probe3,1,437,NaN,airplane,car,0.00,0437_nse_dnn_0.00_car_10_n03100240_11400.png,n03100240_11400.png,0.0,2.9202225,3.0758257,-0.11002806
alexnet_w1_mlp_simclrhn_probe3,1,438,NaN,knife,bird,0.60,0438_nse_dnn_0.60_bird_10_n02018795_6389.png,n02018795_6389.png,0.0,-0.5508043,1.0843788,-1.156249
alexnet_w1_mlp_simclrhn_probe3,1,439,NaN,knife,oven,0.35,0439_nse_dnn_0.35_oven_10_n04111531_2458.png,n04111531_2458.png,0.0,-1.1652288,0.5786719,-1.2331241
alexnet_w1_mlp_simclrhn_probe3,1,440,NaN,knife,cat,0.60,0440_nse_dnn_0.60_cat_10_n02123159_2256.png,n02123159_2256.png,0.0,-0.94835657,1.0437014,-1.4085978
alexnet_w1_mlp_simclrhn_probe3,1,441,NaN,elephant,elephant,0.03,0441_nse_dnn_0.03_elephant_10_n02504458_611.png,n02504458_611.png,1.0,5.3800774,2.6720812,1.9148425
alexnet_w1_mlp_simclrhn_probe3,1,442,NaN,elephant,knife,0.03,0442_nse_dnn_0.03_knife_10_n03041632_18141.png,n03041632_18141.png,0.0,0.03943003,1.5487113,-1.0672231
alexnet_w1_mlp_simclrhn_probe3,1,443,NaN,keyboard,bird,0.60,0443_nse_dnn_0.60_bird_10_n01843065_1871.png,n01843065_1871.png,0.0,-0.6557833,1.0632901,-1.2155685
alexnet_w1_mlp_simclrhn_probe3,1,444,NaN,oven,bird,0.05,0444_nse_dnn_0.05_bird_10_n01833805_7361.png,n01833805_7361.png,0.0,-0.28597167,0.63578606,-0.65178114
alexnet_w1_mlp_simclrhn_probe3,1,445,NaN,clock,elephant,0.20,0445_nse_dnn_0.20_elephant_10_n02504458_5827.png,n02504458_5827.png,0.0,-0.105009794,0.2056973,-0.2197031
alexnet_w1_mlp_simclrhn_probe3,1,446,NaN,knife,bicycle,0.35,0446_nse_dnn_0.35_bicycle_10_n02835271_5825.png,n02835271_5825.png,0.0,-0.2516337,0.51190215,-0.5399014
alexnet_w1_mlp_simclrhn_probe3,1,447,NaN,knife,bear,0.90,0447_nse_dnn_0.90_bear_10_n02134084_12801.png,n02134084_12801.png,0.0,-0.85114765,1.1850034,-1.4397762
alexnet_w1_mlp_simclrhn_probe3,1,448,NaN,knife,cat,0.10,0448_nse_dnn_0.10_cat_10_n02123394_3611.png,n02123394_3611.png,0.0,0.0096854465,0.34635946,-0.23806448
alexnet_w1_mlp_simclrhn_probe3,1,449,NaN,knife,chair,0.35,0449_nse_dnn_0.35_chair_10_n04429376_9589.png,n04429376_9589.png,0.0,0.019190803,0.71080923,-0.4890481
alexnet_w1_mlp_simclrhn_probe3,1,450,NaN,knife,cat,0.35,0450_nse_dnn_0.35_cat_10_n02123394_3885.png,n02123394_3885.png,0.0,-0.49604115,0.73981357,-0.8738813
alexnet_w1_mlp_simclrhn_probe3,1,451,NaN,knife,elephant,0.90,0451_nse_dnn_0.90_elephant_10_n02504013_22633.png,n02504013_22633.png,0.0,-0.5596551,1.1567496,-1.2136815
alexnet_w1_mlp_simclrhn_probe3,1,452,NaN,knife,car,0.20,0452_nse_dnn_0.20_car_10_n02814533_2271.png,n02814533_2271.png,0.0,-0.40077248,0.36581218,-0.5420572
alexnet_w1_mlp_simclrhn_probe3,1,453,NaN,knife,truck,0.05,0453_nse_dnn_0.05_truck_10_n03417042_10150.png,n03417042_10150.png,0.0,-0.24195974,0.39772832,-0.4523278
alexnet_w1_mlp_simclrhn_probe3,1,454,NaN,knife,oven,0.35,0454_nse_dnn_0.35_oven_10_n04111531_10583.png,n04111531_10583.png,0.0,-1.3665743,0.791763,-1.526175
alexnet_w1_mlp_simclrhn_probe3,1,455,NaN,bottle,bottle,0.03,0455_nse_dnn_0.03_bottle_10_n03937543_1602.png,n03937543_1602.png,1.0,2.279005,0.9108135,0.9674575
alexnet_w1_mlp_simclrhn_probe3,1,456,NaN,knife,knife,0.03,0456_nse_dnn_0.03_knife_10_n03041632_3504.png,n03041632_3504.png,1.0,0.49237865,0.14000817,0.24916357
alexnet_w1_mlp_simclrhn_probe3,1,457,NaN,bicycle,bicycle,0.03,0457_nse_dnn_0.03_bicycle_10_n03792782_1004.png,n03792782_1004.png,1.0,1.2290825,1.1778433,0.03623154
alexnet_w1_mlp_simclrhn_probe3,1,458,NaN,knife,cat,0.05,0458_nse_dnn_0.05_cat_10_n02123394_8172.png,n02123394_8172.png,0.0,0.164255,0.2448787,-0.057009567
alexnet_w1_mlp_simclrhn_probe3,1,459,NaN,elephant,elephant,0.10,0459_nse_dnn_0.10_elephant_10_n02504013_156.png,n02504013_156.png,1.0,1.0203958,0.4310251,0.41674802
alexnet_w1_mlp_simclrhn_probe3,1,460,NaN,oven,car,0.03,0460_nse_dnn_0.03_car_10_n04285008_5559.png,n04285008_5559.png,0.0,-0.20578726,1.2394688,-1.0219504
alexnet_w1_mlp_simclrhn_probe3,1,461,NaN,knife,elephant,0.35,0461_nse_dnn_0.35_elephant_10_n02504458_6694.png,n02504458_6694.png,0.0,-0.14974453,0.6198974,-0.544219
alexnet_w1_mlp_simclrhn_probe3,1,462,NaN,knife,car,0.90,0462_nse_dnn_0.90_car_10_n04285008_15003.png,n04285008_15003.png,0.0,-0.42798233,1.2392362,-1.1789016
alexnet_w1_mlp_simclrhn_probe3,1,463,NaN,knife,chair,0.10,0463_nse_dnn_0.10_chair_10_n03376595_15723.png,n03376595_15723.png,0.0,0.18575814,0.4396517,-0.17952986
alexnet_w1_mlp_simclrhn_probe3,1,464,NaN,knife,knife,0.60,0464_nse_dnn_0.60_knife_10_n03041632_48816.png,n03041632_48816.png,1.0,1.0349599,0.4150177,0.43836534
alexnet_w1_mlp_simclrhn_probe3,1,465,NaN,knife,chair,0.90,0465_nse_dnn_0.90_chair_10_n03376595_4142.png,n03376595_4142.png,0.0,0.044538125,1.0203148,-0.6899783
alexnet_w1_mlp_simclrhn_probe3,1,466,NaN,knife,car,0.60,0466_nse_dnn_0.60_car_10_n04285008_2363.png,n04285008_2363.png,0.0,-0.45056805,1.040914,-1.0546372
alexnet_w1_mlp_simclrhn_probe3,1,467,NaN,knife,truck,0.10,0467_nse_dnn_0.10_truck_10_n03417042_7335.png,n03417042_7335.png,0.0,-0.45419556,0.38739124,-0.59509176
alexnet_w1_mlp_simclrhn_probe3,1,468,NaN,oven,oven,0.00,0468_nse_dnn_0.00_oven_10_n04111531_6313.png,n04111531_6313.png,1.0,1.5352437,0.52884156,0.71163386
alexnet_w1_mlp_simclrhn_probe3,1,469,NaN,cat,bird,0.05,0469_nse_dnn_0.05_bird_10_n02033041_6728.png,n02033041_6728.png,0.0,0.116371565,0.21623063,-0.07061102
alexnet_w1_mlp_simclrhn_probe3,1,470,NaN,oven,clock,0.00,0470_nse_dnn_0.00_clock_10_n04548280_1032.png,n04548280_1032.png,0.0,-0.16822751,1.313194,-1.0475233
alexnet_w1_mlp_simclrhn_probe3,1,471,NaN,airplane,airplane,0.03,0471_nse_dnn_0.03_airplane_10_n02690373_1983.png,n02690373_1983.png,1.0,1.2911686,1.1465802,0.10223941
alexnet_w1_mlp_simclrhn_probe3,1,472,NaN,chair,keyboard,0.00,0472_nse_dnn_0.00_keyboard_10_n03085013_23369.png,n03085013_23369.png,0.0,0.0018487275,1.8318657,-1.2940174
alexnet_w1_mlp_simclrhn_probe3,1,473,NaN,knife,elephant,0.90,0473_nse_dnn_0.90_elephant_10_n02504458_2419.png,n02504458_2419.png,0.0,-0.5895928,1.316405,-1.347744
alexnet_w1_mlp_simclrhn_probe3,1,474,NaN,knife,truck,0.20,0474_nse_dnn_0.20_truck_10_n04467665_72022.png,n04467665_72022.png,0.0,-0.29975834,0.39640126,-0.49225917
alexnet_w1_mlp_simclrhn_probe3,1,475,NaN,knife,bottle,0.05,0475_nse_dnn_0.05_bottle_10_n04579145_5289.png,n04579145_5289.png,0.0,0.105336174,0.5521889,-0.31597257
alexnet_w1_mlp_simclrhn_probe3,1,476,NaN,clock,clock,0.05,0476_nse_dnn_0.05_clock_10_n02708093_2898.png,n02708093_2898.png,1.0,2.0379019,0.14900273,1.3356534
alexnet_w1_mlp_simclrhn_probe3,1,477,NaN,knife,dog,0.20,0477_nse_dnn_0.20_dog_10_n02101556_4066.png,n02101556_4066.png,0.0,0.14368893,0.14452882,-0.00059389125
alexnet_w1_mlp_simclrhn_probe3,1,478,NaN,knife,car,0.90,0478_nse_dnn_0.90_car_10_n04285008_17052.png,n04285008_17052.png,0.0,-0.43002033,1.1531773,-1.1194898
alexnet_w1_mlp_simclrhn_probe3,1,479,NaN,knife,truck,0.90,0479_nse_dnn_0.90_truck_10_n04467665_37811.png,n04467665_37811.png,0.0,-0.21619783,1.332874,-1.0953592
alexnet_w1_mlp_simclrhn_probe3,1,480,NaN,keyboard,keyboard,0.20,0480_nse_dnn_0.20_keyboard_10_n04505470_578.png,n04505470_578.png,1.0,0.46225035,0.43814135,0.017047642
alexnet_w1_mlp_simclrhn_probe3,1,481,NaN,elephant,cat,0.10,0481_nse_dnn_0.10_cat_10_n02123045_2721.png,n02123045_2721.png,0.0,-0.05523478,0.29151595,-0.2451898
alexnet_w1_mlp_simclrhn_probe3,1,482,NaN,knife,car,0.10,0482_nse_dnn_0.10_car_10_n04285008_7776.png,n04285008_7776.png,0.0,-0.14355712,0.8709766,-0.7173837
alexnet_w1_mlp_simclrhn_probe3,1,483,NaN,knife,bottle,0.90,0483_nse_dnn_0.90_bottle_10_n04591713_2014.png,n04591713_2014.png,0.0,-0.83837384,1.1524069,-1.4076947
alexnet_w1_mlp_simclrhn_probe3,1,484,NaN,elephant,bottle,0.10,0484_nse_dnn_0.10_bottle_10_n03983396_9662.png,n03983396_9662.png,0.0,0.0017865619,0.6126417,-0.43193978
alexnet_w1_mlp_simclrhn_probe3,1,485,NaN,knife,bicycle,0.35,0485_nse_dnn_0.35_bicycle_10_n03792782_10367.png,n03792782_10367.png,0.0,-0.29346693,0.6858666,-0.6924934
alexnet_w1_mlp_simclrhn_probe3,1,486,NaN,knife,keyboard,0.60,0486_nse_dnn_0.60_keyboard_10_n03085013_22942.png,n03085013_22942.png,0.0,0.65696704,0.97872263,-0.22751556
alexnet_w1_mlp_simclrhn_probe3,1,487,NaN,cat,cat,0.00,0487_nse_dnn_0.00_cat_10_n02123597_3896.png,n02123597_3896.png,1.0,0.49757752,0.23908283,0.18278334
alexnet_w1_mlp_simclrhn_probe3,1,488,NaN,bicycle,bicycle,0.03,0488_nse_dnn_0.03_bicycle_10_n03792782_2649.png,n03792782_2649.png,1.0,1.3316036,0.4590268,0.617005
alexnet_w1_mlp_simclrhn_probe3,1,489,NaN,bear,bear,0.10,0489_nse_dnn_0.10_bear_10_n02133161_2476.png,n02133161_2476.png,1.0,0.28938046,0.22179605,0.047789395
alexnet_w1_mlp_simclrhn_probe3,1,490,NaN,knife,car,0.10,0490_nse_dnn_0.10_car_10_n04285008_7249.png,n04285008_7249.png,0.0,-0.4494892,0.37008145,-0.579524
alexnet_w1_mlp_simclrhn_probe3,1,491,NaN,elephant,chair,0.20,0491_nse_dnn_0.20_chair_10_n04099969_8604.png,n04099969_8604.png,0.0,-0.066282585,0.27181613,-0.23907189
alexnet_w1_mlp_simclrhn_probe3,1,492,NaN,bicycle,bicycle,0.05,0492_nse_dnn_0.05_bicycle_10_n02835271_5963.png,n02835271_5963.png,1.0,0.8994409,0.28629816,0.4335574
alexnet_w1_mlp_simclrhn_probe3,1,493,NaN,knife,airplane,0.90,0493_nse_dnn_0.90_airplane_10_n02690373_17011.png,n02690373_17011.png,0.0,-0.15359321,1.2703285,-1.0068647
alexnet_w1_mlp_simclrhn_probe3,1,494,NaN,keyboard,bird,0.90,0494_nse_dnn_0.90_bird_10_n02028035_889.png,n02028035_889.png,0.0,-0.6801939,1.3054988,-1.4040968
alexnet_w1_mlp_simclrhn_probe3,1,495,NaN,keyboard,cat,0.60,0495_nse_dnn_0.60_cat_10_n02123159_7949.png,n02123159_7949.png,0.0,-0.86791414,0.99545527,-1.3176012
alexnet_w1_mlp_simclrhn_probe3,1,496,NaN,truck,car,0.03,0496_nse_dnn_0.03_car_10_n03100240_15686.png,n03100240_15686.png,0.0,2.2588332,2.5053616,-0.17432189
alexnet_w1_mlp_simclrhn_probe3,1,497,NaN,knife,cat,0.35,0497_nse_dnn_0.35_cat_10_n02123159_6106.png,n02123159_6106.png,0.0,-0.5344426,0.60764265,-0.8075763
alexnet_w1_mlp_simclrhn_probe3,1,498,NaN,cat,cat,0.00,0498_nse_dnn_0.00_cat_10_n02123394_7105.png,n02123394_7105.png,1.0,0.45854557,0.35942677,0.070087574
alexnet_w1_mlp_simclrhn_probe3,1,499,NaN,knife,clock,0.35,0499_nse_dnn_0.35_clock_10_n04548280_4747.png,n04548280_4747.png,0.0,0.2447921,0.53317124,-0.20391485
alexnet_w1_mlp_simclrhn_probe3,1,500,NaN,elephant,elephant,0.20,0500_nse_dnn_0.20_elephant_10_n02504458_975.png,n02504458_975.png,1.0,0.34269375,0.11471739,0.16120362
alexnet_w1_mlp_simclrhn_probe3,1,501,NaN,knife,boat,0.20,0501_nse_dnn_0.20_boat_10_n03344393_11590.png,n03344393_11590.png,0.0,-0.6142328,0.5242206,-0.8050081
alexnet_w1_mlp_simclrhn_probe3,1,502,NaN,knife,airplane,0.90,0502_nse_dnn_0.90_airplane_10_n02690373_2026.png,n02690373_2026.png,0.0,-0.1973342,1.1925281,-0.98278105
alexnet_w1_mlp_simclrhn_probe3,1,503,NaN,knife,clock,0.60,0503_nse_dnn_0.60_clock_10_n03196217_2346.png,n03196217_2346.png,0.0,0.23554403,0.95070744,-0.5056969
alexnet_w1_mlp_simclrhn_probe3,1,504,NaN,knife,truck,0.60,0504_nse_dnn_0.60_truck_10_n04467665_34932.png,n04467665_34932.png,0.0,-0.19976524,1.1380999,-0.9460135
alexnet_w1_mlp_simclrhn_probe3,1,505,NaN,knife,oven,0.35,0505_nse_dnn_0.35_oven_10_n04111531_13625.png,n04111531_13625.png,0.0,-1.4088674,0.77723,-1.5458043
alexnet_w1_mlp_simclrhn_probe3,1,506,NaN,airplane,airplane,0.00,0506_nse_dnn_0.00_airplane_10_n02690373_8666.png,n02690373_8666.png,1.0,1.5866429,0.33277556,0.8866181
alexnet_w1_mlp_simclrhn_probe3,1,507,NaN,knife,oven,0.35,0507_nse_dnn_0.35_oven_10_n04111531_4148.png,n04111531_4148.png,0.0,-1.4360647,0.86598986,-1.6277984
alexnet_w1_mlp_simclrhn_probe3,1,508,NaN,dog,dog,0.00,0508_nse_dnn_0.00_dog_10_n02107683_7021.png,n02107683_7021.png,1.0,0.68679327,0.067830145,0.43767303
alexnet_w1_mlp_simclrhn_probe3,1,509,NaN,bicycle,bird,0.05,0509_nse_dnn_0.05_bird_10_n02025239_22440.png,n02025239_22440.png,0.0,-0.11033827,0.18560241,-0.20926167
alexnet_w1_mlp_simclrhn_probe3,1,510,NaN,knife,elephant,0.90,0510_nse_dnn_0.90_elephant_10_n02504013_7032.png,n02504013_7032.png,0.0,-0.52476776,1.1481453,-1.1829282
alexnet_w1_mlp_simclrhn_probe3,1,511,NaN,knife,truck,0.90,0511_nse_dnn_0.90_truck_10_n03417042_10788.png,n03417042_10788.png,0.0,-0.20787331,1.1206284,-0.93939257
alexnet_w1_mlp_simclrhn_probe3,1,512,NaN,knife,knife,0.05,0512_nse_dnn_0.05_knife_10_n03041632_86118.png,n03041632_86118.png,1.0,0.5084637,0.14120756,0.2596893
alexnet_w1_mlp_simclrhn_probe3,1,513,NaN,bottle,bottle,0.00,0513_nse_dnn_0.00_bottle_10_n04557648_9790.png,n04557648_9790.png,1.0,0.48963076,0.37871468,0.07842951
alexnet_w1_mlp_simclrhn_probe3,1,514,NaN,knife,chair,0.90,0514_nse_dnn_0.90_chair_10_n02791124_8788.png,n02791124_8788.png,0.0,0.028364368,1.104787,-0.7611457
alexnet_w1_mlp_simclrhn_probe3,1,515,NaN,cat,dog,0.03,0515_nse_dnn_0.03_dog_10_n02095314_4996.png,n02095314_4996.png,0.0,-0.0057546557,0.29201153,-0.21055248
alexnet_w1_mlp_simclrhn_probe3,1,516,NaN,keyboard,keyboard,0.20,0516_nse_dnn_0.20_keyboard_10_n04505470_4679.png,n04505470_4679.png,1.0,0.8091531,0.76264584,0.032885585
alexnet_w1_mlp_simclrhn_probe3,1,517,NaN,knife,bird,0.03,0517_nse_dnn_0.03_bird_10_n01860187_24935.png,n01860187_24935.png,0.0,-0.07219528,0.18505257,-0.18190171
alexnet_w1_mlp_simclrhn_probe3,1,518,NaN,knife,bicycle,0.60,0518_nse_dnn_0.60_bicycle_10_n02835271_14123.png,n02835271_14123.png,0.0,-0.44575897,1.0382073,-1.0493226
alexnet_w1_mlp_simclrhn_probe3,1,519,NaN,knife,boat,0.10,0519_nse_dnn_0.10_boat_10_n03344393_7075.png,n03344393_7075.png,0.0,-0.048111543,0.62972534,-0.47930306
alexnet_w1_mlp_simclrhn_probe3,1,520,NaN,knife,knife,0.03,0520_nse_dnn_0.03_knife_10_n03041632_13130.png,n03041632_13130.png,1.0,1.0925386,0.14274877,0.67160285
alexnet_w1_mlp_simclrhn_probe3,1,521,NaN,knife,bottle,0.20,0521_nse_dnn_0.20_bottle_10_n04591713_5569.png,n04591713_5569.png,0.0,-0.19608913,0.6550709,-0.60186106
alexnet_w1_mlp_simclrhn_probe3,1,522,NaN,elephant,elephant,0.05,0522_nse_dnn_0.05_elephant_10_n02504013_19753.png,n02504013_19753.png,1.0,1.1621304,0.58072186,0.4111179
alexnet_w1_mlp_simclrhn_probe3,1,523,NaN,knife,dog,0.60,0523_nse_dnn_0.60_dog_10_n02099849_4819.png,n02099849_4819.png,0.0,-0.17893654,0.9562912,-0.8027272
alexnet_w1_mlp_simclrhn_probe3,1,524,NaN,keyboard,elephant,0.90,0524_nse_dnn_0.90_elephant_10_n02504458_12938.png,n02504458_12938.png,0.0,-0.39245299,1.3875396,-1.2586448
alexnet_w1_mlp_simclrhn_probe3,1,525,NaN,bottle,bottle,0.03,0525_nse_dnn_0.03_bottle_10_n02823428_901.png,n02823428_901.png,1.0,2.209008,0.65619135,1.0980072
alexnet_w1_mlp_simclrhn_probe3,1,526,NaN,car,bicycle,0.00,0526_nse_dnn_0.00_bicycle_10_n03792782_2024.png,n03792782_2024.png,0.0,1.3738953,1.6617016,-0.20350978
alexnet_w1_mlp_simclrhn_probe3,1,527,NaN,oven,truck,0.05,0527_nse_dnn_0.05_truck_10_n03417042_24856.png,n03417042_24856.png,0.0,-0.30844206,0.65379,-0.68040085
alexnet_w1_mlp_simclrhn_probe3,1,528,NaN,elephant,elephant,0.00,0528_nse_dnn_0.00_elephant_10_n02504013_19694.png,n02504013_19694.png,1.0,4.9034996,2.1537116,1.9443938
alexnet_w1_mlp_simclrhn_probe3,1,529,NaN,knife,bird,0.20,0529_nse_dnn_0.20_bird_10_n01530575_10119.png,n01530575_10119.png,0.0,-0.23062907,0.34202054,-0.40492442
alexnet_w1_mlp_simclrhn_probe3,1,530,NaN,elephant,bottle,0.20,0530_nse_dnn_0.20_bottle_10_n04557648_954.png,n04557648_954.png,0.0,-0.47309333,0.6595447,-0.800896
alexnet_w1_mlp_simclrhn_probe3,1,531,NaN,knife,cat,0.90,0531_nse_dnn_0.90_cat_10_n02123159_277.png,n02123159_277.png,0.0,-0.88648576,1.0572301,-1.3744147
alexnet_w1_mlp_simclrhn_probe3,1,532,NaN,knife,knife,0.00,0532_nse_dnn_0.00_knife_10_n03041632_289.png,n03041632_289.png,1.0,0.79565483,0.32827315,0.33048877
alexnet_w1_mlp_simclrhn_probe3,1,533,NaN,knife,truck,0.35,0533_nse_dnn_0.35_truck_10_n04467665_450.png,n04467665_450.png,0.0,-0.250934,0.7671919,-0.71992373
alexnet_w1_mlp_simclrhn_probe3,1,534,NaN,knife,knife,0.00,0534_nse_dnn_0.00_knife_10_n03041632_1607.png,n03041632_1607.png,1.0,1.1080472,0.13638856,0.6870665
alexnet_w1_mlp_simclrhn_probe3,1,535,NaN,knife,bird,0.20,0535_nse_dnn_0.20_bird_10_n01532829_4692.png,n01532829_4692.png,0.0,-0.31869465,0.25637284,-0.40663415
alexnet_w1_mlp_simclrhn_probe3,1,536,NaN,elephant,dog,0.10,0536_nse_dnn_0.10_dog_10_n02102177_4771.png,n02102177_4771.png,0.0,-0.099506736,0.82274866,-0.65213305
alexnet_w1_mlp_simclrhn_probe3,1,537,NaN,knife,car,0.10,0537_nse_dnn_0.10_car_10_n04285008_14554.png,n04285008_14554.png,0.0,-0.4336586,0.4490538,-0.6241719
alexnet_w1_mlp_simclrhn_probe3,1,538,NaN,clock,clock,0.00,0538_nse_dnn_0.00_clock_10_n04548280_3716.png,n04548280_3716.png,1.0,0.978271,0.9216779,0.04001738
alexnet_w1_mlp_simclrhn_probe3,1,539,NaN,oven,car,0.03,0539_nse_dnn_0.03_car_10_n04285008_6849.png,n04285008_6849.png,0.0,0.36584008,0.5668726,-0.14215146
alexnet_w1_mlp_simclrhn_probe3,1,540,NaN,knife,keyboard,0.35,0540_nse_dnn_0.35_keyboard_10_n03085013_24467.png,n03085013_24467.png,0.0,0.007676132,0.6924256,-0.484191
alexnet_w1_mlp_simclrhn_probe3,1,541,NaN,knife,clock,0.35,0541_nse_dnn_0.35_clock_10_n03196217_6672.png,n03196217_6672.png,0.0,0.1984088,0.9832117,-0.55493945
alexnet_w1_mlp_simclrhn_probe3,1,542,NaN,bear,dog,0.10,0542_nse_dnn_0.10_dog_10_n02105251_5570.png,n02105251_5570.png,0.0,0.077143624,0.46257135,-0.27253854
alexnet_w1_mlp_simclrhn_probe3,1,543,NaN,knife,dog,0.35,0543_nse_dnn_0.35_dog_10_n02107574_3352.png,n02107574_3352.png,0.0,-0.009217001,0.35637176,-0.2585103
alexnet_w1_mlp_simclrhn_probe3,1,544,NaN,knife,boat,0.60,0544_nse_dnn_0.60_boat_10_n03662601_8191.png,n03662601_8191.png,0.0,-0.4813215,1.2257168,-1.2070584
alexnet_w1_mlp_simclrhn_probe3,1,545,NaN,boat,boat,0.00,0545_nse_dnn_0.00_boat_10_n04612504_30617.png,n04612504_30617.png,1.0,2.4856718,1.7763482,0.5015675
alexnet_w1_mlp_simclrhn_probe3,1,546,NaN,knife,bear,0.60,0546_nse_dnn_0.60_bear_10_n02132136_2900.png,n02132136_2900.png,0.0,-0.5390794,1.0616485,-1.1318855
alexnet_w1_mlp_simclrhn_probe3,1,547,NaN,knife,truck,0.10,0547_nse_dnn_0.10_truck_10_n03417042_8139.png,n03417042_8139.png,0.0,-0.40170944,0.33249134,-0.51915836
alexnet_w1_mlp_simclrhn_probe3,1,548,NaN,chair,chair,0.03,0548_nse_dnn_0.03_chair_10_n03376595_5112.png,n03376595_5112.png,1.0,0.44825432,0.34690526,0.07166461
alexnet_w1_mlp_simclrhn_probe3,1,549,NaN,knife,bird,0.05,0549_nse_dnn_0.05_bird_10_n02006656_10360.png,n02006656_10360.png,0.0,0.13348174,0.20155963,-0.04813834
alexnet_w1_mlp_simclrhn_probe3,1,550,NaN,knife,elephant,0.20,0550_nse_dnn_0.20_elephant_10_n02504458_2799.png,n02504458_2799.png,0.0,-0.14398654,0.43497157,-0.4093852
alexnet_w1_mlp_simclrhn_probe3,1,551,NaN,knife,airplane,0.10,0551_nse_dnn_0.10_airplane_10_n02690373_6096.png,n02690373_6096.png,0.0,0.09518026,0.56325114,-0.3309761
alexnet_w1_mlp_simclrhn_probe3,1,552,NaN,knife,bird,0.20,0552_nse_dnn_0.20_bird_10_n02002556_139.png,n02002556_139.png,0.0,-0.17131989,0.3818654,-0.39116108
alexnet_w1_mlp_simclrhn_probe3,1,553,NaN,car,car,0.00,0553_nse_dnn_0.00_car_10_n04285008_3056.png,n04285008_3056.png,1.0,0.7565453,0.56928575,0.13241251
alexnet_w1_mlp_simclrhn_probe3,1,554,NaN,knife,knife,0.10,0554_nse_dnn_0.10_knife_10_n03041632_14774.png,n03041632_14774.png,1.0,0.7671477,0.17186764,0.42092657
alexnet_w1_mlp_simclrhn_probe3,1,555,NaN,knife,oven,0.20,0555_nse_dnn_0.20_oven_10_n04111531_2163.png,n04111531_2163.png,0.0,-0.2979102,0.2748394,-0.40499514
alexnet_w1_mlp_simclrhn_probe3,1,556,NaN,knife,cat,0.20,0556_nse_dnn_0.20_cat_10_n02123597_30864.png,n02123597_30864.png,0.0,-0.24003613,0.67780113,-0.649009
alexnet_w1_mlp_simclrhn_probe3,1,557,NaN,knife,boat,0.35,0557_nse_dnn_0.35_boat_10_n02951358_33559.png,n02951358_33559.png,0.0,-0.2042351,0.67618704,-0.62255245
alexnet_w1_mlp_simclrhn_probe3,1,558,NaN,knife,bicycle,0.60,0558_nse_dnn_0.60_bicycle_10_n02835271_4619.png,n02835271_4619.png,0.0,-0.45817453,1.0877542,-1.0931367
alexnet_w1_mlp_simclrhn_probe3,1,559,NaN,knife,truck,0.03,0559_nse_dnn_0.03_truck_10_n03796401_21261.png,n03796401_21261.png,0.0,0.12273854,0.5815898,-0.32445687
alexnet_w1_mlp_simclrhn_probe3,1,560,NaN,knife,airplane,0.10,0560_nse_dnn_0.10_airplane_10_n02690373_2496.png,n02690373_2496.png,0.0,-0.03828042,0.5268025,-0.39957395
alexnet_w1_mlp_simclrhn_probe3,1,561,NaN,knife,boat,0.35,0561_nse_dnn_0.35_boat_10_n03662601_5419.png,n03662601_5419.png,0.0,-0.41223106,0.7315234,-0.8087566
alexnet_w1_mlp_simclrhn_probe3,1,562,NaN,airplane,airplane,0.03,0562_nse_dnn_0.03_airplane_10_n02690373_7686.png,n02690373_7686.png,1.0,1.2192123,1.1841403,0.024799628
alexnet_w1_mlp_simclrhn_probe3,1,563,NaN,knife,oven,0.90,0563_nse_dnn_0.90_oven_10_n04111531_5246.png,n04111531_5246.png,0.0,-3.4031591,1.3863668,-3.3867064
alexnet_w1_mlp_simclrhn_probe3,1,564,NaN,knife,bicycle,0.60,0564_nse_dnn_0.60_bicycle_10_n03792782_1099.png,n03792782_1099.png,0.0,-0.31016734,0.9263631,-0.8743591
alexnet_w1_mlp_simclrhn_probe3,1,565,NaN,knife,chair,0.35,0565_nse_dnn_0.35_chair_10_n04099969_12909.png,n04099969_12909.png,0.0,0.15777382,0.5873176,-0.30373332
alexnet_w1_mlp_simclrhn_probe3,1,566,NaN,bicycle,elephant,0.03,0566_nse_dnn_0.03_elephant_10_n02504013_7147.png,n02504013_7147.png,0.0,0.13895571,0.36880386,-0.16252719
alexnet_w1_mlp_simclrhn_probe3,1,567,NaN,knife,truck,0.35,0567_nse_dnn_0.35_truck_10_n04467665_44715.png,n04467665_44715.png,0.0,-0.49262437,0.27937996,-0.54588956
alexnet_w1_mlp_simclrhn_probe3,1,568,NaN,keyboard,keyboard,0.00,0568_nse_dnn_0.00_keyboard_10_n04505470_1338.png,n04505470_1338.png,1.0,2.6093798,1.3071275,0.92083144
alexnet_w1_mlp_simclrhn_probe3,1,569,NaN,knife,airplane,0.90,0569_nse_dnn_0.90_airplane_10_n02690373_4982.png,n02690373_4982.png,0.0,-0.16958378,1.396091,-1.1070993
alexnet_w1_mlp_simclrhn_probe3,1,570,NaN,knife,bicycle,0.90,0570_nse_dnn_0.90_bicycle_10_n03792782_3754.png,n03792782_3754.png,0.0,-0.5231855,1.2987632,-1.2883123
alexnet_w1_mlp_simclrhn_probe3,1,571,NaN,bicycle,bicycle,0.00,0571_nse_dnn_0.00_bicycle_10_n03792782_1418.png,n03792782_1418.png,1.0,0.691767,0.6224701,0.049000308
alexnet_w1_mlp_simclrhn_probe3,1,572,NaN,oven,truck,0.03,0572_nse_dnn_0.03_truck_10_n03796401_26359.png,n03796401_26359.png,0.0,-0.05134356,0.79935,-0.6015312
alexnet_w1_mlp_simclrhn_probe3,1,573,NaN,oven,car,0.05,0573_nse_dnn_0.05_car_10_n03100240_9149.png,n03100240_9149.png,0.0,-0.54459494,0.7198469,-0.8940954
alexnet_w1_mlp_simclrhn_probe3,1,574,NaN,keyboard,bird,0.90,0574_nse_dnn_0.90_bird_10_n01534433_14677.png,n01534433_14677.png,0.0,-0.66433686,1.1808841,-1.3047683
alexnet_w1_mlp_simclrhn_probe3,1,575,NaN,bicycle,car,0.03,0575_nse_dnn_0.03_car_10_n03100240_8683.png,n03100240_8683.png,0.0,0.70949984,0.8396084,-0.092000626
alexnet_w1_mlp_simclrhn_probe3,1,576,NaN,bicycle,chair,0.03,0576_nse_dnn_0.03_chair_10_n03376595_524.png,n03376595_524.png,0.0,1.0464041,2.3682804,-0.9347077
alexnet_w1_mlp_simclrhn_probe3,1,577,NaN,elephant,dog,0.20,0577_nse_dnn_0.20_dog_10_n02094433_6402.png,n02094433_6402.png,0.0,-0.030666526,0.4036956,-0.3071404
alexnet_w1_mlp_simclrhn_probe3,1,578,NaN,knife,car,0.20,0578_nse_dnn_0.20_car_10_n03100240_16803.png,n03100240_16803.png,0.0,-0.4058932,0.34299234,-0.529542
alexnet_w1_mlp_simclrhn_probe3,1,579,NaN,knife,bicycle,0.20,0579_nse_dnn_0.20_bicycle_10_n03792782_15114.png,n03792782_15114.png,0.0,-0.0019939095,0.15080759,-0.10804698
alexnet_w1_mlp_simclrhn_probe3,1,580,NaN,knife,chair,0.60,0580_nse_dnn_0.60_chair_10_n04429376_21362.png,n04429376_21362.png,0.0,0.02392491,1.0873573,-0.7519602
alexnet_w1_mlp_simclrhn_probe3,1,581,NaN,knife,keyboard,0.90,0581_nse_dnn_0.90_keyboard_10_n04505470_3499.png,n04505470_3499.png,0.0,0.9112639,1.1027806,-0.13542275
alexnet_w1_mlp_simclrhn_probe3,1,582,NaN,keyboard,boat,0.90,0582_nse_dnn_0.90_boat_10_n04273569_26577.png,n04273569_26577.png,0.0,-0.86522996,1.2124846,-1.469166
alexnet_w1_mlp_simclrhn_probe3,1,583,NaN,knife,boat,0.10,0583_nse_dnn_0.10_boat_10_n04273569_27325.png,n04273569_27325.png,0.0,-0.090239696,0.46172845,-0.39030042
alexnet_w1_mlp_simclrhn_probe3,1,584,NaN,keyboard,keyboard,0.20,0584_nse_dnn_0.20_keyboard_10_n04505470_9570.png,n04505470_9570.png,1.0,0.521922,0.07546707,0.3156913
alexnet_w1_mlp_simclrhn_probe3,1,585,NaN,knife,bicycle,0.90,0585_nse_dnn_0.90_bicycle_10_n03792782_4067.png,n03792782_4067.png,0.0,-0.4866835,1.1492791,-1.1568003
alexnet_w1_mlp_simclrhn_probe3,1,586,NaN,bear,bear,0.10,0586_nse_dnn_0.10_bear_10_n02132136_282.png,n02132136_282.png,1.0,0.25175485,0.19450642,0.04048075
alexnet_w1_mlp_simclrhn_probe3,1,587,NaN,knife,boat,0.03,0587_nse_dnn_0.03_boat_10_n04612504_30424.png,n04612504_30424.png,0.0,-0.00086503103,0.6097885,-0.43179727
alexnet_w1_mlp_simclrhn_probe3,1,588,NaN,knife,knife,0.90,0588_nse_dnn_0.90_knife_10_n03041632_4879.png,n03041632_4879.png,1.0,1.2924501,0.9106549,0.26996997
alexnet_w1_mlp_simclrhn_probe3,1,589,NaN,elephant,elephant,0.05,0589_nse_dnn_0.05_elephant_10_n02504458_7634.png,n02504458_7634.png,1.0,0.2520459,0.17365143,0.055433266
alexnet_w1_mlp_simclrhn_probe3,1,590,NaN,knife,cat,0.35,0590_nse_dnn_0.35_cat_10_n02123597_7615.png,n02123597_7615.png,0.0,-0.54511446,0.67040074,-0.85949904
alexnet_w1_mlp_simclrhn_probe3,1,591,NaN,knife,bicycle,0.35,0591_nse_dnn_0.35_bicycle_10_n03792782_20387.png,n03792782_20387.png,0.0,-0.19405311,0.3301165,-0.3706439
alexnet_w1_mlp_simclrhn_probe3,1,592,NaN,clock,clock,0.10,0592_nse_dnn_0.10_clock_10_n02708093_527.png,n02708093_527.png,1.0,1.2491624,0.6393032,0.4312356
alexnet_w1_mlp_simclrhn_probe3,1,593,NaN,elephant,elephant,0.05,0593_nse_dnn_0.05_elephant_10_n02504013_5501.png,n02504013_5501.png,1.0,0.719015,0.40621394,0.22118376
alexnet_w1_mlp_simclrhn_probe3,1,594,NaN,knife,dog,0.35,0594_nse_dnn_0.35_dog_10_n02106166_2273.png,n02106166_2273.png,0.0,-0.00039915755,0.61158013,-0.43273473
alexnet_w1_mlp_simclrhn_probe3,1,595,NaN,boat,boat,0.03,0595_nse_dnn_0.03_boat_10_n03662601_34009.png,n03662601_34009.png,1.0,0.38035023,0.3255264,0.038766313
alexnet_w1_mlp_simclrhn_probe3,1,596,NaN,knife,boat,0.35,0596_nse_dnn_0.35_boat_10_n04273569_12536.png,n04273569_12536.png,0.0,-0.23793153,0.59989315,-0.59243155
alexnet_w1_mlp_simclrhn_probe3,1,597,NaN,elephant,elephant,0.00,0597_nse_dnn_0.00_elephant_10_n02504013_8534.png,n02504013_8534.png,1.0,1.8308954,0.5439167,0.9100314
alexnet_w1_mlp_simclrhn_probe3,1,598,NaN,knife,clock,0.35,0598_nse_dnn_0.35_clock_10_n04548280_156.png,n04548280_156.png,0.0,-0.25406215,0.7972303,-0.743376
alexnet_w1_mlp_simclrhn_probe3,1,599,NaN,knife,bicycle,0.90,0599_nse_dnn_0.90_bicycle_10_n02835271_542.png,n02835271_542.png,0.0,-0.4271857,1.2970016,-1.2191846
alexnet_w1_mlp_simclrhn_probe3,1,600,NaN,oven,bear,0.00,0600_nse_dnn_0.00_bear_10_n02133161_5434.png,n02133161_5434.png,0.0,-0.11862823,0.7503141,-0.6144351
alexnet_w1_mlp_simclrhn_probe3,1,601,NaN,knife,truck,0.60,0601_nse_dnn_0.60_truck_10_n04467665_63829.png,n04467665_63829.png,0.0,-0.22792113,1.1076103,-0.94436336
alexnet_w1_mlp_simclrhn_probe3,1,602,NaN,keyboard,oven,0.90,0602_nse_dnn_0.90_oven_10_n04111531_10220.png,n04111531_10220.png,0.0,-3.2557752,1.2852293,-3.2109752
alexnet_w1_mlp_simclrhn_probe3,1,603,NaN,knife,boat,0.60,0603_nse_dnn_0.60_boat_10_n04273569_28074.png,n04273569_28074.png,0.0,-0.4686264,1.0337331,-1.0623286
alexnet_w1_mlp_simclrhn_probe3,1,604,NaN,cat,cat,0.00,0604_nse_dnn_0.00_cat_10_n02123394_2482.png,n02123394_2482.png,1.0,0.95867616,0.85934454,0.07023806
alexnet_w1_mlp_simclrhn_probe3,1,605,NaN,knife,boat,0.90,0605_nse_dnn_0.90_boat_10_n03662601_20381.png,n03662601_20381.png,0.0,-0.5760251,1.1532679,-1.2227948
alexnet_w1_mlp_simclrhn_probe3,1,606,NaN,knife,bird,0.35,0606_nse_dnn_0.35_bird_10_n01817953_12511.png,n01817953_12511.png,0.0,-0.4873336,0.47308022,-0.6791151
alexnet_w1_mlp_simclrhn_probe3,1,607,NaN,cat,cat,0.05,0607_nse_dnn_0.05_cat_10_n02125311_5346.png,n02125311_5346.png,1.0,0.6541744,0.56918615,0.06009576
alexnet_w1_mlp_simclrhn_probe3,1,608,NaN,elephant,oven,0.00,0608_nse_dnn_0.00_oven_10_n04111531_14758.png,n04111531_14758.png,0.0,-0.25672954,0.7626971,-0.72084343
alexnet_w1_mlp_simclrhn_probe3,1,609,NaN,elephant,bird,0.10,0609_nse_dnn_0.10_bird_10_n02002556_1398.png,n02002556_1398.png,0.0,-0.08621388,0.39677513,-0.3415248
alexnet_w1_mlp_simclrhn_probe3,1,610,NaN,knife,knife,0.05,0610_nse_dnn_0.05_knife_10_n03041632_99912.png,n03041632_99912.png,1.0,0.5596069,0.38037816,0.12673387
alexnet_w1_mlp_simclrhn_probe3,1,611,NaN,knife,airplane,0.05,0611_nse_dnn_0.05_airplane_10_n02690373_1075.png,n02690373_1075.png,0.0,0.61944544,0.93029505,-0.21980387
alexnet_w1_mlp_simclrhn_probe3,1,612,NaN,knife,cat,0.35,0612_nse_dnn_0.35_cat_10_n02123045_10834.png,n02123045_10834.png,0.0,-0.44972703,0.60763943,-0.747671
alexnet_w1_mlp_simclrhn_probe3,1,613,NaN,knife,car,0.60,0613_nse_dnn_0.60_car_10_n02814533_41478.png,n02814533_41478.png,0.0,-0.40825573,0.9836926,-0.98425615
alexnet_w1_mlp_simclrhn_probe3,1,614,NaN,cat,cat,0.00,0614_nse_dnn_0.00_cat_10_n02123394_1602.png,n02123394_1602.png,1.0,1.0660357,0.49912867,0.40086383
alexnet_w1_mlp_simclrhn_probe3,1,615,NaN,knife,knife,0.03,0615_nse_dnn_0.03_knife_10_n03041632_21017.png,n03041632_21017.png,1.0,0.55379945,0.07986739,0.3351206
alexnet_w1_mlp_simclrhn_probe3,1,616,NaN,elephant,bear,0.03,0616_nse_dnn_0.03_bear_10_n02134084_572.png,n02134084_572.png,0.0,1.0471679,1.1839542,-0.09672255
alexnet_w1_mlp_simclrhn_probe3,1,617,NaN,keyboard,clock,0.05,0617_nse_dnn_0.05_clock_10_n03196217_3987.png,n03196217_3987.png,0.0,0.5433,1.9493425,-0.9942223
alexnet_w1_mlp_simclrhn_probe3,1,618,NaN,dog,dog,0.03,0618_nse_dnn_0.03_dog_10_n02098286_6303.png,n02098286_6303.png,1.0,0.40312588,0.1881282,0.15202633
