subj,session,trial,rt,object_response,category,condition,imagename,filename,is_correct,targ_act,max_nontarg_act,decision_margin
alexnet_w1_mlp_simclrhn_probe0,1,1,NaN,truck,truck,30,0001_ps_dnn_30_truck_10_n03417042_14861.png,n03417042_14861.png,1.0,0.5020162,-1.982555,1.7568572
alexnet_w1_mlp_simclrhn_probe0,1,2,NaN,keyboard,keyboard,0,0002_ps_dnn_0_keyboard_10_n03085013_25476.png,n03085013_25476.png,1.0,7.905458,-0.31187087,5.810529
alexnet_w1_mlp_simclrhn_probe0,1,3,NaN,elephant,elephant,0,0003_ps_dnn_0_elephant_10_n02504013_3087.png,n02504013_3087.png,1.0,4.106099,-4.830869,6.319391
alexnet_w1_mlp_simclrhn_probe0,1,4,NaN,bear,cat,30,0004_ps_dnn_30_cat_10_n02123394_4633.png,n02123394_4633.png,0.0,1.7246975,2.523736,-0.5650056
alexnet_w1_mlp_simclrhn_probe0,1,5,NaN,knife,knife,120,0005_ps_dnn_120_knife_10_n03041632_48151.png,n03041632_48151.png,1.0,-0.099412605,-1.5833863,1.049328
alexnet_w1_mlp_simclrhn_probe0,1,6,NaN,bicycle,bicycle,60,0006_ps_dnn_60_bicycle_10_n02835271_1075.png,n02835271_1075.png,1.0,4.456308,-3.8711195,5.88838
alexnet_w1_mlp_simclrhn_probe0,1,7,NaN,elephant,bear,180,0007_ps_dnn_180_bear_10_n02134084_10289.png,n02134084_10289.png,0.0,0.1827366,0.67066014,-0.34501404
alexnet_w1_mlp_simclrhn_probe0,1,8,NaN,keyboard,keyboard,0,0008_ps_dnn_0_keyboard_10_n03085013_21967.png,n03085013_21967.png,1.0,1.3772452,1.0666118,0.219651
alexnet_w1_mlp_simclrhn_probe0,1,9,NaN,oven,oven,150,0009_ps_dnn_150_oven_10_n04111531_5737.png,n04111531_5737.png,1.0,-0.54452366,-0.92433536,0.26856744
alexnet_w1_mlp_simclrhn_probe0,1,10,NaN,elephant,elephant,60,0010_ps_dnn_60_elephant_10_n02504458_8141.png,n02504458_8141.png,1.0,-1.1135843,-1.9771458,0.6106302
alexnet_w1_mlp_simclrhn_probe0,1,11,NaN,elephant,elephant,90,0011_ps_dnn_90_elephant_10_n02504458_3153.png,n02504458_3153.png,1.0,3.556364,0.15459992,2.4054105
alexnet_w1_mlp_simclrhn_probe0,1,12,NaN,bear,bear,60,0012_ps_dnn_60_bear_10_n02134418_5807.png,n02134418_5807.png,1.0,0.11899111,-1.9237858,1.4444613
alexnet_w1_mlp_simclrhn_probe0,1,13,NaN,boat,boat,0,0013_ps_dnn_0_boat_10_n04273569_15322.png,n04273569_15322.png,1.0,-1.3840721,-2.778071,0.9857061
alexnet_w1_mlp_simclrhn_probe0,1,14,NaN,chair,knife,0,0014_ps_dnn_0_knife_10_n03041632_42526.png,n03041632_42526.png,0.0,-7.161437,-4.6974535,-1.7422994
alexnet_w1_mlp_simclrhn_probe0,1,15,NaN,bicycle,bicycle,30,0015_ps_dnn_30_bicycle_10_n02835271_5886.png,n02835271_5886.png,1.0,-1.9851035,-4.3197813,1.6508665
alexnet_w1_mlp_simclrhn_probe0,1,16,NaN,knife,dog,180,0016_ps_dnn_180_dog_10_n02110063_869.png,n02110063_869.png,0.0,-1.2652297,-0.73954815,-0.371713
alexnet_w1_mlp_simclrhn_probe0,1,17,NaN,bear,bicycle,180,0017_ps_dnn_180_bicycle_10_n03792782_3334.png,n03792782_3334.png,0.0,-2.3479204,-0.7505437,-1.1295159
alexnet_w1_mlp_simclrhn_probe0,1,18,NaN,airplane,airplane,0,0018_ps_dnn_0_airplane_10_n02690373_7355.png,n02690373_7355.png,1.0,4.5312595,-0.42486992,3.5045128
alexnet_w1_mlp_simclrhn_probe0,1,19,NaN,bear,bird,120,0019_ps_dnn_120_bird_10_n01798484_2289.png,n01798484_2289.png,0.0,-1.8163025,-0.6465194,-0.8271616
alexnet_w1_mlp_simclrhn_probe0,1,20,NaN,knife,knife,60,0020_ps_dnn_60_knife_10_n03041632_87380.png,n03041632_87380.png,1.0,-4.1803617,-4.2598047,0.05617467
alexnet_w1_mlp_simclrhn_probe0,1,21,NaN,airplane,bird,0,0021_ps_dnn_0_bird_10_n02027492_15639.png,n02027492_15639.png,0.0,-5.7241116,-0.8157587,-3.4707296
alexnet_w1_mlp_simclrhn_probe0,1,22,NaN,bird,bird,0,0022_ps_dnn_0_bird_10_n02006656_7153.png,n02006656_7153.png,1.0,-0.1057409,-0.19228813,0.061198138
alexnet_w1_mlp_simclrhn_probe0,1,23,NaN,boat,boat,60,0023_ps_dnn_60_boat_10_n04612504_14699.png,n04612504_14699.png,1.0,-0.5201994,-3.1740665,1.8765676
alexnet_w1_mlp_simclrhn_probe0,1,24,NaN,bear,bear,60,0024_ps_dnn_60_bear_10_n02134418_5971.png,n02134418_5971.png,1.0,1.6706345,-0.730234,1.6976703
alexnet_w1_mlp_simclrhn_probe0,1,25,NaN,bear,dog,90,0025_ps_dnn_90_dog_10_n02110063_16680.png,n02110063_16680.png,0.0,-2.0122726,-1.7797577,-0.16441284
alexnet_w1_mlp_simclrhn_probe0,1,26,NaN,oven,car,90,0026_ps_dnn_90_car_10_n03100240_6010.png,n03100240_6010.png,0.0,-7.7676883,-0.86486137,-4.881036
alexnet_w1_mlp_simclrhn_probe0,1,27,NaN,elephant,elephant,30,0027_ps_dnn_30_elephant_10_n02504458_9835.png,n02504458_9835.png,1.0,-0.9513074,-2.9916718,1.4427555
alexnet_w1_mlp_simclrhn_probe0,1,28,NaN,airplane,airplane,30,0028_ps_dnn_30_airplane_10_n02690373_10207.png,n02690373_10207.png,1.0,3.0610447,-2.3660924,3.8375657
alexnet_w1_mlp_simclrhn_probe0,1,29,NaN,knife,bottle,180,0029_ps_dnn_180_bottle_10_n03983396_5532.png,n03983396_5532.png,0.0,-4.6995015,-0.67963904,-2.842472
alexnet_w1_mlp_simclrhn_probe0,1,30,NaN,dog,dog,30,0030_ps_dnn_30_dog_10_n02090622_1485.png,n02090622_1485.png,1.0,-0.8392195,-1.8642303,0.7247921
alexnet_w1_mlp_simclrhn_probe0,1,31,NaN,oven,truck,150,0031_ps_dnn_150_truck_10_n03417042_5503.png,n03417042_5503.png,0.0,-8.036221,-1.2711285,-4.7836423
alexnet_w1_mlp_simclrhn_probe0,1,32,NaN,bear,bear,180,0032_ps_dnn_180_bear_10_n02133161_897.png,n02133161_897.png,1.0,-0.0068679415,-0.2839377,0.1959179
alexnet_w1_mlp_simclrhn_probe0,1,33,NaN,knife,keyboard,180,0033_ps_dnn_180_keyboard_10_n04505470_4579.png,n04505470_4579.png,0.0,-1.2855647,-0.8020549,-0.34189305
alexnet_w1_mlp_simclrhn_probe0,1,34,NaN,bird,bird,60,0034_ps_dnn_60_bird_10_n01592084_5833.png,n01592084_5833.png,1.0,-2.394945,-3.5905118,0.8453935
alexnet_w1_mlp_simclrhn_probe0,1,35,NaN,dog,dog,0,0035_ps_dnn_0_dog_10_n02090379_3514.png,n02090379_3514.png,1.0,-3.5813544,-3.9811423,0.28269273
alexnet_w1_mlp_simclrhn_probe0,1,36,NaN,knife,airplane,180,0036_ps_dnn_180_airplane_10_n02690373_6144.png,n02690373_6144.png,0.0,-7.5681524,-1.2324742,-4.480001
alexnet_w1_mlp_simclrhn_probe0,1,37,NaN,boat,airplane,90,0037_ps_dnn_90_airplane_10_n02690373_1436.png,n02690373_1436.png,0.0,-1.3416486,-1.0412248,-0.21243167
alexnet_w1_mlp_simclrhn_probe0,1,38,NaN,oven,clock,120,0038_ps_dnn_120_clock_10_n04548280_354.png,n04548280_354.png,0.0,-5.5064178,-1.5365505,-2.80712
alexnet_w1_mlp_simclrhn_probe0,1,39,NaN,keyboard,keyboard,0,0039_ps_dnn_0_keyboard_10_n03085013_2189.png,n03085013_2189.png,1.0,0.20503101,-1.2580287,1.0345395
alexnet_w1_mlp_simclrhn_probe0,1,40,NaN,elephant,chair,120,0040_ps_dnn_120_chair_10_n04099969_9005.png,n04099969_9005.png,0.0,-5.4649787,-1.0202388,-3.1429057
alexnet_w1_mlp_simclrhn_probe0,1,41,NaN,elephant,bicycle,180,0041_ps_dnn_180_bicycle_10_n02835271_7350.png,n02835271_7350.png,0.0,-1.6512939,-0.2215392,-1.0109893
alexnet_w1_mlp_simclrhn_probe0,1,42,NaN,knife,bottle,150,0042_ps_dnn_150_bottle_10_n04557648_8320.png,n04557648_8320.png,0.0,-2.468548,-1.1213319,-0.9526257
alexnet_w1_mlp_simclrhn_probe0,1,43,NaN,dog,dog,0,0043_ps_dnn_0_dog_10_n02105641_6503.png,n02105641_6503.png,1.0,-1.3404766,-3.5553062,1.566121
alexnet_w1_mlp_simclrhn_probe0,1,44,NaN,clock,clock,90,0044_ps_dnn_90_clock_10_n04548280_6022.png,n04548280_6022.png,1.0,-1.8462623,-3.3990588,1.0979929
alexnet_w1_mlp_simclrhn_probe0,1,45,NaN,keyboard,clock,60,0045_ps_dnn_60_clock_10_n03196217_7414.png,n03196217_7414.png,0.0,-3.0622447,-0.6459836,-1.7085547
alexnet_w1_mlp_simclrhn_probe0,1,46,NaN,keyboard,oven,150,0046_ps_dnn_150_oven_10_n04111531_7965.png,n04111531_7965.png,0.0,-2.6483073,0.4013909,-2.1564624
alexnet_w1_mlp_simclrhn_probe0,1,47,NaN,bear,bottle,90,0047_ps_dnn_90_bottle_10_n04579145_4594.png,n04579145_4594.png,0.0,-6.40548,-4.2143116,-1.54939
alexnet_w1_mlp_simclrhn_probe0,1,48,NaN,oven,bottle,30,0048_ps_dnn_30_bottle_10_n03983396_4564.png,n03983396_4564.png,0.0,-3.3422084,-1.2499235,-1.4794688
alexnet_w1_mlp_simclrhn_probe0,1,49,NaN,cat,cat,60,0049_ps_dnn_60_cat_10_n02125311_54015.png,n02125311_54015.png,1.0,1.0987536,-0.09324813,0.8428725
alexnet_w1_mlp_simclrhn_probe0,1,50,NaN,knife,bicycle,150,0050_ps_dnn_150_bicycle_10_n03792782_5133.png,n03792782_5133.png,0.0,-1.2827446,-1.0771896,-0.1453494
alexnet_w1_mlp_simclrhn_probe0,1,51,NaN,elephant,bird,120,0051_ps_dnn_120_bird_10_n02018207_6296.png,n02018207_6296.png,0.0,-2.382788,0.32806522,-1.9168626
alexnet_w1_mlp_simclrhn_probe0,1,52,NaN,elephant,bird,30,0052_ps_dnn_30_bird_10_n01817953_11996.png,n01817953_11996.png,0.0,-12.06333,-3.9789805,-5.716498
alexnet_w1_mlp_simclrhn_probe0,1,53,NaN,knife,keyboard,150,0053_ps_dnn_150_keyboard_10_n03085013_3148.png,n03085013_3148.png,0.0,-4.416156,-1.2007155,-2.2736597
alexnet_w1_mlp_simclrhn_probe0,1,54,NaN,bear,bear,60,0054_ps_dnn_60_bear_10_n02134418_5537.png,n02134418_5537.png,1.0,0.5516239,-2.4720898,2.1380885
alexnet_w1_mlp_simclrhn_probe0,1,55,NaN,oven,cat,150,0055_ps_dnn_150_cat_10_n02125311_11409.png,n02125311_11409.png,0.0,-2.3764098,-0.0024554564,-1.6786392
alexnet_w1_mlp_simclrhn_probe0,1,56,NaN,elephant,knife,30,0056_ps_dnn_30_knife_10_n03041632_3063.png,n03041632_3063.png,0.0,-7.4389334,-4.065545,-2.3853457
alexnet_w1_mlp_simclrhn_probe0,1,57,NaN,bear,dog,60,0057_ps_dnn_60_dog_10_n02106550_6424.png,n02106550_6424.png,0.0,-2.0831208,-1.3516464,-0.5172305
alexnet_w1_mlp_simclrhn_probe0,1,58,NaN,elephant,bear,30,0058_ps_dnn_30_bear_10_n02133161_7032.png,n02133161_7032.png,0.0,-4.121898,-3.1516087,-0.6860983
alexnet_w1_mlp_simclrhn_probe0,1,59,NaN,knife,cat,150,0059_ps_dnn_150_cat_10_n02125311_5570.png,n02125311_5570.png,0.0,-2.6881163,-0.54121786,-1.5180866
alexnet_w1_mlp_simclrhn_probe0,1,60,NaN,elephant,bird,30,0060_ps_dnn_30_bird_10_n01843383_13894.png,n01843383_13894.png,0.0,-5.435918,-3.5943642,-1.3021752
alexnet_w1_mlp_simclrhn_probe0,1,61,NaN,oven,bottle,60,0061_ps_dnn_60_bottle_10_n03983396_2205.png,n03983396_2205.png,0.0,-6.522378,0.21516055,-4.764159
alexnet_w1_mlp_simclrhn_probe0,1,62,NaN,bicycle,bicycle,60,0062_ps_dnn_60_bicycle_10_n03792782_31010.png,n03792782_31010.png,1.0,2.051284,-5.1060886,5.0610266
alexnet_w1_mlp_simclrhn_probe0,1,63,NaN,bottle,bottle,60,0063_ps_dnn_60_bottle_10_n02823428_880.png,n02823428_880.png,1.0,-0.02908952,-5.6433916,3.969911
alexnet_w1_mlp_simclrhn_probe0,1,64,NaN,oven,car,180,0064_ps_dnn_180_car_10_n02814533_40459.png,n02814533_40459.png,0.0,-8.164649,-1.7815518,-4.513531
alexnet_w1_mlp_simclrhn_probe0,1,65,NaN,bear,cat,120,0065_ps_dnn_120_cat_10_n02123045_567.png,n02123045_567.png,0.0,-2.4994528,-0.88847554,-1.139133
alexnet_w1_mlp_simclrhn_probe0,1,66,NaN,bear,knife,120,0066_ps_dnn_120_knife_10_n03041632_24541.png,n03041632_24541.png,0.0,-3.5454657,-0.34592718,-2.2624154
alexnet_w1_mlp_simclrhn_probe0,1,67,NaN,elephant,elephant,30,0067_ps_dnn_30_elephant_10_n02504458_8644.png,n02504458_8644.png,1.0,0.61798227,-3.3787181,2.826094
alexnet_w1_mlp_simclrhn_probe0,1,68,NaN,keyboard,keyboard,0,0068_ps_dnn_0_keyboard_10_n03085013_2166.png,n03085013_2166.png,1.0,1.114469,-1.3291091,1.7278708
alexnet_w1_mlp_simclrhn_probe0,1,69,NaN,bear,boat,90,0069_ps_dnn_90_boat_10_n04273569_13972.png,n04273569_13972.png,0.0,-3.5977578,0.064469956,-2.5895863
alexnet_w1_mlp_simclrhn_probe0,1,70,NaN,oven,airplane,150,0070_ps_dnn_150_airplane_10_n02690373_9432.png,n02690373_9432.png,0.0,-7.493918,-0.4487604,-4.9816785
alexnet_w1_mlp_simclrhn_probe0,1,71,NaN,oven,truck,90,0071_ps_dnn_90_truck_10_n03417042_5228.png,n03417042_5228.png,0.0,-7.5889835,-1.3556856,-4.407607
alexnet_w1_mlp_simclrhn_probe0,1,72,NaN,airplane,airplane,0,0072_ps_dnn_0_airplane_10_n02690373_4294.png,n02690373_4294.png,1.0,6.9708505,1.5475848,3.834828
alexnet_w1_mlp_simclrhn_probe0,1,73,NaN,knife,chair,30,0073_ps_dnn_30_chair_10_n04099969_52474.png,n04099969_52474.png,0.0,-4.870654,-2.5243294,-1.6591021
alexnet_w1_mlp_simclrhn_probe0,1,74,NaN,oven,oven,30,0074_ps_dnn_30_oven_10_n04111531_21822.png,n04111531_21822.png,1.0,2.1706216,-2.5983117,3.3721452
alexnet_w1_mlp_simclrhn_probe0,1,75,NaN,oven,oven,150,0075_ps_dnn_150_oven_10_n04111531_15735.png,n04111531_15735.png,1.0,-0.18424496,-1.280998,0.7755215
alexnet_w1_mlp_simclrhn_probe0,1,76,NaN,elephant,dog,120,0076_ps_dnn_120_dog_10_n02104029_7335.png,n02104029_7335.png,0.0,-1.7311034,-0.84855723,-0.62405443
alexnet_w1_mlp_simclrhn_probe0,1,77,NaN,bear,truck,150,0077_ps_dnn_150_truck_10_n03417042_17911.png,n03417042_17911.png,0.0,-11.071869,-2.6376023,-5.9639277
alexnet_w1_mlp_simclrhn_probe0,1,78,NaN,bicycle,clock,30,0078_ps_dnn_30_clock_10_n02708093_899.png,n02708093_899.png,0.0,-8.020579,-3.2553244,-3.3695443
alexnet_w1_mlp_simclrhn_probe0,1,79,NaN,boat,boat,60,0079_ps_dnn_60_boat_10_n03662601_9590.png,n03662601_9590.png,1.0,0.4309237,-3.0444393,2.4574528
alexnet_w1_mlp_simclrhn_probe0,1,80,NaN,bear,chair,90,0080_ps_dnn_90_chair_10_n02791124_6550.png,n02791124_6550.png,0.0,-15.3412695,-3.8219182,-8.1454115
alexnet_w1_mlp_simclrhn_probe0,1,81,NaN,oven,clock,180,0081_ps_dnn_180_clock_10_n03196217_4492.png,n03196217_4492.png,0.0,-2.852929,-0.90081626,-1.3803523
alexnet_w1_mlp_simclrhn_probe0,1,82,NaN,car,car,30,0082_ps_dnn_30_car_10_n04285008_14128.png,n04285008_14128.png,1.0,4.514054,-0.2885735,3.3959706
alexnet_w1_mlp_simclrhn_probe0,1,83,NaN,bicycle,bicycle,60,0083_ps_dnn_60_bicycle_10_n02835271_4730.png,n02835271_4730.png,1.0,-2.1721303,-6.033248,2.7302225
alexnet_w1_mlp_simclrhn_probe0,1,84,NaN,elephant,elephant,0,0084_ps_dnn_0_elephant_10_n02504458_62.png,n02504458_62.png,1.0,5.5914907,-6.065353,8.242633
alexnet_w1_mlp_simclrhn_probe0,1,85,NaN,elephant,dog,120,0085_ps_dnn_120_dog_10_n02086646_8144.png,n02086646_8144.png,0.0,-2.1394455,-0.33451426,-1.2762792
alexnet_w1_mlp_simclrhn_probe0,1,86,NaN,knife,knife,60,0086_ps_dnn_60_knife_10_n03041632_1671.png,n03041632_1671.png,1.0,-5.5174203,-7.356459,1.3003969
alexnet_w1_mlp_simclrhn_probe0,1,87,NaN,bear,bird,180,0087_ps_dnn_180_bird_10_n01534433_10801.png,n01534433_10801.png,0.0,-3.282897,1.7408257,-3.5523083
alexnet_w1_mlp_simclrhn_probe0,1,88,NaN,oven,keyboard,150,0088_ps_dnn_150_keyboard_10_n03085013_20570.png,n03085013_20570.png,0.0,-7.424035,-0.7343503,-4.7303214
alexnet_w1_mlp_simclrhn_probe0,1,89,NaN,cat,knife,150,0089_ps_dnn_150_knife_10_n03041632_4808.png,n03041632_4808.png,0.0,-0.9611831,-0.6724689,-0.20415175
alexnet_w1_mlp_simclrhn_probe0,1,90,NaN,elephant,keyboard,180,0090_ps_dnn_180_keyboard_10_n03085013_1808.png,n03085013_1808.png,0.0,-5.4218807,0.43798143,-4.1435485
alexnet_w1_mlp_simclrhn_probe0,1,91,NaN,elephant,truck,120,0091_ps_dnn_120_truck_10_n03796401_4370.png,n03796401_4370.png,0.0,-8.064682,-1.9839157,-4.2997513
alexnet_w1_mlp_simclrhn_probe0,1,92,NaN,airplane,airplane,60,0092_ps_dnn_60_airplane_10_n02690373_6314.png,n02690373_6314.png,1.0,2.939331,-1.4351981,3.093259
alexnet_w1_mlp_simclrhn_probe0,1,93,NaN,oven,oven,90,0093_ps_dnn_90_oven_10_n04111531_4879.png,n04111531_4879.png,1.0,-1.4635766,-2.298041,0.5900555
alexnet_w1_mlp_simclrhn_probe0,1,94,NaN,elephant,airplane,180,0094_ps_dnn_180_airplane_10_n02690373_4375.png,n02690373_4375.png,0.0,-5.4425325,-0.43653715,-3.5397732
alexnet_w1_mlp_simclrhn_probe0,1,95,NaN,bicycle,bottle,60,0095_ps_dnn_60_bottle_10_n04557648_4133.png,n04557648_4133.png,0.0,-6.4102774,-4.1108346,-1.6259516
alexnet_w1_mlp_simclrhn_probe0,1,96,NaN,elephant,bicycle,120,0096_ps_dnn_120_bicycle_10_n02835271_19213.png,n02835271_19213.png,0.0,-1.784375,-1.3430346,-0.31207475
alexnet_w1_mlp_simclrhn_probe0,1,97,NaN,bear,bear,150,0097_ps_dnn_150_bear_10_n02132136_10577.png,n02132136_10577.png,1.0,0.55798066,-0.09015647,0.45830217
alexnet_w1_mlp_simclrhn_probe0,1,98,NaN,airplane,airplane,90,0098_ps_dnn_90_airplane_10_n02690373_3147.png,n02690373_3147.png,1.0,0.2078063,0.019107247,0.13343038
alexnet_w1_mlp_simclrhn_probe0,1,99,NaN,elephant,elephant,60,0099_ps_dnn_60_elephant_10_n02504013_10389.png,n02504013_10389.png,1.0,2.6486716,0.037563562,1.8463322
alexnet_w1_mlp_simclrhn_probe0,1,100,NaN,knife,chair,150,0100_ps_dnn_150_chair_10_n02791124_5685.png,n02791124_5685.png,0.0,-3.958112,-1.0639939,-2.0464506
alexnet_w1_mlp_simclrhn_probe0,1,101,NaN,oven,bird,60,0101_ps_dnn_60_bird_10_n01817953_6333.png,n01817953_6333.png,0.0,-7.9766335,-4.006547,-2.8072753
alexnet_w1_mlp_simclrhn_probe0,1,102,NaN,knife,keyboard,90,0102_ps_dnn_90_keyboard_10_n03085013_20247.png,n03085013_20247.png,0.0,-1.3407042,0.5347825,-1.3261694
alexnet_w1_mlp_simclrhn_probe0,1,103,NaN,airplane,airplane,0,0103_ps_dnn_0_airplane_10_n02690373_5729.png,n02690373_5729.png,1.0,5.8468328,-2.316931,5.772653
alexnet_w1_mlp_simclrhn_probe0,1,104,NaN,bicycle,bicycle,90,0104_ps_dnn_90_bicycle_10_n03792782_55532.png,n03792782_55532.png,1.0,-1.1346344,-5.252756,2.9119518
alexnet_w1_mlp_simclrhn_probe0,1,105,NaN,bicycle,bicycle,0,0105_ps_dnn_0_bicycle_10_n02835271_8417.png,n02835271_8417.png,1.0,4.017777,-6.2926903,7.2906013
alexnet_w1_mlp_simclrhn_probe0,1,106,NaN,oven,clock,60,0106_ps_dnn_60_clock_10_n03196217_599.png,n03196217_599.png,0.0,-5.121619,-0.33960778,-3.3813927
alexnet_w1_mlp_simclrhn_probe0,1,107,NaN,airplane,airplane,0,0107_ps_dnn_0_airplane_10_n02690373_1952.png,n02690373_1952.png,1.0,0.96341515,-3.2429397,2.9743423
alexnet_w1_mlp_simclrhn_probe0,1,108,NaN,bear,bear,180,0108_ps_dnn_180_bear_10_n02134084_23061.png,n02134084_23061.png,1.0,-0.86415225,-0.9005553,0.02574085
alexnet_w1_mlp_simclrhn_probe0,1,109,NaN,oven,bicycle,150,0109_ps_dnn_150_bicycle_10_n03792782_27445.png,n03792782_27445.png,0.0,-3.0581915,0.0058874786,-2.1666312
alexnet_w1_mlp_simclrhn_probe0,1,110,NaN,bottle,clock,30,0110_ps_dnn_30_clock_10_n03196217_6348.png,n03196217_6348.png,0.0,-8.319007,-4.4686675,-2.7226012
alexnet_w1_mlp_simclrhn_probe0,1,111,NaN,bear,bear,90,0111_ps_dnn_90_bear_10_n02132136_5778.png,n02132136_5778.png,1.0,0.18664786,-0.2368972,0.29949158
alexnet_w1_mlp_simclrhn_probe0,1,112,NaN,boat,boat,90,0112_ps_dnn_90_boat_10_n04273569_4772.png,n04273569_4772.png,1.0,-1.4812981,-2.6123455,0.79977125
alexnet_w1_mlp_simclrhn_probe0,1,113,NaN,knife,oven,180,0113_ps_dnn_180_oven_10_n04111531_23830.png,n04111531_23830.png,0.0,-2.9998233,-2.5962412,-0.28537565
alexnet_w1_mlp_simclrhn_probe0,1,114,NaN,bear,bird,150,0114_ps_dnn_150_bird_10_n01855032_1306.png,n01855032_1306.png,0.0,-2.6137433,0.59714544,-2.2704413
alexnet_w1_mlp_simclrhn_probe0,1,115,NaN,elephant,elephant,60,0115_ps_dnn_60_elephant_10_n02504013_8905.png,n02504013_8905.png,1.0,2.1370597,0.06777841,1.4632028
alexnet_w1_mlp_simclrhn_probe0,1,116,NaN,elephant,truck,60,0116_ps_dnn_60_truck_10_n04467665_30461.png,n04467665_30461.png,0.0,-5.454412,-3.6539617,-1.2731106
alexnet_w1_mlp_simclrhn_probe0,1,117,NaN,bear,knife,60,0117_ps_dnn_60_knife_10_n03041632_20662.png,n03041632_20662.png,0.0,-4.1226583,-3.864781,-0.18234682
alexnet_w1_mlp_simclrhn_probe0,1,118,NaN,oven,boat,180,0118_ps_dnn_180_boat_10_n03662601_15915.png,n03662601_15915.png,0.0,-3.9323013,-1.7468834,-1.5453238
alexnet_w1_mlp_simclrhn_probe0,1,119,NaN,elephant,boat,150,0119_ps_dnn_150_boat_10_n04273569_62.png,n04273569_62.png,0.0,-2.3526466,-0.34207493,-1.4216889
alexnet_w1_mlp_simclrhn_probe0,1,120,NaN,oven,bicycle,180,0120_ps_dnn_180_bicycle_10_n03792782_8080.png,n03792782_8080.png,0.0,-2.305293,-0.07805571,-1.5748948
alexnet_w1_mlp_simclrhn_probe0,1,121,NaN,elephant,airplane,120,0121_ps_dnn_120_airplane_10_n02690373_10309.png,n02690373_10309.png,0.0,-7.615119,-0.87386334,-4.7667875
alexnet_w1_mlp_simclrhn_probe0,1,122,NaN,cat,dog,30,0122_ps_dnn_30_dog_10_n02093859_1001.png,n02093859_1001.png,0.0,-3.5365903,-3.5146713,-0.015499082
alexnet_w1_mlp_simclrhn_probe0,1,123,NaN,oven,oven,0,0123_ps_dnn_0_oven_10_n04111531_15267.png,n04111531_15267.png,1.0,0.33260286,-7.6486926,5.643628
alexnet_w1_mlp_simclrhn_probe0,1,124,NaN,bear,cat,90,0124_ps_dnn_90_cat_10_n02124075_81.png,n02124075_81.png,0.0,-3.9896135,-2.2433326,-1.2348071
alexnet_w1_mlp_simclrhn_probe0,1,125,NaN,elephant,elephant,60,0125_ps_dnn_60_elephant_10_n02504013_7314.png,n02504013_7314.png,1.0,-2.4034004,-2.8104618,0.28783584
alexnet_w1_mlp_simclrhn_probe0,1,126,NaN,knife,bottle,120,0126_ps_dnn_120_bottle_10_n03983396_3294.png,n03983396_3294.png,0.0,-1.5851346,-0.8623657,-0.5110748
alexnet_w1_mlp_simclrhn_probe0,1,127,NaN,cat,cat,60,0127_ps_dnn_60_cat_10_n02123159_3201.png,n02123159_3201.png,1.0,2.9521313,-2.439797,3.812669
alexnet_w1_mlp_simclrhn_probe0,1,128,NaN,bear,dog,90,0128_ps_dnn_90_dog_10_n02101388_11601.png,n02101388_11601.png,0.0,-0.69447047,-0.23796973,-0.32279477
alexnet_w1_mlp_simclrhn_probe0,1,129,NaN,cat,cat,30,0129_ps_dnn_30_cat_10_n02123597_4442.png,n02123597_4442.png,1.0,-1.7455994,-2.1049428,0.25409415
alexnet_w1_mlp_simclrhn_probe0,1,130,NaN,airplane,airplane,30,0130_ps_dnn_30_airplane_10_n02690373_1950.png,n02690373_1950.png,1.0,0.87901556,-1.8560816,1.9340057
alexnet_w1_mlp_simclrhn_probe0,1,131,NaN,bear,bird,120,0131_ps_dnn_120_bird_10_n01616318_4652.png,n01616318_4652.png,0.0,-5.656098,1.9633777,-5.3877826
alexnet_w1_mlp_simclrhn_probe0,1,132,NaN,airplane,airplane,90,0132_ps_dnn_90_airplane_10_n02690373_17937.png,n02690373_17937.png,1.0,-0.2864525,-0.70789236,0.298003
alexnet_w1_mlp_simclrhn_probe0,1,133,NaN,clock,clock,30,0133_ps_dnn_30_clock_10_n02708093_1125.png,n02708093_1125.png,1.0,0.27740994,-3.3682303,2.577857
alexnet_w1_mlp_simclrhn_probe0,1,134,NaN,bear,elephant,150,0134_ps_dnn_150_elephant_10_n02504458_6499.png,n02504458_6499.png,0.0,0.26814267,0.98673403,-0.50812083
alexnet_w1_mlp_simclrhn_probe0,1,135,NaN,oven,clock,30,0135_ps_dnn_30_clock_10_n02708093_51.png,n02708093_51.png,0.0,-8.710686,-6.665147,-1.4464145
alexnet_w1_mlp_simclrhn_probe0,1,136,NaN,oven,bicycle,90,0136_ps_dnn_90_bicycle_10_n02835271_13180.png,n02835271_13180.png,0.0,-2.8316038,2.0333982,-3.4400756
alexnet_w1_mlp_simclrhn_probe0,1,137,NaN,elephant,cat,120,0137_ps_dnn_120_cat_10_n02123597_7297.png,n02123597_7297.png,0.0,-0.38113442,0.90801823,-0.9115686
alexnet_w1_mlp_simclrhn_probe0,1,138,NaN,dog,clock,30,0138_ps_dnn_30_clock_10_n04548280_1109.png,n04548280_1109.png,0.0,-10.827989,-6.5473204,-3.0268896
alexnet_w1_mlp_simclrhn_probe0,1,139,NaN,clock,clock,60,0139_ps_dnn_60_clock_10_n04548280_1304.png,n04548280_1304.png,1.0,-0.45006976,-6.392868,4.202193
alexnet_w1_mlp_simclrhn_probe0,1,140,NaN,bear,bird,180,0140_ps_dnn_180_bird_10_n01833805_8179.png,n01833805_8179.png,0.0,-2.8373356,-0.043405376,-1.975607
alexnet_w1_mlp_simclrhn_probe0,1,141,NaN,bottle,bottle,60,0141_ps_dnn_60_bottle_10_n03983396_24525.png,n03983396_24525.png,1.0,-3.7951505,-6.9528146,2.2328057
alexnet_w1_mlp_simclrhn_probe0,1,142,NaN,elephant,elephant,120,0142_ps_dnn_120_elephant_10_n02504013_5945.png,n02504013_5945.png,1.0,0.32107538,-0.0848542,0.28703555
alexnet_w1_mlp_simclrhn_probe0,1,143,NaN,oven,airplane,120,0143_ps_dnn_120_airplane_10_n02690373_13610.png,n02690373_13610.png,0.0,-2.836338,-1.1322002,-1.2050074
alexnet_w1_mlp_simclrhn_probe0,1,144,NaN,elephant,knife,90,0144_ps_dnn_90_knife_10_n03041632_21859.png,n03041632_21859.png,0.0,-2.7200553,-1.2802066,-1.0181268
alexnet_w1_mlp_simclrhn_probe0,1,145,NaN,cat,cat,60,0145_ps_dnn_60_cat_10_n02123045_568.png,n02123045_568.png,1.0,-0.42780972,-1.4169755,0.69944584
alexnet_w1_mlp_simclrhn_probe0,1,146,NaN,knife,clock,180,0146_ps_dnn_180_clock_10_n02708093_960.png,n02708093_960.png,0.0,-4.687718,-2.3125424,-1.6795027
alexnet_w1_mlp_simclrhn_probe0,1,147,NaN,bear,bicycle,120,0147_ps_dnn_120_bicycle_10_n02835271_9669.png,n02835271_9669.png,0.0,-1.5451542,-0.67333996,-0.6164658
alexnet_w1_mlp_simclrhn_probe0,1,148,NaN,cat,cat,60,0148_ps_dnn_60_cat_10_n02123597_14647.png,n02123597_14647.png,1.0,-1.318892,-1.8419057,0.36982656
alexnet_w1_mlp_simclrhn_probe0,1,149,NaN,bicycle,bicycle,0,0149_ps_dnn_0_bicycle_10_n02835271_7794.png,n02835271_7794.png,1.0,1.4293711,-7.8158813,6.5373807
alexnet_w1_mlp_simclrhn_probe0,1,150,NaN,bird,bird,0,0150_ps_dnn_0_bird_10_n02011460_5925.png,n02011460_5925.png,1.0,-3.4456887,-5.731611,1.6163911
alexnet_w1_mlp_simclrhn_probe0,1,151,NaN,bear,oven,90,0151_ps_dnn_90_oven_10_n04111531_8852.png,n04111531_8852.png,0.0,-1.4666076,-0.74631244,-0.50932556
alexnet_w1_mlp_simclrhn_probe0,1,152,NaN,bear,knife,90,0152_ps_dnn_90_knife_10_n03041632_84086.png,n03041632_84086.png,0.0,-8.053597,-2.6125634,-3.8473923
alexnet_w1_mlp_simclrhn_probe0,1,153,NaN,car,car,60,0153_ps_dnn_60_car_10_n03100240_13602.png,n03100240_13602.png,1.0,3.8281538,-1.7503961,3.9446306
alexnet_w1_mlp_simclrhn_probe0,1,154,NaN,oven,dog,180,0154_ps_dnn_180_dog_10_n02106662_43958.png,n02106662_43958.png,0.0,-2.4310658,0.094783366,-1.7860451
alexnet_w1_mlp_simclrhn_probe0,1,155,NaN,knife,chair,30,0155_ps_dnn_30_chair_10_n02791124_1292.png,n02791124_1292.png,0.0,-9.992401,-7.4697924,-1.7837538
alexnet_w1_mlp_simclrhn_probe0,1,156,NaN,bear,dog,90,0156_ps_dnn_90_dog_10_n02085782_4522.png,n02085782_4522.png,0.0,-2.0759351,2.0033288,-2.884475
alexnet_w1_mlp_simclrhn_probe0,1,157,NaN,bear,bear,60,0157_ps_dnn_60_bear_10_n02132136_686.png,n02132136_686.png,1.0,1.9825109,-1.451631,2.4283051
alexnet_w1_mlp_simclrhn_probe0,1,158,NaN,elephant,bird,120,0158_ps_dnn_120_bird_10_n01796340_12914.png,n01796340_12914.png,0.0,-3.1944375,-0.13696775,-2.1619577
alexnet_w1_mlp_simclrhn_probe0,1,159,NaN,elephant,knife,60,0159_ps_dnn_60_knife_10_n03041632_24060.png,n03041632_24060.png,0.0,-4.58115,-2.672902,-1.3493351
alexnet_w1_mlp_simclrhn_probe0,1,160,NaN,elephant,bottle,180,0160_ps_dnn_180_bottle_10_n03983396_4775.png,n03983396_4775.png,0.0,-1.9962078,0.54539996,-1.7971882
alexnet_w1_mlp_simclrhn_probe0,1,161,NaN,bear,keyboard,120,0161_ps_dnn_120_keyboard_10_n04505470_1516.png,n04505470_1516.png,0.0,-7.2574463,-0.66670555,-4.6603575
alexnet_w1_mlp_simclrhn_probe0,1,162,NaN,knife,boat,150,0162_ps_dnn_150_boat_10_n03344393_4944.png,n03344393_4944.png,0.0,-3.4020278,-0.57115823,-2.001727
alexnet_w1_mlp_simclrhn_probe0,1,163,NaN,knife,cat,150,0163_ps_dnn_150_cat_10_n02123159_3524.png,n02123159_3524.png,0.0,-2.5431733,-0.27947882,-1.6006738
alexnet_w1_mlp_simclrhn_probe0,1,164,NaN,boat,truck,60,0164_ps_dnn_60_truck_10_n04467665_50648.png,n04467665_50648.png,0.0,-5.293465,-1.4366239,-2.7271986
alexnet_w1_mlp_simclrhn_probe0,1,165,NaN,cat,dog,0,0165_ps_dnn_0_dog_10_n02107574_1277.png,n02107574_1277.png,0.0,-7.8174043,-7.407801,-0.28963315
alexnet_w1_mlp_simclrhn_probe0,1,166,NaN,oven,oven,60,0166_ps_dnn_60_oven_10_n04111531_21980.png,n04111531_21980.png,1.0,-0.014911622,-4.4822164,3.1588614
alexnet_w1_mlp_simclrhn_probe0,1,167,NaN,oven,boat,120,0167_ps_dnn_120_boat_10_n03344393_11315.png,n03344393_11315.png,0.0,-2.7641208,-1.1445181,-1.1452321
alexnet_w1_mlp_simclrhn_probe0,1,168,NaN,oven,knife,90,0168_ps_dnn_90_knife_10_n03041632_32896.png,n03041632_32896.png,0.0,-3.0791128,0.50468147,-2.534125
alexnet_w1_mlp_simclrhn_probe0,1,169,NaN,bottle,bottle,30,0169_ps_dnn_30_bottle_10_n03937543_3133.png,n03937543_3133.png,1.0,-2.7187648,-3.1288755,0.28999206
alexnet_w1_mlp_simclrhn_probe0,1,170,NaN,oven,car,180,0170_ps_dnn_180_car_10_n04285008_15213.png,n04285008_15213.png,0.0,-8.104258,-1.3666372,-4.764217
alexnet_w1_mlp_simclrhn_probe0,1,171,NaN,elephant,elephant,90,0171_ps_dnn_90_elephant_10_n02504013_3081.png,n02504013_3081.png,1.0,-0.6911341,-1.6282651,0.6626517
alexnet_w1_mlp_simclrhn_probe0,1,172,NaN,cat,cat,60,0172_ps_dnn_60_cat_10_n02123159_6873.png,n02123159_6873.png,1.0,-1.8101343,-5.0878563,2.3176994
alexnet_w1_mlp_simclrhn_probe0,1,173,NaN,bottle,bottle,60,0173_ps_dnn_60_bottle_10_n04579145_4385.png,n04579145_4385.png,1.0,-0.3289368,-6.7704515,4.554839
alexnet_w1_mlp_simclrhn_probe0,1,174,NaN,bear,bear,60,0174_ps_dnn_60_bear_10_n02134418_2185.png,n02134418_2185.png,1.0,0.43195522,-2.0113852,1.7277025
alexnet_w1_mlp_simclrhn_probe0,1,175,NaN,bear,chair,150,0175_ps_dnn_150_chair_10_n04429376_16002.png,n04429376_16002.png,0.0,-5.264732,-1.2136854,-2.8645225
alexnet_w1_mlp_simclrhn_probe0,1,176,NaN,bicycle,car,60,0176_ps_dnn_60_car_10_n03100240_8107.png,n03100240_8107.png,0.0,-5.9307766,-4.614505,-0.9307447
alexnet_w1_mlp_simclrhn_probe0,1,177,NaN,boat,boat,60,0177_ps_dnn_60_boat_10_n04273569_15906.png,n04273569_15906.png,1.0,0.60123396,-2.712945,2.3434784
alexnet_w1_mlp_simclrhn_probe0,1,178,NaN,bear,car,150,0178_ps_dnn_150_car_10_n02814533_85659.png,n02814533_85659.png,0.0,-6.515438,-1.7725788,-3.353708
alexnet_w1_mlp_simclrhn_probe0,1,179,NaN,oven,car,150,0179_ps_dnn_150_car_10_n02814533_87140.png,n02814533_87140.png,0.0,-11.627964,-1.9794244,-6.822548
alexnet_w1_mlp_simclrhn_probe0,1,180,NaN,keyboard,keyboard,30,0180_ps_dnn_30_keyboard_10_n03085013_7520.png,n03085013_7520.png,1.0,4.5211706,0.7732776,2.6501606
alexnet_w1_mlp_simclrhn_probe0,1,181,NaN,bear,dog,90,0181_ps_dnn_90_dog_10_n02112018_10082.png,n02112018_10082.png,0.0,-0.95808977,1.9256233,-2.039093
alexnet_w1_mlp_simclrhn_probe0,1,182,NaN,oven,bear,90,0182_ps_dnn_90_bear_10_n02134084_5733.png,n02134084_5733.png,0.0,-0.81316686,-0.38965484,-0.29946822
alexnet_w1_mlp_simclrhn_probe0,1,183,NaN,bear,cat,90,0183_ps_dnn_90_cat_10_n02123597_3821.png,n02123597_3821.png,0.0,-0.30642787,0.9547563,-0.89179194
alexnet_w1_mlp_simclrhn_probe0,1,184,NaN,elephant,boat,120,0184_ps_dnn_120_boat_10_n04612504_15256.png,n04612504_15256.png,0.0,-4.511653,-0.864059,-2.5792384
alexnet_w1_mlp_simclrhn_probe0,1,185,NaN,elephant,car,90,0185_ps_dnn_90_car_10_n02814533_84296.png,n02814533_84296.png,0.0,-7.7059417,-1.764453,-4.2012672
alexnet_w1_mlp_simclrhn_probe0,1,186,NaN,elephant,clock,120,0186_ps_dnn_120_clock_10_n04548280_5295.png,n04548280_5295.png,0.0,-5.527754,-1.593058,-2.7822502
alexnet_w1_mlp_simclrhn_probe0,1,187,NaN,airplane,airplane,30,0187_ps_dnn_30_airplane_10_n02690373_11799.png,n02690373_11799.png,1.0,1.8543589,-5.986663,5.54444
alexnet_w1_mlp_simclrhn_probe0,1,188,NaN,elephant,dog,120,0188_ps_dnn_120_dog_10_n02092002_9876.png,n02092002_9876.png,0.0,-4.0265565,-0.5734501,-2.441715
alexnet_w1_mlp_simclrhn_probe0,1,189,NaN,chair,chair,0,0189_ps_dnn_0_chair_10_n02791124_16885.png,n02791124_16885.png,1.0,-3.2388368,-4.9631433,1.2192689
alexnet_w1_mlp_simclrhn_probe0,1,190,NaN,bicycle,airplane,60,0190_ps_dnn_60_airplane_10_n02690373_9376.png,n02690373_9376.png,0.0,-4.5454974,-1.6792517,-2.0267417
alexnet_w1_mlp_simclrhn_probe0,1,191,NaN,knife,oven,180,0191_ps_dnn_180_oven_10_n04111531_6474.png,n04111531_6474.png,0.0,-1.9717999,-1.3432436,-0.4444564
alexnet_w1_mlp_simclrhn_probe0,1,192,NaN,elephant,knife,180,0192_ps_dnn_180_knife_10_n03041632_44230.png,n03041632_44230.png,0.0,-1.8795304,-0.41012508,-1.0390265
alexnet_w1_mlp_simclrhn_probe0,1,193,NaN,bear,dog,180,0193_ps_dnn_180_dog_10_n02099601_6318.png,n02099601_6318.png,0.0,-1.5857401,0.43790054,-1.43093
alexnet_w1_mlp_simclrhn_probe0,1,194,NaN,bear,cat,150,0194_ps_dnn_150_cat_10_n02125311_20241.png,n02125311_20241.png,0.0,-1.4392561,-0.11839476,-0.93399
alexnet_w1_mlp_simclrhn_probe0,1,195,NaN,oven,truck,120,0195_ps_dnn_120_truck_10_n04467665_51397.png,n04467665_51397.png,0.0,-7.3953767,-1.5929549,-4.1029315
alexnet_w1_mlp_simclrhn_probe0,1,196,NaN,dog,dog,0,0196_ps_dnn_0_dog_10_n02104365_1500.png,n02104365_1500.png,1.0,-2.6528983,-3.1568313,0.35633442
alexnet_w1_mlp_simclrhn_probe0,1,197,NaN,knife,knife,90,0197_ps_dnn_90_knife_10_n03041632_3171.png,n03041632_3171.png,1.0,-0.8160938,-2.4472997,1.1534368
alexnet_w1_mlp_simclrhn_probe0,1,198,NaN,oven,oven,60,0198_ps_dnn_60_oven_10_n04111531_249.png,n04111531_249.png,1.0,2.4082184,-3.0860915,3.885064
alexnet_w1_mlp_simclrhn_probe0,1,199,NaN,bear,bear,90,0199_ps_dnn_90_bear_10_n02133161_8856.png,n02133161_8856.png,1.0,-0.6412024,-0.8931665,0.17816553
alexnet_w1_mlp_simclrhn_probe0,1,200,NaN,cat,cat,0,0200_ps_dnn_0_cat_10_n02123045_13354.png,n02123045_13354.png,1.0,3.4448156,-8.388659,8.36753
alexnet_w1_mlp_simclrhn_probe0,1,201,NaN,keyboard,keyboard,120,0201_ps_dnn_120_keyboard_10_n03085013_23267.png,n03085013_23267.png,1.0,0.7781451,-0.0632447,0.5949524
alexnet_w1_mlp_simclrhn_probe0,1,202,NaN,oven,truck,30,0202_ps_dnn_30_truck_10_n03796401_22643.png,n03796401_22643.png,0.0,-1.3615489,0.93036795,-1.62063
alexnet_w1_mlp_simclrhn_probe0,1,203,NaN,elephant,elephant,180,0203_ps_dnn_180_elephant_10_n02504458_4572.png,n02504458_4572.png,1.0,0.12446158,-0.28762186,0.291387
alexnet_w1_mlp_simclrhn_probe0,1,204,NaN,elephant,truck,180,0204_ps_dnn_180_truck_10_n04467665_23173.png,n04467665_23173.png,0.0,-7.5040407,-0.3339099,-5.0700483
alexnet_w1_mlp_simclrhn_probe0,1,205,NaN,bear,bear,180,0205_ps_dnn_180_bear_10_n02134418_25040.png,n02134418_25040.png,1.0,0.47500348,0.17034528,0.21542588
alexnet_w1_mlp_simclrhn_probe0,1,206,NaN,bicycle,bicycle,60,0206_ps_dnn_60_bicycle_10_n02835271_21185.png,n02835271_21185.png,1.0,0.7987392,-5.241987,4.271439
alexnet_w1_mlp_simclrhn_probe0,1,207,NaN,knife,boat,30,0207_ps_dnn_30_boat_10_n02951358_12664.png,n02951358_12664.png,0.0,-6.0077543,-3.3684604,-1.8662627
alexnet_w1_mlp_simclrhn_probe0,1,208,NaN,bottle,bottle,30,0208_ps_dnn_30_bottle_10_n03983396_11519.png,n03983396_11519.png,1.0,-1.0499941,-1.8528286,0.5676897
alexnet_w1_mlp_simclrhn_probe0,1,209,NaN,knife,knife,120,0209_ps_dnn_120_knife_10_n03041632_36280.png,n03041632_36280.png,1.0,-0.5607816,-1.4111927,0.6013314
alexnet_w1_mlp_simclrhn_probe0,1,210,NaN,elephant,truck,60,0210_ps_dnn_60_truck_10_n04467665_67115.png,n04467665_67115.png,0.0,-5.8887973,-0.9447292,-3.495984
alexnet_w1_mlp_simclrhn_probe0,1,211,NaN,bear,bear,30,0211_ps_dnn_30_bear_10_n02133161_1560.png,n02133161_1560.png,1.0,-2.7368612,-2.9955726,0.18293655
alexnet_w1_mlp_simclrhn_probe0,1,212,NaN,knife,truck,180,0212_ps_dnn_180_truck_10_n03417042_6780.png,n03417042_6780.png,0.0,-7.3323545,-0.83495986,-4.594352
alexnet_w1_mlp_simclrhn_probe0,1,213,NaN,bear,bear,150,0213_ps_dnn_150_bear_10_n02134084_20261.png,n02134084_20261.png,1.0,0.93824583,0.40356666,0.37807527
alexnet_w1_mlp_simclrhn_probe0,1,214,NaN,keyboard,chair,180,0214_ps_dnn_180_chair_10_n03376595_8377.png,n03376595_8377.png,0.0,-4.8375,-1.0949919,-2.646353
alexnet_w1_mlp_simclrhn_probe0,1,215,NaN,elephant,bird,180,0215_ps_dnn_180_bird_10_n01824575_3556.png,n01824575_3556.png,0.0,-2.81741,0.028138682,-2.0121067
alexnet_w1_mlp_simclrhn_probe0,1,216,NaN,boat,chair,90,0216_ps_dnn_90_chair_10_n04099969_36004.png,n04099969_36004.png,0.0,-5.6325283,-3.979217,-1.1690676
alexnet_w1_mlp_simclrhn_probe0,1,217,NaN,bicycle,bicycle,0,0217_ps_dnn_0_bicycle_10_n02835271_22549.png,n02835271_22549.png,1.0,3.9509385,-5.999906,7.0363097
alexnet_w1_mlp_simclrhn_probe0,1,218,NaN,knife,clock,150,0218_ps_dnn_150_clock_10_n04548280_8535.png,n04548280_8535.png,0.0,-1.7456374,-0.9104519,-0.5905654
alexnet_w1_mlp_simclrhn_probe0,1,219,NaN,elephant,knife,120,0219_ps_dnn_120_knife_10_n03041632_14546.png,n03041632_14546.png,0.0,-3.8826885,-0.70399034,-2.247679
alexnet_w1_mlp_simclrhn_probe0,1,220,NaN,keyboard,keyboard,0,0220_ps_dnn_0_keyboard_10_n04505470_4974.png,n04505470_4974.png,1.0,14.757744,3.3041987,8.098879
alexnet_w1_mlp_simclrhn_probe0,1,221,NaN,clock,clock,0,0221_ps_dnn_0_clock_10_n04548280_487.png,n04548280_487.png,1.0,3.8011627,-2.5008426,4.4561906
alexnet_w1_mlp_simclrhn_probe0,1,222,NaN,truck,truck,30,0222_ps_dnn_30_truck_10_n03417042_10401.png,n03417042_10401.png,1.0,2.4424565,-1.3623123,2.690378
alexnet_w1_mlp_simclrhn_probe0,1,223,NaN,keyboard,clock,180,0223_ps_dnn_180_clock_10_n03196217_6257.png,n03196217_6257.png,0.0,-2.1124363,-0.18900275,-1.360073
alexnet_w1_mlp_simclrhn_probe0,1,224,NaN,elephant,elephant,120,0224_ps_dnn_120_elephant_10_n02504458_1698.png,n02504458_1698.png,1.0,0.85647076,0.404025,0.31992748
alexnet_w1_mlp_simclrhn_probe0,1,225,NaN,knife,keyboard,180,0225_ps_dnn_180_keyboard_10_n03085013_23014.png,n03085013_23014.png,0.0,-3.9251475,-0.89827466,-2.1403224
alexnet_w1_mlp_simclrhn_probe0,1,226,NaN,elephant,cat,60,0226_ps_dnn_60_cat_10_n02125311_17002.png,n02125311_17002.png,0.0,-1.0933119,0.33750942,-1.0117434
alexnet_w1_mlp_simclrhn_probe0,1,227,NaN,elephant,boat,180,0227_ps_dnn_180_boat_10_n03344393_5566.png,n03344393_5566.png,0.0,-2.3569481,-0.33574235,-1.4292084
alexnet_w1_mlp_simclrhn_probe0,1,228,NaN,oven,bicycle,150,0228_ps_dnn_150_bicycle_10_n02835271_4887.png,n02835271_4887.png,0.0,-4.2720656,-1.0127027,-2.3047178
alexnet_w1_mlp_simclrhn_probe0,1,229,NaN,oven,keyboard,120,0229_ps_dnn_120_keyboard_10_n04505470_8386.png,n04505470_8386.png,0.0,-5.976241,2.0631764,-5.6847267
alexnet_w1_mlp_simclrhn_probe0,1,230,NaN,bear,bear,120,0230_ps_dnn_120_bear_10_n02133161_361.png,n02133161_361.png,1.0,0.81564426,0.27461272,0.38256708
alexnet_w1_mlp_simclrhn_probe0,1,231,NaN,elephant,bottle,0,0231_ps_dnn_0_bottle_10_n04560804_2165.png,n04560804_2165.png,0.0,-7.7586484,-5.0438943,-1.9196211
alexnet_w1_mlp_simclrhn_probe0,1,232,NaN,elephant,cat,150,0232_ps_dnn_150_cat_10_n02124075_14020.png,n02124075_14020.png,0.0,-1.6663886,0.05815219,-1.2194345
alexnet_w1_mlp_simclrhn_probe0,1,233,NaN,knife,clock,150,0233_ps_dnn_150_clock_10_n04548280_3301.png,n04548280_3301.png,0.0,-3.4980774,-1.991823,-1.0650828
alexnet_w1_mlp_simclrhn_probe0,1,234,NaN,bear,knife,180,0234_ps_dnn_180_knife_10_n03041632_5820.png,n03041632_5820.png,0.0,-5.4986696,2.7998402,-5.8679323
alexnet_w1_mlp_simclrhn_probe0,1,235,NaN,oven,oven,120,0235_ps_dnn_120_oven_10_n04111531_2922.png,n04111531_2922.png,1.0,-1.3304058,-2.2674778,0.66260993
alexnet_w1_mlp_simclrhn_probe0,1,236,NaN,bear,bear,120,0236_ps_dnn_120_bear_10_n02134084_7441.png,n02134084_7441.png,1.0,0.6303988,0.40803534,0.15723473
alexnet_w1_mlp_simclrhn_probe0,1,237,NaN,knife,airplane,150,0237_ps_dnn_150_airplane_10_n02690373_8252.png,n02690373_8252.png,0.0,-4.663638,-0.67203945,-2.8224864
alexnet_w1_mlp_simclrhn_probe0,1,238,NaN,bear,bird,150,0238_ps_dnn_150_bird_10_n02018207_69.png,n02018207_69.png,0.0,-2.4506435,-1.3845737,-0.75382525
alexnet_w1_mlp_simclrhn_probe0,1,239,NaN,bear,bird,30,0239_ps_dnn_30_bird_10_n01798484_5355.png,n01798484_5355.png,0.0,-2.76777,-2.4132133,-0.25070953
alexnet_w1_mlp_simclrhn_probe0,1,240,NaN,keyboard,keyboard,150,0240_ps_dnn_150_keyboard_10_n03085013_4999.png,n03085013_4999.png,1.0,-1.0184584,-2.0018468,0.69536066
alexnet_w1_mlp_simclrhn_probe0,1,241,NaN,oven,dog,120,0241_ps_dnn_120_dog_10_n02111500_3041.png,n02111500_3041.png,0.0,-2.9640388,0.3402347,-2.3364744
alexnet_w1_mlp_simclrhn_probe0,1,242,NaN,boat,boat,0,0242_ps_dnn_0_boat_10_n04612504_15237.png,n04612504_15237.png,1.0,-0.52857196,-2.1019192,1.1125245
alexnet_w1_mlp_simclrhn_probe0,1,243,NaN,knife,truck,150,0243_ps_dnn_150_truck_10_n03417042_6480.png,n03417042_6480.png,0.0,-8.506439,-1.1674129,-5.1894755
alexnet_w1_mlp_simclrhn_probe0,1,244,NaN,elephant,airplane,180,0244_ps_dnn_180_airplane_10_n02690373_8382.png,n02690373_8382.png,0.0,-9.20265,0.52715683,-6.8800125
alexnet_w1_mlp_simclrhn_probe0,1,245,NaN,oven,bottle,120,0245_ps_dnn_120_bottle_10_n04591713_2345.png,n04591713_2345.png,0.0,-4.343266,-0.8654153,-2.4592118
alexnet_w1_mlp_simclrhn_probe0,1,246,NaN,elephant,elephant,60,0246_ps_dnn_60_elephant_10_n02504458_9516.png,n02504458_9516.png,1.0,1.6759081,-0.061068878,1.2282282
alexnet_w1_mlp_simclrhn_probe0,1,247,NaN,bear,elephant,180,0247_ps_dnn_180_elephant_10_n02504013_698.png,n02504013_698.png,0.0,-1.0132022,-0.8598485,-0.108437434
alexnet_w1_mlp_simclrhn_probe0,1,248,NaN,bear,bear,0,0248_ps_dnn_0_bear_10_n02133161_5292.png,n02133161_5292.png,1.0,-0.06617981,-4.0642824,2.8270855
alexnet_w1_mlp_simclrhn_probe0,1,249,NaN,bicycle,boat,90,0249_ps_dnn_90_boat_10_n02951358_14341.png,n02951358_14341.png,0.0,-3.8894477,-3.014383,-0.6187641
alexnet_w1_mlp_simclrhn_probe0,1,250,NaN,bear,bear,120,0250_ps_dnn_120_bear_10_n02133161_2304.png,n02133161_2304.png,1.0,-0.80001825,-1.0969332,0.20995061
alexnet_w1_mlp_simclrhn_probe0,1,251,NaN,bear,airplane,150,0251_ps_dnn_150_airplane_10_n02690373_1751.png,n02690373_1751.png,0.0,-10.96656,1.5065671,-8.819833
alexnet_w1_mlp_simclrhn_probe0,1,252,NaN,knife,truck,150,0252_ps_dnn_150_truck_10_n04467665_48953.png,n04467665_48953.png,0.0,-6.2158203,-0.6816511,-3.9132485
alexnet_w1_mlp_simclrhn_probe0,1,253,NaN,oven,oven,0,0253_ps_dnn_0_oven_10_n04111531_10077.png,n04111531_10077.png,1.0,4.320707,-3.1230283,5.2635155
alexnet_w1_mlp_simclrhn_probe0,1,254,NaN,oven,dog,150,0254_ps_dnn_150_dog_10_n02097209_821.png,n02097209_821.png,0.0,-1.984554,0.59494406,-1.8239806
alexnet_w1_mlp_simclrhn_probe0,1,255,NaN,elephant,truck,0,0255_ps_dnn_0_truck_10_n04467665_13231.png,n04467665_13231.png,0.0,-3.2568526,-3.1730318,-0.05927027
alexnet_w1_mlp_simclrhn_probe0,1,256,NaN,bear,dog,90,0256_ps_dnn_90_dog_10_n02107908_3447.png,n02107908_3447.png,0.0,-1.7151126,-1.0599238,-0.46328846
alexnet_w1_mlp_simclrhn_probe0,1,257,NaN,elephant,elephant,180,0257_ps_dnn_180_elephant_10_n02504013_5021.png,n02504013_5021.png,1.0,-0.24826227,-0.5234081,0.19455749
alexnet_w1_mlp_simclrhn_probe0,1,258,NaN,oven,knife,90,0258_ps_dnn_90_knife_10_n03041632_12242.png,n03041632_12242.png,0.0,-2.828424,-1.9000845,-0.65643513
alexnet_w1_mlp_simclrhn_probe0,1,259,NaN,knife,keyboard,150,0259_ps_dnn_150_keyboard_10_n03085013_22821.png,n03085013_22821.png,0.0,-2.6687205,-0.14510964,-1.7844623
alexnet_w1_mlp_simclrhn_probe0,1,260,NaN,bear,cat,150,0260_ps_dnn_150_cat_10_n02124075_2080.png,n02124075_2080.png,0.0,-2.4219394,-0.42201692,-1.4141588
alexnet_w1_mlp_simclrhn_probe0,1,261,NaN,elephant,bicycle,180,0261_ps_dnn_180_bicycle_10_n02835271_7296.png,n02835271_7296.png,0.0,-1.6083951,-0.8454543,-0.5394806
alexnet_w1_mlp_simclrhn_probe0,1,262,NaN,knife,boat,180,0262_ps_dnn_180_boat_10_n04612504_4302.png,n04612504_4302.png,0.0,-3.0783677,-1.0823544,-1.4113946
alexnet_w1_mlp_simclrhn_probe0,1,263,NaN,elephant,clock,150,0263_ps_dnn_150_clock_10_n04548280_4524.png,n04548280_4524.png,0.0,-7.743738,1.0981019,-6.252125
alexnet_w1_mlp_simclrhn_probe0,1,264,NaN,elephant,knife,150,0264_ps_dnn_150_knife_10_n03041632_19275.png,n03041632_19275.png,0.0,-4.3682547,-0.7988347,-2.523961
alexnet_w1_mlp_simclrhn_probe0,1,265,NaN,bird,bird,30,0265_ps_dnn_30_bird_10_n01796340_2973.png,n01796340_2973.png,1.0,-1.7854666,-4.0512753,1.6021687
alexnet_w1_mlp_simclrhn_probe0,1,266,NaN,oven,chair,90,0266_ps_dnn_90_chair_10_n02791124_15407.png,n02791124_15407.png,0.0,-6.666899,-1.3367994,-3.76895
alexnet_w1_mlp_simclrhn_probe0,1,267,NaN,dog,dog,30,0267_ps_dnn_30_dog_10_n02109525_72594.png,n02109525_72594.png,1.0,-3.4080317,-5.295969,1.3349733
alexnet_w1_mlp_simclrhn_probe0,1,268,NaN,elephant,knife,150,0268_ps_dnn_150_knife_10_n03041632_19614.png,n03041632_19614.png,0.0,-1.9083531,-0.79997265,-0.7837433
alexnet_w1_mlp_simclrhn_probe0,1,269,NaN,keyboard,keyboard,30,0269_ps_dnn_30_keyboard_10_n04505470_5111.png,n04505470_5111.png,1.0,8.639766,3.2211664,3.8315282
alexnet_w1_mlp_simclrhn_probe0,1,270,NaN,bicycle,bicycle,30,0270_ps_dnn_30_bicycle_10_n03792782_8374.png,n03792782_8374.png,1.0,1.1752083,-5.738104,4.8884497
alexnet_w1_mlp_simclrhn_probe0,1,271,NaN,elephant,boat,120,0271_ps_dnn_120_boat_10_n04612504_2024.png,n04612504_2024.png,0.0,-4.1038365,-1.336035,-1.9571313
alexnet_w1_mlp_simclrhn_probe0,1,272,NaN,bicycle,bicycle,30,0272_ps_dnn_30_bicycle_10_n02835271_9860.png,n02835271_9860.png,1.0,-0.63744575,-1.552991,0.6473883
alexnet_w1_mlp_simclrhn_probe0,1,273,NaN,bear,bear,60,0273_ps_dnn_60_bear_10_n02134084_21921.png,n02134084_21921.png,1.0,2.5590794,1.1508417,0.99577445
alexnet_w1_mlp_simclrhn_probe0,1,274,NaN,bear,bear,90,0274_ps_dnn_90_bear_10_n02134418_836.png,n02134418_836.png,1.0,0.93430555,-0.055826575,0.70012915
alexnet_w1_mlp_simclrhn_probe0,1,275,NaN,oven,chair,60,0275_ps_dnn_60_chair_10_n04429376_6141.png,n04429376_6141.png,0.0,-4.138903,-1.1154646,-2.137894
alexnet_w1_mlp_simclrhn_probe0,1,276,NaN,boat,truck,30,0276_ps_dnn_30_truck_10_n04467665_6523.png,n04467665_6523.png,0.0,-2.7237184,-2.4341652,-0.20474501
alexnet_w1_mlp_simclrhn_probe0,1,277,NaN,chair,chair,90,0277_ps_dnn_90_chair_10_n04429376_41755.png,n04429376_41755.png,1.0,-4.4955206,-5.2113676,0.5061803
alexnet_w1_mlp_simclrhn_probe0,1,278,NaN,knife,bottle,180,0278_ps_dnn_180_bottle_10_n04579145_3302.png,n04579145_3302.png,0.0,-2.4073677,-0.32128716,-1.4750817
alexnet_w1_mlp_simclrhn_probe0,1,279,NaN,cat,cat,0,0279_ps_dnn_0_cat_10_n02123045_12297.png,n02123045_12297.png,1.0,-0.45638117,-8.235844,5.5009108
alexnet_w1_mlp_simclrhn_probe0,1,280,NaN,cat,clock,60,0280_ps_dnn_60_clock_10_n04548280_5734.png,n04548280_5734.png,0.0,-7.016849,-4.8052607,-1.5638292
alexnet_w1_mlp_simclrhn_probe0,1,281,NaN,oven,elephant,90,0281_ps_dnn_90_elephant_10_n02504013_3640.png,n02504013_3640.png,0.0,-4.055782,-0.2964556,-2.658245
alexnet_w1_mlp_simclrhn_probe0,1,282,NaN,knife,car,0,0282_ps_dnn_0_car_10_n03100240_2108.png,n03100240_2108.png,0.0,-9.235183,-4.8922663,-3.0709057
alexnet_w1_mlp_simclrhn_probe0,1,283,NaN,elephant,car,90,0283_ps_dnn_90_car_10_n02814533_8499.png,n02814533_8499.png,0.0,-8.3042555,-1.803668,-4.5966096
alexnet_w1_mlp_simclrhn_probe0,1,284,NaN,bear,knife,180,0284_ps_dnn_180_knife_10_n03041632_9406.png,n03041632_9406.png,0.0,-5.421274,2.332248,-5.482568
alexnet_w1_mlp_simclrhn_probe0,1,285,NaN,bottle,clock,120,0285_ps_dnn_120_clock_10_n04548280_3968.png,n04548280_3968.png,0.0,-3.3658857,-2.2527242,-0.7871241
alexnet_w1_mlp_simclrhn_probe0,1,286,NaN,elephant,boat,120,0286_ps_dnn_120_boat_10_n04273569_20587.png,n04273569_20587.png,0.0,-3.069323,-0.7078099,-1.669842
alexnet_w1_mlp_simclrhn_probe0,1,287,NaN,oven,truck,150,0287_ps_dnn_150_truck_10_n03796401_7261.png,n03796401_7261.png,0.0,-7.178896,-0.66204345,-4.6081104
alexnet_w1_mlp_simclrhn_probe0,1,288,NaN,bear,boat,90,0288_ps_dnn_90_boat_10_n04273569_18037.png,n04273569_18037.png,0.0,-5.0912805,-0.74034715,-3.0765743
alexnet_w1_mlp_simclrhn_probe0,1,289,NaN,bear,bicycle,180,0289_ps_dnn_180_bicycle_10_n02835271_4789.png,n02835271_4789.png,0.0,-2.7804694,-1.6374952,-0.8082049
alexnet_w1_mlp_simclrhn_probe0,1,290,NaN,oven,chair,90,0290_ps_dnn_90_chair_10_n04099969_18380.png,n04099969_18380.png,0.0,-4.7102885,-1.5809696,-2.2127626
alexnet_w1_mlp_simclrhn_probe0,1,291,NaN,elephant,dog,120,0291_ps_dnn_120_dog_10_n02100583_13688.png,n02100583_13688.png,0.0,-5.8468175,-1.5134342,-3.0641649
alexnet_w1_mlp_simclrhn_probe0,1,292,NaN,elephant,boat,180,0292_ps_dnn_180_boat_10_n03662601_8065.png,n03662601_8065.png,0.0,-3.2260158,-1.4599199,-1.2488184
alexnet_w1_mlp_simclrhn_probe0,1,293,NaN,boat,boat,0,0293_ps_dnn_0_boat_10_n02951358_15218.png,n02951358_15218.png,1.0,-0.044226624,-1.2169802,0.829262
alexnet_w1_mlp_simclrhn_probe0,1,294,NaN,oven,knife,180,0294_ps_dnn_180_knife_10_n03041632_24277.png,n03041632_24277.png,0.0,-1.513598,-1.0018849,-0.36183575
alexnet_w1_mlp_simclrhn_probe0,1,295,NaN,bear,bird,90,0295_ps_dnn_90_bird_10_n01601694_2723.png,n01601694_2723.png,0.0,-4.543562,-0.5164984,-2.847564
alexnet_w1_mlp_simclrhn_probe0,1,296,NaN,keyboard,keyboard,120,0296_ps_dnn_120_keyboard_10_n04505470_4724.png,n04505470_4724.png,1.0,0.9832805,-0.91729116,1.3439071
alexnet_w1_mlp_simclrhn_probe0,1,297,NaN,elephant,bear,150,0297_ps_dnn_150_bear_10_n02134418_1642.png,n02134418_1642.png,0.0,-0.7868836,0.4338637,-0.86319864
alexnet_w1_mlp_simclrhn_probe0,1,298,NaN,oven,truck,60,0298_ps_dnn_60_truck_10_n03417042_13055.png,n03417042_13055.png,0.0,-4.447486,-1.220294,-2.2819693
alexnet_w1_mlp_simclrhn_probe0,1,299,NaN,clock,bear,120,0299_ps_dnn_120_bear_10_n02133161_1629.png,n02133161_1629.png,0.0,-3.1526973,-1.3862761,-1.2490485
alexnet_w1_mlp_simclrhn_probe0,1,300,NaN,knife,bottle,180,0300_ps_dnn_180_bottle_10_n04579145_1856.png,n04579145_1856.png,0.0,-2.7446773,-0.75099,-1.4097499
alexnet_w1_mlp_simclrhn_probe0,1,301,NaN,elephant,chair,150,0301_ps_dnn_150_chair_10_n04099969_3768.png,n04099969_3768.png,0.0,-5.6101146,-1.4925276,-2.911574
alexnet_w1_mlp_simclrhn_probe0,1,302,NaN,bear,bird,120,0302_ps_dnn_120_bird_10_n02009229_5172.png,n02009229_5172.png,0.0,-4.0142207,-1.6944027,-1.640359
alexnet_w1_mlp_simclrhn_probe0,1,303,NaN,airplane,airplane,90,0303_ps_dnn_90_airplane_10_n02690373_21731.png,n02690373_21731.png,1.0,0.27897567,-1.571643,1.3085849
alexnet_w1_mlp_simclrhn_probe0,1,304,NaN,bear,bear,30,0304_ps_dnn_30_bear_10_n02133161_959.png,n02133161_959.png,1.0,-1.2104928,-1.6837486,0.33464235
alexnet_w1_mlp_simclrhn_probe0,1,305,NaN,chair,chair,0,0305_ps_dnn_0_chair_10_n04099969_1028.png,n04099969_1028.png,1.0,-0.36791503,-1.7043209,0.9449817
alexnet_w1_mlp_simclrhn_probe0,1,306,NaN,bear,knife,180,0306_ps_dnn_180_knife_10_n03041632_44212.png,n03041632_44212.png,0.0,-5.5295997,-1.9947492,-2.499517
alexnet_w1_mlp_simclrhn_probe0,1,307,NaN,oven,oven,120,0307_ps_dnn_120_oven_10_n04111531_9344.png,n04111531_9344.png,1.0,0.25971845,-0.79354084,0.7447668
alexnet_w1_mlp_simclrhn_probe0,1,308,NaN,elephant,car,180,0308_ps_dnn_180_car_10_n04285008_9080.png,n04285008_9080.png,0.0,-12.940234,1.936457,-10.519409
alexnet_w1_mlp_simclrhn_probe0,1,309,NaN,car,car,60,0309_ps_dnn_60_car_10_n03100240_17349.png,n03100240_17349.png,1.0,-2.2971008,-4.4111404,1.4948518
alexnet_w1_mlp_simclrhn_probe0,1,310,NaN,cat,dog,30,0310_ps_dnn_30_dog_10_n02110958_1335.png,n02110958_1335.png,0.0,-10.386153,-9.0013685,-0.97919065
alexnet_w1_mlp_simclrhn_probe0,1,311,NaN,knife,elephant,150,0311_ps_dnn_150_elephant_10_n02504013_7305.png,n02504013_7305.png,0.0,-2.254366,-0.14103653,-1.4943496
alexnet_w1_mlp_simclrhn_probe0,1,312,NaN,elephant,dog,90,0312_ps_dnn_90_dog_10_n02091244_2626.png,n02091244_2626.png,0.0,-8.36762,-1.8400354,-4.6157
alexnet_w1_mlp_simclrhn_probe0,1,313,NaN,knife,bird,150,0313_ps_dnn_150_bird_10_n01828970_22.png,n01828970_22.png,0.0,-1.3267279,-0.780247,-0.38642034
alexnet_w1_mlp_simclrhn_probe0,1,314,NaN,cat,cat,60,0314_ps_dnn_60_cat_10_n02124075_13587.png,n02124075_13587.png,1.0,-0.5521423,-1.8442513,0.91365904
alexnet_w1_mlp_simclrhn_probe0,1,315,NaN,bear,knife,120,0315_ps_dnn_120_knife_10_n03041632_13612.png,n03041632_13612.png,0.0,-3.8140762,-2.6358528,-0.83312976
alexnet_w1_mlp_simclrhn_probe0,1,316,NaN,elephant,bicycle,90,0316_ps_dnn_90_bicycle_10_n02835271_2581.png,n02835271_2581.png,0.0,-3.443959,0.6017703,-2.8607626
alexnet_w1_mlp_simclrhn_probe0,1,317,NaN,knife,clock,30,0317_ps_dnn_30_clock_10_n03196217_2536.png,n03196217_2536.png,0.0,-2.7247226,-1.7038294,-0.72188056
alexnet_w1_mlp_simclrhn_probe0,1,318,NaN,cat,cat,90,0318_ps_dnn_90_cat_10_n02124075_15001.png,n02124075_15001.png,1.0,-2.3056357,-3.0025954,0.49282497
alexnet_w1_mlp_simclrhn_probe0,1,319,NaN,bear,bear,60,0319_ps_dnn_60_bear_10_n02133161_6152.png,n02133161_6152.png,1.0,-2.246732,-3.197583,0.67235315
alexnet_w1_mlp_simclrhn_probe0,1,320,NaN,oven,chair,30,0320_ps_dnn_30_chair_10_n04099969_8401.png,n04099969_8401.png,0.0,-4.3600235,-0.81974685,-2.5033536
alexnet_w1_mlp_simclrhn_probe0,1,321,NaN,oven,oven,150,0321_ps_dnn_150_oven_10_n04111531_7923.png,n04111531_7923.png,1.0,-1.3640107,-1.9615047,0.42249206
alexnet_w1_mlp_simclrhn_probe0,1,322,NaN,cat,cat,120,0322_ps_dnn_120_cat_10_n02123159_5706.png,n02123159_5706.png,1.0,-0.49875936,-1.3977497,0.6356821
alexnet_w1_mlp_simclrhn_probe0,1,323,NaN,airplane,airplane,30,0323_ps_dnn_30_airplane_10_n02690373_13324.png,n02690373_13324.png,1.0,2.3202515,-3.764497,4.302567
alexnet_w1_mlp_simclrhn_probe0,1,324,NaN,elephant,airplane,150,0324_ps_dnn_150_airplane_10_n02690373_4452.png,n02690373_4452.png,0.0,-7.928153,-0.46120387,-5.2799306
alexnet_w1_mlp_simclrhn_probe0,1,325,NaN,elephant,bird,90,0325_ps_dnn_90_bird_10_n02056570_10881.png,n02056570_10881.png,0.0,-6.5077806,-3.72853,-1.965227
alexnet_w1_mlp_simclrhn_probe0,1,326,NaN,airplane,airplane,90,0326_ps_dnn_90_airplane_10_n02690373_19133.png,n02690373_19133.png,1.0,0.8155615,-2.539446,2.3723488
alexnet_w1_mlp_simclrhn_probe0,1,327,NaN,bottle,bottle,0,0327_ps_dnn_0_bottle_10_n03937543_4850.png,n03937543_4850.png,1.0,-0.3751293,-1.196744,0.5809693
alexnet_w1_mlp_simclrhn_probe0,1,328,NaN,elephant,keyboard,150,0328_ps_dnn_150_keyboard_10_n04505470_2709.png,n04505470_2709.png,0.0,-6.824421,-1.5185878,-3.7517905
alexnet_w1_mlp_simclrhn_probe0,1,329,NaN,oven,keyboard,90,0329_ps_dnn_90_keyboard_10_n03085013_1797.png,n03085013_1797.png,0.0,-6.175275,-1.0527489,-3.622173
alexnet_w1_mlp_simclrhn_probe0,1,330,NaN,oven,oven,30,0330_ps_dnn_30_oven_10_n04111531_3902.png,n04111531_3902.png,1.0,-1.9555233,-5.461042,2.478776
alexnet_w1_mlp_simclrhn_probe0,1,331,NaN,elephant,car,180,0331_ps_dnn_180_car_10_n03100240_6750.png,n03100240_6750.png,0.0,-6.661902,-0.0120768845,-4.7021365
alexnet_w1_mlp_simclrhn_probe0,1,332,NaN,bicycle,chair,0,0332_ps_dnn_0_chair_10_n03376595_16306.png,n03376595_16306.png,0.0,-3.8537765,-1.2326001,-1.8534515
alexnet_w1_mlp_simclrhn_probe0,1,333,NaN,bicycle,boat,60,0333_ps_dnn_60_boat_10_n02951358_13017.png,n02951358_13017.png,0.0,-9.566235,-2.1344893,-5.255038
alexnet_w1_mlp_simclrhn_probe0,1,334,NaN,oven,clock,90,0334_ps_dnn_90_clock_10_n03196217_5827.png,n03196217_5827.png,0.0,-3.3100395,-1.0203567,-1.6190503
alexnet_w1_mlp_simclrhn_probe0,1,335,NaN,bottle,bottle,0,0335_ps_dnn_0_bottle_10_n02823428_685.png,n02823428_685.png,1.0,-3.1479814,-5.5760336,1.7168922
alexnet_w1_mlp_simclrhn_probe0,1,336,NaN,bear,airplane,120,0336_ps_dnn_120_airplane_10_n02690373_2092.png,n02690373_2092.png,0.0,-7.6445312,-0.53418803,-5.027772
alexnet_w1_mlp_simclrhn_probe0,1,337,NaN,knife,bottle,180,0337_ps_dnn_180_bottle_10_n04557648_3637.png,n04557648_3637.png,0.0,-5.352881,-1.3936294,-2.7996135
alexnet_w1_mlp_simclrhn_probe0,1,338,NaN,bear,bird,90,0338_ps_dnn_90_bird_10_n01819313_5521.png,n01819313_5521.png,0.0,-5.198454,-0.09051065,-3.6118612
alexnet_w1_mlp_simclrhn_probe0,1,339,NaN,elephant,dog,90,0339_ps_dnn_90_dog_10_n02100583_24297.png,n02100583_24297.png,0.0,-2.625254,0.23584682,-2.0231037
alexnet_w1_mlp_simclrhn_probe0,1,340,NaN,bear,bird,60,0340_ps_dnn_60_bird_10_n02018207_12233.png,n02018207_12233.png,0.0,-2.8314955,-0.659256,-1.5360054
alexnet_w1_mlp_simclrhn_probe0,1,341,NaN,bear,bird,180,0341_ps_dnn_180_bird_10_n02013706_3032.png,n02013706_3032.png,0.0,-2.2533584,0.40966597,-1.8830427
alexnet_w1_mlp_simclrhn_probe0,1,342,NaN,oven,oven,60,0342_ps_dnn_60_oven_10_n04111531_9939.png,n04111531_9939.png,1.0,0.55917853,-4.6200085,3.6622381
alexnet_w1_mlp_simclrhn_probe0,1,343,NaN,bird,bird,180,0343_ps_dnn_180_bird_10_n02011460_7629.png,n02011460_7629.png,1.0,-2.1209686,-2.176639,0.03936499
alexnet_w1_mlp_simclrhn_probe0,1,344,NaN,elephant,oven,60,0344_ps_dnn_60_oven_10_n04111531_13542.png,n04111531_13542.png,0.0,-4.380038,-2.9295726,-1.0256338
alexnet_w1_mlp_simclrhn_probe0,1,345,NaN,bear,bear,90,0345_ps_dnn_90_bear_10_n02134418_270.png,n02134418_270.png,1.0,1.7520618,0.83467853,0.64868796
alexnet_w1_mlp_simclrhn_probe0,1,346,NaN,bear,bicycle,90,0346_ps_dnn_90_bicycle_10_n03792782_12561.png,n03792782_12561.png,0.0,-3.1183054,0.3953004,-2.4844944
alexnet_w1_mlp_simclrhn_probe0,1,347,NaN,elephant,elephant,120,0347_ps_dnn_120_elephant_10_n02504458_9213.png,n02504458_9213.png,1.0,-1.256459,-1.6561421,0.28261864
alexnet_w1_mlp_simclrhn_probe0,1,348,NaN,oven,chair,90,0348_ps_dnn_90_chair_10_n03376595_4155.png,n03376595_4155.png,0.0,-5.3628073,-2.7911148,-1.8184612
alexnet_w1_mlp_simclrhn_probe0,1,349,NaN,elephant,truck,120,0349_ps_dnn_120_truck_10_n04467665_69970.png,n04467665_69970.png,0.0,-8.643551,0.053505033,-6.1497474
alexnet_w1_mlp_simclrhn_probe0,1,350,NaN,oven,bird,120,0350_ps_dnn_120_bird_10_n02002556_2350.png,n02002556_2350.png,0.0,-3.2075083,-0.8470641,-1.6690862
alexnet_w1_mlp_simclrhn_probe0,1,351,NaN,bear,bear,0,0351_ps_dnn_0_bear_10_n02133161_355.png,n02133161_355.png,1.0,-0.05713898,-5.8078775,4.066386
alexnet_w1_mlp_simclrhn_probe0,1,352,NaN,bear,airplane,90,0352_ps_dnn_90_airplane_10_n02690373_3065.png,n02690373_3065.png,0.0,-3.8823566,-1.3889041,-1.7631372
alexnet_w1_mlp_simclrhn_probe0,1,353,NaN,bicycle,truck,60,0353_ps_dnn_60_truck_10_n03417042_13289.png,n03417042_13289.png,0.0,-5.167439,-4.1453896,-0.7226981
alexnet_w1_mlp_simclrhn_probe0,1,354,NaN,oven,oven,0,0354_ps_dnn_0_oven_10_n04111531_21404.png,n04111531_21404.png,1.0,-4.0175405,-4.119769,0.07228657
alexnet_w1_mlp_simclrhn_probe0,1,355,NaN,elephant,bear,90,0355_ps_dnn_90_bear_10_n02132136_8358.png,n02132136_8358.png,0.0,1.2536144,1.3131515,-0.042099055
alexnet_w1_mlp_simclrhn_probe0,1,356,NaN,oven,oven,90,0356_ps_dnn_90_oven_10_n04111531_274.png,n04111531_274.png,1.0,1.8443282,-1.7137479,2.5159397
alexnet_w1_mlp_simclrhn_probe0,1,357,NaN,oven,chair,120,0357_ps_dnn_120_chair_10_n02791124_2773.png,n02791124_2773.png,0.0,-4.104712,-1.0466534,-2.162374
alexnet_w1_mlp_simclrhn_probe0,1,358,NaN,bear,knife,120,0358_ps_dnn_120_knife_10_n03041632_102828.png,n03041632_102828.png,0.0,-3.0596175,-1.0132396,-1.4470077
alexnet_w1_mlp_simclrhn_probe0,1,359,NaN,elephant,boat,150,0359_ps_dnn_150_boat_10_n02951358_30995.png,n02951358_30995.png,0.0,-2.8057394,-0.98415464,-1.288055
alexnet_w1_mlp_simclrhn_probe0,1,360,NaN,elephant,bicycle,150,0360_ps_dnn_150_bicycle_10_n03792782_4544.png,n03792782_4544.png,0.0,-5.2710733,-0.7046961,-3.2289164
alexnet_w1_mlp_simclrhn_probe0,1,361,NaN,elephant,airplane,120,0361_ps_dnn_120_airplane_10_n02690373_8446.png,n02690373_8446.png,0.0,-8.1963415,-0.47331363,-5.461005
alexnet_w1_mlp_simclrhn_probe0,1,362,NaN,knife,bottle,30,0362_ps_dnn_30_bottle_10_n04557648_900.png,n04557648_900.png,0.0,-4.8939285,-4.84143,-0.037121933
alexnet_w1_mlp_simclrhn_probe0,1,363,NaN,oven,airplane,150,0363_ps_dnn_150_airplane_10_n02690373_3407.png,n02690373_3407.png,0.0,-5.5621405,-0.6598383,-3.4664512
alexnet_w1_mlp_simclrhn_probe0,1,364,NaN,elephant,bottle,120,0364_ps_dnn_120_bottle_10_n03983396_8143.png,n03983396_8143.png,0.0,-2.4221394,-0.6026877,-1.2865467
alexnet_w1_mlp_simclrhn_probe0,1,365,NaN,car,car,0,0365_ps_dnn_0_car_10_n03100240_9610.png,n03100240_9610.png,1.0,5.283584,0.7854137,3.1806867
alexnet_w1_mlp_simclrhn_probe0,1,366,NaN,oven,cat,120,0366_ps_dnn_120_cat_10_n02123159_1108.png,n02123159_1108.png,0.0,-2.0968544,1.0522774,-2.2267725
alexnet_w1_mlp_simclrhn_probe0,1,367,NaN,clock,clock,0,0367_ps_dnn_0_clock_10_n04548280_2170.png,n04548280_2170.png,1.0,6.4934497,-0.15131417,4.698558
alexnet_w1_mlp_simclrhn_probe0,1,368,NaN,bear,keyboard,120,0368_ps_dnn_120_keyboard_10_n04505470_4385.png,n04505470_4385.png,0.0,-10.948424,-1.3939942,-6.7560024
alexnet_w1_mlp_simclrhn_probe0,1,369,NaN,bear,airplane,120,0369_ps_dnn_120_airplane_10_n02690373_18383.png,n02690373_18383.png,0.0,-3.8841376,-1.5074204,-1.6805928
alexnet_w1_mlp_simclrhn_probe0,1,370,NaN,oven,truck,90,0370_ps_dnn_90_truck_10_n03417042_10243.png,n03417042_10243.png,0.0,-6.1993914,-0.44005844,-4.0724635
alexnet_w1_mlp_simclrhn_probe0,1,371,NaN,cat,cat,30,0371_ps_dnn_30_cat_10_n02123045_11826.png,n02123045_11826.png,1.0,0.9826763,-4.6930532,4.013347
alexnet_w1_mlp_simclrhn_probe0,1,372,NaN,elephant,bird,0,0372_ps_dnn_0_bird_10_n01817953_2257.png,n01817953_2257.png,0.0,-7.56035,-6.624302,-0.6618859
alexnet_w1_mlp_simclrhn_probe0,1,373,NaN,boat,boat,0,0373_ps_dnn_0_boat_10_n04612504_18442.png,n04612504_18442.png,1.0,2.879316,-1.5507706,3.1325443
alexnet_w1_mlp_simclrhn_probe0,1,374,NaN,elephant,airplane,180,0374_ps_dnn_180_airplane_10_n02690373_2874.png,n02690373_2874.png,0.0,-7.940021,-0.64540476,-5.1580725
alexnet_w1_mlp_simclrhn_probe0,1,375,NaN,bicycle,bicycle,0,0375_ps_dnn_0_bicycle_10_n02835271_4963.png,n02835271_4963.png,1.0,0.5122227,-7.223835,5.470219
alexnet_w1_mlp_simclrhn_probe0,1,376,NaN,oven,boat,180,0376_ps_dnn_180_boat_10_n04273569_568.png,n04273569_568.png,0.0,-3.654152,-0.6880963,-2.0973182
alexnet_w1_mlp_simclrhn_probe0,1,377,NaN,elephant,elephant,90,0377_ps_dnn_90_elephant_10_n02504013_2233.png,n02504013_2233.png,1.0,1.3811357,0.07214494,0.92559624
alexnet_w1_mlp_simclrhn_probe0,1,378,NaN,oven,bottle,60,0378_ps_dnn_60_bottle_10_n02823428_889.png,n02823428_889.png,0.0,-6.676894,-0.13787466,-4.623785
alexnet_w1_mlp_simclrhn_probe0,1,379,NaN,elephant,car,90,0379_ps_dnn_90_car_10_n04285008_3096.png,n04285008_3096.png,0.0,-4.860719,-0.9702849,-2.7509525
alexnet_w1_mlp_simclrhn_probe0,1,380,NaN,elephant,airplane,120,0380_ps_dnn_120_airplane_10_n02690373_13206.png,n02690373_13206.png,0.0,-7.6252375,-1.2412853,-4.514136
alexnet_w1_mlp_simclrhn_probe0,1,381,NaN,oven,keyboard,90,0381_ps_dnn_90_keyboard_10_n03085013_25443.png,n03085013_25443.png,0.0,-6.723351,1.1654928,-5.5782547
alexnet_w1_mlp_simclrhn_probe0,1,382,NaN,truck,truck,30,0382_ps_dnn_30_truck_10_n04467665_20622.png,n04467665_20622.png,1.0,0.5362934,-4.075678,3.2611563
alexnet_w1_mlp_simclrhn_probe0,1,383,NaN,bicycle,bicycle,60,0383_ps_dnn_60_bicycle_10_n02835271_24639.png,n02835271_24639.png,1.0,1.0731674,-2.6989279,2.6672742
alexnet_w1_mlp_simclrhn_probe0,1,384,NaN,knife,knife,30,0384_ps_dnn_30_knife_10_n03041632_25603.png,n03041632_25603.png,1.0,-3.7637115,-6.302961,1.7955205
alexnet_w1_mlp_simclrhn_probe0,1,385,NaN,boat,boat,60,0385_ps_dnn_60_boat_10_n04273569_4978.png,n04273569_4978.png,1.0,1.4719,-3.2010143,3.3042495
alexnet_w1_mlp_simclrhn_probe0,1,386,NaN,boat,car,60,0386_ps_dnn_60_car_10_n02814533_46401.png,n02814533_46401.png,0.0,-1.8497229,-1.6653811,-0.13034934
alexnet_w1_mlp_simclrhn_probe0,1,387,NaN,bear,bird,120,0387_ps_dnn_120_bird_10_n01798484_12863.png,n01798484_12863.png,0.0,-2.7433066,-0.7427741,-1.4145902
alexnet_w1_mlp_simclrhn_probe0,1,388,NaN,bear,boat,120,0388_ps_dnn_120_boat_10_n03662601_7885.png,n03662601_7885.png,0.0,-2.6278558,-1.7772863,-0.60144347
alexnet_w1_mlp_simclrhn_probe0,1,389,NaN,bicycle,chair,0,0389_ps_dnn_0_chair_10_n03376595_3062.png,n03376595_3062.png,0.0,-2.3323603,-2.0514889,-0.19860607
alexnet_w1_mlp_simclrhn_probe0,1,390,NaN,elephant,airplane,90,0390_ps_dnn_90_airplane_10_n02690373_19118.png,n02690373_19118.png,0.0,-4.008607,-3.2076082,-0.5663916
alexnet_w1_mlp_simclrhn_probe0,1,391,NaN,elephant,cat,180,0391_ps_dnn_180_cat_10_n02123597_3944.png,n02123597_3944.png,0.0,-1.9404364,0.91874826,-2.021749
alexnet_w1_mlp_simclrhn_probe0,1,392,NaN,knife,keyboard,150,0392_ps_dnn_150_keyboard_10_n04505470_2113.png,n04505470_2113.png,0.0,-1.381961,-0.21625751,-0.82427686
alexnet_w1_mlp_simclrhn_probe0,1,393,NaN,elephant,bird,30,0393_ps_dnn_30_bird_10_n02056570_4808.png,n02056570_4808.png,0.0,-5.6385193,-2.673406,-2.0966518
alexnet_w1_mlp_simclrhn_probe0,1,394,NaN,elephant,bear,180,0394_ps_dnn_180_bear_10_n02133161_2316.png,n02133161_2316.png,0.0,0.813403,1.0227551,-0.14803432
alexnet_w1_mlp_simclrhn_probe0,1,395,NaN,elephant,dog,0,0395_ps_dnn_0_dog_10_n02106662_15515.png,n02106662_15515.png,0.0,-1.9907,-1.8345177,-0.11043756
alexnet_w1_mlp_simclrhn_probe0,1,396,NaN,airplane,airplane,0,0396_ps_dnn_0_airplane_10_n02690373_3899.png,n02690373_3899.png,1.0,2.6044276,-0.3836258,2.1128728
alexnet_w1_mlp_simclrhn_probe0,1,397,NaN,knife,boat,0,0397_ps_dnn_0_boat_10_n04273569_2449.png,n04273569_2449.png,0.0,-12.351184,-7.9241147,-3.1304107
alexnet_w1_mlp_simclrhn_probe0,1,398,NaN,oven,bird,120,0398_ps_dnn_120_bird_10_n02007558_7614.png,n02007558_7614.png,0.0,-6.5154963,2.6002731,-6.4458222
alexnet_w1_mlp_simclrhn_probe0,1,399,NaN,bottle,keyboard,90,0399_ps_dnn_90_keyboard_10_n03085013_4914.png,n03085013_4914.png,0.0,-6.8206596,-2.0691812,-3.3598025
alexnet_w1_mlp_simclrhn_probe0,1,400,NaN,bear,oven,150,0400_ps_dnn_150_oven_10_n04111531_15296.png,n04111531_15296.png,0.0,-0.41666698,-0.2842536,-0.0936304
alexnet_w1_mlp_simclrhn_probe0,1,401,NaN,oven,chair,60,0401_ps_dnn_60_chair_10_n04099969_246.png,n04099969_246.png,0.0,-7.8389935,-2.1719286,-4.00722
alexnet_w1_mlp_simclrhn_probe0,1,402,NaN,knife,truck,180,0402_ps_dnn_180_truck_10_n04467665_670.png,n04467665_670.png,0.0,-8.677345,-1.66739,-4.956787
alexnet_w1_mlp_simclrhn_probe0,1,403,NaN,keyboard,keyboard,90,0403_ps_dnn_90_keyboard_10_n03085013_24192.png,n03085013_24192.png,1.0,1.1624825,-2.2353764,2.4026492
alexnet_w1_mlp_simclrhn_probe0,1,404,NaN,elephant,bicycle,150,0404_ps_dnn_150_bicycle_10_n03792782_378.png,n03792782_378.png,0.0,-1.8000247,-0.6751677,-0.79539406
alexnet_w1_mlp_simclrhn_probe0,1,405,NaN,elephant,bird,180,0405_ps_dnn_180_bird_10_n02018207_14738.png,n02018207_14738.png,0.0,-2.33594,-0.18182856,-1.5231868
alexnet_w1_mlp_simclrhn_probe0,1,406,NaN,bicycle,bird,0,0406_ps_dnn_0_bird_10_n01530575_5222.png,n01530575_5222.png,0.0,-2.870322,-2.5209277,-0.24705909
alexnet_w1_mlp_simclrhn_probe0,1,407,NaN,bear,bear,30,0407_ps_dnn_30_bear_10_n02134084_10766.png,n02134084_10766.png,1.0,-4.7082777,-5.5340605,0.5839166
alexnet_w1_mlp_simclrhn_probe0,1,408,NaN,elephant,bird,30,0408_ps_dnn_30_bird_10_n02007558_4009.png,n02007558_4009.png,0.0,-5.9317384,-1.9456944,-2.8185587
alexnet_w1_mlp_simclrhn_probe0,1,409,NaN,oven,chair,120,0409_ps_dnn_120_chair_10_n04099969_7545.png,n04099969_7545.png,0.0,-8.005764,0.51108205,-6.0223193
alexnet_w1_mlp_simclrhn_probe0,1,410,NaN,elephant,clock,90,0410_ps_dnn_90_clock_10_n03196217_127.png,n03196217_127.png,0.0,-8.082546,-3.8950176,-2.96103
alexnet_w1_mlp_simclrhn_probe0,1,411,NaN,knife,bottle,150,0411_ps_dnn_150_bottle_10_n04560804_26326.png,n04560804_26326.png,0.0,-1.8740267,-0.57064867,-0.9216274
alexnet_w1_mlp_simclrhn_probe0,1,412,NaN,knife,keyboard,30,0412_ps_dnn_30_keyboard_10_n03085013_25066.png,n03085013_25066.png,0.0,-5.8908224,-5.123498,-0.5425803
alexnet_w1_mlp_simclrhn_probe0,1,413,NaN,cat,cat,30,0413_ps_dnn_30_cat_10_n02124075_11776.png,n02124075_11776.png,1.0,3.965636,-6.209151,7.1946607
alexnet_w1_mlp_simclrhn_probe0,1,414,NaN,keyboard,keyboard,120,0414_ps_dnn_120_keyboard_10_n04505470_2909.png,n04505470_2909.png,1.0,-0.78725827,-1.1512091,0.2573521
alexnet_w1_mlp_simclrhn_probe0,1,415,NaN,keyboard,keyboard,30,0415_ps_dnn_30_keyboard_10_n04505470_494.png,n04505470_494.png,1.0,4.350073,1.1606015,2.2552967
alexnet_w1_mlp_simclrhn_probe0,1,416,NaN,elephant,bear,120,0416_ps_dnn_120_bear_10_n02133161_2270.png,n02133161_2270.png,0.0,-1.0129577,-0.97730184,-0.025212498
alexnet_w1_mlp_simclrhn_probe0,1,417,NaN,oven,chair,120,0417_ps_dnn_120_chair_10_n04099969_13901.png,n04099969_13901.png,0.0,-3.4897897,-1.6288966,-1.3158501
alexnet_w1_mlp_simclrhn_probe0,1,418,NaN,elephant,car,120,0418_ps_dnn_120_car_10_n02814533_2923.png,n02814533_2923.png,0.0,-5.893053,-0.98917353,-3.4675665
alexnet_w1_mlp_simclrhn_probe0,1,419,NaN,elephant,bottle,90,0419_ps_dnn_90_bottle_10_n03983396_12757.png,n03983396_12757.png,0.0,-3.3384798,-3.2351966,-0.07303223
alexnet_w1_mlp_simclrhn_probe0,1,420,NaN,knife,knife,30,0420_ps_dnn_30_knife_10_n03041632_15444.png,n03041632_15444.png,1.0,-5.6084123,-6.3231378,0.50538725
alexnet_w1_mlp_simclrhn_probe0,1,421,NaN,oven,bicycle,180,0421_ps_dnn_180_bicycle_10_n02835271_5554.png,n02835271_5554.png,0.0,-3.935462,-1.8066454,-1.5053006
alexnet_w1_mlp_simclrhn_probe0,1,422,NaN,knife,knife,150,0422_ps_dnn_150_knife_10_n03041632_37618.png,n03041632_37618.png,1.0,-1.5936995,-1.7935655,0.14132665
alexnet_w1_mlp_simclrhn_probe0,1,423,NaN,chair,chair,60,0423_ps_dnn_60_chair_10_n03376595_3910.png,n03376595_3910.png,1.0,-3.4236627,-5.225657,1.2742025
alexnet_w1_mlp_simclrhn_probe0,1,424,NaN,bear,dog,30,0424_ps_dnn_30_dog_10_n02086646_7362.png,n02086646_7362.png,0.0,-1.7521111,-1.2106224,-0.3828903
alexnet_w1_mlp_simclrhn_probe0,1,425,NaN,bear,dog,60,0425_ps_dnn_60_dog_10_n02113712_5829.png,n02113712_5829.png,0.0,-2.4039497,0.43085435,-2.0045092
alexnet_w1_mlp_simclrhn_probe0,1,426,NaN,oven,truck,180,0426_ps_dnn_180_truck_10_n03417042_1149.png,n03417042_1149.png,0.0,-7.613884,-1.1041143,-4.603102
alexnet_w1_mlp_simclrhn_probe0,1,427,NaN,elephant,bird,60,0427_ps_dnn_60_bird_10_n02002724_3345.png,n02002724_3345.png,0.0,-5.5134454,-0.5450748,-3.5131686
alexnet_w1_mlp_simclrhn_probe0,1,428,NaN,bear,bird,150,0428_ps_dnn_150_bird_10_n02002556_2917.png,n02002556_2917.png,0.0,-4.035863,0.3454535,-3.0980585
alexnet_w1_mlp_simclrhn_probe0,1,429,NaN,bear,bottle,180,0429_ps_dnn_180_bottle_10_n04560804_3959.png,n04560804_3959.png,0.0,-5.4880857,0.37337872,-4.1446815
alexnet_w1_mlp_simclrhn_probe0,1,430,NaN,airplane,airplane,30,0430_ps_dnn_30_airplane_10_n02690373_3639.png,n02690373_3639.png,1.0,4.200464,-2.90133,5.0217266
alexnet_w1_mlp_simclrhn_probe0,1,431,NaN,oven,bottle,120,0431_ps_dnn_120_bottle_10_n02823428_14453.png,n02823428_14453.png,0.0,-3.218465,-0.45420486,-1.9546273
alexnet_w1_mlp_simclrhn_probe0,1,432,NaN,bottle,bottle,0,0432_ps_dnn_0_bottle_10_n03937543_3253.png,n03937543_3253.png,1.0,3.2111185,-1.5000997,3.331334
alexnet_w1_mlp_simclrhn_probe0,1,433,NaN,bear,elephant,30,0433_ps_dnn_30_elephant_10_n02504013_7010.png,n02504013_7010.png,0.0,-4.6322927,-4.387679,-0.17296797
alexnet_w1_mlp_simclrhn_probe0,1,434,NaN,elephant,car,150,0434_ps_dnn_150_car_10_n04285008_8813.png,n04285008_8813.png,0.0,-7.4846873,-0.5801116,-4.8822722
alexnet_w1_mlp_simclrhn_probe0,1,435,NaN,elephant,bear,180,0435_ps_dnn_180_bear_10_n02132136_110.png,n02132136_110.png,0.0,-0.045627072,0.5512733,-0.4220723
alexnet_w1_mlp_simclrhn_probe0,1,436,NaN,bear,bear,60,0436_ps_dnn_60_bear_10_n02133161_4294.png,n02133161_4294.png,1.0,-0.5592989,-1.6040099,0.73872226
alexnet_w1_mlp_simclrhn_probe0,1,437,NaN,car,car,0,0437_ps_dnn_0_car_10_n02814533_95144.png,n02814533_95144.png,1.0,2.6049066,-0.25422975,2.0217147
alexnet_w1_mlp_simclrhn_probe0,1,438,NaN,oven,oven,120,0438_ps_dnn_120_oven_10_n04111531_1220.png,n04111531_1220.png,1.0,-0.41158804,-0.72878474,0.22429194
alexnet_w1_mlp_simclrhn_probe0,1,439,NaN,bear,dog,60,0439_ps_dnn_60_dog_10_n02086240_7247.png,n02086240_7247.png,0.0,-2.6753953,-2.1260052,-0.38847744
alexnet_w1_mlp_simclrhn_probe0,1,440,NaN,airplane,airplane,0,0440_ps_dnn_0_airplane_10_n02690373_4144.png,n02690373_4144.png,1.0,5.3705187,-2.0722399,5.262825
alexnet_w1_mlp_simclrhn_probe0,1,441,NaN,oven,oven,120,0441_ps_dnn_120_oven_10_n04111531_986.png,n04111531_986.png,1.0,0.090338886,-1.3793005,1.039192
alexnet_w1_mlp_simclrhn_probe0,1,442,NaN,bicycle,elephant,30,0442_ps_dnn_30_elephant_10_n02504458_6336.png,n02504458_6336.png,0.0,-2.9312048,-1.0582917,-1.3243496
alexnet_w1_mlp_simclrhn_probe0,1,443,NaN,elephant,knife,150,0443_ps_dnn_150_knife_10_n03041632_14132.png,n03041632_14132.png,0.0,-1.904495,-0.67734355,-0.8677271
alexnet_w1_mlp_simclrhn_probe0,1,444,NaN,bear,cat,150,0444_ps_dnn_150_cat_10_n02123159_799.png,n02123159_799.png,0.0,-3.243428,-0.023303181,-2.276972
alexnet_w1_mlp_simclrhn_probe0,1,445,NaN,bear,bird,90,0445_ps_dnn_90_bird_10_n02006656_7456.png,n02006656_7456.png,0.0,-5.5025773,-0.6204611,-3.4521775
alexnet_w1_mlp_simclrhn_probe0,1,446,NaN,elephant,cat,90,0446_ps_dnn_90_cat_10_n02123045_8722.png,n02123045_8722.png,0.0,-3.405572,-1.6116492,-1.268495
alexnet_w1_mlp_simclrhn_probe0,1,447,NaN,oven,chair,120,0447_ps_dnn_120_chair_10_n03376595_8302.png,n03376595_8302.png,0.0,-4.4501433,-2.4370492,-1.4234725
alexnet_w1_mlp_simclrhn_probe0,1,448,NaN,bottle,bottle,30,0448_ps_dnn_30_bottle_10_n04560804_5769.png,n04560804_5769.png,1.0,-3.8611805,-4.89863,0.7335877
alexnet_w1_mlp_simclrhn_probe0,1,449,NaN,oven,car,90,0449_ps_dnn_90_car_10_n04285008_203.png,n04285008_203.png,0.0,-10.0965605,-2.8905876,-5.095392
alexnet_w1_mlp_simclrhn_probe0,1,450,NaN,knife,airplane,180,0450_ps_dnn_180_airplane_10_n02690373_9959.png,n02690373_9959.png,0.0,-7.7976832,-0.70668864,-5.0140905
alexnet_w1_mlp_simclrhn_probe0,1,451,NaN,car,car,0,0451_ps_dnn_0_car_10_n04285008_1867.png,n04285008_1867.png,1.0,7.891087,2.56044,3.7693367
alexnet_w1_mlp_simclrhn_probe0,1,452,NaN,elephant,airplane,150,0452_ps_dnn_150_airplane_10_n02690373_16250.png,n02690373_16250.png,0.0,-6.626737,-0.64427084,-4.2302427
alexnet_w1_mlp_simclrhn_probe0,1,453,NaN,elephant,elephant,30,0453_ps_dnn_30_elephant_10_n02504458_4696.png,n02504458_4696.png,1.0,0.059103668,-1.8095034,1.3213047
alexnet_w1_mlp_simclrhn_probe0,1,454,NaN,bicycle,car,60,0454_ps_dnn_60_car_10_n04285008_10755.png,n04285008_10755.png,0.0,-12.1289835,-4.378462,-5.4804463
alexnet_w1_mlp_simclrhn_probe0,1,455,NaN,elephant,boat,150,0455_ps_dnn_150_boat_10_n02951358_11586.png,n02951358_11586.png,0.0,-3.3544204,-0.30596083,-2.1555865
alexnet_w1_mlp_simclrhn_probe0,1,456,NaN,elephant,bottle,60,0456_ps_dnn_60_bottle_10_n02823428_4108.png,n02823428_4108.png,0.0,-4.4181166,-3.3169143,-0.77866757
alexnet_w1_mlp_simclrhn_probe0,1,457,NaN,elephant,car,180,0457_ps_dnn_180_car_10_n04285008_11770.png,n04285008_11770.png,0.0,-9.12823,1.5323051,-7.5381365
alexnet_w1_mlp_simclrhn_probe0,1,458,NaN,boat,boat,90,0458_ps_dnn_90_boat_10_n04273569_32786.png,n04273569_32786.png,1.0,-1.0876644,-1.5081754,0.2973462
alexnet_w1_mlp_simclrhn_probe0,1,459,NaN,bear,bear,30,0459_ps_dnn_30_bear_10_n02132136_21267.png,n02132136_21267.png,1.0,2.347805,2.2541568,0.06621928
alexnet_w1_mlp_simclrhn_probe0,1,460,NaN,oven,car,90,0460_ps_dnn_90_car_10_n03100240_24001.png,n03100240_24001.png,0.0,-6.7208323,-2.5948055,-2.9175417
alexnet_w1_mlp_simclrhn_probe0,1,461,NaN,elephant,bottle,150,0461_ps_dnn_150_bottle_10_n03937543_71.png,n03937543_71.png,0.0,-3.4762115,-0.3874985,-2.18405
alexnet_w1_mlp_simclrhn_probe0,1,462,NaN,truck,chair,0,0462_ps_dnn_0_chair_10_n02791124_16127.png,n02791124_16127.png,0.0,-4.9564323,-4.407025,-0.38848975
alexnet_w1_mlp_simclrhn_probe0,1,463,NaN,bear,bird,90,0463_ps_dnn_90_bird_10_n02002724_12183.png,n02002724_12183.png,0.0,-3.2260246,-1.1797476,-1.4469364
alexnet_w1_mlp_simclrhn_probe0,1,464,NaN,elephant,dog,30,0464_ps_dnn_30_dog_10_n02108915_1165.png,n02108915_1165.png,0.0,-4.157786,-1.3866433,-1.9594936
alexnet_w1_mlp_simclrhn_probe0,1,465,NaN,boat,dog,180,0465_ps_dnn_180_dog_10_n02099429_4843.png,n02099429_4843.png,0.0,-2.1419313,-0.47509345,-1.1786324
alexnet_w1_mlp_simclrhn_probe0,1,466,NaN,boat,boat,60,0466_ps_dnn_60_boat_10_n03344393_3499.png,n03344393_3499.png,1.0,-2.1086133,-2.4143465,0.21618603
alexnet_w1_mlp_simclrhn_probe0,1,467,NaN,oven,truck,120,0467_ps_dnn_120_truck_10_n03417042_20962.png,n03417042_20962.png,0.0,-6.0693703,-0.85664815,-3.6859512
alexnet_w1_mlp_simclrhn_probe0,1,468,NaN,cat,dog,30,0468_ps_dnn_30_dog_10_n02097047_4189.png,n02097047_4189.png,0.0,-5.810898,-5.2132816,-0.42257848
alexnet_w1_mlp_simclrhn_probe0,1,469,NaN,bicycle,bicycle,60,0469_ps_dnn_60_bicycle_10_n03792782_24591.png,n03792782_24591.png,1.0,5.679715,-5.5982904,7.9747543
alexnet_w1_mlp_simclrhn_probe0,1,470,NaN,airplane,airplane,60,0470_ps_dnn_60_airplane_10_n02690373_243.png,n02690373_243.png,1.0,-1.3953586,-3.479493,1.4737055
alexnet_w1_mlp_simclrhn_probe0,1,471,NaN,boat,boat,90,0471_ps_dnn_90_boat_10_n03344393_3072.png,n03344393_3072.png,1.0,-2.2932148,-3.0924978,0.56517845
alexnet_w1_mlp_simclrhn_probe0,1,472,NaN,elephant,clock,120,0472_ps_dnn_120_clock_10_n02708093_118.png,n02708093_118.png,0.0,-4.227005,-1.4362742,-1.9733448
alexnet_w1_mlp_simclrhn_probe0,1,473,NaN,bird,bird,30,0473_ps_dnn_30_bird_10_n01843065_2664.png,n01843065_2664.png,1.0,-3.8275533,-5.0299473,0.850221
alexnet_w1_mlp_simclrhn_probe0,1,474,NaN,knife,airplane,150,0474_ps_dnn_150_airplane_10_n02690373_19353.png,n02690373_19353.png,0.0,-4.5457463,-1.4716138,-2.17374
alexnet_w1_mlp_simclrhn_probe0,1,475,NaN,bear,dog,120,0475_ps_dnn_120_dog_10_n02099849_4250.png,n02099849_4250.png,0.0,-1.654926,-0.6451062,-0.7140504
alexnet_w1_mlp_simclrhn_probe0,1,476,NaN,oven,truck,90,0476_ps_dnn_90_truck_10_n04467665_29260.png,n04467665_29260.png,0.0,-5.1273775,-2.7861032,-1.6555309
alexnet_w1_mlp_simclrhn_probe0,1,477,NaN,bear,elephant,30,0477_ps_dnn_30_elephant_10_n02504013_8308.png,n02504013_8308.png,0.0,0.6415727,1.3118981,-0.47399163
alexnet_w1_mlp_simclrhn_probe0,1,478,NaN,knife,boat,150,0478_ps_dnn_150_boat_10_n03344393_6854.png,n03344393_6854.png,0.0,-1.6209815,0.026283115,-1.164792
alexnet_w1_mlp_simclrhn_probe0,1,479,NaN,elephant,truck,180,0479_ps_dnn_180_truck_10_n04467665_25129.png,n04467665_25129.png,0.0,-8.922632,-1.0124868,-5.5933175
alexnet_w1_mlp_simclrhn_probe0,1,480,NaN,bicycle,bird,30,0480_ps_dnn_30_bird_10_n01824575_6272.png,n01824575_6272.png,0.0,-4.162052,-3.7468414,-0.29359832
alexnet_w1_mlp_simclrhn_probe0,1,481,NaN,bear,chair,180,0481_ps_dnn_180_chair_10_n04099969_19484.png,n04099969_19484.png,0.0,-10.820734,1.3110895,-8.578495
alexnet_w1_mlp_simclrhn_probe0,1,482,NaN,knife,oven,120,0482_ps_dnn_120_oven_10_n04111531_5888.png,n04111531_5888.png,0.0,-1.2272837,-1.0486803,-0.12629169
alexnet_w1_mlp_simclrhn_probe0,1,483,NaN,elephant,chair,60,0483_ps_dnn_60_chair_10_n04099969_16266.png,n04099969_16266.png,0.0,-7.873086,-2.2300577,-3.9902236
alexnet_w1_mlp_simclrhn_probe0,1,484,NaN,oven,truck,150,0484_ps_dnn_150_truck_10_n04467665_68754.png,n04467665_68754.png,0.0,-8.259865,-0.80813843,-5.2691665
alexnet_w1_mlp_simclrhn_probe0,1,485,NaN,knife,cat,180,0485_ps_dnn_180_cat_10_n02123394_7859.png,n02123394_7859.png,0.0,-2.8026326,-0.19367841,-1.8448092
alexnet_w1_mlp_simclrhn_probe0,1,486,NaN,oven,car,90,0486_ps_dnn_90_car_10_n04285008_17056.png,n04285008_17056.png,0.0,-10.427769,-4.480951,-4.205035
alexnet_w1_mlp_simclrhn_probe0,1,487,NaN,bear,cat,120,0487_ps_dnn_120_cat_10_n02123045_12046.png,n02123045_12046.png,0.0,-2.9406204,-0.52047443,-1.7113017
alexnet_w1_mlp_simclrhn_probe0,1,488,NaN,bear,elephant,180,0488_ps_dnn_180_elephant_10_n02504013_3029.png,n02504013_3029.png,0.0,-0.13903278,0.6169121,-0.5345338
alexnet_w1_mlp_simclrhn_probe0,1,489,NaN,boat,boat,120,0489_ps_dnn_120_boat_10_n03662601_7271.png,n03662601_7271.png,1.0,-0.11098905,-0.96111727,0.60113144
alexnet_w1_mlp_simclrhn_probe0,1,490,NaN,bear,bear,30,0490_ps_dnn_30_bear_10_n02133161_6861.png,n02133161_6861.png,1.0,-0.16686368,-5.8428564,4.013533
alexnet_w1_mlp_simclrhn_probe0,1,491,NaN,elephant,chair,30,0491_ps_dnn_30_chair_10_n02791124_4192.png,n02791124_4192.png,0.0,-4.005354,-2.673617,-0.9416803
alexnet_w1_mlp_simclrhn_probe0,1,492,NaN,oven,boat,60,0492_ps_dnn_60_boat_10_n04273569_1457.png,n04273569_1457.png,0.0,-4.2898874,-3.2768025,-0.7163592
alexnet_w1_mlp_simclrhn_probe0,1,493,NaN,elephant,clock,90,0493_ps_dnn_90_clock_10_n04548280_764.png,n04548280_764.png,0.0,-4.785397,-2.8019743,-1.4024917
alexnet_w1_mlp_simclrhn_probe0,1,494,NaN,elephant,bicycle,120,0494_ps_dnn_120_bicycle_10_n02835271_12346.png,n02835271_12346.png,0.0,-2.645422,-1.2165024,-1.0103987
alexnet_w1_mlp_simclrhn_probe0,1,495,NaN,bear,bicycle,180,0495_ps_dnn_180_bicycle_10_n03792782_50673.png,n03792782_50673.png,0.0,-2.798317,-0.9578706,-1.3013921
alexnet_w1_mlp_simclrhn_probe0,1,496,NaN,oven,truck,120,0496_ps_dnn_120_truck_10_n03796401_9198.png,n03796401_9198.png,0.0,-5.2504063,-0.90801466,-3.0705345
alexnet_w1_mlp_simclrhn_probe0,1,497,NaN,airplane,airplane,0,0497_ps_dnn_0_airplane_10_n02690373_4110.png,n02690373_4110.png,1.0,3.5473719,-0.41030374,2.7984993
alexnet_w1_mlp_simclrhn_probe0,1,498,NaN,bear,dog,60,0498_ps_dnn_60_dog_10_n02107683_2484.png,n02107683_2484.png,0.0,-0.9775612,-0.73797715,-0.1694115
alexnet_w1_mlp_simclrhn_probe0,1,499,NaN,oven,chair,60,0499_ps_dnn_60_chair_10_n02791124_13057.png,n02791124_13057.png,0.0,-8.004116,-4.0287604,-2.811001
alexnet_w1_mlp_simclrhn_probe0,1,500,NaN,bear,bear,120,0500_ps_dnn_120_bear_10_n02134418_14451.png,n02134418_14451.png,1.0,-0.0023448393,-0.060466774,0.041098416
alexnet_w1_mlp_simclrhn_probe0,1,501,NaN,bicycle,bird,60,0501_ps_dnn_60_bird_10_n01843383_10059.png,n01843383_10059.png,0.0,-6.1895833,-5.0661364,-0.79439694
alexnet_w1_mlp_simclrhn_probe0,1,502,NaN,bicycle,bicycle,0,0502_ps_dnn_0_bicycle_10_n03792782_11824.png,n03792782_11824.png,1.0,1.003675,-3.479063,3.1697745
alexnet_w1_mlp_simclrhn_probe0,1,503,NaN,bicycle,bird,30,0503_ps_dnn_30_bird_10_n01532829_2492.png,n01532829_2492.png,0.0,-5.3264527,-3.931303,-0.9865198
alexnet_w1_mlp_simclrhn_probe0,1,504,NaN,bottle,bottle,0,0504_ps_dnn_0_bottle_10_n04579145_5621.png,n04579145_5621.png,1.0,0.8526505,-6.903563,5.4844713
alexnet_w1_mlp_simclrhn_probe0,1,505,NaN,oven,truck,150,0505_ps_dnn_150_truck_10_n03417042_6250.png,n03417042_6250.png,0.0,-9.664613,-0.6538104,-6.3715997
alexnet_w1_mlp_simclrhn_probe0,1,506,NaN,bear,dog,90,0506_ps_dnn_90_dog_10_n02108551_14704.png,n02108551_14704.png,0.0,-1.7344495,1.9228323,-2.586089
alexnet_w1_mlp_simclrhn_probe0,1,507,NaN,boat,boat,30,0507_ps_dnn_30_boat_10_n04612504_8407.png,n04612504_8407.png,1.0,1.0338084,-3.6602492,3.3192
alexnet_w1_mlp_simclrhn_probe0,1,508,NaN,knife,car,120,0508_ps_dnn_120_car_10_n03100240_14794.png,n03100240_14794.png,0.0,-8.920753,-1.3284465,-5.3685713
alexnet_w1_mlp_simclrhn_probe0,1,509,NaN,oven,dog,60,0509_ps_dnn_60_dog_10_n02097658_759.png,n02097658_759.png,0.0,-6.729077,-3.693116,-2.1467485
alexnet_w1_mlp_simclrhn_probe0,1,510,NaN,bear,oven,90,0510_ps_dnn_90_oven_10_n04111531_5965.png,n04111531_5965.png,0.0,-1.5228157,-0.65488905,-0.61371684
alexnet_w1_mlp_simclrhn_probe0,1,511,NaN,oven,elephant,180,0511_ps_dnn_180_elephant_10_n02504013_6984.png,n02504013_6984.png,0.0,-1.3361435,-0.7566341,-0.40977502
alexnet_w1_mlp_simclrhn_probe0,1,512,NaN,oven,oven,180,0512_ps_dnn_180_oven_10_n04111531_6695.png,n04111531_6695.png,1.0,-1.3930268,-2.1431868,0.5304432
alexnet_w1_mlp_simclrhn_probe0,1,513,NaN,bear,bird,60,0513_ps_dnn_60_bird_10_n02037110_4572.png,n02037110_4572.png,0.0,-2.7563672,-1.9317937,-0.5830615
alexnet_w1_mlp_simclrhn_probe0,1,514,NaN,oven,truck,30,0514_ps_dnn_30_truck_10_n03796401_11628.png,n03796401_11628.png,0.0,-6.616618,-4.3970246,-1.5694897
alexnet_w1_mlp_simclrhn_probe0,1,515,NaN,elephant,chair,180,0515_ps_dnn_180_chair_10_n02791124_1258.png,n02791124_1258.png,0.0,-5.6245685,-0.0009787362,-3.9764783
alexnet_w1_mlp_simclrhn_probe0,1,516,NaN,elephant,knife,0,0516_ps_dnn_0_knife_10_n03041632_62810.png,n03041632_62810.png,0.0,-10.826993,-4.367277,-4.567709
alexnet_w1_mlp_simclrhn_probe0,1,517,NaN,elephant,bird,90,0517_ps_dnn_90_bird_10_n01819313_2770.png,n01819313_2770.png,0.0,-4.747211,-1.5596735,-2.2539294
alexnet_w1_mlp_simclrhn_probe0,1,518,NaN,bicycle,bicycle,60,0518_ps_dnn_60_bicycle_10_n02835271_25519.png,n02835271_25519.png,1.0,0.030956522,-4.684615,3.3344128
alexnet_w1_mlp_simclrhn_probe0,1,519,NaN,boat,boat,0,0519_ps_dnn_0_boat_10_n03662601_23248.png,n03662601_23248.png,1.0,3.5871234,-1.5334364,3.6207826
alexnet_w1_mlp_simclrhn_probe0,1,520,NaN,oven,elephant,120,0520_ps_dnn_120_elephant_10_n02504013_1784.png,n02504013_1784.png,0.0,-2.2530413,0.10217643,-1.6653905
alexnet_w1_mlp_simclrhn_probe0,1,521,NaN,elephant,cat,150,0521_ps_dnn_150_cat_10_n02123394_270.png,n02123394_270.png,0.0,-2.0363839,-0.18999088,-1.3055971
alexnet_w1_mlp_simclrhn_probe0,1,522,NaN,elephant,dog,30,0522_ps_dnn_30_dog_10_n02093647_1022.png,n02093647_1022.png,0.0,-0.94115657,3.1561205,-2.8972125
alexnet_w1_mlp_simclrhn_probe0,1,523,NaN,boat,boat,30,0523_ps_dnn_30_boat_10_n03662601_4881.png,n03662601_4881.png,1.0,-0.32668382,-1.7170041,0.98310494
alexnet_w1_mlp_simclrhn_probe0,1,524,NaN,elephant,knife,60,0524_ps_dnn_60_knife_10_n03041632_8321.png,n03041632_8321.png,0.0,-5.631881,-2.66823,-2.0956178
alexnet_w1_mlp_simclrhn_probe0,1,525,NaN,bear,car,120,0525_ps_dnn_120_car_10_n02814533_60400.png,n02814533_60400.png,0.0,-7.4574814,-1.192177,-4.430239
alexnet_w1_mlp_simclrhn_probe0,1,526,NaN,bear,cat,150,0526_ps_dnn_150_cat_10_n02123597_3280.png,n02123597_3280.png,0.0,-1.1318716,0.54808575,-1.1879092
alexnet_w1_mlp_simclrhn_probe0,1,527,NaN,bear,dog,150,0527_ps_dnn_150_dog_10_n02110063_3399.png,n02110063_3399.png,0.0,-1.872011,1.1719317,-2.1523926
alexnet_w1_mlp_simclrhn_probe0,1,528,NaN,bear,bear,0,0528_ps_dnn_0_bear_10_n02132136_3109.png,n02132136_3109.png,1.0,1.9134516,0.73644316,0.8322706
alexnet_w1_mlp_simclrhn_probe0,1,529,NaN,bear,bear,0,0529_ps_dnn_0_bear_10_n02134084_16632.png,n02134084_16632.png,1.0,-0.6165918,-1.7209294,0.7808846
alexnet_w1_mlp_simclrhn_probe0,1,530,NaN,keyboard,bottle,150,0530_ps_dnn_150_bottle_10_n04591713_5851.png,n04591713_5851.png,0.0,-3.0190907,-1.162148,-1.3130567
alexnet_w1_mlp_simclrhn_probe0,1,531,NaN,oven,knife,0,0531_ps_dnn_0_knife_10_n03041632_29961.png,n03041632_29961.png,0.0,-3.5473204,-2.5595539,-0.6984564
alexnet_w1_mlp_simclrhn_probe0,1,532,NaN,knife,knife,30,0532_ps_dnn_30_knife_10_n03041632_10140.png,n03041632_10140.png,1.0,-6.7763295,-8.025204,0.8830874
alexnet_w1_mlp_simclrhn_probe0,1,533,NaN,elephant,airplane,180,0533_ps_dnn_180_airplane_10_n02690373_8765.png,n02690373_8765.png,0.0,-10.337379,0.6843738,-7.7935567
alexnet_w1_mlp_simclrhn_probe0,1,534,NaN,oven,knife,120,0534_ps_dnn_120_knife_10_n03041632_16826.png,n03041632_16826.png,0.0,-2.9335084,1.8544178,-3.385575
alexnet_w1_mlp_simclrhn_probe0,1,535,NaN,oven,chair,30,0535_ps_dnn_30_chair_10_n04429376_21089.png,n04429376_21089.png,0.0,-3.4588192,-1.9159812,-1.0909512
alexnet_w1_mlp_simclrhn_probe0,1,536,NaN,bear,bear,60,0536_ps_dnn_60_bear_10_n02134084_15118.png,n02134084_15118.png,1.0,-0.5179937,-1.3156675,0.5640406
alexnet_w1_mlp_simclrhn_probe0,1,537,NaN,oven,car,120,0537_ps_dnn_120_car_10_n04285008_3884.png,n04285008_3884.png,0.0,-8.498113,-1.4660827,-4.9723964
alexnet_w1_mlp_simclrhn_probe0,1,538,NaN,elephant,boat,150,0538_ps_dnn_150_boat_10_n04273569_1576.png,n04273569_1576.png,0.0,-2.468352,0.0814535,-1.8029848
alexnet_w1_mlp_simclrhn_probe0,1,539,NaN,oven,bicycle,120,0539_ps_dnn_120_bicycle_10_n03792782_4600.png,n03792782_4600.png,0.0,-1.3837111,-0.0021463633,-0.9769138
alexnet_w1_mlp_simclrhn_probe0,1,540,NaN,clock,clock,30,0540_ps_dnn_30_clock_10_n03196217_4537.png,n03196217_4537.png,1.0,1.7232696,0.8663025,0.6059672
alexnet_w1_mlp_simclrhn_probe0,1,541,NaN,boat,airplane,60,0541_ps_dnn_60_airplane_10_n02690373_10203.png,n02690373_10203.png,0.0,0.35571152,0.6078335,-0.17827716
alexnet_w1_mlp_simclrhn_probe0,1,542,NaN,oven,truck,30,0542_ps_dnn_30_truck_10_n04467665_48875.png,n04467665_48875.png,0.0,-2.651915,-2.4151745,-0.16740088
alexnet_w1_mlp_simclrhn_probe0,1,543,NaN,oven,car,60,0543_ps_dnn_60_car_10_n02814533_38071.png,n02814533_38071.png,0.0,-4.755381,-3.1515195,-1.1341014
alexnet_w1_mlp_simclrhn_probe0,1,544,NaN,bicycle,bear,90,0544_ps_dnn_90_bear_10_n02133161_160.png,n02133161_160.png,0.0,-4.875801,-3.5531502,-0.93525547
alexnet_w1_mlp_simclrhn_probe0,1,545,NaN,truck,car,30,0545_ps_dnn_30_car_10_n02814533_40344.png,n02814533_40344.png,0.0,-5.3495107,-3.551775,-1.2711911
alexnet_w1_mlp_simclrhn_probe0,1,546,NaN,oven,oven,180,0546_ps_dnn_180_oven_10_n04111531_9026.png,n04111531_9026.png,1.0,-1.3963188,-1.5864592,0.13444954
alexnet_w1_mlp_simclrhn_probe0,1,547,NaN,cat,cat,0,0547_ps_dnn_0_cat_10_n02123597_13755.png,n02123597_13755.png,1.0,-4.0145226,-4.8455486,0.5876242
alexnet_w1_mlp_simclrhn_probe0,1,548,NaN,elephant,car,150,0548_ps_dnn_150_car_10_n02814533_39485.png,n02814533_39485.png,0.0,-11.186195,0.82048774,-8.490007
alexnet_w1_mlp_simclrhn_probe0,1,549,NaN,knife,bottle,90,0549_ps_dnn_90_bottle_10_n03937543_4512.png,n03937543_4512.png,0.0,-1.6009439,-0.5670246,-0.7310914
alexnet_w1_mlp_simclrhn_probe0,1,550,NaN,bear,cat,120,0550_ps_dnn_120_cat_10_n02124075_2402.png,n02124075_2402.png,0.0,-1.3989671,0.41592908,-1.2833254
alexnet_w1_mlp_simclrhn_probe0,1,551,NaN,elephant,bird,0,0551_ps_dnn_0_bird_10_n02056570_9835.png,n02056570_9835.png,0.0,-5.0285497,-3.7697568,-0.890101
alexnet_w1_mlp_simclrhn_probe0,1,552,NaN,knife,clock,120,0552_ps_dnn_120_clock_10_n04548280_13247.png,n04548280_13247.png,0.0,-3.2343047,-2.0432801,-0.84218156
alexnet_w1_mlp_simclrhn_probe0,1,553,NaN,oven,truck,60,0553_ps_dnn_60_truck_10_n03417042_173.png,n03417042_173.png,0.0,-4.0017123,-1.2888942,-1.9182521
alexnet_w1_mlp_simclrhn_probe0,1,554,NaN,elephant,airplane,180,0554_ps_dnn_180_airplane_10_n02690373_1592.png,n02690373_1592.png,0.0,-6.911081,-0.9046188,-4.24721
alexnet_w1_mlp_simclrhn_probe0,1,555,NaN,elephant,elephant,0,0555_ps_dnn_0_elephant_10_n02504013_1953.png,n02504013_1953.png,1.0,3.2808175,-3.5338178,4.818675
alexnet_w1_mlp_simclrhn_probe0,1,556,NaN,oven,elephant,150,0556_ps_dnn_150_elephant_10_n02504458_4348.png,n02504458_4348.png,0.0,-1.1454316,-0.58735156,-0.3946222
alexnet_w1_mlp_simclrhn_probe0,1,557,NaN,oven,airplane,90,0557_ps_dnn_90_airplane_10_n02690373_1854.png,n02690373_1854.png,0.0,-13.3715105,-1.4591215,-8.423331
alexnet_w1_mlp_simclrhn_probe0,1,558,NaN,oven,cat,180,0558_ps_dnn_180_cat_10_n02124075_14363.png,n02124075_14363.png,0.0,-1.976816,0.013333626,-1.4072484
alexnet_w1_mlp_simclrhn_probe0,1,559,NaN,oven,bottle,30,0559_ps_dnn_30_bottle_10_n03983396_3377.png,n03983396_3377.png,0.0,-4.1637816,-2.092671,-1.4644965
alexnet_w1_mlp_simclrhn_probe0,1,560,NaN,knife,clock,90,0560_ps_dnn_90_clock_10_n04548280_6743.png,n04548280_6743.png,0.0,-2.5293338,-1.8084521,-0.50974035
alexnet_w1_mlp_simclrhn_probe0,1,561,NaN,clock,clock,30,0561_ps_dnn_30_clock_10_n03196217_8034.png,n03196217_8034.png,1.0,-2.3506737,-2.488012,0.09711292
alexnet_w1_mlp_simclrhn_probe0,1,562,NaN,elephant,dog,150,0562_ps_dnn_150_dog_10_n02088094_13992.png,n02088094_13992.png,0.0,-4.2001176,-0.6868813,-2.4842331
alexnet_w1_mlp_simclrhn_probe0,1,563,NaN,car,car,30,0563_ps_dnn_30_car_10_n03100240_6216.png,n03100240_6216.png,1.0,-1.4676237,-3.4082632,1.3722394
alexnet_w1_mlp_simclrhn_probe0,1,564,NaN,oven,oven,30,0564_ps_dnn_30_oven_10_n04111531_2831.png,n04111531_2831.png,1.0,1.2762315,-3.14525,3.1264596
alexnet_w1_mlp_simclrhn_probe0,1,565,NaN,knife,knife,0,0565_ps_dnn_0_knife_10_n03041632_927.png,n03041632_927.png,1.0,1.1965424,-1.7058312,2.052288
alexnet_w1_mlp_simclrhn_probe0,1,566,NaN,elephant,knife,150,0566_ps_dnn_150_knife_10_n03041632_5427.png,n03041632_5427.png,0.0,-2.9381332,-2.0396357,-0.6353337
alexnet_w1_mlp_simclrhn_probe0,1,567,NaN,knife,cat,180,0567_ps_dnn_180_cat_10_n02123045_8690.png,n02123045_8690.png,0.0,-3.9471684,-1.2995002,-1.8721842
alexnet_w1_mlp_simclrhn_probe0,1,568,NaN,clock,clock,90,0568_ps_dnn_90_clock_10_n02708093_6696.png,n02708093_6696.png,1.0,-2.8688993,-4.7177534,1.3073373
alexnet_w1_mlp_simclrhn_probe0,1,569,NaN,airplane,airplane,60,0569_ps_dnn_60_airplane_10_n02690373_7748.png,n02690373_7748.png,1.0,1.5901692,0.10603376,1.0494422
alexnet_w1_mlp_simclrhn_probe0,1,570,NaN,airplane,airplane,0,0570_ps_dnn_0_airplane_10_n02690373_20011.png,n02690373_20011.png,1.0,-0.040035605,-3.2629771,2.2789638
alexnet_w1_mlp_simclrhn_probe0,1,571,NaN,elephant,boat,150,0571_ps_dnn_150_boat_10_n02951358_16728.png,n02951358_16728.png,0.0,-1.5954502,-0.5828994,-0.71598154
alexnet_w1_mlp_simclrhn_probe0,1,572,NaN,airplane,truck,60,0572_ps_dnn_60_truck_10_n04467665_37833.png,n04467665_37833.png,0.0,-2.999456,-0.70607644,-1.6216643
alexnet_w1_mlp_simclrhn_probe0,1,573,NaN,truck,oven,0,0573_ps_dnn_0_oven_10_n04111531_22886.png,n04111531_22886.png,0.0,-3.6473508,-2.1368937,-1.0680544
alexnet_w1_mlp_simclrhn_probe0,1,574,NaN,car,car,30,0574_ps_dnn_30_car_10_n04285008_5959.png,n04285008_5959.png,1.0,0.40620473,-4.0520434,3.1524575
alexnet_w1_mlp_simclrhn_probe0,1,575,NaN,elephant,boat,120,0575_ps_dnn_120_boat_10_n04273569_10840.png,n04273569_10840.png,0.0,-5.1542635,-0.941875,-2.9786086
alexnet_w1_mlp_simclrhn_probe0,1,576,NaN,elephant,clock,180,0576_ps_dnn_180_clock_10_n02708093_1352.png,n02708093_1352.png,0.0,-4.998755,1.0712409,-4.2921352
alexnet_w1_mlp_simclrhn_probe0,1,577,NaN,oven,oven,120,0577_ps_dnn_120_oven_10_n04111531_1004.png,n04111531_1004.png,1.0,-1.9315507,-2.6454954,0.5048351
alexnet_w1_mlp_simclrhn_probe0,1,578,NaN,elephant,car,180,0578_ps_dnn_180_car_10_n03100240_4619.png,n03100240_4619.png,0.0,-5.945975,-0.10167354,-4.132545
alexnet_w1_mlp_simclrhn_probe0,1,579,NaN,elephant,oven,180,0579_ps_dnn_180_oven_10_n04111531_15367.png,n04111531_15367.png,0.0,-2.4873712,-1.2967365,-0.8419059
alexnet_w1_mlp_simclrhn_probe0,1,580,NaN,oven,oven,30,0580_ps_dnn_30_oven_10_n04111531_6903.png,n04111531_6903.png,1.0,-5.46786,-7.2301517,1.2461282
alexnet_w1_mlp_simclrhn_probe0,1,581,NaN,oven,oven,60,0581_ps_dnn_60_oven_10_n04111531_1662.png,n04111531_1662.png,1.0,-0.12300518,-2.1726303,1.4493039
alexnet_w1_mlp_simclrhn_probe0,1,582,NaN,keyboard,keyboard,0,0582_ps_dnn_0_keyboard_10_n04505470_1342.png,n04505470_1342.png,1.0,5.6009727,-2.3665652,5.6339
alexnet_w1_mlp_simclrhn_probe0,1,583,NaN,boat,boat,60,0583_ps_dnn_60_boat_10_n02951358_1911.png,n02951358_1911.png,1.0,-1.5104618,-3.0017724,1.0545158
alexnet_w1_mlp_simclrhn_probe0,1,584,NaN,bicycle,bicycle,30,0584_ps_dnn_30_bicycle_10_n03792782_42927.png,n03792782_42927.png,1.0,-1.1015038,-5.3945694,3.0356557
alexnet_w1_mlp_simclrhn_probe0,1,585,NaN,oven,chair,180,0585_ps_dnn_180_chair_10_n02791124_3994.png,n02791124_3994.png,0.0,-5.7919626,0.38025868,-4.3644195
alexnet_w1_mlp_simclrhn_probe0,1,586,NaN,dog,dog,0,0586_ps_dnn_0_dog_10_n02101388_1383.png,n02101388_1383.png,1.0,-2.4716976,-7.30385,3.4168477
alexnet_w1_mlp_simclrhn_probe0,1,587,NaN,oven,bear,30,0587_ps_dnn_30_bear_10_n02132136_9367.png,n02132136_9367.png,0.0,-9.804005,-3.0343716,-4.786854
alexnet_w1_mlp_simclrhn_probe0,1,588,NaN,elephant,dog,150,0588_ps_dnn_150_dog_10_n02108915_7875.png,n02108915_7875.png,0.0,-1.8072662,-1.0573485,-0.53027195
alexnet_w1_mlp_simclrhn_probe0,1,589,NaN,bottle,chair,60,0589_ps_dnn_60_chair_10_n02791124_6237.png,n02791124_6237.png,0.0,-5.7072754,-2.8620207,-2.011899
alexnet_w1_mlp_simclrhn_probe0,1,590,NaN,cat,bird,60,0590_ps_dnn_60_bird_10_n01622779_13896.png,n01622779_13896.png,0.0,-14.44487,-0.7875006,-9.657219
alexnet_w1_mlp_simclrhn_probe0,1,591,NaN,oven,boat,30,0591_ps_dnn_30_boat_10_n04273569_15583.png,n04273569_15583.png,0.0,-5.718541,-4.3443756,-0.9716818
alexnet_w1_mlp_simclrhn_probe0,1,592,NaN,keyboard,bottle,0,0592_ps_dnn_0_bottle_10_n03937543_3079.png,n03937543_3079.png,0.0,-4.2669377,-2.0334477,-1.5793159
alexnet_w1_mlp_simclrhn_probe0,1,593,NaN,knife,dog,150,0593_ps_dnn_150_dog_10_n02110063_5687.png,n02110063_5687.png,0.0,-4.0043135,-2.9808316,-0.72371095
alexnet_w1_mlp_simclrhn_probe0,1,594,NaN,truck,truck,30,0594_ps_dnn_30_truck_10_n03417042_6685.png,n03417042_6685.png,1.0,-3.2701592,-4.0339303,0.54006773
alexnet_w1_mlp_simclrhn_probe0,1,595,NaN,clock,clock,0,0595_ps_dnn_0_clock_10_n02708093_340.png,n02708093_340.png,1.0,6.742354,-1.658403,5.9402323
alexnet_w1_mlp_simclrhn_probe0,1,596,NaN,elephant,dog,0,0596_ps_dnn_0_dog_10_n02111129_5463.png,n02111129_5463.png,0.0,-2.2190025,-0.14151767,-1.4690037
alexnet_w1_mlp_simclrhn_probe0,1,597,NaN,bicycle,bicycle,90,0597_ps_dnn_90_bicycle_10_n03792782_17503.png,n03792782_17503.png,1.0,-1.5842049,-3.6097178,1.432254
alexnet_w1_mlp_simclrhn_probe0,1,598,NaN,bear,bear,60,0598_ps_dnn_60_bear_10_n02134084_9253.png,n02134084_9253.png,1.0,-1.8460559,-3.2065268,0.9619982
alexnet_w1_mlp_simclrhn_probe0,1,599,NaN,car,car,30,0599_ps_dnn_30_car_10_n04285008_3688.png,n04285008_3688.png,1.0,-4.611528,-4.6309543,0.013736501
alexnet_w1_mlp_simclrhn_probe0,1,600,NaN,knife,bird,150,0600_ps_dnn_150_bird_10_n01795545_17324.png,n01795545_17324.png,0.0,-1.3895245,-0.62568724,-0.54011446
alexnet_w1_mlp_simclrhn_probe0,1,601,NaN,boat,boat,30,0601_ps_dnn_30_boat_10_n04273569_16064.png,n04273569_16064.png,1.0,0.12292619,-5.077123,3.6769903
alexnet_w1_mlp_simclrhn_probe0,1,602,NaN,bear,elephant,180,0602_ps_dnn_180_elephant_10_n02504458_4395.png,n02504458_4395.png,0.0,-0.6697706,-0.26997384,-0.282699
alexnet_w1_mlp_simclrhn_probe0,1,603,NaN,oven,oven,30,0603_ps_dnn_30_oven_10_n04111531_21855.png,n04111531_21855.png,1.0,0.49154997,-2.997316,2.4670007
alexnet_w1_mlp_simclrhn_probe0,1,604,NaN,oven,oven,30,0604_ps_dnn_30_oven_10_n04111531_11225.png,n04111531_11225.png,1.0,1.6231627,-4.241003,4.1465917
alexnet_w1_mlp_simclrhn_probe0,1,605,NaN,oven,oven,150,0605_ps_dnn_150_oven_10_n04111531_13486.png,n04111531_13486.png,1.0,-1.0583279,-1.3785529,0.22643328
alexnet_w1_mlp_simclrhn_probe0,1,606,NaN,chair,chair,0,0606_ps_dnn_0_chair_10_n02791124_1693.png,n02791124_1693.png,1.0,-1.6364875,-2.0136704,0.26670864
alexnet_w1_mlp_simclrhn_probe0,1,607,NaN,oven,chair,150,0607_ps_dnn_150_chair_10_n04099969_26462.png,n04099969_26462.png,0.0,-4.907167,-0.9369631,-2.807358
alexnet_w1_mlp_simclrhn_probe0,1,608,NaN,elephant,chair,120,0608_ps_dnn_120_chair_10_n04429376_16869.png,n04429376_16869.png,0.0,-4.5715914,-3.030406,-1.0897826
alexnet_w1_mlp_simclrhn_probe0,1,609,NaN,knife,bottle,0,0609_ps_dnn_0_bottle_10_n03983396_23471.png,n03983396_23471.png,0.0,-6.9862256,-4.554411,-1.7195526
alexnet_w1_mlp_simclrhn_probe0,1,610,NaN,elephant,bear,0,0610_ps_dnn_0_bear_10_n02134084_5314.png,n02134084_5314.png,0.0,-2.6609244,-2.163334,-0.35184965
alexnet_w1_mlp_simclrhn_probe0,1,611,NaN,bear,elephant,180,0611_ps_dnn_180_elephant_10_n02504458_4564.png,n02504458_4564.png,0.0,-0.33505404,0.6309194,-0.6830464
alexnet_w1_mlp_simclrhn_probe0,1,612,NaN,elephant,bear,0,0612_ps_dnn_0_bear_10_n02132136_6967.png,n02132136_6967.png,0.0,1.8407267,3.8345246,-1.4098281
alexnet_w1_mlp_simclrhn_probe0,1,613,NaN,cat,cat,0,0613_ps_dnn_0_cat_10_n02123394_6517.png,n02123394_6517.png,1.0,-0.5366079,-3.316395,1.9656063
alexnet_w1_mlp_simclrhn_probe0,1,614,NaN,keyboard,keyboard,150,0614_ps_dnn_150_keyboard_10_n04505470_1076.png,n04505470_1076.png,1.0,-0.34402132,-0.77767587,0.3066401
alexnet_w1_mlp_simclrhn_probe0,1,615,NaN,elephant,knife,180,0615_ps_dnn_180_knife_10_n03041632_5916.png,n03041632_5916.png,0.0,-1.9738021,-0.9477122,-0.7255551
alexnet_w1_mlp_simclrhn_probe0,1,616,NaN,elephant,car,90,0616_ps_dnn_90_car_10_n03100240_4674.png,n03100240_4674.png,0.0,-9.936859,-2.769587,-5.068027
alexnet_w1_mlp_simclrhn_probe0,1,617,NaN,bottle,bottle,90,0617_ps_dnn_90_bottle_10_n02823428_1602.png,n02823428_1602.png,1.0,-1.9953011,-4.3436766,1.6605521
alexnet_w1_mlp_simclrhn_probe0,1,618,NaN,bicycle,boat,90,0618_ps_dnn_90_boat_10_n04273569_27343.png,n04273569_27343.png,0.0,-2.5630076,-2.2548294,-0.2179149
alexnet_w1_mlp_simclrhn_probe0,1,619,NaN,oven,bottle,120,0619_ps_dnn_120_bottle_10_n04560804_15162.png,n04560804_15162.png,0.0,-4.2998796,-1.2436136,-2.1611063
alexnet_w1_mlp_simclrhn_probe0,1,620,NaN,elephant,bottle,120,0620_ps_dnn_120_bottle_10_n03937543_24.png,n03937543_24.png,0.0,-2.5669997,-1.2250398,-0.9489089
alexnet_w1_mlp_simclrhn_probe0,1,621,NaN,bear,dog,180,0621_ps_dnn_180_dog_10_n02105162_9615.png,n02105162_9615.png,0.0,-2.2528455,0.21632715,-1.7459688
alexnet_w1_mlp_simclrhn_probe0,1,622,NaN,elephant,bird,150,0622_ps_dnn_150_bird_10_n01582220_1150.png,n01582220_1150.png,0.0,-2.4006793,-0.8839408,-1.0724962
alexnet_w1_mlp_simclrhn_probe0,1,623,NaN,elephant,clock,180,0623_ps_dnn_180_clock_10_n04548280_4560.png,n04548280_4560.png,0.0,-5.083372,-0.48934728,-3.248466
alexnet_w1_mlp_simclrhn_probe0,1,624,NaN,elephant,bottle,150,0624_ps_dnn_150_bottle_10_n04560804_14605.png,n04560804_14605.png,0.0,-3.9553552,-1.6943753,-1.5987543
alexnet_w1_mlp_simclrhn_probe0,1,625,NaN,chair,chair,0,0625_ps_dnn_0_chair_10_n03376595_262.png,n03376595_262.png,1.0,-1.1174012,-5.0090237,2.7517927
alexnet_w1_mlp_simclrhn_probe0,1,626,NaN,bear,dog,180,0626_ps_dnn_180_dog_10_n02091032_6523.png,n02091032_6523.png,0.0,-2.0938342,-0.25861713,-1.2976944
alexnet_w1_mlp_simclrhn_probe0,1,627,NaN,bear,cat,150,0627_ps_dnn_150_cat_10_n02123159_615.png,n02123159_615.png,0.0,-1.7569437,0.06736128,-1.2899784
alexnet_w1_mlp_simclrhn_probe0,1,628,NaN,knife,bottle,180,0628_ps_dnn_180_bottle_10_n04579145_6049.png,n04579145_6049.png,0.0,-2.3264024,-0.8713311,-1.0288908
alexnet_w1_mlp_simclrhn_probe0,1,629,NaN,keyboard,bottle,90,0629_ps_dnn_90_bottle_10_n02823428_4386.png,n02823428_4386.png,0.0,-1.1814429,3.5858588,-3.3709912
alexnet_w1_mlp_simclrhn_probe0,1,630,NaN,elephant,car,150,0630_ps_dnn_150_car_10_n03100240_4594.png,n03100240_4594.png,0.0,-8.839618,-1.9770458,-4.852571
alexnet_w1_mlp_simclrhn_probe0,1,631,NaN,knife,knife,120,0631_ps_dnn_120_knife_10_n03041632_51581.png,n03041632_51581.png,1.0,-0.7754609,-1.8241109,0.74150753
alexnet_w1_mlp_simclrhn_probe0,1,632,NaN,oven,keyboard,60,0632_ps_dnn_60_keyboard_10_n03085013_15836.png,n03085013_15836.png,0.0,-3.090539,-1.7165279,-0.9715725
alexnet_w1_mlp_simclrhn_probe0,1,633,NaN,elephant,bicycle,180,0633_ps_dnn_180_bicycle_10_n03792782_34197.png,n03792782_34197.png,0.0,-2.0041912,-0.8347337,-0.8269313
alexnet_w1_mlp_simclrhn_probe0,1,634,NaN,elephant,bicycle,180,0634_ps_dnn_180_bicycle_10_n02835271_9314.png,n02835271_9314.png,0.0,-4.381694,-0.19194844,-2.9625974
alexnet_w1_mlp_simclrhn_probe0,1,635,NaN,knife,oven,150,0635_ps_dnn_150_oven_10_n04111531_5643.png,n04111531_5643.png,0.0,-1.7291442,-1.0245382,-0.49823174
alexnet_w1_mlp_simclrhn_probe0,1,636,NaN,elephant,cat,180,0636_ps_dnn_180_cat_10_n02123394_6362.png,n02123394_6362.png,0.0,-2.2522457,0.1033615,-1.6656659
alexnet_w1_mlp_simclrhn_probe0,1,637,NaN,elephant,elephant,60,0637_ps_dnn_60_elephant_10_n02504458_3614.png,n02504458_3614.png,1.0,2.865117,-1.2077197,2.8799307
