subj,session,trial,rt,object_response,category,condition,imagename,filename,is_correct,targ_act,max_nontarg_act,decision_margin
vit_b_16,1,1,NaN,truck,truck,30,0001_ps_dnn_30_truck_10_n03417042_14861.png,n03417042_14861.png,1.0,2.0172682,0.41689807,1.1316326
vit_b_16,1,2,NaN,keyboard,keyboard,0,0002_ps_dnn_0_keyboard_10_n03085013_25476.png,n03085013_25476.png,1.0,6.2913036,0.36952725,4.1873283
vit_b_16,1,3,NaN,elephant,elephant,0,0003_ps_dnn_0_elephant_10_n02504013_3087.png,n02504013_3087.png,1.0,8.099175,1.0756541,4.9663796
vit_b_16,1,4,NaN,cat,cat,30,0004_ps_dnn_30_cat_10_n02123394_4633.png,n02123394_4633.png,1.0,2.065729,0.41116786,1.1699513
vit_b_16,1,5,NaN,knife,knife,120,0005_ps_dnn_120_knife_10_n03041632_48151.png,n03041632_48151.png,1.0,1.1197778,0.59157467,0.37349603
vit_b_16,1,6,NaN,bicycle,bicycle,60,0006_ps_dnn_60_bicycle_10_n02835271_1075.png,n02835271_1075.png,1.0,5.324591,0.4548891,3.4433992
vit_b_16,1,7,NaN,cat,bear,180,0007_ps_dnn_180_bear_10_n02134084_10289.png,n02134084_10289.png,0.0,0.78182906,0.853931,-0.05098378
vit_b_16,1,8,NaN,keyboard,keyboard,0,0008_ps_dnn_0_keyboard_10_n03085013_21967.png,n03085013_21967.png,1.0,4.717639,0.22770244,3.1748645
vit_b_16,1,9,NaN,clock,oven,150,0009_ps_dnn_150_oven_10_n04111531_5737.png,n04111531_5737.png,0.0,-1.5584482,1.5113682,-2.170688
vit_b_16,1,10,NaN,elephant,elephant,60,0010_ps_dnn_60_elephant_10_n02504458_8141.png,n02504458_8141.png,1.0,3.1804113,0.7533765,1.7161728
vit_b_16,1,11,NaN,elephant,elephant,90,0011_ps_dnn_90_elephant_10_n02504458_3153.png,n02504458_3153.png,1.0,6.215745,0.79610705,3.8322625
vit_b_16,1,12,NaN,bear,bear,60,0012_ps_dnn_60_bear_10_n02134418_5807.png,n02134418_5807.png,1.0,3.3685865,0.77114695,1.8366672
vit_b_16,1,13,NaN,boat,boat,0,0013_ps_dnn_0_boat_10_n04273569_15322.png,n04273569_15322.png,1.0,1.6409544,1.0823104,0.39502093
vit_b_16,1,14,NaN,knife,knife,0,0014_ps_dnn_0_knife_10_n03041632_42526.png,n03041632_42526.png,1.0,6.082568,0.6065763,3.8721108
vit_b_16,1,15,NaN,bicycle,bicycle,30,0015_ps_dnn_30_bicycle_10_n02835271_5886.png,n02835271_5886.png,1.0,5.8949046,0.85327905,3.5649676
vit_b_16,1,16,NaN,knife,dog,180,0016_ps_dnn_180_dog_10_n02110063_869.png,n02110063_869.png,0.0,0.08635528,1.2685007,-0.835903
vit_b_16,1,17,NaN,clock,bicycle,180,0017_ps_dnn_180_bicycle_10_n03792782_3334.png,n03792782_3334.png,0.0,-0.69968617,1.1744658,-1.3252256
vit_b_16,1,18,NaN,airplane,airplane,0,0018_ps_dnn_0_airplane_10_n02690373_7355.png,n02690373_7355.png,1.0,8.831487,0.15994474,6.131706
vit_b_16,1,19,NaN,cat,bird,120,0019_ps_dnn_120_bird_10_n01798484_2289.png,n01798484_2289.png,0.0,0.22094347,0.70558316,-0.34269202
vit_b_16,1,20,NaN,knife,knife,60,0020_ps_dnn_60_knife_10_n03041632_87380.png,n03041632_87380.png,1.0,6.2704015,1.5764651,3.3191142
vit_b_16,1,21,NaN,bird,bird,0,0021_ps_dnn_0_bird_10_n02027492_15639.png,n02027492_15639.png,1.0,1.6609954,0.3843335,0.9027363
vit_b_16,1,22,NaN,bird,bird,0,0022_ps_dnn_0_bird_10_n02006656_7153.png,n02006656_7153.png,1.0,0.60860056,0.30367562,0.2156145
vit_b_16,1,23,NaN,boat,boat,60,0023_ps_dnn_60_boat_10_n04612504_14699.png,n04612504_14699.png,1.0,2.5218296,0.35897696,1.5293679
vit_b_16,1,24,NaN,bear,bear,60,0024_ps_dnn_60_bear_10_n02134418_5971.png,n02134418_5971.png,1.0,6.2111225,0.5023281,4.0367274
vit_b_16,1,25,NaN,bear,dog,90,0025_ps_dnn_90_dog_10_n02110063_16680.png,n02110063_16680.png,0.0,0.8028098,1.3774288,-0.406317
vit_b_16,1,26,NaN,car,car,90,0026_ps_dnn_90_car_10_n03100240_6010.png,n03100240_6010.png,1.0,6.486946,2.98558,2.4758399
vit_b_16,1,27,NaN,elephant,elephant,30,0027_ps_dnn_30_elephant_10_n02504458_9835.png,n02504458_9835.png,1.0,7.0299063,0.23143435,4.8072457
vit_b_16,1,28,NaN,airplane,airplane,30,0028_ps_dnn_30_airplane_10_n02690373_10207.png,n02690373_10207.png,1.0,8.852511,0.085506134,6.1992087
vit_b_16,1,29,NaN,knife,bottle,180,0029_ps_dnn_180_bottle_10_n03983396_5532.png,n03983396_5532.png,0.0,0.67566013,2.360775,-1.1915562
vit_b_16,1,30,NaN,elephant,dog,30,0030_ps_dnn_30_dog_10_n02090622_1485.png,n02090622_1485.png,0.0,0.13076474,0.20371364,-0.051582664
vit_b_16,1,31,NaN,knife,truck,150,0031_ps_dnn_150_truck_10_n03417042_5503.png,n03417042_5503.png,0.0,-1.1910486,1.2207532,-1.7054014
vit_b_16,1,32,NaN,knife,bear,180,0032_ps_dnn_180_bear_10_n02133161_897.png,n02133161_897.png,0.0,0.7803489,1.7105511,-0.65775234
vit_b_16,1,33,NaN,clock,keyboard,180,0033_ps_dnn_180_keyboard_10_n04505470_4579.png,n04505470_4579.png,0.0,0.611199,2.1537619,-1.0907567
vit_b_16,1,34,NaN,bicycle,bird,60,0034_ps_dnn_60_bird_10_n01592084_5833.png,n01592084_5833.png,0.0,0.1379692,0.3441757,-0.14581002
vit_b_16,1,35,NaN,elephant,dog,0,0035_ps_dnn_0_dog_10_n02090379_3514.png,n02090379_3514.png,0.0,0.02796636,0.6606213,-0.44735458
vit_b_16,1,36,NaN,knife,airplane,180,0036_ps_dnn_180_airplane_10_n02690373_6144.png,n02690373_6144.png,0.0,0.296265,1.6135614,-0.9314692
vit_b_16,1,37,NaN,airplane,airplane,90,0037_ps_dnn_90_airplane_10_n02690373_1436.png,n02690373_1436.png,1.0,8.380019,0.4355906,5.6175594
vit_b_16,1,38,NaN,clock,clock,120,0038_ps_dnn_120_clock_10_n04548280_354.png,n04548280_354.png,1.0,2.661133,1.3643675,0.9169517
vit_b_16,1,39,NaN,keyboard,keyboard,0,0039_ps_dnn_0_keyboard_10_n03085013_2189.png,n03085013_2189.png,1.0,4.9826555,0.1501788,3.417077
vit_b_16,1,40,NaN,clock,chair,120,0040_ps_dnn_120_chair_10_n04099969_9005.png,n04099969_9005.png,0.0,0.12724385,1.4845796,-0.9597813
vit_b_16,1,41,NaN,knife,bicycle,180,0041_ps_dnn_180_bicycle_10_n02835271_7350.png,n02835271_7350.png,0.0,-0.76960754,2.370083,-2.2200966
vit_b_16,1,42,NaN,knife,bottle,150,0042_ps_dnn_150_bottle_10_n04557648_8320.png,n04557648_8320.png,0.0,-0.04931169,2.2965913,-1.6588039
vit_b_16,1,43,NaN,dog,dog,0,0043_ps_dnn_0_dog_10_n02105641_6503.png,n02105641_6503.png,1.0,0.7774844,0.29308462,0.34252238
vit_b_16,1,44,NaN,clock,clock,90,0044_ps_dnn_90_clock_10_n04548280_6022.png,n04548280_6022.png,1.0,5.443035,0.73460644,3.329362
vit_b_16,1,45,NaN,keyboard,clock,60,0045_ps_dnn_60_clock_10_n03196217_7414.png,n03196217_7414.png,0.0,1.6167704,4.3789344,-1.953145
vit_b_16,1,46,NaN,clock,oven,150,0046_ps_dnn_150_oven_10_n04111531_7965.png,n04111531_7965.png,0.0,-1.649541,1.43857,-2.1836243
vit_b_16,1,47,NaN,bottle,bottle,90,0047_ps_dnn_90_bottle_10_n04579145_4594.png,n04579145_4594.png,1.0,1.784044,0.36070552,1.0064523
vit_b_16,1,48,NaN,bottle,bottle,30,0048_ps_dnn_30_bottle_10_n03983396_4564.png,n03983396_4564.png,1.0,4.724155,2.3130014,1.7049431
vit_b_16,1,49,NaN,cat,cat,60,0049_ps_dnn_60_cat_10_n02125311_54015.png,n02125311_54015.png,1.0,2.6579046,0.21670164,1.7261912
vit_b_16,1,50,NaN,knife,bicycle,150,0050_ps_dnn_150_bicycle_10_n03792782_5133.png,n03792782_5133.png,0.0,-0.7233049,1.4476041,-1.5350645
vit_b_16,1,51,NaN,bird,bird,120,0051_ps_dnn_120_bird_10_n02018207_6296.png,n02018207_6296.png,1.0,1.4580944,0.29907668,0.81954926
vit_b_16,1,52,NaN,oven,bird,30,0052_ps_dnn_30_bird_10_n01817953_11996.png,n01817953_11996.png,0.0,0.013300737,0.29458806,-0.19890016
vit_b_16,1,53,NaN,clock,keyboard,150,0053_ps_dnn_150_keyboard_10_n03085013_3148.png,n03085013_3148.png,0.0,-0.45535475,0.7729289,-0.8685277
vit_b_16,1,54,NaN,bear,bear,60,0054_ps_dnn_60_bear_10_n02134418_5537.png,n02134418_5537.png,1.0,3.2755418,0.397895,2.0348036
vit_b_16,1,55,NaN,clock,cat,150,0055_ps_dnn_150_cat_10_n02125311_11409.png,n02125311_11409.png,0.0,0.7329982,1.1595484,-0.30161655
vit_b_16,1,56,NaN,knife,knife,30,0056_ps_dnn_30_knife_10_n03041632_3063.png,n03041632_3063.png,1.0,5.5134273,0.9222587,3.2464464
vit_b_16,1,57,NaN,elephant,dog,60,0057_ps_dnn_60_dog_10_n02106550_6424.png,n02106550_6424.png,0.0,-0.11313116,0.22605523,-0.23984101
vit_b_16,1,58,NaN,bear,bear,30,0058_ps_dnn_30_bear_10_n02133161_7032.png,n02133161_7032.png,1.0,5.354861,0.55620885,3.3931592
vit_b_16,1,59,NaN,knife,cat,150,0059_ps_dnn_150_cat_10_n02125311_5570.png,n02125311_5570.png,0.0,0.0138502745,0.91856855,-0.6397324
vit_b_16,1,60,NaN,bird,bird,30,0060_ps_dnn_30_bird_10_n01843383_13894.png,n01843383_13894.png,1.0,1.3152205,0.44223633,0.61729306
vit_b_16,1,61,NaN,chair,bottle,60,0061_ps_dnn_60_bottle_10_n03983396_2205.png,n03983396_2205.png,0.0,0.8057266,1.9810303,-0.83106524
vit_b_16,1,62,NaN,bicycle,bicycle,60,0062_ps_dnn_60_bicycle_10_n03792782_31010.png,n03792782_31010.png,1.0,6.6537247,0.4612564,4.3787365
vit_b_16,1,63,NaN,bottle,bottle,60,0063_ps_dnn_60_bottle_10_n02823428_880.png,n02823428_880.png,1.0,3.630531,0.16652754,2.4494205
vit_b_16,1,64,NaN,knife,car,180,0064_ps_dnn_180_car_10_n02814533_40459.png,n02814533_40459.png,0.0,-0.23303802,1.4158865,-1.1659658
vit_b_16,1,65,NaN,cat,cat,120,0065_ps_dnn_120_cat_10_n02123045_567.png,n02123045_567.png,1.0,4.0493426,0.78535765,2.307986
vit_b_16,1,66,NaN,knife,knife,120,0066_ps_dnn_120_knife_10_n03041632_24541.png,n03041632_24541.png,1.0,3.164549,0.9368716,1.5752059
vit_b_16,1,67,NaN,elephant,elephant,30,0067_ps_dnn_30_elephant_10_n02504458_8644.png,n02504458_8644.png,1.0,6.805918,0.30469528,4.597059
vit_b_16,1,68,NaN,keyboard,keyboard,0,0068_ps_dnn_0_keyboard_10_n03085013_2166.png,n03085013_2166.png,1.0,3.5538032,0.32297152,2.284543
vit_b_16,1,69,NaN,boat,boat,90,0069_ps_dnn_90_boat_10_n04273569_13972.png,n04273569_13972.png,1.0,1.858689,0.4233323,1.0149504
vit_b_16,1,70,NaN,knife,airplane,150,0070_ps_dnn_150_airplane_10_n02690373_9432.png,n02690373_9432.png,0.0,-0.06925305,0.9985505,-0.75505114
vit_b_16,1,71,NaN,truck,truck,90,0071_ps_dnn_90_truck_10_n03417042_5228.png,n03417042_5228.png,1.0,1.7252808,1.4593948,0.18800975
vit_b_16,1,72,NaN,airplane,airplane,0,0072_ps_dnn_0_airplane_10_n02690373_4294.png,n02690373_4294.png,1.0,9.210297,0.4149321,6.219262
vit_b_16,1,73,NaN,chair,chair,30,0073_ps_dnn_30_chair_10_n04099969_52474.png,n04099969_52474.png,1.0,4.158277,2.9249828,0.8720707
vit_b_16,1,74,NaN,oven,oven,30,0074_ps_dnn_30_oven_10_n04111531_21822.png,n04111531_21822.png,1.0,8.352537,0.44362417,5.5924463
vit_b_16,1,75,NaN,clock,oven,150,0075_ps_dnn_150_oven_10_n04111531_15735.png,n04111531_15735.png,0.0,-0.3196708,0.9539158,-0.9005617
vit_b_16,1,76,NaN,elephant,dog,120,0076_ps_dnn_120_dog_10_n02104029_7335.png,n02104029_7335.png,0.0,0.6710389,1.8658369,-0.84484977
vit_b_16,1,77,NaN,knife,truck,150,0077_ps_dnn_150_truck_10_n03417042_17911.png,n03417042_17911.png,0.0,-0.9299618,1.0033233,-1.3670391
vit_b_16,1,78,NaN,clock,clock,30,0078_ps_dnn_30_clock_10_n02708093_899.png,n02708093_899.png,1.0,6.1136413,1.016043,3.6045463
vit_b_16,1,79,NaN,boat,boat,60,0079_ps_dnn_60_boat_10_n03662601_9590.png,n03662601_9590.png,1.0,2.7595525,0.16260341,1.8363204
vit_b_16,1,80,NaN,bottle,chair,90,0080_ps_dnn_90_chair_10_n02791124_6550.png,n02791124_6550.png,0.0,-0.037571877,1.0603973,-0.77638143
vit_b_16,1,81,NaN,knife,clock,180,0081_ps_dnn_180_clock_10_n03196217_4492.png,n03196217_4492.png,0.0,1.3307835,3.159765,-1.2932853
vit_b_16,1,82,NaN,car,car,30,0082_ps_dnn_30_car_10_n04285008_14128.png,n04285008_14128.png,1.0,7.4620633,1.6792809,4.089045
vit_b_16,1,83,NaN,bicycle,bicycle,60,0083_ps_dnn_60_bicycle_10_n02835271_4730.png,n02835271_4730.png,1.0,6.6027107,0.63102126,4.222622
vit_b_16,1,84,NaN,elephant,elephant,0,0084_ps_dnn_0_elephant_10_n02504458_62.png,n02504458_62.png,1.0,7.499606,0.28123182,5.1041613
vit_b_16,1,85,NaN,bear,dog,120,0085_ps_dnn_120_dog_10_n02086646_8144.png,n02086646_8144.png,0.0,-0.18360764,1.7643049,-1.3773822
vit_b_16,1,86,NaN,knife,knife,60,0086_ps_dnn_60_knife_10_n03041632_1671.png,n03041632_1671.png,1.0,6.5688815,0.69501495,4.153451
vit_b_16,1,87,NaN,clock,bird,180,0087_ps_dnn_180_bird_10_n01534433_10801.png,n01534433_10801.png,0.0,-0.22786859,0.92974204,-0.81855434
vit_b_16,1,88,NaN,cat,keyboard,150,0088_ps_dnn_150_keyboard_10_n03085013_20570.png,n03085013_20570.png,0.0,-0.31411204,0.7747565,-0.76994634
vit_b_16,1,89,NaN,knife,knife,150,0089_ps_dnn_150_knife_10_n03041632_4808.png,n03041632_4808.png,1.0,1.9804144,1.4456239,0.378154
vit_b_16,1,90,NaN,airplane,keyboard,180,0090_ps_dnn_180_keyboard_10_n03085013_1808.png,n03085013_1808.png,0.0,-0.50494385,1.4277738,-1.3666378
vit_b_16,1,91,NaN,truck,truck,120,0091_ps_dnn_120_truck_10_n03796401_4370.png,n03796401_4370.png,1.0,0.949474,0.5511646,0.28164724
vit_b_16,1,92,NaN,airplane,airplane,60,0092_ps_dnn_60_airplane_10_n02690373_6314.png,n02690373_6314.png,1.0,8.832826,0.26427594,6.05888
vit_b_16,1,93,NaN,oven,oven,90,0093_ps_dnn_90_oven_10_n04111531_4879.png,n04111531_4879.png,1.0,1.5284326,0.84109753,0.4860193
vit_b_16,1,94,NaN,knife,airplane,180,0094_ps_dnn_180_airplane_10_n02690373_4375.png,n02690373_4375.png,0.0,0.6500114,1.8572577,-0.85365206
vit_b_16,1,95,NaN,bottle,bottle,60,0095_ps_dnn_60_bottle_10_n04557648_4133.png,n04557648_4133.png,1.0,4.127793,0.3880667,2.6443858
vit_b_16,1,96,NaN,elephant,bicycle,120,0096_ps_dnn_120_bicycle_10_n02835271_19213.png,n02835271_19213.png,0.0,0.6935139,1.7537521,-0.7497017
vit_b_16,1,97,NaN,bear,bear,150,0097_ps_dnn_150_bear_10_n02132136_10577.png,n02132136_10577.png,1.0,0.913887,0.86677796,0.03331114
vit_b_16,1,98,NaN,airplane,airplane,90,0098_ps_dnn_90_airplane_10_n02690373_3147.png,n02690373_3147.png,1.0,3.000936,1.4433889,1.1013521
vit_b_16,1,99,NaN,elephant,elephant,60,0099_ps_dnn_60_elephant_10_n02504013_10389.png,n02504013_10389.png,1.0,5.281133,0.57976395,3.3243701
vit_b_16,1,100,NaN,clock,chair,150,0100_ps_dnn_150_chair_10_n02791124_5685.png,n02791124_5685.png,0.0,-0.357613,1.5105934,-1.3210214
vit_b_16,1,101,NaN,cat,bird,60,0101_ps_dnn_60_bird_10_n01817953_6333.png,n01817953_6333.png,0.0,0.07895476,0.8757866,-0.5634452
vit_b_16,1,102,NaN,keyboard,keyboard,90,0102_ps_dnn_90_keyboard_10_n03085013_20247.png,n03085013_20247.png,1.0,6.640789,2.6719024,2.8064268
vit_b_16,1,103,NaN,airplane,airplane,0,0103_ps_dnn_0_airplane_10_n02690373_5729.png,n02690373_5729.png,1.0,9.234263,0.24222545,6.358331
vit_b_16,1,104,NaN,bicycle,bicycle,90,0104_ps_dnn_90_bicycle_10_n03792782_55532.png,n03792782_55532.png,1.0,7.335346,0.087913506,5.124709
vit_b_16,1,105,NaN,bicycle,bicycle,0,0105_ps_dnn_0_bicycle_10_n02835271_8417.png,n02835271_8417.png,1.0,5.181196,0.6456791,3.2070951
vit_b_16,1,106,NaN,clock,clock,60,0106_ps_dnn_60_clock_10_n03196217_599.png,n03196217_599.png,1.0,3.7613766,1.7967405,1.3892075
vit_b_16,1,107,NaN,airplane,airplane,0,0107_ps_dnn_0_airplane_10_n02690373_1952.png,n02690373_1952.png,1.0,9.309504,0.2141869,6.4313602
vit_b_16,1,108,NaN,clock,bear,180,0108_ps_dnn_180_bear_10_n02134084_23061.png,n02134084_23061.png,0.0,0.34296018,1.1572998,-0.57582504
vit_b_16,1,109,NaN,clock,bicycle,150,0109_ps_dnn_150_bicycle_10_n03792782_27445.png,n03792782_27445.png,0.0,-0.5323452,1.3147871,-1.3061198
vit_b_16,1,110,NaN,clock,clock,30,0110_ps_dnn_30_clock_10_n03196217_6348.png,n03196217_6348.png,1.0,1.8327187,0.4412385,0.9839251
vit_b_16,1,111,NaN,bear,bear,90,0111_ps_dnn_90_bear_10_n02132136_5778.png,n02132136_5778.png,1.0,4.3292203,1.4464893,2.0383987
vit_b_16,1,112,NaN,knife,boat,90,0112_ps_dnn_90_boat_10_n04273569_4772.png,n04273569_4772.png,0.0,2.5497413,4.601917,-1.4511073
vit_b_16,1,113,NaN,clock,oven,180,0113_ps_dnn_180_oven_10_n04111531_23830.png,n04111531_23830.png,0.0,-1.032737,0.7815893,-1.2829224
vit_b_16,1,114,NaN,clock,bird,150,0114_ps_dnn_150_bird_10_n01855032_1306.png,n01855032_1306.png,0.0,-0.43563357,1.7579284,-1.5510826
vit_b_16,1,115,NaN,elephant,elephant,60,0115_ps_dnn_60_elephant_10_n02504013_8905.png,n02504013_8905.png,1.0,6.668531,0.51055026,4.35435
vit_b_16,1,116,NaN,elephant,truck,60,0116_ps_dnn_60_truck_10_n04467665_30461.png,n04467665_30461.png,0.0,0.596378,0.8646012,-0.18966243
vit_b_16,1,117,NaN,knife,knife,60,0117_ps_dnn_60_knife_10_n03041632_20662.png,n03041632_20662.png,1.0,8.911605,0.42151222,6.0034018
vit_b_16,1,118,NaN,knife,boat,180,0118_ps_dnn_180_boat_10_n03662601_15915.png,n03662601_15915.png,0.0,-0.0077199414,1.0831002,-0.77132636
vit_b_16,1,119,NaN,airplane,boat,150,0119_ps_dnn_150_boat_10_n04273569_62.png,n04273569_62.png,0.0,0.5487143,1.1955775,-0.45740137
vit_b_16,1,120,NaN,clock,bicycle,180,0120_ps_dnn_180_bicycle_10_n03792782_8080.png,n03792782_8080.png,0.0,-0.5354713,1.619072,-1.5234922
vit_b_16,1,121,NaN,airplane,airplane,120,0121_ps_dnn_120_airplane_10_n02690373_10309.png,n02690373_10309.png,1.0,6.257115,0.7581561,3.888351
vit_b_16,1,122,NaN,dog,dog,30,0122_ps_dnn_30_dog_10_n02093859_1001.png,n02093859_1001.png,1.0,0.1424197,0.05981231,0.058412246
vit_b_16,1,123,NaN,oven,oven,0,0123_ps_dnn_0_oven_10_n04111531_15267.png,n04111531_15267.png,1.0,9.300123,1.2110401,5.7198453
vit_b_16,1,124,NaN,cat,cat,90,0124_ps_dnn_90_cat_10_n02124075_81.png,n02124075_81.png,1.0,4.2775683,0.7340089,2.505675
vit_b_16,1,125,NaN,elephant,elephant,60,0125_ps_dnn_60_elephant_10_n02504013_7314.png,n02504013_7314.png,1.0,5.96441,0.27750173,4.0212517
vit_b_16,1,126,NaN,clock,bottle,120,0126_ps_dnn_120_bottle_10_n03983396_3294.png,n03983396_3294.png,0.0,0.48838,1.4134213,-0.654103
vit_b_16,1,127,NaN,cat,cat,60,0127_ps_dnn_60_cat_10_n02123159_3201.png,n02123159_3201.png,1.0,4.394183,0.25307953,2.9282026
vit_b_16,1,128,NaN,dog,dog,90,0128_ps_dnn_90_dog_10_n02101388_11601.png,n02101388_11601.png,1.0,1.8974731,0.8656672,0.7295969
vit_b_16,1,129,NaN,cat,cat,30,0129_ps_dnn_30_cat_10_n02123597_4442.png,n02123597_4442.png,1.0,2.0426543,0.622107,1.0044786
vit_b_16,1,130,NaN,airplane,airplane,30,0130_ps_dnn_30_airplane_10_n02690373_1950.png,n02690373_1950.png,1.0,8.7454,0.19023821,6.0494137
vit_b_16,1,131,NaN,elephant,bird,120,0131_ps_dnn_120_bird_10_n01616318_4652.png,n01616318_4652.png,0.0,-0.47936982,2.210647,-1.9021293
vit_b_16,1,132,NaN,airplane,airplane,90,0132_ps_dnn_90_airplane_10_n02690373_17937.png,n02690373_17937.png,1.0,8.665555,0.1838222,5.9974904
vit_b_16,1,133,NaN,clock,clock,30,0133_ps_dnn_30_clock_10_n02708093_1125.png,n02708093_1125.png,1.0,5.3629413,0.8669867,3.17912
vit_b_16,1,134,NaN,knife,elephant,150,0134_ps_dnn_150_elephant_10_n02504458_6499.png,n02504458_6499.png,0.0,-0.06306649,1.1856786,-0.88299614
vit_b_16,1,135,NaN,clock,clock,30,0135_ps_dnn_30_clock_10_n02708093_51.png,n02708093_51.png,1.0,7.1489544,1.0174748,4.335611
vit_b_16,1,136,NaN,bicycle,bicycle,90,0136_ps_dnn_90_bicycle_10_n02835271_13180.png,n02835271_13180.png,1.0,5.0922756,0.46698856,3.270572
vit_b_16,1,137,NaN,cat,cat,120,0137_ps_dnn_120_cat_10_n02123597_7297.png,n02123597_7297.png,1.0,3.5597715,0.45614576,2.1945949
vit_b_16,1,138,NaN,clock,clock,30,0138_ps_dnn_30_clock_10_n04548280_1109.png,n04548280_1109.png,1.0,4.664025,1.01075,2.5832555
vit_b_16,1,139,NaN,clock,clock,60,0139_ps_dnn_60_clock_10_n04548280_1304.png,n04548280_1304.png,1.0,4.4847107,0.5990683,2.7475643
vit_b_16,1,140,NaN,clock,bird,180,0140_ps_dnn_180_bird_10_n01833805_8179.png,n01833805_8179.png,0.0,-0.27472156,1.5538006,-1.2929605
vit_b_16,1,141,NaN,bottle,bottle,60,0141_ps_dnn_60_bottle_10_n03983396_24525.png,n03983396_24525.png,1.0,1.7679123,0.552159,0.8596674
vit_b_16,1,142,NaN,clock,elephant,120,0142_ps_dnn_120_elephant_10_n02504013_5945.png,n02504013_5945.png,0.0,1.0407078,1.335095,-0.2081632
vit_b_16,1,143,NaN,airplane,airplane,120,0143_ps_dnn_120_airplane_10_n02690373_13610.png,n02690373_13610.png,1.0,7.5454826,1.3444762,4.3847737
vit_b_16,1,144,NaN,knife,knife,90,0144_ps_dnn_90_knife_10_n03041632_21859.png,n03041632_21859.png,1.0,6.6076074,0.8405611,4.0779176
vit_b_16,1,145,NaN,cat,cat,60,0145_ps_dnn_60_cat_10_n02123045_568.png,n02123045_568.png,1.0,5.308005,0.19353732,3.6164749
vit_b_16,1,146,NaN,clock,clock,180,0146_ps_dnn_180_clock_10_n02708093_960.png,n02708093_960.png,1.0,2.1009233,1.1699554,0.6582937
vit_b_16,1,147,NaN,bicycle,bicycle,120,0147_ps_dnn_120_bicycle_10_n02835271_9669.png,n02835271_9669.png,1.0,3.2909493,1.5208,1.2516847
vit_b_16,1,148,NaN,cat,cat,60,0148_ps_dnn_60_cat_10_n02123597_14647.png,n02123597_14647.png,1.0,2.2953439,0.34839034,1.3767041
vit_b_16,1,149,NaN,bicycle,bicycle,0,0149_ps_dnn_0_bicycle_10_n02835271_7794.png,n02835271_7794.png,1.0,6.0371885,0.6216371,3.8293731
vit_b_16,1,150,NaN,elephant,bird,0,0150_ps_dnn_0_bird_10_n02011460_5925.png,n02011460_5925.png,0.0,0.23082727,0.49948627,-0.1899706
vit_b_16,1,151,NaN,oven,oven,90,0151_ps_dnn_90_oven_10_n04111531_8852.png,n04111531_8852.png,1.0,3.55728,1.1592169,1.6956868
vit_b_16,1,152,NaN,oven,knife,90,0152_ps_dnn_90_knife_10_n03041632_84086.png,n03041632_84086.png,0.0,1.831535,1.8640237,-0.022972982
vit_b_16,1,153,NaN,car,car,60,0153_ps_dnn_60_car_10_n03100240_13602.png,n03100240_13602.png,1.0,6.435831,1.5070289,3.4851894
vit_b_16,1,154,NaN,cat,dog,180,0154_ps_dnn_180_dog_10_n02106662_43958.png,n02106662_43958.png,0.0,0.5627463,0.64956135,-0.061387517
vit_b_16,1,155,NaN,chair,chair,30,0155_ps_dnn_30_chair_10_n02791124_1292.png,n02791124_1292.png,1.0,2.2326071,0.331251,1.3444618
vit_b_16,1,156,NaN,cat,dog,90,0156_ps_dnn_90_dog_10_n02085782_4522.png,n02085782_4522.png,0.0,-0.12935725,2.152404,-1.613449
vit_b_16,1,157,NaN,bear,bear,60,0157_ps_dnn_60_bear_10_n02132136_686.png,n02132136_686.png,1.0,6.1485343,1.7598965,3.1032355
vit_b_16,1,158,NaN,elephant,bird,120,0158_ps_dnn_120_bird_10_n01796340_12914.png,n01796340_12914.png,0.0,0.38202274,1.5292624,-0.811221
vit_b_16,1,159,NaN,knife,knife,60,0159_ps_dnn_60_knife_10_n03041632_24060.png,n03041632_24060.png,1.0,3.0771585,1.3015144,1.2555699
vit_b_16,1,160,NaN,knife,bottle,180,0160_ps_dnn_180_bottle_10_n03983396_4775.png,n03983396_4775.png,0.0,0.43530056,1.0893563,-0.46248725
vit_b_16,1,161,NaN,airplane,keyboard,120,0161_ps_dnn_120_keyboard_10_n04505470_1516.png,n04505470_1516.png,0.0,-0.44508976,3.1078935,-2.5123386
vit_b_16,1,162,NaN,knife,boat,150,0162_ps_dnn_150_boat_10_n03344393_4944.png,n03344393_4944.png,0.0,-0.052073527,3.1439867,-2.259956
vit_b_16,1,163,NaN,knife,cat,150,0163_ps_dnn_150_cat_10_n02123159_3524.png,n02123159_3524.png,0.0,0.77922827,0.9528843,-0.12279337
vit_b_16,1,164,NaN,truck,truck,60,0164_ps_dnn_60_truck_10_n04467665_50648.png,n04467665_50648.png,1.0,2.065365,0.7410121,0.936459
vit_b_16,1,165,NaN,elephant,dog,0,0165_ps_dnn_0_dog_10_n02107574_1277.png,n02107574_1277.png,0.0,0.39952224,0.7237345,-0.22925268
vit_b_16,1,166,NaN,oven,oven,60,0166_ps_dnn_60_oven_10_n04111531_21980.png,n04111531_21980.png,1.0,6.58298,3.3012037,2.3205664
vit_b_16,1,167,NaN,airplane,boat,120,0167_ps_dnn_120_boat_10_n03344393_11315.png,n03344393_11315.png,0.0,2.0778534,2.6908014,-0.43341964
vit_b_16,1,168,NaN,oven,knife,90,0168_ps_dnn_90_knife_10_n03041632_32896.png,n03041632_32896.png,0.0,2.2978764,3.337282,-0.73497075
vit_b_16,1,169,NaN,bottle,bottle,30,0169_ps_dnn_30_bottle_10_n03937543_3133.png,n03937543_3133.png,1.0,1.9726322,1.2209636,0.53150994
vit_b_16,1,170,NaN,clock,car,180,0170_ps_dnn_180_car_10_n04285008_15213.png,n04285008_15213.png,0.0,-0.3526777,1.8350978,-1.546991
vit_b_16,1,171,NaN,elephant,elephant,90,0171_ps_dnn_90_elephant_10_n02504013_3081.png,n02504013_3081.png,1.0,6.509919,0.6790666,4.1230354
vit_b_16,1,172,NaN,cat,cat,60,0172_ps_dnn_60_cat_10_n02123159_6873.png,n02123159_6873.png,1.0,2.7061083,0.55635786,1.5201032
vit_b_16,1,173,NaN,bottle,bottle,60,0173_ps_dnn_60_bottle_10_n04579145_4385.png,n04579145_4385.png,1.0,1.7758993,0.36698312,0.99625427
vit_b_16,1,174,NaN,knife,bear,60,0174_ps_dnn_60_bear_10_n02134418_2185.png,n02134418_2185.png,0.0,1.2652833,2.4499135,-0.83766
vit_b_16,1,175,NaN,clock,chair,150,0175_ps_dnn_150_chair_10_n04429376_16002.png,n04429376_16002.png,0.0,-0.09591673,1.7801108,-1.3265518
vit_b_16,1,176,NaN,car,car,60,0176_ps_dnn_60_car_10_n03100240_8107.png,n03100240_8107.png,1.0,6.614733,1.5270386,3.5975435
vit_b_16,1,177,NaN,boat,boat,60,0177_ps_dnn_60_boat_10_n04273569_15906.png,n04273569_15906.png,1.0,2.8198504,1.1427244,1.1859072
vit_b_16,1,178,NaN,clock,car,150,0178_ps_dnn_150_car_10_n02814533_85659.png,n02814533_85659.png,0.0,-0.34313872,1.4014549,-1.233614
vit_b_16,1,179,NaN,clock,car,150,0179_ps_dnn_150_car_10_n02814533_87140.png,n02814533_87140.png,0.0,0.6302164,1.5442749,-0.646337
vit_b_16,1,180,NaN,keyboard,keyboard,30,0180_ps_dnn_30_keyboard_10_n03085013_7520.png,n03085013_7520.png,1.0,6.4952445,0.32731077,4.361388
vit_b_16,1,181,NaN,bear,dog,90,0181_ps_dnn_90_dog_10_n02112018_10082.png,n02112018_10082.png,0.0,0.37105837,0.5881757,-0.15352514
vit_b_16,1,182,NaN,bear,bear,90,0182_ps_dnn_90_bear_10_n02134084_5733.png,n02134084_5733.png,1.0,2.8199472,1.1324806,1.1932191
vit_b_16,1,183,NaN,cat,cat,90,0183_ps_dnn_90_cat_10_n02123597_3821.png,n02123597_3821.png,1.0,2.968653,0.47533005,1.7630455
vit_b_16,1,184,NaN,knife,boat,120,0184_ps_dnn_120_boat_10_n04612504_15256.png,n04612504_15256.png,0.0,0.10008957,2.5829916,-1.7556769
vit_b_16,1,185,NaN,car,car,90,0185_ps_dnn_90_car_10_n02814533_84296.png,n02814533_84296.png,1.0,5.8099475,2.4441967,2.3799453
vit_b_16,1,186,NaN,cat,clock,120,0186_ps_dnn_120_clock_10_n04548280_5295.png,n04548280_5295.png,0.0,0.2198414,1.3583008,-0.8050124
vit_b_16,1,187,NaN,airplane,airplane,30,0187_ps_dnn_30_airplane_10_n02690373_11799.png,n02690373_11799.png,1.0,8.817073,0.14373718,6.1329746
vit_b_16,1,188,NaN,airplane,dog,120,0188_ps_dnn_120_dog_10_n02092002_9876.png,n02092002_9876.png,0.0,-0.3601602,1.3856536,-1.2344768
vit_b_16,1,189,NaN,chair,chair,0,0189_ps_dnn_0_chair_10_n02791124_16885.png,n02791124_16885.png,1.0,1.27631,0.27190307,0.71022296
vit_b_16,1,190,NaN,airplane,airplane,60,0190_ps_dnn_60_airplane_10_n02690373_9376.png,n02690373_9376.png,1.0,8.564786,0.37247348,5.7928395
vit_b_16,1,191,NaN,clock,oven,180,0191_ps_dnn_180_oven_10_n04111531_6474.png,n04111531_6474.png,0.0,-1.435131,1.5591469,-2.1172743
vit_b_16,1,192,NaN,clock,knife,180,0192_ps_dnn_180_knife_10_n03041632_44230.png,n03041632_44230.png,0.0,1.6438214,1.890802,-0.17464171
vit_b_16,1,193,NaN,clock,dog,180,0193_ps_dnn_180_dog_10_n02099601_6318.png,n02099601_6318.png,0.0,-0.2808211,1.5930773,-1.3250463
vit_b_16,1,194,NaN,clock,cat,150,0194_ps_dnn_150_cat_10_n02125311_20241.png,n02125311_20241.png,0.0,0.4304533,0.91763943,-0.3444926
vit_b_16,1,195,NaN,clock,truck,120,0195_ps_dnn_120_truck_10_n04467665_51397.png,n04467665_51397.png,0.0,0.9793586,1.5384172,-0.39531413
vit_b_16,1,196,NaN,car,dog,0,0196_ps_dnn_0_dog_10_n02104365_1500.png,n02104365_1500.png,0.0,0.085775286,0.3836349,-0.21061856
vit_b_16,1,197,NaN,knife,knife,90,0197_ps_dnn_90_knife_10_n03041632_3171.png,n03041632_3171.png,1.0,8.619156,0.5260121,5.722717
vit_b_16,1,198,NaN,oven,oven,60,0198_ps_dnn_60_oven_10_n04111531_249.png,n04111531_249.png,1.0,9.296375,1.9770694,5.175531
vit_b_16,1,199,NaN,elephant,bear,90,0199_ps_dnn_90_bear_10_n02133161_8856.png,n02133161_8856.png,0.0,1.2083805,3.1815495,-1.3952413
vit_b_16,1,200,NaN,cat,cat,0,0200_ps_dnn_0_cat_10_n02123045_13354.png,n02123045_13354.png,1.0,4.206511,0.4571678,2.651186
vit_b_16,1,201,NaN,clock,keyboard,120,0201_ps_dnn_120_keyboard_10_n03085013_23267.png,n03085013_23267.png,0.0,0.13356408,2.2198532,-1.4752293
vit_b_16,1,202,NaN,truck,truck,30,0202_ps_dnn_30_truck_10_n03796401_22643.png,n03796401_22643.png,1.0,3.6013863,2.4214938,0.83431005
vit_b_16,1,203,NaN,knife,elephant,180,0203_ps_dnn_180_elephant_10_n02504458_4572.png,n02504458_4572.png,0.0,-0.5225973,1.7635957,-1.6165825
vit_b_16,1,204,NaN,cat,truck,180,0204_ps_dnn_180_truck_10_n04467665_23173.png,n04467665_23173.png,0.0,-1.0328007,0.8668086,-1.3432267
vit_b_16,1,205,NaN,clock,bear,180,0205_ps_dnn_180_bear_10_n02134418_25040.png,n02134418_25040.png,0.0,0.62653583,0.99823,-0.26282746
vit_b_16,1,206,NaN,bicycle,bicycle,60,0206_ps_dnn_60_bicycle_10_n02835271_21185.png,n02835271_21185.png,1.0,5.782673,0.1589117,3.9765997
vit_b_16,1,207,NaN,boat,boat,30,0207_ps_dnn_30_boat_10_n02951358_12664.png,n02951358_12664.png,1.0,2.8722808,1.7911978,0.7644412
vit_b_16,1,208,NaN,bottle,bottle,30,0208_ps_dnn_30_bottle_10_n03983396_11519.png,n03983396_11519.png,1.0,4.982055,0.703666,3.0252779
vit_b_16,1,209,NaN,knife,knife,120,0209_ps_dnn_120_knife_10_n03041632_36280.png,n03041632_36280.png,1.0,2.8409348,0.5746661,1.602494
vit_b_16,1,210,NaN,airplane,truck,60,0210_ps_dnn_60_truck_10_n04467665_67115.png,n04467665_67115.png,0.0,2.3573055,3.2585015,-0.63724184
vit_b_16,1,211,NaN,bear,bear,30,0211_ps_dnn_30_bear_10_n02133161_1560.png,n02133161_1560.png,1.0,2.4954948,0.9478578,1.0943446
vit_b_16,1,212,NaN,boat,truck,180,0212_ps_dnn_180_truck_10_n03417042_6780.png,n03417042_6780.png,0.0,-0.6340928,1.5706224,-1.5589691
vit_b_16,1,213,NaN,knife,bear,150,0213_ps_dnn_150_bear_10_n02134084_20261.png,n02134084_20261.png,0.0,0.7683408,1.4044077,-0.44976723
vit_b_16,1,214,NaN,knife,chair,180,0214_ps_dnn_180_chair_10_n03376595_8377.png,n03376595_8377.png,0.0,-0.8475051,1.5837576,-1.7191623
vit_b_16,1,215,NaN,knife,bird,180,0215_ps_dnn_180_bird_10_n01824575_3556.png,n01824575_3556.png,0.0,0.26520723,1.1460123,-0.62282324
vit_b_16,1,216,NaN,clock,chair,90,0216_ps_dnn_90_chair_10_n04099969_36004.png,n04099969_36004.png,0.0,1.875343,3.59322,-1.2147225
vit_b_16,1,217,NaN,bicycle,bicycle,0,0217_ps_dnn_0_bicycle_10_n02835271_22549.png,n02835271_22549.png,1.0,4.308662,1.0983126,2.2700598
vit_b_16,1,218,NaN,knife,clock,150,0218_ps_dnn_150_clock_10_n04548280_8535.png,n04548280_8535.png,0.0,0.77360183,1.412733,-0.45193395
vit_b_16,1,219,NaN,cat,knife,120,0219_ps_dnn_120_knife_10_n03041632_14546.png,n03041632_14546.png,0.0,0.677423,1.5596346,-0.6238178
vit_b_16,1,220,NaN,keyboard,keyboard,0,0220_ps_dnn_0_keyboard_10_n04505470_4974.png,n04505470_4974.png,1.0,5.5911527,0.61571246,3.5181675
vit_b_16,1,221,NaN,clock,clock,0,0221_ps_dnn_0_clock_10_n04548280_487.png,n04548280_487.png,1.0,5.10304,0.55663925,3.214791
vit_b_16,1,222,NaN,truck,truck,30,0222_ps_dnn_30_truck_10_n03417042_10401.png,n03417042_10401.png,1.0,2.768665,0.5731368,1.552473
vit_b_16,1,223,NaN,clock,clock,180,0223_ps_dnn_180_clock_10_n03196217_6257.png,n03196217_6257.png,1.0,1.9726528,1.3992621,0.40544847
vit_b_16,1,224,NaN,elephant,elephant,120,0224_ps_dnn_120_elephant_10_n02504458_1698.png,n02504458_1698.png,1.0,2.98587,1.7915024,0.84454536
vit_b_16,1,225,NaN,knife,keyboard,180,0225_ps_dnn_180_keyboard_10_n03085013_23014.png,n03085013_23014.png,0.0,0.38667706,1.5712231,-0.8376006
vit_b_16,1,226,NaN,cat,cat,60,0226_ps_dnn_60_cat_10_n02125311_17002.png,n02125311_17002.png,1.0,1.1873664,0.30248663,0.62570447
vit_b_16,1,227,NaN,knife,boat,180,0227_ps_dnn_180_boat_10_n03344393_5566.png,n03344393_5566.png,0.0,1.0544164,1.754045,-0.49471214
vit_b_16,1,228,NaN,clock,bicycle,150,0228_ps_dnn_150_bicycle_10_n02835271_4887.png,n02835271_4887.png,0.0,-0.3450566,0.74415976,-0.77019227
vit_b_16,1,229,NaN,knife,keyboard,120,0229_ps_dnn_120_keyboard_10_n04505470_8386.png,n04505470_8386.png,0.0,0.9288084,2.3432083,-1.0001317
vit_b_16,1,230,NaN,bear,bear,120,0230_ps_dnn_120_bear_10_n02133161_361.png,n02133161_361.png,1.0,3.2829998,1.8514477,1.0122602
vit_b_16,1,231,NaN,bottle,bottle,0,0231_ps_dnn_0_bottle_10_n04560804_2165.png,n04560804_2165.png,1.0,2.2230966,1.2597891,0.6811613
vit_b_16,1,232,NaN,cat,cat,150,0232_ps_dnn_150_cat_10_n02124075_14020.png,n02124075_14020.png,1.0,1.2861654,1.004042,0.19949132
vit_b_16,1,233,NaN,knife,clock,150,0233_ps_dnn_150_clock_10_n04548280_3301.png,n04548280_3301.png,0.0,1.0690706,1.158274,-0.063076384
vit_b_16,1,234,NaN,bear,knife,180,0234_ps_dnn_180_knife_10_n03041632_5820.png,n03041632_5820.png,0.0,0.8384143,1.1047657,-0.18833885
vit_b_16,1,235,NaN,clock,oven,120,0235_ps_dnn_120_oven_10_n04111531_2922.png,n04111531_2922.png,0.0,0.8243316,2.0207164,-0.8459719
vit_b_16,1,236,NaN,bear,bear,120,0236_ps_dnn_120_bear_10_n02134084_7441.png,n02134084_7441.png,1.0,3.082013,2.8773708,0.14470379
vit_b_16,1,237,NaN,knife,airplane,150,0237_ps_dnn_150_airplane_10_n02690373_8252.png,n02690373_8252.png,0.0,0.06477077,2.2134187,-1.5193236
vit_b_16,1,238,NaN,clock,bird,150,0238_ps_dnn_150_bird_10_n02018207_69.png,n02018207_69.png,0.0,-0.21248399,1.2573487,-1.0393287
vit_b_16,1,239,NaN,airplane,bird,30,0239_ps_dnn_30_bird_10_n01798484_5355.png,n01798484_5355.png,0.0,0.0028558178,0.2128988,-0.14852282
vit_b_16,1,240,NaN,knife,keyboard,150,0240_ps_dnn_150_keyboard_10_n03085013_4999.png,n03085013_4999.png,0.0,0.5843169,2.8715076,-1.6172881
vit_b_16,1,241,NaN,elephant,dog,120,0241_ps_dnn_120_dog_10_n02111500_3041.png,n02111500_3041.png,0.0,-0.06737067,1.955502,-1.430387
vit_b_16,1,242,NaN,boat,boat,0,0242_ps_dnn_0_boat_10_n04612504_15237.png,n04612504_15237.png,1.0,3.0414112,0.18218134,2.0217807
vit_b_16,1,243,NaN,cat,truck,150,0243_ps_dnn_150_truck_10_n03417042_6480.png,n03417042_6480.png,0.0,-0.7617451,1.2473589,-1.4206511
vit_b_16,1,244,NaN,knife,airplane,180,0244_ps_dnn_180_airplane_10_n02690373_8382.png,n02690373_8382.png,0.0,0.9280448,1.6155119,-0.48611265
vit_b_16,1,245,NaN,knife,bottle,120,0245_ps_dnn_120_bottle_10_n04591713_2345.png,n04591713_2345.png,0.0,0.67757064,1.9036982,-0.8670032
vit_b_16,1,246,NaN,elephant,elephant,60,0246_ps_dnn_60_elephant_10_n02504458_9516.png,n02504458_9516.png,1.0,8.362456,0.3959269,5.633187
vit_b_16,1,247,NaN,clock,elephant,180,0247_ps_dnn_180_elephant_10_n02504013_698.png,n02504013_698.png,0.0,-0.20581478,0.85579807,-0.75067365
vit_b_16,1,248,NaN,bear,bear,0,0248_ps_dnn_0_bear_10_n02133161_5292.png,n02133161_5292.png,1.0,5.2427583,0.15577295,3.5970418
vit_b_16,1,249,NaN,boat,boat,90,0249_ps_dnn_90_boat_10_n02951358_14341.png,n02951358_14341.png,1.0,1.7524382,1.3384358,0.29274392
vit_b_16,1,250,NaN,elephant,bear,120,0250_ps_dnn_120_bear_10_n02133161_2304.png,n02133161_2304.png,0.0,1.5280002,1.6347661,-0.07549487
vit_b_16,1,251,NaN,clock,airplane,150,0251_ps_dnn_150_airplane_10_n02690373_1751.png,n02690373_1751.png,0.0,0.501106,2.0673318,-1.1074889
vit_b_16,1,252,NaN,knife,truck,150,0252_ps_dnn_150_truck_10_n04467665_48953.png,n04467665_48953.png,0.0,-0.7061161,1.6923097,-1.6959432
vit_b_16,1,253,NaN,oven,oven,0,0253_ps_dnn_0_oven_10_n04111531_10077.png,n04111531_10077.png,1.0,8.870159,0.36495218,6.0140896
vit_b_16,1,254,NaN,knife,dog,150,0254_ps_dnn_150_dog_10_n02097209_821.png,n02097209_821.png,0.0,0.1034679,1.5316604,-1.0098846
vit_b_16,1,255,NaN,truck,truck,0,0255_ps_dnn_0_truck_10_n04467665_13231.png,n04467665_13231.png,1.0,3.1885757,1.8604443,0.9391308
vit_b_16,1,256,NaN,dog,dog,90,0256_ps_dnn_90_dog_10_n02107908_3447.png,n02107908_3447.png,1.0,1.4838622,1.1842784,0.21183774
vit_b_16,1,257,NaN,knife,elephant,180,0257_ps_dnn_180_elephant_10_n02504013_5021.png,n02504013_5021.png,0.0,-0.3861813,2.0695875,-1.7364908
vit_b_16,1,258,NaN,knife,knife,90,0258_ps_dnn_90_knife_10_n03041632_12242.png,n03041632_12242.png,1.0,1.6919845,1.1045245,0.415397
vit_b_16,1,259,NaN,knife,keyboard,150,0259_ps_dnn_150_keyboard_10_n03085013_22821.png,n03085013_22821.png,0.0,-0.112222396,1.2584339,-0.96920043
vit_b_16,1,260,NaN,clock,cat,150,0260_ps_dnn_150_cat_10_n02124075_2080.png,n02124075_2080.png,0.0,0.6752755,0.90791506,-0.16450101
vit_b_16,1,261,NaN,clock,bicycle,180,0261_ps_dnn_180_bicycle_10_n02835271_7296.png,n02835271_7296.png,0.0,-0.6294589,1.2268399,-1.3126014
vit_b_16,1,262,NaN,knife,boat,180,0262_ps_dnn_180_boat_10_n04612504_4302.png,n04612504_4302.png,0.0,0.1547444,1.9436908,-1.2649761
vit_b_16,1,263,NaN,knife,clock,150,0263_ps_dnn_150_clock_10_n04548280_4524.png,n04548280_4524.png,0.0,1.2186911,1.6864722,-0.33077118
vit_b_16,1,264,NaN,knife,knife,150,0264_ps_dnn_150_knife_10_n03041632_19275.png,n03041632_19275.png,1.0,2.0390005,1.799204,0.16956174
vit_b_16,1,265,NaN,oven,bird,30,0265_ps_dnn_30_bird_10_n01796340_2973.png,n01796340_2973.png,0.0,0.20400096,0.20819147,-0.0029631343
vit_b_16,1,266,NaN,chair,chair,90,0266_ps_dnn_90_chair_10_n02791124_15407.png,n02791124_15407.png,1.0,1.9838794,0.9323211,0.74356407
vit_b_16,1,267,NaN,truck,dog,30,0267_ps_dnn_30_dog_10_n02109525_72594.png,n02109525_72594.png,0.0,-0.08392183,0.43082854,-0.36398348
vit_b_16,1,268,NaN,bear,knife,150,0268_ps_dnn_150_knife_10_n03041632_19614.png,n03041632_19614.png,0.0,0.97903347,1.3572433,-0.26743475
vit_b_16,1,269,NaN,keyboard,keyboard,30,0269_ps_dnn_30_keyboard_10_n04505470_5111.png,n04505470_5111.png,1.0,5.100808,0.49334505,3.2579682
vit_b_16,1,270,NaN,bicycle,bicycle,30,0270_ps_dnn_30_bicycle_10_n03792782_8374.png,n03792782_8374.png,1.0,7.3608427,0.86651886,4.5921803
vit_b_16,1,271,NaN,boat,boat,120,0271_ps_dnn_120_boat_10_n04612504_2024.png,n04612504_2024.png,1.0,1.8886261,1.2345862,0.46247602
vit_b_16,1,272,NaN,bicycle,bicycle,30,0272_ps_dnn_30_bicycle_10_n02835271_9860.png,n02835271_9860.png,1.0,7.3641443,0.6784442,4.727504
vit_b_16,1,273,NaN,bear,bear,60,0273_ps_dnn_60_bear_10_n02134084_21921.png,n02134084_21921.png,1.0,3.967846,0.4712232,2.4724858
vit_b_16,1,274,NaN,bear,bear,90,0274_ps_dnn_90_bear_10_n02134418_836.png,n02134418_836.png,1.0,3.2612486,0.97770405,1.6147099
vit_b_16,1,275,NaN,chair,chair,60,0275_ps_dnn_60_chair_10_n04429376_6141.png,n04429376_6141.png,1.0,2.4407332,1.3024818,0.8048653
vit_b_16,1,276,NaN,truck,truck,30,0276_ps_dnn_30_truck_10_n04467665_6523.png,n04467665_6523.png,1.0,2.6857796,1.5373671,0.8120503
vit_b_16,1,277,NaN,clock,chair,90,0277_ps_dnn_90_chair_10_n04429376_41755.png,n04429376_41755.png,0.0,2.872654,4.1389403,-0.8953997
vit_b_16,1,278,NaN,knife,bottle,180,0278_ps_dnn_180_bottle_10_n04579145_3302.png,n04579145_3302.png,0.0,0.23700629,1.8717147,-1.1559135
vit_b_16,1,279,NaN,cat,cat,0,0279_ps_dnn_0_cat_10_n02123045_12297.png,n02123045_12297.png,1.0,3.7213984,1.1151708,1.8428811
vit_b_16,1,280,NaN,clock,clock,60,0280_ps_dnn_60_clock_10_n04548280_5734.png,n04548280_5734.png,1.0,5.77697,0.85301787,3.48176
vit_b_16,1,281,NaN,airplane,elephant,90,0281_ps_dnn_90_elephant_10_n02504013_3640.png,n02504013_3640.png,0.0,0.6188554,4.17598,-2.515267
vit_b_16,1,282,NaN,car,car,0,0282_ps_dnn_0_car_10_n03100240_2108.png,n03100240_2108.png,1.0,4.7761574,1.8134214,2.094971
vit_b_16,1,283,NaN,truck,car,90,0283_ps_dnn_90_car_10_n02814533_8499.png,n02814533_8499.png,0.0,3.441333,3.9684305,-0.3727142
vit_b_16,1,284,NaN,clock,knife,180,0284_ps_dnn_180_knife_10_n03041632_9406.png,n03041632_9406.png,0.0,0.3795937,1.0256518,-0.45683205
vit_b_16,1,285,NaN,clock,clock,120,0285_ps_dnn_120_clock_10_n04548280_3968.png,n04548280_3968.png,1.0,5.396651,3.1013663,1.6230112
vit_b_16,1,286,NaN,airplane,boat,120,0286_ps_dnn_120_boat_10_n04273569_20587.png,n04273569_20587.png,0.0,-0.09592412,2.0010042,-1.4827523
vit_b_16,1,287,NaN,knife,truck,150,0287_ps_dnn_150_truck_10_n03796401_7261.png,n03796401_7261.png,0.0,-0.9661502,1.1327897,-1.4841746
vit_b_16,1,288,NaN,elephant,boat,90,0288_ps_dnn_90_boat_10_n04273569_18037.png,n04273569_18037.png,0.0,1.1741984,5.3228493,-2.9335394
vit_b_16,1,289,NaN,clock,bicycle,180,0289_ps_dnn_180_bicycle_10_n02835271_4789.png,n02835271_4789.png,0.0,-0.24756287,1.4649734,-1.2109461
vit_b_16,1,290,NaN,chair,chair,90,0290_ps_dnn_90_chair_10_n04099969_18380.png,n04099969_18380.png,1.0,3.5173545,1.3886652,1.5052106
vit_b_16,1,291,NaN,airplane,dog,120,0291_ps_dnn_120_dog_10_n02100583_13688.png,n02100583_13688.png,0.0,-0.39572027,1.2043773,-1.1314398
vit_b_16,1,292,NaN,knife,boat,180,0292_ps_dnn_180_boat_10_n03662601_8065.png,n03662601_8065.png,0.0,0.38438615,1.8894016,-1.0642066
vit_b_16,1,293,NaN,boat,boat,0,0293_ps_dnn_0_boat_10_n02951358_15218.png,n02951358_15218.png,1.0,3.1087368,1.2155619,1.3386768
vit_b_16,1,294,NaN,knife,knife,180,0294_ps_dnn_180_knife_10_n03041632_24277.png,n03041632_24277.png,1.0,1.3691646,1.1405483,0.1616561
vit_b_16,1,295,NaN,bicycle,bird,90,0295_ps_dnn_90_bird_10_n01601694_2723.png,n01601694_2723.png,0.0,0.06779423,0.4463127,-0.267653
vit_b_16,1,296,NaN,keyboard,keyboard,120,0296_ps_dnn_120_keyboard_10_n04505470_4724.png,n04505470_4724.png,1.0,4.040396,1.5236894,1.7795806
vit_b_16,1,297,NaN,knife,bear,150,0297_ps_dnn_150_bear_10_n02134418_1642.png,n02134418_1642.png,0.0,-0.12827104,1.6356386,-1.2472725
vit_b_16,1,298,NaN,truck,truck,60,0298_ps_dnn_60_truck_10_n03417042_13055.png,n03417042_13055.png,1.0,3.714344,1.3196181,1.6933268
vit_b_16,1,299,NaN,knife,bear,120,0299_ps_dnn_120_bear_10_n02133161_1629.png,n02133161_1629.png,0.0,-0.54835325,1.8410956,-1.6895956
vit_b_16,1,300,NaN,knife,bottle,180,0300_ps_dnn_180_bottle_10_n04579145_1856.png,n04579145_1856.png,0.0,0.00675099,1.3359972,-0.93991905
vit_b_16,1,301,NaN,knife,chair,150,0301_ps_dnn_150_chair_10_n04099969_3768.png,n04099969_3768.png,0.0,-0.30656698,0.96499157,-0.89912766
vit_b_16,1,302,NaN,elephant,bird,120,0302_ps_dnn_120_bird_10_n02009229_5172.png,n02009229_5172.png,0.0,0.40097237,1.6103289,-0.8551442
vit_b_16,1,303,NaN,airplane,airplane,90,0303_ps_dnn_90_airplane_10_n02690373_21731.png,n02690373_21731.png,1.0,7.740626,0.4906431,5.126512
vit_b_16,1,304,NaN,bear,bear,30,0304_ps_dnn_30_bear_10_n02133161_959.png,n02133161_959.png,1.0,3.7450247,0.35756102,2.3952985
vit_b_16,1,305,NaN,chair,chair,0,0305_ps_dnn_0_chair_10_n04099969_1028.png,n04099969_1028.png,1.0,2.8756907,0.7974499,1.4695382
vit_b_16,1,306,NaN,knife,knife,180,0306_ps_dnn_180_knife_10_n03041632_44212.png,n03041632_44212.png,1.0,1.6688026,0.5811406,0.76909316
vit_b_16,1,307,NaN,airplane,oven,120,0307_ps_dnn_120_oven_10_n04111531_9344.png,n04111531_9344.png,0.0,-0.6176082,0.98796856,-1.1353142
vit_b_16,1,308,NaN,airplane,car,180,0308_ps_dnn_180_car_10_n04285008_9080.png,n04285008_9080.png,0.0,-0.3719535,1.2068099,-1.1163543
vit_b_16,1,309,NaN,car,car,60,0309_ps_dnn_60_car_10_n03100240_17349.png,n03100240_17349.png,1.0,6.9987984,1.1453001,4.1390486
vit_b_16,1,310,NaN,elephant,dog,30,0310_ps_dnn_30_dog_10_n02110958_1335.png,n02110958_1335.png,0.0,0.22499952,0.58574456,-0.25508526
vit_b_16,1,311,NaN,clock,elephant,150,0311_ps_dnn_150_elephant_10_n02504013_7305.png,n02504013_7305.png,0.0,-0.34076178,1.4657615,-1.2774049
vit_b_16,1,312,NaN,cat,dog,90,0312_ps_dnn_90_dog_10_n02091244_2626.png,n02091244_2626.png,0.0,0.3603007,0.5088253,-0.105022766
vit_b_16,1,313,NaN,clock,bird,150,0313_ps_dnn_150_bird_10_n01828970_22.png,n01828970_22.png,0.0,-0.9430482,1.6222905,-1.8139683
vit_b_16,1,314,NaN,cat,cat,60,0314_ps_dnn_60_cat_10_n02124075_13587.png,n02124075_13587.png,1.0,5.203859,1.1286495,2.8816085
vit_b_16,1,315,NaN,elephant,knife,120,0315_ps_dnn_120_knife_10_n03041632_13612.png,n03041632_13612.png,0.0,0.14295577,1.4000947,-0.8889315
vit_b_16,1,316,NaN,bicycle,bicycle,90,0316_ps_dnn_90_bicycle_10_n02835271_2581.png,n02835271_2581.png,1.0,2.1141028,1.6556683,0.32416221
vit_b_16,1,317,NaN,knife,clock,30,0317_ps_dnn_30_clock_10_n03196217_2536.png,n03196217_2536.png,0.0,3.9126046,4.13063,-0.15416728
vit_b_16,1,318,NaN,cat,cat,90,0318_ps_dnn_90_cat_10_n02124075_15001.png,n02124075_15001.png,1.0,3.4738567,0.16262284,2.3413959
vit_b_16,1,319,NaN,bear,bear,60,0319_ps_dnn_60_bear_10_n02133161_6152.png,n02133161_6152.png,1.0,4.227807,0.79985714,2.4239266
vit_b_16,1,320,NaN,chair,chair,30,0320_ps_dnn_30_chair_10_n04099969_8401.png,n04099969_8401.png,1.0,3.3879387,0.60055155,1.9709804
vit_b_16,1,321,NaN,clock,oven,150,0321_ps_dnn_150_oven_10_n04111531_7923.png,n04111531_7923.png,0.0,-1.2714858,0.6322618,-1.3461528
vit_b_16,1,322,NaN,elephant,cat,120,0322_ps_dnn_120_cat_10_n02123159_5706.png,n02123159_5706.png,0.0,0.62406087,2.6594071,-1.4392072
vit_b_16,1,323,NaN,airplane,airplane,30,0323_ps_dnn_30_airplane_10_n02690373_13324.png,n02690373_13324.png,1.0,8.676979,0.18862452,6.0021734
vit_b_16,1,324,NaN,knife,airplane,150,0324_ps_dnn_150_airplane_10_n02690373_4452.png,n02690373_4452.png,0.0,1.7995349,2.0049417,-0.14524454
vit_b_16,1,325,NaN,airplane,bird,90,0325_ps_dnn_90_bird_10_n02056570_10881.png,n02056570_10881.png,0.0,0.92015535,1.3593236,-0.31053886
vit_b_16,1,326,NaN,airplane,airplane,90,0326_ps_dnn_90_airplane_10_n02690373_19133.png,n02690373_19133.png,1.0,7.449477,0.45019534,4.9492397
vit_b_16,1,327,NaN,bottle,bottle,0,0327_ps_dnn_0_bottle_10_n03937543_4850.png,n03937543_4850.png,1.0,0.79355735,0.66005075,0.09440342
vit_b_16,1,328,NaN,clock,keyboard,150,0328_ps_dnn_150_keyboard_10_n04505470_2709.png,n04505470_2709.png,0.0,0.93116,1.9456636,-0.7173624
vit_b_16,1,329,NaN,keyboard,keyboard,90,0329_ps_dnn_90_keyboard_10_n03085013_1797.png,n03085013_1797.png,1.0,6.7547274,3.3212397,2.4278424
vit_b_16,1,330,NaN,oven,oven,30,0330_ps_dnn_30_oven_10_n04111531_3902.png,n04111531_3902.png,1.0,7.5839305,1.0106963,4.6479783
vit_b_16,1,331,NaN,knife,car,180,0331_ps_dnn_180_car_10_n03100240_6750.png,n03100240_6750.png,0.0,0.22278555,1.764753,-1.0903356
vit_b_16,1,332,NaN,chair,chair,0,0332_ps_dnn_0_chair_10_n03376595_16306.png,n03376595_16306.png,1.0,2.7643962,0.22651102,1.7945559
vit_b_16,1,333,NaN,boat,boat,60,0333_ps_dnn_60_boat_10_n02951358_13017.png,n02951358_13017.png,1.0,2.125111,1.7128006,0.29154754
vit_b_16,1,334,NaN,knife,clock,90,0334_ps_dnn_90_clock_10_n03196217_5827.png,n03196217_5827.png,0.0,3.9602711,5.236255,-0.90225697
vit_b_16,1,335,NaN,bottle,bottle,0,0335_ps_dnn_0_bottle_10_n02823428_685.png,n02823428_685.png,1.0,3.045143,0.88686776,1.526131
vit_b_16,1,336,NaN,airplane,airplane,120,0336_ps_dnn_120_airplane_10_n02690373_2092.png,n02690373_2092.png,1.0,3.1308553,1.6276193,1.0629485
vit_b_16,1,337,NaN,clock,bottle,180,0337_ps_dnn_180_bottle_10_n04557648_3637.png,n04557648_3637.png,0.0,0.63879687,1.2391728,-0.4245299
vit_b_16,1,338,NaN,elephant,bird,90,0338_ps_dnn_90_bird_10_n01819313_5521.png,n01819313_5521.png,0.0,0.77045745,0.9448714,-0.12332931
vit_b_16,1,339,NaN,elephant,dog,90,0339_ps_dnn_90_dog_10_n02100583_24297.png,n02100583_24297.png,0.0,1.0799155,2.4425902,-0.9635565
vit_b_16,1,340,NaN,bear,bird,60,0340_ps_dnn_60_bird_10_n02018207_12233.png,n02018207_12233.png,0.0,0.6224496,2.4754586,-1.3102752
vit_b_16,1,341,NaN,knife,bird,180,0341_ps_dnn_180_bird_10_n02013706_3032.png,n02013706_3032.png,0.0,0.39270347,3.003574,-1.8461642
vit_b_16,1,342,NaN,oven,oven,60,0342_ps_dnn_60_oven_10_n04111531_9939.png,n04111531_9939.png,1.0,6.3783135,1.9508108,3.1307173
vit_b_16,1,343,NaN,clock,bird,180,0343_ps_dnn_180_bird_10_n02011460_7629.png,n02011460_7629.png,0.0,-0.8581344,1.7136189,-1.8185042
vit_b_16,1,344,NaN,knife,oven,60,0344_ps_dnn_60_oven_10_n04111531_13542.png,n04111531_13542.png,0.0,1.9751681,3.191822,-0.8603043
vit_b_16,1,345,NaN,bear,bear,90,0345_ps_dnn_90_bear_10_n02134418_270.png,n02134418_270.png,1.0,4.4116945,1.8022299,1.8451701
vit_b_16,1,346,NaN,bicycle,bicycle,90,0346_ps_dnn_90_bicycle_10_n03792782_12561.png,n03792782_12561.png,1.0,1.1617281,0.9955062,0.11753665
vit_b_16,1,347,NaN,clock,elephant,120,0347_ps_dnn_120_elephant_10_n02504458_9213.png,n02504458_9213.png,0.0,0.015285637,2.4641917,-1.7316381
vit_b_16,1,348,NaN,chair,chair,90,0348_ps_dnn_90_chair_10_n03376595_4155.png,n03376595_4155.png,1.0,2.9831955,0.7047214,1.6111245
vit_b_16,1,349,NaN,cat,truck,120,0349_ps_dnn_120_truck_10_n04467665_69970.png,n04467665_69970.png,0.0,-0.102246076,0.71531105,-0.5781002
vit_b_16,1,350,NaN,elephant,bird,120,0350_ps_dnn_120_bird_10_n02002556_2350.png,n02002556_2350.png,0.0,0.4863291,1.3834202,-0.6343393
vit_b_16,1,351,NaN,bear,bear,0,0351_ps_dnn_0_bear_10_n02133161_355.png,n02133161_355.png,1.0,5.989288,0.3765765,3.9687865
vit_b_16,1,352,NaN,airplane,airplane,90,0352_ps_dnn_90_airplane_10_n02690373_3065.png,n02690373_3065.png,1.0,7.0568676,0.26850653,4.800096
vit_b_16,1,353,NaN,truck,truck,60,0353_ps_dnn_60_truck_10_n03417042_13289.png,n03417042_13289.png,1.0,3.7408218,2.431913,0.9255384
vit_b_16,1,354,NaN,oven,oven,0,0354_ps_dnn_0_oven_10_n04111531_21404.png,n04111531_21404.png,1.0,7.5863414,3.374059,2.9785333
vit_b_16,1,355,NaN,bear,bear,90,0355_ps_dnn_90_bear_10_n02132136_8358.png,n02132136_8358.png,1.0,2.406601,2.0152035,0.2767598
vit_b_16,1,356,NaN,oven,oven,90,0356_ps_dnn_90_oven_10_n04111531_274.png,n04111531_274.png,1.0,4.8003144,1.1752731,2.5632915
vit_b_16,1,357,NaN,chair,chair,120,0357_ps_dnn_120_chair_10_n02791124_2773.png,n02791124_2773.png,1.0,1.0982344,0.9244346,0.122895025
vit_b_16,1,358,NaN,elephant,knife,120,0358_ps_dnn_120_knife_10_n03041632_102828.png,n03041632_102828.png,0.0,1.3783144,3.4108996,-1.4372548
vit_b_16,1,359,NaN,knife,boat,150,0359_ps_dnn_150_boat_10_n02951358_30995.png,n02951358_30995.png,0.0,0.10840285,1.9022492,-1.268441
vit_b_16,1,360,NaN,knife,bicycle,150,0360_ps_dnn_150_bicycle_10_n03792782_4544.png,n03792782_4544.png,0.0,-0.4687887,1.4191283,-1.3349589
vit_b_16,1,361,NaN,dog,airplane,120,0361_ps_dnn_120_airplane_10_n02690373_8446.png,n02690373_8446.png,0.0,-0.05434765,1.1034034,-0.81865364
vit_b_16,1,362,NaN,bottle,bottle,30,0362_ps_dnn_30_bottle_10_n04557648_900.png,n04557648_900.png,1.0,3.1102998,0.6764232,1.7210106
vit_b_16,1,363,NaN,knife,airplane,150,0363_ps_dnn_150_airplane_10_n02690373_3407.png,n02690373_3407.png,0.0,0.8592936,1.779159,-0.6504431
vit_b_16,1,364,NaN,bottle,bottle,120,0364_ps_dnn_120_bottle_10_n03983396_8143.png,n03983396_8143.png,1.0,2.2027805,1.1580011,0.7387706
vit_b_16,1,365,NaN,car,car,0,0365_ps_dnn_0_car_10_n03100240_9610.png,n03100240_9610.png,1.0,6.735527,2.5799654,2.9384258
vit_b_16,1,366,NaN,elephant,cat,120,0366_ps_dnn_120_cat_10_n02123159_1108.png,n02123159_1108.png,0.0,0.008949637,1.6941388,-1.1916087
vit_b_16,1,367,NaN,clock,clock,0,0367_ps_dnn_0_clock_10_n04548280_2170.png,n04548280_2170.png,1.0,6.1680336,0.23351797,4.1963363
vit_b_16,1,368,NaN,keyboard,keyboard,120,0368_ps_dnn_120_keyboard_10_n04505470_4385.png,n04505470_4385.png,1.0,5.243005,1.6216825,2.5606616
vit_b_16,1,369,NaN,airplane,airplane,120,0369_ps_dnn_120_airplane_10_n02690373_18383.png,n02690373_18383.png,1.0,7.2761707,0.7081814,4.64427
vit_b_16,1,370,NaN,truck,truck,90,0370_ps_dnn_90_truck_10_n03417042_10243.png,n03417042_10243.png,1.0,3.652182,1.1563476,1.7648214
vit_b_16,1,371,NaN,cat,cat,30,0371_ps_dnn_30_cat_10_n02123045_11826.png,n02123045_11826.png,1.0,3.9202976,0.76138943,2.2336855
vit_b_16,1,372,NaN,bird,bird,0,0372_ps_dnn_0_bird_10_n01817953_2257.png,n01817953_2257.png,1.0,0.21124192,0.19658317,0.010365301
vit_b_16,1,373,NaN,boat,boat,0,0373_ps_dnn_0_boat_10_n04612504_18442.png,n04612504_18442.png,1.0,2.4611523,0.41424972,1.4473788
vit_b_16,1,374,NaN,knife,airplane,180,0374_ps_dnn_180_airplane_10_n02690373_2874.png,n02690373_2874.png,0.0,1.4821652,1.8953041,-0.2921333
vit_b_16,1,375,NaN,bicycle,bicycle,0,0375_ps_dnn_0_bicycle_10_n02835271_4963.png,n02835271_4963.png,1.0,4.977882,0.7988317,2.955035
vit_b_16,1,376,NaN,knife,boat,180,0376_ps_dnn_180_boat_10_n04273569_568.png,n04273569_568.png,0.0,-0.61216587,1.503904,-1.4962873
vit_b_16,1,377,NaN,elephant,elephant,90,0377_ps_dnn_90_elephant_10_n02504013_2233.png,n02504013_2233.png,1.0,6.4492393,0.58141345,4.1491795
vit_b_16,1,378,NaN,oven,bottle,60,0378_ps_dnn_60_bottle_10_n02823428_889.png,n02823428_889.png,0.0,0.13315263,1.8974978,-1.2475804
vit_b_16,1,379,NaN,car,car,90,0379_ps_dnn_90_car_10_n04285008_3096.png,n04285008_3096.png,1.0,5.748154,0.811901,3.490458
vit_b_16,1,380,NaN,airplane,airplane,120,0380_ps_dnn_120_airplane_10_n02690373_13206.png,n02690373_13206.png,1.0,2.520206,0.75627553,1.2472872
vit_b_16,1,381,NaN,clock,keyboard,90,0381_ps_dnn_90_keyboard_10_n03085013_25443.png,n03085013_25443.png,0.0,-0.024681479,3.1288013,-2.229849
vit_b_16,1,382,NaN,truck,truck,30,0382_ps_dnn_30_truck_10_n04467665_20622.png,n04467665_20622.png,1.0,1.7772331,0.41781723,0.9612522
vit_b_16,1,383,NaN,bicycle,bicycle,60,0383_ps_dnn_60_bicycle_10_n02835271_24639.png,n02835271_24639.png,1.0,6.239285,1.1395038,3.6060898
vit_b_16,1,384,NaN,knife,knife,30,0384_ps_dnn_30_knife_10_n03041632_25603.png,n03041632_25603.png,1.0,2.7915354,0.7151447,1.46823
vit_b_16,1,385,NaN,boat,boat,60,0385_ps_dnn_60_boat_10_n04273569_4978.png,n04273569_4978.png,1.0,3.7562664,0.068212576,2.607848
vit_b_16,1,386,NaN,car,car,60,0386_ps_dnn_60_car_10_n02814533_46401.png,n02814533_46401.png,1.0,2.7509334,1.1269102,1.1483579
vit_b_16,1,387,NaN,elephant,bird,120,0387_ps_dnn_120_bird_10_n01798484_12863.png,n01798484_12863.png,0.0,-0.33160463,1.7604423,-1.4793006
vit_b_16,1,388,NaN,boat,boat,120,0388_ps_dnn_120_boat_10_n03662601_7885.png,n03662601_7885.png,1.0,3.1812353,2.4647155,0.50665605
vit_b_16,1,389,NaN,chair,chair,0,0389_ps_dnn_0_chair_10_n03376595_3062.png,n03376595_3062.png,1.0,3.0458148,1.6950102,0.95516306
vit_b_16,1,390,NaN,airplane,airplane,90,0390_ps_dnn_90_airplane_10_n02690373_19118.png,n02690373_19118.png,1.0,8.6051655,0.636632,5.634604
vit_b_16,1,391,NaN,clock,cat,180,0391_ps_dnn_180_cat_10_n02123597_3944.png,n02123597_3944.png,0.0,0.9220576,0.9912638,-0.04893616
vit_b_16,1,392,NaN,knife,keyboard,150,0392_ps_dnn_150_keyboard_10_n04505470_2113.png,n04505470_2113.png,0.0,-0.06421773,1.2752264,-0.94712996
vit_b_16,1,393,NaN,elephant,bird,30,0393_ps_dnn_30_bird_10_n02056570_4808.png,n02056570_4808.png,0.0,0.1292101,0.9337822,-0.5689184
vit_b_16,1,394,NaN,clock,bear,180,0394_ps_dnn_180_bear_10_n02133161_2316.png,n02133161_2316.png,0.0,0.73177004,1.0475076,-0.22326021
vit_b_16,1,395,NaN,boat,dog,0,0395_ps_dnn_0_dog_10_n02106662_15515.png,n02106662_15515.png,0.0,-0.33691645,0.28603977,-0.44049656
vit_b_16,1,396,NaN,airplane,airplane,0,0396_ps_dnn_0_airplane_10_n02690373_3899.png,n02690373_3899.png,1.0,8.986485,1.695559,5.1554627
vit_b_16,1,397,NaN,boat,boat,0,0397_ps_dnn_0_boat_10_n04273569_2449.png,n04273569_2449.png,1.0,3.0586348,0.8193581,1.5834078
vit_b_16,1,398,NaN,elephant,bird,120,0398_ps_dnn_120_bird_10_n02007558_7614.png,n02007558_7614.png,0.0,0.34066924,2.2875752,-1.3766705
vit_b_16,1,399,NaN,keyboard,keyboard,90,0399_ps_dnn_90_keyboard_10_n03085013_4914.png,n03085013_4914.png,1.0,6.4891024,6.3930516,0.06791813
vit_b_16,1,400,NaN,knife,oven,150,0400_ps_dnn_150_oven_10_n04111531_15296.png,n04111531_15296.png,0.0,-1.7728618,1.4679447,-2.2915964
vit_b_16,1,401,NaN,chair,chair,60,0401_ps_dnn_60_chair_10_n04099969_246.png,n04099969_246.png,1.0,3.815509,0.8489286,2.0976892
vit_b_16,1,402,NaN,clock,truck,180,0402_ps_dnn_180_truck_10_n04467665_670.png,n04467665_670.png,0.0,-0.5420905,1.4211451,-1.3882172
vit_b_16,1,403,NaN,keyboard,keyboard,90,0403_ps_dnn_90_keyboard_10_n03085013_24192.png,n03085013_24192.png,1.0,7.5089912,0.4381541,4.999837
vit_b_16,1,404,NaN,clock,bicycle,150,0404_ps_dnn_150_bicycle_10_n03792782_378.png,n03792782_378.png,0.0,-0.24169783,1.2047582,-1.0227988
vit_b_16,1,405,NaN,clock,bird,180,0405_ps_dnn_180_bird_10_n02018207_14738.png,n02018207_14738.png,0.0,-0.2694407,1.6041864,-1.3248545
vit_b_16,1,406,NaN,cat,bird,0,0406_ps_dnn_0_bird_10_n01530575_5222.png,n01530575_5222.png,0.0,0.6779083,1.1457916,-0.3308435
vit_b_16,1,407,NaN,bear,bear,30,0407_ps_dnn_30_bear_10_n02134084_10766.png,n02134084_10766.png,1.0,3.6558821,1.4010873,1.5943807
vit_b_16,1,408,NaN,bird,bird,30,0408_ps_dnn_30_bird_10_n02007558_4009.png,n02007558_4009.png,1.0,0.5346079,0.4433598,0.06452215
vit_b_16,1,409,NaN,elephant,chair,120,0409_ps_dnn_120_chair_10_n04099969_7545.png,n04099969_7545.png,0.0,-0.12890461,1.7999787,-1.3639265
vit_b_16,1,410,NaN,clock,clock,90,0410_ps_dnn_90_clock_10_n03196217_127.png,n03196217_127.png,1.0,2.3000848,1.2972878,0.7090846
vit_b_16,1,411,NaN,knife,bottle,150,0411_ps_dnn_150_bottle_10_n04560804_26326.png,n04560804_26326.png,0.0,0.87849236,1.1507764,-0.1925339
vit_b_16,1,412,NaN,keyboard,keyboard,30,0412_ps_dnn_30_keyboard_10_n03085013_25066.png,n03085013_25066.png,1.0,6.874386,1.6561408,3.6898565
vit_b_16,1,413,NaN,cat,cat,30,0413_ps_dnn_30_cat_10_n02124075_11776.png,n02124075_11776.png,1.0,3.8164587,0.3973691,2.4176614
vit_b_16,1,414,NaN,knife,keyboard,120,0414_ps_dnn_120_keyboard_10_n04505470_2909.png,n04505470_2909.png,0.0,1.5009868,3.5417867,-1.4430635
vit_b_16,1,415,NaN,keyboard,keyboard,30,0415_ps_dnn_30_keyboard_10_n04505470_494.png,n04505470_494.png,1.0,7.897309,0.7362807,5.0636115
vit_b_16,1,416,NaN,bear,bear,120,0416_ps_dnn_120_bear_10_n02133161_2270.png,n02133161_2270.png,1.0,1.7046802,1.463616,0.17045812
vit_b_16,1,417,NaN,knife,chair,120,0417_ps_dnn_120_chair_10_n04099969_13901.png,n04099969_13901.png,0.0,0.14460579,1.8334383,-1.1941849
vit_b_16,1,418,NaN,car,car,120,0418_ps_dnn_120_car_10_n02814533_2923.png,n02814533_2923.png,1.0,5.8759327,2.759678,2.2035248
vit_b_16,1,419,NaN,bottle,bottle,90,0419_ps_dnn_90_bottle_10_n03983396_12757.png,n03983396_12757.png,1.0,3.8004375,0.3999502,2.4045076
vit_b_16,1,420,NaN,knife,knife,30,0420_ps_dnn_30_knife_10_n03041632_15444.png,n03041632_15444.png,1.0,4.9580417,1.0577891,2.757895
vit_b_16,1,421,NaN,clock,bicycle,180,0421_ps_dnn_180_bicycle_10_n02835271_5554.png,n02835271_5554.png,0.0,-0.5342008,1.31206,-1.3055035
vit_b_16,1,422,NaN,clock,knife,150,0422_ps_dnn_150_knife_10_n03041632_37618.png,n03041632_37618.png,0.0,1.206659,1.4730738,-0.18838377
vit_b_16,1,423,NaN,chair,chair,60,0423_ps_dnn_60_chair_10_n03376595_3910.png,n03376595_3910.png,1.0,5.067958,0.65733796,3.1187792
vit_b_16,1,424,NaN,knife,dog,30,0424_ps_dnn_30_dog_10_n02086646_7362.png,n02086646_7362.png,0.0,0.07742039,0.3989109,-0.22732814
vit_b_16,1,425,NaN,dog,dog,60,0425_ps_dnn_60_dog_10_n02113712_5829.png,n02113712_5829.png,1.0,1.5231366,0.71265894,0.57309425
vit_b_16,1,426,NaN,airplane,truck,180,0426_ps_dnn_180_truck_10_n03417042_1149.png,n03417042_1149.png,0.0,-0.98038465,1.4729346,-1.7347587
vit_b_16,1,427,NaN,elephant,bird,60,0427_ps_dnn_60_bird_10_n02002724_3345.png,n02002724_3345.png,0.0,0.40340313,1.2123156,-0.57198745
vit_b_16,1,428,NaN,clock,bird,150,0428_ps_dnn_150_bird_10_n02002556_2917.png,n02002556_2917.png,0.0,0.041477166,1.2179787,-0.8319122
vit_b_16,1,429,NaN,clock,bottle,180,0429_ps_dnn_180_bottle_10_n04560804_3959.png,n04560804_3959.png,0.0,-0.15349793,1.1005417,-0.88673997
vit_b_16,1,430,NaN,airplane,airplane,30,0430_ps_dnn_30_airplane_10_n02690373_3639.png,n02690373_3639.png,1.0,8.78901,0.21975696,6.059377
vit_b_16,1,431,NaN,clock,bottle,120,0431_ps_dnn_120_bottle_10_n02823428_14453.png,n02823428_14453.png,0.0,0.38052374,1.4618019,-0.76457906
vit_b_16,1,432,NaN,airplane,bottle,0,0432_ps_dnn_0_bottle_10_n03937543_3253.png,n03937543_3253.png,0.0,0.745189,0.8635791,-0.08371443
vit_b_16,1,433,NaN,elephant,elephant,30,0433_ps_dnn_30_elephant_10_n02504013_7010.png,n02504013_7010.png,1.0,4.772506,2.422575,1.6616523
vit_b_16,1,434,NaN,clock,car,150,0434_ps_dnn_150_car_10_n04285008_8813.png,n04285008_8813.png,0.0,-0.13953744,1.3976654,-1.0869665
vit_b_16,1,435,NaN,knife,bear,180,0435_ps_dnn_180_bear_10_n02132136_110.png,n02132136_110.png,0.0,0.31075683,1.07617,-0.54122883
vit_b_16,1,436,NaN,bear,bear,60,0436_ps_dnn_60_bear_10_n02133161_4294.png,n02133161_4294.png,1.0,2.7651184,1.7545798,0.7145587
vit_b_16,1,437,NaN,car,car,0,0437_ps_dnn_0_car_10_n02814533_95144.png,n02814533_95144.png,1.0,2.134865,0.66338295,1.0404949
vit_b_16,1,438,NaN,knife,oven,120,0438_ps_dnn_120_oven_10_n04111531_1220.png,n04111531_1220.png,0.0,0.58241653,1.3523318,-0.54441226
vit_b_16,1,439,NaN,cat,dog,60,0439_ps_dnn_60_dog_10_n02086240_7247.png,n02086240_7247.png,0.0,-0.07446197,0.6726578,-0.5282935
vit_b_16,1,440,NaN,airplane,airplane,0,0440_ps_dnn_0_airplane_10_n02690373_4144.png,n02690373_4144.png,1.0,8.901798,0.27610844,6.0992837
vit_b_16,1,441,NaN,clock,oven,120,0441_ps_dnn_120_oven_10_n04111531_986.png,n04111531_986.png,0.0,0.66801506,1.5090556,-0.59470546
vit_b_16,1,442,NaN,elephant,elephant,30,0442_ps_dnn_30_elephant_10_n02504458_6336.png,n02504458_6336.png,1.0,6.2339954,0.32791317,4.176231
vit_b_16,1,443,NaN,knife,knife,150,0443_ps_dnn_150_knife_10_n03041632_14132.png,n03041632_14132.png,1.0,1.0200483,0.9611071,0.041677713
vit_b_16,1,444,NaN,bear,cat,150,0444_ps_dnn_150_cat_10_n02123159_799.png,n02123159_799.png,0.0,1.1516602,1.484153,-0.23510794
vit_b_16,1,445,NaN,bicycle,bird,90,0445_ps_dnn_90_bird_10_n02006656_7456.png,n02006656_7456.png,0.0,0.16223033,0.39336008,-0.16343342
vit_b_16,1,446,NaN,oven,cat,90,0446_ps_dnn_90_cat_10_n02123045_8722.png,n02123045_8722.png,0.0,1.8017255,2.067759,-0.18811412
vit_b_16,1,447,NaN,chair,chair,120,0447_ps_dnn_120_chair_10_n03376595_8302.png,n03376595_8302.png,1.0,1.0955392,0.7904334,0.2157424
vit_b_16,1,448,NaN,bottle,bottle,30,0448_ps_dnn_30_bottle_10_n04560804_5769.png,n04560804_5769.png,1.0,5.435659,0.122336306,3.7570865
vit_b_16,1,449,NaN,car,car,90,0449_ps_dnn_90_car_10_n04285008_203.png,n04285008_203.png,1.0,5.027937,1.620066,2.4097285
vit_b_16,1,450,NaN,knife,airplane,180,0450_ps_dnn_180_airplane_10_n02690373_9959.png,n02690373_9959.png,0.0,-0.31617385,0.9954194,-0.92743653
vit_b_16,1,451,NaN,car,car,0,0451_ps_dnn_0_car_10_n04285008_1867.png,n04285008_1867.png,1.0,7.1825376,0.3514075,4.8303385
vit_b_16,1,452,NaN,knife,airplane,150,0452_ps_dnn_150_airplane_10_n02690373_16250.png,n02690373_16250.png,0.0,0.43338835,1.4570137,-0.72381246
vit_b_16,1,453,NaN,elephant,elephant,30,0453_ps_dnn_30_elephant_10_n02504458_4696.png,n02504458_4696.png,1.0,7.4902143,0.4073523,5.00834
vit_b_16,1,454,NaN,car,car,60,0454_ps_dnn_60_car_10_n04285008_10755.png,n04285008_10755.png,1.0,5.480511,1.3247015,2.938601
vit_b_16,1,455,NaN,clock,boat,150,0455_ps_dnn_150_boat_10_n02951358_11586.png,n02951358_11586.png,0.0,-0.23223619,0.9228485,-0.8167683
vit_b_16,1,456,NaN,bottle,bottle,60,0456_ps_dnn_60_bottle_10_n02823428_4108.png,n02823428_4108.png,1.0,2.5807707,1.1983635,0.9775095
vit_b_16,1,457,NaN,bear,car,180,0457_ps_dnn_180_car_10_n04285008_11770.png,n04285008_11770.png,0.0,-0.43184423,1.0626193,-1.0567453
vit_b_16,1,458,NaN,boat,boat,90,0458_ps_dnn_90_boat_10_n04273569_32786.png,n04273569_32786.png,1.0,2.8857653,1.1591272,1.2209175
vit_b_16,1,459,NaN,bear,bear,30,0459_ps_dnn_30_bear_10_n02132136_21267.png,n02132136_21267.png,1.0,5.312146,0.6629518,3.2874768
vit_b_16,1,460,NaN,car,car,90,0460_ps_dnn_90_car_10_n03100240_24001.png,n03100240_24001.png,1.0,5.5291004,2.122765,2.4086428
vit_b_16,1,461,NaN,elephant,bottle,150,0461_ps_dnn_150_bottle_10_n03937543_71.png,n03937543_71.png,0.0,-0.6145548,1.334516,-1.3782012
vit_b_16,1,462,NaN,chair,chair,0,0462_ps_dnn_0_chair_10_n02791124_16127.png,n02791124_16127.png,1.0,2.0077026,1.015608,0.70151687
vit_b_16,1,463,NaN,bird,bird,90,0463_ps_dnn_90_bird_10_n02002724_12183.png,n02002724_12183.png,1.0,1.3378516,0.57497483,0.5394354
vit_b_16,1,464,NaN,elephant,dog,30,0464_ps_dnn_30_dog_10_n02108915_1165.png,n02108915_1165.png,0.0,0.06446965,0.5765116,-0.36206836
vit_b_16,1,465,NaN,knife,dog,180,0465_ps_dnn_180_dog_10_n02099429_4843.png,n02099429_4843.png,0.0,-0.5492712,1.8328011,-1.6843796
vit_b_16,1,466,NaN,boat,boat,60,0466_ps_dnn_60_boat_10_n03344393_3499.png,n03344393_3499.png,1.0,3.2866921,0.14275545,2.223099
vit_b_16,1,467,NaN,truck,truck,120,0467_ps_dnn_120_truck_10_n03417042_20962.png,n03417042_20962.png,1.0,3.1555042,2.4710553,0.4839785
vit_b_16,1,468,NaN,cat,dog,30,0468_ps_dnn_30_dog_10_n02097047_4189.png,n02097047_4189.png,0.0,0.39270955,0.5016674,-0.07704482
vit_b_16,1,469,NaN,bicycle,bicycle,60,0469_ps_dnn_60_bicycle_10_n03792782_24591.png,n03792782_24591.png,1.0,7.7241483,0.5109965,5.1004686
vit_b_16,1,470,NaN,airplane,airplane,60,0470_ps_dnn_60_airplane_10_n02690373_243.png,n02690373_243.png,1.0,8.329925,0.12130636,5.8043694
vit_b_16,1,471,NaN,airplane,boat,90,0471_ps_dnn_90_boat_10_n03344393_3072.png,n03344393_3072.png,0.0,1.6979,2.7068334,-0.7134236
vit_b_16,1,472,NaN,clock,clock,120,0472_ps_dnn_120_clock_10_n02708093_118.png,n02708093_118.png,1.0,1.8624616,0.52955896,0.9425045
vit_b_16,1,473,NaN,bird,bird,30,0473_ps_dnn_30_bird_10_n01843065_2664.png,n01843065_2664.png,1.0,0.3711035,0.31480968,0.03980574
vit_b_16,1,474,NaN,knife,airplane,150,0474_ps_dnn_150_airplane_10_n02690373_19353.png,n02690373_19353.png,0.0,0.53051984,3.2030277,-1.8897483
vit_b_16,1,475,NaN,elephant,dog,120,0475_ps_dnn_120_dog_10_n02099849_4250.png,n02099849_4250.png,0.0,1.1311666,4.064684,-2.07431
vit_b_16,1,476,NaN,truck,truck,90,0476_ps_dnn_90_truck_10_n04467665_29260.png,n04467665_29260.png,1.0,2.8247614,0.7514038,1.4660852
vit_b_16,1,477,NaN,elephant,elephant,30,0477_ps_dnn_30_elephant_10_n02504013_8308.png,n02504013_8308.png,1.0,6.9234877,0.39608568,4.61557
vit_b_16,1,478,NaN,knife,boat,150,0478_ps_dnn_150_boat_10_n03344393_6854.png,n03344393_6854.png,0.0,-0.16362128,1.6467474,-1.280124
vit_b_16,1,479,NaN,knife,truck,180,0479_ps_dnn_180_truck_10_n04467665_25129.png,n04467665_25129.png,0.0,-0.96055686,1.9506338,-2.0585227
vit_b_16,1,480,NaN,bird,bird,30,0480_ps_dnn_30_bird_10_n01824575_6272.png,n01824575_6272.png,1.0,1.2374821,0.5890338,0.4585222
vit_b_16,1,481,NaN,cat,chair,180,0481_ps_dnn_180_chair_10_n04099969_19484.png,n04099969_19484.png,0.0,-0.6474167,1.4563721,-1.4876034
vit_b_16,1,482,NaN,knife,oven,120,0482_ps_dnn_120_oven_10_n04111531_5888.png,n04111531_5888.png,0.0,0.39327723,2.290989,-1.3418849
vit_b_16,1,483,NaN,chair,chair,60,0483_ps_dnn_60_chair_10_n04099969_16266.png,n04099969_16266.png,1.0,3.4368641,1.5466384,1.3365915
vit_b_16,1,484,NaN,clock,truck,150,0484_ps_dnn_150_truck_10_n04467665_68754.png,n04467665_68754.png,0.0,-0.2943502,1.2562338,-1.0964285
vit_b_16,1,485,NaN,knife,cat,180,0485_ps_dnn_180_cat_10_n02123394_7859.png,n02123394_7859.png,0.0,-0.07261049,1.7701102,-1.3030003
vit_b_16,1,486,NaN,car,car,90,0486_ps_dnn_90_car_10_n04285008_17056.png,n04285008_17056.png,1.0,4.761868,2.3295105,1.7199365
vit_b_16,1,487,NaN,elephant,cat,120,0487_ps_dnn_120_cat_10_n02123045_12046.png,n02123045_12046.png,0.0,1.1808919,1.916187,-0.5199322
vit_b_16,1,488,NaN,knife,elephant,180,0488_ps_dnn_180_elephant_10_n02504013_3029.png,n02504013_3029.png,0.0,0.33742315,1.3936167,-0.74684167
vit_b_16,1,489,NaN,airplane,boat,120,0489_ps_dnn_120_boat_10_n03662601_7271.png,n03662601_7271.png,0.0,1.6818235,2.46845,-0.556229
vit_b_16,1,490,NaN,bear,bear,30,0490_ps_dnn_30_bear_10_n02133161_6861.png,n02133161_6861.png,1.0,5.0040517,0.86798614,2.92464
vit_b_16,1,491,NaN,chair,chair,30,0491_ps_dnn_30_chair_10_n02791124_4192.png,n02791124_4192.png,1.0,2.0961523,1.3359762,0.53752565
vit_b_16,1,492,NaN,boat,boat,60,0492_ps_dnn_60_boat_10_n04273569_1457.png,n04273569_1457.png,1.0,4.5742884,0.80390996,2.6660602
vit_b_16,1,493,NaN,clock,clock,90,0493_ps_dnn_90_clock_10_n04548280_764.png,n04548280_764.png,1.0,5.678819,1.2779104,3.1119127
vit_b_16,1,494,NaN,bicycle,bicycle,120,0494_ps_dnn_120_bicycle_10_n02835271_12346.png,n02835271_12346.png,1.0,5.565917,1.5865337,2.813849
vit_b_16,1,495,NaN,clock,bicycle,180,0495_ps_dnn_180_bicycle_10_n03792782_50673.png,n03792782_50673.png,0.0,-0.8675196,1.5368366,-1.7001367
vit_b_16,1,496,NaN,knife,truck,120,0496_ps_dnn_120_truck_10_n03796401_9198.png,n03796401_9198.png,0.0,-0.71006525,4.258564,-3.5133517
vit_b_16,1,497,NaN,airplane,airplane,0,0497_ps_dnn_0_airplane_10_n02690373_4110.png,n02690373_4110.png,1.0,9.0855665,0.3230312,6.1960483
vit_b_16,1,498,NaN,dog,dog,60,0498_ps_dnn_60_dog_10_n02107683_2484.png,n02107683_2484.png,1.0,1.1187671,0.7953886,0.22866318
vit_b_16,1,499,NaN,chair,chair,60,0499_ps_dnn_60_chair_10_n02791124_13057.png,n02791124_13057.png,1.0,2.6795096,0.8856621,1.2684418
vit_b_16,1,500,NaN,clock,bear,120,0500_ps_dnn_120_bear_10_n02134418_14451.png,n02134418_14451.png,0.0,0.9072021,1.3025314,-0.27954
vit_b_16,1,501,NaN,bird,bird,60,0501_ps_dnn_60_bird_10_n01843383_10059.png,n01843383_10059.png,1.0,1.4407538,0.3823422,0.74841005
vit_b_16,1,502,NaN,bicycle,bicycle,0,0502_ps_dnn_0_bicycle_10_n03792782_11824.png,n03792782_11824.png,1.0,6.8505464,0.58548707,4.430066
vit_b_16,1,503,NaN,bird,bird,30,0503_ps_dnn_30_bird_10_n01532829_2492.png,n01532829_2492.png,1.0,0.6186455,0.17853317,0.3112064
vit_b_16,1,504,NaN,bottle,bottle,0,0504_ps_dnn_0_bottle_10_n04579145_5621.png,n04579145_5621.png,1.0,3.7155006,0.5120326,2.265194
vit_b_16,1,505,NaN,cat,truck,150,0505_ps_dnn_150_truck_10_n03417042_6250.png,n03417042_6250.png,0.0,-0.8158745,0.9869685,-1.2748026
vit_b_16,1,506,NaN,bear,dog,90,0506_ps_dnn_90_dog_10_n02108551_14704.png,n02108551_14704.png,0.0,0.46554768,0.75997496,-0.20819153
vit_b_16,1,507,NaN,boat,boat,30,0507_ps_dnn_30_boat_10_n04612504_8407.png,n04612504_8407.png,1.0,2.0348039,0.22536747,1.2794648
vit_b_16,1,508,NaN,knife,car,120,0508_ps_dnn_120_car_10_n03100240_14794.png,n03100240_14794.png,0.0,0.5669349,7.3632884,-4.8057475
vit_b_16,1,509,NaN,chair,dog,60,0509_ps_dnn_60_dog_10_n02097658_759.png,n02097658_759.png,0.0,-0.26506278,1.5952936,-1.3154707
vit_b_16,1,510,NaN,elephant,oven,90,0510_ps_dnn_90_oven_10_n04111531_5965.png,n04111531_5965.png,0.0,1.9079541,2.086975,-0.12658696
vit_b_16,1,511,NaN,clock,elephant,180,0511_ps_dnn_180_elephant_10_n02504013_6984.png,n02504013_6984.png,0.0,0.71731913,1.2769302,-0.3957048
vit_b_16,1,512,NaN,knife,oven,180,0512_ps_dnn_180_oven_10_n04111531_6695.png,n04111531_6695.png,0.0,-0.8241413,1.2906822,-1.4954062
vit_b_16,1,513,NaN,bicycle,bird,60,0513_ps_dnn_60_bird_10_n02037110_4572.png,n02037110_4572.png,0.0,0.28436077,0.9104892,-0.44273967
vit_b_16,1,514,NaN,truck,truck,30,0514_ps_dnn_30_truck_10_n03796401_11628.png,n03796401_11628.png,1.0,2.2902207,1.1554098,0.80243254
vit_b_16,1,515,NaN,cat,chair,180,0515_ps_dnn_180_chair_10_n02791124_1258.png,n02791124_1258.png,0.0,-0.3184856,1.0825223,-0.9906622
vit_b_16,1,516,NaN,knife,knife,0,0516_ps_dnn_0_knife_10_n03041632_62810.png,n03041632_62810.png,1.0,6.747269,0.40635625,4.4837027
vit_b_16,1,517,NaN,elephant,bird,90,0517_ps_dnn_90_bird_10_n01819313_2770.png,n01819313_2770.png,0.0,-0.5142713,3.1936226,-2.621877
vit_b_16,1,518,NaN,bicycle,bicycle,60,0518_ps_dnn_60_bicycle_10_n02835271_25519.png,n02835271_25519.png,1.0,5.732827,1.589089,2.9300654
vit_b_16,1,519,NaN,boat,boat,0,0519_ps_dnn_0_boat_10_n03662601_23248.png,n03662601_23248.png,1.0,4.0132875,0.18194602,2.7091677
vit_b_16,1,520,NaN,elephant,elephant,120,0520_ps_dnn_120_elephant_10_n02504013_1784.png,n02504013_1784.png,1.0,4.502426,1.0356712,2.451366
vit_b_16,1,521,NaN,knife,cat,150,0521_ps_dnn_150_cat_10_n02123394_270.png,n02123394_270.png,0.0,0.8196368,1.6931219,-0.61764723
vit_b_16,1,522,NaN,elephant,dog,30,0522_ps_dnn_30_dog_10_n02093647_1022.png,n02093647_1022.png,0.0,0.19830258,0.37730426,-0.1265733
vit_b_16,1,523,NaN,boat,boat,30,0523_ps_dnn_30_boat_10_n03662601_4881.png,n03662601_4881.png,1.0,3.2942472,1.3046509,1.406857
vit_b_16,1,524,NaN,knife,knife,60,0524_ps_dnn_60_knife_10_n03041632_8321.png,n03041632_8321.png,1.0,2.9832118,1.8084131,0.8307081
vit_b_16,1,525,NaN,bear,car,120,0525_ps_dnn_120_car_10_n02814533_60400.png,n02814533_60400.png,0.0,0.2958225,1.61194,-0.93063563
vit_b_16,1,526,NaN,knife,cat,150,0526_ps_dnn_150_cat_10_n02123597_3280.png,n02123597_3280.png,0.0,0.38143325,0.91094154,-0.3744189
vit_b_16,1,527,NaN,cat,dog,150,0527_ps_dnn_150_dog_10_n02110063_3399.png,n02110063_3399.png,0.0,0.81024355,1.7607888,-0.672137
vit_b_16,1,528,NaN,bear,bear,0,0528_ps_dnn_0_bear_10_n02132136_3109.png,n02132136_3109.png,1.0,5.382313,0.35631198,3.5539193
vit_b_16,1,529,NaN,bear,bear,0,0529_ps_dnn_0_bear_10_n02134084_16632.png,n02134084_16632.png,1.0,3.5335574,0.19489603,2.3607903
vit_b_16,1,530,NaN,clock,bottle,150,0530_ps_dnn_150_bottle_10_n04591713_5851.png,n04591713_5851.png,0.0,0.2608009,1.293867,-0.730488
vit_b_16,1,531,NaN,knife,knife,0,0531_ps_dnn_0_knife_10_n03041632_29961.png,n03041632_29961.png,1.0,9.012972,0.30879092,6.154785
vit_b_16,1,532,NaN,knife,knife,30,0532_ps_dnn_30_knife_10_n03041632_10140.png,n03041632_10140.png,1.0,7.578078,0.7077331,4.8580675
vit_b_16,1,533,NaN,clock,airplane,180,0533_ps_dnn_180_airplane_10_n02690373_8765.png,n02690373_8765.png,0.0,0.95523,2.0110486,-0.7465765
vit_b_16,1,534,NaN,knife,knife,120,0534_ps_dnn_120_knife_10_n03041632_16826.png,n03041632_16826.png,1.0,3.048231,1.077002,1.3938693
vit_b_16,1,535,NaN,chair,chair,30,0535_ps_dnn_30_chair_10_n04429376_21089.png,n04429376_21089.png,1.0,2.6407695,1.6528057,0.69859594
vit_b_16,1,536,NaN,bear,bear,60,0536_ps_dnn_60_bear_10_n02134084_15118.png,n02134084_15118.png,1.0,3.011357,0.21444923,1.9777126
vit_b_16,1,537,NaN,knife,car,120,0537_ps_dnn_120_car_10_n04285008_3884.png,n04285008_3884.png,0.0,2.536176,2.6655457,-0.09147822
vit_b_16,1,538,NaN,knife,boat,150,0538_ps_dnn_150_boat_10_n04273569_1576.png,n04273569_1576.png,0.0,-0.5585963,1.5481691,-1.4897082
vit_b_16,1,539,NaN,clock,bicycle,120,0539_ps_dnn_120_bicycle_10_n03792782_4600.png,n03792782_4600.png,0.0,2.603488,3.1391737,-0.37878704
vit_b_16,1,540,NaN,clock,clock,30,0540_ps_dnn_30_clock_10_n03196217_4537.png,n03196217_4537.png,1.0,5.108395,0.19432102,3.474775
vit_b_16,1,541,NaN,airplane,airplane,60,0541_ps_dnn_60_airplane_10_n02690373_10203.png,n02690373_10203.png,1.0,4.0407495,0.587077,2.4421153
vit_b_16,1,542,NaN,truck,truck,30,0542_ps_dnn_30_truck_10_n04467665_48875.png,n04467665_48875.png,1.0,2.131664,0.8553674,0.902478
vit_b_16,1,543,NaN,car,car,60,0543_ps_dnn_60_car_10_n02814533_38071.png,n02814533_38071.png,1.0,3.5351198,0.45492607,2.178026
vit_b_16,1,544,NaN,elephant,bear,90,0544_ps_dnn_90_bear_10_n02133161_160.png,n02133161_160.png,0.0,0.8170418,1.6313387,-0.5757949
vit_b_16,1,545,NaN,car,car,30,0545_ps_dnn_30_car_10_n02814533_40344.png,n02814533_40344.png,1.0,2.8954985,2.8352242,0.042620413
vit_b_16,1,546,NaN,cat,oven,180,0546_ps_dnn_180_oven_10_n04111531_9026.png,n04111531_9026.png,0.0,-1.4252654,1.3332866,-1.950591
vit_b_16,1,547,NaN,cat,cat,0,0547_ps_dnn_0_cat_10_n02123597_13755.png,n02123597_13755.png,1.0,3.0875657,2.088159,0.70668715
vit_b_16,1,548,NaN,clock,car,150,0548_ps_dnn_150_car_10_n02814533_39485.png,n02814533_39485.png,0.0,0.015513261,1.6169709,-1.1324016
vit_b_16,1,549,NaN,knife,bottle,90,0549_ps_dnn_90_bottle_10_n03937543_4512.png,n03937543_4512.png,0.0,1.3889182,2.0453227,-0.46414807
vit_b_16,1,550,NaN,cat,cat,120,0550_ps_dnn_120_cat_10_n02124075_2402.png,n02124075_2402.png,1.0,3.177644,1.0117526,1.5315166
vit_b_16,1,551,NaN,airplane,bird,0,0551_ps_dnn_0_bird_10_n02056570_9835.png,n02056570_9835.png,0.0,-0.15723723,0.5250102,-0.48242182
vit_b_16,1,552,NaN,clock,clock,120,0552_ps_dnn_120_clock_10_n04548280_13247.png,n04548280_13247.png,1.0,5.891172,1.1680037,3.3397844
vit_b_16,1,553,NaN,truck,truck,60,0553_ps_dnn_60_truck_10_n03417042_173.png,n03417042_173.png,1.0,4.8394017,2.9722207,1.3202964
vit_b_16,1,554,NaN,knife,airplane,180,0554_ps_dnn_180_airplane_10_n02690373_1592.png,n02690373_1592.png,0.0,0.19002892,1.364375,-0.83038807
vit_b_16,1,555,NaN,elephant,elephant,0,0555_ps_dnn_0_elephant_10_n02504013_1953.png,n02504013_1953.png,1.0,6.7419105,0.24416447,4.5946
vit_b_16,1,556,NaN,clock,elephant,150,0556_ps_dnn_150_elephant_10_n02504458_4348.png,n02504458_4348.png,0.0,-0.13891503,1.1914811,-0.9407322
vit_b_16,1,557,NaN,airplane,airplane,90,0557_ps_dnn_90_airplane_10_n02690373_1854.png,n02690373_1854.png,1.0,2.8236766,1.482189,0.94857496
vit_b_16,1,558,NaN,airplane,cat,180,0558_ps_dnn_180_cat_10_n02124075_14363.png,n02124075_14363.png,0.0,0.40005735,1.509693,-0.78463095
vit_b_16,1,559,NaN,bottle,bottle,30,0559_ps_dnn_30_bottle_10_n03983396_3377.png,n03983396_3377.png,1.0,3.8125794,0.63511384,2.2468073
vit_b_16,1,560,NaN,clock,clock,90,0560_ps_dnn_90_clock_10_n04548280_6743.png,n04548280_6743.png,1.0,5.185331,1.1428217,2.8584857
vit_b_16,1,561,NaN,clock,clock,30,0561_ps_dnn_30_clock_10_n03196217_8034.png,n03196217_8034.png,1.0,3.859421,0.29486737,2.5205202
vit_b_16,1,562,NaN,knife,dog,150,0562_ps_dnn_150_dog_10_n02088094_13992.png,n02088094_13992.png,0.0,-0.073376216,1.417136,-1.0539513
vit_b_16,1,563,NaN,truck,car,30,0563_ps_dnn_30_car_10_n03100240_6216.png,n03100240_6216.png,0.0,1.1761166,1.838136,-0.4681184
vit_b_16,1,564,NaN,oven,oven,30,0564_ps_dnn_30_oven_10_n04111531_2831.png,n04111531_2831.png,1.0,6.912317,2.0151267,3.4628363
vit_b_16,1,565,NaN,knife,knife,0,0565_ps_dnn_0_knife_10_n03041632_927.png,n03041632_927.png,1.0,9.664828,0.29884228,6.622752
vit_b_16,1,566,NaN,clock,knife,150,0566_ps_dnn_150_knife_10_n03041632_5427.png,n03041632_5427.png,0.0,0.92755497,1.0717987,-0.101995714
vit_b_16,1,567,NaN,clock,cat,180,0567_ps_dnn_180_cat_10_n02123045_8690.png,n02123045_8690.png,0.0,-0.11901883,2.1325247,-1.5920817
vit_b_16,1,568,NaN,clock,clock,90,0568_ps_dnn_90_clock_10_n02708093_6696.png,n02708093_6696.png,1.0,6.4280643,0.4532862,4.2248063
vit_b_16,1,569,NaN,airplane,airplane,60,0569_ps_dnn_60_airplane_10_n02690373_7748.png,n02690373_7748.png,1.0,8.263408,0.35602686,5.591363
vit_b_16,1,570,NaN,airplane,airplane,0,0570_ps_dnn_0_airplane_10_n02690373_20011.png,n02690373_20011.png,1.0,8.876086,0.12398816,6.188668
vit_b_16,1,571,NaN,knife,boat,150,0571_ps_dnn_150_boat_10_n02951358_16728.png,n02951358_16728.png,0.0,0.8709915,2.780933,-1.3505325
vit_b_16,1,572,NaN,airplane,truck,60,0572_ps_dnn_60_truck_10_n04467665_37833.png,n04467665_37833.png,0.0,2.038014,2.361934,-0.22904605
vit_b_16,1,573,NaN,car,oven,0,0573_ps_dnn_0_oven_10_n04111531_22886.png,n04111531_22886.png,0.0,0.9804247,4.691921,-2.6244245
vit_b_16,1,574,NaN,car,car,30,0574_ps_dnn_30_car_10_n04285008_5959.png,n04285008_5959.png,1.0,5.5492873,0.33214033,3.68908
vit_b_16,1,575,NaN,airplane,boat,120,0575_ps_dnn_120_boat_10_n04273569_10840.png,n04273569_10840.png,0.0,1.8731797,2.1694744,-0.20951198
vit_b_16,1,576,NaN,knife,clock,180,0576_ps_dnn_180_clock_10_n02708093_1352.png,n02708093_1352.png,0.0,0.9942748,1.5623093,-0.40166104
vit_b_16,1,577,NaN,chair,oven,120,0577_ps_dnn_120_oven_10_n04111531_1004.png,n04111531_1004.png,0.0,-0.2134881,1.7124251,-1.3618263
vit_b_16,1,578,NaN,airplane,car,180,0578_ps_dnn_180_car_10_n03100240_4619.png,n03100240_4619.png,0.0,0.120791174,1.7591982,-1.1585287
vit_b_16,1,579,NaN,clock,oven,180,0579_ps_dnn_180_oven_10_n04111531_15367.png,n04111531_15367.png,0.0,-1.3265644,1.8392624,-2.2385776
vit_b_16,1,580,NaN,oven,oven,30,0580_ps_dnn_30_oven_10_n04111531_6903.png,n04111531_6903.png,1.0,3.8990605,3.5298626,0.2610623
vit_b_16,1,581,NaN,oven,oven,60,0581_ps_dnn_60_oven_10_n04111531_1662.png,n04111531_1662.png,1.0,9.239206,0.51847136,6.1664906
vit_b_16,1,582,NaN,keyboard,keyboard,0,0582_ps_dnn_0_keyboard_10_n04505470_1342.png,n04505470_1342.png,1.0,6.373427,0.37393808,4.2422795
vit_b_16,1,583,NaN,boat,boat,60,0583_ps_dnn_60_boat_10_n02951358_1911.png,n02951358_1911.png,1.0,2.8109374,2.4277449,0.27095804
vit_b_16,1,584,NaN,bicycle,bicycle,30,0584_ps_dnn_30_bicycle_10_n03792782_42927.png,n03792782_42927.png,1.0,6.163375,1.261188,3.4663696
vit_b_16,1,585,NaN,knife,chair,180,0585_ps_dnn_180_chair_10_n02791124_3994.png,n02791124_3994.png,0.0,0.16850065,1.3920035,-0.8651472
vit_b_16,1,586,NaN,knife,dog,0,0586_ps_dnn_0_dog_10_n02101388_1383.png,n02101388_1383.png,0.0,0.29879183,0.33570087,-0.026098635
vit_b_16,1,587,NaN,bear,bear,30,0587_ps_dnn_30_bear_10_n02132136_9367.png,n02132136_9367.png,1.0,4.9264526,1.1742469,2.6532102
vit_b_16,1,588,NaN,knife,dog,150,0588_ps_dnn_150_dog_10_n02108915_7875.png,n02108915_7875.png,0.0,-0.021520479,2.2124758,-1.5796739
vit_b_16,1,589,NaN,chair,chair,60,0589_ps_dnn_60_chair_10_n02791124_6237.png,n02791124_6237.png,1.0,2.8789868,1.5542898,0.93670225
vit_b_16,1,590,NaN,knife,bird,60,0590_ps_dnn_60_bird_10_n01622779_13896.png,n01622779_13896.png,0.0,-0.06660882,0.42189762,-0.34542623
vit_b_16,1,591,NaN,boat,boat,30,0591_ps_dnn_30_boat_10_n04273569_15583.png,n04273569_15583.png,1.0,3.1932366,3.084176,0.077117436
vit_b_16,1,592,NaN,bottle,bottle,0,0592_ps_dnn_0_bottle_10_n03937543_3079.png,n03937543_3079.png,1.0,0.83494526,0.6051384,0.16249798
vit_b_16,1,593,NaN,clock,dog,150,0593_ps_dnn_150_dog_10_n02110063_5687.png,n02110063_5687.png,0.0,-0.4637248,2.152983,-1.8502918
vit_b_16,1,594,NaN,truck,truck,30,0594_ps_dnn_30_truck_10_n03417042_6685.png,n03417042_6685.png,1.0,3.3568482,1.3053924,1.4505985
vit_b_16,1,595,NaN,clock,clock,0,0595_ps_dnn_0_clock_10_n02708093_340.png,n02708093_340.png,1.0,6.8221526,0.18867423,4.6905775
vit_b_16,1,596,NaN,dog,dog,0,0596_ps_dnn_0_dog_10_n02111129_5463.png,n02111129_5463.png,1.0,0.4550086,0.15048617,0.21532987
vit_b_16,1,597,NaN,bicycle,bicycle,90,0597_ps_dnn_90_bicycle_10_n03792782_17503.png,n03792782_17503.png,1.0,7.257263,1.7416317,3.9001405
vit_b_16,1,598,NaN,bear,bear,60,0598_ps_dnn_60_bear_10_n02134084_9253.png,n02134084_9253.png,1.0,0.90143305,0.8281561,0.05181462
vit_b_16,1,599,NaN,car,car,30,0599_ps_dnn_30_car_10_n04285008_3688.png,n04285008_3688.png,1.0,2.9894464,0.30749914,1.8964231
vit_b_16,1,600,NaN,knife,bird,150,0600_ps_dnn_150_bird_10_n01795545_17324.png,n01795545_17324.png,0.0,-0.7445139,1.6705316,-1.7076951
vit_b_16,1,601,NaN,boat,boat,30,0601_ps_dnn_30_boat_10_n04273569_16064.png,n04273569_16064.png,1.0,2.7834,0.64764327,1.5102081
vit_b_16,1,602,NaN,bear,elephant,180,0602_ps_dnn_180_elephant_10_n02504458_4395.png,n02504458_4395.png,0.0,0.40723914,1.2947196,-0.62754345
vit_b_16,1,603,NaN,oven,oven,30,0603_ps_dnn_30_oven_10_n04111531_21855.png,n04111531_21855.png,1.0,6.739508,1.3954515,3.7788188
vit_b_16,1,604,NaN,oven,oven,30,0604_ps_dnn_30_oven_10_n04111531_11225.png,n04111531_11225.png,1.0,7.0400157,0.77964413,4.426751
vit_b_16,1,605,NaN,knife,oven,150,0605_ps_dnn_150_oven_10_n04111531_13486.png,n04111531_13486.png,0.0,-1.3687768,0.92003286,-1.618433
vit_b_16,1,606,NaN,chair,chair,0,0606_ps_dnn_0_chair_10_n02791124_1693.png,n02791124_1693.png,1.0,2.4820223,0.7167938,1.2482051
vit_b_16,1,607,NaN,clock,chair,150,0607_ps_dnn_150_chair_10_n04099969_26462.png,n04099969_26462.png,0.0,-0.4251319,0.9139491,-0.94687325
vit_b_16,1,608,NaN,chair,chair,120,0608_ps_dnn_120_chair_10_n04429376_16869.png,n04429376_16869.png,1.0,1.0233086,0.6536609,0.26138043
vit_b_16,1,609,NaN,knife,bottle,0,0609_ps_dnn_0_bottle_10_n03983396_23471.png,n03983396_23471.png,0.0,1.38948,1.3915914,-0.00149301
vit_b_16,1,610,NaN,bear,bear,0,0610_ps_dnn_0_bear_10_n02134084_5314.png,n02134084_5314.png,1.0,2.587639,0.2922161,1.6231092
vit_b_16,1,611,NaN,clock,elephant,180,0611_ps_dnn_180_elephant_10_n02504458_4564.png,n02504458_4564.png,0.0,0.17552185,0.9997375,-0.5828085
vit_b_16,1,612,NaN,bear,bear,0,0612_ps_dnn_0_bear_10_n02132136_6967.png,n02132136_6967.png,1.0,3.2187219,0.19412594,2.1387124
vit_b_16,1,613,NaN,cat,cat,0,0613_ps_dnn_0_cat_10_n02123394_6517.png,n02123394_6517.png,1.0,4.398442,1.4785142,2.0647006
vit_b_16,1,614,NaN,clock,keyboard,150,0614_ps_dnn_150_keyboard_10_n04505470_1076.png,n04505470_1076.png,0.0,0.4924874,1.680995,-0.84040177
vit_b_16,1,615,NaN,cat,knife,180,0615_ps_dnn_180_knife_10_n03041632_5916.png,n03041632_5916.png,0.0,0.06829563,1.7050987,-1.1573946
vit_b_16,1,616,NaN,car,car,90,0616_ps_dnn_90_car_10_n03100240_4674.png,n03100240_4674.png,1.0,6.5005035,1.4504682,3.5709145
vit_b_16,1,617,NaN,bottle,bottle,90,0617_ps_dnn_90_bottle_10_n02823428_1602.png,n02823428_1602.png,1.0,4.377029,1.2484399,2.2122467
vit_b_16,1,618,NaN,boat,boat,90,0618_ps_dnn_90_boat_10_n04273569_27343.png,n04273569_27343.png,1.0,3.241096,1.2278928,1.4235497
vit_b_16,1,619,NaN,elephant,bottle,120,0619_ps_dnn_120_bottle_10_n04560804_15162.png,n04560804_15162.png,0.0,0.013160112,1.7879362,-1.2549562
vit_b_16,1,620,NaN,bottle,bottle,120,0620_ps_dnn_120_bottle_10_n03937543_24.png,n03937543_24.png,1.0,2.229506,0.53480685,1.1983333
vit_b_16,1,621,NaN,knife,dog,180,0621_ps_dnn_180_dog_10_n02105162_9615.png,n02105162_9615.png,0.0,0.22471239,1.071761,-0.59895384
vit_b_16,1,622,NaN,knife,bird,150,0622_ps_dnn_150_bird_10_n01582220_1150.png,n01582220_1150.png,0.0,-0.6388778,0.95646405,-1.1280771
vit_b_16,1,623,NaN,cat,clock,180,0623_ps_dnn_180_clock_10_n04548280_4560.png,n04548280_4560.png,0.0,0.47910866,1.6100445,-0.7996924
vit_b_16,1,624,NaN,airplane,bottle,150,0624_ps_dnn_150_bottle_10_n04560804_14605.png,n04560804_14605.png,0.0,-0.3181599,2.0377524,-1.6658815
vit_b_16,1,625,NaN,chair,chair,0,0625_ps_dnn_0_chair_10_n03376595_262.png,n03376595_262.png,1.0,3.443863,0.26609856,2.2470188
vit_b_16,1,626,NaN,knife,dog,180,0626_ps_dnn_180_dog_10_n02091032_6523.png,n02091032_6523.png,0.0,0.5306143,1.6476401,-0.78985655
vit_b_16,1,627,NaN,knife,cat,150,0627_ps_dnn_150_cat_10_n02123159_615.png,n02123159_615.png,0.0,0.59890497,1.094324,-0.35031417
vit_b_16,1,628,NaN,cat,bottle,180,0628_ps_dnn_180_bottle_10_n04579145_6049.png,n04579145_6049.png,0.0,-0.25203755,1.3941563,-1.1640348
vit_b_16,1,629,NaN,clock,bottle,90,0629_ps_dnn_90_bottle_10_n02823428_4386.png,n02823428_4386.png,0.0,0.2015581,1.3738642,-0.8289456
vit_b_16,1,630,NaN,clock,car,150,0630_ps_dnn_150_car_10_n03100240_4594.png,n03100240_4594.png,0.0,-0.3947084,1.6073723,-1.4156848
vit_b_16,1,631,NaN,knife,knife,120,0631_ps_dnn_120_knife_10_n03041632_51581.png,n03041632_51581.png,1.0,9.914334,1.4963888,5.952387
vit_b_16,1,632,NaN,keyboard,keyboard,60,0632_ps_dnn_60_keyboard_10_n03085013_15836.png,n03085013_15836.png,1.0,5.3961015,0.63706106,3.3651497
vit_b_16,1,633,NaN,airplane,bicycle,180,0633_ps_dnn_180_bicycle_10_n03792782_34197.png,n03792782_34197.png,0.0,-0.4989443,1.6906344,-1.548266
vit_b_16,1,634,NaN,knife,bicycle,180,0634_ps_dnn_180_bicycle_10_n02835271_9314.png,n02835271_9314.png,0.0,-0.34720606,1.8234485,-1.5348846
vit_b_16,1,635,NaN,knife,oven,150,0635_ps_dnn_150_oven_10_n04111531_5643.png,n04111531_5643.png,0.0,-0.53536934,1.4327546,-1.3916738
vit_b_16,1,636,NaN,clock,cat,180,0636_ps_dnn_180_cat_10_n02123394_6362.png,n02123394_6362.png,0.0,0.27001247,1.2128958,-0.66671914
vit_b_16,1,637,NaN,elephant,elephant,60,0637_ps_dnn_60_elephant_10_n02504458_3614.png,n02504458_3614.png,1.0,7.0795827,0.22782108,4.8449273
vit_b_16,1,638,NaN,knife,chair,180,0638_ps_dnn_180_chair_10_n04099969_6691.png,n04099969_6691.png,0.0,-0.3555472,1.3973492,-1.239485
vit_b_16,1,639,NaN,bear,dog,60,0639_ps_dnn_60_dog_10_n02104365_1262.png,n02104365_1262.png,0.0,0.012726792,5.0995502,-3.5969274
vit_b_16,1,640,NaN,knife,chair,180,0640_ps_dnn_180_chair_10_n02791124_2611.png,n02791124_2611.png,0.0,-0.06469207,1.4010764,-1.0364548
vit_b_16,1,641,NaN,bird,bird,90,0641_ps_dnn_90_bird_10_n02027492_211.png,n02027492_211.png,1.0,1.0954822,0.25602284,0.59358746
vit_b_16,1,642,NaN,knife,keyboard,180,0642_ps_dnn_180_keyboard_10_n03085013_15576.png,n03085013_15576.png,0.0,-0.2680448,1.6070486,-1.3258914
vit_b_16,1,643,NaN,cat,cat,30,0643_ps_dnn_30_cat_10_n02123045_7255.png,n02123045_7255.png,1.0,3.3896234,1.477025,1.3524113
vit_b_16,1,644,NaN,chair,chair,60,0644_ps_dnn_60_chair_10_n04099969_16382.png,n04099969_16382.png,1.0,2.3360822,1.7494442,0.4148157
vit_b_16,1,645,NaN,bear,bear,0,0645_ps_dnn_0_bear_10_n02134418_2324.png,n02134418_2324.png,1.0,2.936723,0.15287729,1.9684762
vit_b_16,1,646,NaN,clock,dog,150,0646_ps_dnn_150_dog_10_n02096585_271.png,n02096585_271.png,0.0,0.3174888,1.2080864,-0.6297476
vit_b_16,1,647,NaN,clock,oven,150,0647_ps_dnn_150_oven_10_n04111531_4900.png,n04111531_4900.png,0.0,-1.0730889,1.5220774,-1.8350596
vit_b_16,1,648,NaN,knife,clock,150,0648_ps_dnn_150_clock_10_n04548280_23221.png,n04548280_23221.png,0.0,1.7395309,1.7502145,-0.007554401
vit_b_16,1,649,NaN,car,car,60,0649_ps_dnn_60_car_10_n03100240_7753.png,n03100240_7753.png,1.0,1.7781068,1.4695388,0.21819054
vit_b_16,1,650,NaN,clock,bear,180,0650_ps_dnn_180_bear_10_n02134084_1503.png,n02134084_1503.png,0.0,0.37490496,1.2775965,-0.6382993
vit_b_16,1,651,NaN,keyboard,keyboard,90,0651_ps_dnn_90_keyboard_10_n04505470_986.png,n04505470_986.png,1.0,4.3340445,0.6185968,2.6272182
vit_b_16,1,652,NaN,knife,truck,180,0652_ps_dnn_180_truck_10_n04467665_23758.png,n04467665_23758.png,0.0,-1.3997636,2.0370436,-2.4301896
vit_b_16,1,653,NaN,bottle,chair,120,0653_ps_dnn_120_chair_10_n03376595_4362.png,n03376595_4362.png,0.0,0.83451277,2.6361556,-1.2739539
vit_b_16,1,654,NaN,knife,oven,180,0654_ps_dnn_180_oven_10_n04111531_6958.png,n04111531_6958.png,0.0,-1.2677691,0.6525866,-1.3578966
vit_b_16,1,655,NaN,keyboard,keyboard,30,0655_ps_dnn_30_keyboard_10_n03085013_6166.png,n03085013_6166.png,1.0,6.2765145,0.9289782,3.781279
vit_b_16,1,656,NaN,elephant,bicycle,120,0656_ps_dnn_120_bicycle_10_n03792782_20475.png,n03792782_20475.png,0.0,0.29276407,2.2332716,-1.372146
vit_b_16,1,657,NaN,knife,cat,180,0657_ps_dnn_180_cat_10_n02123394_2350.png,n02123394_2350.png,0.0,0.73441464,1.4047726,-0.4740147
vit_b_16,1,658,NaN,elephant,elephant,0,0658_ps_dnn_0_elephant_10_n02504458_4316.png,n02504458_4316.png,1.0,6.8969927,0.27786875,4.6804276
vit_b_16,1,659,NaN,clock,clock,30,0659_ps_dnn_30_clock_10_n04548280_4390.png,n04548280_4390.png,1.0,6.001863,0.11020594,4.1660304
vit_b_16,1,660,NaN,car,car,60,0660_ps_dnn_60_car_10_n03100240_17421.png,n03100240_17421.png,1.0,5.8143973,0.7953869,3.5489764
vit_b_16,1,661,NaN,keyboard,keyboard,60,0661_ps_dnn_60_keyboard_10_n03085013_30073.png,n03085013_30073.png,1.0,1.5567797,1.3189346,0.16818194
vit_b_16,1,662,NaN,knife,knife,90,0662_ps_dnn_90_knife_10_n03041632_89391.png,n03041632_89391.png,1.0,1.5740658,0.80710053,0.54232633
vit_b_16,1,663,NaN,elephant,dog,90,0663_ps_dnn_90_dog_10_n02100877_2341.png,n02100877_2341.png,0.0,-0.43513352,1.4648367,-1.3434819
vit_b_16,1,664,NaN,airplane,boat,180,0664_ps_dnn_180_boat_10_n03344393_7114.png,n03344393_7114.png,0.0,0.3571313,1.4647397,-0.78319734
vit_b_16,1,665,NaN,knife,knife,0,0665_ps_dnn_0_knife_10_n03041632_22051.png,n03041632_22051.png,1.0,7.8504906,5.48362,1.6736301
vit_b_16,1,666,NaN,clock,clock,90,0666_ps_dnn_90_clock_10_n02708093_6850.png,n02708093_6850.png,1.0,5.9339848,0.6279114,3.7519605
vit_b_16,1,667,NaN,knife,knife,60,0667_ps_dnn_60_knife_10_n03041632_15299.png,n03041632_15299.png,1.0,4.661078,2.000317,1.8814421
vit_b_16,1,668,NaN,keyboard,keyboard,60,0668_ps_dnn_60_keyboard_10_n03085013_21490.png,n03085013_21490.png,1.0,6.1929107,1.1533519,3.5635064
vit_b_16,1,669,NaN,knife,knife,60,0669_ps_dnn_60_knife_10_n03041632_105081.png,n03041632_105081.png,1.0,9.948425,0.5415827,6.651642
vit_b_16,1,670,NaN,elephant,elephant,0,0670_ps_dnn_0_elephant_10_n02504013_20805.png,n02504013_20805.png,1.0,7.6943455,0.24008138,5.270961
vit_b_16,1,671,NaN,boat,boat,30,0671_ps_dnn_30_boat_10_n02951358_10151.png,n02951358_10151.png,1.0,3.2360039,0.18818682,2.155132
vit_b_16,1,672,NaN,oven,oven,90,0672_ps_dnn_90_oven_10_n04111531_4944.png,n04111531_4944.png,1.0,8.733799,1.4982177,5.1163287
vit_b_16,1,673,NaN,cat,bottle,180,0673_ps_dnn_180_bottle_10_n04591713_644.png,n04591713_644.png,0.0,-0.13043174,1.0198276,-0.8133562
vit_b_16,1,674,NaN,dog,dog,60,0674_ps_dnn_60_dog_10_n02090721_1105.png,n02090721_1105.png,1.0,0.4786566,0.18755108,0.20584269
vit_b_16,1,675,NaN,keyboard,keyboard,60,0675_ps_dnn_60_keyboard_10_n04505470_5880.png,n04505470_5880.png,1.0,4.9399166,0.44147843,3.1808763
vit_b_16,1,676,NaN,knife,airplane,150,0676_ps_dnn_150_airplane_10_n02690373_3589.png,n02690373_3589.png,0.0,-0.13606197,2.5465202,-1.896872
vit_b_16,1,677,NaN,bird,bird,120,0677_ps_dnn_120_bird_10_n01855672_3952.png,n01855672_3952.png,1.0,2.3405733,0.5943721,1.2347507
vit_b_16,1,678,NaN,truck,truck,60,0678_ps_dnn_60_truck_10_n03796401_8037.png,n03796401_8037.png,1.0,2.453558,0.29171723,1.5286522
vit_b_16,1,679,NaN,clock,clock,0,0679_ps_dnn_0_clock_10_n03196217_5493.png,n03196217_5493.png,1.0,4.716397,0.40496838,3.0486405
vit_b_16,1,680,NaN,knife,knife,30,0680_ps_dnn_30_knife_10_n03041632_32208.png,n03041632_32208.png,1.0,10.297679,1.7021762,6.0779386
vit_b_16,1,681,NaN,bicycle,bicycle,90,0681_ps_dnn_90_bicycle_10_n03792782_5494.png,n03792782_5494.png,1.0,6.277524,0.2454295,4.265335
vit_b_16,1,682,NaN,knife,chair,180,0682_ps_dnn_180_chair_10_n03376595_208.png,n03376595_208.png,0.0,-0.44359988,1.2106366,-1.169722
vit_b_16,1,683,NaN,clock,bicycle,150,0683_ps_dnn_150_bicycle_10_n02835271_3529.png,n02835271_3529.png,0.0,-0.012203753,0.8940945,-0.64084965
vit_b_16,1,684,NaN,knife,clock,180,0684_ps_dnn_180_clock_10_n02708093_2482.png,n02708093_2482.png,0.0,0.96148086,1.5807619,-0.43789783
vit_b_16,1,685,NaN,airplane,airplane,60,0685_ps_dnn_60_airplane_10_n02690373_1706.png,n02690373_1706.png,1.0,5.1624484,0.9852089,2.9537544
vit_b_16,1,686,NaN,cat,knife,180,0686_ps_dnn_180_knife_10_n03041632_2973.png,n03041632_2973.png,0.0,0.8332801,0.88036346,-0.033292975
vit_b_16,1,687,NaN,oven,oven,90,0687_ps_dnn_90_oven_10_n04111531_6346.png,n04111531_6346.png,1.0,4.3087697,0.68644005,2.561374
vit_b_16,1,688,NaN,clock,oven,180,0688_ps_dnn_180_oven_10_n04111531_10336.png,n04111531_10336.png,0.0,-0.85364944,1.2091415,-1.4586134
vit_b_16,1,689,NaN,elephant,elephant,120,0689_ps_dnn_120_elephant_10_n02504013_25336.png,n02504013_25336.png,1.0,1.085657,0.5122405,0.40546668
vit_b_16,1,690,NaN,knife,oven,120,0690_ps_dnn_120_oven_10_n04111531_4322.png,n04111531_4322.png,0.0,0.80564344,2.9019313,-1.4822993
vit_b_16,1,691,NaN,clock,truck,0,0691_ps_dnn_0_truck_10_n03417042_3482.png,n03417042_3482.png,0.0,0.25857526,0.2870075,-0.020104637
vit_b_16,1,692,NaN,clock,bear,180,0692_ps_dnn_180_bear_10_n02132136_5146.png,n02132136_5146.png,0.0,0.53009725,1.2487965,-0.50819707
vit_b_16,1,693,NaN,bicycle,bicycle,90,0693_ps_dnn_90_bicycle_10_n02835271_19853.png,n02835271_19853.png,1.0,5.7887516,0.7669283,3.5509655
vit_b_16,1,694,NaN,bicycle,bicycle,60,0694_ps_dnn_60_bicycle_10_n03792782_1477.png,n03792782_1477.png,1.0,7.6153173,0.12692736,5.2950916
vit_b_16,1,695,NaN,knife,knife,90,0695_ps_dnn_90_knife_10_n03041632_52371.png,n03041632_52371.png,1.0,9.533126,0.23458166,6.5750637
vit_b_16,1,696,NaN,clock,bird,150,0696_ps_dnn_150_bird_10_n02007558_7783.png,n02007558_7783.png,0.0,0.07400573,1.3089018,-0.8732034
vit_b_16,1,697,NaN,boat,boat,90,0697_ps_dnn_90_boat_10_n02951358_30773.png,n02951358_30773.png,1.0,1.2410216,0.5347192,0.49943122
vit_b_16,1,698,NaN,cat,keyboard,180,0698_ps_dnn_180_keyboard_10_n03085013_4298.png,n03085013_4298.png,0.0,-0.3413716,1.3538924,-1.1987327
vit_b_16,1,699,NaN,clock,airplane,150,0699_ps_dnn_150_airplane_10_n02690373_13021.png,n02690373_13021.png,0.0,-0.033741876,0.9524625,-0.6973518
vit_b_16,1,700,NaN,chair,chair,90,0700_ps_dnn_90_chair_10_n03376595_8490.png,n03376595_8490.png,1.0,1.1287035,0.75254416,0.2659848
vit_b_16,1,701,NaN,chair,chair,60,0701_ps_dnn_60_chair_10_n02791124_5898.png,n02791124_5898.png,1.0,2.7893593,1.2293881,1.1030662
vit_b_16,1,702,NaN,clock,clock,90,0702_ps_dnn_90_clock_10_n02708093_181.png,n02708093_181.png,1.0,3.4818227,0.36387384,2.204723
vit_b_16,1,703,NaN,airplane,airplane,30,0703_ps_dnn_30_airplane_10_n02690373_190.png,n02690373_190.png,1.0,8.865199,0.14901383,6.163274
vit_b_16,1,704,NaN,knife,oven,180,0704_ps_dnn_180_oven_10_n04111531_6756.png,n04111531_6756.png,0.0,-1.3586506,2.178112,-2.500869
vit_b_16,1,705,NaN,car,car,120,0705_ps_dnn_120_car_10_n03100240_23906.png,n03100240_23906.png,1.0,6.3952384,2.0231829,3.09151
vit_b_16,1,706,NaN,truck,truck,0,0706_ps_dnn_0_truck_10_n03417042_16038.png,n03417042_16038.png,1.0,2.0031252,0.15036424,1.3100998
vit_b_16,1,707,NaN,elephant,elephant,30,0707_ps_dnn_30_elephant_10_n02504458_6602.png,n02504458_6602.png,1.0,7.70688,0.40658602,5.1620874
vit_b_16,1,708,NaN,truck,truck,0,0708_ps_dnn_0_truck_10_n04467665_18234.png,n04467665_18234.png,1.0,4.403714,0.29483166,2.9054186
vit_b_16,1,709,NaN,cat,bottle,180,0709_ps_dnn_180_bottle_10_n03937543_4259.png,n03937543_4259.png,0.0,0.24859616,0.9872034,-0.52227426
vit_b_16,1,710,NaN,car,car,120,0710_ps_dnn_120_car_10_n03100240_17523.png,n03100240_17523.png,1.0,3.463645,2.0507512,0.99906677
vit_b_16,1,711,NaN,clock,clock,0,0711_ps_dnn_0_clock_10_n02708093_1513.png,n02708093_1513.png,1.0,6.5846725,0.7572642,4.1206
vit_b_16,1,712,NaN,knife,keyboard,180,0712_ps_dnn_180_keyboard_10_n03085013_4553.png,n03085013_4553.png,0.0,0.026137173,1.7289057,-1.2040392
vit_b_16,1,713,NaN,clock,oven,180,0713_ps_dnn_180_oven_10_n04111531_8330.png,n04111531_8330.png,0.0,-1.1669148,1.445567,-1.8473036
vit_b_16,1,714,NaN,bird,bird,90,0714_ps_dnn_90_bird_10_n01530575_35115.png,n01530575_35115.png,1.0,0.5599461,0.0740294,0.34359503
vit_b_16,1,715,NaN,knife,elephant,150,0715_ps_dnn_150_elephant_10_n02504458_1600.png,n02504458_1600.png,0.0,-0.493775,2.1807466,-1.8911723
vit_b_16,1,716,NaN,knife,knife,30,0716_ps_dnn_30_knife_10_n03041632_3717.png,n03041632_3717.png,1.0,9.412925,0.3510088,6.4077425
vit_b_16,1,717,NaN,airplane,truck,180,0717_ps_dnn_180_truck_10_n04467665_39477.png,n04467665_39477.png,0.0,-0.2786502,1.4563721,-1.2268461
vit_b_16,1,718,NaN,bird,bear,180,0718_ps_dnn_180_bear_10_n02132136_20883.png,n02132136_20883.png,0.0,0.042794615,0.7622487,-0.5087308
vit_b_16,1,719,NaN,knife,bear,150,0719_ps_dnn_150_bear_10_n02133161_2340.png,n02133161_2340.png,0.0,0.8698506,0.9180893,-0.03410991
vit_b_16,1,720,NaN,bear,bear,90,0720_ps_dnn_90_bear_10_n02134084_4442.png,n02134084_4442.png,1.0,2.6401494,1.0305486,1.1381596
vit_b_16,1,721,NaN,knife,clock,150,0721_ps_dnn_150_clock_10_n04548280_8314.png,n04548280_8314.png,0.0,0.21264614,1.636725,-1.0069758
vit_b_16,1,722,NaN,oven,oven,0,0722_ps_dnn_0_oven_10_n04111531_13797.png,n04111531_13797.png,1.0,9.615873,0.6193701,6.3614883
vit_b_16,1,723,NaN,car,car,30,0723_ps_dnn_30_car_10_n04285008_13.png,n04285008_13.png,1.0,5.5458655,0.40708333,3.6336677
vit_b_16,1,724,NaN,bear,bird,150,0724_ps_dnn_150_bird_10_n02002724_5457.png,n02002724_5457.png,0.0,0.2062184,1.1190014,-0.64543504
vit_b_16,1,725,NaN,airplane,airplane,0,0725_ps_dnn_0_airplane_10_n02690373_1325.png,n02690373_1325.png,1.0,9.068299,0.27157983,6.22022
vit_b_16,1,726,NaN,knife,knife,0,0726_ps_dnn_0_knife_10_n03041632_24561.png,n03041632_24561.png,1.0,8.492995,0.53537744,5.6268854
vit_b_16,1,727,NaN,cat,chair,180,0727_ps_dnn_180_chair_10_n03376595_2809.png,n03376595_2809.png,0.0,-0.9348674,0.7312204,-1.178102
vit_b_16,1,728,NaN,cat,cat,90,0728_ps_dnn_90_cat_10_n02125311_36331.png,n02125311_36331.png,1.0,2.7367575,2.4517217,0.20155078
vit_b_16,1,729,NaN,oven,oven,90,0729_ps_dnn_90_oven_10_n04111531_7430.png,n04111531_7430.png,1.0,8.608959,1.0210342,5.3654733
vit_b_16,1,730,NaN,chair,bottle,30,0730_ps_dnn_30_bottle_10_n04560804_8454.png,n04560804_8454.png,0.0,0.8230373,1.3345855,-0.36171922
vit_b_16,1,731,NaN,knife,bear,150,0731_ps_dnn_150_bear_10_n02132136_7067.png,n02132136_7067.png,0.0,0.94730365,1.0916427,-0.10206315
vit_b_16,1,732,NaN,bicycle,knife,0,0732_ps_dnn_0_knife_10_n03041632_33424.png,n03041632_33424.png,0.0,2.3274646,2.7715693,-0.31402943
vit_b_16,1,733,NaN,keyboard,keyboard,30,0733_ps_dnn_30_keyboard_10_n04505470_5171.png,n04505470_5171.png,1.0,6.148101,0.38896593,4.0723233
vit_b_16,1,734,NaN,clock,oven,180,0734_ps_dnn_180_oven_10_n04111531_14611.png,n04111531_14611.png,0.0,-1.1883763,1.988582,-2.2464488
vit_b_16,1,735,NaN,clock,bird,180,0735_ps_dnn_180_bird_10_n02028035_14461.png,n02028035_14461.png,0.0,-0.7551944,1.6848029,-1.7253386
vit_b_16,1,736,NaN,airplane,airplane,60,0736_ps_dnn_60_airplane_10_n02690373_10232.png,n02690373_10232.png,1.0,8.610838,0.2582013,5.906206
vit_b_16,1,737,NaN,knife,knife,180,0737_ps_dnn_180_knife_10_n03041632_18859.png,n03041632_18859.png,1.0,1.3571268,1.3371023,0.014159487
vit_b_16,1,738,NaN,clock,truck,150,0738_ps_dnn_150_truck_10_n03417042_1279.png,n03417042_1279.png,0.0,-0.93722606,1.1178772,-1.4531775
vit_b_16,1,739,NaN,knife,airplane,180,0739_ps_dnn_180_airplane_10_n02690373_4691.png,n02690373_4691.png,0.0,0.0003714487,1.5821875,-1.1185129
vit_b_16,1,740,NaN,clock,dog,120,0740_ps_dnn_120_dog_10_n02111277_21922.png,n02111277_21922.png,0.0,-0.018192057,1.2396951,-0.8894605
vit_b_16,1,741,NaN,knife,dog,180,0741_ps_dnn_180_dog_10_n02093991_2725.png,n02093991_2725.png,0.0,-0.17443345,2.1615658,-1.651801
vit_b_16,1,742,NaN,knife,bottle,90,0742_ps_dnn_90_bottle_10_n04557648_11847.png,n04557648_11847.png,0.0,2.0100923,3.9280066,-1.3561703
vit_b_16,1,743,NaN,knife,knife,180,0743_ps_dnn_180_knife_10_n03041632_20697.png,n03041632_20697.png,1.0,1.5702566,1.1053804,0.3287171
vit_b_16,1,744,NaN,car,car,90,0744_ps_dnn_90_car_10_n02814533_35102.png,n02814533_35102.png,1.0,3.6165674,2.1944985,1.0055546
vit_b_16,1,745,NaN,cat,cat,0,0745_ps_dnn_0_cat_10_n02125311_19769.png,n02125311_19769.png,1.0,1.6005515,0.6032473,0.70520055
vit_b_16,1,746,NaN,keyboard,keyboard,60,0746_ps_dnn_60_keyboard_10_n03085013_17795.png,n03085013_17795.png,1.0,6.831167,1.7666985,3.5811203
vit_b_16,1,747,NaN,airplane,clock,150,0747_ps_dnn_150_clock_10_n03196217_4019.png,n03196217_4019.png,0.0,0.29977086,2.5574913,-1.5964495
vit_b_16,1,748,NaN,bear,bear,120,0748_ps_dnn_120_bear_10_n02134418_2561.png,n02134418_2561.png,1.0,4.5360513,1.1740619,2.3772857
