subj,session,trial,rt,object_response,category,condition,imagename,filename,is_correct,targ_act,max_nontarg_act,decision_margin
alexnet_w1_mlp_simclrhn_probe3,1,1,NaN,truck,truck,30,0001_ps_dnn_30_truck_10_n03417042_14861.png,n03417042_14861.png,1.0,3.6848636,1.7814007,1.3459516
alexnet_w1_mlp_simclrhn_probe3,1,2,NaN,keyboard,keyboard,0,0002_ps_dnn_0_keyboard_10_n03085013_25476.png,n03085013_25476.png,1.0,9.004833,0.95922524,5.6891036
alexnet_w1_mlp_simclrhn_probe3,1,3,NaN,elephant,elephant,0,0003_ps_dnn_0_elephant_10_n02504013_3087.png,n02504013_3087.png,1.0,12.448751,4.260958,5.7896447
alexnet_w1_mlp_simclrhn_probe3,1,4,NaN,cat,cat,30,0004_ps_dnn_30_cat_10_n02123394_4633.png,n02123394_4633.png,1.0,1.9377118,1.5342631,0.28528133
alexnet_w1_mlp_simclrhn_probe3,1,5,NaN,knife,knife,120,0005_ps_dnn_120_knife_10_n03041632_48151.png,n03041632_48151.png,1.0,0.91672236,0.55619,0.25493488
alexnet_w1_mlp_simclrhn_probe3,1,6,NaN,bicycle,bicycle,60,0006_ps_dnn_60_bicycle_10_n02835271_1075.png,n02835271_1075.png,1.0,5.2899046,1.2214756,2.876814
alexnet_w1_mlp_simclrhn_probe3,1,7,NaN,bear,bear,180,0007_ps_dnn_180_bear_10_n02134084_10289.png,n02134084_10289.png,1.0,0.7318954,0.5455765,0.13174734
alexnet_w1_mlp_simclrhn_probe3,1,8,NaN,keyboard,keyboard,0,0008_ps_dnn_0_keyboard_10_n03085013_21967.png,n03085013_21967.png,1.0,4.140751,3.3590362,0.5527558
alexnet_w1_mlp_simclrhn_probe3,1,9,NaN,bear,oven,150,0009_ps_dnn_150_oven_10_n04111531_5737.png,n04111531_5737.png,0.0,-0.000826329,0.42851126,-0.30358753
alexnet_w1_mlp_simclrhn_probe3,1,10,NaN,bicycle,elephant,60,0010_ps_dnn_60_elephant_10_n02504458_8141.png,n02504458_8141.png,0.0,2.6175027,2.940167,-0.22815809
alexnet_w1_mlp_simclrhn_probe3,1,11,NaN,elephant,elephant,90,0011_ps_dnn_90_elephant_10_n02504458_3153.png,n02504458_3153.png,1.0,2.092715,1.448458,0.45555854
alexnet_w1_mlp_simclrhn_probe3,1,12,NaN,bear,bear,60,0012_ps_dnn_60_bear_10_n02134418_5807.png,n02134418_5807.png,1.0,2.8244915,2.4388113,0.2727171
alexnet_w1_mlp_simclrhn_probe3,1,13,NaN,boat,boat,0,0013_ps_dnn_0_boat_10_n04273569_15322.png,n04273569_15322.png,1.0,5.4648395,1.5705767,2.7536597
alexnet_w1_mlp_simclrhn_probe3,1,14,NaN,oven,knife,0,0014_ps_dnn_0_knife_10_n03041632_42526.png,n03041632_42526.png,0.0,1.0383579,1.7514483,-0.5042311
alexnet_w1_mlp_simclrhn_probe3,1,15,NaN,bicycle,bicycle,30,0015_ps_dnn_30_bicycle_10_n02835271_5886.png,n02835271_5886.png,1.0,2.0513072,0.46751153,1.1199126
alexnet_w1_mlp_simclrhn_probe3,1,16,NaN,dog,dog,180,0016_ps_dnn_180_dog_10_n02110063_869.png,n02110063_869.png,1.0,0.15706275,0.101402774,0.03935755
alexnet_w1_mlp_simclrhn_probe3,1,17,NaN,dog,bicycle,180,0017_ps_dnn_180_bicycle_10_n03792782_3334.png,n03792782_3334.png,0.0,0.18036494,0.18608736,-0.004046361
alexnet_w1_mlp_simclrhn_probe3,1,18,NaN,airplane,airplane,0,0018_ps_dnn_0_airplane_10_n02690373_7355.png,n02690373_7355.png,1.0,7.6119976,2.0765204,3.9141736
alexnet_w1_mlp_simclrhn_probe3,1,19,NaN,dog,bird,120,0019_ps_dnn_120_bird_10_n01798484_2289.png,n01798484_2289.png,0.0,0.14667624,0.2157734,-0.04885907
alexnet_w1_mlp_simclrhn_probe3,1,20,NaN,knife,knife,60,0020_ps_dnn_60_knife_10_n03041632_87380.png,n03041632_87380.png,1.0,0.6541354,0.5757761,0.055408396
alexnet_w1_mlp_simclrhn_probe3,1,21,NaN,keyboard,bird,0,0021_ps_dnn_0_bird_10_n02027492_15639.png,n02027492_15639.png,0.0,0.31633538,1.477408,-0.8210024
alexnet_w1_mlp_simclrhn_probe3,1,22,NaN,airplane,bird,0,0022_ps_dnn_0_bird_10_n02006656_7153.png,n02006656_7153.png,0.0,1.5075293,2.319056,-0.5738361
alexnet_w1_mlp_simclrhn_probe3,1,23,NaN,boat,boat,60,0023_ps_dnn_60_boat_10_n04612504_14699.png,n04612504_14699.png,1.0,3.5780663,0.957455,1.8530521
alexnet_w1_mlp_simclrhn_probe3,1,24,NaN,bear,bear,60,0024_ps_dnn_60_bear_10_n02134418_5971.png,n02134418_5971.png,1.0,3.0725532,1.9858449,0.76841885
alexnet_w1_mlp_simclrhn_probe3,1,25,NaN,cat,dog,90,0025_ps_dnn_90_dog_10_n02110063_16680.png,n02110063_16680.png,0.0,0.26859596,0.7382676,-0.332108
alexnet_w1_mlp_simclrhn_probe3,1,26,NaN,oven,car,90,0026_ps_dnn_90_car_10_n03100240_6010.png,n03100240_6010.png,0.0,-1.1894401,1.895678,-2.181508
alexnet_w1_mlp_simclrhn_probe3,1,27,NaN,elephant,elephant,30,0027_ps_dnn_30_elephant_10_n02504458_9835.png,n02504458_9835.png,1.0,2.1401868,1.691214,0.31747174
alexnet_w1_mlp_simclrhn_probe3,1,28,NaN,airplane,airplane,30,0028_ps_dnn_30_airplane_10_n02690373_10207.png,n02690373_10207.png,1.0,2.9056687,1.7584715,0.81119096
alexnet_w1_mlp_simclrhn_probe3,1,29,NaN,knife,bottle,180,0029_ps_dnn_180_bottle_10_n03983396_5532.png,n03983396_5532.png,0.0,-0.1946485,1.0170258,-0.85678315
alexnet_w1_mlp_simclrhn_probe3,1,30,NaN,dog,dog,30,0030_ps_dnn_30_dog_10_n02090622_1485.png,n02090622_1485.png,1.0,3.3962045,0.2707921,2.2100003
alexnet_w1_mlp_simclrhn_probe3,1,31,NaN,bear,truck,150,0031_ps_dnn_150_truck_10_n03417042_5503.png,n03417042_5503.png,0.0,-0.57614607,0.6951241,-0.89892375
alexnet_w1_mlp_simclrhn_probe3,1,32,NaN,bear,bear,180,0032_ps_dnn_180_bear_10_n02133161_897.png,n02133161_897.png,1.0,0.5480509,0.53311294,0.010562717
alexnet_w1_mlp_simclrhn_probe3,1,33,NaN,keyboard,keyboard,180,0033_ps_dnn_180_keyboard_10_n04505470_4579.png,n04505470_4579.png,1.0,1.4443789,0.88943505,0.39240453
alexnet_w1_mlp_simclrhn_probe3,1,34,NaN,bird,bird,60,0034_ps_dnn_60_bird_10_n01592084_5833.png,n01592084_5833.png,1.0,1.633807,0.759169,0.61846244
alexnet_w1_mlp_simclrhn_probe3,1,35,NaN,elephant,dog,0,0035_ps_dnn_0_dog_10_n02090379_3514.png,n02090379_3514.png,0.0,1.3016068,3.72577,-1.7141423
alexnet_w1_mlp_simclrhn_probe3,1,36,NaN,knife,airplane,180,0036_ps_dnn_180_airplane_10_n02690373_6144.png,n02690373_6144.png,0.0,-0.86949205,0.8491944,-1.2152948
alexnet_w1_mlp_simclrhn_probe3,1,37,NaN,knife,airplane,90,0037_ps_dnn_90_airplane_10_n02690373_1436.png,n02690373_1436.png,0.0,0.22811931,1.0678122,-0.59375256
alexnet_w1_mlp_simclrhn_probe3,1,38,NaN,bear,clock,120,0038_ps_dnn_120_clock_10_n04548280_354.png,n04548280_354.png,0.0,-0.24525906,1.531079,-1.2560607
alexnet_w1_mlp_simclrhn_probe3,1,39,NaN,keyboard,keyboard,0,0039_ps_dnn_0_keyboard_10_n03085013_2189.png,n03085013_2189.png,1.0,3.5510716,2.0719779,1.0458772
alexnet_w1_mlp_simclrhn_probe3,1,40,NaN,bear,chair,120,0040_ps_dnn_120_chair_10_n04099969_9005.png,n04099969_9005.png,0.0,-0.96101576,1.1166832,-1.4691551
alexnet_w1_mlp_simclrhn_probe3,1,41,NaN,knife,bicycle,180,0041_ps_dnn_180_bicycle_10_n02835271_7350.png,n02835271_7350.png,0.0,-0.12250024,0.49601442,-0.4373559
alexnet_w1_mlp_simclrhn_probe3,1,42,NaN,knife,bottle,150,0042_ps_dnn_150_bottle_10_n04557648_8320.png,n04557648_8320.png,0.0,-0.19255301,0.47055626,-0.4688891
alexnet_w1_mlp_simclrhn_probe3,1,43,NaN,dog,dog,0,0043_ps_dnn_0_dog_10_n02105641_6503.png,n02105641_6503.png,1.0,1.653506,0.33965197,0.9290352
alexnet_w1_mlp_simclrhn_probe3,1,44,NaN,clock,clock,90,0044_ps_dnn_90_clock_10_n04548280_6022.png,n04548280_6022.png,1.0,1.1348476,0.531168,0.426866
alexnet_w1_mlp_simclrhn_probe3,1,45,NaN,keyboard,clock,60,0045_ps_dnn_60_clock_10_n03196217_7414.png,n03196217_7414.png,0.0,0.37707213,1.3268094,-0.6715657
alexnet_w1_mlp_simclrhn_probe3,1,46,NaN,keyboard,oven,150,0046_ps_dnn_150_oven_10_n04111531_7965.png,n04111531_7965.png,0.0,0.3528931,1.3850703,-0.72985953
alexnet_w1_mlp_simclrhn_probe3,1,47,NaN,elephant,bottle,90,0047_ps_dnn_90_bottle_10_n04579145_4594.png,n04579145_4594.png,0.0,-0.20044981,0.88399094,-0.76681536
alexnet_w1_mlp_simclrhn_probe3,1,48,NaN,oven,bottle,30,0048_ps_dnn_30_bottle_10_n03983396_4564.png,n03983396_4564.png,0.0,1.9808501,4.169508,-1.5476148
alexnet_w1_mlp_simclrhn_probe3,1,49,NaN,cat,cat,60,0049_ps_dnn_60_cat_10_n02125311_54015.png,n02125311_54015.png,1.0,2.2708764,1.3332517,0.66300076
alexnet_w1_mlp_simclrhn_probe3,1,50,NaN,knife,bicycle,150,0050_ps_dnn_150_bicycle_10_n03792782_5133.png,n03792782_5133.png,0.0,-0.105460554,0.16392781,-0.19048636
alexnet_w1_mlp_simclrhn_probe3,1,51,NaN,bird,bird,120,0051_ps_dnn_120_bird_10_n02018207_6296.png,n02018207_6296.png,1.0,1.6195594,1.4972875,0.08645929
alexnet_w1_mlp_simclrhn_probe3,1,52,NaN,elephant,bird,30,0052_ps_dnn_30_bird_10_n01817953_11996.png,n01817953_11996.png,0.0,-0.7001346,4.382542,-3.5939953
alexnet_w1_mlp_simclrhn_probe3,1,53,NaN,bear,keyboard,150,0053_ps_dnn_150_keyboard_10_n03085013_3148.png,n03085013_3148.png,0.0,0.37788016,1.1136575,-0.52027315
alexnet_w1_mlp_simclrhn_probe3,1,54,NaN,bear,bear,60,0054_ps_dnn_60_bear_10_n02134418_5537.png,n02134418_5537.png,1.0,3.9184806,1.718841,1.5553802
alexnet_w1_mlp_simclrhn_probe3,1,55,NaN,bear,cat,150,0055_ps_dnn_150_cat_10_n02125311_11409.png,n02125311_11409.png,0.0,-0.32223007,0.27551037,-0.4226663
alexnet_w1_mlp_simclrhn_probe3,1,56,NaN,bird,knife,30,0056_ps_dnn_30_knife_10_n03041632_3063.png,n03041632_3063.png,0.0,-0.45759165,0.67469275,-0.800646
alexnet_w1_mlp_simclrhn_probe3,1,57,NaN,bear,dog,60,0057_ps_dnn_60_dog_10_n02106550_6424.png,n02106550_6424.png,0.0,0.5511303,1.5975403,-0.7399236
alexnet_w1_mlp_simclrhn_probe3,1,58,NaN,elephant,bear,30,0058_ps_dnn_30_bear_10_n02133161_7032.png,n02133161_7032.png,0.0,3.7496712,4.154532,-0.28627977
alexnet_w1_mlp_simclrhn_probe3,1,59,NaN,keyboard,cat,150,0059_ps_dnn_150_cat_10_n02125311_5570.png,n02125311_5570.png,0.0,-0.35452047,0.16071537,-0.36432678
alexnet_w1_mlp_simclrhn_probe3,1,60,NaN,elephant,bird,30,0060_ps_dnn_30_bird_10_n01843383_13894.png,n01843383_13894.png,0.0,1.9052196,2.969669,-0.7526795
alexnet_w1_mlp_simclrhn_probe3,1,61,NaN,oven,bottle,60,0061_ps_dnn_60_bottle_10_n03983396_2205.png,n03983396_2205.png,0.0,-0.12753616,3.1056666,-2.2862196
alexnet_w1_mlp_simclrhn_probe3,1,62,NaN,bicycle,bicycle,60,0062_ps_dnn_60_bicycle_10_n03792782_31010.png,n03792782_31010.png,1.0,5.3322687,0.52085453,3.4021838
alexnet_w1_mlp_simclrhn_probe3,1,63,NaN,bottle,bottle,60,0063_ps_dnn_60_bottle_10_n02823428_880.png,n02823428_880.png,1.0,4.653954,2.3723392,1.6133453
alexnet_w1_mlp_simclrhn_probe3,1,64,NaN,knife,car,180,0064_ps_dnn_180_car_10_n02814533_40459.png,n02814533_40459.png,0.0,-0.54488856,0.31621104,-0.6088894
alexnet_w1_mlp_simclrhn_probe3,1,65,NaN,bear,cat,120,0065_ps_dnn_120_cat_10_n02123045_567.png,n02123045_567.png,0.0,0.2377214,0.3744859,-0.09670711
alexnet_w1_mlp_simclrhn_probe3,1,66,NaN,bear,knife,120,0066_ps_dnn_120_knife_10_n03041632_24541.png,n03041632_24541.png,0.0,0.40074328,1.1730993,-0.5461382
alexnet_w1_mlp_simclrhn_probe3,1,67,NaN,elephant,elephant,30,0067_ps_dnn_30_elephant_10_n02504458_8644.png,n02504458_8644.png,1.0,6.2341704,1.3960005,3.421103
alexnet_w1_mlp_simclrhn_probe3,1,68,NaN,keyboard,keyboard,0,0068_ps_dnn_0_keyboard_10_n03085013_2166.png,n03085013_2166.png,1.0,7.044072,3.7423964,2.3346374
alexnet_w1_mlp_simclrhn_probe3,1,69,NaN,bear,boat,90,0069_ps_dnn_90_boat_10_n04273569_13972.png,n04273569_13972.png,0.0,0.56522226,1.5144562,-0.67120975
alexnet_w1_mlp_simclrhn_probe3,1,70,NaN,knife,airplane,150,0070_ps_dnn_150_airplane_10_n02690373_9432.png,n02690373_9432.png,0.0,-0.2518408,0.48710543,-0.52251387
alexnet_w1_mlp_simclrhn_probe3,1,71,NaN,oven,truck,90,0071_ps_dnn_90_truck_10_n03417042_5228.png,n03417042_5228.png,0.0,-1.3134091,1.8661476,-2.2482862
alexnet_w1_mlp_simclrhn_probe3,1,72,NaN,airplane,airplane,0,0072_ps_dnn_0_airplane_10_n02690373_4294.png,n02690373_4294.png,1.0,8.239228,2.3966591,4.1313205
alexnet_w1_mlp_simclrhn_probe3,1,73,NaN,clock,chair,30,0073_ps_dnn_30_chair_10_n04099969_52474.png,n04099969_52474.png,0.0,0.121605456,1.50245,-0.9764046
alexnet_w1_mlp_simclrhn_probe3,1,74,NaN,oven,oven,30,0074_ps_dnn_30_oven_10_n04111531_21822.png,n04111531_21822.png,1.0,4.601302,2.412168,1.5479516
alexnet_w1_mlp_simclrhn_probe3,1,75,NaN,knife,oven,150,0075_ps_dnn_150_oven_10_n04111531_15735.png,n04111531_15735.png,0.0,0.8037565,1.0338707,-0.16271533
alexnet_w1_mlp_simclrhn_probe3,1,76,NaN,bird,dog,120,0076_ps_dnn_120_dog_10_n02104029_7335.png,n02104029_7335.png,0.0,0.1357162,0.44895136,-0.22149071
alexnet_w1_mlp_simclrhn_probe3,1,77,NaN,bear,truck,150,0077_ps_dnn_150_truck_10_n03417042_17911.png,n03417042_17911.png,0.0,-0.89991,1.2508814,-1.5208392
alexnet_w1_mlp_simclrhn_probe3,1,78,NaN,clock,clock,30,0078_ps_dnn_30_clock_10_n02708093_899.png,n02708093_899.png,1.0,0.9158775,0.77332103,0.10080266
alexnet_w1_mlp_simclrhn_probe3,1,79,NaN,boat,boat,60,0079_ps_dnn_60_boat_10_n03662601_9590.png,n03662601_9590.png,1.0,5.770381,1.3220022,3.1454787
alexnet_w1_mlp_simclrhn_probe3,1,80,NaN,bear,chair,90,0080_ps_dnn_90_chair_10_n02791124_6550.png,n02791124_6550.png,0.0,-0.343571,2.1102037,-1.7350807
alexnet_w1_mlp_simclrhn_probe3,1,81,NaN,oven,clock,180,0081_ps_dnn_180_clock_10_n03196217_4492.png,n03196217_4492.png,0.0,-0.24692404,1.0606853,-0.92461944
alexnet_w1_mlp_simclrhn_probe3,1,82,NaN,car,car,30,0082_ps_dnn_30_car_10_n04285008_14128.png,n04285008_14128.png,1.0,7.342179,2.197922,3.6375387
alexnet_w1_mlp_simclrhn_probe3,1,83,NaN,bicycle,bicycle,60,0083_ps_dnn_60_bicycle_10_n02835271_4730.png,n02835271_4730.png,1.0,3.4674764,0.90540004,1.8116616
alexnet_w1_mlp_simclrhn_probe3,1,84,NaN,elephant,elephant,0,0084_ps_dnn_0_elephant_10_n02504458_62.png,n02504458_62.png,1.0,15.379684,3.8707085,8.138075
alexnet_w1_mlp_simclrhn_probe3,1,85,NaN,bear,dog,120,0085_ps_dnn_120_dog_10_n02086646_8144.png,n02086646_8144.png,0.0,0.38272622,0.61938256,-0.1673413
alexnet_w1_mlp_simclrhn_probe3,1,86,NaN,cat,knife,60,0086_ps_dnn_60_knife_10_n03041632_1671.png,n03041632_1671.png,0.0,0.24010864,1.631488,-0.9838538
alexnet_w1_mlp_simclrhn_probe3,1,87,NaN,cat,bird,180,0087_ps_dnn_180_bird_10_n01534433_10801.png,n01534433_10801.png,0.0,-0.010574606,0.6757737,-0.48532152
alexnet_w1_mlp_simclrhn_probe3,1,88,NaN,bear,keyboard,150,0088_ps_dnn_150_keyboard_10_n03085013_20570.png,n03085013_20570.png,0.0,-0.19856533,1.3801464,-1.1163177
alexnet_w1_mlp_simclrhn_probe3,1,89,NaN,knife,knife,150,0089_ps_dnn_150_knife_10_n03041632_4808.png,n03041632_4808.png,1.0,0.6671039,0.3472024,0.22620451
alexnet_w1_mlp_simclrhn_probe3,1,90,NaN,knife,keyboard,180,0090_ps_dnn_180_keyboard_10_n03085013_1808.png,n03085013_1808.png,0.0,-0.48650166,0.5864698,-0.75870544
alexnet_w1_mlp_simclrhn_probe3,1,91,NaN,bear,truck,120,0091_ps_dnn_120_truck_10_n03796401_4370.png,n03796401_4370.png,0.0,-0.8706466,0.63224924,-1.0627079
alexnet_w1_mlp_simclrhn_probe3,1,92,NaN,airplane,airplane,60,0092_ps_dnn_60_airplane_10_n02690373_6314.png,n02690373_6314.png,1.0,3.0450623,2.8147616,0.16284716
alexnet_w1_mlp_simclrhn_probe3,1,93,NaN,oven,oven,90,0093_ps_dnn_90_oven_10_n04111531_4879.png,n04111531_4879.png,1.0,1.2467223,0.61534864,0.44644862
alexnet_w1_mlp_simclrhn_probe3,1,94,NaN,oven,airplane,180,0094_ps_dnn_180_airplane_10_n02690373_4375.png,n02690373_4375.png,0.0,-0.8822079,0.84323335,-1.2200712
alexnet_w1_mlp_simclrhn_probe3,1,95,NaN,oven,bottle,60,0095_ps_dnn_60_bottle_10_n04557648_4133.png,n04557648_4133.png,0.0,2.2336533,2.5767415,-0.24259996
alexnet_w1_mlp_simclrhn_probe3,1,96,NaN,bicycle,bicycle,120,0096_ps_dnn_120_bicycle_10_n02835271_19213.png,n02835271_19213.png,1.0,0.40489292,0.2872332,0.08319799
alexnet_w1_mlp_simclrhn_probe3,1,97,NaN,bear,bear,150,0097_ps_dnn_150_bear_10_n02132136_10577.png,n02132136_10577.png,1.0,0.6297146,0.3091424,0.22667877
alexnet_w1_mlp_simclrhn_probe3,1,98,NaN,knife,airplane,90,0098_ps_dnn_90_airplane_10_n02690373_3147.png,n02690373_3147.png,0.0,0.2475603,0.2985711,-0.036070086
alexnet_w1_mlp_simclrhn_probe3,1,99,NaN,elephant,elephant,60,0099_ps_dnn_60_elephant_10_n02504013_10389.png,n02504013_10389.png,1.0,5.466659,3.6447196,1.2883058
alexnet_w1_mlp_simclrhn_probe3,1,100,NaN,knife,chair,150,0100_ps_dnn_150_chair_10_n02791124_5685.png,n02791124_5685.png,0.0,-0.3991308,0.3228405,-0.5105108
alexnet_w1_mlp_simclrhn_probe3,1,101,NaN,bear,bird,60,0101_ps_dnn_60_bird_10_n01817953_6333.png,n01817953_6333.png,0.0,0.31126484,1.1956772,-0.62537396
alexnet_w1_mlp_simclrhn_probe3,1,102,NaN,keyboard,keyboard,90,0102_ps_dnn_90_keyboard_10_n03085013_20247.png,n03085013_20247.png,1.0,4.575532,1.1978967,2.3883488
alexnet_w1_mlp_simclrhn_probe3,1,103,NaN,airplane,airplane,0,0103_ps_dnn_0_airplane_10_n02690373_5729.png,n02690373_5729.png,1.0,6.7607503,0.89045084,4.1509285
alexnet_w1_mlp_simclrhn_probe3,1,104,NaN,bicycle,bicycle,90,0104_ps_dnn_90_bicycle_10_n03792782_55532.png,n03792782_55532.png,1.0,3.3070016,0.48797855,1.9933504
alexnet_w1_mlp_simclrhn_probe3,1,105,NaN,bicycle,bicycle,0,0105_ps_dnn_0_bicycle_10_n02835271_8417.png,n02835271_8417.png,1.0,13.681735,1.5771568,8.559229
alexnet_w1_mlp_simclrhn_probe3,1,106,NaN,oven,clock,60,0106_ps_dnn_60_clock_10_n03196217_599.png,n03196217_599.png,0.0,0.092416175,1.9309953,-1.3000718
alexnet_w1_mlp_simclrhn_probe3,1,107,NaN,airplane,airplane,0,0107_ps_dnn_0_airplane_10_n02690373_1952.png,n02690373_1952.png,1.0,3.6314318,1.5525806,1.4699699
alexnet_w1_mlp_simclrhn_probe3,1,108,NaN,bear,bear,180,0108_ps_dnn_180_bear_10_n02134084_23061.png,n02134084_23061.png,1.0,0.32357422,0.25985324,0.04505753
alexnet_w1_mlp_simclrhn_probe3,1,109,NaN,knife,bicycle,150,0109_ps_dnn_150_bicycle_10_n03792782_27445.png,n03792782_27445.png,0.0,0.021041602,0.17002907,-0.105350055
alexnet_w1_mlp_simclrhn_probe3,1,110,NaN,bottle,clock,30,0110_ps_dnn_30_clock_10_n03196217_6348.png,n03196217_6348.png,0.0,0.2649983,1.0163672,-0.53129804
alexnet_w1_mlp_simclrhn_probe3,1,111,NaN,bear,bear,90,0111_ps_dnn_90_bear_10_n02132136_5778.png,n02132136_5778.png,1.0,1.8210227,1.0544581,0.54204303
alexnet_w1_mlp_simclrhn_probe3,1,112,NaN,oven,boat,90,0112_ps_dnn_90_boat_10_n04273569_4772.png,n04273569_4772.png,0.0,0.6092232,0.975277,-0.25883913
alexnet_w1_mlp_simclrhn_probe3,1,113,NaN,cat,oven,180,0113_ps_dnn_180_oven_10_n04111531_23830.png,n04111531_23830.png,0.0,0.43226534,1.2158622,-0.5540866
alexnet_w1_mlp_simclrhn_probe3,1,114,NaN,bear,bird,150,0114_ps_dnn_150_bird_10_n01855032_1306.png,n01855032_1306.png,0.0,0.009363708,0.32632214,-0.22412346
alexnet_w1_mlp_simclrhn_probe3,1,115,NaN,elephant,elephant,60,0115_ps_dnn_60_elephant_10_n02504013_8905.png,n02504013_8905.png,1.0,6.238823,4.392768,1.305358
alexnet_w1_mlp_simclrhn_probe3,1,116,NaN,elephant,truck,60,0116_ps_dnn_60_truck_10_n04467665_30461.png,n04467665_30461.png,0.0,-0.44992235,0.49720576,-0.6697207
alexnet_w1_mlp_simclrhn_probe3,1,117,NaN,bear,knife,60,0117_ps_dnn_60_knife_10_n03041632_20662.png,n03041632_20662.png,0.0,0.95274127,1.137819,-0.13086976
alexnet_w1_mlp_simclrhn_probe3,1,118,NaN,knife,boat,180,0118_ps_dnn_180_boat_10_n03662601_15915.png,n03662601_15915.png,0.0,-0.25258082,0.42400277,-0.47841686
alexnet_w1_mlp_simclrhn_probe3,1,119,NaN,bear,boat,150,0119_ps_dnn_150_boat_10_n04273569_62.png,n04273569_62.png,0.0,0.3634335,0.4214645,-0.04103411
alexnet_w1_mlp_simclrhn_probe3,1,120,NaN,bear,bicycle,180,0120_ps_dnn_180_bicycle_10_n03792782_8080.png,n03792782_8080.png,0.0,0.08109207,0.4521536,-0.26238012
alexnet_w1_mlp_simclrhn_probe3,1,121,NaN,bear,airplane,120,0121_ps_dnn_120_airplane_10_n02690373_10309.png,n02690373_10309.png,0.0,-0.26003516,0.5592185,-0.57929987
alexnet_w1_mlp_simclrhn_probe3,1,122,NaN,cat,dog,30,0122_ps_dnn_30_dog_10_n02093859_1001.png,n02093859_1001.png,0.0,1.3217477,1.9957571,-0.47659665
alexnet_w1_mlp_simclrhn_probe3,1,123,NaN,oven,oven,0,0123_ps_dnn_0_oven_10_n04111531_15267.png,n04111531_15267.png,1.0,4.8844333,1.2575437,2.5645983
alexnet_w1_mlp_simclrhn_probe3,1,124,NaN,bear,cat,90,0124_ps_dnn_90_cat_10_n02124075_81.png,n02124075_81.png,0.0,1.0398337,1.7470589,-0.50008374
alexnet_w1_mlp_simclrhn_probe3,1,125,NaN,bear,elephant,60,0125_ps_dnn_60_elephant_10_n02504013_7314.png,n02504013_7314.png,0.0,3.38938,3.5316083,-0.10057064
alexnet_w1_mlp_simclrhn_probe3,1,126,NaN,bear,bottle,120,0126_ps_dnn_120_bottle_10_n03983396_3294.png,n03983396_3294.png,0.0,-0.092569016,1.2026048,-0.91582614
alexnet_w1_mlp_simclrhn_probe3,1,127,NaN,cat,cat,60,0127_ps_dnn_60_cat_10_n02123159_3201.png,n02123159_3201.png,1.0,6.028011,0.235599,4.095854
alexnet_w1_mlp_simclrhn_probe3,1,128,NaN,dog,dog,90,0128_ps_dnn_90_dog_10_n02101388_11601.png,n02101388_11601.png,1.0,0.5350274,0.52367777,0.008025392
alexnet_w1_mlp_simclrhn_probe3,1,129,NaN,cat,cat,30,0129_ps_dnn_30_cat_10_n02123597_4442.png,n02123597_4442.png,1.0,1.4185958,1.4052866,0.009411055
alexnet_w1_mlp_simclrhn_probe3,1,130,NaN,airplane,airplane,30,0130_ps_dnn_30_airplane_10_n02690373_1950.png,n02690373_1950.png,1.0,4.347682,2.7303839,1.1436025
alexnet_w1_mlp_simclrhn_probe3,1,131,NaN,cat,bird,120,0131_ps_dnn_120_bird_10_n01616318_4652.png,n01616318_4652.png,0.0,-0.32991806,1.0775816,-0.99525255
alexnet_w1_mlp_simclrhn_probe3,1,132,NaN,boat,airplane,90,0132_ps_dnn_90_airplane_10_n02690373_17937.png,n02690373_17937.png,0.0,0.27309623,1.7401793,-1.0373844
alexnet_w1_mlp_simclrhn_probe3,1,133,NaN,clock,clock,30,0133_ps_dnn_30_clock_10_n02708093_1125.png,n02708093_1125.png,1.0,5.2195773,1.0686817,2.9351265
alexnet_w1_mlp_simclrhn_probe3,1,134,NaN,bear,elephant,150,0134_ps_dnn_150_elephant_10_n02504458_6499.png,n02504458_6499.png,0.0,0.3000779,0.6489024,-0.2466562
alexnet_w1_mlp_simclrhn_probe3,1,135,NaN,oven,clock,30,0135_ps_dnn_30_clock_10_n02708093_51.png,n02708093_51.png,0.0,0.57810855,2.313724,-1.2272655
alexnet_w1_mlp_simclrhn_probe3,1,136,NaN,oven,bicycle,90,0136_ps_dnn_90_bicycle_10_n02835271_13180.png,n02835271_13180.png,0.0,0.35047263,1.0438657,-0.49030295
alexnet_w1_mlp_simclrhn_probe3,1,137,NaN,bear,cat,120,0137_ps_dnn_120_cat_10_n02123597_7297.png,n02123597_7297.png,0.0,0.91642475,1.4443934,-0.3733302
alexnet_w1_mlp_simclrhn_probe3,1,138,NaN,oven,clock,30,0138_ps_dnn_30_clock_10_n04548280_1109.png,n04548280_1109.png,0.0,-0.37548885,2.5934203,-2.0993357
alexnet_w1_mlp_simclrhn_probe3,1,139,NaN,clock,clock,60,0139_ps_dnn_60_clock_10_n04548280_1304.png,n04548280_1304.png,1.0,1.1112546,0.86763024,0.17226842
alexnet_w1_mlp_simclrhn_probe3,1,140,NaN,knife,bird,180,0140_ps_dnn_180_bird_10_n01833805_8179.png,n01833805_8179.png,0.0,-0.14666118,0.30113786,-0.31664175
alexnet_w1_mlp_simclrhn_probe3,1,141,NaN,bottle,bottle,60,0141_ps_dnn_60_bottle_10_n03983396_24525.png,n03983396_24525.png,1.0,3.4482327,2.3829541,0.7532657
alexnet_w1_mlp_simclrhn_probe3,1,142,NaN,bear,elephant,120,0142_ps_dnn_120_elephant_10_n02504013_5945.png,n02504013_5945.png,0.0,0.20740384,0.7256188,-0.3664333
alexnet_w1_mlp_simclrhn_probe3,1,143,NaN,oven,airplane,120,0143_ps_dnn_120_airplane_10_n02690373_13610.png,n02690373_13610.png,0.0,-0.63736594,1.556988,-1.5516427
alexnet_w1_mlp_simclrhn_probe3,1,144,NaN,bear,knife,90,0144_ps_dnn_90_knife_10_n03041632_21859.png,n03041632_21859.png,0.0,0.33494657,0.38092247,-0.032509867
alexnet_w1_mlp_simclrhn_probe3,1,145,NaN,cat,cat,60,0145_ps_dnn_60_cat_10_n02123045_568.png,n02123045_568.png,1.0,1.7414179,1.0828379,0.46568635
alexnet_w1_mlp_simclrhn_probe3,1,146,NaN,keyboard,clock,180,0146_ps_dnn_180_clock_10_n02708093_960.png,n02708093_960.png,0.0,-0.0599492,0.67136157,-0.5171148
alexnet_w1_mlp_simclrhn_probe3,1,147,NaN,bicycle,bicycle,120,0147_ps_dnn_120_bicycle_10_n02835271_9669.png,n02835271_9669.png,1.0,0.6968925,0.40648198,0.20535125
alexnet_w1_mlp_simclrhn_probe3,1,148,NaN,bear,cat,60,0148_ps_dnn_60_cat_10_n02123597_14647.png,n02123597_14647.png,0.0,2.4444463,2.5393434,-0.067102335
alexnet_w1_mlp_simclrhn_probe3,1,149,NaN,bicycle,bicycle,0,0149_ps_dnn_0_bicycle_10_n02835271_7794.png,n02835271_7794.png,1.0,4.8988814,0.31556982,3.2408907
alexnet_w1_mlp_simclrhn_probe3,1,150,NaN,bird,bird,0,0150_ps_dnn_0_bird_10_n02011460_5925.png,n02011460_5925.png,1.0,2.3212924,0.8117847,1.0673832
alexnet_w1_mlp_simclrhn_probe3,1,151,NaN,bicycle,oven,90,0151_ps_dnn_90_oven_10_n04111531_8852.png,n04111531_8852.png,0.0,0.4734065,0.8063001,-0.23539133
alexnet_w1_mlp_simclrhn_probe3,1,152,NaN,bear,knife,90,0152_ps_dnn_90_knife_10_n03041632_84086.png,n03041632_84086.png,0.0,-0.87704897,2.045506,-2.0665584
alexnet_w1_mlp_simclrhn_probe3,1,153,NaN,car,car,60,0153_ps_dnn_60_car_10_n03100240_13602.png,n03100240_13602.png,1.0,6.7147727,2.5008714,2.9796784
alexnet_w1_mlp_simclrhn_probe3,1,154,NaN,bear,dog,180,0154_ps_dnn_180_dog_10_n02106662_43958.png,n02106662_43958.png,0.0,-0.19074471,0.26138481,-0.31970388
alexnet_w1_mlp_simclrhn_probe3,1,155,NaN,airplane,chair,30,0155_ps_dnn_30_chair_10_n02791124_1292.png,n02791124_1292.png,0.0,0.9428026,1.1761467,-0.16499923
alexnet_w1_mlp_simclrhn_probe3,1,156,NaN,bear,dog,90,0156_ps_dnn_90_dog_10_n02085782_4522.png,n02085782_4522.png,0.0,0.39195105,1.9155955,-1.0773793
alexnet_w1_mlp_simclrhn_probe3,1,157,NaN,bear,bear,60,0157_ps_dnn_60_bear_10_n02132136_686.png,n02132136_686.png,1.0,5.4053907,4.4186654,0.69772017
alexnet_w1_mlp_simclrhn_probe3,1,158,NaN,bicycle,bird,120,0158_ps_dnn_120_bird_10_n01796340_12914.png,n01796340_12914.png,0.0,-0.15533602,0.31353596,-0.33154255
alexnet_w1_mlp_simclrhn_probe3,1,159,NaN,bottle,knife,60,0159_ps_dnn_60_knife_10_n03041632_24060.png,n03041632_24060.png,0.0,1.00936,3.3632257,-1.6644343
alexnet_w1_mlp_simclrhn_probe3,1,160,NaN,knife,bottle,180,0160_ps_dnn_180_bottle_10_n03983396_4775.png,n03983396_4775.png,0.0,0.089835405,0.6549195,-0.39957482
alexnet_w1_mlp_simclrhn_probe3,1,161,NaN,boat,keyboard,120,0161_ps_dnn_120_keyboard_10_n04505470_1516.png,n04505470_1516.png,0.0,-0.8820138,0.50012463,-0.97731954
alexnet_w1_mlp_simclrhn_probe3,1,162,NaN,knife,boat,150,0162_ps_dnn_150_boat_10_n03344393_4944.png,n03344393_4944.png,0.0,-0.14916833,0.8254784,-0.6891793
alexnet_w1_mlp_simclrhn_probe3,1,163,NaN,knife,cat,150,0163_ps_dnn_150_cat_10_n02123159_3524.png,n02123159_3524.png,0.0,0.20715694,0.92503744,-0.5076182
alexnet_w1_mlp_simclrhn_probe3,1,164,NaN,boat,truck,60,0164_ps_dnn_60_truck_10_n04467665_50648.png,n04467665_50648.png,0.0,0.52688,2.2953675,-1.2505095
alexnet_w1_mlp_simclrhn_probe3,1,165,NaN,dog,dog,0,0165_ps_dnn_0_dog_10_n02107574_1277.png,n02107574_1277.png,1.0,1.1014016,0.7780699,0.22863
alexnet_w1_mlp_simclrhn_probe3,1,166,NaN,oven,oven,60,0166_ps_dnn_60_oven_10_n04111531_21980.png,n04111531_21980.png,1.0,4.111582,1.0558679,2.160716
alexnet_w1_mlp_simclrhn_probe3,1,167,NaN,bear,boat,120,0167_ps_dnn_120_boat_10_n03344393_11315.png,n03344393_11315.png,0.0,-0.04147215,0.58790064,-0.44503376
alexnet_w1_mlp_simclrhn_probe3,1,168,NaN,oven,knife,90,0168_ps_dnn_90_knife_10_n03041632_32896.png,n03041632_32896.png,0.0,0.57361305,1.0514246,-0.3378638
alexnet_w1_mlp_simclrhn_probe3,1,169,NaN,bottle,bottle,30,0169_ps_dnn_30_bottle_10_n03937543_3133.png,n03937543_3133.png,1.0,1.3663105,0.42227304,0.6675353
alexnet_w1_mlp_simclrhn_probe3,1,170,NaN,oven,car,180,0170_ps_dnn_180_car_10_n04285008_15213.png,n04285008_15213.png,0.0,-0.6774991,0.71830064,-0.9869795
alexnet_w1_mlp_simclrhn_probe3,1,171,NaN,oven,elephant,90,0171_ps_dnn_90_elephant_10_n02504013_3081.png,n02504013_3081.png,0.0,0.8030604,1.0997641,-0.2098012
alexnet_w1_mlp_simclrhn_probe3,1,172,NaN,cat,cat,60,0172_ps_dnn_60_cat_10_n02123159_6873.png,n02123159_6873.png,1.0,1.6624128,0.8678558,0.56183666
alexnet_w1_mlp_simclrhn_probe3,1,173,NaN,bottle,bottle,60,0173_ps_dnn_60_bottle_10_n04579145_4385.png,n04579145_4385.png,1.0,5.4641213,0.65543026,3.400258
alexnet_w1_mlp_simclrhn_probe3,1,174,NaN,bear,bear,60,0174_ps_dnn_60_bear_10_n02134418_2185.png,n02134418_2185.png,1.0,2.6822023,1.7841787,0.6349986
alexnet_w1_mlp_simclrhn_probe3,1,175,NaN,bear,chair,150,0175_ps_dnn_150_chair_10_n04429376_16002.png,n04429376_16002.png,0.0,-0.34425277,0.6984037,-0.73726946
alexnet_w1_mlp_simclrhn_probe3,1,176,NaN,bicycle,car,60,0176_ps_dnn_60_car_10_n03100240_8107.png,n03100240_8107.png,0.0,-0.67300767,2.269236,-2.0804806
alexnet_w1_mlp_simclrhn_probe3,1,177,NaN,boat,boat,60,0177_ps_dnn_60_boat_10_n04273569_15906.png,n04273569_15906.png,1.0,2.8418012,1.6021868,0.87653977
alexnet_w1_mlp_simclrhn_probe3,1,178,NaN,bird,car,150,0178_ps_dnn_150_car_10_n02814533_85659.png,n02814533_85659.png,0.0,-0.55717665,0.31692228,-0.6180813
alexnet_w1_mlp_simclrhn_probe3,1,179,NaN,oven,car,150,0179_ps_dnn_150_car_10_n02814533_87140.png,n02814533_87140.png,0.0,-1.0545484,0.9985882,-1.4517869
alexnet_w1_mlp_simclrhn_probe3,1,180,NaN,keyboard,keyboard,30,0180_ps_dnn_30_keyboard_10_n03085013_7520.png,n03085013_7520.png,1.0,5.0633254,1.4278038,2.570702
alexnet_w1_mlp_simclrhn_probe3,1,181,NaN,bear,dog,90,0181_ps_dnn_90_dog_10_n02112018_10082.png,n02112018_10082.png,0.0,0.04012178,1.2388432,-0.84762406
alexnet_w1_mlp_simclrhn_probe3,1,182,NaN,bear,bear,90,0182_ps_dnn_90_bear_10_n02134084_5733.png,n02134084_5733.png,1.0,1.0220908,1.0035884,0.01308314
alexnet_w1_mlp_simclrhn_probe3,1,183,NaN,bear,cat,90,0183_ps_dnn_90_cat_10_n02123597_3821.png,n02123597_3821.png,0.0,0.8291004,1.6237907,-0.56193095
alexnet_w1_mlp_simclrhn_probe3,1,184,NaN,bear,boat,120,0184_ps_dnn_120_boat_10_n04612504_15256.png,n04612504_15256.png,0.0,0.07993798,1.0120692,-0.6591163
alexnet_w1_mlp_simclrhn_probe3,1,185,NaN,oven,car,90,0185_ps_dnn_90_car_10_n02814533_84296.png,n02814533_84296.png,0.0,-1.1687927,2.2611296,-2.4253213
alexnet_w1_mlp_simclrhn_probe3,1,186,NaN,bear,clock,120,0186_ps_dnn_120_clock_10_n04548280_5295.png,n04548280_5295.png,0.0,0.031160405,1.0082278,-0.690891
alexnet_w1_mlp_simclrhn_probe3,1,187,NaN,airplane,airplane,30,0187_ps_dnn_30_airplane_10_n02690373_11799.png,n02690373_11799.png,1.0,3.2889266,0.62473565,1.8838675
alexnet_w1_mlp_simclrhn_probe3,1,188,NaN,bear,dog,120,0188_ps_dnn_120_dog_10_n02092002_9876.png,n02092002_9876.png,0.0,0.23124018,0.8627293,-0.44653028
alexnet_w1_mlp_simclrhn_probe3,1,189,NaN,chair,chair,0,0189_ps_dnn_0_chair_10_n02791124_16885.png,n02791124_16885.png,1.0,3.4055207,2.4345217,0.68659997
alexnet_w1_mlp_simclrhn_probe3,1,190,NaN,bicycle,airplane,60,0190_ps_dnn_60_airplane_10_n02690373_9376.png,n02690373_9376.png,0.0,0.06672175,0.9854485,-0.64963794
alexnet_w1_mlp_simclrhn_probe3,1,191,NaN,knife,oven,180,0191_ps_dnn_180_oven_10_n04111531_6474.png,n04111531_6474.png,0.0,-0.28482842,0.3117028,-0.42181128
alexnet_w1_mlp_simclrhn_probe3,1,192,NaN,bear,knife,180,0192_ps_dnn_180_knife_10_n03041632_44230.png,n03041632_44230.png,0.0,0.5981991,0.60255116,-0.0030773522
alexnet_w1_mlp_simclrhn_probe3,1,193,NaN,bear,dog,180,0193_ps_dnn_180_dog_10_n02099601_6318.png,n02099601_6318.png,0.0,-0.025625745,0.5860699,-0.43253416
alexnet_w1_mlp_simclrhn_probe3,1,194,NaN,bear,cat,150,0194_ps_dnn_150_cat_10_n02125311_20241.png,n02125311_20241.png,0.0,0.2629713,0.5748186,-0.22050935
alexnet_w1_mlp_simclrhn_probe3,1,195,NaN,bear,truck,120,0195_ps_dnn_120_truck_10_n04467665_51397.png,n04467665_51397.png,0.0,-1.0092707,0.91341233,-1.3595423
alexnet_w1_mlp_simclrhn_probe3,1,196,NaN,elephant,dog,0,0196_ps_dnn_0_dog_10_n02104365_1500.png,n02104365_1500.png,0.0,1.3180969,1.4724858,-0.109169446
alexnet_w1_mlp_simclrhn_probe3,1,197,NaN,knife,knife,90,0197_ps_dnn_90_knife_10_n03041632_3171.png,n03041632_3171.png,1.0,0.8990437,0.75027394,0.10519609
alexnet_w1_mlp_simclrhn_probe3,1,198,NaN,oven,oven,60,0198_ps_dnn_60_oven_10_n04111531_249.png,n04111531_249.png,1.0,2.77331,0.7671254,1.4185867
alexnet_w1_mlp_simclrhn_probe3,1,199,NaN,bicycle,bear,90,0199_ps_dnn_90_bear_10_n02133161_8856.png,n02133161_8856.png,0.0,0.2978774,0.40296426,-0.074307635
alexnet_w1_mlp_simclrhn_probe3,1,200,NaN,cat,cat,0,0200_ps_dnn_0_cat_10_n02123045_13354.png,n02123045_13354.png,1.0,15.015381,0.1841418,10.487269
alexnet_w1_mlp_simclrhn_probe3,1,201,NaN,keyboard,keyboard,120,0201_ps_dnn_120_keyboard_10_n03085013_23267.png,n03085013_23267.png,1.0,0.7533412,0.6263987,0.08976191
alexnet_w1_mlp_simclrhn_probe3,1,202,NaN,truck,truck,30,0202_ps_dnn_30_truck_10_n03796401_22643.png,n03796401_22643.png,1.0,2.7875285,2.7130537,0.052661646
alexnet_w1_mlp_simclrhn_probe3,1,203,NaN,knife,elephant,180,0203_ps_dnn_180_elephant_10_n02504458_4572.png,n02504458_4572.png,0.0,-0.045254476,0.98609805,-0.72927636
alexnet_w1_mlp_simclrhn_probe3,1,204,NaN,bear,truck,180,0204_ps_dnn_180_truck_10_n04467665_23173.png,n04467665_23173.png,0.0,-0.669234,0.63447154,-0.92185897
alexnet_w1_mlp_simclrhn_probe3,1,205,NaN,knife,bear,180,0205_ps_dnn_180_bear_10_n02134418_25040.png,n02134418_25040.png,0.0,0.40772486,0.4220107,-0.010101609
alexnet_w1_mlp_simclrhn_probe3,1,206,NaN,bicycle,bicycle,60,0206_ps_dnn_60_bicycle_10_n02835271_21185.png,n02835271_21185.png,1.0,3.7098196,0.80867225,2.051421
alexnet_w1_mlp_simclrhn_probe3,1,207,NaN,chair,boat,30,0207_ps_dnn_30_boat_10_n02951358_12664.png,n02951358_12664.png,0.0,0.1414254,1.0897441,-0.6705626
alexnet_w1_mlp_simclrhn_probe3,1,208,NaN,bottle,bottle,30,0208_ps_dnn_30_bottle_10_n03983396_11519.png,n03983396_11519.png,1.0,5.343493,3.1528354,1.5490289
alexnet_w1_mlp_simclrhn_probe3,1,209,NaN,knife,knife,120,0209_ps_dnn_120_knife_10_n03041632_36280.png,n03041632_36280.png,1.0,0.4774094,0.1966096,0.19855545
alexnet_w1_mlp_simclrhn_probe3,1,210,NaN,boat,truck,60,0210_ps_dnn_60_truck_10_n04467665_67115.png,n04467665_67115.png,0.0,0.058255453,1.704787,-1.1642736
alexnet_w1_mlp_simclrhn_probe3,1,211,NaN,bear,bear,30,0211_ps_dnn_30_bear_10_n02133161_1560.png,n02133161_1560.png,1.0,1.4258274,1.0829456,0.24245405
alexnet_w1_mlp_simclrhn_probe3,1,212,NaN,oven,truck,180,0212_ps_dnn_180_truck_10_n03417042_6780.png,n03417042_6780.png,0.0,-0.45835,1.3603458,-1.2860122
alexnet_w1_mlp_simclrhn_probe3,1,213,NaN,knife,bear,150,0213_ps_dnn_150_bear_10_n02134084_20261.png,n02134084_20261.png,0.0,0.3656826,0.46791476,-0.07228906
alexnet_w1_mlp_simclrhn_probe3,1,214,NaN,keyboard,chair,180,0214_ps_dnn_180_chair_10_n03376595_8377.png,n03376595_8377.png,0.0,-0.15995535,1.0652456,-0.86634797
alexnet_w1_mlp_simclrhn_probe3,1,215,NaN,knife,bird,180,0215_ps_dnn_180_bird_10_n01824575_3556.png,n01824575_3556.png,0.0,0.11683859,0.42290565,-0.2164221
alexnet_w1_mlp_simclrhn_probe3,1,216,NaN,cat,chair,90,0216_ps_dnn_90_chair_10_n04099969_36004.png,n04099969_36004.png,0.0,0.20919645,0.6787307,-0.33201087
alexnet_w1_mlp_simclrhn_probe3,1,217,NaN,bicycle,bicycle,0,0217_ps_dnn_0_bicycle_10_n02835271_22549.png,n02835271_22549.png,1.0,15.170118,3.9690423,7.920357
alexnet_w1_mlp_simclrhn_probe3,1,218,NaN,knife,clock,150,0218_ps_dnn_150_clock_10_n04548280_8535.png,n04548280_8535.png,0.0,0.20228088,0.4561009,-0.17947787
alexnet_w1_mlp_simclrhn_probe3,1,219,NaN,bear,knife,120,0219_ps_dnn_120_knife_10_n03041632_14546.png,n03041632_14546.png,0.0,0.4207668,1.1717627,-0.5310343
alexnet_w1_mlp_simclrhn_probe3,1,220,NaN,keyboard,keyboard,0,0220_ps_dnn_0_keyboard_10_n04505470_4974.png,n04505470_4974.png,1.0,14.718509,2.9976375,8.287908
alexnet_w1_mlp_simclrhn_probe3,1,221,NaN,clock,clock,0,0221_ps_dnn_0_clock_10_n04548280_487.png,n04548280_487.png,1.0,5.0961366,0.80413616,3.0349026
alexnet_w1_mlp_simclrhn_probe3,1,222,NaN,truck,truck,30,0222_ps_dnn_30_truck_10_n03417042_10401.png,n03417042_10401.png,1.0,7.67518,2.050892,3.9769719
alexnet_w1_mlp_simclrhn_probe3,1,223,NaN,keyboard,clock,180,0223_ps_dnn_180_clock_10_n03196217_6257.png,n03196217_6257.png,0.0,0.15978414,1.6483171,-1.0525519
alexnet_w1_mlp_simclrhn_probe3,1,224,NaN,bear,elephant,120,0224_ps_dnn_120_elephant_10_n02504458_1698.png,n02504458_1698.png,0.0,0.45287672,1.0321496,-0.40960777
alexnet_w1_mlp_simclrhn_probe3,1,225,NaN,knife,keyboard,180,0225_ps_dnn_180_keyboard_10_n03085013_23014.png,n03085013_23014.png,0.0,0.006324485,0.5866706,-0.41036668
alexnet_w1_mlp_simclrhn_probe3,1,226,NaN,elephant,cat,60,0226_ps_dnn_60_cat_10_n02125311_17002.png,n02125311_17002.png,0.0,1.7720288,3.3209498,-1.0952525
alexnet_w1_mlp_simclrhn_probe3,1,227,NaN,knife,boat,180,0227_ps_dnn_180_boat_10_n03344393_5566.png,n03344393_5566.png,0.0,0.14299224,0.3929114,-0.17671953
alexnet_w1_mlp_simclrhn_probe3,1,228,NaN,knife,bicycle,150,0228_ps_dnn_150_bicycle_10_n02835271_4887.png,n02835271_4887.png,0.0,-0.46622533,0.5637756,-0.72832066
alexnet_w1_mlp_simclrhn_probe3,1,229,NaN,oven,keyboard,120,0229_ps_dnn_120_keyboard_10_n04505470_8386.png,n04505470_8386.png,0.0,0.28386897,1.0355704,-0.5315332
alexnet_w1_mlp_simclrhn_probe3,1,230,NaN,bear,bear,120,0230_ps_dnn_120_bear_10_n02133161_361.png,n02133161_361.png,1.0,1.167497,0.7141378,0.3205734
alexnet_w1_mlp_simclrhn_probe3,1,231,NaN,cat,bottle,0,0231_ps_dnn_0_bottle_10_n04560804_2165.png,n04560804_2165.png,0.0,0.15827885,1.3475323,-0.8409292
alexnet_w1_mlp_simclrhn_probe3,1,232,NaN,knife,cat,150,0232_ps_dnn_150_cat_10_n02124075_14020.png,n02124075_14020.png,0.0,0.15888026,0.67722535,-0.36652535
alexnet_w1_mlp_simclrhn_probe3,1,233,NaN,keyboard,clock,150,0233_ps_dnn_150_clock_10_n04548280_3301.png,n04548280_3301.png,0.0,0.07309177,0.6132452,-0.38194618
alexnet_w1_mlp_simclrhn_probe3,1,234,NaN,bear,knife,180,0234_ps_dnn_180_knife_10_n03041632_5820.png,n03041632_5820.png,0.0,0.38846916,0.82532537,-0.308904
alexnet_w1_mlp_simclrhn_probe3,1,235,NaN,knife,oven,120,0235_ps_dnn_120_oven_10_n04111531_2922.png,n04111531_2922.png,0.0,0.38787153,0.50490487,-0.08275507
alexnet_w1_mlp_simclrhn_probe3,1,236,NaN,bear,bear,120,0236_ps_dnn_120_bear_10_n02134084_7441.png,n02134084_7441.png,1.0,0.2848839,0.24326256,0.029430723
alexnet_w1_mlp_simclrhn_probe3,1,237,NaN,oven,airplane,150,0237_ps_dnn_150_airplane_10_n02690373_8252.png,n02690373_8252.png,0.0,-0.8531549,0.90444624,-1.2428117
alexnet_w1_mlp_simclrhn_probe3,1,238,NaN,keyboard,bird,150,0238_ps_dnn_150_bird_10_n02018207_69.png,n02018207_69.png,0.0,-0.043035265,0.60215443,-0.45621803
alexnet_w1_mlp_simclrhn_probe3,1,239,NaN,bird,bird,30,0239_ps_dnn_30_bird_10_n01798484_5355.png,n01798484_5355.png,1.0,0.74341744,0.31693438,0.30156907
alexnet_w1_mlp_simclrhn_probe3,1,240,NaN,keyboard,keyboard,150,0240_ps_dnn_150_keyboard_10_n03085013_4999.png,n03085013_4999.png,1.0,1.4495419,1.0457984,0.28548977
alexnet_w1_mlp_simclrhn_probe3,1,241,NaN,bear,dog,120,0241_ps_dnn_120_dog_10_n02111500_3041.png,n02111500_3041.png,0.0,-0.14174643,0.50211984,-0.45528224
alexnet_w1_mlp_simclrhn_probe3,1,242,NaN,boat,boat,0,0242_ps_dnn_0_boat_10_n04612504_15237.png,n04612504_15237.png,1.0,8.403485,2.4940963,4.1785693
alexnet_w1_mlp_simclrhn_probe3,1,243,NaN,knife,truck,150,0243_ps_dnn_150_truck_10_n03417042_6480.png,n03417042_6480.png,0.0,-0.8184072,1.0202926,-1.3001572
alexnet_w1_mlp_simclrhn_probe3,1,244,NaN,knife,airplane,180,0244_ps_dnn_180_airplane_10_n02690373_8382.png,n02690373_8382.png,0.0,-0.4211401,0.25187498,-0.47589356
alexnet_w1_mlp_simclrhn_probe3,1,245,NaN,bear,bottle,120,0245_ps_dnn_120_bottle_10_n04591713_2345.png,n04591713_2345.png,0.0,0.23017749,0.8620622,-0.44680995
alexnet_w1_mlp_simclrhn_probe3,1,246,NaN,elephant,elephant,60,0246_ps_dnn_60_elephant_10_n02504458_9516.png,n02504458_9516.png,1.0,3.682532,1.8350365,1.3063767
alexnet_w1_mlp_simclrhn_probe3,1,247,NaN,knife,elephant,180,0247_ps_dnn_180_elephant_10_n02504013_698.png,n02504013_698.png,0.0,-0.041616477,0.7923464,-0.5897008
alexnet_w1_mlp_simclrhn_probe3,1,248,NaN,bear,bear,0,0248_ps_dnn_0_bear_10_n02133161_5292.png,n02133161_5292.png,1.0,6.312316,3.6672134,1.8703699
alexnet_w1_mlp_simclrhn_probe3,1,249,NaN,bear,boat,90,0249_ps_dnn_90_boat_10_n02951358_14341.png,n02951358_14341.png,0.0,0.6,1.3538514,-0.53305346
alexnet_w1_mlp_simclrhn_probe3,1,250,NaN,knife,bear,120,0250_ps_dnn_120_bear_10_n02133161_2304.png,n02133161_2304.png,0.0,0.32698524,0.48331723,-0.11054341
alexnet_w1_mlp_simclrhn_probe3,1,251,NaN,bear,airplane,150,0251_ps_dnn_150_airplane_10_n02690373_1751.png,n02690373_1751.png,0.0,-0.11615371,0.6292337,-0.5270685
alexnet_w1_mlp_simclrhn_probe3,1,252,NaN,knife,truck,150,0252_ps_dnn_150_truck_10_n04467665_48953.png,n04467665_48953.png,0.0,-0.6553333,0.7374141,-0.98482114
alexnet_w1_mlp_simclrhn_probe3,1,253,NaN,oven,oven,0,0253_ps_dnn_0_oven_10_n04111531_10077.png,n04111531_10077.png,1.0,9.938483,1.6020656,5.8947377
alexnet_w1_mlp_simclrhn_probe3,1,254,NaN,bear,dog,150,0254_ps_dnn_150_dog_10_n02097209_821.png,n02097209_821.png,0.0,-0.23915745,0.39302784,-0.4470225
alexnet_w1_mlp_simclrhn_probe3,1,255,NaN,truck,truck,0,0255_ps_dnn_0_truck_10_n04467665_13231.png,n04467665_13231.png,1.0,1.503808,1.4968512,0.004919212
alexnet_w1_mlp_simclrhn_probe3,1,256,NaN,dog,dog,90,0256_ps_dnn_90_dog_10_n02107908_3447.png,n02107908_3447.png,1.0,0.3391396,0.30465004,0.02438781
alexnet_w1_mlp_simclrhn_probe3,1,257,NaN,boat,elephant,180,0257_ps_dnn_180_elephant_10_n02504013_5021.png,n02504013_5021.png,0.0,0.45501584,0.8916227,-0.30872768
alexnet_w1_mlp_simclrhn_probe3,1,258,NaN,oven,knife,90,0258_ps_dnn_90_knife_10_n03041632_12242.png,n03041632_12242.png,0.0,0.4307425,0.567733,-0.096866906
alexnet_w1_mlp_simclrhn_probe3,1,259,NaN,knife,keyboard,150,0259_ps_dnn_150_keyboard_10_n03085013_22821.png,n03085013_22821.png,0.0,0.40330046,0.8365084,-0.30632427
alexnet_w1_mlp_simclrhn_probe3,1,260,NaN,knife,cat,150,0260_ps_dnn_150_cat_10_n02124075_2080.png,n02124075_2080.png,0.0,-0.043218065,0.30677187,-0.24748027
alexnet_w1_mlp_simclrhn_probe3,1,261,NaN,bear,bicycle,180,0261_ps_dnn_180_bicycle_10_n02835271_7296.png,n02835271_7296.png,0.0,0.21129102,0.6156781,-0.28594485
alexnet_w1_mlp_simclrhn_probe3,1,262,NaN,knife,boat,180,0262_ps_dnn_180_boat_10_n04612504_4302.png,n04612504_4302.png,0.0,-0.04558002,0.7151513,-0.53791827
alexnet_w1_mlp_simclrhn_probe3,1,263,NaN,bear,clock,150,0263_ps_dnn_150_clock_10_n04548280_4524.png,n04548280_4524.png,0.0,-0.115270704,0.58078706,-0.4921872
alexnet_w1_mlp_simclrhn_probe3,1,264,NaN,bear,knife,150,0264_ps_dnn_150_knife_10_n03041632_19275.png,n03041632_19275.png,0.0,-0.2261843,0.8550407,-0.76454157
alexnet_w1_mlp_simclrhn_probe3,1,265,NaN,bird,bird,30,0265_ps_dnn_30_bird_10_n01796340_2973.png,n01796340_2973.png,1.0,2.2922068,0.20927909,1.4728523
alexnet_w1_mlp_simclrhn_probe3,1,266,NaN,oven,chair,90,0266_ps_dnn_90_chair_10_n02791124_15407.png,n02791124_15407.png,0.0,-0.1454537,1.9432517,-1.4769379
alexnet_w1_mlp_simclrhn_probe3,1,267,NaN,dog,dog,30,0267_ps_dnn_30_dog_10_n02109525_72594.png,n02109525_72594.png,1.0,3.0020988,0.45253313,1.8028153
alexnet_w1_mlp_simclrhn_probe3,1,268,NaN,bear,knife,150,0268_ps_dnn_150_knife_10_n03041632_19614.png,n03041632_19614.png,0.0,0.20715508,0.2072716,-8.239709e-05
alexnet_w1_mlp_simclrhn_probe3,1,269,NaN,keyboard,keyboard,30,0269_ps_dnn_30_keyboard_10_n04505470_5111.png,n04505470_5111.png,1.0,9.205398,1.6674236,5.3301525
alexnet_w1_mlp_simclrhn_probe3,1,270,NaN,bicycle,bicycle,30,0270_ps_dnn_30_bicycle_10_n03792782_8374.png,n03792782_8374.png,1.0,5.5226316,0.97371703,3.2165682
alexnet_w1_mlp_simclrhn_probe3,1,271,NaN,bear,boat,120,0271_ps_dnn_120_boat_10_n04612504_2024.png,n04612504_2024.png,0.0,0.16898164,0.88010734,-0.50284183
alexnet_w1_mlp_simclrhn_probe3,1,272,NaN,bicycle,bicycle,30,0272_ps_dnn_30_bicycle_10_n02835271_9860.png,n02835271_9860.png,1.0,3.1738691,2.2526784,0.65138024
alexnet_w1_mlp_simclrhn_probe3,1,273,NaN,bear,bear,60,0273_ps_dnn_60_bear_10_n02134084_21921.png,n02134084_21921.png,1.0,3.0430183,3.0415921,0.0010084898
alexnet_w1_mlp_simclrhn_probe3,1,274,NaN,bear,bear,90,0274_ps_dnn_90_bear_10_n02134418_836.png,n02134418_836.png,1.0,1.7921655,1.1913967,0.4248077
alexnet_w1_mlp_simclrhn_probe3,1,275,NaN,oven,chair,60,0275_ps_dnn_60_chair_10_n04429376_6141.png,n04429376_6141.png,0.0,0.5946912,1.9776568,-0.9779043
alexnet_w1_mlp_simclrhn_probe3,1,276,NaN,truck,truck,30,0276_ps_dnn_30_truck_10_n04467665_6523.png,n04467665_6523.png,1.0,3.7647314,3.2512646,0.36307588
alexnet_w1_mlp_simclrhn_probe3,1,277,NaN,oven,chair,90,0277_ps_dnn_90_chair_10_n04429376_41755.png,n04429376_41755.png,0.0,0.42641458,0.70758605,-0.19881825
alexnet_w1_mlp_simclrhn_probe3,1,278,NaN,knife,bottle,180,0278_ps_dnn_180_bottle_10_n04579145_3302.png,n04579145_3302.png,0.0,-0.1117155,0.7283462,-0.59401333
alexnet_w1_mlp_simclrhn_probe3,1,279,NaN,cat,cat,0,0279_ps_dnn_0_cat_10_n02123045_12297.png,n02123045_12297.png,1.0,9.180299,0.93733126,5.8286586
alexnet_w1_mlp_simclrhn_probe3,1,280,NaN,clock,clock,60,0280_ps_dnn_60_clock_10_n04548280_5734.png,n04548280_5734.png,1.0,0.89164203,0.8242477,0.04765498
alexnet_w1_mlp_simclrhn_probe3,1,281,NaN,oven,elephant,90,0281_ps_dnn_90_elephant_10_n02504013_3640.png,n02504013_3640.png,0.0,0.64788234,1.4338905,-0.5557917
alexnet_w1_mlp_simclrhn_probe3,1,282,NaN,knife,car,0,0282_ps_dnn_0_car_10_n03100240_2108.png,n03100240_2108.png,0.0,0.80145127,1.692718,-0.6302208
alexnet_w1_mlp_simclrhn_probe3,1,283,NaN,oven,car,90,0283_ps_dnn_90_car_10_n02814533_8499.png,n02814533_8499.png,0.0,-0.79041797,1.3248615,-1.4957285
alexnet_w1_mlp_simclrhn_probe3,1,284,NaN,bear,knife,180,0284_ps_dnn_180_knife_10_n03041632_9406.png,n03041632_9406.png,0.0,0.17401044,0.74146724,-0.40125254
alexnet_w1_mlp_simclrhn_probe3,1,285,NaN,oven,clock,120,0285_ps_dnn_120_clock_10_n04548280_3968.png,n04548280_3968.png,0.0,0.11254579,0.37891322,-0.18835023
alexnet_w1_mlp_simclrhn_probe3,1,286,NaN,cat,boat,120,0286_ps_dnn_120_boat_10_n04273569_20587.png,n04273569_20587.png,0.0,0.21638298,0.39763844,-0.12816697
alexnet_w1_mlp_simclrhn_probe3,1,287,NaN,knife,truck,150,0287_ps_dnn_150_truck_10_n03796401_7261.png,n03796401_7261.png,0.0,-0.5641346,0.37671775,-0.6652831
alexnet_w1_mlp_simclrhn_probe3,1,288,NaN,bear,boat,90,0288_ps_dnn_90_boat_10_n04273569_18037.png,n04273569_18037.png,0.0,0.4466948,1.7913892,-0.9508425
alexnet_w1_mlp_simclrhn_probe3,1,289,NaN,keyboard,bicycle,180,0289_ps_dnn_180_bicycle_10_n02835271_4789.png,n02835271_4789.png,0.0,-0.21119615,0.21165463,-0.29900065
alexnet_w1_mlp_simclrhn_probe3,1,290,NaN,oven,chair,90,0290_ps_dnn_90_chair_10_n04099969_18380.png,n04099969_18380.png,0.0,-0.47659028,0.7642609,-0.8774143
alexnet_w1_mlp_simclrhn_probe3,1,291,NaN,bear,dog,120,0291_ps_dnn_120_dog_10_n02100583_13688.png,n02100583_13688.png,0.0,-0.022032015,1.0879403,-0.784869
alexnet_w1_mlp_simclrhn_probe3,1,292,NaN,knife,boat,180,0292_ps_dnn_180_boat_10_n03662601_8065.png,n03662601_8065.png,0.0,-0.15595157,0.40703312,-0.3980903
alexnet_w1_mlp_simclrhn_probe3,1,293,NaN,boat,boat,0,0293_ps_dnn_0_boat_10_n02951358_15218.png,n02951358_15218.png,1.0,6.08491,2.6125996,2.4552941
alexnet_w1_mlp_simclrhn_probe3,1,294,NaN,bear,knife,180,0294_ps_dnn_180_knife_10_n03041632_24277.png,n03041632_24277.png,0.0,0.4806983,0.78978884,-0.21856003
alexnet_w1_mlp_simclrhn_probe3,1,295,NaN,bear,bird,90,0295_ps_dnn_90_bird_10_n01601694_2723.png,n01601694_2723.png,0.0,0.33137855,1.5971038,-0.8950029
alexnet_w1_mlp_simclrhn_probe3,1,296,NaN,keyboard,keyboard,120,0296_ps_dnn_120_keyboard_10_n04505470_4724.png,n04505470_4724.png,1.0,2.9887073,0.6821277,1.6309981
alexnet_w1_mlp_simclrhn_probe3,1,297,NaN,knife,bear,150,0297_ps_dnn_150_bear_10_n02134418_1642.png,n02134418_1642.png,0.0,0.7204701,0.93471336,-0.1514929
alexnet_w1_mlp_simclrhn_probe3,1,298,NaN,oven,truck,60,0298_ps_dnn_60_truck_10_n03417042_13055.png,n03417042_13055.png,0.0,-0.18185912,2.0231698,-1.5591909
alexnet_w1_mlp_simclrhn_probe3,1,299,NaN,knife,bear,120,0299_ps_dnn_120_bear_10_n02133161_1629.png,n02133161_1629.png,0.0,0.31005916,0.6485406,-0.23934254
alexnet_w1_mlp_simclrhn_probe3,1,300,NaN,knife,bottle,180,0300_ps_dnn_180_bottle_10_n04579145_1856.png,n04579145_1856.png,0.0,-0.25832027,0.83686024,-0.7744096
alexnet_w1_mlp_simclrhn_probe3,1,301,NaN,knife,chair,150,0301_ps_dnn_150_chair_10_n04099969_3768.png,n04099969_3768.png,0.0,-0.4954964,0.44442567,-0.6646253
alexnet_w1_mlp_simclrhn_probe3,1,302,NaN,bear,bird,120,0302_ps_dnn_120_bird_10_n02009229_5172.png,n02009229_5172.png,0.0,-0.12370273,0.6394174,-0.5396074
alexnet_w1_mlp_simclrhn_probe3,1,303,NaN,oven,airplane,90,0303_ps_dnn_90_airplane_10_n02690373_21731.png,n02690373_21731.png,0.0,0.5482661,1.961674,-0.99943024
alexnet_w1_mlp_simclrhn_probe3,1,304,NaN,bicycle,bear,30,0304_ps_dnn_30_bear_10_n02133161_959.png,n02133161_959.png,0.0,0.6069516,0.6646863,-0.04082462
alexnet_w1_mlp_simclrhn_probe3,1,305,NaN,chair,chair,0,0305_ps_dnn_0_chair_10_n04099969_1028.png,n04099969_1028.png,1.0,3.000002,2.4848995,0.3642324
alexnet_w1_mlp_simclrhn_probe3,1,306,NaN,bear,knife,180,0306_ps_dnn_180_knife_10_n03041632_44212.png,n03041632_44212.png,0.0,0.38503194,1.0052203,-0.4385394
alexnet_w1_mlp_simclrhn_probe3,1,307,NaN,bear,oven,120,0307_ps_dnn_120_oven_10_n04111531_9344.png,n04111531_9344.png,0.0,0.4722989,0.48295158,-0.00753259
alexnet_w1_mlp_simclrhn_probe3,1,308,NaN,bear,car,180,0308_ps_dnn_180_car_10_n04285008_9080.png,n04285008_9080.png,0.0,-0.7894109,1.2049422,-1.4102206
alexnet_w1_mlp_simclrhn_probe3,1,309,NaN,bicycle,car,60,0309_ps_dnn_60_car_10_n03100240_17349.png,n03100240_17349.png,0.0,2.7260082,3.1293533,-0.28520808
alexnet_w1_mlp_simclrhn_probe3,1,310,NaN,cat,dog,30,0310_ps_dnn_30_dog_10_n02110958_1335.png,n02110958_1335.png,0.0,0.9342042,1.6221018,-0.48641703
alexnet_w1_mlp_simclrhn_probe3,1,311,NaN,oven,elephant,150,0311_ps_dnn_150_elephant_10_n02504013_7305.png,n02504013_7305.png,0.0,-0.12202819,1.1205606,-0.87864304
alexnet_w1_mlp_simclrhn_probe3,1,312,NaN,bear,dog,90,0312_ps_dnn_90_dog_10_n02091244_2626.png,n02091244_2626.png,0.0,0.08285755,1.4649327,-0.97727466
alexnet_w1_mlp_simclrhn_probe3,1,313,NaN,knife,bird,150,0313_ps_dnn_150_bird_10_n01828970_22.png,n01828970_22.png,0.0,-0.19462435,0.10747677,-0.21361777
alexnet_w1_mlp_simclrhn_probe3,1,314,NaN,cat,cat,60,0314_ps_dnn_60_cat_10_n02124075_13587.png,n02124075_13587.png,1.0,1.5406747,1.1135128,0.3020491
alexnet_w1_mlp_simclrhn_probe3,1,315,NaN,bear,knife,120,0315_ps_dnn_120_knife_10_n03041632_13612.png,n03041632_13612.png,0.0,0.25611833,1.2909923,-0.7317664
alexnet_w1_mlp_simclrhn_probe3,1,316,NaN,bear,bicycle,90,0316_ps_dnn_90_bicycle_10_n02835271_2581.png,n02835271_2581.png,0.0,0.8867114,1.7480693,-0.60907197
alexnet_w1_mlp_simclrhn_probe3,1,317,NaN,clock,clock,30,0317_ps_dnn_30_clock_10_n03196217_2536.png,n03196217_2536.png,1.0,2.2581594,1.8238419,0.30710882
alexnet_w1_mlp_simclrhn_probe3,1,318,NaN,cat,cat,90,0318_ps_dnn_90_cat_10_n02124075_15001.png,n02124075_15001.png,1.0,0.73519874,0.58200926,0.108321324
alexnet_w1_mlp_simclrhn_probe3,1,319,NaN,bear,bear,60,0319_ps_dnn_60_bear_10_n02133161_6152.png,n02133161_6152.png,1.0,1.4702142,0.93810725,0.37625647
alexnet_w1_mlp_simclrhn_probe3,1,320,NaN,oven,chair,30,0320_ps_dnn_30_chair_10_n04099969_8401.png,n04099969_8401.png,0.0,1.641334,4.9889483,-2.3671207
alexnet_w1_mlp_simclrhn_probe3,1,321,NaN,cat,oven,150,0321_ps_dnn_150_oven_10_n04111531_7923.png,n04111531_7923.png,0.0,0.1704965,0.8445676,-0.47664022
alexnet_w1_mlp_simclrhn_probe3,1,322,NaN,keyboard,cat,120,0322_ps_dnn_120_cat_10_n02123159_5706.png,n02123159_5706.png,0.0,-0.18047826,0.1602416,-0.24092534
alexnet_w1_mlp_simclrhn_probe3,1,323,NaN,airplane,airplane,30,0323_ps_dnn_30_airplane_10_n02690373_13324.png,n02690373_13324.png,1.0,3.0357687,1.9886386,0.7404328
alexnet_w1_mlp_simclrhn_probe3,1,324,NaN,bird,airplane,150,0324_ps_dnn_150_airplane_10_n02690373_4452.png,n02690373_4452.png,0.0,-0.6733371,0.2600112,-0.6599769
alexnet_w1_mlp_simclrhn_probe3,1,325,NaN,elephant,bird,90,0325_ps_dnn_90_bird_10_n02056570_10881.png,n02056570_10881.png,0.0,0.6486237,1.2964474,-0.45808053
alexnet_w1_mlp_simclrhn_probe3,1,326,NaN,oven,airplane,90,0326_ps_dnn_90_airplane_10_n02690373_19133.png,n02690373_19133.png,0.0,0.41291538,1.1565113,-0.5258018
alexnet_w1_mlp_simclrhn_probe3,1,327,NaN,bottle,bottle,0,0327_ps_dnn_0_bottle_10_n03937543_4850.png,n03937543_4850.png,1.0,4.61364,1.3953519,2.2756732
alexnet_w1_mlp_simclrhn_probe3,1,328,NaN,knife,keyboard,150,0328_ps_dnn_150_keyboard_10_n04505470_2709.png,n04505470_2709.png,0.0,0.046156883,0.7046652,-0.4656357
alexnet_w1_mlp_simclrhn_probe3,1,329,NaN,keyboard,keyboard,90,0329_ps_dnn_90_keyboard_10_n03085013_1797.png,n03085013_1797.png,1.0,2.885042,2.4414692,0.31365332
alexnet_w1_mlp_simclrhn_probe3,1,330,NaN,oven,oven,30,0330_ps_dnn_30_oven_10_n04111531_3902.png,n04111531_3902.png,1.0,2.784923,1.6456531,0.8055855
alexnet_w1_mlp_simclrhn_probe3,1,331,NaN,knife,car,180,0331_ps_dnn_180_car_10_n03100240_6750.png,n03100240_6750.png,0.0,-0.6779027,0.5799159,-0.88941205
alexnet_w1_mlp_simclrhn_probe3,1,332,NaN,bicycle,chair,0,0332_ps_dnn_0_chair_10_n03376595_16306.png,n03376595_16306.png,0.0,2.259651,4.6381946,-1.6818844
alexnet_w1_mlp_simclrhn_probe3,1,333,NaN,bicycle,boat,60,0333_ps_dnn_60_boat_10_n02951358_13017.png,n02951358_13017.png,0.0,-0.096377514,2.3758974,-1.7481625
alexnet_w1_mlp_simclrhn_probe3,1,334,NaN,cat,clock,90,0334_ps_dnn_90_clock_10_n03196217_5827.png,n03196217_5827.png,0.0,0.34317744,1.0538398,-0.5025142
alexnet_w1_mlp_simclrhn_probe3,1,335,NaN,bottle,bottle,0,0335_ps_dnn_0_bottle_10_n02823428_685.png,n02823428_685.png,1.0,1.4916576,1.3712959,0.08510856
alexnet_w1_mlp_simclrhn_probe3,1,336,NaN,bird,airplane,120,0336_ps_dnn_120_airplane_10_n02690373_2092.png,n02690373_2092.png,0.0,-1.1431116,0.8652272,-1.4201101
alexnet_w1_mlp_simclrhn_probe3,1,337,NaN,keyboard,bottle,180,0337_ps_dnn_180_bottle_10_n04557648_3637.png,n04557648_3637.png,0.0,-0.082861684,1.3520017,-1.0146016
alexnet_w1_mlp_simclrhn_probe3,1,338,NaN,bear,bird,90,0338_ps_dnn_90_bird_10_n01819313_5521.png,n01819313_5521.png,0.0,-0.062172458,2.0516882,-1.4947252
alexnet_w1_mlp_simclrhn_probe3,1,339,NaN,elephant,dog,90,0339_ps_dnn_90_dog_10_n02100583_24297.png,n02100583_24297.png,0.0,0.25726184,1.2812464,-0.72406644
alexnet_w1_mlp_simclrhn_probe3,1,340,NaN,bear,bird,60,0340_ps_dnn_60_bird_10_n02018207_12233.png,n02018207_12233.png,0.0,1.3572145,2.7132487,-0.95886105
alexnet_w1_mlp_simclrhn_probe3,1,341,NaN,bear,bird,180,0341_ps_dnn_180_bird_10_n02013706_3032.png,n02013706_3032.png,0.0,0.047587845,0.6216898,-0.40595138
alexnet_w1_mlp_simclrhn_probe3,1,342,NaN,oven,oven,60,0342_ps_dnn_60_oven_10_n04111531_9939.png,n04111531_9939.png,1.0,3.7998328,0.7280046,2.1721108
alexnet_w1_mlp_simclrhn_probe3,1,343,NaN,bear,bird,180,0343_ps_dnn_180_bird_10_n02011460_7629.png,n02011460_7629.png,0.0,-0.06869781,0.038087204,-0.07550841
alexnet_w1_mlp_simclrhn_probe3,1,344,NaN,oven,oven,60,0344_ps_dnn_60_oven_10_n04111531_13542.png,n04111531_13542.png,1.0,2.3400297,1.8253915,0.36390415
alexnet_w1_mlp_simclrhn_probe3,1,345,NaN,bear,bear,90,0345_ps_dnn_90_bear_10_n02134418_270.png,n02134418_270.png,1.0,2.755583,1.5851772,0.8276019
alexnet_w1_mlp_simclrhn_probe3,1,346,NaN,bear,bicycle,90,0346_ps_dnn_90_bicycle_10_n03792782_12561.png,n03792782_12561.png,0.0,1.1734722,1.2034051,-0.02116581
alexnet_w1_mlp_simclrhn_probe3,1,347,NaN,keyboard,elephant,120,0347_ps_dnn_120_elephant_10_n02504458_9213.png,n02504458_9213.png,0.0,-0.04842343,0.56786394,-0.43578097
alexnet_w1_mlp_simclrhn_probe3,1,348,NaN,oven,chair,90,0348_ps_dnn_90_chair_10_n03376595_4155.png,n03376595_4155.png,0.0,0.05766642,1.3507612,-0.9143561
alexnet_w1_mlp_simclrhn_probe3,1,349,NaN,bear,truck,120,0349_ps_dnn_120_truck_10_n04467665_69970.png,n04467665_69970.png,0.0,-0.68158257,1.0983741,-1.2586194
alexnet_w1_mlp_simclrhn_probe3,1,350,NaN,bear,bird,120,0350_ps_dnn_120_bird_10_n02002556_2350.png,n02002556_2350.png,0.0,-0.09239553,0.4617369,-0.39183077
alexnet_w1_mlp_simclrhn_probe3,1,351,NaN,bear,bear,0,0351_ps_dnn_0_bear_10_n02133161_355.png,n02133161_355.png,1.0,7.362961,4.122222,2.2915485
alexnet_w1_mlp_simclrhn_probe3,1,352,NaN,bird,airplane,90,0352_ps_dnn_90_airplane_10_n02690373_3065.png,n02690373_3065.png,0.0,-0.9926982,0.9863801,-1.3994197
alexnet_w1_mlp_simclrhn_probe3,1,353,NaN,bicycle,truck,60,0353_ps_dnn_60_truck_10_n03417042_13289.png,n03417042_13289.png,0.0,1.9576645,2.0082705,-0.035783853
alexnet_w1_mlp_simclrhn_probe3,1,354,NaN,bicycle,oven,0,0354_ps_dnn_0_oven_10_n04111531_21404.png,n04111531_21404.png,0.0,1.8628148,2.4952502,-0.4471994
alexnet_w1_mlp_simclrhn_probe3,1,355,NaN,bear,bear,90,0355_ps_dnn_90_bear_10_n02132136_8358.png,n02132136_8358.png,1.0,1.4912202,0.97453284,0.36535317
alexnet_w1_mlp_simclrhn_probe3,1,356,NaN,oven,oven,90,0356_ps_dnn_90_oven_10_n04111531_274.png,n04111531_274.png,1.0,0.5844588,0.41049913,0.12300809
alexnet_w1_mlp_simclrhn_probe3,1,357,NaN,bear,chair,120,0357_ps_dnn_120_chair_10_n02791124_2773.png,n02791124_2773.png,0.0,-0.39749694,0.67884505,-0.7610887
alexnet_w1_mlp_simclrhn_probe3,1,358,NaN,bear,knife,120,0358_ps_dnn_120_knife_10_n03041632_102828.png,n03041632_102828.png,0.0,0.11198205,0.74910486,-0.45051387
alexnet_w1_mlp_simclrhn_probe3,1,359,NaN,knife,boat,150,0359_ps_dnn_150_boat_10_n02951358_30995.png,n02951358_30995.png,0.0,-0.010896599,0.48659855,-0.3517822
alexnet_w1_mlp_simclrhn_probe3,1,360,NaN,bear,bicycle,150,0360_ps_dnn_150_bicycle_10_n03792782_4544.png,n03792782_4544.png,0.0,-0.5881802,1.1527157,-1.2309994
alexnet_w1_mlp_simclrhn_probe3,1,361,NaN,knife,airplane,120,0361_ps_dnn_120_airplane_10_n02690373_8446.png,n02690373_8446.png,0.0,-0.55803144,0.6309451,-0.84073335
alexnet_w1_mlp_simclrhn_probe3,1,362,NaN,chair,bottle,30,0362_ps_dnn_30_bottle_10_n04557648_900.png,n04557648_900.png,0.0,2.8019047,2.8442883,-0.029969782
alexnet_w1_mlp_simclrhn_probe3,1,363,NaN,knife,airplane,150,0363_ps_dnn_150_airplane_10_n02690373_3407.png,n02690373_3407.png,0.0,-0.6956736,0.51368743,-0.8551474
alexnet_w1_mlp_simclrhn_probe3,1,364,NaN,bear,bottle,120,0364_ps_dnn_120_bottle_10_n03983396_8143.png,n03983396_8143.png,0.0,0.29303735,0.8723583,-0.4096418
alexnet_w1_mlp_simclrhn_probe3,1,365,NaN,car,car,0,0365_ps_dnn_0_car_10_n03100240_9610.png,n03100240_9610.png,1.0,12.401578,4.647777,5.482765
alexnet_w1_mlp_simclrhn_probe3,1,366,NaN,bear,cat,120,0366_ps_dnn_120_cat_10_n02123159_1108.png,n02123159_1108.png,0.0,0.29288128,0.6347862,-0.24176328
alexnet_w1_mlp_simclrhn_probe3,1,367,NaN,clock,clock,0,0367_ps_dnn_0_clock_10_n04548280_2170.png,n04548280_2170.png,1.0,7.8248696,1.2671397,4.6370153
alexnet_w1_mlp_simclrhn_probe3,1,368,NaN,bicycle,keyboard,120,0368_ps_dnn_120_keyboard_10_n04505470_4385.png,n04505470_4385.png,0.0,-0.62498,0.6957468,-0.9338949
alexnet_w1_mlp_simclrhn_probe3,1,369,NaN,knife,airplane,120,0369_ps_dnn_120_airplane_10_n02690373_18383.png,n02690373_18383.png,0.0,-0.4444969,0.17912786,-0.4409693
alexnet_w1_mlp_simclrhn_probe3,1,370,NaN,oven,truck,90,0370_ps_dnn_90_truck_10_n03417042_10243.png,n03417042_10243.png,0.0,-1.1140772,0.8183541,-1.3664353
alexnet_w1_mlp_simclrhn_probe3,1,371,NaN,cat,cat,30,0371_ps_dnn_30_cat_10_n02123045_11826.png,n02123045_11826.png,1.0,10.115409,0.4207144,6.8551846
alexnet_w1_mlp_simclrhn_probe3,1,372,NaN,bird,bird,0,0372_ps_dnn_0_bird_10_n01817953_2257.png,n01817953_2257.png,1.0,2.5591607,2.4226575,0.09652235
alexnet_w1_mlp_simclrhn_probe3,1,373,NaN,boat,boat,0,0373_ps_dnn_0_boat_10_n04612504_18442.png,n04612504_18442.png,1.0,12.067639,5.6000395,4.5732837
alexnet_w1_mlp_simclrhn_probe3,1,374,NaN,boat,airplane,180,0374_ps_dnn_180_airplane_10_n02690373_2874.png,n02690373_2874.png,0.0,-0.4205153,0.635266,-0.7465502
alexnet_w1_mlp_simclrhn_probe3,1,375,NaN,bicycle,bicycle,0,0375_ps_dnn_0_bicycle_10_n02835271_4963.png,n02835271_4963.png,1.0,14.878843,5.0251613,6.967605
alexnet_w1_mlp_simclrhn_probe3,1,376,NaN,bear,boat,180,0376_ps_dnn_180_boat_10_n04273569_568.png,n04273569_568.png,0.0,-0.16263077,0.8366363,-0.70658857
alexnet_w1_mlp_simclrhn_probe3,1,377,NaN,bear,elephant,90,0377_ps_dnn_90_elephant_10_n02504013_2233.png,n02504013_2233.png,0.0,1.5587547,1.8097649,-0.17749101
alexnet_w1_mlp_simclrhn_probe3,1,378,NaN,oven,bottle,60,0378_ps_dnn_60_bottle_10_n02823428_889.png,n02823428_889.png,0.0,0.40790534,1.9549348,-1.0939151
alexnet_w1_mlp_simclrhn_probe3,1,379,NaN,boat,car,90,0379_ps_dnn_90_car_10_n04285008_3096.png,n04285008_3096.png,0.0,-0.52423185,1.8360983,-1.6690054
alexnet_w1_mlp_simclrhn_probe3,1,380,NaN,knife,airplane,120,0380_ps_dnn_120_airplane_10_n02690373_13206.png,n02690373_13206.png,0.0,-0.884192,0.59572256,-1.0464576
alexnet_w1_mlp_simclrhn_probe3,1,381,NaN,oven,keyboard,90,0381_ps_dnn_90_keyboard_10_n03085013_25443.png,n03085013_25443.png,0.0,-0.30409345,2.2994614,-1.8409913
alexnet_w1_mlp_simclrhn_probe3,1,382,NaN,truck,truck,30,0382_ps_dnn_30_truck_10_n04467665_20622.png,n04467665_20622.png,1.0,5.284405,0.6241998,3.2952628
alexnet_w1_mlp_simclrhn_probe3,1,383,NaN,bicycle,bicycle,60,0383_ps_dnn_60_bicycle_10_n02835271_24639.png,n02835271_24639.png,1.0,6.024904,2.1705778,2.72542
alexnet_w1_mlp_simclrhn_probe3,1,384,NaN,knife,knife,30,0384_ps_dnn_30_knife_10_n03041632_25603.png,n03041632_25603.png,1.0,1.6890926,0.54180354,0.8112559
alexnet_w1_mlp_simclrhn_probe3,1,385,NaN,boat,boat,60,0385_ps_dnn_60_boat_10_n04273569_4978.png,n04273569_4978.png,1.0,5.4500356,1.148918,3.0413494
alexnet_w1_mlp_simclrhn_probe3,1,386,NaN,boat,car,60,0386_ps_dnn_60_car_10_n02814533_46401.png,n02814533_46401.png,0.0,0.38102826,1.9623511,-1.1181641
alexnet_w1_mlp_simclrhn_probe3,1,387,NaN,bear,bird,120,0387_ps_dnn_120_bird_10_n01798484_12863.png,n01798484_12863.png,0.0,0.13109852,0.330751,-0.14117563
alexnet_w1_mlp_simclrhn_probe3,1,388,NaN,knife,boat,120,0388_ps_dnn_120_boat_10_n03662601_7885.png,n03662601_7885.png,0.0,-0.019141579,0.4435337,-0.32716084
alexnet_w1_mlp_simclrhn_probe3,1,389,NaN,bicycle,chair,0,0389_ps_dnn_0_chair_10_n03376595_3062.png,n03376595_3062.png,0.0,1.1186054,1.2208306,-0.072284125
alexnet_w1_mlp_simclrhn_probe3,1,390,NaN,bear,airplane,90,0390_ps_dnn_90_airplane_10_n02690373_19118.png,n02690373_19118.png,0.0,-0.7305467,0.7787509,-1.0672346
alexnet_w1_mlp_simclrhn_probe3,1,391,NaN,bear,cat,180,0391_ps_dnn_180_cat_10_n02123597_3944.png,n02123597_3944.png,0.0,0.21131778,0.7485166,-0.37985694
alexnet_w1_mlp_simclrhn_probe3,1,392,NaN,keyboard,keyboard,150,0392_ps_dnn_150_keyboard_10_n04505470_2113.png,n04505470_2113.png,1.0,0.44323468,0.26761398,0.1241826
alexnet_w1_mlp_simclrhn_probe3,1,393,NaN,elephant,bird,30,0393_ps_dnn_30_bird_10_n02056570_4808.png,n02056570_4808.png,0.0,1.5016565,3.0851307,-1.1196853
alexnet_w1_mlp_simclrhn_probe3,1,394,NaN,knife,bear,180,0394_ps_dnn_180_bear_10_n02133161_2316.png,n02133161_2316.png,0.0,0.62837505,0.6288675,-0.00034821726
alexnet_w1_mlp_simclrhn_probe3,1,395,NaN,elephant,dog,0,0395_ps_dnn_0_dog_10_n02106662_15515.png,n02106662_15515.png,0.0,1.1701577,2.7451315,-1.1136746
alexnet_w1_mlp_simclrhn_probe3,1,396,NaN,airplane,airplane,0,0396_ps_dnn_0_airplane_10_n02690373_3899.png,n02690373_3899.png,1.0,7.6618547,5.7877455,1.3251954
alexnet_w1_mlp_simclrhn_probe3,1,397,NaN,boat,boat,0,0397_ps_dnn_0_boat_10_n04273569_2449.png,n04273569_2449.png,1.0,2.050598,1.9878502,0.044369336
alexnet_w1_mlp_simclrhn_probe3,1,398,NaN,oven,bird,120,0398_ps_dnn_120_bird_10_n02007558_7614.png,n02007558_7614.png,0.0,-0.60426694,1.4576783,-1.4580154
alexnet_w1_mlp_simclrhn_probe3,1,399,NaN,bottle,keyboard,90,0399_ps_dnn_90_keyboard_10_n03085013_4914.png,n03085013_4914.png,0.0,1.3942988,2.5011413,-0.78265584
alexnet_w1_mlp_simclrhn_probe3,1,400,NaN,bear,oven,150,0400_ps_dnn_150_oven_10_n04111531_15296.png,n04111531_15296.png,0.0,-0.07706106,0.34955323,-0.30166185
alexnet_w1_mlp_simclrhn_probe3,1,401,NaN,oven,chair,60,0401_ps_dnn_60_chair_10_n04099969_246.png,n04099969_246.png,0.0,0.3262847,2.1317968,-1.2766899
alexnet_w1_mlp_simclrhn_probe3,1,402,NaN,knife,truck,180,0402_ps_dnn_180_truck_10_n04467665_670.png,n04467665_670.png,0.0,-0.81451565,0.5595338,-0.9715997
alexnet_w1_mlp_simclrhn_probe3,1,403,NaN,keyboard,keyboard,90,0403_ps_dnn_90_keyboard_10_n03085013_24192.png,n03085013_24192.png,1.0,2.4023461,0.5489058,1.3105803
alexnet_w1_mlp_simclrhn_probe3,1,404,NaN,knife,bicycle,150,0404_ps_dnn_150_bicycle_10_n03792782_378.png,n03792782_378.png,0.0,-0.027780414,0.23886606,-0.18854754
alexnet_w1_mlp_simclrhn_probe3,1,405,NaN,knife,bird,180,0405_ps_dnn_180_bird_10_n02018207_14738.png,n02018207_14738.png,0.0,-0.06899945,0.25168493,-0.2267581
alexnet_w1_mlp_simclrhn_probe3,1,406,NaN,bird,bird,0,0406_ps_dnn_0_bird_10_n01530575_5222.png,n01530575_5222.png,1.0,0.64609295,0.28196028,0.25748068
alexnet_w1_mlp_simclrhn_probe3,1,407,NaN,bear,bear,30,0407_ps_dnn_30_bear_10_n02134084_10766.png,n02134084_10766.png,1.0,4.0518694,3.1868992,0.6116263
alexnet_w1_mlp_simclrhn_probe3,1,408,NaN,elephant,bird,30,0408_ps_dnn_30_bird_10_n02007558_4009.png,n02007558_4009.png,0.0,0.68488455,2.2669415,-1.1186832
alexnet_w1_mlp_simclrhn_probe3,1,409,NaN,bear,chair,120,0409_ps_dnn_120_chair_10_n04099969_7545.png,n04099969_7545.png,0.0,-0.26635194,0.5445387,-0.57338625
alexnet_w1_mlp_simclrhn_probe3,1,410,NaN,elephant,clock,90,0410_ps_dnn_90_clock_10_n03196217_127.png,n03196217_127.png,0.0,0.19508529,1.2915998,-0.77535284
alexnet_w1_mlp_simclrhn_probe3,1,411,NaN,knife,bottle,150,0411_ps_dnn_150_bottle_10_n04560804_26326.png,n04560804_26326.png,0.0,-0.03622603,0.7795625,-0.5768496
alexnet_w1_mlp_simclrhn_probe3,1,412,NaN,knife,keyboard,30,0412_ps_dnn_30_keyboard_10_n03085013_25066.png,n03085013_25066.png,0.0,1.1898081,1.6831111,-0.34881786
alexnet_w1_mlp_simclrhn_probe3,1,413,NaN,cat,cat,30,0413_ps_dnn_30_cat_10_n02124075_11776.png,n02124075_11776.png,1.0,12.205058,1.063917,7.8779764
alexnet_w1_mlp_simclrhn_probe3,1,414,NaN,keyboard,keyboard,120,0414_ps_dnn_120_keyboard_10_n04505470_2909.png,n04505470_2909.png,1.0,1.2974415,0.83468854,0.32721576
alexnet_w1_mlp_simclrhn_probe3,1,415,NaN,keyboard,keyboard,30,0415_ps_dnn_30_keyboard_10_n04505470_494.png,n04505470_494.png,1.0,4.078305,1.5254328,1.8051531
alexnet_w1_mlp_simclrhn_probe3,1,416,NaN,bear,bear,120,0416_ps_dnn_120_bear_10_n02133161_2270.png,n02133161_2270.png,1.0,0.68506515,0.34788635,0.23842141
alexnet_w1_mlp_simclrhn_probe3,1,417,NaN,bear,chair,120,0417_ps_dnn_120_chair_10_n04099969_13901.png,n04099969_13901.png,0.0,-0.41339993,0.36725557,-0.5520068
alexnet_w1_mlp_simclrhn_probe3,1,418,NaN,oven,car,120,0418_ps_dnn_120_car_10_n02814533_2923.png,n02814533_2923.png,0.0,-0.7585438,1.834535,-1.8335837
alexnet_w1_mlp_simclrhn_probe3,1,419,NaN,oven,bottle,90,0419_ps_dnn_90_bottle_10_n03983396_12757.png,n03983396_12757.png,0.0,1.0513258,1.3899311,-0.2394301
alexnet_w1_mlp_simclrhn_probe3,1,420,NaN,keyboard,knife,30,0420_ps_dnn_30_knife_10_n03041632_15444.png,n03041632_15444.png,0.0,1.1682479,1.4612933,-0.2072144
alexnet_w1_mlp_simclrhn_probe3,1,421,NaN,knife,bicycle,180,0421_ps_dnn_180_bicycle_10_n02835271_5554.png,n02835271_5554.png,0.0,-0.6753881,0.5236937,-0.8478789
alexnet_w1_mlp_simclrhn_probe3,1,422,NaN,keyboard,knife,150,0422_ps_dnn_150_knife_10_n03041632_37618.png,n03041632_37618.png,0.0,0.087880775,0.51033676,-0.2987215
alexnet_w1_mlp_simclrhn_probe3,1,423,NaN,oven,chair,60,0423_ps_dnn_60_chair_10_n03376595_3910.png,n03376595_3910.png,0.0,1.5401053,3.4790149,-1.3710161
alexnet_w1_mlp_simclrhn_probe3,1,424,NaN,bear,dog,30,0424_ps_dnn_30_dog_10_n02086646_7362.png,n02086646_7362.png,0.0,1.9196352,2.3757203,-0.32250085
alexnet_w1_mlp_simclrhn_probe3,1,425,NaN,bear,dog,60,0425_ps_dnn_60_dog_10_n02113712_5829.png,n02113712_5829.png,0.0,0.65241337,2.269435,-1.143407
alexnet_w1_mlp_simclrhn_probe3,1,426,NaN,knife,truck,180,0426_ps_dnn_180_truck_10_n03417042_1149.png,n03417042_1149.png,0.0,-0.75006497,0.7342184,-1.049547
alexnet_w1_mlp_simclrhn_probe3,1,427,NaN,bear,bird,60,0427_ps_dnn_60_bird_10_n02002724_3345.png,n02002724_3345.png,0.0,0.23271072,2.2502205,-1.426595
alexnet_w1_mlp_simclrhn_probe3,1,428,NaN,bear,bird,150,0428_ps_dnn_150_bird_10_n02002556_2917.png,n02002556_2917.png,0.0,-0.13820337,0.44594285,-0.41305375
alexnet_w1_mlp_simclrhn_probe3,1,429,NaN,bear,bottle,180,0429_ps_dnn_180_bottle_10_n04560804_3959.png,n04560804_3959.png,0.0,-0.04040563,0.58271396,-0.4406121
alexnet_w1_mlp_simclrhn_probe3,1,430,NaN,airplane,airplane,30,0430_ps_dnn_30_airplane_10_n02690373_3639.png,n02690373_3639.png,1.0,4.991768,1.0853935,2.762224
alexnet_w1_mlp_simclrhn_probe3,1,431,NaN,bear,bottle,120,0431_ps_dnn_120_bottle_10_n02823428_14453.png,n02823428_14453.png,0.0,-0.25709018,0.8762255,-0.8013752
alexnet_w1_mlp_simclrhn_probe3,1,432,NaN,bottle,bottle,0,0432_ps_dnn_0_bottle_10_n03937543_3253.png,n03937543_3253.png,1.0,7.067584,2.6761892,3.105185
alexnet_w1_mlp_simclrhn_probe3,1,433,NaN,bear,elephant,30,0433_ps_dnn_30_elephant_10_n02504013_7010.png,n02504013_7010.png,0.0,2.2034454,2.6684105,-0.32878
alexnet_w1_mlp_simclrhn_probe3,1,434,NaN,boat,car,150,0434_ps_dnn_150_car_10_n04285008_8813.png,n04285008_8813.png,0.0,-0.8980591,0.9735203,-1.3234065
alexnet_w1_mlp_simclrhn_probe3,1,435,NaN,bear,bear,180,0435_ps_dnn_180_bear_10_n02132136_110.png,n02132136_110.png,1.0,0.5534657,0.45159197,0.072035626
alexnet_w1_mlp_simclrhn_probe3,1,436,NaN,bear,bear,60,0436_ps_dnn_60_bear_10_n02133161_4294.png,n02133161_4294.png,1.0,1.9461291,1.2450022,0.49577162
alexnet_w1_mlp_simclrhn_probe3,1,437,NaN,car,car,0,0437_ps_dnn_0_car_10_n02814533_95144.png,n02814533_95144.png,1.0,12.17349,6.3802495,4.0964394
alexnet_w1_mlp_simclrhn_probe3,1,438,NaN,bear,oven,120,0438_ps_dnn_120_oven_10_n04111531_1220.png,n04111531_1220.png,0.0,0.47661716,0.6924237,-0.15259828
alexnet_w1_mlp_simclrhn_probe3,1,439,NaN,cat,dog,60,0439_ps_dnn_60_dog_10_n02086240_7247.png,n02086240_7247.png,0.0,0.29485503,0.36995625,-0.053104587
alexnet_w1_mlp_simclrhn_probe3,1,440,NaN,airplane,airplane,0,0440_ps_dnn_0_airplane_10_n02690373_4144.png,n02690373_4144.png,1.0,6.4722843,1.1703714,3.7490184
alexnet_w1_mlp_simclrhn_probe3,1,441,NaN,dog,oven,120,0441_ps_dnn_120_oven_10_n04111531_986.png,n04111531_986.png,0.0,-0.0617516,0.26033628,-0.22775052
alexnet_w1_mlp_simclrhn_probe3,1,442,NaN,bicycle,elephant,30,0442_ps_dnn_30_elephant_10_n02504458_6336.png,n02504458_6336.png,0.0,1.8465703,4.9997063,-2.229604
alexnet_w1_mlp_simclrhn_probe3,1,443,NaN,knife,knife,150,0443_ps_dnn_150_knife_10_n03041632_14132.png,n03041632_14132.png,1.0,0.6164892,0.44210124,0.123310894
alexnet_w1_mlp_simclrhn_probe3,1,444,NaN,bear,cat,150,0444_ps_dnn_150_cat_10_n02123159_799.png,n02123159_799.png,0.0,0.032911073,0.89189774,-0.6073953
alexnet_w1_mlp_simclrhn_probe3,1,445,NaN,bear,bird,90,0445_ps_dnn_90_bird_10_n02006656_7456.png,n02006656_7456.png,0.0,0.30896473,1.8649243,-1.1002296
alexnet_w1_mlp_simclrhn_probe3,1,446,NaN,oven,cat,90,0446_ps_dnn_90_cat_10_n02123045_8722.png,n02123045_8722.png,0.0,0.68868756,0.90949863,-0.156137
alexnet_w1_mlp_simclrhn_probe3,1,447,NaN,bear,chair,120,0447_ps_dnn_120_chair_10_n03376595_8302.png,n03376595_8302.png,0.0,-0.6147492,0.58624417,-0.8492305
alexnet_w1_mlp_simclrhn_probe3,1,448,NaN,bottle,bottle,30,0448_ps_dnn_30_bottle_10_n04560804_5769.png,n04560804_5769.png,1.0,4.1941,3.512326,0.48208696
alexnet_w1_mlp_simclrhn_probe3,1,449,NaN,oven,car,90,0449_ps_dnn_90_car_10_n04285008_203.png,n04285008_203.png,0.0,-0.7793272,1.4491789,-1.5757918
alexnet_w1_mlp_simclrhn_probe3,1,450,NaN,knife,airplane,180,0450_ps_dnn_180_airplane_10_n02690373_9959.png,n02690373_9959.png,0.0,-0.44713557,0.6071764,-0.7455112
alexnet_w1_mlp_simclrhn_probe3,1,451,NaN,car,car,0,0451_ps_dnn_0_car_10_n04285008_1867.png,n04285008_1867.png,1.0,14.194379,7.216105,4.934385
alexnet_w1_mlp_simclrhn_probe3,1,452,NaN,knife,airplane,150,0452_ps_dnn_150_airplane_10_n02690373_16250.png,n02690373_16250.png,0.0,-0.7862876,0.15970838,-0.66892016
alexnet_w1_mlp_simclrhn_probe3,1,453,NaN,elephant,elephant,30,0453_ps_dnn_30_elephant_10_n02504458_4696.png,n02504458_4696.png,1.0,4.660685,3.3239384,0.9452227
alexnet_w1_mlp_simclrhn_probe3,1,454,NaN,bicycle,car,60,0454_ps_dnn_60_car_10_n04285008_10755.png,n04285008_10755.png,0.0,-0.93685144,3.6628196,-3.2524586
alexnet_w1_mlp_simclrhn_probe3,1,455,NaN,knife,boat,150,0455_ps_dnn_150_boat_10_n02951358_11586.png,n02951358_11586.png,0.0,-0.0872192,0.59989536,-0.48586336
alexnet_w1_mlp_simclrhn_probe3,1,456,NaN,bottle,bottle,60,0456_ps_dnn_60_bottle_10_n02823428_4108.png,n02823428_4108.png,1.0,2.743298,2.1577473,0.41404694
alexnet_w1_mlp_simclrhn_probe3,1,457,NaN,knife,car,180,0457_ps_dnn_180_car_10_n04285008_11770.png,n04285008_11770.png,0.0,-0.4711152,0.6084024,-0.7633342
alexnet_w1_mlp_simclrhn_probe3,1,458,NaN,boat,boat,90,0458_ps_dnn_90_boat_10_n04273569_32786.png,n04273569_32786.png,1.0,1.5355828,0.8116428,0.51190287
alexnet_w1_mlp_simclrhn_probe3,1,459,NaN,bear,bear,30,0459_ps_dnn_30_bear_10_n02132136_21267.png,n02132136_21267.png,1.0,6.074629,5.3624516,0.5035854
alexnet_w1_mlp_simclrhn_probe3,1,460,NaN,oven,car,90,0460_ps_dnn_90_car_10_n03100240_24001.png,n03100240_24001.png,0.0,-1.3515323,1.5902216,-2.0801342
alexnet_w1_mlp_simclrhn_probe3,1,461,NaN,bear,bottle,150,0461_ps_dnn_150_bottle_10_n03937543_71.png,n03937543_71.png,0.0,-0.11533918,0.5404784,-0.46373305
alexnet_w1_mlp_simclrhn_probe3,1,462,NaN,oven,chair,0,0462_ps_dnn_0_chair_10_n02791124_16127.png,n02791124_16127.png,0.0,2.727456,3.3186865,-0.418063
alexnet_w1_mlp_simclrhn_probe3,1,463,NaN,bird,bird,90,0463_ps_dnn_90_bird_10_n02002724_12183.png,n02002724_12183.png,1.0,2.4354482,2.2716174,0.115845844
alexnet_w1_mlp_simclrhn_probe3,1,464,NaN,elephant,dog,30,0464_ps_dnn_30_dog_10_n02108915_1165.png,n02108915_1165.png,0.0,1.0588329,2.3016067,-0.87877375
alexnet_w1_mlp_simclrhn_probe3,1,465,NaN,boat,dog,180,0465_ps_dnn_180_dog_10_n02099429_4843.png,n02099429_4843.png,0.0,0.15567854,0.7690948,-0.43375084
alexnet_w1_mlp_simclrhn_probe3,1,466,NaN,boat,boat,60,0466_ps_dnn_60_boat_10_n03344393_3499.png,n03344393_3499.png,1.0,3.0101373,2.7622747,0.17526531
alexnet_w1_mlp_simclrhn_probe3,1,467,NaN,bear,truck,120,0467_ps_dnn_120_truck_10_n03417042_20962.png,n03417042_20962.png,0.0,-0.6563231,0.83132315,-1.0519247
alexnet_w1_mlp_simclrhn_probe3,1,468,NaN,cat,dog,30,0468_ps_dnn_30_dog_10_n02097047_4189.png,n02097047_4189.png,0.0,1.6157886,1.7816845,-0.11730614
alexnet_w1_mlp_simclrhn_probe3,1,469,NaN,bicycle,bicycle,60,0469_ps_dnn_60_bicycle_10_n03792782_24591.png,n03792782_24591.png,1.0,8.763706,2.2675703,4.5934615
alexnet_w1_mlp_simclrhn_probe3,1,470,NaN,boat,airplane,60,0470_ps_dnn_60_airplane_10_n02690373_243.png,n02690373_243.png,0.0,-0.103514686,1.0793339,-0.8364003
alexnet_w1_mlp_simclrhn_probe3,1,471,NaN,bear,boat,90,0471_ps_dnn_90_boat_10_n03344393_3072.png,n03344393_3072.png,0.0,0.4452063,0.8372889,-0.27724427
alexnet_w1_mlp_simclrhn_probe3,1,472,NaN,bear,clock,120,0472_ps_dnn_120_clock_10_n02708093_118.png,n02708093_118.png,0.0,0.45360813,0.7543283,-0.21264128
alexnet_w1_mlp_simclrhn_probe3,1,473,NaN,bird,bird,30,0473_ps_dnn_30_bird_10_n01843065_2664.png,n01843065_2664.png,1.0,1.9892536,0.3817895,1.1366488
alexnet_w1_mlp_simclrhn_probe3,1,474,NaN,knife,airplane,150,0474_ps_dnn_150_airplane_10_n02690373_19353.png,n02690373_19353.png,0.0,-0.28053856,0.8048718,-0.76750106
alexnet_w1_mlp_simclrhn_probe3,1,475,NaN,bear,dog,120,0475_ps_dnn_120_dog_10_n02099849_4250.png,n02099849_4250.png,0.0,0.0041016955,0.36738,-0.25687656
alexnet_w1_mlp_simclrhn_probe3,1,476,NaN,oven,truck,90,0476_ps_dnn_90_truck_10_n04467665_29260.png,n04467665_29260.png,0.0,-0.68359447,0.9412899,-1.1489668
alexnet_w1_mlp_simclrhn_probe3,1,477,NaN,bear,elephant,30,0477_ps_dnn_30_elephant_10_n02504013_8308.png,n02504013_8308.png,0.0,3.880587,5.6661835,-1.2626073
alexnet_w1_mlp_simclrhn_probe3,1,478,NaN,knife,boat,150,0478_ps_dnn_150_boat_10_n03344393_6854.png,n03344393_6854.png,0.0,0.120038845,0.63478124,-0.36397782
alexnet_w1_mlp_simclrhn_probe3,1,479,NaN,bear,truck,180,0479_ps_dnn_180_truck_10_n04467665_25129.png,n04467665_25129.png,0.0,-0.7475241,0.9489516,-1.1995895
alexnet_w1_mlp_simclrhn_probe3,1,480,NaN,bird,bird,30,0480_ps_dnn_30_bird_10_n01824575_6272.png,n01824575_6272.png,1.0,0.43345472,0.2343631,0.14077905
alexnet_w1_mlp_simclrhn_probe3,1,481,NaN,bear,chair,180,0481_ps_dnn_180_chair_10_n04099969_19484.png,n04099969_19484.png,0.0,-0.5627568,0.5862098,-0.81244206
alexnet_w1_mlp_simclrhn_probe3,1,482,NaN,bear,oven,120,0482_ps_dnn_120_oven_10_n04111531_5888.png,n04111531_5888.png,0.0,0.30801648,0.99445134,-0.48538277
alexnet_w1_mlp_simclrhn_probe3,1,483,NaN,elephant,chair,60,0483_ps_dnn_60_chair_10_n04099969_16266.png,n04099969_16266.png,0.0,-0.20575869,1.8337666,-1.4421622
alexnet_w1_mlp_simclrhn_probe3,1,484,NaN,oven,truck,150,0484_ps_dnn_150_truck_10_n04467665_68754.png,n04467665_68754.png,0.0,-0.7974117,0.48996848,-0.9103153
alexnet_w1_mlp_simclrhn_probe3,1,485,NaN,oven,cat,180,0485_ps_dnn_180_cat_10_n02123394_7859.png,n02123394_7859.png,0.0,-0.16470139,0.6670748,-0.5881546
alexnet_w1_mlp_simclrhn_probe3,1,486,NaN,oven,car,90,0486_ps_dnn_90_car_10_n04285008_17056.png,n04285008_17056.png,0.0,-0.7441774,1.588742,-1.6496232
alexnet_w1_mlp_simclrhn_probe3,1,487,NaN,bear,cat,120,0487_ps_dnn_120_cat_10_n02123045_12046.png,n02123045_12046.png,0.0,0.2632939,0.36894786,-0.07470864
alexnet_w1_mlp_simclrhn_probe3,1,488,NaN,bear,elephant,180,0488_ps_dnn_180_elephant_10_n02504013_3029.png,n02504013_3029.png,0.0,0.3220803,0.88797945,-0.40015113
alexnet_w1_mlp_simclrhn_probe3,1,489,NaN,boat,boat,120,0489_ps_dnn_120_boat_10_n03662601_7271.png,n03662601_7271.png,1.0,1.5621141,0.80825615,0.5330581
alexnet_w1_mlp_simclrhn_probe3,1,490,NaN,bear,bear,30,0490_ps_dnn_30_bear_10_n02133161_6861.png,n02133161_6861.png,1.0,5.9591436,2.9328985,2.1398785
alexnet_w1_mlp_simclrhn_probe3,1,491,NaN,oven,chair,30,0491_ps_dnn_30_chair_10_n02791124_4192.png,n02791124_4192.png,0.0,1.4110721,2.220693,-0.5724885
alexnet_w1_mlp_simclrhn_probe3,1,492,NaN,oven,boat,60,0492_ps_dnn_60_boat_10_n04273569_1457.png,n04273569_1457.png,0.0,1.2938241,2.620764,-0.9382883
alexnet_w1_mlp_simclrhn_probe3,1,493,NaN,oven,clock,90,0493_ps_dnn_90_clock_10_n04548280_764.png,n04548280_764.png,0.0,0.7122507,0.7359357,-0.01674781
alexnet_w1_mlp_simclrhn_probe3,1,494,NaN,bear,bicycle,120,0494_ps_dnn_120_bicycle_10_n02835271_12346.png,n02835271_12346.png,0.0,0.06503025,0.66286284,-0.42273146
alexnet_w1_mlp_simclrhn_probe3,1,495,NaN,bicycle,bicycle,180,0495_ps_dnn_180_bicycle_10_n03792782_50673.png,n03792782_50673.png,1.0,0.15488954,0.12140097,0.023679996
alexnet_w1_mlp_simclrhn_probe3,1,496,NaN,knife,truck,120,0496_ps_dnn_120_truck_10_n03796401_9198.png,n03796401_9198.png,0.0,-0.58266103,0.71378297,-0.9167243
alexnet_w1_mlp_simclrhn_probe3,1,497,NaN,airplane,airplane,0,0497_ps_dnn_0_airplane_10_n02690373_4110.png,n02690373_4110.png,1.0,6.1065936,2.4646204,2.575264
alexnet_w1_mlp_simclrhn_probe3,1,498,NaN,bear,dog,60,0498_ps_dnn_60_dog_10_n02107683_2484.png,n02107683_2484.png,0.0,0.5742253,1.7861958,-0.85699254
alexnet_w1_mlp_simclrhn_probe3,1,499,NaN,oven,chair,60,0499_ps_dnn_60_chair_10_n02791124_13057.png,n02791124_13057.png,0.0,0.8065735,3.8372183,-2.1429896
alexnet_w1_mlp_simclrhn_probe3,1,500,NaN,bear,bear,120,0500_ps_dnn_120_bear_10_n02134418_14451.png,n02134418_14451.png,1.0,0.65424937,0.414993,0.16917981
alexnet_w1_mlp_simclrhn_probe3,1,501,NaN,bicycle,bird,60,0501_ps_dnn_60_bird_10_n01843383_10059.png,n01843383_10059.png,0.0,0.5702082,1.1861296,-0.4355222
alexnet_w1_mlp_simclrhn_probe3,1,502,NaN,bicycle,bicycle,0,0502_ps_dnn_0_bicycle_10_n03792782_11824.png,n03792782_11824.png,1.0,7.659808,3.2458236,3.1211584
alexnet_w1_mlp_simclrhn_probe3,1,503,NaN,bicycle,bird,30,0503_ps_dnn_30_bird_10_n01532829_2492.png,n01532829_2492.png,0.0,2.5098746,2.603448,-0.06616634
alexnet_w1_mlp_simclrhn_probe3,1,504,NaN,bottle,bottle,0,0504_ps_dnn_0_bottle_10_n04579145_5621.png,n04579145_5621.png,1.0,4.9296727,1.1582763,2.66678
alexnet_w1_mlp_simclrhn_probe3,1,505,NaN,knife,truck,150,0505_ps_dnn_150_truck_10_n03417042_6250.png,n03417042_6250.png,0.0,-0.96946084,0.9201077,-1.3361268
alexnet_w1_mlp_simclrhn_probe3,1,506,NaN,bear,dog,90,0506_ps_dnn_90_dog_10_n02108551_14704.png,n02108551_14704.png,0.0,0.21255021,1.5040765,-0.91324705
alexnet_w1_mlp_simclrhn_probe3,1,507,NaN,boat,boat,30,0507_ps_dnn_30_boat_10_n04612504_8407.png,n04612504_8407.png,1.0,8.330805,1.3548707,4.93273
alexnet_w1_mlp_simclrhn_probe3,1,508,NaN,keyboard,car,120,0508_ps_dnn_120_car_10_n03100240_14794.png,n03100240_14794.png,0.0,-0.34470037,0.6572072,-0.7084557
alexnet_w1_mlp_simclrhn_probe3,1,509,NaN,oven,dog,60,0509_ps_dnn_60_dog_10_n02097658_759.png,n02097658_759.png,0.0,0.27597854,2.273991,-1.4128083
alexnet_w1_mlp_simclrhn_probe3,1,510,NaN,bear,oven,90,0510_ps_dnn_90_oven_10_n04111531_5965.png,n04111531_5965.png,0.0,0.68784845,1.070145,-0.2703245
alexnet_w1_mlp_simclrhn_probe3,1,511,NaN,bear,elephant,180,0511_ps_dnn_180_elephant_10_n02504013_6984.png,n02504013_6984.png,0.0,0.09832494,0.20529643,-0.07564027
alexnet_w1_mlp_simclrhn_probe3,1,512,NaN,bear,oven,180,0512_ps_dnn_180_oven_10_n04111531_6695.png,n04111531_6695.png,0.0,0.5052973,0.5614772,-0.039725177
alexnet_w1_mlp_simclrhn_probe3,1,513,NaN,bicycle,bird,60,0513_ps_dnn_60_bird_10_n02037110_4572.png,n02037110_4572.png,0.0,0.13666697,1.4932477,-0.95924747
alexnet_w1_mlp_simclrhn_probe3,1,514,NaN,oven,truck,30,0514_ps_dnn_30_truck_10_n03796401_11628.png,n03796401_11628.png,0.0,-0.005248025,2.6984706,-1.9118178
alexnet_w1_mlp_simclrhn_probe3,1,515,NaN,bear,chair,180,0515_ps_dnn_180_chair_10_n02791124_1258.png,n02791124_1258.png,0.0,-0.590596,0.9400278,-1.0823145
alexnet_w1_mlp_simclrhn_probe3,1,516,NaN,elephant,knife,0,0516_ps_dnn_0_knife_10_n03041632_62810.png,n03041632_62810.png,0.0,0.44754153,2.8098009,-1.6703696
alexnet_w1_mlp_simclrhn_probe3,1,517,NaN,oven,bird,90,0517_ps_dnn_90_bird_10_n01819313_2770.png,n01819313_2770.png,0.0,0.24250247,0.8481601,-0.42826462
alexnet_w1_mlp_simclrhn_probe3,1,518,NaN,bicycle,bicycle,60,0518_ps_dnn_60_bicycle_10_n02835271_25519.png,n02835271_25519.png,1.0,1.5278661,1.267041,0.18443124
alexnet_w1_mlp_simclrhn_probe3,1,519,NaN,boat,boat,0,0519_ps_dnn_0_boat_10_n03662601_23248.png,n03662601_23248.png,1.0,10.434374,4.0958443,4.4820175
alexnet_w1_mlp_simclrhn_probe3,1,520,NaN,bear,elephant,120,0520_ps_dnn_120_elephant_10_n02504013_1784.png,n02504013_1784.png,0.0,0.75315917,1.3968956,-0.45519045
alexnet_w1_mlp_simclrhn_probe3,1,521,NaN,knife,cat,150,0521_ps_dnn_150_cat_10_n02123394_270.png,n02123394_270.png,0.0,0.06028102,0.62547123,-0.39964983
alexnet_w1_mlp_simclrhn_probe3,1,522,NaN,dog,dog,30,0522_ps_dnn_30_dog_10_n02093647_1022.png,n02093647_1022.png,1.0,1.9316736,0.70919555,0.8644226
alexnet_w1_mlp_simclrhn_probe3,1,523,NaN,boat,boat,30,0523_ps_dnn_30_boat_10_n03662601_4881.png,n03662601_4881.png,1.0,6.4292345,3.4123895,2.1332316
alexnet_w1_mlp_simclrhn_probe3,1,524,NaN,oven,knife,60,0524_ps_dnn_60_knife_10_n03041632_8321.png,n03041632_8321.png,0.0,-0.13710922,1.7813368,-1.3565463
alexnet_w1_mlp_simclrhn_probe3,1,525,NaN,bear,car,120,0525_ps_dnn_120_car_10_n02814533_60400.png,n02814533_60400.png,0.0,-0.50487256,1.1263192,-1.1534268
alexnet_w1_mlp_simclrhn_probe3,1,526,NaN,knife,cat,150,0526_ps_dnn_150_cat_10_n02123597_3280.png,n02123597_3280.png,0.0,-0.0011160225,0.2419613,-0.17188163
alexnet_w1_mlp_simclrhn_probe3,1,527,NaN,bear,dog,150,0527_ps_dnn_150_dog_10_n02110063_3399.png,n02110063_3399.png,0.0,0.04428853,0.5906782,-0.38635588
alexnet_w1_mlp_simclrhn_probe3,1,528,NaN,bear,bear,0,0528_ps_dnn_0_bear_10_n02132136_3109.png,n02132136_3109.png,1.0,2.6917436,2.4670768,0.15886344
alexnet_w1_mlp_simclrhn_probe3,1,529,NaN,bear,bear,0,0529_ps_dnn_0_bear_10_n02134084_16632.png,n02134084_16632.png,1.0,2.459801,2.2093916,0.17706616
alexnet_w1_mlp_simclrhn_probe3,1,530,NaN,keyboard,bottle,150,0530_ps_dnn_150_bottle_10_n04591713_5851.png,n04591713_5851.png,0.0,-0.2893828,1.5910041,-1.3296344
alexnet_w1_mlp_simclrhn_probe3,1,531,NaN,oven,knife,0,0531_ps_dnn_0_knife_10_n03041632_29961.png,n03041632_29961.png,0.0,0.085360326,1.5169599,-1.0122938
alexnet_w1_mlp_simclrhn_probe3,1,532,NaN,elephant,knife,30,0532_ps_dnn_30_knife_10_n03041632_10140.png,n03041632_10140.png,0.0,1.1297807,2.6412182,-1.0687478
alexnet_w1_mlp_simclrhn_probe3,1,533,NaN,knife,airplane,180,0533_ps_dnn_180_airplane_10_n02690373_8765.png,n02690373_8765.png,0.0,-1.0926181,0.7649332,-1.3134872
alexnet_w1_mlp_simclrhn_probe3,1,534,NaN,oven,knife,120,0534_ps_dnn_120_knife_10_n03041632_16826.png,n03041632_16826.png,0.0,0.048134103,0.74550074,-0.4931127
alexnet_w1_mlp_simclrhn_probe3,1,535,NaN,oven,chair,30,0535_ps_dnn_30_chair_10_n04429376_21089.png,n04429376_21089.png,0.0,0.6952545,1.8449992,-0.81299233
alexnet_w1_mlp_simclrhn_probe3,1,536,NaN,bear,bear,60,0536_ps_dnn_60_bear_10_n02134084_15118.png,n02134084_15118.png,1.0,2.5397868,2.4809318,0.04161681
alexnet_w1_mlp_simclrhn_probe3,1,537,NaN,bear,car,120,0537_ps_dnn_120_car_10_n04285008_3884.png,n04285008_3884.png,0.0,-1.2601119,0.73379743,-1.4099069
alexnet_w1_mlp_simclrhn_probe3,1,538,NaN,bear,boat,150,0538_ps_dnn_150_boat_10_n04273569_1576.png,n04273569_1576.png,0.0,0.6220921,0.7121928,-0.06371078
alexnet_w1_mlp_simclrhn_probe3,1,539,NaN,knife,bicycle,120,0539_ps_dnn_120_bicycle_10_n03792782_4600.png,n03792782_4600.png,0.0,-0.03093496,0.18308048,-0.15133177
alexnet_w1_mlp_simclrhn_probe3,1,540,NaN,keyboard,clock,30,0540_ps_dnn_30_clock_10_n03196217_4537.png,n03196217_4537.png,0.0,1.9331623,3.88404,-1.3794789
alexnet_w1_mlp_simclrhn_probe3,1,541,NaN,boat,airplane,60,0541_ps_dnn_60_airplane_10_n02690373_10203.png,n02690373_10203.png,0.0,1.2739856,3.07192,-1.2713315
alexnet_w1_mlp_simclrhn_probe3,1,542,NaN,oven,truck,30,0542_ps_dnn_30_truck_10_n04467665_48875.png,n04467665_48875.png,0.0,1.502065,2.4986615,-0.70470023
alexnet_w1_mlp_simclrhn_probe3,1,543,NaN,oven,car,60,0543_ps_dnn_60_car_10_n02814533_38071.png,n02814533_38071.png,0.0,-0.083433114,4.027197,-2.9066544
alexnet_w1_mlp_simclrhn_probe3,1,544,NaN,bicycle,bear,90,0544_ps_dnn_90_bear_10_n02133161_160.png,n02133161_160.png,0.0,0.25587237,0.94830614,-0.48962462
alexnet_w1_mlp_simclrhn_probe3,1,545,NaN,truck,car,30,0545_ps_dnn_30_car_10_n02814533_40344.png,n02814533_40344.png,0.0,-0.0020717632,1.6473114,-1.16629
alexnet_w1_mlp_simclrhn_probe3,1,546,NaN,bear,oven,180,0546_ps_dnn_180_oven_10_n04111531_9026.png,n04111531_9026.png,0.0,0.008975692,0.5764232,-0.401246
alexnet_w1_mlp_simclrhn_probe3,1,547,NaN,cat,cat,0,0547_ps_dnn_0_cat_10_n02123597_13755.png,n02123597_13755.png,1.0,1.2877865,0.7803664,0.35880017
alexnet_w1_mlp_simclrhn_probe3,1,548,NaN,cat,car,150,0548_ps_dnn_150_car_10_n02814533_39485.png,n02814533_39485.png,0.0,-0.7402158,0.6429151,-0.97802126
alexnet_w1_mlp_simclrhn_probe3,1,549,NaN,knife,bottle,90,0549_ps_dnn_90_bottle_10_n03937543_4512.png,n03937543_4512.png,0.0,0.34031087,0.8768977,-0.37942418
alexnet_w1_mlp_simclrhn_probe3,1,550,NaN,bear,cat,120,0550_ps_dnn_120_cat_10_n02124075_2402.png,n02124075_2402.png,0.0,-0.18570153,0.46242982,-0.4582981
alexnet_w1_mlp_simclrhn_probe3,1,551,NaN,boat,bird,0,0551_ps_dnn_0_bird_10_n02056570_9835.png,n02056570_9835.png,0.0,0.9993704,2.058736,-0.7490847
alexnet_w1_mlp_simclrhn_probe3,1,552,NaN,knife,clock,120,0552_ps_dnn_120_clock_10_n04548280_13247.png,n04548280_13247.png,0.0,0.34778443,0.8593751,-0.36174926
alexnet_w1_mlp_simclrhn_probe3,1,553,NaN,oven,truck,60,0553_ps_dnn_60_truck_10_n03417042_173.png,n03417042_173.png,0.0,-0.2609355,4.143405,-3.1143389
alexnet_w1_mlp_simclrhn_probe3,1,554,NaN,oven,airplane,180,0554_ps_dnn_180_airplane_10_n02690373_1592.png,n02690373_1592.png,0.0,-0.9015522,0.90144193,-1.2749094
alexnet_w1_mlp_simclrhn_probe3,1,555,NaN,elephant,elephant,0,0555_ps_dnn_0_elephant_10_n02504013_1953.png,n02504013_1953.png,1.0,8.96825,4.235141,3.346814
alexnet_w1_mlp_simclrhn_probe3,1,556,NaN,knife,elephant,150,0556_ps_dnn_150_elephant_10_n02504458_4348.png,n02504458_4348.png,0.0,0.057561487,0.8841361,-0.5844765
alexnet_w1_mlp_simclrhn_probe3,1,557,NaN,bear,airplane,90,0557_ps_dnn_90_airplane_10_n02690373_1854.png,n02690373_1854.png,0.0,0.14970028,1.0846854,-0.66113436
alexnet_w1_mlp_simclrhn_probe3,1,558,NaN,knife,cat,180,0558_ps_dnn_180_cat_10_n02124075_14363.png,n02124075_14363.png,0.0,-0.02480256,0.48888022,-0.3632286
alexnet_w1_mlp_simclrhn_probe3,1,559,NaN,oven,bottle,30,0559_ps_dnn_30_bottle_10_n03983396_3377.png,n03983396_3377.png,0.0,2.373463,3.2780495,-0.6396393
alexnet_w1_mlp_simclrhn_probe3,1,560,NaN,clock,clock,90,0560_ps_dnn_90_clock_10_n04548280_6743.png,n04548280_6743.png,1.0,1.153354,0.91053104,0.17170179
alexnet_w1_mlp_simclrhn_probe3,1,561,NaN,car,clock,30,0561_ps_dnn_30_clock_10_n03196217_8034.png,n03196217_8034.png,0.0,1.0715841,1.2044258,-0.09393327
alexnet_w1_mlp_simclrhn_probe3,1,562,NaN,bear,dog,150,0562_ps_dnn_150_dog_10_n02088094_13992.png,n02088094_13992.png,0.0,-0.08778726,0.83457875,-0.6522113
alexnet_w1_mlp_simclrhn_probe3,1,563,NaN,car,car,30,0563_ps_dnn_30_car_10_n03100240_6216.png,n03100240_6216.png,1.0,5.0619307,3.3289843,1.2253782
alexnet_w1_mlp_simclrhn_probe3,1,564,NaN,oven,oven,30,0564_ps_dnn_30_oven_10_n04111531_2831.png,n04111531_2831.png,1.0,3.9572616,1.3652191,1.8328508
alexnet_w1_mlp_simclrhn_probe3,1,565,NaN,knife,knife,0,0565_ps_dnn_0_knife_10_n03041632_927.png,n03041632_927.png,1.0,2.0607758,1.0596956,0.7078706
alexnet_w1_mlp_simclrhn_probe3,1,566,NaN,keyboard,knife,150,0566_ps_dnn_150_knife_10_n03041632_5427.png,n03041632_5427.png,0.0,0.22265936,0.7151991,-0.34827822
alexnet_w1_mlp_simclrhn_probe3,1,567,NaN,dog,cat,180,0567_ps_dnn_180_cat_10_n02123045_8690.png,n02123045_8690.png,0.0,-0.14652407,0.21715926,-0.25716296
alexnet_w1_mlp_simclrhn_probe3,1,568,NaN,clock,clock,90,0568_ps_dnn_90_clock_10_n02708093_6696.png,n02708093_6696.png,1.0,1.3034614,0.8738674,0.30376887
alexnet_w1_mlp_simclrhn_probe3,1,569,NaN,boat,airplane,60,0569_ps_dnn_60_airplane_10_n02690373_7748.png,n02690373_7748.png,0.0,3.7092738,4.2848086,-0.40696457
alexnet_w1_mlp_simclrhn_probe3,1,570,NaN,airplane,airplane,0,0570_ps_dnn_0_airplane_10_n02690373_20011.png,n02690373_20011.png,1.0,1.9668014,1.5210568,0.31518906
alexnet_w1_mlp_simclrhn_probe3,1,571,NaN,knife,boat,150,0571_ps_dnn_150_boat_10_n02951358_16728.png,n02951358_16728.png,0.0,0.18418065,0.48174632,-0.2104107
alexnet_w1_mlp_simclrhn_probe3,1,572,NaN,airplane,truck,60,0572_ps_dnn_60_truck_10_n04467665_37833.png,n04467665_37833.png,0.0,1.324507,3.3053637,-1.4006772
alexnet_w1_mlp_simclrhn_probe3,1,573,NaN,oven,oven,0,0573_ps_dnn_0_oven_10_n04111531_22886.png,n04111531_22886.png,1.0,2.669681,2.379748,0.20501357
alexnet_w1_mlp_simclrhn_probe3,1,574,NaN,car,car,30,0574_ps_dnn_30_car_10_n04285008_5959.png,n04285008_5959.png,1.0,7.1444416,2.6351085,3.18858
alexnet_w1_mlp_simclrhn_probe3,1,575,NaN,bear,boat,120,0575_ps_dnn_120_boat_10_n04273569_10840.png,n04273569_10840.png,0.0,0.015267062,1.2156644,-0.8488091
alexnet_w1_mlp_simclrhn_probe3,1,576,NaN,bear,clock,180,0576_ps_dnn_180_clock_10_n02708093_1352.png,n02708093_1352.png,0.0,0.027823398,1.1012847,-0.7590518
alexnet_w1_mlp_simclrhn_probe3,1,577,NaN,bear,oven,120,0577_ps_dnn_120_oven_10_n04111531_1004.png,n04111531_1004.png,0.0,0.61269325,0.68371785,-0.050221976
alexnet_w1_mlp_simclrhn_probe3,1,578,NaN,boat,car,180,0578_ps_dnn_180_car_10_n03100240_4619.png,n03100240_4619.png,0.0,-0.66336614,0.8334942,-1.0584401
alexnet_w1_mlp_simclrhn_probe3,1,579,NaN,knife,oven,180,0579_ps_dnn_180_oven_10_n04111531_15367.png,n04111531_15367.png,0.0,-0.386114,0.17230085,-0.3948589
alexnet_w1_mlp_simclrhn_probe3,1,580,NaN,oven,oven,30,0580_ps_dnn_30_oven_10_n04111531_6903.png,n04111531_6903.png,1.0,2.2187426,1.8557644,0.25666437
alexnet_w1_mlp_simclrhn_probe3,1,581,NaN,oven,oven,60,0581_ps_dnn_60_oven_10_n04111531_1662.png,n04111531_1662.png,1.0,2.5340865,1.7156174,0.578745
alexnet_w1_mlp_simclrhn_probe3,1,582,NaN,keyboard,keyboard,0,0582_ps_dnn_0_keyboard_10_n04505470_1342.png,n04505470_1342.png,1.0,9.517397,0.97405803,6.041053
alexnet_w1_mlp_simclrhn_probe3,1,583,NaN,oven,boat,60,0583_ps_dnn_60_boat_10_n02951358_1911.png,n02951358_1911.png,0.0,1.9858415,2.2472947,-0.1848753
alexnet_w1_mlp_simclrhn_probe3,1,584,NaN,bicycle,bicycle,30,0584_ps_dnn_30_bicycle_10_n03792782_42927.png,n03792782_42927.png,1.0,5.469838,2.023346,2.437038
alexnet_w1_mlp_simclrhn_probe3,1,585,NaN,knife,chair,180,0585_ps_dnn_180_chair_10_n02791124_3994.png,n02791124_3994.png,0.0,-0.4287749,0.41490406,-0.59657115
alexnet_w1_mlp_simclrhn_probe3,1,586,NaN,dog,dog,0,0586_ps_dnn_0_dog_10_n02101388_1383.png,n02101388_1383.png,1.0,5.107553,1.0438035,2.8735046
alexnet_w1_mlp_simclrhn_probe3,1,587,NaN,keyboard,bear,30,0587_ps_dnn_30_bear_10_n02132136_9367.png,n02132136_9367.png,0.0,0.21294835,1.0327784,-0.5797074
alexnet_w1_mlp_simclrhn_probe3,1,588,NaN,dog,dog,150,0588_ps_dnn_150_dog_10_n02108915_7875.png,n02108915_7875.png,1.0,0.15075825,0.11856973,0.02276072
alexnet_w1_mlp_simclrhn_probe3,1,589,NaN,oven,chair,60,0589_ps_dnn_60_chair_10_n02791124_6237.png,n02791124_6237.png,0.0,0.4474987,1.8367906,-0.9823777
alexnet_w1_mlp_simclrhn_probe3,1,590,NaN,cat,bird,60,0590_ps_dnn_60_bird_10_n01622779_13896.png,n01622779_13896.png,0.0,-0.22044373,1.714613,-1.3682917
alexnet_w1_mlp_simclrhn_probe3,1,591,NaN,oven,boat,30,0591_ps_dnn_30_boat_10_n04273569_15583.png,n04273569_15583.png,0.0,1.0087517,1.1102443,-0.071766056
alexnet_w1_mlp_simclrhn_probe3,1,592,NaN,knife,bottle,0,0592_ps_dnn_0_bottle_10_n03937543_3079.png,n03937543_3079.png,0.0,1.1830422,1.9703593,-0.55671734
alexnet_w1_mlp_simclrhn_probe3,1,593,NaN,keyboard,dog,150,0593_ps_dnn_150_dog_10_n02110063_5687.png,n02110063_5687.png,0.0,0.0111690555,0.52770317,-0.36524478
alexnet_w1_mlp_simclrhn_probe3,1,594,NaN,truck,truck,30,0594_ps_dnn_30_truck_10_n03417042_6685.png,n03417042_6685.png,1.0,0.9436991,0.46236253,0.34035638
alexnet_w1_mlp_simclrhn_probe3,1,595,NaN,clock,clock,0,0595_ps_dnn_0_clock_10_n02708093_340.png,n02708093_340.png,1.0,8.3945875,2.1154246,4.4400387
alexnet_w1_mlp_simclrhn_probe3,1,596,NaN,elephant,dog,0,0596_ps_dnn_0_dog_10_n02111129_5463.png,n02111129_5463.png,0.0,2.3463185,5.351911,-2.125275
alexnet_w1_mlp_simclrhn_probe3,1,597,NaN,oven,bicycle,90,0597_ps_dnn_90_bicycle_10_n03792782_17503.png,n03792782_17503.png,0.0,1.1087202,1.351649,-0.17177665
alexnet_w1_mlp_simclrhn_probe3,1,598,NaN,bear,bear,60,0598_ps_dnn_60_bear_10_n02134084_9253.png,n02134084_9253.png,1.0,0.93594337,0.4820999,0.32091582
alexnet_w1_mlp_simclrhn_probe3,1,599,NaN,bicycle,car,30,0599_ps_dnn_30_car_10_n04285008_3688.png,n04285008_3688.png,0.0,2.3186033,3.6453595,-0.93815833
alexnet_w1_mlp_simclrhn_probe3,1,600,NaN,dog,bird,150,0600_ps_dnn_150_bird_10_n01795545_17324.png,n01795545_17324.png,0.0,-0.20647407,0.08403602,-0.20542166
alexnet_w1_mlp_simclrhn_probe3,1,601,NaN,boat,boat,30,0601_ps_dnn_30_boat_10_n04273569_16064.png,n04273569_16064.png,1.0,8.000097,2.7001202,3.74765
alexnet_w1_mlp_simclrhn_probe3,1,602,NaN,bear,elephant,180,0602_ps_dnn_180_elephant_10_n02504458_4395.png,n02504458_4395.png,0.0,0.30787486,0.6568664,-0.24677427
alexnet_w1_mlp_simclrhn_probe3,1,603,NaN,oven,oven,30,0603_ps_dnn_30_oven_10_n04111531_21855.png,n04111531_21855.png,1.0,4.39225,2.5067132,1.3332759
alexnet_w1_mlp_simclrhn_probe3,1,604,NaN,oven,oven,30,0604_ps_dnn_30_oven_10_n04111531_11225.png,n04111531_11225.png,1.0,5.77727,1.7118865,2.8746603
alexnet_w1_mlp_simclrhn_probe3,1,605,NaN,bear,oven,150,0605_ps_dnn_150_oven_10_n04111531_13486.png,n04111531_13486.png,0.0,0.23961376,0.9640317,-0.5122408
alexnet_w1_mlp_simclrhn_probe3,1,606,NaN,chair,chair,0,0606_ps_dnn_0_chair_10_n02791124_1693.png,n02791124_1693.png,1.0,2.877412,1.568018,0.9258815
alexnet_w1_mlp_simclrhn_probe3,1,607,NaN,knife,chair,150,0607_ps_dnn_150_chair_10_n04099969_26462.png,n04099969_26462.png,0.0,-0.6578774,0.46005392,-0.7904969
alexnet_w1_mlp_simclrhn_probe3,1,608,NaN,bear,chair,120,0608_ps_dnn_120_chair_10_n04429376_16869.png,n04429376_16869.png,0.0,-0.84707606,0.67761505,-1.0781194
alexnet_w1_mlp_simclrhn_probe3,1,609,NaN,knife,bottle,0,0609_ps_dnn_0_bottle_10_n03983396_23471.png,n03983396_23471.png,0.0,-0.76146233,2.2456539,-2.1263523
alexnet_w1_mlp_simclrhn_probe3,1,610,NaN,elephant,bear,0,0610_ps_dnn_0_bear_10_n02134084_5314.png,n02134084_5314.png,0.0,1.5449642,2.6079235,-0.7516258
alexnet_w1_mlp_simclrhn_probe3,1,611,NaN,bear,elephant,180,0611_ps_dnn_180_elephant_10_n02504458_4564.png,n02504458_4564.png,0.0,0.4053911,1.0313681,-0.44263262
alexnet_w1_mlp_simclrhn_probe3,1,612,NaN,elephant,bear,0,0612_ps_dnn_0_bear_10_n02132136_6967.png,n02132136_6967.png,0.0,7.7743344,7.8600693,-0.06062369
alexnet_w1_mlp_simclrhn_probe3,1,613,NaN,cat,cat,0,0613_ps_dnn_0_cat_10_n02123394_6517.png,n02123394_6517.png,1.0,3.4489286,1.8243264,1.1487672
alexnet_w1_mlp_simclrhn_probe3,1,614,NaN,keyboard,keyboard,150,0614_ps_dnn_150_keyboard_10_n04505470_1076.png,n04505470_1076.png,1.0,1.0818039,0.3887775,0.4900437
alexnet_w1_mlp_simclrhn_probe3,1,615,NaN,cat,knife,180,0615_ps_dnn_180_knife_10_n03041632_5916.png,n03041632_5916.png,0.0,0.70219564,0.7565231,-0.038415294
alexnet_w1_mlp_simclrhn_probe3,1,616,NaN,elephant,car,90,0616_ps_dnn_90_car_10_n03100240_4674.png,n03100240_4674.png,0.0,-0.7281143,1.403805,-1.5074947
alexnet_w1_mlp_simclrhn_probe3,1,617,NaN,bottle,bottle,90,0617_ps_dnn_90_bottle_10_n02823428_1602.png,n02823428_1602.png,1.0,0.88020104,0.62291217,0.1819307
alexnet_w1_mlp_simclrhn_probe3,1,618,NaN,oven,boat,90,0618_ps_dnn_90_boat_10_n04273569_27343.png,n04273569_27343.png,0.0,0.89847344,1.472783,-0.40609816
alexnet_w1_mlp_simclrhn_probe3,1,619,NaN,bear,bottle,120,0619_ps_dnn_120_bottle_10_n04560804_15162.png,n04560804_15162.png,0.0,-0.30894485,0.7266511,-0.7322769
alexnet_w1_mlp_simclrhn_probe3,1,620,NaN,elephant,bottle,120,0620_ps_dnn_120_bottle_10_n03937543_24.png,n03937543_24.png,0.0,-0.018245956,0.58083165,-0.42361182
alexnet_w1_mlp_simclrhn_probe3,1,621,NaN,bear,dog,180,0621_ps_dnn_180_dog_10_n02105162_9615.png,n02105162_9615.png,0.0,-0.1314931,0.5075809,-0.45189354
alexnet_w1_mlp_simclrhn_probe3,1,622,NaN,bicycle,bird,150,0622_ps_dnn_150_bird_10_n01582220_1150.png,n01582220_1150.png,0.0,-0.079679266,0.32766655,-0.288037
alexnet_w1_mlp_simclrhn_probe3,1,623,NaN,bear,clock,180,0623_ps_dnn_180_clock_10_n04548280_4560.png,n04548280_4560.png,0.0,0.23863019,0.88679695,-0.45832312
alexnet_w1_mlp_simclrhn_probe3,1,624,NaN,knife,bottle,150,0624_ps_dnn_150_bottle_10_n04560804_14605.png,n04560804_14605.png,0.0,-0.332517,0.68557,-0.71989626
alexnet_w1_mlp_simclrhn_probe3,1,625,NaN,chair,chair,0,0625_ps_dnn_0_chair_10_n03376595_262.png,n03376595_262.png,1.0,3.270419,1.0912507,1.5409046
alexnet_w1_mlp_simclrhn_probe3,1,626,NaN,bear,dog,180,0626_ps_dnn_180_dog_10_n02091032_6523.png,n02091032_6523.png,0.0,0.11051468,0.6203025,-0.3604744
alexnet_w1_mlp_simclrhn_probe3,1,627,NaN,bear,cat,150,0627_ps_dnn_150_cat_10_n02123159_615.png,n02123159_615.png,0.0,0.09442549,0.4405322,-0.2447344
alexnet_w1_mlp_simclrhn_probe3,1,628,NaN,knife,bottle,180,0628_ps_dnn_180_bottle_10_n04579145_6049.png,n04579145_6049.png,0.0,-0.052794825,0.69997317,-0.53228736
alexnet_w1_mlp_simclrhn_probe3,1,629,NaN,keyboard,bottle,90,0629_ps_dnn_90_bottle_10_n02823428_4386.png,n02823428_4386.png,0.0,-0.14968751,3.1957283,-2.3655663
alexnet_w1_mlp_simclrhn_probe3,1,630,NaN,knife,car,150,0630_ps_dnn_150_car_10_n03100240_4594.png,n03100240_4594.png,0.0,-0.519314,0.5233411,-0.7372685
alexnet_w1_mlp_simclrhn_probe3,1,631,NaN,knife,knife,120,0631_ps_dnn_120_knife_10_n03041632_51581.png,n03041632_51581.png,1.0,0.69685245,0.41101235,0.20211947
alexnet_w1_mlp_simclrhn_probe3,1,632,NaN,oven,keyboard,60,0632_ps_dnn_60_keyboard_10_n03085013_15836.png,n03085013_15836.png,0.0,-0.0833124,0.4564218,-0.3816497
alexnet_w1_mlp_simclrhn_probe3,1,633,NaN,dog,bicycle,180,0633_ps_dnn_180_bicycle_10_n03792782_34197.png,n03792782_34197.png,0.0,-0.078322366,0.37098148,-0.3177058
alexnet_w1_mlp_simclrhn_probe3,1,634,NaN,knife,bicycle,180,0634_ps_dnn_180_bicycle_10_n02835271_9314.png,n02835271_9314.png,0.0,-0.48086286,1.0226924,-1.0631741
alexnet_w1_mlp_simclrhn_probe3,1,635,NaN,knife,oven,150,0635_ps_dnn_150_oven_10_n04111531_5643.png,n04111531_5643.png,0.0,0.46971765,0.8765171,-0.28765067
alexnet_w1_mlp_simclrhn_probe3,1,636,NaN,bear,cat,180,0636_ps_dnn_180_cat_10_n02123394_6362.png,n02123394_6362.png,0.0,0.25807604,0.5701064,-0.22063878
alexnet_w1_mlp_simclrhn_probe3,1,637,NaN,elephant,elephant,60,0637_ps_dnn_60_elephant_10_n02504458_3614.png,n02504458_3614.png,1.0,5.72522,1.8335177,2.7518494
alexnet_w1_mlp_simclrhn_probe3,1,638,NaN,keyboard,chair,180,0638_ps_dnn_180_chair_10_n04099969_6691.png,n04099969_6691.png,0.0,-0.39394045,0.80898774,-0.8505987
alexnet_w1_mlp_simclrhn_probe3,1,639,NaN,bear,dog,60,0639_ps_dnn_60_dog_10_n02104365_1262.png,n02104365_1262.png,0.0,0.20671721,2.360653,-1.5230626
alexnet_w1_mlp_simclrhn_probe3,1,640,NaN,bear,chair,180,0640_ps_dnn_180_chair_10_n02791124_2611.png,n02791124_2611.png,0.0,-1.0052049,0.80230695,-1.2781038
