subj,session,trial,rt,object_response,category,condition,imagename,filename,is_correct,targ_act,max_nontarg_act,decision_margin
alexnet_w1_mlp_simclrhn_probe3,1,1,NaN,truck,truck,30,0001_ps_dnn_30_truck_10_n03417042_14861.png,n03417042_14861.png,1.0,4.2130713,1.1741862,2.1488163
alexnet_w1_mlp_simclrhn_probe3,1,2,NaN,keyboard,keyboard,0,0002_ps_dnn_0_keyboard_10_n03085013_25476.png,n03085013_25476.png,1.0,9.709767,1.3580588,5.9055495
alexnet_w1_mlp_simclrhn_probe3,1,3,NaN,elephant,elephant,0,0003_ps_dnn_0_elephant_10_n02504013_3087.png,n02504013_3087.png,1.0,12.935638,4.1779327,6.192633
alexnet_w1_mlp_simclrhn_probe3,1,4,NaN,cat,cat,30,0004_ps_dnn_30_cat_10_n02123394_4633.png,n02123394_4633.png,1.0,2.1611016,1.1925628,0.68486035
alexnet_w1_mlp_simclrhn_probe3,1,5,NaN,oven,knife,120,0005_ps_dnn_120_knife_10_n03041632_48151.png,n03041632_48151.png,0.0,0.6017348,0.85016185,-0.17566444
alexnet_w1_mlp_simclrhn_probe3,1,6,NaN,bicycle,bicycle,60,0006_ps_dnn_60_bicycle_10_n02835271_1075.png,n02835271_1075.png,1.0,7.174723,1.2153525,4.2139115
alexnet_w1_mlp_simclrhn_probe3,1,7,NaN,bear,bear,180,0007_ps_dnn_180_bear_10_n02134084_10289.png,n02134084_10289.png,1.0,0.7648319,0.4220835,0.24235973
alexnet_w1_mlp_simclrhn_probe3,1,8,NaN,keyboard,keyboard,0,0008_ps_dnn_0_keyboard_10_n03085013_21967.png,n03085013_21967.png,1.0,3.226482,1.6761686,1.0962371
alexnet_w1_mlp_simclrhn_probe3,1,9,NaN,bottle,oven,150,0009_ps_dnn_150_oven_10_n04111531_5737.png,n04111531_5737.png,0.0,-0.0009878725,0.23844387,-0.1693038
alexnet_w1_mlp_simclrhn_probe3,1,10,NaN,elephant,elephant,60,0010_ps_dnn_60_elephant_10_n02504458_8141.png,n02504458_8141.png,1.0,2.7801359,1.7424191,0.73377657
alexnet_w1_mlp_simclrhn_probe3,1,11,NaN,elephant,elephant,90,0011_ps_dnn_90_elephant_10_n02504458_3153.png,n02504458_3153.png,1.0,1.7832378,1.145834,0.4507126
alexnet_w1_mlp_simclrhn_probe3,1,12,NaN,bear,bear,60,0012_ps_dnn_60_bear_10_n02134418_5807.png,n02134418_5807.png,1.0,3.2268033,2.5547526,0.47521162
alexnet_w1_mlp_simclrhn_probe3,1,13,NaN,boat,boat,0,0013_ps_dnn_0_boat_10_n04273569_15322.png,n04273569_15322.png,1.0,6.148265,1.3034458,3.4258044
alexnet_w1_mlp_simclrhn_probe3,1,14,NaN,oven,knife,0,0014_ps_dnn_0_knife_10_n03041632_42526.png,n03041632_42526.png,0.0,0.879371,1.5491121,-0.47357848
alexnet_w1_mlp_simclrhn_probe3,1,15,NaN,bicycle,bicycle,30,0015_ps_dnn_30_bicycle_10_n02835271_5886.png,n02835271_5886.png,1.0,1.420872,0.010210931,0.99748796
alexnet_w1_mlp_simclrhn_probe3,1,16,NaN,knife,dog,180,0016_ps_dnn_180_dog_10_n02110063_869.png,n02110063_869.png,0.0,0.013404067,0.20046832,-0.1322744
alexnet_w1_mlp_simclrhn_probe3,1,17,NaN,knife,bicycle,180,0017_ps_dnn_180_bicycle_10_n03792782_3334.png,n03792782_3334.png,0.0,-0.026183933,0.16289374,-0.1336981
alexnet_w1_mlp_simclrhn_probe3,1,18,NaN,airplane,airplane,0,0018_ps_dnn_0_airplane_10_n02690373_7355.png,n02690373_7355.png,1.0,9.18712,1.5018772,5.4342875
alexnet_w1_mlp_simclrhn_probe3,1,19,NaN,bear,bird,120,0019_ps_dnn_120_bird_10_n01798484_2289.png,n01798484_2289.png,0.0,0.0012593926,0.15880023,-0.1113982
alexnet_w1_mlp_simclrhn_probe3,1,20,NaN,knife,knife,60,0020_ps_dnn_60_knife_10_n03041632_87380.png,n03041632_87380.png,1.0,0.733193,0.28208998,0.318978
alexnet_w1_mlp_simclrhn_probe3,1,21,NaN,keyboard,bird,0,0021_ps_dnn_0_bird_10_n02027492_15639.png,n02027492_15639.png,0.0,0.18772452,1.3691342,-0.8353828
alexnet_w1_mlp_simclrhn_probe3,1,22,NaN,airplane,bird,0,0022_ps_dnn_0_bird_10_n02006656_7153.png,n02006656_7153.png,0.0,0.98105395,2.4889615,-1.0662516
alexnet_w1_mlp_simclrhn_probe3,1,23,NaN,boat,boat,60,0023_ps_dnn_60_boat_10_n04612504_14699.png,n04612504_14699.png,1.0,4.761693,0.84025156,2.772878
alexnet_w1_mlp_simclrhn_probe3,1,24,NaN,bear,bear,60,0024_ps_dnn_60_bear_10_n02134418_5971.png,n02134418_5971.png,1.0,2.9218583,1.5439317,0.9743413
alexnet_w1_mlp_simclrhn_probe3,1,25,NaN,oven,dog,90,0025_ps_dnn_90_dog_10_n02110063_16680.png,n02110063_16680.png,0.0,0.15136391,0.726496,-0.4066798
alexnet_w1_mlp_simclrhn_probe3,1,26,NaN,oven,car,90,0026_ps_dnn_90_car_10_n03100240_6010.png,n03100240_6010.png,0.0,-1.1357309,1.4774315,-1.847785
alexnet_w1_mlp_simclrhn_probe3,1,27,NaN,bicycle,elephant,30,0027_ps_dnn_30_elephant_10_n02504458_9835.png,n02504458_9835.png,0.0,1.553498,1.8449352,-0.20607719
alexnet_w1_mlp_simclrhn_probe3,1,28,NaN,airplane,airplane,30,0028_ps_dnn_30_airplane_10_n02690373_10207.png,n02690373_10207.png,1.0,2.0129242,0.94152373,0.7575945
alexnet_w1_mlp_simclrhn_probe3,1,29,NaN,knife,bottle,180,0029_ps_dnn_180_bottle_10_n03983396_5532.png,n03983396_5532.png,0.0,-0.27855963,0.62894976,-0.64170605
alexnet_w1_mlp_simclrhn_probe3,1,30,NaN,dog,dog,30,0030_ps_dnn_30_dog_10_n02090622_1485.png,n02090622_1485.png,1.0,1.9819722,0.38865483,1.1266456
alexnet_w1_mlp_simclrhn_probe3,1,31,NaN,bear,truck,150,0031_ps_dnn_150_truck_10_n03417042_5503.png,n03417042_5503.png,0.0,-0.53989446,0.819113,-0.9609634
alexnet_w1_mlp_simclrhn_probe3,1,32,NaN,knife,bear,180,0032_ps_dnn_180_bear_10_n02133161_897.png,n02133161_897.png,0.0,0.57894164,0.6829674,-0.07355734
alexnet_w1_mlp_simclrhn_probe3,1,33,NaN,keyboard,keyboard,180,0033_ps_dnn_180_keyboard_10_n04505470_4579.png,n04505470_4579.png,1.0,0.7946675,0.6829742,0.07897907
alexnet_w1_mlp_simclrhn_probe3,1,34,NaN,bird,bird,60,0034_ps_dnn_60_bird_10_n01592084_5833.png,n01592084_5833.png,1.0,1.8416234,0.90662706,0.6611423
alexnet_w1_mlp_simclrhn_probe3,1,35,NaN,elephant,dog,0,0035_ps_dnn_0_dog_10_n02090379_3514.png,n02090379_3514.png,0.0,1.6413981,1.7426755,-0.07161399
alexnet_w1_mlp_simclrhn_probe3,1,36,NaN,knife,airplane,180,0036_ps_dnn_180_airplane_10_n02690373_6144.png,n02690373_6144.png,0.0,-0.8591176,0.41910917,-0.90384287
alexnet_w1_mlp_simclrhn_probe3,1,37,NaN,knife,airplane,90,0037_ps_dnn_90_airplane_10_n02690373_1436.png,n02690373_1436.png,0.0,-0.0743328,0.94525075,-0.7209545
alexnet_w1_mlp_simclrhn_probe3,1,38,NaN,bear,clock,120,0038_ps_dnn_120_clock_10_n04548280_354.png,n04548280_354.png,0.0,-0.005767852,1.0278398,-0.73087096
alexnet_w1_mlp_simclrhn_probe3,1,39,NaN,keyboard,keyboard,0,0039_ps_dnn_0_keyboard_10_n03085013_2189.png,n03085013_2189.png,1.0,3.7363453,1.5529311,1.543907
alexnet_w1_mlp_simclrhn_probe3,1,40,NaN,bear,chair,120,0040_ps_dnn_120_chair_10_n04099969_9005.png,n04099969_9005.png,0.0,-0.99353325,1.056081,-1.4492962
alexnet_w1_mlp_simclrhn_probe3,1,41,NaN,knife,bicycle,180,0041_ps_dnn_180_bicycle_10_n02835271_7350.png,n02835271_7350.png,0.0,-0.16983914,0.5433203,-0.5042799
alexnet_w1_mlp_simclrhn_probe3,1,42,NaN,knife,bottle,150,0042_ps_dnn_150_bottle_10_n04557648_8320.png,n04557648_8320.png,0.0,-0.19476216,0.4657929,-0.46708298
alexnet_w1_mlp_simclrhn_probe3,1,43,NaN,dog,dog,0,0043_ps_dnn_0_dog_10_n02105641_6503.png,n02105641_6503.png,1.0,1.2467656,0.51849127,0.51496774
alexnet_w1_mlp_simclrhn_probe3,1,44,NaN,clock,clock,90,0044_ps_dnn_90_clock_10_n04548280_6022.png,n04548280_6022.png,1.0,1.0227886,0.48978645,0.37688947
alexnet_w1_mlp_simclrhn_probe3,1,45,NaN,keyboard,clock,60,0045_ps_dnn_60_clock_10_n03196217_7414.png,n03196217_7414.png,0.0,0.38565063,1.2666614,-0.6229687
alexnet_w1_mlp_simclrhn_probe3,1,46,NaN,cat,oven,150,0046_ps_dnn_150_oven_10_n04111531_7965.png,n04111531_7965.png,0.0,0.14533141,0.47011176,-0.22965439
alexnet_w1_mlp_simclrhn_probe3,1,47,NaN,clock,bottle,90,0047_ps_dnn_90_bottle_10_n04579145_4594.png,n04579145_4594.png,0.0,0.027752772,0.5924726,-0.39931723
alexnet_w1_mlp_simclrhn_probe3,1,48,NaN,oven,bottle,30,0048_ps_dnn_30_bottle_10_n03983396_4564.png,n03983396_4564.png,0.0,2.1475887,3.8589168,-1.2100917
alexnet_w1_mlp_simclrhn_probe3,1,49,NaN,cat,cat,60,0049_ps_dnn_60_cat_10_n02125311_54015.png,n02125311_54015.png,1.0,2.3695548,0.5935019,1.255859
alexnet_w1_mlp_simclrhn_probe3,1,50,NaN,knife,bicycle,150,0050_ps_dnn_150_bicycle_10_n03792782_5133.png,n03792782_5133.png,0.0,-0.29012328,0.18430428,-0.33547097
alexnet_w1_mlp_simclrhn_probe3,1,51,NaN,bird,bird,120,0051_ps_dnn_120_bird_10_n02018207_6296.png,n02018207_6296.png,1.0,1.0371989,0.82777613,0.14808427
alexnet_w1_mlp_simclrhn_probe3,1,52,NaN,elephant,bird,30,0052_ps_dnn_30_bird_10_n01817953_11996.png,n01817953_11996.png,0.0,-0.64409256,3.476535,-2.9137237
alexnet_w1_mlp_simclrhn_probe3,1,53,NaN,bear,keyboard,150,0053_ps_dnn_150_keyboard_10_n03085013_3148.png,n03085013_3148.png,0.0,0.51712334,0.896996,-0.26861057
alexnet_w1_mlp_simclrhn_probe3,1,54,NaN,bear,bear,60,0054_ps_dnn_60_bear_10_n02134418_5537.png,n02134418_5537.png,1.0,3.1998663,0.90226054,1.6246526
alexnet_w1_mlp_simclrhn_probe3,1,55,NaN,bear,cat,150,0055_ps_dnn_150_cat_10_n02125311_11409.png,n02125311_11409.png,0.0,-0.28063446,0.45218882,-0.5181843
alexnet_w1_mlp_simclrhn_probe3,1,56,NaN,oven,knife,30,0056_ps_dnn_30_knife_10_n03041632_3063.png,n03041632_3063.png,0.0,-0.07698165,0.53899837,-0.43556365
alexnet_w1_mlp_simclrhn_probe3,1,57,NaN,bear,dog,60,0057_ps_dnn_60_dog_10_n02106550_6424.png,n02106550_6424.png,0.0,0.36669576,0.9999251,-0.44776076
alexnet_w1_mlp_simclrhn_probe3,1,58,NaN,bear,bear,30,0058_ps_dnn_30_bear_10_n02133161_7032.png,n02133161_7032.png,1.0,3.8489876,2.9812696,0.61356926
alexnet_w1_mlp_simclrhn_probe3,1,59,NaN,knife,cat,150,0059_ps_dnn_150_cat_10_n02125311_5570.png,n02125311_5570.png,0.0,-0.2987781,0.13280307,-0.30517396
alexnet_w1_mlp_simclrhn_probe3,1,60,NaN,bear,bird,30,0060_ps_dnn_30_bird_10_n01843383_13894.png,n01843383_13894.png,0.0,2.1677847,2.8949428,-0.5141784
alexnet_w1_mlp_simclrhn_probe3,1,61,NaN,oven,bottle,60,0061_ps_dnn_60_bottle_10_n03983396_2205.png,n03983396_2205.png,0.0,-0.205092,2.235498,-1.7257577
alexnet_w1_mlp_simclrhn_probe3,1,62,NaN,bicycle,bicycle,60,0062_ps_dnn_60_bicycle_10_n03792782_31010.png,n03792782_31010.png,1.0,5.8074927,0.52234495,3.7371638
alexnet_w1_mlp_simclrhn_probe3,1,63,NaN,bottle,bottle,60,0063_ps_dnn_60_bottle_10_n02823428_880.png,n02823428_880.png,1.0,4.3774033,2.4866247,1.3369824
alexnet_w1_mlp_simclrhn_probe3,1,64,NaN,knife,car,180,0064_ps_dnn_180_car_10_n02814533_40459.png,n02814533_40459.png,0.0,-0.5299576,0.2771617,-0.5707195
alexnet_w1_mlp_simclrhn_probe3,1,65,NaN,cat,cat,120,0065_ps_dnn_120_cat_10_n02123045_567.png,n02123045_567.png,1.0,0.16425759,0.1450583,0.013575942
alexnet_w1_mlp_simclrhn_probe3,1,66,NaN,bear,knife,120,0066_ps_dnn_120_knife_10_n03041632_24541.png,n03041632_24541.png,0.0,0.4728861,1.1884407,-0.5059735
alexnet_w1_mlp_simclrhn_probe3,1,67,NaN,elephant,elephant,30,0067_ps_dnn_30_elephant_10_n02504458_8644.png,n02504458_8644.png,1.0,6.6281104,1.8115197,3.405844
alexnet_w1_mlp_simclrhn_probe3,1,68,NaN,keyboard,keyboard,0,0068_ps_dnn_0_keyboard_10_n03085013_2166.png,n03085013_2166.png,1.0,6.571005,2.808288,2.6606426
alexnet_w1_mlp_simclrhn_probe3,1,69,NaN,bear,boat,90,0069_ps_dnn_90_boat_10_n04273569_13972.png,n04273569_13972.png,0.0,0.2950319,1.2397199,-0.6679953
alexnet_w1_mlp_simclrhn_probe3,1,70,NaN,knife,airplane,150,0070_ps_dnn_150_airplane_10_n02690373_9432.png,n02690373_9432.png,0.0,-0.06581406,0.547242,-0.43349612
alexnet_w1_mlp_simclrhn_probe3,1,71,NaN,oven,truck,90,0071_ps_dnn_90_truck_10_n03417042_5228.png,n03417042_5228.png,0.0,-1.1182657,1.8033583,-2.0659003
alexnet_w1_mlp_simclrhn_probe3,1,72,NaN,airplane,airplane,0,0072_ps_dnn_0_airplane_10_n02690373_4294.png,n02690373_4294.png,1.0,8.608426,2.0649035,4.6269693
alexnet_w1_mlp_simclrhn_probe3,1,73,NaN,oven,chair,30,0073_ps_dnn_30_chair_10_n04099969_52474.png,n04099969_52474.png,0.0,0.30234826,2.2291374,-1.3624457
alexnet_w1_mlp_simclrhn_probe3,1,74,NaN,oven,oven,30,0074_ps_dnn_30_oven_10_n04111531_21822.png,n04111531_21822.png,1.0,3.6492863,1.9746192,1.1841685
alexnet_w1_mlp_simclrhn_probe3,1,75,NaN,oven,oven,150,0075_ps_dnn_150_oven_10_n04111531_15735.png,n04111531_15735.png,1.0,0.92925507,0.85754526,0.050706495
alexnet_w1_mlp_simclrhn_probe3,1,76,NaN,bird,dog,120,0076_ps_dnn_120_dog_10_n02104029_7335.png,n02104029_7335.png,0.0,0.044656545,0.3205575,-0.19509144
alexnet_w1_mlp_simclrhn_probe3,1,77,NaN,bear,truck,150,0077_ps_dnn_150_truck_10_n03417042_17911.png,n03417042_17911.png,0.0,-0.5490656,1.2262597,-1.2553446
alexnet_w1_mlp_simclrhn_probe3,1,78,NaN,boat,clock,30,0078_ps_dnn_30_clock_10_n02708093_899.png,n02708093_899.png,0.0,0.3320799,1.1651127,-0.5890432
alexnet_w1_mlp_simclrhn_probe3,1,79,NaN,boat,boat,60,0079_ps_dnn_60_boat_10_n03662601_9590.png,n03662601_9590.png,1.0,6.542076,2.0272965,3.1924312
alexnet_w1_mlp_simclrhn_probe3,1,80,NaN,bear,chair,90,0080_ps_dnn_90_chair_10_n02791124_6550.png,n02791124_6550.png,0.0,-0.43507373,1.4836618,-1.356751
alexnet_w1_mlp_simclrhn_probe3,1,81,NaN,oven,clock,180,0081_ps_dnn_180_clock_10_n03196217_4492.png,n03196217_4492.png,0.0,-0.08300256,0.9738066,-0.74727696
alexnet_w1_mlp_simclrhn_probe3,1,82,NaN,car,car,30,0082_ps_dnn_30_car_10_n04285008_14128.png,n04285008_14128.png,1.0,5.9384904,0.8329458,3.6101654
alexnet_w1_mlp_simclrhn_probe3,1,83,NaN,bicycle,bicycle,60,0083_ps_dnn_60_bicycle_10_n02835271_4730.png,n02835271_4730.png,1.0,2.8621564,1.09343,1.2506784
alexnet_w1_mlp_simclrhn_probe3,1,84,NaN,elephant,elephant,0,0084_ps_dnn_0_elephant_10_n02504458_62.png,n02504458_62.png,1.0,21.0035,5.094433,11.24941
alexnet_w1_mlp_simclrhn_probe3,1,85,NaN,bear,dog,120,0085_ps_dnn_120_dog_10_n02086646_8144.png,n02086646_8144.png,0.0,0.16995077,0.6559296,-0.34363893
alexnet_w1_mlp_simclrhn_probe3,1,86,NaN,airplane,knife,60,0086_ps_dnn_60_knife_10_n03041632_1671.png,n03041632_1671.png,0.0,0.81328917,0.9009613,-0.061993547
alexnet_w1_mlp_simclrhn_probe3,1,87,NaN,cat,bird,180,0087_ps_dnn_180_bird_10_n01534433_10801.png,n01534433_10801.png,0.0,-0.02875491,0.26857165,-0.21024163
alexnet_w1_mlp_simclrhn_probe3,1,88,NaN,bear,keyboard,150,0088_ps_dnn_150_keyboard_10_n03085013_20570.png,n03085013_20570.png,0.0,-0.0543496,1.1613231,-0.85961044
alexnet_w1_mlp_simclrhn_probe3,1,89,NaN,knife,knife,150,0089_ps_dnn_150_knife_10_n03041632_4808.png,n03041632_4808.png,1.0,0.5202887,0.26703945,0.17907427
alexnet_w1_mlp_simclrhn_probe3,1,90,NaN,knife,keyboard,180,0090_ps_dnn_180_keyboard_10_n03085013_1808.png,n03085013_1808.png,0.0,-0.3200035,0.48556745,-0.5696247
alexnet_w1_mlp_simclrhn_probe3,1,91,NaN,bear,truck,120,0091_ps_dnn_120_truck_10_n03796401_4370.png,n03796401_4370.png,0.0,-0.5808185,0.6355603,-0.8601096
alexnet_w1_mlp_simclrhn_probe3,1,92,NaN,airplane,airplane,60,0092_ps_dnn_60_airplane_10_n02690373_6314.png,n02690373_6314.png,1.0,2.7682943,2.1214597,0.45738116
alexnet_w1_mlp_simclrhn_probe3,1,93,NaN,oven,oven,90,0093_ps_dnn_90_oven_10_n04111531_4879.png,n04111531_4879.png,1.0,1.1223931,0.42024288,0.4964952
alexnet_w1_mlp_simclrhn_probe3,1,94,NaN,oven,airplane,180,0094_ps_dnn_180_airplane_10_n02690373_4375.png,n02690373_4375.png,0.0,-0.8204425,0.68908656,-1.0673983
alexnet_w1_mlp_simclrhn_probe3,1,95,NaN,oven,bottle,60,0095_ps_dnn_60_bottle_10_n04557648_4133.png,n04557648_4133.png,0.0,1.5081295,2.6560955,-0.81173456
alexnet_w1_mlp_simclrhn_probe3,1,96,NaN,bear,bicycle,120,0096_ps_dnn_120_bicycle_10_n02835271_19213.png,n02835271_19213.png,0.0,0.10521494,0.22942266,-0.08782812
alexnet_w1_mlp_simclrhn_probe3,1,97,NaN,bear,bear,150,0097_ps_dnn_150_bear_10_n02132136_10577.png,n02132136_10577.png,1.0,0.68701404,0.43227226,0.18012965
alexnet_w1_mlp_simclrhn_probe3,1,98,NaN,airplane,airplane,90,0098_ps_dnn_90_airplane_10_n02690373_3147.png,n02690373_3147.png,1.0,0.26923233,0.23282848,0.02574141
alexnet_w1_mlp_simclrhn_probe3,1,99,NaN,elephant,elephant,60,0099_ps_dnn_60_elephant_10_n02504013_10389.png,n02504013_10389.png,1.0,4.9562216,3.0939803,1.3168035
alexnet_w1_mlp_simclrhn_probe3,1,100,NaN,knife,chair,150,0100_ps_dnn_150_chair_10_n02791124_5685.png,n02791124_5685.png,0.0,-0.2707713,0.31817588,-0.41644856
alexnet_w1_mlp_simclrhn_probe3,1,101,NaN,bear,bird,60,0101_ps_dnn_60_bird_10_n01817953_6333.png,n01817953_6333.png,0.0,0.19666718,0.99215484,-0.5624947
alexnet_w1_mlp_simclrhn_probe3,1,102,NaN,keyboard,keyboard,90,0102_ps_dnn_90_keyboard_10_n03085013_20247.png,n03085013_20247.png,1.0,2.8706665,0.8657145,1.4177152
alexnet_w1_mlp_simclrhn_probe3,1,103,NaN,airplane,airplane,0,0103_ps_dnn_0_airplane_10_n02690373_5729.png,n02690373_5729.png,1.0,10.406792,0.8159755,6.7817316
alexnet_w1_mlp_simclrhn_probe3,1,104,NaN,bicycle,bicycle,90,0104_ps_dnn_90_bicycle_10_n03792782_55532.png,n03792782_55532.png,1.0,4.5410004,0.5871632,2.7957852
alexnet_w1_mlp_simclrhn_probe3,1,105,NaN,bicycle,bicycle,0,0105_ps_dnn_0_bicycle_10_n02835271_8417.png,n02835271_8417.png,1.0,11.550158,0.81085706,7.5938325
alexnet_w1_mlp_simclrhn_probe3,1,106,NaN,oven,clock,60,0106_ps_dnn_60_clock_10_n03196217_599.png,n03196217_599.png,0.0,0.05009769,1.6561723,-1.1356663
alexnet_w1_mlp_simclrhn_probe3,1,107,NaN,airplane,airplane,0,0107_ps_dnn_0_airplane_10_n02690373_1952.png,n02690373_1952.png,1.0,5.101975,1.4765259,2.5635798
alexnet_w1_mlp_simclrhn_probe3,1,108,NaN,knife,bear,180,0108_ps_dnn_180_bear_10_n02134084_23061.png,n02134084_23061.png,0.0,0.21997073,0.42872876,-0.14761423
alexnet_w1_mlp_simclrhn_probe3,1,109,NaN,knife,bicycle,150,0109_ps_dnn_150_bicycle_10_n03792782_27445.png,n03792782_27445.png,0.0,-0.041895293,0.21161492,-0.1792588
alexnet_w1_mlp_simclrhn_probe3,1,110,NaN,bottle,clock,30,0110_ps_dnn_30_clock_10_n03196217_6348.png,n03196217_6348.png,0.0,0.6232115,0.89127606,-0.18955027
alexnet_w1_mlp_simclrhn_probe3,1,111,NaN,bear,bear,90,0111_ps_dnn_90_bear_10_n02132136_5778.png,n02132136_5778.png,1.0,1.7072538,1.1005926,0.42897427
alexnet_w1_mlp_simclrhn_probe3,1,112,NaN,oven,boat,90,0112_ps_dnn_90_boat_10_n04273569_4772.png,n04273569_4772.png,0.0,0.13566585,0.7408061,-0.4278988
alexnet_w1_mlp_simclrhn_probe3,1,113,NaN,bear,oven,180,0113_ps_dnn_180_oven_10_n04111531_23830.png,n04111531_23830.png,0.0,0.55026525,0.94119406,-0.2764284
alexnet_w1_mlp_simclrhn_probe3,1,114,NaN,knife,bird,150,0114_ps_dnn_150_bird_10_n01855032_1306.png,n01855032_1306.png,0.0,0.029112997,0.31109795,-0.19939348
alexnet_w1_mlp_simclrhn_probe3,1,115,NaN,elephant,elephant,60,0115_ps_dnn_60_elephant_10_n02504013_8905.png,n02504013_8905.png,1.0,4.5472,3.28966,0.88921523
alexnet_w1_mlp_simclrhn_probe3,1,116,NaN,oven,truck,60,0116_ps_dnn_60_truck_10_n04467665_30461.png,n04467665_30461.png,0.0,-0.24916437,1.0232819,-0.8997554
alexnet_w1_mlp_simclrhn_probe3,1,117,NaN,knife,knife,60,0117_ps_dnn_60_knife_10_n03041632_20662.png,n03041632_20662.png,1.0,0.92590415,0.83999854,0.060744442
alexnet_w1_mlp_simclrhn_probe3,1,118,NaN,bear,boat,180,0118_ps_dnn_180_boat_10_n03662601_15915.png,n03662601_15915.png,0.0,-0.11926375,0.52497613,-0.4555464
alexnet_w1_mlp_simclrhn_probe3,1,119,NaN,dog,boat,150,0119_ps_dnn_150_boat_10_n04273569_62.png,n04273569_62.png,0.0,-0.0022851944,0.1640076,-0.11758677
alexnet_w1_mlp_simclrhn_probe3,1,120,NaN,bear,bicycle,180,0120_ps_dnn_180_bicycle_10_n03792782_8080.png,n03792782_8080.png,0.0,-0.0053638592,0.35284513,-0.253292
alexnet_w1_mlp_simclrhn_probe3,1,121,NaN,bear,airplane,120,0121_ps_dnn_120_airplane_10_n02690373_10309.png,n02690373_10309.png,0.0,0.15789276,0.60267377,-0.31450766
alexnet_w1_mlp_simclrhn_probe3,1,122,NaN,dog,dog,30,0122_ps_dnn_30_dog_10_n02093859_1001.png,n02093859_1001.png,1.0,0.8339071,0.7346954,0.0701533
alexnet_w1_mlp_simclrhn_probe3,1,123,NaN,oven,oven,0,0123_ps_dnn_0_oven_10_n04111531_15267.png,n04111531_15267.png,1.0,4.642955,1.4421184,2.263333
alexnet_w1_mlp_simclrhn_probe3,1,124,NaN,bear,cat,90,0124_ps_dnn_90_cat_10_n02124075_81.png,n02124075_81.png,0.0,1.0867829,2.1143916,-0.726629
alexnet_w1_mlp_simclrhn_probe3,1,125,NaN,elephant,elephant,60,0125_ps_dnn_60_elephant_10_n02504013_7314.png,n02504013_7314.png,1.0,4.0103493,3.8768961,0.09436561
alexnet_w1_mlp_simclrhn_probe3,1,126,NaN,bear,bottle,120,0126_ps_dnn_120_bottle_10_n03983396_3294.png,n03983396_3294.png,0.0,-0.24898474,0.9151458,-0.82316464
alexnet_w1_mlp_simclrhn_probe3,1,127,NaN,cat,cat,60,0127_ps_dnn_60_cat_10_n02123159_3201.png,n02123159_3201.png,1.0,7.131113,0.62417907,4.6010976
alexnet_w1_mlp_simclrhn_probe3,1,128,NaN,oven,dog,90,0128_ps_dnn_90_dog_10_n02101388_11601.png,n02101388_11601.png,0.0,0.28518113,0.5554637,-0.19111861
alexnet_w1_mlp_simclrhn_probe3,1,129,NaN,cat,cat,30,0129_ps_dnn_30_cat_10_n02123597_4442.png,n02123597_4442.png,1.0,1.3318701,1.0956186,0.16705503
alexnet_w1_mlp_simclrhn_probe3,1,130,NaN,airplane,airplane,30,0130_ps_dnn_30_airplane_10_n02690373_1950.png,n02690373_1950.png,1.0,6.4968066,3.3730788,2.2088091
alexnet_w1_mlp_simclrhn_probe3,1,131,NaN,cat,bird,120,0131_ps_dnn_120_bird_10_n01616318_4652.png,n01616318_4652.png,0.0,-0.16866645,0.6154273,-0.554438
alexnet_w1_mlp_simclrhn_probe3,1,132,NaN,boat,airplane,90,0132_ps_dnn_90_airplane_10_n02690373_17937.png,n02690373_17937.png,0.0,0.4824093,1.3203382,-0.5925053
alexnet_w1_mlp_simclrhn_probe3,1,133,NaN,clock,clock,30,0133_ps_dnn_30_clock_10_n02708093_1125.png,n02708093_1125.png,1.0,4.2831717,2.6382666,1.1631236
alexnet_w1_mlp_simclrhn_probe3,1,134,NaN,bear,elephant,150,0134_ps_dnn_150_elephant_10_n02504458_6499.png,n02504458_6499.png,0.0,0.20165041,0.53063774,-0.23262918
alexnet_w1_mlp_simclrhn_probe3,1,135,NaN,oven,clock,30,0135_ps_dnn_30_clock_10_n02708093_51.png,n02708093_51.png,0.0,0.63563854,2.9378295,-1.6278949
alexnet_w1_mlp_simclrhn_probe3,1,136,NaN,oven,bicycle,90,0136_ps_dnn_90_bicycle_10_n02835271_13180.png,n02835271_13180.png,0.0,0.12742996,1.0652803,-0.6631604
alexnet_w1_mlp_simclrhn_probe3,1,137,NaN,bear,cat,120,0137_ps_dnn_120_cat_10_n02123597_7297.png,n02123597_7297.png,0.0,0.6646342,1.2283491,-0.3986066
alexnet_w1_mlp_simclrhn_probe3,1,138,NaN,oven,clock,30,0138_ps_dnn_30_clock_10_n04548280_1109.png,n04548280_1109.png,0.0,-0.5408348,3.2797492,-2.7015607
alexnet_w1_mlp_simclrhn_probe3,1,139,NaN,clock,clock,60,0139_ps_dnn_60_clock_10_n04548280_1304.png,n04548280_1304.png,1.0,1.2012192,0.99795794,0.14372742
alexnet_w1_mlp_simclrhn_probe3,1,140,NaN,knife,bird,180,0140_ps_dnn_180_bird_10_n01833805_8179.png,n01833805_8179.png,0.0,-0.108104356,0.38387626,-0.34788284
alexnet_w1_mlp_simclrhn_probe3,1,141,NaN,bottle,bottle,60,0141_ps_dnn_60_bottle_10_n03983396_24525.png,n03983396_24525.png,1.0,2.844025,1.8811716,0.68084013
alexnet_w1_mlp_simclrhn_probe3,1,142,NaN,bear,elephant,120,0142_ps_dnn_120_elephant_10_n02504013_5945.png,n02504013_5945.png,0.0,0.101211466,0.78548056,-0.4838513
alexnet_w1_mlp_simclrhn_probe3,1,143,NaN,oven,airplane,120,0143_ps_dnn_120_airplane_10_n02690373_13610.png,n02690373_13610.png,0.0,-0.5404213,1.6685288,-1.5619636
alexnet_w1_mlp_simclrhn_probe3,1,144,NaN,bear,knife,90,0144_ps_dnn_90_knife_10_n03041632_21859.png,n03041632_21859.png,0.0,0.3279566,0.3570476,-0.020570444
alexnet_w1_mlp_simclrhn_probe3,1,145,NaN,cat,cat,60,0145_ps_dnn_60_cat_10_n02123045_568.png,n02123045_568.png,1.0,1.2111157,0.732582,0.33837447
alexnet_w1_mlp_simclrhn_probe3,1,146,NaN,keyboard,clock,180,0146_ps_dnn_180_clock_10_n02708093_960.png,n02708093_960.png,0.0,-0.16209193,0.30303413,-0.32889378
alexnet_w1_mlp_simclrhn_probe3,1,147,NaN,bear,bicycle,120,0147_ps_dnn_120_bicycle_10_n02835271_9669.png,n02835271_9669.png,0.0,0.47752818,0.60067815,-0.08708017
alexnet_w1_mlp_simclrhn_probe3,1,148,NaN,bear,cat,60,0148_ps_dnn_60_cat_10_n02123597_14647.png,n02123597_14647.png,0.0,1.9762974,2.3346791,-0.25341415
alexnet_w1_mlp_simclrhn_probe3,1,149,NaN,bicycle,bicycle,0,0149_ps_dnn_0_bicycle_10_n02835271_7794.png,n02835271_7794.png,1.0,5.0562353,0.04008762,3.546952
alexnet_w1_mlp_simclrhn_probe3,1,150,NaN,bird,bird,0,0150_ps_dnn_0_bird_10_n02011460_5925.png,n02011460_5925.png,1.0,1.8164611,0.8015005,0.71768546
alexnet_w1_mlp_simclrhn_probe3,1,151,NaN,oven,oven,90,0151_ps_dnn_90_oven_10_n04111531_8852.png,n04111531_8852.png,1.0,0.69100255,0.63434696,0.04006155
alexnet_w1_mlp_simclrhn_probe3,1,152,NaN,oven,knife,90,0152_ps_dnn_90_knife_10_n03041632_84086.png,n03041632_84086.png,0.0,-0.49200308,1.6011225,-1.4800633
alexnet_w1_mlp_simclrhn_probe3,1,153,NaN,car,car,60,0153_ps_dnn_60_car_10_n03100240_13602.png,n03100240_13602.png,1.0,4.81611,1.3484236,2.4520247
alexnet_w1_mlp_simclrhn_probe3,1,154,NaN,bear,dog,180,0154_ps_dnn_180_dog_10_n02106662_43958.png,n02106662_43958.png,0.0,-0.16944322,0.39023322,-0.395751
alexnet_w1_mlp_simclrhn_probe3,1,155,NaN,chair,chair,30,0155_ps_dnn_30_chair_10_n02791124_1292.png,n02791124_1292.png,1.0,2.5651524,1.3119346,0.8861588
alexnet_w1_mlp_simclrhn_probe3,1,156,NaN,bear,dog,90,0156_ps_dnn_90_dog_10_n02085782_4522.png,n02085782_4522.png,0.0,0.2714602,1.5627929,-0.91311014
alexnet_w1_mlp_simclrhn_probe3,1,157,NaN,bear,bear,60,0157_ps_dnn_60_bear_10_n02132136_686.png,n02132136_686.png,1.0,4.9301553,4.5139375,0.29431045
alexnet_w1_mlp_simclrhn_probe3,1,158,NaN,bear,bird,120,0158_ps_dnn_120_bird_10_n01796340_12914.png,n01796340_12914.png,0.0,-0.13166097,0.3228614,-0.32139584
alexnet_w1_mlp_simclrhn_probe3,1,159,NaN,elephant,knife,60,0159_ps_dnn_60_knife_10_n03041632_24060.png,n03041632_24060.png,0.0,1.4721335,1.9430839,-0.3330122
alexnet_w1_mlp_simclrhn_probe3,1,160,NaN,knife,bottle,180,0160_ps_dnn_180_bottle_10_n03983396_4775.png,n03983396_4775.png,0.0,-0.056734927,0.7144458,-0.54530716
alexnet_w1_mlp_simclrhn_probe3,1,161,NaN,cat,keyboard,120,0161_ps_dnn_120_keyboard_10_n04505470_1516.png,n04505470_1516.png,0.0,-0.3261172,0.018808259,-0.24389912
alexnet_w1_mlp_simclrhn_probe3,1,162,NaN,oven,boat,150,0162_ps_dnn_150_boat_10_n03344393_4944.png,n03344393_4944.png,0.0,-0.1567361,0.70878786,-0.61201787
alexnet_w1_mlp_simclrhn_probe3,1,163,NaN,knife,cat,150,0163_ps_dnn_150_cat_10_n02123159_3524.png,n02123159_3524.png,0.0,0.08388499,0.78872305,-0.49839577
alexnet_w1_mlp_simclrhn_probe3,1,164,NaN,boat,truck,60,0164_ps_dnn_60_truck_10_n04467665_50648.png,n04467665_50648.png,0.0,0.5478573,1.6173118,-0.75621855
alexnet_w1_mlp_simclrhn_probe3,1,165,NaN,dog,dog,0,0165_ps_dnn_0_dog_10_n02107574_1277.png,n02107574_1277.png,1.0,1.2065067,0.708783,0.35194385
alexnet_w1_mlp_simclrhn_probe3,1,166,NaN,oven,oven,60,0166_ps_dnn_60_oven_10_n04111531_21980.png,n04111531_21980.png,1.0,4.6908836,1.2280592,2.4485867
alexnet_w1_mlp_simclrhn_probe3,1,167,NaN,oven,boat,120,0167_ps_dnn_120_boat_10_n03344393_11315.png,n03344393_11315.png,0.0,-0.02155385,0.5429062,-0.39913356
alexnet_w1_mlp_simclrhn_probe3,1,168,NaN,oven,knife,90,0168_ps_dnn_90_knife_10_n03041632_32896.png,n03041632_32896.png,0.0,0.46562058,1.0097007,-0.3847227
alexnet_w1_mlp_simclrhn_probe3,1,169,NaN,bottle,bottle,30,0169_ps_dnn_30_bottle_10_n03937543_3133.png,n03937543_3133.png,1.0,1.3828831,0.55156946,0.5878275
alexnet_w1_mlp_simclrhn_probe3,1,170,NaN,oven,car,180,0170_ps_dnn_180_car_10_n04285008_15213.png,n04285008_15213.png,0.0,-0.6489444,0.53909487,-0.84007066
alexnet_w1_mlp_simclrhn_probe3,1,171,NaN,oven,elephant,90,0171_ps_dnn_90_elephant_10_n02504013_3081.png,n02504013_3081.png,0.0,0.62284815,1.0948163,-0.3337319
alexnet_w1_mlp_simclrhn_probe3,1,172,NaN,cat,cat,60,0172_ps_dnn_60_cat_10_n02123159_6873.png,n02123159_6873.png,1.0,2.1616945,0.61424357,1.0942131
alexnet_w1_mlp_simclrhn_probe3,1,173,NaN,bottle,bottle,60,0173_ps_dnn_60_bottle_10_n04579145_4385.png,n04579145_4385.png,1.0,5.1392274,0.72526795,3.1211407
alexnet_w1_mlp_simclrhn_probe3,1,174,NaN,bear,bear,60,0174_ps_dnn_60_bear_10_n02134418_2185.png,n02134418_2185.png,1.0,2.5366666,1.4467342,0.7706986
alexnet_w1_mlp_simclrhn_probe3,1,175,NaN,bear,chair,150,0175_ps_dnn_150_chair_10_n04429376_16002.png,n04429376_16002.png,0.0,-0.34096336,0.34559727,-0.4854717
alexnet_w1_mlp_simclrhn_probe3,1,176,NaN,oven,car,60,0176_ps_dnn_60_car_10_n03100240_8107.png,n03100240_8107.png,0.0,0.2512692,1.6836808,-1.0128679
alexnet_w1_mlp_simclrhn_probe3,1,177,NaN,boat,boat,60,0177_ps_dnn_60_boat_10_n04273569_15906.png,n04273569_15906.png,1.0,1.9846691,1.1877578,0.56350136
alexnet_w1_mlp_simclrhn_probe3,1,178,NaN,dog,car,150,0178_ps_dnn_150_car_10_n02814533_85659.png,n02814533_85659.png,0.0,-0.5538822,0.15740031,-0.5029527
alexnet_w1_mlp_simclrhn_probe3,1,179,NaN,oven,car,150,0179_ps_dnn_150_car_10_n02814533_87140.png,n02814533_87140.png,0.0,-1.0646935,0.76923734,-1.2967849
alexnet_w1_mlp_simclrhn_probe3,1,180,NaN,keyboard,keyboard,30,0180_ps_dnn_30_keyboard_10_n03085013_7520.png,n03085013_7520.png,1.0,4.9407997,0.8936526,2.8617654
alexnet_w1_mlp_simclrhn_probe3,1,181,NaN,bear,dog,90,0181_ps_dnn_90_dog_10_n02112018_10082.png,n02112018_10082.png,0.0,-0.37087592,1.3789582,-1.2373196
alexnet_w1_mlp_simclrhn_probe3,1,182,NaN,bear,bear,90,0182_ps_dnn_90_bear_10_n02134084_5733.png,n02134084_5733.png,1.0,1.4127662,0.96774524,0.31467736
alexnet_w1_mlp_simclrhn_probe3,1,183,NaN,oven,cat,90,0183_ps_dnn_90_cat_10_n02123597_3821.png,n02123597_3821.png,0.0,0.3232614,1.7114156,-0.9815733
alexnet_w1_mlp_simclrhn_probe3,1,184,NaN,bear,boat,120,0184_ps_dnn_120_boat_10_n04612504_15256.png,n04612504_15256.png,0.0,0.1699653,0.70192015,-0.3761489
alexnet_w1_mlp_simclrhn_probe3,1,185,NaN,oven,car,90,0185_ps_dnn_90_car_10_n02814533_84296.png,n02814533_84296.png,0.0,-1.2780977,1.9194638,-2.2610176
alexnet_w1_mlp_simclrhn_probe3,1,186,NaN,bear,clock,120,0186_ps_dnn_120_clock_10_n04548280_5295.png,n04548280_5295.png,0.0,-0.062246677,0.8074351,-0.61495787
alexnet_w1_mlp_simclrhn_probe3,1,187,NaN,airplane,airplane,30,0187_ps_dnn_30_airplane_10_n02690373_11799.png,n02690373_11799.png,1.0,6.8347836,0.68244076,4.3503633
alexnet_w1_mlp_simclrhn_probe3,1,188,NaN,bear,dog,120,0188_ps_dnn_120_dog_10_n02092002_9876.png,n02092002_9876.png,0.0,0.039980356,0.73915637,-0.4943921
alexnet_w1_mlp_simclrhn_probe3,1,189,NaN,chair,chair,0,0189_ps_dnn_0_chair_10_n02791124_16885.png,n02791124_16885.png,1.0,2.9525604,2.245207,0.50017434
alexnet_w1_mlp_simclrhn_probe3,1,190,NaN,knife,airplane,60,0190_ps_dnn_60_airplane_10_n02690373_9376.png,n02690373_9376.png,0.0,0.41470456,0.8035733,-0.27497172
alexnet_w1_mlp_simclrhn_probe3,1,191,NaN,knife,oven,180,0191_ps_dnn_180_oven_10_n04111531_6474.png,n04111531_6474.png,0.0,-0.26362228,0.4078764,-0.47482127
alexnet_w1_mlp_simclrhn_probe3,1,192,NaN,bear,knife,180,0192_ps_dnn_180_knife_10_n03041632_44230.png,n03041632_44230.png,0.0,0.54895574,0.5630302,-0.009952135
alexnet_w1_mlp_simclrhn_probe3,1,193,NaN,bear,dog,180,0193_ps_dnn_180_dog_10_n02099601_6318.png,n02099601_6318.png,0.0,-0.11714866,0.3124827,-0.30379528
alexnet_w1_mlp_simclrhn_probe3,1,194,NaN,bear,cat,150,0194_ps_dnn_150_cat_10_n02125311_20241.png,n02125311_20241.png,0.0,0.02501593,0.4209205,-0.2799468
alexnet_w1_mlp_simclrhn_probe3,1,195,NaN,bear,truck,120,0195_ps_dnn_120_truck_10_n04467665_51397.png,n04467665_51397.png,0.0,-0.7659044,0.851427,-1.1436261
alexnet_w1_mlp_simclrhn_probe3,1,196,NaN,dog,dog,0,0196_ps_dnn_0_dog_10_n02104365_1500.png,n02104365_1500.png,1.0,1.1395137,0.7132929,0.30138364
alexnet_w1_mlp_simclrhn_probe3,1,197,NaN,knife,knife,90,0197_ps_dnn_90_knife_10_n03041632_3171.png,n03041632_3171.png,1.0,1.0336058,0.5169295,0.36534533
alexnet_w1_mlp_simclrhn_probe3,1,198,NaN,oven,oven,60,0198_ps_dnn_60_oven_10_n04111531_249.png,n04111531_249.png,1.0,2.4752374,0.55134314,1.3603987
alexnet_w1_mlp_simclrhn_probe3,1,199,NaN,bicycle,bear,90,0199_ps_dnn_90_bear_10_n02133161_8856.png,n02133161_8856.png,0.0,0.036275834,0.27689925,-0.17014645
alexnet_w1_mlp_simclrhn_probe3,1,200,NaN,cat,cat,0,0200_ps_dnn_0_cat_10_n02123045_13354.png,n02123045_13354.png,1.0,14.578038,1.1676352,9.482587
alexnet_w1_mlp_simclrhn_probe3,1,201,NaN,keyboard,keyboard,120,0201_ps_dnn_120_keyboard_10_n03085013_23267.png,n03085013_23267.png,1.0,1.0375779,0.5540362,0.3419156
alexnet_w1_mlp_simclrhn_probe3,1,202,NaN,truck,truck,30,0202_ps_dnn_30_truck_10_n03796401_22643.png,n03796401_22643.png,1.0,3.3097663,2.0623877,0.8820299
alexnet_w1_mlp_simclrhn_probe3,1,203,NaN,knife,elephant,180,0203_ps_dnn_180_elephant_10_n02504458_4572.png,n02504458_4572.png,0.0,-0.047191292,0.99632937,-0.7378806
alexnet_w1_mlp_simclrhn_probe3,1,204,NaN,bear,truck,180,0204_ps_dnn_180_truck_10_n04467665_23173.png,n04467665_23173.png,0.0,-0.47973323,0.6368055,-0.78951216
alexnet_w1_mlp_simclrhn_probe3,1,205,NaN,knife,bear,180,0205_ps_dnn_180_bear_10_n02134418_25040.png,n02134418_25040.png,0.0,0.41453367,0.7514113,-0.23820847
alexnet_w1_mlp_simclrhn_probe3,1,206,NaN,bicycle,bicycle,60,0206_ps_dnn_60_bicycle_10_n02835271_21185.png,n02835271_21185.png,1.0,2.7520142,0.47768807,1.6081914
alexnet_w1_mlp_simclrhn_probe3,1,207,NaN,chair,boat,30,0207_ps_dnn_30_boat_10_n02951358_12664.png,n02951358_12664.png,0.0,0.2363754,0.8925399,-0.46397838
alexnet_w1_mlp_simclrhn_probe3,1,208,NaN,bottle,bottle,30,0208_ps_dnn_30_bottle_10_n03983396_11519.png,n03983396_11519.png,1.0,5.3489547,3.321762,1.4334416
alexnet_w1_mlp_simclrhn_probe3,1,209,NaN,knife,knife,120,0209_ps_dnn_120_knife_10_n03041632_36280.png,n03041632_36280.png,1.0,0.67379546,0.22542508,0.31704575
alexnet_w1_mlp_simclrhn_probe3,1,210,NaN,boat,truck,60,0210_ps_dnn_60_truck_10_n04467665_67115.png,n04467665_67115.png,0.0,0.10108581,1.5382837,-1.0162524
alexnet_w1_mlp_simclrhn_probe3,1,211,NaN,bear,bear,30,0211_ps_dnn_30_bear_10_n02133161_1560.png,n02133161_1560.png,1.0,1.4172611,0.84659547,0.40352157
alexnet_w1_mlp_simclrhn_probe3,1,212,NaN,oven,truck,180,0212_ps_dnn_180_truck_10_n03417042_6780.png,n03417042_6780.png,0.0,-0.30562702,1.0697958,-0.97257084
alexnet_w1_mlp_simclrhn_probe3,1,213,NaN,knife,bear,150,0213_ps_dnn_150_bear_10_n02134084_20261.png,n02134084_20261.png,0.0,0.4180768,0.60925734,-0.13518505
alexnet_w1_mlp_simclrhn_probe3,1,214,NaN,knife,chair,180,0214_ps_dnn_180_chair_10_n03376595_8377.png,n03376595_8377.png,0.0,-0.23811756,0.54722494,-0.55532104
alexnet_w1_mlp_simclrhn_probe3,1,215,NaN,knife,bird,180,0215_ps_dnn_180_bird_10_n01824575_3556.png,n01824575_3556.png,0.0,0.074288175,0.52876765,-0.3213655
alexnet_w1_mlp_simclrhn_probe3,1,216,NaN,oven,chair,90,0216_ps_dnn_90_chair_10_n04099969_36004.png,n04099969_36004.png,0.0,-0.011398427,0.9742686,-0.6969719
alexnet_w1_mlp_simclrhn_probe3,1,217,NaN,bicycle,bicycle,0,0217_ps_dnn_0_bicycle_10_n02835271_22549.png,n02835271_22549.png,1.0,16.60331,3.390262,9.343036
alexnet_w1_mlp_simclrhn_probe3,1,218,NaN,knife,clock,150,0218_ps_dnn_150_clock_10_n04548280_8535.png,n04548280_8535.png,0.0,0.13310713,0.4690911,-0.23757654
alexnet_w1_mlp_simclrhn_probe3,1,219,NaN,bear,knife,120,0219_ps_dnn_120_knife_10_n03041632_14546.png,n03041632_14546.png,0.0,0.055640277,1.1272764,-0.75776124
alexnet_w1_mlp_simclrhn_probe3,1,220,NaN,keyboard,keyboard,0,0220_ps_dnn_0_keyboard_10_n04505470_4974.png,n04505470_4974.png,1.0,13.584272,2.343454,7.9484587
alexnet_w1_mlp_simclrhn_probe3,1,221,NaN,clock,clock,0,0221_ps_dnn_0_clock_10_n04548280_487.png,n04548280_487.png,1.0,4.2350626,0.42347613,2.6951985
alexnet_w1_mlp_simclrhn_probe3,1,222,NaN,truck,truck,30,0222_ps_dnn_30_truck_10_n03417042_10401.png,n03417042_10401.png,1.0,7.9960833,1.0144511,4.9367595
alexnet_w1_mlp_simclrhn_probe3,1,223,NaN,oven,clock,180,0223_ps_dnn_180_clock_10_n03196217_6257.png,n03196217_6257.png,0.0,0.07100758,0.6763942,-0.428073
alexnet_w1_mlp_simclrhn_probe3,1,224,NaN,bear,elephant,120,0224_ps_dnn_120_elephant_10_n02504458_1698.png,n02504458_1698.png,0.0,0.24041659,1.0229883,-0.5533618
alexnet_w1_mlp_simclrhn_probe3,1,225,NaN,knife,keyboard,180,0225_ps_dnn_180_keyboard_10_n03085013_23014.png,n03085013_23014.png,0.0,-0.4660409,0.58467746,-0.74297005
alexnet_w1_mlp_simclrhn_probe3,1,226,NaN,cat,cat,60,0226_ps_dnn_60_cat_10_n02125311_17002.png,n02125311_17002.png,1.0,2.1414235,1.9639302,0.12550665
alexnet_w1_mlp_simclrhn_probe3,1,227,NaN,knife,boat,180,0227_ps_dnn_180_boat_10_n03344393_5566.png,n03344393_5566.png,0.0,-0.068832785,0.3460698,-0.29338044
alexnet_w1_mlp_simclrhn_probe3,1,228,NaN,bear,bicycle,150,0228_ps_dnn_150_bicycle_10_n02835271_4887.png,n02835271_4887.png,0.0,-0.13190442,0.6376882,-0.5441842
alexnet_w1_mlp_simclrhn_probe3,1,229,NaN,oven,keyboard,120,0229_ps_dnn_120_keyboard_10_n04505470_8386.png,n04505470_8386.png,0.0,0.26460356,0.9477457,-0.48305443
alexnet_w1_mlp_simclrhn_probe3,1,230,NaN,bear,bear,120,0230_ps_dnn_120_bear_10_n02133161_361.png,n02133161_361.png,1.0,1.0850062,0.52019167,0.39938423
alexnet_w1_mlp_simclrhn_probe3,1,231,NaN,oven,bottle,0,0231_ps_dnn_0_bottle_10_n04560804_2165.png,n04560804_2165.png,0.0,0.42240983,1.725812,-0.92164457
alexnet_w1_mlp_simclrhn_probe3,1,232,NaN,knife,cat,150,0232_ps_dnn_150_cat_10_n02124075_14020.png,n02124075_14020.png,0.0,0.13936473,0.7216181,-0.41171533
alexnet_w1_mlp_simclrhn_probe3,1,233,NaN,keyboard,clock,150,0233_ps_dnn_150_clock_10_n04548280_3301.png,n04548280_3301.png,0.0,-0.049796503,0.4655132,-0.364379
alexnet_w1_mlp_simclrhn_probe3,1,234,NaN,bear,knife,180,0234_ps_dnn_180_knife_10_n03041632_5820.png,n03041632_5820.png,0.0,0.51796687,0.53306615,-0.010676809
alexnet_w1_mlp_simclrhn_probe3,1,235,NaN,bear,oven,120,0235_ps_dnn_120_oven_10_n04111531_2922.png,n04111531_2922.png,0.0,0.48947528,0.5128159,-0.016504306
alexnet_w1_mlp_simclrhn_probe3,1,236,NaN,bear,bear,120,0236_ps_dnn_120_bear_10_n02134084_7441.png,n02134084_7441.png,1.0,0.23335142,0.22262916,0.0075817863
alexnet_w1_mlp_simclrhn_probe3,1,237,NaN,oven,airplane,150,0237_ps_dnn_150_airplane_10_n02690373_8252.png,n02690373_8252.png,0.0,-0.7818347,0.7520653,-1.0846311
alexnet_w1_mlp_simclrhn_probe3,1,238,NaN,bear,bird,150,0238_ps_dnn_150_bird_10_n02018207_69.png,n02018207_69.png,0.0,-0.009181882,0.28220743,-0.20604336
alexnet_w1_mlp_simclrhn_probe3,1,239,NaN,bird,bird,30,0239_ps_dnn_30_bird_10_n01798484_5355.png,n01798484_5355.png,1.0,0.7347153,0.38374862,0.24817091
alexnet_w1_mlp_simclrhn_probe3,1,240,NaN,keyboard,keyboard,150,0240_ps_dnn_150_keyboard_10_n03085013_4999.png,n03085013_4999.png,1.0,0.9161756,0.71024764,0.14561306
alexnet_w1_mlp_simclrhn_probe3,1,241,NaN,oven,dog,120,0241_ps_dnn_120_dog_10_n02111500_3041.png,n02111500_3041.png,0.0,-0.18019713,0.4841771,-0.46978354
alexnet_w1_mlp_simclrhn_probe3,1,242,NaN,boat,boat,0,0242_ps_dnn_0_boat_10_n04612504_15237.png,n04612504_15237.png,1.0,10.701353,2.645027,5.696683
alexnet_w1_mlp_simclrhn_probe3,1,243,NaN,bear,truck,150,0243_ps_dnn_150_truck_10_n03417042_6480.png,n03417042_6480.png,0.0,-0.54170525,0.6999644,-0.87799305
alexnet_w1_mlp_simclrhn_probe3,1,244,NaN,knife,airplane,180,0244_ps_dnn_180_airplane_10_n02690373_8382.png,n02690373_8382.png,0.0,-0.4898288,0.3165135,-0.5701701
alexnet_w1_mlp_simclrhn_probe3,1,245,NaN,oven,bottle,120,0245_ps_dnn_120_bottle_10_n04591713_2345.png,n04591713_2345.png,0.0,-0.15361781,0.8011173,-0.6750997
alexnet_w1_mlp_simclrhn_probe3,1,246,NaN,elephant,elephant,60,0246_ps_dnn_60_elephant_10_n02504458_9516.png,n02504458_9516.png,1.0,4.259063,1.6372817,1.8538792
alexnet_w1_mlp_simclrhn_probe3,1,247,NaN,knife,elephant,180,0247_ps_dnn_180_elephant_10_n02504013_698.png,n02504013_698.png,0.0,-0.08903909,0.65244985,-0.52431184
alexnet_w1_mlp_simclrhn_probe3,1,248,NaN,bear,bear,0,0248_ps_dnn_0_bear_10_n02133161_5292.png,n02133161_5292.png,1.0,7.3847528,4.806543,1.8230697
alexnet_w1_mlp_simclrhn_probe3,1,249,NaN,bicycle,boat,90,0249_ps_dnn_90_boat_10_n02951358_14341.png,n02951358_14341.png,0.0,-0.0651115,0.9605501,-0.7252523
alexnet_w1_mlp_simclrhn_probe3,1,250,NaN,knife,bear,120,0250_ps_dnn_120_bear_10_n02133161_2304.png,n02133161_2304.png,0.0,0.28283575,0.30919123,-0.018636135
alexnet_w1_mlp_simclrhn_probe3,1,251,NaN,knife,airplane,150,0251_ps_dnn_150_airplane_10_n02690373_1751.png,n02690373_1751.png,0.0,-0.16006106,0.8225217,-0.69479096
alexnet_w1_mlp_simclrhn_probe3,1,252,NaN,knife,truck,150,0252_ps_dnn_150_truck_10_n04467665_48953.png,n04467665_48953.png,0.0,-0.5912677,0.70845306,-0.9190414
alexnet_w1_mlp_simclrhn_probe3,1,253,NaN,oven,oven,0,0253_ps_dnn_0_oven_10_n04111531_10077.png,n04111531_10077.png,1.0,8.278706,1.4247664,4.846467
alexnet_w1_mlp_simclrhn_probe3,1,254,NaN,knife,dog,150,0254_ps_dnn_150_dog_10_n02097209_821.png,n02097209_821.png,0.0,-0.1444953,0.43245864,-0.40796804
alexnet_w1_mlp_simclrhn_probe3,1,255,NaN,truck,truck,0,0255_ps_dnn_0_truck_10_n04467665_13231.png,n04467665_13231.png,1.0,1.7896702,1.1434876,0.45692015
alexnet_w1_mlp_simclrhn_probe3,1,256,NaN,dog,dog,90,0256_ps_dnn_90_dog_10_n02107908_3447.png,n02107908_3447.png,1.0,0.24259163,0.15763013,0.060076855
alexnet_w1_mlp_simclrhn_probe3,1,257,NaN,oven,elephant,180,0257_ps_dnn_180_elephant_10_n02504013_5021.png,n02504013_5021.png,0.0,0.40641156,0.77955544,-0.26385257
alexnet_w1_mlp_simclrhn_probe3,1,258,NaN,oven,knife,90,0258_ps_dnn_90_knife_10_n03041632_12242.png,n03041632_12242.png,0.0,0.45752668,0.61128545,-0.108723864
alexnet_w1_mlp_simclrhn_probe3,1,259,NaN,knife,keyboard,150,0259_ps_dnn_150_keyboard_10_n03085013_22821.png,n03085013_22821.png,0.0,0.23118211,0.67317605,-0.31253693
alexnet_w1_mlp_simclrhn_probe3,1,260,NaN,knife,cat,150,0260_ps_dnn_150_cat_10_n02124075_2080.png,n02124075_2080.png,0.0,-0.096568204,0.41892222,-0.36450678
alexnet_w1_mlp_simclrhn_probe3,1,261,NaN,bear,bicycle,180,0261_ps_dnn_180_bicycle_10_n02835271_7296.png,n02835271_7296.png,0.0,0.009372093,0.45791173,-0.31716543
alexnet_w1_mlp_simclrhn_probe3,1,262,NaN,knife,boat,180,0262_ps_dnn_180_boat_10_n04612504_4302.png,n04612504_4302.png,0.0,0.06378821,0.59673023,-0.3768469
alexnet_w1_mlp_simclrhn_probe3,1,263,NaN,knife,clock,150,0263_ps_dnn_150_clock_10_n04548280_4524.png,n04548280_4524.png,0.0,-0.02990309,0.3734151,-0.28518903
alexnet_w1_mlp_simclrhn_probe3,1,264,NaN,bear,knife,150,0264_ps_dnn_150_knife_10_n03041632_19275.png,n03041632_19275.png,0.0,-0.11141212,0.36501014,-0.3368814
alexnet_w1_mlp_simclrhn_probe3,1,265,NaN,bird,bird,30,0265_ps_dnn_30_bird_10_n01796340_2973.png,n01796340_2973.png,1.0,1.5330901,0.3543712,0.8334802
alexnet_w1_mlp_simclrhn_probe3,1,266,NaN,oven,chair,90,0266_ps_dnn_90_chair_10_n02791124_15407.png,n02791124_15407.png,0.0,0.25225383,2.6572168,-1.7005657
alexnet_w1_mlp_simclrhn_probe3,1,267,NaN,dog,dog,30,0267_ps_dnn_30_dog_10_n02109525_72594.png,n02109525_72594.png,1.0,1.908187,0.25473028,1.1691705
alexnet_w1_mlp_simclrhn_probe3,1,268,NaN,bear,knife,150,0268_ps_dnn_150_knife_10_n03041632_19614.png,n03041632_19614.png,0.0,0.22401583,0.24809118,-0.017023839
alexnet_w1_mlp_simclrhn_probe3,1,269,NaN,keyboard,keyboard,30,0269_ps_dnn_30_keyboard_10_n04505470_5111.png,n04505470_5111.png,1.0,10.463428,2.13011,5.8925457
alexnet_w1_mlp_simclrhn_probe3,1,270,NaN,bicycle,bicycle,30,0270_ps_dnn_30_bicycle_10_n03792782_8374.png,n03792782_8374.png,1.0,6.589798,1.2705865,3.7612505
alexnet_w1_mlp_simclrhn_probe3,1,271,NaN,bear,boat,120,0271_ps_dnn_120_boat_10_n04612504_2024.png,n04612504_2024.png,0.0,0.177924,1.0995344,-0.65167695
alexnet_w1_mlp_simclrhn_probe3,1,272,NaN,bicycle,bicycle,30,0272_ps_dnn_30_bicycle_10_n02835271_9860.png,n02835271_9860.png,1.0,4.9765587,2.0806406,2.0477233
alexnet_w1_mlp_simclrhn_probe3,1,273,NaN,elephant,bear,60,0273_ps_dnn_60_bear_10_n02134084_21921.png,n02134084_21921.png,0.0,2.6196408,2.8111832,-0.13544092
alexnet_w1_mlp_simclrhn_probe3,1,274,NaN,bear,bear,90,0274_ps_dnn_90_bear_10_n02134418_836.png,n02134418_836.png,1.0,1.4389138,0.97365975,0.32898432
alexnet_w1_mlp_simclrhn_probe3,1,275,NaN,oven,chair,60,0275_ps_dnn_60_chair_10_n04429376_6141.png,n04429376_6141.png,0.0,0.86971116,1.6147894,-0.52684987
alexnet_w1_mlp_simclrhn_probe3,1,276,NaN,truck,truck,30,0276_ps_dnn_30_truck_10_n04467665_6523.png,n04467665_6523.png,1.0,2.9483905,1.401644,1.093715
alexnet_w1_mlp_simclrhn_probe3,1,277,NaN,oven,chair,90,0277_ps_dnn_90_chair_10_n04429376_41755.png,n04429376_41755.png,0.0,0.6443503,0.8295078,-0.13092615
alexnet_w1_mlp_simclrhn_probe3,1,278,NaN,knife,bottle,180,0278_ps_dnn_180_bottle_10_n04579145_3302.png,n04579145_3302.png,0.0,-0.034924172,0.5877686,-0.44031027
alexnet_w1_mlp_simclrhn_probe3,1,279,NaN,cat,cat,0,0279_ps_dnn_0_cat_10_n02123045_12297.png,n02123045_12297.png,1.0,8.687591,0.9688396,5.457981
alexnet_w1_mlp_simclrhn_probe3,1,280,NaN,clock,clock,60,0280_ps_dnn_60_clock_10_n04548280_5734.png,n04548280_5734.png,1.0,0.8984279,0.44714782,0.3191032
alexnet_w1_mlp_simclrhn_probe3,1,281,NaN,oven,elephant,90,0281_ps_dnn_90_elephant_10_n02504013_3640.png,n02504013_3640.png,0.0,0.65363115,1.584538,-0.6582506
alexnet_w1_mlp_simclrhn_probe3,1,282,NaN,bicycle,car,0,0282_ps_dnn_0_car_10_n03100240_2108.png,n03100240_2108.png,0.0,0.37283167,0.68609,-0.22150709
alexnet_w1_mlp_simclrhn_probe3,1,283,NaN,elephant,car,90,0283_ps_dnn_90_car_10_n02814533_8499.png,n02814533_8499.png,0.0,-0.806834,1.0513422,-1.3139291
alexnet_w1_mlp_simclrhn_probe3,1,284,NaN,bear,knife,180,0284_ps_dnn_180_knife_10_n03041632_9406.png,n03041632_9406.png,0.0,0.33940363,0.60555375,-0.18819655
alexnet_w1_mlp_simclrhn_probe3,1,285,NaN,airplane,clock,120,0285_ps_dnn_120_clock_10_n04548280_3968.png,n04548280_3968.png,0.0,-0.1749266,0.42282873,-0.42267683
alexnet_w1_mlp_simclrhn_probe3,1,286,NaN,cat,boat,120,0286_ps_dnn_120_boat_10_n04273569_20587.png,n04273569_20587.png,0.0,-0.15209526,0.38816223,-0.38201973
alexnet_w1_mlp_simclrhn_probe3,1,287,NaN,knife,truck,150,0287_ps_dnn_150_truck_10_n03796401_7261.png,n03796401_7261.png,0.0,-0.5509037,0.46288216,-0.7168549
alexnet_w1_mlp_simclrhn_probe3,1,288,NaN,bear,boat,90,0288_ps_dnn_90_boat_10_n04273569_18037.png,n04273569_18037.png,0.0,0.38710013,1.9093035,-1.0763603
alexnet_w1_mlp_simclrhn_probe3,1,289,NaN,keyboard,bicycle,180,0289_ps_dnn_180_bicycle_10_n02835271_4789.png,n02835271_4789.png,0.0,-0.18816015,0.3913169,-0.40975216
alexnet_w1_mlp_simclrhn_probe3,1,290,NaN,oven,chair,90,0290_ps_dnn_90_chair_10_n04099969_18380.png,n04099969_18380.png,0.0,-0.5139383,0.9314214,-1.0220237
alexnet_w1_mlp_simclrhn_probe3,1,291,NaN,bear,dog,120,0291_ps_dnn_120_dog_10_n02100583_13688.png,n02100583_13688.png,0.0,-0.032248482,1.1292505,-0.82130384
alexnet_w1_mlp_simclrhn_probe3,1,292,NaN,knife,boat,180,0292_ps_dnn_180_boat_10_n03662601_8065.png,n03662601_8065.png,0.0,-0.28191847,0.5972605,-0.6216734
alexnet_w1_mlp_simclrhn_probe3,1,293,NaN,boat,boat,0,0293_ps_dnn_0_boat_10_n02951358_15218.png,n02951358_15218.png,1.0,8.254886,2.567862,4.021333
alexnet_w1_mlp_simclrhn_probe3,1,294,NaN,bear,knife,180,0294_ps_dnn_180_knife_10_n03041632_24277.png,n03041632_24277.png,0.0,0.37431398,0.7045224,-0.2334926
alexnet_w1_mlp_simclrhn_probe3,1,295,NaN,bear,bird,90,0295_ps_dnn_90_bird_10_n01601694_2723.png,n01601694_2723.png,0.0,0.87996954,1.5752424,-0.49163216
alexnet_w1_mlp_simclrhn_probe3,1,296,NaN,keyboard,keyboard,120,0296_ps_dnn_120_keyboard_10_n04505470_4724.png,n04505470_4724.png,1.0,1.6492019,0.4348191,0.8586983
alexnet_w1_mlp_simclrhn_probe3,1,297,NaN,knife,bear,150,0297_ps_dnn_150_bear_10_n02134418_1642.png,n02134418_1642.png,0.0,0.7409048,0.8719804,-0.09268446
alexnet_w1_mlp_simclrhn_probe3,1,298,NaN,oven,truck,60,0298_ps_dnn_60_truck_10_n03417042_13055.png,n03417042_13055.png,0.0,0.3113499,1.9539168,-1.1614702
alexnet_w1_mlp_simclrhn_probe3,1,299,NaN,keyboard,bear,120,0299_ps_dnn_120_bear_10_n02133161_1629.png,n02133161_1629.png,0.0,0.15173082,0.52564037,-0.264394
alexnet_w1_mlp_simclrhn_probe3,1,300,NaN,knife,bottle,180,0300_ps_dnn_180_bottle_10_n04579145_1856.png,n04579145_1856.png,0.0,-0.23745537,0.73099226,-0.6847959
alexnet_w1_mlp_simclrhn_probe3,1,301,NaN,bear,chair,150,0301_ps_dnn_150_chair_10_n04099969_3768.png,n04099969_3768.png,0.0,-0.5727737,0.5681178,-0.8067322
alexnet_w1_mlp_simclrhn_probe3,1,302,NaN,bear,bird,120,0302_ps_dnn_120_bird_10_n02009229_5172.png,n02009229_5172.png,0.0,-0.21780135,0.638316,-0.60536635
alexnet_w1_mlp_simclrhn_probe3,1,303,NaN,oven,airplane,90,0303_ps_dnn_90_airplane_10_n02690373_21731.png,n02690373_21731.png,0.0,0.8555254,1.4138051,-0.3947634
alexnet_w1_mlp_simclrhn_probe3,1,304,NaN,bear,bear,30,0304_ps_dnn_30_bear_10_n02133161_959.png,n02133161_959.png,1.0,0.52605367,0.42684993,0.07014763
alexnet_w1_mlp_simclrhn_probe3,1,305,NaN,chair,chair,0,0305_ps_dnn_0_chair_10_n04099969_1028.png,n04099969_1028.png,1.0,2.4206696,1.9522648,0.3312122
alexnet_w1_mlp_simclrhn_probe3,1,306,NaN,bear,knife,180,0306_ps_dnn_180_knife_10_n03041632_44212.png,n03041632_44212.png,0.0,0.3178037,0.8275838,-0.36046892
alexnet_w1_mlp_simclrhn_probe3,1,307,NaN,bear,oven,120,0307_ps_dnn_120_oven_10_n04111531_9344.png,n04111531_9344.png,0.0,0.40289006,0.58157253,-0.12634759
alexnet_w1_mlp_simclrhn_probe3,1,308,NaN,bear,car,180,0308_ps_dnn_180_car_10_n04285008_9080.png,n04285008_9080.png,0.0,-0.7571893,1.0913756,-1.3071327
alexnet_w1_mlp_simclrhn_probe3,1,309,NaN,car,car,60,0309_ps_dnn_60_car_10_n03100240_17349.png,n03100240_17349.png,1.0,3.8637197,1.3248957,1.7952198
alexnet_w1_mlp_simclrhn_probe3,1,310,NaN,dog,dog,30,0310_ps_dnn_30_dog_10_n02110958_1335.png,n02110958_1335.png,1.0,0.87022233,0.5975292,0.19282319
alexnet_w1_mlp_simclrhn_probe3,1,311,NaN,oven,elephant,150,0311_ps_dnn_150_elephant_10_n02504013_7305.png,n02504013_7305.png,0.0,-0.08621141,0.95185995,-0.7340273
alexnet_w1_mlp_simclrhn_probe3,1,312,NaN,oven,dog,90,0312_ps_dnn_90_dog_10_n02091244_2626.png,n02091244_2626.png,0.0,0.12857044,1.776094,-1.164975
alexnet_w1_mlp_simclrhn_probe3,1,313,NaN,knife,bird,150,0313_ps_dnn_150_bird_10_n01828970_22.png,n01828970_22.png,0.0,-0.15955347,0.08242368,-0.17110369
alexnet_w1_mlp_simclrhn_probe3,1,314,NaN,cat,cat,60,0314_ps_dnn_60_cat_10_n02124075_13587.png,n02124075_13587.png,1.0,1.4866753,0.9198035,0.40083888
alexnet_w1_mlp_simclrhn_probe3,1,315,NaN,bear,knife,120,0315_ps_dnn_120_knife_10_n03041632_13612.png,n03041632_13612.png,0.0,0.0686953,1.0957074,-0.72620726
alexnet_w1_mlp_simclrhn_probe3,1,316,NaN,bear,bicycle,90,0316_ps_dnn_90_bicycle_10_n02835271_2581.png,n02835271_2581.png,0.0,0.19356693,1.2609985,-0.7547881
alexnet_w1_mlp_simclrhn_probe3,1,317,NaN,clock,clock,30,0317_ps_dnn_30_clock_10_n03196217_2536.png,n03196217_2536.png,1.0,1.929358,1.613423,0.2233998
alexnet_w1_mlp_simclrhn_probe3,1,318,NaN,clock,cat,90,0318_ps_dnn_90_cat_10_n02124075_15001.png,n02124075_15001.png,0.0,0.21519639,0.6594885,-0.314162
alexnet_w1_mlp_simclrhn_probe3,1,319,NaN,bear,bear,60,0319_ps_dnn_60_bear_10_n02133161_6152.png,n02133161_6152.png,1.0,1.4503921,1.2913792,0.11243911
alexnet_w1_mlp_simclrhn_probe3,1,320,NaN,oven,chair,30,0320_ps_dnn_30_chair_10_n04099969_8401.png,n04099969_8401.png,0.0,0.8828197,3.5019581,-1.8520106
alexnet_w1_mlp_simclrhn_probe3,1,321,NaN,bear,oven,150,0321_ps_dnn_150_oven_10_n04111531_7923.png,n04111531_7923.png,0.0,0.17772235,0.70887095,-0.3755788
alexnet_w1_mlp_simclrhn_probe3,1,322,NaN,bear,cat,120,0322_ps_dnn_120_cat_10_n02123159_5706.png,n02123159_5706.png,0.0,-0.16957188,0.17967215,-0.24695283
alexnet_w1_mlp_simclrhn_probe3,1,323,NaN,airplane,airplane,30,0323_ps_dnn_30_airplane_10_n02690373_13324.png,n02690373_13324.png,1.0,4.0867405,1.819731,1.6030178
alexnet_w1_mlp_simclrhn_probe3,1,324,NaN,knife,airplane,150,0324_ps_dnn_150_airplane_10_n02690373_4452.png,n02690373_4452.png,0.0,-0.82038295,0.31552047,-0.80320495
alexnet_w1_mlp_simclrhn_probe3,1,325,NaN,bear,bird,90,0325_ps_dnn_90_bird_10_n02056570_10881.png,n02056570_10881.png,0.0,0.94769,1.1322012,-0.13046911
alexnet_w1_mlp_simclrhn_probe3,1,326,NaN,oven,airplane,90,0326_ps_dnn_90_airplane_10_n02690373_19133.png,n02690373_19133.png,0.0,0.5354504,0.96699893,-0.3051509
alexnet_w1_mlp_simclrhn_probe3,1,327,NaN,bottle,bottle,0,0327_ps_dnn_0_bottle_10_n03937543_4850.png,n03937543_4850.png,1.0,5.935841,0.5265621,3.8249378
alexnet_w1_mlp_simclrhn_probe3,1,328,NaN,bear,keyboard,150,0328_ps_dnn_150_keyboard_10_n04505470_2709.png,n04505470_2709.png,0.0,0.026089907,0.561035,-0.3782633
alexnet_w1_mlp_simclrhn_probe3,1,329,NaN,keyboard,keyboard,90,0329_ps_dnn_90_keyboard_10_n03085013_1797.png,n03085013_1797.png,1.0,2.387494,2.2607903,0.089593075
alexnet_w1_mlp_simclrhn_probe3,1,330,NaN,oven,oven,30,0330_ps_dnn_30_oven_10_n04111531_3902.png,n04111531_3902.png,1.0,2.7022727,1.0221035,1.188059
alexnet_w1_mlp_simclrhn_probe3,1,331,NaN,knife,car,180,0331_ps_dnn_180_car_10_n03100240_6750.png,n03100240_6750.png,0.0,-0.6495376,0.6992307,-0.9537232
alexnet_w1_mlp_simclrhn_probe3,1,332,NaN,bicycle,chair,0,0332_ps_dnn_0_chair_10_n03376595_16306.png,n03376595_16306.png,0.0,4.462181,4.8278437,-0.2585625
alexnet_w1_mlp_simclrhn_probe3,1,333,NaN,bicycle,boat,60,0333_ps_dnn_60_boat_10_n02951358_13017.png,n02951358_13017.png,0.0,0.087101184,2.940948,-2.0179744
alexnet_w1_mlp_simclrhn_probe3,1,334,NaN,oven,clock,90,0334_ps_dnn_90_clock_10_n03196217_5827.png,n03196217_5827.png,0.0,-0.026788712,0.9784842,-0.7108353
alexnet_w1_mlp_simclrhn_probe3,1,335,NaN,keyboard,bottle,0,0335_ps_dnn_0_bottle_10_n02823428_685.png,n02823428_685.png,0.0,1.318288,1.3845218,-0.04683442
alexnet_w1_mlp_simclrhn_probe3,1,336,NaN,bear,airplane,120,0336_ps_dnn_120_airplane_10_n02690373_2092.png,n02690373_2092.png,0.0,-0.7759437,0.7757691,-1.0972266
alexnet_w1_mlp_simclrhn_probe3,1,337,NaN,cat,bottle,180,0337_ps_dnn_180_bottle_10_n04557648_3637.png,n04557648_3637.png,0.0,-0.04650998,0.6792798,-0.5132109
alexnet_w1_mlp_simclrhn_probe3,1,338,NaN,bear,bird,90,0338_ps_dnn_90_bird_10_n01819313_5521.png,n01819313_5521.png,0.0,-0.1358027,1.5661733,-1.2034788
alexnet_w1_mlp_simclrhn_probe3,1,339,NaN,elephant,dog,90,0339_ps_dnn_90_dog_10_n02100583_24297.png,n02100583_24297.png,0.0,0.2674328,1.4401455,-0.8292331
alexnet_w1_mlp_simclrhn_probe3,1,340,NaN,bear,bird,60,0340_ps_dnn_60_bird_10_n02018207_12233.png,n02018207_12233.png,0.0,1.0669211,2.4219985,-0.9581844
alexnet_w1_mlp_simclrhn_probe3,1,341,NaN,bear,bird,180,0341_ps_dnn_180_bird_10_n02013706_3032.png,n02013706_3032.png,0.0,0.07845902,0.43499327,-0.2521078
alexnet_w1_mlp_simclrhn_probe3,1,342,NaN,oven,oven,60,0342_ps_dnn_60_oven_10_n04111531_9939.png,n04111531_9939.png,1.0,3.2116106,0.6826632,1.7882359
alexnet_w1_mlp_simclrhn_probe3,1,343,NaN,keyboard,bird,180,0343_ps_dnn_180_bird_10_n02011460_7629.png,n02011460_7629.png,0.0,-0.19517076,0.15365785,-0.24665909
alexnet_w1_mlp_simclrhn_probe3,1,344,NaN,oven,oven,60,0344_ps_dnn_60_oven_10_n04111531_13542.png,n04111531_13542.png,1.0,1.9594371,1.2631946,0.49231786
alexnet_w1_mlp_simclrhn_probe3,1,345,NaN,bear,bear,90,0345_ps_dnn_90_bear_10_n02134418_270.png,n02134418_270.png,1.0,2.143359,1.1696689,0.68850285
alexnet_w1_mlp_simclrhn_probe3,1,346,NaN,bear,bicycle,90,0346_ps_dnn_90_bicycle_10_n03792782_12561.png,n03792782_12561.png,0.0,0.5816815,0.6879766,-0.07516199
alexnet_w1_mlp_simclrhn_probe3,1,347,NaN,keyboard,elephant,120,0347_ps_dnn_120_elephant_10_n02504458_9213.png,n02504458_9213.png,0.0,0.018017186,0.117644444,-0.07044711
alexnet_w1_mlp_simclrhn_probe3,1,348,NaN,oven,chair,90,0348_ps_dnn_90_chair_10_n03376595_4155.png,n03376595_4155.png,0.0,0.5634575,1.720321,-0.81802607
alexnet_w1_mlp_simclrhn_probe3,1,349,NaN,bear,truck,120,0349_ps_dnn_120_truck_10_n04467665_69970.png,n04467665_69970.png,0.0,-0.38379562,1.0727899,-1.0299615
alexnet_w1_mlp_simclrhn_probe3,1,350,NaN,bear,bird,120,0350_ps_dnn_120_bird_10_n02002556_2350.png,n02002556_2350.png,0.0,-0.0645866,0.39936525,-0.32806352
alexnet_w1_mlp_simclrhn_probe3,1,351,NaN,bear,bear,0,0351_ps_dnn_0_bear_10_n02133161_355.png,n02133161_355.png,1.0,7.108942,3.57807,2.4967036
alexnet_w1_mlp_simclrhn_probe3,1,352,NaN,oven,airplane,90,0352_ps_dnn_90_airplane_10_n02690373_3065.png,n02690373_3065.png,0.0,-0.5899868,0.6753689,-0.8947416
alexnet_w1_mlp_simclrhn_probe3,1,353,NaN,truck,truck,60,0353_ps_dnn_60_truck_10_n03417042_13289.png,n03417042_13289.png,1.0,2.199241,1.5808916,0.437239
alexnet_w1_mlp_simclrhn_probe3,1,354,NaN,bicycle,oven,0,0354_ps_dnn_0_oven_10_n04111531_21404.png,n04111531_21404.png,0.0,1.4212232,2.288516,-0.6132687
alexnet_w1_mlp_simclrhn_probe3,1,355,NaN,bear,bear,90,0355_ps_dnn_90_bear_10_n02132136_8358.png,n02132136_8358.png,1.0,1.2848033,0.8388535,0.31533414
alexnet_w1_mlp_simclrhn_probe3,1,356,NaN,oven,oven,90,0356_ps_dnn_90_oven_10_n04111531_274.png,n04111531_274.png,1.0,0.5630879,0.33168742,0.16362484
alexnet_w1_mlp_simclrhn_probe3,1,357,NaN,bear,chair,120,0357_ps_dnn_120_chair_10_n02791124_2773.png,n02791124_2773.png,0.0,-0.37670535,0.5626324,-0.6642121
alexnet_w1_mlp_simclrhn_probe3,1,358,NaN,bear,knife,120,0358_ps_dnn_120_knife_10_n03041632_102828.png,n03041632_102828.png,0.0,0.10247838,0.65084845,-0.3877562
alexnet_w1_mlp_simclrhn_probe3,1,359,NaN,knife,boat,150,0359_ps_dnn_150_boat_10_n02951358_30995.png,n02951358_30995.png,0.0,-0.12901166,0.5518093,-0.48141313
alexnet_w1_mlp_simclrhn_probe3,1,360,NaN,bear,bicycle,150,0360_ps_dnn_150_bicycle_10_n03792782_4544.png,n03792782_4544.png,0.0,-0.3475051,0.9385868,-0.9094043
alexnet_w1_mlp_simclrhn_probe3,1,361,NaN,knife,airplane,120,0361_ps_dnn_120_airplane_10_n02690373_8446.png,n02690373_8446.png,0.0,-0.6946335,0.44163102,-0.8034604
alexnet_w1_mlp_simclrhn_probe3,1,362,NaN,chair,bottle,30,0362_ps_dnn_30_bottle_10_n04557648_900.png,n04557648_900.png,0.0,2.342773,2.955705,-0.43340835
alexnet_w1_mlp_simclrhn_probe3,1,363,NaN,knife,airplane,150,0363_ps_dnn_150_airplane_10_n02690373_3407.png,n02690373_3407.png,0.0,-0.6023711,0.40258536,-0.7106116
alexnet_w1_mlp_simclrhn_probe3,1,364,NaN,bear,bottle,120,0364_ps_dnn_120_bottle_10_n03983396_8143.png,n03983396_8143.png,0.0,-0.16882432,0.81852543,-0.6981617
alexnet_w1_mlp_simclrhn_probe3,1,365,NaN,car,car,0,0365_ps_dnn_0_car_10_n03100240_9610.png,n03100240_9610.png,1.0,10.374958,2.2342036,5.756383
alexnet_w1_mlp_simclrhn_probe3,1,366,NaN,bear,cat,120,0366_ps_dnn_120_cat_10_n02123159_1108.png,n02123159_1108.png,0.0,0.2604501,0.6244924,-0.25741678
alexnet_w1_mlp_simclrhn_probe3,1,367,NaN,clock,clock,0,0367_ps_dnn_0_clock_10_n04548280_2170.png,n04548280_2170.png,1.0,7.637417,0.5541454,5.0086293
alexnet_w1_mlp_simclrhn_probe3,1,368,NaN,bicycle,keyboard,120,0368_ps_dnn_120_keyboard_10_n04505470_4385.png,n04505470_4385.png,0.0,-0.40867308,0.2584493,-0.47172675
alexnet_w1_mlp_simclrhn_probe3,1,369,NaN,oven,airplane,120,0369_ps_dnn_120_airplane_10_n02690373_18383.png,n02690373_18383.png,0.0,-0.41905487,0.20539013,-0.44154927
alexnet_w1_mlp_simclrhn_probe3,1,370,NaN,oven,truck,90,0370_ps_dnn_90_truck_10_n03417042_10243.png,n03417042_10243.png,0.0,-0.7796114,1.0505872,-1.2941458
alexnet_w1_mlp_simclrhn_probe3,1,371,NaN,cat,cat,30,0371_ps_dnn_30_cat_10_n02123045_11826.png,n02123045_11826.png,1.0,8.669597,0.6968127,5.63761
alexnet_w1_mlp_simclrhn_probe3,1,372,NaN,bird,bird,0,0372_ps_dnn_0_bird_10_n01817953_2257.png,n01817953_2257.png,1.0,4.3770022,1.6857309,1.9030162
alexnet_w1_mlp_simclrhn_probe3,1,373,NaN,boat,boat,0,0373_ps_dnn_0_boat_10_n04612504_18442.png,n04612504_18442.png,1.0,11.139073,7.1247454,2.8385587
alexnet_w1_mlp_simclrhn_probe3,1,374,NaN,knife,airplane,180,0374_ps_dnn_180_airplane_10_n02690373_2874.png,n02690373_2874.png,0.0,-0.36781907,0.36842018,-0.5205998
alexnet_w1_mlp_simclrhn_probe3,1,375,NaN,bicycle,bicycle,0,0375_ps_dnn_0_bicycle_10_n02835271_4963.png,n02835271_4963.png,1.0,14.334866,1.9676398,8.744949
alexnet_w1_mlp_simclrhn_probe3,1,376,NaN,bear,boat,180,0376_ps_dnn_180_boat_10_n04273569_568.png,n04273569_568.png,0.0,-0.14787018,0.61120987,-0.5367507
alexnet_w1_mlp_simclrhn_probe3,1,377,NaN,bear,elephant,90,0377_ps_dnn_90_elephant_10_n02504013_2233.png,n02504013_2233.png,0.0,1.2208457,1.3864093,-0.11707114
alexnet_w1_mlp_simclrhn_probe3,1,378,NaN,oven,bottle,60,0378_ps_dnn_60_bottle_10_n02823428_889.png,n02823428_889.png,0.0,0.35695148,2.153572,-1.2704027
alexnet_w1_mlp_simclrhn_probe3,1,379,NaN,oven,car,90,0379_ps_dnn_90_car_10_n04285008_3096.png,n04285008_3096.png,0.0,-0.48474392,1.0779575,-1.1049968
alexnet_w1_mlp_simclrhn_probe3,1,380,NaN,oven,airplane,120,0380_ps_dnn_120_airplane_10_n02690373_13206.png,n02690373_13206.png,0.0,-0.83271503,0.40972057,-0.8785346
alexnet_w1_mlp_simclrhn_probe3,1,381,NaN,oven,keyboard,90,0381_ps_dnn_90_keyboard_10_n03085013_25443.png,n03085013_25443.png,0.0,-0.61864114,2.1359966,-1.947823
alexnet_w1_mlp_simclrhn_probe3,1,382,NaN,truck,truck,30,0382_ps_dnn_30_truck_10_n04467665_20622.png,n04467665_20622.png,1.0,4.699158,0.47593692,2.9862685
alexnet_w1_mlp_simclrhn_probe3,1,383,NaN,bicycle,bicycle,60,0383_ps_dnn_60_bicycle_10_n02835271_24639.png,n02835271_24639.png,1.0,6.916335,1.2577612,4.0012164
alexnet_w1_mlp_simclrhn_probe3,1,384,NaN,knife,knife,30,0384_ps_dnn_30_knife_10_n03041632_25603.png,n03041632_25603.png,1.0,1.6551518,0.6445305,0.7146172
alexnet_w1_mlp_simclrhn_probe3,1,385,NaN,boat,boat,60,0385_ps_dnn_60_boat_10_n04273569_4978.png,n04273569_4978.png,1.0,6.110376,0.77479315,3.772827
alexnet_w1_mlp_simclrhn_probe3,1,386,NaN,boat,car,60,0386_ps_dnn_60_car_10_n02814533_46401.png,n02814533_46401.png,0.0,1.315631,1.8487009,-0.3769373
alexnet_w1_mlp_simclrhn_probe3,1,387,NaN,knife,bird,120,0387_ps_dnn_120_bird_10_n01798484_12863.png,n01798484_12863.png,0.0,-0.059241228,0.10744007,-0.11786147
alexnet_w1_mlp_simclrhn_probe3,1,388,NaN,knife,boat,120,0388_ps_dnn_120_boat_10_n03662601_7885.png,n03662601_7885.png,0.0,-0.11595149,0.34913707,-0.32886726
alexnet_w1_mlp_simclrhn_probe3,1,389,NaN,chair,chair,0,0389_ps_dnn_0_chair_10_n03376595_3062.png,n03376595_3062.png,1.0,1.1147557,1.073112,0.02944657
alexnet_w1_mlp_simclrhn_probe3,1,390,NaN,bear,airplane,90,0390_ps_dnn_90_airplane_10_n02690373_19118.png,n02690373_19118.png,0.0,-0.42732126,0.60195637,-0.72780913
alexnet_w1_mlp_simclrhn_probe3,1,391,NaN,bear,cat,180,0391_ps_dnn_180_cat_10_n02123597_3944.png,n02123597_3944.png,0.0,0.07141462,0.7115276,-0.45262825
alexnet_w1_mlp_simclrhn_probe3,1,392,NaN,cat,keyboard,150,0392_ps_dnn_150_keyboard_10_n04505470_2113.png,n04505470_2113.png,0.0,-0.04510252,0.19735825,-0.17144565
alexnet_w1_mlp_simclrhn_probe3,1,393,NaN,elephant,bird,30,0393_ps_dnn_30_bird_10_n02056570_4808.png,n02056570_4808.png,0.0,1.5035965,2.229594,-0.5133577
alexnet_w1_mlp_simclrhn_probe3,1,394,NaN,knife,bear,180,0394_ps_dnn_180_bear_10_n02133161_2316.png,n02133161_2316.png,0.0,0.6237836,0.8807206,-0.18168192
alexnet_w1_mlp_simclrhn_probe3,1,395,NaN,elephant,dog,0,0395_ps_dnn_0_dog_10_n02106662_15515.png,n02106662_15515.png,0.0,0.7807367,1.690135,-0.64304173
alexnet_w1_mlp_simclrhn_probe3,1,396,NaN,airplane,airplane,0,0396_ps_dnn_0_airplane_10_n02690373_3899.png,n02690373_3899.png,1.0,5.3777056,3.7016513,1.1851493
alexnet_w1_mlp_simclrhn_probe3,1,397,NaN,boat,boat,0,0397_ps_dnn_0_boat_10_n04273569_2449.png,n04273569_2449.png,1.0,4.114026,2.654708,1.0318937
alexnet_w1_mlp_simclrhn_probe3,1,398,NaN,oven,bird,120,0398_ps_dnn_120_bird_10_n02007558_7614.png,n02007558_7614.png,0.0,-0.36183587,1.4260252,-1.2642087
alexnet_w1_mlp_simclrhn_probe3,1,399,NaN,oven,keyboard,90,0399_ps_dnn_90_keyboard_10_n03085013_4914.png,n03085013_4914.png,0.0,0.5048975,2.7859457,-1.6129447
alexnet_w1_mlp_simclrhn_probe3,1,400,NaN,bear,oven,150,0400_ps_dnn_150_oven_10_n04111531_15296.png,n04111531_15296.png,0.0,-0.15791078,0.3237228,-0.3405664
alexnet_w1_mlp_simclrhn_probe3,1,401,NaN,oven,chair,60,0401_ps_dnn_60_chair_10_n04099969_246.png,n04099969_246.png,0.0,0.44444832,2.4456558,-1.4150674
alexnet_w1_mlp_simclrhn_probe3,1,402,NaN,oven,truck,180,0402_ps_dnn_180_truck_10_n04467665_670.png,n04467665_670.png,0.0,-0.6275251,0.547696,-0.8310068
alexnet_w1_mlp_simclrhn_probe3,1,403,NaN,keyboard,keyboard,90,0403_ps_dnn_90_keyboard_10_n03085013_24192.png,n03085013_24192.png,1.0,1.8103501,0.58108205,0.86922383
alexnet_w1_mlp_simclrhn_probe3,1,404,NaN,knife,bicycle,150,0404_ps_dnn_150_bicycle_10_n03792782_378.png,n03792782_378.png,0.0,-0.07402873,0.17253248,-0.1743451
alexnet_w1_mlp_simclrhn_probe3,1,405,NaN,knife,bird,180,0405_ps_dnn_180_bird_10_n02018207_14738.png,n02018207_14738.png,0.0,-0.075338975,0.37484854,-0.31833065
alexnet_w1_mlp_simclrhn_probe3,1,406,NaN,bird,bird,0,0406_ps_dnn_0_bird_10_n01530575_5222.png,n01530575_5222.png,1.0,0.79455185,0.10698566,0.4861827
alexnet_w1_mlp_simclrhn_probe3,1,407,NaN,bear,bear,30,0407_ps_dnn_30_bear_10_n02134084_10766.png,n02134084_10766.png,1.0,3.6608377,3.1126592,0.3876207
alexnet_w1_mlp_simclrhn_probe3,1,408,NaN,bird,bird,30,0408_ps_dnn_30_bird_10_n02007558_4009.png,n02007558_4009.png,1.0,1.7694223,1.6577821,0.078941554
alexnet_w1_mlp_simclrhn_probe3,1,409,NaN,bear,chair,120,0409_ps_dnn_120_chair_10_n04099969_7545.png,n04099969_7545.png,0.0,-0.34130773,0.60532564,-0.6693709
alexnet_w1_mlp_simclrhn_probe3,1,410,NaN,oven,clock,90,0410_ps_dnn_90_clock_10_n03196217_127.png,n03196217_127.png,0.0,-0.016022563,1.0862094,-0.7793957
alexnet_w1_mlp_simclrhn_probe3,1,411,NaN,knife,bottle,150,0411_ps_dnn_150_bottle_10_n04560804_26326.png,n04560804_26326.png,0.0,-0.21172006,0.7111821,-0.6525904
alexnet_w1_mlp_simclrhn_probe3,1,412,NaN,keyboard,keyboard,30,0412_ps_dnn_30_keyboard_10_n03085013_25066.png,n03085013_25066.png,1.0,2.2421882,1.8168423,0.30076498
alexnet_w1_mlp_simclrhn_probe3,1,413,NaN,cat,cat,30,0413_ps_dnn_30_cat_10_n02124075_11776.png,n02124075_11776.png,1.0,15.325381,1.5356222,9.750832
alexnet_w1_mlp_simclrhn_probe3,1,414,NaN,keyboard,keyboard,120,0414_ps_dnn_120_keyboard_10_n04505470_2909.png,n04505470_2909.png,1.0,0.7045247,0.68595266,0.01313241
alexnet_w1_mlp_simclrhn_probe3,1,415,NaN,keyboard,keyboard,30,0415_ps_dnn_30_keyboard_10_n04505470_494.png,n04505470_494.png,1.0,4.7338243,1.6941136,2.1494
alexnet_w1_mlp_simclrhn_probe3,1,416,NaN,bear,bear,120,0416_ps_dnn_120_bear_10_n02133161_2270.png,n02133161_2270.png,1.0,0.52170867,0.28202805,0.16947979
alexnet_w1_mlp_simclrhn_probe3,1,417,NaN,bear,chair,120,0417_ps_dnn_120_chair_10_n04099969_13901.png,n04099969_13901.png,0.0,-0.38188243,0.38672608,-0.5434883
alexnet_w1_mlp_simclrhn_probe3,1,418,NaN,oven,car,120,0418_ps_dnn_120_car_10_n02814533_2923.png,n02814533_2923.png,0.0,-0.7426295,1.271817,-1.4244288
alexnet_w1_mlp_simclrhn_probe3,1,419,NaN,oven,bottle,90,0419_ps_dnn_90_bottle_10_n03983396_12757.png,n03983396_12757.png,0.0,0.60583836,1.4098277,-0.56850636
alexnet_w1_mlp_simclrhn_probe3,1,420,NaN,keyboard,knife,30,0420_ps_dnn_30_knife_10_n03041632_15444.png,n03041632_15444.png,0.0,1.1085503,1.2515681,-0.10112884
alexnet_w1_mlp_simclrhn_probe3,1,421,NaN,bear,bicycle,180,0421_ps_dnn_180_bicycle_10_n02835271_5554.png,n02835271_5554.png,0.0,-0.2750369,0.46326694,-0.5220597
alexnet_w1_mlp_simclrhn_probe3,1,422,NaN,bear,knife,150,0422_ps_dnn_150_knife_10_n03041632_37618.png,n03041632_37618.png,0.0,0.05794563,0.18328014,-0.08862488
alexnet_w1_mlp_simclrhn_probe3,1,423,NaN,oven,chair,60,0423_ps_dnn_60_chair_10_n03376595_3910.png,n03376595_3910.png,0.0,2.0426326,3.0746121,-0.72971976
alexnet_w1_mlp_simclrhn_probe3,1,424,NaN,dog,dog,30,0424_ps_dnn_30_dog_10_n02086646_7362.png,n02086646_7362.png,1.0,2.2511895,1.6146593,0.4500948
alexnet_w1_mlp_simclrhn_probe3,1,425,NaN,bear,dog,60,0425_ps_dnn_60_dog_10_n02113712_5829.png,n02113712_5829.png,0.0,0.37543857,1.7292521,-0.95729077
alexnet_w1_mlp_simclrhn_probe3,1,426,NaN,knife,truck,180,0426_ps_dnn_180_truck_10_n03417042_1149.png,n03417042_1149.png,0.0,-0.6179329,0.59415346,-0.85707456
alexnet_w1_mlp_simclrhn_probe3,1,427,NaN,bear,bird,60,0427_ps_dnn_60_bird_10_n02002724_3345.png,n02002724_3345.png,0.0,0.38930115,1.3311052,-0.665956
alexnet_w1_mlp_simclrhn_probe3,1,428,NaN,knife,bird,150,0428_ps_dnn_150_bird_10_n02002556_2917.png,n02002556_2917.png,0.0,-0.1294427,0.40496984,-0.37788674
alexnet_w1_mlp_simclrhn_probe3,1,429,NaN,bear,bottle,180,0429_ps_dnn_180_bottle_10_n04560804_3959.png,n04560804_3959.png,0.0,0.0033371618,0.5379908,-0.37805724
alexnet_w1_mlp_simclrhn_probe3,1,430,NaN,airplane,airplane,30,0430_ps_dnn_30_airplane_10_n02690373_3639.png,n02690373_3639.png,1.0,8.055426,0.6324705,5.2488217
alexnet_w1_mlp_simclrhn_probe3,1,431,NaN,bear,bottle,120,0431_ps_dnn_120_bottle_10_n02823428_14453.png,n02823428_14453.png,0.0,-0.31178614,0.9375872,-0.8834404
alexnet_w1_mlp_simclrhn_probe3,1,432,NaN,bottle,bottle,0,0432_ps_dnn_0_bottle_10_n03937543_3253.png,n03937543_3253.png,1.0,8.352617,2.4316537,4.1867533
alexnet_w1_mlp_simclrhn_probe3,1,433,NaN,bear,elephant,30,0433_ps_dnn_30_elephant_10_n02504013_7010.png,n02504013_7010.png,0.0,2.4592388,2.6718926,-0.150369
alexnet_w1_mlp_simclrhn_probe3,1,434,NaN,bear,car,150,0434_ps_dnn_150_car_10_n04285008_8813.png,n04285008_8813.png,0.0,-0.8082967,0.64853114,-1.0301329
alexnet_w1_mlp_simclrhn_probe3,1,435,NaN,knife,bear,180,0435_ps_dnn_180_bear_10_n02132136_110.png,n02132136_110.png,0.0,0.43155998,0.7065618,-0.19445565
alexnet_w1_mlp_simclrhn_probe3,1,436,NaN,bear,bear,60,0436_ps_dnn_60_bear_10_n02133161_4294.png,n02133161_4294.png,1.0,1.4113078,0.9408657,0.3326528
alexnet_w1_mlp_simclrhn_probe3,1,437,NaN,car,car,0,0437_ps_dnn_0_car_10_n02814533_95144.png,n02814533_95144.png,1.0,10.110074,4.396141,4.040361
alexnet_w1_mlp_simclrhn_probe3,1,438,NaN,bear,oven,120,0438_ps_dnn_120_oven_10_n04111531_1220.png,n04111531_1220.png,0.0,0.6511745,0.6842303,-0.02337401
alexnet_w1_mlp_simclrhn_probe3,1,439,NaN,knife,dog,60,0439_ps_dnn_60_dog_10_n02086240_7247.png,n02086240_7247.png,0.0,0.10924691,0.291579,-0.12892826
alexnet_w1_mlp_simclrhn_probe3,1,440,NaN,airplane,airplane,0,0440_ps_dnn_0_airplane_10_n02690373_4144.png,n02690373_4144.png,1.0,7.6731567,0.97915584,4.733373
alexnet_w1_mlp_simclrhn_probe3,1,441,NaN,oven,oven,120,0441_ps_dnn_120_oven_10_n04111531_986.png,n04111531_986.png,1.0,0.27085236,0.16513261,0.07475515
alexnet_w1_mlp_simclrhn_probe3,1,442,NaN,bicycle,elephant,30,0442_ps_dnn_30_elephant_10_n02504458_6336.png,n02504458_6336.png,0.0,1.7820879,2.9128823,-0.79959244
alexnet_w1_mlp_simclrhn_probe3,1,443,NaN,knife,knife,150,0443_ps_dnn_150_knife_10_n03041632_14132.png,n03041632_14132.png,1.0,0.5513742,0.46579802,0.060511496
alexnet_w1_mlp_simclrhn_probe3,1,444,NaN,bear,cat,150,0444_ps_dnn_150_cat_10_n02123159_799.png,n02123159_799.png,0.0,-0.047387123,0.7858121,-0.5891608
alexnet_w1_mlp_simclrhn_probe3,1,445,NaN,bear,bird,90,0445_ps_dnn_90_bird_10_n02006656_7456.png,n02006656_7456.png,0.0,0.06361157,1.1999264,-0.80349594
alexnet_w1_mlp_simclrhn_probe3,1,446,NaN,oven,cat,90,0446_ps_dnn_90_cat_10_n02123045_8722.png,n02123045_8722.png,0.0,0.43407622,1.184787,-0.53083277
alexnet_w1_mlp_simclrhn_probe3,1,447,NaN,bear,chair,120,0447_ps_dnn_120_chair_10_n03376595_8302.png,n03376595_8302.png,0.0,-0.39358768,0.47809944,-0.61637586
alexnet_w1_mlp_simclrhn_probe3,1,448,NaN,bottle,bottle,30,0448_ps_dnn_30_bottle_10_n04560804_5769.png,n04560804_5769.png,1.0,4.2772927,3.153163,0.7948798
alexnet_w1_mlp_simclrhn_probe3,1,449,NaN,oven,car,90,0449_ps_dnn_90_car_10_n04285008_203.png,n04285008_203.png,0.0,-0.6409945,1.6958921,-1.6524284
alexnet_w1_mlp_simclrhn_probe3,1,450,NaN,knife,airplane,180,0450_ps_dnn_180_airplane_10_n02690373_9959.png,n02690373_9959.png,0.0,0.036634557,0.58593166,-0.3884117
alexnet_w1_mlp_simclrhn_probe3,1,451,NaN,car,car,0,0451_ps_dnn_0_car_10_n04285008_1867.png,n04285008_1867.png,1.0,13.1773405,4.8584023,5.8823776
alexnet_w1_mlp_simclrhn_probe3,1,452,NaN,knife,airplane,150,0452_ps_dnn_150_airplane_10_n02690373_16250.png,n02690373_16250.png,0.0,-0.5696415,0.213034,-0.55343515
alexnet_w1_mlp_simclrhn_probe3,1,453,NaN,elephant,elephant,30,0453_ps_dnn_30_elephant_10_n02504458_4696.png,n02504458_4696.png,1.0,5.427071,3.1437085,1.6145812
alexnet_w1_mlp_simclrhn_probe3,1,454,NaN,bicycle,car,60,0454_ps_dnn_60_car_10_n04285008_10755.png,n04285008_10755.png,0.0,-0.43145236,4.515706,-3.4981692
alexnet_w1_mlp_simclrhn_probe3,1,455,NaN,knife,boat,150,0455_ps_dnn_150_boat_10_n02951358_11586.png,n02951358_11586.png,0.0,-0.0653636,0.6219785,-0.48602426
alexnet_w1_mlp_simclrhn_probe3,1,456,NaN,bottle,bottle,60,0456_ps_dnn_60_bottle_10_n02823428_4108.png,n02823428_4108.png,1.0,2.8146327,2.1494677,0.47034267
alexnet_w1_mlp_simclrhn_probe3,1,457,NaN,bear,car,180,0457_ps_dnn_180_car_10_n04285008_11770.png,n04285008_11770.png,0.0,-0.46329865,0.5448757,-0.71288687
alexnet_w1_mlp_simclrhn_probe3,1,458,NaN,boat,boat,90,0458_ps_dnn_90_boat_10_n04273569_32786.png,n04273569_32786.png,1.0,1.2185916,0.4512603,0.54258513
alexnet_w1_mlp_simclrhn_probe3,1,459,NaN,bear,bear,30,0459_ps_dnn_30_bear_10_n02132136_21267.png,n02132136_21267.png,1.0,5.3231635,4.4422746,0.62288254
alexnet_w1_mlp_simclrhn_probe3,1,460,NaN,oven,car,90,0460_ps_dnn_90_car_10_n03100240_24001.png,n03100240_24001.png,0.0,-1.309572,1.306866,-1.850101
alexnet_w1_mlp_simclrhn_probe3,1,461,NaN,bear,bottle,150,0461_ps_dnn_150_bottle_10_n03937543_71.png,n03937543_71.png,0.0,-0.25128716,0.56670374,-0.57840693
alexnet_w1_mlp_simclrhn_probe3,1,462,NaN,oven,chair,0,0462_ps_dnn_0_chair_10_n02791124_16127.png,n02791124_16127.png,0.0,2.232541,2.8085365,-0.40729028
alexnet_w1_mlp_simclrhn_probe3,1,463,NaN,bird,bird,90,0463_ps_dnn_90_bird_10_n02002724_12183.png,n02002724_12183.png,1.0,1.7972761,1.4925387,0.21548192
alexnet_w1_mlp_simclrhn_probe3,1,464,NaN,cat,dog,30,0464_ps_dnn_30_dog_10_n02108915_1165.png,n02108915_1165.png,0.0,0.7195262,0.750639,-0.022000108
alexnet_w1_mlp_simclrhn_probe3,1,465,NaN,boat,dog,180,0465_ps_dnn_180_dog_10_n02099429_4843.png,n02099429_4843.png,0.0,0.09752511,0.33351284,-0.16686852
alexnet_w1_mlp_simclrhn_probe3,1,466,NaN,boat,boat,60,0466_ps_dnn_60_boat_10_n03344393_3499.png,n03344393_3499.png,1.0,2.792171,2.5022721,0.20498946
alexnet_w1_mlp_simclrhn_probe3,1,467,NaN,bear,truck,120,0467_ps_dnn_120_truck_10_n03417042_20962.png,n03417042_20962.png,0.0,-0.5013763,0.9499316,-1.0262296
alexnet_w1_mlp_simclrhn_probe3,1,468,NaN,oven,dog,30,0468_ps_dnn_30_dog_10_n02097047_4189.png,n02097047_4189.png,0.0,0.7467427,1.0440052,-0.21019629
alexnet_w1_mlp_simclrhn_probe3,1,469,NaN,bicycle,bicycle,60,0469_ps_dnn_60_bicycle_10_n03792782_24591.png,n03792782_24591.png,1.0,11.04871,2.5471506,6.0115104
alexnet_w1_mlp_simclrhn_probe3,1,470,NaN,airplane,airplane,60,0470_ps_dnn_60_airplane_10_n02690373_243.png,n02690373_243.png,1.0,1.4626834,1.0753577,0.2738807
alexnet_w1_mlp_simclrhn_probe3,1,471,NaN,oven,boat,90,0471_ps_dnn_90_boat_10_n03344393_3072.png,n03344393_3072.png,0.0,0.51798916,0.98702353,-0.33165738
alexnet_w1_mlp_simclrhn_probe3,1,472,NaN,bear,clock,120,0472_ps_dnn_120_clock_10_n02708093_118.png,n02708093_118.png,0.0,0.3159518,0.63978446,-0.22898428
alexnet_w1_mlp_simclrhn_probe3,1,473,NaN,bird,bird,30,0473_ps_dnn_30_bird_10_n01843065_2664.png,n01843065_2664.png,1.0,2.2953353,0.41235703,1.3314667
alexnet_w1_mlp_simclrhn_probe3,1,474,NaN,knife,airplane,150,0474_ps_dnn_150_airplane_10_n02690373_19353.png,n02690373_19353.png,0.0,-0.12269874,0.67785484,-0.5660769
alexnet_w1_mlp_simclrhn_probe3,1,475,NaN,bear,dog,120,0475_ps_dnn_120_dog_10_n02099849_4250.png,n02099849_4250.png,0.0,-0.10216776,0.26876807,-0.26229125
alexnet_w1_mlp_simclrhn_probe3,1,476,NaN,oven,truck,90,0476_ps_dnn_90_truck_10_n04467665_29260.png,n04467665_29260.png,0.0,-0.50883746,1.102469,-1.1393657
alexnet_w1_mlp_simclrhn_probe3,1,477,NaN,bear,elephant,30,0477_ps_dnn_30_elephant_10_n02504013_8308.png,n02504013_8308.png,0.0,4.0014925,5.005617,-0.71002334
alexnet_w1_mlp_simclrhn_probe3,1,478,NaN,knife,boat,150,0478_ps_dnn_150_boat_10_n03344393_6854.png,n03344393_6854.png,0.0,0.10792847,0.6546636,-0.38660014
alexnet_w1_mlp_simclrhn_probe3,1,479,NaN,bear,truck,180,0479_ps_dnn_180_truck_10_n04467665_25129.png,n04467665_25129.png,0.0,-0.6317934,1.04742,-1.1873832
alexnet_w1_mlp_simclrhn_probe3,1,480,NaN,bird,bird,30,0480_ps_dnn_30_bird_10_n01824575_6272.png,n01824575_6272.png,1.0,0.5670965,0.25420156,0.22125012
alexnet_w1_mlp_simclrhn_probe3,1,481,NaN,bear,chair,180,0481_ps_dnn_180_chair_10_n04099969_19484.png,n04099969_19484.png,0.0,-0.7494099,0.82125676,-1.1106291
alexnet_w1_mlp_simclrhn_probe3,1,482,NaN,bear,oven,120,0482_ps_dnn_120_oven_10_n04111531_5888.png,n04111531_5888.png,0.0,0.42818704,0.7133709,-0.20165546
alexnet_w1_mlp_simclrhn_probe3,1,483,NaN,bear,chair,60,0483_ps_dnn_60_chair_10_n04099969_16266.png,n04099969_16266.png,0.0,0.035525,1.4478843,-0.9986889
alexnet_w1_mlp_simclrhn_probe3,1,484,NaN,oven,truck,150,0484_ps_dnn_150_truck_10_n04467665_68754.png,n04467665_68754.png,0.0,-0.61624384,0.60414255,-0.86294353
alexnet_w1_mlp_simclrhn_probe3,1,485,NaN,oven,cat,180,0485_ps_dnn_180_cat_10_n02123394_7859.png,n02123394_7859.png,0.0,-0.18691176,0.69108033,-0.6208342
alexnet_w1_mlp_simclrhn_probe3,1,486,NaN,oven,car,90,0486_ps_dnn_90_car_10_n04285008_17056.png,n04285008_17056.png,0.0,-0.8006193,1.5365515,-1.6526294
alexnet_w1_mlp_simclrhn_probe3,1,487,NaN,bear,cat,120,0487_ps_dnn_120_cat_10_n02123045_12046.png,n02123045_12046.png,0.0,0.18103169,0.22639321,-0.03207544
alexnet_w1_mlp_simclrhn_probe3,1,488,NaN,bear,elephant,180,0488_ps_dnn_180_elephant_10_n02504013_3029.png,n02504013_3029.png,0.0,0.1875641,0.780396,-0.4191954
alexnet_w1_mlp_simclrhn_probe3,1,489,NaN,boat,boat,120,0489_ps_dnn_120_boat_10_n03662601_7271.png,n03662601_7271.png,1.0,1.3818483,0.5684974,0.57512593
alexnet_w1_mlp_simclrhn_probe3,1,490,NaN,bear,bear,30,0490_ps_dnn_30_bear_10_n02133161_6861.png,n02133161_6861.png,1.0,5.3577876,2.013685,2.3646376
alexnet_w1_mlp_simclrhn_probe3,1,491,NaN,oven,chair,30,0491_ps_dnn_30_chair_10_n02791124_4192.png,n02791124_4192.png,0.0,1.4940215,2.4538531,-0.6787034
alexnet_w1_mlp_simclrhn_probe3,1,492,NaN,oven,boat,60,0492_ps_dnn_60_boat_10_n04273569_1457.png,n04273569_1457.png,0.0,0.93567336,1.7845329,-0.6002343
alexnet_w1_mlp_simclrhn_probe3,1,493,NaN,clock,clock,90,0493_ps_dnn_90_clock_10_n04548280_764.png,n04548280_764.png,1.0,0.7972583,0.4995017,0.21054572
alexnet_w1_mlp_simclrhn_probe3,1,494,NaN,bear,bicycle,120,0494_ps_dnn_120_bicycle_10_n02835271_12346.png,n02835271_12346.png,0.0,-0.077643424,0.5623379,-0.4525351
alexnet_w1_mlp_simclrhn_probe3,1,495,NaN,bottle,bicycle,180,0495_ps_dnn_180_bicycle_10_n03792782_50673.png,n03792782_50673.png,0.0,-0.088204205,0.10103477,-0.13381216
alexnet_w1_mlp_simclrhn_probe3,1,496,NaN,knife,truck,120,0496_ps_dnn_120_truck_10_n03796401_9198.png,n03796401_9198.png,0.0,-0.4775706,0.6220556,-0.77755314
alexnet_w1_mlp_simclrhn_probe3,1,497,NaN,airplane,airplane,0,0497_ps_dnn_0_airplane_10_n02690373_4110.png,n02690373_4110.png,1.0,8.222902,1.5746671,4.701012
alexnet_w1_mlp_simclrhn_probe3,1,498,NaN,bear,dog,60,0498_ps_dnn_60_dog_10_n02107683_2484.png,n02107683_2484.png,0.0,0.22722624,1.1539092,-0.6552638
alexnet_w1_mlp_simclrhn_probe3,1,499,NaN,oven,chair,60,0499_ps_dnn_60_chair_10_n02791124_13057.png,n02791124_13057.png,0.0,0.6557014,3.7844684,-2.2123723
alexnet_w1_mlp_simclrhn_probe3,1,500,NaN,bear,bear,120,0500_ps_dnn_120_bear_10_n02134418_14451.png,n02134418_14451.png,1.0,0.67336273,0.6104169,0.044509433
alexnet_w1_mlp_simclrhn_probe3,1,501,NaN,bird,bird,60,0501_ps_dnn_60_bird_10_n01843383_10059.png,n01843383_10059.png,1.0,0.783586,0.7425262,0.0290337
alexnet_w1_mlp_simclrhn_probe3,1,502,NaN,bicycle,bicycle,0,0502_ps_dnn_0_bicycle_10_n03792782_11824.png,n03792782_11824.png,1.0,8.007852,3.4487638,3.223762
alexnet_w1_mlp_simclrhn_probe3,1,503,NaN,bird,bird,30,0503_ps_dnn_30_bird_10_n01532829_2492.png,n01532829_2492.png,1.0,2.2012765,0.8070188,0.98588914
alexnet_w1_mlp_simclrhn_probe3,1,504,NaN,bottle,bottle,0,0504_ps_dnn_0_bottle_10_n04579145_5621.png,n04579145_5621.png,1.0,5.152991,1.7363254,2.4159474
alexnet_w1_mlp_simclrhn_probe3,1,505,NaN,bear,truck,150,0505_ps_dnn_150_truck_10_n03417042_6250.png,n03417042_6250.png,0.0,-0.7706512,0.8766066,-1.1647872
alexnet_w1_mlp_simclrhn_probe3,1,506,NaN,bear,dog,90,0506_ps_dnn_90_dog_10_n02108551_14704.png,n02108551_14704.png,0.0,0.044773564,1.1881757,-0.8085074
alexnet_w1_mlp_simclrhn_probe3,1,507,NaN,boat,boat,30,0507_ps_dnn_30_boat_10_n04612504_8407.png,n04612504_8407.png,1.0,9.040171,2.6106572,4.546353
alexnet_w1_mlp_simclrhn_probe3,1,508,NaN,knife,car,120,0508_ps_dnn_120_car_10_n03100240_14794.png,n03100240_14794.png,0.0,-0.37964985,0.6727039,-0.7441265
alexnet_w1_mlp_simclrhn_probe3,1,509,NaN,oven,dog,60,0509_ps_dnn_60_dog_10_n02097658_759.png,n02097658_759.png,0.0,0.11132621,2.3598387,-1.5899385
alexnet_w1_mlp_simclrhn_probe3,1,510,NaN,bear,oven,90,0510_ps_dnn_90_oven_10_n04111531_5965.png,n04111531_5965.png,0.0,0.27414116,0.77697855,-0.35555977
alexnet_w1_mlp_simclrhn_probe3,1,511,NaN,bear,elephant,180,0511_ps_dnn_180_elephant_10_n02504013_6984.png,n02504013_6984.png,0.0,-0.0038800128,0.22617967,-0.16267677
alexnet_w1_mlp_simclrhn_probe3,1,512,NaN,oven,oven,180,0512_ps_dnn_180_oven_10_n04111531_6695.png,n04111531_6695.png,1.0,0.5205353,0.51972663,0.0005718063
alexnet_w1_mlp_simclrhn_probe3,1,513,NaN,bicycle,bird,60,0513_ps_dnn_60_bird_10_n02037110_4572.png,n02037110_4572.png,0.0,0.19366822,1.2960477,-0.7795
alexnet_w1_mlp_simclrhn_probe3,1,514,NaN,oven,truck,30,0514_ps_dnn_30_truck_10_n03796401_11628.png,n03796401_11628.png,0.0,0.5856354,3.285054,-1.9087772
alexnet_w1_mlp_simclrhn_probe3,1,515,NaN,bear,chair,180,0515_ps_dnn_180_chair_10_n02791124_1258.png,n02791124_1258.png,0.0,-0.4777225,0.77804905,-0.88796455
alexnet_w1_mlp_simclrhn_probe3,1,516,NaN,bicycle,knife,0,0516_ps_dnn_0_knife_10_n03041632_62810.png,n03041632_62810.png,0.0,0.6183476,2.3992224,-1.2592686
alexnet_w1_mlp_simclrhn_probe3,1,517,NaN,oven,bird,90,0517_ps_dnn_90_bird_10_n01819313_2770.png,n01819313_2770.png,0.0,0.09974282,0.7836683,-0.48360834
alexnet_w1_mlp_simclrhn_probe3,1,518,NaN,bicycle,bicycle,60,0518_ps_dnn_60_bicycle_10_n02835271_25519.png,n02835271_25519.png,1.0,1.7857528,1.4472337,0.23936915
alexnet_w1_mlp_simclrhn_probe3,1,519,NaN,boat,boat,0,0519_ps_dnn_0_boat_10_n03662601_23248.png,n03662601_23248.png,1.0,12.385845,2.7384653,6.8217278
alexnet_w1_mlp_simclrhn_probe3,1,520,NaN,bear,elephant,120,0520_ps_dnn_120_elephant_10_n02504013_1784.png,n02504013_1784.png,0.0,0.52149606,1.320144,-0.56472945
alexnet_w1_mlp_simclrhn_probe3,1,521,NaN,bear,cat,150,0521_ps_dnn_150_cat_10_n02123394_270.png,n02123394_270.png,0.0,0.10963407,0.6967195,-0.41513214
alexnet_w1_mlp_simclrhn_probe3,1,522,NaN,dog,dog,30,0522_ps_dnn_30_dog_10_n02093647_1022.png,n02093647_1022.png,1.0,1.2267606,0.55883217,0.47229674
alexnet_w1_mlp_simclrhn_probe3,1,523,NaN,boat,boat,30,0523_ps_dnn_30_boat_10_n03662601_4881.png,n03662601_4881.png,1.0,6.130119,2.158041,2.8086832
alexnet_w1_mlp_simclrhn_probe3,1,524,NaN,oven,knife,60,0524_ps_dnn_60_knife_10_n03041632_8321.png,n03041632_8321.png,0.0,0.20796981,1.3484281,-0.80642587
alexnet_w1_mlp_simclrhn_probe3,1,525,NaN,bear,car,120,0525_ps_dnn_120_car_10_n02814533_60400.png,n02814533_60400.png,0.0,-0.52811956,0.92874265,-1.0301572
alexnet_w1_mlp_simclrhn_probe3,1,526,NaN,knife,cat,150,0526_ps_dnn_150_cat_10_n02123597_3280.png,n02123597_3280.png,0.0,-0.025819814,0.2599971,-0.20210308
alexnet_w1_mlp_simclrhn_probe3,1,527,NaN,knife,dog,150,0527_ps_dnn_150_dog_10_n02110063_3399.png,n02110063_3399.png,0.0,0.00029676824,0.69505954,-0.49127147
alexnet_w1_mlp_simclrhn_probe3,1,528,NaN,bear,bear,0,0528_ps_dnn_0_bear_10_n02132136_3109.png,n02132136_3109.png,1.0,2.5803208,2.0155516,0.3993522
alexnet_w1_mlp_simclrhn_probe3,1,529,NaN,bear,bear,0,0529_ps_dnn_0_bear_10_n02134084_16632.png,n02134084_16632.png,1.0,3.1005166,2.2250266,0.61906487
alexnet_w1_mlp_simclrhn_probe3,1,530,NaN,keyboard,bottle,150,0530_ps_dnn_150_bottle_10_n04591713_5851.png,n04591713_5851.png,0.0,-0.3831828,1.0280471,-0.99789023
alexnet_w1_mlp_simclrhn_probe3,1,531,NaN,oven,knife,0,0531_ps_dnn_0_knife_10_n03041632_29961.png,n03041632_29961.png,0.0,0.15220709,1.387477,-0.87346774
alexnet_w1_mlp_simclrhn_probe3,1,532,NaN,elephant,knife,30,0532_ps_dnn_30_knife_10_n03041632_10140.png,n03041632_10140.png,0.0,1.3519098,1.6606553,-0.21831605
alexnet_w1_mlp_simclrhn_probe3,1,533,NaN,knife,airplane,180,0533_ps_dnn_180_airplane_10_n02690373_8765.png,n02690373_8765.png,0.0,-1.1769109,0.97607696,-1.5223924
alexnet_w1_mlp_simclrhn_probe3,1,534,NaN,oven,knife,120,0534_ps_dnn_120_knife_10_n03041632_16826.png,n03041632_16826.png,0.0,0.15189293,0.5965322,-0.31440747
alexnet_w1_mlp_simclrhn_probe3,1,535,NaN,oven,chair,30,0535_ps_dnn_30_chair_10_n04429376_21089.png,n04429376_21089.png,0.0,0.45411912,1.3968158,-0.66658723
alexnet_w1_mlp_simclrhn_probe3,1,536,NaN,bear,bear,60,0536_ps_dnn_60_bear_10_n02134084_15118.png,n02134084_15118.png,1.0,2.6470308,2.0969646,0.38895556
alexnet_w1_mlp_simclrhn_probe3,1,537,NaN,bear,car,120,0537_ps_dnn_120_car_10_n04285008_3884.png,n04285008_3884.png,0.0,-1.1484007,0.42658627,-1.1136839
alexnet_w1_mlp_simclrhn_probe3,1,538,NaN,knife,boat,150,0538_ps_dnn_150_boat_10_n04273569_1576.png,n04273569_1576.png,0.0,0.060035814,0.46444455,-0.28596017
alexnet_w1_mlp_simclrhn_probe3,1,539,NaN,oven,bicycle,120,0539_ps_dnn_120_bicycle_10_n03792782_4600.png,n03792782_4600.png,0.0,-0.12797157,0.18440934,-0.22088666
alexnet_w1_mlp_simclrhn_probe3,1,540,NaN,keyboard,clock,30,0540_ps_dnn_30_clock_10_n03196217_4537.png,n03196217_4537.png,0.0,2.239529,3.3577044,-0.7906695
alexnet_w1_mlp_simclrhn_probe3,1,541,NaN,boat,airplane,60,0541_ps_dnn_60_airplane_10_n02690373_10203.png,n02690373_10203.png,0.0,1.1148213,2.5757005,-1.0329976
alexnet_w1_mlp_simclrhn_probe3,1,542,NaN,oven,truck,30,0542_ps_dnn_30_truck_10_n04467665_48875.png,n04467665_48875.png,0.0,1.6686888,1.7612674,-0.06546299
alexnet_w1_mlp_simclrhn_probe3,1,543,NaN,oven,car,60,0543_ps_dnn_60_car_10_n02814533_38071.png,n02814533_38071.png,0.0,0.92955333,3.1508908,-1.5707228
alexnet_w1_mlp_simclrhn_probe3,1,544,NaN,bicycle,bear,90,0544_ps_dnn_90_bear_10_n02133161_160.png,n02133161_160.png,0.0,0.5661929,1.1346935,-0.40199062
alexnet_w1_mlp_simclrhn_probe3,1,545,NaN,truck,car,30,0545_ps_dnn_30_car_10_n02814533_40344.png,n02814533_40344.png,0.0,0.74658346,1.9474366,-0.8491314
alexnet_w1_mlp_simclrhn_probe3,1,546,NaN,bear,oven,180,0546_ps_dnn_180_oven_10_n04111531_9026.png,n04111531_9026.png,0.0,-0.043981127,0.6246611,-0.47280145
alexnet_w1_mlp_simclrhn_probe3,1,547,NaN,cat,cat,0,0547_ps_dnn_0_cat_10_n02123597_13755.png,n02123597_13755.png,1.0,0.99450994,0.7376846,0.18160294
alexnet_w1_mlp_simclrhn_probe3,1,548,NaN,knife,car,150,0548_ps_dnn_150_car_10_n02814533_39485.png,n02814533_39485.png,0.0,-0.90327674,0.7844202,-1.193382
alexnet_w1_mlp_simclrhn_probe3,1,549,NaN,knife,bottle,90,0549_ps_dnn_90_bottle_10_n03937543_4512.png,n03937543_4512.png,0.0,0.1380401,0.59290457,-0.32163775
alexnet_w1_mlp_simclrhn_probe3,1,550,NaN,bear,cat,120,0550_ps_dnn_120_cat_10_n02124075_2402.png,n02124075_2402.png,0.0,-0.1483184,0.39428216,-0.38367656
alexnet_w1_mlp_simclrhn_probe3,1,551,NaN,boat,bird,0,0551_ps_dnn_0_bird_10_n02056570_9835.png,n02056570_9835.png,0.0,1.3054458,1.9777848,-0.47541544
alexnet_w1_mlp_simclrhn_probe3,1,552,NaN,knife,clock,120,0552_ps_dnn_120_clock_10_n04548280_13247.png,n04548280_13247.png,0.0,0.024791649,0.83172405,-0.5705874
alexnet_w1_mlp_simclrhn_probe3,1,553,NaN,oven,truck,60,0553_ps_dnn_60_truck_10_n03417042_173.png,n03417042_173.png,0.0,0.14198504,5.326253,-3.665831
alexnet_w1_mlp_simclrhn_probe3,1,554,NaN,oven,airplane,180,0554_ps_dnn_180_airplane_10_n02690373_1592.png,n02690373_1592.png,0.0,-0.93346643,0.9454936,-1.3286254
alexnet_w1_mlp_simclrhn_probe3,1,555,NaN,elephant,elephant,0,0555_ps_dnn_0_elephant_10_n02504013_1953.png,n02504013_1953.png,1.0,13.489139,4.950396,6.0378027
alexnet_w1_mlp_simclrhn_probe3,1,556,NaN,knife,elephant,150,0556_ps_dnn_150_elephant_10_n02504458_4348.png,n02504458_4348.png,0.0,-0.05966963,0.66013443,-0.5089783
alexnet_w1_mlp_simclrhn_probe3,1,557,NaN,knife,airplane,90,0557_ps_dnn_90_airplane_10_n02690373_1854.png,n02690373_1854.png,0.0,0.14093699,0.7648332,-0.44116127
alexnet_w1_mlp_simclrhn_probe3,1,558,NaN,knife,cat,180,0558_ps_dnn_180_cat_10_n02124075_14363.png,n02124075_14363.png,0.0,-0.02934064,0.51753426,-0.38669893
alexnet_w1_mlp_simclrhn_probe3,1,559,NaN,bottle,bottle,30,0559_ps_dnn_30_bottle_10_n03983396_3377.png,n03983396_3377.png,1.0,3.8630462,3.4856846,0.2668349
alexnet_w1_mlp_simclrhn_probe3,1,560,NaN,oven,clock,90,0560_ps_dnn_90_clock_10_n04548280_6743.png,n04548280_6743.png,0.0,0.7578048,1.5755141,-0.5782078
alexnet_w1_mlp_simclrhn_probe3,1,561,NaN,oven,clock,30,0561_ps_dnn_30_clock_10_n03196217_8034.png,n03196217_8034.png,0.0,0.9414292,0.9741504,-0.023137398
alexnet_w1_mlp_simclrhn_probe3,1,562,NaN,bear,dog,150,0562_ps_dnn_150_dog_10_n02088094_13992.png,n02088094_13992.png,0.0,-0.09042591,0.85216373,-0.66651154
alexnet_w1_mlp_simclrhn_probe3,1,563,NaN,car,car,30,0563_ps_dnn_30_car_10_n03100240_6216.png,n03100240_6216.png,1.0,6.8243217,3.1083877,2.6275623
alexnet_w1_mlp_simclrhn_probe3,1,564,NaN,oven,oven,30,0564_ps_dnn_30_oven_10_n04111531_2831.png,n04111531_2831.png,1.0,3.5484793,1.0265342,1.7832844
alexnet_w1_mlp_simclrhn_probe3,1,565,NaN,knife,knife,0,0565_ps_dnn_0_knife_10_n03041632_927.png,n03041632_927.png,1.0,2.726726,0.56788605,1.5265304
alexnet_w1_mlp_simclrhn_probe3,1,566,NaN,bird,knife,150,0566_ps_dnn_150_knife_10_n03041632_5427.png,n03041632_5427.png,0.0,0.12337132,0.9807669,-0.60627025
alexnet_w1_mlp_simclrhn_probe3,1,567,NaN,knife,cat,180,0567_ps_dnn_180_cat_10_n02123045_8690.png,n02123045_8690.png,0.0,-0.10005798,0.08637276,-0.13182645
alexnet_w1_mlp_simclrhn_probe3,1,568,NaN,clock,clock,90,0568_ps_dnn_90_clock_10_n02708093_6696.png,n02708093_6696.png,1.0,0.96389675,0.9108046,0.0375418
alexnet_w1_mlp_simclrhn_probe3,1,569,NaN,airplane,airplane,60,0569_ps_dnn_60_airplane_10_n02690373_7748.png,n02690373_7748.png,1.0,4.7285843,3.446658,0.90645885
alexnet_w1_mlp_simclrhn_probe3,1,570,NaN,airplane,airplane,0,0570_ps_dnn_0_airplane_10_n02690373_20011.png,n02690373_20011.png,1.0,2.580491,1.7189871,0.6091753
alexnet_w1_mlp_simclrhn_probe3,1,571,NaN,knife,boat,150,0571_ps_dnn_150_boat_10_n02951358_16728.png,n02951358_16728.png,0.0,0.011793399,0.57233006,-0.3963593
alexnet_w1_mlp_simclrhn_probe3,1,572,NaN,airplane,truck,60,0572_ps_dnn_60_truck_10_n04467665_37833.png,n04467665_37833.png,0.0,1.2142227,1.9152784,-0.49572128
alexnet_w1_mlp_simclrhn_probe3,1,573,NaN,oven,oven,0,0573_ps_dnn_0_oven_10_n04111531_22886.png,n04111531_22886.png,1.0,2.3241148,1.7872953,0.3795887
alexnet_w1_mlp_simclrhn_probe3,1,574,NaN,car,car,30,0574_ps_dnn_30_car_10_n04285008_5959.png,n04285008_5959.png,1.0,6.46932,0.7142378,4.0694575
alexnet_w1_mlp_simclrhn_probe3,1,575,NaN,bear,boat,120,0575_ps_dnn_120_boat_10_n04273569_10840.png,n04273569_10840.png,0.0,-0.2369316,0.79034156,-0.72639185
alexnet_w1_mlp_simclrhn_probe3,1,576,NaN,bear,clock,180,0576_ps_dnn_180_clock_10_n02708093_1352.png,n02708093_1352.png,0.0,-0.065874435,0.842553,-0.64235526
alexnet_w1_mlp_simclrhn_probe3,1,577,NaN,bear,oven,120,0577_ps_dnn_120_oven_10_n04111531_1004.png,n04111531_1004.png,0.0,0.53135914,0.7186115,-0.1324074
alexnet_w1_mlp_simclrhn_probe3,1,578,NaN,boat,car,180,0578_ps_dnn_180_car_10_n03100240_4619.png,n03100240_4619.png,0.0,-0.6906486,0.5284491,-0.8620323
alexnet_w1_mlp_simclrhn_probe3,1,579,NaN,knife,oven,180,0579_ps_dnn_180_oven_10_n04111531_15367.png,n04111531_15367.png,0.0,-0.23199728,0.36341837,-0.42102244
alexnet_w1_mlp_simclrhn_probe3,1,580,NaN,oven,oven,30,0580_ps_dnn_30_oven_10_n04111531_6903.png,n04111531_6903.png,1.0,3.402264,1.2022622,1.5556363
alexnet_w1_mlp_simclrhn_probe3,1,581,NaN,oven,oven,60,0581_ps_dnn_60_oven_10_n04111531_1662.png,n04111531_1662.png,1.0,2.3717034,1.546763,0.583321
alexnet_w1_mlp_simclrhn_probe3,1,582,NaN,keyboard,keyboard,0,0582_ps_dnn_0_keyboard_10_n04505470_1342.png,n04505470_1342.png,1.0,9.381589,1.0058037,5.9225745
alexnet_w1_mlp_simclrhn_probe3,1,583,NaN,oven,boat,60,0583_ps_dnn_60_boat_10_n02951358_1911.png,n02951358_1911.png,0.0,1.4378833,1.9009589,-0.32744393
alexnet_w1_mlp_simclrhn_probe3,1,584,NaN,bicycle,bicycle,30,0584_ps_dnn_30_bicycle_10_n03792782_42927.png,n03792782_42927.png,1.0,6.3093805,2.0730684,2.995525
alexnet_w1_mlp_simclrhn_probe3,1,585,NaN,bear,chair,180,0585_ps_dnn_180_chair_10_n02791124_3994.png,n02791124_3994.png,0.0,-0.44984302,0.41094232,-0.6086672
alexnet_w1_mlp_simclrhn_probe3,1,586,NaN,dog,dog,0,0586_ps_dnn_0_dog_10_n02101388_1383.png,n02101388_1383.png,1.0,3.520406,1.2820873,1.5827303
alexnet_w1_mlp_simclrhn_probe3,1,587,NaN,cat,bear,30,0587_ps_dnn_30_bear_10_n02132136_9367.png,n02132136_9367.png,0.0,0.15835217,0.97319555,-0.5761813
alexnet_w1_mlp_simclrhn_probe3,1,588,NaN,knife,dog,150,0588_ps_dnn_150_dog_10_n02108915_7875.png,n02108915_7875.png,0.0,0.002203246,0.28223756,-0.19801416
alexnet_w1_mlp_simclrhn_probe3,1,589,NaN,oven,chair,60,0589_ps_dnn_60_chair_10_n02791124_6237.png,n02791124_6237.png,0.0,0.70840573,1.7495403,-0.73619336
alexnet_w1_mlp_simclrhn_probe3,1,590,NaN,oven,bird,60,0590_ps_dnn_60_bird_10_n01622779_13896.png,n01622779_13896.png,0.0,-0.18750559,0.7781547,-0.68282497
alexnet_w1_mlp_simclrhn_probe3,1,591,NaN,oven,boat,30,0591_ps_dnn_30_boat_10_n04273569_15583.png,n04273569_15583.png,0.0,0.22969802,0.8902187,-0.46705866
alexnet_w1_mlp_simclrhn_probe3,1,592,NaN,knife,bottle,0,0592_ps_dnn_0_bottle_10_n03937543_3079.png,n03937543_3079.png,0.0,1.2732745,1.9502738,-0.47871074
alexnet_w1_mlp_simclrhn_probe3,1,593,NaN,keyboard,dog,150,0593_ps_dnn_150_dog_10_n02110063_5687.png,n02110063_5687.png,0.0,-0.0011813671,0.29667762,-0.21061811
alexnet_w1_mlp_simclrhn_probe3,1,594,NaN,truck,truck,30,0594_ps_dnn_30_truck_10_n03417042_6685.png,n03417042_6685.png,1.0,1.333798,0.34530774,0.69896823
alexnet_w1_mlp_simclrhn_probe3,1,595,NaN,clock,clock,0,0595_ps_dnn_0_clock_10_n02708093_340.png,n02708093_340.png,1.0,5.6849885,1.5154513,2.948308
alexnet_w1_mlp_simclrhn_probe3,1,596,NaN,bear,dog,0,0596_ps_dnn_0_dog_10_n02111129_5463.png,n02111129_5463.png,0.0,2.0550342,3.6202652,-1.1067855
alexnet_w1_mlp_simclrhn_probe3,1,597,NaN,bicycle,bicycle,90,0597_ps_dnn_90_bicycle_10_n03792782_17503.png,n03792782_17503.png,1.0,1.2188511,1.1935288,0.017905584
alexnet_w1_mlp_simclrhn_probe3,1,598,NaN,bear,bear,60,0598_ps_dnn_60_bear_10_n02134084_9253.png,n02134084_9253.png,1.0,0.7032307,0.3252781,0.26725283
alexnet_w1_mlp_simclrhn_probe3,1,599,NaN,bicycle,car,30,0599_ps_dnn_30_car_10_n04285008_3688.png,n04285008_3688.png,0.0,2.013507,2.8197992,-0.57013476
alexnet_w1_mlp_simclrhn_probe3,1,600,NaN,keyboard,bird,150,0600_ps_dnn_150_bird_10_n01795545_17324.png,n01795545_17324.png,0.0,-0.15274005,0.07509736,-0.16110538
alexnet_w1_mlp_simclrhn_probe3,1,601,NaN,boat,boat,30,0601_ps_dnn_30_boat_10_n04273569_16064.png,n04273569_16064.png,1.0,7.9174294,2.586543,3.769506
alexnet_w1_mlp_simclrhn_probe3,1,602,NaN,knife,elephant,180,0602_ps_dnn_180_elephant_10_n02504458_4395.png,n02504458_4395.png,0.0,0.03861831,0.5496038,-0.3613213
alexnet_w1_mlp_simclrhn_probe3,1,603,NaN,oven,oven,30,0603_ps_dnn_30_oven_10_n04111531_21855.png,n04111531_21855.png,1.0,3.966116,1.8322695,1.5088573
alexnet_w1_mlp_simclrhn_probe3,1,604,NaN,oven,oven,30,0604_ps_dnn_30_oven_10_n04111531_11225.png,n04111531_11225.png,1.0,4.9813185,1.6848929,2.330925
alexnet_w1_mlp_simclrhn_probe3,1,605,NaN,bear,oven,150,0605_ps_dnn_150_oven_10_n04111531_13486.png,n04111531_13486.png,0.0,0.34190783,0.8505034,-0.3596314
alexnet_w1_mlp_simclrhn_probe3,1,606,NaN,chair,chair,0,0606_ps_dnn_0_chair_10_n02791124_1693.png,n02791124_1693.png,1.0,3.072979,1.0098119,1.4588795
alexnet_w1_mlp_simclrhn_probe3,1,607,NaN,bear,chair,150,0607_ps_dnn_150_chair_10_n04099969_26462.png,n04099969_26462.png,0.0,-0.5472065,0.5193617,-0.7541776
alexnet_w1_mlp_simclrhn_probe3,1,608,NaN,bear,chair,120,0608_ps_dnn_120_chair_10_n04429376_16869.png,n04429376_16869.png,0.0,-0.75869226,0.63563406,-0.9859376
alexnet_w1_mlp_simclrhn_probe3,1,609,NaN,knife,bottle,0,0609_ps_dnn_0_bottle_10_n03983396_23471.png,n03983396_23471.png,0.0,-0.73219293,2.1223555,-2.0184705
alexnet_w1_mlp_simclrhn_probe3,1,610,NaN,bear,bear,0,0610_ps_dnn_0_bear_10_n02134084_5314.png,n02134084_5314.png,1.0,2.027836,1.7625941,0.1875544
alexnet_w1_mlp_simclrhn_probe3,1,611,NaN,bear,elephant,180,0611_ps_dnn_180_elephant_10_n02504458_4564.png,n02504458_4564.png,0.0,-0.13410428,0.55035335,-0.48398465
alexnet_w1_mlp_simclrhn_probe3,1,612,NaN,bear,bear,0,0612_ps_dnn_0_bear_10_n02132136_6967.png,n02132136_6967.png,1.0,8.8179245,7.651655,0.82467693
alexnet_w1_mlp_simclrhn_probe3,1,613,NaN,cat,cat,0,0613_ps_dnn_0_cat_10_n02123394_6517.png,n02123394_6517.png,1.0,3.798233,1.5870855,1.5635175
alexnet_w1_mlp_simclrhn_probe3,1,614,NaN,keyboard,keyboard,150,0614_ps_dnn_150_keyboard_10_n04505470_1076.png,n04505470_1076.png,1.0,0.7693697,0.2285363,0.38242698
alexnet_w1_mlp_simclrhn_probe3,1,615,NaN,bear,knife,180,0615_ps_dnn_180_knife_10_n03041632_5916.png,n03041632_5916.png,0.0,0.30241424,0.71157676,-0.2893216
alexnet_w1_mlp_simclrhn_probe3,1,616,NaN,oven,car,90,0616_ps_dnn_90_car_10_n03100240_4674.png,n03100240_4674.png,0.0,-0.5985277,1.0341104,-1.1544496
alexnet_w1_mlp_simclrhn_probe3,1,617,NaN,oven,bottle,90,0617_ps_dnn_90_bottle_10_n02823428_1602.png,n02823428_1602.png,0.0,0.84217566,1.105201,-0.18598701
alexnet_w1_mlp_simclrhn_probe3,1,618,NaN,oven,boat,90,0618_ps_dnn_90_boat_10_n04273569_27343.png,n04273569_27343.png,0.0,0.33416295,1.130753,-0.56327426
alexnet_w1_mlp_simclrhn_probe3,1,619,NaN,bear,bottle,120,0619_ps_dnn_120_bottle_10_n04560804_15162.png,n04560804_15162.png,0.0,-0.3965604,0.7079658,-0.78101796
alexnet_w1_mlp_simclrhn_probe3,1,620,NaN,airplane,bottle,120,0620_ps_dnn_120_bottle_10_n03937543_24.png,n03937543_24.png,0.0,-0.055801935,0.27418497,-0.23333597
alexnet_w1_mlp_simclrhn_probe3,1,621,NaN,bear,dog,180,0621_ps_dnn_180_dog_10_n02105162_9615.png,n02105162_9615.png,0.0,-0.11258984,0.38091165,-0.34895825
alexnet_w1_mlp_simclrhn_probe3,1,622,NaN,knife,bird,150,0622_ps_dnn_150_bird_10_n01582220_1150.png,n01582220_1150.png,0.0,-0.09191075,0.14879811,-0.17020687
alexnet_w1_mlp_simclrhn_probe3,1,623,NaN,bear,clock,180,0623_ps_dnn_180_clock_10_n04548280_4560.png,n04548280_4560.png,0.0,0.057826538,0.89670575,-0.5931772
alexnet_w1_mlp_simclrhn_probe3,1,624,NaN,knife,bottle,150,0624_ps_dnn_150_bottle_10_n04560804_14605.png,n04560804_14605.png,0.0,-0.25335023,0.6750384,-0.6564699
alexnet_w1_mlp_simclrhn_probe3,1,625,NaN,chair,chair,0,0625_ps_dnn_0_chair_10_n03376595_262.png,n03376595_262.png,1.0,3.5002995,1.0015283,1.766898
alexnet_w1_mlp_simclrhn_probe3,1,626,NaN,bear,dog,180,0626_ps_dnn_180_dog_10_n02091032_6523.png,n02091032_6523.png,0.0,0.020680996,0.43199024,-0.29083955
alexnet_w1_mlp_simclrhn_probe3,1,627,NaN,knife,cat,150,0627_ps_dnn_150_cat_10_n02123159_615.png,n02123159_615.png,0.0,0.06466522,0.56574774,-0.35431886
alexnet_w1_mlp_simclrhn_probe3,1,628,NaN,bear,bottle,180,0628_ps_dnn_180_bottle_10_n04579145_6049.png,n04579145_6049.png,0.0,-0.2759058,0.56323266,-0.5933605
alexnet_w1_mlp_simclrhn_probe3,1,629,NaN,keyboard,bottle,90,0629_ps_dnn_90_bottle_10_n02823428_4386.png,n02823428_4386.png,0.0,-0.0382163,3.2135072,-2.2993157
alexnet_w1_mlp_simclrhn_probe3,1,630,NaN,knife,car,150,0630_ps_dnn_150_car_10_n03100240_4594.png,n03100240_4594.png,0.0,-0.4606055,0.29962155,-0.5375617
alexnet_w1_mlp_simclrhn_probe3,1,631,NaN,knife,knife,120,0631_ps_dnn_120_knife_10_n03041632_51581.png,n03041632_51581.png,1.0,1.0159298,0.37857985,0.45067447
alexnet_w1_mlp_simclrhn_probe3,1,632,NaN,keyboard,keyboard,60,0632_ps_dnn_60_keyboard_10_n03085013_15836.png,n03085013_15836.png,1.0,0.42185944,0.24067917,0.12811379
alexnet_w1_mlp_simclrhn_probe3,1,633,NaN,dog,bicycle,180,0633_ps_dnn_180_bicycle_10_n03792782_34197.png,n03792782_34197.png,0.0,-0.40072462,0.14241481,-0.3840576
alexnet_w1_mlp_simclrhn_probe3,1,634,NaN,knife,bicycle,180,0634_ps_dnn_180_bicycle_10_n02835271_9314.png,n02835271_9314.png,0.0,-0.26417536,0.9605455,-0.8660084
alexnet_w1_mlp_simclrhn_probe3,1,635,NaN,oven,oven,150,0635_ps_dnn_150_oven_10_n04111531_5643.png,n04111531_5643.png,1.0,0.6632173,0.6224531,0.028824652
alexnet_w1_mlp_simclrhn_probe3,1,636,NaN,knife,cat,180,0636_ps_dnn_180_cat_10_n02123394_6362.png,n02123394_6362.png,0.0,0.14148037,0.43147093,-0.20505428
alexnet_w1_mlp_simclrhn_probe3,1,637,NaN,elephant,elephant,60,0637_ps_dnn_60_elephant_10_n02504458_3614.png,n02504458_3614.png,1.0,6.0932064,1.7693164,3.0574517
alexnet_w1_mlp_simclrhn_probe3,1,638,NaN,bear,chair,180,0638_ps_dnn_180_chair_10_n04099969_6691.png,n04099969_6691.png,0.0,-0.53159434,0.6154272,-0.81106675
alexnet_w1_mlp_simclrhn_probe3,1,639,NaN,bear,dog,60,0639_ps_dnn_60_dog_10_n02104365_1262.png,n02104365_1262.png,0.0,0.07635564,1.887549,-1.2807071
alexnet_w1_mlp_simclrhn_probe3,1,640,NaN,bear,chair,180,0640_ps_dnn_180_chair_10_n02791124_2611.png,n02791124_2611.png,0.0,-0.88870156,0.74179804,-1.1529373
