subj,session,trial,rt,object_response,category,condition,imagename,filename,is_correct,targ_act,max_nontarg_act,decision_margin
alexnet_w3_mlp_simclrhn_probe0,1,1,NaN,truck,truck,30,0001_ps_dnn_30_truck_10_n03417042_14861.png,n03417042_14861.png,1.0,2.788238,-1.1402335,2.777849
alexnet_w3_mlp_simclrhn_probe0,1,2,NaN,keyboard,keyboard,0,0002_ps_dnn_0_keyboard_10_n03085013_25476.png,n03085013_25476.png,1.0,8.348894,-1.4168835,6.9054475
alexnet_w3_mlp_simclrhn_probe0,1,3,NaN,elephant,elephant,0,0003_ps_dnn_0_elephant_10_n02504013_3087.png,n02504013_3087.png,1.0,6.8544564,-2.0684438,6.3094435
alexnet_w3_mlp_simclrhn_probe0,1,4,NaN,bear,cat,30,0004_ps_dnn_30_cat_10_n02123394_4633.png,n02123394_4633.png,0.0,0.9314461,1.6164033,-0.48433793
alexnet_w3_mlp_simclrhn_probe0,1,5,NaN,knife,knife,120,0005_ps_dnn_120_knife_10_n03041632_48151.png,n03041632_48151.png,1.0,0.20036238,-0.34855857,0.38814577
alexnet_w3_mlp_simclrhn_probe0,1,6,NaN,bicycle,bicycle,60,0006_ps_dnn_60_bicycle_10_n02835271_1075.png,n02835271_1075.png,1.0,5.0449433,-2.7766783,5.530722
alexnet_w3_mlp_simclrhn_probe0,1,7,NaN,bear,bear,180,0007_ps_dnn_180_bear_10_n02134084_10289.png,n02134084_10289.png,1.0,0.34199834,-0.56208444,0.63928306
alexnet_w3_mlp_simclrhn_probe0,1,8,NaN,keyboard,keyboard,0,0008_ps_dnn_0_keyboard_10_n03085013_21967.png,n03085013_21967.png,1.0,2.3246617,0.62586653,1.2012296
alexnet_w3_mlp_simclrhn_probe0,1,9,NaN,bear,oven,150,0009_ps_dnn_150_oven_10_n04111531_5737.png,n04111531_5737.png,0.0,-1.2817883,-0.18099877,-0.77837574
alexnet_w3_mlp_simclrhn_probe0,1,10,NaN,elephant,elephant,60,0010_ps_dnn_60_elephant_10_n02504458_8141.png,n02504458_8141.png,1.0,1.2452042,-0.5057505,1.2381119
alexnet_w3_mlp_simclrhn_probe0,1,11,NaN,elephant,elephant,90,0011_ps_dnn_90_elephant_10_n02504458_3153.png,n02504458_3153.png,1.0,3.616054,0.5064974,2.1987886
alexnet_w3_mlp_simclrhn_probe0,1,12,NaN,bear,bear,60,0012_ps_dnn_60_bear_10_n02134418_5807.png,n02134418_5807.png,1.0,0.4865677,-0.60025644,0.76850075
alexnet_w3_mlp_simclrhn_probe0,1,13,NaN,boat,boat,0,0013_ps_dnn_0_boat_10_n04273569_15322.png,n04273569_15322.png,1.0,1.5690302,-2.1453717,2.6264787
alexnet_w3_mlp_simclrhn_probe0,1,14,NaN,chair,knife,0,0014_ps_dnn_0_knife_10_n03041632_42526.png,n03041632_42526.png,0.0,-5.1382685,-3.0122952,-1.50329
alexnet_w3_mlp_simclrhn_probe0,1,15,NaN,bicycle,bicycle,30,0015_ps_dnn_30_bicycle_10_n02835271_5886.png,n02835271_5886.png,1.0,-0.9613359,-4.0612683,2.1919832
alexnet_w3_mlp_simclrhn_probe0,1,16,NaN,bear,dog,180,0016_ps_dnn_180_dog_10_n02110063_869.png,n02110063_869.png,0.0,-1.5333772,-0.66770065,-0.61212575
alexnet_w3_mlp_simclrhn_probe0,1,17,NaN,bear,bicycle,180,0017_ps_dnn_180_bicycle_10_n03792782_3334.png,n03792782_3334.png,0.0,-1.298042,-0.44623807,-0.6023164
alexnet_w3_mlp_simclrhn_probe0,1,18,NaN,airplane,airplane,0,0018_ps_dnn_0_airplane_10_n02690373_7355.png,n02690373_7355.png,1.0,6.1757364,0.65804315,3.9015985
alexnet_w3_mlp_simclrhn_probe0,1,19,NaN,bear,bird,120,0019_ps_dnn_120_bird_10_n01798484_2289.png,n01798484_2289.png,0.0,-1.385513,-0.48193908,-0.6389232
alexnet_w3_mlp_simclrhn_probe0,1,20,NaN,elephant,knife,60,0020_ps_dnn_60_knife_10_n03041632_87380.png,n03041632_87380.png,0.0,-2.9167225,-2.4796014,-0.30909133
alexnet_w3_mlp_simclrhn_probe0,1,21,NaN,airplane,bird,0,0021_ps_dnn_0_bird_10_n02027492_15639.png,n02027492_15639.png,0.0,-4.402048,-0.5321421,-2.7364368
alexnet_w3_mlp_simclrhn_probe0,1,22,NaN,airplane,bird,0,0022_ps_dnn_0_bird_10_n02006656_7153.png,n02006656_7153.png,0.0,-0.3531472,0.5718483,-0.6540706
alexnet_w3_mlp_simclrhn_probe0,1,23,NaN,boat,boat,60,0023_ps_dnn_60_boat_10_n04612504_14699.png,n04612504_14699.png,1.0,0.66580886,-1.9975768,1.883298
alexnet_w3_mlp_simclrhn_probe0,1,24,NaN,bear,bear,60,0024_ps_dnn_60_bear_10_n02134418_5971.png,n02134418_5971.png,1.0,1.4368399,-1.3542997,1.9736338
alexnet_w3_mlp_simclrhn_probe0,1,25,NaN,bear,dog,90,0025_ps_dnn_90_dog_10_n02110063_16680.png,n02110063_16680.png,0.0,-2.20732,-1.7544277,-0.3202432
alexnet_w3_mlp_simclrhn_probe0,1,26,NaN,oven,car,90,0026_ps_dnn_90_car_10_n03100240_6010.png,n03100240_6010.png,0.0,-7.0017877,-0.1335721,-4.8565617
alexnet_w3_mlp_simclrhn_probe0,1,27,NaN,elephant,elephant,30,0027_ps_dnn_30_elephant_10_n02504458_9835.png,n02504458_9835.png,1.0,0.21738496,-2.279422,1.7655092
alexnet_w3_mlp_simclrhn_probe0,1,28,NaN,airplane,airplane,30,0028_ps_dnn_30_airplane_10_n02690373_10207.png,n02690373_10207.png,1.0,2.9023952,-2.090796,3.5307195
alexnet_w3_mlp_simclrhn_probe0,1,29,NaN,cat,bottle,180,0029_ps_dnn_180_bottle_10_n03983396_5532.png,n03983396_5532.png,0.0,-5.0459514,-0.6905138,-3.0797596
alexnet_w3_mlp_simclrhn_probe0,1,30,NaN,dog,dog,30,0030_ps_dnn_30_dog_10_n02090622_1485.png,n02090622_1485.png,1.0,-0.41373426,-2.259814,1.3053756
alexnet_w3_mlp_simclrhn_probe0,1,31,NaN,bear,truck,150,0031_ps_dnn_150_truck_10_n03417042_5503.png,n03417042_5503.png,0.0,-6.883996,-0.19346556,-4.7309194
alexnet_w3_mlp_simclrhn_probe0,1,32,NaN,bear,bear,180,0032_ps_dnn_180_bear_10_n02133161_897.png,n02133161_897.png,1.0,0.29094788,-0.019233167,0.21933113
alexnet_w3_mlp_simclrhn_probe0,1,33,NaN,oven,keyboard,180,0033_ps_dnn_180_keyboard_10_n04505470_4579.png,n04505470_4579.png,0.0,-1.120425,-1.0753067,-0.03190348
alexnet_w3_mlp_simclrhn_probe0,1,34,NaN,bird,bird,60,0034_ps_dnn_60_bird_10_n01592084_5833.png,n01592084_5833.png,1.0,-1.1342279,-1.9216633,0.5568009
alexnet_w3_mlp_simclrhn_probe0,1,35,NaN,dog,dog,0,0035_ps_dnn_0_dog_10_n02090379_3514.png,n02090379_3514.png,1.0,-1.4928555,-2.5810108,0.76944196
alexnet_w3_mlp_simclrhn_probe0,1,36,NaN,elephant,airplane,180,0036_ps_dnn_180_airplane_10_n02690373_6144.png,n02690373_6144.png,0.0,-4.7246733,-0.92736,-2.685106
alexnet_w3_mlp_simclrhn_probe0,1,37,NaN,airplane,airplane,90,0037_ps_dnn_90_airplane_10_n02690373_1436.png,n02690373_1436.png,1.0,-0.5467849,-0.944536,0.2812525
alexnet_w3_mlp_simclrhn_probe0,1,38,NaN,elephant,clock,120,0038_ps_dnn_120_clock_10_n04548280_354.png,n04548280_354.png,0.0,-4.517306,-0.91228884,-2.5491319
alexnet_w3_mlp_simclrhn_probe0,1,39,NaN,keyboard,keyboard,0,0039_ps_dnn_0_keyboard_10_n03085013_2189.png,n03085013_2189.png,1.0,1.9745415,-0.42252976,1.6949854
alexnet_w3_mlp_simclrhn_probe0,1,40,NaN,bear,chair,120,0040_ps_dnn_120_chair_10_n04099969_9005.png,n04099969_9005.png,0.0,-4.8389015,-0.46697757,-3.091417
alexnet_w3_mlp_simclrhn_probe0,1,41,NaN,elephant,bicycle,180,0041_ps_dnn_180_bicycle_10_n02835271_7350.png,n02835271_7350.png,0.0,-1.1045314,-0.10897037,-0.703968
alexnet_w3_mlp_simclrhn_probe0,1,42,NaN,bear,bottle,150,0042_ps_dnn_150_bottle_10_n04557648_8320.png,n04557648_8320.png,0.0,-2.028892,-0.8547318,-0.8302567
alexnet_w3_mlp_simclrhn_probe0,1,43,NaN,dog,dog,0,0043_ps_dnn_0_dog_10_n02105641_6503.png,n02105641_6503.png,1.0,-0.5447604,-2.4751832,1.365015
alexnet_w3_mlp_simclrhn_probe0,1,44,NaN,clock,clock,90,0044_ps_dnn_90_clock_10_n04548280_6022.png,n04548280_6022.png,1.0,-1.5280849,-2.6722388,0.80903906
alexnet_w3_mlp_simclrhn_probe0,1,45,NaN,keyboard,clock,60,0045_ps_dnn_60_clock_10_n03196217_7414.png,n03196217_7414.png,0.0,-1.4321162,-0.12688863,-0.92293525
alexnet_w3_mlp_simclrhn_probe0,1,46,NaN,oven,oven,150,0046_ps_dnn_150_oven_10_n04111531_7965.png,n04111531_7965.png,1.0,-1.0925394,-1.4093436,0.22401439
alexnet_w3_mlp_simclrhn_probe0,1,47,NaN,bear,bottle,90,0047_ps_dnn_90_bottle_10_n04579145_4594.png,n04579145_4594.png,0.0,-5.0092435,-3.718115,-0.91296566
alexnet_w3_mlp_simclrhn_probe0,1,48,NaN,oven,bottle,30,0048_ps_dnn_30_bottle_10_n03983396_4564.png,n03983396_4564.png,0.0,-1.1873554,0.16303295,-0.95486873
alexnet_w3_mlp_simclrhn_probe0,1,49,NaN,cat,cat,60,0049_ps_dnn_60_cat_10_n02125311_54015.png,n02125311_54015.png,1.0,0.30006638,-1.3770411,1.1858941
alexnet_w3_mlp_simclrhn_probe0,1,50,NaN,bicycle,bicycle,150,0050_ps_dnn_150_bicycle_10_n03792782_5133.png,n03792782_5133.png,1.0,-0.9870636,-1.0614967,0.052632183
alexnet_w3_mlp_simclrhn_probe0,1,51,NaN,bear,bird,120,0051_ps_dnn_120_bird_10_n02018207_6296.png,n02018207_6296.png,0.0,-1.6868755,0.009490401,-1.1995118
alexnet_w3_mlp_simclrhn_probe0,1,52,NaN,elephant,bird,30,0052_ps_dnn_30_bird_10_n01817953_11996.png,n01817953_11996.png,0.0,-10.833145,-2.526619,-5.873601
alexnet_w3_mlp_simclrhn_probe0,1,53,NaN,oven,keyboard,150,0053_ps_dnn_150_keyboard_10_n03085013_3148.png,n03085013_3148.png,0.0,-4.9432535,-0.5068375,-3.13702
alexnet_w3_mlp_simclrhn_probe0,1,54,NaN,bear,bear,60,0054_ps_dnn_60_bear_10_n02134418_5537.png,n02134418_5537.png,1.0,0.8816528,-1.1056193,1.4052136
alexnet_w3_mlp_simclrhn_probe0,1,55,NaN,bear,cat,150,0055_ps_dnn_150_cat_10_n02125311_11409.png,n02125311_11409.png,0.0,-2.0129464,-0.48496458,-1.0804462
alexnet_w3_mlp_simclrhn_probe0,1,56,NaN,elephant,knife,30,0056_ps_dnn_30_knife_10_n03041632_3063.png,n03041632_3063.png,0.0,-6.460444,-3.4655824,-2.117687
alexnet_w3_mlp_simclrhn_probe0,1,57,NaN,oven,dog,60,0057_ps_dnn_60_dog_10_n02106550_6424.png,n02106550_6424.png,0.0,-2.0840392,-0.5815662,-1.0624088
alexnet_w3_mlp_simclrhn_probe0,1,58,NaN,elephant,bear,30,0058_ps_dnn_30_bear_10_n02133161_7032.png,n02133161_7032.png,0.0,-2.3048747,-1.5363805,-0.54340744
alexnet_w3_mlp_simclrhn_probe0,1,59,NaN,bear,cat,150,0059_ps_dnn_150_cat_10_n02125311_5570.png,n02125311_5570.png,0.0,-2.3627965,-0.9775148,-0.9795422
alexnet_w3_mlp_simclrhn_probe0,1,60,NaN,elephant,bird,30,0060_ps_dnn_30_bird_10_n01843383_13894.png,n01843383_13894.png,0.0,-2.8896313,-0.77831286,-1.4929276
alexnet_w3_mlp_simclrhn_probe0,1,61,NaN,oven,bottle,60,0061_ps_dnn_60_bottle_10_n03983396_2205.png,n03983396_2205.png,0.0,-4.4312835,1.3879669,-4.1148314
alexnet_w3_mlp_simclrhn_probe0,1,62,NaN,bicycle,bicycle,60,0062_ps_dnn_60_bicycle_10_n03792782_31010.png,n03792782_31010.png,1.0,3.2224183,-4.775023,5.655045
alexnet_w3_mlp_simclrhn_probe0,1,63,NaN,bottle,bottle,60,0063_ps_dnn_60_bottle_10_n02823428_880.png,n02823428_880.png,1.0,1.5884972,-3.0967042,3.312938
alexnet_w3_mlp_simclrhn_probe0,1,64,NaN,elephant,car,180,0064_ps_dnn_180_car_10_n02814533_40459.png,n02814533_40459.png,0.0,-6.686708,-0.5920972,-4.3095407
alexnet_w3_mlp_simclrhn_probe0,1,65,NaN,bear,cat,120,0065_ps_dnn_120_cat_10_n02123045_567.png,n02123045_567.png,0.0,-1.2128533,-0.7472209,-0.32925186
alexnet_w3_mlp_simclrhn_probe0,1,66,NaN,bear,knife,120,0066_ps_dnn_120_knife_10_n03041632_24541.png,n03041632_24541.png,0.0,-2.706739,-0.23410827,-1.748414
alexnet_w3_mlp_simclrhn_probe0,1,67,NaN,elephant,elephant,30,0067_ps_dnn_30_elephant_10_n02504458_8644.png,n02504458_8644.png,1.0,2.643142,-2.1810107,3.4111912
alexnet_w3_mlp_simclrhn_probe0,1,68,NaN,keyboard,keyboard,0,0068_ps_dnn_0_keyboard_10_n03085013_2166.png,n03085013_2166.png,1.0,3.2349143,0.54950666,1.89887
alexnet_w3_mlp_simclrhn_probe0,1,69,NaN,bear,boat,90,0069_ps_dnn_90_boat_10_n04273569_13972.png,n04273569_13972.png,0.0,-2.836608,-0.18597007,-1.874284
alexnet_w3_mlp_simclrhn_probe0,1,70,NaN,bear,airplane,150,0070_ps_dnn_150_airplane_10_n02690373_9432.png,n02690373_9432.png,0.0,-6.535241,-0.33185738,-4.386455
alexnet_w3_mlp_simclrhn_probe0,1,71,NaN,oven,truck,90,0071_ps_dnn_90_truck_10_n03417042_5228.png,n03417042_5228.png,0.0,-5.589613,-0.36002707,-3.6978755
alexnet_w3_mlp_simclrhn_probe0,1,72,NaN,airplane,airplane,0,0072_ps_dnn_0_airplane_10_n02690373_4294.png,n02690373_4294.png,1.0,7.8265414,2.0280185,4.100175
alexnet_w3_mlp_simclrhn_probe0,1,73,NaN,clock,chair,30,0073_ps_dnn_30_chair_10_n04099969_52474.png,n04099969_52474.png,0.0,-2.4860156,-1.0444273,-1.0193568
alexnet_w3_mlp_simclrhn_probe0,1,74,NaN,oven,oven,30,0074_ps_dnn_30_oven_10_n04111531_21822.png,n04111531_21822.png,1.0,2.6522315,0.4033628,1.5901903
alexnet_w3_mlp_simclrhn_probe0,1,75,NaN,oven,oven,150,0075_ps_dnn_150_oven_10_n04111531_15735.png,n04111531_15735.png,1.0,-0.2593416,-0.8711318,0.432601
alexnet_w3_mlp_simclrhn_probe0,1,76,NaN,bear,dog,120,0076_ps_dnn_120_dog_10_n02104029_7335.png,n02104029_7335.png,0.0,-1.1982207,-0.56835794,-0.44538024
alexnet_w3_mlp_simclrhn_probe0,1,77,NaN,bear,truck,150,0077_ps_dnn_150_truck_10_n03417042_17911.png,n03417042_17911.png,0.0,-8.9859705,-0.33877233,-6.1144924
alexnet_w3_mlp_simclrhn_probe0,1,78,NaN,bicycle,clock,30,0078_ps_dnn_30_clock_10_n02708093_899.png,n02708093_899.png,0.0,-6.1510334,-1.2505474,-3.465167
alexnet_w3_mlp_simclrhn_probe0,1,79,NaN,boat,boat,60,0079_ps_dnn_60_boat_10_n03662601_9590.png,n03662601_9590.png,1.0,2.8024027,-1.4445513,3.00305
alexnet_w3_mlp_simclrhn_probe0,1,80,NaN,bear,chair,90,0080_ps_dnn_90_chair_10_n02791124_6550.png,n02791124_6550.png,0.0,-10.844976,-2.1554706,-6.144408
alexnet_w3_mlp_simclrhn_probe0,1,81,NaN,oven,clock,180,0081_ps_dnn_180_clock_10_n03196217_4492.png,n03196217_4492.png,0.0,-2.3245957,0.0021728873,-1.6452739
alexnet_w3_mlp_simclrhn_probe0,1,82,NaN,car,car,30,0082_ps_dnn_30_car_10_n04285008_14128.png,n04285008_14128.png,1.0,4.971726,0.22379869,3.3572915
alexnet_w3_mlp_simclrhn_probe0,1,83,NaN,bicycle,bicycle,60,0083_ps_dnn_60_bicycle_10_n02835271_4730.png,n02835271_4730.png,1.0,-0.81310534,-3.277529,1.7426107
alexnet_w3_mlp_simclrhn_probe0,1,84,NaN,elephant,elephant,0,0084_ps_dnn_0_elephant_10_n02504458_62.png,n02504458_62.png,1.0,10.142763,-4.9589787,10.678544
alexnet_w3_mlp_simclrhn_probe0,1,85,NaN,bear,dog,120,0085_ps_dnn_120_dog_10_n02086646_8144.png,n02086646_8144.png,0.0,-2.483853,0.6542099,-2.2189457
alexnet_w3_mlp_simclrhn_probe0,1,86,NaN,knife,knife,60,0086_ps_dnn_60_knife_10_n03041632_1671.png,n03041632_1671.png,1.0,-3.2177248,-5.830376,1.8474236
alexnet_w3_mlp_simclrhn_probe0,1,87,NaN,bear,bird,180,0087_ps_dnn_180_bird_10_n01534433_10801.png,n01534433_10801.png,0.0,-2.1942945,0.7098208,-2.0535195
alexnet_w3_mlp_simclrhn_probe0,1,88,NaN,oven,keyboard,150,0088_ps_dnn_150_keyboard_10_n03085013_20570.png,n03085013_20570.png,0.0,-7.663871,-0.019813597,-5.4051647
alexnet_w3_mlp_simclrhn_probe0,1,89,NaN,cat,knife,150,0089_ps_dnn_150_knife_10_n03041632_4808.png,n03041632_4808.png,0.0,-1.7329578,-0.47566804,-0.88903815
alexnet_w3_mlp_simclrhn_probe0,1,90,NaN,bear,keyboard,180,0090_ps_dnn_180_keyboard_10_n03085013_1808.png,n03085013_1808.png,0.0,-3.441213,0.6321796,-2.8803234
alexnet_w3_mlp_simclrhn_probe0,1,91,NaN,elephant,truck,120,0091_ps_dnn_120_truck_10_n03796401_4370.png,n03796401_4370.png,0.0,-6.179968,-0.64533776,-3.9135747
alexnet_w3_mlp_simclrhn_probe0,1,92,NaN,airplane,airplane,60,0092_ps_dnn_60_airplane_10_n02690373_6314.png,n02690373_6314.png,1.0,3.7484877,-0.75574124,3.1849709
alexnet_w3_mlp_simclrhn_probe0,1,93,NaN,oven,oven,90,0093_ps_dnn_90_oven_10_n04111531_4879.png,n04111531_4879.png,1.0,0.120245755,-1.3371106,1.0305066
alexnet_w3_mlp_simclrhn_probe0,1,94,NaN,elephant,airplane,180,0094_ps_dnn_180_airplane_10_n02690373_4375.png,n02690373_4375.png,0.0,-3.9379318,-0.29326457,-2.577169
alexnet_w3_mlp_simclrhn_probe0,1,95,NaN,bicycle,bottle,60,0095_ps_dnn_60_bottle_10_n04557648_4133.png,n04557648_4133.png,0.0,-4.750751,-3.4691482,-0.9062301
alexnet_w3_mlp_simclrhn_probe0,1,96,NaN,elephant,bicycle,120,0096_ps_dnn_120_bicycle_10_n02835271_19213.png,n02835271_19213.png,0.0,-0.9308152,-0.5239122,-0.2877239
alexnet_w3_mlp_simclrhn_probe0,1,97,NaN,bear,bear,150,0097_ps_dnn_150_bear_10_n02132136_10577.png,n02132136_10577.png,1.0,0.5438661,-1.1599989,1.2048146
alexnet_w3_mlp_simclrhn_probe0,1,98,NaN,airplane,airplane,90,0098_ps_dnn_90_airplane_10_n02690373_3147.png,n02690373_3147.png,1.0,0.4063382,-0.2750644,0.48182443
alexnet_w3_mlp_simclrhn_probe0,1,99,NaN,elephant,elephant,60,0099_ps_dnn_60_elephant_10_n02504013_10389.png,n02504013_10389.png,1.0,3.524364,0.59813786,2.0691543
alexnet_w3_mlp_simclrhn_probe0,1,100,NaN,oven,chair,150,0100_ps_dnn_150_chair_10_n02791124_5685.png,n02791124_5685.png,0.0,-3.7512238,-0.85132825,-2.050536
alexnet_w3_mlp_simclrhn_probe0,1,101,NaN,oven,bird,60,0101_ps_dnn_60_bird_10_n01817953_6333.png,n01817953_6333.png,0.0,-5.997642,-2.8246655,-2.2436333
alexnet_w3_mlp_simclrhn_probe0,1,102,NaN,knife,keyboard,90,0102_ps_dnn_90_keyboard_10_n03085013_20247.png,n03085013_20247.png,0.0,-2.5323217,-1.7776108,-0.5336612
alexnet_w3_mlp_simclrhn_probe0,1,103,NaN,airplane,airplane,0,0103_ps_dnn_0_airplane_10_n02690373_5729.png,n02690373_5729.png,1.0,6.2090774,-2.9838345,6.5003705
alexnet_w3_mlp_simclrhn_probe0,1,104,NaN,bicycle,bicycle,90,0104_ps_dnn_90_bicycle_10_n03792782_55532.png,n03792782_55532.png,1.0,2.7658167,-2.9655402,4.052681
alexnet_w3_mlp_simclrhn_probe0,1,105,NaN,bicycle,bicycle,0,0105_ps_dnn_0_bicycle_10_n02835271_8417.png,n02835271_8417.png,1.0,5.8512974,-3.5742114,6.664841
alexnet_w3_mlp_simclrhn_probe0,1,106,NaN,oven,clock,60,0106_ps_dnn_60_clock_10_n03196217_599.png,n03196217_599.png,0.0,-3.328479,-0.3087357,-2.135281
alexnet_w3_mlp_simclrhn_probe0,1,107,NaN,airplane,airplane,0,0107_ps_dnn_0_airplane_10_n02690373_1952.png,n02690373_1952.png,1.0,1.982878,-2.640427,3.2691705
alexnet_w3_mlp_simclrhn_probe0,1,108,NaN,bear,bear,180,0108_ps_dnn_180_bear_10_n02134084_23061.png,n02134084_23061.png,1.0,-0.14327228,-1.2420585,0.77695924
alexnet_w3_mlp_simclrhn_probe0,1,109,NaN,bear,bicycle,150,0109_ps_dnn_150_bicycle_10_n03792782_27445.png,n03792782_27445.png,0.0,-2.5034182,-0.35324365,-1.520403
alexnet_w3_mlp_simclrhn_probe0,1,110,NaN,bottle,clock,30,0110_ps_dnn_30_clock_10_n03196217_6348.png,n03196217_6348.png,0.0,-5.9251475,-3.304747,-1.8529029
alexnet_w3_mlp_simclrhn_probe0,1,111,NaN,elephant,bear,90,0111_ps_dnn_90_bear_10_n02132136_5778.png,n02132136_5778.png,0.0,0.2846273,0.72535163,-0.3116392
alexnet_w3_mlp_simclrhn_probe0,1,112,NaN,knife,boat,90,0112_ps_dnn_90_boat_10_n04273569_4772.png,n04273569_4772.png,0.0,-1.3640182,-1.3627595,-0.0008900572
alexnet_w3_mlp_simclrhn_probe0,1,113,NaN,oven,oven,180,0113_ps_dnn_180_oven_10_n04111531_23830.png,n04111531_23830.png,1.0,-0.7699028,-2.2401288,1.0396067
alexnet_w3_mlp_simclrhn_probe0,1,114,NaN,bear,bird,150,0114_ps_dnn_150_bird_10_n01855032_1306.png,n01855032_1306.png,0.0,-1.9258144,0.40858626,-1.6506705
alexnet_w3_mlp_simclrhn_probe0,1,115,NaN,elephant,elephant,60,0115_ps_dnn_60_elephant_10_n02504013_8905.png,n02504013_8905.png,1.0,2.7350101,0.1170791,1.8511568
alexnet_w3_mlp_simclrhn_probe0,1,116,NaN,oven,truck,60,0116_ps_dnn_60_truck_10_n04467665_30461.png,n04467665_30461.png,0.0,-3.5145469,-1.6270467,-1.3346642
alexnet_w3_mlp_simclrhn_probe0,1,117,NaN,bear,knife,60,0117_ps_dnn_60_knife_10_n03041632_20662.png,n03041632_20662.png,0.0,-3.5158608,-3.2007618,-0.22280864
alexnet_w3_mlp_simclrhn_probe0,1,118,NaN,bear,boat,180,0118_ps_dnn_180_boat_10_n03662601_15915.png,n03662601_15915.png,0.0,-3.851043,-1.3110505,-1.7960458
alexnet_w3_mlp_simclrhn_probe0,1,119,NaN,bear,boat,150,0119_ps_dnn_150_boat_10_n04273569_62.png,n04273569_62.png,0.0,-2.11465,-0.113064855,-1.4153346
alexnet_w3_mlp_simclrhn_probe0,1,120,NaN,bear,bicycle,180,0120_ps_dnn_180_bicycle_10_n03792782_8080.png,n03792782_8080.png,0.0,-2.617815,-0.5304933,-1.4759594
alexnet_w3_mlp_simclrhn_probe0,1,121,NaN,elephant,airplane,120,0121_ps_dnn_120_airplane_10_n02690373_10309.png,n02690373_10309.png,0.0,-5.9507275,-1.0310413,-3.4787436
alexnet_w3_mlp_simclrhn_probe0,1,122,NaN,dog,dog,30,0122_ps_dnn_30_dog_10_n02093859_1001.png,n02093859_1001.png,1.0,-2.663327,-3.0029633,0.24015915
alexnet_w3_mlp_simclrhn_probe0,1,123,NaN,oven,oven,0,0123_ps_dnn_0_oven_10_n04111531_15267.png,n04111531_15267.png,1.0,2.2669387,-5.0997934,5.2090664
alexnet_w3_mlp_simclrhn_probe0,1,124,NaN,bear,cat,90,0124_ps_dnn_90_cat_10_n02124075_81.png,n02124075_81.png,0.0,-2.3163407,-0.15249133,-1.5300726
alexnet_w3_mlp_simclrhn_probe0,1,125,NaN,elephant,elephant,60,0125_ps_dnn_60_elephant_10_n02504013_7314.png,n02504013_7314.png,1.0,-0.7474631,-1.1869743,0.31078133
alexnet_w3_mlp_simclrhn_probe0,1,126,NaN,oven,bottle,120,0126_ps_dnn_120_bottle_10_n03983396_3294.png,n03983396_3294.png,0.0,-2.1706605,-0.37129533,-1.2723433
alexnet_w3_mlp_simclrhn_probe0,1,127,NaN,cat,cat,60,0127_ps_dnn_60_cat_10_n02123159_3201.png,n02123159_3201.png,1.0,3.383561,-3.3047652,4.7293606
alexnet_w3_mlp_simclrhn_probe0,1,128,NaN,bear,dog,90,0128_ps_dnn_90_dog_10_n02101388_11601.png,n02101388_11601.png,0.0,-1.550418,-0.35655668,-0.8441875
alexnet_w3_mlp_simclrhn_probe0,1,129,NaN,cat,cat,30,0129_ps_dnn_30_cat_10_n02123597_4442.png,n02123597_4442.png,1.0,-1.1405114,-1.8273596,0.485675
alexnet_w3_mlp_simclrhn_probe0,1,130,NaN,airplane,airplane,30,0130_ps_dnn_30_airplane_10_n02690373_1950.png,n02690373_1950.png,1.0,3.9001875,0.019540405,2.744032
alexnet_w3_mlp_simclrhn_probe0,1,131,NaN,bear,bird,120,0131_ps_dnn_120_bird_10_n01616318_4652.png,n01616318_4652.png,0.0,-4.0929093,1.2640425,-3.787937
alexnet_w3_mlp_simclrhn_probe0,1,132,NaN,airplane,airplane,90,0132_ps_dnn_90_airplane_10_n02690373_17937.png,n02690373_17937.png,1.0,1.9926848,-0.52903944,1.7831284
alexnet_w3_mlp_simclrhn_probe0,1,133,NaN,clock,clock,30,0133_ps_dnn_30_clock_10_n02708093_1125.png,n02708093_1125.png,1.0,1.2711319,-2.4797604,2.6522813
alexnet_w3_mlp_simclrhn_probe0,1,134,NaN,bear,elephant,150,0134_ps_dnn_150_elephant_10_n02504458_6499.png,n02504458_6499.png,0.0,-0.38952294,0.8175175,-0.8535065
alexnet_w3_mlp_simclrhn_probe0,1,135,NaN,bicycle,clock,30,0135_ps_dnn_30_clock_10_n02708093_51.png,n02708093_51.png,0.0,-6.0101357,-3.992911,-1.4263932
alexnet_w3_mlp_simclrhn_probe0,1,136,NaN,oven,bicycle,90,0136_ps_dnn_90_bicycle_10_n02835271_13180.png,n02835271_13180.png,0.0,-2.2435637,0.5120288,-1.948498
alexnet_w3_mlp_simclrhn_probe0,1,137,NaN,elephant,cat,120,0137_ps_dnn_120_cat_10_n02123597_7297.png,n02123597_7297.png,0.0,-0.579516,-0.3511741,-0.16146211
alexnet_w3_mlp_simclrhn_probe0,1,138,NaN,oven,clock,30,0138_ps_dnn_30_clock_10_n04548280_1109.png,n04548280_1109.png,0.0,-8.717719,-4.562812,-2.937963
alexnet_w3_mlp_simclrhn_probe0,1,139,NaN,clock,clock,60,0139_ps_dnn_60_clock_10_n04548280_1304.png,n04548280_1304.png,1.0,-1.5072323,-5.6321235,2.9167387
alexnet_w3_mlp_simclrhn_probe0,1,140,NaN,bear,bird,180,0140_ps_dnn_180_bird_10_n01833805_8179.png,n01833805_8179.png,0.0,-2.2588325,0.05730556,-1.637757
alexnet_w3_mlp_simclrhn_probe0,1,141,NaN,bottle,bottle,60,0141_ps_dnn_60_bottle_10_n03983396_24525.png,n03983396_24525.png,1.0,-1.2715942,-4.6945453,2.420392
alexnet_w3_mlp_simclrhn_probe0,1,142,NaN,bear,elephant,120,0142_ps_dnn_120_elephant_10_n02504013_5945.png,n02504013_5945.png,0.0,-0.6386925,-0.34240878,-0.20950423
alexnet_w3_mlp_simclrhn_probe0,1,143,NaN,oven,airplane,120,0143_ps_dnn_120_airplane_10_n02690373_13610.png,n02690373_13610.png,0.0,-2.8826308,0.84192264,-2.6336572
alexnet_w3_mlp_simclrhn_probe0,1,144,NaN,elephant,knife,90,0144_ps_dnn_90_knife_10_n03041632_21859.png,n03041632_21859.png,0.0,-2.1719513,0.39309716,-1.8137631
alexnet_w3_mlp_simclrhn_probe0,1,145,NaN,cat,cat,60,0145_ps_dnn_60_cat_10_n02123045_568.png,n02123045_568.png,1.0,0.08309668,-1.2270495,0.9264132
alexnet_w3_mlp_simclrhn_probe0,1,146,NaN,bird,clock,180,0146_ps_dnn_180_clock_10_n02708093_960.png,n02708093_960.png,0.0,-2.978103,-2.034692,-0.66709226
alexnet_w3_mlp_simclrhn_probe0,1,147,NaN,bear,bicycle,120,0147_ps_dnn_120_bicycle_10_n02835271_9669.png,n02835271_9669.png,0.0,-0.8571815,-0.7056479,-0.10715044
alexnet_w3_mlp_simclrhn_probe0,1,148,NaN,cat,cat,60,0148_ps_dnn_60_cat_10_n02123597_14647.png,n02123597_14647.png,1.0,-0.7215677,-1.2510929,0.3744309
alexnet_w3_mlp_simclrhn_probe0,1,149,NaN,bicycle,bicycle,0,0149_ps_dnn_0_bicycle_10_n02835271_7794.png,n02835271_7794.png,1.0,3.562171,-5.376265,6.3204293
alexnet_w3_mlp_simclrhn_probe0,1,150,NaN,bird,bird,0,0150_ps_dnn_0_bird_10_n02011460_5925.png,n02011460_5925.png,1.0,-1.4157822,-3.692507,1.6098876
alexnet_w3_mlp_simclrhn_probe0,1,151,NaN,bear,oven,90,0151_ps_dnn_90_oven_10_n04111531_8852.png,n04111531_8852.png,0.0,-1.6108243,-0.92245924,-0.48674765
alexnet_w3_mlp_simclrhn_probe0,1,152,NaN,bear,knife,90,0152_ps_dnn_90_knife_10_n03041632_84086.png,n03041632_84086.png,0.0,-6.3252645,-1.252175,-3.5872161
alexnet_w3_mlp_simclrhn_probe0,1,153,NaN,car,car,60,0153_ps_dnn_60_car_10_n03100240_13602.png,n03100240_13602.png,1.0,3.9473314,-0.9396179,3.4555953
alexnet_w3_mlp_simclrhn_probe0,1,154,NaN,bear,dog,180,0154_ps_dnn_180_dog_10_n02106662_43958.png,n02106662_43958.png,0.0,-2.4601612,-0.2707285,-1.5481627
alexnet_w3_mlp_simclrhn_probe0,1,155,NaN,knife,chair,30,0155_ps_dnn_30_chair_10_n02791124_1292.png,n02791124_1292.png,0.0,-5.8272247,-3.737577,-1.4776042
alexnet_w3_mlp_simclrhn_probe0,1,156,NaN,bear,dog,90,0156_ps_dnn_90_dog_10_n02085782_4522.png,n02085782_4522.png,0.0,-2.3516402,1.3701122,-2.6316764
alexnet_w3_mlp_simclrhn_probe0,1,157,NaN,bear,bear,60,0157_ps_dnn_60_bear_10_n02132136_686.png,n02132136_686.png,1.0,1.7267104,-0.35942107,1.4751178
alexnet_w3_mlp_simclrhn_probe0,1,158,NaN,bear,bird,120,0158_ps_dnn_120_bird_10_n01796340_12914.png,n01796340_12914.png,0.0,-2.3293507,-0.15487564,-1.5375862
alexnet_w3_mlp_simclrhn_probe0,1,159,NaN,elephant,knife,60,0159_ps_dnn_60_knife_10_n03041632_24060.png,n03041632_24060.png,0.0,-2.139884,-0.010730594,-1.505539
alexnet_w3_mlp_simclrhn_probe0,1,160,NaN,bear,bottle,180,0160_ps_dnn_180_bottle_10_n03983396_4775.png,n03983396_4775.png,0.0,-2.3640125,-0.17484061,-1.5479783
alexnet_w3_mlp_simclrhn_probe0,1,161,NaN,bear,keyboard,120,0161_ps_dnn_120_keyboard_10_n04505470_1516.png,n04505470_1516.png,0.0,-3.1369512,-0.20440468,-2.0736237
alexnet_w3_mlp_simclrhn_probe0,1,162,NaN,knife,boat,150,0162_ps_dnn_150_boat_10_n03344393_4944.png,n03344393_4944.png,0.0,-1.8496542,-0.7466366,-0.7799512
alexnet_w3_mlp_simclrhn_probe0,1,163,NaN,oven,cat,150,0163_ps_dnn_150_cat_10_n02123159_3524.png,n02123159_3524.png,0.0,-2.5969632,-0.74387574,-1.3103307
alexnet_w3_mlp_simclrhn_probe0,1,164,NaN,boat,truck,60,0164_ps_dnn_60_truck_10_n04467665_50648.png,n04467665_50648.png,0.0,-3.104011,-0.108287476,-2.1182964
alexnet_w3_mlp_simclrhn_probe0,1,165,NaN,dog,dog,0,0165_ps_dnn_0_dog_10_n02107574_1277.png,n02107574_1277.png,1.0,-4.7851853,-5.291247,0.35783955
alexnet_w3_mlp_simclrhn_probe0,1,166,NaN,oven,oven,60,0166_ps_dnn_60_oven_10_n04111531_21980.png,n04111531_21980.png,1.0,2.5227041,-3.4344025,4.2123103
alexnet_w3_mlp_simclrhn_probe0,1,167,NaN,oven,boat,120,0167_ps_dnn_120_boat_10_n03344393_11315.png,n03344393_11315.png,0.0,-2.6113338,-0.8361467,-1.2552469
alexnet_w3_mlp_simclrhn_probe0,1,168,NaN,oven,knife,90,0168_ps_dnn_90_knife_10_n03041632_32896.png,n03041632_32896.png,0.0,-1.7789701,0.34082848,-1.498924
alexnet_w3_mlp_simclrhn_probe0,1,169,NaN,bottle,bottle,30,0169_ps_dnn_30_bottle_10_n03937543_3133.png,n03937543_3133.png,1.0,-1.3997875,-1.9609686,0.39681494
alexnet_w3_mlp_simclrhn_probe0,1,170,NaN,elephant,car,180,0170_ps_dnn_180_car_10_n04285008_15213.png,n04285008_15213.png,0.0,-7.5391593,-0.56384355,-4.932293
alexnet_w3_mlp_simclrhn_probe0,1,171,NaN,elephant,elephant,90,0171_ps_dnn_90_elephant_10_n02504013_3081.png,n02504013_3081.png,1.0,1.0108304,-0.106558084,0.790113
alexnet_w3_mlp_simclrhn_probe0,1,172,NaN,cat,cat,60,0172_ps_dnn_60_cat_10_n02123159_6873.png,n02123159_6873.png,1.0,-0.6846803,-3.6421087,2.0912178
alexnet_w3_mlp_simclrhn_probe0,1,173,NaN,bottle,bottle,60,0173_ps_dnn_60_bottle_10_n04579145_4385.png,n04579145_4385.png,1.0,1.5131104,-5.54225,4.9888935
alexnet_w3_mlp_simclrhn_probe0,1,174,NaN,bear,bear,60,0174_ps_dnn_60_bear_10_n02134418_2185.png,n02134418_2185.png,1.0,1.0935385,-1.896871,2.1145387
alexnet_w3_mlp_simclrhn_probe0,1,175,NaN,bear,chair,150,0175_ps_dnn_150_chair_10_n04429376_16002.png,n04429376_16002.png,0.0,-5.06619,-0.76142466,-3.0439286
alexnet_w3_mlp_simclrhn_probe0,1,176,NaN,oven,car,60,0176_ps_dnn_60_car_10_n03100240_8107.png,n03100240_8107.png,0.0,-4.1637273,-2.2393126,-1.3607666
alexnet_w3_mlp_simclrhn_probe0,1,177,NaN,boat,boat,60,0177_ps_dnn_60_boat_10_n04273569_15906.png,n04273569_15906.png,1.0,0.2784819,-1.6603367,1.3709519
alexnet_w3_mlp_simclrhn_probe0,1,178,NaN,elephant,car,150,0178_ps_dnn_150_car_10_n02814533_85659.png,n02814533_85659.png,0.0,-5.3619475,-0.40509725,-3.5050223
alexnet_w3_mlp_simclrhn_probe0,1,179,NaN,oven,car,150,0179_ps_dnn_150_car_10_n02814533_87140.png,n02814533_87140.png,0.0,-9.23046,-0.23553829,-6.36037
alexnet_w3_mlp_simclrhn_probe0,1,180,NaN,keyboard,keyboard,30,0180_ps_dnn_30_keyboard_10_n03085013_7520.png,n03085013_7520.png,1.0,3.8211594,-0.47457656,3.037544
alexnet_w3_mlp_simclrhn_probe0,1,181,NaN,bear,dog,90,0181_ps_dnn_90_dog_10_n02112018_10082.png,n02112018_10082.png,0.0,-1.782242,0.85238564,-1.8629631
alexnet_w3_mlp_simclrhn_probe0,1,182,NaN,bear,bear,90,0182_ps_dnn_90_bear_10_n02134084_5733.png,n02134084_5733.png,1.0,0.51946896,-0.05979845,0.4096039
alexnet_w3_mlp_simclrhn_probe0,1,183,NaN,bear,cat,90,0183_ps_dnn_90_cat_10_n02123597_3821.png,n02123597_3821.png,0.0,-1.7403525,-0.34927514,-0.98364025
alexnet_w3_mlp_simclrhn_probe0,1,184,NaN,elephant,boat,120,0184_ps_dnn_120_boat_10_n04612504_15256.png,n04612504_15256.png,0.0,-3.6787522,-0.5003478,-2.2474713
alexnet_w3_mlp_simclrhn_probe0,1,185,NaN,elephant,car,90,0185_ps_dnn_90_car_10_n02814533_84296.png,n02814533_84296.png,0.0,-6.712998,-1.1625335,-3.9247713
alexnet_w3_mlp_simclrhn_probe0,1,186,NaN,bear,clock,120,0186_ps_dnn_120_clock_10_n04548280_5295.png,n04548280_5295.png,0.0,-3.6734257,-0.9562701,-1.9213191
alexnet_w3_mlp_simclrhn_probe0,1,187,NaN,airplane,airplane,30,0187_ps_dnn_30_airplane_10_n02690373_11799.png,n02690373_11799.png,1.0,5.0610814,-3.7810693,6.2523446
alexnet_w3_mlp_simclrhn_probe0,1,188,NaN,elephant,dog,120,0188_ps_dnn_120_dog_10_n02092002_9876.png,n02092002_9876.png,0.0,-3.0398362,0.43931323,-2.4601302
alexnet_w3_mlp_simclrhn_probe0,1,189,NaN,chair,chair,0,0189_ps_dnn_0_chair_10_n02791124_16885.png,n02791124_16885.png,1.0,-2.0404942,-3.347348,0.9240852
alexnet_w3_mlp_simclrhn_probe0,1,190,NaN,bicycle,airplane,60,0190_ps_dnn_60_airplane_10_n02690373_9376.png,n02690373_9376.png,0.0,-2.5949347,-1.3716967,-0.8649599
alexnet_w3_mlp_simclrhn_probe0,1,191,NaN,bear,oven,180,0191_ps_dnn_180_oven_10_n04111531_6474.png,n04111531_6474.png,0.0,-1.8719184,-0.5871608,-0.90846086
alexnet_w3_mlp_simclrhn_probe0,1,192,NaN,bear,knife,180,0192_ps_dnn_180_knife_10_n03041632_44230.png,n03041632_44230.png,0.0,-1.8091205,-0.5643692,-0.88017213
alexnet_w3_mlp_simclrhn_probe0,1,193,NaN,bear,dog,180,0193_ps_dnn_180_dog_10_n02099601_6318.png,n02099601_6318.png,0.0,-1.7339721,0.22079766,-1.382231
alexnet_w3_mlp_simclrhn_probe0,1,194,NaN,bear,cat,150,0194_ps_dnn_150_cat_10_n02125311_20241.png,n02125311_20241.png,0.0,-1.0767213,0.18728505,-0.8937875
alexnet_w3_mlp_simclrhn_probe0,1,195,NaN,oven,truck,120,0195_ps_dnn_120_truck_10_n04467665_51397.png,n04467665_51397.png,0.0,-6.322382,-0.6882423,-3.9839385
alexnet_w3_mlp_simclrhn_probe0,1,196,NaN,dog,dog,0,0196_ps_dnn_0_dog_10_n02104365_1500.png,n02104365_1500.png,1.0,-0.9671084,-1.749598,0.5533037
alexnet_w3_mlp_simclrhn_probe0,1,197,NaN,knife,knife,90,0197_ps_dnn_90_knife_10_n03041632_3171.png,n03041632_3171.png,1.0,0.39519027,-1.7026634,1.4834065
alexnet_w3_mlp_simclrhn_probe0,1,198,NaN,oven,oven,60,0198_ps_dnn_60_oven_10_n04111531_249.png,n04111531_249.png,1.0,3.407557,-2.0655386,3.8700633
alexnet_w3_mlp_simclrhn_probe0,1,199,NaN,bear,bear,90,0199_ps_dnn_90_bear_10_n02133161_8856.png,n02133161_8856.png,1.0,-0.49615493,-0.93468547,0.31008792
alexnet_w3_mlp_simclrhn_probe0,1,200,NaN,cat,cat,0,0200_ps_dnn_0_cat_10_n02123045_13354.png,n02123045_13354.png,1.0,6.230135,-7.573331,9.760525
alexnet_w3_mlp_simclrhn_probe0,1,201,NaN,keyboard,keyboard,120,0201_ps_dnn_120_keyboard_10_n03085013_23267.png,n03085013_23267.png,1.0,0.1658214,-0.38393825,0.38873878
alexnet_w3_mlp_simclrhn_probe0,1,202,NaN,oven,truck,30,0202_ps_dnn_30_truck_10_n03796401_22643.png,n03796401_22643.png,0.0,0.59686124,0.6882191,-0.06459974
alexnet_w3_mlp_simclrhn_probe0,1,203,NaN,bear,elephant,180,0203_ps_dnn_180_elephant_10_n02504458_4572.png,n02504458_4572.png,0.0,-0.13828489,0.0953562,-0.1652092
alexnet_w3_mlp_simclrhn_probe0,1,204,NaN,bear,truck,180,0204_ps_dnn_180_truck_10_n04467665_23173.png,n04467665_23173.png,0.0,-6.355749,-0.13687238,-4.39741
alexnet_w3_mlp_simclrhn_probe0,1,205,NaN,bear,bear,180,0205_ps_dnn_180_bear_10_n02134418_25040.png,n02134418_25040.png,1.0,0.17603162,-0.9625345,0.80508786
alexnet_w3_mlp_simclrhn_probe0,1,206,NaN,bicycle,bicycle,60,0206_ps_dnn_60_bicycle_10_n02835271_21185.png,n02835271_21185.png,1.0,1.967109,-3.6842847,3.996139
alexnet_w3_mlp_simclrhn_probe0,1,207,NaN,knife,boat,30,0207_ps_dnn_30_boat_10_n02951358_12664.png,n02951358_12664.png,0.0,-4.469281,-2.6911573,-1.2573235
alexnet_w3_mlp_simclrhn_probe0,1,208,NaN,bottle,bottle,30,0208_ps_dnn_30_bottle_10_n03983396_11519.png,n03983396_11519.png,1.0,1.1002314,-2.0613859,2.235601
alexnet_w3_mlp_simclrhn_probe0,1,209,NaN,cat,knife,120,0209_ps_dnn_120_knife_10_n03041632_36280.png,n03041632_36280.png,0.0,-1.311151,-1.1237478,-0.13251407
alexnet_w3_mlp_simclrhn_probe0,1,210,NaN,elephant,truck,60,0210_ps_dnn_60_truck_10_n04467665_67115.png,n04467665_67115.png,0.0,-4.1599774,0.50715184,-3.300159
alexnet_w3_mlp_simclrhn_probe0,1,211,NaN,bear,bear,30,0211_ps_dnn_30_bear_10_n02133161_1560.png,n02133161_1560.png,1.0,-1.1341343,-2.0940895,0.67879087
alexnet_w3_mlp_simclrhn_probe0,1,212,NaN,knife,truck,180,0212_ps_dnn_180_truck_10_n03417042_6780.png,n03417042_6780.png,0.0,-6.0084186,-0.8499046,-3.6476202
alexnet_w3_mlp_simclrhn_probe0,1,213,NaN,bear,bear,150,0213_ps_dnn_150_bear_10_n02134084_20261.png,n02134084_20261.png,1.0,0.4857137,-0.21352956,0.49443966
alexnet_w3_mlp_simclrhn_probe0,1,214,NaN,knife,chair,180,0214_ps_dnn_180_chair_10_n03376595_8377.png,n03376595_8377.png,0.0,-5.5709085,-2.071994,-2.4741063
alexnet_w3_mlp_simclrhn_probe0,1,215,NaN,elephant,bird,180,0215_ps_dnn_180_bird_10_n01824575_3556.png,n01824575_3556.png,0.0,-1.9298762,0.17274208,-1.4867756
alexnet_w3_mlp_simclrhn_probe0,1,216,NaN,bicycle,chair,90,0216_ps_dnn_90_chair_10_n04099969_36004.png,n04099969_36004.png,0.0,-3.6417663,-2.4086313,-0.87195814
alexnet_w3_mlp_simclrhn_probe0,1,217,NaN,bicycle,bicycle,0,0217_ps_dnn_0_bicycle_10_n02835271_22549.png,n02835271_22549.png,1.0,7.759391,-4.1709733,8.436042
alexnet_w3_mlp_simclrhn_probe0,1,218,NaN,knife,clock,150,0218_ps_dnn_150_clock_10_n04548280_8535.png,n04548280_8535.png,0.0,-1.1486069,-0.76337796,-0.272398
alexnet_w3_mlp_simclrhn_probe0,1,219,NaN,bear,knife,120,0219_ps_dnn_120_knife_10_n03041632_14546.png,n03041632_14546.png,0.0,-3.8169107,-0.98906237,-1.9995909
alexnet_w3_mlp_simclrhn_probe0,1,220,NaN,keyboard,keyboard,0,0220_ps_dnn_0_keyboard_10_n04505470_4974.png,n04505470_4974.png,1.0,12.417812,0.99648833,8.076096
alexnet_w3_mlp_simclrhn_probe0,1,221,NaN,clock,clock,0,0221_ps_dnn_0_clock_10_n04548280_487.png,n04548280_487.png,1.0,4.4223456,-1.0169072,3.8461328
alexnet_w3_mlp_simclrhn_probe0,1,222,NaN,truck,truck,30,0222_ps_dnn_30_truck_10_n03417042_10401.png,n03417042_10401.png,1.0,4.104872,-0.132601,2.996346
alexnet_w3_mlp_simclrhn_probe0,1,223,NaN,oven,clock,180,0223_ps_dnn_180_clock_10_n03196217_6257.png,n03196217_6257.png,0.0,-4.149497,-0.33946472,-2.6940997
alexnet_w3_mlp_simclrhn_probe0,1,224,NaN,elephant,elephant,120,0224_ps_dnn_120_elephant_10_n02504458_1698.png,n02504458_1698.png,1.0,0.7795652,0.67650044,0.0728778
alexnet_w3_mlp_simclrhn_probe0,1,225,NaN,cat,keyboard,180,0225_ps_dnn_180_keyboard_10_n03085013_23014.png,n03085013_23014.png,0.0,-5.109661,-0.6408038,-3.1599593
alexnet_w3_mlp_simclrhn_probe0,1,226,NaN,elephant,cat,60,0226_ps_dnn_60_cat_10_n02125311_17002.png,n02125311_17002.png,0.0,-0.90518695,0.33809972,-0.8791364
alexnet_w3_mlp_simclrhn_probe0,1,227,NaN,bear,boat,180,0227_ps_dnn_180_boat_10_n03344393_5566.png,n03344393_5566.png,0.0,-1.3579476,0.3412779,-1.2015338
alexnet_w3_mlp_simclrhn_probe0,1,228,NaN,bear,bicycle,150,0228_ps_dnn_150_bicycle_10_n02835271_4887.png,n02835271_4887.png,0.0,-4.5353956,-0.6161761,-2.7713068
alexnet_w3_mlp_simclrhn_probe0,1,229,NaN,oven,keyboard,120,0229_ps_dnn_120_keyboard_10_n04505470_8386.png,n04505470_8386.png,0.0,-5.673376,1.4910752,-5.066032
alexnet_w3_mlp_simclrhn_probe0,1,230,NaN,bear,bear,120,0230_ps_dnn_120_bear_10_n02133161_361.png,n02133161_361.png,1.0,0.88075674,0.17239933,0.50088435
alexnet_w3_mlp_simclrhn_probe0,1,231,NaN,cat,bottle,0,0231_ps_dnn_0_bottle_10_n04560804_2165.png,n04560804_2165.png,0.0,-5.5795846,-4.3275766,-0.8853033
alexnet_w3_mlp_simclrhn_probe0,1,232,NaN,bear,cat,150,0232_ps_dnn_150_cat_10_n02124075_14020.png,n02124075_14020.png,0.0,-1.3429757,0.28500977,-1.1511596
alexnet_w3_mlp_simclrhn_probe0,1,233,NaN,bear,clock,150,0233_ps_dnn_150_clock_10_n04548280_3301.png,n04548280_3301.png,0.0,-2.9525795,-1.3135952,-1.158937
alexnet_w3_mlp_simclrhn_probe0,1,234,NaN,bear,knife,180,0234_ps_dnn_180_knife_10_n03041632_5820.png,n03041632_5820.png,0.0,-4.926035,1.5380626,-4.5708075
alexnet_w3_mlp_simclrhn_probe0,1,235,NaN,oven,oven,120,0235_ps_dnn_120_oven_10_n04111531_2922.png,n04111531_2922.png,1.0,-0.2638383,-1.0384694,0.54774696
alexnet_w3_mlp_simclrhn_probe0,1,236,NaN,bear,bear,120,0236_ps_dnn_120_bear_10_n02134084_7441.png,n02134084_7441.png,1.0,0.32311252,-0.4175075,0.52369744
alexnet_w3_mlp_simclrhn_probe0,1,237,NaN,elephant,airplane,150,0237_ps_dnn_150_airplane_10_n02690373_8252.png,n02690373_8252.png,0.0,-3.7771306,-0.56786877,-2.269291
alexnet_w3_mlp_simclrhn_probe0,1,238,NaN,bear,bird,150,0238_ps_dnn_150_bird_10_n02018207_69.png,n02018207_69.png,0.0,-1.556187,-0.11369005,-1.0199994
alexnet_w3_mlp_simclrhn_probe0,1,239,NaN,bear,bird,30,0239_ps_dnn_30_bird_10_n01798484_5355.png,n01798484_5355.png,0.0,-2.1425507,-1.7453249,-0.2808811
alexnet_w3_mlp_simclrhn_probe0,1,240,NaN,keyboard,keyboard,150,0240_ps_dnn_150_keyboard_10_n03085013_4999.png,n03085013_4999.png,1.0,-1.0038431,-1.2366292,0.1646047
alexnet_w3_mlp_simclrhn_probe0,1,241,NaN,bear,dog,120,0241_ps_dnn_120_dog_10_n02111500_3041.png,n02111500_3041.png,0.0,-2.756951,-0.13162012,-1.8563893
alexnet_w3_mlp_simclrhn_probe0,1,242,NaN,boat,boat,0,0242_ps_dnn_0_boat_10_n04612504_15237.png,n04612504_15237.png,1.0,2.59842,-1.2665617,2.7329547
alexnet_w3_mlp_simclrhn_probe0,1,243,NaN,bear,truck,150,0243_ps_dnn_150_truck_10_n03417042_6480.png,n03417042_6480.png,0.0,-6.498825,-0.60732347,-4.1659207
alexnet_w3_mlp_simclrhn_probe0,1,244,NaN,bear,airplane,180,0244_ps_dnn_180_airplane_10_n02690373_8382.png,n02690373_8382.png,0.0,-5.212353,0.15492913,-3.7952418
alexnet_w3_mlp_simclrhn_probe0,1,245,NaN,oven,bottle,120,0245_ps_dnn_120_bottle_10_n04591713_2345.png,n04591713_2345.png,0.0,-3.8147194,0.49701715,-3.0488582
alexnet_w3_mlp_simclrhn_probe0,1,246,NaN,elephant,elephant,60,0246_ps_dnn_60_elephant_10_n02504458_9516.png,n02504458_9516.png,1.0,2.6495538,0.23452032,1.7076864
alexnet_w3_mlp_simclrhn_probe0,1,247,NaN,bear,elephant,180,0247_ps_dnn_180_elephant_10_n02504013_698.png,n02504013_698.png,0.0,-0.90001,-0.2759401,-0.4412841
alexnet_w3_mlp_simclrhn_probe0,1,248,NaN,bear,bear,0,0248_ps_dnn_0_bear_10_n02133161_5292.png,n02133161_5292.png,1.0,3.2251508,-1.4699835,3.3199613
alexnet_w3_mlp_simclrhn_probe0,1,249,NaN,bicycle,boat,90,0249_ps_dnn_90_boat_10_n02951358_14341.png,n02951358_14341.png,0.0,-2.910461,-1.8456872,-0.75290877
alexnet_w3_mlp_simclrhn_probe0,1,250,NaN,bear,bear,120,0250_ps_dnn_120_bear_10_n02133161_2304.png,n02133161_2304.png,1.0,-0.027181327,-0.18505266,0.11163189
alexnet_w3_mlp_simclrhn_probe0,1,251,NaN,bear,airplane,150,0251_ps_dnn_150_airplane_10_n02690373_1751.png,n02690373_1751.png,0.0,-7.507136,0.93209106,-5.967435
alexnet_w3_mlp_simclrhn_probe0,1,252,NaN,bear,truck,150,0252_ps_dnn_150_truck_10_n04467665_48953.png,n04467665_48953.png,0.0,-5.084315,-0.43521082,-3.2874131
alexnet_w3_mlp_simclrhn_probe0,1,253,NaN,oven,oven,0,0253_ps_dnn_0_oven_10_n04111531_10077.png,n04111531_10077.png,1.0,6.407724,-1.9959797,5.942316
alexnet_w3_mlp_simclrhn_probe0,1,254,NaN,bear,dog,150,0254_ps_dnn_150_dog_10_n02097209_821.png,n02097209_821.png,0.0,-2.154722,0.24564856,-1.6973183
alexnet_w3_mlp_simclrhn_probe0,1,255,NaN,elephant,truck,0,0255_ps_dnn_0_truck_10_n04467665_13231.png,n04467665_13231.png,0.0,-2.152287,-1.1585002,-0.70271343
alexnet_w3_mlp_simclrhn_probe0,1,256,NaN,bear,dog,90,0256_ps_dnn_90_dog_10_n02107908_3447.png,n02107908_3447.png,0.0,-1.8766915,-0.6738235,-0.85055614
alexnet_w3_mlp_simclrhn_probe0,1,257,NaN,bear,elephant,180,0257_ps_dnn_180_elephant_10_n02504013_5021.png,n02504013_5021.png,0.0,0.010927051,0.5110049,-0.35360843
alexnet_w3_mlp_simclrhn_probe0,1,258,NaN,oven,knife,90,0258_ps_dnn_90_knife_10_n03041632_12242.png,n03041632_12242.png,0.0,-2.053852,-1.1534002,-0.63671565
alexnet_w3_mlp_simclrhn_probe0,1,259,NaN,knife,keyboard,150,0259_ps_dnn_150_keyboard_10_n03085013_22821.png,n03085013_22821.png,0.0,-4.050686,-0.40133137,-2.5804834
alexnet_w3_mlp_simclrhn_probe0,1,260,NaN,bear,cat,150,0260_ps_dnn_150_cat_10_n02124075_2080.png,n02124075_2080.png,0.0,-2.2344935,-0.31106412,-1.36007
alexnet_w3_mlp_simclrhn_probe0,1,261,NaN,bear,bicycle,180,0261_ps_dnn_180_bicycle_10_n02835271_7296.png,n02835271_7296.png,0.0,-1.7642025,-0.15280259,-1.1394318
alexnet_w3_mlp_simclrhn_probe0,1,262,NaN,elephant,boat,180,0262_ps_dnn_180_boat_10_n04612504_4302.png,n04612504_4302.png,0.0,-2.3922527,-0.6501945,-1.2318212
alexnet_w3_mlp_simclrhn_probe0,1,263,NaN,bear,clock,150,0263_ps_dnn_150_clock_10_n04548280_4524.png,n04548280_4524.png,0.0,-5.556843,1.0554394,-4.6755896
alexnet_w3_mlp_simclrhn_probe0,1,264,NaN,bear,knife,150,0264_ps_dnn_150_knife_10_n03041632_19275.png,n03041632_19275.png,0.0,-2.1240451,-0.2400474,-1.3321875
alexnet_w3_mlp_simclrhn_probe0,1,265,NaN,bird,bird,30,0265_ps_dnn_30_bird_10_n01796340_2973.png,n01796340_2973.png,1.0,-0.48134115,-2.6095243,1.5048528
alexnet_w3_mlp_simclrhn_probe0,1,266,NaN,oven,chair,90,0266_ps_dnn_90_chair_10_n02791124_15407.png,n02791124_15407.png,0.0,-4.4972324,1.1503133,-3.993418
alexnet_w3_mlp_simclrhn_probe0,1,267,NaN,dog,dog,30,0267_ps_dnn_30_dog_10_n02109525_72594.png,n02109525_72594.png,1.0,-2.1785748,-4.0657787,1.3344548
alexnet_w3_mlp_simclrhn_probe0,1,268,NaN,bear,knife,150,0268_ps_dnn_150_knife_10_n03041632_19614.png,n03041632_19614.png,0.0,-2.234651,-0.89421374,-0.9478324
alexnet_w3_mlp_simclrhn_probe0,1,269,NaN,keyboard,keyboard,30,0269_ps_dnn_30_keyboard_10_n04505470_5111.png,n04505470_5111.png,1.0,9.36424,2.4059086,4.9202833
alexnet_w3_mlp_simclrhn_probe0,1,270,NaN,bicycle,bicycle,30,0270_ps_dnn_30_bicycle_10_n03792782_8374.png,n03792782_8374.png,1.0,3.4220996,-5.531641,6.331251
alexnet_w3_mlp_simclrhn_probe0,1,271,NaN,elephant,boat,120,0271_ps_dnn_120_boat_10_n04612504_2024.png,n04612504_2024.png,0.0,-4.213009,-0.6771518,-2.5002286
alexnet_w3_mlp_simclrhn_probe0,1,272,NaN,bicycle,bicycle,30,0272_ps_dnn_30_bicycle_10_n02835271_9860.png,n02835271_9860.png,1.0,1.8668981,-0.57362086,1.7257074
alexnet_w3_mlp_simclrhn_probe0,1,273,NaN,bear,bear,60,0273_ps_dnn_60_bear_10_n02134084_21921.png,n02134084_21921.png,1.0,1.9411535,1.5177922,0.29936165
alexnet_w3_mlp_simclrhn_probe0,1,274,NaN,bear,bear,90,0274_ps_dnn_90_bear_10_n02134418_836.png,n02134418_836.png,1.0,1.1919096,0.20621723,0.6969897
alexnet_w3_mlp_simclrhn_probe0,1,275,NaN,oven,chair,60,0275_ps_dnn_60_chair_10_n04429376_6141.png,n04429376_6141.png,0.0,-3.429897,-0.601471,-1.9999993
alexnet_w3_mlp_simclrhn_probe0,1,276,NaN,truck,truck,30,0276_ps_dnn_30_truck_10_n04467665_6523.png,n04467665_6523.png,1.0,-0.24922162,-0.6850164,0.30815345
alexnet_w3_mlp_simclrhn_probe0,1,277,NaN,chair,chair,90,0277_ps_dnn_90_chair_10_n04429376_41755.png,n04429376_41755.png,1.0,-2.892423,-2.9764025,0.05938255
alexnet_w3_mlp_simclrhn_probe0,1,278,NaN,knife,bottle,180,0278_ps_dnn_180_bottle_10_n04579145_3302.png,n04579145_3302.png,0.0,-2.09281,-0.35003787,-1.232326
alexnet_w3_mlp_simclrhn_probe0,1,279,NaN,cat,cat,0,0279_ps_dnn_0_cat_10_n02123045_12297.png,n02123045_12297.png,1.0,1.0247619,-6.717048,5.4742866
alexnet_w3_mlp_simclrhn_probe0,1,280,NaN,bottle,clock,60,0280_ps_dnn_60_clock_10_n04548280_5734.png,n04548280_5734.png,0.0,-4.5356336,-3.5325923,-0.7092573
alexnet_w3_mlp_simclrhn_probe0,1,281,NaN,oven,elephant,90,0281_ps_dnn_90_elephant_10_n02504013_3640.png,n02504013_3640.png,0.0,-2.0125847,0.21170081,-1.5728074
alexnet_w3_mlp_simclrhn_probe0,1,282,NaN,knife,car,0,0282_ps_dnn_0_car_10_n03100240_2108.png,n03100240_2108.png,0.0,-6.4584613,-2.8704052,-2.537139
alexnet_w3_mlp_simclrhn_probe0,1,283,NaN,elephant,car,90,0283_ps_dnn_90_car_10_n02814533_8499.png,n02814533_8499.png,0.0,-6.7814507,0.12126428,-4.8809566
alexnet_w3_mlp_simclrhn_probe0,1,284,NaN,bear,knife,180,0284_ps_dnn_180_knife_10_n03041632_9406.png,n03041632_9406.png,0.0,-5.506606,0.5631478,-4.291964
alexnet_w3_mlp_simclrhn_probe0,1,285,NaN,bottle,clock,120,0285_ps_dnn_120_clock_10_n04548280_3968.png,n04548280_3968.png,0.0,-2.0355465,-1.9322712,-0.073026665
alexnet_w3_mlp_simclrhn_probe0,1,286,NaN,bear,boat,120,0286_ps_dnn_120_boat_10_n04273569_20587.png,n04273569_20587.png,0.0,-1.9874398,-0.32257032,-1.1772405
alexnet_w3_mlp_simclrhn_probe0,1,287,NaN,bear,truck,150,0287_ps_dnn_150_truck_10_n03796401_7261.png,n03796401_7261.png,0.0,-5.360278,0.18078336,-3.918122
alexnet_w3_mlp_simclrhn_probe0,1,288,NaN,bear,boat,90,0288_ps_dnn_90_boat_10_n04273569_18037.png,n04273569_18037.png,0.0,-3.4526474,0.08496015,-2.5014665
alexnet_w3_mlp_simclrhn_probe0,1,289,NaN,bear,bicycle,180,0289_ps_dnn_180_bicycle_10_n02835271_4789.png,n02835271_4789.png,0.0,-1.705087,-0.82581675,-0.62173796
alexnet_w3_mlp_simclrhn_probe0,1,290,NaN,oven,chair,90,0290_ps_dnn_90_chair_10_n04099969_18380.png,n04099969_18380.png,0.0,-3.9502213,-0.73792994,-2.2714329
alexnet_w3_mlp_simclrhn_probe0,1,291,NaN,elephant,dog,120,0291_ps_dnn_120_dog_10_n02100583_13688.png,n02100583_13688.png,0.0,-4.777821,0.22331423,-3.536337
alexnet_w3_mlp_simclrhn_probe0,1,292,NaN,bear,boat,180,0292_ps_dnn_180_boat_10_n03662601_8065.png,n03662601_8065.png,0.0,-2.9035559,-0.6956531,-1.5612231
alexnet_w3_mlp_simclrhn_probe0,1,293,NaN,boat,boat,0,0293_ps_dnn_0_boat_10_n02951358_15218.png,n02951358_15218.png,1.0,2.7313848,-0.6007523,2.3561769
alexnet_w3_mlp_simclrhn_probe0,1,294,NaN,bear,knife,180,0294_ps_dnn_180_knife_10_n03041632_24277.png,n03041632_24277.png,0.0,-1.7554734,-0.3172524,-1.0169759
alexnet_w3_mlp_simclrhn_probe0,1,295,NaN,bear,bird,90,0295_ps_dnn_90_bird_10_n01601694_2723.png,n01601694_2723.png,0.0,-2.8891785,-0.8816419,-1.4195428
alexnet_w3_mlp_simclrhn_probe0,1,296,NaN,keyboard,keyboard,120,0296_ps_dnn_120_keyboard_10_n04505470_4724.png,n04505470_4724.png,1.0,-0.54740965,-1.6803594,0.8011164
alexnet_w3_mlp_simclrhn_probe0,1,297,NaN,elephant,bear,150,0297_ps_dnn_150_bear_10_n02134418_1642.png,n02134418_1642.png,0.0,-0.41504532,-0.15413314,-0.18449278
alexnet_w3_mlp_simclrhn_probe0,1,298,NaN,oven,truck,60,0298_ps_dnn_60_truck_10_n03417042_13055.png,n03417042_13055.png,0.0,-1.4670556,0.3795391,-1.3057396
alexnet_w3_mlp_simclrhn_probe0,1,299,NaN,knife,bear,120,0299_ps_dnn_120_bear_10_n02133161_1629.png,n02133161_1629.png,0.0,-1.4502413,-0.95972985,-0.346844
alexnet_w3_mlp_simclrhn_probe0,1,300,NaN,oven,bottle,180,0300_ps_dnn_180_bottle_10_n04579145_1856.png,n04579145_1856.png,0.0,-2.4502368,-0.62652457,-1.2895594
alexnet_w3_mlp_simclrhn_probe0,1,301,NaN,bear,chair,150,0301_ps_dnn_150_chair_10_n04099969_3768.png,n04099969_3768.png,0.0,-5.480652,-0.4846849,-3.5326822
alexnet_w3_mlp_simclrhn_probe0,1,302,NaN,bear,bird,120,0302_ps_dnn_120_bird_10_n02009229_5172.png,n02009229_5172.png,0.0,-2.913813,-1.1389363,-1.2550274
alexnet_w3_mlp_simclrhn_probe0,1,303,NaN,airplane,airplane,90,0303_ps_dnn_90_airplane_10_n02690373_21731.png,n02690373_21731.png,1.0,2.4273996,0.14667702,1.6127144
alexnet_w3_mlp_simclrhn_probe0,1,304,NaN,elephant,bear,30,0304_ps_dnn_30_bear_10_n02133161_959.png,n02133161_959.png,0.0,-0.7812908,-0.6021521,-0.12667021
alexnet_w3_mlp_simclrhn_probe0,1,305,NaN,chair,chair,0,0305_ps_dnn_0_chair_10_n04099969_1028.png,n04099969_1028.png,1.0,0.6346408,0.015893642,0.43752033
alexnet_w3_mlp_simclrhn_probe0,1,306,NaN,bear,knife,180,0306_ps_dnn_180_knife_10_n03041632_44212.png,n03041632_44212.png,0.0,-5.2846937,-0.011205167,-3.7289195
alexnet_w3_mlp_simclrhn_probe0,1,307,NaN,oven,oven,120,0307_ps_dnn_120_oven_10_n04111531_9344.png,n04111531_9344.png,1.0,-0.099280655,-0.51152706,0.29150224
alexnet_w3_mlp_simclrhn_probe0,1,308,NaN,bear,car,180,0308_ps_dnn_180_car_10_n04285008_9080.png,n04285008_9080.png,0.0,-10.062164,1.1355722,-7.917996
alexnet_w3_mlp_simclrhn_probe0,1,309,NaN,car,car,60,0309_ps_dnn_60_car_10_n03100240_17349.png,n03100240_17349.png,1.0,0.24075146,-2.310441,1.8039656
alexnet_w3_mlp_simclrhn_probe0,1,310,NaN,dog,dog,30,0310_ps_dnn_30_dog_10_n02110958_1335.png,n02110958_1335.png,1.0,-7.550103,-7.6700745,0.084832504
alexnet_w3_mlp_simclrhn_probe0,1,311,NaN,knife,elephant,150,0311_ps_dnn_150_elephant_10_n02504013_7305.png,n02504013_7305.png,0.0,-0.71069056,-0.21686858,-0.34918487
alexnet_w3_mlp_simclrhn_probe0,1,312,NaN,oven,dog,90,0312_ps_dnn_90_dog_10_n02091244_2626.png,n02091244_2626.png,0.0,-6.380895,-1.8786691,-3.1835544
alexnet_w3_mlp_simclrhn_probe0,1,313,NaN,bear,bird,150,0313_ps_dnn_150_bird_10_n01828970_22.png,n01828970_22.png,0.0,-1.1968515,-1.1522888,-0.031510588
alexnet_w3_mlp_simclrhn_probe0,1,314,NaN,cat,cat,60,0314_ps_dnn_60_cat_10_n02124075_13587.png,n02124075_13587.png,1.0,0.13113296,-1.2141775,0.95127815
alexnet_w3_mlp_simclrhn_probe0,1,315,NaN,bear,knife,120,0315_ps_dnn_120_knife_10_n03041632_13612.png,n03041632_13612.png,0.0,-3.9894748,-1.7565907,-1.5788873
alexnet_w3_mlp_simclrhn_probe0,1,316,NaN,elephant,bicycle,90,0316_ps_dnn_90_bicycle_10_n02835271_2581.png,n02835271_2581.png,0.0,-3.7182791,0.99695444,-3.334174
alexnet_w3_mlp_simclrhn_probe0,1,317,NaN,knife,clock,30,0317_ps_dnn_30_clock_10_n03196217_2536.png,n03196217_2536.png,0.0,-1.7738676,-1.3126408,-0.32613662
alexnet_w3_mlp_simclrhn_probe0,1,318,NaN,cat,cat,90,0318_ps_dnn_90_cat_10_n02124075_15001.png,n02124075_15001.png,1.0,-1.6308651,-2.412664,0.55281526
alexnet_w3_mlp_simclrhn_probe0,1,319,NaN,bear,bear,60,0319_ps_dnn_60_bear_10_n02133161_6152.png,n02133161_6152.png,1.0,-0.34114566,-0.4472745,0.07504442
alexnet_w3_mlp_simclrhn_probe0,1,320,NaN,oven,chair,30,0320_ps_dnn_30_chair_10_n04099969_8401.png,n04099969_8401.png,0.0,-1.8882914,0.6901093,-1.8232046
alexnet_w3_mlp_simclrhn_probe0,1,321,NaN,oven,oven,150,0321_ps_dnn_150_oven_10_n04111531_7923.png,n04111531_7923.png,1.0,-0.69439816,-1.5499694,0.60498023
alexnet_w3_mlp_simclrhn_probe0,1,322,NaN,cat,cat,120,0322_ps_dnn_120_cat_10_n02123159_5706.png,n02123159_5706.png,1.0,-1.1525702,-1.2809348,0.09076746
alexnet_w3_mlp_simclrhn_probe0,1,323,NaN,airplane,airplane,30,0323_ps_dnn_30_airplane_10_n02690373_13324.png,n02690373_13324.png,1.0,4.3442006,-1.6998574,4.273794
alexnet_w3_mlp_simclrhn_probe0,1,324,NaN,elephant,airplane,150,0324_ps_dnn_150_airplane_10_n02690373_4452.png,n02690373_4452.png,0.0,-5.4897985,0.20971459,-4.0301642
alexnet_w3_mlp_simclrhn_probe0,1,325,NaN,elephant,bird,90,0325_ps_dnn_90_bird_10_n02056570_10881.png,n02056570_10881.png,0.0,-4.925646,-1.0961488,-2.7078633
alexnet_w3_mlp_simclrhn_probe0,1,326,NaN,airplane,airplane,90,0326_ps_dnn_90_airplane_10_n02690373_19133.png,n02690373_19133.png,1.0,0.7934748,-1.403441,1.5534539
alexnet_w3_mlp_simclrhn_probe0,1,327,NaN,bottle,bottle,0,0327_ps_dnn_0_bottle_10_n03937543_4850.png,n03937543_4850.png,1.0,1.2522926,-0.3052681,1.1013618
alexnet_w3_mlp_simclrhn_probe0,1,328,NaN,oven,keyboard,150,0328_ps_dnn_150_keyboard_10_n04505470_2709.png,n04505470_2709.png,0.0,-5.9295115,-1.0768845,-3.4313254
alexnet_w3_mlp_simclrhn_probe0,1,329,NaN,oven,keyboard,90,0329_ps_dnn_90_keyboard_10_n03085013_1797.png,n03085013_1797.png,0.0,-5.5362825,0.20296496,-4.058261
alexnet_w3_mlp_simclrhn_probe0,1,330,NaN,oven,oven,30,0330_ps_dnn_30_oven_10_n04111531_3902.png,n04111531_3902.png,1.0,-0.72365904,-2.5628903,1.3005329
alexnet_w3_mlp_simclrhn_probe0,1,331,NaN,elephant,car,180,0331_ps_dnn_180_car_10_n03100240_6750.png,n03100240_6750.png,0.0,-4.86664,-0.03709802,-3.415002
alexnet_w3_mlp_simclrhn_probe0,1,332,NaN,bicycle,chair,0,0332_ps_dnn_0_chair_10_n03376595_16306.png,n03376595_16306.png,0.0,-1.2735798,0.96514404,-1.5830168
alexnet_w3_mlp_simclrhn_probe0,1,333,NaN,bicycle,boat,60,0333_ps_dnn_60_boat_10_n02951358_13017.png,n02951358_13017.png,0.0,-7.314924,-0.5057312,-4.8148265
alexnet_w3_mlp_simclrhn_probe0,1,334,NaN,oven,clock,90,0334_ps_dnn_90_clock_10_n03196217_5827.png,n03196217_5827.png,0.0,-3.3090446,0.13091533,-2.432419
alexnet_w3_mlp_simclrhn_probe0,1,335,NaN,bottle,bottle,0,0335_ps_dnn_0_bottle_10_n02823428_685.png,n02823428_685.png,1.0,-2.3392124,-2.9381545,0.42351598
alexnet_w3_mlp_simclrhn_probe0,1,336,NaN,bear,airplane,120,0336_ps_dnn_120_airplane_10_n02690373_2092.png,n02690373_2092.png,0.0,-5.837179,0.016610757,-4.1392546
alexnet_w3_mlp_simclrhn_probe0,1,337,NaN,cat,bottle,180,0337_ps_dnn_180_bottle_10_n04557648_3637.png,n04557648_3637.png,0.0,-5.3730087,-0.16408868,-3.6832628
alexnet_w3_mlp_simclrhn_probe0,1,338,NaN,bear,bird,90,0338_ps_dnn_90_bird_10_n01819313_5521.png,n01819313_5521.png,0.0,-3.9741573,-0.22536543,-2.6507962
alexnet_w3_mlp_simclrhn_probe0,1,339,NaN,elephant,dog,90,0339_ps_dnn_90_dog_10_n02100583_24297.png,n02100583_24297.png,0.0,-2.2092369,0.9209379,-2.2133677
alexnet_w3_mlp_simclrhn_probe0,1,340,NaN,bear,bird,60,0340_ps_dnn_60_bird_10_n02018207_12233.png,n02018207_12233.png,0.0,-1.852174,0.30263722,-1.5236818
alexnet_w3_mlp_simclrhn_probe0,1,341,NaN,bear,bird,180,0341_ps_dnn_180_bird_10_n02013706_3032.png,n02013706_3032.png,0.0,-1.3247656,0.6220579,-1.3766121
alexnet_w3_mlp_simclrhn_probe0,1,342,NaN,oven,oven,60,0342_ps_dnn_60_oven_10_n04111531_9939.png,n04111531_9939.png,1.0,1.5687692,-3.6678987,3.7028832
alexnet_w3_mlp_simclrhn_probe0,1,343,NaN,bird,bird,180,0343_ps_dnn_180_bird_10_n02011460_7629.png,n02011460_7629.png,1.0,-1.5248582,-2.567759,0.73744226
alexnet_w3_mlp_simclrhn_probe0,1,344,NaN,elephant,oven,60,0344_ps_dnn_60_oven_10_n04111531_13542.png,n04111531_13542.png,0.0,-1.8002743,-1.2145411,-0.4141759
alexnet_w3_mlp_simclrhn_probe0,1,345,NaN,bear,bear,90,0345_ps_dnn_90_bear_10_n02134418_270.png,n02134418_270.png,1.0,1.7759609,0.35043952,1.0079958
alexnet_w3_mlp_simclrhn_probe0,1,346,NaN,bear,bicycle,90,0346_ps_dnn_90_bicycle_10_n03792782_12561.png,n03792782_12561.png,0.0,-1.9839118,0.9907452,-2.1034002
alexnet_w3_mlp_simclrhn_probe0,1,347,NaN,bird,elephant,120,0347_ps_dnn_120_elephant_10_n02504458_9213.png,n02504458_9213.png,0.0,-2.3249876,-2.2445588,-0.05687178
alexnet_w3_mlp_simclrhn_probe0,1,348,NaN,bicycle,chair,90,0348_ps_dnn_90_chair_10_n03376595_4155.png,n03376595_4155.png,0.0,-3.5782878,-2.1972191,-0.97656304
alexnet_w3_mlp_simclrhn_probe0,1,349,NaN,bear,truck,120,0349_ps_dnn_120_truck_10_n04467665_69970.png,n04467665_69970.png,0.0,-7.2358637,-0.36334056,-4.8596077
alexnet_w3_mlp_simclrhn_probe0,1,350,NaN,bear,bird,120,0350_ps_dnn_120_bird_10_n02002556_2350.png,n02002556_2350.png,0.0,-2.8776927,-0.6591147,-1.5687715
alexnet_w3_mlp_simclrhn_probe0,1,351,NaN,bear,bear,0,0351_ps_dnn_0_bear_10_n02133161_355.png,n02133161_355.png,1.0,0.7760407,-2.4311783,2.2678463
alexnet_w3_mlp_simclrhn_probe0,1,352,NaN,bear,airplane,90,0352_ps_dnn_90_airplane_10_n02690373_3065.png,n02690373_3065.png,0.0,-2.2863684,-0.909276,-0.97375137
alexnet_w3_mlp_simclrhn_probe0,1,353,NaN,truck,truck,60,0353_ps_dnn_60_truck_10_n03417042_13289.png,n03417042_13289.png,1.0,-1.470217,-2.0506217,0.41040814
alexnet_w3_mlp_simclrhn_probe0,1,354,NaN,bicycle,oven,0,0354_ps_dnn_0_oven_10_n04111531_21404.png,n04111531_21404.png,0.0,-4.187324,-3.2598095,-0.65585184
alexnet_w3_mlp_simclrhn_probe0,1,355,NaN,bear,bear,90,0355_ps_dnn_90_bear_10_n02132136_8358.png,n02132136_8358.png,1.0,1.4284766,1.1802039,0.17555529
alexnet_w3_mlp_simclrhn_probe0,1,356,NaN,oven,oven,90,0356_ps_dnn_90_oven_10_n04111531_274.png,n04111531_274.png,1.0,0.7585713,-0.6105591,0.9681214
alexnet_w3_mlp_simclrhn_probe0,1,357,NaN,elephant,chair,120,0357_ps_dnn_120_chair_10_n02791124_2773.png,n02791124_2773.png,0.0,-3.6590598,-0.6898051,-2.0995803
alexnet_w3_mlp_simclrhn_probe0,1,358,NaN,bear,knife,120,0358_ps_dnn_120_knife_10_n03041632_102828.png,n03041632_102828.png,0.0,-3.5978255,-0.17363988,-2.4212651
alexnet_w3_mlp_simclrhn_probe0,1,359,NaN,bear,boat,150,0359_ps_dnn_150_boat_10_n02951358_30995.png,n02951358_30995.png,0.0,-2.0640721,-0.058871135,-1.4178913
alexnet_w3_mlp_simclrhn_probe0,1,360,NaN,elephant,bicycle,150,0360_ps_dnn_150_bicycle_10_n03792782_4544.png,n03792782_4544.png,0.0,-5.374415,-0.54652876,-3.413831
alexnet_w3_mlp_simclrhn_probe0,1,361,NaN,cat,airplane,120,0361_ps_dnn_120_airplane_10_n02690373_8446.png,n02690373_8446.png,0.0,-6.387443,-0.6537394,-4.054341
alexnet_w3_mlp_simclrhn_probe0,1,362,NaN,bottle,bottle,30,0362_ps_dnn_30_bottle_10_n04557648_900.png,n04557648_900.png,1.0,-2.4104497,-3.0704277,0.46667486
alexnet_w3_mlp_simclrhn_probe0,1,363,NaN,elephant,airplane,150,0363_ps_dnn_150_airplane_10_n02690373_3407.png,n02690373_3407.png,0.0,-4.1808114,-0.44566104,-2.6411502
alexnet_w3_mlp_simclrhn_probe0,1,364,NaN,bear,bottle,120,0364_ps_dnn_120_bottle_10_n03983396_8143.png,n03983396_8143.png,0.0,-2.8112133,-1.1185434,-1.1968983
alexnet_w3_mlp_simclrhn_probe0,1,365,NaN,car,car,0,0365_ps_dnn_0_car_10_n03100240_9610.png,n03100240_9610.png,1.0,6.992246,2.739193,3.0073628
alexnet_w3_mlp_simclrhn_probe0,1,366,NaN,bear,cat,120,0366_ps_dnn_120_cat_10_n02123159_1108.png,n02123159_1108.png,0.0,-1.8637098,0.51955974,-1.6852261
alexnet_w3_mlp_simclrhn_probe0,1,367,NaN,clock,clock,0,0367_ps_dnn_0_clock_10_n04548280_2170.png,n04548280_2170.png,1.0,6.791529,-0.7066876,5.30204
alexnet_w3_mlp_simclrhn_probe0,1,368,NaN,bear,keyboard,120,0368_ps_dnn_120_keyboard_10_n04505470_4385.png,n04505470_4385.png,0.0,-7.9067464,-0.5280393,-5.2175336
alexnet_w3_mlp_simclrhn_probe0,1,369,NaN,elephant,airplane,120,0369_ps_dnn_120_airplane_10_n02690373_18383.png,n02690373_18383.png,0.0,-2.564767,-0.7963032,-1.2504927
alexnet_w3_mlp_simclrhn_probe0,1,370,NaN,oven,truck,90,0370_ps_dnn_90_truck_10_n03417042_10243.png,n03417042_10243.png,0.0,-4.801135,0.43198404,-3.700374
alexnet_w3_mlp_simclrhn_probe0,1,371,NaN,cat,cat,30,0371_ps_dnn_30_cat_10_n02123045_11826.png,n02123045_11826.png,1.0,1.6036943,-6.1827555,5.5058517
alexnet_w3_mlp_simclrhn_probe0,1,372,NaN,elephant,bird,0,0372_ps_dnn_0_bird_10_n01817953_2257.png,n01817953_2257.png,0.0,-4.839413,-4.530122,-0.21870202
alexnet_w3_mlp_simclrhn_probe0,1,373,NaN,boat,boat,0,0373_ps_dnn_0_boat_10_n04612504_18442.png,n04612504_18442.png,1.0,3.9474883,1.790068,1.5255264
alexnet_w3_mlp_simclrhn_probe0,1,374,NaN,elephant,airplane,180,0374_ps_dnn_180_airplane_10_n02690373_2874.png,n02690373_2874.png,0.0,-4.806433,0.2050875,-3.5436804
alexnet_w3_mlp_simclrhn_probe0,1,375,NaN,bicycle,bicycle,0,0375_ps_dnn_0_bicycle_10_n02835271_4963.png,n02835271_4963.png,1.0,3.9095025,-3.1421611,4.986279
alexnet_w3_mlp_simclrhn_probe0,1,376,NaN,bear,boat,180,0376_ps_dnn_180_boat_10_n04273569_568.png,n04273569_568.png,0.0,-2.4745905,0.16598968,-1.8671721
alexnet_w3_mlp_simclrhn_probe0,1,377,NaN,elephant,elephant,90,0377_ps_dnn_90_elephant_10_n02504013_2233.png,n02504013_2233.png,1.0,1.3553689,0.7008863,0.46278906
alexnet_w3_mlp_simclrhn_probe0,1,378,NaN,oven,bottle,60,0378_ps_dnn_60_bottle_10_n02823428_889.png,n02823428_889.png,0.0,-5.057759,0.20800298,-3.723456
alexnet_w3_mlp_simclrhn_probe0,1,379,NaN,elephant,car,90,0379_ps_dnn_90_car_10_n04285008_3096.png,n04285008_3096.png,0.0,-3.1249657,-0.39137015,-1.932944
alexnet_w3_mlp_simclrhn_probe0,1,380,NaN,elephant,airplane,120,0380_ps_dnn_120_airplane_10_n02690373_13206.png,n02690373_13206.png,0.0,-5.9019995,-0.48451474,-3.8307402
alexnet_w3_mlp_simclrhn_probe0,1,381,NaN,oven,keyboard,90,0381_ps_dnn_90_keyboard_10_n03085013_25443.png,n03085013_25443.png,0.0,-6.337859,1.6062218,-5.6173134
alexnet_w3_mlp_simclrhn_probe0,1,382,NaN,truck,truck,30,0382_ps_dnn_30_truck_10_n04467665_20622.png,n04467665_20622.png,1.0,2.2350464,-1.8760763,2.9070027
alexnet_w3_mlp_simclrhn_probe0,1,383,NaN,bicycle,bicycle,60,0383_ps_dnn_60_bicycle_10_n02835271_24639.png,n02835271_24639.png,1.0,3.5905411,-1.1653566,3.3629274
alexnet_w3_mlp_simclrhn_probe0,1,384,NaN,knife,knife,30,0384_ps_dnn_30_knife_10_n03041632_25603.png,n03041632_25603.png,1.0,-1.7878245,-4.747055,2.0924919
alexnet_w3_mlp_simclrhn_probe0,1,385,NaN,boat,boat,60,0385_ps_dnn_60_boat_10_n04273569_4978.png,n04273569_4978.png,1.0,1.9215981,-2.335772,3.0104153
alexnet_w3_mlp_simclrhn_probe0,1,386,NaN,car,car,60,0386_ps_dnn_60_car_10_n02814533_46401.png,n02814533_46401.png,1.0,-0.13235728,-1.0733465,0.6653799
alexnet_w3_mlp_simclrhn_probe0,1,387,NaN,bear,bird,120,0387_ps_dnn_120_bird_10_n01798484_12863.png,n01798484_12863.png,0.0,-1.8155051,-0.37807506,-1.0164167
alexnet_w3_mlp_simclrhn_probe0,1,388,NaN,elephant,boat,120,0388_ps_dnn_120_boat_10_n03662601_7885.png,n03662601_7885.png,0.0,-2.1906993,-0.5198623,-1.1814603
alexnet_w3_mlp_simclrhn_probe0,1,389,NaN,clock,chair,0,0389_ps_dnn_0_chair_10_n03376595_3062.png,n03376595_3062.png,0.0,-1.2955904,-1.0463303,-0.17625348
alexnet_w3_mlp_simclrhn_probe0,1,390,NaN,airplane,airplane,90,0390_ps_dnn_90_airplane_10_n02690373_19118.png,n02690373_19118.png,1.0,-2.1710827,-2.3321943,0.1139231
alexnet_w3_mlp_simclrhn_probe0,1,391,NaN,bear,cat,180,0391_ps_dnn_180_cat_10_n02123597_3944.png,n02123597_3944.png,0.0,-1.5948191,0.031932905,-1.1502874
alexnet_w3_mlp_simclrhn_probe0,1,392,NaN,cat,keyboard,150,0392_ps_dnn_150_keyboard_10_n04505470_2113.png,n04505470_2113.png,0.0,-2.8549712,-0.9225771,-1.366409
alexnet_w3_mlp_simclrhn_probe0,1,393,NaN,elephant,bird,30,0393_ps_dnn_30_bird_10_n02056570_4808.png,n02056570_4808.png,0.0,-3.5410037,-0.6410999,-2.0505416
alexnet_w3_mlp_simclrhn_probe0,1,394,NaN,bear,bear,180,0394_ps_dnn_180_bear_10_n02133161_2316.png,n02133161_2316.png,1.0,0.89670753,0.3697869,0.3725892
alexnet_w3_mlp_simclrhn_probe0,1,395,NaN,dog,dog,0,0395_ps_dnn_0_dog_10_n02106662_15515.png,n02106662_15515.png,1.0,-1.0331727,-1.2299103,0.13911444
alexnet_w3_mlp_simclrhn_probe0,1,396,NaN,airplane,airplane,0,0396_ps_dnn_0_airplane_10_n02690373_3899.png,n02690373_3899.png,1.0,3.8931015,0.0031080842,2.7506409
alexnet_w3_mlp_simclrhn_probe0,1,397,NaN,knife,boat,0,0397_ps_dnn_0_boat_10_n04273569_2449.png,n04273569_2449.png,0.0,-9.2536955,-4.6461625,-3.2580178
alexnet_w3_mlp_simclrhn_probe0,1,398,NaN,oven,bird,120,0398_ps_dnn_120_bird_10_n02007558_7614.png,n02007558_7614.png,0.0,-5.733716,1.1578861,-4.873099
alexnet_w3_mlp_simclrhn_probe0,1,399,NaN,bottle,keyboard,90,0399_ps_dnn_90_keyboard_10_n03085013_4914.png,n03085013_4914.png,0.0,-6.109797,-1.2956675,-3.4041035
alexnet_w3_mlp_simclrhn_probe0,1,400,NaN,bear,oven,150,0400_ps_dnn_150_oven_10_n04111531_15296.png,n04111531_15296.png,0.0,-1.515735,-0.25417626,-0.89205676
alexnet_w3_mlp_simclrhn_probe0,1,401,NaN,oven,chair,60,0401_ps_dnn_60_chair_10_n04099969_246.png,n04099969_246.png,0.0,-5.148698,-1.6870416,-2.4477606
alexnet_w3_mlp_simclrhn_probe0,1,402,NaN,oven,truck,180,0402_ps_dnn_180_truck_10_n04467665_670.png,n04467665_670.png,0.0,-6.4058266,-0.5346594,-4.151542
alexnet_w3_mlp_simclrhn_probe0,1,403,NaN,keyboard,keyboard,90,0403_ps_dnn_90_keyboard_10_n03085013_24192.png,n03085013_24192.png,1.0,1.3598121,-1.7960985,2.2315657
alexnet_w3_mlp_simclrhn_probe0,1,404,NaN,bear,bicycle,150,0404_ps_dnn_150_bicycle_10_n03792782_378.png,n03792782_378.png,0.0,-0.97843313,-0.54932594,-0.3034246
alexnet_w3_mlp_simclrhn_probe0,1,405,NaN,bear,bird,180,0405_ps_dnn_180_bird_10_n02018207_14738.png,n02018207_14738.png,0.0,-1.7364032,-0.09014225,-1.1640823
alexnet_w3_mlp_simclrhn_probe0,1,406,NaN,bird,bird,0,0406_ps_dnn_0_bird_10_n01530575_5222.png,n01530575_5222.png,1.0,-1.1682175,-1.3295059,0.11404811
alexnet_w3_mlp_simclrhn_probe0,1,407,NaN,elephant,bear,30,0407_ps_dnn_30_bear_10_n02134084_10766.png,n02134084_10766.png,0.0,-3.4294217,-2.9121127,-0.36579266
alexnet_w3_mlp_simclrhn_probe0,1,408,NaN,elephant,bird,30,0408_ps_dnn_30_bird_10_n02007558_4009.png,n02007558_4009.png,0.0,-3.3174,-0.7858811,-1.7900542
alexnet_w3_mlp_simclrhn_probe0,1,409,NaN,bear,chair,120,0409_ps_dnn_120_chair_10_n04099969_7545.png,n04099969_7545.png,0.0,-6.8267097,-0.15689364,-4.7162724
alexnet_w3_mlp_simclrhn_probe0,1,410,NaN,oven,clock,90,0410_ps_dnn_90_clock_10_n03196217_127.png,n03196217_127.png,0.0,-6.7172933,-2.2518847,-3.1575205
alexnet_w3_mlp_simclrhn_probe0,1,411,NaN,knife,bottle,150,0411_ps_dnn_150_bottle_10_n04560804_26326.png,n04560804_26326.png,0.0,-2.3527093,-0.62524724,-1.2215002
alexnet_w3_mlp_simclrhn_probe0,1,412,NaN,keyboard,keyboard,30,0412_ps_dnn_30_keyboard_10_n03085013_25066.png,n03085013_25066.png,1.0,-3.179042,-3.9834557,0.5688063
alexnet_w3_mlp_simclrhn_probe0,1,413,NaN,cat,cat,30,0413_ps_dnn_30_cat_10_n02124075_11776.png,n02124075_11776.png,1.0,6.581304,-5.0566077,8.229246
alexnet_w3_mlp_simclrhn_probe0,1,414,NaN,oven,keyboard,120,0414_ps_dnn_120_keyboard_10_n04505470_2909.png,n04505470_2909.png,0.0,-1.5263877,-0.88266766,-0.4551788
alexnet_w3_mlp_simclrhn_probe0,1,415,NaN,keyboard,keyboard,30,0415_ps_dnn_30_keyboard_10_n04505470_494.png,n04505470_494.png,1.0,5.1964355,1.1603072,2.8539736
alexnet_w3_mlp_simclrhn_probe0,1,416,NaN,elephant,bear,120,0416_ps_dnn_120_bear_10_n02133161_2270.png,n02133161_2270.png,0.0,-0.19816178,0.40900725,-0.42933336
alexnet_w3_mlp_simclrhn_probe0,1,417,NaN,bear,chair,120,0417_ps_dnn_120_chair_10_n04099969_13901.png,n04099969_13901.png,0.0,-2.8431926,-0.8391817,-1.4170498
alexnet_w3_mlp_simclrhn_probe0,1,418,NaN,elephant,car,120,0418_ps_dnn_120_car_10_n02814533_2923.png,n02814533_2923.png,0.0,-4.70766,0.35298097,-3.5784137
alexnet_w3_mlp_simclrhn_probe0,1,419,NaN,elephant,bottle,90,0419_ps_dnn_90_bottle_10_n03983396_12757.png,n03983396_12757.png,0.0,-3.234618,-2.521123,-0.5045172
alexnet_w3_mlp_simclrhn_probe0,1,420,NaN,knife,knife,30,0420_ps_dnn_30_knife_10_n03041632_15444.png,n03041632_15444.png,1.0,-3.4949713,-4.32082,0.58396316
alexnet_w3_mlp_simclrhn_probe0,1,421,NaN,bear,bicycle,180,0421_ps_dnn_180_bicycle_10_n02835271_5554.png,n02835271_5554.png,0.0,-2.657308,-0.99045837,-1.1786407
alexnet_w3_mlp_simclrhn_probe0,1,422,NaN,bear,knife,150,0422_ps_dnn_150_knife_10_n03041632_37618.png,n03041632_37618.png,0.0,-2.3266952,-1.0612713,-0.8947898
alexnet_w3_mlp_simclrhn_probe0,1,423,NaN,chair,chair,60,0423_ps_dnn_60_chair_10_n03376595_3910.png,n03376595_3910.png,1.0,-1.4316398,-3.2509143,1.2864214
alexnet_w3_mlp_simclrhn_probe0,1,424,NaN,dog,dog,30,0424_ps_dnn_30_dog_10_n02086646_7362.png,n02086646_7362.png,1.0,-0.968876,-1.4400035,0.33313745
alexnet_w3_mlp_simclrhn_probe0,1,425,NaN,bear,dog,60,0425_ps_dnn_60_dog_10_n02113712_5829.png,n02113712_5829.png,0.0,-2.4150386,0.31048825,-1.9272385
alexnet_w3_mlp_simclrhn_probe0,1,426,NaN,bear,truck,180,0426_ps_dnn_180_truck_10_n03417042_1149.png,n03417042_1149.png,0.0,-6.6671076,-0.52550006,-4.342772
alexnet_w3_mlp_simclrhn_probe0,1,427,NaN,elephant,bird,60,0427_ps_dnn_60_bird_10_n02002724_3345.png,n02002724_3345.png,0.0,-3.271413,-0.6678908,-1.8409683
alexnet_w3_mlp_simclrhn_probe0,1,428,NaN,bear,bird,150,0428_ps_dnn_150_bird_10_n02002556_2917.png,n02002556_2917.png,0.0,-2.9008248,0.35072237,-2.299191
alexnet_w3_mlp_simclrhn_probe0,1,429,NaN,bear,bottle,180,0429_ps_dnn_180_bottle_10_n04560804_3959.png,n04560804_3959.png,0.0,-5.5135965,0.8706395,-4.5143366
alexnet_w3_mlp_simclrhn_probe0,1,430,NaN,airplane,airplane,30,0430_ps_dnn_30_airplane_10_n02690373_3639.png,n02690373_3639.png,1.0,6.338807,-2.5023208,6.2516212
alexnet_w3_mlp_simclrhn_probe0,1,431,NaN,oven,bottle,120,0431_ps_dnn_120_bottle_10_n02823428_14453.png,n02823428_14453.png,0.0,-3.2958024,-0.50106394,-1.9761784
alexnet_w3_mlp_simclrhn_probe0,1,432,NaN,bottle,bottle,0,0432_ps_dnn_0_bottle_10_n03937543_3253.png,n03937543_3253.png,1.0,3.474106,-2.2448204,4.043892
alexnet_w3_mlp_simclrhn_probe0,1,433,NaN,bear,elephant,30,0433_ps_dnn_30_elephant_10_n02504013_7010.png,n02504013_7010.png,0.0,-2.8951564,-2.8165941,-0.05555191
alexnet_w3_mlp_simclrhn_probe0,1,434,NaN,bear,car,150,0434_ps_dnn_150_car_10_n04285008_8813.png,n04285008_8813.png,0.0,-5.8759475,0.06618139,-4.2017198
alexnet_w3_mlp_simclrhn_probe0,1,435,NaN,bear,bear,180,0435_ps_dnn_180_bear_10_n02132136_110.png,n02132136_110.png,1.0,0.46277887,-0.5177932,0.69336915
alexnet_w3_mlp_simclrhn_probe0,1,436,NaN,bear,bear,60,0436_ps_dnn_60_bear_10_n02133161_4294.png,n02133161_4294.png,1.0,-0.20541976,-1.1278629,0.65226585
alexnet_w3_mlp_simclrhn_probe0,1,437,NaN,car,car,0,0437_ps_dnn_0_car_10_n02814533_95144.png,n02814533_95144.png,1.0,4.8577766,2.6688182,1.5478274
alexnet_w3_mlp_simclrhn_probe0,1,438,NaN,oven,oven,120,0438_ps_dnn_120_oven_10_n04111531_1220.png,n04111531_1220.png,1.0,-0.2091876,-0.41939786,0.14864111
alexnet_w3_mlp_simclrhn_probe0,1,439,NaN,knife,dog,60,0439_ps_dnn_60_dog_10_n02086240_7247.png,n02086240_7247.png,0.0,-2.0689423,-1.5933305,-0.33630833
alexnet_w3_mlp_simclrhn_probe0,1,440,NaN,airplane,airplane,0,0440_ps_dnn_0_airplane_10_n02690373_4144.png,n02690373_4144.png,1.0,6.552484,-1.462035,5.6671205
alexnet_w3_mlp_simclrhn_probe0,1,441,NaN,oven,oven,120,0441_ps_dnn_120_oven_10_n04111531_986.png,n04111531_986.png,1.0,-0.08995733,-0.39490914,0.2156335
alexnet_w3_mlp_simclrhn_probe0,1,442,NaN,elephant,elephant,30,0442_ps_dnn_30_elephant_10_n02504458_6336.png,n02504458_6336.png,1.0,-0.56723267,-1.624952,0.74792045
alexnet_w3_mlp_simclrhn_probe0,1,443,NaN,bear,knife,150,0443_ps_dnn_150_knife_10_n03041632_14132.png,n03041632_14132.png,0.0,-2.3930259,-0.8913276,-1.061861
alexnet_w3_mlp_simclrhn_probe0,1,444,NaN,bear,cat,150,0444_ps_dnn_150_cat_10_n02123159_799.png,n02123159_799.png,0.0,-2.5581393,0.10203506,-1.8810273
alexnet_w3_mlp_simclrhn_probe0,1,445,NaN,elephant,bird,90,0445_ps_dnn_90_bird_10_n02006656_7456.png,n02006656_7456.png,0.0,-4.708591,-0.465402,-3.0003877
alexnet_w3_mlp_simclrhn_probe0,1,446,NaN,elephant,cat,90,0446_ps_dnn_90_cat_10_n02123045_8722.png,n02123045_8722.png,0.0,-2.2814653,-0.59418064,-1.1930904
alexnet_w3_mlp_simclrhn_probe0,1,447,NaN,elephant,chair,120,0447_ps_dnn_120_chair_10_n03376595_8302.png,n03376595_8302.png,0.0,-4.2186875,-1.2499428,-2.0992196
alexnet_w3_mlp_simclrhn_probe0,1,448,NaN,bottle,bottle,30,0448_ps_dnn_30_bottle_10_n04560804_5769.png,n04560804_5769.png,1.0,-1.5827444,-1.8078588,0.15917997
alexnet_w3_mlp_simclrhn_probe0,1,449,NaN,oven,car,90,0449_ps_dnn_90_car_10_n04285008_203.png,n04285008_203.png,0.0,-8.927015,-1.4191284,-5.308878
alexnet_w3_mlp_simclrhn_probe0,1,450,NaN,bear,airplane,180,0450_ps_dnn_180_airplane_10_n02690373_9959.png,n02690373_9959.png,0.0,-7.375086,-0.9995883,-4.5081573
alexnet_w3_mlp_simclrhn_probe0,1,451,NaN,car,car,0,0451_ps_dnn_0_car_10_n04285008_1867.png,n04285008_1867.png,1.0,9.827958,4.0961795,4.0529795
alexnet_w3_mlp_simclrhn_probe0,1,452,NaN,bear,airplane,150,0452_ps_dnn_150_airplane_10_n02690373_16250.png,n02690373_16250.png,0.0,-4.0242944,0.050458297,-2.8812854
alexnet_w3_mlp_simclrhn_probe0,1,453,NaN,elephant,elephant,30,0453_ps_dnn_30_elephant_10_n02504458_4696.png,n02504458_4696.png,1.0,1.3666549,-0.16879785,1.085729
alexnet_w3_mlp_simclrhn_probe0,1,454,NaN,bicycle,car,60,0454_ps_dnn_60_car_10_n04285008_10755.png,n04285008_10755.png,0.0,-7.7364287,-1.1965177,-4.624416
alexnet_w3_mlp_simclrhn_probe0,1,455,NaN,bear,boat,150,0455_ps_dnn_150_boat_10_n02951358_11586.png,n02951358_11586.png,0.0,-3.7987945,-0.1933209,-2.549455
alexnet_w3_mlp_simclrhn_probe0,1,456,NaN,bottle,bottle,60,0456_ps_dnn_60_bottle_10_n02823428_4108.png,n02823428_4108.png,1.0,-1.2758598,-3.9098,1.8624771
alexnet_w3_mlp_simclrhn_probe0,1,457,NaN,bear,car,180,0457_ps_dnn_180_car_10_n04285008_11770.png,n04285008_11770.png,0.0,-7.7172112,0.71784014,-5.964482
alexnet_w3_mlp_simclrhn_probe0,1,458,NaN,boat,boat,90,0458_ps_dnn_90_boat_10_n04273569_32786.png,n04273569_32786.png,1.0,-0.37792498,-1.3135653,0.6615976
alexnet_w3_mlp_simclrhn_probe0,1,459,NaN,bear,bear,30,0459_ps_dnn_30_bear_10_n02132136_21267.png,n02132136_21267.png,1.0,3.431417,1.730531,1.202708
alexnet_w3_mlp_simclrhn_probe0,1,460,NaN,oven,car,90,0460_ps_dnn_90_car_10_n03100240_24001.png,n03100240_24001.png,0.0,-5.878905,-1.5374832,-3.0698488
alexnet_w3_mlp_simclrhn_probe0,1,461,NaN,bear,bottle,150,0461_ps_dnn_150_bottle_10_n03937543_71.png,n03937543_71.png,0.0,-3.1808717,-0.044577226,-2.2176952
alexnet_w3_mlp_simclrhn_probe0,1,462,NaN,truck,chair,0,0462_ps_dnn_0_chair_10_n02791124_16127.png,n02791124_16127.png,0.0,-3.1463032,-2.0042639,-0.80754375
alexnet_w3_mlp_simclrhn_probe0,1,463,NaN,bear,bird,90,0463_ps_dnn_90_bird_10_n02002724_12183.png,n02002724_12183.png,0.0,-1.4716556,0.07222478,-1.0916883
alexnet_w3_mlp_simclrhn_probe0,1,464,NaN,elephant,dog,30,0464_ps_dnn_30_dog_10_n02108915_1165.png,n02108915_1165.png,0.0,-2.2208831,-0.24416247,-1.3977526
alexnet_w3_mlp_simclrhn_probe0,1,465,NaN,bear,dog,180,0465_ps_dnn_180_dog_10_n02099429_4843.png,n02099429_4843.png,0.0,-1.4902306,-0.2821455,-0.8542451
alexnet_w3_mlp_simclrhn_probe0,1,466,NaN,boat,boat,60,0466_ps_dnn_60_boat_10_n03344393_3499.png,n03344393_3499.png,1.0,0.1985136,-0.44491202,0.4549706
alexnet_w3_mlp_simclrhn_probe0,1,467,NaN,oven,truck,120,0467_ps_dnn_120_truck_10_n03417042_20962.png,n03417042_20962.png,0.0,-5.0845394,-0.71326023,-3.0909612
alexnet_w3_mlp_simclrhn_probe0,1,468,NaN,knife,dog,30,0468_ps_dnn_30_dog_10_n02097047_4189.png,n02097047_4189.png,0.0,-4.7144895,-4.116786,-0.42264017
alexnet_w3_mlp_simclrhn_probe0,1,469,NaN,bicycle,bicycle,60,0469_ps_dnn_60_bicycle_10_n03792782_24591.png,n03792782_24591.png,1.0,7.599164,-4.147881,8.306416
alexnet_w3_mlp_simclrhn_probe0,1,470,NaN,airplane,airplane,60,0470_ps_dnn_60_airplane_10_n02690373_243.png,n02690373_243.png,1.0,2.072979,-1.7922783,2.7331498
alexnet_w3_mlp_simclrhn_probe0,1,471,NaN,oven,boat,90,0471_ps_dnn_90_boat_10_n03344393_3072.png,n03344393_3072.png,0.0,-2.023935,-0.51232153,-1.0688722
alexnet_w3_mlp_simclrhn_probe0,1,472,NaN,elephant,clock,120,0472_ps_dnn_120_clock_10_n02708093_118.png,n02708093_118.png,0.0,-3.047816,-1.3953643,-1.1684599
alexnet_w3_mlp_simclrhn_probe0,1,473,NaN,bird,bird,30,0473_ps_dnn_30_bird_10_n01843065_2664.png,n01843065_2664.png,1.0,-1.6446472,-4.0986376,1.7352333
alexnet_w3_mlp_simclrhn_probe0,1,474,NaN,knife,airplane,150,0474_ps_dnn_150_airplane_10_n02690373_19353.png,n02690373_19353.png,0.0,-4.6167555,-1.3201252,-2.3310697
alexnet_w3_mlp_simclrhn_probe0,1,475,NaN,bear,dog,120,0475_ps_dnn_120_dog_10_n02099849_4250.png,n02099849_4250.png,0.0,-1.8340468,-0.69228816,-0.80734533
alexnet_w3_mlp_simclrhn_probe0,1,476,NaN,oven,truck,90,0476_ps_dnn_90_truck_10_n04467665_29260.png,n04467665_29260.png,0.0,-4.644411,-2.2445915,-1.6969287
alexnet_w3_mlp_simclrhn_probe0,1,477,NaN,elephant,elephant,30,0477_ps_dnn_30_elephant_10_n02504013_8308.png,n02504013_8308.png,1.0,1.7691369,1.3434408,0.30101264
alexnet_w3_mlp_simclrhn_probe0,1,478,NaN,knife,boat,150,0478_ps_dnn_150_boat_10_n03344393_6854.png,n03344393_6854.png,0.0,-1.4113445,-0.35652274,-0.7458716
alexnet_w3_mlp_simclrhn_probe0,1,479,NaN,elephant,truck,180,0479_ps_dnn_180_truck_10_n04467665_25129.png,n04467665_25129.png,0.0,-7.8750534,-0.3702954,-5.3066654
alexnet_w3_mlp_simclrhn_probe0,1,480,NaN,bird,bird,30,0480_ps_dnn_30_bird_10_n01824575_6272.png,n01824575_6272.png,1.0,-2.4083865,-3.4759977,0.7549151
alexnet_w3_mlp_simclrhn_probe0,1,481,NaN,bear,chair,180,0481_ps_dnn_180_chair_10_n04099969_19484.png,n04099969_19484.png,0.0,-9.542686,0.09951012,-6.818063
alexnet_w3_mlp_simclrhn_probe0,1,482,NaN,oven,oven,120,0482_ps_dnn_120_oven_10_n04111531_5888.png,n04111531_5888.png,1.0,-0.12002739,-1.6470512,1.0797689
alexnet_w3_mlp_simclrhn_probe0,1,483,NaN,elephant,chair,60,0483_ps_dnn_60_chair_10_n04099969_16266.png,n04099969_16266.png,0.0,-5.5628195,-1.4518228,-2.9069138
alexnet_w3_mlp_simclrhn_probe0,1,484,NaN,oven,truck,150,0484_ps_dnn_150_truck_10_n04467665_68754.png,n04467665_68754.png,0.0,-6.8564396,-0.17737499,-4.722812
alexnet_w3_mlp_simclrhn_probe0,1,485,NaN,knife,cat,180,0485_ps_dnn_180_cat_10_n02123394_7859.png,n02123394_7859.png,0.0,-2.1278186,-0.4558859,-1.182235
alexnet_w3_mlp_simclrhn_probe0,1,486,NaN,oven,car,90,0486_ps_dnn_90_car_10_n04285008_17056.png,n04285008_17056.png,0.0,-9.035493,-4.0195427,-3.5468125
alexnet_w3_mlp_simclrhn_probe0,1,487,NaN,bear,cat,120,0487_ps_dnn_120_cat_10_n02123045_12046.png,n02123045_12046.png,0.0,-1.7401658,0.0595966,-1.2726243
alexnet_w3_mlp_simclrhn_probe0,1,488,NaN,bear,elephant,180,0488_ps_dnn_180_elephant_10_n02504013_3029.png,n02504013_3029.png,0.0,-0.38143948,0.676764,-0.7482629
alexnet_w3_mlp_simclrhn_probe0,1,489,NaN,boat,boat,120,0489_ps_dnn_120_boat_10_n03662601_7271.png,n03662601_7271.png,1.0,0.7942056,0.32804716,0.32962382
alexnet_w3_mlp_simclrhn_probe0,1,490,NaN,bear,bear,30,0490_ps_dnn_30_bear_10_n02133161_6861.png,n02133161_6861.png,1.0,1.4158876,-2.9144735,3.062028
alexnet_w3_mlp_simclrhn_probe0,1,491,NaN,elephant,chair,30,0491_ps_dnn_30_chair_10_n02791124_4192.png,n02791124_4192.png,0.0,-2.0239701,-1.8877175,-0.09634517
alexnet_w3_mlp_simclrhn_probe0,1,492,NaN,oven,boat,60,0492_ps_dnn_60_boat_10_n04273569_1457.png,n04273569_1457.png,0.0,-0.9533041,-0.70641744,-0.17457524
alexnet_w3_mlp_simclrhn_probe0,1,493,NaN,elephant,clock,90,0493_ps_dnn_90_clock_10_n04548280_764.png,n04548280_764.png,0.0,-3.325556,-1.4694614,-1.3124571
alexnet_w3_mlp_simclrhn_probe0,1,494,NaN,elephant,bicycle,120,0494_ps_dnn_120_bicycle_10_n02835271_12346.png,n02835271_12346.png,0.0,-2.5608578,-0.95693594,-1.1341441
alexnet_w3_mlp_simclrhn_probe0,1,495,NaN,bear,bicycle,180,0495_ps_dnn_180_bicycle_10_n03792782_50673.png,n03792782_50673.png,0.0,-1.7670712,-0.89740026,-0.61495024
alexnet_w3_mlp_simclrhn_probe0,1,496,NaN,oven,truck,120,0496_ps_dnn_120_truck_10_n03796401_9198.png,n03796401_9198.png,0.0,-4.1012325,-0.5962279,-2.4784126
alexnet_w3_mlp_simclrhn_probe0,1,497,NaN,airplane,airplane,0,0497_ps_dnn_0_airplane_10_n02690373_4110.png,n02690373_4110.png,1.0,6.3688707,-0.059941746,4.545857
alexnet_w3_mlp_simclrhn_probe0,1,498,NaN,bear,dog,60,0498_ps_dnn_60_dog_10_n02107683_2484.png,n02107683_2484.png,0.0,-0.55579454,0.24108136,-0.5634764
alexnet_w3_mlp_simclrhn_probe0,1,499,NaN,oven,chair,60,0499_ps_dnn_60_chair_10_n02791124_13057.png,n02791124_13057.png,0.0,-5.782691,-2.9319932,-2.0157478
alexnet_w3_mlp_simclrhn_probe0,1,500,NaN,bear,bear,120,0500_ps_dnn_120_bear_10_n02134418_14451.png,n02134418_14451.png,1.0,0.08383592,-0.08928345,0.12241388
alexnet_w3_mlp_simclrhn_probe0,1,501,NaN,bicycle,bird,60,0501_ps_dnn_60_bird_10_n01843383_10059.png,n01843383_10059.png,0.0,-4.097576,-3.2374022,-0.6082348
alexnet_w3_mlp_simclrhn_probe0,1,502,NaN,bicycle,bicycle,0,0502_ps_dnn_0_bicycle_10_n03792782_11824.png,n03792782_11824.png,1.0,3.115098,-2.183691,3.7468097
alexnet_w3_mlp_simclrhn_probe0,1,503,NaN,bicycle,bird,30,0503_ps_dnn_30_bird_10_n01532829_2492.png,n01532829_2492.png,0.0,-3.7812908,-2.1023889,-1.187163
alexnet_w3_mlp_simclrhn_probe0,1,504,NaN,bottle,bottle,0,0504_ps_dnn_0_bottle_10_n04579145_5621.png,n04579145_5621.png,1.0,0.9571747,-5.0480604,4.2463427
alexnet_w3_mlp_simclrhn_probe0,1,505,NaN,bear,truck,150,0505_ps_dnn_150_truck_10_n03417042_6250.png,n03417042_6250.png,0.0,-7.881333,0.032760195,-5.596109
alexnet_w3_mlp_simclrhn_probe0,1,506,NaN,bear,dog,90,0506_ps_dnn_90_dog_10_n02108551_14704.png,n02108551_14704.png,0.0,-1.9628066,0.94910854,-2.0590348
alexnet_w3_mlp_simclrhn_probe0,1,507,NaN,boat,boat,30,0507_ps_dnn_30_boat_10_n04612504_8407.png,n04612504_8407.png,1.0,2.6036458,-1.8578628,3.1547632
alexnet_w3_mlp_simclrhn_probe0,1,508,NaN,oven,car,120,0508_ps_dnn_120_car_10_n03100240_14794.png,n03100240_14794.png,0.0,-7.0055146,-1.4275364,-3.9442263
alexnet_w3_mlp_simclrhn_probe0,1,509,NaN,oven,dog,60,0509_ps_dnn_60_dog_10_n02097658_759.png,n02097658_759.png,0.0,-4.733752,-1.4618897,-2.313556
alexnet_w3_mlp_simclrhn_probe0,1,510,NaN,bear,oven,90,0510_ps_dnn_90_oven_10_n04111531_5965.png,n04111531_5965.png,0.0,-2.5246456,-0.02059941,-1.7706281
alexnet_w3_mlp_simclrhn_probe0,1,511,NaN,bear,elephant,180,0511_ps_dnn_180_elephant_10_n02504013_6984.png,n02504013_6984.png,0.0,-1.3417856,-0.50143135,-0.59422016
alexnet_w3_mlp_simclrhn_probe0,1,512,NaN,oven,oven,180,0512_ps_dnn_180_oven_10_n04111531_6695.png,n04111531_6695.png,1.0,-0.5236714,-1.1166239,0.41928074
alexnet_w3_mlp_simclrhn_probe0,1,513,NaN,bear,bird,60,0513_ps_dnn_60_bird_10_n02037110_4572.png,n02037110_4572.png,0.0,-2.2053697,-1.1019601,-0.78022844
alexnet_w3_mlp_simclrhn_probe0,1,514,NaN,oven,truck,30,0514_ps_dnn_30_truck_10_n03796401_11628.png,n03796401_11628.png,0.0,-3.8132105,-2.182578,-1.1530312
alexnet_w3_mlp_simclrhn_probe0,1,515,NaN,bear,chair,180,0515_ps_dnn_180_chair_10_n02791124_1258.png,n02791124_1258.png,0.0,-6.0290036,0.6027659,-4.689369
alexnet_w3_mlp_simclrhn_probe0,1,516,NaN,elephant,knife,0,0516_ps_dnn_0_knife_10_n03041632_62810.png,n03041632_62810.png,0.0,-7.418902,-2.9027371,-3.1934109
alexnet_w3_mlp_simclrhn_probe0,1,517,NaN,elephant,bird,90,0517_ps_dnn_90_bird_10_n01819313_2770.png,n01819313_2770.png,0.0,-3.4957175,-0.58620054,-2.0573392
alexnet_w3_mlp_simclrhn_probe0,1,518,NaN,bicycle,bicycle,60,0518_ps_dnn_60_bicycle_10_n02835271_25519.png,n02835271_25519.png,1.0,-0.7685956,-4.528841,2.658895
alexnet_w3_mlp_simclrhn_probe0,1,519,NaN,boat,boat,0,0519_ps_dnn_0_boat_10_n03662601_23248.png,n03662601_23248.png,1.0,5.8686824,0.8812083,3.5266767
alexnet_w3_mlp_simclrhn_probe0,1,520,NaN,oven,elephant,120,0520_ps_dnn_120_elephant_10_n02504013_1784.png,n02504013_1784.png,0.0,-1.599793,0.30324656,-1.3456521
alexnet_w3_mlp_simclrhn_probe0,1,521,NaN,bear,cat,150,0521_ps_dnn_150_cat_10_n02123394_270.png,n02123394_270.png,0.0,-1.8351129,-0.002046004,-1.296174
alexnet_w3_mlp_simclrhn_probe0,1,522,NaN,elephant,dog,30,0522_ps_dnn_30_dog_10_n02093647_1022.png,n02093647_1022.png,0.0,-0.4529028,2.3116727,-1.9548501
alexnet_w3_mlp_simclrhn_probe0,1,523,NaN,boat,boat,30,0523_ps_dnn_30_boat_10_n03662601_4881.png,n03662601_4881.png,1.0,0.5594563,-0.44457996,0.7099608
alexnet_w3_mlp_simclrhn_probe0,1,524,NaN,elephant,knife,60,0524_ps_dnn_60_knife_10_n03041632_8321.png,n03041632_8321.png,0.0,-3.5417957,-1.7179309,-1.2896672
alexnet_w3_mlp_simclrhn_probe0,1,525,NaN,bear,car,120,0525_ps_dnn_120_car_10_n02814533_60400.png,n02814533_60400.png,0.0,-7.4069595,0.08173618,-5.2953076
alexnet_w3_mlp_simclrhn_probe0,1,526,NaN,bear,cat,150,0526_ps_dnn_150_cat_10_n02123597_3280.png,n02123597_3280.png,0.0,-0.5203188,0.39221942,-0.645262
alexnet_w3_mlp_simclrhn_probe0,1,527,NaN,bear,dog,150,0527_ps_dnn_150_dog_10_n02110063_3399.png,n02110063_3399.png,0.0,-1.9461982,0.9938568,-2.0789328
alexnet_w3_mlp_simclrhn_probe0,1,528,NaN,bear,bear,0,0528_ps_dnn_0_bear_10_n02132136_3109.png,n02132136_3109.png,1.0,2.373719,0.2814536,1.4794551
alexnet_w3_mlp_simclrhn_probe0,1,529,NaN,bear,bear,0,0529_ps_dnn_0_bear_10_n02134084_16632.png,n02134084_16632.png,1.0,0.87472177,-1.6136336,1.759533
alexnet_w3_mlp_simclrhn_probe0,1,530,NaN,oven,bottle,150,0530_ps_dnn_150_bottle_10_n04591713_5851.png,n04591713_5851.png,0.0,-2.5281425,-1.4684595,-0.749309
alexnet_w3_mlp_simclrhn_probe0,1,531,NaN,oven,knife,0,0531_ps_dnn_0_knife_10_n03041632_29961.png,n03041632_29961.png,0.0,-2.4629393,-1.627859,-0.59049094
alexnet_w3_mlp_simclrhn_probe0,1,532,NaN,knife,knife,30,0532_ps_dnn_30_knife_10_n03041632_10140.png,n03041632_10140.png,1.0,-3.938207,-6.172231,1.5796938
alexnet_w3_mlp_simclrhn_probe0,1,533,NaN,bear,airplane,180,0533_ps_dnn_180_airplane_10_n02690373_8765.png,n02690373_8765.png,0.0,-7.4498687,-0.1753166,-5.143885
alexnet_w3_mlp_simclrhn_probe0,1,534,NaN,oven,knife,120,0534_ps_dnn_120_knife_10_n03041632_16826.png,n03041632_16826.png,0.0,-3.3164692,0.18912089,-2.4788265
alexnet_w3_mlp_simclrhn_probe0,1,535,NaN,oven,chair,30,0535_ps_dnn_30_chair_10_n04429376_21089.png,n04429376_21089.png,0.0,-2.8335855,-1.5571316,-0.9025892
alexnet_w3_mlp_simclrhn_probe0,1,536,NaN,bear,bear,60,0536_ps_dnn_60_bear_10_n02134084_15118.png,n02134084_15118.png,1.0,0.4494645,-0.5169762,0.6833768
alexnet_w3_mlp_simclrhn_probe0,1,537,NaN,oven,car,120,0537_ps_dnn_120_car_10_n04285008_3884.png,n04285008_3884.png,0.0,-7.1672597,-0.7044253,-4.569914
alexnet_w3_mlp_simclrhn_probe0,1,538,NaN,bear,boat,150,0538_ps_dnn_150_boat_10_n04273569_1576.png,n04273569_1576.png,0.0,-1.977115,0.089463994,-1.4612921
alexnet_w3_mlp_simclrhn_probe0,1,539,NaN,oven,bicycle,120,0539_ps_dnn_120_bicycle_10_n03792782_4600.png,n03792782_4600.png,0.0,-1.1097794,-0.4873,-0.44015935
alexnet_w3_mlp_simclrhn_probe0,1,540,NaN,clock,clock,30,0540_ps_dnn_30_clock_10_n03196217_4537.png,n03196217_4537.png,1.0,1.8432847,0.99903136,0.5969773
alexnet_w3_mlp_simclrhn_probe0,1,541,NaN,boat,airplane,60,0541_ps_dnn_60_airplane_10_n02690373_10203.png,n02690373_10203.png,0.0,0.70217,1.1946428,-0.34823084
alexnet_w3_mlp_simclrhn_probe0,1,542,NaN,truck,truck,30,0542_ps_dnn_30_truck_10_n04467665_48875.png,n04467665_48875.png,1.0,-0.5094881,-0.85487866,0.244228
alexnet_w3_mlp_simclrhn_probe0,1,543,NaN,oven,car,60,0543_ps_dnn_60_car_10_n02814533_38071.png,n02814533_38071.png,0.0,-2.9379177,-0.7964651,-1.5142356
alexnet_w3_mlp_simclrhn_probe0,1,544,NaN,bicycle,bear,90,0544_ps_dnn_90_bear_10_n02133161_160.png,n02133161_160.png,0.0,-2.7086935,-1.456413,-0.885496
alexnet_w3_mlp_simclrhn_probe0,1,545,NaN,truck,car,30,0545_ps_dnn_30_car_10_n02814533_40344.png,n02814533_40344.png,0.0,-2.50363,-0.36824882,-1.5099425
alexnet_w3_mlp_simclrhn_probe0,1,546,NaN,bear,oven,180,0546_ps_dnn_180_oven_10_n04111531_9026.png,n04111531_9026.png,0.0,-1.1112394,-0.6530776,-0.32396933
alexnet_w3_mlp_simclrhn_probe0,1,547,NaN,cat,cat,0,0547_ps_dnn_0_cat_10_n02123597_13755.png,n02123597_13755.png,1.0,-1.8624791,-2.9184768,0.74670315
alexnet_w3_mlp_simclrhn_probe0,1,548,NaN,bear,car,150,0548_ps_dnn_150_car_10_n02814533_39485.png,n02814533_39485.png,0.0,-7.847094,0.7085688,-6.0497675
alexnet_w3_mlp_simclrhn_probe0,1,549,NaN,knife,bottle,90,0549_ps_dnn_90_bottle_10_n03937543_4512.png,n03937543_4512.png,0.0,-1.7617518,-0.8714242,-0.62955666
alexnet_w3_mlp_simclrhn_probe0,1,550,NaN,bear,cat,120,0550_ps_dnn_120_cat_10_n02124075_2402.png,n02124075_2402.png,0.0,-1.0705146,0.32471448,-0.98657596
alexnet_w3_mlp_simclrhn_probe0,1,551,NaN,elephant,bird,0,0551_ps_dnn_0_bird_10_n02056570_9835.png,n02056570_9835.png,0.0,-3.2636738,-1.8892587,-0.9718582
alexnet_w3_mlp_simclrhn_probe0,1,552,NaN,elephant,clock,120,0552_ps_dnn_120_clock_10_n04548280_13247.png,n04548280_13247.png,0.0,-3.097121,-1.2980721,-1.2721196
alexnet_w3_mlp_simclrhn_probe0,1,553,NaN,oven,truck,60,0553_ps_dnn_60_truck_10_n03417042_173.png,n03417042_173.png,0.0,-2.3249831,1.5088335,-2.7109177
alexnet_w3_mlp_simclrhn_probe0,1,554,NaN,oven,airplane,180,0554_ps_dnn_180_airplane_10_n02690373_1592.png,n02690373_1592.png,0.0,-5.713294,-0.3126284,-3.8188474
alexnet_w3_mlp_simclrhn_probe0,1,555,NaN,elephant,elephant,0,0555_ps_dnn_0_elephant_10_n02504013_1953.png,n02504013_1953.png,1.0,5.191098,-1.723052,4.8890424
alexnet_w3_mlp_simclrhn_probe0,1,556,NaN,bear,elephant,150,0556_ps_dnn_150_elephant_10_n02504458_4348.png,n02504458_4348.png,0.0,-0.796441,-0.58573264,-0.14899333
alexnet_w3_mlp_simclrhn_probe0,1,557,NaN,bear,airplane,90,0557_ps_dnn_90_airplane_10_n02690373_1854.png,n02690373_1854.png,0.0,-10.571767,-1.930093,-6.1105866
alexnet_w3_mlp_simclrhn_probe0,1,558,NaN,bear,cat,180,0558_ps_dnn_180_cat_10_n02124075_14363.png,n02124075_14363.png,0.0,-1.8524427,0.16334702,-1.4253787
alexnet_w3_mlp_simclrhn_probe0,1,559,NaN,bottle,bottle,30,0559_ps_dnn_30_bottle_10_n03983396_3377.png,n03983396_3377.png,1.0,-1.5182573,-1.9989167,0.33987758
alexnet_w3_mlp_simclrhn_probe0,1,560,NaN,oven,clock,90,0560_ps_dnn_90_clock_10_n04548280_6743.png,n04548280_6743.png,0.0,-2.2366478,-1.5967345,-0.45248705
alexnet_w3_mlp_simclrhn_probe0,1,561,NaN,clock,clock,30,0561_ps_dnn_30_clock_10_n03196217_8034.png,n03196217_8034.png,1.0,-1.1312225,-1.1516849,0.014469097
alexnet_w3_mlp_simclrhn_probe0,1,562,NaN,bear,dog,150,0562_ps_dnn_150_dog_10_n02088094_13992.png,n02088094_13992.png,0.0,-3.4800467,0.11573867,-2.5426042
alexnet_w3_mlp_simclrhn_probe0,1,563,NaN,car,car,30,0563_ps_dnn_30_car_10_n03100240_6216.png,n03100240_6216.png,1.0,1.6657128,-0.72247505,1.6887039
alexnet_w3_mlp_simclrhn_probe0,1,564,NaN,oven,oven,30,0564_ps_dnn_30_oven_10_n04111531_2831.png,n04111531_2831.png,1.0,1.1722376,-2.296599,2.452838
alexnet_w3_mlp_simclrhn_probe0,1,565,NaN,knife,knife,0,0565_ps_dnn_0_knife_10_n03041632_927.png,n03041632_927.png,1.0,2.7707348,-1.3047168,2.8817797
alexnet_w3_mlp_simclrhn_probe0,1,566,NaN,elephant,knife,150,0566_ps_dnn_150_knife_10_n03041632_5427.png,n03041632_5427.png,0.0,-2.6474411,-0.024367765,-1.854793
alexnet_w3_mlp_simclrhn_probe0,1,567,NaN,bicycle,cat,180,0567_ps_dnn_180_cat_10_n02123045_8690.png,n02123045_8690.png,0.0,-2.9440634,-1.2178571,-1.2206122
alexnet_w3_mlp_simclrhn_probe0,1,568,NaN,clock,clock,90,0568_ps_dnn_90_clock_10_n02708093_6696.png,n02708093_6696.png,1.0,-1.1099805,-3.0554864,1.3756804
alexnet_w3_mlp_simclrhn_probe0,1,569,NaN,airplane,airplane,60,0569_ps_dnn_60_airplane_10_n02690373_7748.png,n02690373_7748.png,1.0,3.0586393,0.5014972,1.8081725
alexnet_w3_mlp_simclrhn_probe0,1,570,NaN,airplane,airplane,0,0570_ps_dnn_0_airplane_10_n02690373_20011.png,n02690373_20011.png,1.0,1.6563818,-2.8900084,3.2147837
alexnet_w3_mlp_simclrhn_probe0,1,571,NaN,elephant,boat,150,0571_ps_dnn_150_boat_10_n02951358_16728.png,n02951358_16728.png,0.0,-1.0164223,0.015390292,-0.7296017
alexnet_w3_mlp_simclrhn_probe0,1,572,NaN,airplane,truck,60,0572_ps_dnn_60_truck_10_n04467665_37833.png,n04467665_37833.png,0.0,-1.0330096,0.3304063,-0.9640807
alexnet_w3_mlp_simclrhn_probe0,1,573,NaN,oven,oven,0,0573_ps_dnn_0_oven_10_n04111531_22886.png,n04111531_22886.png,1.0,-1.5704648,-1.8067651,0.16708949
alexnet_w3_mlp_simclrhn_probe0,1,574,NaN,car,car,30,0574_ps_dnn_30_car_10_n04285008_5959.png,n04285008_5959.png,1.0,1.6865922,-2.9707394,3.2932308
alexnet_w3_mlp_simclrhn_probe0,1,575,NaN,elephant,boat,120,0575_ps_dnn_120_boat_10_n04273569_10840.png,n04273569_10840.png,0.0,-4.0986915,-0.79330635,-2.3372602
alexnet_w3_mlp_simclrhn_probe0,1,576,NaN,bear,clock,180,0576_ps_dnn_180_clock_10_n02708093_1352.png,n02708093_1352.png,0.0,-3.5144112,0.56319886,-2.8833058
alexnet_w3_mlp_simclrhn_probe0,1,577,NaN,oven,oven,120,0577_ps_dnn_120_oven_10_n04111531_1004.png,n04111531_1004.png,1.0,-0.711581,-1.4772677,0.5414223
alexnet_w3_mlp_simclrhn_probe0,1,578,NaN,elephant,car,180,0578_ps_dnn_180_car_10_n03100240_4619.png,n03100240_4619.png,0.0,-4.4352508,0.29105145,-3.3420002
alexnet_w3_mlp_simclrhn_probe0,1,579,NaN,bear,oven,180,0579_ps_dnn_180_oven_10_n04111531_15367.png,n04111531_15367.png,0.0,-2.9086428,-1.1199766,-1.264778
alexnet_w3_mlp_simclrhn_probe0,1,580,NaN,oven,oven,30,0580_ps_dnn_30_oven_10_n04111531_6903.png,n04111531_6903.png,1.0,-3.202283,-7.6984863,3.179296
alexnet_w3_mlp_simclrhn_probe0,1,581,NaN,oven,oven,60,0581_ps_dnn_60_oven_10_n04111531_1662.png,n04111531_1662.png,1.0,1.3413026,-0.4887783,1.2940627
alexnet_w3_mlp_simclrhn_probe0,1,582,NaN,keyboard,keyboard,0,0582_ps_dnn_0_keyboard_10_n04505470_1342.png,n04505470_1342.png,1.0,7.3730583,-1.0363625,5.9463587
alexnet_w3_mlp_simclrhn_probe0,1,583,NaN,boat,boat,60,0583_ps_dnn_60_boat_10_n02951358_1911.png,n02951358_1911.png,1.0,-0.61604786,-1.5644989,0.6706562
alexnet_w3_mlp_simclrhn_probe0,1,584,NaN,bicycle,bicycle,30,0584_ps_dnn_30_bicycle_10_n03792782_42927.png,n03792782_42927.png,1.0,1.0794075,-4.077142,3.6462312
alexnet_w3_mlp_simclrhn_probe0,1,585,NaN,bear,chair,180,0585_ps_dnn_180_chair_10_n02791124_3994.png,n02791124_3994.png,0.0,-4.6342645,-0.20776495,-3.1300077
alexnet_w3_mlp_simclrhn_probe0,1,586,NaN,dog,dog,0,0586_ps_dnn_0_dog_10_n02101388_1383.png,n02101388_1383.png,1.0,-0.8881282,-5.572909,3.3126402
alexnet_w3_mlp_simclrhn_probe0,1,587,NaN,chair,bear,30,0587_ps_dnn_30_bear_10_n02132136_9367.png,n02132136_9367.png,0.0,-6.3821945,-2.2525728,-2.9200835
alexnet_w3_mlp_simclrhn_probe0,1,588,NaN,bear,dog,150,0588_ps_dnn_150_dog_10_n02108915_7875.png,n02108915_7875.png,0.0,-1.8566488,-0.96035004,-0.6337789
alexnet_w3_mlp_simclrhn_probe0,1,589,NaN,bottle,chair,60,0589_ps_dnn_60_chair_10_n02791124_6237.png,n02791124_6237.png,0.0,-3.6948397,-2.7879586,-0.64126176
alexnet_w3_mlp_simclrhn_probe0,1,590,NaN,cat,bird,60,0590_ps_dnn_60_bird_10_n01622779_13896.png,n01622779_13896.png,0.0,-9.991844,-0.87067103,-6.449643
alexnet_w3_mlp_simclrhn_probe0,1,591,NaN,oven,boat,30,0591_ps_dnn_30_boat_10_n04273569_15583.png,n04273569_15583.png,0.0,-3.5680985,-2.8169014,-0.53117657
alexnet_w3_mlp_simclrhn_probe0,1,592,NaN,knife,bottle,0,0592_ps_dnn_0_bottle_10_n03937543_3079.png,n03937543_3079.png,0.0,-2.3171446,-0.6563025,-1.1743928
alexnet_w3_mlp_simclrhn_probe0,1,593,NaN,elephant,dog,150,0593_ps_dnn_150_dog_10_n02110063_5687.png,n02110063_5687.png,0.0,-2.4783306,-0.9358392,-1.0907062
alexnet_w3_mlp_simclrhn_probe0,1,594,NaN,truck,truck,30,0594_ps_dnn_30_truck_10_n03417042_6685.png,n03417042_6685.png,1.0,-0.14908618,-2.0143027,1.3189073
alexnet_w3_mlp_simclrhn_probe0,1,595,NaN,clock,clock,0,0595_ps_dnn_0_clock_10_n02708093_340.png,n02708093_340.png,1.0,6.471067,-0.2297095,4.7381644
alexnet_w3_mlp_simclrhn_probe0,1,596,NaN,elephant,dog,0,0596_ps_dnn_0_dog_10_n02111129_5463.png,n02111129_5463.png,0.0,-0.51050574,0.35092178,-0.60912126
alexnet_w3_mlp_simclrhn_probe0,1,597,NaN,bicycle,bicycle,90,0597_ps_dnn_90_bicycle_10_n03792782_17503.png,n03792782_17503.png,1.0,-0.16193557,-3.1971788,2.1462412
alexnet_w3_mlp_simclrhn_probe0,1,598,NaN,bear,bear,60,0598_ps_dnn_60_bear_10_n02134084_9253.png,n02134084_9253.png,1.0,-0.46733832,-1.8445063,0.97380483
alexnet_w3_mlp_simclrhn_probe0,1,599,NaN,car,car,30,0599_ps_dnn_30_car_10_n04285008_3688.png,n04285008_3688.png,1.0,-2.8799028,-3.6193619,0.5228765
alexnet_w3_mlp_simclrhn_probe0,1,600,NaN,bird,bird,150,0600_ps_dnn_150_bird_10_n01795545_17324.png,n01795545_17324.png,1.0,-1.4650431,-1.5801967,0.08142594
alexnet_w3_mlp_simclrhn_probe0,1,601,NaN,boat,boat,30,0601_ps_dnn_30_boat_10_n04273569_16064.png,n04273569_16064.png,1.0,3.0149825,-2.5126078,3.9085965
alexnet_w3_mlp_simclrhn_probe0,1,602,NaN,bear,elephant,180,0602_ps_dnn_180_elephant_10_n02504458_4395.png,n02504458_4395.png,0.0,-0.9993526,-0.586315,-0.2920617
alexnet_w3_mlp_simclrhn_probe0,1,603,NaN,oven,oven,30,0603_ps_dnn_30_oven_10_n04111531_21855.png,n04111531_21855.png,1.0,3.0576775,-2.2305017,3.7393076
alexnet_w3_mlp_simclrhn_probe0,1,604,NaN,oven,oven,30,0604_ps_dnn_30_oven_10_n04111531_11225.png,n04111531_11225.png,1.0,3.236944,-2.5670931,4.104074
alexnet_w3_mlp_simclrhn_probe0,1,605,NaN,oven,oven,150,0605_ps_dnn_150_oven_10_n04111531_13486.png,n04111531_13486.png,1.0,-1.0395259,-1.2561059,0.15314521
alexnet_w3_mlp_simclrhn_probe0,1,606,NaN,chair,chair,0,0606_ps_dnn_0_chair_10_n02791124_1693.png,n02791124_1693.png,1.0,0.081685126,-1.360198,1.0195653
alexnet_w3_mlp_simclrhn_probe0,1,607,NaN,oven,chair,150,0607_ps_dnn_150_chair_10_n04099969_26462.png,n04099969_26462.png,0.0,-4.5417514,-1.2190546,-2.3495014
alexnet_w3_mlp_simclrhn_probe0,1,608,NaN,oven,chair,120,0608_ps_dnn_120_chair_10_n04429376_16869.png,n04429376_16869.png,0.0,-3.7198825,-0.9125406,-1.9850905
alexnet_w3_mlp_simclrhn_probe0,1,609,NaN,knife,bottle,0,0609_ps_dnn_0_bottle_10_n03983396_23471.png,n03983396_23471.png,0.0,-5.252876,-3.139032,-1.4947134
alexnet_w3_mlp_simclrhn_probe0,1,610,NaN,bear,bear,0,0610_ps_dnn_0_bear_10_n02134084_5314.png,n02134084_5314.png,1.0,-0.47323704,-1.2033491,0.5162672
alexnet_w3_mlp_simclrhn_probe0,1,611,NaN,bear,elephant,180,0611_ps_dnn_180_elephant_10_n02504458_4564.png,n02504458_4564.png,0.0,-0.981668,0.73058647,-1.2107468
alexnet_w3_mlp_simclrhn_probe0,1,612,NaN,elephant,bear,0,0612_ps_dnn_0_bear_10_n02132136_6967.png,n02132136_6967.png,0.0,3.1667485,3.3220134,-0.109788835
alexnet_w3_mlp_simclrhn_probe0,1,613,NaN,cat,cat,0,0613_ps_dnn_0_cat_10_n02123394_6517.png,n02123394_6517.png,1.0,0.39245448,-2.5998313,2.1158655
alexnet_w3_mlp_simclrhn_probe0,1,614,NaN,keyboard,keyboard,150,0614_ps_dnn_150_keyboard_10_n04505470_1076.png,n04505470_1076.png,1.0,-1.430207,-1.7347864,0.21537015
alexnet_w3_mlp_simclrhn_probe0,1,615,NaN,cat,knife,180,0615_ps_dnn_180_knife_10_n03041632_5916.png,n03041632_5916.png,0.0,-2.6066632,-0.795921,-1.2803881
alexnet_w3_mlp_simclrhn_probe0,1,616,NaN,elephant,car,90,0616_ps_dnn_90_car_10_n03100240_4674.png,n03100240_4674.png,0.0,-6.69117,-1.4990152,-3.671408
alexnet_w3_mlp_simclrhn_probe0,1,617,NaN,bottle,bottle,90,0617_ps_dnn_90_bottle_10_n02823428_1602.png,n02823428_1602.png,1.0,-1.2891979,-2.971504,1.1895701
alexnet_w3_mlp_simclrhn_probe0,1,618,NaN,elephant,boat,90,0618_ps_dnn_90_boat_10_n04273569_27343.png,n04273569_27343.png,0.0,-0.95527667,-0.84244037,-0.079787314
alexnet_w3_mlp_simclrhn_probe0,1,619,NaN,bear,bottle,120,0619_ps_dnn_120_bottle_10_n04560804_15162.png,n04560804_15162.png,0.0,-4.013596,-0.7063705,-2.3385618
alexnet_w3_mlp_simclrhn_probe0,1,620,NaN,elephant,bottle,120,0620_ps_dnn_120_bottle_10_n03937543_24.png,n03937543_24.png,0.0,-1.7840497,-0.96699166,-0.57774734
alexnet_w3_mlp_simclrhn_probe0,1,621,NaN,bear,dog,180,0621_ps_dnn_180_dog_10_n02105162_9615.png,n02105162_9615.png,0.0,-1.9429913,0.35306865,-1.6235595
alexnet_w3_mlp_simclrhn_probe0,1,622,NaN,bear,bird,150,0622_ps_dnn_150_bird_10_n01582220_1150.png,n01582220_1150.png,0.0,-1.700506,-0.13610217,-1.1062006
alexnet_w3_mlp_simclrhn_probe0,1,623,NaN,bear,clock,180,0623_ps_dnn_180_clock_10_n04548280_4560.png,n04548280_4560.png,0.0,-3.653963,-0.9365032,-1.9215344
alexnet_w3_mlp_simclrhn_probe0,1,624,NaN,elephant,bottle,150,0624_ps_dnn_150_bottle_10_n04560804_14605.png,n04560804_14605.png,0.0,-3.9163933,-0.11666554,-2.6868134
alexnet_w3_mlp_simclrhn_probe0,1,625,NaN,chair,chair,0,0625_ps_dnn_0_chair_10_n03376595_262.png,n03376595_262.png,1.0,0.04196441,-3.0335855,2.1747425
alexnet_w3_mlp_simclrhn_probe0,1,626,NaN,bear,dog,180,0626_ps_dnn_180_dog_10_n02091032_6523.png,n02091032_6523.png,0.0,-1.7357253,0.40247864,-1.5119385
alexnet_w3_mlp_simclrhn_probe0,1,627,NaN,bear,cat,150,0627_ps_dnn_150_cat_10_n02123159_615.png,n02123159_615.png,0.0,-1.6506549,0.15997046,-1.2803055
alexnet_w3_mlp_simclrhn_probe0,1,628,NaN,bear,bottle,180,0628_ps_dnn_180_bottle_10_n04579145_6049.png,n04579145_6049.png,0.0,-2.50256,-1.0985644,-0.9927748
alexnet_w3_mlp_simclrhn_probe0,1,629,NaN,keyboard,bottle,90,0629_ps_dnn_90_bottle_10_n02823428_4386.png,n02823428_4386.png,0.0,-2.318682,2.6309843,-3.4999425
alexnet_w3_mlp_simclrhn_probe0,1,630,NaN,bear,car,150,0630_ps_dnn_150_car_10_n03100240_4594.png,n03100240_4594.png,0.0,-7.330118,-0.5595163,-4.7875385
alexnet_w3_mlp_simclrhn_probe0,1,631,NaN,knife,knife,120,0631_ps_dnn_120_knife_10_n03041632_51581.png,n03041632_51581.png,1.0,0.28893954,-0.58312064,0.6166397
alexnet_w3_mlp_simclrhn_probe0,1,632,NaN,keyboard,keyboard,60,0632_ps_dnn_60_keyboard_10_n03085013_15836.png,n03085013_15836.png,1.0,-1.8253329,-1.8939565,0.048524257
alexnet_w3_mlp_simclrhn_probe0,1,633,NaN,elephant,bicycle,180,0633_ps_dnn_180_bicycle_10_n03792782_34197.png,n03792782_34197.png,0.0,-1.8824644,-0.21217106,-1.1810758
alexnet_w3_mlp_simclrhn_probe0,1,634,NaN,elephant,bicycle,180,0634_ps_dnn_180_bicycle_10_n02835271_9314.png,n02835271_9314.png,0.0,-4.7055984,-0.38390583,-3.0558982
alexnet_w3_mlp_simclrhn_probe0,1,635,NaN,oven,oven,150,0635_ps_dnn_150_oven_10_n04111531_5643.png,n04111531_5643.png,1.0,-0.3826216,-0.97490907,0.4188105
alexnet_w3_mlp_simclrhn_probe0,1,636,NaN,bear,cat,180,0636_ps_dnn_180_cat_10_n02123394_6362.png,n02123394_6362.png,0.0,-1.5572501,0.7279373,-1.6158715
alexnet_w3_mlp_simclrhn_probe0,1,637,NaN,elephant,elephant,60,0637_ps_dnn_60_elephant_10_n02504458_3614.png,n02504458_3614.png,1.0,3.233468,-0.6709759,2.7608588
alexnet_w3_mlp_simclrhn_probe0,1,638,NaN,bear,chair,180,0638_ps_dnn_180_chair_10_n04099969_6691.png,n04099969_6691.png,0.0,-4.9117417,-1.6117411,-2.333453
