subj,session,trial,rt,object_response,category,condition,imagename,filename,is_correct,targ_act,max_nontarg_act,decision_margin
alexnet_w1_mlp_simclrhn_probe1,1,1,NaN,truck,truck,30,0001_ps_dnn_30_truck_10_n03417042_14861.png,n03417042_14861.png,1.0,3.4881625,-0.24355823,2.638725
alexnet_w1_mlp_simclrhn_probe1,1,2,NaN,keyboard,keyboard,0,0002_ps_dnn_0_keyboard_10_n03085013_25476.png,n03085013_25476.png,1.0,7.2576265,-0.529548,5.5063643
alexnet_w1_mlp_simclrhn_probe1,1,3,NaN,elephant,elephant,0,0003_ps_dnn_0_elephant_10_n02504013_3087.png,n02504013_3087.png,1.0,8.995811,-0.2842282,6.5619793
alexnet_w1_mlp_simclrhn_probe1,1,4,NaN,bear,cat,30,0004_ps_dnn_30_cat_10_n02123394_4633.png,n02123394_4633.png,0.0,2.3959303,2.7060492,-0.21928719
alexnet_w1_mlp_simclrhn_probe1,1,5,NaN,knife,knife,120,0005_ps_dnn_120_knife_10_n03041632_48151.png,n03041632_48151.png,1.0,0.1662244,-1.4620454,1.1513606
alexnet_w1_mlp_simclrhn_probe1,1,6,NaN,bicycle,bicycle,60,0006_ps_dnn_60_bicycle_10_n02835271_1075.png,n02835271_1075.png,1.0,5.900823,-4.0838003,7.0601945
alexnet_w1_mlp_simclrhn_probe1,1,7,NaN,elephant,bear,180,0007_ps_dnn_180_bear_10_n02134084_10289.png,n02134084_10289.png,0.0,-1.0442266,-0.8896747,-0.109284714
alexnet_w1_mlp_simclrhn_probe1,1,8,NaN,keyboard,keyboard,0,0008_ps_dnn_0_keyboard_10_n03085013_21967.png,n03085013_21967.png,1.0,2.7390347,0.9862787,1.2393856
alexnet_w1_mlp_simclrhn_probe1,1,9,NaN,oven,oven,150,0009_ps_dnn_150_oven_10_n04111531_5737.png,n04111531_5737.png,1.0,-1.5509626,-1.6191906,0.048244487
alexnet_w1_mlp_simclrhn_probe1,1,10,NaN,bicycle,elephant,60,0010_ps_dnn_60_elephant_10_n02504458_8141.png,n02504458_8141.png,0.0,0.79994065,0.95703685,-0.1110838
alexnet_w1_mlp_simclrhn_probe1,1,11,NaN,elephant,elephant,90,0011_ps_dnn_90_elephant_10_n02504458_3153.png,n02504458_3153.png,1.0,3.4080403,0.6483744,1.9513786
alexnet_w1_mlp_simclrhn_probe1,1,12,NaN,bear,bear,60,0012_ps_dnn_60_bear_10_n02134418_5807.png,n02134418_5807.png,1.0,1.8370351,0.066157535,1.2521995
alexnet_w1_mlp_simclrhn_probe1,1,13,NaN,boat,boat,0,0013_ps_dnn_0_boat_10_n04273569_15322.png,n04273569_15322.png,1.0,1.2390168,-1.7140496,2.0881333
alexnet_w1_mlp_simclrhn_probe1,1,14,NaN,chair,knife,0,0014_ps_dnn_0_knife_10_n03041632_42526.png,n03041632_42526.png,0.0,-1.5753299,-0.4598808,-0.7887416
alexnet_w1_mlp_simclrhn_probe1,1,15,NaN,bicycle,bicycle,30,0015_ps_dnn_30_bicycle_10_n02835271_5886.png,n02835271_5886.png,1.0,0.008219302,-3.1288261,2.2182262
alexnet_w1_mlp_simclrhn_probe1,1,16,NaN,knife,dog,180,0016_ps_dnn_180_dog_10_n02110063_869.png,n02110063_869.png,0.0,-2.155133,-1.1405917,-0.71738905
alexnet_w1_mlp_simclrhn_probe1,1,17,NaN,knife,bicycle,180,0017_ps_dnn_180_bicycle_10_n03792782_3334.png,n03792782_3334.png,0.0,-2.5895119,-1.334554,-0.88738924
alexnet_w1_mlp_simclrhn_probe1,1,18,NaN,airplane,airplane,0,0018_ps_dnn_0_airplane_10_n02690373_7355.png,n02690373_7355.png,1.0,6.113702,2.2402394,2.7389517
alexnet_w1_mlp_simclrhn_probe1,1,19,NaN,bird,bird,120,0019_ps_dnn_120_bird_10_n01798484_2289.png,n01798484_2289.png,1.0,-1.6802704,-1.7864281,0.0750648
alexnet_w1_mlp_simclrhn_probe1,1,20,NaN,elephant,knife,60,0020_ps_dnn_60_knife_10_n03041632_87380.png,n03041632_87380.png,0.0,-1.5763919,-1.3244171,-0.17817311
alexnet_w1_mlp_simclrhn_probe1,1,21,NaN,airplane,bird,0,0021_ps_dnn_0_bird_10_n02027492_15639.png,n02027492_15639.png,0.0,-5.083758,-0.44165415,-3.282463
alexnet_w1_mlp_simclrhn_probe1,1,22,NaN,bird,bird,0,0022_ps_dnn_0_bird_10_n02006656_7153.png,n02006656_7153.png,1.0,0.3653116,0.28682166,0.05550076
alexnet_w1_mlp_simclrhn_probe1,1,23,NaN,boat,boat,60,0023_ps_dnn_60_boat_10_n04612504_14699.png,n04612504_14699.png,1.0,1.1573403,-1.795265,2.0878072
alexnet_w1_mlp_simclrhn_probe1,1,24,NaN,bear,bear,60,0024_ps_dnn_60_bear_10_n02134418_5971.png,n02134418_5971.png,1.0,2.6715794,0.6419534,1.4351623
alexnet_w1_mlp_simclrhn_probe1,1,25,NaN,bear,dog,90,0025_ps_dnn_90_dog_10_n02110063_16680.png,n02110063_16680.png,0.0,-0.603241,-0.084223524,-0.36700082
alexnet_w1_mlp_simclrhn_probe1,1,26,NaN,oven,car,90,0026_ps_dnn_90_car_10_n03100240_6010.png,n03100240_6010.png,0.0,-6.7489624,0.123345375,-4.8594556
alexnet_w1_mlp_simclrhn_probe1,1,27,NaN,elephant,elephant,30,0027_ps_dnn_30_elephant_10_n02504458_9835.png,n02504458_9835.png,1.0,0.93055475,-0.85097367,1.2597309
alexnet_w1_mlp_simclrhn_probe1,1,28,NaN,airplane,airplane,30,0028_ps_dnn_30_airplane_10_n02690373_10207.png,n02690373_10207.png,1.0,4.214364,0.6017739,2.554487
alexnet_w1_mlp_simclrhn_probe1,1,29,NaN,knife,bottle,180,0029_ps_dnn_180_bottle_10_n03983396_5532.png,n03983396_5532.png,0.0,-4.8910723,-0.66325146,-2.9895208
alexnet_w1_mlp_simclrhn_probe1,1,30,NaN,dog,dog,30,0030_ps_dnn_30_dog_10_n02090622_1485.png,n02090622_1485.png,1.0,1.8137671,-0.7080758,1.7832123
alexnet_w1_mlp_simclrhn_probe1,1,31,NaN,knife,truck,150,0031_ps_dnn_150_truck_10_n03417042_5503.png,n03417042_5503.png,0.0,-7.8197937,-1.6748744,-4.345114
alexnet_w1_mlp_simclrhn_probe1,1,32,NaN,bear,bear,180,0032_ps_dnn_180_bear_10_n02133161_897.png,n02133161_897.png,1.0,-1.0893346,-1.3867705,0.21031894
alexnet_w1_mlp_simclrhn_probe1,1,33,NaN,knife,keyboard,180,0033_ps_dnn_180_keyboard_10_n04505470_4579.png,n04505470_4579.png,0.0,-1.6525257,-1.1282325,-0.37073126
alexnet_w1_mlp_simclrhn_probe1,1,34,NaN,bird,bird,60,0034_ps_dnn_60_bird_10_n01592084_5833.png,n01592084_5833.png,1.0,0.28666925,-1.6981949,1.4035109
alexnet_w1_mlp_simclrhn_probe1,1,35,NaN,dog,dog,0,0035_ps_dnn_0_dog_10_n02090379_3514.png,n02090379_3514.png,1.0,0.4950596,-0.9885201,1.0490493
alexnet_w1_mlp_simclrhn_probe1,1,36,NaN,knife,airplane,180,0036_ps_dnn_180_airplane_10_n02690373_6144.png,n02690373_6144.png,0.0,-8.864995,-0.6522124,-5.8073144
alexnet_w1_mlp_simclrhn_probe1,1,37,NaN,knife,airplane,90,0037_ps_dnn_90_airplane_10_n02690373_1436.png,n02690373_1436.png,0.0,-0.46663925,0.42410368,-0.6298503
alexnet_w1_mlp_simclrhn_probe1,1,38,NaN,oven,clock,120,0038_ps_dnn_120_clock_10_n04548280_354.png,n04548280_354.png,0.0,-3.374451,-1.310471,-1.4594542
alexnet_w1_mlp_simclrhn_probe1,1,39,NaN,keyboard,keyboard,0,0039_ps_dnn_0_keyboard_10_n03085013_2189.png,n03085013_2189.png,1.0,2.1614246,0.86567986,0.91622996
alexnet_w1_mlp_simclrhn_probe1,1,40,NaN,elephant,chair,120,0040_ps_dnn_120_chair_10_n04099969_9005.png,n04099969_9005.png,0.0,-7.2894444,-2.0942936,-3.6735265
alexnet_w1_mlp_simclrhn_probe1,1,41,NaN,knife,bicycle,180,0041_ps_dnn_180_bicycle_10_n02835271_7350.png,n02835271_7350.png,0.0,-2.5723672,-1.0884596,-1.0492811
alexnet_w1_mlp_simclrhn_probe1,1,42,NaN,knife,bottle,150,0042_ps_dnn_150_bottle_10_n04557648_8320.png,n04557648_8320.png,0.0,-2.5251615,-1.0390813,-1.0508174
alexnet_w1_mlp_simclrhn_probe1,1,43,NaN,dog,dog,0,0043_ps_dnn_0_dog_10_n02105641_6503.png,n02105641_6503.png,1.0,-0.08262277,-3.5907426,2.4806154
alexnet_w1_mlp_simclrhn_probe1,1,44,NaN,clock,clock,90,0044_ps_dnn_90_clock_10_n04548280_6022.png,n04548280_6022.png,1.0,0.45170888,-1.797757,1.5906126
alexnet_w1_mlp_simclrhn_probe1,1,45,NaN,keyboard,clock,60,0045_ps_dnn_60_clock_10_n03196217_7414.png,n03196217_7414.png,0.0,-1.8256322,0.6739708,-1.7674863
alexnet_w1_mlp_simclrhn_probe1,1,46,NaN,knife,oven,150,0046_ps_dnn_150_oven_10_n04111531_7965.png,n04111531_7965.png,0.0,-2.7569532,-1.1847892,-1.1116879
alexnet_w1_mlp_simclrhn_probe1,1,47,NaN,clock,bottle,90,0047_ps_dnn_90_bottle_10_n04579145_4594.png,n04579145_4594.png,0.0,-3.4399915,-2.8267872,-0.43360087
alexnet_w1_mlp_simclrhn_probe1,1,48,NaN,oven,bottle,30,0048_ps_dnn_30_bottle_10_n03983396_4564.png,n03983396_4564.png,0.0,-0.0993343,2.359607,-1.738734
alexnet_w1_mlp_simclrhn_probe1,1,49,NaN,cat,cat,60,0049_ps_dnn_60_cat_10_n02125311_54015.png,n02125311_54015.png,1.0,2.003914,0.6902954,0.92886865
alexnet_w1_mlp_simclrhn_probe1,1,50,NaN,knife,bicycle,150,0050_ps_dnn_150_bicycle_10_n03792782_5133.png,n03792782_5133.png,0.0,-2.2884245,-1.0643667,-0.8655396
alexnet_w1_mlp_simclrhn_probe1,1,51,NaN,elephant,bird,120,0051_ps_dnn_120_bird_10_n02018207_6296.png,n02018207_6296.png,0.0,-2.7822022,-0.92472947,-1.3134316
alexnet_w1_mlp_simclrhn_probe1,1,52,NaN,elephant,bird,30,0052_ps_dnn_30_bird_10_n01817953_11996.png,n01817953_11996.png,0.0,-6.3413935,2.2379446,-6.0665083
alexnet_w1_mlp_simclrhn_probe1,1,53,NaN,knife,keyboard,150,0053_ps_dnn_150_keyboard_10_n03085013_3148.png,n03085013_3148.png,0.0,-5.1991105,-1.0815301,-2.911569
alexnet_w1_mlp_simclrhn_probe1,1,54,NaN,bear,bear,60,0054_ps_dnn_60_bear_10_n02134418_5537.png,n02134418_5537.png,1.0,2.4009535,-0.18305565,1.8271705
alexnet_w1_mlp_simclrhn_probe1,1,55,NaN,knife,cat,150,0055_ps_dnn_150_cat_10_n02125311_11409.png,n02125311_11409.png,0.0,-3.682617,-0.97645056,-1.9135486
alexnet_w1_mlp_simclrhn_probe1,1,56,NaN,elephant,knife,30,0056_ps_dnn_30_knife_10_n03041632_3063.png,n03041632_3063.png,0.0,-6.9426517,-1.8066541,-3.6316988
alexnet_w1_mlp_simclrhn_probe1,1,57,NaN,bear,dog,60,0057_ps_dnn_60_dog_10_n02106550_6424.png,n02106550_6424.png,0.0,0.013455062,1.2872736,-0.9007258
alexnet_w1_mlp_simclrhn_probe1,1,58,NaN,elephant,bear,30,0058_ps_dnn_30_bear_10_n02133161_7032.png,n02133161_7032.png,0.0,0.75382245,1.1276462,-0.2643333
alexnet_w1_mlp_simclrhn_probe1,1,59,NaN,knife,cat,150,0059_ps_dnn_150_cat_10_n02125311_5570.png,n02125311_5570.png,0.0,-4.1449738,-0.7702639,-2.3862803
alexnet_w1_mlp_simclrhn_probe1,1,60,NaN,elephant,bird,30,0060_ps_dnn_30_bird_10_n01843383_13894.png,n01843383_13894.png,0.0,-1.1612958,0.57909554,-1.2306424
alexnet_w1_mlp_simclrhn_probe1,1,61,NaN,oven,bottle,60,0061_ps_dnn_60_bottle_10_n03983396_2205.png,n03983396_2205.png,0.0,-4.6311064,1.5725176,-4.3866243
alexnet_w1_mlp_simclrhn_probe1,1,62,NaN,bicycle,bicycle,60,0062_ps_dnn_60_bicycle_10_n03792782_31010.png,n03792782_31010.png,1.0,4.757407,-3.7415373,6.009661
alexnet_w1_mlp_simclrhn_probe1,1,63,NaN,bottle,bottle,60,0063_ps_dnn_60_bottle_10_n02823428_880.png,n02823428_880.png,1.0,3.6052449,-1.7363744,3.7770953
alexnet_w1_mlp_simclrhn_probe1,1,64,NaN,knife,car,180,0064_ps_dnn_180_car_10_n02814533_40459.png,n02814533_40459.png,0.0,-9.713829,-2.1866415,-5.3225255
alexnet_w1_mlp_simclrhn_probe1,1,65,NaN,bear,cat,120,0065_ps_dnn_120_cat_10_n02123045_567.png,n02123045_567.png,0.0,-2.5288389,-0.8030971,-1.2202837
alexnet_w1_mlp_simclrhn_probe1,1,66,NaN,bear,knife,120,0066_ps_dnn_120_knife_10_n03041632_24541.png,n03041632_24541.png,0.0,-1.5148256,-0.73313916,-0.5527358
alexnet_w1_mlp_simclrhn_probe1,1,67,NaN,elephant,elephant,30,0067_ps_dnn_30_elephant_10_n02504458_8644.png,n02504458_8644.png,1.0,4.1292744,-0.6464994,3.3769822
alexnet_w1_mlp_simclrhn_probe1,1,68,NaN,keyboard,keyboard,0,0068_ps_dnn_0_keyboard_10_n03085013_2166.png,n03085013_2166.png,1.0,2.5784516,0.33613992,1.5855539
alexnet_w1_mlp_simclrhn_probe1,1,69,NaN,bear,boat,90,0069_ps_dnn_90_boat_10_n04273569_13972.png,n04273569_13972.png,0.0,-3.3604386,-1.2396605,-1.4996166
alexnet_w1_mlp_simclrhn_probe1,1,70,NaN,knife,airplane,150,0070_ps_dnn_150_airplane_10_n02690373_9432.png,n02690373_9432.png,0.0,-6.970156,-1.1188042,-4.1375303
alexnet_w1_mlp_simclrhn_probe1,1,71,NaN,oven,truck,90,0071_ps_dnn_90_truck_10_n03417042_5228.png,n03417042_5228.png,0.0,-6.2036543,-0.23034091,-4.2237706
alexnet_w1_mlp_simclrhn_probe1,1,72,NaN,airplane,airplane,0,0072_ps_dnn_0_airplane_10_n02690373_4294.png,n02690373_4294.png,1.0,7.814729,2.24723,3.9368165
alexnet_w1_mlp_simclrhn_probe1,1,73,NaN,knife,chair,30,0073_ps_dnn_30_chair_10_n04099969_52474.png,n04099969_52474.png,0.0,-2.0653474,-0.7962564,-0.89738286
alexnet_w1_mlp_simclrhn_probe1,1,74,NaN,oven,oven,30,0074_ps_dnn_30_oven_10_n04111531_21822.png,n04111531_21822.png,1.0,3.17625,0.16061497,2.132376
alexnet_w1_mlp_simclrhn_probe1,1,75,NaN,oven,oven,150,0075_ps_dnn_150_oven_10_n04111531_15735.png,n04111531_15735.png,1.0,-0.47903538,-0.63632405,0.11121989
alexnet_w1_mlp_simclrhn_probe1,1,76,NaN,elephant,dog,120,0076_ps_dnn_120_dog_10_n02104029_7335.png,n02104029_7335.png,0.0,-1.9549282,-0.8629209,-0.7721658
alexnet_w1_mlp_simclrhn_probe1,1,77,NaN,knife,truck,150,0077_ps_dnn_150_truck_10_n03417042_17911.png,n03417042_17911.png,0.0,-9.956976,-2.0147076,-5.616032
alexnet_w1_mlp_simclrhn_probe1,1,78,NaN,bicycle,clock,30,0078_ps_dnn_30_clock_10_n02708093_899.png,n02708093_899.png,0.0,-5.0318627,-1.3676665,-2.5909781
alexnet_w1_mlp_simclrhn_probe1,1,79,NaN,boat,boat,60,0079_ps_dnn_60_boat_10_n03662601_9590.png,n03662601_9590.png,1.0,3.0382237,-0.99463093,2.8516588
alexnet_w1_mlp_simclrhn_probe1,1,80,NaN,bear,chair,90,0080_ps_dnn_90_chair_10_n02791124_6550.png,n02791124_6550.png,0.0,-8.311184,0.2497841,-6.053519
alexnet_w1_mlp_simclrhn_probe1,1,81,NaN,knife,clock,180,0081_ps_dnn_180_clock_10_n03196217_4492.png,n03196217_4492.png,0.0,-2.3747604,-0.38492936,-1.407023
alexnet_w1_mlp_simclrhn_probe1,1,82,NaN,car,car,30,0082_ps_dnn_30_car_10_n04285008_14128.png,n04285008_14128.png,1.0,8.370984,3.1372054,3.7008407
alexnet_w1_mlp_simclrhn_probe1,1,83,NaN,bicycle,bicycle,60,0083_ps_dnn_60_bicycle_10_n02835271_4730.png,n02835271_4730.png,1.0,0.8770206,-2.9178166,2.683355
alexnet_w1_mlp_simclrhn_probe1,1,84,NaN,elephant,elephant,0,0084_ps_dnn_0_elephant_10_n02504458_62.png,n02504458_62.png,1.0,10.037218,-1.2704525,7.995731
alexnet_w1_mlp_simclrhn_probe1,1,85,NaN,bear,dog,120,0085_ps_dnn_120_dog_10_n02086646_8144.png,n02086646_8144.png,0.0,-2.442624,-0.87617874,-1.1076442
alexnet_w1_mlp_simclrhn_probe1,1,86,NaN,knife,knife,60,0086_ps_dnn_60_knife_10_n03041632_1671.png,n03041632_1671.png,1.0,-3.287609,-4.4715753,0.8371905
alexnet_w1_mlp_simclrhn_probe1,1,87,NaN,cat,bird,180,0087_ps_dnn_180_bird_10_n01534433_10801.png,n01534433_10801.png,0.0,-4.2400975,0.090273775,-3.062035
alexnet_w1_mlp_simclrhn_probe1,1,88,NaN,knife,keyboard,150,0088_ps_dnn_150_keyboard_10_n03085013_20570.png,n03085013_20570.png,0.0,-7.3742976,-1.0698951,-4.4578857
alexnet_w1_mlp_simclrhn_probe1,1,89,NaN,knife,knife,150,0089_ps_dnn_150_knife_10_n03041632_4808.png,n03041632_4808.png,1.0,-0.95328873,-1.5950437,0.45378926
alexnet_w1_mlp_simclrhn_probe1,1,90,NaN,elephant,keyboard,180,0090_ps_dnn_180_keyboard_10_n03085013_1808.png,n03085013_1808.png,0.0,-3.9105177,-0.67635006,-2.286902
alexnet_w1_mlp_simclrhn_probe1,1,91,NaN,knife,truck,120,0091_ps_dnn_120_truck_10_n03796401_4370.png,n03796401_4370.png,0.0,-8.041391,-2.1537232,-4.16321
alexnet_w1_mlp_simclrhn_probe1,1,92,NaN,airplane,airplane,60,0092_ps_dnn_60_airplane_10_n02690373_6314.png,n02690373_6314.png,1.0,4.2484794,0.20588207,2.858548
alexnet_w1_mlp_simclrhn_probe1,1,93,NaN,oven,oven,90,0093_ps_dnn_90_oven_10_n04111531_4879.png,n04111531_4879.png,1.0,-0.6116351,-2.4650335,1.3105506
alexnet_w1_mlp_simclrhn_probe1,1,94,NaN,knife,airplane,180,0094_ps_dnn_180_airplane_10_n02690373_4375.png,n02690373_4375.png,0.0,-6.566826,-0.7986124,-4.078743
alexnet_w1_mlp_simclrhn_probe1,1,95,NaN,bottle,bottle,60,0095_ps_dnn_60_bottle_10_n04557648_4133.png,n04557648_4133.png,1.0,-0.84933746,-1.2013416,0.24890454
alexnet_w1_mlp_simclrhn_probe1,1,96,NaN,elephant,bicycle,120,0096_ps_dnn_120_bicycle_10_n02835271_19213.png,n02835271_19213.png,0.0,-2.4390578,-1.8910706,-0.38748547
alexnet_w1_mlp_simclrhn_probe1,1,97,NaN,knife,bear,150,0097_ps_dnn_150_bear_10_n02132136_10577.png,n02132136_10577.png,0.0,-1.5313555,-1.5206814,-0.007547742
alexnet_w1_mlp_simclrhn_probe1,1,98,NaN,airplane,airplane,90,0098_ps_dnn_90_airplane_10_n02690373_3147.png,n02690373_3147.png,1.0,-0.01866329,-0.19478628,0.124537766
alexnet_w1_mlp_simclrhn_probe1,1,99,NaN,elephant,elephant,60,0099_ps_dnn_60_elephant_10_n02504013_10389.png,n02504013_10389.png,1.0,5.033575,1.936614,2.1898823
alexnet_w1_mlp_simclrhn_probe1,1,100,NaN,knife,chair,150,0100_ps_dnn_150_chair_10_n02791124_5685.png,n02791124_5685.png,0.0,-5.7529783,-1.4557698,-3.0385854
alexnet_w1_mlp_simclrhn_probe1,1,101,NaN,oven,bird,60,0101_ps_dnn_60_bird_10_n01817953_6333.png,n01817953_6333.png,0.0,-6.0313535,-2.5107265,-2.4894593
alexnet_w1_mlp_simclrhn_probe1,1,102,NaN,knife,keyboard,90,0102_ps_dnn_90_keyboard_10_n03085013_20247.png,n03085013_20247.png,0.0,-1.2944009,0.013451621,-0.9247914
alexnet_w1_mlp_simclrhn_probe1,1,103,NaN,airplane,airplane,0,0103_ps_dnn_0_airplane_10_n02690373_5729.png,n02690373_5729.png,1.0,6.803658,-1.2220689,5.6750464
alexnet_w1_mlp_simclrhn_probe1,1,104,NaN,bicycle,bicycle,90,0104_ps_dnn_90_bicycle_10_n03792782_55532.png,n03792782_55532.png,1.0,1.9846286,-3.4322271,3.8302956
alexnet_w1_mlp_simclrhn_probe1,1,105,NaN,bicycle,bicycle,0,0105_ps_dnn_0_bicycle_10_n02835271_8417.png,n02835271_8417.png,1.0,8.856533,-1.492451,7.3178368
alexnet_w1_mlp_simclrhn_probe1,1,106,NaN,oven,clock,60,0106_ps_dnn_60_clock_10_n03196217_599.png,n03196217_599.png,0.0,-1.7306986,1.0897019,-1.9943243
alexnet_w1_mlp_simclrhn_probe1,1,107,NaN,airplane,airplane,0,0107_ps_dnn_0_airplane_10_n02690373_1952.png,n02690373_1952.png,1.0,2.8453603,-0.6493546,2.4711366
alexnet_w1_mlp_simclrhn_probe1,1,108,NaN,elephant,bear,180,0108_ps_dnn_180_bear_10_n02134084_23061.png,n02134084_23061.png,0.0,-1.8013673,-1.5587945,-0.17152487
alexnet_w1_mlp_simclrhn_probe1,1,109,NaN,knife,bicycle,150,0109_ps_dnn_150_bicycle_10_n03792782_27445.png,n03792782_27445.png,0.0,-3.1121736,-1.3278458,-1.2617103
alexnet_w1_mlp_simclrhn_probe1,1,110,NaN,bottle,clock,30,0110_ps_dnn_30_clock_10_n03196217_6348.png,n03196217_6348.png,0.0,-3.9518306,-1.2075769,-1.9404804
alexnet_w1_mlp_simclrhn_probe1,1,111,NaN,bear,bear,90,0111_ps_dnn_90_bear_10_n02132136_5778.png,n02132136_5778.png,1.0,0.40064836,0.3488372,0.03663602
alexnet_w1_mlp_simclrhn_probe1,1,112,NaN,knife,boat,90,0112_ps_dnn_90_boat_10_n04273569_4772.png,n04273569_4772.png,0.0,-2.2756426,-1.1946726,-0.76436126
alexnet_w1_mlp_simclrhn_probe1,1,113,NaN,knife,oven,180,0113_ps_dnn_180_oven_10_n04111531_23830.png,n04111531_23830.png,0.0,-3.6276274,-2.5878682,-0.7352208
alexnet_w1_mlp_simclrhn_probe1,1,114,NaN,elephant,bird,150,0114_ps_dnn_150_bird_10_n01855032_1306.png,n01855032_1306.png,0.0,-2.6982756,-0.27821282,-1.7112428
alexnet_w1_mlp_simclrhn_probe1,1,115,NaN,elephant,elephant,60,0115_ps_dnn_60_elephant_10_n02504013_8905.png,n02504013_8905.png,1.0,5.6830554,2.9082859,1.9620584
alexnet_w1_mlp_simclrhn_probe1,1,116,NaN,oven,truck,60,0116_ps_dnn_60_truck_10_n04467665_30461.png,n04467665_30461.png,0.0,-3.4548926,-2.0164776,-1.0171131
alexnet_w1_mlp_simclrhn_probe1,1,117,NaN,bear,knife,60,0117_ps_dnn_60_knife_10_n03041632_20662.png,n03041632_20662.png,0.0,-0.7303424,-0.46326107,-0.18885502
alexnet_w1_mlp_simclrhn_probe1,1,118,NaN,knife,boat,180,0118_ps_dnn_180_boat_10_n03662601_15915.png,n03662601_15915.png,0.0,-6.130777,-2.2615128,-2.735983
alexnet_w1_mlp_simclrhn_probe1,1,119,NaN,elephant,boat,150,0119_ps_dnn_150_boat_10_n04273569_62.png,n04273569_62.png,0.0,-2.9613636,-0.8618778,-1.4845607
alexnet_w1_mlp_simclrhn_probe1,1,120,NaN,knife,bicycle,180,0120_ps_dnn_180_bicycle_10_n03792782_8080.png,n03792782_8080.png,0.0,-3.73576,-1.1792192,-1.8077474
alexnet_w1_mlp_simclrhn_probe1,1,121,NaN,elephant,airplane,120,0121_ps_dnn_120_airplane_10_n02690373_10309.png,n02690373_10309.png,0.0,-6.420682,-1.2445673,-3.6600657
alexnet_w1_mlp_simclrhn_probe1,1,122,NaN,cat,dog,30,0122_ps_dnn_30_dog_10_n02093859_1001.png,n02093859_1001.png,0.0,0.019990657,0.5194613,-0.35317907
alexnet_w1_mlp_simclrhn_probe1,1,123,NaN,oven,oven,0,0123_ps_dnn_0_oven_10_n04111531_15267.png,n04111531_15267.png,1.0,4.8654113,-2.1877997,4.9873734
alexnet_w1_mlp_simclrhn_probe1,1,124,NaN,bear,cat,90,0124_ps_dnn_90_cat_10_n02124075_81.png,n02124075_81.png,0.0,-1.8021393,-1.0701394,-0.5176021
alexnet_w1_mlp_simclrhn_probe1,1,125,NaN,elephant,elephant,60,0125_ps_dnn_60_elephant_10_n02504013_7314.png,n02504013_7314.png,1.0,1.3964188,0.44726267,0.6711548
alexnet_w1_mlp_simclrhn_probe1,1,126,NaN,knife,bottle,120,0126_ps_dnn_120_bottle_10_n03983396_3294.png,n03983396_3294.png,0.0,-2.5624964,-1.2196405,-0.9495425
alexnet_w1_mlp_simclrhn_probe1,1,127,NaN,cat,cat,60,0127_ps_dnn_60_cat_10_n02123159_3201.png,n02123159_3201.png,1.0,5.105709,-1.0063671,4.321891
alexnet_w1_mlp_simclrhn_probe1,1,128,NaN,bear,dog,90,0128_ps_dnn_90_dog_10_n02101388_11601.png,n02101388_11601.png,0.0,-0.30271417,0.05581574,-0.25351894
alexnet_w1_mlp_simclrhn_probe1,1,129,NaN,dog,cat,30,0129_ps_dnn_30_cat_10_n02123597_4442.png,n02123597_4442.png,0.0,0.606349,0.91661125,-0.21938856
alexnet_w1_mlp_simclrhn_probe1,1,130,NaN,airplane,airplane,30,0130_ps_dnn_30_airplane_10_n02690373_1950.png,n02690373_1950.png,1.0,3.1276145,0.37758178,1.9445667
alexnet_w1_mlp_simclrhn_probe1,1,131,NaN,bear,bird,120,0131_ps_dnn_120_bird_10_n01616318_4652.png,n01616318_4652.png,0.0,-5.373627,0.62557423,-4.242076
alexnet_w1_mlp_simclrhn_probe1,1,132,NaN,boat,airplane,90,0132_ps_dnn_90_airplane_10_n02690373_17937.png,n02690373_17937.png,0.0,-0.5510644,-0.21559194,-0.23721483
alexnet_w1_mlp_simclrhn_probe1,1,133,NaN,clock,clock,30,0133_ps_dnn_30_clock_10_n02708093_1125.png,n02708093_1125.png,1.0,3.301162,-0.5723087,2.7389574
alexnet_w1_mlp_simclrhn_probe1,1,134,NaN,bear,elephant,150,0134_ps_dnn_150_elephant_10_n02504458_6499.png,n02504458_6499.png,0.0,-1.4508189,-0.98028827,-0.3327154
alexnet_w1_mlp_simclrhn_probe1,1,135,NaN,bicycle,clock,30,0135_ps_dnn_30_clock_10_n02708093_51.png,n02708093_51.png,0.0,-3.6953728,-1.8237294,-1.3234518
alexnet_w1_mlp_simclrhn_probe1,1,136,NaN,oven,bicycle,90,0136_ps_dnn_90_bicycle_10_n02835271_13180.png,n02835271_13180.png,0.0,-3.1675043,1.1991097,-3.0876622
alexnet_w1_mlp_simclrhn_probe1,1,137,NaN,elephant,cat,120,0137_ps_dnn_120_cat_10_n02123597_7297.png,n02123597_7297.png,0.0,-2.3753765,-0.71857893,-1.1715328
alexnet_w1_mlp_simclrhn_probe1,1,138,NaN,oven,clock,30,0138_ps_dnn_30_clock_10_n04548280_1109.png,n04548280_1109.png,0.0,-5.766186,-1.2130686,-3.2195406
alexnet_w1_mlp_simclrhn_probe1,1,139,NaN,clock,clock,60,0139_ps_dnn_60_clock_10_n04548280_1304.png,n04548280_1304.png,1.0,-0.76159954,-4.0189915,2.303324
alexnet_w1_mlp_simclrhn_probe1,1,140,NaN,knife,bird,180,0140_ps_dnn_180_bird_10_n01833805_8179.png,n01833805_8179.png,0.0,-3.3706875,-0.62620616,-1.9406414
alexnet_w1_mlp_simclrhn_probe1,1,141,NaN,bottle,bottle,60,0141_ps_dnn_60_bottle_10_n03983396_24525.png,n03983396_24525.png,1.0,0.64560217,-1.753783,1.6966215
alexnet_w1_mlp_simclrhn_probe1,1,142,NaN,oven,elephant,120,0142_ps_dnn_120_elephant_10_n02504013_5945.png,n02504013_5945.png,0.0,-1.7291765,-1.2971218,-0.30550885
alexnet_w1_mlp_simclrhn_probe1,1,143,NaN,oven,airplane,120,0143_ps_dnn_120_airplane_10_n02690373_13610.png,n02690373_13610.png,0.0,-5.8140025,-0.73845553,-3.588954
alexnet_w1_mlp_simclrhn_probe1,1,144,NaN,elephant,knife,90,0144_ps_dnn_90_knife_10_n03041632_21859.png,n03041632_21859.png,0.0,-2.162397,-0.88541985,-0.90295917
alexnet_w1_mlp_simclrhn_probe1,1,145,NaN,cat,cat,60,0145_ps_dnn_60_cat_10_n02123045_568.png,n02123045_568.png,1.0,1.323814,0.6569966,0.47151113
alexnet_w1_mlp_simclrhn_probe1,1,146,NaN,knife,clock,180,0146_ps_dnn_180_clock_10_n02708093_960.png,n02708093_960.png,0.0,-3.653263,-1.5711246,-1.4722943
alexnet_w1_mlp_simclrhn_probe1,1,147,NaN,bear,bicycle,120,0147_ps_dnn_120_bicycle_10_n02835271_9669.png,n02835271_9669.png,0.0,-1.9061396,-1.5175769,-0.2747553
alexnet_w1_mlp_simclrhn_probe1,1,148,NaN,cat,cat,60,0148_ps_dnn_60_cat_10_n02123597_14647.png,n02123597_14647.png,1.0,0.6340223,0.61629224,0.012537044
alexnet_w1_mlp_simclrhn_probe1,1,149,NaN,bicycle,bicycle,0,0149_ps_dnn_0_bicycle_10_n02835271_7794.png,n02835271_7794.png,1.0,4.2880874,-3.6088111,5.5839505
alexnet_w1_mlp_simclrhn_probe1,1,150,NaN,bird,bird,0,0150_ps_dnn_0_bird_10_n02011460_5925.png,n02011460_5925.png,1.0,-1.281312,-2.6529963,0.9699273
alexnet_w1_mlp_simclrhn_probe1,1,151,NaN,bear,oven,90,0151_ps_dnn_90_oven_10_n04111531_8852.png,n04111531_8852.png,0.0,-1.2513376,-0.94890714,-0.21385066
alexnet_w1_mlp_simclrhn_probe1,1,152,NaN,oven,knife,90,0152_ps_dnn_90_knife_10_n03041632_84086.png,n03041632_84086.png,0.0,-4.8603745,1.4016258,-4.4279027
alexnet_w1_mlp_simclrhn_probe1,1,153,NaN,car,car,60,0153_ps_dnn_60_car_10_n03100240_13602.png,n03100240_13602.png,1.0,7.36865,1.9976716,3.7978554
alexnet_w1_mlp_simclrhn_probe1,1,154,NaN,knife,dog,180,0154_ps_dnn_180_dog_10_n02106662_43958.png,n02106662_43958.png,0.0,-3.4905329,-0.92639214,-1.8131213
alexnet_w1_mlp_simclrhn_probe1,1,155,NaN,knife,chair,30,0155_ps_dnn_30_chair_10_n02791124_1292.png,n02791124_1292.png,0.0,-2.940091,-1.5275229,-0.9988364
alexnet_w1_mlp_simclrhn_probe1,1,156,NaN,bear,dog,90,0156_ps_dnn_90_dog_10_n02085782_4522.png,n02085782_4522.png,0.0,-1.3399153,2.4147744,-2.6549666
alexnet_w1_mlp_simclrhn_probe1,1,157,NaN,bear,bear,60,0157_ps_dnn_60_bear_10_n02132136_686.png,n02132136_686.png,1.0,4.7358446,1.6832619,2.158502
alexnet_w1_mlp_simclrhn_probe1,1,158,NaN,elephant,bird,120,0158_ps_dnn_120_bird_10_n01796340_12914.png,n01796340_12914.png,0.0,-3.3875852,-1.3188521,-1.4628153
alexnet_w1_mlp_simclrhn_probe1,1,159,NaN,bottle,knife,60,0159_ps_dnn_60_knife_10_n03041632_24060.png,n03041632_24060.png,0.0,-0.058394723,0.66900295,-0.51434785
alexnet_w1_mlp_simclrhn_probe1,1,160,NaN,knife,bottle,180,0160_ps_dnn_180_bottle_10_n03983396_4775.png,n03983396_4775.png,0.0,-2.1717484,-0.5920712,-1.1170005
alexnet_w1_mlp_simclrhn_probe1,1,161,NaN,bear,keyboard,120,0161_ps_dnn_120_keyboard_10_n04505470_1516.png,n04505470_1516.png,0.0,-8.147131,-2.548787,-3.958627
alexnet_w1_mlp_simclrhn_probe1,1,162,NaN,knife,boat,150,0162_ps_dnn_150_boat_10_n03344393_4944.png,n03344393_4944.png,0.0,-4.7187734,-0.8205588,-2.756454
alexnet_w1_mlp_simclrhn_probe1,1,163,NaN,knife,cat,150,0163_ps_dnn_150_cat_10_n02123159_3524.png,n02123159_3524.png,0.0,-4.304651,-0.4753397,-2.707732
alexnet_w1_mlp_simclrhn_probe1,1,164,NaN,airplane,truck,60,0164_ps_dnn_60_truck_10_n04467665_50648.png,n04467665_50648.png,0.0,-2.8503747,0.7781316,-2.5657413
alexnet_w1_mlp_simclrhn_probe1,1,165,NaN,knife,dog,0,0165_ps_dnn_0_dog_10_n02107574_1277.png,n02107574_1277.png,0.0,-2.3221352,-1.946329,-0.26573512
alexnet_w1_mlp_simclrhn_probe1,1,166,NaN,oven,oven,60,0166_ps_dnn_60_oven_10_n04111531_21980.png,n04111531_21980.png,1.0,3.716939,-1.298536,3.5464764
alexnet_w1_mlp_simclrhn_probe1,1,167,NaN,oven,boat,120,0167_ps_dnn_120_boat_10_n03344393_11315.png,n03344393_11315.png,0.0,-4.128869,-1.3047721,-1.9969381
alexnet_w1_mlp_simclrhn_probe1,1,168,NaN,oven,knife,90,0168_ps_dnn_90_knife_10_n03041632_32896.png,n03041632_32896.png,0.0,-0.70841604,0.6225513,-0.9411361
alexnet_w1_mlp_simclrhn_probe1,1,169,NaN,bottle,bottle,30,0169_ps_dnn_30_bottle_10_n03937543_3133.png,n03937543_3133.png,1.0,-1.1541764,-1.5936886,0.3107821
alexnet_w1_mlp_simclrhn_probe1,1,170,NaN,oven,car,180,0170_ps_dnn_180_car_10_n04285008_15213.png,n04285008_15213.png,0.0,-9.7015295,-1.3105321,-5.933331
alexnet_w1_mlp_simclrhn_probe1,1,171,NaN,oven,elephant,90,0171_ps_dnn_90_elephant_10_n02504013_3081.png,n02504013_3081.png,0.0,-0.530817,0.35669065,-0.62756264
alexnet_w1_mlp_simclrhn_probe1,1,172,NaN,cat,cat,60,0172_ps_dnn_60_cat_10_n02123159_6873.png,n02123159_6873.png,1.0,0.26695094,-1.8744696,1.5142131
alexnet_w1_mlp_simclrhn_probe1,1,173,NaN,bottle,bottle,60,0173_ps_dnn_60_bottle_10_n04579145_4385.png,n04579145_4385.png,1.0,3.4419918,-2.9423738,4.514428
alexnet_w1_mlp_simclrhn_probe1,1,174,NaN,bear,bear,60,0174_ps_dnn_60_bear_10_n02134418_2185.png,n02134418_2185.png,1.0,2.0797715,0.24721998,1.2958096
alexnet_w1_mlp_simclrhn_probe1,1,175,NaN,bear,chair,150,0175_ps_dnn_150_chair_10_n04429376_16002.png,n04429376_16002.png,0.0,-6.5175242,-1.9743869,-3.2124834
alexnet_w1_mlp_simclrhn_probe1,1,176,NaN,bicycle,car,60,0176_ps_dnn_60_car_10_n03100240_8107.png,n03100240_8107.png,0.0,-2.518121,0.1031549,-1.853522
alexnet_w1_mlp_simclrhn_probe1,1,177,NaN,boat,boat,60,0177_ps_dnn_60_boat_10_n04273569_15906.png,n04273569_15906.png,1.0,0.24560623,-1.7758054,1.429354
alexnet_w1_mlp_simclrhn_probe1,1,178,NaN,elephant,car,150,0178_ps_dnn_150_car_10_n02814533_85659.png,n02814533_85659.png,0.0,-8.506572,-2.3436525,-4.357842
alexnet_w1_mlp_simclrhn_probe1,1,179,NaN,oven,car,150,0179_ps_dnn_150_car_10_n02814533_87140.png,n02814533_87140.png,0.0,-12.6722,-1.6799074,-7.7727246
alexnet_w1_mlp_simclrhn_probe1,1,180,NaN,keyboard,keyboard,30,0180_ps_dnn_30_keyboard_10_n03085013_7520.png,n03085013_7520.png,1.0,5.2719727,0.3689424,3.4669662
alexnet_w1_mlp_simclrhn_probe1,1,181,NaN,bear,dog,90,0181_ps_dnn_90_dog_10_n02112018_10082.png,n02112018_10082.png,0.0,0.0057258015,2.3077788,-1.6277972
alexnet_w1_mlp_simclrhn_probe1,1,182,NaN,oven,bear,90,0182_ps_dnn_90_bear_10_n02134084_5733.png,n02134084_5733.png,0.0,-0.31823242,0.6653792,-0.6955185
alexnet_w1_mlp_simclrhn_probe1,1,183,NaN,bear,cat,90,0183_ps_dnn_90_cat_10_n02123597_3821.png,n02123597_3821.png,0.0,-0.1947248,1.2857149,-1.046829
alexnet_w1_mlp_simclrhn_probe1,1,184,NaN,knife,boat,120,0184_ps_dnn_120_boat_10_n04612504_15256.png,n04612504_15256.png,0.0,-5.7977977,-1.2307153,-3.229415
alexnet_w1_mlp_simclrhn_probe1,1,185,NaN,oven,car,90,0185_ps_dnn_90_car_10_n02814533_84296.png,n02814533_84296.png,0.0,-7.013748,-1.3702906,-3.9905272
alexnet_w1_mlp_simclrhn_probe1,1,186,NaN,bear,clock,120,0186_ps_dnn_120_clock_10_n04548280_5295.png,n04548280_5295.png,0.0,-3.6641018,-1.3266407,-1.6528345
alexnet_w1_mlp_simclrhn_probe1,1,187,NaN,airplane,airplane,30,0187_ps_dnn_30_airplane_10_n02690373_11799.png,n02690373_11799.png,1.0,4.774191,-1.1785709,4.209238
alexnet_w1_mlp_simclrhn_probe1,1,188,NaN,elephant,dog,120,0188_ps_dnn_120_dog_10_n02092002_9876.png,n02092002_9876.png,0.0,-4.0153,-1.2214868,-1.9755242
alexnet_w1_mlp_simclrhn_probe1,1,189,NaN,chair,chair,0,0189_ps_dnn_0_chair_10_n02791124_16885.png,n02791124_16885.png,1.0,0.96389365,-1.9289291,2.0455346
alexnet_w1_mlp_simclrhn_probe1,1,190,NaN,bicycle,airplane,60,0190_ps_dnn_60_airplane_10_n02690373_9376.png,n02690373_9376.png,0.0,-3.2303658,0.3697132,-2.5456405
alexnet_w1_mlp_simclrhn_probe1,1,191,NaN,knife,oven,180,0191_ps_dnn_180_oven_10_n04111531_6474.png,n04111531_6474.png,0.0,-2.2537675,-1.4819517,-0.54575616
alexnet_w1_mlp_simclrhn_probe1,1,192,NaN,elephant,knife,180,0192_ps_dnn_180_knife_10_n03041632_44230.png,n03041632_44230.png,0.0,-1.1947447,-0.8781819,-0.22384372
alexnet_w1_mlp_simclrhn_probe1,1,193,NaN,bear,dog,180,0193_ps_dnn_180_dog_10_n02099601_6318.png,n02099601_6318.png,0.0,-2.540606,-1.0687137,-1.0407851
alexnet_w1_mlp_simclrhn_probe1,1,194,NaN,knife,cat,150,0194_ps_dnn_150_cat_10_n02125311_20241.png,n02125311_20241.png,0.0,-2.322072,-1.8302329,-0.34778282
alexnet_w1_mlp_simclrhn_probe1,1,195,NaN,oven,truck,120,0195_ps_dnn_120_truck_10_n04467665_51397.png,n04467665_51397.png,0.0,-8.511119,-2.0159042,-4.59281
alexnet_w1_mlp_simclrhn_probe1,1,196,NaN,dog,dog,0,0196_ps_dnn_0_dog_10_n02104365_1500.png,n02104365_1500.png,1.0,-0.26496387,-2.0139086,1.2366908
alexnet_w1_mlp_simclrhn_probe1,1,197,NaN,knife,knife,90,0197_ps_dnn_90_knife_10_n03041632_3171.png,n03041632_3171.png,1.0,0.19104375,-2.2412233,1.7198726
alexnet_w1_mlp_simclrhn_probe1,1,198,NaN,oven,oven,60,0198_ps_dnn_60_oven_10_n04111531_249.png,n04111531_249.png,1.0,3.7167892,-1.5271395,3.7080178
alexnet_w1_mlp_simclrhn_probe1,1,199,NaN,elephant,bear,90,0199_ps_dnn_90_bear_10_n02133161_8856.png,n02133161_8856.png,0.0,-1.1275482,-1.0115132,-0.082049124
alexnet_w1_mlp_simclrhn_probe1,1,200,NaN,cat,cat,0,0200_ps_dnn_0_cat_10_n02123045_13354.png,n02123045_13354.png,1.0,8.553653,-4.043194,8.907316
alexnet_w1_mlp_simclrhn_probe1,1,201,NaN,keyboard,keyboard,120,0201_ps_dnn_120_keyboard_10_n03085013_23267.png,n03085013_23267.png,1.0,-0.7962438,-1.1204588,0.22925466
alexnet_w1_mlp_simclrhn_probe1,1,202,NaN,oven,truck,30,0202_ps_dnn_30_truck_10_n03796401_22643.png,n03796401_22643.png,0.0,0.60644764,1.9074173,-0.91992444
alexnet_w1_mlp_simclrhn_probe1,1,203,NaN,knife,elephant,180,0203_ps_dnn_180_elephant_10_n02504458_4572.png,n02504458_4572.png,0.0,-0.8969931,-0.2554927,-0.4536093
alexnet_w1_mlp_simclrhn_probe1,1,204,NaN,knife,truck,180,0204_ps_dnn_180_truck_10_n04467665_23173.png,n04467665_23173.png,0.0,-7.394393,-0.9727382,-4.540796
alexnet_w1_mlp_simclrhn_probe1,1,205,NaN,bear,bear,180,0205_ps_dnn_180_bear_10_n02134418_25040.png,n02134418_25040.png,1.0,-0.9893385,-1.1933525,0.14425965
alexnet_w1_mlp_simclrhn_probe1,1,206,NaN,bicycle,bicycle,60,0206_ps_dnn_60_bicycle_10_n02835271_21185.png,n02835271_21185.png,1.0,3.2099657,-2.6371624,4.134544
alexnet_w1_mlp_simclrhn_probe1,1,207,NaN,knife,boat,30,0207_ps_dnn_30_boat_10_n02951358_12664.png,n02951358_12664.png,0.0,-2.8300529,-1.1239488,-1.2063978
alexnet_w1_mlp_simclrhn_probe1,1,208,NaN,bottle,bottle,30,0208_ps_dnn_30_bottle_10_n03983396_11519.png,n03983396_11519.png,1.0,3.7591584,0.35498255,2.4071157
alexnet_w1_mlp_simclrhn_probe1,1,209,NaN,knife,knife,120,0209_ps_dnn_120_knife_10_n03041632_36280.png,n03041632_36280.png,1.0,-0.50872624,-1.9685057,1.03222
alexnet_w1_mlp_simclrhn_probe1,1,210,NaN,boat,truck,60,0210_ps_dnn_60_truck_10_n04467665_67115.png,n04467665_67115.png,0.0,-3.543363,0.018874025,-2.518882
alexnet_w1_mlp_simclrhn_probe1,1,211,NaN,bear,bear,30,0211_ps_dnn_30_bear_10_n02133161_1560.png,n02133161_1560.png,1.0,-0.88976336,-1.6307006,0.5239217
alexnet_w1_mlp_simclrhn_probe1,1,212,NaN,knife,truck,180,0212_ps_dnn_180_truck_10_n03417042_6780.png,n03417042_6780.png,0.0,-9.3922415,-1.3464006,-5.689269
alexnet_w1_mlp_simclrhn_probe1,1,213,NaN,bear,bear,150,0213_ps_dnn_150_bear_10_n02134084_20261.png,n02134084_20261.png,1.0,-0.32672125,-0.7170354,0.2759938
alexnet_w1_mlp_simclrhn_probe1,1,214,NaN,keyboard,chair,180,0214_ps_dnn_180_chair_10_n03376595_8377.png,n03376595_8377.png,0.0,-6.966078,-2.3772511,-3.2447906
alexnet_w1_mlp_simclrhn_probe1,1,215,NaN,elephant,bird,180,0215_ps_dnn_180_bird_10_n01824575_3556.png,n01824575_3556.png,0.0,-2.9788654,-0.97729963,-1.4153208
alexnet_w1_mlp_simclrhn_probe1,1,216,NaN,oven,chair,90,0216_ps_dnn_90_chair_10_n04099969_36004.png,n04099969_36004.png,0.0,-3.7237806,-3.2103024,-0.363084
alexnet_w1_mlp_simclrhn_probe1,1,217,NaN,bicycle,bicycle,0,0217_ps_dnn_0_bicycle_10_n02835271_22549.png,n02835271_22549.png,1.0,9.801084,1.1173759,6.140309
alexnet_w1_mlp_simclrhn_probe1,1,218,NaN,knife,clock,150,0218_ps_dnn_150_clock_10_n04548280_8535.png,n04548280_8535.png,0.0,-1.7321997,-1.2517017,-0.33976337
alexnet_w1_mlp_simclrhn_probe1,1,219,NaN,bear,knife,120,0219_ps_dnn_120_knife_10_n03041632_14546.png,n03041632_14546.png,0.0,-2.7480395,-1.4616102,-0.9096429
alexnet_w1_mlp_simclrhn_probe1,1,220,NaN,keyboard,keyboard,0,0220_ps_dnn_0_keyboard_10_n04505470_4974.png,n04505470_4974.png,1.0,10.944374,1.2161698,6.8788795
alexnet_w1_mlp_simclrhn_probe1,1,221,NaN,clock,clock,0,0221_ps_dnn_0_clock_10_n04548280_487.png,n04548280_487.png,1.0,4.8537364,-1.2009583,4.281316
alexnet_w1_mlp_simclrhn_probe1,1,222,NaN,truck,truck,30,0222_ps_dnn_30_truck_10_n03417042_10401.png,n03417042_10401.png,1.0,6.1829176,2.5643606,2.5587063
alexnet_w1_mlp_simclrhn_probe1,1,223,NaN,keyboard,clock,180,0223_ps_dnn_180_clock_10_n03196217_6257.png,n03196217_6257.png,0.0,-2.9636905,-1.0368632,-1.3624727
alexnet_w1_mlp_simclrhn_probe1,1,224,NaN,bear,elephant,120,0224_ps_dnn_120_elephant_10_n02504458_1698.png,n02504458_1698.png,0.0,-0.58684635,-0.38307777,-0.14408615
alexnet_w1_mlp_simclrhn_probe1,1,225,NaN,knife,keyboard,180,0225_ps_dnn_180_keyboard_10_n03085013_23014.png,n03085013_23014.png,0.0,-3.6710474,-0.7101898,-2.0936425
alexnet_w1_mlp_simclrhn_probe1,1,226,NaN,elephant,cat,60,0226_ps_dnn_60_cat_10_n02125311_17002.png,n02125311_17002.png,0.0,0.57811177,2.1905224,-1.1401465
alexnet_w1_mlp_simclrhn_probe1,1,227,NaN,elephant,boat,180,0227_ps_dnn_180_boat_10_n03344393_5566.png,n03344393_5566.png,0.0,-3.1108806,-0.8995285,-1.563662
alexnet_w1_mlp_simclrhn_probe1,1,228,NaN,knife,bicycle,150,0228_ps_dnn_150_bicycle_10_n02835271_4887.png,n02835271_4887.png,0.0,-7.2940726,-1.1408615,-4.3509774
alexnet_w1_mlp_simclrhn_probe1,1,229,NaN,oven,keyboard,120,0229_ps_dnn_120_keyboard_10_n04505470_8386.png,n04505470_8386.png,0.0,-5.283938,1.2730231,-4.6364717
alexnet_w1_mlp_simclrhn_probe1,1,230,NaN,bear,bear,120,0230_ps_dnn_120_bear_10_n02133161_361.png,n02133161_361.png,1.0,0.35227653,-0.26568672,0.436966
alexnet_w1_mlp_simclrhn_probe1,1,231,NaN,elephant,bottle,0,0231_ps_dnn_0_bottle_10_n04560804_2165.png,n04560804_2165.png,0.0,-3.466261,-1.581221,-1.3329245
alexnet_w1_mlp_simclrhn_probe1,1,232,NaN,knife,cat,150,0232_ps_dnn_150_cat_10_n02124075_14020.png,n02124075_14020.png,0.0,-2.319507,-0.5802432,-1.2298453
alexnet_w1_mlp_simclrhn_probe1,1,233,NaN,knife,clock,150,0233_ps_dnn_150_clock_10_n04548280_3301.png,n04548280_3301.png,0.0,-3.3676958,-2.2542102,-0.7873532
alexnet_w1_mlp_simclrhn_probe1,1,234,NaN,bear,knife,180,0234_ps_dnn_180_knife_10_n03041632_5820.png,n03041632_5820.png,0.0,-2.938786,-0.06427522,-2.032586
alexnet_w1_mlp_simclrhn_probe1,1,235,NaN,oven,oven,120,0235_ps_dnn_120_oven_10_n04111531_2922.png,n04111531_2922.png,1.0,-1.9553039,-2.4782016,0.36974454
alexnet_w1_mlp_simclrhn_probe1,1,236,NaN,bear,bear,120,0236_ps_dnn_120_bear_10_n02134084_7441.png,n02134084_7441.png,1.0,-0.47437924,-0.7856977,0.22013539
alexnet_w1_mlp_simclrhn_probe1,1,237,NaN,knife,airplane,150,0237_ps_dnn_150_airplane_10_n02690373_8252.png,n02690373_8252.png,0.0,-5.433484,-0.4460119,-3.5266755
alexnet_w1_mlp_simclrhn_probe1,1,238,NaN,knife,bird,150,0238_ps_dnn_150_bird_10_n02018207_69.png,n02018207_69.png,0.0,-3.6763206,-1.9958215,-1.1882923
alexnet_w1_mlp_simclrhn_probe1,1,239,NaN,bird,bird,30,0239_ps_dnn_30_bird_10_n01798484_5355.png,n01798484_5355.png,1.0,-0.8118437,-1.2614583,0.3179255
alexnet_w1_mlp_simclrhn_probe1,1,240,NaN,knife,keyboard,150,0240_ps_dnn_150_keyboard_10_n03085013_4999.png,n03085013_4999.png,0.0,-3.0200648,-1.5247678,-1.0573347
alexnet_w1_mlp_simclrhn_probe1,1,241,NaN,oven,dog,120,0241_ps_dnn_120_dog_10_n02111500_3041.png,n02111500_3041.png,0.0,-2.9035711,-0.7344793,-1.5337795
alexnet_w1_mlp_simclrhn_probe1,1,242,NaN,boat,boat,0,0242_ps_dnn_0_boat_10_n04612504_15237.png,n04612504_15237.png,1.0,2.560733,-1.2861538,2.7201598
alexnet_w1_mlp_simclrhn_probe1,1,243,NaN,knife,truck,150,0243_ps_dnn_150_truck_10_n03417042_6480.png,n03417042_6480.png,0.0,-9.336486,-1.1706804,-5.774097
alexnet_w1_mlp_simclrhn_probe1,1,244,NaN,elephant,airplane,180,0244_ps_dnn_180_airplane_10_n02690373_8382.png,n02690373_8382.png,0.0,-7.422266,-0.2236193,-5.090212
alexnet_w1_mlp_simclrhn_probe1,1,245,NaN,oven,bottle,120,0245_ps_dnn_120_bottle_10_n04591713_2345.png,n04591713_2345.png,0.0,-2.7068264,0.4880706,-2.2591336
alexnet_w1_mlp_simclrhn_probe1,1,246,NaN,elephant,elephant,60,0246_ps_dnn_60_elephant_10_n02504458_9516.png,n02504458_9516.png,1.0,3.415953,0.9852293,1.7187812
alexnet_w1_mlp_simclrhn_probe1,1,247,NaN,knife,elephant,180,0247_ps_dnn_180_elephant_10_n02504013_698.png,n02504013_698.png,0.0,-2.8007197,-0.81681323,-1.4028338
alexnet_w1_mlp_simclrhn_probe1,1,248,NaN,bear,bear,0,0248_ps_dnn_0_bear_10_n02133161_5292.png,n02133161_5292.png,1.0,4.317048,0.6898991,2.5647817
alexnet_w1_mlp_simclrhn_probe1,1,249,NaN,bicycle,boat,90,0249_ps_dnn_90_boat_10_n02951358_14341.png,n02951358_14341.png,0.0,-1.6233549,-0.89481556,-0.51515514
alexnet_w1_mlp_simclrhn_probe1,1,250,NaN,elephant,bear,120,0250_ps_dnn_120_bear_10_n02133161_2304.png,n02133161_2304.png,0.0,-1.1557051,-0.9205903,-0.16625129
alexnet_w1_mlp_simclrhn_probe1,1,251,NaN,bear,airplane,150,0251_ps_dnn_150_airplane_10_n02690373_1751.png,n02690373_1751.png,0.0,-9.053272,-0.07958095,-6.345358
alexnet_w1_mlp_simclrhn_probe1,1,252,NaN,knife,truck,150,0252_ps_dnn_150_truck_10_n04467665_48953.png,n04467665_48953.png,0.0,-7.1541553,-0.8981422,-4.4236693
alexnet_w1_mlp_simclrhn_probe1,1,253,NaN,oven,oven,0,0253_ps_dnn_0_oven_10_n04111531_10077.png,n04111531_10077.png,1.0,7.6617184,-0.9533817,6.0917954
alexnet_w1_mlp_simclrhn_probe1,1,254,NaN,knife,dog,150,0254_ps_dnn_150_dog_10_n02097209_821.png,n02097209_821.png,0.0,-3.1845083,-1.3013886,-1.3315667
alexnet_w1_mlp_simclrhn_probe1,1,255,NaN,truck,truck,0,0255_ps_dnn_0_truck_10_n04467665_13231.png,n04467665_13231.png,1.0,0.29878113,-0.6988364,0.7054221
alexnet_w1_mlp_simclrhn_probe1,1,256,NaN,elephant,dog,90,0256_ps_dnn_90_dog_10_n02107908_3447.png,n02107908_3447.png,0.0,-1.9027841,-1.4018264,-0.3542306
alexnet_w1_mlp_simclrhn_probe1,1,257,NaN,knife,elephant,180,0257_ps_dnn_180_elephant_10_n02504013_5021.png,n02504013_5021.png,0.0,-1.4929645,-1.2838285,-0.1478815
alexnet_w1_mlp_simclrhn_probe1,1,258,NaN,oven,knife,90,0258_ps_dnn_90_knife_10_n03041632_12242.png,n03041632_12242.png,0.0,-1.9520757,-1.2121705,-0.52319205
alexnet_w1_mlp_simclrhn_probe1,1,259,NaN,knife,keyboard,150,0259_ps_dnn_150_keyboard_10_n03085013_22821.png,n03085013_22821.png,0.0,-4.188348,-0.581838,-2.5501876
alexnet_w1_mlp_simclrhn_probe1,1,260,NaN,knife,cat,150,0260_ps_dnn_150_cat_10_n02124075_2080.png,n02124075_2080.png,0.0,-3.3246896,-1.0056472,-1.6398107
alexnet_w1_mlp_simclrhn_probe1,1,261,NaN,knife,bicycle,180,0261_ps_dnn_180_bicycle_10_n02835271_7296.png,n02835271_7296.png,0.0,-2.7870367,-1.6580391,-0.79832184
alexnet_w1_mlp_simclrhn_probe1,1,262,NaN,knife,boat,180,0262_ps_dnn_180_boat_10_n04612504_4302.png,n04612504_4302.png,0.0,-4.075456,-0.8227973,-2.299977
alexnet_w1_mlp_simclrhn_probe1,1,263,NaN,elephant,clock,150,0263_ps_dnn_150_clock_10_n04548280_4524.png,n04548280_4524.png,0.0,-5.127915,-0.016259342,-3.6144865
alexnet_w1_mlp_simclrhn_probe1,1,264,NaN,elephant,knife,150,0264_ps_dnn_150_knife_10_n03041632_19275.png,n03041632_19275.png,0.0,-1.747079,-0.5770835,-0.8273118
alexnet_w1_mlp_simclrhn_probe1,1,265,NaN,bird,bird,30,0265_ps_dnn_30_bird_10_n01796340_2973.png,n01796340_2973.png,1.0,1.2716402,-2.3272216,2.5447795
alexnet_w1_mlp_simclrhn_probe1,1,266,NaN,oven,chair,90,0266_ps_dnn_90_chair_10_n02791124_15407.png,n02791124_15407.png,0.0,-5.189389,1.2827506,-4.576494
alexnet_w1_mlp_simclrhn_probe1,1,267,NaN,dog,dog,30,0267_ps_dnn_30_dog_10_n02109525_72594.png,n02109525_72594.png,1.0,0.77571416,-2.6667013,2.4341555
alexnet_w1_mlp_simclrhn_probe1,1,268,NaN,elephant,knife,150,0268_ps_dnn_150_knife_10_n03041632_19614.png,n03041632_19614.png,0.0,-1.2621808,-1.0839565,-0.12602364
alexnet_w1_mlp_simclrhn_probe1,1,269,NaN,keyboard,keyboard,30,0269_ps_dnn_30_keyboard_10_n04505470_5111.png,n04505470_5111.png,1.0,7.863469,1.1827232,4.724001
alexnet_w1_mlp_simclrhn_probe1,1,270,NaN,bicycle,bicycle,30,0270_ps_dnn_30_bicycle_10_n03792782_8374.png,n03792782_8374.png,1.0,4.535712,-4.3551106,6.286761
alexnet_w1_mlp_simclrhn_probe1,1,271,NaN,knife,boat,120,0271_ps_dnn_120_boat_10_n04612504_2024.png,n04612504_2024.png,0.0,-5.297014,-1.2996986,-2.826529
alexnet_w1_mlp_simclrhn_probe1,1,272,NaN,bicycle,bicycle,30,0272_ps_dnn_30_bicycle_10_n02835271_9860.png,n02835271_9860.png,1.0,1.9062228,-0.35373187,1.5980293
alexnet_w1_mlp_simclrhn_probe1,1,273,NaN,bear,bear,60,0273_ps_dnn_60_bear_10_n02134084_21921.png,n02134084_21921.png,1.0,3.584427,2.1607766,1.006673
alexnet_w1_mlp_simclrhn_probe1,1,274,NaN,bear,bear,90,0274_ps_dnn_90_bear_10_n02134418_836.png,n02134418_836.png,1.0,0.88562214,-0.38922304,0.90145165
alexnet_w1_mlp_simclrhn_probe1,1,275,NaN,oven,chair,60,0275_ps_dnn_60_chair_10_n04429376_6141.png,n04429376_6141.png,0.0,-3.31382,0.84859586,-2.9432724
alexnet_w1_mlp_simclrhn_probe1,1,276,NaN,truck,truck,30,0276_ps_dnn_30_truck_10_n04467665_6523.png,n04467665_6523.png,1.0,2.0207694,0.63609517,0.9791125
alexnet_w1_mlp_simclrhn_probe1,1,277,NaN,chair,chair,90,0277_ps_dnn_90_chair_10_n04429376_41755.png,n04429376_41755.png,1.0,-3.2655559,-3.765063,0.35320494
alexnet_w1_mlp_simclrhn_probe1,1,278,NaN,knife,bottle,180,0278_ps_dnn_180_bottle_10_n04579145_3302.png,n04579145_3302.png,0.0,-2.6557584,-0.07725535,-1.8232771
alexnet_w1_mlp_simclrhn_probe1,1,279,NaN,cat,cat,0,0279_ps_dnn_0_cat_10_n02123045_12297.png,n02123045_12297.png,1.0,4.2581363,-3.5714722,5.5363693
alexnet_w1_mlp_simclrhn_probe1,1,280,NaN,bottle,clock,60,0280_ps_dnn_60_clock_10_n04548280_5734.png,n04548280_5734.png,0.0,-2.6651738,-2.238994,-0.3013547
alexnet_w1_mlp_simclrhn_probe1,1,281,NaN,oven,elephant,90,0281_ps_dnn_90_elephant_10_n02504013_3640.png,n02504013_3640.png,0.0,-2.9043612,0.16668001,-2.171554
alexnet_w1_mlp_simclrhn_probe1,1,282,NaN,knife,car,0,0282_ps_dnn_0_car_10_n03100240_2108.png,n03100240_2108.png,0.0,-4.9849944,-1.066716,-2.7706413
alexnet_w1_mlp_simclrhn_probe1,1,283,NaN,oven,car,90,0283_ps_dnn_90_car_10_n02814533_8499.png,n02814533_8499.png,0.0,-10.054616,-1.1170511,-6.319813
alexnet_w1_mlp_simclrhn_probe1,1,284,NaN,bear,knife,180,0284_ps_dnn_180_knife_10_n03041632_9406.png,n03041632_9406.png,0.0,-3.428228,-0.99064004,-1.7236348
alexnet_w1_mlp_simclrhn_probe1,1,285,NaN,clock,clock,120,0285_ps_dnn_120_clock_10_n04548280_3968.png,n04548280_3968.png,1.0,-1.8008143,-2.0695386,0.19001679
alexnet_w1_mlp_simclrhn_probe1,1,286,NaN,elephant,boat,120,0286_ps_dnn_120_boat_10_n04273569_20587.png,n04273569_20587.png,0.0,-3.6105905,-1.111881,-1.7668544
alexnet_w1_mlp_simclrhn_probe1,1,287,NaN,oven,truck,150,0287_ps_dnn_150_truck_10_n03796401_7261.png,n03796401_7261.png,0.0,-6.999947,-1.2596178,-4.059026
alexnet_w1_mlp_simclrhn_probe1,1,288,NaN,bear,boat,90,0288_ps_dnn_90_boat_10_n04273569_18037.png,n04273569_18037.png,0.0,-2.410611,0.008163441,-1.7103318
alexnet_w1_mlp_simclrhn_probe1,1,289,NaN,knife,bicycle,180,0289_ps_dnn_180_bicycle_10_n02835271_4789.png,n02835271_4789.png,0.0,-3.9632602,-1.2308369,-1.9321151
alexnet_w1_mlp_simclrhn_probe1,1,290,NaN,oven,chair,90,0290_ps_dnn_90_chair_10_n04099969_18380.png,n04099969_18380.png,0.0,-4.3503437,-0.609556,-2.6451364
alexnet_w1_mlp_simclrhn_probe1,1,291,NaN,knife,dog,120,0291_ps_dnn_120_dog_10_n02100583_13688.png,n02100583_13688.png,0.0,-7.0027714,-1.996211,-3.5401728
alexnet_w1_mlp_simclrhn_probe1,1,292,NaN,knife,boat,180,0292_ps_dnn_180_boat_10_n03662601_8065.png,n03662601_8065.png,0.0,-3.941869,-1.498311,-1.7278564
alexnet_w1_mlp_simclrhn_probe1,1,293,NaN,boat,boat,0,0293_ps_dnn_0_boat_10_n02951358_15218.png,n02951358_15218.png,1.0,1.6501062,-0.79350305,1.7278926
alexnet_w1_mlp_simclrhn_probe1,1,294,NaN,knife,knife,180,0294_ps_dnn_180_knife_10_n03041632_24277.png,n03041632_24277.png,1.0,-1.2699587,-1.595467,0.23016909
alexnet_w1_mlp_simclrhn_probe1,1,295,NaN,bear,bird,90,0295_ps_dnn_90_bird_10_n01601694_2723.png,n01601694_2723.png,0.0,-2.0980055,0.64176106,-1.9373076
alexnet_w1_mlp_simclrhn_probe1,1,296,NaN,oven,keyboard,120,0296_ps_dnn_120_keyboard_10_n04505470_4724.png,n04505470_4724.png,0.0,-0.20060371,0.19349001,-0.27866635
alexnet_w1_mlp_simclrhn_probe1,1,297,NaN,knife,bear,150,0297_ps_dnn_150_bear_10_n02134418_1642.png,n02134418_1642.png,0.0,-2.4437037,-0.6007521,-1.3031635
alexnet_w1_mlp_simclrhn_probe1,1,298,NaN,oven,truck,60,0298_ps_dnn_60_truck_10_n03417042_13055.png,n03417042_13055.png,0.0,-2.2497866,0.7142144,-2.0958652
alexnet_w1_mlp_simclrhn_probe1,1,299,NaN,knife,bear,120,0299_ps_dnn_120_bear_10_n02133161_1629.png,n02133161_1629.png,0.0,-2.7436166,-1.0666327,-1.1858066
alexnet_w1_mlp_simclrhn_probe1,1,300,NaN,knife,bottle,180,0300_ps_dnn_180_bottle_10_n04579145_1856.png,n04579145_1856.png,0.0,-2.8563073,-0.51506734,-1.6555066
alexnet_w1_mlp_simclrhn_probe1,1,301,NaN,knife,chair,150,0301_ps_dnn_150_chair_10_n04099969_3768.png,n04099969_3768.png,0.0,-6.563526,-1.7618909,-3.395269
alexnet_w1_mlp_simclrhn_probe1,1,302,NaN,knife,bird,120,0302_ps_dnn_120_bird_10_n02009229_5172.png,n02009229_5172.png,0.0,-4.3446126,-1.9642783,-1.6831506
alexnet_w1_mlp_simclrhn_probe1,1,303,NaN,airplane,airplane,90,0303_ps_dnn_90_airplane_10_n02690373_21731.png,n02690373_21731.png,1.0,0.13258421,-1.2793734,0.9984048
alexnet_w1_mlp_simclrhn_probe1,1,304,NaN,bear,bear,30,0304_ps_dnn_30_bear_10_n02133161_959.png,n02133161_959.png,1.0,-0.61759746,-0.71283466,0.06734287
alexnet_w1_mlp_simclrhn_probe1,1,305,NaN,chair,chair,0,0305_ps_dnn_0_chair_10_n04099969_1028.png,n04099969_1028.png,1.0,0.7413502,-0.13262632,0.6179947
alexnet_w1_mlp_simclrhn_probe1,1,306,NaN,bear,knife,180,0306_ps_dnn_180_knife_10_n03041632_44212.png,n03041632_44212.png,0.0,-3.1904473,-2.266834,-0.6530932
alexnet_w1_mlp_simclrhn_probe1,1,307,NaN,oven,oven,120,0307_ps_dnn_120_oven_10_n04111531_9344.png,n04111531_9344.png,1.0,-0.8364739,-1.6560295,0.5795133
alexnet_w1_mlp_simclrhn_probe1,1,308,NaN,elephant,car,180,0308_ps_dnn_180_car_10_n04285008_9080.png,n04285008_9080.png,0.0,-11.534949,0.16720234,-8.274671
alexnet_w1_mlp_simclrhn_probe1,1,309,NaN,car,car,60,0309_ps_dnn_60_car_10_n03100240_17349.png,n03100240_17349.png,1.0,1.1964153,0.68800205,0.35950246
alexnet_w1_mlp_simclrhn_probe1,1,310,NaN,cat,dog,30,0310_ps_dnn_30_dog_10_n02110958_1335.png,n02110958_1335.png,0.0,-3.3749278,-3.1767538,-0.14013018
alexnet_w1_mlp_simclrhn_probe1,1,311,NaN,knife,elephant,150,0311_ps_dnn_150_elephant_10_n02504013_7305.png,n02504013_7305.png,0.0,-3.0537963,0.14620267,-2.2627409
alexnet_w1_mlp_simclrhn_probe1,1,312,NaN,oven,dog,90,0312_ps_dnn_90_dog_10_n02091244_2626.png,n02091244_2626.png,0.0,-6.131949,-0.6310773,-3.8897038
alexnet_w1_mlp_simclrhn_probe1,1,313,NaN,knife,bird,150,0313_ps_dnn_150_bird_10_n01828970_22.png,n01828970_22.png,0.0,-1.9156951,-0.86241186,-0.7447837
alexnet_w1_mlp_simclrhn_probe1,1,314,NaN,cat,cat,60,0314_ps_dnn_60_cat_10_n02124075_13587.png,n02124075_13587.png,1.0,1.0939083,0.4154726,0.4797265
alexnet_w1_mlp_simclrhn_probe1,1,315,NaN,bear,knife,120,0315_ps_dnn_120_knife_10_n03041632_13612.png,n03041632_13612.png,0.0,-1.8098946,-0.5826093,-0.86782175
alexnet_w1_mlp_simclrhn_probe1,1,316,NaN,elephant,bicycle,90,0316_ps_dnn_90_bicycle_10_n02835271_2581.png,n02835271_2581.png,0.0,-2.891011,0.30225587,-2.2579806
alexnet_w1_mlp_simclrhn_probe1,1,317,NaN,knife,clock,30,0317_ps_dnn_30_clock_10_n03196217_2536.png,n03196217_2536.png,0.0,-0.43125448,0.37070101,-0.56706816
alexnet_w1_mlp_simclrhn_probe1,1,318,NaN,cat,cat,90,0318_ps_dnn_90_cat_10_n02124075_15001.png,n02124075_15001.png,1.0,-1.0419066,-1.7206311,0.47993073
alexnet_w1_mlp_simclrhn_probe1,1,319,NaN,bear,bear,60,0319_ps_dnn_60_bear_10_n02133161_6152.png,n02133161_6152.png,1.0,-0.73770213,-1.3081628,0.4033766
alexnet_w1_mlp_simclrhn_probe1,1,320,NaN,oven,chair,30,0320_ps_dnn_30_chair_10_n04099969_8401.png,n04099969_8401.png,0.0,-0.20507286,3.4352036,-2.5740643
alexnet_w1_mlp_simclrhn_probe1,1,321,NaN,oven,oven,150,0321_ps_dnn_150_oven_10_n04111531_7923.png,n04111531_7923.png,1.0,-1.7785482,-2.4377656,0.46613708
alexnet_w1_mlp_simclrhn_probe1,1,322,NaN,knife,cat,120,0322_ps_dnn_120_cat_10_n02123159_5706.png,n02123159_5706.png,0.0,-1.9546582,-1.596873,-0.25299227
alexnet_w1_mlp_simclrhn_probe1,1,323,NaN,airplane,airplane,30,0323_ps_dnn_30_airplane_10_n02690373_13324.png,n02690373_13324.png,1.0,2.8910084,-0.37438697,2.3089833
alexnet_w1_mlp_simclrhn_probe1,1,324,NaN,elephant,airplane,150,0324_ps_dnn_150_airplane_10_n02690373_4452.png,n02690373_4452.png,0.0,-7.413978,-0.87688375,-4.6224236
alexnet_w1_mlp_simclrhn_probe1,1,325,NaN,oven,bird,90,0325_ps_dnn_90_bird_10_n02056570_10881.png,n02056570_10881.png,0.0,-4.465618,-2.1925097,-1.6073304
alexnet_w1_mlp_simclrhn_probe1,1,326,NaN,airplane,airplane,90,0326_ps_dnn_90_airplane_10_n02690373_19133.png,n02690373_19133.png,1.0,-0.44622105,-0.71672344,0.19127408
alexnet_w1_mlp_simclrhn_probe1,1,327,NaN,bottle,bottle,0,0327_ps_dnn_0_bottle_10_n03937543_4850.png,n03937543_4850.png,1.0,2.040866,-0.40871114,1.7321126
alexnet_w1_mlp_simclrhn_probe1,1,328,NaN,knife,keyboard,150,0328_ps_dnn_150_keyboard_10_n04505470_2709.png,n04505470_2709.png,0.0,-5.6852674,-1.616615,-2.8769715
alexnet_w1_mlp_simclrhn_probe1,1,329,NaN,oven,keyboard,90,0329_ps_dnn_90_keyboard_10_n03085013_1797.png,n03085013_1797.png,0.0,-4.5443025,1.3142881,-4.142649
alexnet_w1_mlp_simclrhn_probe1,1,330,NaN,oven,oven,30,0330_ps_dnn_30_oven_10_n04111531_3902.png,n04111531_3902.png,1.0,1.8891919,-0.14599597,1.439095
alexnet_w1_mlp_simclrhn_probe1,1,331,NaN,elephant,car,180,0331_ps_dnn_180_car_10_n03100240_6750.png,n03100240_6750.png,0.0,-6.970473,-1.0364871,-4.1959615
alexnet_w1_mlp_simclrhn_probe1,1,332,NaN,bicycle,chair,0,0332_ps_dnn_0_chair_10_n03376595_16306.png,n03376595_16306.png,0.0,-0.54255533,1.885958,-1.7172183
alexnet_w1_mlp_simclrhn_probe1,1,333,NaN,bicycle,boat,60,0333_ps_dnn_60_boat_10_n02951358_13017.png,n02951358_13017.png,0.0,-6.4683886,0.47095188,-4.906855
alexnet_w1_mlp_simclrhn_probe1,1,334,NaN,knife,clock,90,0334_ps_dnn_90_clock_10_n03196217_5827.png,n03196217_5827.png,0.0,-2.8043585,-1.2187425,-1.1211998
alexnet_w1_mlp_simclrhn_probe1,1,335,NaN,bottle,bottle,0,0335_ps_dnn_0_bottle_10_n02823428_685.png,n02823428_685.png,1.0,-0.8480206,-1.4668612,0.43758643
alexnet_w1_mlp_simclrhn_probe1,1,336,NaN,bear,airplane,120,0336_ps_dnn_120_airplane_10_n02690373_2092.png,n02690373_2092.png,0.0,-6.395355,-0.92657703,-3.86701
alexnet_w1_mlp_simclrhn_probe1,1,337,NaN,knife,bottle,180,0337_ps_dnn_180_bottle_10_n04557648_3637.png,n04557648_3637.png,0.0,-4.5383964,-0.9829952,-2.5140483
alexnet_w1_mlp_simclrhn_probe1,1,338,NaN,bear,bird,90,0338_ps_dnn_90_bird_10_n01819313_5521.png,n01819313_5521.png,0.0,-2.6088245,1.4967117,-2.9030528
alexnet_w1_mlp_simclrhn_probe1,1,339,NaN,elephant,dog,90,0339_ps_dnn_90_dog_10_n02100583_24297.png,n02100583_24297.png,0.0,-1.7430483,1.4008033,-2.223039
alexnet_w1_mlp_simclrhn_probe1,1,340,NaN,bear,bird,60,0340_ps_dnn_60_bird_10_n02018207_12233.png,n02018207_12233.png,0.0,-2.771281,-0.33900812,-1.7198766
alexnet_w1_mlp_simclrhn_probe1,1,341,NaN,bear,bird,180,0341_ps_dnn_180_bird_10_n02013706_3032.png,n02013706_3032.png,0.0,-2.217326,-0.418665,-1.2718455
alexnet_w1_mlp_simclrhn_probe1,1,342,NaN,oven,oven,60,0342_ps_dnn_60_oven_10_n04111531_9939.png,n04111531_9939.png,1.0,1.804688,-3.2835941,3.5979588
alexnet_w1_mlp_simclrhn_probe1,1,343,NaN,knife,bird,180,0343_ps_dnn_180_bird_10_n02011460_7629.png,n02011460_7629.png,0.0,-3.6575847,-2.4029655,-0.8871497
alexnet_w1_mlp_simclrhn_probe1,1,344,NaN,oven,oven,60,0344_ps_dnn_60_oven_10_n04111531_13542.png,n04111531_13542.png,1.0,-0.7334388,-1.465236,0.51745874
alexnet_w1_mlp_simclrhn_probe1,1,345,NaN,bear,bear,90,0345_ps_dnn_90_bear_10_n02134418_270.png,n02134418_270.png,1.0,1.6403363,0.36276692,0.90337795
alexnet_w1_mlp_simclrhn_probe1,1,346,NaN,bear,bicycle,90,0346_ps_dnn_90_bicycle_10_n03792782_12561.png,n03792782_12561.png,0.0,-2.9714725,-0.19448897,-1.9636239
alexnet_w1_mlp_simclrhn_probe1,1,347,NaN,elephant,elephant,120,0347_ps_dnn_120_elephant_10_n02504458_9213.png,n02504458_9213.png,1.0,-2.5565388,-3.3648615,0.57157046
alexnet_w1_mlp_simclrhn_probe1,1,348,NaN,oven,chair,90,0348_ps_dnn_90_chair_10_n03376595_4155.png,n03376595_4155.png,0.0,-3.800175,-0.9553763,-2.0115764
alexnet_w1_mlp_simclrhn_probe1,1,349,NaN,elephant,truck,120,0349_ps_dnn_120_truck_10_n04467665_69970.png,n04467665_69970.png,0.0,-8.109375,-1.1473341,-4.9229064
alexnet_w1_mlp_simclrhn_probe1,1,350,NaN,knife,bird,120,0350_ps_dnn_120_bird_10_n02002556_2350.png,n02002556_2350.png,0.0,-2.7265053,-1.4824238,-0.87969846
alexnet_w1_mlp_simclrhn_probe1,1,351,NaN,bear,bear,0,0351_ps_dnn_0_bear_10_n02133161_355.png,n02133161_355.png,1.0,4.3587213,-0.12657747,3.171585
alexnet_w1_mlp_simclrhn_probe1,1,352,NaN,bear,airplane,90,0352_ps_dnn_90_airplane_10_n02690373_3065.png,n02690373_3065.png,0.0,-3.4999158,-1.3306029,-1.5339359
alexnet_w1_mlp_simclrhn_probe1,1,353,NaN,bicycle,truck,60,0353_ps_dnn_60_truck_10_n03417042_13289.png,n03417042_13289.png,0.0,-0.33768496,0.020030111,-0.25294277
alexnet_w1_mlp_simclrhn_probe1,1,354,NaN,oven,oven,0,0354_ps_dnn_0_oven_10_n04111531_21404.png,n04111531_21404.png,1.0,0.3203842,-1.2685347,1.1235354
alexnet_w1_mlp_simclrhn_probe1,1,355,NaN,bear,bear,90,0355_ps_dnn_90_bear_10_n02132136_8358.png,n02132136_8358.png,1.0,1.9190531,1.5487177,0.26186663
alexnet_w1_mlp_simclrhn_probe1,1,356,NaN,oven,oven,90,0356_ps_dnn_90_oven_10_n04111531_274.png,n04111531_274.png,1.0,0.6748271,-2.0143852,1.9015603
alexnet_w1_mlp_simclrhn_probe1,1,357,NaN,knife,chair,120,0357_ps_dnn_120_chair_10_n02791124_2773.png,n02791124_2773.png,0.0,-3.8831847,-1.1738516,-1.9157877
alexnet_w1_mlp_simclrhn_probe1,1,358,NaN,bear,knife,120,0358_ps_dnn_120_knife_10_n03041632_102828.png,n03041632_102828.png,0.0,-2.3627167,-0.7621419,-1.1317773
alexnet_w1_mlp_simclrhn_probe1,1,359,NaN,knife,boat,150,0359_ps_dnn_150_boat_10_n02951358_30995.png,n02951358_30995.png,0.0,-3.6503081,-1.0739639,-1.8217505
alexnet_w1_mlp_simclrhn_probe1,1,360,NaN,oven,bicycle,150,0360_ps_dnn_150_bicycle_10_n03792782_4544.png,n03792782_4544.png,0.0,-7.0521574,-0.6219667,-4.5468316
alexnet_w1_mlp_simclrhn_probe1,1,361,NaN,knife,airplane,120,0361_ps_dnn_120_airplane_10_n02690373_8446.png,n02690373_8446.png,0.0,-7.482061,-1.33868,-4.3440266
alexnet_w1_mlp_simclrhn_probe1,1,362,NaN,bottle,bottle,30,0362_ps_dnn_30_bottle_10_n04557648_900.png,n04557648_900.png,1.0,-0.6708565,-1.1634002,0.348281
alexnet_w1_mlp_simclrhn_probe1,1,363,NaN,oven,airplane,150,0363_ps_dnn_150_airplane_10_n02690373_3407.png,n02690373_3407.png,0.0,-6.621462,-1.4191307,-3.6786036
alexnet_w1_mlp_simclrhn_probe1,1,364,NaN,elephant,bottle,120,0364_ps_dnn_120_bottle_10_n03983396_8143.png,n03983396_8143.png,0.0,-1.6535949,-1.0155015,-0.45120016
alexnet_w1_mlp_simclrhn_probe1,1,365,NaN,car,car,0,0365_ps_dnn_0_car_10_n03100240_9610.png,n03100240_9610.png,1.0,10.508422,5.9741573,3.2062092
alexnet_w1_mlp_simclrhn_probe1,1,366,NaN,bear,cat,120,0366_ps_dnn_120_cat_10_n02123159_1108.png,n02123159_1108.png,0.0,-2.816222,-0.5912896,-1.5732648
alexnet_w1_mlp_simclrhn_probe1,1,367,NaN,clock,clock,0,0367_ps_dnn_0_clock_10_n04548280_2170.png,n04548280_2170.png,1.0,7.9882264,1.3601526,4.686756
alexnet_w1_mlp_simclrhn_probe1,1,368,NaN,bear,keyboard,120,0368_ps_dnn_120_keyboard_10_n04505470_4385.png,n04505470_4385.png,0.0,-9.252005,-2.0601287,-5.0854244
alexnet_w1_mlp_simclrhn_probe1,1,369,NaN,knife,airplane,120,0369_ps_dnn_120_airplane_10_n02690373_18383.png,n02690373_18383.png,0.0,-3.62807,-1.2427557,-1.6866721
alexnet_w1_mlp_simclrhn_probe1,1,370,NaN,oven,truck,90,0370_ps_dnn_90_truck_10_n03417042_10243.png,n03417042_10243.png,0.0,-6.817065,0.013346896,-4.82983
alexnet_w1_mlp_simclrhn_probe1,1,371,NaN,cat,cat,30,0371_ps_dnn_30_cat_10_n02123045_11826.png,n02123045_11826.png,1.0,5.4963584,-2.7405906,5.8244023
alexnet_w1_mlp_simclrhn_probe1,1,372,NaN,elephant,bird,0,0372_ps_dnn_0_bird_10_n01817953_2257.png,n01817953_2257.png,0.0,-1.8910137,-1.7583358,-0.09381745
alexnet_w1_mlp_simclrhn_probe1,1,373,NaN,boat,boat,0,0373_ps_dnn_0_boat_10_n04612504_18442.png,n04612504_18442.png,1.0,5.9661007,2.3662517,2.5454776
alexnet_w1_mlp_simclrhn_probe1,1,374,NaN,elephant,airplane,180,0374_ps_dnn_180_airplane_10_n02690373_2874.png,n02690373_2874.png,0.0,-8.291218,-1.5737574,-4.749962
alexnet_w1_mlp_simclrhn_probe1,1,375,NaN,bicycle,bicycle,0,0375_ps_dnn_0_bicycle_10_n02835271_4963.png,n02835271_4963.png,1.0,7.837761,-0.13782907,5.6395936
alexnet_w1_mlp_simclrhn_probe1,1,376,NaN,oven,boat,180,0376_ps_dnn_180_boat_10_n04273569_568.png,n04273569_568.png,0.0,-3.8113391,-0.6285299,-2.250586
alexnet_w1_mlp_simclrhn_probe1,1,377,NaN,elephant,elephant,90,0377_ps_dnn_90_elephant_10_n02504013_2233.png,n02504013_2233.png,1.0,1.6547344,0.83046716,0.5828449
alexnet_w1_mlp_simclrhn_probe1,1,378,NaN,oven,bottle,60,0378_ps_dnn_60_bottle_10_n02823428_889.png,n02823428_889.png,0.0,-3.2169628,1.0171878,-2.9939969
alexnet_w1_mlp_simclrhn_probe1,1,379,NaN,boat,car,90,0379_ps_dnn_90_car_10_n04285008_3096.png,n04285008_3096.png,0.0,-4.6604366,-0.12061548,-3.2101383
alexnet_w1_mlp_simclrhn_probe1,1,380,NaN,knife,airplane,120,0380_ps_dnn_120_airplane_10_n02690373_13206.png,n02690373_13206.png,0.0,-7.8022184,-1.9380848,-4.146569
alexnet_w1_mlp_simclrhn_probe1,1,381,NaN,oven,keyboard,90,0381_ps_dnn_90_keyboard_10_n03085013_25443.png,n03085013_25443.png,0.0,-5.6722426,2.2661247,-5.6132736
alexnet_w1_mlp_simclrhn_probe1,1,382,NaN,truck,truck,30,0382_ps_dnn_30_truck_10_n04467665_20622.png,n04467665_20622.png,1.0,3.9876747,-0.46519843,3.1486568
alexnet_w1_mlp_simclrhn_probe1,1,383,NaN,bicycle,bicycle,60,0383_ps_dnn_60_bicycle_10_n02835271_24639.png,n02835271_24639.png,1.0,3.7778635,-0.65378124,3.1336462
alexnet_w1_mlp_simclrhn_probe1,1,384,NaN,knife,knife,30,0384_ps_dnn_30_knife_10_n03041632_25603.png,n03041632_25603.png,1.0,-0.677226,-1.8480763,0.8279162
alexnet_w1_mlp_simclrhn_probe1,1,385,NaN,boat,boat,60,0385_ps_dnn_60_boat_10_n04273569_4978.png,n04273569_4978.png,1.0,2.5950317,-1.9395854,3.2064588
alexnet_w1_mlp_simclrhn_probe1,1,386,NaN,boat,car,60,0386_ps_dnn_60_car_10_n02814533_46401.png,n02814533_46401.png,0.0,-0.42567977,0.13385229,-0.3956489
alexnet_w1_mlp_simclrhn_probe1,1,387,NaN,bear,bird,120,0387_ps_dnn_120_bird_10_n01798484_12863.png,n01798484_12863.png,0.0,-1.8712343,-1.6212873,-0.17673919
alexnet_w1_mlp_simclrhn_probe1,1,388,NaN,bear,boat,120,0388_ps_dnn_120_boat_10_n03662601_7885.png,n03662601_7885.png,0.0,-3.1803951,-2.0120888,-0.82611734
alexnet_w1_mlp_simclrhn_probe1,1,389,NaN,chair,chair,0,0389_ps_dnn_0_chair_10_n03376595_3062.png,n03376595_3062.png,1.0,-1.2257602,-1.5544026,0.23238525
alexnet_w1_mlp_simclrhn_probe1,1,390,NaN,elephant,airplane,90,0390_ps_dnn_90_airplane_10_n02690373_19118.png,n02690373_19118.png,0.0,-2.6108086,-2.191061,-0.29680637
alexnet_w1_mlp_simclrhn_probe1,1,391,NaN,elephant,cat,180,0391_ps_dnn_180_cat_10_n02123597_3944.png,n02123597_3944.png,0.0,-3.477745,-0.80572635,-1.8894026
alexnet_w1_mlp_simclrhn_probe1,1,392,NaN,knife,keyboard,150,0392_ps_dnn_150_keyboard_10_n04505470_2113.png,n04505470_2113.png,0.0,-1.4541024,-1.0148203,-0.31061932
alexnet_w1_mlp_simclrhn_probe1,1,393,NaN,elephant,bird,30,0393_ps_dnn_30_bird_10_n02056570_4808.png,n02056570_4808.png,0.0,-2.0436776,0.87373316,-2.062921
alexnet_w1_mlp_simclrhn_probe1,1,394,NaN,knife,bear,180,0394_ps_dnn_180_bear_10_n02133161_2316.png,n02133161_2316.png,0.0,-1.3009818,-0.9741917,-0.23107545
alexnet_w1_mlp_simclrhn_probe1,1,395,NaN,elephant,dog,0,0395_ps_dnn_0_dog_10_n02106662_15515.png,n02106662_15515.png,0.0,0.29142007,0.84697926,-0.39283964
alexnet_w1_mlp_simclrhn_probe1,1,396,NaN,airplane,airplane,0,0396_ps_dnn_0_airplane_10_n02690373_3899.png,n02690373_3899.png,1.0,4.5612016,2.3037298,1.5962737
alexnet_w1_mlp_simclrhn_probe1,1,397,NaN,bicycle,boat,0,0397_ps_dnn_0_boat_10_n04273569_2449.png,n04273569_2449.png,0.0,-5.3895707,-2.6398683,-1.9443333
alexnet_w1_mlp_simclrhn_probe1,1,398,NaN,oven,bird,120,0398_ps_dnn_120_bird_10_n02007558_7614.png,n02007558_7614.png,0.0,-5.0885057,1.3435028,-4.548117
alexnet_w1_mlp_simclrhn_probe1,1,399,NaN,bottle,keyboard,90,0399_ps_dnn_90_keyboard_10_n03085013_4914.png,n03085013_4914.png,0.0,-4.326896,0.9761113,-3.7497928
alexnet_w1_mlp_simclrhn_probe1,1,400,NaN,oven,oven,150,0400_ps_dnn_150_oven_10_n04111531_15296.png,n04111531_15296.png,1.0,-1.399119,-1.7083654,0.21867025
alexnet_w1_mlp_simclrhn_probe1,1,401,NaN,oven,chair,60,0401_ps_dnn_60_chair_10_n04099969_246.png,n04099969_246.png,0.0,-2.5602334,1.4278483,-2.8199997
alexnet_w1_mlp_simclrhn_probe1,1,402,NaN,knife,truck,180,0402_ps_dnn_180_truck_10_n04467665_670.png,n04467665_670.png,0.0,-10.363846,-1.9784833,-5.929347
alexnet_w1_mlp_simclrhn_probe1,1,403,NaN,keyboard,keyboard,90,0403_ps_dnn_90_keyboard_10_n03085013_24192.png,n03085013_24192.png,1.0,0.74735343,-1.3836687,1.5068601
alexnet_w1_mlp_simclrhn_probe1,1,404,NaN,elephant,bicycle,150,0404_ps_dnn_150_bicycle_10_n03792782_378.png,n03792782_378.png,0.0,-2.5817518,-1.234583,-0.9525922
alexnet_w1_mlp_simclrhn_probe1,1,405,NaN,elephant,bird,180,0405_ps_dnn_180_bird_10_n02018207_14738.png,n02018207_14738.png,0.0,-2.728952,-1.1574719,-1.1112043
alexnet_w1_mlp_simclrhn_probe1,1,406,NaN,bird,bird,0,0406_ps_dnn_0_bird_10_n01530575_5222.png,n01530575_5222.png,1.0,-0.7774335,-1.1605417,0.27089837
alexnet_w1_mlp_simclrhn_probe1,1,407,NaN,bear,bear,30,0407_ps_dnn_30_bear_10_n02134084_10766.png,n02134084_10766.png,1.0,-1.2983243,-1.5460621,0.17517705
alexnet_w1_mlp_simclrhn_probe1,1,408,NaN,elephant,bird,30,0408_ps_dnn_30_bird_10_n02007558_4009.png,n02007558_4009.png,0.0,-3.3238888,0.50485563,-2.7073312
alexnet_w1_mlp_simclrhn_probe1,1,409,NaN,oven,chair,120,0409_ps_dnn_120_chair_10_n04099969_7545.png,n04099969_7545.png,0.0,-7.4665403,-1.0165455,-4.5608354
alexnet_w1_mlp_simclrhn_probe1,1,410,NaN,elephant,clock,90,0410_ps_dnn_90_clock_10_n03196217_127.png,n03196217_127.png,0.0,-4.24336,-1.2262516,-2.1334178
alexnet_w1_mlp_simclrhn_probe1,1,411,NaN,knife,bottle,150,0411_ps_dnn_150_bottle_10_n04560804_26326.png,n04560804_26326.png,0.0,-2.4606175,-0.3213057,-1.5127219
alexnet_w1_mlp_simclrhn_probe1,1,412,NaN,knife,keyboard,30,0412_ps_dnn_30_keyboard_10_n03085013_25066.png,n03085013_25066.png,0.0,-2.0252883,-0.39891,-1.1500231
alexnet_w1_mlp_simclrhn_probe1,1,413,NaN,cat,cat,30,0413_ps_dnn_30_cat_10_n02124075_11776.png,n02124075_11776.png,1.0,7.988293,-2.1164782,7.1451526
alexnet_w1_mlp_simclrhn_probe1,1,414,NaN,knife,keyboard,120,0414_ps_dnn_120_keyboard_10_n04505470_2909.png,n04505470_2909.png,0.0,-2.5305777,-1.5890229,-0.66577977
alexnet_w1_mlp_simclrhn_probe1,1,415,NaN,keyboard,keyboard,30,0415_ps_dnn_30_keyboard_10_n04505470_494.png,n04505470_494.png,1.0,4.428734,1.4344549,2.117275
alexnet_w1_mlp_simclrhn_probe1,1,416,NaN,elephant,bear,120,0416_ps_dnn_120_bear_10_n02133161_2270.png,n02133161_2270.png,0.0,-1.7676153,-1.2973547,-0.33252448
alexnet_w1_mlp_simclrhn_probe1,1,417,NaN,knife,chair,120,0417_ps_dnn_120_chair_10_n04099969_13901.png,n04099969_13901.png,0.0,-4.397017,-1.3979328,-2.120673
alexnet_w1_mlp_simclrhn_probe1,1,418,NaN,elephant,car,120,0418_ps_dnn_120_car_10_n02814533_2923.png,n02814533_2923.png,0.0,-7.6214128,-1.0671449,-4.6345673
alexnet_w1_mlp_simclrhn_probe1,1,419,NaN,bottle,bottle,90,0419_ps_dnn_90_bottle_10_n03983396_12757.png,n03983396_12757.png,1.0,-1.1580647,-1.5072867,0.24693722
alexnet_w1_mlp_simclrhn_probe1,1,420,NaN,knife,knife,30,0420_ps_dnn_30_knife_10_n03041632_15444.png,n03041632_15444.png,1.0,-2.3473651,-3.003834,0.46419358
alexnet_w1_mlp_simclrhn_probe1,1,421,NaN,knife,bicycle,180,0421_ps_dnn_180_bicycle_10_n02835271_5554.png,n02835271_5554.png,0.0,-6.107415,-1.8319488,-3.0232115
alexnet_w1_mlp_simclrhn_probe1,1,422,NaN,knife,knife,150,0422_ps_dnn_150_knife_10_n03041632_37618.png,n03041632_37618.png,1.0,-1.4400406,-3.1250815,1.1915039
alexnet_w1_mlp_simclrhn_probe1,1,423,NaN,bottle,chair,60,0423_ps_dnn_60_chair_10_n03376595_3910.png,n03376595_3910.png,0.0,-2.0815663,-1.9039732,-0.1255773
alexnet_w1_mlp_simclrhn_probe1,1,424,NaN,bear,dog,30,0424_ps_dnn_30_dog_10_n02086646_7362.png,n02086646_7362.png,0.0,1.1878135,1.6216974,-0.30680224
alexnet_w1_mlp_simclrhn_probe1,1,425,NaN,bear,dog,60,0425_ps_dnn_60_dog_10_n02113712_5829.png,n02113712_5829.png,0.0,-0.19939582,2.2883961,-1.7591347
alexnet_w1_mlp_simclrhn_probe1,1,426,NaN,knife,truck,180,0426_ps_dnn_180_truck_10_n03417042_1149.png,n03417042_1149.png,0.0,-8.098138,-1.2936523,-4.8114977
alexnet_w1_mlp_simclrhn_probe1,1,427,NaN,elephant,bird,60,0427_ps_dnn_60_bird_10_n02002724_3345.png,n02002724_3345.png,0.0,-3.408087,0.46484396,-2.738576
alexnet_w1_mlp_simclrhn_probe1,1,428,NaN,bear,bird,150,0428_ps_dnn_150_bird_10_n02002556_2917.png,n02002556_2917.png,0.0,-3.7746243,-1.0743923,-1.9093524
alexnet_w1_mlp_simclrhn_probe1,1,429,NaN,bear,bottle,180,0429_ps_dnn_180_bottle_10_n04560804_3959.png,n04560804_3959.png,0.0,-4.135777,-0.6136377,-2.4905286
alexnet_w1_mlp_simclrhn_probe1,1,430,NaN,airplane,airplane,30,0430_ps_dnn_30_airplane_10_n02690373_3639.png,n02690373_3639.png,1.0,5.084159,-1.6020476,4.727862
alexnet_w1_mlp_simclrhn_probe1,1,431,NaN,knife,bottle,120,0431_ps_dnn_120_bottle_10_n02823428_14453.png,n02823428_14453.png,0.0,-2.8552384,-1.7029884,-0.81476384
alexnet_w1_mlp_simclrhn_probe1,1,432,NaN,bottle,bottle,0,0432_ps_dnn_0_bottle_10_n03937543_3253.png,n03937543_3253.png,1.0,5.3940554,0.5781573,3.4053543
alexnet_w1_mlp_simclrhn_probe1,1,433,NaN,dog,elephant,30,0433_ps_dnn_30_elephant_10_n02504013_7010.png,n02504013_7010.png,0.0,0.112303376,0.13583544,-0.016639682
alexnet_w1_mlp_simclrhn_probe1,1,434,NaN,elephant,car,150,0434_ps_dnn_150_car_10_n04285008_8813.png,n04285008_8813.png,0.0,-7.7758865,-0.7400529,-4.9750857
alexnet_w1_mlp_simclrhn_probe1,1,435,NaN,elephant,bear,180,0435_ps_dnn_180_bear_10_n02132136_110.png,n02132136_110.png,0.0,-0.9113034,-0.20970799,-0.4961029
alexnet_w1_mlp_simclrhn_probe1,1,436,NaN,bear,bear,60,0436_ps_dnn_60_bear_10_n02133161_4294.png,n02133161_4294.png,1.0,-0.3084581,-1.103468,0.56215686
alexnet_w1_mlp_simclrhn_probe1,1,437,NaN,car,car,0,0437_ps_dnn_0_car_10_n02814533_95144.png,n02814533_95144.png,1.0,8.226304,5.566899,1.8804835
alexnet_w1_mlp_simclrhn_probe1,1,438,NaN,oven,oven,120,0438_ps_dnn_120_oven_10_n04111531_1220.png,n04111531_1220.png,1.0,-0.72999364,-0.98847765,0.1827758
alexnet_w1_mlp_simclrhn_probe1,1,439,NaN,knife,dog,60,0439_ps_dnn_60_dog_10_n02086240_7247.png,n02086240_7247.png,0.0,-2.4265776,-1.4418766,-0.6962887
alexnet_w1_mlp_simclrhn_probe1,1,440,NaN,airplane,airplane,0,0440_ps_dnn_0_airplane_10_n02690373_4144.png,n02690373_4144.png,1.0,6.129527,-1.6270752,5.484746
alexnet_w1_mlp_simclrhn_probe1,1,441,NaN,elephant,oven,120,0441_ps_dnn_120_oven_10_n04111531_986.png,n04111531_986.png,0.0,-1.9538949,-1.8014934,-0.107764095
alexnet_w1_mlp_simclrhn_probe1,1,442,NaN,bicycle,elephant,30,0442_ps_dnn_30_elephant_10_n02504458_6336.png,n02504458_6336.png,0.0,-0.63673866,2.2372355,-2.0322068
alexnet_w1_mlp_simclrhn_probe1,1,443,NaN,knife,knife,150,0443_ps_dnn_150_knife_10_n03041632_14132.png,n03041632_14132.png,1.0,-1.0036219,-1.9586191,0.675285
alexnet_w1_mlp_simclrhn_probe1,1,444,NaN,bear,cat,150,0444_ps_dnn_150_cat_10_n02123159_799.png,n02123159_799.png,0.0,-4.1441,-0.69384843,-2.4396966
alexnet_w1_mlp_simclrhn_probe1,1,445,NaN,bear,bird,90,0445_ps_dnn_90_bird_10_n02006656_7456.png,n02006656_7456.png,0.0,-2.6527658,0.74695665,-2.4039667
alexnet_w1_mlp_simclrhn_probe1,1,446,NaN,elephant,cat,90,0446_ps_dnn_90_cat_10_n02123045_8722.png,n02123045_8722.png,0.0,-2.7513742,-1.5297172,-0.863842
alexnet_w1_mlp_simclrhn_probe1,1,447,NaN,knife,chair,120,0447_ps_dnn_120_chair_10_n03376595_8302.png,n03376595_8302.png,0.0,-5.8110113,-2.112609,-2.6151655
alexnet_w1_mlp_simclrhn_probe1,1,448,NaN,bottle,bottle,30,0448_ps_dnn_30_bottle_10_n04560804_5769.png,n04560804_5769.png,1.0,1.3181196,0.7812346,0.37963504
alexnet_w1_mlp_simclrhn_probe1,1,449,NaN,oven,car,90,0449_ps_dnn_90_car_10_n04285008_203.png,n04285008_203.png,0.0,-7.833303,-0.3262212,-5.3083086
alexnet_w1_mlp_simclrhn_probe1,1,450,NaN,knife,airplane,180,0450_ps_dnn_180_airplane_10_n02690373_9959.png,n02690373_9959.png,0.0,-9.668484,-1.2446585,-5.956544
alexnet_w1_mlp_simclrhn_probe1,1,451,NaN,car,car,0,0451_ps_dnn_0_car_10_n04285008_1867.png,n04285008_1867.png,1.0,11.967912,6.3569584,3.9675431
alexnet_w1_mlp_simclrhn_probe1,1,452,NaN,knife,airplane,150,0452_ps_dnn_150_airplane_10_n02690373_16250.png,n02690373_16250.png,0.0,-5.887368,-0.96378946,-3.4814959
alexnet_w1_mlp_simclrhn_probe1,1,453,NaN,elephant,elephant,30,0453_ps_dnn_30_elephant_10_n02504458_4696.png,n02504458_4696.png,1.0,2.446966,0.79663134,1.1669629
alexnet_w1_mlp_simclrhn_probe1,1,454,NaN,bicycle,car,60,0454_ps_dnn_60_car_10_n04285008_10755.png,n04285008_10755.png,0.0,-5.4649873,1.196157,-4.71014
alexnet_w1_mlp_simclrhn_probe1,1,455,NaN,knife,boat,150,0455_ps_dnn_150_boat_10_n02951358_11586.png,n02951358_11586.png,0.0,-3.9846706,-0.99529845,-2.1138055
alexnet_w1_mlp_simclrhn_probe1,1,456,NaN,bottle,bottle,60,0456_ps_dnn_60_bottle_10_n02823428_4108.png,n02823428_4108.png,1.0,0.9846238,0.23814857,0.5278377
alexnet_w1_mlp_simclrhn_probe1,1,457,NaN,elephant,car,180,0457_ps_dnn_180_car_10_n04285008_11770.png,n04285008_11770.png,0.0,-8.982321,-0.084123045,-6.2919765
alexnet_w1_mlp_simclrhn_probe1,1,458,NaN,oven,boat,90,0458_ps_dnn_90_boat_10_n04273569_32786.png,n04273569_32786.png,0.0,-2.2250776,-2.0117807,-0.15082368
alexnet_w1_mlp_simclrhn_probe1,1,459,NaN,elephant,bear,30,0459_ps_dnn_30_bear_10_n02132136_21267.png,n02132136_21267.png,0.0,4.401886,4.6498537,-0.17533965
alexnet_w1_mlp_simclrhn_probe1,1,460,NaN,elephant,car,90,0460_ps_dnn_90_car_10_n03100240_24001.png,n03100240_24001.png,0.0,-5.2135606,-1.0529802,-2.9419749
alexnet_w1_mlp_simclrhn_probe1,1,461,NaN,knife,bottle,150,0461_ps_dnn_150_bottle_10_n03937543_71.png,n03937543_71.png,0.0,-3.047715,-0.97592485,-1.4649769
alexnet_w1_mlp_simclrhn_probe1,1,462,NaN,truck,chair,0,0462_ps_dnn_0_chair_10_n02791124_16127.png,n02791124_16127.png,0.0,-0.53227884,-0.120610684,-0.29109335
alexnet_w1_mlp_simclrhn_probe1,1,463,NaN,bear,bird,90,0463_ps_dnn_90_bird_10_n02002724_12183.png,n02002724_12183.png,0.0,-1.8630604,-0.5982268,-0.8943724
alexnet_w1_mlp_simclrhn_probe1,1,464,NaN,elephant,dog,30,0464_ps_dnn_30_dog_10_n02108915_1165.png,n02108915_1165.png,0.0,-1.4397093,1.1738477,-1.8480638
alexnet_w1_mlp_simclrhn_probe1,1,465,NaN,elephant,dog,180,0465_ps_dnn_180_dog_10_n02099429_4843.png,n02099429_4843.png,0.0,-2.863923,-0.92097753,-1.3738699
alexnet_w1_mlp_simclrhn_probe1,1,466,NaN,boat,boat,60,0466_ps_dnn_60_boat_10_n03344393_3499.png,n03344393_3499.png,1.0,1.4121948,0.78079116,0.44646984
alexnet_w1_mlp_simclrhn_probe1,1,467,NaN,oven,truck,120,0467_ps_dnn_120_truck_10_n03417042_20962.png,n03417042_20962.png,0.0,-4.3528996,-0.5312184,-2.7023365
alexnet_w1_mlp_simclrhn_probe1,1,468,NaN,cat,dog,30,0468_ps_dnn_30_dog_10_n02097047_4189.png,n02097047_4189.png,0.0,-1.0001966,-0.56787276,-0.3056991
alexnet_w1_mlp_simclrhn_probe1,1,469,NaN,bicycle,bicycle,60,0469_ps_dnn_60_bicycle_10_n03792782_24591.png,n03792782_24591.png,1.0,6.396618,-3.4087205,6.933421
alexnet_w1_mlp_simclrhn_probe1,1,470,NaN,airplane,airplane,60,0470_ps_dnn_60_airplane_10_n02690373_243.png,n02690373_243.png,1.0,-0.044657953,-1.1221088,0.7618728
alexnet_w1_mlp_simclrhn_probe1,1,471,NaN,bear,boat,90,0471_ps_dnn_90_boat_10_n03344393_3072.png,n03344393_3072.png,0.0,-2.7250433,-2.325274,-0.2826796
alexnet_w1_mlp_simclrhn_probe1,1,472,NaN,oven,clock,120,0472_ps_dnn_120_clock_10_n02708093_118.png,n02708093_118.png,0.0,-2.6985188,-1.9964123,-0.49646425
alexnet_w1_mlp_simclrhn_probe1,1,473,NaN,bird,bird,30,0473_ps_dnn_30_bird_10_n01843065_2664.png,n01843065_2664.png,1.0,-0.37004378,-3.7489536,2.38925
alexnet_w1_mlp_simclrhn_probe1,1,474,NaN,knife,airplane,150,0474_ps_dnn_150_airplane_10_n02690373_19353.png,n02690373_19353.png,0.0,-7.7547975,-1.4761082,-4.439704
alexnet_w1_mlp_simclrhn_probe1,1,475,NaN,knife,dog,120,0475_ps_dnn_120_dog_10_n02099849_4250.png,n02099849_4250.png,0.0,-2.537151,-1.5134784,-0.7238459
alexnet_w1_mlp_simclrhn_probe1,1,476,NaN,oven,truck,90,0476_ps_dnn_90_truck_10_n04467665_29260.png,n04467665_29260.png,0.0,-3.5939374,-1.9035406,-1.195291
alexnet_w1_mlp_simclrhn_probe1,1,477,NaN,bear,elephant,30,0477_ps_dnn_30_elephant_10_n02504013_8308.png,n02504013_8308.png,0.0,2.8006072,3.786569,-0.6971804
alexnet_w1_mlp_simclrhn_probe1,1,478,NaN,knife,boat,150,0478_ps_dnn_150_boat_10_n03344393_6854.png,n03344393_6854.png,0.0,-2.7240958,-0.08345885,-1.8672123
alexnet_w1_mlp_simclrhn_probe1,1,479,NaN,knife,truck,180,0479_ps_dnn_180_truck_10_n04467665_25129.png,n04467665_25129.png,0.0,-9.413072,-1.359947,-5.694419
alexnet_w1_mlp_simclrhn_probe1,1,480,NaN,bicycle,bird,30,0480_ps_dnn_30_bird_10_n01824575_6272.png,n01824575_6272.png,0.0,-3.366855,-2.5446296,-0.5814011
alexnet_w1_mlp_simclrhn_probe1,1,481,NaN,bear,chair,180,0481_ps_dnn_180_chair_10_n04099969_19484.png,n04099969_19484.png,0.0,-9.711405,-1.2629634,-5.9739504
alexnet_w1_mlp_simclrhn_probe1,1,482,NaN,knife,oven,120,0482_ps_dnn_120_oven_10_n04111531_5888.png,n04111531_5888.png,0.0,-2.0313249,-1.3545231,-0.47857115
alexnet_w1_mlp_simclrhn_probe1,1,483,NaN,elephant,chair,60,0483_ps_dnn_60_chair_10_n04099969_16266.png,n04099969_16266.png,0.0,-3.9265375,0.42194664,-3.0748427
alexnet_w1_mlp_simclrhn_probe1,1,484,NaN,oven,truck,150,0484_ps_dnn_150_truck_10_n04467665_68754.png,n04467665_68754.png,0.0,-9.618322,-1.3505435,-5.8462024
alexnet_w1_mlp_simclrhn_probe1,1,485,NaN,knife,cat,180,0485_ps_dnn_180_cat_10_n02123394_7859.png,n02123394_7859.png,0.0,-3.5986443,-0.25557378,-2.3639078
alexnet_w1_mlp_simclrhn_probe1,1,486,NaN,oven,car,90,0486_ps_dnn_90_car_10_n04285008_17056.png,n04285008_17056.png,0.0,-8.431142,-1.1241697,-5.1668096
alexnet_w1_mlp_simclrhn_probe1,1,487,NaN,bear,cat,120,0487_ps_dnn_120_cat_10_n02123045_12046.png,n02123045_12046.png,0.0,-2.8287456,-0.55954933,-1.6045641
alexnet_w1_mlp_simclrhn_probe1,1,488,NaN,bear,elephant,180,0488_ps_dnn_180_elephant_10_n02504013_3029.png,n02504013_3029.png,0.0,-1.2241471,-0.8304111,-0.27841341
alexnet_w1_mlp_simclrhn_probe1,1,489,NaN,boat,boat,120,0489_ps_dnn_120_boat_10_n03662601_7271.png,n03662601_7271.png,1.0,-0.97818696,-1.5643361,0.41447002
alexnet_w1_mlp_simclrhn_probe1,1,490,NaN,bear,bear,30,0490_ps_dnn_30_bear_10_n02133161_6861.png,n02133161_6861.png,1.0,4.4949293,0.525144,2.8070621
alexnet_w1_mlp_simclrhn_probe1,1,491,NaN,oven,chair,30,0491_ps_dnn_30_chair_10_n02791124_4192.png,n02791124_4192.png,0.0,-1.069726,-0.68032765,-0.27534622
alexnet_w1_mlp_simclrhn_probe1,1,492,NaN,oven,boat,60,0492_ps_dnn_60_boat_10_n04273569_1457.png,n04273569_1457.png,0.0,-1.2385794,0.060180128,-0.91836166
alexnet_w1_mlp_simclrhn_probe1,1,493,NaN,clock,clock,90,0493_ps_dnn_90_clock_10_n04548280_764.png,n04548280_764.png,1.0,-2.5748403,-2.5908473,0.01131862
alexnet_w1_mlp_simclrhn_probe1,1,494,NaN,oven,bicycle,120,0494_ps_dnn_120_bicycle_10_n02835271_12346.png,n02835271_12346.png,0.0,-2.9912717,-1.4471867,-1.091833
alexnet_w1_mlp_simclrhn_probe1,1,495,NaN,knife,bicycle,180,0495_ps_dnn_180_bicycle_10_n03792782_50673.png,n03792782_50673.png,0.0,-3.3665612,-1.5525438,-1.282704
alexnet_w1_mlp_simclrhn_probe1,1,496,NaN,knife,truck,120,0496_ps_dnn_120_truck_10_n03796401_9198.png,n03796401_9198.png,0.0,-5.8471127,-0.92969024,-3.4771428
alexnet_w1_mlp_simclrhn_probe1,1,497,NaN,airplane,airplane,0,0497_ps_dnn_0_airplane_10_n02690373_4110.png,n02690373_4110.png,1.0,4.6017175,0.8050252,2.6846669
alexnet_w1_mlp_simclrhn_probe1,1,498,NaN,bear,dog,60,0498_ps_dnn_60_dog_10_n02107683_2484.png,n02107683_2484.png,0.0,0.5989277,0.97179407,-0.26365635
alexnet_w1_mlp_simclrhn_probe1,1,499,NaN,oven,chair,60,0499_ps_dnn_60_chair_10_n02791124_13057.png,n02791124_13057.png,0.0,-2.900163,0.4181728,-2.3464177
alexnet_w1_mlp_simclrhn_probe1,1,500,NaN,bear,bear,120,0500_ps_dnn_120_bear_10_n02134418_14451.png,n02134418_14451.png,1.0,-1.340448,-1.4519426,0.07883855
alexnet_w1_mlp_simclrhn_probe1,1,501,NaN,bird,bird,60,0501_ps_dnn_60_bird_10_n01843383_10059.png,n01843383_10059.png,1.0,-2.1182053,-2.1335616,0.010858546
alexnet_w1_mlp_simclrhn_probe1,1,502,NaN,bicycle,bicycle,0,0502_ps_dnn_0_bicycle_10_n03792782_11824.png,n03792782_11824.png,1.0,5.0909777,-0.83218056,4.1883054
alexnet_w1_mlp_simclrhn_probe1,1,503,NaN,bicycle,bird,30,0503_ps_dnn_30_bird_10_n01532829_2492.png,n01532829_2492.png,0.0,-1.4501159,-0.97231764,-0.33785442
alexnet_w1_mlp_simclrhn_probe1,1,504,NaN,bottle,bottle,0,0504_ps_dnn_0_bottle_10_n04579145_5621.png,n04579145_5621.png,1.0,4.3946314,-3.46921,5.5605755
alexnet_w1_mlp_simclrhn_probe1,1,505,NaN,knife,truck,150,0505_ps_dnn_150_truck_10_n03417042_6250.png,n03417042_6250.png,0.0,-10.098343,-1.0585517,-6.3920975
alexnet_w1_mlp_simclrhn_probe1,1,506,NaN,bear,dog,90,0506_ps_dnn_90_dog_10_n02108551_14704.png,n02108551_14704.png,0.0,-1.4780043,1.5966215,-2.174089
alexnet_w1_mlp_simclrhn_probe1,1,507,NaN,boat,boat,30,0507_ps_dnn_30_boat_10_n04612504_8407.png,n04612504_8407.png,1.0,4.164391,-1.3893725,3.9271038
alexnet_w1_mlp_simclrhn_probe1,1,508,NaN,knife,car,120,0508_ps_dnn_120_car_10_n03100240_14794.png,n03100240_14794.png,0.0,-9.868789,-2.2153955,-5.4117665
alexnet_w1_mlp_simclrhn_probe1,1,509,NaN,oven,dog,60,0509_ps_dnn_60_dog_10_n02097658_759.png,n02097658_759.png,0.0,-2.2475138,0.6169271,-2.0254657
alexnet_w1_mlp_simclrhn_probe1,1,510,NaN,bear,oven,90,0510_ps_dnn_90_oven_10_n04111531_5965.png,n04111531_5965.png,0.0,-1.1718704,-0.46696705,-0.4984419
alexnet_w1_mlp_simclrhn_probe1,1,511,NaN,knife,elephant,180,0511_ps_dnn_180_elephant_10_n02504013_6984.png,n02504013_6984.png,0.0,-2.46913,-1.3252265,-0.8088619
alexnet_w1_mlp_simclrhn_probe1,1,512,NaN,oven,oven,180,0512_ps_dnn_180_oven_10_n04111531_6695.png,n04111531_6695.png,1.0,-1.5617698,-2.1598868,0.4229326
alexnet_w1_mlp_simclrhn_probe1,1,513,NaN,bear,bird,60,0513_ps_dnn_60_bird_10_n02037110_4572.png,n02037110_4572.png,0.0,-1.9687374,-0.9991913,-0.6855726
alexnet_w1_mlp_simclrhn_probe1,1,514,NaN,oven,truck,30,0514_ps_dnn_30_truck_10_n03796401_11628.png,n03796401_11628.png,0.0,-3.1691284,0.4986384,-2.5935028
alexnet_w1_mlp_simclrhn_probe1,1,515,NaN,bear,chair,180,0515_ps_dnn_180_chair_10_n02791124_1258.png,n02791124_1258.png,0.0,-6.3439894,-1.1512536,-3.6718187
alexnet_w1_mlp_simclrhn_probe1,1,516,NaN,elephant,knife,0,0516_ps_dnn_0_knife_10_n03041632_62810.png,n03041632_62810.png,0.0,-3.5789492,0.17318971,-2.653163
alexnet_w1_mlp_simclrhn_probe1,1,517,NaN,oven,bird,90,0517_ps_dnn_90_bird_10_n01819313_2770.png,n01819313_2770.png,0.0,-3.695991,-0.8692333,-1.9988196
alexnet_w1_mlp_simclrhn_probe1,1,518,NaN,bicycle,bicycle,60,0518_ps_dnn_60_bicycle_10_n02835271_25519.png,n02835271_25519.png,1.0,1.1304326,-3.101202,2.9922175
alexnet_w1_mlp_simclrhn_probe1,1,519,NaN,boat,boat,0,0519_ps_dnn_0_boat_10_n03662601_23248.png,n03662601_23248.png,1.0,7.0828032,2.9734561,2.9057474
alexnet_w1_mlp_simclrhn_probe1,1,520,NaN,oven,elephant,120,0520_ps_dnn_120_elephant_10_n02504013_1784.png,n02504013_1784.png,0.0,-1.9921527,0.37514517,-1.6739324
alexnet_w1_mlp_simclrhn_probe1,1,521,NaN,knife,cat,150,0521_ps_dnn_150_cat_10_n02123394_270.png,n02123394_270.png,0.0,-3.3037865,-0.81411,-1.7604672
alexnet_w1_mlp_simclrhn_probe1,1,522,NaN,elephant,dog,30,0522_ps_dnn_30_dog_10_n02093647_1022.png,n02093647_1022.png,0.0,1.4875007,3.47859,-1.4079129
alexnet_w1_mlp_simclrhn_probe1,1,523,NaN,boat,boat,30,0523_ps_dnn_30_boat_10_n03662601_4881.png,n03662601_4881.png,1.0,2.7690496,2.5820026,0.13226222
alexnet_w1_mlp_simclrhn_probe1,1,524,NaN,oven,knife,60,0524_ps_dnn_60_knife_10_n03041632_8321.png,n03041632_8321.png,0.0,-2.0821362,0.27539873,-1.6670289
alexnet_w1_mlp_simclrhn_probe1,1,525,NaN,bear,car,120,0525_ps_dnn_120_car_10_n02814533_60400.png,n02814533_60400.png,0.0,-7.631267,-0.8100142,-4.8233542
alexnet_w1_mlp_simclrhn_probe1,1,526,NaN,bear,cat,150,0526_ps_dnn_150_cat_10_n02123597_3280.png,n02123597_3280.png,0.0,-1.660376,-0.7427498,-0.6488597
alexnet_w1_mlp_simclrhn_probe1,1,527,NaN,bear,dog,150,0527_ps_dnn_150_dog_10_n02110063_3399.png,n02110063_3399.png,0.0,-3.2381501,-0.14970984,-2.183857
alexnet_w1_mlp_simclrhn_probe1,1,528,NaN,bear,bear,0,0528_ps_dnn_0_bear_10_n02132136_3109.png,n02132136_3109.png,1.0,3.6245265,1.166355,1.7381897
alexnet_w1_mlp_simclrhn_probe1,1,529,NaN,bear,bear,0,0529_ps_dnn_0_bear_10_n02134084_16632.png,n02134084_16632.png,1.0,1.720819,0.67230314,0.74141264
alexnet_w1_mlp_simclrhn_probe1,1,530,NaN,oven,bottle,150,0530_ps_dnn_150_bottle_10_n04591713_5851.png,n04591713_5851.png,0.0,-3.6771674,-1.9706014,-1.2067244
alexnet_w1_mlp_simclrhn_probe1,1,531,NaN,oven,knife,0,0531_ps_dnn_0_knife_10_n03041632_29961.png,n03041632_29961.png,0.0,-2.2374656,-0.3604413,-1.3272567
alexnet_w1_mlp_simclrhn_probe1,1,532,NaN,knife,knife,30,0532_ps_dnn_30_knife_10_n03041632_10140.png,n03041632_10140.png,1.0,-1.1945914,-3.1428459,1.3776239
alexnet_w1_mlp_simclrhn_probe1,1,533,NaN,elephant,airplane,180,0533_ps_dnn_180_airplane_10_n02690373_8765.png,n02690373_8765.png,0.0,-9.86339,-0.46502578,-6.645647
alexnet_w1_mlp_simclrhn_probe1,1,534,NaN,oven,knife,120,0534_ps_dnn_120_knife_10_n03041632_16826.png,n03041632_16826.png,0.0,-1.7867702,0.1385519,-1.3614084
alexnet_w1_mlp_simclrhn_probe1,1,535,NaN,oven,chair,30,0535_ps_dnn_30_chair_10_n04429376_21089.png,n04429376_21089.png,0.0,-1.0502185,-0.8617089,-0.1332964
alexnet_w1_mlp_simclrhn_probe1,1,536,NaN,bear,bear,60,0536_ps_dnn_60_bear_10_n02134084_15118.png,n02134084_15118.png,1.0,2.3458157,1.5453157,0.5660389
alexnet_w1_mlp_simclrhn_probe1,1,537,NaN,oven,car,120,0537_ps_dnn_120_car_10_n04285008_3884.png,n04285008_3884.png,0.0,-8.441479,-1.3828788,-4.9911838
alexnet_w1_mlp_simclrhn_probe1,1,538,NaN,elephant,boat,150,0538_ps_dnn_150_boat_10_n04273569_1576.png,n04273569_1576.png,0.0,-3.2478142,-0.9895862,-1.5968084
alexnet_w1_mlp_simclrhn_probe1,1,539,NaN,oven,bicycle,120,0539_ps_dnn_120_bicycle_10_n03792782_4600.png,n03792782_4600.png,0.0,-2.2628763,-1.3684546,-0.63245165
alexnet_w1_mlp_simclrhn_probe1,1,540,NaN,keyboard,clock,30,0540_ps_dnn_30_clock_10_n03196217_4537.png,n03196217_4537.png,0.0,1.4807674,2.1772518,-0.4924889
alexnet_w1_mlp_simclrhn_probe1,1,541,NaN,boat,airplane,60,0541_ps_dnn_60_airplane_10_n02690373_10203.png,n02690373_10203.png,0.0,0.7891269,1.2529198,-0.32795113
alexnet_w1_mlp_simclrhn_probe1,1,542,NaN,truck,truck,30,0542_ps_dnn_30_truck_10_n04467665_48875.png,n04467665_48875.png,1.0,0.8039168,0.5341734,0.19073738
alexnet_w1_mlp_simclrhn_probe1,1,543,NaN,oven,car,60,0543_ps_dnn_60_car_10_n02814533_38071.png,n02814533_38071.png,0.0,-2.2929838,-0.2543074,-1.4415618
alexnet_w1_mlp_simclrhn_probe1,1,544,NaN,bicycle,bear,90,0544_ps_dnn_90_bear_10_n02133161_160.png,n02133161_160.png,0.0,-4.2534876,-2.7558582,-1.0589839
alexnet_w1_mlp_simclrhn_probe1,1,545,NaN,truck,car,30,0545_ps_dnn_30_car_10_n02814533_40344.png,n02814533_40344.png,0.0,-2.2782018,0.3620181,-1.8669175
alexnet_w1_mlp_simclrhn_probe1,1,546,NaN,knife,oven,180,0546_ps_dnn_180_oven_10_n04111531_9026.png,n04111531_9026.png,0.0,-2.595273,-1.7076406,-0.62765086
alexnet_w1_mlp_simclrhn_probe1,1,547,NaN,knife,cat,0,0547_ps_dnn_0_cat_10_n02123597_13755.png,n02123597_13755.png,0.0,-2.3844016,-2.253104,-0.09284142
alexnet_w1_mlp_simclrhn_probe1,1,548,NaN,elephant,car,150,0548_ps_dnn_150_car_10_n02814533_39485.png,n02814533_39485.png,0.0,-10.665275,-0.0091528855,-7.5350165
alexnet_w1_mlp_simclrhn_probe1,1,549,NaN,knife,bottle,90,0549_ps_dnn_90_bottle_10_n03937543_4512.png,n03937543_4512.png,0.0,-1.3432707,-0.06043012,-0.9071052
alexnet_w1_mlp_simclrhn_probe1,1,550,NaN,bear,cat,120,0550_ps_dnn_120_cat_10_n02124075_2402.png,n02124075_2402.png,0.0,-2.714597,-1.2718946,-1.0201447
alexnet_w1_mlp_simclrhn_probe1,1,551,NaN,elephant,bird,0,0551_ps_dnn_0_bird_10_n02056570_9835.png,n02056570_9835.png,0.0,-2.5983114,-0.81636095,-1.2600293
alexnet_w1_mlp_simclrhn_probe1,1,552,NaN,knife,clock,120,0552_ps_dnn_120_clock_10_n04548280_13247.png,n04548280_13247.png,0.0,-2.0475466,-1.3919356,-0.46358702
alexnet_w1_mlp_simclrhn_probe1,1,553,NaN,oven,truck,60,0553_ps_dnn_60_truck_10_n03417042_173.png,n03417042_173.png,0.0,-0.9024659,1.2696513,-1.5359188
alexnet_w1_mlp_simclrhn_probe1,1,554,NaN,knife,airplane,180,0554_ps_dnn_180_airplane_10_n02690373_1592.png,n02690373_1592.png,0.0,-7.8004866,-1.0271732,-4.789456
alexnet_w1_mlp_simclrhn_probe1,1,555,NaN,elephant,elephant,0,0555_ps_dnn_0_elephant_10_n02504013_1953.png,n02504013_1953.png,1.0,7.067686,1.6828513,3.8076532
alexnet_w1_mlp_simclrhn_probe1,1,556,NaN,knife,elephant,150,0556_ps_dnn_150_elephant_10_n02504458_4348.png,n02504458_4348.png,0.0,-3.1040678,-1.0158193,-1.4766147
alexnet_w1_mlp_simclrhn_probe1,1,557,NaN,oven,airplane,90,0557_ps_dnn_90_airplane_10_n02690373_1854.png,n02690373_1854.png,0.0,-11.757059,-1.1417543,-7.506154
alexnet_w1_mlp_simclrhn_probe1,1,558,NaN,knife,cat,180,0558_ps_dnn_180_cat_10_n02124075_14363.png,n02124075_14363.png,0.0,-2.8265674,-0.8493843,-1.3980796
alexnet_w1_mlp_simclrhn_probe1,1,559,NaN,oven,bottle,30,0559_ps_dnn_30_bottle_10_n03983396_3377.png,n03983396_3377.png,0.0,-1.3207598,0.42792064,-1.2365037
alexnet_w1_mlp_simclrhn_probe1,1,560,NaN,clock,clock,90,0560_ps_dnn_90_clock_10_n04548280_6743.png,n04548280_6743.png,1.0,-0.8056278,-1.9893928,0.83704823
alexnet_w1_mlp_simclrhn_probe1,1,561,NaN,clock,clock,30,0561_ps_dnn_30_clock_10_n03196217_8034.png,n03196217_8034.png,1.0,0.122581206,-0.5694024,0.4893063
alexnet_w1_mlp_simclrhn_probe1,1,562,NaN,bear,dog,150,0562_ps_dnn_150_dog_10_n02088094_13992.png,n02088094_13992.png,0.0,-5.083788,-1.5691551,-2.4852207
alexnet_w1_mlp_simclrhn_probe1,1,563,NaN,car,car,30,0563_ps_dnn_30_car_10_n03100240_6216.png,n03100240_6216.png,1.0,3.189415,0.8888236,1.6267638
alexnet_w1_mlp_simclrhn_probe1,1,564,NaN,oven,oven,30,0564_ps_dnn_30_oven_10_n04111531_2831.png,n04111531_2831.png,1.0,3.1385326,-1.9751091,3.6158907
alexnet_w1_mlp_simclrhn_probe1,1,565,NaN,knife,knife,0,0565_ps_dnn_0_knife_10_n03041632_927.png,n03041632_927.png,1.0,2.3605003,-1.0383308,2.4033365
alexnet_w1_mlp_simclrhn_probe1,1,566,NaN,knife,knife,150,0566_ps_dnn_150_knife_10_n03041632_5427.png,n03041632_5427.png,1.0,-2.2832422,-2.5045419,0.15648249
alexnet_w1_mlp_simclrhn_probe1,1,567,NaN,knife,cat,180,0567_ps_dnn_180_cat_10_n02123045_8690.png,n02123045_8690.png,0.0,-4.7884264,-1.6227674,-2.2384589
alexnet_w1_mlp_simclrhn_probe1,1,568,NaN,clock,clock,90,0568_ps_dnn_90_clock_10_n02708093_6696.png,n02708093_6696.png,1.0,-1.0913359,-2.381709,0.91243166
alexnet_w1_mlp_simclrhn_probe1,1,569,NaN,airplane,airplane,60,0569_ps_dnn_60_airplane_10_n02690373_7748.png,n02690373_7748.png,1.0,2.859716,1.9015194,0.6775473
alexnet_w1_mlp_simclrhn_probe1,1,570,NaN,airplane,airplane,0,0570_ps_dnn_0_airplane_10_n02690373_20011.png,n02690373_20011.png,1.0,0.84173167,-0.7345701,1.1146138
alexnet_w1_mlp_simclrhn_probe1,1,571,NaN,elephant,boat,150,0571_ps_dnn_150_boat_10_n02951358_16728.png,n02951358_16728.png,0.0,-2.558209,-1.1254468,-1.0131159
alexnet_w1_mlp_simclrhn_probe1,1,572,NaN,airplane,truck,60,0572_ps_dnn_60_truck_10_n04467665_37833.png,n04467665_37833.png,0.0,-0.30651027,1.5438035,-1.3083694
alexnet_w1_mlp_simclrhn_probe1,1,573,NaN,truck,oven,0,0573_ps_dnn_0_oven_10_n04111531_22886.png,n04111531_22886.png,0.0,-0.6118523,-0.6092245,-0.0018581281
alexnet_w1_mlp_simclrhn_probe1,1,574,NaN,car,car,30,0574_ps_dnn_30_car_10_n04285008_5959.png,n04285008_5959.png,1.0,6.67364,2.1595364,3.1919532
alexnet_w1_mlp_simclrhn_probe1,1,575,NaN,oven,boat,120,0575_ps_dnn_120_boat_10_n04273569_10840.png,n04273569_10840.png,0.0,-5.6686363,-1.6074554,-2.8716886
alexnet_w1_mlp_simclrhn_probe1,1,576,NaN,knife,clock,180,0576_ps_dnn_180_clock_10_n02708093_1352.png,n02708093_1352.png,0.0,-3.6603086,-1.0042081,-1.8781468
alexnet_w1_mlp_simclrhn_probe1,1,577,NaN,oven,oven,120,0577_ps_dnn_120_oven_10_n04111531_1004.png,n04111531_1004.png,1.0,-2.1396775,-2.4961493,0.2520636
alexnet_w1_mlp_simclrhn_probe1,1,578,NaN,elephant,car,180,0578_ps_dnn_180_car_10_n03100240_4619.png,n03100240_4619.png,0.0,-7.0681405,-0.6676889,-4.5258026
alexnet_w1_mlp_simclrhn_probe1,1,579,NaN,knife,oven,180,0579_ps_dnn_180_oven_10_n04111531_15367.png,n04111531_15367.png,0.0,-2.984299,-1.1684914,-1.2839699
alexnet_w1_mlp_simclrhn_probe1,1,580,NaN,oven,oven,30,0580_ps_dnn_30_oven_10_n04111531_6903.png,n04111531_6903.png,1.0,0.94175255,-1.4789106,1.7116673
alexnet_w1_mlp_simclrhn_probe1,1,581,NaN,oven,oven,60,0581_ps_dnn_60_oven_10_n04111531_1662.png,n04111531_1662.png,1.0,1.7279805,-0.8499687,1.8228853
alexnet_w1_mlp_simclrhn_probe1,1,582,NaN,keyboard,keyboard,0,0582_ps_dnn_0_keyboard_10_n04505470_1342.png,n04505470_1342.png,1.0,7.6980486,-1.3119631,6.3710403
alexnet_w1_mlp_simclrhn_probe1,1,583,NaN,boat,boat,60,0583_ps_dnn_60_boat_10_n02951358_1911.png,n02951358_1911.png,1.0,0.3292706,-0.64833915,0.6912745
alexnet_w1_mlp_simclrhn_probe1,1,584,NaN,bicycle,bicycle,30,0584_ps_dnn_30_bicycle_10_n03792782_42927.png,n03792782_42927.png,1.0,2.9465356,-1.4740026,3.1257925
alexnet_w1_mlp_simclrhn_probe1,1,585,NaN,oven,chair,180,0585_ps_dnn_180_chair_10_n02791124_3994.png,n02791124_3994.png,0.0,-7.247385,-1.0414966,-4.3882256
alexnet_w1_mlp_simclrhn_probe1,1,586,NaN,dog,dog,0,0586_ps_dnn_0_dog_10_n02101388_1383.png,n02101388_1383.png,1.0,3.6191893,-1.7179486,3.7739263
alexnet_w1_mlp_simclrhn_probe1,1,587,NaN,oven,bear,30,0587_ps_dnn_30_bear_10_n02132136_9367.png,n02132136_9367.png,0.0,-7.401202,-3.4981852,-2.7598498
alexnet_w1_mlp_simclrhn_probe1,1,588,NaN,knife,dog,150,0588_ps_dnn_150_dog_10_n02108915_7875.png,n02108915_7875.png,0.0,-2.439824,-1.281014,-0.8194025
alexnet_w1_mlp_simclrhn_probe1,1,589,NaN,bottle,chair,60,0589_ps_dnn_60_chair_10_n02791124_6237.png,n02791124_6237.png,0.0,-3.1716905,-2.3176742,-0.6038807
alexnet_w1_mlp_simclrhn_probe1,1,590,NaN,cat,bird,60,0590_ps_dnn_60_bird_10_n01622779_13896.png,n01622779_13896.png,0.0,-10.991526,-0.34584746,-7.5276318
alexnet_w1_mlp_simclrhn_probe1,1,591,NaN,oven,boat,30,0591_ps_dnn_30_boat_10_n04273569_15583.png,n04273569_15583.png,0.0,-1.7814556,-1.1825657,-0.42347914
alexnet_w1_mlp_simclrhn_probe1,1,592,NaN,knife,bottle,0,0592_ps_dnn_0_bottle_10_n03937543_3079.png,n03937543_3079.png,0.0,-1.804134,0.83021337,-1.862765
alexnet_w1_mlp_simclrhn_probe1,1,593,NaN,knife,dog,150,0593_ps_dnn_150_dog_10_n02110063_5687.png,n02110063_5687.png,0.0,-5.361228,-2.751543,-1.845326
alexnet_w1_mlp_simclrhn_probe1,1,594,NaN,truck,truck,30,0594_ps_dnn_30_truck_10_n03417042_6685.png,n03417042_6685.png,1.0,-0.8028285,-1.6244599,0.58098114
alexnet_w1_mlp_simclrhn_probe1,1,595,NaN,clock,clock,0,0595_ps_dnn_0_clock_10_n02708093_340.png,n02708093_340.png,1.0,6.896108,-0.8375498,5.468522
alexnet_w1_mlp_simclrhn_probe1,1,596,NaN,elephant,dog,0,0596_ps_dnn_0_dog_10_n02111129_5463.png,n02111129_5463.png,0.0,2.2685273,3.5189993,-0.8842173
alexnet_w1_mlp_simclrhn_probe1,1,597,NaN,bicycle,bicycle,90,0597_ps_dnn_90_bicycle_10_n03792782_17503.png,n03792782_17503.png,1.0,0.704264,-1.2021301,1.3480241
alexnet_w1_mlp_simclrhn_probe1,1,598,NaN,bear,bear,60,0598_ps_dnn_60_bear_10_n02134084_9253.png,n02134084_9253.png,1.0,-1.7146657,-2.2183943,0.35618994
alexnet_w1_mlp_simclrhn_probe1,1,599,NaN,bicycle,car,30,0599_ps_dnn_30_car_10_n04285008_3688.png,n04285008_3688.png,0.0,0.120411225,0.9596969,-0.5934646
alexnet_w1_mlp_simclrhn_probe1,1,600,NaN,knife,bird,150,0600_ps_dnn_150_bird_10_n01795545_17324.png,n01795545_17324.png,0.0,-2.42798,-1.0605379,-0.9669275
alexnet_w1_mlp_simclrhn_probe1,1,601,NaN,boat,boat,30,0601_ps_dnn_30_boat_10_n04273569_16064.png,n04273569_16064.png,1.0,2.3561754,-1.8916798,3.0036871
alexnet_w1_mlp_simclrhn_probe1,1,602,NaN,knife,elephant,180,0602_ps_dnn_180_elephant_10_n02504458_4395.png,n02504458_4395.png,0.0,-2.9265304,-0.295773,-1.8602264
alexnet_w1_mlp_simclrhn_probe1,1,603,NaN,oven,oven,30,0603_ps_dnn_30_oven_10_n04111531_21855.png,n04111531_21855.png,1.0,5.199314,-0.78257,4.2298307
alexnet_w1_mlp_simclrhn_probe1,1,604,NaN,oven,oven,30,0604_ps_dnn_30_oven_10_n04111531_11225.png,n04111531_11225.png,1.0,3.9723234,-1.3182026,3.7409668
alexnet_w1_mlp_simclrhn_probe1,1,605,NaN,oven,oven,150,0605_ps_dnn_150_oven_10_n04111531_13486.png,n04111531_13486.png,1.0,-1.0047688,-1.20843,0.14401022
alexnet_w1_mlp_simclrhn_probe1,1,606,NaN,chair,chair,0,0606_ps_dnn_0_chair_10_n02791124_1693.png,n02791124_1693.png,1.0,0.92176336,0.045939773,0.61930084
alexnet_w1_mlp_simclrhn_probe1,1,607,NaN,knife,chair,150,0607_ps_dnn_150_chair_10_n04099969_26462.png,n04099969_26462.png,0.0,-6.572228,-1.4056025,-3.653356
alexnet_w1_mlp_simclrhn_probe1,1,608,NaN,oven,chair,120,0608_ps_dnn_120_chair_10_n04429376_16869.png,n04429376_16869.png,0.0,-5.903654,-2.5545797,-2.3681533
alexnet_w1_mlp_simclrhn_probe1,1,609,NaN,knife,bottle,0,0609_ps_dnn_0_bottle_10_n03983396_23471.png,n03983396_23471.png,0.0,-3.5429132,-0.93507725,-1.8440186
alexnet_w1_mlp_simclrhn_probe1,1,610,NaN,elephant,bear,0,0610_ps_dnn_0_bear_10_n02134084_5314.png,n02134084_5314.png,0.0,0.739517,0.8392394,-0.07051442
alexnet_w1_mlp_simclrhn_probe1,1,611,NaN,bear,elephant,180,0611_ps_dnn_180_elephant_10_n02504458_4564.png,n02504458_4564.png,0.0,-2.0611026,-0.8771122,-0.83720773
alexnet_w1_mlp_simclrhn_probe1,1,612,NaN,elephant,bear,0,0612_ps_dnn_0_bear_10_n02132136_6967.png,n02132136_6967.png,0.0,4.896345,5.8404,-0.66754776
alexnet_w1_mlp_simclrhn_probe1,1,613,NaN,cat,cat,0,0613_ps_dnn_0_cat_10_n02123394_6517.png,n02123394_6517.png,1.0,2.4765213,0.11636655,1.6688814
alexnet_w1_mlp_simclrhn_probe1,1,614,NaN,knife,keyboard,150,0614_ps_dnn_150_keyboard_10_n04505470_1076.png,n04505470_1076.png,0.0,-1.860313,-0.9754437,-0.62569714
alexnet_w1_mlp_simclrhn_probe1,1,615,NaN,knife,knife,180,0615_ps_dnn_180_knife_10_n03041632_5916.png,n03041632_5916.png,1.0,-1.1721494,-2.002027,0.5868121
alexnet_w1_mlp_simclrhn_probe1,1,616,NaN,elephant,car,90,0616_ps_dnn_90_car_10_n03100240_4674.png,n03100240_4674.png,0.0,-5.394499,0.01230374,-3.8231869
alexnet_w1_mlp_simclrhn_probe1,1,617,NaN,bottle,bottle,90,0617_ps_dnn_90_bottle_10_n02823428_1602.png,n02823428_1602.png,1.0,-0.25790665,-1.8881592,1.1527627
alexnet_w1_mlp_simclrhn_probe1,1,618,NaN,elephant,boat,90,0618_ps_dnn_90_boat_10_n04273569_27343.png,n04273569_27343.png,0.0,-2.0506282,-1.930024,-0.085280016
alexnet_w1_mlp_simclrhn_probe1,1,619,NaN,knife,bottle,120,0619_ps_dnn_120_bottle_10_n04560804_15162.png,n04560804_15162.png,0.0,-3.5907598,-1.8692499,-1.2172912
alexnet_w1_mlp_simclrhn_probe1,1,620,NaN,knife,bottle,120,0620_ps_dnn_120_bottle_10_n03937543_24.png,n03937543_24.png,0.0,-2.48481,-1.2702901,-0.85879534
alexnet_w1_mlp_simclrhn_probe1,1,621,NaN,bear,dog,180,0621_ps_dnn_180_dog_10_n02105162_9615.png,n02105162_9615.png,0.0,-2.9254234,-0.86494344,-1.4569793
alexnet_w1_mlp_simclrhn_probe1,1,622,NaN,elephant,bird,150,0622_ps_dnn_150_bird_10_n01582220_1150.png,n01582220_1150.png,0.0,-2.4890578,-1.359978,-0.79838
alexnet_w1_mlp_simclrhn_probe1,1,623,NaN,knife,clock,180,0623_ps_dnn_180_clock_10_n04548280_4560.png,n04548280_4560.png,0.0,-4.067245,-1.2668647,-1.9801679
alexnet_w1_mlp_simclrhn_probe1,1,624,NaN,knife,bottle,150,0624_ps_dnn_150_bottle_10_n04560804_14605.png,n04560804_14605.png,0.0,-4.1074634,-2.1000764,-1.4194369
alexnet_w1_mlp_simclrhn_probe1,1,625,NaN,chair,chair,0,0625_ps_dnn_0_chair_10_n03376595_262.png,n03376595_262.png,1.0,1.237491,-2.5077348,2.6482747
alexnet_w1_mlp_simclrhn_probe1,1,626,NaN,elephant,dog,180,0626_ps_dnn_180_dog_10_n02091032_6523.png,n02091032_6523.png,0.0,-2.7403135,-1.0497305,-1.1954228
alexnet_w1_mlp_simclrhn_probe1,1,627,NaN,bear,cat,150,0627_ps_dnn_150_cat_10_n02123159_615.png,n02123159_615.png,0.0,-2.83082,-1.078654,-1.2389685
alexnet_w1_mlp_simclrhn_probe1,1,628,NaN,knife,bottle,180,0628_ps_dnn_180_bottle_10_n04579145_6049.png,n04579145_6049.png,0.0,-2.779382,-1.1174425,-1.1751688
alexnet_w1_mlp_simclrhn_probe1,1,629,NaN,keyboard,bottle,90,0629_ps_dnn_90_bottle_10_n02823428_4386.png,n02823428_4386.png,0.0,-4.063808,0.16148621,-2.987734
alexnet_w1_mlp_simclrhn_probe1,1,630,NaN,knife,car,150,0630_ps_dnn_150_car_10_n03100240_4594.png,n03100240_4594.png,0.0,-11.062583,-2.2013228,-6.265857
alexnet_w1_mlp_simclrhn_probe1,1,631,NaN,knife,knife,120,0631_ps_dnn_120_knife_10_n03041632_51581.png,n03041632_51581.png,1.0,-0.378322,-2.3230834,1.375154
alexnet_w1_mlp_simclrhn_probe1,1,632,NaN,oven,keyboard,60,0632_ps_dnn_60_keyboard_10_n03085013_15836.png,n03085013_15836.png,0.0,-1.9055545,-0.8094079,-0.7750927
alexnet_w1_mlp_simclrhn_probe1,1,633,NaN,elephant,bicycle,180,0633_ps_dnn_180_bicycle_10_n03792782_34197.png,n03792782_34197.png,0.0,-3.3395867,-1.1240715,-1.5666058
alexnet_w1_mlp_simclrhn_probe1,1,634,NaN,knife,bicycle,180,0634_ps_dnn_180_bicycle_10_n02835271_9314.png,n02835271_9314.png,0.0,-6.7794623,-0.5920696,-4.3751473
alexnet_w1_mlp_simclrhn_probe1,1,635,NaN,knife,oven,150,0635_ps_dnn_150_oven_10_n04111531_5643.png,n04111531_5643.png,0.0,-1.9391013,-0.7081602,-0.8704068
alexnet_w1_mlp_simclrhn_probe1,1,636,NaN,bear,cat,180,0636_ps_dnn_180_cat_10_n02123394_6362.png,n02123394_6362.png,0.0,-2.8259382,-0.26234087,-1.8127371
alexnet_w1_mlp_simclrhn_probe1,1,637,NaN,elephant,elephant,60,0637_ps_dnn_60_elephant_10_n02504458_3614.png,n02504458_3614.png,1.0,4.078886,0.09294546,2.8184855
alexnet_w1_mlp_simclrhn_probe1,1,638,NaN,knife,chair,180,0638_ps_dnn_180_chair_10_n04099969_6691.png,n04099969_6691.png,0.0,-6.258847,-0.8707789,-3.8099396
