subj,session,trial,rt,object_response,category,condition,imagename,filename,is_correct,targ_act,max_nontarg_act,decision_margin
convnext_large,1,1,NaN,truck,truck,30,0001_ps_dnn_30_truck_10_n03417042_14861.png,n03417042_14861.png,1.0,1.8029704,0.9501445,0.60303897
convnext_large,1,2,NaN,keyboard,keyboard,0,0002_ps_dnn_0_keyboard_10_n03085013_25476.png,n03085013_25476.png,1.0,6.737779,0.6429791,4.3096743
convnext_large,1,3,NaN,elephant,elephant,0,0003_ps_dnn_0_elephant_10_n02504013_3087.png,n02504013_3087.png,1.0,7.1329365,0.29839584,4.8327503
convnext_large,1,4,NaN,cat,cat,30,0004_ps_dnn_30_cat_10_n02123394_4633.png,n02123394_4633.png,1.0,2.1655867,0.7633255,0.9915485
convnext_large,1,5,NaN,cat,knife,120,0005_ps_dnn_120_knife_10_n03041632_48151.png,n03041632_48151.png,0.0,0.25102946,0.6977551,-0.31588274
convnext_large,1,6,NaN,bicycle,bicycle,60,0006_ps_dnn_60_bicycle_10_n02835271_1075.png,n02835271_1075.png,1.0,4.8505964,0.70848244,2.9289172
convnext_large,1,7,NaN,cat,bear,180,0007_ps_dnn_180_bear_10_n02134084_10289.png,n02134084_10289.png,0.0,-0.16584973,0.7117245,-0.6205387
convnext_large,1,8,NaN,keyboard,keyboard,0,0008_ps_dnn_0_keyboard_10_n03085013_21967.png,n03085013_21967.png,1.0,4.9162483,1.0201402,2.7549646
convnext_large,1,9,NaN,clock,oven,150,0009_ps_dnn_150_oven_10_n04111531_5737.png,n04111531_5737.png,0.0,-1.8470994,1.2905716,-2.2186685
convnext_large,1,10,NaN,elephant,elephant,60,0010_ps_dnn_60_elephant_10_n02504458_8141.png,n02504458_8141.png,1.0,3.6195185,1.040139,1.8238968
convnext_large,1,11,NaN,elephant,elephant,90,0011_ps_dnn_90_elephant_10_n02504458_3153.png,n02504458_3153.png,1.0,5.6216335,0.3843033,3.703352
convnext_large,1,12,NaN,bear,bear,60,0012_ps_dnn_60_bear_10_n02134418_5807.png,n02134418_5807.png,1.0,5.0880017,2.1341152,2.0887132
convnext_large,1,13,NaN,boat,boat,0,0013_ps_dnn_0_boat_10_n04273569_15322.png,n04273569_15322.png,1.0,2.312669,1.343868,0.6850458
convnext_large,1,14,NaN,knife,knife,0,0014_ps_dnn_0_knife_10_n03041632_42526.png,n03041632_42526.png,1.0,7.790559,0.96871984,4.8237686
convnext_large,1,15,NaN,bicycle,bicycle,30,0015_ps_dnn_30_bicycle_10_n02835271_5886.png,n02835271_5886.png,1.0,5.6676493,0.5428734,3.6237638
convnext_large,1,16,NaN,clock,dog,180,0016_ps_dnn_180_dog_10_n02110063_869.png,n02110063_869.png,0.0,-0.22366051,1.598328,-1.2883404
convnext_large,1,17,NaN,clock,bicycle,180,0017_ps_dnn_180_bicycle_10_n03792782_3334.png,n03792782_3334.png,0.0,-0.7981673,1.1757957,-1.3958026
convnext_large,1,18,NaN,airplane,airplane,0,0018_ps_dnn_0_airplane_10_n02690373_7355.png,n02690373_7355.png,1.0,8.656727,0.26747817,5.932095
convnext_large,1,19,NaN,cat,bird,120,0019_ps_dnn_120_bird_10_n01798484_2289.png,n01798484_2289.png,0.0,-0.3340097,0.85260695,-0.8390647
convnext_large,1,20,NaN,knife,knife,60,0020_ps_dnn_60_knife_10_n03041632_87380.png,n03041632_87380.png,1.0,6.4122357,1.0443449,3.7956722
convnext_large,1,21,NaN,bird,bird,0,0021_ps_dnn_0_bird_10_n02027492_15639.png,n02027492_15639.png,1.0,0.9455759,0.89590454,0.03512295
convnext_large,1,22,NaN,bird,bird,0,0022_ps_dnn_0_bird_10_n02006656_7153.png,n02006656_7153.png,1.0,0.61344296,0.3358341,0.19629912
convnext_large,1,23,NaN,boat,boat,60,0023_ps_dnn_60_boat_10_n04612504_14699.png,n04612504_14699.png,1.0,2.8016593,0.83288157,1.3921361
convnext_large,1,24,NaN,bear,bear,60,0024_ps_dnn_60_bear_10_n02134418_5971.png,n02134418_5971.png,1.0,3.0008702,0.37254754,1.8585048
convnext_large,1,25,NaN,elephant,dog,90,0025_ps_dnn_90_dog_10_n02110063_16680.png,n02110063_16680.png,0.0,0.31783172,0.91651046,-0.42332977
convnext_large,1,26,NaN,car,car,90,0026_ps_dnn_90_car_10_n03100240_6010.png,n03100240_6010.png,1.0,5.4657264,2.4457717,2.1354306
convnext_large,1,27,NaN,elephant,elephant,30,0027_ps_dnn_30_elephant_10_n02504458_9835.png,n02504458_9835.png,1.0,6.193512,0.4847154,4.036729
convnext_large,1,28,NaN,airplane,airplane,30,0028_ps_dnn_30_airplane_10_n02690373_10207.png,n02690373_10207.png,1.0,8.487494,0.4712809,5.6683187
convnext_large,1,29,NaN,bottle,bottle,180,0029_ps_dnn_180_bottle_10_n03983396_5532.png,n03983396_5532.png,1.0,0.9034528,0.8018359,0.07185401
convnext_large,1,30,NaN,elephant,dog,30,0030_ps_dnn_30_dog_10_n02090622_1485.png,n02090622_1485.png,0.0,0.20087746,0.40158737,-0.14192334
convnext_large,1,31,NaN,cat,truck,150,0031_ps_dnn_150_truck_10_n03417042_5503.png,n03417042_5503.png,0.0,-0.62111497,0.460387,-0.76473737
convnext_large,1,32,NaN,clock,bear,180,0032_ps_dnn_180_bear_10_n02133161_897.png,n02133161_897.png,0.0,-0.738427,0.7450204,-1.0489557
convnext_large,1,33,NaN,clock,keyboard,180,0033_ps_dnn_180_keyboard_10_n04505470_4579.png,n04505470_4579.png,0.0,0.43822485,0.5108409,-0.051347297
convnext_large,1,34,NaN,airplane,bird,60,0034_ps_dnn_60_bird_10_n01592084_5833.png,n01592084_5833.png,0.0,0.21573567,0.44476068,-0.16194513
convnext_large,1,35,NaN,bear,dog,0,0035_ps_dnn_0_dog_10_n02090379_3514.png,n02090379_3514.png,0.0,0.36855552,0.3785898,-0.007095317
convnext_large,1,36,NaN,cat,airplane,180,0036_ps_dnn_180_airplane_10_n02690373_6144.png,n02690373_6144.png,0.0,-0.21626353,0.2767518,-0.34861448
convnext_large,1,37,NaN,airplane,airplane,90,0037_ps_dnn_90_airplane_10_n02690373_1436.png,n02690373_1436.png,1.0,6.4999714,0.2636434,4.40975
convnext_large,1,38,NaN,clock,clock,120,0038_ps_dnn_120_clock_10_n04548280_354.png,n04548280_354.png,1.0,3.6044633,0.70441496,2.050644
convnext_large,1,39,NaN,keyboard,keyboard,0,0039_ps_dnn_0_keyboard_10_n03085013_2189.png,n03085013_2189.png,1.0,4.505756,0.47289807,2.8516612
convnext_large,1,40,NaN,cat,chair,120,0040_ps_dnn_120_chair_10_n04099969_9005.png,n04099969_9005.png,0.0,0.42893684,0.4733915,-0.031434193
convnext_large,1,41,NaN,clock,bicycle,180,0041_ps_dnn_180_bicycle_10_n02835271_7350.png,n02835271_7350.png,0.0,-0.39637715,0.49372554,-0.62939763
convnext_large,1,42,NaN,cat,bottle,150,0042_ps_dnn_150_bottle_10_n04557648_8320.png,n04557648_8320.png,0.0,-0.2524235,0.23596066,-0.34533975
convnext_large,1,43,NaN,dog,dog,0,0043_ps_dnn_0_dog_10_n02105641_6503.png,n02105641_6503.png,1.0,0.33593997,0.3040828,0.022526417
convnext_large,1,44,NaN,clock,clock,90,0044_ps_dnn_90_clock_10_n04548280_6022.png,n04548280_6022.png,1.0,4.67063,0.8134577,2.7274327
convnext_large,1,45,NaN,keyboard,clock,60,0045_ps_dnn_60_clock_10_n03196217_7414.png,n03196217_7414.png,0.0,2.5228777,3.9221308,-0.98942137
convnext_large,1,46,NaN,bottle,oven,150,0046_ps_dnn_150_oven_10_n04111531_7965.png,n04111531_7965.png,0.0,-1.6427059,0.3691163,-1.4225732
convnext_large,1,47,NaN,bottle,bottle,90,0047_ps_dnn_90_bottle_10_n04579145_4594.png,n04579145_4594.png,1.0,1.2925075,0.53446203,0.53601915
convnext_large,1,48,NaN,bottle,bottle,30,0048_ps_dnn_30_bottle_10_n03983396_4564.png,n03983396_4564.png,1.0,4.0265994,0.5318992,2.4711263
convnext_large,1,49,NaN,cat,cat,60,0049_ps_dnn_60_cat_10_n02125311_54015.png,n02125311_54015.png,1.0,2.76707,0.2782544,1.7598585
convnext_large,1,50,NaN,clock,bicycle,150,0050_ps_dnn_150_bicycle_10_n03792782_5133.png,n03792782_5133.png,0.0,-1.2127147,1.3097767,-1.7836709
convnext_large,1,51,NaN,bicycle,bird,120,0051_ps_dnn_120_bird_10_n02018207_6296.png,n02018207_6296.png,0.0,0.022043165,1.1667901,-0.8094584
convnext_large,1,52,NaN,knife,bird,30,0052_ps_dnn_30_bird_10_n01817953_11996.png,n01817953_11996.png,0.0,0.19318521,0.39591983,-0.14335503
convnext_large,1,53,NaN,cat,keyboard,150,0053_ps_dnn_150_keyboard_10_n03085013_3148.png,n03085013_3148.png,0.0,-0.041306853,0.78473186,-0.58409756
convnext_large,1,54,NaN,bear,bear,60,0054_ps_dnn_60_bear_10_n02134418_5537.png,n02134418_5537.png,1.0,2.6918664,0.1869481,1.7712448
convnext_large,1,55,NaN,clock,cat,150,0055_ps_dnn_150_cat_10_n02125311_11409.png,n02125311_11409.png,0.0,0.14389028,1.2674571,-0.79448175
convnext_large,1,56,NaN,knife,knife,30,0056_ps_dnn_30_knife_10_n03041632_3063.png,n03041632_3063.png,1.0,4.294828,0.7637858,2.4968238
convnext_large,1,57,NaN,cat,dog,60,0057_ps_dnn_60_dog_10_n02106550_6424.png,n02106550_6424.png,0.0,0.45421603,0.48326853,-0.020543218
convnext_large,1,58,NaN,bear,bear,30,0058_ps_dnn_30_bear_10_n02133161_7032.png,n02133161_7032.png,1.0,4.171802,0.6600908,2.4831548
convnext_large,1,59,NaN,clock,cat,150,0059_ps_dnn_150_cat_10_n02125311_5570.png,n02125311_5570.png,0.0,-0.15802489,1.0184797,-0.8319144
convnext_large,1,60,NaN,elephant,bird,30,0060_ps_dnn_30_bird_10_n01843383_13894.png,n01843383_13894.png,0.0,0.23672493,0.48118615,-0.17286019
convnext_large,1,61,NaN,boat,bottle,60,0061_ps_dnn_60_bottle_10_n03983396_2205.png,n03983396_2205.png,0.0,0.87572056,1.3196284,-0.31389022
convnext_large,1,62,NaN,bicycle,bicycle,60,0062_ps_dnn_60_bicycle_10_n03792782_31010.png,n03792782_31010.png,1.0,5.807102,0.74525946,3.5792634
convnext_large,1,63,NaN,bottle,bottle,60,0063_ps_dnn_60_bottle_10_n02823428_880.png,n02823428_880.png,1.0,2.7495675,0.43500662,1.6366417
convnext_large,1,64,NaN,boat,car,180,0064_ps_dnn_180_car_10_n02814533_40459.png,n02814533_40459.png,0.0,-0.21880901,0.2539897,-0.33431917
convnext_large,1,65,NaN,cat,cat,120,0065_ps_dnn_120_cat_10_n02123045_567.png,n02123045_567.png,1.0,3.3024356,0.21519057,2.183012
convnext_large,1,66,NaN,knife,knife,120,0066_ps_dnn_120_knife_10_n03041632_24541.png,n03041632_24541.png,1.0,2.1189375,0.76167154,0.959732
convnext_large,1,67,NaN,elephant,elephant,30,0067_ps_dnn_30_elephant_10_n02504458_8644.png,n02504458_8644.png,1.0,5.917242,0.33805868,3.9450786
convnext_large,1,68,NaN,keyboard,keyboard,0,0068_ps_dnn_0_keyboard_10_n03085013_2166.png,n03085013_2166.png,1.0,3.3415031,0.39249632,2.0852628
convnext_large,1,69,NaN,boat,boat,90,0069_ps_dnn_90_boat_10_n04273569_13972.png,n04273569_13972.png,1.0,2.6038976,0.5787192,1.4320174
convnext_large,1,70,NaN,keyboard,airplane,150,0070_ps_dnn_150_airplane_10_n02690373_9432.png,n02690373_9432.png,0.0,0.046195388,0.46590936,-0.2967826
convnext_large,1,71,NaN,truck,truck,90,0071_ps_dnn_90_truck_10_n03417042_5228.png,n03417042_5228.png,1.0,1.3428143,0.543044,0.565523
convnext_large,1,72,NaN,airplane,airplane,0,0072_ps_dnn_0_airplane_10_n02690373_4294.png,n02690373_4294.png,1.0,8.781562,0.3519145,5.960661
convnext_large,1,73,NaN,chair,chair,30,0073_ps_dnn_30_chair_10_n04099969_52474.png,n04099969_52474.png,1.0,3.6773672,1.9391823,1.2290823
convnext_large,1,74,NaN,oven,oven,30,0074_ps_dnn_30_oven_10_n04111531_21822.png,n04111531_21822.png,1.0,8.275364,0.38968408,5.576018
convnext_large,1,75,NaN,cat,oven,150,0075_ps_dnn_150_oven_10_n04111531_15735.png,n04111531_15735.png,0.0,-0.72649705,0.41487992,-0.8070754
convnext_large,1,76,NaN,boat,dog,120,0076_ps_dnn_120_dog_10_n02104029_7335.png,n02104029_7335.png,0.0,0.53827316,0.81436473,-0.19522622
convnext_large,1,77,NaN,cat,truck,150,0077_ps_dnn_150_truck_10_n03417042_17911.png,n03417042_17911.png,0.0,-0.42137578,0.6243133,-0.73941386
convnext_large,1,78,NaN,clock,clock,30,0078_ps_dnn_30_clock_10_n02708093_899.png,n02708093_899.png,1.0,4.7589087,0.6916176,2.8760092
convnext_large,1,79,NaN,boat,boat,60,0079_ps_dnn_60_boat_10_n03662601_9590.png,n03662601_9590.png,1.0,3.7006614,0.7577692,2.080939
convnext_large,1,80,NaN,keyboard,chair,90,0080_ps_dnn_90_chair_10_n02791124_6550.png,n02791124_6550.png,0.0,-0.21936165,0.5217531,-0.52404726
convnext_large,1,81,NaN,cat,clock,180,0081_ps_dnn_180_clock_10_n03196217_4492.png,n03196217_4492.png,0.0,0.37129688,0.4994265,-0.09060133
convnext_large,1,82,NaN,car,car,30,0082_ps_dnn_30_car_10_n04285008_14128.png,n04285008_14128.png,1.0,6.4842515,1.3988423,3.5959275
convnext_large,1,83,NaN,bicycle,bicycle,60,0083_ps_dnn_60_bicycle_10_n02835271_4730.png,n02835271_4730.png,1.0,5.423709,0.6322973,3.3880396
convnext_large,1,84,NaN,elephant,elephant,0,0084_ps_dnn_0_elephant_10_n02504458_62.png,n02504458_62.png,1.0,6.625288,0.3393009,4.4448643
convnext_large,1,85,NaN,elephant,dog,120,0085_ps_dnn_120_dog_10_n02086646_8144.png,n02086646_8144.png,0.0,0.26958188,2.1609046,-1.3373672
convnext_large,1,86,NaN,knife,knife,60,0086_ps_dnn_60_knife_10_n03041632_1671.png,n03041632_1671.png,1.0,7.969621,0.4309579,5.3306403
convnext_large,1,87,NaN,clock,bird,180,0087_ps_dnn_180_bird_10_n01534433_10801.png,n01534433_10801.png,0.0,-0.70801085,0.4475411,-0.8170986
convnext_large,1,88,NaN,cat,keyboard,150,0088_ps_dnn_150_keyboard_10_n03085013_20570.png,n03085013_20570.png,0.0,0.13700688,0.65429217,-0.36577594
convnext_large,1,89,NaN,bottle,knife,150,0089_ps_dnn_150_knife_10_n03041632_4808.png,n03041632_4808.png,0.0,0.74888486,0.8367683,-0.062143
convnext_large,1,90,NaN,keyboard,keyboard,180,0090_ps_dnn_180_keyboard_10_n03085013_1808.png,n03085013_1808.png,1.0,0.42721364,0.4115386,0.011083926
convnext_large,1,91,NaN,truck,truck,120,0091_ps_dnn_120_truck_10_n03796401_4370.png,n03796401_4370.png,1.0,0.8598477,0.29692686,0.39804518
convnext_large,1,92,NaN,airplane,airplane,60,0092_ps_dnn_60_airplane_10_n02690373_6314.png,n02690373_6314.png,1.0,7.932978,0.58855313,5.193293
convnext_large,1,93,NaN,clock,oven,90,0093_ps_dnn_90_oven_10_n04111531_4879.png,n04111531_4879.png,0.0,0.5136046,1.0294076,-0.36472782
convnext_large,1,94,NaN,boat,airplane,180,0094_ps_dnn_180_airplane_10_n02690373_4375.png,n02690373_4375.png,0.0,-0.19069433,0.50461704,-0.4916594
convnext_large,1,95,NaN,bottle,bottle,60,0095_ps_dnn_60_bottle_10_n04557648_4133.png,n04557648_4133.png,1.0,2.9752479,1.9707105,0.71031517
convnext_large,1,96,NaN,knife,bicycle,120,0096_ps_dnn_120_bicycle_10_n02835271_19213.png,n02835271_19213.png,0.0,0.47355306,0.54777986,-0.05248627
convnext_large,1,97,NaN,clock,bear,150,0097_ps_dnn_150_bear_10_n02132136_10577.png,n02132136_10577.png,0.0,0.0836564,1.2345079,-0.8137749
convnext_large,1,98,NaN,airplane,airplane,90,0098_ps_dnn_90_airplane_10_n02690373_3147.png,n02690373_3147.png,1.0,0.88239676,0.6774585,0.14491321
convnext_large,1,99,NaN,elephant,elephant,60,0099_ps_dnn_60_elephant_10_n02504013_10389.png,n02504013_10389.png,1.0,4.2589183,0.83746946,2.4193296
convnext_large,1,100,NaN,cat,chair,150,0100_ps_dnn_150_chair_10_n02791124_5685.png,n02791124_5685.png,0.0,-0.11526181,0.41653752,-0.3760389
convnext_large,1,101,NaN,cat,bird,60,0101_ps_dnn_60_bird_10_n01817953_6333.png,n01817953_6333.png,0.0,0.447944,1.0718788,-0.44118854
convnext_large,1,102,NaN,keyboard,keyboard,90,0102_ps_dnn_90_keyboard_10_n03085013_20247.png,n03085013_20247.png,1.0,6.1725082,0.6275825,3.9208546
convnext_large,1,103,NaN,airplane,airplane,0,0103_ps_dnn_0_airplane_10_n02690373_5729.png,n02690373_5729.png,1.0,8.416084,0.48955327,5.6049037
convnext_large,1,104,NaN,bicycle,bicycle,90,0104_ps_dnn_90_bicycle_10_n03792782_55532.png,n03792782_55532.png,1.0,7.0587807,0.39172387,4.714321
convnext_large,1,105,NaN,bicycle,bicycle,0,0105_ps_dnn_0_bicycle_10_n02835271_8417.png,n02835271_8417.png,1.0,4.9645357,0.4932758,3.1616583
convnext_large,1,106,NaN,clock,clock,60,0106_ps_dnn_60_clock_10_n03196217_599.png,n03196217_599.png,1.0,3.7939148,1.3788707,1.707694
convnext_large,1,107,NaN,airplane,airplane,0,0107_ps_dnn_0_airplane_10_n02690373_1952.png,n02690373_1952.png,1.0,8.6545725,0.34081823,5.878712
convnext_large,1,108,NaN,cat,bear,180,0108_ps_dnn_180_bear_10_n02134084_23061.png,n02134084_23061.png,0.0,-0.44139153,0.29974106,-0.5240599
convnext_large,1,109,NaN,bottle,bicycle,150,0109_ps_dnn_150_bicycle_10_n03792782_27445.png,n03792782_27445.png,0.0,-0.6003532,0.77429867,-0.9720257
convnext_large,1,110,NaN,clock,clock,30,0110_ps_dnn_30_clock_10_n03196217_6348.png,n03196217_6348.png,1.0,2.8157494,0.34687322,1.7457591
convnext_large,1,111,NaN,bear,bear,90,0111_ps_dnn_90_bear_10_n02132136_5778.png,n02132136_5778.png,1.0,3.7166128,0.7753315,2.0798
convnext_large,1,112,NaN,knife,boat,90,0112_ps_dnn_90_boat_10_n04273569_4772.png,n04273569_4772.png,0.0,0.07913798,2.8384378,-1.9511195
convnext_large,1,113,NaN,cat,oven,180,0113_ps_dnn_180_oven_10_n04111531_23830.png,n04111531_23830.png,0.0,-0.8962164,0.6936112,-1.1241778
convnext_large,1,114,NaN,clock,bird,150,0114_ps_dnn_150_bird_10_n01855032_1306.png,n01855032_1306.png,0.0,-0.9682045,0.8630502,-1.2948927
convnext_large,1,115,NaN,elephant,elephant,60,0115_ps_dnn_60_elephant_10_n02504013_8905.png,n02504013_8905.png,1.0,5.3075857,0.9592777,3.0747182
convnext_large,1,116,NaN,truck,truck,60,0116_ps_dnn_60_truck_10_n04467665_30461.png,n04467665_30461.png,1.0,2.522796,0.7702306,1.2392509
convnext_large,1,117,NaN,knife,knife,60,0117_ps_dnn_60_knife_10_n03041632_20662.png,n03041632_20662.png,1.0,9.096111,0.46477616,6.103276
convnext_large,1,118,NaN,cat,boat,180,0118_ps_dnn_180_boat_10_n03662601_15915.png,n03662601_15915.png,0.0,0.19915581,0.57625717,-0.26665094
convnext_large,1,119,NaN,chair,boat,150,0119_ps_dnn_150_boat_10_n04273569_62.png,n04273569_62.png,0.0,-0.48540926,0.5184433,-0.709831
convnext_large,1,120,NaN,clock,bicycle,180,0120_ps_dnn_180_bicycle_10_n03792782_8080.png,n03792782_8080.png,0.0,-1.0422207,1.6466559,-1.901323
convnext_large,1,121,NaN,airplane,airplane,120,0121_ps_dnn_120_airplane_10_n02690373_10309.png,n02690373_10309.png,1.0,6.707347,0.91901475,4.092969
convnext_large,1,122,NaN,elephant,dog,30,0122_ps_dnn_30_dog_10_n02093859_1001.png,n02093859_1001.png,0.0,0.2322704,0.40393716,-0.12138673
convnext_large,1,123,NaN,oven,oven,0,0123_ps_dnn_0_oven_10_n04111531_15267.png,n04111531_15267.png,1.0,8.506572,0.5082415,5.6556735
convnext_large,1,124,NaN,cat,cat,90,0124_ps_dnn_90_cat_10_n02124075_81.png,n02124075_81.png,1.0,3.7423668,0.9233726,1.9933299
convnext_large,1,125,NaN,elephant,elephant,60,0125_ps_dnn_60_elephant_10_n02504013_7314.png,n02504013_7314.png,1.0,5.1989136,0.5295264,3.3017554
convnext_large,1,126,NaN,knife,bottle,120,0126_ps_dnn_120_bottle_10_n03983396_3294.png,n03983396_3294.png,0.0,0.5856889,1.0092764,-0.2995216
convnext_large,1,127,NaN,cat,cat,60,0127_ps_dnn_60_cat_10_n02123159_3201.png,n02123159_3201.png,1.0,4.3884873,0.56195873,2.7057643
convnext_large,1,128,NaN,dog,dog,90,0128_ps_dnn_90_dog_10_n02101388_11601.png,n02101388_11601.png,1.0,0.65496343,0.19143395,0.32776484
convnext_large,1,129,NaN,cat,cat,30,0129_ps_dnn_30_cat_10_n02123597_4442.png,n02123597_4442.png,1.0,2.484323,0.61642766,1.3208015
convnext_large,1,130,NaN,airplane,airplane,30,0130_ps_dnn_30_airplane_10_n02690373_1950.png,n02690373_1950.png,1.0,8.52306,0.2990632,5.815244
convnext_large,1,131,NaN,cat,bird,120,0131_ps_dnn_120_bird_10_n01616318_4652.png,n01616318_4652.png,0.0,-0.41389656,1.2322725,-1.1640173
convnext_large,1,132,NaN,airplane,airplane,90,0132_ps_dnn_90_airplane_10_n02690373_17937.png,n02690373_17937.png,1.0,8.071762,0.34048602,5.466838
convnext_large,1,133,NaN,clock,clock,30,0133_ps_dnn_30_clock_10_n02708093_1125.png,n02708093_1125.png,1.0,5.1006126,1.3651189,2.641393
convnext_large,1,134,NaN,clock,elephant,150,0134_ps_dnn_150_elephant_10_n02504458_6499.png,n02504458_6499.png,0.0,-0.7440473,1.089249,-1.2963363
convnext_large,1,135,NaN,clock,clock,30,0135_ps_dnn_30_clock_10_n02708093_51.png,n02708093_51.png,1.0,4.5471992,1.0799768,2.4516966
convnext_large,1,136,NaN,bicycle,bicycle,90,0136_ps_dnn_90_bicycle_10_n02835271_13180.png,n02835271_13180.png,1.0,5.2543616,1.2829349,2.8082228
convnext_large,1,137,NaN,cat,cat,120,0137_ps_dnn_120_cat_10_n02123597_7297.png,n02123597_7297.png,1.0,3.3135493,0.30810922,2.1251671
convnext_large,1,138,NaN,clock,clock,30,0138_ps_dnn_30_clock_10_n04548280_1109.png,n04548280_1109.png,1.0,3.394043,1.1247429,1.6046374
convnext_large,1,139,NaN,clock,clock,60,0139_ps_dnn_60_clock_10_n04548280_1304.png,n04548280_1304.png,1.0,2.4278905,0.50461376,1.3599621
convnext_large,1,140,NaN,clock,bird,180,0140_ps_dnn_180_bird_10_n01833805_8179.png,n01833805_8179.png,0.0,-0.9850584,1.1460918,-1.5069509
convnext_large,1,141,NaN,bottle,bottle,60,0141_ps_dnn_60_bottle_10_n03983396_24525.png,n03983396_24525.png,1.0,2.603726,0.3831014,1.5702187
convnext_large,1,142,NaN,bottle,elephant,120,0142_ps_dnn_120_elephant_10_n02504013_5945.png,n02504013_5945.png,0.0,-0.36833197,0.31589428,-0.48382103
convnext_large,1,143,NaN,airplane,airplane,120,0143_ps_dnn_120_airplane_10_n02690373_13610.png,n02690373_13610.png,1.0,5.932871,1.0633467,3.4432735
convnext_large,1,144,NaN,knife,knife,90,0144_ps_dnn_90_knife_10_n03041632_21859.png,n03041632_21859.png,1.0,1.8177395,0.81842,0.7066256
convnext_large,1,145,NaN,cat,cat,60,0145_ps_dnn_60_cat_10_n02123045_568.png,n02123045_568.png,1.0,4.4484396,0.812989,2.5706518
convnext_large,1,146,NaN,clock,clock,180,0146_ps_dnn_180_clock_10_n02708093_960.png,n02708093_960.png,1.0,0.5556234,0.4541166,0.071776144
convnext_large,1,147,NaN,bicycle,bicycle,120,0147_ps_dnn_120_bicycle_10_n02835271_9669.png,n02835271_9669.png,1.0,3.5940955,3.0963488,0.35196006
convnext_large,1,148,NaN,cat,cat,60,0148_ps_dnn_60_cat_10_n02123597_14647.png,n02123597_14647.png,1.0,2.2054837,0.70655537,1.0599024
convnext_large,1,149,NaN,bicycle,bicycle,0,0149_ps_dnn_0_bicycle_10_n02835271_7794.png,n02835271_7794.png,1.0,5.429531,0.56726056,3.4381444
convnext_large,1,150,NaN,cat,bird,0,0150_ps_dnn_0_bird_10_n02011460_5925.png,n02011460_5925.png,0.0,-0.037473213,0.5698728,-0.42945847
convnext_large,1,151,NaN,bottle,oven,90,0151_ps_dnn_90_oven_10_n04111531_8852.png,n04111531_8852.png,0.0,-0.058885783,2.9192207,-2.1058393
convnext_large,1,152,NaN,elephant,knife,90,0152_ps_dnn_90_knife_10_n03041632_84086.png,n03041632_84086.png,0.0,1.9727794,3.4298291,-1.0302898
convnext_large,1,153,NaN,car,car,60,0153_ps_dnn_60_car_10_n03100240_13602.png,n03100240_13602.png,1.0,6.3499923,0.46383256,4.1621437
convnext_large,1,154,NaN,clock,dog,180,0154_ps_dnn_180_dog_10_n02106662_43958.png,n02106662_43958.png,0.0,-0.25869867,1.2517611,-1.0680563
convnext_large,1,155,NaN,chair,chair,30,0155_ps_dnn_30_chair_10_n02791124_1292.png,n02791124_1292.png,1.0,2.4671197,0.76271784,1.2051941
convnext_large,1,156,NaN,cat,dog,90,0156_ps_dnn_90_dog_10_n02085782_4522.png,n02085782_4522.png,0.0,0.22203346,2.1920888,-1.3930395
convnext_large,1,157,NaN,bear,bear,60,0157_ps_dnn_60_bear_10_n02132136_686.png,n02132136_686.png,1.0,4.308649,1.1013801,2.2678816
convnext_large,1,158,NaN,clock,bird,120,0158_ps_dnn_120_bird_10_n01796340_12914.png,n01796340_12914.png,0.0,-0.41211766,0.5264799,-0.6636887
convnext_large,1,159,NaN,knife,knife,60,0159_ps_dnn_60_knife_10_n03041632_24060.png,n03041632_24060.png,1.0,6.5276904,1.1064501,3.833396
convnext_large,1,160,NaN,bottle,bottle,180,0160_ps_dnn_180_bottle_10_n03983396_4775.png,n03983396_4775.png,1.0,0.57564074,0.34334964,0.16425462
convnext_large,1,161,NaN,bicycle,keyboard,120,0161_ps_dnn_120_keyboard_10_n04505470_1516.png,n04505470_1516.png,0.0,-0.68631023,0.4864999,-0.82930195
convnext_large,1,162,NaN,knife,boat,150,0162_ps_dnn_150_boat_10_n03344393_4944.png,n03344393_4944.png,0.0,0.27379018,0.52336466,-0.17647581
convnext_large,1,163,NaN,bottle,cat,150,0163_ps_dnn_150_cat_10_n02123159_3524.png,n02123159_3524.png,0.0,0.29980302,0.72837013,-0.3030427
convnext_large,1,164,NaN,truck,truck,60,0164_ps_dnn_60_truck_10_n04467665_50648.png,n04467665_50648.png,1.0,2.1516898,0.66622233,1.0503842
convnext_large,1,165,NaN,dog,dog,0,0165_ps_dnn_0_dog_10_n02107574_1277.png,n02107574_1277.png,1.0,0.52422297,0.45082748,0.05189845
convnext_large,1,166,NaN,oven,oven,60,0166_ps_dnn_60_oven_10_n04111531_21980.png,n04111531_21980.png,1.0,6.898386,1.2071209,4.024332
convnext_large,1,167,NaN,boat,boat,120,0167_ps_dnn_120_boat_10_n03344393_11315.png,n03344393_11315.png,1.0,1.0933738,0.56083167,0.37656415
convnext_large,1,168,NaN,knife,knife,90,0168_ps_dnn_90_knife_10_n03041632_32896.png,n03041632_32896.png,1.0,0.94044125,0.66380227,0.19561331
convnext_large,1,169,NaN,bottle,bottle,30,0169_ps_dnn_30_bottle_10_n03937543_3133.png,n03937543_3133.png,1.0,2.4326365,1.9234324,0.3600617
convnext_large,1,170,NaN,cat,car,180,0170_ps_dnn_180_car_10_n04285008_15213.png,n04285008_15213.png,0.0,-0.45023164,0.5824659,-0.7302275
convnext_large,1,171,NaN,elephant,elephant,90,0171_ps_dnn_90_elephant_10_n02504013_3081.png,n02504013_3081.png,1.0,3.4409113,1.0469658,1.6927751
convnext_large,1,172,NaN,cat,cat,60,0172_ps_dnn_60_cat_10_n02123159_6873.png,n02123159_6873.png,1.0,3.6179717,1.1084337,1.7745113
convnext_large,1,173,NaN,bottle,bottle,60,0173_ps_dnn_60_bottle_10_n04579145_4385.png,n04579145_4385.png,1.0,1.6833814,0.50587445,0.8326231
convnext_large,1,174,NaN,bear,bear,60,0174_ps_dnn_60_bear_10_n02134418_2185.png,n02134418_2185.png,1.0,3.4916983,0.5589357,2.0737765
convnext_large,1,175,NaN,clock,chair,150,0175_ps_dnn_150_chair_10_n04429376_16002.png,n04429376_16002.png,0.0,0.29902434,0.5762802,-0.19604948
convnext_large,1,176,NaN,car,car,60,0176_ps_dnn_60_car_10_n03100240_8107.png,n03100240_8107.png,1.0,5.963843,0.5688964,3.8148034
convnext_large,1,177,NaN,boat,boat,60,0177_ps_dnn_60_boat_10_n04273569_15906.png,n04273569_15906.png,1.0,2.5160604,1.6646423,0.60204345
convnext_large,1,178,NaN,clock,car,150,0178_ps_dnn_150_car_10_n02814533_85659.png,n02814533_85659.png,0.0,-0.2634822,0.2640754,-0.37303957
convnext_large,1,179,NaN,bicycle,car,150,0179_ps_dnn_150_car_10_n02814533_87140.png,n02814533_87140.png,0.0,-0.10949796,1.435808,-1.0926963
convnext_large,1,180,NaN,keyboard,keyboard,30,0180_ps_dnn_30_keyboard_10_n03085013_7520.png,n03085013_7520.png,1.0,5.7492476,0.8259676,3.4812846
convnext_large,1,181,NaN,bear,dog,90,0181_ps_dnn_90_dog_10_n02112018_10082.png,n02112018_10082.png,0.0,0.39399895,0.88520133,-0.34733254
convnext_large,1,182,NaN,bear,bear,90,0182_ps_dnn_90_bear_10_n02134084_5733.png,n02134084_5733.png,1.0,3.1768847,1.6134351,1.1055257
convnext_large,1,183,NaN,cat,cat,90,0183_ps_dnn_90_cat_10_n02123597_3821.png,n02123597_3821.png,1.0,2.5612686,0.45630828,1.4884317
convnext_large,1,184,NaN,bicycle,boat,120,0184_ps_dnn_120_boat_10_n04612504_15256.png,n04612504_15256.png,0.0,0.5328503,1.1738231,-0.45323622
convnext_large,1,185,NaN,car,car,90,0185_ps_dnn_90_car_10_n02814533_84296.png,n02814533_84296.png,1.0,6.0821,1.3548381,3.3426788
convnext_large,1,186,NaN,cat,clock,120,0186_ps_dnn_120_clock_10_n04548280_5295.png,n04548280_5295.png,0.0,0.058490653,0.5230821,-0.32851574
convnext_large,1,187,NaN,airplane,airplane,30,0187_ps_dnn_30_airplane_10_n02690373_11799.png,n02690373_11799.png,1.0,8.589003,0.19247252,5.9372435
convnext_large,1,188,NaN,elephant,dog,120,0188_ps_dnn_120_dog_10_n02092002_9876.png,n02092002_9876.png,0.0,0.029453779,1.0500906,-0.72169924
convnext_large,1,189,NaN,chair,chair,0,0189_ps_dnn_0_chair_10_n02791124_16885.png,n02791124_16885.png,1.0,2.4980729,0.36140293,1.5108538
convnext_large,1,190,NaN,airplane,airplane,60,0190_ps_dnn_60_airplane_10_n02690373_9376.png,n02690373_9376.png,1.0,8.300978,0.42241266,5.5709867
convnext_large,1,191,NaN,bottle,oven,180,0191_ps_dnn_180_oven_10_n04111531_6474.png,n04111531_6474.png,0.0,-1.8937218,0.71927184,-1.8476657
convnext_large,1,192,NaN,cat,knife,180,0192_ps_dnn_180_knife_10_n03041632_44230.png,n03041632_44230.png,0.0,-0.07968714,0.25867313,-0.23925686
convnext_large,1,193,NaN,clock,dog,180,0193_ps_dnn_180_dog_10_n02099601_6318.png,n02099601_6318.png,0.0,-0.24398996,1.0373617,-0.9060525
convnext_large,1,194,NaN,clock,cat,150,0194_ps_dnn_150_cat_10_n02125311_20241.png,n02125311_20241.png,0.0,-0.018551737,0.9639481,-0.6947323
convnext_large,1,195,NaN,clock,truck,120,0195_ps_dnn_120_truck_10_n04467665_51397.png,n04467665_51397.png,0.0,-0.07164739,1.2655895,-0.9455693
convnext_large,1,196,NaN,elephant,dog,0,0196_ps_dnn_0_dog_10_n02104365_1500.png,n02104365_1500.png,0.0,0.1462136,0.5630552,-0.29475155
convnext_large,1,197,NaN,knife,knife,90,0197_ps_dnn_90_knife_10_n03041632_3171.png,n03041632_3171.png,1.0,4.3532147,1.034811,2.3464658
convnext_large,1,198,NaN,oven,oven,60,0198_ps_dnn_60_oven_10_n04111531_249.png,n04111531_249.png,1.0,4.9795713,2.3684363,1.8463513
convnext_large,1,199,NaN,dog,bear,90,0199_ps_dnn_90_bear_10_n02133161_8856.png,n02133161_8856.png,0.0,-0.21110396,0.82843274,-0.7350635
convnext_large,1,200,NaN,cat,cat,0,0200_ps_dnn_0_cat_10_n02123045_13354.png,n02123045_13354.png,1.0,4.832939,0.7114462,2.9143355
convnext_large,1,201,NaN,knife,keyboard,120,0201_ps_dnn_120_keyboard_10_n03085013_23267.png,n03085013_23267.png,0.0,-0.3688568,1.0870931,-1.029512
convnext_large,1,202,NaN,truck,truck,30,0202_ps_dnn_30_truck_10_n03796401_22643.png,n03796401_22643.png,1.0,2.304764,2.1115112,0.13665037
convnext_large,1,203,NaN,bottle,elephant,180,0203_ps_dnn_180_elephant_10_n02504458_4572.png,n02504458_4572.png,0.0,-0.8694853,0.5500862,-1.0037887
convnext_large,1,204,NaN,cat,truck,180,0204_ps_dnn_180_truck_10_n04467665_23173.png,n04467665_23173.png,0.0,-0.6464226,0.7198371,-0.9660916
convnext_large,1,205,NaN,clock,bear,180,0205_ps_dnn_180_bear_10_n02134418_25040.png,n02134418_25040.png,0.0,-0.6189332,0.7299443,-0.9538004
convnext_large,1,206,NaN,bicycle,bicycle,60,0206_ps_dnn_60_bicycle_10_n02835271_21185.png,n02835271_21185.png,1.0,4.874006,0.44638157,3.130803
convnext_large,1,207,NaN,boat,boat,30,0207_ps_dnn_30_boat_10_n02951358_12664.png,n02951358_12664.png,1.0,2.510983,0.98429686,1.0795301
convnext_large,1,208,NaN,bottle,bottle,30,0208_ps_dnn_30_bottle_10_n03983396_11519.png,n03983396_11519.png,1.0,4.1088705,0.43846372,2.5953696
convnext_large,1,209,NaN,knife,knife,120,0209_ps_dnn_120_knife_10_n03041632_36280.png,n03041632_36280.png,1.0,3.542489,1.2915051,1.591686
convnext_large,1,210,NaN,airplane,truck,60,0210_ps_dnn_60_truck_10_n04467665_67115.png,n04467665_67115.png,0.0,2.0177717,4.260046,-1.5855274
convnext_large,1,211,NaN,bear,bear,30,0211_ps_dnn_30_bear_10_n02133161_1560.png,n02133161_1560.png,1.0,2.649885,1.5158052,0.80191547
convnext_large,1,212,NaN,boat,truck,180,0212_ps_dnn_180_truck_10_n03417042_6780.png,n03417042_6780.png,0.0,-0.7441031,0.9925459,-1.2279963
convnext_large,1,213,NaN,bottle,bear,150,0213_ps_dnn_150_bear_10_n02134084_20261.png,n02134084_20261.png,0.0,-0.37031275,0.5049985,-0.6189385
convnext_large,1,214,NaN,bottle,chair,180,0214_ps_dnn_180_chair_10_n03376595_8377.png,n03376595_8377.png,0.0,-0.22810864,0.6457984,-0.6179456
convnext_large,1,215,NaN,bottle,bird,180,0215_ps_dnn_180_bird_10_n01824575_3556.png,n01824575_3556.png,0.0,0.24485785,0.63498193,-0.2758594
convnext_large,1,216,NaN,chair,chair,90,0216_ps_dnn_90_chair_10_n04099969_36004.png,n04099969_36004.png,1.0,3.274722,0.41860595,2.0195792
convnext_large,1,217,NaN,bicycle,bicycle,0,0217_ps_dnn_0_bicycle_10_n02835271_22549.png,n02835271_22549.png,1.0,4.627078,0.5747206,2.8654497
convnext_large,1,218,NaN,knife,clock,150,0218_ps_dnn_150_clock_10_n04548280_8535.png,n04548280_8535.png,0.0,0.123325855,0.5413584,-0.29559365
convnext_large,1,219,NaN,bicycle,knife,120,0219_ps_dnn_120_knife_10_n03041632_14546.png,n03041632_14546.png,0.0,-0.22311378,1.7742488,-1.4123486
convnext_large,1,220,NaN,keyboard,keyboard,0,0220_ps_dnn_0_keyboard_10_n04505470_4974.png,n04505470_4974.png,1.0,5.2203617,0.66617465,3.2202964
convnext_large,1,221,NaN,clock,clock,0,0221_ps_dnn_0_clock_10_n04548280_487.png,n04548280_487.png,1.0,4.804111,0.5990832,2.9734035
convnext_large,1,222,NaN,truck,truck,30,0222_ps_dnn_30_truck_10_n03417042_10401.png,n03417042_10401.png,1.0,2.5856934,0.6547132,1.3654093
convnext_large,1,223,NaN,bottle,clock,180,0223_ps_dnn_180_clock_10_n03196217_6257.png,n03196217_6257.png,0.0,0.2423502,0.6158358,-0.26409417
convnext_large,1,224,NaN,bicycle,elephant,120,0224_ps_dnn_120_elephant_10_n02504458_1698.png,n02504458_1698.png,0.0,0.07016042,0.5224731,-0.31983337
convnext_large,1,225,NaN,bottle,keyboard,180,0225_ps_dnn_180_keyboard_10_n03085013_23014.png,n03085013_23014.png,0.0,0.46201003,0.9295745,-0.330618
convnext_large,1,226,NaN,cat,cat,60,0226_ps_dnn_60_cat_10_n02125311_17002.png,n02125311_17002.png,1.0,1.924725,0.61317825,0.9274036
convnext_large,1,227,NaN,boat,boat,180,0227_ps_dnn_180_boat_10_n03344393_5566.png,n03344393_5566.png,1.0,0.5865884,0.2357902,0.24805178
convnext_large,1,228,NaN,cat,bicycle,150,0228_ps_dnn_150_bicycle_10_n02835271_4887.png,n02835271_4887.png,0.0,-0.111584485,0.44557664,-0.3939724
convnext_large,1,229,NaN,keyboard,keyboard,120,0229_ps_dnn_120_keyboard_10_n04505470_8386.png,n04505470_8386.png,1.0,1.5122972,1.4556406,0.040062267
convnext_large,1,230,NaN,bear,bear,120,0230_ps_dnn_120_bear_10_n02133161_361.png,n02133161_361.png,1.0,3.6490784,2.2525601,0.98748755
convnext_large,1,231,NaN,bottle,bottle,0,0231_ps_dnn_0_bottle_10_n04560804_2165.png,n04560804_2165.png,1.0,1.7712487,1.4791787,0.2065247
convnext_large,1,232,NaN,bottle,cat,150,0232_ps_dnn_150_cat_10_n02124075_14020.png,n02124075_14020.png,0.0,0.420138,0.7621409,-0.2418326
convnext_large,1,233,NaN,keyboard,clock,150,0233_ps_dnn_150_clock_10_n04548280_3301.png,n04548280_3301.png,0.0,0.18131967,0.27502602,-0.0662604
convnext_large,1,234,NaN,cat,knife,180,0234_ps_dnn_180_knife_10_n03041632_5820.png,n03041632_5820.png,0.0,-0.18770309,0.8552615,-0.7374873
convnext_large,1,235,NaN,bicycle,oven,120,0235_ps_dnn_120_oven_10_n04111531_2922.png,n04111531_2922.png,0.0,-1.0144029,0.7627084,-1.2566074
convnext_large,1,236,NaN,bear,bear,120,0236_ps_dnn_120_bear_10_n02134084_7441.png,n02134084_7441.png,1.0,1.6302435,1.0312489,0.42355317
convnext_large,1,237,NaN,clock,airplane,150,0237_ps_dnn_150_airplane_10_n02690373_8252.png,n02690373_8252.png,0.0,-0.38148397,0.42714834,-0.5717894
convnext_large,1,238,NaN,clock,bird,150,0238_ps_dnn_150_bird_10_n02018207_69.png,n02018207_69.png,0.0,-0.04076699,0.28493822,-0.23030835
convnext_large,1,239,NaN,airplane,bird,30,0239_ps_dnn_30_bird_10_n01798484_5355.png,n01798484_5355.png,0.0,0.3060329,0.58677554,-0.19851503
convnext_large,1,240,NaN,keyboard,keyboard,150,0240_ps_dnn_150_keyboard_10_n03085013_4999.png,n03085013_4999.png,1.0,0.33207196,0.31287128,0.013576933
convnext_large,1,241,NaN,elephant,dog,120,0241_ps_dnn_120_dog_10_n02111500_3041.png,n02111500_3041.png,0.0,-0.06363322,1.5456667,-1.1379468
convnext_large,1,242,NaN,boat,boat,0,0242_ps_dnn_0_boat_10_n04612504_15237.png,n04612504_15237.png,1.0,2.662772,0.35223803,1.6337943
convnext_large,1,243,NaN,cat,truck,150,0243_ps_dnn_150_truck_10_n03417042_6480.png,n03417042_6480.png,0.0,-0.47377077,0.41585898,-0.62906325
convnext_large,1,244,NaN,knife,airplane,180,0244_ps_dnn_180_airplane_10_n02690373_8382.png,n02690373_8382.png,0.0,0.03455448,0.30470273,-0.19102366
convnext_large,1,245,NaN,bottle,bottle,120,0245_ps_dnn_120_bottle_10_n04591713_2345.png,n04591713_2345.png,1.0,0.5434799,0.41046047,0.09405895
convnext_large,1,246,NaN,elephant,elephant,60,0246_ps_dnn_60_elephant_10_n02504458_9516.png,n02504458_9516.png,1.0,5.0853415,0.49293825,3.2473197
convnext_large,1,247,NaN,bottle,elephant,180,0247_ps_dnn_180_elephant_10_n02504013_698.png,n02504013_698.png,0.0,-0.79413205,0.6681661,-1.034001
convnext_large,1,248,NaN,bear,bear,0,0248_ps_dnn_0_bear_10_n02133161_5292.png,n02133161_5292.png,1.0,5.426298,0.6123879,3.4039488
convnext_large,1,249,NaN,boat,boat,90,0249_ps_dnn_90_boat_10_n02951358_14341.png,n02951358_14341.png,1.0,1.6990407,0.6820404,0.7191278
convnext_large,1,250,NaN,knife,bear,120,0250_ps_dnn_120_bear_10_n02133161_2304.png,n02133161_2304.png,0.0,-0.20739022,0.87290484,-0.763884
convnext_large,1,251,NaN,clock,airplane,150,0251_ps_dnn_150_airplane_10_n02690373_1751.png,n02690373_1751.png,0.0,0.48442584,0.9611457,-0.33709186
convnext_large,1,252,NaN,cat,truck,150,0252_ps_dnn_150_truck_10_n04467665_48953.png,n04467665_48953.png,0.0,-0.4611716,0.5239067,-0.69655555
convnext_large,1,253,NaN,oven,oven,0,0253_ps_dnn_0_oven_10_n04111531_10077.png,n04111531_10077.png,1.0,8.559241,0.20000207,5.9108753
convnext_large,1,254,NaN,clock,dog,150,0254_ps_dnn_150_dog_10_n02097209_821.png,n02097209_821.png,0.0,-0.16279139,0.97920996,-0.80751693
convnext_large,1,255,NaN,truck,truck,0,0255_ps_dnn_0_truck_10_n04467665_13231.png,n04467665_13231.png,1.0,3.7337286,1.2586595,1.7501382
convnext_large,1,256,NaN,dog,dog,90,0256_ps_dnn_90_dog_10_n02107908_3447.png,n02107908_3447.png,1.0,1.8007013,0.50603735,0.91546565
convnext_large,1,257,NaN,clock,elephant,180,0257_ps_dnn_180_elephant_10_n02504013_5021.png,n02504013_5021.png,0.0,-0.8383553,0.56607,-0.9930787
convnext_large,1,258,NaN,knife,knife,90,0258_ps_dnn_90_knife_10_n03041632_12242.png,n03041632_12242.png,1.0,1.5965533,0.76358026,0.58900094
convnext_large,1,259,NaN,cat,keyboard,150,0259_ps_dnn_150_keyboard_10_n03085013_22821.png,n03085013_22821.png,0.0,-0.008112401,0.43752515,-0.31511334
convnext_large,1,260,NaN,bottle,cat,150,0260_ps_dnn_150_cat_10_n02124075_2080.png,n02124075_2080.png,0.0,0.17499055,0.6573399,-0.3410725
convnext_large,1,261,NaN,clock,bicycle,180,0261_ps_dnn_180_bicycle_10_n02835271_7296.png,n02835271_7296.png,0.0,-1.0878564,1.2434167,-1.6484591
convnext_large,1,262,NaN,knife,boat,180,0262_ps_dnn_180_boat_10_n04612504_4302.png,n04612504_4302.png,0.0,0.084626414,0.47118437,-0.27333775
convnext_large,1,263,NaN,bottle,clock,150,0263_ps_dnn_150_clock_10_n04548280_4524.png,n04548280_4524.png,0.0,0.38707826,0.81083393,-0.2996405
convnext_large,1,264,NaN,bottle,knife,150,0264_ps_dnn_150_knife_10_n03041632_19275.png,n03041632_19275.png,0.0,0.63385105,1.2315985,-0.4226713
convnext_large,1,265,NaN,chair,bird,30,0265_ps_dnn_30_bird_10_n01796340_2973.png,n01796340_2973.png,0.0,0.29262367,0.31673676,-0.017050529
convnext_large,1,266,NaN,chair,chair,90,0266_ps_dnn_90_chair_10_n02791124_15407.png,n02791124_15407.png,1.0,1.8101578,1.0510203,0.53679127
convnext_large,1,267,NaN,car,dog,30,0267_ps_dnn_30_dog_10_n02109525_72594.png,n02109525_72594.png,0.0,0.066633485,0.45715284,-0.27613887
convnext_large,1,268,NaN,clock,knife,150,0268_ps_dnn_150_knife_10_n03041632_19614.png,n03041632_19614.png,0.0,-0.06622633,0.5122811,-0.40906653
convnext_large,1,269,NaN,keyboard,keyboard,30,0269_ps_dnn_30_keyboard_10_n04505470_5111.png,n04505470_5111.png,1.0,5.3876767,0.42939705,3.5060332
convnext_large,1,270,NaN,bicycle,bicycle,30,0270_ps_dnn_30_bicycle_10_n03792782_8374.png,n03792782_8374.png,1.0,5.3346233,0.46298385,3.4447691
convnext_large,1,271,NaN,boat,boat,120,0271_ps_dnn_120_boat_10_n04612504_2024.png,n04612504_2024.png,1.0,1.4075468,1.0665351,0.24113165
convnext_large,1,272,NaN,bicycle,bicycle,30,0272_ps_dnn_30_bicycle_10_n02835271_9860.png,n02835271_9860.png,1.0,5.0296807,1.027749,2.829793
convnext_large,1,273,NaN,bear,bear,60,0273_ps_dnn_60_bear_10_n02134084_21921.png,n02134084_21921.png,1.0,2.6563704,1.3565608,0.91910416
convnext_large,1,274,NaN,bear,bear,90,0274_ps_dnn_90_bear_10_n02134418_836.png,n02134418_836.png,1.0,3.120704,2.0068905,0.787585
convnext_large,1,275,NaN,chair,chair,60,0275_ps_dnn_60_chair_10_n04429376_6141.png,n04429376_6141.png,1.0,2.2770371,0.7914397,1.050476
convnext_large,1,276,NaN,truck,truck,30,0276_ps_dnn_30_truck_10_n04467665_6523.png,n04467665_6523.png,1.0,2.5203438,0.8849579,1.1563925
convnext_large,1,277,NaN,chair,chair,90,0277_ps_dnn_90_chair_10_n04429376_41755.png,n04429376_41755.png,1.0,2.00909,1.9650487,0.031141885
convnext_large,1,278,NaN,bottle,bottle,180,0278_ps_dnn_180_bottle_10_n04579145_3302.png,n04579145_3302.png,1.0,0.653241,0.31464708,0.23942205
convnext_large,1,279,NaN,cat,cat,0,0279_ps_dnn_0_cat_10_n02123045_12297.png,n02123045_12297.png,1.0,3.9401293,0.8871867,2.1587565
convnext_large,1,280,NaN,clock,clock,60,0280_ps_dnn_60_clock_10_n04548280_5734.png,n04548280_5734.png,1.0,4.854962,1.1627038,2.6108208
convnext_large,1,281,NaN,cat,elephant,90,0281_ps_dnn_90_elephant_10_n02504013_3640.png,n02504013_3640.png,0.0,-0.081792265,0.7097197,-0.5596835
convnext_large,1,282,NaN,car,car,0,0282_ps_dnn_0_car_10_n03100240_2108.png,n03100240_2108.png,1.0,4.5035653,0.81645477,2.6071808
convnext_large,1,283,NaN,car,car,90,0283_ps_dnn_90_car_10_n02814533_8499.png,n02814533_8499.png,1.0,2.1987543,1.9355093,0.18614233
convnext_large,1,284,NaN,cat,knife,180,0284_ps_dnn_180_knife_10_n03041632_9406.png,n03041632_9406.png,0.0,0.044847846,2.1405342,-1.4818741
convnext_large,1,285,NaN,clock,clock,120,0285_ps_dnn_120_clock_10_n04548280_3968.png,n04548280_3968.png,1.0,2.447142,0.25473627,1.550265
convnext_large,1,286,NaN,airplane,boat,120,0286_ps_dnn_120_boat_10_n04273569_20587.png,n04273569_20587.png,0.0,0.09625657,1.107457,-0.7150267
convnext_large,1,287,NaN,boat,truck,150,0287_ps_dnn_150_truck_10_n03796401_7261.png,n03796401_7261.png,0.0,-0.843801,0.5801463,-1.0068828
convnext_large,1,288,NaN,boat,boat,90,0288_ps_dnn_90_boat_10_n04273569_18037.png,n04273569_18037.png,1.0,3.5404382,1.5810343,1.3855078
convnext_large,1,289,NaN,clock,bicycle,180,0289_ps_dnn_180_bicycle_10_n02835271_4789.png,n02835271_4789.png,0.0,-0.5827703,0.96620244,-1.0952891
convnext_large,1,290,NaN,chair,chair,90,0290_ps_dnn_90_chair_10_n04099969_18380.png,n04099969_18380.png,1.0,2.3638587,1.1054981,0.88979536
convnext_large,1,291,NaN,knife,dog,120,0291_ps_dnn_120_dog_10_n02100583_13688.png,n02100583_13688.png,0.0,-0.22666457,0.83109677,-0.7479502
convnext_large,1,292,NaN,boat,boat,180,0292_ps_dnn_180_boat_10_n03662601_8065.png,n03662601_8065.png,1.0,0.36835387,0.3443653,0.016962484
convnext_large,1,293,NaN,boat,boat,0,0293_ps_dnn_0_boat_10_n02951358_15218.png,n02951358_15218.png,1.0,2.705139,0.63907933,1.4609247
convnext_large,1,294,NaN,cat,knife,180,0294_ps_dnn_180_knife_10_n03041632_24277.png,n03041632_24277.png,0.0,-0.009339884,0.7598205,-0.54387856
convnext_large,1,295,NaN,bicycle,bird,90,0295_ps_dnn_90_bird_10_n01601694_2723.png,n01601694_2723.png,0.0,-0.08818188,0.46271837,-0.3895453
convnext_large,1,296,NaN,keyboard,keyboard,120,0296_ps_dnn_120_keyboard_10_n04505470_4724.png,n04505470_4724.png,1.0,3.9287457,0.63181835,2.3312798
convnext_large,1,297,NaN,bottle,bear,150,0297_ps_dnn_150_bear_10_n02134418_1642.png,n02134418_1642.png,0.0,-0.45169735,0.35304102,-0.569036
convnext_large,1,298,NaN,truck,truck,60,0298_ps_dnn_60_truck_10_n03417042_13055.png,n03417042_13055.png,1.0,2.4206839,0.22063807,1.5556674
convnext_large,1,299,NaN,clock,bear,120,0299_ps_dnn_120_bear_10_n02133161_1629.png,n02133161_1629.png,0.0,-0.59693456,0.54487413,-0.80738074
convnext_large,1,300,NaN,cat,bottle,180,0300_ps_dnn_180_bottle_10_n04579145_1856.png,n04579145_1856.png,0.0,0.25933924,0.46575823,-0.14596027
convnext_large,1,301,NaN,keyboard,chair,150,0301_ps_dnn_150_chair_10_n04099969_3768.png,n04099969_3768.png,0.0,0.17879267,0.38475683,-0.14563866
convnext_large,1,302,NaN,clock,bird,120,0302_ps_dnn_120_bird_10_n02009229_5172.png,n02009229_5172.png,0.0,-0.44940683,1.0161363,-1.0362955
convnext_large,1,303,NaN,airplane,airplane,90,0303_ps_dnn_90_airplane_10_n02690373_21731.png,n02690373_21731.png,1.0,8.037323,0.58319014,5.2708683
convnext_large,1,304,NaN,bear,bear,30,0304_ps_dnn_30_bear_10_n02133161_959.png,n02133161_959.png,1.0,3.0984778,1.8385475,0.8909053
convnext_large,1,305,NaN,chair,chair,0,0305_ps_dnn_0_chair_10_n04099969_1028.png,n04099969_1028.png,1.0,2.8502889,0.7568513,1.480284
convnext_large,1,306,NaN,keyboard,knife,180,0306_ps_dnn_180_knife_10_n03041632_44212.png,n03041632_44212.png,0.0,0.14167868,0.41129836,-0.19064993
convnext_large,1,307,NaN,cat,oven,120,0307_ps_dnn_120_oven_10_n04111531_9344.png,n04111531_9344.png,0.0,-0.7140384,0.6494948,-0.9641636
convnext_large,1,308,NaN,cat,car,180,0308_ps_dnn_180_car_10_n04285008_9080.png,n04285008_9080.png,0.0,-0.54187477,0.3995229,-0.66566867
convnext_large,1,309,NaN,car,car,60,0309_ps_dnn_60_car_10_n03100240_17349.png,n03100240_17349.png,1.0,6.170061,0.46457702,4.0343866
convnext_large,1,310,NaN,airplane,dog,30,0310_ps_dnn_30_dog_10_n02110958_1335.png,n02110958_1335.png,0.0,0.3289166,0.4917478,-0.11513904
convnext_large,1,311,NaN,cat,elephant,150,0311_ps_dnn_150_elephant_10_n02504013_7305.png,n02504013_7305.png,0.0,-0.91511106,0.37996212,-0.91575503
convnext_large,1,312,NaN,cat,dog,90,0312_ps_dnn_90_dog_10_n02091244_2626.png,n02091244_2626.png,0.0,0.40762988,1.0548606,-0.45766124
convnext_large,1,313,NaN,bottle,bird,150,0313_ps_dnn_150_bird_10_n01828970_22.png,n01828970_22.png,0.0,-1.0947554,0.91944283,-1.4242533
convnext_large,1,314,NaN,cat,cat,60,0314_ps_dnn_60_cat_10_n02124075_13587.png,n02124075_13587.png,1.0,4.331599,0.7635865,2.5229661
convnext_large,1,315,NaN,cat,knife,120,0315_ps_dnn_120_knife_10_n03041632_13612.png,n03041632_13612.png,0.0,0.62557495,1.282632,-0.4646095
convnext_large,1,316,NaN,bicycle,bicycle,90,0316_ps_dnn_90_bicycle_10_n02835271_2581.png,n02835271_2581.png,1.0,2.2817779,0.94342023,0.94636184
convnext_large,1,317,NaN,clock,clock,30,0317_ps_dnn_30_clock_10_n03196217_2536.png,n03196217_2536.png,1.0,4.479011,2.7054818,1.2540746
convnext_large,1,318,NaN,cat,cat,90,0318_ps_dnn_90_cat_10_n02124075_15001.png,n02124075_15001.png,1.0,3.510689,0.5839757,2.069499
convnext_large,1,319,NaN,bear,bear,60,0319_ps_dnn_60_bear_10_n02133161_6152.png,n02133161_6152.png,1.0,3.7876909,1.4705348,1.6384768
convnext_large,1,320,NaN,chair,chair,30,0320_ps_dnn_30_chair_10_n04099969_8401.png,n04099969_8401.png,1.0,2.1470437,1.0979478,0.74182284
convnext_large,1,321,NaN,cat,oven,150,0321_ps_dnn_150_oven_10_n04111531_7923.png,n04111531_7923.png,0.0,-0.9798634,0.87072355,-1.3085625
convnext_large,1,322,NaN,cat,cat,120,0322_ps_dnn_120_cat_10_n02123159_5706.png,n02123159_5706.png,1.0,1.4998018,0.42767757,0.75810635
convnext_large,1,323,NaN,airplane,airplane,30,0323_ps_dnn_30_airplane_10_n02690373_13324.png,n02690373_13324.png,1.0,8.183767,0.3198979,5.5605955
convnext_large,1,324,NaN,boat,airplane,150,0324_ps_dnn_150_airplane_10_n02690373_4452.png,n02690373_4452.png,0.0,-0.16573703,0.4617671,-0.4437124
convnext_large,1,325,NaN,keyboard,bird,90,0325_ps_dnn_90_bird_10_n02056570_10881.png,n02056570_10881.png,0.0,0.771851,1.3395905,-0.40145248
convnext_large,1,326,NaN,airplane,airplane,90,0326_ps_dnn_90_airplane_10_n02690373_19133.png,n02690373_19133.png,1.0,3.3017316,1.0258578,1.6092857
convnext_large,1,327,NaN,bottle,bottle,0,0327_ps_dnn_0_bottle_10_n03937543_4850.png,n03937543_4850.png,1.0,1.673001,0.29720062,0.9728378
convnext_large,1,328,NaN,knife,keyboard,150,0328_ps_dnn_150_keyboard_10_n04505470_2709.png,n04505470_2709.png,0.0,0.36872116,0.42160594,-0.037395194
convnext_large,1,329,NaN,keyboard,keyboard,90,0329_ps_dnn_90_keyboard_10_n03085013_1797.png,n03085013_1797.png,1.0,6.5460324,0.69730645,4.1356735
convnext_large,1,330,NaN,oven,oven,30,0330_ps_dnn_30_oven_10_n04111531_3902.png,n04111531_3902.png,1.0,8.355617,1.1684377,5.082103
convnext_large,1,331,NaN,bottle,car,180,0331_ps_dnn_180_car_10_n03100240_6750.png,n03100240_6750.png,0.0,-0.8933384,0.65751904,-1.0966219
convnext_large,1,332,NaN,chair,chair,0,0332_ps_dnn_0_chair_10_n03376595_16306.png,n03376595_16306.png,1.0,2.5563297,0.26997504,1.616697
convnext_large,1,333,NaN,oven,boat,60,0333_ps_dnn_60_boat_10_n02951358_13017.png,n02951358_13017.png,0.0,0.009605378,3.1100454,-2.1923423
convnext_large,1,334,NaN,knife,clock,90,0334_ps_dnn_90_clock_10_n03196217_5827.png,n03196217_5827.png,0.0,0.9369938,1.9316348,-0.7033174
convnext_large,1,335,NaN,bottle,bottle,0,0335_ps_dnn_0_bottle_10_n02823428_685.png,n02823428_685.png,1.0,2.527288,0.19389193,1.6499602
convnext_large,1,336,NaN,airplane,airplane,120,0336_ps_dnn_120_airplane_10_n02690373_2092.png,n02690373_2092.png,1.0,3.3678913,1.0005709,1.6739484
convnext_large,1,337,NaN,bottle,bottle,180,0337_ps_dnn_180_bottle_10_n04557648_3637.png,n04557648_3637.png,1.0,1.0694721,0.6766818,0.27774465
convnext_large,1,338,NaN,cat,bird,90,0338_ps_dnn_90_bird_10_n01819313_5521.png,n01819313_5521.png,0.0,0.070888504,1.2070898,-0.80341566
convnext_large,1,339,NaN,elephant,dog,90,0339_ps_dnn_90_dog_10_n02100583_24297.png,n02100583_24297.png,0.0,0.6214573,3.5983737,-2.1049976
convnext_large,1,340,NaN,airplane,bird,60,0340_ps_dnn_60_bird_10_n02018207_12233.png,n02018207_12233.png,0.0,0.30656424,0.343669,-0.026237024
convnext_large,1,341,NaN,knife,bird,180,0341_ps_dnn_180_bird_10_n02013706_3032.png,n02013706_3032.png,0.0,-0.54001814,1.2342511,-1.2545979
convnext_large,1,342,NaN,oven,oven,60,0342_ps_dnn_60_oven_10_n04111531_9939.png,n04111531_9939.png,1.0,7.2396297,0.35332537,4.869353
convnext_large,1,343,NaN,clock,bird,180,0343_ps_dnn_180_bird_10_n02011460_7629.png,n02011460_7629.png,0.0,-0.81688327,1.2404116,-1.4547272
convnext_large,1,344,NaN,knife,oven,60,0344_ps_dnn_60_oven_10_n04111531_13542.png,n04111531_13542.png,0.0,0.2404086,1.4045415,-0.82316625
convnext_large,1,345,NaN,bear,bear,90,0345_ps_dnn_90_bear_10_n02134418_270.png,n02134418_270.png,1.0,1.6079137,1.1794493,0.3029701
convnext_large,1,346,NaN,cat,bicycle,90,0346_ps_dnn_90_bicycle_10_n03792782_12561.png,n03792782_12561.png,0.0,0.6674237,1.8087476,-0.8070379
convnext_large,1,347,NaN,elephant,elephant,120,0347_ps_dnn_120_elephant_10_n02504458_9213.png,n02504458_9213.png,1.0,1.3900127,0.23482256,0.81684285
convnext_large,1,348,NaN,chair,chair,90,0348_ps_dnn_90_chair_10_n03376595_4155.png,n03376595_4155.png,1.0,3.0525403,0.15115225,2.0515914
convnext_large,1,349,NaN,cat,truck,120,0349_ps_dnn_120_truck_10_n04467665_69970.png,n04467665_69970.png,0.0,0.04691176,0.9725301,-0.65451103
convnext_large,1,350,NaN,bird,bird,120,0350_ps_dnn_120_bird_10_n02002556_2350.png,n02002556_2350.png,1.0,0.935919,0.7966139,0.09850359
convnext_large,1,351,NaN,bear,bear,0,0351_ps_dnn_0_bear_10_n02133161_355.png,n02133161_355.png,1.0,5.931078,0.7336666,3.6751251
convnext_large,1,352,NaN,airplane,airplane,90,0352_ps_dnn_90_airplane_10_n02690373_3065.png,n02690373_3065.png,1.0,4.585993,0.46887916,2.911239
convnext_large,1,353,NaN,truck,truck,60,0353_ps_dnn_60_truck_10_n03417042_13289.png,n03417042_13289.png,1.0,2.0020385,0.46472853,1.0870422
convnext_large,1,354,NaN,oven,oven,0,0354_ps_dnn_0_oven_10_n04111531_21404.png,n04111531_21404.png,1.0,8.433281,0.63034016,5.5175123
convnext_large,1,355,NaN,bear,bear,90,0355_ps_dnn_90_bear_10_n02132136_8358.png,n02132136_8358.png,1.0,2.6138678,0.79124135,1.2887914
convnext_large,1,356,NaN,knife,oven,90,0356_ps_dnn_90_oven_10_n04111531_274.png,n04111531_274.png,0.0,-0.15825546,1.1748056,-0.9426166
convnext_large,1,357,NaN,keyboard,chair,120,0357_ps_dnn_120_chair_10_n02791124_2773.png,n02791124_2773.png,0.0,1.9071085,2.1875145,-0.19827698
convnext_large,1,358,NaN,knife,knife,120,0358_ps_dnn_120_knife_10_n03041632_102828.png,n03041632_102828.png,1.0,0.9898989,0.40970063,0.41026214
convnext_large,1,359,NaN,boat,boat,150,0359_ps_dnn_150_boat_10_n02951358_30995.png,n02951358_30995.png,1.0,0.4293398,0.28490436,0.10213128
convnext_large,1,360,NaN,clock,bicycle,150,0360_ps_dnn_150_bicycle_10_n03792782_4544.png,n03792782_4544.png,0.0,-0.48416284,1.1828498,-1.1787559
convnext_large,1,361,NaN,cat,airplane,120,0361_ps_dnn_120_airplane_10_n02690373_8446.png,n02690373_8446.png,0.0,-0.5101229,0.6477354,-0.8187295
convnext_large,1,362,NaN,bottle,bottle,30,0362_ps_dnn_30_bottle_10_n04557648_900.png,n04557648_900.png,1.0,1.8723242,1.4521649,0.29709753
convnext_large,1,363,NaN,boat,airplane,150,0363_ps_dnn_150_airplane_10_n02690373_3407.png,n02690373_3407.png,0.0,-0.36147684,0.51790303,-0.6218155
convnext_large,1,364,NaN,bottle,bottle,120,0364_ps_dnn_120_bottle_10_n03983396_8143.png,n03983396_8143.png,1.0,2.9093087,0.51093805,1.6959043
convnext_large,1,365,NaN,car,car,0,0365_ps_dnn_0_car_10_n03100240_9610.png,n03100240_9610.png,1.0,6.1436844,0.9529274,3.6704195
convnext_large,1,366,NaN,elephant,cat,120,0366_ps_dnn_120_cat_10_n02123159_1108.png,n02123159_1108.png,0.0,0.3669133,0.85082275,-0.34217566
convnext_large,1,367,NaN,clock,clock,0,0367_ps_dnn_0_clock_10_n04548280_2170.png,n04548280_2170.png,1.0,5.160787,0.20038342,3.507535
convnext_large,1,368,NaN,keyboard,keyboard,120,0368_ps_dnn_120_keyboard_10_n04505470_4385.png,n04505470_4385.png,1.0,3.9941256,0.89323425,2.1926613
convnext_large,1,369,NaN,airplane,airplane,120,0369_ps_dnn_120_airplane_10_n02690373_18383.png,n02690373_18383.png,1.0,6.047637,0.82125556,3.6956098
convnext_large,1,370,NaN,truck,truck,90,0370_ps_dnn_90_truck_10_n03417042_10243.png,n03417042_10243.png,1.0,3.5020332,0.8308317,1.8888247
convnext_large,1,371,NaN,cat,cat,30,0371_ps_dnn_30_cat_10_n02123045_11826.png,n02123045_11826.png,1.0,4.1510625,1.1495562,2.1223855
convnext_large,1,372,NaN,knife,bird,0,0372_ps_dnn_0_bird_10_n01817953_2257.png,n01817953_2257.png,0.0,0.2584435,0.35843533,-0.0707049
convnext_large,1,373,NaN,boat,boat,0,0373_ps_dnn_0_boat_10_n04612504_18442.png,n04612504_18442.png,1.0,2.5109737,0.6073146,1.3460903
convnext_large,1,374,NaN,boat,airplane,180,0374_ps_dnn_180_airplane_10_n02690373_2874.png,n02690373_2874.png,0.0,0.023500204,0.7484106,-0.51258904
convnext_large,1,375,NaN,bicycle,bicycle,0,0375_ps_dnn_0_bicycle_10_n02835271_4963.png,n02835271_4963.png,1.0,4.5625525,0.5287099,2.8523574
convnext_large,1,376,NaN,bottle,boat,180,0376_ps_dnn_180_boat_10_n04273569_568.png,n04273569_568.png,0.0,0.17790744,0.40595368,-0.16125305
convnext_large,1,377,NaN,elephant,elephant,90,0377_ps_dnn_90_elephant_10_n02504013_2233.png,n02504013_2233.png,1.0,5.1164236,0.6150627,3.1829429
convnext_large,1,378,NaN,bottle,bottle,60,0378_ps_dnn_60_bottle_10_n02823428_889.png,n02823428_889.png,1.0,1.1018236,1.0674435,0.024310388
convnext_large,1,379,NaN,car,car,90,0379_ps_dnn_90_car_10_n04285008_3096.png,n04285008_3096.png,1.0,6.047371,0.15504438,4.166504
convnext_large,1,380,NaN,airplane,airplane,120,0380_ps_dnn_120_airplane_10_n02690373_13206.png,n02690373_13206.png,1.0,2.7484791,0.7480444,1.4145211
convnext_large,1,381,NaN,clock,keyboard,90,0381_ps_dnn_90_keyboard_10_n03085013_25443.png,n03085013_25443.png,0.0,0.8504354,1.7930632,-0.66653854
convnext_large,1,382,NaN,truck,truck,30,0382_ps_dnn_30_truck_10_n04467665_20622.png,n04467665_20622.png,1.0,2.504539,0.65082943,1.3107706
convnext_large,1,383,NaN,bicycle,bicycle,60,0383_ps_dnn_60_bicycle_10_n02835271_24639.png,n02835271_24639.png,1.0,5.7020516,0.89613986,3.398293
convnext_large,1,384,NaN,knife,knife,30,0384_ps_dnn_30_knife_10_n03041632_25603.png,n03041632_25603.png,1.0,4.787222,2.082392,1.9126036
convnext_large,1,385,NaN,boat,boat,60,0385_ps_dnn_60_boat_10_n04273569_4978.png,n04273569_4978.png,1.0,4.029628,0.4769557,2.5121186
convnext_large,1,386,NaN,car,car,60,0386_ps_dnn_60_car_10_n02814533_46401.png,n02814533_46401.png,1.0,2.4966652,0.9289191,1.108564
convnext_large,1,387,NaN,cat,bird,120,0387_ps_dnn_120_bird_10_n01798484_12863.png,n01798484_12863.png,0.0,0.023113681,0.411566,-0.27467728
convnext_large,1,388,NaN,boat,boat,120,0388_ps_dnn_120_boat_10_n03662601_7885.png,n03662601_7885.png,1.0,1.7620151,0.62603104,0.80326205
convnext_large,1,389,NaN,chair,chair,0,0389_ps_dnn_0_chair_10_n03376595_3062.png,n03376595_3062.png,1.0,1.6095778,1.5829923,0.01879876
convnext_large,1,390,NaN,airplane,airplane,90,0390_ps_dnn_90_airplane_10_n02690373_19118.png,n02690373_19118.png,1.0,7.978245,0.27135095,5.449597
convnext_large,1,391,NaN,bottle,cat,180,0391_ps_dnn_180_cat_10_n02123597_3944.png,n02123597_3944.png,0.0,0.5324206,0.68803513,-0.11003611
convnext_large,1,392,NaN,bottle,keyboard,150,0392_ps_dnn_150_keyboard_10_n04505470_2113.png,n04505470_2113.png,0.0,0.19957212,1.0209427,-0.5807967
convnext_large,1,393,NaN,elephant,bird,30,0393_ps_dnn_30_bird_10_n02056570_4808.png,n02056570_4808.png,0.0,0.14363837,0.3567387,-0.15068468
convnext_large,1,394,NaN,airplane,bear,180,0394_ps_dnn_180_bear_10_n02133161_2316.png,n02133161_2316.png,0.0,-0.4843201,0.8093463,-0.9147603
convnext_large,1,395,NaN,airplane,dog,0,0395_ps_dnn_0_dog_10_n02106662_15515.png,n02106662_15515.png,0.0,0.12684976,0.37178499,-0.17319536
convnext_large,1,396,NaN,airplane,airplane,0,0396_ps_dnn_0_airplane_10_n02690373_3899.png,n02690373_3899.png,1.0,8.315097,0.46602035,5.550135
convnext_large,1,397,NaN,boat,boat,0,0397_ps_dnn_0_boat_10_n04273569_2449.png,n04273569_2449.png,1.0,2.4091177,1.151693,0.8891336
convnext_large,1,398,NaN,elephant,bird,120,0398_ps_dnn_120_bird_10_n02007558_7614.png,n02007558_7614.png,0.0,0.32454342,1.3592894,-0.73167586
convnext_large,1,399,NaN,keyboard,keyboard,90,0399_ps_dnn_90_keyboard_10_n03085013_4914.png,n03085013_4914.png,1.0,6.0508866,1.389693,3.2959619
convnext_large,1,400,NaN,bottle,oven,150,0400_ps_dnn_150_oven_10_n04111531_15296.png,n04111531_15296.png,0.0,-2.3122194,0.92606294,-2.2898114
convnext_large,1,401,NaN,chair,chair,60,0401_ps_dnn_60_chair_10_n04099969_246.png,n04099969_246.png,1.0,3.297433,0.5420599,1.9483429
convnext_large,1,402,NaN,cat,truck,180,0402_ps_dnn_180_truck_10_n04467665_670.png,n04467665_670.png,0.0,-0.4448036,0.41638753,-0.60895413
convnext_large,1,403,NaN,keyboard,keyboard,90,0403_ps_dnn_90_keyboard_10_n03085013_24192.png,n03085013_24192.png,1.0,5.521038,0.5528007,3.5130744
convnext_large,1,404,NaN,cat,bicycle,150,0404_ps_dnn_150_bicycle_10_n03792782_378.png,n03792782_378.png,0.0,-0.16572426,0.3954041,-0.3967777
convnext_large,1,405,NaN,clock,bird,180,0405_ps_dnn_180_bird_10_n02018207_14738.png,n02018207_14738.png,0.0,-0.95324916,1.2341834,-1.5467484
convnext_large,1,406,NaN,bird,bird,0,0406_ps_dnn_0_bird_10_n01530575_5222.png,n01530575_5222.png,1.0,1.1418751,0.53264743,0.43078905
convnext_large,1,407,NaN,bear,bear,30,0407_ps_dnn_30_bear_10_n02134084_10766.png,n02134084_10766.png,1.0,2.8769712,0.41989303,1.7374167
convnext_large,1,408,NaN,elephant,bird,30,0408_ps_dnn_30_bird_10_n02007558_4009.png,n02007558_4009.png,0.0,0.4633746,0.65169847,-0.13316508
convnext_large,1,409,NaN,clock,chair,120,0409_ps_dnn_120_chair_10_n04099969_7545.png,n04099969_7545.png,0.0,0.7698183,0.928721,-0.112361185
convnext_large,1,410,NaN,clock,clock,90,0410_ps_dnn_90_clock_10_n03196217_127.png,n03196217_127.png,1.0,3.1689265,0.5167509,1.8753715
convnext_large,1,411,NaN,cat,bottle,150,0411_ps_dnn_150_bottle_10_n04560804_26326.png,n04560804_26326.png,0.0,0.3283287,0.61934054,-0.20577645
convnext_large,1,412,NaN,keyboard,keyboard,30,0412_ps_dnn_30_keyboard_10_n03085013_25066.png,n03085013_25066.png,1.0,3.779694,0.47817594,2.334526
convnext_large,1,413,NaN,cat,cat,30,0413_ps_dnn_30_cat_10_n02124075_11776.png,n02124075_11776.png,1.0,4.39719,0.42733735,2.8071098
convnext_large,1,414,NaN,keyboard,keyboard,120,0414_ps_dnn_120_keyboard_10_n04505470_2909.png,n04505470_2909.png,1.0,1.5162756,0.79670346,0.5088144
convnext_large,1,415,NaN,keyboard,keyboard,30,0415_ps_dnn_30_keyboard_10_n04505470_494.png,n04505470_494.png,1.0,7.3869367,1.0629871,4.471708
convnext_large,1,416,NaN,knife,bear,120,0416_ps_dnn_120_bear_10_n02133161_2270.png,n02133161_2270.png,0.0,0.5116127,0.70610934,-0.1375299
convnext_large,1,417,NaN,chair,chair,120,0417_ps_dnn_120_chair_10_n04099969_13901.png,n04099969_13901.png,1.0,0.8208874,0.5553246,0.18778124
convnext_large,1,418,NaN,car,car,120,0418_ps_dnn_120_car_10_n02814533_2923.png,n02814533_2923.png,1.0,5.8277683,2.6666899,2.23522
convnext_large,1,419,NaN,bottle,bottle,90,0419_ps_dnn_90_bottle_10_n03983396_12757.png,n03983396_12757.png,1.0,2.5433981,0.62593263,1.3558528
convnext_large,1,420,NaN,knife,knife,30,0420_ps_dnn_30_knife_10_n03041632_15444.png,n03041632_15444.png,1.0,7.7397943,0.8701632,4.8575625
convnext_large,1,421,NaN,knife,bicycle,180,0421_ps_dnn_180_bicycle_10_n02835271_5554.png,n02835271_5554.png,0.0,-0.1630277,0.4480149,-0.4320724
convnext_large,1,422,NaN,clock,knife,150,0422_ps_dnn_150_knife_10_n03041632_37618.png,n03041632_37618.png,0.0,-0.4776798,1.2582682,-1.2275007
convnext_large,1,423,NaN,chair,chair,60,0423_ps_dnn_60_chair_10_n03376595_3910.png,n03376595_3910.png,1.0,2.6174932,0.36274353,1.5943487
convnext_large,1,424,NaN,dog,dog,30,0424_ps_dnn_30_dog_10_n02086646_7362.png,n02086646_7362.png,1.0,0.57325864,0.4140572,0.112572424
convnext_large,1,425,NaN,elephant,dog,60,0425_ps_dnn_60_dog_10_n02113712_5829.png,n02113712_5829.png,0.0,1.8730562,2.5945618,-0.51018155
convnext_large,1,426,NaN,cat,truck,180,0426_ps_dnn_180_truck_10_n03417042_1149.png,n03417042_1149.png,0.0,-0.48542124,0.50846165,-0.7027813
convnext_large,1,427,NaN,bird,bird,60,0427_ps_dnn_60_bird_10_n02002724_3345.png,n02002724_3345.png,1.0,0.44210845,0.41794515,0.017086038
convnext_large,1,428,NaN,clock,bird,150,0428_ps_dnn_150_bird_10_n02002556_2917.png,n02002556_2917.png,0.0,-0.7169433,0.86921257,-1.1215816
convnext_large,1,429,NaN,bottle,bottle,180,0429_ps_dnn_180_bottle_10_n04560804_3959.png,n04560804_3959.png,1.0,0.75788385,0.4015346,0.251977
convnext_large,1,430,NaN,airplane,airplane,30,0430_ps_dnn_30_airplane_10_n02690373_3639.png,n02690373_3639.png,1.0,8.139641,0.559152,5.360215
convnext_large,1,431,NaN,bottle,bottle,120,0431_ps_dnn_120_bottle_10_n02823428_14453.png,n02823428_14453.png,1.0,1.5275952,0.5233394,0.7101161
convnext_large,1,432,NaN,bottle,bottle,0,0432_ps_dnn_0_bottle_10_n03937543_3253.png,n03937543_3253.png,1.0,2.8163388,0.7348821,1.4718121
convnext_large,1,433,NaN,elephant,elephant,30,0433_ps_dnn_30_elephant_10_n02504013_7010.png,n02504013_7010.png,1.0,6.8135242,0.44320354,4.504497
convnext_large,1,434,NaN,clock,car,150,0434_ps_dnn_150_car_10_n04285008_8813.png,n04285008_8813.png,0.0,0.6216007,1.425889,-0.5687177
convnext_large,1,435,NaN,boat,bear,180,0435_ps_dnn_180_bear_10_n02132136_110.png,n02132136_110.png,0.0,-0.18579847,0.5171237,-0.49704105
convnext_large,1,436,NaN,bear,bear,60,0436_ps_dnn_60_bear_10_n02133161_4294.png,n02133161_4294.png,1.0,3.1122184,0.7641134,1.6603609
convnext_large,1,437,NaN,car,car,0,0437_ps_dnn_0_car_10_n02814533_95144.png,n02814533_95144.png,1.0,3.094784,1.5321286,1.1049643
convnext_large,1,438,NaN,cat,oven,120,0438_ps_dnn_120_oven_10_n04111531_1220.png,n04111531_1220.png,0.0,-0.8735576,0.54715616,-1.0045964
convnext_large,1,439,NaN,bottle,dog,60,0439_ps_dnn_60_dog_10_n02086240_7247.png,n02086240_7247.png,0.0,-0.15143237,0.8004074,-0.6730524
convnext_large,1,440,NaN,airplane,airplane,0,0440_ps_dnn_0_airplane_10_n02690373_4144.png,n02690373_4144.png,1.0,8.333333,0.2865674,5.6899223
convnext_large,1,441,NaN,knife,oven,120,0441_ps_dnn_120_oven_10_n04111531_986.png,n04111531_986.png,0.0,-1.1911685,0.7943797,-1.4039947
convnext_large,1,442,NaN,elephant,elephant,30,0442_ps_dnn_30_elephant_10_n02504458_6336.png,n02504458_6336.png,1.0,5.7797155,0.60388535,3.659865
convnext_large,1,443,NaN,cat,knife,150,0443_ps_dnn_150_knife_10_n03041632_14132.png,n03041632_14132.png,0.0,0.038057797,0.7069304,-0.47296435
convnext_large,1,444,NaN,cat,cat,150,0444_ps_dnn_150_cat_10_n02123159_799.png,n02123159_799.png,1.0,0.6992554,0.69209784,0.005061162
convnext_large,1,445,NaN,elephant,bird,90,0445_ps_dnn_90_bird_10_n02006656_7456.png,n02006656_7456.png,0.0,-0.114787854,0.7094903,-0.5828527
convnext_large,1,446,NaN,cat,cat,90,0446_ps_dnn_90_cat_10_n02123045_8722.png,n02123045_8722.png,1.0,3.3317077,0.53547233,1.977237
convnext_large,1,447,NaN,keyboard,chair,120,0447_ps_dnn_120_chair_10_n03376595_8302.png,n03376595_8302.png,0.0,-0.010074355,0.41825187,-0.3028724
convnext_large,1,448,NaN,bottle,bottle,30,0448_ps_dnn_30_bottle_10_n04560804_5769.png,n04560804_5769.png,1.0,4.2685943,0.40745205,2.7302399
convnext_large,1,449,NaN,car,car,90,0449_ps_dnn_90_car_10_n04285008_203.png,n04285008_203.png,1.0,5.0129223,1.1053202,2.763092
convnext_large,1,450,NaN,cat,airplane,180,0450_ps_dnn_180_airplane_10_n02690373_9959.png,n02690373_9959.png,0.0,-0.81272537,0.47453126,-0.9102279
convnext_large,1,451,NaN,car,car,0,0451_ps_dnn_0_car_10_n04285008_1867.png,n04285008_1867.png,1.0,5.0728188,0.28392017,3.3862627
convnext_large,1,452,NaN,bottle,airplane,150,0452_ps_dnn_150_airplane_10_n02690373_16250.png,n02690373_16250.png,0.0,-0.6371261,0.8508402,-1.0521511
convnext_large,1,453,NaN,elephant,elephant,30,0453_ps_dnn_30_elephant_10_n02504458_4696.png,n02504458_4696.png,1.0,5.941816,0.89853954,3.566135
convnext_large,1,454,NaN,car,car,60,0454_ps_dnn_60_car_10_n04285008_10755.png,n04285008_10755.png,1.0,5.9561095,1.2629569,3.31856
convnext_large,1,455,NaN,cat,boat,150,0455_ps_dnn_150_boat_10_n02951358_11586.png,n02951358_11586.png,0.0,0.013407623,0.4492711,-0.30820203
convnext_large,1,456,NaN,bottle,bottle,60,0456_ps_dnn_60_bottle_10_n02823428_4108.png,n02823428_4108.png,1.0,2.1892629,0.9791762,0.85566044
convnext_large,1,457,NaN,bottle,car,180,0457_ps_dnn_180_car_10_n04285008_11770.png,n04285008_11770.png,0.0,-0.885853,0.47111776,-0.95952326
convnext_large,1,458,NaN,boat,boat,90,0458_ps_dnn_90_boat_10_n04273569_32786.png,n04273569_32786.png,1.0,2.215454,1.9953159,0.15566121
convnext_large,1,459,NaN,bear,bear,30,0459_ps_dnn_30_bear_10_n02132136_21267.png,n02132136_21267.png,1.0,5.7517047,0.66146886,3.5993402
convnext_large,1,460,NaN,car,car,90,0460_ps_dnn_90_car_10_n03100240_24001.png,n03100240_24001.png,1.0,5.81538,1.4683735,3.073798
convnext_large,1,461,NaN,knife,bottle,150,0461_ps_dnn_150_bottle_10_n03937543_71.png,n03937543_71.png,0.0,0.41631967,0.4371599,-0.014736267
convnext_large,1,462,NaN,chair,chair,0,0462_ps_dnn_0_chair_10_n02791124_16127.png,n02791124_16127.png,1.0,2.777464,0.3863325,1.6907853
convnext_large,1,463,NaN,bird,bird,90,0463_ps_dnn_90_bird_10_n02002724_12183.png,n02002724_12183.png,1.0,0.7492282,0.5526096,0.13903032
convnext_large,1,464,NaN,elephant,dog,30,0464_ps_dnn_30_dog_10_n02108915_1165.png,n02108915_1165.png,0.0,0.29363555,0.36244625,-0.048656516
convnext_large,1,465,NaN,boat,dog,180,0465_ps_dnn_180_dog_10_n02099429_4843.png,n02099429_4843.png,0.0,-0.08486718,0.67841315,-0.5397207
convnext_large,1,466,NaN,boat,boat,60,0466_ps_dnn_60_boat_10_n03344393_3499.png,n03344393_3499.png,1.0,3.1115708,1.3324001,1.2580637
convnext_large,1,467,NaN,truck,truck,120,0467_ps_dnn_120_truck_10_n03417042_20962.png,n03417042_20962.png,1.0,2.5681257,1.3145924,0.886382
convnext_large,1,468,NaN,chair,dog,30,0468_ps_dnn_30_dog_10_n02097047_4189.png,n02097047_4189.png,0.0,0.16919957,0.30712312,-0.097526684
convnext_large,1,469,NaN,bicycle,bicycle,60,0469_ps_dnn_60_bicycle_10_n03792782_24591.png,n03792782_24591.png,1.0,7.519787,0.7336673,4.798511
convnext_large,1,470,NaN,airplane,airplane,60,0470_ps_dnn_60_airplane_10_n02690373_243.png,n02690373_243.png,1.0,8.064183,0.37980804,5.433674
convnext_large,1,471,NaN,boat,boat,90,0471_ps_dnn_90_boat_10_n03344393_3072.png,n03344393_3072.png,1.0,1.3005838,1.194984,0.07467039
convnext_large,1,472,NaN,clock,clock,120,0472_ps_dnn_120_clock_10_n02708093_118.png,n02708093_118.png,1.0,2.476898,1.9126018,0.39901763
convnext_large,1,473,NaN,bird,bird,30,0473_ps_dnn_30_bird_10_n01843065_2664.png,n01843065_2664.png,1.0,0.48823076,0.2951712,0.13651372
convnext_large,1,474,NaN,cat,airplane,150,0474_ps_dnn_150_airplane_10_n02690373_19353.png,n02690373_19353.png,0.0,-0.5339064,0.4454879,-0.69253635
convnext_large,1,475,NaN,clock,dog,120,0475_ps_dnn_120_dog_10_n02099849_4250.png,n02099849_4250.png,0.0,1.0275646,1.0407,-0.00928807
convnext_large,1,476,NaN,truck,truck,90,0476_ps_dnn_90_truck_10_n04467665_29260.png,n04467665_29260.png,1.0,2.697551,0.4535713,1.5867333
convnext_large,1,477,NaN,elephant,elephant,30,0477_ps_dnn_30_elephant_10_n02504013_8308.png,n02504013_8308.png,1.0,6.677684,0.9689388,4.036692
convnext_large,1,478,NaN,cat,boat,150,0478_ps_dnn_150_boat_10_n03344393_6854.png,n03344393_6854.png,0.0,-0.09488869,0.53012496,-0.4419514
convnext_large,1,479,NaN,cat,truck,180,0479_ps_dnn_180_truck_10_n04467665_25129.png,n04467665_25129.png,0.0,-0.5677088,0.741421,-0.9256945
convnext_large,1,480,NaN,bird,bird,30,0480_ps_dnn_30_bird_10_n01824575_6272.png,n01824575_6272.png,1.0,1.1802919,0.4456868,0.5194442
convnext_large,1,481,NaN,bottle,chair,180,0481_ps_dnn_180_chair_10_n04099969_19484.png,n04099969_19484.png,0.0,-0.05354961,0.6646642,-0.50785387
convnext_large,1,482,NaN,cat,oven,120,0482_ps_dnn_120_oven_10_n04111531_5888.png,n04111531_5888.png,0.0,-0.6774345,0.60693425,-0.9081859
convnext_large,1,483,NaN,chair,chair,60,0483_ps_dnn_60_chair_10_n04099969_16266.png,n04099969_16266.png,1.0,1.1667335,0.9968436,0.12013032
convnext_large,1,484,NaN,cat,truck,150,0484_ps_dnn_150_truck_10_n04467665_68754.png,n04467665_68754.png,0.0,-0.5457136,0.4777106,-0.7236702
convnext_large,1,485,NaN,clock,cat,180,0485_ps_dnn_180_cat_10_n02123394_7859.png,n02123394_7859.png,0.0,-0.16271107,0.8197088,-0.6946758
convnext_large,1,486,NaN,car,car,90,0486_ps_dnn_90_car_10_n04285008_17056.png,n04285008_17056.png,1.0,4.0514035,1.7227944,1.6465752
convnext_large,1,487,NaN,bottle,cat,120,0487_ps_dnn_120_cat_10_n02123045_12046.png,n02123045_12046.png,0.0,0.520164,0.57150775,-0.036305506
convnext_large,1,488,NaN,clock,elephant,180,0488_ps_dnn_180_elephant_10_n02504013_3029.png,n02504013_3029.png,0.0,-0.4629327,1.4655638,-1.363653
convnext_large,1,489,NaN,boat,boat,120,0489_ps_dnn_120_boat_10_n03662601_7271.png,n03662601_7271.png,1.0,2.0049577,0.6164272,0.98183936
convnext_large,1,490,NaN,bear,bear,30,0490_ps_dnn_30_bear_10_n02133161_6861.png,n02133161_6861.png,1.0,4.3962765,1.6975557,1.908284
convnext_large,1,491,NaN,chair,chair,30,0491_ps_dnn_30_chair_10_n02791124_4192.png,n02791124_4192.png,1.0,3.314912,0.4443096,2.0298226
convnext_large,1,492,NaN,boat,boat,60,0492_ps_dnn_60_boat_10_n04273569_1457.png,n04273569_1457.png,1.0,3.348701,1.1372414,1.5637381
convnext_large,1,493,NaN,clock,clock,90,0493_ps_dnn_90_clock_10_n04548280_764.png,n04548280_764.png,1.0,2.638398,0.5956607,1.4444333
convnext_large,1,494,NaN,bicycle,bicycle,120,0494_ps_dnn_120_bicycle_10_n02835271_12346.png,n02835271_12346.png,1.0,4.363626,1.418231,2.0827088
convnext_large,1,495,NaN,clock,bicycle,180,0495_ps_dnn_180_bicycle_10_n03792782_50673.png,n03792782_50673.png,0.0,-0.9253674,1.5864509,-1.7761239
convnext_large,1,496,NaN,knife,truck,120,0496_ps_dnn_120_truck_10_n03796401_9198.png,n03796401_9198.png,0.0,-0.2760036,1.3514309,-1.15077
convnext_large,1,497,NaN,airplane,airplane,0,0497_ps_dnn_0_airplane_10_n02690373_4110.png,n02690373_4110.png,1.0,8.359353,0.48115936,5.5707245
convnext_large,1,498,NaN,dog,dog,60,0498_ps_dnn_60_dog_10_n02107683_2484.png,n02107683_2484.png,1.0,1.0133048,0.98378,0.020877188
convnext_large,1,499,NaN,chair,chair,60,0499_ps_dnn_60_chair_10_n02791124_13057.png,n02791124_13057.png,1.0,4.708893,1.4080936,2.3340178
convnext_large,1,500,NaN,elephant,bear,120,0500_ps_dnn_120_bear_10_n02134418_14451.png,n02134418_14451.png,0.0,0.61828643,1.1062634,-0.34505183
convnext_large,1,501,NaN,bird,bird,60,0501_ps_dnn_60_bird_10_n01843383_10059.png,n01843383_10059.png,1.0,0.8077234,0.5623687,0.17349198
convnext_large,1,502,NaN,bicycle,bicycle,0,0502_ps_dnn_0_bicycle_10_n03792782_11824.png,n03792782_11824.png,1.0,7.5138965,0.7388185,4.790704
convnext_large,1,503,NaN,bird,bird,30,0503_ps_dnn_30_bird_10_n01532829_2492.png,n01532829_2492.png,1.0,1.182745,0.48991352,0.48990583
convnext_large,1,504,NaN,bottle,bottle,0,0504_ps_dnn_0_bottle_10_n04579145_5621.png,n04579145_5621.png,1.0,2.2800353,0.7937707,1.0509478
convnext_large,1,505,NaN,cat,truck,150,0505_ps_dnn_150_truck_10_n03417042_6250.png,n03417042_6250.png,0.0,-0.46647543,0.8522899,-0.932508
convnext_large,1,506,NaN,bear,dog,90,0506_ps_dnn_90_dog_10_n02108551_14704.png,n02108551_14704.png,0.0,0.25545377,0.63445485,-0.26799423
convnext_large,1,507,NaN,boat,boat,30,0507_ps_dnn_30_boat_10_n04612504_8407.png,n04612504_8407.png,1.0,2.3090773,0.21971679,1.477401
convnext_large,1,508,NaN,knife,car,120,0508_ps_dnn_120_car_10_n03100240_14794.png,n03100240_14794.png,0.0,-0.2891852,1.3128448,-1.1328062
convnext_large,1,509,NaN,car,dog,60,0509_ps_dnn_60_dog_10_n02097658_759.png,n02097658_759.png,0.0,0.36602318,0.8922693,-0.3721122
convnext_large,1,510,NaN,bottle,oven,90,0510_ps_dnn_90_oven_10_n04111531_5965.png,n04111531_5965.png,0.0,0.92977303,2.232969,-0.9214987
convnext_large,1,511,NaN,clock,elephant,180,0511_ps_dnn_180_elephant_10_n02504013_6984.png,n02504013_6984.png,0.0,-0.79153126,1.3087305,-1.4851093
convnext_large,1,512,NaN,cat,oven,180,0512_ps_dnn_180_oven_10_n04111531_6695.png,n04111531_6695.png,0.0,-0.7973483,0.41557848,-0.8576688
convnext_large,1,513,NaN,bird,bird,60,0513_ps_dnn_60_bird_10_n02037110_4572.png,n02037110_4572.png,1.0,0.81808096,0.47273535,0.24419624
convnext_large,1,514,NaN,truck,truck,30,0514_ps_dnn_30_truck_10_n03796401_11628.png,n03796401_11628.png,1.0,3.0607424,0.37413543,1.8997179
convnext_large,1,515,NaN,clock,chair,180,0515_ps_dnn_180_chair_10_n02791124_1258.png,n02791124_1258.png,0.0,0.40054432,0.9485445,-0.38749468
convnext_large,1,516,NaN,knife,knife,0,0516_ps_dnn_0_knife_10_n03041632_62810.png,n03041632_62810.png,1.0,6.5767026,0.28298163,4.450333
convnext_large,1,517,NaN,elephant,bird,90,0517_ps_dnn_90_bird_10_n01819313_2770.png,n01819313_2770.png,0.0,-0.2290153,1.5760002,-1.2763388
convnext_large,1,518,NaN,bicycle,bicycle,60,0518_ps_dnn_60_bicycle_10_n02835271_25519.png,n02835271_25519.png,1.0,6.54888,0.58255655,4.2188277
convnext_large,1,519,NaN,boat,boat,0,0519_ps_dnn_0_boat_10_n03662601_23248.png,n03662601_23248.png,1.0,2.9144354,0.5166933,1.6954597
convnext_large,1,520,NaN,elephant,elephant,120,0520_ps_dnn_120_elephant_10_n02504013_1784.png,n02504013_1784.png,1.0,3.0710678,0.90947443,1.5284774
convnext_large,1,521,NaN,bottle,cat,150,0521_ps_dnn_150_cat_10_n02123394_270.png,n02123394_270.png,0.0,0.019470826,0.8922249,-0.61713034
convnext_large,1,522,NaN,knife,dog,30,0522_ps_dnn_30_dog_10_n02093647_1022.png,n02093647_1022.png,0.0,0.33810914,0.4177897,-0.056342665
convnext_large,1,523,NaN,boat,boat,30,0523_ps_dnn_30_boat_10_n03662601_4881.png,n03662601_4881.png,1.0,2.7398944,1.1636283,1.1145884
convnext_large,1,524,NaN,knife,knife,60,0524_ps_dnn_60_knife_10_n03041632_8321.png,n03041632_8321.png,1.0,4.5502105,0.6754445,2.7398732
convnext_large,1,525,NaN,car,car,120,0525_ps_dnn_120_car_10_n02814533_60400.png,n02814533_60400.png,1.0,2.5851135,1.0376122,1.0942487
convnext_large,1,526,NaN,bottle,cat,150,0526_ps_dnn_150_cat_10_n02123597_3280.png,n02123597_3280.png,0.0,-0.12922865,0.87958014,-0.7133356
convnext_large,1,527,NaN,bottle,dog,150,0527_ps_dnn_150_dog_10_n02110063_3399.png,n02110063_3399.png,0.0,-0.6188158,1.1103894,-1.2227327
convnext_large,1,528,NaN,bear,bear,0,0528_ps_dnn_0_bear_10_n02132136_3109.png,n02132136_3109.png,1.0,4.720004,0.3527974,3.0880814
convnext_large,1,529,NaN,bear,bear,0,0529_ps_dnn_0_bear_10_n02134084_16632.png,n02134084_16632.png,1.0,3.389022,0.3887241,2.121531
convnext_large,1,530,NaN,cat,bottle,150,0530_ps_dnn_150_bottle_10_n04591713_5851.png,n04591713_5851.png,0.0,-0.0068106907,0.621739,-0.44445172
convnext_large,1,531,NaN,knife,knife,0,0531_ps_dnn_0_knife_10_n03041632_29961.png,n03041632_29961.png,1.0,8.881972,0.19030996,6.1459336
convnext_large,1,532,NaN,knife,knife,30,0532_ps_dnn_30_knife_10_n03041632_10140.png,n03041632_10140.png,1.0,7.579428,0.63484085,4.910565
convnext_large,1,533,NaN,clock,airplane,180,0533_ps_dnn_180_airplane_10_n02690373_8765.png,n02690373_8765.png,0.0,-0.32635915,0.43965855,-0.5416563
convnext_large,1,534,NaN,keyboard,knife,120,0534_ps_dnn_120_knife_10_n03041632_16826.png,n03041632_16826.png,0.0,0.501353,0.7140267,-0.150383
convnext_large,1,535,NaN,chair,chair,30,0535_ps_dnn_30_chair_10_n04429376_21089.png,n04429376_21089.png,1.0,2.7943132,1.6569767,0.80421835
convnext_large,1,536,NaN,bear,bear,60,0536_ps_dnn_60_bear_10_n02134084_15118.png,n02134084_15118.png,1.0,2.2072787,0.74180263,1.0362481
convnext_large,1,537,NaN,car,car,120,0537_ps_dnn_120_car_10_n04285008_3884.png,n04285008_3884.png,1.0,2.7470903,1.250323,1.0583743
convnext_large,1,538,NaN,knife,boat,150,0538_ps_dnn_150_boat_10_n04273569_1576.png,n04273569_1576.png,0.0,-0.029843783,0.7961365,-0.58405626
convnext_large,1,539,NaN,knife,bicycle,120,0539_ps_dnn_120_bicycle_10_n03792782_4600.png,n03792782_4600.png,0.0,1.5589395,1.6854514,-0.089457445
convnext_large,1,540,NaN,clock,clock,30,0540_ps_dnn_30_clock_10_n03196217_4537.png,n03196217_4537.png,1.0,4.636467,0.46977076,2.946299
convnext_large,1,541,NaN,airplane,airplane,60,0541_ps_dnn_60_airplane_10_n02690373_10203.png,n02690373_10203.png,1.0,8.357533,0.5218201,5.540686
convnext_large,1,542,NaN,truck,truck,30,0542_ps_dnn_30_truck_10_n04467665_48875.png,n04467665_48875.png,1.0,2.5212362,0.5892753,1.3661026
convnext_large,1,543,NaN,car,car,60,0543_ps_dnn_60_car_10_n02814533_38071.png,n02814533_38071.png,1.0,3.52053,0.7313063,1.972279
convnext_large,1,544,NaN,elephant,bear,90,0544_ps_dnn_90_bear_10_n02133161_160.png,n02133161_160.png,0.0,0.30967683,2.554401,-1.5872597
convnext_large,1,545,NaN,car,car,30,0545_ps_dnn_30_car_10_n02814533_40344.png,n02814533_40344.png,1.0,2.8231528,1.5015153,0.93453884
convnext_large,1,546,NaN,cat,oven,180,0546_ps_dnn_180_oven_10_n04111531_9026.png,n04111531_9026.png,0.0,-1.2905518,0.5971694,-1.3348205
convnext_large,1,547,NaN,cat,cat,0,0547_ps_dnn_0_cat_10_n02123597_13755.png,n02123597_13755.png,1.0,1.648786,0.91571987,0.518356
convnext_large,1,548,NaN,boat,car,150,0548_ps_dnn_150_car_10_n02814533_39485.png,n02814533_39485.png,0.0,-0.118853085,0.4821689,-0.42498675
convnext_large,1,549,NaN,bottle,bottle,90,0549_ps_dnn_90_bottle_10_n03937543_4512.png,n03937543_4512.png,1.0,2.0435467,0.6659234,0.9741268
convnext_large,1,550,NaN,cat,cat,120,0550_ps_dnn_120_cat_10_n02124075_2402.png,n02124075_2402.png,1.0,3.9171212,0.35539636,2.5185199
convnext_large,1,551,NaN,elephant,bird,0,0551_ps_dnn_0_bird_10_n02056570_9835.png,n02056570_9835.png,0.0,0.114034995,0.47411454,-0.25461468
convnext_large,1,552,NaN,clock,clock,120,0552_ps_dnn_120_clock_10_n04548280_13247.png,n04548280_13247.png,1.0,4.7615585,0.27307588,3.1738365
convnext_large,1,553,NaN,truck,truck,60,0553_ps_dnn_60_truck_10_n03417042_173.png,n03417042_173.png,1.0,4.32234,1.5539573,1.9575421
convnext_large,1,554,NaN,cat,airplane,180,0554_ps_dnn_180_airplane_10_n02690373_1592.png,n02690373_1592.png,0.0,-0.45463556,0.56879306,-0.72367334
convnext_large,1,555,NaN,elephant,elephant,0,0555_ps_dnn_0_elephant_10_n02504013_1953.png,n02504013_1953.png,1.0,6.621521,0.16026998,4.5687947
convnext_large,1,556,NaN,clock,elephant,150,0556_ps_dnn_150_elephant_10_n02504458_4348.png,n02504458_4348.png,0.0,-0.6779877,1.2517946,-1.3645622
convnext_large,1,557,NaN,airplane,airplane,90,0557_ps_dnn_90_airplane_10_n02690373_1854.png,n02690373_1854.png,1.0,2.6548429,1.2033052,1.0263921
convnext_large,1,558,NaN,bottle,cat,180,0558_ps_dnn_180_cat_10_n02124075_14363.png,n02124075_14363.png,0.0,0.09970147,0.733862,-0.4484192
convnext_large,1,559,NaN,bottle,bottle,30,0559_ps_dnn_30_bottle_10_n03983396_3377.png,n03983396_3377.png,1.0,4.008317,0.55035084,2.4451513
convnext_large,1,560,NaN,clock,clock,90,0560_ps_dnn_90_clock_10_n04548280_6743.png,n04548280_6743.png,1.0,4.895657,0.9062483,2.820938
convnext_large,1,561,NaN,clock,clock,30,0561_ps_dnn_30_clock_10_n03196217_8034.png,n03196217_8034.png,1.0,3.442195,0.5511036,2.0443103
convnext_large,1,562,NaN,cat,dog,150,0562_ps_dnn_150_dog_10_n02088094_13992.png,n02088094_13992.png,0.0,-0.26627502,0.4319801,-0.49374095
convnext_large,1,563,NaN,car,car,30,0563_ps_dnn_30_car_10_n03100240_6216.png,n03100240_6216.png,1.0,4.056437,2.2123916,1.3039371
convnext_large,1,564,NaN,oven,oven,30,0564_ps_dnn_30_oven_10_n04111531_2831.png,n04111531_2831.png,1.0,6.3067756,2.8911428,2.4152172
convnext_large,1,565,NaN,knife,knife,0,0565_ps_dnn_0_knife_10_n03041632_927.png,n03041632_927.png,1.0,8.185397,0.34175023,5.546296
convnext_large,1,566,NaN,cat,knife,150,0566_ps_dnn_150_knife_10_n03041632_5427.png,n03041632_5427.png,0.0,0.08592522,1.0417686,-0.6758833
convnext_large,1,567,NaN,clock,cat,180,0567_ps_dnn_180_cat_10_n02123045_8690.png,n02123045_8690.png,0.0,-0.23216577,2.1107476,-1.65669
convnext_large,1,568,NaN,clock,clock,90,0568_ps_dnn_90_clock_10_n02708093_6696.png,n02708093_6696.png,1.0,4.40828,0.40885684,2.8280191
convnext_large,1,569,NaN,airplane,airplane,60,0569_ps_dnn_60_airplane_10_n02690373_7748.png,n02690373_7748.png,1.0,7.687443,0.9901123,4.735728
convnext_large,1,570,NaN,airplane,airplane,0,0570_ps_dnn_0_airplane_10_n02690373_20011.png,n02690373_20011.png,1.0,8.494321,0.29706788,5.7963333
convnext_large,1,571,NaN,boat,boat,150,0571_ps_dnn_150_boat_10_n02951358_16728.png,n02951358_16728.png,1.0,0.5179609,0.4029182,0.08134749
convnext_large,1,572,NaN,airplane,truck,60,0572_ps_dnn_60_truck_10_n04467665_37833.png,n04467665_37833.png,0.0,1.4910448,3.8009048,-1.6333177
convnext_large,1,573,NaN,car,oven,0,0573_ps_dnn_0_oven_10_n04111531_22886.png,n04111531_22886.png,0.0,1.2454711,2.5088997,-0.8933789
convnext_large,1,574,NaN,car,car,30,0574_ps_dnn_30_car_10_n04285008_5959.png,n04285008_5959.png,1.0,5.876429,0.94815373,3.4848168
convnext_large,1,575,NaN,airplane,boat,120,0575_ps_dnn_120_boat_10_n04273569_10840.png,n04273569_10840.png,0.0,1.9680712,2.0741405,-0.07500234
convnext_large,1,576,NaN,clock,clock,180,0576_ps_dnn_180_clock_10_n02708093_1352.png,n02708093_1352.png,1.0,1.715098,0.8431829,0.6165371
convnext_large,1,577,NaN,knife,oven,120,0577_ps_dnn_120_oven_10_n04111531_1004.png,n04111531_1004.png,0.0,-1.4280294,0.9890344,-1.7091222
convnext_large,1,578,NaN,bicycle,car,180,0578_ps_dnn_180_car_10_n03100240_4619.png,n03100240_4619.png,0.0,-0.18439782,0.47835985,-0.46864042
convnext_large,1,579,NaN,clock,oven,180,0579_ps_dnn_180_oven_10_n04111531_15367.png,n04111531_15367.png,0.0,-1.4152852,1.0795794,-1.7641356
convnext_large,1,580,NaN,oven,oven,30,0580_ps_dnn_30_oven_10_n04111531_6903.png,n04111531_6903.png,1.0,3.554706,2.6297681,0.6540299
convnext_large,1,581,NaN,oven,oven,60,0581_ps_dnn_60_oven_10_n04111531_1662.png,n04111531_1662.png,1.0,7.856664,1.6129702,4.4149585
convnext_large,1,582,NaN,keyboard,keyboard,0,0582_ps_dnn_0_keyboard_10_n04505470_1342.png,n04505470_1342.png,1.0,7.2764273,0.7112937,4.6422505
convnext_large,1,583,NaN,boat,boat,60,0583_ps_dnn_60_boat_10_n02951358_1911.png,n02951358_1911.png,1.0,2.415705,1.507138,0.64245385
convnext_large,1,584,NaN,bicycle,bicycle,30,0584_ps_dnn_30_bicycle_10_n03792782_42927.png,n03792782_42927.png,1.0,4.998368,0.31953433,3.308435
convnext_large,1,585,NaN,cat,chair,180,0585_ps_dnn_180_chair_10_n02791124_3994.png,n02791124_3994.png,0.0,-0.21855548,0.5398133,-0.5362477
convnext_large,1,586,NaN,dog,dog,0,0586_ps_dnn_0_dog_10_n02101388_1383.png,n02101388_1383.png,1.0,0.41676027,0.31638354,0.07097706
convnext_large,1,587,NaN,bear,bear,30,0587_ps_dnn_30_bear_10_n02132136_9367.png,n02132136_9367.png,1.0,3.4297042,1.4633341,1.3904337
convnext_large,1,588,NaN,clock,dog,150,0588_ps_dnn_150_dog_10_n02108915_7875.png,n02108915_7875.png,0.0,-0.4379221,1.2941331,-1.224748
convnext_large,1,589,NaN,chair,chair,60,0589_ps_dnn_60_chair_10_n02791124_6237.png,n02791124_6237.png,1.0,2.5884705,0.59676427,1.4083489
convnext_large,1,590,NaN,cat,bird,60,0590_ps_dnn_60_bird_10_n01622779_13896.png,n01622779_13896.png,0.0,0.19134472,0.7002005,-0.35981536
convnext_large,1,591,NaN,airplane,boat,30,0591_ps_dnn_30_boat_10_n04273569_15583.png,n04273569_15583.png,0.0,2.2301495,4.1164536,-1.3338184
convnext_large,1,592,NaN,bottle,bottle,0,0592_ps_dnn_0_bottle_10_n03937543_3079.png,n03937543_3079.png,1.0,2.2010484,1.2404844,0.67922133
convnext_large,1,593,NaN,clock,dog,150,0593_ps_dnn_150_dog_10_n02110063_5687.png,n02110063_5687.png,0.0,-0.42167878,1.1070751,-1.0809922
convnext_large,1,594,NaN,truck,truck,30,0594_ps_dnn_30_truck_10_n03417042_6685.png,n03417042_6685.png,1.0,2.5574505,0.9924073,1.1066527
convnext_large,1,595,NaN,clock,clock,0,0595_ps_dnn_0_clock_10_n02708093_340.png,n02708093_340.png,1.0,5.761341,0.8373393,3.481795
convnext_large,1,596,NaN,dog,dog,0,0596_ps_dnn_0_dog_10_n02111129_5463.png,n02111129_5463.png,1.0,0.20727147,0.20207556,0.0036740673
convnext_large,1,597,NaN,bicycle,bicycle,90,0597_ps_dnn_90_bicycle_10_n03792782_17503.png,n03792782_17503.png,1.0,7.009413,1.3956332,3.9695415
convnext_large,1,598,NaN,bear,bear,60,0598_ps_dnn_60_bear_10_n02134084_9253.png,n02134084_9253.png,1.0,1.6089177,0.26022515,0.95366967
convnext_large,1,599,NaN,car,car,30,0599_ps_dnn_30_car_10_n04285008_3688.png,n04285008_3688.png,1.0,2.4742815,0.46089077,1.4236823
convnext_large,1,600,NaN,clock,bird,150,0600_ps_dnn_150_bird_10_n01795545_17324.png,n01795545_17324.png,0.0,-1.0039846,1.2975563,-1.6274352
convnext_large,1,601,NaN,boat,boat,30,0601_ps_dnn_30_boat_10_n04273569_16064.png,n04273569_16064.png,1.0,3.5278256,0.6173048,2.058049
convnext_large,1,602,NaN,clock,elephant,180,0602_ps_dnn_180_elephant_10_n02504458_4395.png,n02504458_4395.png,0.0,-0.96149147,1.8771826,-2.0072458
convnext_large,1,603,NaN,oven,oven,30,0603_ps_dnn_30_oven_10_n04111531_21855.png,n04111531_21855.png,1.0,7.0006056,2.7958431,2.973216
convnext_large,1,604,NaN,oven,oven,30,0604_ps_dnn_30_oven_10_n04111531_11225.png,n04111531_11225.png,1.0,8.249215,0.8995502,5.1969976
convnext_large,1,605,NaN,cat,oven,150,0605_ps_dnn_150_oven_10_n04111531_13486.png,n04111531_13486.png,0.0,-1.2818192,0.5833041,-1.3188413
convnext_large,1,606,NaN,chair,chair,0,0606_ps_dnn_0_chair_10_n02791124_1693.png,n02791124_1693.png,1.0,2.4653666,1.1469171,0.9322846
convnext_large,1,607,NaN,cat,chair,150,0607_ps_dnn_150_chair_10_n04099969_26462.png,n04099969_26462.png,0.0,-0.14542219,0.66622025,-0.57391787
convnext_large,1,608,NaN,cat,chair,120,0608_ps_dnn_120_chair_10_n04429376_16869.png,n04429376_16869.png,0.0,0.20815125,0.6142925,-0.28718525
convnext_large,1,609,NaN,bottle,bottle,0,0609_ps_dnn_0_bottle_10_n03983396_23471.png,n03983396_23471.png,1.0,2.882358,1.9291999,0.6739846
convnext_large,1,610,NaN,bear,bear,0,0610_ps_dnn_0_bear_10_n02134084_5314.png,n02134084_5314.png,1.0,2.489946,0.26979458,1.5698842
convnext_large,1,611,NaN,clock,elephant,180,0611_ps_dnn_180_elephant_10_n02504458_4564.png,n02504458_4564.png,0.0,-1.1231207,0.82551837,-1.377896
convnext_large,1,612,NaN,bear,bear,0,0612_ps_dnn_0_bear_10_n02132136_6967.png,n02132136_6967.png,1.0,3.8648791,0.5400198,2.3510306
convnext_large,1,613,NaN,cat,cat,0,0613_ps_dnn_0_cat_10_n02123394_6517.png,n02123394_6517.png,1.0,2.8417003,0.8454856,1.4115369
convnext_large,1,614,NaN,keyboard,keyboard,150,0614_ps_dnn_150_keyboard_10_n04505470_1076.png,n04505470_1076.png,1.0,0.3192231,0.28034398,0.027491694
convnext_large,1,615,NaN,cat,knife,180,0615_ps_dnn_180_knife_10_n03041632_5916.png,n03041632_5916.png,0.0,-0.5267958,1.3191037,-1.3052481
convnext_large,1,616,NaN,car,car,90,0616_ps_dnn_90_car_10_n03100240_4674.png,n03100240_4674.png,1.0,6.316563,1.3659743,3.5005949
convnext_large,1,617,NaN,bottle,bottle,90,0617_ps_dnn_90_bottle_10_n02823428_1602.png,n02823428_1602.png,1.0,3.1423821,1.1380992,1.417242
convnext_large,1,618,NaN,boat,boat,90,0618_ps_dnn_90_boat_10_n04273569_27343.png,n04273569_27343.png,1.0,3.0690386,1.8184114,0.88432705
convnext_large,1,619,NaN,cat,bottle,120,0619_ps_dnn_120_bottle_10_n04560804_15162.png,n04560804_15162.png,0.0,0.27269727,0.5523084,-0.19771491
convnext_large,1,620,NaN,knife,bottle,120,0620_ps_dnn_120_bottle_10_n03937543_24.png,n03937543_24.png,0.0,0.60350996,0.66009754,-0.04001346
convnext_large,1,621,NaN,bottle,dog,180,0621_ps_dnn_180_dog_10_n02105162_9615.png,n02105162_9615.png,0.0,-0.17180954,0.88216794,-0.74527466
convnext_large,1,622,NaN,bottle,bird,150,0622_ps_dnn_150_bird_10_n01582220_1150.png,n01582220_1150.png,0.0,-0.98606443,0.239434,-0.86655825
convnext_large,1,623,NaN,cat,clock,180,0623_ps_dnn_180_clock_10_n04548280_4560.png,n04548280_4560.png,0.0,-0.1171757,0.6373242,-0.533512
convnext_large,1,624,NaN,clock,bottle,150,0624_ps_dnn_150_bottle_10_n04560804_14605.png,n04560804_14605.png,0.0,0.4460964,1.0032454,-0.39396378
convnext_large,1,625,NaN,chair,chair,0,0625_ps_dnn_0_chair_10_n03376595_262.png,n03376595_262.png,1.0,3.9171035,1.1351305,1.9671519
convnext_large,1,626,NaN,knife,dog,180,0626_ps_dnn_180_dog_10_n02091032_6523.png,n02091032_6523.png,0.0,-0.070355006,0.52925575,-0.42398882
convnext_large,1,627,NaN,bottle,cat,150,0627_ps_dnn_150_cat_10_n02123159_615.png,n02123159_615.png,0.0,-0.025448715,0.9850987,-0.7145649
convnext_large,1,628,NaN,cat,bottle,180,0628_ps_dnn_180_bottle_10_n04579145_6049.png,n04579145_6049.png,0.0,0.18381187,0.28260395,-0.06985655
convnext_large,1,629,NaN,keyboard,bottle,90,0629_ps_dnn_90_bottle_10_n02823428_4386.png,n02823428_4386.png,0.0,0.061025824,0.5477559,-0.34417012
convnext_large,1,630,NaN,boat,car,150,0630_ps_dnn_150_car_10_n03100240_4594.png,n03100240_4594.png,0.0,-0.2034622,0.43652573,-0.45253983
convnext_large,1,631,NaN,knife,knife,120,0631_ps_dnn_120_knife_10_n03041632_51581.png,n03041632_51581.png,1.0,4.5904865,1.065939,2.4922316
convnext_large,1,632,NaN,keyboard,keyboard,60,0632_ps_dnn_60_keyboard_10_n03085013_15836.png,n03085013_15836.png,1.0,6.390921,1.0042036,3.8089848
convnext_large,1,633,NaN,dog,bicycle,180,0633_ps_dnn_180_bicycle_10_n03792782_34197.png,n03792782_34197.png,0.0,-0.57632995,0.48306522,-0.7491055
convnext_large,1,634,NaN,knife,bicycle,180,0634_ps_dnn_180_bicycle_10_n02835271_9314.png,n02835271_9314.png,0.0,-0.19934812,0.50382173,-0.49721617
convnext_large,1,635,NaN,cat,oven,150,0635_ps_dnn_150_oven_10_n04111531_5643.png,n04111531_5643.png,0.0,-0.8203319,0.5771725,-0.9881848
convnext_large,1,636,NaN,bottle,cat,180,0636_ps_dnn_180_cat_10_n02123394_6362.png,n02123394_6362.png,0.0,-0.03471702,0.9997217,-0.73145866
convnext_large,1,637,NaN,elephant,elephant,60,0637_ps_dnn_60_elephant_10_n02504458_3614.png,n02504458_3614.png,1.0,6.0187473,0.63965476,3.803593
convnext_large,1,638,NaN,cat,chair,180,0638_ps_dnn_180_chair_10_n04099969_6691.png,n04099969_6691.png,0.0,-0.2841364,0.93398184,-0.8613396
convnext_large,1,639,NaN,bear,dog,60,0639_ps_dnn_60_dog_10_n02104365_1262.png,n02104365_1262.png,0.0,-0.28599283,1.560635,-1.3057631
convnext_large,1,640,NaN,cat,chair,180,0640_ps_dnn_180_chair_10_n02791124_2611.png,n02791124_2611.png,0.0,0.032920413,0.43083844,-0.28137052
convnext_large,1,641,NaN,bird,bird,90,0641_ps_dnn_90_bird_10_n02027492_211.png,n02027492_211.png,1.0,0.72524023,0.15323603,0.40446806
convnext_large,1,642,NaN,knife,keyboard,180,0642_ps_dnn_180_keyboard_10_n03085013_15576.png,n03085013_15576.png,0.0,-0.18213317,1.61321,-1.2694993
convnext_large,1,643,NaN,cat,cat,30,0643_ps_dnn_30_cat_10_n02123045_7255.png,n02123045_7255.png,1.0,3.9702828,0.25323576,2.628349
convnext_large,1,644,NaN,chair,chair,60,0644_ps_dnn_60_chair_10_n04099969_16382.png,n04099969_16382.png,1.0,2.65299,0.6639941,1.4064326
convnext_large,1,645,NaN,bear,bear,0,0645_ps_dnn_0_bear_10_n02134418_2324.png,n02134418_2324.png,1.0,3.0744216,0.34587175,1.9293762
convnext_large,1,646,NaN,bottle,dog,150,0646_ps_dnn_150_dog_10_n02096585_271.png,n02096585_271.png,0.0,-0.5127786,0.98090035,-1.0561905
convnext_large,1,647,NaN,cat,oven,150,0647_ps_dnn_150_oven_10_n04111531_4900.png,n04111531_4900.png,0.0,-1.0959295,0.40612277,-1.0621114
convnext_large,1,648,NaN,cat,clock,150,0648_ps_dnn_150_clock_10_n04548280_23221.png,n04548280_23221.png,0.0,0.46372405,1.0468717,-0.41234767
convnext_large,1,649,NaN,bicycle,car,60,0649_ps_dnn_60_car_10_n03100240_7753.png,n03100240_7753.png,0.0,0.79576975,0.86147344,-0.046459526
convnext_large,1,650,NaN,bottle,bear,180,0650_ps_dnn_180_bear_10_n02134084_1503.png,n02134084_1503.png,0.0,-0.4516442,0.80464315,-0.8883293
convnext_large,1,651,NaN,keyboard,keyboard,90,0651_ps_dnn_90_keyboard_10_n04505470_986.png,n04505470_986.png,1.0,5.32272,0.47337103,3.4290075
convnext_large,1,652,NaN,bottle,truck,180,0652_ps_dnn_180_truck_10_n04467665_23758.png,n04467665_23758.png,0.0,-0.8765154,0.72149533,-1.1299642
convnext_large,1,653,NaN,knife,chair,120,0653_ps_dnn_120_chair_10_n03376595_4362.png,n03376595_4362.png,0.0,0.36255962,0.7440252,-0.2697369
convnext_large,1,654,NaN,cat,oven,180,0654_ps_dnn_180_oven_10_n04111531_6958.png,n04111531_6958.png,0.0,-1.0665716,0.54805064,-1.1417104
convnext_large,1,655,NaN,keyboard,keyboard,30,0655_ps_dnn_30_keyboard_10_n03085013_6166.png,n03085013_6166.png,1.0,5.6593146,1.1097548,3.2170246
convnext_large,1,656,NaN,bottle,bicycle,120,0656_ps_dnn_120_bicycle_10_n03792782_20475.png,n03792782_20475.png,0.0,-0.21603516,1.4298903,-1.1638451
convnext_large,1,657,NaN,bottle,cat,180,0657_ps_dnn_180_cat_10_n02123394_2350.png,n02123394_2350.png,0.0,0.4096298,0.5053585,-0.06769043
convnext_large,1,658,NaN,elephant,elephant,0,0658_ps_dnn_0_elephant_10_n02504458_4316.png,n02504458_4316.png,1.0,6.9359455,0.343256,4.6617355
convnext_large,1,659,NaN,clock,clock,30,0659_ps_dnn_30_clock_10_n04548280_4390.png,n04548280_4390.png,1.0,5.1840854,0.13453133,3.5705738
convnext_large,1,660,NaN,car,car,60,0660_ps_dnn_60_car_10_n03100240_17421.png,n03100240_17421.png,1.0,4.9614773,1.0390627,2.773566
convnext_large,1,661,NaN,keyboard,keyboard,60,0661_ps_dnn_60_keyboard_10_n03085013_30073.png,n03085013_30073.png,1.0,4.0629315,2.875371,0.8397321
convnext_large,1,662,NaN,knife,knife,90,0662_ps_dnn_90_knife_10_n03041632_89391.png,n03041632_89391.png,1.0,1.5225574,0.157249,0.9654189
convnext_large,1,663,NaN,bottle,dog,90,0663_ps_dnn_90_dog_10_n02100877_2341.png,n02100877_2341.png,0.0,-0.4598922,0.6607155,-0.79238933
convnext_large,1,664,NaN,cat,boat,180,0664_ps_dnn_180_boat_10_n03344393_7114.png,n03344393_7114.png,0.0,0.3129805,0.38794503,-0.053007923
convnext_large,1,665,NaN,knife,knife,0,0665_ps_dnn_0_knife_10_n03041632_22051.png,n03041632_22051.png,1.0,6.328151,4.606188,1.217612
convnext_large,1,666,NaN,clock,clock,90,0666_ps_dnn_90_clock_10_n02708093_6850.png,n02708093_6850.png,1.0,5.4879913,1.2089537,3.0257366
convnext_large,1,667,NaN,knife,knife,60,0667_ps_dnn_60_knife_10_n03041632_15299.png,n03041632_15299.png,1.0,4.947479,1.7842422,2.236746
convnext_large,1,668,NaN,keyboard,keyboard,60,0668_ps_dnn_60_keyboard_10_n03085013_21490.png,n03085013_21490.png,1.0,6.4401474,0.5873053,4.1385846
convnext_large,1,669,NaN,knife,knife,60,0669_ps_dnn_60_knife_10_n03041632_105081.png,n03041632_105081.png,1.0,8.34529,0.23066638,5.737906
convnext_large,1,670,NaN,elephant,elephant,0,0670_ps_dnn_0_elephant_10_n02504013_20805.png,n02504013_20805.png,1.0,6.1959743,0.2472926,4.206353
convnext_large,1,671,NaN,boat,boat,30,0671_ps_dnn_30_boat_10_n02951358_10151.png,n02951358_10151.png,1.0,3.2446818,0.22683118,2.1339426
convnext_large,1,672,NaN,oven,oven,90,0672_ps_dnn_90_oven_10_n04111531_4944.png,n04111531_4944.png,1.0,4.4456453,1.5160072,2.071567
convnext_large,1,673,NaN,cat,bottle,180,0673_ps_dnn_180_bottle_10_n04591713_644.png,n04591713_644.png,0.0,0.42437014,0.7984085,-0.26448506
convnext_large,1,674,NaN,dog,dog,60,0674_ps_dnn_60_dog_10_n02090721_1105.png,n02090721_1105.png,1.0,0.6635472,0.08582656,0.40851018
convnext_large,1,675,NaN,keyboard,keyboard,60,0675_ps_dnn_60_keyboard_10_n04505470_5880.png,n04505470_5880.png,1.0,5.718031,0.44110563,3.7313495
convnext_large,1,676,NaN,boat,airplane,150,0676_ps_dnn_150_airplane_10_n02690373_3589.png,n02690373_3589.png,0.0,-0.4986362,0.5733861,-0.75803417
convnext_large,1,677,NaN,cat,bird,120,0677_ps_dnn_120_bird_10_n01855672_3952.png,n01855672_3952.png,0.0,0.7999079,1.3929647,-0.4193545
convnext_large,1,678,NaN,truck,truck,60,0678_ps_dnn_60_truck_10_n03796401_8037.png,n03796401_8037.png,1.0,3.3103216,0.53516865,1.9623295
convnext_large,1,679,NaN,clock,clock,0,0679_ps_dnn_0_clock_10_n03196217_5493.png,n03196217_5493.png,1.0,3.7463844,2.085148,1.1746714
convnext_large,1,680,NaN,knife,knife,30,0680_ps_dnn_30_knife_10_n03041632_32208.png,n03041632_32208.png,1.0,7.595315,1.544112,4.2788467
convnext_large,1,681,NaN,bicycle,bicycle,90,0681_ps_dnn_90_bicycle_10_n03792782_5494.png,n03792782_5494.png,1.0,5.6268187,0.54179,3.5956583
convnext_large,1,682,NaN,cat,chair,180,0682_ps_dnn_180_chair_10_n03376595_208.png,n03376595_208.png,0.0,-0.25569576,0.5649049,-0.58025235
convnext_large,1,683,NaN,clock,bicycle,150,0683_ps_dnn_150_bicycle_10_n02835271_3529.png,n02835271_3529.png,0.0,-0.3944797,0.4662532,-0.60863006
convnext_large,1,684,NaN,bottle,clock,180,0684_ps_dnn_180_clock_10_n02708093_2482.png,n02708093_2482.png,0.0,0.39671266,0.8538745,-0.32326224
convnext_large,1,685,NaN,airplane,airplane,60,0685_ps_dnn_60_airplane_10_n02690373_1706.png,n02690373_1706.png,1.0,6.438963,1.2052414,3.7008002
convnext_large,1,686,NaN,cat,knife,180,0686_ps_dnn_180_knife_10_n03041632_2973.png,n03041632_2973.png,0.0,0.09465401,0.5665388,-0.33367294
convnext_large,1,687,NaN,oven,oven,90,0687_ps_dnn_90_oven_10_n04111531_6346.png,n04111531_6346.png,1.0,1.4096696,0.7132518,0.49244177
convnext_large,1,688,NaN,bottle,oven,180,0688_ps_dnn_180_oven_10_n04111531_10336.png,n04111531_10336.png,0.0,-1.3083521,0.5959493,-1.3465445
convnext_large,1,689,NaN,cat,elephant,120,0689_ps_dnn_120_elephant_10_n02504013_25336.png,n02504013_25336.png,0.0,-0.05885732,0.91737574,-0.69030106
convnext_large,1,690,NaN,airplane,oven,120,0690_ps_dnn_120_oven_10_n04111531_4322.png,n04111531_4322.png,0.0,-0.41865885,1.5529001,-1.3941027
convnext_large,1,691,NaN,truck,truck,0,0691_ps_dnn_0_truck_10_n03417042_3482.png,n03417042_3482.png,1.0,1.3580827,0.25904387,0.7771378
convnext_large,1,692,NaN,clock,bear,180,0692_ps_dnn_180_bear_10_n02132136_5146.png,n02132136_5146.png,0.0,-0.74797314,1.1773754,-1.3614271
convnext_large,1,693,NaN,bicycle,bicycle,90,0693_ps_dnn_90_bicycle_10_n02835271_19853.png,n02835271_19853.png,1.0,5.856056,0.4366458,3.8321018
convnext_large,1,694,NaN,bicycle,bicycle,60,0694_ps_dnn_60_bicycle_10_n03792782_1477.png,n03792782_1477.png,1.0,6.2688303,0.57083297,4.0290923
convnext_large,1,695,NaN,knife,knife,90,0695_ps_dnn_90_knife_10_n03041632_52371.png,n03041632_52371.png,1.0,8.021323,0.4211709,5.3741193
convnext_large,1,696,NaN,clock,bird,150,0696_ps_dnn_150_bird_10_n02007558_7783.png,n02007558_7783.png,0.0,-0.6250188,0.920921,-1.0931445
convnext_large,1,697,NaN,boat,boat,90,0697_ps_dnn_90_boat_10_n02951358_30773.png,n02951358_30773.png,1.0,2.4602609,2.1211534,0.23978522
convnext_large,1,698,NaN,bottle,keyboard,180,0698_ps_dnn_180_keyboard_10_n03085013_4298.png,n03085013_4298.png,0.0,0.17005017,0.5345449,-0.25773668
convnext_large,1,699,NaN,cat,airplane,150,0699_ps_dnn_150_airplane_10_n02690373_13021.png,n02690373_13021.png,0.0,-0.61618733,0.6216178,-0.8752604
convnext_large,1,700,NaN,bicycle,chair,90,0700_ps_dnn_90_chair_10_n03376595_8490.png,n03376595_8490.png,0.0,0.3851392,2.5956337,-1.5630556
convnext_large,1,701,NaN,chair,chair,60,0701_ps_dnn_60_chair_10_n02791124_5898.png,n02791124_5898.png,1.0,2.8123603,1.4831455,0.9398968
convnext_large,1,702,NaN,clock,clock,90,0702_ps_dnn_90_clock_10_n02708093_181.png,n02708093_181.png,1.0,1.9006729,0.45363063,1.0232134
convnext_large,1,703,NaN,airplane,airplane,30,0703_ps_dnn_30_airplane_10_n02690373_190.png,n02690373_190.png,1.0,8.583338,0.29889026,5.8579893
convnext_large,1,704,NaN,clock,oven,180,0704_ps_dnn_180_oven_10_n04111531_6756.png,n04111531_6756.png,0.0,-1.8925486,0.94938976,-2.009554
convnext_large,1,705,NaN,car,car,120,0705_ps_dnn_120_car_10_n03100240_23906.png,n03100240_23906.png,1.0,5.4756355,0.31153944,3.6515672
convnext_large,1,706,NaN,truck,truck,0,0706_ps_dnn_0_truck_10_n03417042_16038.png,n03417042_16038.png,1.0,2.136747,0.38950688,1.2354853
convnext_large,1,707,NaN,elephant,elephant,30,0707_ps_dnn_30_elephant_10_n02504458_6602.png,n02504458_6602.png,1.0,7.1622405,0.23056802,4.901433
convnext_large,1,708,NaN,truck,truck,0,0708_ps_dnn_0_truck_10_n04467665_18234.png,n04467665_18234.png,1.0,3.6825972,1.1662166,1.7793498
convnext_large,1,709,NaN,cat,bottle,180,0709_ps_dnn_180_bottle_10_n03937543_4259.png,n03937543_4259.png,0.0,0.37884268,0.6306975,-0.17808825
convnext_large,1,710,NaN,car,car,120,0710_ps_dnn_120_car_10_n03100240_17523.png,n03100240_17523.png,1.0,0.63174236,0.5341319,0.06902103
convnext_large,1,711,NaN,clock,clock,0,0711_ps_dnn_0_clock_10_n02708093_1513.png,n02708093_1513.png,1.0,6.286695,0.71848,3.9373226
convnext_large,1,712,NaN,bicycle,keyboard,180,0712_ps_dnn_180_keyboard_10_n03085013_4553.png,n03085013_4553.png,0.0,0.32674164,0.59396785,-0.18895747
convnext_large,1,713,NaN,bottle,oven,180,0713_ps_dnn_180_oven_10_n04111531_8330.png,n04111531_8330.png,0.0,-1.9027897,0.8962759,-1.9792383
convnext_large,1,714,NaN,bird,bird,90,0714_ps_dnn_90_bird_10_n01530575_35115.png,n01530575_35115.png,1.0,0.36581513,0.33993554,0.018299635
convnext_large,1,715,NaN,knife,elephant,150,0715_ps_dnn_150_elephant_10_n02504458_1600.png,n02504458_1600.png,0.0,-1.0679383,0.703135,-1.2523379
