subj,session,trial,rt,object_response,category,condition,imagename,filename,is_correct,targ_act,max_nontarg_act,decision_margin
alexnet,1,1,NaN,truck,truck,30,0001_ps_dnn_30_truck_10_n03417042_14861.png,n03417042_14861.png,1.0,12.489399,7.8462005,3.2832372
alexnet,1,2,NaN,keyboard,keyboard,0,0002_ps_dnn_0_keyboard_10_n03085013_25476.png,n03085013_25476.png,1.0,18.328,4.361634,9.875712
alexnet,1,3,NaN,elephant,elephant,0,0003_ps_dnn_0_elephant_10_n02504013_3087.png,n02504013_3087.png,1.0,13.415749,5.481256,5.6105337
alexnet,1,4,NaN,cat,cat,30,0004_ps_dnn_30_cat_10_n02123394_4633.png,n02123394_4633.png,1.0,7.2495117,6.3144007,0.66122335
alexnet,1,5,NaN,knife,knife,120,0005_ps_dnn_120_knife_10_n03041632_48151.png,n03041632_48151.png,1.0,3.1361513,2.842901,0.2073593
alexnet,1,6,NaN,bicycle,bicycle,60,0006_ps_dnn_60_bicycle_10_n02835271_1075.png,n02835271_1075.png,1.0,13.584222,3.1842995,7.3538556
alexnet,1,7,NaN,bear,bear,180,0007_ps_dnn_180_bear_10_n02134084_10289.png,n02134084_10289.png,1.0,1.3800143,0.9036001,0.3368757
alexnet,1,8,NaN,keyboard,keyboard,0,0008_ps_dnn_0_keyboard_10_n03085013_21967.png,n03085013_21967.png,1.0,13.756069,7.0389676,4.749708
alexnet,1,9,NaN,knife,oven,150,0009_ps_dnn_150_oven_10_n04111531_5737.png,n04111531_5737.png,0.0,0.48665947,1.4126662,-0.65478563
alexnet,1,10,NaN,elephant,elephant,60,0010_ps_dnn_60_elephant_10_n02504458_8141.png,n02504458_8141.png,1.0,7.9735622,6.0837417,1.336305
alexnet,1,11,NaN,elephant,elephant,90,0011_ps_dnn_90_elephant_10_n02504458_3153.png,n02504458_3153.png,1.0,9.89778,5.2007637,3.3212924
alexnet,1,12,NaN,bear,bear,60,0012_ps_dnn_60_bear_10_n02134418_5807.png,n02134418_5807.png,1.0,3.135174,2.9537535,0.12828371
alexnet,1,13,NaN,boat,boat,0,0013_ps_dnn_0_boat_10_n04273569_15322.png,n04273569_15322.png,1.0,8.174852,6.8488636,0.9376157
alexnet,1,14,NaN,knife,knife,0,0014_ps_dnn_0_knife_10_n03041632_42526.png,n03041632_42526.png,1.0,5.4404974,5.392758,0.03375693
alexnet,1,15,NaN,bicycle,bicycle,30,0015_ps_dnn_30_bicycle_10_n02835271_5886.png,n02835271_5886.png,1.0,10.60174,3.0266004,5.3564324
alexnet,1,16,NaN,bicycle,dog,180,0016_ps_dnn_180_dog_10_n02110063_869.png,n02110063_869.png,0.0,2.038937,2.2341046,-0.13800429
alexnet,1,17,NaN,bicycle,bicycle,180,0017_ps_dnn_180_bicycle_10_n03792782_3334.png,n03792782_3334.png,1.0,2.3265104,1.4422388,0.6252745
alexnet,1,18,NaN,airplane,airplane,0,0018_ps_dnn_0_airplane_10_n02690373_7355.png,n02690373_7355.png,1.0,17.25716,7.7104797,6.7505226
alexnet,1,19,NaN,elephant,bird,120,0019_ps_dnn_120_bird_10_n01798484_2289.png,n01798484_2289.png,0.0,1.0971595,2.2975523,-0.8488059
alexnet,1,20,NaN,elephant,knife,60,0020_ps_dnn_60_knife_10_n03041632_87380.png,n03041632_87380.png,0.0,0.33690628,3.3557103,-2.1346169
alexnet,1,21,NaN,bottle,bird,0,0021_ps_dnn_0_bird_10_n02027492_15639.png,n02027492_15639.png,0.0,1.7566516,2.0863013,-0.23309754
alexnet,1,22,NaN,airplane,bird,0,0022_ps_dnn_0_bird_10_n02006656_7153.png,n02006656_7153.png,0.0,8.659964,9.242308,-0.41177943
alexnet,1,23,NaN,boat,boat,60,0023_ps_dnn_60_boat_10_n04612504_14699.png,n04612504_14699.png,1.0,5.817072,2.0074823,2.6937866
alexnet,1,24,NaN,bear,bear,60,0024_ps_dnn_60_bear_10_n02134418_5971.png,n02134418_5971.png,1.0,5.101025,4.1542773,0.6694518
alexnet,1,25,NaN,cat,dog,90,0025_ps_dnn_90_dog_10_n02110063_16680.png,n02110063_16680.png,0.0,0.9867045,1.391221,-0.28603637
alexnet,1,26,NaN,truck,car,90,0026_ps_dnn_90_car_10_n03100240_6010.png,n03100240_6010.png,0.0,1.335095,3.9914618,-1.878335
alexnet,1,27,NaN,elephant,elephant,30,0027_ps_dnn_30_elephant_10_n02504458_9835.png,n02504458_9835.png,1.0,4.986613,2.8117712,1.5378453
alexnet,1,28,NaN,airplane,airplane,30,0028_ps_dnn_30_airplane_10_n02690373_10207.png,n02690373_10207.png,1.0,16.430845,7.3075533,6.451142
alexnet,1,29,NaN,elephant,bottle,180,0029_ps_dnn_180_bottle_10_n03983396_5532.png,n03983396_5532.png,0.0,0.032907743,2.6415296,-1.8445742
alexnet,1,30,NaN,dog,dog,30,0030_ps_dnn_30_dog_10_n02090622_1485.png,n02090622_1485.png,1.0,7.049772,4.061222,2.1132238
alexnet,1,31,NaN,bicycle,truck,150,0031_ps_dnn_150_truck_10_n03417042_5503.png,n03417042_5503.png,0.0,0.48405758,2.3447042,-1.3156759
alexnet,1,32,NaN,bicycle,bear,180,0032_ps_dnn_180_bear_10_n02133161_897.png,n02133161_897.png,0.0,1.7124633,2.3104062,-0.4228095
alexnet,1,33,NaN,airplane,keyboard,180,0033_ps_dnn_180_keyboard_10_n04505470_4579.png,n04505470_4579.png,0.0,3.236651,4.2271056,-0.7003572
alexnet,1,34,NaN,elephant,bird,60,0034_ps_dnn_60_bird_10_n01592084_5833.png,n01592084_5833.png,0.0,1.9042016,4.9014378,-2.1193662
alexnet,1,35,NaN,dog,dog,0,0035_ps_dnn_0_dog_10_n02090379_3514.png,n02090379_3514.png,1.0,4.9429617,2.8678133,1.4673514
alexnet,1,36,NaN,knife,airplane,180,0036_ps_dnn_180_airplane_10_n02690373_6144.png,n02690373_6144.png,0.0,-0.33835924,2.4898908,-1.9998747
alexnet,1,37,NaN,airplane,airplane,90,0037_ps_dnn_90_airplane_10_n02690373_1436.png,n02690373_1436.png,1.0,5.1180778,3.694631,1.0065289
alexnet,1,38,NaN,knife,clock,120,0038_ps_dnn_120_clock_10_n04548280_354.png,n04548280_354.png,0.0,3.4857616,4.4615116,-0.6899594
alexnet,1,39,NaN,keyboard,keyboard,0,0039_ps_dnn_0_keyboard_10_n03085013_2189.png,n03085013_2189.png,1.0,7.382633,4.573747,1.9861825
alexnet,1,40,NaN,clock,chair,120,0040_ps_dnn_120_chair_10_n04099969_9005.png,n04099969_9005.png,0.0,0.3551819,2.7053664,-1.6618314
alexnet,1,41,NaN,bicycle,bicycle,180,0041_ps_dnn_180_bicycle_10_n02835271_7350.png,n02835271_7350.png,1.0,2.4545882,1.6353623,0.5792802
alexnet,1,42,NaN,knife,bottle,150,0042_ps_dnn_150_bottle_10_n04557648_8320.png,n04557648_8320.png,0.0,-0.06921099,1.4954872,-1.1064087
alexnet,1,43,NaN,dog,dog,0,0043_ps_dnn_0_dog_10_n02105641_6503.png,n02105641_6503.png,1.0,6.0579724,3.448026,1.8455108
alexnet,1,44,NaN,clock,clock,90,0044_ps_dnn_90_clock_10_n04548280_6022.png,n04548280_6022.png,1.0,4.5325856,2.6494594,1.3315713
alexnet,1,45,NaN,keyboard,clock,60,0045_ps_dnn_60_clock_10_n03196217_7414.png,n03196217_7414.png,0.0,2.0216682,4.270833,-1.5903997
alexnet,1,46,NaN,cat,oven,150,0046_ps_dnn_150_oven_10_n04111531_7965.png,n04111531_7965.png,0.0,-3.0948749,2.5485337,-3.9904926
alexnet,1,47,NaN,bottle,bottle,90,0047_ps_dnn_90_bottle_10_n04579145_4594.png,n04579145_4594.png,1.0,1.8849202,1.7642386,0.08533481
alexnet,1,48,NaN,oven,bottle,30,0048_ps_dnn_30_bottle_10_n03983396_4564.png,n03983396_4564.png,0.0,4.6487994,4.8253393,-0.12483256
alexnet,1,49,NaN,cat,cat,60,0049_ps_dnn_60_cat_10_n02125311_54015.png,n02125311_54015.png,1.0,7.8960457,3.0496864,3.4268935
alexnet,1,50,NaN,bicycle,bicycle,150,0050_ps_dnn_150_bicycle_10_n03792782_5133.png,n03792782_5133.png,1.0,1.7640502,1.4075437,0.25208822
alexnet,1,51,NaN,boat,bird,120,0051_ps_dnn_120_bird_10_n02018207_6296.png,n02018207_6296.png,0.0,1.2359573,4.167762,-2.073099
alexnet,1,52,NaN,elephant,bird,30,0052_ps_dnn_30_bird_10_n01817953_11996.png,n01817953_11996.png,0.0,-2.0882616,6.2247086,-5.8781576
alexnet,1,53,NaN,knife,keyboard,150,0053_ps_dnn_150_keyboard_10_n03085013_3148.png,n03085013_3148.png,0.0,0.15424559,3.8313632,-2.6001148
alexnet,1,54,NaN,bear,bear,60,0054_ps_dnn_60_bear_10_n02134418_5537.png,n02134418_5537.png,1.0,6.153,3.996273,1.5250362
alexnet,1,55,NaN,cat,cat,150,0055_ps_dnn_150_cat_10_n02125311_11409.png,n02125311_11409.png,1.0,1.9823934,1.0771619,0.64009535
alexnet,1,56,NaN,elephant,knife,30,0056_ps_dnn_30_knife_10_n03041632_3063.png,n03041632_3063.png,0.0,0.36107272,3.3768578,-2.132482
alexnet,1,57,NaN,bear,dog,60,0057_ps_dnn_60_dog_10_n02106550_6424.png,n02106550_6424.png,0.0,3.3684514,6.304188,-2.075879
alexnet,1,58,NaN,elephant,bear,30,0058_ps_dnn_30_bear_10_n02133161_7032.png,n02133161_7032.png,0.0,2.1975622,7.304304,-3.611012
alexnet,1,59,NaN,cat,cat,150,0059_ps_dnn_150_cat_10_n02125311_5570.png,n02125311_5570.png,1.0,1.0827332,0.94810486,0.09519658
alexnet,1,60,NaN,knife,bird,30,0060_ps_dnn_30_bird_10_n01843383_13894.png,n01843383_13894.png,0.0,0.12172789,3.9598274,-2.713946
alexnet,1,61,NaN,airplane,bottle,60,0061_ps_dnn_60_bottle_10_n03983396_2205.png,n03983396_2205.png,0.0,1.5732411,5.2167807,-2.5763714
alexnet,1,62,NaN,bicycle,bicycle,60,0062_ps_dnn_60_bicycle_10_n03792782_31010.png,n03792782_31010.png,1.0,10.34384,1.6180668,6.1700535
alexnet,1,63,NaN,bottle,bottle,60,0063_ps_dnn_60_bottle_10_n02823428_880.png,n02823428_880.png,1.0,8.8372135,6.489834,1.6598481
alexnet,1,64,NaN,bicycle,car,180,0064_ps_dnn_180_car_10_n02814533_40459.png,n02814533_40459.png,0.0,-1.048232,2.564822,-2.5548148
alexnet,1,65,NaN,bicycle,cat,120,0065_ps_dnn_120_cat_10_n02123045_567.png,n02123045_567.png,0.0,-1.1295403,2.8043847,-2.7817051
alexnet,1,66,NaN,knife,knife,120,0066_ps_dnn_120_knife_10_n03041632_24541.png,n03041632_24541.png,1.0,2.6997952,2.2525017,0.3162843
alexnet,1,67,NaN,elephant,elephant,30,0067_ps_dnn_30_elephant_10_n02504458_8644.png,n02504458_8644.png,1.0,15.073476,4.230878,7.666875
alexnet,1,68,NaN,keyboard,keyboard,0,0068_ps_dnn_0_keyboard_10_n03085013_2166.png,n03085013_2166.png,1.0,9.069648,4.2995744,3.3729513
alexnet,1,69,NaN,boat,boat,90,0069_ps_dnn_90_boat_10_n04273569_13972.png,n04273569_13972.png,1.0,3.2274613,2.705574,0.36903006
alexnet,1,70,NaN,bicycle,airplane,150,0070_ps_dnn_150_airplane_10_n02690373_9432.png,n02690373_9432.png,0.0,-1.5210094,2.026771,-2.5086596
alexnet,1,71,NaN,knife,truck,90,0071_ps_dnn_90_truck_10_n03417042_5228.png,n03417042_5228.png,0.0,1.7284617,2.5904033,-0.60948473
alexnet,1,72,NaN,airplane,airplane,0,0072_ps_dnn_0_airplane_10_n02690373_4294.png,n02690373_4294.png,1.0,17.687878,6.2417808,8.093613
alexnet,1,73,NaN,knife,chair,30,0073_ps_dnn_30_chair_10_n04099969_52474.png,n04099969_52474.png,0.0,5.109537,7.770935,-1.8818926
alexnet,1,74,NaN,oven,oven,30,0074_ps_dnn_30_oven_10_n04111531_21822.png,n04111531_21822.png,1.0,12.783356,5.4808097,5.16368
alexnet,1,75,NaN,airplane,oven,150,0075_ps_dnn_150_oven_10_n04111531_15735.png,n04111531_15735.png,0.0,0.5740352,3.412291,-2.00695
alexnet,1,76,NaN,boat,dog,120,0076_ps_dnn_120_dog_10_n02104029_7335.png,n02104029_7335.png,0.0,2.3172886,4.514142,-1.5534099
alexnet,1,77,NaN,clock,truck,150,0077_ps_dnn_150_truck_10_n03417042_17911.png,n03417042_17911.png,0.0,-0.23122059,2.3618476,-1.8335761
alexnet,1,78,NaN,clock,clock,30,0078_ps_dnn_30_clock_10_n02708093_899.png,n02708093_899.png,1.0,9.518926,4.443635,3.5887725
alexnet,1,79,NaN,boat,boat,60,0079_ps_dnn_60_boat_10_n03662601_9590.png,n03662601_9590.png,1.0,11.085823,4.252253,4.8320637
alexnet,1,80,NaN,bottle,chair,90,0080_ps_dnn_90_chair_10_n02791124_6550.png,n02791124_6550.png,0.0,0.4223196,3.3022869,-2.0364444
alexnet,1,81,NaN,oven,clock,180,0081_ps_dnn_180_clock_10_n03196217_4492.png,n03196217_4492.png,0.0,1.6667162,2.615261,-0.6707225
alexnet,1,82,NaN,car,car,30,0082_ps_dnn_30_car_10_n04285008_14128.png,n04285008_14128.png,1.0,16.208054,9.670691,4.622614
alexnet,1,83,NaN,bicycle,bicycle,60,0083_ps_dnn_60_bicycle_10_n02835271_4730.png,n02835271_4730.png,1.0,6.2191334,6.119944,0.07013741
alexnet,1,84,NaN,elephant,elephant,0,0084_ps_dnn_0_elephant_10_n02504458_62.png,n02504458_62.png,1.0,16.249077,2.1401925,9.976488
alexnet,1,85,NaN,knife,dog,120,0085_ps_dnn_120_dog_10_n02086646_8144.png,n02086646_8144.png,0.0,0.6125344,1.9851279,-0.9705702
alexnet,1,86,NaN,knife,knife,60,0086_ps_dnn_60_knife_10_n03041632_1671.png,n03041632_1671.png,1.0,7.9619226,3.8412426,2.9137607
alexnet,1,87,NaN,cat,bird,180,0087_ps_dnn_180_bird_10_n01534433_10801.png,n01534433_10801.png,0.0,-0.61675185,3.8308432,-3.1449246
alexnet,1,88,NaN,clock,keyboard,150,0088_ps_dnn_150_keyboard_10_n03085013_20570.png,n03085013_20570.png,0.0,-2.8592823,4.326465,-5.0810905
alexnet,1,89,NaN,cat,knife,150,0089_ps_dnn_150_knife_10_n03041632_4808.png,n03041632_4808.png,0.0,0.70698434,1.3057467,-0.42338893
alexnet,1,90,NaN,bear,keyboard,180,0090_ps_dnn_180_keyboard_10_n03085013_1808.png,n03085013_1808.png,0.0,-2.3328629,1.6423137,-2.8108745
alexnet,1,91,NaN,bear,truck,120,0091_ps_dnn_120_truck_10_n03796401_4370.png,n03796401_4370.png,0.0,0.33247313,2.8693764,-1.7938616
alexnet,1,92,NaN,airplane,airplane,60,0092_ps_dnn_60_airplane_10_n02690373_6314.png,n02690373_6314.png,1.0,8.43579,5.2631617,2.243387
alexnet,1,93,NaN,cat,oven,90,0093_ps_dnn_90_oven_10_n04111531_4879.png,n04111531_4879.png,0.0,-0.82439953,4.254555,-3.5913634
alexnet,1,94,NaN,knife,airplane,180,0094_ps_dnn_180_airplane_10_n02690373_4375.png,n02690373_4375.png,0.0,0.92652035,3.3253722,-1.6962445
alexnet,1,95,NaN,clock,bottle,60,0095_ps_dnn_60_bottle_10_n04557648_4133.png,n04557648_4133.png,0.0,4.976783,6.743489,-1.2492498
alexnet,1,96,NaN,bicycle,bicycle,120,0096_ps_dnn_120_bicycle_10_n02835271_19213.png,n02835271_19213.png,1.0,2.2229054,1.049144,0.82997465
alexnet,1,97,NaN,bicycle,bear,150,0097_ps_dnn_150_bear_10_n02132136_10577.png,n02132136_10577.png,0.0,0.10328585,1.4269631,-0.9359812
alexnet,1,98,NaN,airplane,airplane,90,0098_ps_dnn_90_airplane_10_n02690373_3147.png,n02690373_3147.png,1.0,2.9804847,2.845904,0.09516287
alexnet,1,99,NaN,elephant,elephant,60,0099_ps_dnn_60_elephant_10_n02504013_10389.png,n02504013_10389.png,1.0,7.539529,5.093177,1.7298322
alexnet,1,100,NaN,knife,chair,150,0100_ps_dnn_150_chair_10_n02791124_5685.png,n02791124_5685.png,0.0,0.13523775,3.5113707,-2.3872867
alexnet,1,101,NaN,elephant,bird,60,0101_ps_dnn_60_bird_10_n01817953_6333.png,n01817953_6333.png,0.0,-0.88216525,4.388238,-3.726738
alexnet,1,102,NaN,knife,keyboard,90,0102_ps_dnn_90_keyboard_10_n03085013_20247.png,n03085013_20247.png,0.0,3.5538917,5.8109455,-1.5959781
alexnet,1,103,NaN,airplane,airplane,0,0103_ps_dnn_0_airplane_10_n02690373_5729.png,n02690373_5729.png,1.0,22.691366,4.252479,13.038262
alexnet,1,104,NaN,bicycle,bicycle,90,0104_ps_dnn_90_bicycle_10_n03792782_55532.png,n03792782_55532.png,1.0,5.5863924,2.2566907,2.3544548
alexnet,1,105,NaN,bicycle,bicycle,0,0105_ps_dnn_0_bicycle_10_n02835271_8417.png,n02835271_8417.png,1.0,15.084212,2.7663853,8.710019
alexnet,1,106,NaN,clock,clock,60,0106_ps_dnn_60_clock_10_n03196217_599.png,n03196217_599.png,1.0,7.513392,2.8590012,3.2911513
alexnet,1,107,NaN,airplane,airplane,0,0107_ps_dnn_0_airplane_10_n02690373_1952.png,n02690373_1952.png,1.0,15.820171,7.223031,6.0790963
alexnet,1,108,NaN,bicycle,bear,180,0108_ps_dnn_180_bear_10_n02134084_23061.png,n02134084_23061.png,0.0,1.7432668,2.2154262,-0.3338671
alexnet,1,109,NaN,knife,bicycle,150,0109_ps_dnn_150_bicycle_10_n03792782_27445.png,n03792782_27445.png,0.0,1.2693505,1.766977,-0.35187504
alexnet,1,110,NaN,bottle,clock,30,0110_ps_dnn_30_clock_10_n03196217_6348.png,n03196217_6348.png,0.0,2.9023378,3.5973065,-0.49141708
alexnet,1,111,NaN,elephant,bear,90,0111_ps_dnn_90_bear_10_n02132136_5778.png,n02132136_5778.png,0.0,2.773666,5.129573,-1.6658778
alexnet,1,112,NaN,knife,boat,90,0112_ps_dnn_90_boat_10_n04273569_4772.png,n04273569_4772.png,0.0,3.0050793,3.4615498,-0.3227734
alexnet,1,113,NaN,knife,oven,180,0113_ps_dnn_180_oven_10_n04111531_23830.png,n04111531_23830.png,0.0,-1.8688222,4.229572,-4.312216
alexnet,1,114,NaN,cat,bird,150,0114_ps_dnn_150_bird_10_n01855032_1306.png,n01855032_1306.png,0.0,-2.1287138,2.2537155,-3.0988455
alexnet,1,115,NaN,elephant,elephant,60,0115_ps_dnn_60_elephant_10_n02504013_8905.png,n02504013_8905.png,1.0,11.049459,3.6576304,5.2268124
alexnet,1,116,NaN,clock,truck,60,0116_ps_dnn_60_truck_10_n04467665_30461.png,n04467665_30461.png,0.0,3.5163808,4.7314215,-0.8591635
alexnet,1,117,NaN,knife,knife,60,0117_ps_dnn_60_knife_10_n03041632_20662.png,n03041632_20662.png,1.0,4.1405306,2.0163803,1.502001
alexnet,1,118,NaN,knife,boat,180,0118_ps_dnn_180_boat_10_n03662601_15915.png,n03662601_15915.png,0.0,-1.0828598,5.166285,-4.4188128
alexnet,1,119,NaN,boat,boat,150,0119_ps_dnn_150_boat_10_n04273569_62.png,n04273569_62.png,1.0,2.5360007,1.6031765,0.65960634
alexnet,1,120,NaN,bicycle,bicycle,180,0120_ps_dnn_180_bicycle_10_n03792782_8080.png,n03792782_8080.png,1.0,1.9727529,1.3171315,0.46359435
alexnet,1,121,NaN,bear,airplane,120,0121_ps_dnn_120_airplane_10_n02690373_10309.png,n02690373_10309.png,0.0,-0.1518915,1.5544765,-1.2065843
alexnet,1,122,NaN,dog,dog,30,0122_ps_dnn_30_dog_10_n02093859_1001.png,n02093859_1001.png,1.0,4.0035777,1.2899371,1.9188337
alexnet,1,123,NaN,oven,oven,0,0123_ps_dnn_0_oven_10_n04111531_15267.png,n04111531_15267.png,1.0,10.273804,5.335889,3.4916332
alexnet,1,124,NaN,cat,cat,90,0124_ps_dnn_90_cat_10_n02124075_81.png,n02124075_81.png,1.0,5.009159,2.073196,2.0760396
alexnet,1,125,NaN,elephant,elephant,60,0125_ps_dnn_60_elephant_10_n02504013_7314.png,n02504013_7314.png,1.0,8.952672,3.2514296,4.0313873
alexnet,1,126,NaN,clock,bottle,120,0126_ps_dnn_120_bottle_10_n03983396_3294.png,n03983396_3294.png,0.0,0.9836167,3.628083,-1.8699201
alexnet,1,127,NaN,cat,cat,60,0127_ps_dnn_60_cat_10_n02123159_3201.png,n02123159_3201.png,1.0,8.933164,1.6112231,5.177394
alexnet,1,128,NaN,dog,dog,90,0128_ps_dnn_90_dog_10_n02101388_11601.png,n02101388_11601.png,1.0,4.2557607,3.0034494,0.8855178
alexnet,1,129,NaN,cat,cat,30,0129_ps_dnn_30_cat_10_n02123597_4442.png,n02123597_4442.png,1.0,7.394217,3.2722182,2.9146934
alexnet,1,130,NaN,airplane,airplane,30,0130_ps_dnn_30_airplane_10_n02690373_1950.png,n02690373_1950.png,1.0,21.416893,8.161856,9.372727
alexnet,1,131,NaN,cat,bird,120,0131_ps_dnn_120_bird_10_n01616318_4652.png,n01616318_4652.png,0.0,-1.6797512,5.55269,-5.114108
alexnet,1,132,NaN,airplane,airplane,90,0132_ps_dnn_90_airplane_10_n02690373_17937.png,n02690373_17937.png,1.0,6.371086,3.7889228,1.8258653
alexnet,1,133,NaN,airplane,clock,30,0133_ps_dnn_30_clock_10_n02708093_1125.png,n02708093_1125.png,0.0,9.509427,10.996981,-1.0518593
alexnet,1,134,NaN,bicycle,elephant,150,0134_ps_dnn_150_elephant_10_n02504458_6499.png,n02504458_6499.png,0.0,1.3123231,2.4633665,-0.8139106
alexnet,1,135,NaN,clock,clock,30,0135_ps_dnn_30_clock_10_n02708093_51.png,n02708093_51.png,1.0,6.795159,4.844855,1.3790733
alexnet,1,136,NaN,bicycle,bicycle,90,0136_ps_dnn_90_bicycle_10_n02835271_13180.png,n02835271_13180.png,1.0,5.1600513,2.657847,1.7693257
alexnet,1,137,NaN,cat,cat,120,0137_ps_dnn_120_cat_10_n02123597_7297.png,n02123597_7297.png,1.0,3.1175938,2.5512502,0.40046537
alexnet,1,138,NaN,clock,clock,30,0138_ps_dnn_30_clock_10_n04548280_1109.png,n04548280_1109.png,1.0,3.8915527,3.8553953,0.025567122
alexnet,1,139,NaN,clock,clock,60,0139_ps_dnn_60_clock_10_n04548280_1304.png,n04548280_1304.png,1.0,2.7979834,1.3495395,1.0242045
alexnet,1,140,NaN,cat,bird,180,0140_ps_dnn_180_bird_10_n01833805_8179.png,n01833805_8179.png,0.0,-1.2712615,1.766843,-2.1482644
alexnet,1,141,NaN,bottle,bottle,60,0141_ps_dnn_60_bottle_10_n03983396_24525.png,n03983396_24525.png,1.0,8.980734,3.5959084,3.8076468
alexnet,1,142,NaN,bicycle,elephant,120,0142_ps_dnn_120_elephant_10_n02504013_5945.png,n02504013_5945.png,0.0,1.7447333,3.2117226,-1.0373181
alexnet,1,143,NaN,airplane,airplane,120,0143_ps_dnn_120_airplane_10_n02690373_13610.png,n02690373_13610.png,1.0,4.2924867,3.3466158,0.6688317
alexnet,1,144,NaN,knife,knife,90,0144_ps_dnn_90_knife_10_n03041632_21859.png,n03041632_21859.png,1.0,4.3685875,3.3171139,0.74350417
alexnet,1,145,NaN,cat,cat,60,0145_ps_dnn_60_cat_10_n02123045_568.png,n02123045_568.png,1.0,7.103832,4.8038583,1.6263269
alexnet,1,146,NaN,knife,clock,180,0146_ps_dnn_180_clock_10_n02708093_960.png,n02708093_960.png,0.0,0.75351286,1.3454306,-0.41854906
alexnet,1,147,NaN,bicycle,bicycle,120,0147_ps_dnn_120_bicycle_10_n02835271_9669.png,n02835271_9669.png,1.0,2.7678514,2.3460474,0.29826045
alexnet,1,148,NaN,cat,cat,60,0148_ps_dnn_60_cat_10_n02123597_14647.png,n02123597_14647.png,1.0,7.055803,4.0026164,2.1589289
alexnet,1,149,NaN,bicycle,bicycle,0,0149_ps_dnn_0_bicycle_10_n02835271_7794.png,n02835271_7794.png,1.0,12.27691,3.440013,6.24863
alexnet,1,150,NaN,cat,bird,0,0150_ps_dnn_0_bird_10_n02011460_5925.png,n02011460_5925.png,0.0,0.92539597,4.147819,-2.2785974
alexnet,1,151,NaN,bicycle,oven,90,0151_ps_dnn_90_oven_10_n04111531_8852.png,n04111531_8852.png,0.0,0.7886033,3.6978269,-2.0571318
alexnet,1,152,NaN,oven,knife,90,0152_ps_dnn_90_knife_10_n03041632_84086.png,n03041632_84086.png,0.0,1.7593554,4.3476005,-1.8301655
alexnet,1,153,NaN,car,car,60,0153_ps_dnn_60_car_10_n03100240_13602.png,n03100240_13602.png,1.0,12.661724,5.930682,4.7595654
alexnet,1,154,NaN,bicycle,dog,180,0154_ps_dnn_180_dog_10_n02106662_43958.png,n02106662_43958.png,0.0,1.0360911,1.3383744,-0.21374656
alexnet,1,155,NaN,keyboard,chair,30,0155_ps_dnn_30_chair_10_n02791124_1292.png,n02791124_1292.png,0.0,3.603603,3.732705,-0.091289066
alexnet,1,156,NaN,cat,dog,90,0156_ps_dnn_90_dog_10_n02085782_4522.png,n02085782_4522.png,0.0,1.2086914,4.825831,-2.557704
alexnet,1,157,NaN,bear,bear,60,0157_ps_dnn_60_bear_10_n02132136_686.png,n02132136_686.png,1.0,8.241553,5.1162615,2.2099152
alexnet,1,158,NaN,bicycle,bird,120,0158_ps_dnn_120_bird_10_n01796340_12914.png,n01796340_12914.png,0.0,-1.1824642,2.1155882,-2.332075
alexnet,1,159,NaN,bottle,knife,60,0159_ps_dnn_60_knife_10_n03041632_24060.png,n03041632_24060.png,0.0,3.4764109,3.9469006,-0.33268648
alexnet,1,160,NaN,bottle,bottle,180,0160_ps_dnn_180_bottle_10_n03983396_4775.png,n03983396_4775.png,1.0,0.7670469,0.7373928,0.020968648
alexnet,1,161,NaN,cat,keyboard,120,0161_ps_dnn_120_keyboard_10_n04505470_1516.png,n04505470_1516.png,0.0,-2.2189598,1.6731386,-2.7521293
alexnet,1,162,NaN,knife,boat,150,0162_ps_dnn_150_boat_10_n03344393_4944.png,n03344393_4944.png,0.0,0.88857067,3.7824116,-2.0462544
alexnet,1,163,NaN,clock,cat,150,0163_ps_dnn_150_cat_10_n02123159_3524.png,n02123159_3524.png,0.0,-0.14309186,2.517184,-1.8810992
alexnet,1,164,NaN,truck,truck,60,0164_ps_dnn_60_truck_10_n04467665_50648.png,n04467665_50648.png,1.0,6.1248627,4.831431,0.9145944
alexnet,1,165,NaN,knife,dog,0,0165_ps_dnn_0_dog_10_n02107574_1277.png,n02107574_1277.png,0.0,1.2868599,3.664608,-1.6813217
alexnet,1,166,NaN,clock,oven,60,0166_ps_dnn_60_oven_10_n04111531_21980.png,n04111531_21980.png,0.0,4.937152,5.703304,-0.5417512
alexnet,1,167,NaN,airplane,boat,120,0167_ps_dnn_120_boat_10_n03344393_11315.png,n03344393_11315.png,0.0,0.86084044,3.2154927,-1.6649907
alexnet,1,168,NaN,oven,knife,90,0168_ps_dnn_90_knife_10_n03041632_32896.png,n03041632_32896.png,0.0,3.807878,4.2443066,-0.3086016
alexnet,1,169,NaN,oven,bottle,30,0169_ps_dnn_30_bottle_10_n03937543_3133.png,n03937543_3133.png,0.0,3.0436027,4.065645,-0.7226932
alexnet,1,170,NaN,airplane,car,180,0170_ps_dnn_180_car_10_n04285008_15213.png,n04285008_15213.png,0.0,-1.3442949,3.8294508,-3.6583908
alexnet,1,171,NaN,oven,elephant,90,0171_ps_dnn_90_elephant_10_n02504013_3081.png,n02504013_3081.png,0.0,1.9341137,3.031291,-0.7758215
alexnet,1,172,NaN,cat,cat,60,0172_ps_dnn_60_cat_10_n02123159_6873.png,n02123159_6873.png,1.0,4.3261094,1.8818141,1.7283779
alexnet,1,173,NaN,bottle,bottle,60,0173_ps_dnn_60_bottle_10_n04579145_4385.png,n04579145_4385.png,1.0,9.91456,2.5775082,5.1880794
alexnet,1,174,NaN,knife,bear,60,0174_ps_dnn_60_bear_10_n02134418_2185.png,n02134418_2185.png,0.0,3.9294052,4.5752993,-0.45671606
alexnet,1,175,NaN,bicycle,chair,150,0175_ps_dnn_150_chair_10_n04429376_16002.png,n04429376_16002.png,0.0,-0.301886,2.268414,-1.8174766
alexnet,1,176,NaN,truck,car,60,0176_ps_dnn_60_car_10_n03100240_8107.png,n03100240_8107.png,0.0,3.8574588,5.0141935,-0.817935
alexnet,1,177,NaN,boat,boat,60,0177_ps_dnn_60_boat_10_n04273569_15906.png,n04273569_15906.png,1.0,9.834531,4.4193635,3.8291016
alexnet,1,178,NaN,bicycle,car,150,0178_ps_dnn_150_car_10_n02814533_85659.png,n02814533_85659.png,0.0,-0.69110185,2.7878299,-2.4599762
alexnet,1,179,NaN,cat,car,150,0179_ps_dnn_150_car_10_n02814533_87140.png,n02814533_87140.png,0.0,-2.1414251,3.1345196,-3.7306564
alexnet,1,180,NaN,keyboard,keyboard,30,0180_ps_dnn_30_keyboard_10_n03085013_7520.png,n03085013_7520.png,1.0,16.61724,5.207584,8.067845
alexnet,1,181,NaN,bear,dog,90,0181_ps_dnn_90_dog_10_n02112018_10082.png,n02112018_10082.png,0.0,4.0847883,6.49646,-1.7053094
alexnet,1,182,NaN,bear,bear,90,0182_ps_dnn_90_bear_10_n02134084_5733.png,n02134084_5733.png,1.0,2.5061302,2.2221496,0.20080462
alexnet,1,183,NaN,oven,cat,90,0183_ps_dnn_90_cat_10_n02123597_3821.png,n02123597_3821.png,0.0,2.056452,3.434133,-0.9741676
alexnet,1,184,NaN,cat,boat,120,0184_ps_dnn_120_boat_10_n04612504_15256.png,n04612504_15256.png,0.0,-0.1221571,2.3430812,-1.7431868
alexnet,1,185,NaN,clock,car,90,0185_ps_dnn_90_car_10_n02814533_84296.png,n02814533_84296.png,0.0,0.9787862,1.913959,-0.6612671
alexnet,1,186,NaN,bear,clock,120,0186_ps_dnn_120_clock_10_n04548280_5295.png,n04548280_5295.png,0.0,2.0129244,2.3621857,-0.24696502
alexnet,1,187,NaN,airplane,airplane,30,0187_ps_dnn_30_airplane_10_n02690373_11799.png,n02690373_11799.png,1.0,22.765282,4.396683,12.988561
alexnet,1,188,NaN,bicycle,dog,120,0188_ps_dnn_120_dog_10_n02092002_9876.png,n02092002_9876.png,0.0,2.4160783,3.1690898,-0.5324595
alexnet,1,189,NaN,knife,chair,0,0189_ps_dnn_0_chair_10_n02791124_16885.png,n02791124_16885.png,0.0,5.510661,7.5199323,-1.4207693
alexnet,1,190,NaN,airplane,airplane,60,0190_ps_dnn_60_airplane_10_n02690373_9376.png,n02690373_9376.png,1.0,7.1398087,4.7271066,1.706038
alexnet,1,191,NaN,bicycle,oven,180,0191_ps_dnn_180_oven_10_n04111531_6474.png,n04111531_6474.png,0.0,-2.2213147,1.7349616,-2.79751
alexnet,1,192,NaN,elephant,knife,180,0192_ps_dnn_180_knife_10_n03041632_44230.png,n03041632_44230.png,0.0,0.8371866,1.9335337,-0.77523446
alexnet,1,193,NaN,dog,dog,180,0193_ps_dnn_180_dog_10_n02099601_6318.png,n02099601_6318.png,1.0,1.7180799,1.7136747,0.0031149893
alexnet,1,194,NaN,cat,cat,150,0194_ps_dnn_150_cat_10_n02125311_20241.png,n02125311_20241.png,1.0,2.1705604,1.6005093,0.403087
alexnet,1,195,NaN,cat,truck,120,0195_ps_dnn_120_truck_10_n04467665_51397.png,n04467665_51397.png,0.0,-0.4487528,3.275917,-2.6337395
alexnet,1,196,NaN,cat,dog,0,0196_ps_dnn_0_dog_10_n02104365_1500.png,n02104365_1500.png,0.0,7.4021807,7.5026317,-0.07102958
alexnet,1,197,NaN,knife,knife,90,0197_ps_dnn_90_knife_10_n03041632_3171.png,n03041632_3171.png,1.0,7.320775,2.4235253,3.4628785
alexnet,1,198,NaN,oven,oven,60,0198_ps_dnn_60_oven_10_n04111531_249.png,n04111531_249.png,1.0,7.4590454,5.4511642,1.4197865
alexnet,1,199,NaN,dog,bear,90,0199_ps_dnn_90_bear_10_n02133161_8856.png,n02133161_8856.png,0.0,0.87834704,1.689763,-0.5737577
alexnet,1,200,NaN,cat,cat,0,0200_ps_dnn_0_cat_10_n02123045_13354.png,n02123045_13354.png,1.0,14.172269,4.8915467,6.5624614
alexnet,1,201,NaN,knife,keyboard,120,0201_ps_dnn_120_keyboard_10_n03085013_23267.png,n03085013_23267.png,0.0,-0.25264937,3.0486398,-2.334364
alexnet,1,202,NaN,truck,truck,30,0202_ps_dnn_30_truck_10_n03796401_22643.png,n03796401_22643.png,1.0,7.2739267,5.164826,1.4913595
alexnet,1,203,NaN,clock,elephant,180,0203_ps_dnn_180_elephant_10_n02504458_4572.png,n02504458_4572.png,0.0,0.2565093,1.6366247,-0.97588897
alexnet,1,204,NaN,clock,truck,180,0204_ps_dnn_180_truck_10_n04467665_23173.png,n04467665_23173.png,0.0,0.609604,2.4287364,-1.2863209
alexnet,1,205,NaN,bicycle,bear,180,0205_ps_dnn_180_bear_10_n02134418_25040.png,n02134418_25040.png,0.0,0.76866055,1.1262236,-0.25283524
alexnet,1,206,NaN,bicycle,bicycle,60,0206_ps_dnn_60_bicycle_10_n02835271_21185.png,n02835271_21185.png,1.0,8.35173,4.6121116,2.6443098
alexnet,1,207,NaN,chair,boat,30,0207_ps_dnn_30_boat_10_n02951358_12664.png,n02951358_12664.png,0.0,-1.3115337,4.54757,-4.1430125
alexnet,1,208,NaN,bottle,bottle,30,0208_ps_dnn_30_bottle_10_n03983396_11519.png,n03983396_11519.png,1.0,11.8908415,3.668125,5.8143387
alexnet,1,209,NaN,bicycle,knife,120,0209_ps_dnn_120_knife_10_n03041632_36280.png,n03041632_36280.png,0.0,0.49030787,1.9346886,-1.0213314
alexnet,1,210,NaN,clock,truck,60,0210_ps_dnn_60_truck_10_n04467665_67115.png,n04467665_67115.png,0.0,4.072654,4.2815647,-0.14772235
alexnet,1,211,NaN,bear,bear,30,0211_ps_dnn_30_bear_10_n02133161_1560.png,n02133161_1560.png,1.0,5.8891816,4.8105955,0.7626756
alexnet,1,212,NaN,knife,truck,180,0212_ps_dnn_180_truck_10_n03417042_6780.png,n03417042_6780.png,0.0,-1.0367138,3.4169,-3.1491807
alexnet,1,213,NaN,boat,bear,150,0213_ps_dnn_150_bear_10_n02134084_20261.png,n02134084_20261.png,0.0,0.2700355,1.5500014,-0.90507257
alexnet,1,214,NaN,cat,chair,180,0214_ps_dnn_180_chair_10_n03376595_8377.png,n03376595_8377.png,0.0,-0.92104465,1.6239218,-1.799563
alexnet,1,215,NaN,bicycle,bird,180,0215_ps_dnn_180_bird_10_n01824575_3556.png,n01824575_3556.png,0.0,-0.9360679,3.0965862,-2.8515172
alexnet,1,216,NaN,clock,chair,90,0216_ps_dnn_90_chair_10_n04099969_36004.png,n04099969_36004.png,0.0,1.0729043,4.138149,-2.1674552
alexnet,1,217,NaN,bicycle,bicycle,0,0217_ps_dnn_0_bicycle_10_n02835271_22549.png,n02835271_22549.png,1.0,12.002424,5.4279423,4.648861
alexnet,1,218,NaN,knife,clock,150,0218_ps_dnn_150_clock_10_n04548280_8535.png,n04548280_8535.png,0.0,2.2071722,2.6027515,-0.27971685
alexnet,1,219,NaN,knife,knife,120,0219_ps_dnn_120_knife_10_n03041632_14546.png,n03041632_14546.png,1.0,4.2615385,2.849988,0.99811697
alexnet,1,220,NaN,keyboard,keyboard,0,0220_ps_dnn_0_keyboard_10_n04505470_4974.png,n04505470_4974.png,1.0,11.972563,5.477965,4.5923743
alexnet,1,221,NaN,clock,clock,0,0221_ps_dnn_0_clock_10_n04548280_487.png,n04548280_487.png,1.0,14.509719,8.834812,4.012765
alexnet,1,222,NaN,truck,truck,30,0222_ps_dnn_30_truck_10_n03417042_10401.png,n03417042_10401.png,1.0,13.813889,8.7530155,3.5785778
alexnet,1,223,NaN,knife,clock,180,0223_ps_dnn_180_clock_10_n03196217_6257.png,n03196217_6257.png,0.0,0.9426277,1.7754104,-0.5888663
alexnet,1,224,NaN,bicycle,elephant,120,0224_ps_dnn_120_elephant_10_n02504458_1698.png,n02504458_1698.png,0.0,0.55239356,2.3540738,-1.2739803
alexnet,1,225,NaN,clock,keyboard,180,0225_ps_dnn_180_keyboard_10_n03085013_23014.png,n03085013_23014.png,0.0,-0.43160427,1.6845063,-1.4963162
alexnet,1,226,NaN,elephant,cat,60,0226_ps_dnn_60_cat_10_n02125311_17002.png,n02125311_17002.png,0.0,3.7323549,7.0081024,-2.3163033
alexnet,1,227,NaN,bicycle,boat,180,0227_ps_dnn_180_boat_10_n03344393_5566.png,n03344393_5566.png,0.0,0.9867258,2.0713067,-0.76691455
alexnet,1,228,NaN,bicycle,bicycle,150,0228_ps_dnn_150_bicycle_10_n02835271_4887.png,n02835271_4887.png,1.0,2.116942,2.0686603,0.034140296
alexnet,1,229,NaN,clock,keyboard,120,0229_ps_dnn_120_keyboard_10_n04505470_8386.png,n04505470_8386.png,0.0,-0.24181867,4.1643357,-3.1156218
alexnet,1,230,NaN,bear,bear,120,0230_ps_dnn_120_bear_10_n02133161_361.png,n02133161_361.png,1.0,1.6473508,1.0421156,0.42796594
alexnet,1,231,NaN,bottle,bottle,0,0231_ps_dnn_0_bottle_10_n04560804_2165.png,n04560804_2165.png,1.0,4.4049234,3.0120683,0.9848974
alexnet,1,232,NaN,knife,cat,150,0232_ps_dnn_150_cat_10_n02124075_14020.png,n02124075_14020.png,0.0,-0.3227762,2.345895,-1.8870355
alexnet,1,233,NaN,bicycle,clock,150,0233_ps_dnn_150_clock_10_n04548280_3301.png,n04548280_3301.png,0.0,1.100552,1.9279926,-0.5850889
alexnet,1,234,NaN,cat,knife,180,0234_ps_dnn_180_knife_10_n03041632_5820.png,n03041632_5820.png,0.0,-0.013420254,2.9631908,-2.1047819
alexnet,1,235,NaN,bear,oven,120,0235_ps_dnn_120_oven_10_n04111531_2922.png,n04111531_2922.png,0.0,-1.3472707,3.0464137,-3.1068041
alexnet,1,236,NaN,bicycle,bear,120,0236_ps_dnn_120_bear_10_n02134084_7441.png,n02134084_7441.png,0.0,-0.015356265,1.392297,-0.9953612
alexnet,1,237,NaN,knife,airplane,150,0237_ps_dnn_150_airplane_10_n02690373_8252.png,n02690373_8252.png,0.0,0.012531459,2.6215491,-1.8448541
alexnet,1,238,NaN,elephant,bird,150,0238_ps_dnn_150_bird_10_n02018207_69.png,n02018207_69.png,0.0,-0.786492,2.0755806,-2.0237908
alexnet,1,239,NaN,elephant,bird,30,0239_ps_dnn_30_bird_10_n01798484_5355.png,n01798484_5355.png,0.0,3.0439577,6.2879314,-2.2938359
alexnet,1,240,NaN,airplane,keyboard,150,0240_ps_dnn_150_keyboard_10_n03085013_4999.png,n03085013_4999.png,0.0,5.0396576,5.518811,-0.3388128
alexnet,1,241,NaN,bicycle,dog,120,0241_ps_dnn_120_dog_10_n02111500_3041.png,n02111500_3041.png,0.0,-0.038070146,2.1383743,-1.5389787
alexnet,1,242,NaN,boat,boat,0,0242_ps_dnn_0_boat_10_n04612504_15237.png,n04612504_15237.png,1.0,10.723597,2.8075962,5.5974574
alexnet,1,243,NaN,bear,truck,150,0243_ps_dnn_150_truck_10_n03417042_6480.png,n03417042_6480.png,0.0,0.45896572,2.0426068,-1.1198033
alexnet,1,244,NaN,bicycle,airplane,180,0244_ps_dnn_180_airplane_10_n02690373_8382.png,n02690373_8382.png,0.0,-2.018999,1.9086102,-2.7772393
alexnet,1,245,NaN,clock,bottle,120,0245_ps_dnn_120_bottle_10_n04591713_2345.png,n04591713_2345.png,0.0,2.0067928,2.938289,-0.65866727
alexnet,1,246,NaN,elephant,elephant,60,0246_ps_dnn_60_elephant_10_n02504458_9516.png,n02504458_9516.png,1.0,7.2069726,3.8330212,2.385744
alexnet,1,247,NaN,clock,elephant,180,0247_ps_dnn_180_elephant_10_n02504013_698.png,n02504013_698.png,0.0,-0.88653314,1.8765054,-1.9537634
alexnet,1,248,NaN,bear,bear,0,0248_ps_dnn_0_bear_10_n02133161_5292.png,n02133161_5292.png,1.0,9.820949,5.6733875,2.9327686
alexnet,1,249,NaN,bottle,boat,90,0249_ps_dnn_90_boat_10_n02951358_14341.png,n02951358_14341.png,0.0,0.30705842,3.3557088,-2.1557214
alexnet,1,250,NaN,elephant,bear,120,0250_ps_dnn_120_bear_10_n02133161_2304.png,n02133161_2304.png,0.0,1.2710352,2.5668144,-0.9162543
alexnet,1,251,NaN,knife,airplane,150,0251_ps_dnn_150_airplane_10_n02690373_1751.png,n02690373_1751.png,0.0,-1.6839296,1.8145758,-2.4738169
alexnet,1,252,NaN,knife,truck,150,0252_ps_dnn_150_truck_10_n04467665_48953.png,n04467665_48953.png,0.0,0.18727079,2.1691256,-1.401383
alexnet,1,253,NaN,oven,oven,0,0253_ps_dnn_0_oven_10_n04111531_10077.png,n04111531_10077.png,1.0,9.993616,4.6643634,3.7683508
alexnet,1,254,NaN,cat,dog,150,0254_ps_dnn_150_dog_10_n02097209_821.png,n02097209_821.png,0.0,0.91720396,1.743574,-0.58433187
alexnet,1,255,NaN,truck,truck,0,0255_ps_dnn_0_truck_10_n04467665_13231.png,n04467665_13231.png,1.0,6.736496,6.1999207,0.37941605
alexnet,1,256,NaN,dog,dog,90,0256_ps_dnn_90_dog_10_n02107908_3447.png,n02107908_3447.png,1.0,1.7690358,1.7452265,0.016835727
alexnet,1,257,NaN,knife,elephant,180,0257_ps_dnn_180_elephant_10_n02504013_5021.png,n02504013_5021.png,0.0,1.2847917,2.8999052,-1.1420578
alexnet,1,258,NaN,clock,knife,90,0258_ps_dnn_90_knife_10_n03041632_12242.png,n03041632_12242.png,0.0,1.0718411,2.7743523,-1.2038572
alexnet,1,259,NaN,knife,keyboard,150,0259_ps_dnn_150_keyboard_10_n03085013_22821.png,n03085013_22821.png,0.0,-0.5927747,3.5160065,-2.905347
alexnet,1,260,NaN,bicycle,cat,150,0260_ps_dnn_150_cat_10_n02124075_2080.png,n02124075_2080.png,0.0,-0.9630291,2.430552,-2.3996243
alexnet,1,261,NaN,elephant,bicycle,180,0261_ps_dnn_180_bicycle_10_n02835271_7296.png,n02835271_7296.png,0.0,2.189967,2.2720861,-0.058067065
alexnet,1,262,NaN,dog,boat,180,0262_ps_dnn_180_boat_10_n04612504_4302.png,n04612504_4302.png,0.0,-0.0075890063,1.63865,-1.1640667
alexnet,1,263,NaN,elephant,clock,150,0263_ps_dnn_150_clock_10_n04548280_4524.png,n04548280_4524.png,0.0,-0.026152134,3.5824013,-2.5516326
alexnet,1,264,NaN,bear,knife,150,0264_ps_dnn_150_knife_10_n03041632_19275.png,n03041632_19275.png,0.0,1.000845,1.5040526,-0.35582158
alexnet,1,265,NaN,bird,bird,30,0265_ps_dnn_30_bird_10_n01796340_2973.png,n01796340_2973.png,1.0,2.8390563,1.7675476,0.75767106
alexnet,1,266,NaN,knife,chair,90,0266_ps_dnn_90_chair_10_n02791124_15407.png,n02791124_15407.png,0.0,2.4368153,6.2916765,-2.7257986
alexnet,1,267,NaN,dog,dog,30,0267_ps_dnn_30_dog_10_n02109525_72594.png,n02109525_72594.png,1.0,6.553593,2.7312927,2.7027745
alexnet,1,268,NaN,bicycle,knife,150,0268_ps_dnn_150_knife_10_n03041632_19614.png,n03041632_19614.png,0.0,0.35959545,1.2747235,-0.6470933
alexnet,1,269,NaN,keyboard,keyboard,30,0269_ps_dnn_30_keyboard_10_n04505470_5111.png,n04505470_5111.png,1.0,13.039228,6.190089,4.843073
alexnet,1,270,NaN,bicycle,bicycle,30,0270_ps_dnn_30_bicycle_10_n03792782_8374.png,n03792782_8374.png,1.0,11.0528755,3.4552407,5.3723392
alexnet,1,271,NaN,cat,boat,120,0271_ps_dnn_120_boat_10_n04612504_2024.png,n04612504_2024.png,0.0,0.7738372,1.6373037,-0.61056304
alexnet,1,272,NaN,bicycle,bicycle,30,0272_ps_dnn_30_bicycle_10_n02835271_9860.png,n02835271_9860.png,1.0,8.086861,4.1277294,2.7995286
alexnet,1,273,NaN,bear,bear,60,0273_ps_dnn_60_bear_10_n02134084_21921.png,n02134084_21921.png,1.0,6.174342,5.6271276,0.3869391
alexnet,1,274,NaN,truck,bear,90,0274_ps_dnn_90_bear_10_n02134418_836.png,n02134418_836.png,0.0,1.1713969,1.6866881,-0.3643659
alexnet,1,275,NaN,clock,chair,60,0275_ps_dnn_60_chair_10_n04429376_6141.png,n04429376_6141.png,0.0,3.55415,3.5627959,-0.006113485
alexnet,1,276,NaN,truck,truck,30,0276_ps_dnn_30_truck_10_n04467665_6523.png,n04467665_6523.png,1.0,7.218251,5.6278043,1.1246158
alexnet,1,277,NaN,bicycle,chair,90,0277_ps_dnn_90_chair_10_n04429376_41755.png,n04429376_41755.png,0.0,1.7151973,3.2187045,-1.0631402
alexnet,1,278,NaN,airplane,bottle,180,0278_ps_dnn_180_bottle_10_n04579145_3302.png,n04579145_3302.png,0.0,-0.47137514,1.9598451,-1.7191324
alexnet,1,279,NaN,cat,cat,0,0279_ps_dnn_0_cat_10_n02123045_12297.png,n02123045_12297.png,1.0,9.354475,5.035382,3.0540602
alexnet,1,280,NaN,clock,clock,60,0280_ps_dnn_60_clock_10_n04548280_5734.png,n04548280_5734.png,1.0,7.5302987,3.8567462,2.597594
alexnet,1,281,NaN,clock,elephant,90,0281_ps_dnn_90_elephant_10_n02504013_3640.png,n02504013_3640.png,0.0,1.8399132,4.1910453,-1.6625013
alexnet,1,282,NaN,knife,car,0,0282_ps_dnn_0_car_10_n03100240_2108.png,n03100240_2108.png,0.0,1.94143,5.32965,-2.3958333
alexnet,1,283,NaN,oven,car,90,0283_ps_dnn_90_car_10_n02814533_8499.png,n02814533_8499.png,0.0,-0.7337447,1.9655615,-1.9086978
alexnet,1,284,NaN,cat,knife,180,0284_ps_dnn_180_knife_10_n03041632_9406.png,n03041632_9406.png,0.0,2.36157,4.0770597,-1.2130345
alexnet,1,285,NaN,clock,clock,120,0285_ps_dnn_120_clock_10_n04548280_3968.png,n04548280_3968.png,1.0,4.334248,2.6793141,1.170215
alexnet,1,286,NaN,boat,boat,120,0286_ps_dnn_120_boat_10_n04273569_20587.png,n04273569_20587.png,1.0,3.2742882,1.5023026,1.252983
alexnet,1,287,NaN,airplane,truck,150,0287_ps_dnn_150_truck_10_n03796401_7261.png,n03796401_7261.png,0.0,0.9105587,3.039153,-1.5051435
alexnet,1,288,NaN,bicycle,boat,90,0288_ps_dnn_90_boat_10_n04273569_18037.png,n04273569_18037.png,0.0,2.097622,3.1649137,-0.7546892
alexnet,1,289,NaN,bicycle,bicycle,180,0289_ps_dnn_180_bicycle_10_n02835271_4789.png,n02835271_4789.png,1.0,2.3384984,2.1466756,0.13563918
alexnet,1,290,NaN,bicycle,chair,90,0290_ps_dnn_90_chair_10_n04099969_18380.png,n04099969_18380.png,0.0,0.9153497,1.9936317,-0.76246053
alexnet,1,291,NaN,bear,dog,120,0291_ps_dnn_120_dog_10_n02100583_13688.png,n02100583_13688.png,0.0,1.7837013,2.6664262,-0.62418073
alexnet,1,292,NaN,dog,boat,180,0292_ps_dnn_180_boat_10_n03662601_8065.png,n03662601_8065.png,0.0,0.9604372,2.1998248,-0.87637943
alexnet,1,293,NaN,boat,boat,0,0293_ps_dnn_0_boat_10_n02951358_15218.png,n02951358_15218.png,1.0,7.899375,5.7357035,1.5299468
alexnet,1,294,NaN,clock,knife,180,0294_ps_dnn_180_knife_10_n03041632_24277.png,n03041632_24277.png,0.0,1.9488332,3.4910767,-1.0905309
alexnet,1,295,NaN,elephant,bird,90,0295_ps_dnn_90_bird_10_n01601694_2723.png,n01601694_2723.png,0.0,-1.7609671,2.781392,-3.2119331
alexnet,1,296,NaN,keyboard,keyboard,120,0296_ps_dnn_120_keyboard_10_n04505470_4724.png,n04505470_4724.png,1.0,4.0012703,2.566655,1.0144262
alexnet,1,297,NaN,clock,bear,150,0297_ps_dnn_150_bear_10_n02134418_1642.png,n02134418_1642.png,0.0,0.7086287,1.3085971,-0.42424172
alexnet,1,298,NaN,truck,truck,60,0298_ps_dnn_60_truck_10_n03417042_13055.png,n03417042_13055.png,1.0,5.1170053,4.848306,0.18999901
alexnet,1,299,NaN,clock,bear,120,0299_ps_dnn_120_bear_10_n02133161_1629.png,n02133161_1629.png,0.0,0.8560387,2.3343132,-1.0452979
alexnet,1,300,NaN,clock,bottle,180,0300_ps_dnn_180_bottle_10_n04579145_1856.png,n04579145_1856.png,0.0,-0.7371036,2.6377141,-2.3863566
alexnet,1,301,NaN,bear,chair,150,0301_ps_dnn_150_chair_10_n04099969_3768.png,n04099969_3768.png,0.0,-0.24777555,2.685884,-2.0744107
alexnet,1,302,NaN,bicycle,bird,120,0302_ps_dnn_120_bird_10_n02009229_5172.png,n02009229_5172.png,0.0,-0.1607068,3.1189308,-2.3190541
alexnet,1,303,NaN,airplane,airplane,90,0303_ps_dnn_90_airplane_10_n02690373_21731.png,n02690373_21731.png,1.0,8.268361,4.088186,2.9558303
alexnet,1,304,NaN,bear,bear,30,0304_ps_dnn_30_bear_10_n02133161_959.png,n02133161_959.png,1.0,4.6598043,3.9004865,0.5369188
alexnet,1,305,NaN,chair,chair,0,0305_ps_dnn_0_chair_10_n04099969_1028.png,n04099969_1028.png,1.0,10.016971,5.3153152,3.3245726
alexnet,1,306,NaN,knife,knife,180,0306_ps_dnn_180_knife_10_n03041632_44212.png,n03041632_44212.png,1.0,2.4982316,2.1372097,0.2552811
alexnet,1,307,NaN,bear,oven,120,0307_ps_dnn_120_oven_10_n04111531_9344.png,n04111531_9344.png,0.0,-1.1654357,2.450294,-2.5567071
alexnet,1,308,NaN,boat,car,180,0308_ps_dnn_180_car_10_n04285008_9080.png,n04285008_9080.png,0.0,-1.4609365,1.294172,-1.948156
alexnet,1,309,NaN,car,car,60,0309_ps_dnn_60_car_10_n03100240_17349.png,n03100240_17349.png,1.0,7.2347336,4.489032,1.9415044
alexnet,1,310,NaN,knife,dog,30,0310_ps_dnn_30_dog_10_n02110958_1335.png,n02110958_1335.png,0.0,2.5114698,4.2297373,-1.2149986
alexnet,1,311,NaN,knife,elephant,150,0311_ps_dnn_150_elephant_10_n02504013_7305.png,n02504013_7305.png,0.0,1.1284206,3.2519054,-1.5015305
alexnet,1,312,NaN,chair,dog,90,0312_ps_dnn_90_dog_10_n02091244_2626.png,n02091244_2626.png,0.0,-0.25848457,6.273902,-4.619095
alexnet,1,313,NaN,cat,bird,150,0313_ps_dnn_150_bird_10_n01828970_22.png,n01828970_22.png,0.0,-1.0769596,1.3730084,-1.732389
alexnet,1,314,NaN,cat,cat,60,0314_ps_dnn_60_cat_10_n02124075_13587.png,n02124075_13587.png,1.0,5.0078235,3.0052223,1.4160528
alexnet,1,315,NaN,elephant,knife,120,0315_ps_dnn_120_knife_10_n03041632_13612.png,n03041632_13612.png,0.0,1.050844,3.4159226,-1.6723632
alexnet,1,316,NaN,bicycle,bicycle,90,0316_ps_dnn_90_bicycle_10_n02835271_2581.png,n02835271_2581.png,1.0,3.4806552,2.4404094,0.7355648
alexnet,1,317,NaN,clock,clock,30,0317_ps_dnn_30_clock_10_n03196217_2536.png,n03196217_2536.png,1.0,8.019864,6.999626,0.7214172
alexnet,1,318,NaN,cat,cat,90,0318_ps_dnn_90_cat_10_n02124075_15001.png,n02124075_15001.png,1.0,3.1039517,1.6354703,1.0383732
alexnet,1,319,NaN,bear,bear,60,0319_ps_dnn_60_bear_10_n02133161_6152.png,n02133161_6152.png,1.0,4.0327854,3.4137697,0.4377102
alexnet,1,320,NaN,chair,chair,30,0320_ps_dnn_30_chair_10_n04099969_8401.png,n04099969_8401.png,1.0,7.2414403,5.509789,1.2244624
alexnet,1,321,NaN,knife,oven,150,0321_ps_dnn_150_oven_10_n04111531_7923.png,n04111531_7923.png,0.0,-2.4648461,3.894225,-4.496542
alexnet,1,322,NaN,cat,cat,120,0322_ps_dnn_120_cat_10_n02123159_5706.png,n02123159_5706.png,1.0,2.7078962,1.6878549,0.7212782
alexnet,1,323,NaN,airplane,airplane,30,0323_ps_dnn_30_airplane_10_n02690373_13324.png,n02690373_13324.png,1.0,21.141539,6.1397424,10.607872
alexnet,1,324,NaN,elephant,airplane,150,0324_ps_dnn_150_airplane_10_n02690373_4452.png,n02690373_4452.png,0.0,-0.4850144,1.82017,-1.6300116
alexnet,1,325,NaN,bear,bird,90,0325_ps_dnn_90_bird_10_n02056570_10881.png,n02056570_10881.png,0.0,-0.09139376,2.5679152,-1.8804154
alexnet,1,326,NaN,airplane,airplane,90,0326_ps_dnn_90_airplane_10_n02690373_19133.png,n02690373_19133.png,1.0,5.457844,3.6860535,1.2528449
alexnet,1,327,NaN,bottle,bottle,0,0327_ps_dnn_0_bottle_10_n03937543_4850.png,n03937543_4850.png,1.0,6.157978,2.2517898,2.7620924
alexnet,1,328,NaN,knife,keyboard,150,0328_ps_dnn_150_keyboard_10_n04505470_2709.png,n04505470_2709.png,0.0,-2.53251,2.1181216,-3.2884934
alexnet,1,329,NaN,knife,keyboard,90,0329_ps_dnn_90_keyboard_10_n03085013_1797.png,n03085013_1797.png,0.0,4.6274786,9.155469,-3.2017727
alexnet,1,330,NaN,oven,oven,30,0330_ps_dnn_30_oven_10_n04111531_3902.png,n04111531_3902.png,1.0,7.248499,4.94899,1.6259985
alexnet,1,331,NaN,boat,car,180,0331_ps_dnn_180_car_10_n03100240_6750.png,n03100240_6750.png,0.0,-0.4050283,1.7502911,-1.524041
alexnet,1,332,NaN,chair,chair,0,0332_ps_dnn_0_chair_10_n03376595_16306.png,n03376595_16306.png,1.0,8.389415,5.6433744,1.9417437
alexnet,1,333,NaN,bicycle,boat,60,0333_ps_dnn_60_boat_10_n02951358_13017.png,n02951358_13017.png,0.0,-0.48339757,3.7766821,-3.0123315
alexnet,1,334,NaN,knife,clock,90,0334_ps_dnn_90_clock_10_n03196217_5827.png,n03196217_5827.png,0.0,0.057737995,3.5370288,-2.46023
alexnet,1,335,NaN,bottle,bottle,0,0335_ps_dnn_0_bottle_10_n02823428_685.png,n02823428_685.png,1.0,5.106572,3.475907,1.1530544
alexnet,1,336,NaN,boat,airplane,120,0336_ps_dnn_120_airplane_10_n02690373_2092.png,n02690373_2092.png,0.0,0.28982043,1.9375849,-1.1651454
alexnet,1,337,NaN,cat,bottle,180,0337_ps_dnn_180_bottle_10_n04557648_3637.png,n04557648_3637.png,0.0,-0.26303408,4.4679604,-3.345318
alexnet,1,338,NaN,elephant,bird,90,0338_ps_dnn_90_bird_10_n01819313_5521.png,n01819313_5521.png,0.0,-0.39320168,3.85854,-3.0064356
alexnet,1,339,NaN,elephant,dog,90,0339_ps_dnn_90_dog_10_n02100583_24297.png,n02100583_24297.png,0.0,2.1070733,7.109924,-3.5375495
alexnet,1,340,NaN,elephant,bird,60,0340_ps_dnn_60_bird_10_n02018207_12233.png,n02018207_12233.png,0.0,0.40786478,7.6431246,-5.1161017
alexnet,1,341,NaN,elephant,bird,180,0341_ps_dnn_180_bird_10_n02013706_3032.png,n02013706_3032.png,0.0,0.44833034,2.3842385,-1.3688937
alexnet,1,342,NaN,oven,oven,60,0342_ps_dnn_60_oven_10_n04111531_9939.png,n04111531_9939.png,1.0,4.6461263,2.7996867,1.30563
alexnet,1,343,NaN,elephant,bird,180,0343_ps_dnn_180_bird_10_n02011460_7629.png,n02011460_7629.png,0.0,-0.53480625,1.9151273,-1.7323647
alexnet,1,344,NaN,elephant,oven,60,0344_ps_dnn_60_oven_10_n04111531_13542.png,n04111531_13542.png,0.0,2.251969,4.8130245,-1.8109397
alexnet,1,345,NaN,elephant,bear,90,0345_ps_dnn_90_bear_10_n02134418_270.png,n02134418_270.png,0.0,3.614323,5.4466,-1.2956156
alexnet,1,346,NaN,bicycle,bicycle,90,0346_ps_dnn_90_bicycle_10_n03792782_12561.png,n03792782_12561.png,1.0,2.7020147,2.042436,0.46639264
alexnet,1,347,NaN,elephant,elephant,120,0347_ps_dnn_120_elephant_10_n02504458_9213.png,n02504458_9213.png,1.0,4.7468367,1.6662592,2.1782973
alexnet,1,348,NaN,oven,chair,90,0348_ps_dnn_90_chair_10_n03376595_4155.png,n03376595_4155.png,0.0,3.2392812,3.5085058,-0.19037057
alexnet,1,349,NaN,clock,truck,120,0349_ps_dnn_120_truck_10_n04467665_69970.png,n04467665_69970.png,0.0,0.38264957,2.0901186,-1.207363
alexnet,1,350,NaN,bicycle,bird,120,0350_ps_dnn_120_bird_10_n02002556_2350.png,n02002556_2350.png,0.0,-0.37706655,1.5514913,-1.3636963
alexnet,1,351,NaN,bear,bear,0,0351_ps_dnn_0_bear_10_n02133161_355.png,n02133161_355.png,1.0,8.692861,4.997348,2.6131222
alexnet,1,352,NaN,airplane,airplane,90,0352_ps_dnn_90_airplane_10_n02690373_3065.png,n02690373_3065.png,1.0,5.1230936,4.312841,0.57293516
alexnet,1,353,NaN,truck,truck,60,0353_ps_dnn_60_truck_10_n03417042_13289.png,n03417042_13289.png,1.0,10.897432,5.248773,3.9942052
alexnet,1,354,NaN,chair,oven,0,0354_ps_dnn_0_oven_10_n04111531_21404.png,n04111531_21404.png,0.0,1.437552,4.341602,-2.0534735
alexnet,1,355,NaN,elephant,bear,90,0355_ps_dnn_90_bear_10_n02132136_8358.png,n02132136_8358.png,0.0,2.5904422,3.173226,-0.41209048
alexnet,1,356,NaN,bicycle,oven,90,0356_ps_dnn_90_oven_10_n04111531_274.png,n04111531_274.png,0.0,1.4181465,2.1576886,-0.5229353
alexnet,1,357,NaN,elephant,chair,120,0357_ps_dnn_120_chair_10_n02791124_2773.png,n02791124_2773.png,0.0,1.07824,2.0545347,-0.6903446
alexnet,1,358,NaN,bicycle,knife,120,0358_ps_dnn_120_knife_10_n03041632_102828.png,n03041632_102828.png,0.0,0.7712049,2.804978,-1.4380946
alexnet,1,359,NaN,bear,boat,150,0359_ps_dnn_150_boat_10_n02951358_30995.png,n02951358_30995.png,0.0,1.6293716,2.7798464,-0.8135085
alexnet,1,360,NaN,clock,bicycle,150,0360_ps_dnn_150_bicycle_10_n03792782_4544.png,n03792782_4544.png,0.0,1.2468497,3.368126,-1.4999689
alexnet,1,361,NaN,elephant,airplane,120,0361_ps_dnn_120_airplane_10_n02690373_8446.png,n02690373_8446.png,0.0,-2.3324413,2.5533268,-3.4547596
alexnet,1,362,NaN,chair,bottle,30,0362_ps_dnn_30_bottle_10_n04557648_900.png,n04557648_900.png,0.0,4.8102355,5.001775,-0.13543873
alexnet,1,363,NaN,bear,airplane,150,0363_ps_dnn_150_airplane_10_n02690373_3407.png,n02690373_3407.png,0.0,1.3971395,2.1829076,-0.5556219
alexnet,1,364,NaN,clock,bottle,120,0364_ps_dnn_120_bottle_10_n03983396_8143.png,n03983396_8143.png,0.0,1.6873845,4.0761504,-1.6891125
alexnet,1,365,NaN,car,car,0,0365_ps_dnn_0_car_10_n03100240_9610.png,n03100240_9610.png,1.0,14.609981,8.715787,4.1678243
alexnet,1,366,NaN,bicycle,cat,120,0366_ps_dnn_120_cat_10_n02123159_1108.png,n02123159_1108.png,0.0,-0.80106896,2.0940676,-2.0471706
alexnet,1,367,NaN,clock,clock,0,0367_ps_dnn_0_clock_10_n04548280_2170.png,n04548280_2170.png,1.0,12.745804,3.6245403,6.4497075
alexnet,1,368,NaN,bicycle,keyboard,120,0368_ps_dnn_120_keyboard_10_n04505470_4385.png,n04505470_4385.png,0.0,-3.2150397,1.4637897,-3.3084319
alexnet,1,369,NaN,boat,airplane,120,0369_ps_dnn_120_airplane_10_n02690373_18383.png,n02690373_18383.png,0.0,1.8838271,2.320908,-0.30906293
alexnet,1,370,NaN,clock,truck,90,0370_ps_dnn_90_truck_10_n03417042_10243.png,n03417042_10243.png,0.0,1.4411342,3.7042935,-1.6002953
alexnet,1,371,NaN,cat,cat,30,0371_ps_dnn_30_cat_10_n02123045_11826.png,n02123045_11826.png,1.0,8.2293625,2.56681,4.0040298
alexnet,1,372,NaN,elephant,bird,0,0372_ps_dnn_0_bird_10_n01817953_2257.png,n01817953_2257.png,0.0,3.997052,7.604317,-2.5507216
alexnet,1,373,NaN,boat,boat,0,0373_ps_dnn_0_boat_10_n04612504_18442.png,n04612504_18442.png,1.0,12.679957,7.6114435,3.5839806
alexnet,1,374,NaN,bear,airplane,180,0374_ps_dnn_180_airplane_10_n02690373_2874.png,n02690373_2874.png,0.0,1.0295953,3.2824547,-1.5930123
alexnet,1,375,NaN,bicycle,bicycle,0,0375_ps_dnn_0_bicycle_10_n02835271_4963.png,n02835271_4963.png,1.0,11.484441,4.3935533,5.0140147
alexnet,1,376,NaN,clock,boat,180,0376_ps_dnn_180_boat_10_n04273569_568.png,n04273569_568.png,0.0,1.127073,2.790615,-1.1763018
alexnet,1,377,NaN,elephant,elephant,90,0377_ps_dnn_90_elephant_10_n02504013_2233.png,n02504013_2233.png,1.0,5.154564,3.3288095,1.2910033
alexnet,1,378,NaN,bottle,bottle,60,0378_ps_dnn_60_bottle_10_n02823428_889.png,n02823428_889.png,1.0,5.411494,3.7779098,1.1551183
alexnet,1,379,NaN,boat,car,90,0379_ps_dnn_90_car_10_n04285008_3096.png,n04285008_3096.png,0.0,1.6654797,5.8585577,-2.964954
alexnet,1,380,NaN,knife,airplane,120,0380_ps_dnn_120_airplane_10_n02690373_13206.png,n02690373_13206.png,0.0,0.43476868,1.6806409,-0.88096476
alexnet,1,381,NaN,clock,keyboard,90,0381_ps_dnn_90_keyboard_10_n03085013_25443.png,n03085013_25443.png,0.0,-1.4920344,5.2948055,-4.799021
alexnet,1,382,NaN,truck,truck,30,0382_ps_dnn_30_truck_10_n04467665_20622.png,n04467665_20622.png,1.0,10.93058,4.284502,4.699487
alexnet,1,383,NaN,bicycle,bicycle,60,0383_ps_dnn_60_bicycle_10_n02835271_24639.png,n02835271_24639.png,1.0,8.175463,2.737337,3.8453355
alexnet,1,384,NaN,knife,knife,30,0384_ps_dnn_30_knife_10_n03041632_25603.png,n03041632_25603.png,1.0,8.632544,3.316285,3.7591624
alexnet,1,385,NaN,boat,boat,60,0385_ps_dnn_60_boat_10_n04273569_4978.png,n04273569_4978.png,1.0,9.062705,5.702305,2.3761618
alexnet,1,386,NaN,car,car,60,0386_ps_dnn_60_car_10_n02814533_46401.png,n02814533_46401.png,1.0,9.197064,6.007415,2.2554228
alexnet,1,387,NaN,elephant,bird,120,0387_ps_dnn_120_bird_10_n01798484_12863.png,n01798484_12863.png,0.0,-0.9870557,3.7325845,-3.3372896
alexnet,1,388,NaN,bear,boat,120,0388_ps_dnn_120_boat_10_n03662601_7885.png,n03662601_7885.png,0.0,2.063584,3.261195,-0.8468388
alexnet,1,389,NaN,clock,chair,0,0389_ps_dnn_0_chair_10_n03376595_3062.png,n03376595_3062.png,0.0,3.8394418,4.036051,-0.13902357
alexnet,1,390,NaN,airplane,airplane,90,0390_ps_dnn_90_airplane_10_n02690373_19118.png,n02690373_19118.png,1.0,11.692692,4.4263897,5.1380515
alexnet,1,391,NaN,bear,cat,180,0391_ps_dnn_180_cat_10_n02123597_3944.png,n02123597_3944.png,0.0,0.61345434,1.2909313,-0.47904858
alexnet,1,392,NaN,cat,keyboard,150,0392_ps_dnn_150_keyboard_10_n04505470_2113.png,n04505470_2113.png,0.0,-0.059626043,3.5532665,-2.5547009
alexnet,1,393,NaN,elephant,bird,30,0393_ps_dnn_30_bird_10_n02056570_4808.png,n02056570_4808.png,0.0,-1.0071275,4.136939,-3.6374047
alexnet,1,394,NaN,bicycle,bear,180,0394_ps_dnn_180_bear_10_n02133161_2316.png,n02133161_2316.png,0.0,1.1624488,1.7260509,-0.39852688
alexnet,1,395,NaN,cat,dog,0,0395_ps_dnn_0_dog_10_n02106662_15515.png,n02106662_15515.png,0.0,3.8732386,3.8734455,-0.00014633386
alexnet,1,396,NaN,airplane,airplane,0,0396_ps_dnn_0_airplane_10_n02690373_3899.png,n02690373_3899.png,1.0,10.338791,6.649484,2.608734
alexnet,1,397,NaN,car,boat,0,0397_ps_dnn_0_boat_10_n04273569_2449.png,n04273569_2449.png,0.0,3.7271798,3.9789321,-0.17801581
alexnet,1,398,NaN,oven,bird,120,0398_ps_dnn_120_bird_10_n02007558_7614.png,n02007558_7614.png,0.0,-1.6803412,3.155698,-3.4195964
alexnet,1,399,NaN,knife,keyboard,90,0399_ps_dnn_90_keyboard_10_n03085013_4914.png,n03085013_4914.png,0.0,2.220634,8.317389,-4.3110566
alexnet,1,400,NaN,bicycle,oven,150,0400_ps_dnn_150_oven_10_n04111531_15296.png,n04111531_15296.png,0.0,-1.2801406,1.3076811,-1.8298663
alexnet,1,401,NaN,oven,chair,60,0401_ps_dnn_60_chair_10_n04099969_246.png,n04099969_246.png,0.0,3.987507,4.79296,-0.56954134
alexnet,1,402,NaN,knife,truck,180,0402_ps_dnn_180_truck_10_n04467665_670.png,n04467665_670.png,0.0,-0.47873163,5.0241256,-3.8911078
alexnet,1,403,NaN,keyboard,keyboard,90,0403_ps_dnn_90_keyboard_10_n03085013_24192.png,n03085013_24192.png,1.0,10.989895,4.330408,4.708968
alexnet,1,404,NaN,bicycle,bicycle,150,0404_ps_dnn_150_bicycle_10_n03792782_378.png,n03792782_378.png,1.0,1.7836642,1.0704288,0.50433356
alexnet,1,405,NaN,bicycle,bird,180,0405_ps_dnn_180_bird_10_n02018207_14738.png,n02018207_14738.png,0.0,-0.9697256,1.7423675,-1.9177395
alexnet,1,406,NaN,bear,bird,0,0406_ps_dnn_0_bird_10_n01530575_5222.png,n01530575_5222.png,0.0,2.1908731,3.3811748,-0.8416704
alexnet,1,407,NaN,elephant,bear,30,0407_ps_dnn_30_bear_10_n02134084_10766.png,n02134084_10766.png,0.0,5.404273,5.66771,-0.18627794
alexnet,1,408,NaN,elephant,bird,30,0408_ps_dnn_30_bird_10_n02007558_4009.png,n02007558_4009.png,0.0,-0.5085765,4.146966,-3.2919657
alexnet,1,409,NaN,bicycle,chair,120,0409_ps_dnn_120_chair_10_n04099969_7545.png,n04099969_7545.png,0.0,-0.5843711,2.2891192,-2.0318646
alexnet,1,410,NaN,clock,clock,90,0410_ps_dnn_90_clock_10_n03196217_127.png,n03196217_127.png,1.0,5.0673227,3.0177991,1.4492321
alexnet,1,411,NaN,cat,bottle,150,0411_ps_dnn_150_bottle_10_n04560804_26326.png,n04560804_26326.png,0.0,-0.7689405,1.4904876,-1.5976568
alexnet,1,412,NaN,keyboard,keyboard,30,0412_ps_dnn_30_keyboard_10_n03085013_25066.png,n03085013_25066.png,1.0,4.2896543,3.890984,0.2819024
alexnet,1,413,NaN,cat,cat,30,0413_ps_dnn_30_cat_10_n02124075_11776.png,n02124075_11776.png,1.0,12.175527,2.5725336,6.7903414
alexnet,1,414,NaN,knife,keyboard,120,0414_ps_dnn_120_keyboard_10_n04505470_2909.png,n04505470_2909.png,0.0,4.17941,5.6041517,-1.0074446
alexnet,1,415,NaN,keyboard,keyboard,30,0415_ps_dnn_30_keyboard_10_n04505470_494.png,n04505470_494.png,1.0,13.372946,5.3095145,5.701707
alexnet,1,416,NaN,bicycle,bear,120,0416_ps_dnn_120_bear_10_n02133161_2270.png,n02133161_2270.png,0.0,1.4469279,2.6368933,-0.8414326
alexnet,1,417,NaN,bear,chair,120,0417_ps_dnn_120_chair_10_n04099969_13901.png,n04099969_13901.png,0.0,-0.48795757,1.931109,-1.7105383
alexnet,1,418,NaN,bicycle,car,120,0418_ps_dnn_120_car_10_n02814533_2923.png,n02814533_2923.png,0.0,0.6284415,3.307191,-1.8941618
alexnet,1,419,NaN,bottle,bottle,90,0419_ps_dnn_90_bottle_10_n03983396_12757.png,n03983396_12757.png,1.0,3.9680667,3.3951364,0.40512294
alexnet,1,420,NaN,knife,knife,30,0420_ps_dnn_30_knife_10_n03041632_15444.png,n03041632_15444.png,1.0,3.6859684,2.3335533,0.95630187
alexnet,1,421,NaN,bear,bicycle,180,0421_ps_dnn_180_bicycle_10_n02835271_5554.png,n02835271_5554.png,0.0,2.0861783,2.6758692,-0.41697446
alexnet,1,422,NaN,elephant,knife,150,0422_ps_dnn_150_knife_10_n03041632_37618.png,n03041632_37618.png,0.0,-0.2001965,2.4984074,-1.9082011
alexnet,1,423,NaN,clock,chair,60,0423_ps_dnn_60_chair_10_n03376595_3910.png,n03376595_3910.png,0.0,5.8078938,12.192352,-4.514494
alexnet,1,424,NaN,dog,dog,30,0424_ps_dnn_30_dog_10_n02086646_7362.png,n02086646_7362.png,1.0,5.308625,3.477391,1.2948781
alexnet,1,425,NaN,cat,dog,60,0425_ps_dnn_60_dog_10_n02113712_5829.png,n02113712_5829.png,0.0,1.5001647,3.7579224,-1.5964758
alexnet,1,426,NaN,bear,truck,180,0426_ps_dnn_180_truck_10_n03417042_1149.png,n03417042_1149.png,0.0,0.4634422,3.0832717,-1.8524994
alexnet,1,427,NaN,bear,bird,60,0427_ps_dnn_60_bird_10_n02002724_3345.png,n02002724_3345.png,0.0,-0.6267898,4.112499,-3.3511837
alexnet,1,428,NaN,cat,bird,150,0428_ps_dnn_150_bird_10_n02002556_2917.png,n02002556_2917.png,0.0,-1.599723,1.6209487,-2.2773588
alexnet,1,429,NaN,bicycle,bottle,180,0429_ps_dnn_180_bottle_10_n04560804_3959.png,n04560804_3959.png,0.0,-1.2044337,2.8119702,-2.8400266
alexnet,1,430,NaN,airplane,airplane,30,0430_ps_dnn_30_airplane_10_n02690373_3639.png,n02690373_3639.png,1.0,20.427652,6.7576284,9.666166
alexnet,1,431,NaN,clock,bottle,120,0431_ps_dnn_120_bottle_10_n02823428_14453.png,n02823428_14453.png,0.0,1.0041476,1.3637215,-0.2542571
alexnet,1,432,NaN,bottle,bottle,0,0432_ps_dnn_0_bottle_10_n03937543_3253.png,n03937543_3253.png,1.0,11.999185,5.139212,4.8507333
alexnet,1,433,NaN,dog,elephant,30,0433_ps_dnn_30_elephant_10_n02504013_7010.png,n02504013_7010.png,0.0,2.8036308,2.85778,-0.038289234
alexnet,1,434,NaN,boat,car,150,0434_ps_dnn_150_car_10_n04285008_8813.png,n04285008_8813.png,0.0,-1.6479381,2.0171995,-2.5916438
alexnet,1,435,NaN,boat,bear,180,0435_ps_dnn_180_bear_10_n02132136_110.png,n02132136_110.png,0.0,0.7071378,1.8499333,-0.8080784
alexnet,1,436,NaN,bear,bear,60,0436_ps_dnn_60_bear_10_n02133161_4294.png,n02133161_4294.png,1.0,5.1314545,3.8478296,0.9076599
alexnet,1,437,NaN,car,car,0,0437_ps_dnn_0_car_10_n02814533_95144.png,n02814533_95144.png,1.0,10.295321,7.109768,2.2525265
alexnet,1,438,NaN,clock,oven,120,0438_ps_dnn_120_oven_10_n04111531_1220.png,n04111531_1220.png,0.0,1.8524963,3.6485252,-1.2699842
alexnet,1,439,NaN,cat,dog,60,0439_ps_dnn_60_dog_10_n02086240_7247.png,n02086240_7247.png,0.0,2.5747612,3.0193398,-0.31436458
alexnet,1,440,NaN,airplane,airplane,0,0440_ps_dnn_0_airplane_10_n02690373_4144.png,n02690373_4144.png,1.0,15.704399,4.915309,7.629039
alexnet,1,441,NaN,knife,oven,120,0441_ps_dnn_120_oven_10_n04111531_986.png,n04111531_986.png,0.0,0.6069248,3.075244,-1.7453653
alexnet,1,442,NaN,elephant,elephant,30,0442_ps_dnn_30_elephant_10_n02504458_6336.png,n02504458_6336.png,1.0,4.3981156,3.2575197,0.80652314
alexnet,1,443,NaN,elephant,knife,150,0443_ps_dnn_150_knife_10_n03041632_14132.png,n03041632_14132.png,0.0,0.9779687,1.5123578,-0.3778702
alexnet,1,444,NaN,bicycle,cat,150,0444_ps_dnn_150_cat_10_n02123159_799.png,n02123159_799.png,0.0,-0.5534933,2.1665967,-1.9233941
alexnet,1,445,NaN,knife,bird,90,0445_ps_dnn_90_bird_10_n02006656_7456.png,n02006656_7456.png,0.0,0.07713045,3.4988174,-2.419498
alexnet,1,446,NaN,knife,cat,90,0446_ps_dnn_90_cat_10_n02123045_8722.png,n02123045_8722.png,0.0,2.501307,3.581822,-0.76403946
alexnet,1,447,NaN,clock,chair,120,0447_ps_dnn_120_chair_10_n03376595_8302.png,n03376595_8302.png,0.0,-0.22818437,1.5632958,-1.2667679
alexnet,1,448,NaN,bottle,bottle,30,0448_ps_dnn_30_bottle_10_n04560804_5769.png,n04560804_5769.png,1.0,6.6551604,5.548611,0.78244853
alexnet,1,449,NaN,clock,car,90,0449_ps_dnn_90_car_10_n04285008_203.png,n04285008_203.png,0.0,1.26723,5.009504,-2.6461873
alexnet,1,450,NaN,knife,airplane,180,0450_ps_dnn_180_airplane_10_n02690373_9959.png,n02690373_9959.png,0.0,0.23331499,3.8716807,-2.5727131
alexnet,1,451,NaN,car,car,0,0451_ps_dnn_0_car_10_n04285008_1867.png,n04285008_1867.png,1.0,19.72892,7.6573305,8.535903
alexnet,1,452,NaN,bicycle,airplane,150,0452_ps_dnn_150_airplane_10_n02690373_16250.png,n02690373_16250.png,0.0,0.5509272,2.0819829,-1.0826199
alexnet,1,453,NaN,elephant,elephant,30,0453_ps_dnn_30_elephant_10_n02504458_4696.png,n02504458_4696.png,1.0,10.412423,7.466587,2.0830207
alexnet,1,454,NaN,bicycle,car,60,0454_ps_dnn_60_car_10_n04285008_10755.png,n04285008_10755.png,0.0,3.6110542,4.8902626,-0.90453696
alexnet,1,455,NaN,bicycle,boat,150,0455_ps_dnn_150_boat_10_n02951358_11586.png,n02951358_11586.png,0.0,0.7264704,2.479425,-1.239526
alexnet,1,456,NaN,bottle,bottle,60,0456_ps_dnn_60_bottle_10_n02823428_4108.png,n02823428_4108.png,1.0,10.753312,4.967013,4.0915313
alexnet,1,457,NaN,cat,car,180,0457_ps_dnn_180_car_10_n04285008_11770.png,n04285008_11770.png,0.0,-2.0144966,2.3830822,-3.1095579
alexnet,1,458,NaN,knife,boat,90,0458_ps_dnn_90_boat_10_n04273569_32786.png,n04273569_32786.png,0.0,3.3894355,3.9244437,-0.37830794
alexnet,1,459,NaN,cat,bear,30,0459_ps_dnn_30_bear_10_n02132136_21267.png,n02132136_21267.png,0.0,6.9171343,8.257406,-0.9477154
alexnet,1,460,NaN,knife,car,90,0460_ps_dnn_90_car_10_n03100240_24001.png,n03100240_24001.png,0.0,1.4591731,3.867616,-1.7030264
alexnet,1,461,NaN,bicycle,bottle,150,0461_ps_dnn_150_bottle_10_n03937543_71.png,n03937543_71.png,0.0,-0.12832542,2.2780337,-1.701553
alexnet,1,462,NaN,chair,chair,0,0462_ps_dnn_0_chair_10_n02791124_16127.png,n02791124_16127.png,1.0,6.18785,5.700692,0.34447262
alexnet,1,463,NaN,elephant,bird,90,0463_ps_dnn_90_bird_10_n02002724_12183.png,n02002724_12183.png,0.0,0.92390263,4.143452,-2.2765656
alexnet,1,464,NaN,elephant,dog,30,0464_ps_dnn_30_dog_10_n02108915_1165.png,n02108915_1165.png,0.0,3.1317174,5.4881673,-1.6662617
alexnet,1,465,NaN,boat,dog,180,0465_ps_dnn_180_dog_10_n02099429_4843.png,n02099429_4843.png,0.0,1.4527736,3.7040393,-1.5918853
alexnet,1,466,NaN,airplane,boat,60,0466_ps_dnn_60_boat_10_n03344393_3499.png,n03344393_3499.png,0.0,6.4688544,7.271893,-0.567834
alexnet,1,467,NaN,truck,truck,120,0467_ps_dnn_120_truck_10_n03417042_20962.png,n03417042_20962.png,1.0,4.8094645,3.8510702,0.6776871
alexnet,1,468,NaN,knife,dog,30,0468_ps_dnn_30_dog_10_n02097047_4189.png,n02097047_4189.png,0.0,1.9434046,3.7360747,-1.2676092
alexnet,1,469,NaN,bicycle,bicycle,60,0469_ps_dnn_60_bicycle_10_n03792782_24591.png,n03792782_24591.png,1.0,13.480928,3.2611134,7.226501
alexnet,1,470,NaN,airplane,airplane,60,0470_ps_dnn_60_airplane_10_n02690373_243.png,n02690373_243.png,1.0,8.766759,3.9692645,3.392341
alexnet,1,471,NaN,airplane,boat,90,0471_ps_dnn_90_boat_10_n03344393_3072.png,n03344393_3072.png,0.0,1.3138411,3.6430726,-1.6470155
alexnet,1,472,NaN,clock,clock,120,0472_ps_dnn_120_clock_10_n02708093_118.png,n02708093_118.png,1.0,4.215094,1.764274,1.7329915
alexnet,1,473,NaN,bird,bird,30,0473_ps_dnn_30_bird_10_n01843065_2664.png,n01843065_2664.png,1.0,2.5301995,1.7827476,0.52852833
alexnet,1,474,NaN,knife,airplane,150,0474_ps_dnn_150_airplane_10_n02690373_19353.png,n02690373_19353.png,0.0,-0.19063476,3.3594189,-2.510267
alexnet,1,475,NaN,bicycle,dog,120,0475_ps_dnn_120_dog_10_n02099849_4250.png,n02099849_4250.png,0.0,0.67548555,1.6878772,-0.71586895
alexnet,1,476,NaN,truck,truck,90,0476_ps_dnn_90_truck_10_n04467665_29260.png,n04467665_29260.png,1.0,5.350395,3.321454,1.4346781
alexnet,1,477,NaN,elephant,elephant,30,0477_ps_dnn_30_elephant_10_n02504013_8308.png,n02504013_8308.png,1.0,13.281054,6.3817406,4.878551
alexnet,1,478,NaN,knife,boat,150,0478_ps_dnn_150_boat_10_n03344393_6854.png,n03344393_6854.png,0.0,1.6256708,1.7215848,-0.06782144
alexnet,1,479,NaN,bear,truck,180,0479_ps_dnn_180_truck_10_n04467665_25129.png,n04467665_25129.png,0.0,-0.40610492,3.3854053,-2.6810026
alexnet,1,480,NaN,bicycle,bird,30,0480_ps_dnn_30_bird_10_n01824575_6272.png,n01824575_6272.png,0.0,0.15908802,3.216333,-2.1617985
alexnet,1,481,NaN,knife,chair,180,0481_ps_dnn_180_chair_10_n04099969_19484.png,n04099969_19484.png,0.0,0.03450735,1.0705329,-0.73258066
alexnet,1,482,NaN,knife,oven,120,0482_ps_dnn_120_oven_10_n04111531_5888.png,n04111531_5888.png,0.0,-0.92261416,2.425702,-2.3676171
alexnet,1,483,NaN,knife,chair,60,0483_ps_dnn_60_chair_10_n04099969_16266.png,n04099969_16266.png,0.0,4.58245,6.953046,-1.6762645
alexnet,1,484,NaN,clock,truck,150,0484_ps_dnn_150_truck_10_n04467665_68754.png,n04467665_68754.png,0.0,-0.2331313,3.7937307,-2.8474216
alexnet,1,485,NaN,knife,cat,180,0485_ps_dnn_180_cat_10_n02123394_7859.png,n02123394_7859.png,0.0,-0.08074216,1.7850943,-1.3193456
alexnet,1,486,NaN,clock,car,90,0486_ps_dnn_90_car_10_n04285008_17056.png,n04285008_17056.png,0.0,-1.3570246,3.265047,-3.2682984
alexnet,1,487,NaN,bicycle,cat,120,0487_ps_dnn_120_cat_10_n02123045_12046.png,n02123045_12046.png,0.0,-0.96329594,3.1838088,-2.932446
alexnet,1,488,NaN,elephant,elephant,180,0488_ps_dnn_180_elephant_10_n02504013_3029.png,n02504013_3029.png,1.0,1.8492689,1.6491818,0.14148292
alexnet,1,489,NaN,boat,boat,120,0489_ps_dnn_120_boat_10_n03662601_7271.png,n03662601_7271.png,1.0,5.306884,1.9515588,2.3725731
alexnet,1,490,NaN,bear,bear,30,0490_ps_dnn_30_bear_10_n02133161_6861.png,n02133161_6861.png,1.0,6.21441,2.7655187,2.4387343
alexnet,1,491,NaN,chair,chair,30,0491_ps_dnn_30_chair_10_n02791124_4192.png,n02791124_4192.png,1.0,8.0541935,4.3543735,2.6161678
alexnet,1,492,NaN,boat,boat,60,0492_ps_dnn_60_boat_10_n04273569_1457.png,n04273569_1457.png,1.0,5.620108,3.8456507,1.2547309
alexnet,1,493,NaN,clock,clock,90,0493_ps_dnn_90_clock_10_n04548280_764.png,n04548280_764.png,1.0,4.001193,2.5542774,1.0231239
alexnet,1,494,NaN,bicycle,bicycle,120,0494_ps_dnn_120_bicycle_10_n02835271_12346.png,n02835271_12346.png,1.0,3.6250656,1.1980368,1.7161684
alexnet,1,495,NaN,bicycle,bicycle,180,0495_ps_dnn_180_bicycle_10_n03792782_50673.png,n03792782_50673.png,1.0,2.1906424,1.0662273,0.7950815
alexnet,1,496,NaN,knife,truck,120,0496_ps_dnn_120_truck_10_n03796401_9198.png,n03796401_9198.png,0.0,0.65482205,2.7849724,-1.5062437
alexnet,1,497,NaN,airplane,airplane,0,0497_ps_dnn_0_airplane_10_n02690373_4110.png,n02690373_4110.png,1.0,15.872574,6.9278464,6.3248773
alexnet,1,498,NaN,dog,dog,60,0498_ps_dnn_60_dog_10_n02107683_2484.png,n02107683_2484.png,1.0,5.472784,5.432287,0.02863558
alexnet,1,499,NaN,oven,chair,60,0499_ps_dnn_60_chair_10_n02791124_13057.png,n02791124_13057.png,0.0,4.7078567,4.7138624,-0.0042467164
alexnet,1,500,NaN,bicycle,bear,120,0500_ps_dnn_120_bear_10_n02134418_14451.png,n02134418_14451.png,0.0,0.5107172,2.0375924,-1.0796639
alexnet,1,501,NaN,bear,bird,60,0501_ps_dnn_60_bird_10_n01843383_10059.png,n01843383_10059.png,0.0,0.64079833,2.419446,-1.2576939
alexnet,1,502,NaN,bicycle,bicycle,0,0502_ps_dnn_0_bicycle_10_n03792782_11824.png,n03792782_11824.png,1.0,12.381365,3.1599116,6.5205517
alexnet,1,503,NaN,bear,bird,30,0503_ps_dnn_30_bird_10_n01532829_2492.png,n01532829_2492.png,0.0,2.2325594,2.7297578,-0.35157233
alexnet,1,504,NaN,bottle,bottle,0,0504_ps_dnn_0_bottle_10_n04579145_5621.png,n04579145_5621.png,1.0,10.7230015,6.388007,3.065304
alexnet,1,505,NaN,airplane,truck,150,0505_ps_dnn_150_truck_10_n03417042_6250.png,n03417042_6250.png,0.0,-0.21987739,3.525383,-2.6482992
alexnet,1,506,NaN,bear,dog,90,0506_ps_dnn_90_dog_10_n02108551_14704.png,n02108551_14704.png,0.0,2.8033495,5.227635,-1.7142286
alexnet,1,507,NaN,boat,boat,30,0507_ps_dnn_30_boat_10_n04612504_8407.png,n04612504_8407.png,1.0,10.724709,4.1355405,4.6592455
alexnet,1,508,NaN,elephant,car,120,0508_ps_dnn_120_car_10_n03100240_14794.png,n03100240_14794.png,0.0,-2.8520947,3.009465,-4.1447487
alexnet,1,509,NaN,oven,dog,60,0509_ps_dnn_60_dog_10_n02097658_759.png,n02097658_759.png,0.0,-0.50150025,3.978485,-3.167828
alexnet,1,510,NaN,oven,oven,90,0510_ps_dnn_90_oven_10_n04111531_5965.png,n04111531_5965.png,1.0,3.327722,1.8427565,1.0500293
alexnet,1,511,NaN,bicycle,elephant,180,0511_ps_dnn_180_elephant_10_n02504013_6984.png,n02504013_6984.png,0.0,1.6376097,2.5693069,-0.65880936
alexnet,1,512,NaN,knife,oven,180,0512_ps_dnn_180_oven_10_n04111531_6695.png,n04111531_6695.png,0.0,-1.2122607,4.0429716,-3.7160106
alexnet,1,513,NaN,bear,bird,60,0513_ps_dnn_60_bird_10_n02037110_4572.png,n02037110_4572.png,0.0,1.0724016,2.7460365,-1.1834385
alexnet,1,514,NaN,oven,truck,30,0514_ps_dnn_30_truck_10_n03796401_11628.png,n03796401_11628.png,0.0,2.9056463,3.9784896,-0.7586148
alexnet,1,515,NaN,bicycle,chair,180,0515_ps_dnn_180_chair_10_n02791124_1258.png,n02791124_1258.png,0.0,1.0046382,3.1725779,-1.5329648
alexnet,1,516,NaN,chair,knife,0,0516_ps_dnn_0_knife_10_n03041632_62810.png,n03041632_62810.png,0.0,3.328403,3.5384169,-0.14850223
alexnet,1,517,NaN,bicycle,bird,90,0517_ps_dnn_90_bird_10_n01819313_2770.png,n01819313_2770.png,0.0,-1.007099,2.622736,-2.5666811
alexnet,1,518,NaN,bicycle,bicycle,60,0518_ps_dnn_60_bicycle_10_n02835271_25519.png,n02835271_25519.png,1.0,8.323249,4.067821,3.009042
alexnet,1,519,NaN,boat,boat,0,0519_ps_dnn_0_boat_10_n03662601_23248.png,n03662601_23248.png,1.0,10.636705,6.0657597,3.2321467
alexnet,1,520,NaN,boat,elephant,120,0520_ps_dnn_120_elephant_10_n02504013_1784.png,n02504013_1784.png,0.0,0.7698557,1.9083881,-0.805064
alexnet,1,521,NaN,dog,cat,150,0521_ps_dnn_150_cat_10_n02123394_270.png,n02123394_270.png,0.0,-0.12966733,1.5240403,-1.1693479
alexnet,1,522,NaN,bear,dog,30,0522_ps_dnn_30_dog_10_n02093647_1022.png,n02093647_1022.png,0.0,7.7138596,7.8620787,-0.104806736
alexnet,1,523,NaN,boat,boat,30,0523_ps_dnn_30_boat_10_n03662601_4881.png,n03662601_4881.png,1.0,7.001293,4.912962,1.4766732
alexnet,1,524,NaN,bear,knife,60,0524_ps_dnn_60_knife_10_n03041632_8321.png,n03041632_8321.png,0.0,2.1159282,3.6587532,-1.090942
alexnet,1,525,NaN,bear,car,120,0525_ps_dnn_120_car_10_n02814533_60400.png,n02814533_60400.png,0.0,-1.120042,1.6712221,-1.9737217
alexnet,1,526,NaN,elephant,cat,150,0526_ps_dnn_150_cat_10_n02123597_3280.png,n02123597_3280.png,0.0,0.5867526,1.1090837,-0.36934385
alexnet,1,527,NaN,bear,dog,150,0527_ps_dnn_150_dog_10_n02110063_3399.png,n02110063_3399.png,0.0,0.6677527,1.2033398,-0.3787173
alexnet,1,528,NaN,bear,bear,0,0528_ps_dnn_0_bear_10_n02132136_3109.png,n02132136_3109.png,1.0,8.797018,6.2798986,1.7798722
alexnet,1,529,NaN,bear,bear,0,0529_ps_dnn_0_bear_10_n02134084_16632.png,n02134084_16632.png,1.0,7.6105103,5.6221914,1.4059538
alexnet,1,530,NaN,knife,bottle,150,0530_ps_dnn_150_bottle_10_n04591713_5851.png,n04591713_5851.png,0.0,1.8212253,5.284499,-2.4489045
alexnet,1,531,NaN,oven,knife,0,0531_ps_dnn_0_knife_10_n03041632_29961.png,n03041632_29961.png,0.0,3.0249639,3.1366951,-0.07900596
alexnet,1,532,NaN,knife,knife,30,0532_ps_dnn_30_knife_10_n03041632_10140.png,n03041632_10140.png,1.0,6.9608026,2.9139638,2.8615472
alexnet,1,533,NaN,boat,airplane,180,0533_ps_dnn_180_airplane_10_n02690373_8765.png,n02690373_8765.png,0.0,-2.099079,1.7822483,-2.7445128
alexnet,1,534,NaN,bicycle,knife,120,0534_ps_dnn_120_knife_10_n03041632_16826.png,n03041632_16826.png,0.0,1.1308494,1.8463211,-0.5059149
alexnet,1,535,NaN,chair,chair,30,0535_ps_dnn_30_chair_10_n04429376_21089.png,n04429376_21089.png,1.0,6.035057,4.401645,1.1549966
alexnet,1,536,NaN,bear,bear,60,0536_ps_dnn_60_bear_10_n02134084_15118.png,n02134084_15118.png,1.0,3.5976906,2.2008252,0.987733
alexnet,1,537,NaN,knife,car,120,0537_ps_dnn_120_car_10_n04285008_3884.png,n04285008_3884.png,0.0,-0.867165,2.5230117,-2.397217
alexnet,1,538,NaN,boat,boat,150,0538_ps_dnn_150_boat_10_n04273569_1576.png,n04273569_1576.png,1.0,2.191259,2.0516164,0.09874214
alexnet,1,539,NaN,bicycle,bicycle,120,0539_ps_dnn_120_bicycle_10_n03792782_4600.png,n03792782_4600.png,1.0,3.6163542,1.5750157,1.4434443
alexnet,1,540,NaN,clock,clock,30,0540_ps_dnn_30_clock_10_n03196217_4537.png,n03196217_4537.png,1.0,11.0183,10.288198,0.5162598
alexnet,1,541,NaN,boat,airplane,60,0541_ps_dnn_60_airplane_10_n02690373_10203.png,n02690373_10203.png,0.0,5.744988,7.8359194,-1.4785118
alexnet,1,542,NaN,truck,truck,30,0542_ps_dnn_30_truck_10_n04467665_48875.png,n04467665_48875.png,1.0,4.8874846,4.6070466,0.19829957
alexnet,1,543,NaN,chair,car,60,0543_ps_dnn_60_car_10_n02814533_38071.png,n02814533_38071.png,0.0,2.9751651,3.7241304,-0.5295984
alexnet,1,544,NaN,elephant,bear,90,0544_ps_dnn_90_bear_10_n02133161_160.png,n02133161_160.png,0.0,2.0333183,3.1926918,-0.8198009
alexnet,1,545,NaN,clock,car,30,0545_ps_dnn_30_car_10_n02814533_40344.png,n02814533_40344.png,0.0,3.3413906,4.803943,-1.0341809
alexnet,1,546,NaN,bear,oven,180,0546_ps_dnn_180_oven_10_n04111531_9026.png,n04111531_9026.png,0.0,-0.66826814,2.779311,-2.4378066
alexnet,1,547,NaN,cat,cat,0,0547_ps_dnn_0_cat_10_n02123597_13755.png,n02123597_13755.png,1.0,4.220436,2.4029717,1.2851413
alexnet,1,548,NaN,cat,car,150,0548_ps_dnn_150_car_10_n02814533_39485.png,n02814533_39485.png,0.0,-3.1614132,3.3405018,-4.5975485
alexnet,1,549,NaN,knife,bottle,90,0549_ps_dnn_90_bottle_10_n03937543_4512.png,n03937543_4512.png,0.0,2.965345,3.0985453,-0.09418691
alexnet,1,550,NaN,bicycle,cat,120,0550_ps_dnn_120_cat_10_n02124075_2402.png,n02124075_2402.png,0.0,1.3373094,1.7319828,-0.27907628
alexnet,1,551,NaN,boat,bird,0,0551_ps_dnn_0_bird_10_n02056570_9835.png,n02056570_9835.png,0.0,-0.77917856,4.688548,-3.8662667
alexnet,1,552,NaN,clock,clock,120,0552_ps_dnn_120_clock_10_n04548280_13247.png,n04548280_13247.png,1.0,5.1748757,3.0072587,1.5327368
alexnet,1,553,NaN,clock,truck,60,0553_ps_dnn_60_truck_10_n03417042_173.png,n03417042_173.png,0.0,4.614587,4.9014087,-0.20281367
alexnet,1,554,NaN,knife,airplane,180,0554_ps_dnn_180_airplane_10_n02690373_1592.png,n02690373_1592.png,0.0,3.0685885,3.5943398,-0.37176237
alexnet,1,555,NaN,elephant,elephant,0,0555_ps_dnn_0_elephant_10_n02504013_1953.png,n02504013_1953.png,1.0,11.322362,2.6590004,6.1259217
alexnet,1,556,NaN,bicycle,elephant,150,0556_ps_dnn_150_elephant_10_n02504458_4348.png,n02504458_4348.png,0.0,1.1544702,1.845123,-0.48836532
alexnet,1,557,NaN,knife,airplane,90,0557_ps_dnn_90_airplane_10_n02690373_1854.png,n02690373_1854.png,0.0,0.1403786,5.334417,-3.6727397
alexnet,1,558,NaN,elephant,cat,180,0558_ps_dnn_180_cat_10_n02124075_14363.png,n02124075_14363.png,0.0,-0.69589347,1.3595651,-1.4534287
alexnet,1,559,NaN,bottle,bottle,30,0559_ps_dnn_30_bottle_10_n03983396_3377.png,n03983396_3377.png,1.0,5.3664236,4.729823,0.45014453
alexnet,1,560,NaN,clock,clock,90,0560_ps_dnn_90_clock_10_n04548280_6743.png,n04548280_6743.png,1.0,6.0318923,2.292416,2.644209
alexnet,1,561,NaN,keyboard,clock,30,0561_ps_dnn_30_clock_10_n03196217_8034.png,n03196217_8034.png,0.0,2.9296381,4.2329955,-0.92161286
alexnet,1,562,NaN,bicycle,dog,150,0562_ps_dnn_150_dog_10_n02088094_13992.png,n02088094_13992.png,0.0,2.3829203,2.8429153,-0.32526562
alexnet,1,563,NaN,car,car,30,0563_ps_dnn_30_car_10_n03100240_6216.png,n03100240_6216.png,1.0,7.370404,5.3517,1.4274392
alexnet,1,564,NaN,oven,oven,30,0564_ps_dnn_30_oven_10_n04111531_2831.png,n04111531_2831.png,1.0,7.7116203,5.8356752,1.3264935
alexnet,1,565,NaN,knife,knife,0,0565_ps_dnn_0_knife_10_n03041632_927.png,n03041632_927.png,1.0,14.293643,5.7061872,6.0722485
alexnet,1,566,NaN,knife,knife,150,0566_ps_dnn_150_knife_10_n03041632_5427.png,n03041632_5427.png,1.0,2.168869,1.9354659,0.16504091
alexnet,1,567,NaN,bicycle,cat,180,0567_ps_dnn_180_cat_10_n02123045_8690.png,n02123045_8690.png,0.0,-0.6465851,1.5237179,-1.5346359
alexnet,1,568,NaN,clock,clock,90,0568_ps_dnn_90_clock_10_n02708093_6696.png,n02708093_6696.png,1.0,5.372879,3.9791923,0.9854854
alexnet,1,569,NaN,airplane,airplane,60,0569_ps_dnn_60_airplane_10_n02690373_7748.png,n02690373_7748.png,1.0,9.937786,6.7210464,2.2745786
alexnet,1,570,NaN,airplane,airplane,0,0570_ps_dnn_0_airplane_10_n02690373_20011.png,n02690373_20011.png,1.0,11.634218,4.3087444,5.179892
alexnet,1,571,NaN,elephant,boat,150,0571_ps_dnn_150_boat_10_n02951358_16728.png,n02951358_16728.png,0.0,0.77641165,1.792084,-0.7181888
alexnet,1,572,NaN,airplane,truck,60,0572_ps_dnn_60_truck_10_n04467665_37833.png,n04467665_37833.png,0.0,7.011924,8.419867,-0.9955659
alexnet,1,573,NaN,chair,oven,0,0573_ps_dnn_0_oven_10_n04111531_22886.png,n04111531_22886.png,0.0,5.128293,6.8761597,-1.2359284
alexnet,1,574,NaN,car,car,30,0574_ps_dnn_30_car_10_n04285008_5959.png,n04285008_5959.png,1.0,12.461761,8.281274,2.956051
alexnet,1,575,NaN,knife,boat,120,0575_ps_dnn_120_boat_10_n04273569_10840.png,n04273569_10840.png,0.0,1.4826864,2.5517752,-0.75596
alexnet,1,576,NaN,bicycle,clock,180,0576_ps_dnn_180_clock_10_n02708093_1352.png,n02708093_1352.png,0.0,1.1632574,1.6533382,-0.3465395
alexnet,1,577,NaN,bear,oven,120,0577_ps_dnn_120_oven_10_n04111531_1004.png,n04111531_1004.png,0.0,-2.1889987,2.8995712,-3.5981622
alexnet,1,578,NaN,bicycle,car,180,0578_ps_dnn_180_car_10_n03100240_4619.png,n03100240_4619.png,0.0,-0.7316256,1.6242038,-1.665823
alexnet,1,579,NaN,bicycle,oven,180,0579_ps_dnn_180_oven_10_n04111531_15367.png,n04111531_15367.png,0.0,-3.3850708,1.8223784,-3.6822226
alexnet,1,580,NaN,oven,oven,30,0580_ps_dnn_30_oven_10_n04111531_6903.png,n04111531_6903.png,1.0,4.2752643,2.2017276,1.4662118
alexnet,1,581,NaN,oven,oven,60,0581_ps_dnn_60_oven_10_n04111531_1662.png,n04111531_1662.png,1.0,3.778318,3.4370894,0.24128498
alexnet,1,582,NaN,keyboard,keyboard,0,0582_ps_dnn_0_keyboard_10_n04505470_1342.png,n04505470_1342.png,1.0,19.786568,10.1690855,6.800587
alexnet,1,583,NaN,oven,boat,60,0583_ps_dnn_60_boat_10_n02951358_1911.png,n02951358_1911.png,0.0,3.845158,6.844985,-2.121198
alexnet,1,584,NaN,bicycle,bicycle,30,0584_ps_dnn_30_bicycle_10_n03792782_42927.png,n03792782_42927.png,1.0,6.665658,4.1737747,1.7620276
alexnet,1,585,NaN,airplane,chair,180,0585_ps_dnn_180_chair_10_n02791124_3994.png,n02791124_3994.png,0.0,-0.226583,3.307531,-2.498996
alexnet,1,586,NaN,dog,dog,0,0586_ps_dnn_0_dog_10_n02101388_1383.png,n02101388_1383.png,1.0,4.94838,2.754645,1.5512048
alexnet,1,587,NaN,knife,bear,30,0587_ps_dnn_30_bear_10_n02132136_9367.png,n02132136_9367.png,0.0,2.6539965,5.076724,-1.7131271
alexnet,1,588,NaN,bicycle,dog,150,0588_ps_dnn_150_dog_10_n02108915_7875.png,n02108915_7875.png,0.0,0.8146295,1.7004478,-0.62636817
alexnet,1,589,NaN,chair,chair,60,0589_ps_dnn_60_chair_10_n02791124_6237.png,n02791124_6237.png,1.0,6.3139935,4.5603595,1.2400064
alexnet,1,590,NaN,cat,bird,60,0590_ps_dnn_60_bird_10_n01622779_13896.png,n01622779_13896.png,0.0,1.9222673,6.738483,-3.4055786
alexnet,1,591,NaN,knife,boat,30,0591_ps_dnn_30_boat_10_n04273569_15583.png,n04273569_15583.png,0.0,3.2054257,4.0663605,-0.6087728
alexnet,1,592,NaN,knife,bottle,0,0592_ps_dnn_0_bottle_10_n03937543_3079.png,n03937543_3079.png,0.0,2.8501437,3.6549623,-0.56909275
alexnet,1,593,NaN,dog,dog,150,0593_ps_dnn_150_dog_10_n02110063_5687.png,n02110063_5687.png,1.0,1.5173904,1.0596788,0.32365096
alexnet,1,594,NaN,truck,truck,30,0594_ps_dnn_30_truck_10_n03417042_6685.png,n03417042_6685.png,1.0,8.316177,6.470802,1.3048775
alexnet,1,595,NaN,clock,clock,0,0595_ps_dnn_0_clock_10_n02708093_340.png,n02708093_340.png,1.0,14.94546,6.6850753,5.840975
alexnet,1,596,NaN,dog,dog,0,0596_ps_dnn_0_dog_10_n02111129_5463.png,n02111129_5463.png,1.0,6.7381973,4.8090296,1.3641276
alexnet,1,597,NaN,bicycle,bicycle,90,0597_ps_dnn_90_bicycle_10_n03792782_17503.png,n03792782_17503.png,1.0,6.532173,3.1427357,2.3966942
alexnet,1,598,NaN,dog,bear,60,0598_ps_dnn_60_bear_10_n02134084_9253.png,n02134084_9253.png,0.0,1.4772193,1.7443111,-0.1888624
alexnet,1,599,NaN,chair,car,30,0599_ps_dnn_30_car_10_n04285008_3688.png,n04285008_3688.png,0.0,2.6577861,3.4318378,-0.5473372
alexnet,1,600,NaN,bicycle,bird,150,0600_ps_dnn_150_bird_10_n01795545_17324.png,n01795545_17324.png,0.0,-1.2476096,1.1526119,-1.6972128
alexnet,1,601,NaN,boat,boat,30,0601_ps_dnn_30_boat_10_n04273569_16064.png,n04273569_16064.png,1.0,11.389415,6.5928965,3.3916507
alexnet,1,602,NaN,bicycle,elephant,180,0602_ps_dnn_180_elephant_10_n02504458_4395.png,n02504458_4395.png,0.0,1.3199705,1.4866662,-0.11787167
alexnet,1,603,NaN,oven,oven,30,0603_ps_dnn_30_oven_10_n04111531_21855.png,n04111531_21855.png,1.0,5.2749553,4.973813,0.21293971
alexnet,1,604,NaN,oven,oven,30,0604_ps_dnn_30_oven_10_n04111531_11225.png,n04111531_11225.png,1.0,11.5091505,5.6441813,4.1471596
alexnet,1,605,NaN,clock,oven,150,0605_ps_dnn_150_oven_10_n04111531_13486.png,n04111531_13486.png,0.0,-1.425678,3.5676534,-3.5308185
alexnet,1,606,NaN,chair,chair,0,0606_ps_dnn_0_chair_10_n02791124_1693.png,n02791124_1693.png,1.0,7.6158686,5.430373,1.5453787
alexnet,1,607,NaN,knife,chair,150,0607_ps_dnn_150_chair_10_n04099969_26462.png,n04099969_26462.png,0.0,-0.98824644,4.259903,-3.711002
alexnet,1,608,NaN,clock,chair,120,0608_ps_dnn_120_chair_10_n04429376_16869.png,n04429376_16869.png,0.0,-0.0634311,3.1712704,-2.2872794
alexnet,1,609,NaN,knife,bottle,0,0609_ps_dnn_0_bottle_10_n03983396_23471.png,n03983396_23471.png,0.0,1.5796131,5.6456895,-2.8751502
alexnet,1,610,NaN,bear,bear,0,0610_ps_dnn_0_bear_10_n02134084_5314.png,n02134084_5314.png,1.0,9.001804,5.0260534,2.8112805
alexnet,1,611,NaN,bicycle,elephant,180,0611_ps_dnn_180_elephant_10_n02504458_4564.png,n02504458_4564.png,0.0,0.52400565,2.3906603,-1.3199241
alexnet,1,612,NaN,bear,bear,0,0612_ps_dnn_0_bear_10_n02132136_6967.png,n02132136_6967.png,1.0,9.081733,5.892047,2.2554486
alexnet,1,613,NaN,cat,cat,0,0613_ps_dnn_0_cat_10_n02123394_6517.png,n02123394_6517.png,1.0,8.607766,4.255581,3.0774598
alexnet,1,614,NaN,knife,keyboard,150,0614_ps_dnn_150_keyboard_10_n04505470_1076.png,n04505470_1076.png,0.0,2.4109223,3.4396782,-0.7274403
alexnet,1,615,NaN,clock,knife,180,0615_ps_dnn_180_knife_10_n03041632_5916.png,n03041632_5916.png,0.0,2.1938617,2.379656,-0.13137645
alexnet,1,616,NaN,knife,car,90,0616_ps_dnn_90_car_10_n03100240_4674.png,n03100240_4674.png,0.0,1.6446117,3.6134758,-1.3921971
alexnet,1,617,NaN,clock,bottle,90,0617_ps_dnn_90_bottle_10_n02823428_1602.png,n02823428_1602.png,0.0,5.557664,9.4680395,-2.765053
alexnet,1,618,NaN,boat,boat,90,0618_ps_dnn_90_boat_10_n04273569_27343.png,n04273569_27343.png,1.0,3.519645,2.0672417,1.0270042
alexnet,1,619,NaN,bear,bottle,120,0619_ps_dnn_120_bottle_10_n04560804_15162.png,n04560804_15162.png,0.0,-0.3036764,2.0960844,-1.6968871
alexnet,1,620,NaN,elephant,bottle,120,0620_ps_dnn_120_bottle_10_n03937543_24.png,n03937543_24.png,0.0,1.5278075,2.102857,-0.40662152
alexnet,1,621,NaN,knife,dog,180,0621_ps_dnn_180_dog_10_n02105162_9615.png,n02105162_9615.png,0.0,1.2403575,1.2885473,-0.034075305
alexnet,1,622,NaN,bicycle,bird,150,0622_ps_dnn_150_bird_10_n01582220_1150.png,n01582220_1150.png,0.0,-0.35993525,1.6625786,-1.4301333
alexnet,1,623,NaN,clock,clock,180,0623_ps_dnn_180_clock_10_n04548280_4560.png,n04548280_4560.png,1.0,2.8571596,1.7146652,0.80786556
alexnet,1,624,NaN,bicycle,bottle,150,0624_ps_dnn_150_bottle_10_n04560804_14605.png,n04560804_14605.png,0.0,0.2766972,3.021688,-1.9410017
alexnet,1,625,NaN,chair,chair,0,0625_ps_dnn_0_chair_10_n03376595_262.png,n03376595_262.png,1.0,7.275373,2.1939943,3.5930777
alexnet,1,626,NaN,bear,dog,180,0626_ps_dnn_180_dog_10_n02091032_6523.png,n02091032_6523.png,0.0,2.274206,2.382945,-0.076890185
alexnet,1,627,NaN,bicycle,cat,150,0627_ps_dnn_150_cat_10_n02123159_615.png,n02123159_615.png,0.0,-0.59454376,2.605321,-2.262646
alexnet,1,628,NaN,bicycle,bottle,180,0628_ps_dnn_180_bottle_10_n04579145_6049.png,n04579145_6049.png,0.0,0.1263701,1.7101524,-1.1199032
alexnet,1,629,NaN,keyboard,bottle,90,0629_ps_dnn_90_bottle_10_n02823428_4386.png,n02823428_4386.png,0.0,1.8995711,4.3517303,-1.7339386
alexnet,1,630,NaN,clock,car,150,0630_ps_dnn_150_car_10_n03100240_4594.png,n03100240_4594.png,0.0,-1.1303811,1.8255118,-2.090132
alexnet,1,631,NaN,knife,knife,120,0631_ps_dnn_120_knife_10_n03041632_51581.png,n03041632_51581.png,1.0,1.7684575,1.3349775,0.30651668
alexnet,1,632,NaN,bottle,keyboard,60,0632_ps_dnn_60_keyboard_10_n03085013_15836.png,n03085013_15836.png,0.0,1.9281597,2.2614295,-0.23565736
alexnet,1,633,NaN,bicycle,bicycle,180,0633_ps_dnn_180_bicycle_10_n03792782_34197.png,n03792782_34197.png,1.0,2.6441488,2.0755596,0.4020533
alexnet,1,634,NaN,knife,bicycle,180,0634_ps_dnn_180_bicycle_10_n02835271_9314.png,n02835271_9314.png,0.0,1.1961749,2.604991,-0.99618345
alexnet,1,635,NaN,knife,oven,150,0635_ps_dnn_150_oven_10_n04111531_5643.png,n04111531_5643.png,0.0,-0.19918907,3.834227,-2.852056
alexnet,1,636,NaN,knife,cat,180,0636_ps_dnn_180_cat_10_n02123394_6362.png,n02123394_6362.png,0.0,-0.4930427,2.815473,-2.339474
alexnet,1,637,NaN,elephant,elephant,60,0637_ps_dnn_60_elephant_10_n02504458_3614.png,n02504458_3614.png,1.0,11.05443,2.885464,5.7763314
alexnet,1,638,NaN,knife,chair,180,0638_ps_dnn_180_chair_10_n04099969_6691.png,n04099969_6691.png,0.0,-0.2900953,3.9133153,-2.9722602
alexnet,1,639,NaN,bear,dog,60,0639_ps_dnn_60_dog_10_n02104365_1262.png,n02104365_1262.png,0.0,0.8707327,3.5708203,-1.9092503
alexnet,1,640,NaN,knife,chair,180,0640_ps_dnn_180_chair_10_n02791124_2611.png,n02791124_2611.png,0.0,-0.7070222,1.9804693,-1.9003434
alexnet,1,641,NaN,bird,bird,90,0641_ps_dnn_90_bird_10_n02027492_211.png,n02027492_211.png,1.0,2.8278878,1.1037264,1.2191663
alexnet,1,642,NaN,cat,keyboard,180,0642_ps_dnn_180_keyboard_10_n03085013_15576.png,n03085013_15576.png,0.0,-0.8178017,1.3415092,-1.5268633
alexnet,1,643,NaN,cat,cat,30,0643_ps_dnn_30_cat_10_n02123045_7255.png,n02123045_7255.png,1.0,9.693,2.938086,4.7764454
alexnet,1,644,NaN,elephant,chair,60,0644_ps_dnn_60_chair_10_n04099969_16382.png,n04099969_16382.png,0.0,2.6825213,5.767851,-2.1816576
alexnet,1,645,NaN,bear,bear,0,0645_ps_dnn_0_bear_10_n02134418_2324.png,n02134418_2324.png,1.0,12.020878,5.8828125,4.3402677
alexnet,1,646,NaN,bicycle,dog,150,0646_ps_dnn_150_dog_10_n02096585_271.png,n02096585_271.png,0.0,-0.11179998,1.1922491,-0.9221019
alexnet,1,647,NaN,bear,oven,150,0647_ps_dnn_150_oven_10_n04111531_4900.png,n04111531_4900.png,0.0,-1.0366113,1.9908938,-2.1407695
alexnet,1,648,NaN,cat,clock,150,0648_ps_dnn_150_clock_10_n04548280_23221.png,n04548280_23221.png,0.0,1.507583,2.7856805,-0.90375143
alexnet,1,649,NaN,elephant,car,60,0649_ps_dnn_60_car_10_n03100240_7753.png,n03100240_7753.png,0.0,-1.195593,3.3718648,-3.2296803
alexnet,1,650,NaN,cat,bear,180,0650_ps_dnn_180_bear_10_n02134084_1503.png,n02134084_1503.png,0.0,0.92328024,1.6394099,-0.50638014
alexnet,1,651,NaN,bottle,keyboard,90,0651_ps_dnn_90_keyboard_10_n04505470_986.png,n04505470_986.png,0.0,2.7958078,4.4924197,-1.1996858
alexnet,1,652,NaN,elephant,truck,180,0652_ps_dnn_180_truck_10_n04467665_23758.png,n04467665_23758.png,0.0,0.27306473,1.320929,-0.74095196
alexnet,1,653,NaN,elephant,chair,120,0653_ps_dnn_120_chair_10_n03376595_4362.png,n03376595_4362.png,0.0,-0.57259864,4.351504,-3.4818661
alexnet,1,654,NaN,knife,oven,180,0654_ps_dnn_180_oven_10_n04111531_6958.png,n04111531_6958.png,0.0,-1.5963976,2.3321288,-2.7778878
alexnet,1,655,NaN,keyboard,keyboard,30,0655_ps_dnn_30_keyboard_10_n03085013_6166.png,n03085013_6166.png,1.0,9.815691,3.4346945,4.5120463
alexnet,1,656,NaN,elephant,bicycle,120,0656_ps_dnn_120_bicycle_10_n03792782_20475.png,n03792782_20475.png,0.0,1.0277784,3.07329,-1.4463953
alexnet,1,657,NaN,knife,cat,180,0657_ps_dnn_180_cat_10_n02123394_2350.png,n02123394_2350.png,0.0,0.16669689,1.4051812,-0.87574065
alexnet,1,658,NaN,elephant,elephant,0,0658_ps_dnn_0_elephant_10_n02504458_4316.png,n02504458_4316.png,1.0,22.973701,4.3192096,13.190718
alexnet,1,659,NaN,clock,clock,30,0659_ps_dnn_30_clock_10_n04548280_4390.png,n04548280_4390.png,1.0,17.213377,3.7466462,9.522417
alexnet,1,660,NaN,knife,car,60,0660_ps_dnn_60_car_10_n03100240_17421.png,n03100240_17421.png,0.0,4.9268236,5.366127,-0.3106344
alexnet,1,661,NaN,knife,keyboard,60,0661_ps_dnn_60_keyboard_10_n03085013_30073.png,n03085013_30073.png,0.0,4.3978634,7.929092,-2.4969556
alexnet,1,662,NaN,elephant,knife,90,0662_ps_dnn_90_knife_10_n03041632_89391.png,n03041632_89391.png,0.0,0.5928968,3.5983324,-2.1251638
alexnet,1,663,NaN,elephant,dog,90,0663_ps_dnn_90_dog_10_n02100877_2341.png,n02100877_2341.png,0.0,0.55110294,3.0053115,-1.7353876
alexnet,1,664,NaN,bear,boat,180,0664_ps_dnn_180_boat_10_n03344393_7114.png,n03344393_7114.png,0.0,1.013167,2.1289678,-0.78899026
alexnet,1,665,NaN,oven,knife,0,0665_ps_dnn_0_knife_10_n03041632_22051.png,n03041632_22051.png,0.0,5.557824,6.131794,-0.40585798
alexnet,1,666,NaN,bicycle,clock,90,0666_ps_dnn_90_clock_10_n02708093_6850.png,n02708093_6850.png,0.0,2.8423336,2.9821184,-0.09884279
alexnet,1,667,NaN,bicycle,knife,60,0667_ps_dnn_60_knife_10_n03041632_15299.png,n03041632_15299.png,0.0,3.1708953,3.6540794,-0.34166276
alexnet,1,668,NaN,keyboard,keyboard,60,0668_ps_dnn_60_keyboard_10_n03085013_21490.png,n03085013_21490.png,1.0,2.085102,1.6328957,0.3197582
alexnet,1,669,NaN,knife,knife,60,0669_ps_dnn_60_knife_10_n03041632_105081.png,n03041632_105081.png,1.0,5.9827166,3.6758075,1.6312311
alexnet,1,670,NaN,elephant,elephant,0,0670_ps_dnn_0_elephant_10_n02504013_20805.png,n02504013_20805.png,1.0,15.164226,5.204094,7.0428767
alexnet,1,671,NaN,boat,boat,30,0671_ps_dnn_30_boat_10_n02951358_10151.png,n02951358_10151.png,1.0,6.277929,3.9361005,1.6559228
alexnet,1,672,NaN,bicycle,oven,90,0672_ps_dnn_90_oven_10_n04111531_4944.png,n04111531_4944.png,0.0,0.64418775,1.5915129,-0.66986006
alexnet,1,673,NaN,cat,bottle,180,0673_ps_dnn_180_bottle_10_n04591713_644.png,n04591713_644.png,0.0,-0.21654102,3.2115097,-2.4239979
alexnet,1,674,NaN,bear,dog,60,0674_ps_dnn_60_dog_10_n02090721_1105.png,n02090721_1105.png,0.0,7.84136,7.9310026,-0.063386835
alexnet,1,675,NaN,keyboard,keyboard,60,0675_ps_dnn_60_keyboard_10_n04505470_5880.png,n04505470_5880.png,1.0,11.096975,4.293236,4.8109703
alexnet,1,676,NaN,knife,airplane,150,0676_ps_dnn_150_airplane_10_n02690373_3589.png,n02690373_3589.png,0.0,0.111050636,4.0024014,-2.7516005
alexnet,1,677,NaN,boat,bird,120,0677_ps_dnn_120_bird_10_n01855672_3952.png,n01855672_3952.png,0.0,0.79451627,4.4211025,-2.5643837
alexnet,1,678,NaN,truck,truck,60,0678_ps_dnn_60_truck_10_n03796401_8037.png,n03796401_8037.png,1.0,9.583824,6.171116,2.413149
alexnet,1,679,NaN,clock,clock,0,0679_ps_dnn_0_clock_10_n03196217_5493.png,n03196217_5493.png,1.0,9.832554,8.395645,1.016048
alexnet,1,680,NaN,knife,knife,30,0680_ps_dnn_30_knife_10_n03041632_32208.png,n03041632_32208.png,1.0,5.95053,3.8444471,1.4892255
alexnet,1,681,NaN,bicycle,bicycle,90,0681_ps_dnn_90_bicycle_10_n03792782_5494.png,n03792782_5494.png,1.0,8.137084,2.7888505,3.7817721
alexnet,1,682,NaN,clock,chair,180,0682_ps_dnn_180_chair_10_n03376595_208.png,n03376595_208.png,0.0,0.023547515,3.2103214,-2.2533896
alexnet,1,683,NaN,elephant,bicycle,150,0683_ps_dnn_150_bicycle_10_n02835271_3529.png,n02835271_3529.png,0.0,2.2948995,3.5422106,-0.88198215
alexnet,1,684,NaN,elephant,clock,180,0684_ps_dnn_180_clock_10_n02708093_2482.png,n02708093_2482.png,0.0,0.664825,1.3858471,-0.5098396
alexnet,1,685,NaN,airplane,airplane,60,0685_ps_dnn_60_airplane_10_n02690373_1706.png,n02690373_1706.png,1.0,5.126036,5.1062546,0.013987697
alexnet,1,686,NaN,clock,knife,180,0686_ps_dnn_180_knife_10_n03041632_2973.png,n03041632_2973.png,0.0,1.7167993,2.1091108,-0.2774062
alexnet,1,687,NaN,bear,oven,90,0687_ps_dnn_90_oven_10_n04111531_6346.png,n04111531_6346.png,0.0,2.3044772,2.639361,-0.23679852
alexnet,1,688,NaN,knife,oven,180,0688_ps_dnn_180_oven_10_n04111531_10336.png,n04111531_10336.png,0.0,-0.49154007,1.8996093,-1.690798
alexnet,1,689,NaN,clock,elephant,120,0689_ps_dnn_120_elephant_10_n02504013_25336.png,n02504013_25336.png,0.0,1.8451247,2.6738577,-0.5860027
alexnet,1,690,NaN,airplane,oven,120,0690_ps_dnn_120_oven_10_n04111531_4322.png,n04111531_4322.png,0.0,2.7374341,4.939533,-1.5571193
alexnet,1,691,NaN,truck,truck,0,0691_ps_dnn_0_truck_10_n03417042_3482.png,n03417042_3482.png,1.0,5.01082,4.686154,0.22957355
alexnet,1,692,NaN,bicycle,bear,180,0692_ps_dnn_180_bear_10_n02132136_5146.png,n02132136_5146.png,0.0,1.1814363,2.781704,-1.1315601
alexnet,1,693,NaN,bicycle,bicycle,90,0693_ps_dnn_90_bicycle_10_n02835271_19853.png,n02835271_19853.png,1.0,4.140573,1.5763482,1.8131807
alexnet,1,694,NaN,bicycle,bicycle,60,0694_ps_dnn_60_bicycle_10_n03792782_1477.png,n03792782_1477.png,1.0,8.953345,3.042466,4.1796227
alexnet,1,695,NaN,knife,knife,90,0695_ps_dnn_90_knife_10_n03041632_52371.png,n03041632_52371.png,1.0,8.685626,3.1491268,3.914896
alexnet,1,696,NaN,bicycle,bird,150,0696_ps_dnn_150_bird_10_n02007558_7783.png,n02007558_7783.png,0.0,-1.0928028,2.688229,-2.6735933
alexnet,1,697,NaN,boat,boat,90,0697_ps_dnn_90_boat_10_n02951358_30773.png,n02951358_30773.png,1.0,3.4139094,2.6921928,0.51033074
alexnet,1,698,NaN,cat,keyboard,180,0698_ps_dnn_180_keyboard_10_n03085013_4298.png,n03085013_4298.png,0.0,-2.2202933,1.3146038,-2.4995496
alexnet,1,699,NaN,clock,airplane,150,0699_ps_dnn_150_airplane_10_n02690373_13021.png,n02690373_13021.png,0.0,-0.5467004,1.9865049,-1.7912467
alexnet,1,700,NaN,cat,chair,90,0700_ps_dnn_90_chair_10_n03376595_8490.png,n03376595_8490.png,0.0,-0.4936145,3.2908862,-2.6760461
alexnet,1,701,NaN,chair,chair,60,0701_ps_dnn_60_chair_10_n02791124_5898.png,n02791124_5898.png,1.0,5.8777637,3.8075902,1.4638337
alexnet,1,702,NaN,clock,clock,90,0702_ps_dnn_90_clock_10_n02708093_181.png,n02708093_181.png,1.0,6.669005,2.9433079,2.6344657
alexnet,1,703,NaN,airplane,airplane,30,0703_ps_dnn_30_airplane_10_n02690373_190.png,n02690373_190.png,1.0,19.33762,4.7421465,10.320559
alexnet,1,704,NaN,bicycle,oven,180,0704_ps_dnn_180_oven_10_n04111531_6756.png,n04111531_6756.png,0.0,-2.040573,1.4191539,-2.4463964
alexnet,1,705,NaN,bicycle,car,120,0705_ps_dnn_120_car_10_n03100240_23906.png,n03100240_23906.png,0.0,1.701644,5.6209307,-2.7713542
alexnet,1,706,NaN,truck,truck,0,0706_ps_dnn_0_truck_10_n03417042_16038.png,n03417042_16038.png,1.0,7.827349,3.3969152,3.13279
alexnet,1,707,NaN,elephant,elephant,30,0707_ps_dnn_30_elephant_10_n02504458_6602.png,n02504458_6602.png,1.0,13.859215,2.6598394,7.919154
alexnet,1,708,NaN,truck,truck,0,0708_ps_dnn_0_truck_10_n04467665_18234.png,n04467665_18234.png,1.0,11.496054,6.962717,3.205553
alexnet,1,709,NaN,cat,bottle,180,0709_ps_dnn_180_bottle_10_n03937543_4259.png,n03937543_4259.png,0.0,-1.02052,2.0520124,-2.1726086
alexnet,1,710,NaN,bear,car,120,0710_ps_dnn_120_car_10_n03100240_17523.png,n03100240_17523.png,0.0,-1.0133973,2.2053778,-2.276018
alexnet,1,711,NaN,clock,clock,0,0711_ps_dnn_0_clock_10_n02708093_1513.png,n02708093_1513.png,1.0,18.92631,6.751412,8.608953
alexnet,1,712,NaN,boat,keyboard,180,0712_ps_dnn_180_keyboard_10_n03085013_4553.png,n03085013_4553.png,0.0,-1.2278043,2.1597602,-2.39537
alexnet,1,713,NaN,bicycle,oven,180,0713_ps_dnn_180_oven_10_n04111531_8330.png,n04111531_8330.png,0.0,-1.5576441,2.4312491,-2.8205736
alexnet,1,714,NaN,knife,bird,90,0714_ps_dnn_90_bird_10_n01530575_35115.png,n01530575_35115.png,0.0,-1.069025,3.0200472,-2.8914108
alexnet,1,715,NaN,knife,elephant,150,0715_ps_dnn_150_elephant_10_n02504458_1600.png,n02504458_1600.png,0.0,-0.33031398,2.3255608,-1.877987
alexnet,1,716,NaN,knife,knife,30,0716_ps_dnn_30_knife_10_n03041632_3717.png,n03041632_3717.png,1.0,15.435655,5.4948874,7.029184
alexnet,1,717,NaN,airplane,truck,180,0717_ps_dnn_180_truck_10_n04467665_39477.png,n04467665_39477.png,0.0,0.42117226,3.5960162,-2.2449536
alexnet,1,718,NaN,bicycle,bear,180,0718_ps_dnn_180_bear_10_n02132136_20883.png,n02132136_20883.png,0.0,0.41948283,1.5436745,-0.79492354
alexnet,1,719,NaN,boat,bear,150,0719_ps_dnn_150_bear_10_n02133161_2340.png,n02133161_2340.png,0.0,0.4524612,0.89181775,-0.310672
alexnet,1,720,NaN,boat,bear,90,0720_ps_dnn_90_bear_10_n02134084_4442.png,n02134084_4442.png,0.0,2.2515514,2.4170141,-0.11699982
alexnet,1,721,NaN,elephant,clock,150,0721_ps_dnn_150_clock_10_n04548280_8314.png,n04548280_8314.png,0.0,0.078267016,1.7558527,-1.1862322
alexnet,1,722,NaN,oven,oven,0,0722_ps_dnn_0_oven_10_n04111531_13797.png,n04111531_13797.png,1.0,5.0040946,4.980562,0.016639913
alexnet,1,723,NaN,car,car,30,0723_ps_dnn_30_car_10_n04285008_13.png,n04285008_13.png,1.0,13.200855,8.201906,3.5347908
alexnet,1,724,NaN,bear,bird,150,0724_ps_dnn_150_bird_10_n02002724_5457.png,n02002724_5457.png,0.0,0.85171914,2.4516647,-1.1313324
alexnet,1,725,NaN,airplane,airplane,0,0725_ps_dnn_0_airplane_10_n02690373_1325.png,n02690373_1325.png,1.0,19.351734,6.537462,9.061059
alexnet,1,726,NaN,knife,knife,0,0726_ps_dnn_0_knife_10_n03041632_24561.png,n03041632_24561.png,1.0,13.509206,6.6799793,4.8289924
alexnet,1,727,NaN,cat,chair,180,0727_ps_dnn_180_chair_10_n03376595_2809.png,n03376595_2809.png,0.0,-0.60129577,3.419719,-2.8432868
alexnet,1,728,NaN,bottle,cat,90,0728_ps_dnn_90_cat_10_n02125311_36331.png,n02125311_36331.png,0.0,0.7721011,3.3781517,-1.842756
alexnet,1,729,NaN,oven,oven,90,0729_ps_dnn_90_oven_10_n04111531_7430.png,n04111531_7430.png,1.0,4.142292,2.5494118,1.1263365
alexnet,1,730,NaN,chair,bottle,30,0730_ps_dnn_30_bottle_10_n04560804_8454.png,n04560804_8454.png,0.0,4.783712,5.1606445,-0.26653162
alexnet,1,731,NaN,elephant,bear,150,0731_ps_dnn_150_bear_10_n02132136_7067.png,n02132136_7067.png,0.0,1.5433108,2.4221225,-0.6214137
alexnet,1,732,NaN,knife,knife,0,0732_ps_dnn_0_knife_10_n03041632_33424.png,n03041632_33424.png,1.0,4.5774536,3.959869,0.43669835
alexnet,1,733,NaN,keyboard,keyboard,30,0733_ps_dnn_30_keyboard_10_n04505470_5171.png,n04505470_5171.png,1.0,10.912296,5.4938416,3.8314261
alexnet,1,734,NaN,knife,oven,180,0734_ps_dnn_180_oven_10_n04111531_14611.png,n04111531_14611.png,0.0,1.1695809,2.1891346,-0.7209333
alexnet,1,735,NaN,elephant,bird,180,0735_ps_dnn_180_bird_10_n02028035_14461.png,n02028035_14461.png,0.0,0.8478408,2.269742,-1.0054361
alexnet,1,736,NaN,airplane,airplane,60,0736_ps_dnn_60_airplane_10_n02690373_10232.png,n02690373_10232.png,1.0,20.753025,6.4456415,10.116848
alexnet,1,737,NaN,bicycle,knife,180,0737_ps_dnn_180_knife_10_n03041632_18859.png,n03041632_18859.png,0.0,1.189456,1.9304496,-0.5239616
alexnet,1,738,NaN,knife,truck,150,0738_ps_dnn_150_truck_10_n03417042_1279.png,n03417042_1279.png,0.0,-0.28277734,2.5788434,-2.0234714
alexnet,1,739,NaN,boat,airplane,180,0739_ps_dnn_180_airplane_10_n02690373_4691.png,n02690373_4691.png,0.0,0.0051731914,2.970014,-2.0964592
alexnet,1,740,NaN,boat,dog,120,0740_ps_dnn_120_dog_10_n02111277_21922.png,n02111277_21922.png,0.0,0.7037376,1.215031,-0.36153904
alexnet,1,741,NaN,bicycle,dog,180,0741_ps_dnn_180_dog_10_n02093991_2725.png,n02093991_2725.png,0.0,1.1621177,1.8433304,-0.4816901
alexnet,1,742,NaN,clock,bottle,90,0742_ps_dnn_90_bottle_10_n04557648_11847.png,n04557648_11847.png,0.0,2.4416277,3.8959458,-1.0283582
alexnet,1,743,NaN,bear,knife,180,0743_ps_dnn_180_knife_10_n03041632_20697.png,n03041632_20697.png,0.0,0.8654642,2.3798244,-1.0708144
alexnet,1,744,NaN,chair,car,90,0744_ps_dnn_90_car_10_n02814533_35102.png,n02814533_35102.png,0.0,-0.07591772,2.417634,-1.7632073
alexnet,1,745,NaN,cat,cat,0,0745_ps_dnn_0_cat_10_n02125311_19769.png,n02125311_19769.png,1.0,7.4564395,1.8986518,3.9299495
alexnet,1,746,NaN,keyboard,keyboard,60,0746_ps_dnn_60_keyboard_10_n03085013_17795.png,n03085013_17795.png,1.0,4.3159337,3.8362691,0.33917406
alexnet,1,747,NaN,boat,clock,150,0747_ps_dnn_150_clock_10_n03196217_4019.png,n03196217_4019.png,0.0,-0.49792495,3.0110083,-2.4811907
alexnet,1,748,NaN,bear,bear,120,0748_ps_dnn_120_bear_10_n02134418_2561.png,n02134418_2561.png,1.0,2.6497812,1.5057771,0.8089331
alexnet,1,749,NaN,elephant,clock,150,0749_ps_dnn_150_clock_10_n04548280_21545.png,n04548280_21545.png,0.0,0.016879836,1.7191186,-1.2036647
alexnet,1,750,NaN,bicycle,elephant,150,0750_ps_dnn_150_elephant_10_n02504458_952.png,n02504458_952.png,0.0,1.5202274,2.1990042,-0.47996765
alexnet,1,751,NaN,knife,clock,120,0751_ps_dnn_120_clock_10_n02708093_1539.png,n02708093_1539.png,0.0,2.867945,3.011396,-0.10143516
alexnet,1,752,NaN,bear,bird,90,0752_ps_dnn_90_bird_10_n01820546_7575.png,n01820546_7575.png,0.0,-1.8893843,3.5063508,-3.8153608
alexnet,1,753,NaN,oven,oven,0,0753_ps_dnn_0_oven_10_n04111531_17576.png,n04111531_17576.png,1.0,7.917251,3.7597804,2.9397757
alexnet,1,754,NaN,elephant,elephant,0,0754_ps_dnn_0_elephant_10_n02504013_5217.png,n02504013_5217.png,1.0,3.2378922,2.7072625,0.3752118
alexnet,1,755,NaN,airplane,airplane,60,0755_ps_dnn_60_airplane_10_n02690373_10399.png,n02690373_10399.png,1.0,7.4017262,4.1530027,2.2971945
alexnet,1,756,NaN,dog,dog,30,0756_ps_dnn_30_dog_10_n02101388_5116.png,n02101388_5116.png,1.0,4.737541,4.171512,0.400243
