subj,session,trial,rt,object_response,category,condition,imagename,filename,is_correct,targ_act,max_nontarg_act,decision_margin
alexnet_w3_mlp_simclrhn_probe2,1,1,NaN,truck,truck,30,0001_ps_dnn_30_truck_10_n03417042_14861.png,n03417042_14861.png,1.0,4.528448,0.90124065,2.5648232
alexnet_w3_mlp_simclrhn_probe2,1,2,NaN,keyboard,keyboard,0,0002_ps_dnn_0_keyboard_10_n03085013_25476.png,n03085013_25476.png,1.0,8.968027,0.806155,5.771315
alexnet_w3_mlp_simclrhn_probe2,1,3,NaN,elephant,elephant,0,0003_ps_dnn_0_elephant_10_n02504013_3087.png,n02504013_3087.png,1.0,10.374449,2.5045462,5.564862
alexnet_w3_mlp_simclrhn_probe2,1,4,NaN,cat,cat,30,0004_ps_dnn_30_cat_10_n02123394_4633.png,n02123394_4633.png,1.0,1.4551963,0.90646565,0.38801116
alexnet_w3_mlp_simclrhn_probe2,1,5,NaN,oven,knife,120,0005_ps_dnn_120_knife_10_n03041632_48151.png,n03041632_48151.png,0.0,-0.014812373,0.045816064,-0.04287078
alexnet_w3_mlp_simclrhn_probe2,1,6,NaN,bicycle,bicycle,60,0006_ps_dnn_60_bicycle_10_n02835271_1075.png,n02835271_1075.png,1.0,5.2629232,-1.3645701,4.6863456
alexnet_w3_mlp_simclrhn_probe2,1,7,NaN,bear,bear,180,0007_ps_dnn_180_bear_10_n02134084_10289.png,n02134084_10289.png,1.0,-0.64832664,-0.9232403,0.19439332
alexnet_w3_mlp_simclrhn_probe2,1,8,NaN,keyboard,keyboard,0,0008_ps_dnn_0_keyboard_10_n03085013_21967.png,n03085013_21967.png,1.0,3.1235337,1.3271377,1.2702439
alexnet_w3_mlp_simclrhn_probe2,1,9,NaN,bear,oven,150,0009_ps_dnn_150_oven_10_n04111531_5737.png,n04111531_5737.png,0.0,-0.77100265,-0.6705403,-0.07103763
alexnet_w3_mlp_simclrhn_probe2,1,10,NaN,elephant,elephant,60,0010_ps_dnn_60_elephant_10_n02504458_8141.png,n02504458_8141.png,1.0,2.2004073,1.2447672,0.6757396
alexnet_w3_mlp_simclrhn_probe2,1,11,NaN,elephant,elephant,90,0011_ps_dnn_90_elephant_10_n02504458_3153.png,n02504458_3153.png,1.0,1.361696,0.63007754,0.5173324
alexnet_w3_mlp_simclrhn_probe2,1,12,NaN,bear,bear,60,0012_ps_dnn_60_bear_10_n02134418_5807.png,n02134418_5807.png,1.0,2.1533532,1.3943492,0.5366969
alexnet_w3_mlp_simclrhn_probe2,1,13,NaN,boat,boat,0,0013_ps_dnn_0_boat_10_n04273569_15322.png,n04273569_15322.png,1.0,5.2465982,0.48808601,3.3647761
alexnet_w3_mlp_simclrhn_probe2,1,14,NaN,chair,knife,0,0014_ps_dnn_0_knife_10_n03041632_42526.png,n03041632_42526.png,0.0,-0.056996375,0.07436934,-0.09288959
alexnet_w3_mlp_simclrhn_probe2,1,15,NaN,bicycle,bicycle,30,0015_ps_dnn_30_bicycle_10_n02835271_5886.png,n02835271_5886.png,1.0,0.21535295,-1.3804792,1.1284237
alexnet_w3_mlp_simclrhn_probe2,1,16,NaN,knife,dog,180,0016_ps_dnn_180_dog_10_n02110063_869.png,n02110063_869.png,0.0,-1.2190987,-0.6577146,-0.3969585
alexnet_w3_mlp_simclrhn_probe2,1,17,NaN,bear,bicycle,180,0017_ps_dnn_180_bicycle_10_n03792782_3334.png,n03792782_3334.png,0.0,-0.99595094,-0.5887983,-0.28790042
alexnet_w3_mlp_simclrhn_probe2,1,18,NaN,airplane,airplane,0,0018_ps_dnn_0_airplane_10_n02690373_7355.png,n02690373_7355.png,1.0,8.066824,0.6089231,5.2735324
alexnet_w3_mlp_simclrhn_probe2,1,19,NaN,bird,bird,120,0019_ps_dnn_120_bird_10_n01798484_2289.png,n01798484_2289.png,1.0,-0.29920492,-0.34985346,0.035813928
alexnet_w3_mlp_simclrhn_probe2,1,20,NaN,knife,knife,60,0020_ps_dnn_60_knife_10_n03041632_87380.png,n03041632_87380.png,1.0,-0.41107646,-0.8958907,0.34281546
alexnet_w3_mlp_simclrhn_probe2,1,21,NaN,clock,bird,0,0021_ps_dnn_0_bird_10_n02027492_15639.png,n02027492_15639.png,0.0,-1.8402689,-0.7458022,-0.7739048
alexnet_w3_mlp_simclrhn_probe2,1,22,NaN,airplane,bird,0,0022_ps_dnn_0_bird_10_n02006656_7153.png,n02006656_7153.png,0.0,0.83380085,1.9287463,-0.77424335
alexnet_w3_mlp_simclrhn_probe2,1,23,NaN,boat,boat,60,0023_ps_dnn_60_boat_10_n04612504_14699.png,n04612504_14699.png,1.0,2.138145,-1.4568393,2.5420377
alexnet_w3_mlp_simclrhn_probe2,1,24,NaN,bear,bear,60,0024_ps_dnn_60_bear_10_n02134418_5971.png,n02134418_5971.png,1.0,2.014534,0.12966092,1.3328065
alexnet_w3_mlp_simclrhn_probe2,1,25,NaN,oven,dog,90,0025_ps_dnn_90_dog_10_n02110063_16680.png,n02110063_16680.png,0.0,-1.0988128,-0.104311265,-0.7032188
alexnet_w3_mlp_simclrhn_probe2,1,26,NaN,oven,car,90,0026_ps_dnn_90_car_10_n03100240_6010.png,n03100240_6010.png,0.0,-5.0495744,0.81821537,-4.149154
alexnet_w3_mlp_simclrhn_probe2,1,27,NaN,elephant,elephant,30,0027_ps_dnn_30_elephant_10_n02504458_9835.png,n02504458_9835.png,1.0,0.4810663,-0.08623177,0.4011403
alexnet_w3_mlp_simclrhn_probe2,1,28,NaN,airplane,airplane,30,0028_ps_dnn_30_airplane_10_n02690373_10207.png,n02690373_10207.png,1.0,1.5938458,-0.16071817,1.2406641
alexnet_w3_mlp_simclrhn_probe2,1,29,NaN,knife,bottle,180,0029_ps_dnn_180_bottle_10_n03983396_5532.png,n03983396_5532.png,0.0,-2.2420325,-0.6356681,-1.1358713
alexnet_w3_mlp_simclrhn_probe2,1,30,NaN,dog,dog,30,0030_ps_dnn_30_dog_10_n02090622_1485.png,n02090622_1485.png,1.0,2.80592,-2.9263916,4.053356
alexnet_w3_mlp_simclrhn_probe2,1,31,NaN,bear,truck,150,0031_ps_dnn_150_truck_10_n03417042_5503.png,n03417042_5503.png,0.0,-4.5745053,-0.8581488,-2.627861
alexnet_w3_mlp_simclrhn_probe2,1,32,NaN,knife,bear,180,0032_ps_dnn_180_bear_10_n02133161_897.png,n02133161_897.png,0.0,-0.70875746,-0.37426877,-0.23651922
alexnet_w3_mlp_simclrhn_probe2,1,33,NaN,oven,keyboard,180,0033_ps_dnn_180_keyboard_10_n04505470_4579.png,n04505470_4579.png,0.0,-0.40302286,0.08344272,-0.3439831
alexnet_w3_mlp_simclrhn_probe2,1,34,NaN,bird,bird,60,0034_ps_dnn_60_bird_10_n01592084_5833.png,n01592084_5833.png,1.0,1.7060041,-1.7582399,2.4495904
alexnet_w3_mlp_simclrhn_probe2,1,35,NaN,dog,dog,0,0035_ps_dnn_0_dog_10_n02090379_3514.png,n02090379_3514.png,1.0,3.0974395,-2.6820123,4.0866895
alexnet_w3_mlp_simclrhn_probe2,1,36,NaN,knife,airplane,180,0036_ps_dnn_180_airplane_10_n02690373_6144.png,n02690373_6144.png,0.0,-3.4616616,-0.25227737,-2.2693775
alexnet_w3_mlp_simclrhn_probe2,1,37,NaN,knife,airplane,90,0037_ps_dnn_90_airplane_10_n02690373_1436.png,n02690373_1436.png,0.0,-0.4430502,0.6398223,-0.7657065
alexnet_w3_mlp_simclrhn_probe2,1,38,NaN,oven,clock,120,0038_ps_dnn_120_clock_10_n04548280_354.png,n04548280_354.png,0.0,-2.0523021,-0.19517839,-1.3131849
alexnet_w3_mlp_simclrhn_probe2,1,39,NaN,keyboard,keyboard,0,0039_ps_dnn_0_keyboard_10_n03085013_2189.png,n03085013_2189.png,1.0,3.2980764,0.6043378,1.9047607
alexnet_w3_mlp_simclrhn_probe2,1,40,NaN,bear,chair,120,0040_ps_dnn_120_chair_10_n04099969_9005.png,n04099969_9005.png,0.0,-2.6602664,-0.41930228,-1.584601
alexnet_w3_mlp_simclrhn_probe2,1,41,NaN,knife,bicycle,180,0041_ps_dnn_180_bicycle_10_n02835271_7350.png,n02835271_7350.png,0.0,-1.6542128,-0.25293863,-0.9908505
alexnet_w3_mlp_simclrhn_probe2,1,42,NaN,knife,bottle,150,0042_ps_dnn_150_bottle_10_n04557648_8320.png,n04557648_8320.png,0.0,-1.1209681,-0.2801616,-0.59454
alexnet_w3_mlp_simclrhn_probe2,1,43,NaN,dog,dog,0,0043_ps_dnn_0_dog_10_n02105641_6503.png,n02105641_6503.png,1.0,1.6903989,-3.423019,3.6157324
alexnet_w3_mlp_simclrhn_probe2,1,44,NaN,clock,clock,90,0044_ps_dnn_90_clock_10_n04548280_6022.png,n04548280_6022.png,1.0,-0.12825172,-1.2114974,0.7659704
alexnet_w3_mlp_simclrhn_probe2,1,45,NaN,keyboard,clock,60,0045_ps_dnn_60_clock_10_n03196217_7414.png,n03196217_7414.png,0.0,-0.09149303,0.77331835,-0.611514
alexnet_w3_mlp_simclrhn_probe2,1,46,NaN,knife,oven,150,0046_ps_dnn_150_oven_10_n04111531_7965.png,n04111531_7965.png,0.0,-0.6867403,-0.46594504,-0.15612581
alexnet_w3_mlp_simclrhn_probe2,1,47,NaN,clock,bottle,90,0047_ps_dnn_90_bottle_10_n04579145_4594.png,n04579145_4594.png,0.0,-1.414275,-1.2508994,-0.11552401
alexnet_w3_mlp_simclrhn_probe2,1,48,NaN,oven,bottle,30,0048_ps_dnn_30_bottle_10_n03983396_4564.png,n03983396_4564.png,0.0,0.7754356,2.3584015,-1.1193259
alexnet_w3_mlp_simclrhn_probe2,1,49,NaN,cat,cat,60,0049_ps_dnn_60_cat_10_n02125311_54015.png,n02125311_54015.png,1.0,1.7951994,-0.13531426,1.3650793
alexnet_w3_mlp_simclrhn_probe2,1,50,NaN,knife,bicycle,150,0050_ps_dnn_150_bicycle_10_n03792782_5133.png,n03792782_5133.png,0.0,-1.1027339,-0.5556591,-0.38684025
alexnet_w3_mlp_simclrhn_probe2,1,51,NaN,bird,bird,120,0051_ps_dnn_120_bird_10_n02018207_6296.png,n02018207_6296.png,1.0,0.035485264,-0.06887831,0.07379619
alexnet_w3_mlp_simclrhn_probe2,1,52,NaN,elephant,bird,30,0052_ps_dnn_30_bird_10_n01817953_11996.png,n01817953_11996.png,0.0,-6.824729,0.77516687,-5.373938
alexnet_w3_mlp_simclrhn_probe2,1,53,NaN,oven,keyboard,150,0053_ps_dnn_150_keyboard_10_n03085013_3148.png,n03085013_3148.png,0.0,-2.50672,-0.16905278,-1.6529803
alexnet_w3_mlp_simclrhn_probe2,1,54,NaN,bear,bear,60,0054_ps_dnn_60_bear_10_n02134418_5537.png,n02134418_5537.png,1.0,2.0185392,-0.32365423,1.6561809
alexnet_w3_mlp_simclrhn_probe2,1,55,NaN,knife,cat,150,0055_ps_dnn_150_cat_10_n02125311_11409.png,n02125311_11409.png,0.0,-1.9536914,-0.6972142,-0.8884635
alexnet_w3_mlp_simclrhn_probe2,1,56,NaN,bird,knife,30,0056_ps_dnn_30_knife_10_n03041632_3063.png,n03041632_3063.png,0.0,-4.016812,-1.362054,-1.8771974
alexnet_w3_mlp_simclrhn_probe2,1,57,NaN,bear,dog,60,0057_ps_dnn_60_dog_10_n02106550_6424.png,n02106550_6424.png,0.0,-0.6025265,0.22405024,-0.584478
alexnet_w3_mlp_simclrhn_probe2,1,58,NaN,bear,bear,30,0058_ps_dnn_30_bear_10_n02133161_7032.png,n02133161_7032.png,1.0,1.6953686,1.5631189,0.09351467
alexnet_w3_mlp_simclrhn_probe2,1,59,NaN,knife,cat,150,0059_ps_dnn_150_cat_10_n02125311_5570.png,n02125311_5570.png,0.0,-1.8074058,-0.89968514,-0.6418555
alexnet_w3_mlp_simclrhn_probe2,1,60,NaN,bear,bird,30,0060_ps_dnn_30_bird_10_n01843383_13894.png,n01843383_13894.png,0.0,0.08296713,0.80912805,-0.5134733
alexnet_w3_mlp_simclrhn_probe2,1,61,NaN,oven,bottle,60,0061_ps_dnn_60_bottle_10_n03983396_2205.png,n03983396_2205.png,0.0,-1.9841846,1.5644526,-2.5092657
alexnet_w3_mlp_simclrhn_probe2,1,62,NaN,bicycle,bicycle,60,0062_ps_dnn_60_bicycle_10_n03792782_31010.png,n03792782_31010.png,1.0,4.5178576,-1.5805241,4.312207
alexnet_w3_mlp_simclrhn_probe2,1,63,NaN,bottle,bottle,60,0063_ps_dnn_60_bottle_10_n02823428_880.png,n02823428_880.png,1.0,4.524855,0.59406507,2.7794883
alexnet_w3_mlp_simclrhn_probe2,1,64,NaN,knife,car,180,0064_ps_dnn_180_car_10_n02814533_40459.png,n02814533_40459.png,0.0,-3.9862912,-0.9348617,-2.1576865
alexnet_w3_mlp_simclrhn_probe2,1,65,NaN,bear,cat,120,0065_ps_dnn_120_cat_10_n02123045_567.png,n02123045_567.png,0.0,-0.89856476,-0.44070634,-0.3237548
alexnet_w3_mlp_simclrhn_probe2,1,66,NaN,elephant,knife,120,0066_ps_dnn_120_knife_10_n03041632_24541.png,n03041632_24541.png,0.0,-0.55963147,-0.32800847,-0.1637822
alexnet_w3_mlp_simclrhn_probe2,1,67,NaN,elephant,elephant,30,0067_ps_dnn_30_elephant_10_n02504458_8644.png,n02504458_8644.png,1.0,5.0509734,0.577757,3.1630418
alexnet_w3_mlp_simclrhn_probe2,1,68,NaN,keyboard,keyboard,0,0068_ps_dnn_0_keyboard_10_n03085013_2166.png,n03085013_2166.png,1.0,6.4250307,1.9852053,3.1394308
alexnet_w3_mlp_simclrhn_probe2,1,69,NaN,bear,boat,90,0069_ps_dnn_90_boat_10_n04273569_13972.png,n04273569_13972.png,0.0,-1.5457741,-0.18676744,-0.96096283
alexnet_w3_mlp_simclrhn_probe2,1,70,NaN,knife,airplane,150,0070_ps_dnn_150_airplane_10_n02690373_9432.png,n02690373_9432.png,0.0,-3.2813706,-0.29615554,-2.1108658
alexnet_w3_mlp_simclrhn_probe2,1,71,NaN,oven,truck,90,0071_ps_dnn_90_truck_10_n03417042_5228.png,n03417042_5228.png,0.0,-4.1515417,0.90954465,-3.5787284
alexnet_w3_mlp_simclrhn_probe2,1,72,NaN,airplane,airplane,0,0072_ps_dnn_0_airplane_10_n02690373_4294.png,n02690373_4294.png,1.0,7.768091,2.091282,4.0141106
alexnet_w3_mlp_simclrhn_probe2,1,73,NaN,clock,chair,30,0073_ps_dnn_30_chair_10_n04099969_52474.png,n04099969_52474.png,0.0,-0.17667013,1.0155886,-0.8430543
alexnet_w3_mlp_simclrhn_probe2,1,74,NaN,oven,oven,30,0074_ps_dnn_30_oven_10_n04111531_21822.png,n04111531_21822.png,1.0,3.6570303,2.478351,0.8334521
alexnet_w3_mlp_simclrhn_probe2,1,75,NaN,oven,oven,150,0075_ps_dnn_150_oven_10_n04111531_15735.png,n04111531_15735.png,1.0,0.14564948,0.009214878,0.096473835
alexnet_w3_mlp_simclrhn_probe2,1,76,NaN,elephant,dog,120,0076_ps_dnn_120_dog_10_n02104029_7335.png,n02104029_7335.png,0.0,-0.68368626,-0.22225735,-0.32627952
alexnet_w3_mlp_simclrhn_probe2,1,77,NaN,bear,truck,150,0077_ps_dnn_150_truck_10_n03417042_17911.png,n03417042_17911.png,0.0,-4.605274,-0.37377536,-2.9921215
alexnet_w3_mlp_simclrhn_probe2,1,78,NaN,boat,clock,30,0078_ps_dnn_30_clock_10_n02708093_899.png,n02708093_899.png,0.0,-0.8063197,0.30254924,-0.7840888
alexnet_w3_mlp_simclrhn_probe2,1,79,NaN,boat,boat,60,0079_ps_dnn_60_boat_10_n03662601_9590.png,n03662601_9590.png,1.0,4.650294,0.90769285,2.6464186
alexnet_w3_mlp_simclrhn_probe2,1,80,NaN,oven,chair,90,0080_ps_dnn_90_chair_10_n02791124_6550.png,n02791124_6550.png,0.0,-4.9881306,-0.00090150535,-3.5265033
alexnet_w3_mlp_simclrhn_probe2,1,81,NaN,oven,clock,180,0081_ps_dnn_180_clock_10_n03196217_4492.png,n03196217_4492.png,0.0,-0.8640442,0.3363638,-0.84881663
alexnet_w3_mlp_simclrhn_probe2,1,82,NaN,car,car,30,0082_ps_dnn_30_car_10_n04285008_14128.png,n04285008_14128.png,1.0,5.6628127,1.9116385,2.6524808
alexnet_w3_mlp_simclrhn_probe2,1,83,NaN,bicycle,bicycle,60,0083_ps_dnn_60_bicycle_10_n02835271_4730.png,n02835271_4730.png,1.0,1.9989772,0.071779765,1.3627344
alexnet_w3_mlp_simclrhn_probe2,1,84,NaN,elephant,elephant,0,0084_ps_dnn_0_elephant_10_n02504458_62.png,n02504458_62.png,1.0,15.836836,1.9281355,9.834936
alexnet_w3_mlp_simclrhn_probe2,1,85,NaN,bear,dog,120,0085_ps_dnn_120_dog_10_n02086646_8144.png,n02086646_8144.png,0.0,-1.3829995,0.014031254,-0.98785
alexnet_w3_mlp_simclrhn_probe2,1,86,NaN,knife,knife,60,0086_ps_dnn_60_knife_10_n03041632_1671.png,n03041632_1671.png,1.0,-0.19735973,-1.6747183,1.0446503
alexnet_w3_mlp_simclrhn_probe2,1,87,NaN,bear,bird,180,0087_ps_dnn_180_bird_10_n01534433_10801.png,n01534433_10801.png,0.0,-0.686522,-0.39374793,-0.20702255
alexnet_w3_mlp_simclrhn_probe2,1,88,NaN,oven,keyboard,150,0088_ps_dnn_150_keyboard_10_n03085013_20570.png,n03085013_20570.png,0.0,-3.542375,-0.38052127,-2.2357683
alexnet_w3_mlp_simclrhn_probe2,1,89,NaN,knife,knife,150,0089_ps_dnn_150_knife_10_n03041632_4808.png,n03041632_4808.png,1.0,-0.106652096,-1.2075672,0.77846456
alexnet_w3_mlp_simclrhn_probe2,1,90,NaN,knife,keyboard,180,0090_ps_dnn_180_keyboard_10_n03085013_1808.png,n03085013_1808.png,0.0,-1.435654,0.04606947,-1.0477368
alexnet_w3_mlp_simclrhn_probe2,1,91,NaN,oven,truck,120,0091_ps_dnn_120_truck_10_n03796401_4370.png,n03796401_4370.png,0.0,-3.477474,-0.4991566,-2.1059883
alexnet_w3_mlp_simclrhn_probe2,1,92,NaN,airplane,airplane,60,0092_ps_dnn_60_airplane_10_n02690373_6314.png,n02690373_6314.png,1.0,2.9245293,1.2917947,1.1545178
alexnet_w3_mlp_simclrhn_probe2,1,93,NaN,oven,oven,90,0093_ps_dnn_90_oven_10_n04111531_4879.png,n04111531_4879.png,1.0,1.0747614,-0.9969452,1.4649178
alexnet_w3_mlp_simclrhn_probe2,1,94,NaN,knife,airplane,180,0094_ps_dnn_180_airplane_10_n02690373_4375.png,n02690373_4375.png,0.0,-1.7922219,0.23093015,-1.4305845
alexnet_w3_mlp_simclrhn_probe2,1,95,NaN,oven,bottle,60,0095_ps_dnn_60_bottle_10_n04557648_4133.png,n04557648_4133.png,0.0,0.012984573,0.57646805,-0.39844298
alexnet_w3_mlp_simclrhn_probe2,1,96,NaN,bear,bicycle,120,0096_ps_dnn_120_bicycle_10_n02835271_19213.png,n02835271_19213.png,0.0,-1.0716906,-0.5833734,-0.34529236
alexnet_w3_mlp_simclrhn_probe2,1,97,NaN,knife,bear,150,0097_ps_dnn_150_bear_10_n02132136_10577.png,n02132136_10577.png,0.0,-0.74409515,-0.68049085,-0.044975027
alexnet_w3_mlp_simclrhn_probe2,1,98,NaN,airplane,airplane,90,0098_ps_dnn_90_airplane_10_n02690373_3147.png,n02690373_3147.png,1.0,0.43864357,0.1772497,0.18483338
alexnet_w3_mlp_simclrhn_probe2,1,99,NaN,elephant,elephant,60,0099_ps_dnn_60_elephant_10_n02504013_10389.png,n02504013_10389.png,1.0,4.0176764,2.1550765,1.317057
alexnet_w3_mlp_simclrhn_probe2,1,100,NaN,oven,chair,150,0100_ps_dnn_150_chair_10_n02791124_5685.png,n02791124_5685.png,0.0,-1.5922257,-0.3875947,-0.85180277
alexnet_w3_mlp_simclrhn_probe2,1,101,NaN,oven,bird,60,0101_ps_dnn_60_bird_10_n01817953_6333.png,n01817953_6333.png,0.0,-2.2842715,-0.3295556,-1.3821929
alexnet_w3_mlp_simclrhn_probe2,1,102,NaN,knife,keyboard,90,0102_ps_dnn_90_keyboard_10_n03085013_20247.png,n03085013_20247.png,0.0,-0.3223412,-0.062668964,-0.183616
alexnet_w3_mlp_simclrhn_probe2,1,103,NaN,airplane,airplane,0,0103_ps_dnn_0_airplane_10_n02690373_5729.png,n02690373_5729.png,1.0,9.1114,-1.5778072,7.558411
alexnet_w3_mlp_simclrhn_probe2,1,104,NaN,bicycle,bicycle,90,0104_ps_dnn_90_bicycle_10_n03792782_55532.png,n03792782_55532.png,1.0,3.1957402,-1.4348567,3.2743266
alexnet_w3_mlp_simclrhn_probe2,1,105,NaN,bicycle,bicycle,0,0105_ps_dnn_0_bicycle_10_n02835271_8417.png,n02835271_8417.png,1.0,9.499981,-1.5518332,7.8148127
alexnet_w3_mlp_simclrhn_probe2,1,106,NaN,oven,clock,60,0106_ps_dnn_60_clock_10_n03196217_599.png,n03196217_599.png,0.0,-0.70846105,1.0615189,-1.2515649
alexnet_w3_mlp_simclrhn_probe2,1,107,NaN,airplane,airplane,0,0107_ps_dnn_0_airplane_10_n02690373_1952.png,n02690373_1952.png,1.0,4.0599766,-0.24043365,3.0408492
alexnet_w3_mlp_simclrhn_probe2,1,108,NaN,knife,bear,180,0108_ps_dnn_180_bear_10_n02134084_23061.png,n02134084_23061.png,0.0,-1.0997937,-0.5976274,-0.3550852
alexnet_w3_mlp_simclrhn_probe2,1,109,NaN,elephant,bicycle,150,0109_ps_dnn_150_bicycle_10_n03792782_27445.png,n03792782_27445.png,0.0,-1.3681583,-0.64974564,-0.5079945
alexnet_w3_mlp_simclrhn_probe2,1,110,NaN,bottle,clock,30,0110_ps_dnn_30_clock_10_n03196217_6348.png,n03196217_6348.png,0.0,-2.7884462,-1.6582838,-0.79914546
alexnet_w3_mlp_simclrhn_probe2,1,111,NaN,bear,bear,90,0111_ps_dnn_90_bear_10_n02132136_5778.png,n02132136_5778.png,1.0,0.2957888,0.19291107,0.07274554
alexnet_w3_mlp_simclrhn_probe2,1,112,NaN,knife,boat,90,0112_ps_dnn_90_boat_10_n04273569_4772.png,n04273569_4772.png,0.0,-1.3671414,0.5959801,-1.3881365
alexnet_w3_mlp_simclrhn_probe2,1,113,NaN,oven,oven,180,0113_ps_dnn_180_oven_10_n04111531_23830.png,n04111531_23830.png,1.0,-0.5656588,-1.5623738,0.7047839
alexnet_w3_mlp_simclrhn_probe2,1,114,NaN,knife,bird,150,0114_ps_dnn_150_bird_10_n01855032_1306.png,n01855032_1306.png,0.0,-0.7715321,-0.387825,-0.2713219
alexnet_w3_mlp_simclrhn_probe2,1,115,NaN,elephant,elephant,60,0115_ps_dnn_60_elephant_10_n02504013_8905.png,n02504013_8905.png,1.0,3.7206688,1.591847,1.5053043
alexnet_w3_mlp_simclrhn_probe2,1,116,NaN,oven,truck,60,0116_ps_dnn_60_truck_10_n04467665_30461.png,n04467665_30461.png,0.0,-1.7655853,-0.024539761,-1.2311052
alexnet_w3_mlp_simclrhn_probe2,1,117,NaN,knife,knife,60,0117_ps_dnn_60_knife_10_n03041632_20662.png,n03041632_20662.png,1.0,-0.42998123,-1.0518384,0.43971944
alexnet_w3_mlp_simclrhn_probe2,1,118,NaN,oven,boat,180,0118_ps_dnn_180_boat_10_n03662601_15915.png,n03662601_15915.png,0.0,-3.2546265,-0.9600425,-1.6225159
alexnet_w3_mlp_simclrhn_probe2,1,119,NaN,bear,boat,150,0119_ps_dnn_150_boat_10_n04273569_62.png,n04273569_62.png,0.0,-0.8786171,-0.6242132,-0.17989072
alexnet_w3_mlp_simclrhn_probe2,1,120,NaN,bear,bicycle,180,0120_ps_dnn_180_bicycle_10_n03792782_8080.png,n03792782_8080.png,0.0,-1.3448628,-0.63252866,-0.5036963
alexnet_w3_mlp_simclrhn_probe2,1,121,NaN,bear,airplane,120,0121_ps_dnn_120_airplane_10_n02690373_10309.png,n02690373_10309.png,0.0,-2.6861186,-0.3573081,-1.6467177
alexnet_w3_mlp_simclrhn_probe2,1,122,NaN,dog,dog,30,0122_ps_dnn_30_dog_10_n02093859_1001.png,n02093859_1001.png,1.0,0.39538077,-1.3239161,1.2157265
alexnet_w3_mlp_simclrhn_probe2,1,123,NaN,oven,oven,0,0123_ps_dnn_0_oven_10_n04111531_15267.png,n04111531_15267.png,1.0,5.081044,0.20699455,3.4464736
alexnet_w3_mlp_simclrhn_probe2,1,124,NaN,bear,cat,90,0124_ps_dnn_90_cat_10_n02124075_81.png,n02124075_81.png,0.0,-0.4520178,0.96821064,-1.0042531
alexnet_w3_mlp_simclrhn_probe2,1,125,NaN,elephant,elephant,60,0125_ps_dnn_60_elephant_10_n02504013_7314.png,n02504013_7314.png,1.0,3.0813267,2.1227288,0.6778311
alexnet_w3_mlp_simclrhn_probe2,1,126,NaN,oven,bottle,120,0126_ps_dnn_120_bottle_10_n03983396_3294.png,n03983396_3294.png,0.0,-1.4213123,-0.18729505,-0.87258196
alexnet_w3_mlp_simclrhn_probe2,1,127,NaN,cat,cat,60,0127_ps_dnn_60_cat_10_n02123159_3201.png,n02123159_3201.png,1.0,5.3474507,-1.8667608,5.1012177
alexnet_w3_mlp_simclrhn_probe2,1,128,NaN,bear,dog,90,0128_ps_dnn_90_dog_10_n02101388_11601.png,n02101388_11601.png,0.0,-0.5599479,0.11538108,-0.4775297
alexnet_w3_mlp_simclrhn_probe2,1,129,NaN,cat,cat,30,0129_ps_dnn_30_cat_10_n02123597_4442.png,n02123597_4442.png,1.0,1.0425743,0.43581906,0.42904076
alexnet_w3_mlp_simclrhn_probe2,1,130,NaN,airplane,airplane,30,0130_ps_dnn_30_airplane_10_n02690373_1950.png,n02690373_1950.png,1.0,6.2045894,2.3544626,2.7224507
alexnet_w3_mlp_simclrhn_probe2,1,131,NaN,elephant,bird,120,0131_ps_dnn_120_bird_10_n01616318_4652.png,n01616318_4652.png,0.0,-1.0802827,-0.093747586,-0.69758564
alexnet_w3_mlp_simclrhn_probe2,1,132,NaN,boat,airplane,90,0132_ps_dnn_90_airplane_10_n02690373_17937.png,n02690373_17937.png,0.0,0.34454024,0.41732225,-0.051464655
alexnet_w3_mlp_simclrhn_probe2,1,133,NaN,clock,clock,30,0133_ps_dnn_30_clock_10_n02708093_1125.png,n02708093_1125.png,1.0,4.479241,-1.0871065,3.9360018
alexnet_w3_mlp_simclrhn_probe2,1,134,NaN,bear,elephant,150,0134_ps_dnn_150_elephant_10_n02504458_6499.png,n02504458_6499.png,0.0,-0.46470228,-0.2613907,-0.143763
alexnet_w3_mlp_simclrhn_probe2,1,135,NaN,oven,clock,30,0135_ps_dnn_30_clock_10_n02708093_51.png,n02708093_51.png,0.0,-2.5366852,0.034626484,-1.818192
alexnet_w3_mlp_simclrhn_probe2,1,136,NaN,oven,bicycle,90,0136_ps_dnn_90_bicycle_10_n02835271_13180.png,n02835271_13180.png,0.0,-2.653833,0.58820313,-2.2924657
alexnet_w3_mlp_simclrhn_probe2,1,137,NaN,bear,cat,120,0137_ps_dnn_120_cat_10_n02123597_7297.png,n02123597_7297.png,0.0,-1.1395917,-0.5354962,-0.42716005
alexnet_w3_mlp_simclrhn_probe2,1,138,NaN,oven,clock,30,0138_ps_dnn_30_clock_10_n04548280_1109.png,n04548280_1109.png,0.0,-3.631801,1.7063477,-3.774641
alexnet_w3_mlp_simclrhn_probe2,1,139,NaN,clock,clock,60,0139_ps_dnn_60_clock_10_n04548280_1304.png,n04548280_1304.png,1.0,-0.7765135,-2.0934203,0.93119365
alexnet_w3_mlp_simclrhn_probe2,1,140,NaN,knife,bird,180,0140_ps_dnn_180_bird_10_n01833805_8179.png,n01833805_8179.png,0.0,-0.86514074,-0.32525113,-0.38175958
alexnet_w3_mlp_simclrhn_probe2,1,141,NaN,bottle,bottle,60,0141_ps_dnn_60_bottle_10_n03983396_24525.png,n03983396_24525.png,1.0,1.4229128,0.058944225,0.96447146
alexnet_w3_mlp_simclrhn_probe2,1,142,NaN,oven,elephant,120,0142_ps_dnn_120_elephant_10_n02504013_5945.png,n02504013_5945.png,0.0,-1.1816362,-0.5959162,-0.4141666
alexnet_w3_mlp_simclrhn_probe2,1,143,NaN,oven,airplane,120,0143_ps_dnn_120_airplane_10_n02690373_13610.png,n02690373_13610.png,0.0,-3.0156703,1.054961,-2.8783708
alexnet_w3_mlp_simclrhn_probe2,1,144,NaN,elephant,knife,90,0144_ps_dnn_90_knife_10_n03041632_21859.png,n03041632_21859.png,0.0,-0.5078645,-0.48369047,-0.017093603
alexnet_w3_mlp_simclrhn_probe2,1,145,NaN,cat,cat,60,0145_ps_dnn_60_cat_10_n02123045_568.png,n02123045_568.png,1.0,0.5633517,-0.058513086,0.43972483
alexnet_w3_mlp_simclrhn_probe2,1,146,NaN,knife,clock,180,0146_ps_dnn_180_clock_10_n02708093_960.png,n02708093_960.png,0.0,-1.4198235,-0.7032374,-0.5067029
alexnet_w3_mlp_simclrhn_probe2,1,147,NaN,bear,bicycle,120,0147_ps_dnn_120_bicycle_10_n02835271_9669.png,n02835271_9669.png,0.0,-0.7334436,-0.34925622,-0.27166152
alexnet_w3_mlp_simclrhn_probe2,1,148,NaN,bear,cat,60,0148_ps_dnn_60_cat_10_n02123597_14647.png,n02123597_14647.png,0.0,0.8659859,0.9089446,-0.030376414
alexnet_w3_mlp_simclrhn_probe2,1,149,NaN,bicycle,bicycle,0,0149_ps_dnn_0_bicycle_10_n02835271_7794.png,n02835271_7794.png,1.0,3.5694733,-2.1763258,4.0628934
alexnet_w3_mlp_simclrhn_probe2,1,150,NaN,bird,bird,0,0150_ps_dnn_0_bird_10_n02011460_5925.png,n02011460_5925.png,1.0,0.034557834,-1.1293821,0.8230299
alexnet_w3_mlp_simclrhn_probe2,1,151,NaN,oven,oven,90,0151_ps_dnn_90_oven_10_n04111531_8852.png,n04111531_8852.png,1.0,0.0973203,-0.32739592,0.30031973
alexnet_w3_mlp_simclrhn_probe2,1,152,NaN,oven,knife,90,0152_ps_dnn_90_knife_10_n03041632_84086.png,n03041632_84086.png,0.0,-2.3062778,1.6682909,-2.8104444
alexnet_w3_mlp_simclrhn_probe2,1,153,NaN,car,car,60,0153_ps_dnn_60_car_10_n03100240_13602.png,n03100240_13602.png,1.0,5.031667,2.0813932,2.0861588
alexnet_w3_mlp_simclrhn_probe2,1,154,NaN,knife,dog,180,0154_ps_dnn_180_dog_10_n02106662_43958.png,n02106662_43958.png,0.0,-2.008964,-0.7843383,-0.8659412
alexnet_w3_mlp_simclrhn_probe2,1,155,NaN,chair,chair,30,0155_ps_dnn_30_chair_10_n02791124_1292.png,n02791124_1292.png,1.0,0.47615305,-0.4508899,0.65551835
alexnet_w3_mlp_simclrhn_probe2,1,156,NaN,bear,dog,90,0156_ps_dnn_90_dog_10_n02085782_4522.png,n02085782_4522.png,0.0,-1.3155445,0.70515513,-1.4288503
alexnet_w3_mlp_simclrhn_probe2,1,157,NaN,bear,bear,60,0157_ps_dnn_60_bear_10_n02132136_686.png,n02132136_686.png,1.0,3.852229,2.916863,0.6614038
alexnet_w3_mlp_simclrhn_probe2,1,158,NaN,bear,bird,120,0158_ps_dnn_120_bird_10_n01796340_12914.png,n01796340_12914.png,0.0,-0.9068473,-0.28695887,-0.4383273
alexnet_w3_mlp_simclrhn_probe2,1,159,NaN,knife,knife,60,0159_ps_dnn_60_knife_10_n03041632_24060.png,n03041632_24060.png,1.0,0.34824127,0.30497602,0.030593155
alexnet_w3_mlp_simclrhn_probe2,1,160,NaN,knife,bottle,180,0160_ps_dnn_180_bottle_10_n03983396_4775.png,n03983396_4775.png,0.0,-0.98391145,-0.048683852,-0.6613058
alexnet_w3_mlp_simclrhn_probe2,1,161,NaN,knife,keyboard,120,0161_ps_dnn_120_keyboard_10_n04505470_1516.png,n04505470_1516.png,0.0,-2.3614633,-1.082628,-0.90427315
alexnet_w3_mlp_simclrhn_probe2,1,162,NaN,knife,boat,150,0162_ps_dnn_150_boat_10_n03344393_4944.png,n03344393_4944.png,0.0,-1.8755484,0.2142576,-1.4777161
alexnet_w3_mlp_simclrhn_probe2,1,163,NaN,knife,cat,150,0163_ps_dnn_150_cat_10_n02123159_3524.png,n02123159_3524.png,0.0,-1.996542,-0.22451997,-1.2530088
alexnet_w3_mlp_simclrhn_probe2,1,164,NaN,airplane,truck,60,0164_ps_dnn_60_truck_10_n04467665_50648.png,n04467665_50648.png,0.0,-1.0461804,1.2763551,-1.6422807
alexnet_w3_mlp_simclrhn_probe2,1,165,NaN,dog,dog,0,0165_ps_dnn_0_dog_10_n02107574_1277.png,n02107574_1277.png,1.0,-1.1785601,-2.0744917,0.63351935
alexnet_w3_mlp_simclrhn_probe2,1,166,NaN,oven,oven,60,0166_ps_dnn_60_oven_10_n04111531_21980.png,n04111531_21980.png,1.0,3.9324598,0.118508875,2.6968706
alexnet_w3_mlp_simclrhn_probe2,1,167,NaN,oven,boat,120,0167_ps_dnn_120_boat_10_n03344393_11315.png,n03344393_11315.png,0.0,-2.738295,-0.28382725,-1.7355708
alexnet_w3_mlp_simclrhn_probe2,1,168,NaN,oven,knife,90,0168_ps_dnn_90_knife_10_n03041632_32896.png,n03041632_32896.png,0.0,-0.51255804,0.4059068,-0.64945275
alexnet_w3_mlp_simclrhn_probe2,1,169,NaN,bottle,bottle,30,0169_ps_dnn_30_bottle_10_n03937543_3133.png,n03937543_3133.png,1.0,0.14550778,-0.5083443,0.46234328
alexnet_w3_mlp_simclrhn_probe2,1,170,NaN,oven,car,180,0170_ps_dnn_180_car_10_n04285008_15213.png,n04285008_15213.png,0.0,-5.245029,-0.36859056,-3.4481628
alexnet_w3_mlp_simclrhn_probe2,1,171,NaN,oven,elephant,90,0171_ps_dnn_90_elephant_10_n02504013_3081.png,n02504013_3081.png,0.0,0.031406537,0.40503755,-0.26419702
alexnet_w3_mlp_simclrhn_probe2,1,172,NaN,cat,cat,60,0172_ps_dnn_60_cat_10_n02123159_6873.png,n02123159_6873.png,1.0,0.26126704,-1.244267,1.0645734
alexnet_w3_mlp_simclrhn_probe2,1,173,NaN,bottle,bottle,60,0173_ps_dnn_60_bottle_10_n04579145_4385.png,n04579145_4385.png,1.0,4.9029746,-2.0389733,4.9086986
alexnet_w3_mlp_simclrhn_probe2,1,174,NaN,bear,bear,60,0174_ps_dnn_60_bear_10_n02134418_2185.png,n02134418_2185.png,1.0,1.42029,0.6148356,0.5695423
alexnet_w3_mlp_simclrhn_probe2,1,175,NaN,bear,chair,150,0175_ps_dnn_150_chair_10_n04429376_16002.png,n04429376_16002.png,0.0,-1.4555701,-0.64945644,-0.57000846
alexnet_w3_mlp_simclrhn_probe2,1,176,NaN,oven,car,60,0176_ps_dnn_60_car_10_n03100240_8107.png,n03100240_8107.png,0.0,-0.4313798,0.74711776,-0.8333236
alexnet_w3_mlp_simclrhn_probe2,1,177,NaN,boat,boat,60,0177_ps_dnn_60_boat_10_n04273569_15906.png,n04273569_15906.png,1.0,0.4206129,-0.42801243,0.6000687
alexnet_w3_mlp_simclrhn_probe2,1,178,NaN,elephant,car,150,0178_ps_dnn_150_car_10_n02814533_85659.png,n02814533_85659.png,0.0,-3.1997783,-0.6650381,-1.792332
alexnet_w3_mlp_simclrhn_probe2,1,179,NaN,oven,car,150,0179_ps_dnn_150_car_10_n02814533_87140.png,n02814533_87140.png,0.0,-6.3841343,-0.41306737,-4.222182
alexnet_w3_mlp_simclrhn_probe2,1,180,NaN,keyboard,keyboard,30,0180_ps_dnn_30_keyboard_10_n03085013_7520.png,n03085013_7520.png,1.0,5.195054,0.86693335,3.0604436
alexnet_w3_mlp_simclrhn_probe2,1,181,NaN,cat,dog,90,0181_ps_dnn_90_dog_10_n02112018_10082.png,n02112018_10082.png,0.0,-0.7229364,1.0279855,-1.2380887
alexnet_w3_mlp_simclrhn_probe2,1,182,NaN,bear,bear,90,0182_ps_dnn_90_bear_10_n02134084_5733.png,n02134084_5733.png,1.0,0.52391154,0.08322787,0.3116104
alexnet_w3_mlp_simclrhn_probe2,1,183,NaN,oven,cat,90,0183_ps_dnn_90_cat_10_n02123597_3821.png,n02123597_3821.png,0.0,-1.4550829,1.3629708,-1.9926649
alexnet_w3_mlp_simclrhn_probe2,1,184,NaN,knife,boat,120,0184_ps_dnn_120_boat_10_n04612504_15256.png,n04612504_15256.png,0.0,-2.4690673,-0.47512814,-1.409928
alexnet_w3_mlp_simclrhn_probe2,1,185,NaN,oven,car,90,0185_ps_dnn_90_car_10_n02814533_84296.png,n02814533_84296.png,0.0,-4.826666,0.94376826,-4.080313
alexnet_w3_mlp_simclrhn_probe2,1,186,NaN,bear,clock,120,0186_ps_dnn_120_clock_10_n04548280_5295.png,n04548280_5295.png,0.0,-1.131895,-0.3468021,-0.5551445
alexnet_w3_mlp_simclrhn_probe2,1,187,NaN,airplane,airplane,30,0187_ps_dnn_30_airplane_10_n02690373_11799.png,n02690373_11799.png,1.0,5.251111,-1.401592,4.7041717
alexnet_w3_mlp_simclrhn_probe2,1,188,NaN,elephant,dog,120,0188_ps_dnn_120_dog_10_n02092002_9876.png,n02092002_9876.png,0.0,-1.3688225,0.19985142,-1.1092199
alexnet_w3_mlp_simclrhn_probe2,1,189,NaN,chair,chair,0,0189_ps_dnn_0_chair_10_n02791124_16885.png,n02791124_16885.png,1.0,1.5829914,0.8932919,0.4876912
alexnet_w3_mlp_simclrhn_probe2,1,190,NaN,knife,airplane,60,0190_ps_dnn_60_airplane_10_n02690373_9376.png,n02690373_9376.png,0.0,-2.963172,-0.5274167,-1.722339
alexnet_w3_mlp_simclrhn_probe2,1,191,NaN,knife,oven,180,0191_ps_dnn_180_oven_10_n04111531_6474.png,n04111531_6474.png,0.0,-1.7340195,-0.5217176,-0.85722697
alexnet_w3_mlp_simclrhn_probe2,1,192,NaN,knife,knife,180,0192_ps_dnn_180_knife_10_n03041632_44230.png,n03041632_44230.png,1.0,-0.48762548,-0.7832368,0.20902878
alexnet_w3_mlp_simclrhn_probe2,1,193,NaN,knife,dog,180,0193_ps_dnn_180_dog_10_n02099601_6318.png,n02099601_6318.png,0.0,-1.246618,-0.23445912,-0.71570444
alexnet_w3_mlp_simclrhn_probe2,1,194,NaN,knife,cat,150,0194_ps_dnn_150_cat_10_n02125311_20241.png,n02125311_20241.png,0.0,-0.81107515,-0.280156,-0.37541658
alexnet_w3_mlp_simclrhn_probe2,1,195,NaN,oven,truck,120,0195_ps_dnn_120_truck_10_n04467665_51397.png,n04467665_51397.png,0.0,-3.9911704,-0.16953646,-2.7023034
alexnet_w3_mlp_simclrhn_probe2,1,196,NaN,dog,dog,0,0196_ps_dnn_0_dog_10_n02104365_1500.png,n02104365_1500.png,1.0,0.761599,-1.1655903,1.3627287
alexnet_w3_mlp_simclrhn_probe2,1,197,NaN,knife,knife,90,0197_ps_dnn_90_knife_10_n03041632_3171.png,n03041632_3171.png,1.0,0.5329967,-1.3851808,1.3563564
alexnet_w3_mlp_simclrhn_probe2,1,198,NaN,oven,oven,60,0198_ps_dnn_60_oven_10_n04111531_249.png,n04111531_249.png,1.0,2.5656674,-0.70775867,2.3146617
alexnet_w3_mlp_simclrhn_probe2,1,199,NaN,bear,bear,90,0199_ps_dnn_90_bear_10_n02133161_8856.png,n02133161_8856.png,1.0,-0.27294028,-0.31376907,0.028870318
alexnet_w3_mlp_simclrhn_probe2,1,200,NaN,cat,cat,0,0200_ps_dnn_0_cat_10_n02123045_13354.png,n02123045_13354.png,1.0,11.170802,-3.8868139,10.647343
alexnet_w3_mlp_simclrhn_probe2,1,201,NaN,keyboard,keyboard,120,0201_ps_dnn_120_keyboard_10_n03085013_23267.png,n03085013_23267.png,1.0,0.6987226,0.10265466,0.4214837
alexnet_w3_mlp_simclrhn_probe2,1,202,NaN,truck,truck,30,0202_ps_dnn_30_truck_10_n03796401_22643.png,n03796401_22643.png,1.0,1.9413167,0.7726636,0.82636255
alexnet_w3_mlp_simclrhn_probe2,1,203,NaN,knife,elephant,180,0203_ps_dnn_180_elephant_10_n02504458_4572.png,n02504458_4572.png,0.0,-1.4562881,0.30816805,-1.247659
alexnet_w3_mlp_simclrhn_probe2,1,204,NaN,bear,truck,180,0204_ps_dnn_180_truck_10_n04467665_23173.png,n04467665_23173.png,0.0,-3.5171986,-0.5674791,-2.0857666
alexnet_w3_mlp_simclrhn_probe2,1,205,NaN,knife,bear,180,0205_ps_dnn_180_bear_10_n02134418_25040.png,n02134418_25040.png,0.0,-0.9225822,-0.07214036,-0.6013532
alexnet_w3_mlp_simclrhn_probe2,1,206,NaN,bicycle,bicycle,60,0206_ps_dnn_60_bicycle_10_n02835271_21185.png,n02835271_21185.png,1.0,1.8866363,-0.98839855,2.0329566
alexnet_w3_mlp_simclrhn_probe2,1,207,NaN,knife,boat,30,0207_ps_dnn_30_boat_10_n02951358_12664.png,n02951358_12664.png,0.0,-2.0620608,-0.13263759,-1.3643082
alexnet_w3_mlp_simclrhn_probe2,1,208,NaN,bottle,bottle,30,0208_ps_dnn_30_bottle_10_n03983396_11519.png,n03983396_11519.png,1.0,5.588429,0.52529836,3.580174
alexnet_w3_mlp_simclrhn_probe2,1,209,NaN,knife,knife,120,0209_ps_dnn_120_knife_10_n03041632_36280.png,n03041632_36280.png,1.0,-0.21745718,-1.0034497,0.55578065
alexnet_w3_mlp_simclrhn_probe2,1,210,NaN,airplane,truck,60,0210_ps_dnn_60_truck_10_n04467665_67115.png,n04467665_67115.png,0.0,-1.6440163,0.55034375,-1.5516468
alexnet_w3_mlp_simclrhn_probe2,1,211,NaN,bear,bear,30,0211_ps_dnn_30_bear_10_n02133161_1560.png,n02133161_1560.png,1.0,0.38698173,-0.34261155,0.5159004
alexnet_w3_mlp_simclrhn_probe2,1,212,NaN,oven,truck,180,0212_ps_dnn_180_truck_10_n03417042_6780.png,n03417042_6780.png,0.0,-2.3611577,0.52214074,-2.0388
alexnet_w3_mlp_simclrhn_probe2,1,213,NaN,knife,bear,150,0213_ps_dnn_150_bear_10_n02134084_20261.png,n02134084_20261.png,0.0,-0.5057701,-0.17520459,-0.23374511
alexnet_w3_mlp_simclrhn_probe2,1,214,NaN,knife,chair,180,0214_ps_dnn_180_chair_10_n03376595_8377.png,n03376595_8377.png,0.0,-2.6588743,-0.58428025,-1.4669595
alexnet_w3_mlp_simclrhn_probe2,1,215,NaN,knife,bird,180,0215_ps_dnn_180_bird_10_n01824575_3556.png,n01824575_3556.png,0.0,-1.0264275,-0.55248487,-0.33512807
alexnet_w3_mlp_simclrhn_probe2,1,216,NaN,oven,chair,90,0216_ps_dnn_90_chair_10_n04099969_36004.png,n04099969_36004.png,0.0,-1.400909,0.20815054,-1.1377769
alexnet_w3_mlp_simclrhn_probe2,1,217,NaN,bicycle,bicycle,0,0217_ps_dnn_0_bicycle_10_n02835271_22549.png,n02835271_22549.png,1.0,13.487888,-0.3035751,9.752038
alexnet_w3_mlp_simclrhn_probe2,1,218,NaN,clock,clock,150,0218_ps_dnn_150_clock_10_n04548280_8535.png,n04548280_8535.png,1.0,-0.17777056,-0.17787032,7.054329e-05
alexnet_w3_mlp_simclrhn_probe2,1,219,NaN,bear,knife,120,0219_ps_dnn_120_knife_10_n03041632_14546.png,n03041632_14546.png,0.0,-2.4202826,-0.43543565,-1.4034988
alexnet_w3_mlp_simclrhn_probe2,1,220,NaN,keyboard,keyboard,0,0220_ps_dnn_0_keyboard_10_n04505470_4974.png,n04505470_4974.png,1.0,12.284151,1.9837986,7.283449
alexnet_w3_mlp_simclrhn_probe2,1,221,NaN,clock,clock,0,0221_ps_dnn_0_clock_10_n04548280_487.png,n04548280_487.png,1.0,4.4447856,-0.0862933,3.2039566
alexnet_w3_mlp_simclrhn_probe2,1,222,NaN,truck,truck,30,0222_ps_dnn_30_truck_10_n03417042_10401.png,n03417042_10401.png,1.0,6.325101,1.9995059,3.0586576
alexnet_w3_mlp_simclrhn_probe2,1,223,NaN,knife,clock,180,0223_ps_dnn_180_clock_10_n03196217_6257.png,n03196217_6257.png,0.0,-2.6264844,-0.35824177,-1.6038897
alexnet_w3_mlp_simclrhn_probe2,1,224,NaN,bear,elephant,120,0224_ps_dnn_120_elephant_10_n02504458_1698.png,n02504458_1698.png,0.0,-1.0506477,-0.42657268,-0.4412877
alexnet_w3_mlp_simclrhn_probe2,1,225,NaN,knife,keyboard,180,0225_ps_dnn_180_keyboard_10_n03085013_23014.png,n03085013_23014.png,0.0,-2.9512126,-0.3497836,-1.8394881
alexnet_w3_mlp_simclrhn_probe2,1,226,NaN,cat,cat,60,0226_ps_dnn_60_cat_10_n02125311_17002.png,n02125311_17002.png,1.0,0.6678037,0.27676103,0.27650893
alexnet_w3_mlp_simclrhn_probe2,1,227,NaN,elephant,boat,180,0227_ps_dnn_180_boat_10_n03344393_5566.png,n03344393_5566.png,0.0,-1.1587689,-0.3915681,-0.5424929
alexnet_w3_mlp_simclrhn_probe2,1,228,NaN,knife,bicycle,150,0228_ps_dnn_150_bicycle_10_n02835271_4887.png,n02835271_4887.png,0.0,-2.966207,-0.7326958,-1.5793309
alexnet_w3_mlp_simclrhn_probe2,1,229,NaN,oven,keyboard,120,0229_ps_dnn_120_keyboard_10_n04505470_8386.png,n04505470_8386.png,0.0,-2.8131347,0.36288595,-2.2457857
alexnet_w3_mlp_simclrhn_probe2,1,230,NaN,bear,bear,120,0230_ps_dnn_120_bear_10_n02133161_361.png,n02133161_361.png,1.0,-0.18305078,-0.5011411,0.2249238
alexnet_w3_mlp_simclrhn_probe2,1,231,NaN,oven,bottle,0,0231_ps_dnn_0_bottle_10_n04560804_2165.png,n04560804_2165.png,0.0,-1.8654169,0.17117521,-1.440088
alexnet_w3_mlp_simclrhn_probe2,1,232,NaN,knife,cat,150,0232_ps_dnn_150_cat_10_n02124075_14020.png,n02124075_14020.png,0.0,-0.8757946,0.3408056,-0.86026627
alexnet_w3_mlp_simclrhn_probe2,1,233,NaN,clock,clock,150,0233_ps_dnn_150_clock_10_n04548280_3301.png,n04548280_3301.png,1.0,-0.53912675,-0.6687811,0.09167947
alexnet_w3_mlp_simclrhn_probe2,1,234,NaN,knife,knife,180,0234_ps_dnn_180_knife_10_n03041632_5820.png,n03041632_5820.png,1.0,-0.7032886,-0.7572992,0.03819124
alexnet_w3_mlp_simclrhn_probe2,1,235,NaN,oven,oven,120,0235_ps_dnn_120_oven_10_n04111531_2922.png,n04111531_2922.png,1.0,-0.26244956,-1.0701894,0.5711583
alexnet_w3_mlp_simclrhn_probe2,1,236,NaN,bear,bear,120,0236_ps_dnn_120_bear_10_n02134084_7441.png,n02134084_7441.png,1.0,-0.45577708,-0.72121,0.18768942
alexnet_w3_mlp_simclrhn_probe2,1,237,NaN,knife,airplane,150,0237_ps_dnn_150_airplane_10_n02690373_8252.png,n02690373_8252.png,0.0,-1.6330985,0.28498915,-1.3562927
alexnet_w3_mlp_simclrhn_probe2,1,238,NaN,bird,bird,150,0238_ps_dnn_150_bird_10_n02018207_69.png,n02018207_69.png,1.0,-0.92292607,-1.01003,0.061591804
alexnet_w3_mlp_simclrhn_probe2,1,239,NaN,bird,bird,30,0239_ps_dnn_30_bird_10_n01798484_5355.png,n01798484_5355.png,1.0,0.08693125,-1.1593813,0.881276
alexnet_w3_mlp_simclrhn_probe2,1,240,NaN,oven,keyboard,150,0240_ps_dnn_150_keyboard_10_n03085013_4999.png,n03085013_4999.png,0.0,-0.42221695,0.2293576,-0.4607328
alexnet_w3_mlp_simclrhn_probe2,1,241,NaN,oven,dog,120,0241_ps_dnn_120_dog_10_n02111500_3041.png,n02111500_3041.png,0.0,-1.6179017,-0.095775165,-1.076306
alexnet_w3_mlp_simclrhn_probe2,1,242,NaN,boat,boat,0,0242_ps_dnn_0_boat_10_n04612504_15237.png,n04612504_15237.png,1.0,6.5787554,-0.7589649,5.188552
alexnet_w3_mlp_simclrhn_probe2,1,243,NaN,knife,truck,150,0243_ps_dnn_150_truck_10_n03417042_6480.png,n03417042_6480.png,0.0,-4.381836,-0.5109009,-2.7371645
alexnet_w3_mlp_simclrhn_probe2,1,244,NaN,elephant,airplane,180,0244_ps_dnn_180_airplane_10_n02690373_8382.png,n02690373_8382.png,0.0,-3.4721556,-0.6618116,-1.9872134
alexnet_w3_mlp_simclrhn_probe2,1,245,NaN,oven,bottle,120,0245_ps_dnn_120_bottle_10_n04591713_2345.png,n04591713_2345.png,0.0,-1.0944918,0.74523,-1.3008798
alexnet_w3_mlp_simclrhn_probe2,1,246,NaN,elephant,elephant,60,0246_ps_dnn_60_elephant_10_n02504458_9516.png,n02504458_9516.png,1.0,3.588877,0.85964966,1.9298551
alexnet_w3_mlp_simclrhn_probe2,1,247,NaN,knife,elephant,180,0247_ps_dnn_180_elephant_10_n02504013_698.png,n02504013_698.png,0.0,-1.5711575,-0.5442698,-0.7261192
alexnet_w3_mlp_simclrhn_probe2,1,248,NaN,bear,bear,0,0248_ps_dnn_0_bear_10_n02133161_5292.png,n02133161_5292.png,1.0,6.1113977,1.5669503,3.2134097
alexnet_w3_mlp_simclrhn_probe2,1,249,NaN,bicycle,boat,90,0249_ps_dnn_90_boat_10_n02951358_14341.png,n02951358_14341.png,0.0,-1.8420236,-0.30515522,-1.08673
alexnet_w3_mlp_simclrhn_probe2,1,250,NaN,bear,bear,120,0250_ps_dnn_120_bear_10_n02133161_2304.png,n02133161_2304.png,1.0,-0.23766735,-0.2645839,0.019032864
alexnet_w3_mlp_simclrhn_probe2,1,251,NaN,knife,airplane,150,0251_ps_dnn_150_airplane_10_n02690373_1751.png,n02690373_1751.png,0.0,-2.6346009,0.041190974,-1.8920705
alexnet_w3_mlp_simclrhn_probe2,1,252,NaN,knife,truck,150,0252_ps_dnn_150_truck_10_n04467665_48953.png,n04467665_48953.png,0.0,-3.6291826,-0.11518479,-2.4847717
alexnet_w3_mlp_simclrhn_probe2,1,253,NaN,oven,oven,0,0253_ps_dnn_0_oven_10_n04111531_10077.png,n04111531_10077.png,1.0,7.538748,0.17646863,5.2059174
alexnet_w3_mlp_simclrhn_probe2,1,254,NaN,knife,dog,150,0254_ps_dnn_150_dog_10_n02097209_821.png,n02097209_821.png,0.0,-2.03889,-0.6014162,-1.0164474
alexnet_w3_mlp_simclrhn_probe2,1,255,NaN,truck,truck,0,0255_ps_dnn_0_truck_10_n04467665_13231.png,n04467665_13231.png,1.0,1.0812109,-0.7002309,1.2596695
alexnet_w3_mlp_simclrhn_probe2,1,256,NaN,bear,dog,90,0256_ps_dnn_90_dog_10_n02107908_3447.png,n02107908_3447.png,0.0,-0.8187272,-0.45564654,-0.2567368
alexnet_w3_mlp_simclrhn_probe2,1,257,NaN,knife,elephant,180,0257_ps_dnn_180_elephant_10_n02504013_5021.png,n02504013_5021.png,0.0,-1.0093288,-0.03737951,-0.68727195
alexnet_w3_mlp_simclrhn_probe2,1,258,NaN,oven,knife,90,0258_ps_dnn_90_knife_10_n03041632_12242.png,n03041632_12242.png,0.0,-0.5626619,-0.09172648,-0.3330016
alexnet_w3_mlp_simclrhn_probe2,1,259,NaN,knife,keyboard,150,0259_ps_dnn_150_keyboard_10_n03085013_22821.png,n03085013_22821.png,0.0,-1.6087921,-0.20274946,-0.9942223
alexnet_w3_mlp_simclrhn_probe2,1,260,NaN,knife,cat,150,0260_ps_dnn_150_cat_10_n02124075_2080.png,n02124075_2080.png,0.0,-1.6142603,-0.4536073,-0.8207056
alexnet_w3_mlp_simclrhn_probe2,1,261,NaN,bear,bicycle,180,0261_ps_dnn_180_bicycle_10_n02835271_7296.png,n02835271_7296.png,0.0,-0.8544545,-0.3358017,-0.3667429
alexnet_w3_mlp_simclrhn_probe2,1,262,NaN,knife,boat,180,0262_ps_dnn_180_boat_10_n04612504_4302.png,n04612504_4302.png,0.0,-1.8654959,-0.2068266,-1.1728563
alexnet_w3_mlp_simclrhn_probe2,1,263,NaN,elephant,clock,150,0263_ps_dnn_150_clock_10_n04548280_4524.png,n04548280_4524.png,0.0,-1.3811694,0.2880947,-1.1803479
alexnet_w3_mlp_simclrhn_probe2,1,264,NaN,bear,knife,150,0264_ps_dnn_150_knife_10_n03041632_19275.png,n03041632_19275.png,0.0,-0.6394298,-0.45985737,-0.12697689
alexnet_w3_mlp_simclrhn_probe2,1,265,NaN,bird,bird,30,0265_ps_dnn_30_bird_10_n01796340_2973.png,n01796340_2973.png,1.0,1.7502105,-1.7080551,2.4453633
alexnet_w3_mlp_simclrhn_probe2,1,266,NaN,oven,chair,90,0266_ps_dnn_90_chair_10_n02791124_15407.png,n02791124_15407.png,0.0,-1.4104166,2.0383584,-2.4386523
alexnet_w3_mlp_simclrhn_probe2,1,267,NaN,dog,dog,30,0267_ps_dnn_30_dog_10_n02109525_72594.png,n02109525_72594.png,1.0,1.26156,-1.9704959,2.2854087
alexnet_w3_mlp_simclrhn_probe2,1,268,NaN,bear,knife,150,0268_ps_dnn_150_knife_10_n03041632_19614.png,n03041632_19614.png,0.0,-0.6687312,-0.6384932,-0.021381518
alexnet_w3_mlp_simclrhn_probe2,1,269,NaN,keyboard,keyboard,30,0269_ps_dnn_30_keyboard_10_n04505470_5111.png,n04505470_5111.png,1.0,8.968939,2.5519848,4.537472
alexnet_w3_mlp_simclrhn_probe2,1,270,NaN,bicycle,bicycle,30,0270_ps_dnn_30_bicycle_10_n03792782_8374.png,n03792782_8374.png,1.0,5.937334,-1.7409313,5.4293537
alexnet_w3_mlp_simclrhn_probe2,1,271,NaN,knife,boat,120,0271_ps_dnn_120_boat_10_n04612504_2024.png,n04612504_2024.png,0.0,-2.2901142,-0.5774189,-1.2110585
alexnet_w3_mlp_simclrhn_probe2,1,272,NaN,bicycle,bicycle,30,0272_ps_dnn_30_bicycle_10_n02835271_9860.png,n02835271_9860.png,1.0,3.6868148,1.1527963,1.7918217
alexnet_w3_mlp_simclrhn_probe2,1,273,NaN,elephant,bear,60,0273_ps_dnn_60_bear_10_n02134084_21921.png,n02134084_21921.png,0.0,1.9322156,2.0253983,-0.06589011
alexnet_w3_mlp_simclrhn_probe2,1,274,NaN,bear,bear,90,0274_ps_dnn_90_bear_10_n02134418_836.png,n02134418_836.png,1.0,0.38687533,0.24908979,0.09742909
alexnet_w3_mlp_simclrhn_probe2,1,275,NaN,oven,chair,60,0275_ps_dnn_60_chair_10_n04429376_6141.png,n04429376_6141.png,0.0,-0.5621276,0.8272913,-0.9824675
alexnet_w3_mlp_simclrhn_probe2,1,276,NaN,truck,truck,30,0276_ps_dnn_30_truck_10_n04467665_6523.png,n04467665_6523.png,1.0,2.5031033,-0.772665,2.316318
alexnet_w3_mlp_simclrhn_probe2,1,277,NaN,oven,chair,90,0277_ps_dnn_90_chair_10_n04429376_41755.png,n04429376_41755.png,0.0,-1.2443998,-0.022928387,-0.86371076
alexnet_w3_mlp_simclrhn_probe2,1,278,NaN,knife,bottle,180,0278_ps_dnn_180_bottle_10_n04579145_3302.png,n04579145_3302.png,0.0,-0.7730679,0.13524899,-0.642277
alexnet_w3_mlp_simclrhn_probe2,1,279,NaN,cat,cat,0,0279_ps_dnn_0_cat_10_n02123045_12297.png,n02123045_12297.png,1.0,5.4657464,-2.3955789,5.5587964
alexnet_w3_mlp_simclrhn_probe2,1,280,NaN,bottle,clock,60,0280_ps_dnn_60_clock_10_n04548280_5734.png,n04548280_5734.png,0.0,-0.82610774,-0.4243471,-0.2840877
alexnet_w3_mlp_simclrhn_probe2,1,281,NaN,oven,elephant,90,0281_ps_dnn_90_elephant_10_n02504013_3640.png,n02504013_3640.png,0.0,-0.6365279,0.68397045,-0.93373334
alexnet_w3_mlp_simclrhn_probe2,1,282,NaN,knife,car,0,0282_ps_dnn_0_car_10_n03100240_2108.png,n03100240_2108.png,0.0,-3.9392116,-0.19506161,-2.6475139
alexnet_w3_mlp_simclrhn_probe2,1,283,NaN,elephant,car,90,0283_ps_dnn_90_car_10_n02814533_8499.png,n02814533_8499.png,0.0,-4.4468174,0.43812978,-3.4541795
alexnet_w3_mlp_simclrhn_probe2,1,284,NaN,knife,knife,180,0284_ps_dnn_180_knife_10_n03041632_9406.png,n03041632_9406.png,1.0,-1.5484405,-1.7361212,0.13271031
alexnet_w3_mlp_simclrhn_probe2,1,285,NaN,clock,clock,120,0285_ps_dnn_120_clock_10_n04548280_3968.png,n04548280_3968.png,1.0,-0.27181852,-0.5989183,0.2312945
alexnet_w3_mlp_simclrhn_probe2,1,286,NaN,cat,boat,120,0286_ps_dnn_120_boat_10_n04273569_20587.png,n04273569_20587.png,0.0,-0.6348236,-0.542582,-0.06522469
alexnet_w3_mlp_simclrhn_probe2,1,287,NaN,knife,truck,150,0287_ps_dnn_150_truck_10_n03796401_7261.png,n03796401_7261.png,0.0,-3.2611384,-0.51806843,-1.9396435
alexnet_w3_mlp_simclrhn_probe2,1,288,NaN,bear,boat,90,0288_ps_dnn_90_boat_10_n04273569_18037.png,n04273569_18037.png,0.0,-1.5305693,0.5984031,-1.5054109
alexnet_w3_mlp_simclrhn_probe2,1,289,NaN,oven,bicycle,180,0289_ps_dnn_180_bicycle_10_n02835271_4789.png,n02835271_4789.png,0.0,-1.8648529,-0.73531497,-0.79870397
alexnet_w3_mlp_simclrhn_probe2,1,290,NaN,oven,chair,90,0290_ps_dnn_90_chair_10_n04099969_18380.png,n04099969_18380.png,0.0,-2.0194855,0.5632179,-1.8262471
alexnet_w3_mlp_simclrhn_probe2,1,291,NaN,oven,dog,120,0291_ps_dnn_120_dog_10_n02100583_13688.png,n02100583_13688.png,0.0,-3.486508,-0.73580146,-1.9450432
alexnet_w3_mlp_simclrhn_probe2,1,292,NaN,knife,boat,180,0292_ps_dnn_180_boat_10_n03662601_8065.png,n03662601_8065.png,0.0,-2.124836,-0.13528807,-1.4068228
alexnet_w3_mlp_simclrhn_probe2,1,293,NaN,boat,boat,0,0293_ps_dnn_0_boat_10_n02951358_15218.png,n02951358_15218.png,1.0,6.765091,0.61297655,4.350202
alexnet_w3_mlp_simclrhn_probe2,1,294,NaN,bear,knife,180,0294_ps_dnn_180_knife_10_n03041632_24277.png,n03041632_24277.png,0.0,-0.81863964,-0.3991837,-0.29660016
alexnet_w3_mlp_simclrhn_probe2,1,295,NaN,bear,bird,90,0295_ps_dnn_90_bird_10_n01601694_2723.png,n01601694_2723.png,0.0,-0.114243835,0.36716002,-0.34040394
alexnet_w3_mlp_simclrhn_probe2,1,296,NaN,keyboard,keyboard,120,0296_ps_dnn_120_keyboard_10_n04505470_4724.png,n04505470_4724.png,1.0,-0.008651592,-0.0874252,0.055701356
alexnet_w3_mlp_simclrhn_probe2,1,297,NaN,knife,bear,150,0297_ps_dnn_150_bear_10_n02134418_1642.png,n02134418_1642.png,0.0,-1.3023089,-0.12055931,-0.83562315
alexnet_w3_mlp_simclrhn_probe2,1,298,NaN,oven,truck,60,0298_ps_dnn_60_truck_10_n03417042_13055.png,n03417042_13055.png,0.0,-0.67616904,1.1438701,-1.286962
alexnet_w3_mlp_simclrhn_probe2,1,299,NaN,oven,bear,120,0299_ps_dnn_120_bear_10_n02133161_1629.png,n02133161_1629.png,0.0,-0.7617997,-0.069578975,-0.48947394
alexnet_w3_mlp_simclrhn_probe2,1,300,NaN,knife,bottle,180,0300_ps_dnn_180_bottle_10_n04579145_1856.png,n04579145_1856.png,0.0,-1.2383109,0.047163807,-0.908968
alexnet_w3_mlp_simclrhn_probe2,1,301,NaN,bear,chair,150,0301_ps_dnn_150_chair_10_n04099969_3768.png,n04099969_3768.png,0.0,-2.3599126,-0.9497125,-0.9971621
alexnet_w3_mlp_simclrhn_probe2,1,302,NaN,oven,bird,120,0302_ps_dnn_120_bird_10_n02009229_5172.png,n02009229_5172.png,0.0,-1.426983,-0.5608836,-0.6124248
alexnet_w3_mlp_simclrhn_probe2,1,303,NaN,airplane,airplane,90,0303_ps_dnn_90_airplane_10_n02690373_21731.png,n02690373_21731.png,1.0,0.79812396,0.171277,0.44324774
alexnet_w3_mlp_simclrhn_probe2,1,304,NaN,elephant,bear,30,0304_ps_dnn_30_bear_10_n02133161_959.png,n02133161_959.png,0.0,0.06813855,0.09761804,-0.020845152
alexnet_w3_mlp_simclrhn_probe2,1,305,NaN,chair,chair,0,0305_ps_dnn_0_chair_10_n04099969_1028.png,n04099969_1028.png,1.0,1.667521,1.0451586,0.44007665
alexnet_w3_mlp_simclrhn_probe2,1,306,NaN,oven,knife,180,0306_ps_dnn_180_knife_10_n03041632_44212.png,n03041632_44212.png,0.0,-0.84598565,-0.780484,-0.046316646
alexnet_w3_mlp_simclrhn_probe2,1,307,NaN,oven,oven,120,0307_ps_dnn_120_oven_10_n04111531_9344.png,n04111531_9344.png,1.0,-0.42716885,-0.78010666,0.24956472
alexnet_w3_mlp_simclrhn_probe2,1,308,NaN,bear,car,180,0308_ps_dnn_180_car_10_n04285008_9080.png,n04285008_9080.png,0.0,-6.492422,-0.93010545,-3.933152
alexnet_w3_mlp_simclrhn_probe2,1,309,NaN,car,car,60,0309_ps_dnn_60_car_10_n03100240_17349.png,n03100240_17349.png,1.0,4.5013814,1.9137086,1.8297609
alexnet_w3_mlp_simclrhn_probe2,1,310,NaN,dog,dog,30,0310_ps_dnn_30_dog_10_n02110958_1335.png,n02110958_1335.png,1.0,-2.5007055,-2.8008976,0.21226789
alexnet_w3_mlp_simclrhn_probe2,1,311,NaN,oven,elephant,150,0311_ps_dnn_150_elephant_10_n02504013_7305.png,n02504013_7305.png,0.0,-1.4528139,0.4292162,-1.3307962
alexnet_w3_mlp_simclrhn_probe2,1,312,NaN,oven,dog,90,0312_ps_dnn_90_dog_10_n02091244_2626.png,n02091244_2626.png,0.0,-1.719321,1.0594563,-1.9648924
alexnet_w3_mlp_simclrhn_probe2,1,313,NaN,knife,bird,150,0313_ps_dnn_150_bird_10_n01828970_22.png,n01828970_22.png,0.0,-0.7166786,-0.54843575,-0.11896568
alexnet_w3_mlp_simclrhn_probe2,1,314,NaN,cat,cat,60,0314_ps_dnn_60_cat_10_n02124075_13587.png,n02124075_13587.png,1.0,0.7894562,0.23807979,0.389882
alexnet_w3_mlp_simclrhn_probe2,1,315,NaN,oven,knife,120,0315_ps_dnn_120_knife_10_n03041632_13612.png,n03041632_13612.png,0.0,-1.7048395,0.11380319,-1.2859745
alexnet_w3_mlp_simclrhn_probe2,1,316,NaN,oven,bicycle,90,0316_ps_dnn_90_bicycle_10_n02835271_2581.png,n02835271_2581.png,0.0,-1.3554629,0.53695565,-1.338142
alexnet_w3_mlp_simclrhn_probe2,1,317,NaN,clock,clock,30,0317_ps_dnn_30_clock_10_n03196217_2536.png,n03196217_2536.png,1.0,1.017404,0.3540324,0.46907455
alexnet_w3_mlp_simclrhn_probe2,1,318,NaN,cat,cat,90,0318_ps_dnn_90_cat_10_n02124075_15001.png,n02124075_15001.png,1.0,-1.4513968,-2.3808775,0.6572421
alexnet_w3_mlp_simclrhn_probe2,1,319,NaN,bear,bear,60,0319_ps_dnn_60_bear_10_n02133161_6152.png,n02133161_6152.png,1.0,0.57157356,0.5049177,0.04713282
alexnet_w3_mlp_simclrhn_probe2,1,320,NaN,oven,chair,30,0320_ps_dnn_30_chair_10_n04099969_8401.png,n04099969_8401.png,0.0,-0.60696936,2.4581926,-2.1673968
alexnet_w3_mlp_simclrhn_probe2,1,321,NaN,oven,oven,150,0321_ps_dnn_150_oven_10_n04111531_7923.png,n04111531_7923.png,1.0,-0.64779663,-1.0062176,0.2534419
alexnet_w3_mlp_simclrhn_probe2,1,322,NaN,knife,cat,120,0322_ps_dnn_120_cat_10_n02123159_5706.png,n02123159_5706.png,0.0,-1.3120528,-0.93717086,-0.26508158
alexnet_w3_mlp_simclrhn_probe2,1,323,NaN,airplane,airplane,30,0323_ps_dnn_30_airplane_10_n02690373_13324.png,n02690373_13324.png,1.0,3.812499,1.609626,1.5576664
alexnet_w3_mlp_simclrhn_probe2,1,324,NaN,knife,airplane,150,0324_ps_dnn_150_airplane_10_n02690373_4452.png,n02690373_4452.png,0.0,-3.0458336,-0.42315072,-1.8545169
alexnet_w3_mlp_simclrhn_probe2,1,325,NaN,elephant,bird,90,0325_ps_dnn_90_bird_10_n02056570_10881.png,n02056570_10881.png,0.0,-1.274553,0.017508566,-0.91362554
alexnet_w3_mlp_simclrhn_probe2,1,326,NaN,airplane,airplane,90,0326_ps_dnn_90_airplane_10_n02690373_19133.png,n02690373_19133.png,1.0,0.62050056,-0.36005268,0.69335586
alexnet_w3_mlp_simclrhn_probe2,1,327,NaN,bottle,bottle,0,0327_ps_dnn_0_bottle_10_n03937543_4850.png,n03937543_4850.png,1.0,5.4040284,-1.3377854,4.7671824
alexnet_w3_mlp_simclrhn_probe2,1,328,NaN,oven,keyboard,150,0328_ps_dnn_150_keyboard_10_n04505470_2709.png,n04505470_2709.png,0.0,-3.3674774,-0.75794685,-1.8452168
alexnet_w3_mlp_simclrhn_probe2,1,329,NaN,oven,keyboard,90,0329_ps_dnn_90_keyboard_10_n03085013_1797.png,n03085013_1797.png,0.0,-1.0665526,1.7843496,-2.0158923
alexnet_w3_mlp_simclrhn_probe2,1,330,NaN,oven,oven,30,0330_ps_dnn_30_oven_10_n04111531_3902.png,n04111531_3902.png,1.0,1.7114104,-0.18537544,1.3412302
alexnet_w3_mlp_simclrhn_probe2,1,331,NaN,knife,car,180,0331_ps_dnn_180_car_10_n03100240_6750.png,n03100240_6750.png,0.0,-2.8326275,0.24601702,-2.1769304
alexnet_w3_mlp_simclrhn_probe2,1,332,NaN,bicycle,chair,0,0332_ps_dnn_0_chair_10_n03376595_16306.png,n03376595_16306.png,0.0,2.999237,3.5896966,-0.417518
alexnet_w3_mlp_simclrhn_probe2,1,333,NaN,bicycle,boat,60,0333_ps_dnn_60_boat_10_n02951358_13017.png,n02951358_13017.png,0.0,-3.0013275,1.8436852,-3.4259415
alexnet_w3_mlp_simclrhn_probe2,1,334,NaN,oven,clock,90,0334_ps_dnn_90_clock_10_n03196217_5827.png,n03196217_5827.png,0.0,-2.1111279,0.014599979,-1.5031166
alexnet_w3_mlp_simclrhn_probe2,1,335,NaN,bottle,bottle,0,0335_ps_dnn_0_bottle_10_n02823428_685.png,n02823428_685.png,1.0,0.5662058,0.4459492,0.08503426
alexnet_w3_mlp_simclrhn_probe2,1,336,NaN,bear,airplane,120,0336_ps_dnn_120_airplane_10_n02690373_2092.png,n02690373_2092.png,0.0,-2.6114876,0.056906253,-1.8868394
alexnet_w3_mlp_simclrhn_probe2,1,337,NaN,knife,bottle,180,0337_ps_dnn_180_bottle_10_n04557648_3637.png,n04557648_3637.png,0.0,-1.8137567,-0.25204986,-1.1042935
alexnet_w3_mlp_simclrhn_probe2,1,338,NaN,bear,bird,90,0338_ps_dnn_90_bird_10_n01819313_5521.png,n01819313_5521.png,0.0,-1.2622496,0.86065716,-1.5011218
alexnet_w3_mlp_simclrhn_probe2,1,339,NaN,elephant,dog,90,0339_ps_dnn_90_dog_10_n02100583_24297.png,n02100583_24297.png,0.0,-0.8146221,1.074089,-1.3355205
alexnet_w3_mlp_simclrhn_probe2,1,340,NaN,bear,bird,60,0340_ps_dnn_60_bird_10_n02018207_12233.png,n02018207_12233.png,0.0,-1.1307453,0.9037483,-1.4386041
alexnet_w3_mlp_simclrhn_probe2,1,341,NaN,bear,bird,180,0341_ps_dnn_180_bird_10_n02013706_3032.png,n02013706_3032.png,0.0,-0.3240084,-0.08220636,-0.17097986
alexnet_w3_mlp_simclrhn_probe2,1,342,NaN,oven,oven,60,0342_ps_dnn_60_oven_10_n04111531_9939.png,n04111531_9939.png,1.0,2.6831698,-0.5341553,2.2749925
alexnet_w3_mlp_simclrhn_probe2,1,343,NaN,knife,bird,180,0343_ps_dnn_180_bird_10_n02011460_7629.png,n02011460_7629.png,0.0,-1.199518,-0.91064906,-0.20426117
alexnet_w3_mlp_simclrhn_probe2,1,344,NaN,oven,oven,60,0344_ps_dnn_60_oven_10_n04111531_13542.png,n04111531_13542.png,1.0,0.7219155,-0.5666597,0.91116023
alexnet_w3_mlp_simclrhn_probe2,1,345,NaN,bear,bear,90,0345_ps_dnn_90_bear_10_n02134418_270.png,n02134418_270.png,1.0,1.0293983,0.35766512,0.47498712
alexnet_w3_mlp_simclrhn_probe2,1,346,NaN,bear,bicycle,90,0346_ps_dnn_90_bicycle_10_n03792782_12561.png,n03792782_12561.png,0.0,-0.8954654,0.208344,-0.7805111
alexnet_w3_mlp_simclrhn_probe2,1,347,NaN,elephant,elephant,120,0347_ps_dnn_120_elephant_10_n02504458_9213.png,n02504458_9213.png,1.0,-1.1141634,-1.6641681,0.38891208
alexnet_w3_mlp_simclrhn_probe2,1,348,NaN,oven,chair,90,0348_ps_dnn_90_chair_10_n03376595_4155.png,n03376595_4155.png,0.0,-1.2793885,0.42242822,-1.2033662
alexnet_w3_mlp_simclrhn_probe2,1,349,NaN,bear,truck,120,0349_ps_dnn_120_truck_10_n04467665_69970.png,n04467665_69970.png,0.0,-4.3149495,-0.39726436,-2.7702217
alexnet_w3_mlp_simclrhn_probe2,1,350,NaN,elephant,bird,120,0350_ps_dnn_120_bird_10_n02002556_2350.png,n02002556_2350.png,0.0,-1.0513215,-0.7078202,-0.24289212
alexnet_w3_mlp_simclrhn_probe2,1,351,NaN,bear,bear,0,0351_ps_dnn_0_bear_10_n02133161_355.png,n02133161_355.png,1.0,6.072671,2.8285956,2.2939076
alexnet_w3_mlp_simclrhn_probe2,1,352,NaN,knife,airplane,90,0352_ps_dnn_90_airplane_10_n02690373_3065.png,n02690373_3065.png,0.0,-1.5644467,-0.4455641,-0.7911695
alexnet_w3_mlp_simclrhn_probe2,1,353,NaN,truck,truck,60,0353_ps_dnn_60_truck_10_n03417042_13289.png,n03417042_13289.png,1.0,1.9136057,-0.32066482,1.579868
alexnet_w3_mlp_simclrhn_probe2,1,354,NaN,bicycle,oven,0,0354_ps_dnn_0_oven_10_n04111531_21404.png,n04111531_21404.png,0.0,0.24471979,0.87338364,-0.44453248
alexnet_w3_mlp_simclrhn_probe2,1,355,NaN,bear,bear,90,0355_ps_dnn_90_bear_10_n02132136_8358.png,n02132136_8358.png,1.0,0.97802114,0.78986454,0.13304682
alexnet_w3_mlp_simclrhn_probe2,1,356,NaN,oven,oven,90,0356_ps_dnn_90_oven_10_n04111531_274.png,n04111531_274.png,1.0,-0.09263642,-0.48365688,0.27649322
alexnet_w3_mlp_simclrhn_probe2,1,357,NaN,bear,chair,120,0357_ps_dnn_120_chair_10_n02791124_2773.png,n02791124_2773.png,0.0,-1.6251099,-0.41528383,-0.85547626
alexnet_w3_mlp_simclrhn_probe2,1,358,NaN,oven,knife,120,0358_ps_dnn_120_knife_10_n03041632_102828.png,n03041632_102828.png,0.0,-1.7302711,-0.11764693,-1.1402975
alexnet_w3_mlp_simclrhn_probe2,1,359,NaN,knife,boat,150,0359_ps_dnn_150_boat_10_n02951358_30995.png,n02951358_30995.png,0.0,-1.9565223,-0.32755345,-1.151855
alexnet_w3_mlp_simclrhn_probe2,1,360,NaN,knife,bicycle,150,0360_ps_dnn_150_bicycle_10_n03792782_4544.png,n03792782_4544.png,0.0,-3.5695398,-0.2938213,-2.3162827
alexnet_w3_mlp_simclrhn_probe2,1,361,NaN,knife,airplane,120,0361_ps_dnn_120_airplane_10_n02690373_8446.png,n02690373_8446.png,0.0,-3.2966425,-0.39205056,-2.0538568
alexnet_w3_mlp_simclrhn_probe2,1,362,NaN,chair,bottle,30,0362_ps_dnn_30_bottle_10_n04557648_900.png,n04557648_900.png,0.0,1.1368716,1.6609048,-0.3705474
alexnet_w3_mlp_simclrhn_probe2,1,363,NaN,knife,airplane,150,0363_ps_dnn_150_airplane_10_n02690373_3407.png,n02690373_3407.png,0.0,-3.8715847,-0.5125567,-2.3751915
alexnet_w3_mlp_simclrhn_probe2,1,364,NaN,oven,bottle,120,0364_ps_dnn_120_bottle_10_n03983396_8143.png,n03983396_8143.png,0.0,-1.3527491,-0.55241984,-0.56591827
alexnet_w3_mlp_simclrhn_probe2,1,365,NaN,car,car,0,0365_ps_dnn_0_car_10_n03100240_9610.png,n03100240_9610.png,1.0,10.008582,5.663857,3.0721846
alexnet_w3_mlp_simclrhn_probe2,1,366,NaN,bear,cat,120,0366_ps_dnn_120_cat_10_n02123159_1108.png,n02123159_1108.png,0.0,-1.4162073,-0.31942296,-0.7755437
alexnet_w3_mlp_simclrhn_probe2,1,367,NaN,clock,clock,0,0367_ps_dnn_0_clock_10_n04548280_2170.png,n04548280_2170.png,1.0,6.272989,-0.21059611,4.584587
alexnet_w3_mlp_simclrhn_probe2,1,368,NaN,bird,keyboard,120,0368_ps_dnn_120_keyboard_10_n04505470_4385.png,n04505470_4385.png,0.0,-4.8849926,-0.59654754,-3.0323887
alexnet_w3_mlp_simclrhn_probe2,1,369,NaN,oven,airplane,120,0369_ps_dnn_120_airplane_10_n02690373_18383.png,n02690373_18383.png,0.0,-2.0047007,-0.5689415,-1.0152351
alexnet_w3_mlp_simclrhn_probe2,1,370,NaN,oven,truck,90,0370_ps_dnn_90_truck_10_n03417042_10243.png,n03417042_10243.png,0.0,-2.680758,0.7514647,-2.426948
alexnet_w3_mlp_simclrhn_probe2,1,371,NaN,cat,cat,30,0371_ps_dnn_30_cat_10_n02123045_11826.png,n02123045_11826.png,1.0,5.3818393,-2.6101801,5.6512113
alexnet_w3_mlp_simclrhn_probe2,1,372,NaN,bird,bird,0,0372_ps_dnn_0_bird_10_n01817953_2257.png,n01817953_2257.png,1.0,0.65179217,-2.2412136,2.045664
alexnet_w3_mlp_simclrhn_probe2,1,373,NaN,boat,boat,0,0373_ps_dnn_0_boat_10_n04612504_18442.png,n04612504_18442.png,1.0,8.3464155,3.916131,3.1326842
alexnet_w3_mlp_simclrhn_probe2,1,374,NaN,knife,airplane,180,0374_ps_dnn_180_airplane_10_n02690373_2874.png,n02690373_2874.png,0.0,-2.0341046,-0.41551158,-1.1445181
alexnet_w3_mlp_simclrhn_probe2,1,375,NaN,bicycle,bicycle,0,0375_ps_dnn_0_bicycle_10_n02835271_4963.png,n02835271_4963.png,1.0,11.315647,-0.037071705,8.027584
alexnet_w3_mlp_simclrhn_probe2,1,376,NaN,oven,boat,180,0376_ps_dnn_180_boat_10_n04273569_568.png,n04273569_568.png,0.0,-2.1107736,-0.42365846,-1.1929705
alexnet_w3_mlp_simclrhn_probe2,1,377,NaN,bear,elephant,90,0377_ps_dnn_90_elephant_10_n02504013_2233.png,n02504013_2233.png,0.0,0.86880445,0.9129229,-0.031196466
alexnet_w3_mlp_simclrhn_probe2,1,378,NaN,oven,bottle,60,0378_ps_dnn_60_bottle_10_n02823428_889.png,n02823428_889.png,0.0,-0.92869437,1.5257657,-1.7355654
alexnet_w3_mlp_simclrhn_probe2,1,379,NaN,oven,car,90,0379_ps_dnn_90_car_10_n04285008_3096.png,n04285008_3096.png,0.0,-2.042009,-0.17483112,-1.3202943
alexnet_w3_mlp_simclrhn_probe2,1,380,NaN,oven,airplane,120,0380_ps_dnn_120_airplane_10_n02690373_13206.png,n02690373_13206.png,0.0,-5.798917,-0.88508165,-3.474606
alexnet_w3_mlp_simclrhn_probe2,1,381,NaN,oven,keyboard,90,0381_ps_dnn_90_keyboard_10_n03085013_25443.png,n03085013_25443.png,0.0,-2.6810904,1.7730325,-3.1495407
alexnet_w3_mlp_simclrhn_probe2,1,382,NaN,truck,truck,30,0382_ps_dnn_30_truck_10_n04467665_20622.png,n04467665_20622.png,1.0,3.8214056,0.16930322,2.5824265
alexnet_w3_mlp_simclrhn_probe2,1,383,NaN,bicycle,bicycle,60,0383_ps_dnn_60_bicycle_10_n02835271_24639.png,n02835271_24639.png,1.0,6.0320926,-0.07974826,4.321724
alexnet_w3_mlp_simclrhn_probe2,1,384,NaN,knife,knife,30,0384_ps_dnn_30_knife_10_n03041632_25603.png,n03041632_25603.png,1.0,0.6983893,-0.8725573,1.110827
alexnet_w3_mlp_simclrhn_probe2,1,385,NaN,boat,boat,60,0385_ps_dnn_60_boat_10_n04273569_4978.png,n04273569_4978.png,1.0,4.4089117,-1.1946601,3.9623237
alexnet_w3_mlp_simclrhn_probe2,1,386,NaN,car,car,60,0386_ps_dnn_60_car_10_n02814533_46401.png,n02814533_46401.png,1.0,1.6192112,0.84346104,0.5485382
alexnet_w3_mlp_simclrhn_probe2,1,387,NaN,elephant,bird,120,0387_ps_dnn_120_bird_10_n01798484_12863.png,n01798484_12863.png,0.0,-0.293738,-0.21344395,-0.056776475
alexnet_w3_mlp_simclrhn_probe2,1,388,NaN,bear,boat,120,0388_ps_dnn_120_boat_10_n03662601_7885.png,n03662601_7885.png,0.0,-2.086821,-0.76980555,-0.9312706
alexnet_w3_mlp_simclrhn_probe2,1,389,NaN,bicycle,chair,0,0389_ps_dnn_0_chair_10_n03376595_3062.png,n03376595_3062.png,0.0,-0.11834681,0.7567427,-0.61878175
alexnet_w3_mlp_simclrhn_probe2,1,390,NaN,bear,airplane,90,0390_ps_dnn_90_airplane_10_n02690373_19118.png,n02690373_19118.png,0.0,-2.597787,-1.0403674,-1.101262
alexnet_w3_mlp_simclrhn_probe2,1,391,NaN,knife,cat,180,0391_ps_dnn_180_cat_10_n02123597_3944.png,n02123597_3944.png,0.0,-1.2910725,-0.44141233,-0.60080045
alexnet_w3_mlp_simclrhn_probe2,1,392,NaN,knife,keyboard,150,0392_ps_dnn_150_keyboard_10_n04505470_2113.png,n04505470_2113.png,0.0,-1.9784691,-0.77584654,-0.8503826
alexnet_w3_mlp_simclrhn_probe2,1,393,NaN,elephant,bird,30,0393_ps_dnn_30_bird_10_n02056570_4808.png,n02056570_4808.png,0.0,-0.01624376,1.5021894,-1.0736945
alexnet_w3_mlp_simclrhn_probe2,1,394,NaN,knife,bear,180,0394_ps_dnn_180_bear_10_n02133161_2316.png,n02133161_2316.png,0.0,-1.003907,0.03384003,-0.73379797
alexnet_w3_mlp_simclrhn_probe2,1,395,NaN,dog,dog,0,0395_ps_dnn_0_dog_10_n02106662_15515.png,n02106662_15515.png,1.0,0.75876445,0.17547235,0.41244984
alexnet_w3_mlp_simclrhn_probe2,1,396,NaN,airplane,airplane,0,0396_ps_dnn_0_airplane_10_n02690373_3899.png,n02690373_3899.png,1.0,5.1443057,3.3812401,1.2466756
alexnet_w3_mlp_simclrhn_probe2,1,397,NaN,bicycle,boat,0,0397_ps_dnn_0_boat_10_n04273569_2449.png,n04273569_2449.png,0.0,-2.101261,-0.8839432,-0.8607736
alexnet_w3_mlp_simclrhn_probe2,1,398,NaN,oven,bird,120,0398_ps_dnn_120_bird_10_n02007558_7614.png,n02007558_7614.png,0.0,-2.6896636,1.4580216,-2.9328563
alexnet_w3_mlp_simclrhn_probe2,1,399,NaN,oven,keyboard,90,0399_ps_dnn_90_keyboard_10_n03085013_4914.png,n03085013_4914.png,0.0,-3.1629941,1.2806466,-3.1421285
alexnet_w3_mlp_simclrhn_probe2,1,400,NaN,knife,oven,150,0400_ps_dnn_150_oven_10_n04111531_15296.png,n04111531_15296.png,0.0,-1.0475781,-0.56869733,-0.33861983
alexnet_w3_mlp_simclrhn_probe2,1,401,NaN,oven,chair,60,0401_ps_dnn_60_chair_10_n04099969_246.png,n04099969_246.png,0.0,-0.8448236,1.3273015,-1.5359244
alexnet_w3_mlp_simclrhn_probe2,1,402,NaN,oven,truck,180,0402_ps_dnn_180_truck_10_n04467665_670.png,n04467665_670.png,0.0,-3.719301,-0.010179594,-2.622745
alexnet_w3_mlp_simclrhn_probe2,1,403,NaN,keyboard,keyboard,90,0403_ps_dnn_90_keyboard_10_n03085013_24192.png,n03085013_24192.png,1.0,1.1556098,0.3368147,0.5789756
alexnet_w3_mlp_simclrhn_probe2,1,404,NaN,knife,bicycle,150,0404_ps_dnn_150_bicycle_10_n03792782_378.png,n03792782_378.png,0.0,-1.4142945,-0.8379708,-0.40752238
alexnet_w3_mlp_simclrhn_probe2,1,405,NaN,knife,bird,180,0405_ps_dnn_180_bird_10_n02018207_14738.png,n02018207_14738.png,0.0,-0.7580205,-0.33842096,-0.2967017
alexnet_w3_mlp_simclrhn_probe2,1,406,NaN,bird,bird,0,0406_ps_dnn_0_bird_10_n01530575_5222.png,n01530575_5222.png,1.0,0.19643936,-0.7836852,0.69305277
alexnet_w3_mlp_simclrhn_probe2,1,407,NaN,elephant,bear,30,0407_ps_dnn_30_bear_10_n02134084_10766.png,n02134084_10766.png,0.0,0.5198442,1.0339471,-0.3635257
alexnet_w3_mlp_simclrhn_probe2,1,408,NaN,elephant,bird,30,0408_ps_dnn_30_bird_10_n02007558_4009.png,n02007558_4009.png,0.0,0.5531701,0.5784763,-0.017894203
alexnet_w3_mlp_simclrhn_probe2,1,409,NaN,oven,chair,120,0409_ps_dnn_120_chair_10_n04099969_7545.png,n04099969_7545.png,0.0,-1.9662185,-0.031683445,-1.3679229
alexnet_w3_mlp_simclrhn_probe2,1,410,NaN,oven,clock,90,0410_ps_dnn_90_clock_10_n03196217_127.png,n03196217_127.png,0.0,-2.013998,0.25394043,-1.6036747
alexnet_w3_mlp_simclrhn_probe2,1,411,NaN,knife,bottle,150,0411_ps_dnn_150_bottle_10_n04560804_26326.png,n04560804_26326.png,0.0,-1.3643248,-0.17731668,-0.8393415
alexnet_w3_mlp_simclrhn_probe2,1,412,NaN,knife,keyboard,30,0412_ps_dnn_30_keyboard_10_n03085013_25066.png,n03085013_25066.png,0.0,-0.36701965,0.110635966,-0.33775353
alexnet_w3_mlp_simclrhn_probe2,1,413,NaN,cat,cat,30,0413_ps_dnn_30_cat_10_n02124075_11776.png,n02124075_11776.png,1.0,10.910104,-2.4913776,9.476278
alexnet_w3_mlp_simclrhn_probe2,1,414,NaN,oven,keyboard,120,0414_ps_dnn_120_keyboard_10_n04505470_2909.png,n04505470_2909.png,0.0,-0.7288019,0.3357828,-0.7527751
alexnet_w3_mlp_simclrhn_probe2,1,415,NaN,keyboard,keyboard,30,0415_ps_dnn_30_keyboard_10_n04505470_494.png,n04505470_494.png,1.0,4.2929535,1.7433769,1.8028231
alexnet_w3_mlp_simclrhn_probe2,1,416,NaN,bear,bear,120,0416_ps_dnn_120_bear_10_n02133161_2270.png,n02133161_2270.png,1.0,0.018123686,0.010802522,0.005176845
alexnet_w3_mlp_simclrhn_probe2,1,417,NaN,bear,chair,120,0417_ps_dnn_120_chair_10_n04099969_13901.png,n04099969_13901.png,0.0,-1.1976511,-0.21400468,-0.6955431
alexnet_w3_mlp_simclrhn_probe2,1,418,NaN,oven,car,120,0418_ps_dnn_120_car_10_n02814533_2923.png,n02814533_2923.png,0.0,-2.503854,0.33934814,-2.0104475
alexnet_w3_mlp_simclrhn_probe2,1,419,NaN,oven,bottle,90,0419_ps_dnn_90_bottle_10_n03983396_12757.png,n03983396_12757.png,0.0,-0.8084617,0.31700814,-0.79582745
alexnet_w3_mlp_simclrhn_probe2,1,420,NaN,oven,knife,30,0420_ps_dnn_30_knife_10_n03041632_15444.png,n03041632_15444.png,0.0,-0.14221871,0.048440903,-0.1348167
alexnet_w3_mlp_simclrhn_probe2,1,421,NaN,oven,bicycle,180,0421_ps_dnn_180_bicycle_10_n02835271_5554.png,n02835271_5554.png,0.0,-2.920059,-0.9115362,-1.42024
alexnet_w3_mlp_simclrhn_probe2,1,422,NaN,knife,knife,150,0422_ps_dnn_150_knife_10_n03041632_37618.png,n03041632_37618.png,1.0,-0.91747725,-1.0834984,0.117394656
alexnet_w3_mlp_simclrhn_probe2,1,423,NaN,chair,chair,60,0423_ps_dnn_60_chair_10_n03376595_3910.png,n03376595_3910.png,1.0,0.5401942,0.033910662,0.35799652
alexnet_w3_mlp_simclrhn_probe2,1,424,NaN,dog,dog,30,0424_ps_dnn_30_dog_10_n02086646_7362.png,n02086646_7362.png,1.0,0.85427856,-0.3040655,0.81907296
alexnet_w3_mlp_simclrhn_probe2,1,425,NaN,bear,dog,60,0425_ps_dnn_60_dog_10_n02113712_5829.png,n02113712_5829.png,0.0,-0.8815965,1.1017683,-1.4024507
alexnet_w3_mlp_simclrhn_probe2,1,426,NaN,knife,truck,180,0426_ps_dnn_180_truck_10_n03417042_1149.png,n03417042_1149.png,0.0,-4.8414717,-0.6635698,-2.9542227
alexnet_w3_mlp_simclrhn_probe2,1,427,NaN,bear,bird,60,0427_ps_dnn_60_bird_10_n02002724_3345.png,n02002724_3345.png,0.0,-1.358527,0.28226763,-1.1602169
alexnet_w3_mlp_simclrhn_probe2,1,428,NaN,bear,bird,150,0428_ps_dnn_150_bird_10_n02002556_2917.png,n02002556_2917.png,0.0,-1.2153728,-0.5410389,-0.4768261
alexnet_w3_mlp_simclrhn_probe2,1,429,NaN,bear,bottle,180,0429_ps_dnn_180_bottle_10_n04560804_3959.png,n04560804_3959.png,0.0,-1.1266698,-0.061375245,-0.753277
alexnet_w3_mlp_simclrhn_probe2,1,430,NaN,airplane,airplane,30,0430_ps_dnn_30_airplane_10_n02690373_3639.png,n02690373_3639.png,1.0,7.619617,-1.0020206,6.0964184
alexnet_w3_mlp_simclrhn_probe2,1,431,NaN,elephant,bottle,120,0431_ps_dnn_120_bottle_10_n02823428_14453.png,n02823428_14453.png,0.0,-1.6418048,-0.30700266,-0.94384766
alexnet_w3_mlp_simclrhn_probe2,1,432,NaN,bottle,bottle,0,0432_ps_dnn_0_bottle_10_n03937543_3253.png,n03937543_3253.png,1.0,7.2919116,0.6061113,4.727575
alexnet_w3_mlp_simclrhn_probe2,1,433,NaN,elephant,elephant,30,0433_ps_dnn_30_elephant_10_n02504013_7010.png,n02504013_7010.png,1.0,0.72195333,0.22458705,0.35169107
alexnet_w3_mlp_simclrhn_probe2,1,434,NaN,bear,car,150,0434_ps_dnn_150_car_10_n04285008_8813.png,n04285008_8813.png,0.0,-2.6606712,-0.16140868,-1.7672455
alexnet_w3_mlp_simclrhn_probe2,1,435,NaN,knife,bear,180,0435_ps_dnn_180_bear_10_n02132136_110.png,n02132136_110.png,0.0,-1.4098979,-0.044209935,-0.9656872
alexnet_w3_mlp_simclrhn_probe2,1,436,NaN,bear,bear,60,0436_ps_dnn_60_bear_10_n02133161_4294.png,n02133161_4294.png,1.0,0.1244799,-0.05202827,0.124810115
alexnet_w3_mlp_simclrhn_probe2,1,437,NaN,car,car,0,0437_ps_dnn_0_car_10_n02814533_95144.png,n02814533_95144.png,1.0,9.157922,6.1036215,2.1597166
alexnet_w3_mlp_simclrhn_probe2,1,438,NaN,oven,oven,120,0438_ps_dnn_120_oven_10_n04111531_1220.png,n04111531_1220.png,1.0,-0.316982,-0.40327525,0.061018545
alexnet_w3_mlp_simclrhn_probe2,1,439,NaN,knife,dog,60,0439_ps_dnn_60_dog_10_n02086240_7247.png,n02086240_7247.png,0.0,-1.1711396,-0.8568267,-0.22225277
alexnet_w3_mlp_simclrhn_probe2,1,440,NaN,airplane,airplane,0,0440_ps_dnn_0_airplane_10_n02690373_4144.png,n02690373_4144.png,1.0,7.0340176,-0.23754834,5.1417737
alexnet_w3_mlp_simclrhn_probe2,1,441,NaN,oven,oven,120,0441_ps_dnn_120_oven_10_n04111531_986.png,n04111531_986.png,1.0,-0.37336737,-0.4105567,0.026296832
alexnet_w3_mlp_simclrhn_probe2,1,442,NaN,bicycle,elephant,30,0442_ps_dnn_30_elephant_10_n02504458_6336.png,n02504458_6336.png,0.0,0.7614497,1.5135562,-0.53181964
alexnet_w3_mlp_simclrhn_probe2,1,443,NaN,knife,knife,150,0443_ps_dnn_150_knife_10_n03041632_14132.png,n03041632_14132.png,1.0,-0.5359186,-0.6204399,0.05976558
alexnet_w3_mlp_simclrhn_probe2,1,444,NaN,oven,cat,150,0444_ps_dnn_150_cat_10_n02123159_799.png,n02123159_799.png,0.0,-1.8378028,-0.55435,-0.9075382
alexnet_w3_mlp_simclrhn_probe2,1,445,NaN,elephant,bird,90,0445_ps_dnn_90_bird_10_n02006656_7456.png,n02006656_7456.png,0.0,-1.1810895,0.88872993,-1.4635834
alexnet_w3_mlp_simclrhn_probe2,1,446,NaN,oven,cat,90,0446_ps_dnn_90_cat_10_n02123045_8722.png,n02123045_8722.png,0.0,-1.7282144,0.3173898,-1.4464606
alexnet_w3_mlp_simclrhn_probe2,1,447,NaN,oven,chair,120,0447_ps_dnn_120_chair_10_n03376595_8302.png,n03376595_8302.png,0.0,-1.7659819,-0.34133017,-1.007381
alexnet_w3_mlp_simclrhn_probe2,1,448,NaN,bottle,bottle,30,0448_ps_dnn_30_bottle_10_n04560804_5769.png,n04560804_5769.png,1.0,2.607165,1.0883049,1.0739964
alexnet_w3_mlp_simclrhn_probe2,1,449,NaN,oven,car,90,0449_ps_dnn_90_car_10_n04285008_203.png,n04285008_203.png,0.0,-4.9449406,0.9568076,-4.1731663
alexnet_w3_mlp_simclrhn_probe2,1,450,NaN,knife,airplane,180,0450_ps_dnn_180_airplane_10_n02690373_9959.png,n02690373_9959.png,0.0,-3.1590672,-0.46814233,-1.9027712
alexnet_w3_mlp_simclrhn_probe2,1,451,NaN,car,car,0,0451_ps_dnn_0_car_10_n04285008_1867.png,n04285008_1867.png,1.0,12.357208,7.175577,3.6639667
alexnet_w3_mlp_simclrhn_probe2,1,452,NaN,knife,airplane,150,0452_ps_dnn_150_airplane_10_n02690373_16250.png,n02690373_16250.png,0.0,-1.6841938,-0.3631242,-0.93413734
alexnet_w3_mlp_simclrhn_probe2,1,453,NaN,elephant,elephant,30,0453_ps_dnn_30_elephant_10_n02504458_4696.png,n02504458_4696.png,1.0,4.220734,1.556355,1.8840005
alexnet_w3_mlp_simclrhn_probe2,1,454,NaN,bicycle,car,60,0454_ps_dnn_60_car_10_n04285008_10755.png,n04285008_10755.png,0.0,-3.7820778,2.6640544,-4.558104
alexnet_w3_mlp_simclrhn_probe2,1,455,NaN,knife,boat,150,0455_ps_dnn_150_boat_10_n02951358_11586.png,n02951358_11586.png,0.0,-2.5200677,-0.47199887,-1.4482033
alexnet_w3_mlp_simclrhn_probe2,1,456,NaN,bottle,bottle,60,0456_ps_dnn_60_bottle_10_n02823428_4108.png,n02823428_4108.png,1.0,2.6356578,1.2900194,0.9515101
alexnet_w3_mlp_simclrhn_probe2,1,457,NaN,elephant,car,180,0457_ps_dnn_180_car_10_n04285008_11770.png,n04285008_11770.png,0.0,-3.5797071,-0.19866545,-2.3907576
alexnet_w3_mlp_simclrhn_probe2,1,458,NaN,boat,boat,90,0458_ps_dnn_90_boat_10_n04273569_32786.png,n04273569_32786.png,1.0,0.450725,-0.43600202,0.62701064
alexnet_w3_mlp_simclrhn_probe2,1,459,NaN,bear,bear,30,0459_ps_dnn_30_bear_10_n02132136_21267.png,n02132136_21267.png,1.0,4.0633254,2.0309186,1.4371287
alexnet_w3_mlp_simclrhn_probe2,1,460,NaN,oven,car,90,0460_ps_dnn_90_car_10_n03100240_24001.png,n03100240_24001.png,0.0,-4.359923,0.53116727,-3.4585233
alexnet_w3_mlp_simclrhn_probe2,1,461,NaN,knife,bottle,150,0461_ps_dnn_150_bottle_10_n03937543_71.png,n03937543_71.png,0.0,-1.2607931,-0.37976724,-0.62297934
alexnet_w3_mlp_simclrhn_probe2,1,462,NaN,oven,chair,0,0462_ps_dnn_0_chair_10_n02791124_16127.png,n02791124_16127.png,0.0,1.2082568,1.671795,-0.32777098
alexnet_w3_mlp_simclrhn_probe2,1,463,NaN,bird,bird,90,0463_ps_dnn_90_bird_10_n02002724_12183.png,n02002724_12183.png,1.0,0.69669104,0.021713853,0.47728094
alexnet_w3_mlp_simclrhn_probe2,1,464,NaN,dog,dog,30,0464_ps_dnn_30_dog_10_n02108915_1165.png,n02108915_1165.png,1.0,0.6345121,-0.21991797,0.6041733
alexnet_w3_mlp_simclrhn_probe2,1,465,NaN,knife,dog,180,0465_ps_dnn_180_dog_10_n02099429_4843.png,n02099429_4843.png,0.0,-0.90830344,-0.41938755,-0.34571576
alexnet_w3_mlp_simclrhn_probe2,1,466,NaN,boat,boat,60,0466_ps_dnn_60_boat_10_n03344393_3499.png,n03344393_3499.png,1.0,1.5597242,1.0219221,0.3802835
alexnet_w3_mlp_simclrhn_probe2,1,467,NaN,oven,truck,120,0467_ps_dnn_120_truck_10_n03417042_20962.png,n03417042_20962.png,0.0,-3.2124825,-0.0070346296,-2.266594
alexnet_w3_mlp_simclrhn_probe2,1,468,NaN,dog,dog,30,0468_ps_dnn_30_dog_10_n02097047_4189.png,n02097047_4189.png,1.0,-0.4291306,-0.6207242,0.13547713
alexnet_w3_mlp_simclrhn_probe2,1,469,NaN,bicycle,bicycle,60,0469_ps_dnn_60_bicycle_10_n03792782_24591.png,n03792782_24591.png,1.0,9.084427,-0.76003075,6.961083
alexnet_w3_mlp_simclrhn_probe2,1,470,NaN,airplane,airplane,60,0470_ps_dnn_60_airplane_10_n02690373_243.png,n02690373_243.png,1.0,0.7153556,-0.16310361,0.6211645
alexnet_w3_mlp_simclrhn_probe2,1,471,NaN,oven,boat,90,0471_ps_dnn_90_boat_10_n03344393_3072.png,n03344393_3072.png,0.0,-1.7071314,0.09468864,-1.2740792
alexnet_w3_mlp_simclrhn_probe2,1,472,NaN,oven,clock,120,0472_ps_dnn_120_clock_10_n02708093_118.png,n02708093_118.png,0.0,-1.3917851,-0.1132693,-0.9040472
alexnet_w3_mlp_simclrhn_probe2,1,473,NaN,bird,bird,30,0473_ps_dnn_30_bird_10_n01843065_2664.png,n01843065_2664.png,1.0,2.33004,-3.450062,4.087149
alexnet_w3_mlp_simclrhn_probe2,1,474,NaN,knife,airplane,150,0474_ps_dnn_150_airplane_10_n02690373_19353.png,n02690373_19353.png,0.0,-3.0617387,-0.20221981,-2.0219853
alexnet_w3_mlp_simclrhn_probe2,1,475,NaN,oven,dog,120,0475_ps_dnn_120_dog_10_n02099849_4250.png,n02099849_4250.png,0.0,-1.3701302,-0.5226279,-0.59927464
alexnet_w3_mlp_simclrhn_probe2,1,476,NaN,oven,truck,90,0476_ps_dnn_90_truck_10_n04467665_29260.png,n04467665_29260.png,0.0,-3.0813847,0.37385166,-2.443221
alexnet_w3_mlp_simclrhn_probe2,1,477,NaN,bear,elephant,30,0477_ps_dnn_30_elephant_10_n02504013_8308.png,n02504013_8308.png,0.0,3.3124957,3.6238751,-0.22017851
alexnet_w3_mlp_simclrhn_probe2,1,478,NaN,knife,boat,150,0478_ps_dnn_150_boat_10_n03344393_6854.png,n03344393_6854.png,0.0,-0.93337995,0.17037603,-0.78047335
alexnet_w3_mlp_simclrhn_probe2,1,479,NaN,bear,truck,180,0479_ps_dnn_180_truck_10_n04467665_25129.png,n04467665_25129.png,0.0,-4.6935773,-0.65974724,-2.8523488
alexnet_w3_mlp_simclrhn_probe2,1,480,NaN,bird,bird,30,0480_ps_dnn_30_bird_10_n01824575_6272.png,n01824575_6272.png,1.0,-0.8387734,-1.9853036,0.81071925
alexnet_w3_mlp_simclrhn_probe2,1,481,NaN,knife,chair,180,0481_ps_dnn_180_chair_10_n04099969_19484.png,n04099969_19484.png,0.0,-3.7678776,-0.6863998,-2.1789339
alexnet_w3_mlp_simclrhn_probe2,1,482,NaN,oven,oven,120,0482_ps_dnn_120_oven_10_n04111531_5888.png,n04111531_5888.png,1.0,-0.21946122,-0.808048,0.41619372
alexnet_w3_mlp_simclrhn_probe2,1,483,NaN,elephant,chair,60,0483_ps_dnn_60_chair_10_n04099969_16266.png,n04099969_16266.png,0.0,-1.4501991,0.2527211,-1.2041464
alexnet_w3_mlp_simclrhn_probe2,1,484,NaN,oven,truck,150,0484_ps_dnn_150_truck_10_n04467665_68754.png,n04467665_68754.png,0.0,-3.5770426,0.00061143935,-2.5297835
alexnet_w3_mlp_simclrhn_probe2,1,485,NaN,knife,cat,180,0485_ps_dnn_180_cat_10_n02123394_7859.png,n02123394_7859.png,0.0,-1.1925734,0.28832817,-1.0471556
alexnet_w3_mlp_simclrhn_probe2,1,486,NaN,oven,car,90,0486_ps_dnn_90_car_10_n04285008_17056.png,n04285008_17056.png,0.0,-6.785024,-0.1352744,-4.702083
alexnet_w3_mlp_simclrhn_probe2,1,487,NaN,bear,cat,120,0487_ps_dnn_120_cat_10_n02123045_12046.png,n02123045_12046.png,0.0,-1.1337658,-0.29680216,-0.5918227
alexnet_w3_mlp_simclrhn_probe2,1,488,NaN,bear,elephant,180,0488_ps_dnn_180_elephant_10_n02504013_3029.png,n02504013_3029.png,0.0,-0.8859414,-0.40260696,-0.34176904
alexnet_w3_mlp_simclrhn_probe2,1,489,NaN,boat,boat,120,0489_ps_dnn_120_boat_10_n03662601_7271.png,n03662601_7271.png,1.0,0.8443881,0.07607424,0.54327995
alexnet_w3_mlp_simclrhn_probe2,1,490,NaN,bear,bear,30,0490_ps_dnn_30_bear_10_n02133161_6861.png,n02133161_6861.png,1.0,3.981905,1.2966949,1.8987304
alexnet_w3_mlp_simclrhn_probe2,1,491,NaN,oven,chair,30,0491_ps_dnn_30_chair_10_n02791124_4192.png,n02791124_4192.png,0.0,0.66845393,1.4011953,-0.51812637
alexnet_w3_mlp_simclrhn_probe2,1,492,NaN,oven,boat,60,0492_ps_dnn_60_boat_10_n04273569_1457.png,n04273569_1457.png,0.0,-1.0154411,0.6042625,-1.1453034
alexnet_w3_mlp_simclrhn_probe2,1,493,NaN,clock,clock,90,0493_ps_dnn_90_clock_10_n04548280_764.png,n04548280_764.png,1.0,-0.9062205,-1.2538127,0.24578479
alexnet_w3_mlp_simclrhn_probe2,1,494,NaN,oven,bicycle,120,0494_ps_dnn_120_bicycle_10_n02835271_12346.png,n02835271_12346.png,0.0,-2.3100696,-0.14810105,-1.5287426
alexnet_w3_mlp_simclrhn_probe2,1,495,NaN,bird,bicycle,180,0495_ps_dnn_180_bicycle_10_n03792782_50673.png,n03792782_50673.png,0.0,-1.5074341,-0.9487663,-0.39503783
alexnet_w3_mlp_simclrhn_probe2,1,496,NaN,knife,truck,120,0496_ps_dnn_120_truck_10_n03796401_9198.png,n03796401_9198.png,0.0,-2.5841146,-0.10785969,-1.7509767
alexnet_w3_mlp_simclrhn_probe2,1,497,NaN,airplane,airplane,0,0497_ps_dnn_0_airplane_10_n02690373_4110.png,n02690373_4110.png,1.0,7.5627594,1.6107037,4.2087393
alexnet_w3_mlp_simclrhn_probe2,1,498,NaN,bear,dog,60,0498_ps_dnn_60_dog_10_n02107683_2484.png,n02107683_2484.png,0.0,0.28343323,0.42263508,-0.098430574
alexnet_w3_mlp_simclrhn_probe2,1,499,NaN,oven,chair,60,0499_ps_dnn_60_chair_10_n02791124_13057.png,n02791124_13057.png,0.0,-1.1367887,2.560229,-2.6141863
alexnet_w3_mlp_simclrhn_probe2,1,500,NaN,knife,bear,120,0500_ps_dnn_120_bear_10_n02134418_14451.png,n02134418_14451.png,0.0,-0.9465165,-0.72163767,-0.15901336
alexnet_w3_mlp_simclrhn_probe2,1,501,NaN,bird,bird,60,0501_ps_dnn_60_bird_10_n01843383_10059.png,n01843383_10059.png,1.0,-1.4137877,-1.8509319,0.3091076
alexnet_w3_mlp_simclrhn_probe2,1,502,NaN,bicycle,bicycle,0,0502_ps_dnn_0_bicycle_10_n03792782_11824.png,n03792782_11824.png,1.0,6.8306236,1.0471698,4.0895195
alexnet_w3_mlp_simclrhn_probe2,1,503,NaN,bird,bird,30,0503_ps_dnn_30_bird_10_n01532829_2492.png,n01532829_2492.png,1.0,1.2655066,-1.4380665,1.911715
alexnet_w3_mlp_simclrhn_probe2,1,504,NaN,bottle,bottle,0,0504_ps_dnn_0_bottle_10_n04579145_5621.png,n04579145_5621.png,1.0,3.969282,-2.5970354,4.643088
alexnet_w3_mlp_simclrhn_probe2,1,505,NaN,knife,truck,150,0505_ps_dnn_150_truck_10_n03417042_6250.png,n03417042_6250.png,0.0,-4.964795,-0.7647994,-2.9698453
alexnet_w3_mlp_simclrhn_probe2,1,506,NaN,bear,dog,90,0506_ps_dnn_90_dog_10_n02108551_14704.png,n02108551_14704.png,0.0,-1.0006986,0.6334327,-1.1555053
alexnet_w3_mlp_simclrhn_probe2,1,507,NaN,boat,boat,30,0507_ps_dnn_30_boat_10_n04612504_8407.png,n04612504_8407.png,1.0,6.2288456,0.5331946,4.0274334
alexnet_w3_mlp_simclrhn_probe2,1,508,NaN,knife,car,120,0508_ps_dnn_120_car_10_n03100240_14794.png,n03100240_14794.png,0.0,-5.237807,-0.22830911,-3.54225
alexnet_w3_mlp_simclrhn_probe2,1,509,NaN,oven,dog,60,0509_ps_dnn_60_dog_10_n02097658_759.png,n02097658_759.png,0.0,-2.1299057,1.3931055,-2.4911451
alexnet_w3_mlp_simclrhn_probe2,1,510,NaN,bear,oven,90,0510_ps_dnn_90_oven_10_n04111531_5965.png,n04111531_5965.png,0.0,-0.6283821,0.2775484,-0.6405896
alexnet_w3_mlp_simclrhn_probe2,1,511,NaN,bear,elephant,180,0511_ps_dnn_180_elephant_10_n02504013_6984.png,n02504013_6984.png,0.0,-1.0386684,-0.7869266,-0.17800832
alexnet_w3_mlp_simclrhn_probe2,1,512,NaN,oven,oven,180,0512_ps_dnn_180_oven_10_n04111531_6695.png,n04111531_6695.png,1.0,-0.07231474,-0.771919,0.49469495
alexnet_w3_mlp_simclrhn_probe2,1,513,NaN,bicycle,bird,60,0513_ps_dnn_60_bird_10_n02037110_4572.png,n02037110_4572.png,0.0,-0.95693165,-0.11813581,-0.59311825
alexnet_w3_mlp_simclrhn_probe2,1,514,NaN,oven,truck,30,0514_ps_dnn_30_truck_10_n03796401_11628.png,n03796401_11628.png,0.0,-1.1297176,1.976331,-2.1963081
alexnet_w3_mlp_simclrhn_probe2,1,515,NaN,knife,chair,180,0515_ps_dnn_180_chair_10_n02791124_1258.png,n02791124_1258.png,0.0,-2.034649,-0.49691507,-1.087342
alexnet_w3_mlp_simclrhn_probe2,1,516,NaN,chair,knife,0,0516_ps_dnn_0_knife_10_n03041632_62810.png,n03041632_62810.png,0.0,-1.5966445,0.1122483,-1.2083697
alexnet_w3_mlp_simclrhn_probe2,1,517,NaN,oven,bird,90,0517_ps_dnn_90_bird_10_n01819313_2770.png,n01819313_2770.png,0.0,-1.60352,-0.0024962798,-1.1320947
alexnet_w3_mlp_simclrhn_probe2,1,518,NaN,bicycle,bicycle,60,0518_ps_dnn_60_bicycle_10_n02835271_25519.png,n02835271_25519.png,1.0,0.32241976,0.07532242,0.1747242
alexnet_w3_mlp_simclrhn_probe2,1,519,NaN,boat,boat,0,0519_ps_dnn_0_boat_10_n03662601_23248.png,n03662601_23248.png,1.0,11.152856,2.9961154,5.7676864
alexnet_w3_mlp_simclrhn_probe2,1,520,NaN,oven,elephant,120,0520_ps_dnn_120_elephant_10_n02504013_1784.png,n02504013_1784.png,0.0,-0.79926765,0.43441087,-0.8723425
alexnet_w3_mlp_simclrhn_probe2,1,521,NaN,knife,cat,150,0521_ps_dnn_150_cat_10_n02123394_270.png,n02123394_270.png,0.0,-1.8496727,-0.35308266,-1.058249
alexnet_w3_mlp_simclrhn_probe2,1,522,NaN,dog,dog,30,0522_ps_dnn_30_dog_10_n02093647_1022.png,n02093647_1022.png,1.0,2.2599175,-2.8138573,3.5877006
alexnet_w3_mlp_simclrhn_probe2,1,523,NaN,boat,boat,30,0523_ps_dnn_30_boat_10_n03662601_4881.png,n03662601_4881.png,1.0,4.750443,1.8102245,2.0790484
alexnet_w3_mlp_simclrhn_probe2,1,524,NaN,oven,knife,60,0524_ps_dnn_60_knife_10_n03041632_8321.png,n03041632_8321.png,0.0,-1.4405096,0.40446967,-1.3045974
alexnet_w3_mlp_simclrhn_probe2,1,525,NaN,bear,car,120,0525_ps_dnn_120_car_10_n02814533_60400.png,n02814533_60400.png,0.0,-5.3317475,-0.030942354,-3.7482352
alexnet_w3_mlp_simclrhn_probe2,1,526,NaN,bear,cat,150,0526_ps_dnn_150_cat_10_n02123597_3280.png,n02123597_3280.png,0.0,-0.863116,-0.47912258,-0.27152437
alexnet_w3_mlp_simclrhn_probe2,1,527,NaN,knife,dog,150,0527_ps_dnn_150_dog_10_n02110063_3399.png,n02110063_3399.png,0.0,-1.6633078,-0.005347818,-1.1723547
alexnet_w3_mlp_simclrhn_probe2,1,528,NaN,bear,bear,0,0528_ps_dnn_0_bear_10_n02132136_3109.png,n02132136_3109.png,1.0,2.30871,0.16477513,1.515991
alexnet_w3_mlp_simclrhn_probe2,1,529,NaN,bear,bear,0,0529_ps_dnn_0_bear_10_n02134084_16632.png,n02134084_16632.png,1.0,2.348605,0.26012668,1.4767772
alexnet_w3_mlp_simclrhn_probe2,1,530,NaN,clock,bottle,150,0530_ps_dnn_150_bottle_10_n04591713_5851.png,n04591713_5851.png,0.0,-1.2359381,-0.6145924,-0.43935776
alexnet_w3_mlp_simclrhn_probe2,1,531,NaN,oven,knife,0,0531_ps_dnn_0_knife_10_n03041632_29961.png,n03041632_29961.png,0.0,-1.1796012,0.6081332,-1.2641191
alexnet_w3_mlp_simclrhn_probe2,1,532,NaN,knife,knife,30,0532_ps_dnn_30_knife_10_n03041632_10140.png,n03041632_10140.png,1.0,0.17606518,-3.686056,2.730932
alexnet_w3_mlp_simclrhn_probe2,1,533,NaN,knife,airplane,180,0533_ps_dnn_180_airplane_10_n02690373_8765.png,n02690373_8765.png,0.0,-4.9073477,0.28247413,-3.669758
alexnet_w3_mlp_simclrhn_probe2,1,534,NaN,oven,knife,120,0534_ps_dnn_120_knife_10_n03041632_16826.png,n03041632_16826.png,0.0,-1.4638717,-0.06720848,-0.98759
alexnet_w3_mlp_simclrhn_probe2,1,535,NaN,oven,chair,30,0535_ps_dnn_30_chair_10_n04429376_21089.png,n04429376_21089.png,0.0,-0.45642412,0.29093114,-0.52845997
alexnet_w3_mlp_simclrhn_probe2,1,536,NaN,bear,bear,60,0536_ps_dnn_60_bear_10_n02134084_15118.png,n02134084_15118.png,1.0,1.6405829,1.049646,0.4178555
alexnet_w3_mlp_simclrhn_probe2,1,537,NaN,oven,car,120,0537_ps_dnn_120_car_10_n04285008_3884.png,n04285008_3884.png,0.0,-4.6053605,-0.37330055,-2.9925184
alexnet_w3_mlp_simclrhn_probe2,1,538,NaN,knife,boat,150,0538_ps_dnn_150_boat_10_n04273569_1576.png,n04273569_1576.png,0.0,-1.1291745,-0.1752936,-0.6744957
alexnet_w3_mlp_simclrhn_probe2,1,539,NaN,oven,bicycle,120,0539_ps_dnn_120_bicycle_10_n03792782_4600.png,n03792782_4600.png,0.0,-1.2499151,-0.47987816,-0.5444983
alexnet_w3_mlp_simclrhn_probe2,1,540,NaN,keyboard,clock,30,0540_ps_dnn_30_clock_10_n03196217_4537.png,n03196217_4537.png,0.0,2.0606635,3.1605234,-0.7777184
alexnet_w3_mlp_simclrhn_probe2,1,541,NaN,boat,airplane,60,0541_ps_dnn_60_airplane_10_n02690373_10203.png,n02690373_10203.png,0.0,0.20923616,1.2702988,-0.7502846
alexnet_w3_mlp_simclrhn_probe2,1,542,NaN,truck,truck,30,0542_ps_dnn_30_truck_10_n04467665_48875.png,n04467665_48875.png,1.0,1.8885062,1.2650335,0.44086176
alexnet_w3_mlp_simclrhn_probe2,1,543,NaN,oven,car,60,0543_ps_dnn_60_car_10_n02814533_38071.png,n02814533_38071.png,0.0,-1.6002507,2.1364837,-2.6422703
alexnet_w3_mlp_simclrhn_probe2,1,544,NaN,bicycle,bear,90,0544_ps_dnn_90_bear_10_n02133161_160.png,n02133161_160.png,0.0,-1.6362431,0.13253063,-1.2507119
alexnet_w3_mlp_simclrhn_probe2,1,545,NaN,truck,car,30,0545_ps_dnn_30_car_10_n02814533_40344.png,n02814533_40344.png,0.0,-0.28508225,1.1513371,-1.0157019
alexnet_w3_mlp_simclrhn_probe2,1,546,NaN,bear,oven,180,0546_ps_dnn_180_oven_10_n04111531_9026.png,n04111531_9026.png,0.0,-1.185503,-0.8173731,-0.26030716
alexnet_w3_mlp_simclrhn_probe2,1,547,NaN,cat,cat,0,0547_ps_dnn_0_cat_10_n02123597_13755.png,n02123597_13755.png,1.0,-0.56345695,-1.1991975,0.44953647
alexnet_w3_mlp_simclrhn_probe2,1,548,NaN,knife,car,150,0548_ps_dnn_150_car_10_n02814533_39485.png,n02814533_39485.png,0.0,-5.9306397,-0.25489056,-4.013361
alexnet_w3_mlp_simclrhn_probe2,1,549,NaN,knife,bottle,90,0549_ps_dnn_90_bottle_10_n03937543_4512.png,n03937543_4512.png,0.0,-0.90203524,-0.30483183,-0.42228657
alexnet_w3_mlp_simclrhn_probe2,1,550,NaN,bear,cat,120,0550_ps_dnn_120_cat_10_n02124075_2402.png,n02124075_2402.png,0.0,-1.492601,-0.6164088,-0.6195615
alexnet_w3_mlp_simclrhn_probe2,1,551,NaN,boat,bird,0,0551_ps_dnn_0_bird_10_n02056570_9835.png,n02056570_9835.png,0.0,-0.8881653,-0.5377177,-0.24780388
alexnet_w3_mlp_simclrhn_probe2,1,552,NaN,oven,clock,120,0552_ps_dnn_120_clock_10_n04548280_13247.png,n04548280_13247.png,0.0,-0.8351217,-0.2572578,-0.4086115
alexnet_w3_mlp_simclrhn_probe2,1,553,NaN,oven,truck,60,0553_ps_dnn_60_truck_10_n03417042_173.png,n03417042_173.png,0.0,-0.63830346,3.7712722,-3.1180408
alexnet_w3_mlp_simclrhn_probe2,1,554,NaN,oven,airplane,180,0554_ps_dnn_180_airplane_10_n02690373_1592.png,n02690373_1592.png,0.0,-3.55138,0.19340095,-2.64796
alexnet_w3_mlp_simclrhn_probe2,1,555,NaN,elephant,elephant,0,0555_ps_dnn_0_elephant_10_n02504013_1953.png,n02504013_1953.png,1.0,10.642011,2.871183,5.4948053
alexnet_w3_mlp_simclrhn_probe2,1,556,NaN,knife,elephant,150,0556_ps_dnn_150_elephant_10_n02504458_4348.png,n02504458_4348.png,0.0,-1.9338944,-0.32958812,-1.1344159
alexnet_w3_mlp_simclrhn_probe2,1,557,NaN,oven,airplane,90,0557_ps_dnn_90_airplane_10_n02690373_1854.png,n02690373_1854.png,0.0,-6.4814043,-0.02713273,-4.5638595
alexnet_w3_mlp_simclrhn_probe2,1,558,NaN,knife,cat,180,0558_ps_dnn_180_cat_10_n02124075_14363.png,n02124075_14363.png,0.0,-1.1372052,-0.13998215,-0.7051432
alexnet_w3_mlp_simclrhn_probe2,1,559,NaN,bottle,bottle,30,0559_ps_dnn_30_bottle_10_n03983396_3377.png,n03983396_3377.png,1.0,2.6617577,2.286868,0.26508698
alexnet_w3_mlp_simclrhn_probe2,1,560,NaN,oven,clock,90,0560_ps_dnn_90_clock_10_n04548280_6743.png,n04548280_6743.png,0.0,-0.42688373,0.06279557,-0.34625557
alexnet_w3_mlp_simclrhn_probe2,1,561,NaN,clock,clock,30,0561_ps_dnn_30_clock_10_n03196217_8034.png,n03196217_8034.png,1.0,0.17135681,-0.36636364,0.38022578
alexnet_w3_mlp_simclrhn_probe2,1,562,NaN,bear,dog,150,0562_ps_dnn_150_dog_10_n02088094_13992.png,n02088094_13992.png,0.0,-1.829804,-0.24323961,-1.1218704
alexnet_w3_mlp_simclrhn_probe2,1,563,NaN,car,car,30,0563_ps_dnn_30_car_10_n03100240_6216.png,n03100240_6216.png,1.0,5.2976327,3.4410408,1.3128088
alexnet_w3_mlp_simclrhn_probe2,1,564,NaN,oven,oven,30,0564_ps_dnn_30_oven_10_n04111531_2831.png,n04111531_2831.png,1.0,2.0647626,-0.30854756,1.6781837
alexnet_w3_mlp_simclrhn_probe2,1,565,NaN,knife,knife,0,0565_ps_dnn_0_knife_10_n03041632_927.png,n03041632_927.png,1.0,3.1663096,-0.7906579,2.7979984
alexnet_w3_mlp_simclrhn_probe2,1,566,NaN,bear,knife,150,0566_ps_dnn_150_knife_10_n03041632_5427.png,n03041632_5427.png,0.0,-1.5130957,-0.02551138,-1.051881
alexnet_w3_mlp_simclrhn_probe2,1,567,NaN,bird,cat,180,0567_ps_dnn_180_cat_10_n02123045_8690.png,n02123045_8690.png,0.0,-1.4981394,-0.703729,-0.561733
alexnet_w3_mlp_simclrhn_probe2,1,568,NaN,clock,clock,90,0568_ps_dnn_90_clock_10_n02708093_6696.png,n02708093_6696.png,1.0,-1.431712,-1.7816503,0.24744374
alexnet_w3_mlp_simclrhn_probe2,1,569,NaN,airplane,airplane,60,0569_ps_dnn_60_airplane_10_n02690373_7748.png,n02690373_7748.png,1.0,4.8093567,2.5075824,1.6276002
alexnet_w3_mlp_simclrhn_probe2,1,570,NaN,airplane,airplane,0,0570_ps_dnn_0_airplane_10_n02690373_20011.png,n02690373_20011.png,1.0,1.5553124,0.8624245,0.48994574
alexnet_w3_mlp_simclrhn_probe2,1,571,NaN,knife,boat,150,0571_ps_dnn_150_boat_10_n02951358_16728.png,n02951358_16728.png,0.0,-1.3609785,0.08386657,-1.0216597
alexnet_w3_mlp_simclrhn_probe2,1,572,NaN,airplane,truck,60,0572_ps_dnn_60_truck_10_n04467665_37833.png,n04467665_37833.png,0.0,0.923242,1.6829436,-0.53719014
alexnet_w3_mlp_simclrhn_probe2,1,573,NaN,oven,oven,0,0573_ps_dnn_0_oven_10_n04111531_22886.png,n04111531_22886.png,1.0,1.0528302,0.30208957,0.5308538
alexnet_w3_mlp_simclrhn_probe2,1,574,NaN,car,car,30,0574_ps_dnn_30_car_10_n04285008_5959.png,n04285008_5959.png,1.0,6.3748345,2.91478,2.446628
alexnet_w3_mlp_simclrhn_probe2,1,575,NaN,oven,boat,120,0575_ps_dnn_120_boat_10_n04273569_10840.png,n04273569_10840.png,0.0,-2.9217732,-0.536288,-1.6867927
alexnet_w3_mlp_simclrhn_probe2,1,576,NaN,knife,clock,180,0576_ps_dnn_180_clock_10_n02708093_1352.png,n02708093_1352.png,0.0,-0.98167425,-0.1650294,-0.5774551
alexnet_w3_mlp_simclrhn_probe2,1,577,NaN,oven,oven,120,0577_ps_dnn_120_oven_10_n04111531_1004.png,n04111531_1004.png,1.0,-0.44522133,-0.72785485,0.19985208
alexnet_w3_mlp_simclrhn_probe2,1,578,NaN,elephant,car,180,0578_ps_dnn_180_car_10_n03100240_4619.png,n03100240_4619.png,0.0,-2.1296675,-0.35861763,-1.2523214
alexnet_w3_mlp_simclrhn_probe2,1,579,NaN,knife,oven,180,0579_ps_dnn_180_oven_10_n04111531_15367.png,n04111531_15367.png,0.0,-1.1964138,-0.38163394,-0.57613635
alexnet_w3_mlp_simclrhn_probe2,1,580,NaN,oven,oven,30,0580_ps_dnn_30_oven_10_n04111531_6903.png,n04111531_6903.png,1.0,1.2389994,-2.0727408,2.341754
alexnet_w3_mlp_simclrhn_probe2,1,581,NaN,oven,oven,60,0581_ps_dnn_60_oven_10_n04111531_1662.png,n04111531_1662.png,1.0,2.086936,0.24694347,1.3010712
alexnet_w3_mlp_simclrhn_probe2,1,582,NaN,keyboard,keyboard,0,0582_ps_dnn_0_keyboard_10_n04505470_1342.png,n04505470_1342.png,1.0,9.933542,0.33011034,6.790652
alexnet_w3_mlp_simclrhn_probe2,1,583,NaN,oven,boat,60,0583_ps_dnn_60_boat_10_n02951358_1911.png,n02951358_1911.png,0.0,0.062601686,0.4754485,-0.29192677
alexnet_w3_mlp_simclrhn_probe2,1,584,NaN,bicycle,bicycle,30,0584_ps_dnn_30_bicycle_10_n03792782_42927.png,n03792782_42927.png,1.0,5.2409296,-1.2254084,4.5723915
alexnet_w3_mlp_simclrhn_probe2,1,585,NaN,bear,chair,180,0585_ps_dnn_180_chair_10_n02791124_3994.png,n02791124_3994.png,0.0,-1.9648167,-0.76491153,-0.8484611
alexnet_w3_mlp_simclrhn_probe2,1,586,NaN,dog,dog,0,0586_ps_dnn_0_dog_10_n02101388_1383.png,n02101388_1383.png,1.0,4.7690697,-3.642966,5.948208
alexnet_w3_mlp_simclrhn_probe2,1,587,NaN,oven,bear,30,0587_ps_dnn_30_bear_10_n02132136_9367.png,n02132136_9367.png,0.0,-2.4087384,-0.23833667,-1.5347059
alexnet_w3_mlp_simclrhn_probe2,1,588,NaN,knife,dog,150,0588_ps_dnn_150_dog_10_n02108915_7875.png,n02108915_7875.png,0.0,-1.1648895,-0.55228984,-0.43317336
alexnet_w3_mlp_simclrhn_probe2,1,589,NaN,oven,chair,60,0589_ps_dnn_60_chair_10_n02791124_6237.png,n02791124_6237.png,0.0,-0.052971542,0.44966808,-0.3554199
alexnet_w3_mlp_simclrhn_probe2,1,590,NaN,cat,bird,60,0590_ps_dnn_60_bird_10_n01622779_13896.png,n01622779_13896.png,0.0,-3.5415792,0.40882525,-2.7933578
alexnet_w3_mlp_simclrhn_probe2,1,591,NaN,oven,boat,30,0591_ps_dnn_30_boat_10_n04273569_15583.png,n04273569_15583.png,0.0,-1.5469692,-0.6057084,-0.66557187
alexnet_w3_mlp_simclrhn_probe2,1,592,NaN,knife,bottle,0,0592_ps_dnn_0_bottle_10_n03937543_3079.png,n03937543_3079.png,0.0,-0.37147322,1.3922164,-1.2471169
alexnet_w3_mlp_simclrhn_probe2,1,593,NaN,knife,dog,150,0593_ps_dnn_150_dog_10_n02110063_5687.png,n02110063_5687.png,0.0,-2.1907117,-0.59207946,-1.1304038
alexnet_w3_mlp_simclrhn_probe2,1,594,NaN,truck,truck,30,0594_ps_dnn_30_truck_10_n03417042_6685.png,n03417042_6685.png,1.0,1.5227289,-0.9399446,1.7413733
alexnet_w3_mlp_simclrhn_probe2,1,595,NaN,clock,clock,0,0595_ps_dnn_0_clock_10_n02708093_340.png,n02708093_340.png,1.0,5.1942573,0.8366223,3.0813134
alexnet_w3_mlp_simclrhn_probe2,1,596,NaN,dog,dog,0,0596_ps_dnn_0_dog_10_n02111129_5463.png,n02111129_5463.png,1.0,2.941711,2.0446446,0.6343217
alexnet_w3_mlp_simclrhn_probe2,1,597,NaN,oven,bicycle,90,0597_ps_dnn_90_bicycle_10_n03792782_17503.png,n03792782_17503.png,0.0,-0.4609345,-0.07735448,-0.271232
alexnet_w3_mlp_simclrhn_probe2,1,598,NaN,bear,bear,60,0598_ps_dnn_60_bear_10_n02134084_9253.png,n02134084_9253.png,1.0,-0.3457849,-0.8681064,0.36933708
alexnet_w3_mlp_simclrhn_probe2,1,599,NaN,bicycle,car,30,0599_ps_dnn_30_car_10_n04285008_3688.png,n04285008_3688.png,0.0,-0.31037185,0.66530216,-0.68990576
alexnet_w3_mlp_simclrhn_probe2,1,600,NaN,knife,bird,150,0600_ps_dnn_150_bird_10_n01795545_17324.png,n01795545_17324.png,0.0,-0.782797,-0.64691734,-0.09608141
alexnet_w3_mlp_simclrhn_probe2,1,601,NaN,boat,boat,30,0601_ps_dnn_30_boat_10_n04273569_16064.png,n04273569_16064.png,1.0,5.7382035,2.233709,2.478052
alexnet_w3_mlp_simclrhn_probe2,1,602,NaN,knife,elephant,180,0602_ps_dnn_180_elephant_10_n02504458_4395.png,n02504458_4395.png,0.0,-1.1139097,-0.25260857,-0.6090319
alexnet_w3_mlp_simclrhn_probe2,1,603,NaN,oven,oven,30,0603_ps_dnn_30_oven_10_n04111531_21855.png,n04111531_21855.png,1.0,5.2063117,-0.5483513,4.0691614
alexnet_w3_mlp_simclrhn_probe2,1,604,NaN,oven,oven,30,0604_ps_dnn_30_oven_10_n04111531_11225.png,n04111531_11225.png,1.0,4.35975,0.51301783,2.7200503
alexnet_w3_mlp_simclrhn_probe2,1,605,NaN,bear,oven,150,0605_ps_dnn_150_oven_10_n04111531_13486.png,n04111531_13486.png,0.0,-0.52849543,-0.5193206,-0.00648758
alexnet_w3_mlp_simclrhn_probe2,1,606,NaN,chair,chair,0,0606_ps_dnn_0_chair_10_n02791124_1693.png,n02791124_1693.png,1.0,2.1712918,0.08777498,1.4732689
alexnet_w3_mlp_simclrhn_probe2,1,607,NaN,knife,chair,150,0607_ps_dnn_150_chair_10_n04099969_26462.png,n04099969_26462.png,0.0,-2.0620136,-0.81509316,-0.88170594
alexnet_w3_mlp_simclrhn_probe2,1,608,NaN,bear,chair,120,0608_ps_dnn_120_chair_10_n04429376_16869.png,n04429376_16869.png,0.0,-1.8238684,-0.121710405,-1.2036074
alexnet_w3_mlp_simclrhn_probe2,1,609,NaN,knife,bottle,0,0609_ps_dnn_0_bottle_10_n03983396_23471.png,n03983396_23471.png,0.0,-2.6887481,1.0428411,-2.638632
alexnet_w3_mlp_simclrhn_probe2,1,610,NaN,cat,bear,0,0610_ps_dnn_0_bear_10_n02134084_5314.png,n02134084_5314.png,0.0,0.32345903,0.812304,-0.3456656
alexnet_w3_mlp_simclrhn_probe2,1,611,NaN,bear,elephant,180,0611_ps_dnn_180_elephant_10_n02504458_4564.png,n02504458_4564.png,0.0,-0.6402093,-0.39958465,-0.17014733
alexnet_w3_mlp_simclrhn_probe2,1,612,NaN,bear,bear,0,0612_ps_dnn_0_bear_10_n02132136_6967.png,n02132136_6967.png,1.0,6.8949547,4.0219617,2.031513
alexnet_w3_mlp_simclrhn_probe2,1,613,NaN,cat,cat,0,0613_ps_dnn_0_cat_10_n02123394_6517.png,n02123394_6517.png,1.0,2.8680766,-0.61484855,2.4628
alexnet_w3_mlp_simclrhn_probe2,1,614,NaN,knife,keyboard,150,0614_ps_dnn_150_keyboard_10_n04505470_1076.png,n04505470_1076.png,0.0,-1.1263475,-0.69556826,-0.30460694
alexnet_w3_mlp_simclrhn_probe2,1,615,NaN,bear,knife,180,0615_ps_dnn_180_knife_10_n03041632_5916.png,n03041632_5916.png,0.0,-1.2221923,-0.75799966,-0.32823375
alexnet_w3_mlp_simclrhn_probe2,1,616,NaN,oven,car,90,0616_ps_dnn_90_car_10_n03100240_4674.png,n03100240_4674.png,0.0,-5.8194346,0.13321105,-4.209156
alexnet_w3_mlp_simclrhn_probe2,1,617,NaN,oven,bottle,90,0617_ps_dnn_90_bottle_10_n02823428_1602.png,n02823428_1602.png,0.0,-0.0016274665,0.20876253,-0.14876819
alexnet_w3_mlp_simclrhn_probe2,1,618,NaN,elephant,boat,90,0618_ps_dnn_90_boat_10_n04273569_27343.png,n04273569_27343.png,0.0,-2.065429,-0.21329767,-1.3096547
alexnet_w3_mlp_simclrhn_probe2,1,619,NaN,oven,bottle,120,0619_ps_dnn_120_bottle_10_n04560804_15162.png,n04560804_15162.png,0.0,-1.3695753,-0.42775708,-0.66596603
alexnet_w3_mlp_simclrhn_probe2,1,620,NaN,elephant,bottle,120,0620_ps_dnn_120_bottle_10_n03937543_24.png,n03937543_24.png,0.0,-0.6475705,-0.22820239,-0.29653803
alexnet_w3_mlp_simclrhn_probe2,1,621,NaN,bird,dog,180,0621_ps_dnn_180_dog_10_n02105162_9615.png,n02105162_9615.png,0.0,-1.3056624,-0.3667797,-0.66389036
alexnet_w3_mlp_simclrhn_probe2,1,622,NaN,bear,bird,150,0622_ps_dnn_150_bird_10_n01582220_1150.png,n01582220_1150.png,0.0,-0.49175835,-0.38406676,-0.07614945
alexnet_w3_mlp_simclrhn_probe2,1,623,NaN,bear,clock,180,0623_ps_dnn_180_clock_10_n04548280_4560.png,n04548280_4560.png,0.0,-1.7210773,-0.9990211,-0.5105708
alexnet_w3_mlp_simclrhn_probe2,1,624,NaN,knife,bottle,150,0624_ps_dnn_150_bottle_10_n04560804_14605.png,n04560804_14605.png,0.0,-1.6839327,-0.4508492,-0.8719217
alexnet_w3_mlp_simclrhn_probe2,1,625,NaN,chair,chair,0,0625_ps_dnn_0_chair_10_n03376595_262.png,n03376595_262.png,1.0,1.9321457,-0.35478294,1.6171027
alexnet_w3_mlp_simclrhn_probe2,1,626,NaN,bear,dog,180,0626_ps_dnn_180_dog_10_n02091032_6523.png,n02091032_6523.png,0.0,-0.96607506,-0.087884486,-0.62097454
alexnet_w3_mlp_simclrhn_probe2,1,627,NaN,knife,cat,150,0627_ps_dnn_150_cat_10_n02123159_615.png,n02123159_615.png,0.0,-1.3903941,-0.3206751,-0.75640553
alexnet_w3_mlp_simclrhn_probe2,1,628,NaN,knife,bottle,180,0628_ps_dnn_180_bottle_10_n04579145_6049.png,n04579145_6049.png,0.0,-1.390873,-0.92004454,-0.33292598
alexnet_w3_mlp_simclrhn_probe2,1,629,NaN,keyboard,bottle,90,0629_ps_dnn_90_bottle_10_n02823428_4386.png,n02823428_4386.png,0.0,-1.1363943,2.7596312,-2.754906
alexnet_w3_mlp_simclrhn_probe2,1,630,NaN,oven,car,150,0630_ps_dnn_150_car_10_n03100240_4594.png,n03100240_4594.png,0.0,-5.1122055,-1.0550346,-2.868853
alexnet_w3_mlp_simclrhn_probe2,1,631,NaN,knife,knife,120,0631_ps_dnn_120_knife_10_n03041632_51581.png,n03041632_51581.png,1.0,1.1971033,-0.44150043,1.1586678
alexnet_w3_mlp_simclrhn_probe2,1,632,NaN,oven,keyboard,60,0632_ps_dnn_60_keyboard_10_n03085013_15836.png,n03085013_15836.png,0.0,-0.82783985,-0.5781497,-0.17655762
alexnet_w3_mlp_simclrhn_probe2,1,633,NaN,elephant,bicycle,180,0633_ps_dnn_180_bicycle_10_n03792782_34197.png,n03792782_34197.png,0.0,-1.289808,-0.6324777,-0.46480274
alexnet_w3_mlp_simclrhn_probe2,1,634,NaN,knife,bicycle,180,0634_ps_dnn_180_bicycle_10_n02835271_9314.png,n02835271_9314.png,0.0,-2.5650284,0.3824098,-2.0841537
alexnet_w3_mlp_simclrhn_probe2,1,635,NaN,oven,oven,150,0635_ps_dnn_150_oven_10_n04111531_5643.png,n04111531_5643.png,1.0,-0.12500581,-0.48179024,0.2522847
alexnet_w3_mlp_simclrhn_probe2,1,636,NaN,knife,cat,180,0636_ps_dnn_180_cat_10_n02123394_6362.png,n02123394_6362.png,0.0,-0.8141311,-0.14887625,-0.4704062
alexnet_w3_mlp_simclrhn_probe2,1,637,NaN,elephant,elephant,60,0637_ps_dnn_60_elephant_10_n02504458_3614.png,n02504458_3614.png,1.0,4.570218,0.68826395,2.7449563
alexnet_w3_mlp_simclrhn_probe2,1,638,NaN,oven,chair,180,0638_ps_dnn_180_chair_10_n04099969_6691.png,n04099969_6691.png,0.0,-2.1505468,-0.9508747,-0.8482963
