subj,session,trial,rt,object_response,category,condition,imagename,filename,is_correct,targ_act,max_nontarg_act,decision_margin
alexnet_w1_mlp_simclrhn_probe2,1,1,NaN,truck,truck,30,0001_ps_dnn_30_truck_10_n03417042_14861.png,n03417042_14861.png,1.0,3.5699718,0.40426907,2.2384899
alexnet_w1_mlp_simclrhn_probe2,1,2,NaN,keyboard,keyboard,0,0002_ps_dnn_0_keyboard_10_n03085013_25476.png,n03085013_25476.png,1.0,7.8566484,-0.48247743,5.896652
alexnet_w1_mlp_simclrhn_probe2,1,3,NaN,elephant,elephant,0,0003_ps_dnn_0_elephant_10_n02504013_3087.png,n02504013_3087.png,1.0,9.693626,1.8684727,5.5332193
alexnet_w1_mlp_simclrhn_probe2,1,4,NaN,cat,cat,30,0004_ps_dnn_30_cat_10_n02123394_4633.png,n02123394_4633.png,1.0,1.7334037,1.318547,0.29334798
alexnet_w1_mlp_simclrhn_probe2,1,5,NaN,knife,knife,120,0005_ps_dnn_120_knife_10_n03041632_48151.png,n03041632_48151.png,1.0,0.42930472,-0.48951757,0.64970547
alexnet_w1_mlp_simclrhn_probe2,1,6,NaN,bicycle,bicycle,60,0006_ps_dnn_60_bicycle_10_n02835271_1075.png,n02835271_1075.png,1.0,3.7206936,-1.7760589,3.8867912
alexnet_w1_mlp_simclrhn_probe2,1,7,NaN,knife,bear,180,0007_ps_dnn_180_bear_10_n02134084_10289.png,n02134084_10289.png,0.0,-0.97702193,-0.90273476,-0.052528966
alexnet_w1_mlp_simclrhn_probe2,1,8,NaN,keyboard,keyboard,0,0008_ps_dnn_0_keyboard_10_n03085013_21967.png,n03085013_21967.png,1.0,3.193077,2.210804,0.694572
alexnet_w1_mlp_simclrhn_probe2,1,9,NaN,bear,oven,150,0009_ps_dnn_150_oven_10_n04111531_5737.png,n04111531_5737.png,0.0,-0.5633291,-0.20805362,-0.2512177
alexnet_w1_mlp_simclrhn_probe2,1,10,NaN,bicycle,elephant,60,0010_ps_dnn_60_elephant_10_n02504458_8141.png,n02504458_8141.png,0.0,1.4486599,1.7029243,-0.17979205
alexnet_w1_mlp_simclrhn_probe2,1,11,NaN,elephant,elephant,90,0011_ps_dnn_90_elephant_10_n02504458_3153.png,n02504458_3153.png,1.0,1.4272133,0.4980199,0.6570389
alexnet_w1_mlp_simclrhn_probe2,1,12,NaN,bear,bear,60,0012_ps_dnn_60_bear_10_n02134418_5807.png,n02134418_5807.png,1.0,1.16207,0.41106084,0.5310437
alexnet_w1_mlp_simclrhn_probe2,1,13,NaN,boat,boat,0,0013_ps_dnn_0_boat_10_n04273569_15322.png,n04273569_15322.png,1.0,2.9945703,-0.2961851,2.3269155
alexnet_w1_mlp_simclrhn_probe2,1,14,NaN,chair,knife,0,0014_ps_dnn_0_knife_10_n03041632_42526.png,n03041632_42526.png,0.0,-0.48610088,0.10914624,-0.4209033
alexnet_w1_mlp_simclrhn_probe2,1,15,NaN,bicycle,bicycle,30,0015_ps_dnn_30_bicycle_10_n02835271_5886.png,n02835271_5886.png,1.0,0.35059112,-2.28468,1.8634181
alexnet_w1_mlp_simclrhn_probe2,1,16,NaN,bird,dog,180,0016_ps_dnn_180_dog_10_n02110063_869.png,n02110063_869.png,0.0,-1.0729856,-0.57220775,-0.35410345
alexnet_w1_mlp_simclrhn_probe2,1,17,NaN,bear,bicycle,180,0017_ps_dnn_180_bicycle_10_n03792782_3334.png,n03792782_3334.png,0.0,-1.007144,-0.53713864,-0.33234397
alexnet_w1_mlp_simclrhn_probe2,1,18,NaN,airplane,airplane,0,0018_ps_dnn_0_airplane_10_n02690373_7355.png,n02690373_7355.png,1.0,6.3082438,1.0810384,3.6961923
alexnet_w1_mlp_simclrhn_probe2,1,19,NaN,bird,bird,120,0019_ps_dnn_120_bird_10_n01798484_2289.png,n01798484_2289.png,1.0,-0.2553389,-0.32487178,0.049167167
alexnet_w1_mlp_simclrhn_probe2,1,20,NaN,knife,knife,60,0020_ps_dnn_60_knife_10_n03041632_87380.png,n03041632_87380.png,1.0,-1.0933475,-1.7460709,0.46154508
alexnet_w1_mlp_simclrhn_probe2,1,21,NaN,clock,bird,0,0021_ps_dnn_0_bird_10_n02027492_15639.png,n02027492_15639.png,0.0,-2.7680438,-0.49575445,-1.6067512
alexnet_w1_mlp_simclrhn_probe2,1,22,NaN,airplane,bird,0,0022_ps_dnn_0_bird_10_n02006656_7153.png,n02006656_7153.png,0.0,1.0011342,1.7333996,-0.5177899
alexnet_w1_mlp_simclrhn_probe2,1,23,NaN,boat,boat,60,0023_ps_dnn_60_boat_10_n04612504_14699.png,n04612504_14699.png,1.0,1.0144451,-1.3734264,1.6884801
alexnet_w1_mlp_simclrhn_probe2,1,24,NaN,bear,bear,60,0024_ps_dnn_60_bear_10_n02134418_5971.png,n02134418_5971.png,1.0,1.776141,0.43046045,0.9515399
alexnet_w1_mlp_simclrhn_probe2,1,25,NaN,cat,dog,90,0025_ps_dnn_90_dog_10_n02110063_16680.png,n02110063_16680.png,0.0,-0.8941357,-0.33912992,-0.39244837
alexnet_w1_mlp_simclrhn_probe2,1,26,NaN,oven,car,90,0026_ps_dnn_90_car_10_n03100240_6010.png,n03100240_6010.png,0.0,-4.6719866,0.9182756,-3.9529126
alexnet_w1_mlp_simclrhn_probe2,1,27,NaN,elephant,elephant,30,0027_ps_dnn_30_elephant_10_n02504458_9835.png,n02504458_9835.png,1.0,0.9576549,-0.38724822,0.95099014
alexnet_w1_mlp_simclrhn_probe2,1,28,NaN,airplane,airplane,30,0028_ps_dnn_30_airplane_10_n02690373_10207.png,n02690373_10207.png,1.0,2.1026707,0.25134724,1.3090833
alexnet_w1_mlp_simclrhn_probe2,1,29,NaN,knife,bottle,180,0029_ps_dnn_180_bottle_10_n03983396_5532.png,n03983396_5532.png,0.0,-2.8263996,-0.516511,-1.633338
alexnet_w1_mlp_simclrhn_probe2,1,30,NaN,dog,dog,30,0030_ps_dnn_30_dog_10_n02090622_1485.png,n02090622_1485.png,1.0,2.8213017,-2.42895,3.7124887
alexnet_w1_mlp_simclrhn_probe2,1,31,NaN,bear,truck,150,0031_ps_dnn_150_truck_10_n03417042_5503.png,n03417042_5503.png,0.0,-3.8072224,-0.73132,-2.1749916
alexnet_w1_mlp_simclrhn_probe2,1,32,NaN,bear,bear,180,0032_ps_dnn_180_bear_10_n02133161_897.png,n02133161_897.png,1.0,-0.6298469,-0.77088803,0.09973116
alexnet_w1_mlp_simclrhn_probe2,1,33,NaN,knife,keyboard,180,0033_ps_dnn_180_keyboard_10_n04505470_4579.png,n04505470_4579.png,0.0,-0.38698095,-0.34734276,-0.028028434
alexnet_w1_mlp_simclrhn_probe2,1,34,NaN,bird,bird,60,0034_ps_dnn_60_bird_10_n01592084_5833.png,n01592084_5833.png,1.0,0.4136285,-1.6674922,1.4715747
alexnet_w1_mlp_simclrhn_probe2,1,35,NaN,dog,dog,0,0035_ps_dnn_0_dog_10_n02090379_3514.png,n02090379_3514.png,1.0,1.6656824,0.015494287,1.1668593
alexnet_w1_mlp_simclrhn_probe2,1,36,NaN,knife,airplane,180,0036_ps_dnn_180_airplane_10_n02690373_6144.png,n02690373_6144.png,0.0,-4.907092,-0.3987299,-3.1878936
alexnet_w1_mlp_simclrhn_probe2,1,37,NaN,knife,airplane,90,0037_ps_dnn_90_airplane_10_n02690373_1436.png,n02690373_1436.png,0.0,-0.36075574,0.7416655,-0.7795296
alexnet_w1_mlp_simclrhn_probe2,1,38,NaN,oven,clock,120,0038_ps_dnn_120_clock_10_n04548280_354.png,n04548280_354.png,0.0,-2.5594275,-0.23350634,-1.6446745
alexnet_w1_mlp_simclrhn_probe2,1,39,NaN,keyboard,keyboard,0,0039_ps_dnn_0_keyboard_10_n03085013_2189.png,n03085013_2189.png,1.0,2.4033263,0.742777,1.1741856
alexnet_w1_mlp_simclrhn_probe2,1,40,NaN,bear,chair,120,0040_ps_dnn_120_chair_10_n04099969_9005.png,n04099969_9005.png,0.0,-3.0334,-0.85834527,-1.537996
alexnet_w1_mlp_simclrhn_probe2,1,41,NaN,knife,bicycle,180,0041_ps_dnn_180_bicycle_10_n02835271_7350.png,n02835271_7350.png,0.0,-1.67155,-0.6050818,-0.75410694
alexnet_w1_mlp_simclrhn_probe2,1,42,NaN,knife,bottle,150,0042_ps_dnn_150_bottle_10_n04557648_8320.png,n04557648_8320.png,0.0,-1.3038229,-0.6111981,-0.48975965
alexnet_w1_mlp_simclrhn_probe2,1,43,NaN,dog,dog,0,0043_ps_dnn_0_dog_10_n02105641_6503.png,n02105641_6503.png,1.0,1.5923167,-2.7447238,3.0667508
alexnet_w1_mlp_simclrhn_probe2,1,44,NaN,clock,clock,90,0044_ps_dnn_90_clock_10_n04548280_6022.png,n04548280_6022.png,1.0,0.105832815,-1.3223724,1.0098937
alexnet_w1_mlp_simclrhn_probe2,1,45,NaN,keyboard,clock,60,0045_ps_dnn_60_clock_10_n03196217_7414.png,n03196217_7414.png,0.0,-0.15545177,0.85168034,-0.7121499
alexnet_w1_mlp_simclrhn_probe2,1,46,NaN,keyboard,oven,150,0046_ps_dnn_150_oven_10_n04111531_7965.png,n04111531_7965.png,0.0,-1.5049152,-0.3519936,-0.8152388
alexnet_w1_mlp_simclrhn_probe2,1,47,NaN,clock,bottle,90,0047_ps_dnn_90_bottle_10_n04579145_4594.png,n04579145_4594.png,0.0,-2.06216,-1.4746642,-0.41542226
alexnet_w1_mlp_simclrhn_probe2,1,48,NaN,oven,bottle,30,0048_ps_dnn_30_bottle_10_n03983396_4564.png,n03983396_4564.png,0.0,0.39306903,2.755146,-1.6702406
alexnet_w1_mlp_simclrhn_probe2,1,49,NaN,cat,cat,60,0049_ps_dnn_60_cat_10_n02125311_54015.png,n02125311_54015.png,1.0,1.489854,0.27926886,0.85601294
alexnet_w1_mlp_simclrhn_probe2,1,50,NaN,bird,bicycle,150,0050_ps_dnn_150_bicycle_10_n03792782_5133.png,n03792782_5133.png,0.0,-1.2027991,-0.70744497,-0.35026827
alexnet_w1_mlp_simclrhn_probe2,1,51,NaN,bear,bird,120,0051_ps_dnn_120_bird_10_n02018207_6296.png,n02018207_6296.png,0.0,-0.40162382,-0.16390851,-0.1680901
alexnet_w1_mlp_simclrhn_probe2,1,52,NaN,elephant,bird,30,0052_ps_dnn_30_bird_10_n01817953_11996.png,n01817953_11996.png,0.0,-6.2551303,2.3460662,-6.0819645
alexnet_w1_mlp_simclrhn_probe2,1,53,NaN,oven,keyboard,150,0053_ps_dnn_150_keyboard_10_n03085013_3148.png,n03085013_3148.png,0.0,-2.5789714,-0.42789042,-1.521044
alexnet_w1_mlp_simclrhn_probe2,1,54,NaN,bear,bear,60,0054_ps_dnn_60_bear_10_n02134418_5537.png,n02134418_5537.png,1.0,2.2166991,-0.1318127,1.6606487
alexnet_w1_mlp_simclrhn_probe2,1,55,NaN,knife,cat,150,0055_ps_dnn_150_cat_10_n02125311_11409.png,n02125311_11409.png,0.0,-2.1881936,-1.1626064,-0.7251997
alexnet_w1_mlp_simclrhn_probe2,1,56,NaN,bird,knife,30,0056_ps_dnn_30_knife_10_n03041632_3063.png,n03041632_3063.png,0.0,-5.2647114,-1.3363186,-2.7777934
alexnet_w1_mlp_simclrhn_probe2,1,57,NaN,bear,dog,60,0057_ps_dnn_60_dog_10_n02106550_6424.png,n02106550_6424.png,0.0,-0.43563268,0.74499786,-0.8348319
alexnet_w1_mlp_simclrhn_probe2,1,58,NaN,elephant,bear,30,0058_ps_dnn_30_bear_10_n02133161_7032.png,n02133161_7032.png,0.0,1.3552067,2.2544289,-0.6358461
alexnet_w1_mlp_simclrhn_probe2,1,59,NaN,knife,cat,150,0059_ps_dnn_150_cat_10_n02125311_5570.png,n02125311_5570.png,0.0,-2.1352944,-1.0815787,-0.74508953
alexnet_w1_mlp_simclrhn_probe2,1,60,NaN,elephant,bird,30,0060_ps_dnn_30_bird_10_n01843383_13894.png,n01843383_13894.png,0.0,-0.37657213,0.41012797,-0.55628103
alexnet_w1_mlp_simclrhn_probe2,1,61,NaN,oven,bottle,60,0061_ps_dnn_60_bottle_10_n03983396_2205.png,n03983396_2205.png,0.0,-2.899363,1.5203283,-3.1251936
alexnet_w1_mlp_simclrhn_probe2,1,62,NaN,bicycle,bicycle,60,0062_ps_dnn_60_bicycle_10_n03792782_31010.png,n03792782_31010.png,1.0,3.8005419,-2.0092466,4.108141
alexnet_w1_mlp_simclrhn_probe2,1,63,NaN,bottle,bottle,60,0063_ps_dnn_60_bottle_10_n02823428_880.png,n02823428_880.png,1.0,3.2313423,0.3351048,2.0479493
alexnet_w1_mlp_simclrhn_probe2,1,64,NaN,bear,car,180,0064_ps_dnn_180_car_10_n02814533_40459.png,n02814533_40459.png,0.0,-4.3838043,-0.95675826,-2.4232876
alexnet_w1_mlp_simclrhn_probe2,1,65,NaN,bear,cat,120,0065_ps_dnn_120_cat_10_n02123045_567.png,n02123045_567.png,0.0,-1.2188274,-0.21486683,-0.7099073
alexnet_w1_mlp_simclrhn_probe2,1,66,NaN,elephant,knife,120,0066_ps_dnn_120_knife_10_n03041632_24541.png,n03041632_24541.png,0.0,-0.8007462,-0.5290146,-0.19214328
alexnet_w1_mlp_simclrhn_probe2,1,67,NaN,elephant,elephant,30,0067_ps_dnn_30_elephant_10_n02504458_8644.png,n02504458_8644.png,1.0,4.3093567,0.05288678,3.0097787
alexnet_w1_mlp_simclrhn_probe2,1,68,NaN,keyboard,keyboard,0,0068_ps_dnn_0_keyboard_10_n03085013_2166.png,n03085013_2166.png,1.0,5.2669854,1.5820812,2.6056206
alexnet_w1_mlp_simclrhn_probe2,1,69,NaN,bear,boat,90,0069_ps_dnn_90_boat_10_n04273569_13972.png,n04273569_13972.png,0.0,-2.1145065,-0.21061045,-1.3462578
alexnet_w1_mlp_simclrhn_probe2,1,70,NaN,knife,airplane,150,0070_ps_dnn_150_airplane_10_n02690373_9432.png,n02690373_9432.png,0.0,-3.1022766,-0.6512902,-1.7331091
alexnet_w1_mlp_simclrhn_probe2,1,71,NaN,oven,truck,90,0071_ps_dnn_90_truck_10_n03417042_5228.png,n03417042_5228.png,0.0,-4.220564,0.9121595,-3.6293836
alexnet_w1_mlp_simclrhn_probe2,1,72,NaN,airplane,airplane,0,0072_ps_dnn_0_airplane_10_n02690373_4294.png,n02690373_4294.png,1.0,6.9322853,1.7730141,3.6481557
alexnet_w1_mlp_simclrhn_probe2,1,73,NaN,clock,chair,30,0073_ps_dnn_30_chair_10_n04099969_52474.png,n04099969_52474.png,0.0,-0.82998955,0.39056087,-0.8630595
alexnet_w1_mlp_simclrhn_probe2,1,74,NaN,oven,oven,30,0074_ps_dnn_30_oven_10_n04111531_21822.png,n04111531_21822.png,1.0,3.6534872,1.9924705,1.1745162
alexnet_w1_mlp_simclrhn_probe2,1,75,NaN,knife,oven,150,0075_ps_dnn_150_oven_10_n04111531_15735.png,n04111531_15735.png,0.0,-0.4555633,-0.16024919,-0.20881863
alexnet_w1_mlp_simclrhn_probe2,1,76,NaN,elephant,dog,120,0076_ps_dnn_120_dog_10_n02104029_7335.png,n02104029_7335.png,0.0,-0.673897,-0.11915387,-0.39226267
alexnet_w1_mlp_simclrhn_probe2,1,77,NaN,bear,truck,150,0077_ps_dnn_150_truck_10_n03417042_17911.png,n03417042_17911.png,0.0,-5.392354,-0.82976216,-3.22624
alexnet_w1_mlp_simclrhn_probe2,1,78,NaN,boat,clock,30,0078_ps_dnn_30_clock_10_n02708093_899.png,n02708093_899.png,0.0,-1.4875833,-0.98231965,-0.35727534
alexnet_w1_mlp_simclrhn_probe2,1,79,NaN,boat,boat,60,0079_ps_dnn_60_boat_10_n03662601_9590.png,n03662601_9590.png,1.0,3.3223672,-0.40755138,2.6374507
alexnet_w1_mlp_simclrhn_probe2,1,80,NaN,bear,chair,90,0080_ps_dnn_90_chair_10_n02791124_6550.png,n02791124_6550.png,0.0,-5.879901,0.5147214,-4.521681
alexnet_w1_mlp_simclrhn_probe2,1,81,NaN,knife,clock,180,0081_ps_dnn_180_clock_10_n03196217_4492.png,n03196217_4492.png,0.0,-1.1870342,0.14708687,-0.9433661
alexnet_w1_mlp_simclrhn_probe2,1,82,NaN,car,car,30,0082_ps_dnn_30_car_10_n04285008_14128.png,n04285008_14128.png,1.0,6.17586,2.0577595,2.9119365
alexnet_w1_mlp_simclrhn_probe2,1,83,NaN,bicycle,bicycle,60,0083_ps_dnn_60_bicycle_10_n02835271_4730.png,n02835271_4730.png,1.0,1.9198588,-0.715693,1.8636167
alexnet_w1_mlp_simclrhn_probe2,1,84,NaN,elephant,elephant,0,0084_ps_dnn_0_elephant_10_n02504458_62.png,n02504458_62.png,1.0,10.767878,0.42854148,7.311015
alexnet_w1_mlp_simclrhn_probe2,1,85,NaN,bear,dog,120,0085_ps_dnn_120_dog_10_n02086646_8144.png,n02086646_8144.png,0.0,-1.1254143,0.031744376,-0.81823474
alexnet_w1_mlp_simclrhn_probe2,1,86,NaN,knife,knife,60,0086_ps_dnn_60_knife_10_n03041632_1671.png,n03041632_1671.png,1.0,-1.9905057,-2.2457557,0.18048899
alexnet_w1_mlp_simclrhn_probe2,1,87,NaN,bear,bird,180,0087_ps_dnn_180_bird_10_n01534433_10801.png,n01534433_10801.png,0.0,-1.0231385,0.044431202,-0.7548858
alexnet_w1_mlp_simclrhn_probe2,1,88,NaN,oven,keyboard,150,0088_ps_dnn_150_keyboard_10_n03085013_20570.png,n03085013_20570.png,0.0,-3.6764245,-0.4454741,-2.284627
alexnet_w1_mlp_simclrhn_probe2,1,89,NaN,knife,knife,150,0089_ps_dnn_150_knife_10_n03041632_4808.png,n03041632_4808.png,1.0,-0.24287263,-1.3411639,0.77660924
alexnet_w1_mlp_simclrhn_probe2,1,90,NaN,knife,keyboard,180,0090_ps_dnn_180_keyboard_10_n03085013_1808.png,n03085013_1808.png,0.0,-2.8509598,-0.5175693,-1.6499562
alexnet_w1_mlp_simclrhn_probe2,1,91,NaN,oven,truck,120,0091_ps_dnn_120_truck_10_n03796401_4370.png,n03796401_4370.png,0.0,-4.3255873,-0.6579195,-2.593433
alexnet_w1_mlp_simclrhn_probe2,1,92,NaN,airplane,airplane,60,0092_ps_dnn_60_airplane_10_n02690373_6314.png,n02690373_6314.png,1.0,2.2986128,1.4708302,0.5853307
alexnet_w1_mlp_simclrhn_probe2,1,93,NaN,oven,oven,90,0093_ps_dnn_90_oven_10_n04111531_4879.png,n04111531_4879.png,1.0,0.7438756,-1.1950126,1.371001
alexnet_w1_mlp_simclrhn_probe2,1,94,NaN,knife,airplane,180,0094_ps_dnn_180_airplane_10_n02690373_4375.png,n02690373_4375.png,0.0,-1.9039881,0.094600216,-1.4132154
alexnet_w1_mlp_simclrhn_probe2,1,95,NaN,oven,bottle,60,0095_ps_dnn_60_bottle_10_n04557648_4133.png,n04557648_4133.png,0.0,-0.012187815,0.4437415,-0.3223907
alexnet_w1_mlp_simclrhn_probe2,1,96,NaN,bear,bicycle,120,0096_ps_dnn_120_bicycle_10_n02835271_19213.png,n02835271_19213.png,0.0,-0.91768956,-0.44603375,-0.33351102
alexnet_w1_mlp_simclrhn_probe2,1,97,NaN,bear,bear,150,0097_ps_dnn_150_bear_10_n02132136_10577.png,n02132136_10577.png,1.0,-1.0162587,-1.042522,0.018570913
alexnet_w1_mlp_simclrhn_probe2,1,98,NaN,airplane,airplane,90,0098_ps_dnn_90_airplane_10_n02690373_3147.png,n02690373_3147.png,1.0,0.35681188,0.27808183,0.055670552
alexnet_w1_mlp_simclrhn_probe2,1,99,NaN,elephant,elephant,60,0099_ps_dnn_60_elephant_10_n02504013_10389.png,n02504013_10389.png,1.0,3.9377117,2.0720582,1.3192163
alexnet_w1_mlp_simclrhn_probe2,1,100,NaN,oven,chair,150,0100_ps_dnn_150_chair_10_n02791124_5685.png,n02791124_5685.png,0.0,-2.0858617,-0.7533782,-0.9422082
alexnet_w1_mlp_simclrhn_probe2,1,101,NaN,oven,bird,60,0101_ps_dnn_60_bird_10_n01817953_6333.png,n01817953_6333.png,0.0,-3.1521869,-0.35345912,-1.9789994
alexnet_w1_mlp_simclrhn_probe2,1,102,NaN,keyboard,keyboard,90,0102_ps_dnn_90_keyboard_10_n03085013_20247.png,n03085013_20247.png,1.0,1.2789744,-0.29571533,1.1134738
alexnet_w1_mlp_simclrhn_probe2,1,103,NaN,airplane,airplane,0,0103_ps_dnn_0_airplane_10_n02690373_5729.png,n02690373_5729.png,1.0,6.1487083,-1.1244874,5.142926
alexnet_w1_mlp_simclrhn_probe2,1,104,NaN,bicycle,bicycle,90,0104_ps_dnn_90_bicycle_10_n03792782_55532.png,n03792782_55532.png,1.0,1.0724871,-2.0621562,2.2165277
alexnet_w1_mlp_simclrhn_probe2,1,105,NaN,bicycle,bicycle,0,0105_ps_dnn_0_bicycle_10_n02835271_8417.png,n02835271_8417.png,1.0,10.340551,-1.013716,8.02868
alexnet_w1_mlp_simclrhn_probe2,1,106,NaN,oven,clock,60,0106_ps_dnn_60_clock_10_n03196217_599.png,n03196217_599.png,0.0,-0.7056954,1.1384108,-1.30398
alexnet_w1_mlp_simclrhn_probe2,1,107,NaN,airplane,airplane,0,0107_ps_dnn_0_airplane_10_n02690373_1952.png,n02690373_1952.png,1.0,2.518006,-0.51588225,2.145283
alexnet_w1_mlp_simclrhn_probe2,1,108,NaN,bear,bear,180,0108_ps_dnn_180_bear_10_n02134084_23061.png,n02134084_23061.png,1.0,-0.5029614,-0.72629195,0.15791856
alexnet_w1_mlp_simclrhn_probe2,1,109,NaN,oven,bicycle,150,0109_ps_dnn_150_bicycle_10_n03792782_27445.png,n03792782_27445.png,0.0,-1.385084,-0.6857373,-0.49451283
alexnet_w1_mlp_simclrhn_probe2,1,110,NaN,bottle,clock,30,0110_ps_dnn_30_clock_10_n03196217_6348.png,n03196217_6348.png,0.0,-2.900932,-1.3198254,-1.1180112
alexnet_w1_mlp_simclrhn_probe2,1,111,NaN,bear,bear,90,0111_ps_dnn_90_bear_10_n02132136_5778.png,n02132136_5778.png,1.0,0.5481726,0.2228697,0.23002389
alexnet_w1_mlp_simclrhn_probe2,1,112,NaN,knife,boat,90,0112_ps_dnn_90_boat_10_n04273569_4772.png,n04273569_4772.png,0.0,-0.99337023,0.24885479,-0.8783858
alexnet_w1_mlp_simclrhn_probe2,1,113,NaN,oven,oven,180,0113_ps_dnn_180_oven_10_n04111531_23830.png,n04111531_23830.png,1.0,-1.1943696,-1.3244984,0.092015
alexnet_w1_mlp_simclrhn_probe2,1,114,NaN,bear,bird,150,0114_ps_dnn_150_bird_10_n01855032_1306.png,n01855032_1306.png,0.0,-0.7574822,-0.24888197,-0.35963467
alexnet_w1_mlp_simclrhn_probe2,1,115,NaN,elephant,elephant,60,0115_ps_dnn_60_elephant_10_n02504013_8905.png,n02504013_8905.png,1.0,5.1283665,2.700448,1.7167976
alexnet_w1_mlp_simclrhn_probe2,1,116,NaN,oven,truck,60,0116_ps_dnn_60_truck_10_n04467665_30461.png,n04467665_30461.png,0.0,-2.0685124,-0.79366076,-0.9014563
alexnet_w1_mlp_simclrhn_probe2,1,117,NaN,knife,knife,60,0117_ps_dnn_60_knife_10_n03041632_20662.png,n03041632_20662.png,1.0,-0.65416324,-1.2263196,0.40457562
alexnet_w1_mlp_simclrhn_probe2,1,118,NaN,knife,boat,180,0118_ps_dnn_180_boat_10_n03662601_15915.png,n03662601_15915.png,0.0,-3.575951,-1.097286,-1.7526809
alexnet_w1_mlp_simclrhn_probe2,1,119,NaN,bear,boat,150,0119_ps_dnn_150_boat_10_n04273569_62.png,n04273569_62.png,0.0,-0.70024407,-0.38551325,-0.2225483
alexnet_w1_mlp_simclrhn_probe2,1,120,NaN,bear,bicycle,180,0120_ps_dnn_180_bicycle_10_n03792782_8080.png,n03792782_8080.png,0.0,-1.3087344,-0.62028015,-0.48681068
alexnet_w1_mlp_simclrhn_probe2,1,121,NaN,bear,airplane,120,0121_ps_dnn_120_airplane_10_n02690373_10309.png,n02690373_10309.png,0.0,-3.1366477,-0.53017783,-1.8430525
alexnet_w1_mlp_simclrhn_probe2,1,122,NaN,cat,dog,30,0122_ps_dnn_30_dog_10_n02093859_1001.png,n02093859_1001.png,0.0,0.19429271,0.7746272,-0.41035846
alexnet_w1_mlp_simclrhn_probe2,1,123,NaN,oven,oven,0,0123_ps_dnn_0_oven_10_n04111531_15267.png,n04111531_15267.png,1.0,4.5819197,-1.1694369,4.0668235
alexnet_w1_mlp_simclrhn_probe2,1,124,NaN,bear,cat,90,0124_ps_dnn_90_cat_10_n02124075_81.png,n02124075_81.png,0.0,-0.7605098,0.3070473,-0.75487685
alexnet_w1_mlp_simclrhn_probe2,1,125,NaN,elephant,elephant,60,0125_ps_dnn_60_elephant_10_n02504013_7314.png,n02504013_7314.png,1.0,1.8951843,1.277496,0.4367716
alexnet_w1_mlp_simclrhn_probe2,1,126,NaN,oven,bottle,120,0126_ps_dnn_120_bottle_10_n03983396_3294.png,n03983396_3294.png,0.0,-1.5320166,-0.89837676,-0.44805107
alexnet_w1_mlp_simclrhn_probe2,1,127,NaN,cat,cat,60,0127_ps_dnn_60_cat_10_n02123159_3201.png,n02123159_3201.png,1.0,3.6971319,-1.380275,3.5902689
alexnet_w1_mlp_simclrhn_probe2,1,128,NaN,bear,dog,90,0128_ps_dnn_90_dog_10_n02101388_11601.png,n02101388_11601.png,0.0,-0.33165568,0.11335204,-0.31466797
alexnet_w1_mlp_simclrhn_probe2,1,129,NaN,cat,cat,30,0129_ps_dnn_30_cat_10_n02123597_4442.png,n02123597_4442.png,1.0,0.6650504,0.6294569,0.025168413
alexnet_w1_mlp_simclrhn_probe2,1,130,NaN,airplane,airplane,30,0130_ps_dnn_30_airplane_10_n02690373_1950.png,n02690373_1950.png,1.0,3.9954915,1.4169377,1.8233129
alexnet_w1_mlp_simclrhn_probe2,1,131,NaN,bear,bird,120,0131_ps_dnn_120_bird_10_n01616318_4652.png,n01616318_4652.png,0.0,-1.9322474,0.4327453,-1.6723024
alexnet_w1_mlp_simclrhn_probe2,1,132,NaN,boat,airplane,90,0132_ps_dnn_90_airplane_10_n02690373_17937.png,n02690373_17937.png,0.0,-0.31320184,0.78404826,-0.775873
alexnet_w1_mlp_simclrhn_probe2,1,133,NaN,clock,clock,30,0133_ps_dnn_30_clock_10_n02708093_1125.png,n02708093_1125.png,1.0,3.8767338,-1.01003,3.4554636
alexnet_w1_mlp_simclrhn_probe2,1,134,NaN,bear,elephant,150,0134_ps_dnn_150_elephant_10_n02504458_6499.png,n02504458_6499.png,0.0,-0.84059346,-0.48004696,-0.2549449
alexnet_w1_mlp_simclrhn_probe2,1,135,NaN,oven,clock,30,0135_ps_dnn_30_clock_10_n02708093_51.png,n02708093_51.png,0.0,-2.6098704,-0.57825434,-1.4365696
alexnet_w1_mlp_simclrhn_probe2,1,136,NaN,oven,bicycle,90,0136_ps_dnn_90_bicycle_10_n02835271_13180.png,n02835271_13180.png,0.0,-2.893945,0.5151729,-2.4106104
alexnet_w1_mlp_simclrhn_probe2,1,137,NaN,bear,cat,120,0137_ps_dnn_120_cat_10_n02123597_7297.png,n02123597_7297.png,0.0,-1.0008276,-0.42548588,-0.40682802
alexnet_w1_mlp_simclrhn_probe2,1,138,NaN,oven,clock,30,0138_ps_dnn_30_clock_10_n04548280_1109.png,n04548280_1109.png,0.0,-4.0800467,0.97517395,-3.574581
alexnet_w1_mlp_simclrhn_probe2,1,139,NaN,clock,clock,60,0139_ps_dnn_60_clock_10_n04548280_1304.png,n04548280_1304.png,1.0,-1.2507164,-2.8503625,1.1311206
alexnet_w1_mlp_simclrhn_probe2,1,140,NaN,knife,bird,180,0140_ps_dnn_180_bird_10_n01833805_8179.png,n01833805_8179.png,0.0,-0.7195803,-0.45656136,-0.18598248
alexnet_w1_mlp_simclrhn_probe2,1,141,NaN,bottle,bottle,60,0141_ps_dnn_60_bottle_10_n03983396_24525.png,n03983396_24525.png,1.0,1.1600577,-0.08540368,0.8806742
alexnet_w1_mlp_simclrhn_probe2,1,142,NaN,bear,elephant,120,0142_ps_dnn_120_elephant_10_n02504013_5945.png,n02504013_5945.png,0.0,-1.367217,-0.752913,-0.4343785
alexnet_w1_mlp_simclrhn_probe2,1,143,NaN,oven,airplane,120,0143_ps_dnn_120_airplane_10_n02690373_13610.png,n02690373_13610.png,0.0,-3.1080842,0.40304562,-2.4827437
alexnet_w1_mlp_simclrhn_probe2,1,144,NaN,elephant,knife,90,0144_ps_dnn_90_knife_10_n03041632_21859.png,n03041632_21859.png,0.0,-0.9132201,-0.6480502,-0.18750346
alexnet_w1_mlp_simclrhn_probe2,1,145,NaN,cat,cat,60,0145_ps_dnn_60_cat_10_n02123045_568.png,n02123045_568.png,1.0,0.9763832,0.34632793,0.44551638
alexnet_w1_mlp_simclrhn_probe2,1,146,NaN,oven,clock,180,0146_ps_dnn_180_clock_10_n02708093_960.png,n02708093_960.png,0.0,-1.7239796,-1.4248784,-0.21149652
alexnet_w1_mlp_simclrhn_probe2,1,147,NaN,bear,bicycle,120,0147_ps_dnn_120_bicycle_10_n02835271_9669.png,n02835271_9669.png,0.0,-0.6275203,-0.56357956,-0.045212947
alexnet_w1_mlp_simclrhn_probe2,1,148,NaN,bear,cat,60,0148_ps_dnn_60_cat_10_n02123597_14647.png,n02123597_14647.png,0.0,0.6675825,0.87653613,-0.14775252
alexnet_w1_mlp_simclrhn_probe2,1,149,NaN,bicycle,bicycle,0,0149_ps_dnn_0_bicycle_10_n02835271_7794.png,n02835271_7794.png,1.0,3.3781257,-2.3598626,4.0573707
alexnet_w1_mlp_simclrhn_probe2,1,150,NaN,bird,bird,0,0150_ps_dnn_0_bird_10_n02011460_5925.png,n02011460_5925.png,1.0,0.2744948,-1.7662102,1.4429964
alexnet_w1_mlp_simclrhn_probe2,1,151,NaN,oven,oven,90,0151_ps_dnn_90_oven_10_n04111531_8852.png,n04111531_8852.png,1.0,-0.3506158,-0.58894265,0.16852254
alexnet_w1_mlp_simclrhn_probe2,1,152,NaN,oven,knife,90,0152_ps_dnn_90_knife_10_n03041632_84086.png,n03041632_84086.png,0.0,-4.496818,1.6140853,-4.321061
alexnet_w1_mlp_simclrhn_probe2,1,153,NaN,car,car,60,0153_ps_dnn_60_car_10_n03100240_13602.png,n03100240_13602.png,1.0,5.3572173,2.0781624,2.318642
alexnet_w1_mlp_simclrhn_probe2,1,154,NaN,knife,dog,180,0154_ps_dnn_180_dog_10_n02106662_43958.png,n02106662_43958.png,0.0,-2.163841,-0.9789652,-0.8378337
alexnet_w1_mlp_simclrhn_probe2,1,155,NaN,knife,chair,30,0155_ps_dnn_30_chair_10_n02791124_1292.png,n02791124_1292.png,0.0,-2.4106312,-1.8428223,-0.4015015
alexnet_w1_mlp_simclrhn_probe2,1,156,NaN,bear,dog,90,0156_ps_dnn_90_dog_10_n02085782_4522.png,n02085782_4522.png,0.0,-1.0696274,0.969558,-1.441922
alexnet_w1_mlp_simclrhn_probe2,1,157,NaN,bear,bear,60,0157_ps_dnn_60_bear_10_n02132136_686.png,n02132136_686.png,1.0,4.124741,2.8580635,0.8956764
alexnet_w1_mlp_simclrhn_probe2,1,158,NaN,bear,bird,120,0158_ps_dnn_120_bird_10_n01796340_12914.png,n01796340_12914.png,0.0,-0.86037725,-0.41484022,-0.31504226
alexnet_w1_mlp_simclrhn_probe2,1,159,NaN,bottle,knife,60,0159_ps_dnn_60_knife_10_n03041632_24060.png,n03041632_24060.png,0.0,-0.7408617,1.2756783,-1.4259092
alexnet_w1_mlp_simclrhn_probe2,1,160,NaN,knife,bottle,180,0160_ps_dnn_180_bottle_10_n03983396_4775.png,n03983396_4775.png,0.0,-0.8487114,-0.22760782,-0.4391865
alexnet_w1_mlp_simclrhn_probe2,1,161,NaN,bear,keyboard,120,0161_ps_dnn_120_keyboard_10_n04505470_1516.png,n04505470_1516.png,0.0,-5.288486,-1.4095428,-2.7428272
alexnet_w1_mlp_simclrhn_probe2,1,162,NaN,knife,boat,150,0162_ps_dnn_150_boat_10_n03344393_4944.png,n03344393_4944.png,0.0,-1.9422089,0.14494732,-1.4758424
alexnet_w1_mlp_simclrhn_probe2,1,163,NaN,knife,cat,150,0163_ps_dnn_150_cat_10_n02123159_3524.png,n02123159_3524.png,0.0,-2.1753893,-0.28856108,-1.334189
alexnet_w1_mlp_simclrhn_probe2,1,164,NaN,airplane,truck,60,0164_ps_dnn_60_truck_10_n04467665_50648.png,n04467665_50648.png,0.0,-1.3858675,1.4831927,-2.0287318
alexnet_w1_mlp_simclrhn_probe2,1,165,NaN,dog,dog,0,0165_ps_dnn_0_dog_10_n02107574_1277.png,n02107574_1277.png,1.0,-1.7840657,-1.8501141,0.04670326
alexnet_w1_mlp_simclrhn_probe2,1,166,NaN,oven,oven,60,0166_ps_dnn_60_oven_10_n04111531_21980.png,n04111531_21980.png,1.0,3.3624306,-0.4502345,2.6959612
alexnet_w1_mlp_simclrhn_probe2,1,167,NaN,oven,boat,120,0167_ps_dnn_120_boat_10_n03344393_11315.png,n03344393_11315.png,0.0,-2.6201324,-0.33832267,-1.6134832
alexnet_w1_mlp_simclrhn_probe2,1,168,NaN,oven,knife,90,0168_ps_dnn_90_knife_10_n03041632_32896.png,n03041632_32896.png,0.0,-0.8389978,0.065760896,-0.63976103
alexnet_w1_mlp_simclrhn_probe2,1,169,NaN,bottle,bottle,30,0169_ps_dnn_30_bottle_10_n03937543_3133.png,n03937543_3133.png,1.0,0.05098837,-0.47230327,0.37002307
alexnet_w1_mlp_simclrhn_probe2,1,170,NaN,oven,car,180,0170_ps_dnn_180_car_10_n04285008_15213.png,n04285008_15213.png,0.0,-5.0382752,-0.34956306,-3.3154202
alexnet_w1_mlp_simclrhn_probe2,1,171,NaN,oven,elephant,90,0171_ps_dnn_90_elephant_10_n02504013_3081.png,n02504013_3081.png,0.0,-0.13879499,0.37072352,-0.360284
alexnet_w1_mlp_simclrhn_probe2,1,172,NaN,cat,cat,60,0172_ps_dnn_60_cat_10_n02123159_6873.png,n02123159_6873.png,1.0,-0.53832173,-1.1760426,0.45093673
alexnet_w1_mlp_simclrhn_probe2,1,173,NaN,bottle,bottle,60,0173_ps_dnn_60_bottle_10_n04579145_4385.png,n04579145_4385.png,1.0,3.8526516,-2.6225426,4.578654
alexnet_w1_mlp_simclrhn_probe2,1,174,NaN,bear,bear,60,0174_ps_dnn_60_bear_10_n02134418_2185.png,n02134418_2185.png,1.0,1.4898295,0.6901287,0.5654739
alexnet_w1_mlp_simclrhn_probe2,1,175,NaN,bear,chair,150,0175_ps_dnn_150_chair_10_n04429376_16002.png,n04429376_16002.png,0.0,-2.2767065,-0.48709032,-1.2654498
alexnet_w1_mlp_simclrhn_probe2,1,176,NaN,bicycle,car,60,0176_ps_dnn_60_car_10_n03100240_8107.png,n03100240_8107.png,0.0,-3.1789408,0.5113466,-2.6094272
alexnet_w1_mlp_simclrhn_probe2,1,177,NaN,boat,boat,60,0177_ps_dnn_60_boat_10_n04273569_15906.png,n04273569_15906.png,1.0,0.76091254,-1.3825266,1.5156405
alexnet_w1_mlp_simclrhn_probe2,1,178,NaN,elephant,car,150,0178_ps_dnn_150_car_10_n02814533_85659.png,n02814533_85659.png,0.0,-3.7625828,-0.52390957,-2.290088
alexnet_w1_mlp_simclrhn_probe2,1,179,NaN,oven,car,150,0179_ps_dnn_150_car_10_n02814533_87140.png,n02814533_87140.png,0.0,-5.8470674,-0.53225416,-3.7581406
alexnet_w1_mlp_simclrhn_probe2,1,180,NaN,keyboard,keyboard,30,0180_ps_dnn_30_keyboard_10_n03085013_7520.png,n03085013_7520.png,1.0,5.162306,0.84595543,3.0521207
alexnet_w1_mlp_simclrhn_probe2,1,181,NaN,bear,dog,90,0181_ps_dnn_90_dog_10_n02112018_10082.png,n02112018_10082.png,0.0,-0.2583598,1.0737907,-0.9419726
alexnet_w1_mlp_simclrhn_probe2,1,182,NaN,oven,bear,90,0182_ps_dnn_90_bear_10_n02134084_5733.png,n02134084_5733.png,0.0,-0.24424574,0.34301782,-0.41525808
alexnet_w1_mlp_simclrhn_probe2,1,183,NaN,oven,cat,90,0183_ps_dnn_90_cat_10_n02123597_3821.png,n02123597_3821.png,0.0,-0.4738356,0.62737316,-0.77867216
alexnet_w1_mlp_simclrhn_probe2,1,184,NaN,oven,boat,120,0184_ps_dnn_120_boat_10_n04612504_15256.png,n04612504_15256.png,0.0,-3.418419,-0.8014958,-1.8504441
alexnet_w1_mlp_simclrhn_probe2,1,185,NaN,oven,car,90,0185_ps_dnn_90_car_10_n02814533_84296.png,n02814533_84296.png,0.0,-4.694117,0.985275,-4.0159364
alexnet_w1_mlp_simclrhn_probe2,1,186,NaN,bear,clock,120,0186_ps_dnn_120_clock_10_n04548280_5295.png,n04548280_5295.png,0.0,-1.4592686,-0.3810539,-0.7624129
alexnet_w1_mlp_simclrhn_probe2,1,187,NaN,airplane,airplane,30,0187_ps_dnn_30_airplane_10_n02690373_11799.png,n02690373_11799.png,1.0,2.15978,-1.0679915,2.2823792
alexnet_w1_mlp_simclrhn_probe2,1,188,NaN,bear,dog,120,0188_ps_dnn_120_dog_10_n02092002_9876.png,n02092002_9876.png,0.0,-1.6884613,-0.14429727,-1.0918889
alexnet_w1_mlp_simclrhn_probe2,1,189,NaN,chair,chair,0,0189_ps_dnn_0_chair_10_n02791124_16885.png,n02791124_16885.png,1.0,1.2699921,0.43976405,0.5870599
alexnet_w1_mlp_simclrhn_probe2,1,190,NaN,bicycle,airplane,60,0190_ps_dnn_60_airplane_10_n02690373_9376.png,n02690373_9376.png,0.0,-3.258398,-0.6266272,-1.8609431
alexnet_w1_mlp_simclrhn_probe2,1,191,NaN,knife,oven,180,0191_ps_dnn_180_oven_10_n04111531_6474.png,n04111531_6474.png,0.0,-2.0800385,-1.2468375,-0.5891621
alexnet_w1_mlp_simclrhn_probe2,1,192,NaN,knife,knife,180,0192_ps_dnn_180_knife_10_n03041632_44230.png,n03041632_44230.png,1.0,-0.87312096,-1.0393772,0.11756092
alexnet_w1_mlp_simclrhn_probe2,1,193,NaN,bear,dog,180,0193_ps_dnn_180_dog_10_n02099601_6318.png,n02099601_6318.png,0.0,-1.047035,-0.13383242,-0.6457317
alexnet_w1_mlp_simclrhn_probe2,1,194,NaN,bear,cat,150,0194_ps_dnn_150_cat_10_n02125311_20241.png,n02125311_20241.png,0.0,-1.1164623,-0.7000129,-0.2944742
alexnet_w1_mlp_simclrhn_probe2,1,195,NaN,oven,truck,120,0195_ps_dnn_120_truck_10_n04467665_51397.png,n04467665_51397.png,0.0,-4.5528965,-1.0339992,-2.4882362
alexnet_w1_mlp_simclrhn_probe2,1,196,NaN,dog,dog,0,0196_ps_dnn_0_dog_10_n02104365_1500.png,n02104365_1500.png,1.0,0.7135696,-0.5326516,0.88121146
alexnet_w1_mlp_simclrhn_probe2,1,197,NaN,knife,knife,90,0197_ps_dnn_90_knife_10_n03041632_3171.png,n03041632_3171.png,1.0,0.24851805,-1.4238955,1.182575
alexnet_w1_mlp_simclrhn_probe2,1,198,NaN,oven,oven,60,0198_ps_dnn_60_oven_10_n04111531_249.png,n04111531_249.png,1.0,2.5172856,-0.8384022,2.3728297
alexnet_w1_mlp_simclrhn_probe2,1,199,NaN,bear,bear,90,0199_ps_dnn_90_bear_10_n02133161_8856.png,n02133161_8856.png,1.0,-0.15038735,-0.15637521,0.004234062
alexnet_w1_mlp_simclrhn_probe2,1,200,NaN,cat,cat,0,0200_ps_dnn_0_cat_10_n02123045_13354.png,n02123045_13354.png,1.0,9.319141,-4.0560985,9.457724
alexnet_w1_mlp_simclrhn_probe2,1,201,NaN,keyboard,keyboard,120,0201_ps_dnn_120_keyboard_10_n03085013_23267.png,n03085013_23267.png,1.0,0.18619412,-0.098777846,0.2015056
alexnet_w1_mlp_simclrhn_probe2,1,202,NaN,oven,truck,30,0202_ps_dnn_30_truck_10_n03796401_22643.png,n03796401_22643.png,0.0,1.1045024,1.2567399,-0.10764811
alexnet_w1_mlp_simclrhn_probe2,1,203,NaN,knife,elephant,180,0203_ps_dnn_180_elephant_10_n02504458_4572.png,n02504458_4572.png,0.0,-1.4912939,0.18331334,-1.1841261
alexnet_w1_mlp_simclrhn_probe2,1,204,NaN,knife,truck,180,0204_ps_dnn_180_truck_10_n04467665_23173.png,n04467665_23173.png,0.0,-3.9154205,-0.7373569,-2.2472303
alexnet_w1_mlp_simclrhn_probe2,1,205,NaN,bear,bear,180,0205_ps_dnn_180_bear_10_n02134418_25040.png,n02134418_25040.png,1.0,-0.42226785,-0.49596936,0.052114833
alexnet_w1_mlp_simclrhn_probe2,1,206,NaN,bicycle,bicycle,60,0206_ps_dnn_60_bicycle_10_n02835271_21185.png,n02835271_21185.png,1.0,2.4190454,-1.2500826,2.5944653
alexnet_w1_mlp_simclrhn_probe2,1,207,NaN,chair,boat,30,0207_ps_dnn_30_boat_10_n02951358_12664.png,n02951358_12664.png,0.0,-2.293595,-0.1618232,-1.5073904
alexnet_w1_mlp_simclrhn_probe2,1,208,NaN,bottle,bottle,30,0208_ps_dnn_30_bottle_10_n03983396_11519.png,n03983396_11519.png,1.0,3.8689213,1.1568779,1.9177042
alexnet_w1_mlp_simclrhn_probe2,1,209,NaN,knife,knife,120,0209_ps_dnn_120_knife_10_n03041632_36280.png,n03041632_36280.png,1.0,-0.49012637,-0.75210005,0.18524337
alexnet_w1_mlp_simclrhn_probe2,1,210,NaN,boat,truck,60,0210_ps_dnn_60_truck_10_n04467665_67115.png,n04467665_67115.png,0.0,-1.6462283,0.6388214,-1.6157742
alexnet_w1_mlp_simclrhn_probe2,1,211,NaN,bear,bear,30,0211_ps_dnn_30_bear_10_n02133161_1560.png,n02133161_1560.png,1.0,-0.15426773,-0.47798026,0.22889933
alexnet_w1_mlp_simclrhn_probe2,1,212,NaN,oven,truck,180,0212_ps_dnn_180_truck_10_n03417042_6780.png,n03417042_6780.png,0.0,-2.9486969,0.13950628,-2.1836894
alexnet_w1_mlp_simclrhn_probe2,1,213,NaN,bear,bear,150,0213_ps_dnn_150_bear_10_n02134084_20261.png,n02134084_20261.png,1.0,-0.3326361,-0.3746011,0.029673742
alexnet_w1_mlp_simclrhn_probe2,1,214,NaN,knife,chair,180,0214_ps_dnn_180_chair_10_n03376595_8377.png,n03376595_8377.png,0.0,-3.0368447,-0.84583145,-1.5492804
alexnet_w1_mlp_simclrhn_probe2,1,215,NaN,bear,bird,180,0215_ps_dnn_180_bird_10_n01824575_3556.png,n01824575_3556.png,0.0,-0.9144666,-0.508606,-0.2869868
alexnet_w1_mlp_simclrhn_probe2,1,216,NaN,oven,chair,90,0216_ps_dnn_90_chair_10_n04099969_36004.png,n04099969_36004.png,0.0,-1.9509926,-0.90406716,-0.7402881
alexnet_w1_mlp_simclrhn_probe2,1,217,NaN,bicycle,bicycle,0,0217_ps_dnn_0_bicycle_10_n02835271_22549.png,n02835271_22549.png,1.0,10.537047,1.8755074,6.124634
alexnet_w1_mlp_simclrhn_probe2,1,218,NaN,knife,clock,150,0218_ps_dnn_150_clock_10_n04548280_8535.png,n04548280_8535.png,0.0,-0.3049169,-0.2605888,-0.031344697
alexnet_w1_mlp_simclrhn_probe2,1,219,NaN,bear,knife,120,0219_ps_dnn_120_knife_10_n03041632_14546.png,n03041632_14546.png,0.0,-2.5103562,-0.58039397,-1.3646894
alexnet_w1_mlp_simclrhn_probe2,1,220,NaN,keyboard,keyboard,0,0220_ps_dnn_0_keyboard_10_n04505470_4974.png,n04505470_4974.png,1.0,12.712103,1.8038143,7.713325
alexnet_w1_mlp_simclrhn_probe2,1,221,NaN,clock,clock,0,0221_ps_dnn_0_clock_10_n04548280_487.png,n04548280_487.png,1.0,4.5204864,0.09737924,3.127609
alexnet_w1_mlp_simclrhn_probe2,1,222,NaN,truck,truck,30,0222_ps_dnn_30_truck_10_n03417042_10401.png,n03417042_10401.png,1.0,5.6158695,1.9260942,2.6090653
alexnet_w1_mlp_simclrhn_probe2,1,223,NaN,keyboard,clock,180,0223_ps_dnn_180_clock_10_n03196217_6257.png,n03196217_6257.png,0.0,-2.2414148,-0.3337952,-1.3488908
alexnet_w1_mlp_simclrhn_probe2,1,224,NaN,bear,elephant,120,0224_ps_dnn_120_elephant_10_n02504458_1698.png,n02504458_1698.png,0.0,-1.0554554,-0.424605,-0.44607863
alexnet_w1_mlp_simclrhn_probe2,1,225,NaN,knife,keyboard,180,0225_ps_dnn_180_keyboard_10_n03085013_23014.png,n03085013_23014.png,0.0,-2.618434,-0.7567616,-1.3164012
alexnet_w1_mlp_simclrhn_probe2,1,226,NaN,elephant,cat,60,0226_ps_dnn_60_cat_10_n02125311_17002.png,n02125311_17002.png,0.0,0.24973647,1.9093162,-1.1735001
alexnet_w1_mlp_simclrhn_probe2,1,227,NaN,elephant,boat,180,0227_ps_dnn_180_boat_10_n03344393_5566.png,n03344393_5566.png,0.0,-1.0616024,-0.40674677,-0.46305284
alexnet_w1_mlp_simclrhn_probe2,1,228,NaN,knife,bicycle,150,0228_ps_dnn_150_bicycle_10_n02835271_4887.png,n02835271_4887.png,0.0,-3.1971383,-1.0912541,-1.489085
alexnet_w1_mlp_simclrhn_probe2,1,229,NaN,oven,keyboard,120,0229_ps_dnn_120_keyboard_10_n04505470_8386.png,n04505470_8386.png,0.0,-2.9258277,0.12260784,-2.1555696
alexnet_w1_mlp_simclrhn_probe2,1,230,NaN,bear,bear,120,0230_ps_dnn_120_bear_10_n02133161_361.png,n02133161_361.png,1.0,-0.13038947,-0.46554956,0.23699397
alexnet_w1_mlp_simclrhn_probe2,1,231,NaN,oven,bottle,0,0231_ps_dnn_0_bottle_10_n04560804_2165.png,n04560804_2165.png,0.0,-2.933153,-0.69529986,-1.582401
alexnet_w1_mlp_simclrhn_probe2,1,232,NaN,knife,cat,150,0232_ps_dnn_150_cat_10_n02124075_14020.png,n02124075_14020.png,0.0,-1.3026394,0.013767898,-0.9308405
alexnet_w1_mlp_simclrhn_probe2,1,233,NaN,knife,clock,150,0233_ps_dnn_150_clock_10_n04548280_3301.png,n04548280_3301.png,0.0,-1.1089319,-1.0389514,-0.049483687
alexnet_w1_mlp_simclrhn_probe2,1,234,NaN,bear,knife,180,0234_ps_dnn_180_knife_10_n03041632_5820.png,n03041632_5820.png,0.0,-1.2106713,-0.5808904,-0.44532233
alexnet_w1_mlp_simclrhn_probe2,1,235,NaN,oven,oven,120,0235_ps_dnn_120_oven_10_n04111531_2922.png,n04111531_2922.png,1.0,-0.719385,-1.0249205,0.21604618
alexnet_w1_mlp_simclrhn_probe2,1,236,NaN,bear,bear,120,0236_ps_dnn_120_bear_10_n02134084_7441.png,n02134084_7441.png,1.0,-0.44047874,-0.5095341,0.048829526
alexnet_w1_mlp_simclrhn_probe2,1,237,NaN,knife,airplane,150,0237_ps_dnn_150_airplane_10_n02690373_8252.png,n02690373_8252.png,0.0,-1.6192153,0.22714584,-1.3055744
alexnet_w1_mlp_simclrhn_probe2,1,238,NaN,knife,bird,150,0238_ps_dnn_150_bird_10_n02018207_69.png,n02018207_69.png,0.0,-1.7336267,-1.4716637,-0.18523583
alexnet_w1_mlp_simclrhn_probe2,1,239,NaN,bird,bird,30,0239_ps_dnn_30_bird_10_n01798484_5355.png,n01798484_5355.png,1.0,-0.4033572,-1.2619038,0.6070841
alexnet_w1_mlp_simclrhn_probe2,1,240,NaN,knife,keyboard,150,0240_ps_dnn_150_keyboard_10_n03085013_4999.png,n03085013_4999.png,0.0,-0.7065724,-0.22287877,-0.34202307
alexnet_w1_mlp_simclrhn_probe2,1,241,NaN,oven,dog,120,0241_ps_dnn_120_dog_10_n02111500_3041.png,n02111500_3041.png,0.0,-2.0782754,-0.44109893,-1.1576586
alexnet_w1_mlp_simclrhn_probe2,1,242,NaN,boat,boat,0,0242_ps_dnn_0_boat_10_n04612504_15237.png,n04612504_15237.png,1.0,3.6726487,-0.8851563,3.2228549
alexnet_w1_mlp_simclrhn_probe2,1,243,NaN,knife,truck,150,0243_ps_dnn_150_truck_10_n03417042_6480.png,n03417042_6480.png,0.0,-5.2180557,-0.5934237,-3.2701087
alexnet_w1_mlp_simclrhn_probe2,1,244,NaN,elephant,airplane,180,0244_ps_dnn_180_airplane_10_n02690373_8382.png,n02690373_8382.png,0.0,-3.9104567,-0.5340755,-2.3874621
alexnet_w1_mlp_simclrhn_probe2,1,245,NaN,oven,bottle,120,0245_ps_dnn_120_bottle_10_n04591713_2345.png,n04591713_2345.png,0.0,-1.0618333,0.13515013,-0.8463951
alexnet_w1_mlp_simclrhn_probe2,1,246,NaN,elephant,elephant,60,0246_ps_dnn_60_elephant_10_n02504458_9516.png,n02504458_9516.png,1.0,3.1543381,1.0348022,1.4987383
alexnet_w1_mlp_simclrhn_probe2,1,247,NaN,knife,elephant,180,0247_ps_dnn_180_elephant_10_n02504013_698.png,n02504013_698.png,0.0,-2.2280726,-0.78672934,-1.0191836
alexnet_w1_mlp_simclrhn_probe2,1,248,NaN,bear,bear,0,0248_ps_dnn_0_bear_10_n02133161_5292.png,n02133161_5292.png,1.0,4.7122087,0.54357463,2.9476693
alexnet_w1_mlp_simclrhn_probe2,1,249,NaN,bicycle,boat,90,0249_ps_dnn_90_boat_10_n02951358_14341.png,n02951358_14341.png,0.0,-1.2634668,-0.17562246,-0.76922214
alexnet_w1_mlp_simclrhn_probe2,1,250,NaN,bear,bear,120,0250_ps_dnn_120_bear_10_n02133161_2304.png,n02133161_2304.png,1.0,-0.44104505,-0.52881986,0.062066168
alexnet_w1_mlp_simclrhn_probe2,1,251,NaN,knife,airplane,150,0251_ps_dnn_150_airplane_10_n02690373_1751.png,n02690373_1751.png,0.0,-2.380755,-0.44705635,-1.3673315
alexnet_w1_mlp_simclrhn_probe2,1,252,NaN,knife,truck,150,0252_ps_dnn_150_truck_10_n04467665_48953.png,n04467665_48953.png,0.0,-3.3745117,-0.22058849,-2.2301605
alexnet_w1_mlp_simclrhn_probe2,1,253,NaN,oven,oven,0,0253_ps_dnn_0_oven_10_n04111531_10077.png,n04111531_10077.png,1.0,8.162113,-0.52802205,6.1448536
alexnet_w1_mlp_simclrhn_probe2,1,254,NaN,bear,dog,150,0254_ps_dnn_150_dog_10_n02097209_821.png,n02097209_821.png,0.0,-2.188727,-0.94966614,-0.8761483
alexnet_w1_mlp_simclrhn_probe2,1,255,NaN,truck,truck,0,0255_ps_dnn_0_truck_10_n04467665_13231.png,n04467665_13231.png,1.0,0.530581,-0.2586398,0.5580634
alexnet_w1_mlp_simclrhn_probe2,1,256,NaN,bear,dog,90,0256_ps_dnn_90_dog_10_n02107908_3447.png,n02107908_3447.png,0.0,-0.6105149,-0.30057004,-0.2191641
alexnet_w1_mlp_simclrhn_probe2,1,257,NaN,knife,elephant,180,0257_ps_dnn_180_elephant_10_n02504013_5021.png,n02504013_5021.png,0.0,-0.9820405,-0.18275516,-0.5651801
alexnet_w1_mlp_simclrhn_probe2,1,258,NaN,oven,knife,90,0258_ps_dnn_90_knife_10_n03041632_12242.png,n03041632_12242.png,0.0,-1.3375502,-0.005980991,-0.94156164
alexnet_w1_mlp_simclrhn_probe2,1,259,NaN,knife,keyboard,150,0259_ps_dnn_150_keyboard_10_n03085013_22821.png,n03085013_22821.png,0.0,-1.5543188,-0.35373828,-0.8489386
alexnet_w1_mlp_simclrhn_probe2,1,260,NaN,bear,cat,150,0260_ps_dnn_150_cat_10_n02124075_2080.png,n02124075_2080.png,0.0,-1.5340816,-0.9061769,-0.44399565
alexnet_w1_mlp_simclrhn_probe2,1,261,NaN,bear,bicycle,180,0261_ps_dnn_180_bicycle_10_n02835271_7296.png,n02835271_7296.png,0.0,-0.70653266,-0.23742792,-0.33170715
alexnet_w1_mlp_simclrhn_probe2,1,262,NaN,knife,boat,180,0262_ps_dnn_180_boat_10_n04612504_4302.png,n04612504_4302.png,0.0,-2.2383966,-0.22296497,-1.4251254
alexnet_w1_mlp_simclrhn_probe2,1,263,NaN,elephant,clock,150,0263_ps_dnn_150_clock_10_n04548280_4524.png,n04548280_4524.png,0.0,-1.938692,-0.015199095,-1.3601149
alexnet_w1_mlp_simclrhn_probe2,1,264,NaN,elephant,knife,150,0264_ps_dnn_150_knife_10_n03041632_19275.png,n03041632_19275.png,0.0,-1.2896745,-0.022134572,-0.89628613
alexnet_w1_mlp_simclrhn_probe2,1,265,NaN,bird,bird,30,0265_ps_dnn_30_bird_10_n01796340_2973.png,n01796340_2973.png,1.0,1.853338,-2.6621304,3.1929185
alexnet_w1_mlp_simclrhn_probe2,1,266,NaN,oven,chair,90,0266_ps_dnn_90_chair_10_n02791124_15407.png,n02791124_15407.png,0.0,-1.9927927,1.3973644,-2.3972032
alexnet_w1_mlp_simclrhn_probe2,1,267,NaN,dog,dog,30,0267_ps_dnn_30_dog_10_n02109525_72594.png,n02109525_72594.png,1.0,1.4733474,-2.2300088,2.6186683
alexnet_w1_mlp_simclrhn_probe2,1,268,NaN,bear,knife,150,0268_ps_dnn_150_knife_10_n03041632_19614.png,n03041632_19614.png,0.0,-1.1651461,-0.62663734,-0.3807832
alexnet_w1_mlp_simclrhn_probe2,1,269,NaN,keyboard,keyboard,30,0269_ps_dnn_30_keyboard_10_n04505470_5111.png,n04505470_5111.png,1.0,6.9454813,1.3540033,3.953772
alexnet_w1_mlp_simclrhn_probe2,1,270,NaN,bicycle,bicycle,30,0270_ps_dnn_30_bicycle_10_n03792782_8374.png,n03792782_8374.png,1.0,3.7988575,-2.625401,4.542637
alexnet_w1_mlp_simclrhn_probe2,1,271,NaN,knife,boat,120,0271_ps_dnn_120_boat_10_n04612504_2024.png,n04612504_2024.png,0.0,-2.839924,-0.66759366,-1.5360695
alexnet_w1_mlp_simclrhn_probe2,1,272,NaN,bicycle,bicycle,30,0272_ps_dnn_30_bicycle_10_n02835271_9860.png,n02835271_9860.png,1.0,2.170124,1.2539204,0.6478538
alexnet_w1_mlp_simclrhn_probe2,1,273,NaN,elephant,bear,60,0273_ps_dnn_60_bear_10_n02134084_21921.png,n02134084_21921.png,0.0,2.3198807,2.4708319,-0.10673858
alexnet_w1_mlp_simclrhn_probe2,1,274,NaN,bear,bear,90,0274_ps_dnn_90_bear_10_n02134418_836.png,n02134418_836.png,1.0,0.4707078,-0.08125578,0.39029717
alexnet_w1_mlp_simclrhn_probe2,1,275,NaN,oven,chair,60,0275_ps_dnn_60_chair_10_n04429376_6141.png,n04429376_6141.png,0.0,-1.148988,1.2779868,-1.7161304
alexnet_w1_mlp_simclrhn_probe2,1,276,NaN,truck,truck,30,0276_ps_dnn_30_truck_10_n04467665_6523.png,n04467665_6523.png,1.0,2.5503268,1.2158083,0.94364715
alexnet_w1_mlp_simclrhn_probe2,1,277,NaN,oven,chair,90,0277_ps_dnn_90_chair_10_n04429376_41755.png,n04429376_41755.png,0.0,-1.7388394,-0.39412355,-0.9508577
alexnet_w1_mlp_simclrhn_probe2,1,278,NaN,knife,bottle,180,0278_ps_dnn_180_bottle_10_n04579145_3302.png,n04579145_3302.png,0.0,-1.0509589,0.15549873,-0.8530944
alexnet_w1_mlp_simclrhn_probe2,1,279,NaN,cat,cat,0,0279_ps_dnn_0_cat_10_n02123045_12297.png,n02123045_12297.png,1.0,5.169111,-2.419087,5.365666
alexnet_w1_mlp_simclrhn_probe2,1,280,NaN,bottle,clock,60,0280_ps_dnn_60_clock_10_n04548280_5734.png,n04548280_5734.png,0.0,-1.7115307,-1.2039784,-0.35889366
alexnet_w1_mlp_simclrhn_probe2,1,281,NaN,oven,elephant,90,0281_ps_dnn_90_elephant_10_n02504013_3640.png,n02504013_3640.png,0.0,-0.93611276,0.47333997,-0.9966336
alexnet_w1_mlp_simclrhn_probe2,1,282,NaN,knife,car,0,0282_ps_dnn_0_car_10_n03100240_2108.png,n03100240_2108.png,0.0,-3.808955,0.020716667,-2.7079868
alexnet_w1_mlp_simclrhn_probe2,1,283,NaN,elephant,car,90,0283_ps_dnn_90_car_10_n02814533_8499.png,n02814533_8499.png,0.0,-5.283888,0.06981191,-3.7856374
alexnet_w1_mlp_simclrhn_probe2,1,284,NaN,elephant,knife,180,0284_ps_dnn_180_knife_10_n03041632_9406.png,n03041632_9406.png,0.0,-2.2044911,-1.1877184,-0.7189669
alexnet_w1_mlp_simclrhn_probe2,1,285,NaN,clock,clock,120,0285_ps_dnn_120_clock_10_n04548280_3968.png,n04548280_3968.png,1.0,-0.5591081,-0.76831156,0.1479292
alexnet_w1_mlp_simclrhn_probe2,1,286,NaN,elephant,boat,120,0286_ps_dnn_120_boat_10_n04273569_20587.png,n04273569_20587.png,0.0,-1.0232826,-0.88009167,-0.10125131
alexnet_w1_mlp_simclrhn_probe2,1,287,NaN,bear,truck,150,0287_ps_dnn_150_truck_10_n03796401_7261.png,n03796401_7261.png,0.0,-2.9710221,-0.48291856,-1.759355
alexnet_w1_mlp_simclrhn_probe2,1,288,NaN,bear,boat,90,0288_ps_dnn_90_boat_10_n04273569_18037.png,n04273569_18037.png,0.0,-1.0340359,0.44072098,-1.0428107
alexnet_w1_mlp_simclrhn_probe2,1,289,NaN,oven,bicycle,180,0289_ps_dnn_180_bicycle_10_n02835271_4789.png,n02835271_4789.png,0.0,-1.9504783,-0.6851312,-0.8947356
alexnet_w1_mlp_simclrhn_probe2,1,290,NaN,oven,chair,90,0290_ps_dnn_90_chair_10_n04099969_18380.png,n04099969_18380.png,0.0,-2.2866747,0.42577612,-1.9179925
alexnet_w1_mlp_simclrhn_probe2,1,291,NaN,knife,dog,120,0291_ps_dnn_120_dog_10_n02100583_13688.png,n02100583_13688.png,0.0,-3.6720438,-1.1188319,-1.8053935
alexnet_w1_mlp_simclrhn_probe2,1,292,NaN,elephant,boat,180,0292_ps_dnn_180_boat_10_n03662601_8065.png,n03662601_8065.png,0.0,-1.4773026,-0.6900921,-0.5566419
alexnet_w1_mlp_simclrhn_probe2,1,293,NaN,boat,boat,0,0293_ps_dnn_0_boat_10_n02951358_15218.png,n02951358_15218.png,1.0,3.9994316,0.5762384,2.4205632
alexnet_w1_mlp_simclrhn_probe2,1,294,NaN,bear,knife,180,0294_ps_dnn_180_knife_10_n03041632_24277.png,n03041632_24277.png,0.0,-0.8389025,-0.5148306,-0.22915342
alexnet_w1_mlp_simclrhn_probe2,1,295,NaN,bear,bird,90,0295_ps_dnn_90_bird_10_n01601694_2723.png,n01601694_2723.png,0.0,-1.0230392,0.6004715,-1.1479955
alexnet_w1_mlp_simclrhn_probe2,1,296,NaN,oven,keyboard,120,0296_ps_dnn_120_keyboard_10_n04505470_4724.png,n04505470_4724.png,0.0,0.06643147,0.10374589,-0.026385281
alexnet_w1_mlp_simclrhn_probe2,1,297,NaN,knife,bear,150,0297_ps_dnn_150_bear_10_n02134418_1642.png,n02134418_1642.png,0.0,-1.5204921,-0.26390585,-0.8885406
alexnet_w1_mlp_simclrhn_probe2,1,298,NaN,oven,truck,60,0298_ps_dnn_60_truck_10_n03417042_13055.png,n03417042_13055.png,0.0,-0.976397,0.62702763,-1.1337924
alexnet_w1_mlp_simclrhn_probe2,1,299,NaN,knife,bear,120,0299_ps_dnn_120_bear_10_n02133161_1629.png,n02133161_1629.png,0.0,-1.2133226,-0.26833153,-0.6682096
alexnet_w1_mlp_simclrhn_probe2,1,300,NaN,knife,bottle,180,0300_ps_dnn_180_bottle_10_n04579145_1856.png,n04579145_1856.png,0.0,-1.3086002,0.063368216,-0.9701282
alexnet_w1_mlp_simclrhn_probe2,1,301,NaN,oven,chair,150,0301_ps_dnn_150_chair_10_n04099969_3768.png,n04099969_3768.png,0.0,-2.6826563,-1.2127075,-1.0394107
alexnet_w1_mlp_simclrhn_probe2,1,302,NaN,oven,bird,120,0302_ps_dnn_120_bird_10_n02009229_5172.png,n02009229_5172.png,0.0,-1.4258752,-1.1559998,-0.19083074
alexnet_w1_mlp_simclrhn_probe2,1,303,NaN,oven,airplane,90,0303_ps_dnn_90_airplane_10_n02690373_21731.png,n02690373_21731.png,0.0,-0.29534513,0.40114498,-0.49249288
alexnet_w1_mlp_simclrhn_probe2,1,304,NaN,bear,bear,30,0304_ps_dnn_30_bear_10_n02133161_959.png,n02133161_959.png,1.0,0.025194913,-0.06116137,0.061063115
alexnet_w1_mlp_simclrhn_probe2,1,305,NaN,chair,chair,0,0305_ps_dnn_0_chair_10_n04099969_1028.png,n04099969_1028.png,1.0,1.9666857,0.5306316,1.0154436
alexnet_w1_mlp_simclrhn_probe2,1,306,NaN,bear,knife,180,0306_ps_dnn_180_knife_10_n03041632_44212.png,n03041632_44212.png,0.0,-1.5599062,-1.2338605,-0.23054917
alexnet_w1_mlp_simclrhn_probe2,1,307,NaN,oven,oven,120,0307_ps_dnn_120_oven_10_n04111531_9344.png,n04111531_9344.png,1.0,-0.36451733,-0.70836735,0.24313869
alexnet_w1_mlp_simclrhn_probe2,1,308,NaN,bear,car,180,0308_ps_dnn_180_car_10_n04285008_9080.png,n04285008_9080.png,0.0,-6.8250403,-0.67798626,-4.346624
alexnet_w1_mlp_simclrhn_probe2,1,309,NaN,bicycle,car,60,0309_ps_dnn_60_car_10_n03100240_17349.png,n03100240_17349.png,0.0,0.7661993,1.1929615,-0.30176643
alexnet_w1_mlp_simclrhn_probe2,1,310,NaN,cat,dog,30,0310_ps_dnn_30_dog_10_n02110958_1335.png,n02110958_1335.png,0.0,-2.787434,-2.004469,-0.55364
alexnet_w1_mlp_simclrhn_probe2,1,311,NaN,knife,elephant,150,0311_ps_dnn_150_elephant_10_n02504013_7305.png,n02504013_7305.png,0.0,-2.2345362,0.15656039,-1.6907606
alexnet_w1_mlp_simclrhn_probe2,1,312,NaN,oven,dog,90,0312_ps_dnn_90_dog_10_n02091244_2626.png,n02091244_2626.png,0.0,-2.619601,0.43642497,-2.1609368
alexnet_w1_mlp_simclrhn_probe2,1,313,NaN,knife,bird,150,0313_ps_dnn_150_bird_10_n01828970_22.png,n01828970_22.png,0.0,-0.6891826,-0.67079747,-0.013000238
alexnet_w1_mlp_simclrhn_probe2,1,314,NaN,cat,cat,60,0314_ps_dnn_60_cat_10_n02124075_13587.png,n02124075_13587.png,1.0,0.5594873,0.23604274,0.22870983
alexnet_w1_mlp_simclrhn_probe2,1,315,NaN,bear,knife,120,0315_ps_dnn_120_knife_10_n03041632_13612.png,n03041632_13612.png,0.0,-2.1309693,-0.23319055,-1.3419323
alexnet_w1_mlp_simclrhn_probe2,1,316,NaN,bear,bicycle,90,0316_ps_dnn_90_bicycle_10_n02835271_2581.png,n02835271_2581.png,0.0,-0.67065305,0.3644586,-0.7319345
alexnet_w1_mlp_simclrhn_probe2,1,317,NaN,clock,clock,30,0317_ps_dnn_30_clock_10_n03196217_2536.png,n03196217_2536.png,1.0,0.65308887,0.10352719,0.3885988
alexnet_w1_mlp_simclrhn_probe2,1,318,NaN,cat,cat,90,0318_ps_dnn_90_cat_10_n02124075_15001.png,n02124075_15001.png,1.0,-1.8654419,-2.3010902,0.3080499
alexnet_w1_mlp_simclrhn_probe2,1,319,NaN,bear,bear,60,0319_ps_dnn_60_bear_10_n02133161_6152.png,n02133161_6152.png,1.0,-0.40449494,-0.56471646,0.11329372
alexnet_w1_mlp_simclrhn_probe2,1,320,NaN,oven,chair,30,0320_ps_dnn_30_chair_10_n04099969_8401.png,n04099969_8401.png,0.0,-0.17925394,3.509645,-2.6084456
alexnet_w1_mlp_simclrhn_probe2,1,321,NaN,oven,oven,150,0321_ps_dnn_150_oven_10_n04111531_7923.png,n04111531_7923.png,1.0,-0.9573356,-1.4398348,0.34117848
alexnet_w1_mlp_simclrhn_probe2,1,322,NaN,oven,cat,120,0322_ps_dnn_120_cat_10_n02123159_5706.png,n02123159_5706.png,0.0,-1.7348777,-1.3520374,-0.27070895
alexnet_w1_mlp_simclrhn_probe2,1,323,NaN,airplane,airplane,30,0323_ps_dnn_30_airplane_10_n02690373_13324.png,n02690373_13324.png,1.0,2.5360212,1.7326536,0.5680667
alexnet_w1_mlp_simclrhn_probe2,1,324,NaN,elephant,airplane,150,0324_ps_dnn_150_airplane_10_n02690373_4452.png,n02690373_4452.png,0.0,-3.5852723,-0.45623952,-2.2125604
alexnet_w1_mlp_simclrhn_probe2,1,325,NaN,bear,bird,90,0325_ps_dnn_90_bird_10_n02056570_10881.png,n02056570_10881.png,0.0,-1.5336612,-0.087115884,-1.0228621
alexnet_w1_mlp_simclrhn_probe2,1,326,NaN,knife,airplane,90,0326_ps_dnn_90_airplane_10_n02690373_19133.png,n02690373_19133.png,0.0,0.09255831,0.20523465,-0.07967421
alexnet_w1_mlp_simclrhn_probe2,1,327,NaN,bottle,bottle,0,0327_ps_dnn_0_bottle_10_n03937543_4850.png,n03937543_4850.png,1.0,3.3914783,-0.4517445,2.7175689
alexnet_w1_mlp_simclrhn_probe2,1,328,NaN,oven,keyboard,150,0328_ps_dnn_150_keyboard_10_n04505470_2709.png,n04505470_2709.png,0.0,-3.1258163,-0.67684937,-1.7316812
alexnet_w1_mlp_simclrhn_probe2,1,329,NaN,oven,keyboard,90,0329_ps_dnn_90_keyboard_10_n03085013_1797.png,n03085013_1797.png,0.0,-1.3208668,1.2301155,-1.803817
alexnet_w1_mlp_simclrhn_probe2,1,330,NaN,oven,oven,30,0330_ps_dnn_30_oven_10_n04111531_3902.png,n04111531_3902.png,1.0,1.2748536,-0.8814919,1.5247664
alexnet_w1_mlp_simclrhn_probe2,1,331,NaN,knife,car,180,0331_ps_dnn_180_car_10_n03100240_6750.png,n03100240_6750.png,0.0,-3.073325,-0.27663624,-1.9775574
alexnet_w1_mlp_simclrhn_probe2,1,332,NaN,bicycle,chair,0,0332_ps_dnn_0_chair_10_n03376595_16306.png,n03376595_16306.png,0.0,0.37453508,3.886492,-2.4833286
alexnet_w1_mlp_simclrhn_probe2,1,333,NaN,bicycle,boat,60,0333_ps_dnn_60_boat_10_n02951358_13017.png,n02951358_13017.png,0.0,-3.9092095,1.2658054,-3.6592882
alexnet_w1_mlp_simclrhn_probe2,1,334,NaN,oven,clock,90,0334_ps_dnn_90_clock_10_n03196217_5827.png,n03196217_5827.png,0.0,-1.8407907,-0.44381666,-0.9878099
alexnet_w1_mlp_simclrhn_probe2,1,335,NaN,bottle,bottle,0,0335_ps_dnn_0_bottle_10_n02823428_685.png,n02823428_685.png,1.0,0.15143172,-0.063057065,0.15166648
alexnet_w1_mlp_simclrhn_probe2,1,336,NaN,bear,airplane,120,0336_ps_dnn_120_airplane_10_n02690373_2092.png,n02690373_2092.png,0.0,-3.4822254,-0.19592722,-2.3237638
alexnet_w1_mlp_simclrhn_probe2,1,337,NaN,knife,bottle,180,0337_ps_dnn_180_bottle_10_n04557648_3637.png,n04557648_3637.png,0.0,-2.5178368,-0.9220786,-1.1283715
alexnet_w1_mlp_simclrhn_probe2,1,338,NaN,bear,bird,90,0338_ps_dnn_90_bird_10_n01819313_5521.png,n01819313_5521.png,0.0,-1.4500864,1.0741222,-1.784885
alexnet_w1_mlp_simclrhn_probe2,1,339,NaN,elephant,dog,90,0339_ps_dnn_90_dog_10_n02100583_24297.png,n02100583_24297.png,0.0,-0.75964046,0.9116831,-1.1818042
alexnet_w1_mlp_simclrhn_probe2,1,340,NaN,bear,bird,60,0340_ps_dnn_60_bird_10_n02018207_12233.png,n02018207_12233.png,0.0,-1.4416747,0.50543606,-1.3768152
alexnet_w1_mlp_simclrhn_probe2,1,341,NaN,bear,bird,180,0341_ps_dnn_180_bird_10_n02013706_3032.png,n02013706_3032.png,0.0,-0.38626796,0.035523087,-0.2982513
alexnet_w1_mlp_simclrhn_probe2,1,342,NaN,oven,oven,60,0342_ps_dnn_60_oven_10_n04111531_9939.png,n04111531_9939.png,1.0,2.642063,-0.9250564,2.5223343
alexnet_w1_mlp_simclrhn_probe2,1,343,NaN,bird,bird,180,0343_ps_dnn_180_bird_10_n02011460_7629.png,n02011460_7629.png,1.0,-0.8663418,-1.3301382,0.32795358
alexnet_w1_mlp_simclrhn_probe2,1,344,NaN,oven,oven,60,0344_ps_dnn_60_oven_10_n04111531_13542.png,n04111531_13542.png,1.0,1.1556709,-0.7015679,1.3132662
alexnet_w1_mlp_simclrhn_probe2,1,345,NaN,bear,bear,90,0345_ps_dnn_90_bear_10_n02134418_270.png,n02134418_270.png,1.0,1.083605,-0.007839665,0.771768
alexnet_w1_mlp_simclrhn_probe2,1,346,NaN,bear,bicycle,90,0346_ps_dnn_90_bicycle_10_n03792782_12561.png,n03792782_12561.png,0.0,-1.2025868,0.3271174,-1.0816642
alexnet_w1_mlp_simclrhn_probe2,1,347,NaN,elephant,elephant,120,0347_ps_dnn_120_elephant_10_n02504458_9213.png,n02504458_9213.png,1.0,-1.2494518,-1.8953657,0.45673016
alexnet_w1_mlp_simclrhn_probe2,1,348,NaN,oven,chair,90,0348_ps_dnn_90_chair_10_n03376595_4155.png,n03376595_4155.png,0.0,-2.510866,0.06387994,-1.8206203
alexnet_w1_mlp_simclrhn_probe2,1,349,NaN,bear,truck,120,0349_ps_dnn_120_truck_10_n04467665_69970.png,n04467665_69970.png,0.0,-4.4845366,-0.7718259,-2.625283
alexnet_w1_mlp_simclrhn_probe2,1,350,NaN,elephant,bird,120,0350_ps_dnn_120_bird_10_n02002556_2350.png,n02002556_2350.png,0.0,-1.25335,-0.9629815,-0.20532154
alexnet_w1_mlp_simclrhn_probe2,1,351,NaN,bear,bear,0,0351_ps_dnn_0_bear_10_n02133161_355.png,n02133161_355.png,1.0,5.4268193,2.390573,2.1469505
alexnet_w1_mlp_simclrhn_probe2,1,352,NaN,elephant,airplane,90,0352_ps_dnn_90_airplane_10_n02690373_3065.png,n02690373_3065.png,0.0,-2.490479,-0.3532862,-1.5112236
alexnet_w1_mlp_simclrhn_probe2,1,353,NaN,truck,truck,60,0353_ps_dnn_60_truck_10_n03417042_13289.png,n03417042_13289.png,1.0,0.52084005,0.108268246,0.2917323
alexnet_w1_mlp_simclrhn_probe2,1,354,NaN,bicycle,oven,0,0354_ps_dnn_0_oven_10_n04111531_21404.png,n04111531_21404.png,0.0,0.44677413,0.4759571,-0.020635476
alexnet_w1_mlp_simclrhn_probe2,1,355,NaN,bear,bear,90,0355_ps_dnn_90_bear_10_n02132136_8358.png,n02132136_8358.png,1.0,0.95100427,0.72534096,0.15956806
alexnet_w1_mlp_simclrhn_probe2,1,356,NaN,oven,oven,90,0356_ps_dnn_90_oven_10_n04111531_274.png,n04111531_274.png,1.0,0.0753897,-0.490417,0.40008575
alexnet_w1_mlp_simclrhn_probe2,1,357,NaN,bear,chair,120,0357_ps_dnn_120_chair_10_n02791124_2773.png,n02791124_2773.png,0.0,-2.0411873,-0.5973357,-1.0209572
alexnet_w1_mlp_simclrhn_probe2,1,358,NaN,bear,knife,120,0358_ps_dnn_120_knife_10_n03041632_102828.png,n03041632_102828.png,0.0,-2.2717242,-0.3543597,-1.3557816
alexnet_w1_mlp_simclrhn_probe2,1,359,NaN,knife,boat,150,0359_ps_dnn_150_boat_10_n02951358_30995.png,n02951358_30995.png,0.0,-1.5799797,-0.52130264,-0.7485977
alexnet_w1_mlp_simclrhn_probe2,1,360,NaN,oven,bicycle,150,0360_ps_dnn_150_bicycle_10_n03792782_4544.png,n03792782_4544.png,0.0,-3.996727,-0.35093683,-2.5779629
alexnet_w1_mlp_simclrhn_probe2,1,361,NaN,knife,airplane,120,0361_ps_dnn_120_airplane_10_n02690373_8446.png,n02690373_8446.png,0.0,-3.7196734,-0.5768596,-2.2223048
alexnet_w1_mlp_simclrhn_probe2,1,362,NaN,bottle,bottle,30,0362_ps_dnn_30_bottle_10_n04557648_900.png,n04557648_900.png,1.0,1.0328966,0.79041094,0.17146328
alexnet_w1_mlp_simclrhn_probe2,1,363,NaN,oven,airplane,150,0363_ps_dnn_150_airplane_10_n02690373_3407.png,n02690373_3407.png,0.0,-3.6285393,-0.8654983,-1.953765
alexnet_w1_mlp_simclrhn_probe2,1,364,NaN,oven,bottle,120,0364_ps_dnn_120_bottle_10_n03983396_8143.png,n03983396_8143.png,0.0,-0.90827286,-0.5449641,-0.2568981
alexnet_w1_mlp_simclrhn_probe2,1,365,NaN,car,car,0,0365_ps_dnn_0_car_10_n03100240_9610.png,n03100240_9610.png,1.0,9.684763,4.9910774,3.3189368
alexnet_w1_mlp_simclrhn_probe2,1,366,NaN,bear,cat,120,0366_ps_dnn_120_cat_10_n02123159_1108.png,n02123159_1108.png,0.0,-1.2116301,-0.045646507,-0.8244749
alexnet_w1_mlp_simclrhn_probe2,1,367,NaN,clock,clock,0,0367_ps_dnn_0_clock_10_n04548280_2170.png,n04548280_2170.png,1.0,5.8573666,0.15015088,4.035611
alexnet_w1_mlp_simclrhn_probe2,1,368,NaN,bird,keyboard,120,0368_ps_dnn_120_keyboard_10_n04505470_4385.png,n04505470_4385.png,0.0,-6.5980535,-0.97468406,-3.9763227
alexnet_w1_mlp_simclrhn_probe2,1,369,NaN,bear,airplane,120,0369_ps_dnn_120_airplane_10_n02690373_18383.png,n02690373_18383.png,0.0,-1.7892982,-0.37409168,-1.000702
alexnet_w1_mlp_simclrhn_probe2,1,370,NaN,oven,truck,90,0370_ps_dnn_90_truck_10_n03417042_10243.png,n03417042_10243.png,0.0,-3.515939,0.30009562,-2.698344
alexnet_w1_mlp_simclrhn_probe2,1,371,NaN,cat,cat,30,0371_ps_dnn_30_cat_10_n02123045_11826.png,n02123045_11826.png,1.0,5.4133086,-3.5611606,6.345908
alexnet_w1_mlp_simclrhn_probe2,1,372,NaN,bird,bird,0,0372_ps_dnn_0_bird_10_n01817953_2257.png,n01817953_2257.png,1.0,-0.70215714,-1.6039466,0.63766146
alexnet_w1_mlp_simclrhn_probe2,1,373,NaN,boat,boat,0,0373_ps_dnn_0_boat_10_n04612504_18442.png,n04612504_18442.png,1.0,6.5681124,1.2708346,3.7457411
alexnet_w1_mlp_simclrhn_probe2,1,374,NaN,elephant,airplane,180,0374_ps_dnn_180_airplane_10_n02690373_2874.png,n02690373_2874.png,0.0,-3.0192459,-0.87224,-1.5181624
alexnet_w1_mlp_simclrhn_probe2,1,375,NaN,bicycle,bicycle,0,0375_ps_dnn_0_bicycle_10_n02835271_4963.png,n02835271_4963.png,1.0,9.848309,1.4516525,5.9373326
alexnet_w1_mlp_simclrhn_probe2,1,376,NaN,bear,boat,180,0376_ps_dnn_180_boat_10_n04273569_568.png,n04273569_568.png,0.0,-2.0223773,-0.19097921,-1.294994
alexnet_w1_mlp_simclrhn_probe2,1,377,NaN,elephant,elephant,90,0377_ps_dnn_90_elephant_10_n02504013_2233.png,n02504013_2233.png,1.0,1.0169437,0.8535207,0.115557514
alexnet_w1_mlp_simclrhn_probe2,1,378,NaN,oven,bottle,60,0378_ps_dnn_60_bottle_10_n02823428_889.png,n02823428_889.png,0.0,-1.8050615,0.9296628,-1.9337422
alexnet_w1_mlp_simclrhn_probe2,1,379,NaN,boat,car,90,0379_ps_dnn_90_car_10_n04285008_3096.png,n04285008_3096.png,0.0,-2.8445826,0.54045737,-2.3935847
alexnet_w1_mlp_simclrhn_probe2,1,380,NaN,oven,airplane,120,0380_ps_dnn_120_airplane_10_n02690373_13206.png,n02690373_13206.png,0.0,-6.391076,-1.3887532,-3.5371766
alexnet_w1_mlp_simclrhn_probe2,1,381,NaN,oven,keyboard,90,0381_ps_dnn_90_keyboard_10_n03085013_25443.png,n03085013_25443.png,0.0,-2.8092902,1.7930601,-3.254353
alexnet_w1_mlp_simclrhn_probe2,1,382,NaN,truck,truck,30,0382_ps_dnn_30_truck_10_n04467665_20622.png,n04467665_20622.png,1.0,4.0296206,-0.26779652,3.0387328
alexnet_w1_mlp_simclrhn_probe2,1,383,NaN,bicycle,bicycle,60,0383_ps_dnn_60_bicycle_10_n02835271_24639.png,n02835271_24639.png,1.0,4.20755,0.5171794,2.609486
alexnet_w1_mlp_simclrhn_probe2,1,384,NaN,knife,knife,30,0384_ps_dnn_30_knife_10_n03041632_25603.png,n03041632_25603.png,1.0,0.18251972,-0.9289842,0.785952
alexnet_w1_mlp_simclrhn_probe2,1,385,NaN,boat,boat,60,0385_ps_dnn_60_boat_10_n04273569_4978.png,n04273569_4978.png,1.0,2.9232116,-0.8530318,2.6702075
alexnet_w1_mlp_simclrhn_probe2,1,386,NaN,boat,car,60,0386_ps_dnn_60_car_10_n02814533_46401.png,n02814533_46401.png,0.0,0.04725693,1.0828234,-0.73225605
alexnet_w1_mlp_simclrhn_probe2,1,387,NaN,bird,bird,120,0387_ps_dnn_120_bird_10_n01798484_12863.png,n01798484_12863.png,1.0,-0.34724274,-0.4682211,0.085544616
alexnet_w1_mlp_simclrhn_probe2,1,388,NaN,bear,boat,120,0388_ps_dnn_120_boat_10_n03662601_7885.png,n03662601_7885.png,0.0,-1.708779,-0.4969232,-0.8569114
alexnet_w1_mlp_simclrhn_probe2,1,389,NaN,bicycle,chair,0,0389_ps_dnn_0_chair_10_n03376595_3062.png,n03376595_3062.png,0.0,-0.062832355,0.57161796,-0.44862413
alexnet_w1_mlp_simclrhn_probe2,1,390,NaN,bear,airplane,90,0390_ps_dnn_90_airplane_10_n02690373_19118.png,n02690373_19118.png,0.0,-2.9497783,-0.9334544,-1.4257565
alexnet_w1_mlp_simclrhn_probe2,1,391,NaN,knife,cat,180,0391_ps_dnn_180_cat_10_n02123597_3944.png,n02123597_3944.png,0.0,-1.5360855,-0.6241682,-0.6448229
alexnet_w1_mlp_simclrhn_probe2,1,392,NaN,knife,keyboard,150,0392_ps_dnn_150_keyboard_10_n04505470_2113.png,n04505470_2113.png,0.0,-1.9817616,-1.2483044,-0.5186326
alexnet_w1_mlp_simclrhn_probe2,1,393,NaN,elephant,bird,30,0393_ps_dnn_30_bird_10_n02056570_4808.png,n02056570_4808.png,0.0,-0.94662505,1.9630687,-2.0574641
alexnet_w1_mlp_simclrhn_probe2,1,394,NaN,knife,bear,180,0394_ps_dnn_180_bear_10_n02133161_2316.png,n02133161_2316.png,0.0,-0.70387334,-0.45418808,-0.17655414
alexnet_w1_mlp_simclrhn_probe2,1,395,NaN,elephant,dog,0,0395_ps_dnn_0_dog_10_n02106662_15515.png,n02106662_15515.png,0.0,0.62161046,0.94932127,-0.23172654
alexnet_w1_mlp_simclrhn_probe2,1,396,NaN,airplane,airplane,0,0396_ps_dnn_0_airplane_10_n02690373_3899.png,n02690373_3899.png,1.0,5.3182144,3.4428635,1.3260734
alexnet_w1_mlp_simclrhn_probe2,1,397,NaN,bicycle,boat,0,0397_ps_dnn_0_boat_10_n04273569_2449.png,n04273569_2449.png,0.0,-3.8950505,-1.6519501,-1.5861115
alexnet_w1_mlp_simclrhn_probe2,1,398,NaN,oven,bird,120,0398_ps_dnn_120_bird_10_n02007558_7614.png,n02007558_7614.png,0.0,-2.6530354,1.1252608,-2.671659
alexnet_w1_mlp_simclrhn_probe2,1,399,NaN,oven,keyboard,90,0399_ps_dnn_90_keyboard_10_n03085013_4914.png,n03085013_4914.png,0.0,-2.6355848,0.8136441,-2.4389732
alexnet_w1_mlp_simclrhn_probe2,1,400,NaN,knife,oven,150,0400_ps_dnn_150_oven_10_n04111531_15296.png,n04111531_15296.png,0.0,-1.2987633,-0.93832225,-0.2548703
alexnet_w1_mlp_simclrhn_probe2,1,401,NaN,oven,chair,60,0401_ps_dnn_60_chair_10_n04099969_246.png,n04099969_246.png,0.0,-1.2166964,0.9976416,-1.5657735
alexnet_w1_mlp_simclrhn_probe2,1,402,NaN,knife,truck,180,0402_ps_dnn_180_truck_10_n04467665_670.png,n04467665_670.png,0.0,-4.85394,-0.75913864,-2.8954618
alexnet_w1_mlp_simclrhn_probe2,1,403,NaN,keyboard,keyboard,90,0403_ps_dnn_90_keyboard_10_n03085013_24192.png,n03085013_24192.png,1.0,1.2574656,-0.014663905,0.8995314
alexnet_w1_mlp_simclrhn_probe2,1,404,NaN,bear,bicycle,150,0404_ps_dnn_150_bicycle_10_n03792782_378.png,n03792782_378.png,0.0,-1.2390354,-0.663722,-0.40680802
alexnet_w1_mlp_simclrhn_probe2,1,405,NaN,bear,bird,180,0405_ps_dnn_180_bird_10_n02018207_14738.png,n02018207_14738.png,0.0,-0.5938686,-0.3761757,-0.15393214
alexnet_w1_mlp_simclrhn_probe2,1,406,NaN,bird,bird,0,0406_ps_dnn_0_bird_10_n01530575_5222.png,n01530575_5222.png,1.0,-0.37085456,-0.5725477,0.14261857
alexnet_w1_mlp_simclrhn_probe2,1,407,NaN,elephant,bear,30,0407_ps_dnn_30_bear_10_n02134084_10766.png,n02134084_10766.png,0.0,0.34267747,1.0696034,-0.5140143
alexnet_w1_mlp_simclrhn_probe2,1,408,NaN,elephant,bird,30,0408_ps_dnn_30_bird_10_n02007558_4009.png,n02007558_4009.png,0.0,-2.0285273,1.521324,-2.510124
alexnet_w1_mlp_simclrhn_probe2,1,409,NaN,oven,chair,120,0409_ps_dnn_120_chair_10_n04099969_7545.png,n04099969_7545.png,0.0,-2.7208848,-0.7435969,-1.3981537
alexnet_w1_mlp_simclrhn_probe2,1,410,NaN,oven,clock,90,0410_ps_dnn_90_clock_10_n03196217_127.png,n03196217_127.png,0.0,-2.378876,-0.46792546,-1.3512461
alexnet_w1_mlp_simclrhn_probe2,1,411,NaN,knife,bottle,150,0411_ps_dnn_150_bottle_10_n04560804_26326.png,n04560804_26326.png,0.0,-1.292304,-0.21560942,-0.76133806
alexnet_w1_mlp_simclrhn_probe2,1,412,NaN,knife,keyboard,30,0412_ps_dnn_30_keyboard_10_n03085013_25066.png,n03085013_25066.png,0.0,-2.4407225,-0.31665152,-1.5019449
alexnet_w1_mlp_simclrhn_probe2,1,413,NaN,cat,cat,30,0413_ps_dnn_30_cat_10_n02124075_11776.png,n02124075_11776.png,1.0,7.4076505,-2.0547726,6.6909437
alexnet_w1_mlp_simclrhn_probe2,1,414,NaN,keyboard,keyboard,120,0414_ps_dnn_120_keyboard_10_n04505470_2909.png,n04505470_2909.png,1.0,-0.4730297,-0.541584,0.04847522
alexnet_w1_mlp_simclrhn_probe2,1,415,NaN,keyboard,keyboard,30,0415_ps_dnn_30_keyboard_10_n04505470_494.png,n04505470_494.png,1.0,3.5307474,1.3672168,1.5298471
alexnet_w1_mlp_simclrhn_probe2,1,416,NaN,bear,bear,120,0416_ps_dnn_120_bear_10_n02133161_2270.png,n02133161_2270.png,1.0,0.025673538,-0.19886059,0.15876961
alexnet_w1_mlp_simclrhn_probe2,1,417,NaN,oven,chair,120,0417_ps_dnn_120_chair_10_n04099969_13901.png,n04099969_13901.png,0.0,-1.4483411,-0.6428129,-0.5695945
alexnet_w1_mlp_simclrhn_probe2,1,418,NaN,oven,car,120,0418_ps_dnn_120_car_10_n02814533_2923.png,n02814533_2923.png,0.0,-3.5749395,0.3709691,-2.7901788
alexnet_w1_mlp_simclrhn_probe2,1,419,NaN,oven,bottle,90,0419_ps_dnn_90_bottle_10_n03983396_12757.png,n03983396_12757.png,0.0,-0.78359807,-0.16128507,-0.44004178
alexnet_w1_mlp_simclrhn_probe2,1,420,NaN,oven,knife,30,0420_ps_dnn_30_knife_10_n03041632_15444.png,n03041632_15444.png,0.0,-0.85852575,-0.13487524,-0.5116982
alexnet_w1_mlp_simclrhn_probe2,1,421,NaN,oven,bicycle,180,0421_ps_dnn_180_bicycle_10_n02835271_5554.png,n02835271_5554.png,0.0,-3.8265846,-1.2960297,-1.7893724
alexnet_w1_mlp_simclrhn_probe2,1,422,NaN,knife,knife,150,0422_ps_dnn_150_knife_10_n03041632_37618.png,n03041632_37618.png,1.0,-1.3135145,-1.6976674,0.2716371
alexnet_w1_mlp_simclrhn_probe2,1,423,NaN,bottle,chair,60,0423_ps_dnn_60_chair_10_n03376595_3910.png,n03376595_3910.png,0.0,-1.2894876,-1.174773,-0.08111549
alexnet_w1_mlp_simclrhn_probe2,1,424,NaN,bear,dog,30,0424_ps_dnn_30_dog_10_n02086646_7362.png,n02086646_7362.png,0.0,0.34470373,0.5582378,-0.15099138
alexnet_w1_mlp_simclrhn_probe2,1,425,NaN,bear,dog,60,0425_ps_dnn_60_dog_10_n02113712_5829.png,n02113712_5829.png,0.0,-0.56734216,1.6761743,-1.5864058
alexnet_w1_mlp_simclrhn_probe2,1,426,NaN,knife,truck,180,0426_ps_dnn_180_truck_10_n03417042_1149.png,n03417042_1149.png,0.0,-4.2584944,-0.48411453,-2.6688895
alexnet_w1_mlp_simclrhn_probe2,1,427,NaN,elephant,bird,60,0427_ps_dnn_60_bird_10_n02002724_3345.png,n02002724_3345.png,0.0,-2.4263835,0.96375024,-2.3971868
alexnet_w1_mlp_simclrhn_probe2,1,428,NaN,bear,bird,150,0428_ps_dnn_150_bird_10_n02002556_2917.png,n02002556_2917.png,0.0,-0.8942001,-0.28967267,-0.42746544
alexnet_w1_mlp_simclrhn_probe2,1,429,NaN,bear,bottle,180,0429_ps_dnn_180_bottle_10_n04560804_3959.png,n04560804_3959.png,0.0,-1.3635086,-0.2744374,-0.7700896
alexnet_w1_mlp_simclrhn_probe2,1,430,NaN,airplane,airplane,30,0430_ps_dnn_30_airplane_10_n02690373_3639.png,n02690373_3639.png,1.0,4.4017496,-0.27994162,3.3104556
alexnet_w1_mlp_simclrhn_probe2,1,431,NaN,elephant,bottle,120,0431_ps_dnn_120_bottle_10_n02823428_14453.png,n02823428_14453.png,0.0,-1.9027958,-0.99279964,-0.64346445
alexnet_w1_mlp_simclrhn_probe2,1,432,NaN,bottle,bottle,0,0432_ps_dnn_0_bottle_10_n03937543_3253.png,n03937543_3253.png,1.0,5.1553335,0.8493004,3.0448253
alexnet_w1_mlp_simclrhn_probe2,1,433,NaN,bear,elephant,30,0433_ps_dnn_30_elephant_10_n02504013_7010.png,n02504013_7010.png,0.0,0.50253063,0.5895897,-0.06156007
alexnet_w1_mlp_simclrhn_probe2,1,434,NaN,elephant,car,150,0434_ps_dnn_150_car_10_n04285008_8813.png,n04285008_8813.png,0.0,-3.308424,0.06570018,-2.3858662
alexnet_w1_mlp_simclrhn_probe2,1,435,NaN,elephant,bear,180,0435_ps_dnn_180_bear_10_n02132136_110.png,n02132136_110.png,0.0,-0.7561725,-0.5616833,-0.13752462
alexnet_w1_mlp_simclrhn_probe2,1,436,NaN,bear,bear,60,0436_ps_dnn_60_bear_10_n02133161_4294.png,n02133161_4294.png,1.0,-0.096482635,-0.5167165,0.2971502
alexnet_w1_mlp_simclrhn_probe2,1,437,NaN,car,car,0,0437_ps_dnn_0_car_10_n02814533_95144.png,n02814533_95144.png,1.0,10.079335,6.1929836,2.7480657
alexnet_w1_mlp_simclrhn_probe2,1,438,NaN,knife,oven,120,0438_ps_dnn_120_oven_10_n04111531_1220.png,n04111531_1220.png,0.0,-0.6717771,-0.5417527,-0.09194116
alexnet_w1_mlp_simclrhn_probe2,1,439,NaN,cat,dog,60,0439_ps_dnn_60_dog_10_n02086240_7247.png,n02086240_7247.png,0.0,-1.018903,-0.8392534,-0.12703145
alexnet_w1_mlp_simclrhn_probe2,1,440,NaN,airplane,airplane,0,0440_ps_dnn_0_airplane_10_n02690373_4144.png,n02690373_4144.png,1.0,5.6356297,-0.4688558,4.316523
alexnet_w1_mlp_simclrhn_probe2,1,441,NaN,bear,oven,120,0441_ps_dnn_120_oven_10_n04111531_986.png,n04111531_986.png,0.0,-0.94700223,-0.18053669,-0.541973
alexnet_w1_mlp_simclrhn_probe2,1,442,NaN,bicycle,elephant,30,0442_ps_dnn_30_elephant_10_n02504458_6336.png,n02504458_6336.png,0.0,0.1519776,3.283467,-2.2142975
alexnet_w1_mlp_simclrhn_probe2,1,443,NaN,elephant,knife,150,0443_ps_dnn_150_knife_10_n03041632_14132.png,n03041632_14132.png,0.0,-0.7608593,-0.64837956,-0.079535194
alexnet_w1_mlp_simclrhn_probe2,1,444,NaN,bear,cat,150,0444_ps_dnn_150_cat_10_n02123159_799.png,n02123159_799.png,0.0,-1.8315371,-0.5224711,-0.9256495
alexnet_w1_mlp_simclrhn_probe2,1,445,NaN,bear,bird,90,0445_ps_dnn_90_bird_10_n02006656_7456.png,n02006656_7456.png,0.0,-1.1641778,0.89983195,-1.4594753
alexnet_w1_mlp_simclrhn_probe2,1,446,NaN,oven,cat,90,0446_ps_dnn_90_cat_10_n02123045_8722.png,n02123045_8722.png,0.0,-1.8449799,-0.2606302,-1.1203043
alexnet_w1_mlp_simclrhn_probe2,1,447,NaN,oven,chair,120,0447_ps_dnn_120_chair_10_n03376595_8302.png,n03376595_8302.png,0.0,-2.4394178,-0.7276805,-1.2103812
alexnet_w1_mlp_simclrhn_probe2,1,448,NaN,oven,bottle,30,0448_ps_dnn_30_bottle_10_n04560804_5769.png,n04560804_5769.png,0.0,1.4846382,1.5368226,-0.036899902
alexnet_w1_mlp_simclrhn_probe2,1,449,NaN,oven,car,90,0449_ps_dnn_90_car_10_n04285008_203.png,n04285008_203.png,0.0,-5.6266055,0.2905357,-4.1840506
alexnet_w1_mlp_simclrhn_probe2,1,450,NaN,knife,airplane,180,0450_ps_dnn_180_airplane_10_n02690373_9959.png,n02690373_9959.png,0.0,-4.068658,-0.70645285,-2.377438
alexnet_w1_mlp_simclrhn_probe2,1,451,NaN,car,car,0,0451_ps_dnn_0_car_10_n04285008_1867.png,n04285008_1867.png,1.0,10.292722,5.7903495,3.1836581
alexnet_w1_mlp_simclrhn_probe2,1,452,NaN,elephant,airplane,150,0452_ps_dnn_150_airplane_10_n02690373_16250.png,n02690373_16250.png,0.0,-2.3648405,-0.4209273,-1.3745543
alexnet_w1_mlp_simclrhn_probe2,1,453,NaN,elephant,elephant,30,0453_ps_dnn_30_elephant_10_n02504458_4696.png,n02504458_4696.png,1.0,2.972925,1.5521188,1.0046617
alexnet_w1_mlp_simclrhn_probe2,1,454,NaN,bicycle,car,60,0454_ps_dnn_60_car_10_n04285008_10755.png,n04285008_10755.png,0.0,-7.2183566,1.085705,-5.8718586
alexnet_w1_mlp_simclrhn_probe2,1,455,NaN,knife,boat,150,0455_ps_dnn_150_boat_10_n02951358_11586.png,n02951358_11586.png,0.0,-2.028485,-0.5053827,-1.076996
alexnet_w1_mlp_simclrhn_probe2,1,456,NaN,bottle,bottle,60,0456_ps_dnn_60_bottle_10_n02823428_4108.png,n02823428_4108.png,1.0,1.5287148,1.0350533,0.3490714
alexnet_w1_mlp_simclrhn_probe2,1,457,NaN,elephant,car,180,0457_ps_dnn_180_car_10_n04285008_11770.png,n04285008_11770.png,0.0,-5.3416686,-0.9436715,-3.1098535
alexnet_w1_mlp_simclrhn_probe2,1,458,NaN,boat,boat,90,0458_ps_dnn_90_boat_10_n04273569_32786.png,n04273569_32786.png,1.0,-0.26405987,-0.8523288,0.41596892
alexnet_w1_mlp_simclrhn_probe2,1,459,NaN,bear,bear,30,0459_ps_dnn_30_bear_10_n02132136_21267.png,n02132136_21267.png,1.0,4.8138094,3.155554,1.1725637
alexnet_w1_mlp_simclrhn_probe2,1,460,NaN,elephant,car,90,0460_ps_dnn_90_car_10_n03100240_24001.png,n03100240_24001.png,0.0,-5.1050696,0.17600821,-3.734286
alexnet_w1_mlp_simclrhn_probe2,1,461,NaN,knife,bottle,150,0461_ps_dnn_150_bottle_10_n03937543_71.png,n03937543_71.png,0.0,-1.3868839,-0.76853645,-0.43723765
alexnet_w1_mlp_simclrhn_probe2,1,462,NaN,oven,chair,0,0462_ps_dnn_0_chair_10_n02791124_16127.png,n02791124_16127.png,0.0,0.6624243,1.0022902,-0.2403215
alexnet_w1_mlp_simclrhn_probe2,1,463,NaN,bear,bird,90,0463_ps_dnn_90_bird_10_n02002724_12183.png,n02002724_12183.png,0.0,-0.618821,-0.27676457,-0.24187045
alexnet_w1_mlp_simclrhn_probe2,1,464,NaN,elephant,dog,30,0464_ps_dnn_30_dog_10_n02108915_1165.png,n02108915_1165.png,0.0,-0.47788802,0.073489994,-0.38988313
alexnet_w1_mlp_simclrhn_probe2,1,465,NaN,boat,dog,180,0465_ps_dnn_180_dog_10_n02099429_4843.png,n02099429_4843.png,0.0,-0.747603,0.16136199,-0.6427353
alexnet_w1_mlp_simclrhn_probe2,1,466,NaN,oven,boat,60,0466_ps_dnn_60_boat_10_n03344393_3499.png,n03344393_3499.png,0.0,1.1140096,1.1449909,-0.02190709
alexnet_w1_mlp_simclrhn_probe2,1,467,NaN,oven,truck,120,0467_ps_dnn_120_truck_10_n03417042_20962.png,n03417042_20962.png,0.0,-3.8722873,-0.14084855,-2.6385257
alexnet_w1_mlp_simclrhn_probe2,1,468,NaN,cat,dog,30,0468_ps_dnn_30_dog_10_n02097047_4189.png,n02097047_4189.png,0.0,0.04354815,0.15802586,-0.080947965
alexnet_w1_mlp_simclrhn_probe2,1,469,NaN,bicycle,bicycle,60,0469_ps_dnn_60_bicycle_10_n03792782_24591.png,n03792782_24591.png,1.0,6.115098,-1.7314417,5.5483413
alexnet_w1_mlp_simclrhn_probe2,1,470,NaN,bird,airplane,60,0470_ps_dnn_60_airplane_10_n02690373_243.png,n02690373_243.png,0.0,-2.050761,-1.0550306,-0.70408773
alexnet_w1_mlp_simclrhn_probe2,1,471,NaN,oven,boat,90,0471_ps_dnn_90_boat_10_n03344393_3072.png,n03344393_3072.png,0.0,-1.6253353,-0.18533497,-1.0182341
alexnet_w1_mlp_simclrhn_probe2,1,472,NaN,oven,clock,120,0472_ps_dnn_120_clock_10_n02708093_118.png,n02708093_118.png,0.0,-1.3809919,-0.47291163,-0.64210975
alexnet_w1_mlp_simclrhn_probe2,1,473,NaN,bird,bird,30,0473_ps_dnn_30_bird_10_n01843065_2664.png,n01843065_2664.png,1.0,0.7459941,-3.834765,3.239086
alexnet_w1_mlp_simclrhn_probe2,1,474,NaN,knife,airplane,150,0474_ps_dnn_150_airplane_10_n02690373_19353.png,n02690373_19353.png,0.0,-3.695528,-0.32044265,-2.386546
alexnet_w1_mlp_simclrhn_probe2,1,475,NaN,bear,dog,120,0475_ps_dnn_120_dog_10_n02099849_4250.png,n02099849_4250.png,0.0,-1.274835,-0.49654803,-0.55033195
alexnet_w1_mlp_simclrhn_probe2,1,476,NaN,oven,truck,90,0476_ps_dnn_90_truck_10_n04467665_29260.png,n04467665_29260.png,0.0,-2.5834703,-0.0008590445,-1.826182
alexnet_w1_mlp_simclrhn_probe2,1,477,NaN,bear,elephant,30,0477_ps_dnn_30_elephant_10_n02504013_8308.png,n02504013_8308.png,0.0,3.1389647,4.3498163,-0.85620147
alexnet_w1_mlp_simclrhn_probe2,1,478,NaN,knife,boat,150,0478_ps_dnn_150_boat_10_n03344393_6854.png,n03344393_6854.png,0.0,-0.9086119,0.098411754,-0.71207327
alexnet_w1_mlp_simclrhn_probe2,1,479,NaN,knife,truck,180,0479_ps_dnn_180_truck_10_n04467665_25129.png,n04467665_25129.png,0.0,-5.4151754,-0.8544709,-3.2249053
alexnet_w1_mlp_simclrhn_probe2,1,480,NaN,bird,bird,30,0480_ps_dnn_30_bird_10_n01824575_6272.png,n01824575_6272.png,1.0,-0.98570234,-1.4456532,0.32523438
alexnet_w1_mlp_simclrhn_probe2,1,481,NaN,knife,chair,180,0481_ps_dnn_180_chair_10_n04099969_19484.png,n04099969_19484.png,0.0,-3.756495,-1.1050912,-1.8748257
alexnet_w1_mlp_simclrhn_probe2,1,482,NaN,oven,oven,120,0482_ps_dnn_120_oven_10_n04111531_5888.png,n04111531_5888.png,1.0,-0.7857655,-0.8258818,0.028366473
alexnet_w1_mlp_simclrhn_probe2,1,483,NaN,elephant,chair,60,0483_ps_dnn_60_chair_10_n04099969_16266.png,n04099969_16266.png,0.0,-2.1887732,0.413686,-1.8402165
alexnet_w1_mlp_simclrhn_probe2,1,484,NaN,oven,truck,150,0484_ps_dnn_150_truck_10_n04467665_68754.png,n04467665_68754.png,0.0,-4.208957,-0.39019403,-2.7002735
alexnet_w1_mlp_simclrhn_probe2,1,485,NaN,knife,cat,180,0485_ps_dnn_180_cat_10_n02123394_7859.png,n02123394_7859.png,0.0,-1.3707367,0.11639531,-1.0515612
alexnet_w1_mlp_simclrhn_probe2,1,486,NaN,oven,car,90,0486_ps_dnn_90_car_10_n04285008_17056.png,n04285008_17056.png,0.0,-6.437533,0.2786834,-4.749082
alexnet_w1_mlp_simclrhn_probe2,1,487,NaN,elephant,cat,120,0487_ps_dnn_120_cat_10_n02123045_12046.png,n02123045_12046.png,0.0,-1.1705655,-0.026271626,-0.809138
alexnet_w1_mlp_simclrhn_probe2,1,488,NaN,bear,elephant,180,0488_ps_dnn_180_elephant_10_n02504013_3029.png,n02504013_3029.png,0.0,-0.90446293,-0.4254402,-0.33872023
alexnet_w1_mlp_simclrhn_probe2,1,489,NaN,boat,boat,120,0489_ps_dnn_120_boat_10_n03662601_7271.png,n03662601_7271.png,1.0,0.7893505,-0.49506998,0.90822244
alexnet_w1_mlp_simclrhn_probe2,1,490,NaN,bear,bear,30,0490_ps_dnn_30_bear_10_n02133161_6861.png,n02133161_6861.png,1.0,4.3073273,1.2519212,2.1604984
alexnet_w1_mlp_simclrhn_probe2,1,491,NaN,oven,chair,30,0491_ps_dnn_30_chair_10_n02791124_4192.png,n02791124_4192.png,0.0,0.030757844,0.9799292,-0.6711655
alexnet_w1_mlp_simclrhn_probe2,1,492,NaN,oven,boat,60,0492_ps_dnn_60_boat_10_n04273569_1457.png,n04273569_1457.png,0.0,-1.5311674,0.7467452,-1.6107274
alexnet_w1_mlp_simclrhn_probe2,1,493,NaN,oven,clock,90,0493_ps_dnn_90_clock_10_n04548280_764.png,n04548280_764.png,0.0,-1.4794828,-1.2840397,-0.13819909
alexnet_w1_mlp_simclrhn_probe2,1,494,NaN,oven,bicycle,120,0494_ps_dnn_120_bicycle_10_n02835271_12346.png,n02835271_12346.png,0.0,-2.3768823,-0.5938824,-1.2607714
alexnet_w1_mlp_simclrhn_probe2,1,495,NaN,bird,bicycle,180,0495_ps_dnn_180_bicycle_10_n03792782_50673.png,n03792782_50673.png,0.0,-1.2973576,-0.6745614,-0.4403834
alexnet_w1_mlp_simclrhn_probe2,1,496,NaN,knife,truck,120,0496_ps_dnn_120_truck_10_n03796401_9198.png,n03796401_9198.png,0.0,-2.7075331,-0.19059657,-1.779743
alexnet_w1_mlp_simclrhn_probe2,1,497,NaN,airplane,airplane,0,0497_ps_dnn_0_airplane_10_n02690373_4110.png,n02690373_4110.png,1.0,5.0876737,1.6858213,2.405473
alexnet_w1_mlp_simclrhn_probe2,1,498,NaN,bear,dog,60,0498_ps_dnn_60_dog_10_n02107683_2484.png,n02107683_2484.png,0.0,-0.13707067,1.1321661,-0.897486
alexnet_w1_mlp_simclrhn_probe2,1,499,NaN,oven,chair,60,0499_ps_dnn_60_chair_10_n02791124_13057.png,n02791124_13057.png,0.0,-1.2430109,2.0872426,-2.354845
alexnet_w1_mlp_simclrhn_probe2,1,500,NaN,bear,bear,120,0500_ps_dnn_120_bear_10_n02134418_14451.png,n02134418_14451.png,1.0,-0.81693006,-0.9200817,0.07293921
alexnet_w1_mlp_simclrhn_probe2,1,501,NaN,bicycle,bird,60,0501_ps_dnn_60_bird_10_n01843383_10059.png,n01843383_10059.png,0.0,-1.9077815,-1.8641504,-0.030851832
alexnet_w1_mlp_simclrhn_probe2,1,502,NaN,bicycle,bicycle,0,0502_ps_dnn_0_bicycle_10_n03792782_11824.png,n03792782_11824.png,1.0,5.940104,0.44676304,3.8843787
alexnet_w1_mlp_simclrhn_probe2,1,503,NaN,bird,bird,30,0503_ps_dnn_30_bird_10_n01532829_2492.png,n01532829_2492.png,1.0,-0.26575795,-0.5323031,0.18847588
alexnet_w1_mlp_simclrhn_probe2,1,504,NaN,bottle,bottle,0,0504_ps_dnn_0_bottle_10_n04579145_5621.png,n04579145_5621.png,1.0,3.469877,-2.9735408,4.5561843
alexnet_w1_mlp_simclrhn_probe2,1,505,NaN,knife,truck,150,0505_ps_dnn_150_truck_10_n03417042_6250.png,n03417042_6250.png,0.0,-5.4803543,-0.59059125,-3.4575846
alexnet_w1_mlp_simclrhn_probe2,1,506,NaN,bear,dog,90,0506_ps_dnn_90_dog_10_n02108551_14704.png,n02108551_14704.png,0.0,-0.9620342,0.6315288,-1.1268193
alexnet_w1_mlp_simclrhn_probe2,1,507,NaN,boat,boat,30,0507_ps_dnn_30_boat_10_n04612504_8407.png,n04612504_8407.png,1.0,3.652314,-1.6836858,3.7731216
alexnet_w1_mlp_simclrhn_probe2,1,508,NaN,oven,car,120,0508_ps_dnn_120_car_10_n03100240_14794.png,n03100240_14794.png,0.0,-6.261553,-1.0911264,-3.6560435
alexnet_w1_mlp_simclrhn_probe2,1,509,NaN,oven,dog,60,0509_ps_dnn_60_dog_10_n02097658_759.png,n02097658_759.png,0.0,-2.2084227,0.965785,-2.2445037
alexnet_w1_mlp_simclrhn_probe2,1,510,NaN,bear,oven,90,0510_ps_dnn_90_oven_10_n04111531_5965.png,n04111531_5965.png,0.0,-0.16066428,0.16507994,-0.23033595
alexnet_w1_mlp_simclrhn_probe2,1,511,NaN,oven,elephant,180,0511_ps_dnn_180_elephant_10_n02504013_6984.png,n02504013_6984.png,0.0,-1.3295214,-0.83814,-0.34745914
alexnet_w1_mlp_simclrhn_probe2,1,512,NaN,oven,oven,180,0512_ps_dnn_180_oven_10_n04111531_6695.png,n04111531_6695.png,1.0,-0.32352868,-0.84023255,0.3653648
alexnet_w1_mlp_simclrhn_probe2,1,513,NaN,bicycle,bird,60,0513_ps_dnn_60_bird_10_n02037110_4572.png,n02037110_4572.png,0.0,-1.3912523,-0.52388585,-0.6133207
alexnet_w1_mlp_simclrhn_probe2,1,514,NaN,oven,truck,30,0514_ps_dnn_30_truck_10_n03796401_11628.png,n03796401_11628.png,0.0,-2.198086,1.4966793,-2.6125937
alexnet_w1_mlp_simclrhn_probe2,1,515,NaN,bear,chair,180,0515_ps_dnn_180_chair_10_n02791124_1258.png,n02791124_1258.png,0.0,-2.5185037,-0.7844583,-1.2261553
alexnet_w1_mlp_simclrhn_probe2,1,516,NaN,elephant,knife,0,0516_ps_dnn_0_knife_10_n03041632_62810.png,n03041632_62810.png,0.0,-2.9014087,-0.5165392,-1.6863575
alexnet_w1_mlp_simclrhn_probe2,1,517,NaN,oven,bird,90,0517_ps_dnn_90_bird_10_n01819313_2770.png,n01819313_2770.png,0.0,-1.5501331,0.06507227,-1.1421227
alexnet_w1_mlp_simclrhn_probe2,1,518,NaN,bicycle,bicycle,60,0518_ps_dnn_60_bicycle_10_n02835271_25519.png,n02835271_25519.png,1.0,0.45230126,-0.6507623,0.77998376
alexnet_w1_mlp_simclrhn_probe2,1,519,NaN,boat,boat,0,0519_ps_dnn_0_boat_10_n03662601_23248.png,n03662601_23248.png,1.0,7.335579,2.5306163,3.3976216
alexnet_w1_mlp_simclrhn_probe2,1,520,NaN,oven,elephant,120,0520_ps_dnn_120_elephant_10_n02504013_1784.png,n02504013_1784.png,0.0,-1.5692157,0.22347692,-1.2676251
alexnet_w1_mlp_simclrhn_probe2,1,521,NaN,knife,cat,150,0521_ps_dnn_150_cat_10_n02123394_270.png,n02123394_270.png,0.0,-1.6693207,-0.517343,-0.8145713
alexnet_w1_mlp_simclrhn_probe2,1,522,NaN,dog,dog,30,0522_ps_dnn_30_dog_10_n02093647_1022.png,n02093647_1022.png,1.0,2.4033694,-1.0775037,2.461349
alexnet_w1_mlp_simclrhn_probe2,1,523,NaN,boat,boat,30,0523_ps_dnn_30_boat_10_n03662601_4881.png,n03662601_4881.png,1.0,3.8743281,2.0914285,1.2607005
alexnet_w1_mlp_simclrhn_probe2,1,524,NaN,oven,knife,60,0524_ps_dnn_60_knife_10_n03041632_8321.png,n03041632_8321.png,0.0,-2.460366,0.5946904,-2.1602511
alexnet_w1_mlp_simclrhn_probe2,1,525,NaN,bear,car,120,0525_ps_dnn_120_car_10_n02814533_60400.png,n02814533_60400.png,0.0,-5.2825775,0.10544734,-3.8099089
alexnet_w1_mlp_simclrhn_probe2,1,526,NaN,bird,cat,150,0526_ps_dnn_150_cat_10_n02123597_3280.png,n02123597_3280.png,0.0,-0.9426798,-0.30961415,-0.44764507
alexnet_w1_mlp_simclrhn_probe2,1,527,NaN,bear,dog,150,0527_ps_dnn_150_dog_10_n02110063_3399.png,n02110063_3399.png,0.0,-1.6348137,-0.3671062,-0.89640456
alexnet_w1_mlp_simclrhn_probe2,1,528,NaN,bear,bear,0,0528_ps_dnn_0_bear_10_n02132136_3109.png,n02132136_3109.png,1.0,2.5474114,0.42992643,1.4972881
alexnet_w1_mlp_simclrhn_probe2,1,529,NaN,bear,bear,0,0529_ps_dnn_0_bear_10_n02134084_16632.png,n02134084_16632.png,1.0,0.86772895,0.51066744,0.25248063
alexnet_w1_mlp_simclrhn_probe2,1,530,NaN,keyboard,bottle,150,0530_ps_dnn_150_bottle_10_n04591713_5851.png,n04591713_5851.png,0.0,-1.292992,-0.4204137,-0.617006
alexnet_w1_mlp_simclrhn_probe2,1,531,NaN,oven,knife,0,0531_ps_dnn_0_knife_10_n03041632_29961.png,n03041632_29961.png,0.0,-1.6897883,0.75024927,-1.7253673
alexnet_w1_mlp_simclrhn_probe2,1,532,NaN,knife,knife,30,0532_ps_dnn_30_knife_10_n03041632_10140.png,n03041632_10140.png,1.0,-0.79951274,-3.1960454,1.6946044
alexnet_w1_mlp_simclrhn_probe2,1,533,NaN,knife,airplane,180,0533_ps_dnn_180_airplane_10_n02690373_8765.png,n02690373_8765.png,0.0,-4.998063,-0.5332372,-3.1571085
alexnet_w1_mlp_simclrhn_probe2,1,534,NaN,oven,knife,120,0534_ps_dnn_120_knife_10_n03041632_16826.png,n03041632_16826.png,0.0,-2.2053816,0.12270607,-1.6462067
alexnet_w1_mlp_simclrhn_probe2,1,535,NaN,oven,chair,30,0535_ps_dnn_30_chair_10_n04429376_21089.png,n04429376_21089.png,0.0,-0.17458159,0.26802418,-0.31296954
alexnet_w1_mlp_simclrhn_probe2,1,536,NaN,elephant,bear,60,0536_ps_dnn_60_bear_10_n02134084_15118.png,n02134084_15118.png,0.0,1.4637673,1.537852,-0.052385837
alexnet_w1_mlp_simclrhn_probe2,1,537,NaN,elephant,car,120,0537_ps_dnn_120_car_10_n04285008_3884.png,n04285008_3884.png,0.0,-5.528843,-0.530733,-3.5341973
alexnet_w1_mlp_simclrhn_probe2,1,538,NaN,bear,boat,150,0538_ps_dnn_150_boat_10_n04273569_1576.png,n04273569_1576.png,0.0,-0.6793844,-0.57758504,-0.071983024
alexnet_w1_mlp_simclrhn_probe2,1,539,NaN,bear,bicycle,120,0539_ps_dnn_120_bicycle_10_n03792782_4600.png,n03792782_4600.png,0.0,-1.2629693,-0.5424673,-0.50947183
alexnet_w1_mlp_simclrhn_probe2,1,540,NaN,keyboard,clock,30,0540_ps_dnn_30_clock_10_n03196217_4537.png,n03196217_4537.png,0.0,1.253709,2.918978,-1.177523
alexnet_w1_mlp_simclrhn_probe2,1,541,NaN,boat,airplane,60,0541_ps_dnn_60_airplane_10_n02690373_10203.png,n02690373_10203.png,0.0,0.10993388,1.6533787,-1.0913804
alexnet_w1_mlp_simclrhn_probe2,1,542,NaN,truck,truck,30,0542_ps_dnn_30_truck_10_n04467665_48875.png,n04467665_48875.png,1.0,1.1219459,1.0977046,0.017141124
alexnet_w1_mlp_simclrhn_probe2,1,543,NaN,oven,car,60,0543_ps_dnn_60_car_10_n02814533_38071.png,n02814533_38071.png,0.0,-2.789861,2.2894244,-3.5915973
alexnet_w1_mlp_simclrhn_probe2,1,544,NaN,bicycle,bear,90,0544_ps_dnn_90_bear_10_n02133161_160.png,n02133161_160.png,0.0,-2.2832026,-0.80520433,-1.0451026
alexnet_w1_mlp_simclrhn_probe2,1,545,NaN,truck,car,30,0545_ps_dnn_30_car_10_n02814533_40344.png,n02814533_40344.png,0.0,-1.5566732,0.7283038,-1.6157228
alexnet_w1_mlp_simclrhn_probe2,1,546,NaN,bear,oven,180,0546_ps_dnn_180_oven_10_n04111531_9026.png,n04111531_9026.png,0.0,-1.3541806,-1.0431806,-0.2199102
alexnet_w1_mlp_simclrhn_probe2,1,547,NaN,knife,cat,0,0547_ps_dnn_0_cat_10_n02123597_13755.png,n02123597_13755.png,0.0,-0.99665457,-0.7039776,-0.20695388
alexnet_w1_mlp_simclrhn_probe2,1,548,NaN,elephant,car,150,0548_ps_dnn_150_car_10_n02814533_39485.png,n02814533_39485.png,0.0,-5.9528356,-0.5535027,-3.817905
alexnet_w1_mlp_simclrhn_probe2,1,549,NaN,knife,bottle,90,0549_ps_dnn_90_bottle_10_n03937543_4512.png,n03937543_4512.png,0.0,-0.8047785,-0.08669177,-0.507764
alexnet_w1_mlp_simclrhn_probe2,1,550,NaN,bear,cat,120,0550_ps_dnn_120_cat_10_n02124075_2402.png,n02124075_2402.png,0.0,-1.5910469,-0.54335916,-0.74082714
alexnet_w1_mlp_simclrhn_probe2,1,551,NaN,elephant,bird,0,0551_ps_dnn_0_bird_10_n02056570_9835.png,n02056570_9835.png,0.0,-1.6793528,-0.5121524,-0.82533526
alexnet_w1_mlp_simclrhn_probe2,1,552,NaN,knife,clock,120,0552_ps_dnn_120_clock_10_n04548280_13247.png,n04548280_13247.png,0.0,-0.96437436,-0.7121625,-0.17834073
alexnet_w1_mlp_simclrhn_probe2,1,553,NaN,oven,truck,60,0553_ps_dnn_60_truck_10_n03417042_173.png,n03417042_173.png,0.0,-1.2127101,2.1540556,-2.380663
alexnet_w1_mlp_simclrhn_probe2,1,554,NaN,knife,airplane,180,0554_ps_dnn_180_airplane_10_n02690373_1592.png,n02690373_1592.png,0.0,-3.0866666,-0.18131562,-2.0543933
alexnet_w1_mlp_simclrhn_probe2,1,555,NaN,elephant,elephant,0,0555_ps_dnn_0_elephant_10_n02504013_1953.png,n02504013_1953.png,1.0,6.5169315,1.7256074,3.3879778
alexnet_w1_mlp_simclrhn_probe2,1,556,NaN,knife,elephant,150,0556_ps_dnn_150_elephant_10_n02504458_4348.png,n02504458_4348.png,0.0,-2.5442214,-0.6863805,-1.313692
alexnet_w1_mlp_simclrhn_probe2,1,557,NaN,oven,airplane,90,0557_ps_dnn_90_airplane_10_n02690373_1854.png,n02690373_1854.png,0.0,-6.888363,-0.029184833,-4.8501716
alexnet_w1_mlp_simclrhn_probe2,1,558,NaN,knife,cat,180,0558_ps_dnn_180_cat_10_n02124075_14363.png,n02124075_14363.png,0.0,-1.1908177,-0.35889643,-0.5882572
alexnet_w1_mlp_simclrhn_probe2,1,559,NaN,oven,bottle,30,0559_ps_dnn_30_bottle_10_n03983396_3377.png,n03983396_3377.png,0.0,0.33834475,2.1367216,-1.2716445
alexnet_w1_mlp_simclrhn_probe2,1,560,NaN,clock,clock,90,0560_ps_dnn_90_clock_10_n04548280_6743.png,n04548280_6743.png,1.0,-0.49905634,-1.1376327,0.4515417
alexnet_w1_mlp_simclrhn_probe2,1,561,NaN,clock,clock,30,0561_ps_dnn_30_clock_10_n03196217_8034.png,n03196217_8034.png,1.0,-0.027245581,-0.19930775,0.121666335
alexnet_w1_mlp_simclrhn_probe2,1,562,NaN,bear,dog,150,0562_ps_dnn_150_dog_10_n02088094_13992.png,n02088094_13992.png,0.0,-2.462558,-0.7645454,-1.2006762
alexnet_w1_mlp_simclrhn_probe2,1,563,NaN,car,car,30,0563_ps_dnn_30_car_10_n03100240_6216.png,n03100240_6216.png,1.0,3.1255121,1.9355432,0.84143513
alexnet_w1_mlp_simclrhn_probe2,1,564,NaN,oven,oven,30,0564_ps_dnn_30_oven_10_n04111531_2831.png,n04111531_2831.png,1.0,2.137227,-0.19945776,1.6522856
alexnet_w1_mlp_simclrhn_probe2,1,565,NaN,knife,knife,0,0565_ps_dnn_0_knife_10_n03041632_927.png,n03041632_927.png,1.0,2.0200667,-0.10601124,1.5033641
alexnet_w1_mlp_simclrhn_probe2,1,566,NaN,oven,knife,150,0566_ps_dnn_150_knife_10_n03041632_5427.png,n03041632_5427.png,0.0,-1.1135925,-0.74903053,-0.25778425
alexnet_w1_mlp_simclrhn_probe2,1,567,NaN,bird,cat,180,0567_ps_dnn_180_cat_10_n02123045_8690.png,n02123045_8690.png,0.0,-1.7988185,-0.7744547,-0.7243346
alexnet_w1_mlp_simclrhn_probe2,1,568,NaN,clock,clock,90,0568_ps_dnn_90_clock_10_n02708093_6696.png,n02708093_6696.png,1.0,-1.593706,-1.8979647,0.2151434
alexnet_w1_mlp_simclrhn_probe2,1,569,NaN,boat,airplane,60,0569_ps_dnn_60_airplane_10_n02690373_7748.png,n02690373_7748.png,0.0,2.8135076,2.9176402,-0.0736329
alexnet_w1_mlp_simclrhn_probe2,1,570,NaN,knife,airplane,0,0570_ps_dnn_0_airplane_10_n02690373_20011.png,n02690373_20011.png,0.0,0.08205293,0.3380178,-0.1809945
alexnet_w1_mlp_simclrhn_probe2,1,571,NaN,knife,boat,150,0571_ps_dnn_150_boat_10_n02951358_16728.png,n02951358_16728.png,0.0,-0.916323,-0.42326713,-0.34864315
alexnet_w1_mlp_simclrhn_probe2,1,572,NaN,airplane,truck,60,0572_ps_dnn_60_truck_10_n04467665_37833.png,n04467665_37833.png,0.0,0.7767112,2.3556309,-1.1164649
alexnet_w1_mlp_simclrhn_probe2,1,573,NaN,oven,oven,0,0573_ps_dnn_0_oven_10_n04111531_22886.png,n04111531_22886.png,1.0,0.43072286,0.17332959,0.18200453
alexnet_w1_mlp_simclrhn_probe2,1,574,NaN,car,car,30,0574_ps_dnn_30_car_10_n04285008_5959.png,n04285008_5959.png,1.0,5.481194,1.812135,2.5944166
alexnet_w1_mlp_simclrhn_probe2,1,575,NaN,oven,boat,120,0575_ps_dnn_120_boat_10_n04273569_10840.png,n04273569_10840.png,0.0,-2.6100085,-0.33245337,-1.6104746
alexnet_w1_mlp_simclrhn_probe2,1,576,NaN,knife,clock,180,0576_ps_dnn_180_clock_10_n02708093_1352.png,n02708093_1352.png,0.0,-1.2053995,-0.628004,-0.40828028
alexnet_w1_mlp_simclrhn_probe2,1,577,NaN,oven,oven,120,0577_ps_dnn_120_oven_10_n04111531_1004.png,n04111531_1004.png,1.0,-0.3903731,-1.0626198,0.4753502
alexnet_w1_mlp_simclrhn_probe2,1,578,NaN,elephant,car,180,0578_ps_dnn_180_car_10_n03100240_4619.png,n03100240_4619.png,0.0,-2.6110184,0.05554101,-1.8855423
alexnet_w1_mlp_simclrhn_probe2,1,579,NaN,bear,oven,180,0579_ps_dnn_180_oven_10_n04111531_15367.png,n04111531_15367.png,0.0,-1.3209504,-0.7005569,-0.43868446
alexnet_w1_mlp_simclrhn_probe2,1,580,NaN,oven,oven,30,0580_ps_dnn_30_oven_10_n04111531_6903.png,n04111531_6903.png,1.0,-0.6150838,-1.5319248,0.6483045
alexnet_w1_mlp_simclrhn_probe2,1,581,NaN,oven,oven,60,0581_ps_dnn_60_oven_10_n04111531_1662.png,n04111531_1662.png,1.0,1.7035751,-0.031003468,1.2265323
alexnet_w1_mlp_simclrhn_probe2,1,582,NaN,keyboard,keyboard,0,0582_ps_dnn_0_keyboard_10_n04505470_1342.png,n04505470_1342.png,1.0,9.281147,-0.7461755,7.090388
alexnet_w1_mlp_simclrhn_probe2,1,583,NaN,boat,boat,60,0583_ps_dnn_60_boat_10_n02951358_1911.png,n02951358_1911.png,1.0,0.41563505,0.2528417,0.115112275
alexnet_w1_mlp_simclrhn_probe2,1,584,NaN,bicycle,bicycle,30,0584_ps_dnn_30_bicycle_10_n03792782_42927.png,n03792782_42927.png,1.0,3.5609202,-0.8553778,3.1227942
alexnet_w1_mlp_simclrhn_probe2,1,585,NaN,oven,chair,180,0585_ps_dnn_180_chair_10_n02791124_3994.png,n02791124_3994.png,0.0,-2.670098,-0.76582897,-1.3465216
alexnet_w1_mlp_simclrhn_probe2,1,586,NaN,dog,dog,0,0586_ps_dnn_0_dog_10_n02101388_1383.png,n02101388_1383.png,1.0,4.4584956,-3.1661122,5.3914123
alexnet_w1_mlp_simclrhn_probe2,1,587,NaN,oven,bear,30,0587_ps_dnn_30_bear_10_n02132136_9367.png,n02132136_9367.png,0.0,-2.8766627,-0.6809982,-1.5525693
alexnet_w1_mlp_simclrhn_probe2,1,588,NaN,bird,dog,150,0588_ps_dnn_150_dog_10_n02108915_7875.png,n02108915_7875.png,0.0,-1.0537782,-0.63075805,-0.2991204
alexnet_w1_mlp_simclrhn_probe2,1,589,NaN,oven,chair,60,0589_ps_dnn_60_chair_10_n02791124_6237.png,n02791124_6237.png,0.0,-0.9386356,-0.14199914,-0.56330705
alexnet_w1_mlp_simclrhn_probe2,1,590,NaN,cat,bird,60,0590_ps_dnn_60_bird_10_n01622779_13896.png,n01622779_13896.png,0.0,-6.9928975,1.2143526,-5.8034024
alexnet_w1_mlp_simclrhn_probe2,1,591,NaN,oven,boat,30,0591_ps_dnn_30_boat_10_n04273569_15583.png,n04273569_15583.png,0.0,-1.3943424,-1.1273464,-0.1887947
alexnet_w1_mlp_simclrhn_probe2,1,592,NaN,knife,bottle,0,0592_ps_dnn_0_bottle_10_n03937543_3079.png,n03937543_3079.png,0.0,-0.973447,1.3478299,-1.6413907
alexnet_w1_mlp_simclrhn_probe2,1,593,NaN,oven,dog,150,0593_ps_dnn_150_dog_10_n02110063_5687.png,n02110063_5687.png,0.0,-2.9788527,-0.6532787,-1.6444291
alexnet_w1_mlp_simclrhn_probe2,1,594,NaN,truck,truck,30,0594_ps_dnn_30_truck_10_n03417042_6685.png,n03417042_6685.png,1.0,0.71498543,-1.3807796,1.4819298
alexnet_w1_mlp_simclrhn_probe2,1,595,NaN,clock,clock,0,0595_ps_dnn_0_clock_10_n02708093_340.png,n02708093_340.png,1.0,6.1457467,-0.44049928,4.6571794
alexnet_w1_mlp_simclrhn_probe2,1,596,NaN,elephant,dog,0,0596_ps_dnn_0_dog_10_n02111129_5463.png,n02111129_5463.png,0.0,2.7260923,3.194841,-0.3314553
alexnet_w1_mlp_simclrhn_probe2,1,597,NaN,oven,bicycle,90,0597_ps_dnn_90_bicycle_10_n03792782_17503.png,n03792782_17503.png,0.0,-0.15310597,0.1402533,-0.20743634
alexnet_w1_mlp_simclrhn_probe2,1,598,NaN,bear,bear,60,0598_ps_dnn_60_bear_10_n02134084_9253.png,n02134084_9253.png,1.0,-0.53125477,-1.1450708,0.43403348
alexnet_w1_mlp_simclrhn_probe2,1,599,NaN,bicycle,car,30,0599_ps_dnn_30_car_10_n04285008_3688.png,n04285008_3688.png,0.0,-0.20320398,0.56121016,-0.5405224
alexnet_w1_mlp_simclrhn_probe2,1,600,NaN,bird,bird,150,0600_ps_dnn_150_bird_10_n01795545_17324.png,n01795545_17324.png,1.0,-0.92055327,-0.9500059,0.02082615
alexnet_w1_mlp_simclrhn_probe2,1,601,NaN,boat,boat,30,0601_ps_dnn_30_boat_10_n04273569_16064.png,n04273569_16064.png,1.0,3.538488,-1.3181174,3.4341388
alexnet_w1_mlp_simclrhn_probe2,1,602,NaN,knife,elephant,180,0602_ps_dnn_180_elephant_10_n02504458_4395.png,n02504458_4395.png,0.0,-1.2947078,-0.7440808,-0.38935208
alexnet_w1_mlp_simclrhn_probe2,1,603,NaN,oven,oven,30,0603_ps_dnn_30_oven_10_n04111531_21855.png,n04111531_21855.png,1.0,4.764568,-0.26479226,3.556295
alexnet_w1_mlp_simclrhn_probe2,1,604,NaN,oven,oven,30,0604_ps_dnn_30_oven_10_n04111531_11225.png,n04111531_11225.png,1.0,4.568476,0.026119947,3.2119312
alexnet_w1_mlp_simclrhn_probe2,1,605,NaN,bear,oven,150,0605_ps_dnn_150_oven_10_n04111531_13486.png,n04111531_13486.png,0.0,-0.73453707,-0.63590443,-0.069743805
alexnet_w1_mlp_simclrhn_probe2,1,606,NaN,chair,chair,0,0606_ps_dnn_0_chair_10_n02791124_1693.png,n02791124_1693.png,1.0,1.2915299,0.5101092,0.5525479
alexnet_w1_mlp_simclrhn_probe2,1,607,NaN,knife,chair,150,0607_ps_dnn_150_chair_10_n04099969_26462.png,n04099969_26462.png,0.0,-2.6078491,-0.94132835,-1.1784081
alexnet_w1_mlp_simclrhn_probe2,1,608,NaN,bear,chair,120,0608_ps_dnn_120_chair_10_n04429376_16869.png,n04429376_16869.png,0.0,-2.3681512,-0.62197334,-1.2347343
alexnet_w1_mlp_simclrhn_probe2,1,609,NaN,knife,bottle,0,0609_ps_dnn_0_bottle_10_n03983396_23471.png,n03983396_23471.png,0.0,-3.0889904,0.23153113,-2.3479633
alexnet_w1_mlp_simclrhn_probe2,1,610,NaN,cat,bear,0,0610_ps_dnn_0_bear_10_n02134084_5314.png,n02134084_5314.png,0.0,0.14706624,0.6950624,-0.38749182
alexnet_w1_mlp_simclrhn_probe2,1,611,NaN,bear,elephant,180,0611_ps_dnn_180_elephant_10_n02504458_4564.png,n02504458_4564.png,0.0,-0.69195986,-0.15461162,-0.37996262
alexnet_w1_mlp_simclrhn_probe2,1,612,NaN,elephant,bear,0,0612_ps_dnn_0_bear_10_n02132136_6967.png,n02132136_6967.png,0.0,5.703324,5.8163624,-0.07993032
alexnet_w1_mlp_simclrhn_probe2,1,613,NaN,cat,cat,0,0613_ps_dnn_0_cat_10_n02123394_6517.png,n02123394_6517.png,1.0,2.5198243,0.64217585,1.3276979
alexnet_w1_mlp_simclrhn_probe2,1,614,NaN,knife,keyboard,150,0614_ps_dnn_150_keyboard_10_n04505470_1076.png,n04505470_1076.png,0.0,-1.2084545,-1.0910523,-0.08301589
alexnet_w1_mlp_simclrhn_probe2,1,615,NaN,knife,knife,180,0615_ps_dnn_180_knife_10_n03041632_5916.png,n03041632_5916.png,1.0,-0.5267712,-1.1045759,0.4085696
alexnet_w1_mlp_simclrhn_probe2,1,616,NaN,elephant,car,90,0616_ps_dnn_90_car_10_n03100240_4674.png,n03100240_4674.png,0.0,-7.6414466,0.36474824,-5.661235
alexnet_w1_mlp_simclrhn_probe2,1,617,NaN,bottle,bottle,90,0617_ps_dnn_90_bottle_10_n02823428_1602.png,n02823428_1602.png,1.0,-0.38020268,-0.5134044,0.09418786
alexnet_w1_mlp_simclrhn_probe2,1,618,NaN,elephant,boat,90,0618_ps_dnn_90_boat_10_n04273569_27343.png,n04273569_27343.png,0.0,-1.5649532,-0.5826183,-0.69461566
alexnet_w1_mlp_simclrhn_probe2,1,619,NaN,bear,bottle,120,0619_ps_dnn_120_bottle_10_n04560804_15162.png,n04560804_15162.png,0.0,-1.5028821,-0.82372373,-0.4802375
alexnet_w1_mlp_simclrhn_probe2,1,620,NaN,elephant,bottle,120,0620_ps_dnn_120_bottle_10_n03937543_24.png,n03937543_24.png,0.0,-0.884634,-0.39927584,-0.34320006
alexnet_w1_mlp_simclrhn_probe2,1,621,NaN,bear,dog,180,0621_ps_dnn_180_dog_10_n02105162_9615.png,n02105162_9615.png,0.0,-1.6624411,-0.53086746,-0.8001434
alexnet_w1_mlp_simclrhn_probe2,1,622,NaN,elephant,bird,150,0622_ps_dnn_150_bird_10_n01582220_1150.png,n01582220_1150.png,0.0,-0.6897913,-0.29659757,-0.27802998
alexnet_w1_mlp_simclrhn_probe2,1,623,NaN,knife,clock,180,0623_ps_dnn_180_clock_10_n04548280_4560.png,n04548280_4560.png,0.0,-1.2385145,-0.8438301,-0.27908406
alexnet_w1_mlp_simclrhn_probe2,1,624,NaN,bear,bottle,150,0624_ps_dnn_150_bottle_10_n04560804_14605.png,n04560804_14605.png,0.0,-2.2390144,-1.0660521,-0.8294096
alexnet_w1_mlp_simclrhn_probe2,1,625,NaN,chair,chair,0,0625_ps_dnn_0_chair_10_n03376595_262.png,n03376595_262.png,1.0,1.5931051,-0.68403196,1.6101791
alexnet_w1_mlp_simclrhn_probe2,1,626,NaN,bear,dog,180,0626_ps_dnn_180_dog_10_n02091032_6523.png,n02091032_6523.png,0.0,-1.2265646,-0.097536236,-0.79834366
alexnet_w1_mlp_simclrhn_probe2,1,627,NaN,bear,cat,150,0627_ps_dnn_150_cat_10_n02123159_615.png,n02123159_615.png,0.0,-1.2112968,-0.45498133,-0.5347958
alexnet_w1_mlp_simclrhn_probe2,1,628,NaN,knife,bottle,180,0628_ps_dnn_180_bottle_10_n04579145_6049.png,n04579145_6049.png,0.0,-1.2460964,-0.7766084,-0.33197814
alexnet_w1_mlp_simclrhn_probe2,1,629,NaN,keyboard,bottle,90,0629_ps_dnn_90_bottle_10_n02823428_4386.png,n02823428_4386.png,0.0,-1.0115664,2.4867556,-2.4736872
alexnet_w1_mlp_simclrhn_probe2,1,630,NaN,oven,car,150,0630_ps_dnn_150_car_10_n03100240_4594.png,n03100240_4594.png,0.0,-5.36297,-1.1400304,-2.9860692
alexnet_w1_mlp_simclrhn_probe2,1,631,NaN,knife,knife,120,0631_ps_dnn_120_knife_10_n03041632_51581.png,n03041632_51581.png,1.0,0.39526698,-0.5502455,0.6685783
alexnet_w1_mlp_simclrhn_probe2,1,632,NaN,oven,keyboard,60,0632_ps_dnn_60_keyboard_10_n03085013_15836.png,n03085013_15836.png,0.0,-1.1732712,-0.43841693,-0.5196204
alexnet_w1_mlp_simclrhn_probe2,1,633,NaN,elephant,bicycle,180,0633_ps_dnn_180_bicycle_10_n03792782_34197.png,n03792782_34197.png,0.0,-0.8087481,-0.2080259,-0.42477474
alexnet_w1_mlp_simclrhn_probe2,1,634,NaN,knife,bicycle,180,0634_ps_dnn_180_bicycle_10_n02835271_9314.png,n02835271_9314.png,0.0,-2.969804,0.18948287,-2.2339532
alexnet_w1_mlp_simclrhn_probe2,1,635,NaN,knife,oven,150,0635_ps_dnn_150_oven_10_n04111531_5643.png,n04111531_5643.png,0.0,-0.93244517,-0.38866204,-0.38451275
alexnet_w1_mlp_simclrhn_probe2,1,636,NaN,bear,cat,180,0636_ps_dnn_180_cat_10_n02123394_6362.png,n02123394_6362.png,0.0,-0.7302279,0.039772086,-0.5444722
alexnet_w1_mlp_simclrhn_probe2,1,637,NaN,elephant,elephant,60,0637_ps_dnn_60_elephant_10_n02504458_3614.png,n02504458_3614.png,1.0,4.0645914,0.556408,2.4806604
