subj,session,trial,rt,object_response,category,condition,imagename,filename,is_correct,targ_act,max_nontarg_act,decision_margin
alexnet_w1_mlp_simclrhn_probe1,1,1,NaN,truck,truck,30,0001_ps_dnn_30_truck_10_n03417042_14861.png,n03417042_14861.png,1.0,5.278871,0.04652677,3.699826
alexnet_w1_mlp_simclrhn_probe1,1,2,NaN,keyboard,keyboard,0,0002_ps_dnn_0_keyboard_10_n03085013_25476.png,n03085013_25476.png,1.0,8.138229,-1.4086709,6.7506776
alexnet_w1_mlp_simclrhn_probe1,1,3,NaN,elephant,elephant,0,0003_ps_dnn_0_elephant_10_n02504013_3087.png,n02504013_3087.png,1.0,11.390879,0.76509106,7.5135665
alexnet_w1_mlp_simclrhn_probe1,1,4,NaN,bear,cat,30,0004_ps_dnn_30_cat_10_n02123394_4633.png,n02123394_4633.png,0.0,1.4894133,1.8883011,-0.28205633
alexnet_w1_mlp_simclrhn_probe1,1,5,NaN,knife,knife,120,0005_ps_dnn_120_knife_10_n03041632_48151.png,n03041632_48151.png,1.0,-1.2417024,-2.0009828,0.5368923
alexnet_w1_mlp_simclrhn_probe1,1,6,NaN,bicycle,bicycle,60,0006_ps_dnn_60_bicycle_10_n02835271_1075.png,n02835271_1075.png,1.0,7.012202,-3.4177978,7.3751235
alexnet_w1_mlp_simclrhn_probe1,1,7,NaN,bear,bear,180,0007_ps_dnn_180_bear_10_n02134084_10289.png,n02134084_10289.png,1.0,-1.2211145,-2.3630414,0.80746424
alexnet_w1_mlp_simclrhn_probe1,1,8,NaN,keyboard,keyboard,0,0008_ps_dnn_0_keyboard_10_n03085013_21967.png,n03085013_21967.png,1.0,3.4149444,-0.34909695,2.6615794
alexnet_w1_mlp_simclrhn_probe1,1,9,NaN,oven,oven,150,0009_ps_dnn_150_oven_10_n04111531_5737.png,n04111531_5737.png,1.0,-1.7286959,-2.468811,0.52334046
alexnet_w1_mlp_simclrhn_probe1,1,10,NaN,elephant,elephant,60,0010_ps_dnn_60_elephant_10_n02504458_8141.png,n02504458_8141.png,1.0,0.70401555,-0.56500256,0.89733136
alexnet_w1_mlp_simclrhn_probe1,1,11,NaN,elephant,elephant,90,0011_ps_dnn_90_elephant_10_n02504458_3153.png,n02504458_3153.png,1.0,3.7299159,0.37734908,2.3706226
alexnet_w1_mlp_simclrhn_probe1,1,12,NaN,bear,bear,60,0012_ps_dnn_60_bear_10_n02134418_5807.png,n02134418_5807.png,1.0,2.3291342,0.81215143,1.0726688
alexnet_w1_mlp_simclrhn_probe1,1,13,NaN,boat,boat,0,0013_ps_dnn_0_boat_10_n04273569_15322.png,n04273569_15322.png,1.0,3.4957283,-1.2202249,3.3346822
alexnet_w1_mlp_simclrhn_probe1,1,14,NaN,chair,knife,0,0014_ps_dnn_0_knife_10_n03041632_42526.png,n03041632_42526.png,0.0,-2.2493823,-1.1906395,-0.7486442
alexnet_w1_mlp_simclrhn_probe1,1,15,NaN,bicycle,bicycle,30,0015_ps_dnn_30_bicycle_10_n02835271_5886.png,n02835271_5886.png,1.0,-0.4718718,-3.1351702,1.8832364
alexnet_w1_mlp_simclrhn_probe1,1,16,NaN,knife,dog,180,0016_ps_dnn_180_dog_10_n02110063_869.png,n02110063_869.png,0.0,-2.7079108,-1.8089119,-0.6356882
alexnet_w1_mlp_simclrhn_probe1,1,17,NaN,bear,bicycle,180,0017_ps_dnn_180_bicycle_10_n03792782_3334.png,n03792782_3334.png,0.0,-2.8475647,-2.0145242,-0.58904856
alexnet_w1_mlp_simclrhn_probe1,1,18,NaN,airplane,airplane,0,0018_ps_dnn_0_airplane_10_n02690373_7355.png,n02690373_7355.png,1.0,7.68406,1.2037781,4.582251
alexnet_w1_mlp_simclrhn_probe1,1,19,NaN,bear,bird,120,0019_ps_dnn_120_bird_10_n01798484_2289.png,n01798484_2289.png,0.0,-1.9029852,-1.5869513,-0.22346976
alexnet_w1_mlp_simclrhn_probe1,1,20,NaN,knife,knife,60,0020_ps_dnn_60_knife_10_n03041632_87380.png,n03041632_87380.png,1.0,-1.1539818,-1.9148475,0.5380133
alexnet_w1_mlp_simclrhn_probe1,1,21,NaN,airplane,bird,0,0021_ps_dnn_0_bird_10_n02027492_15639.png,n02027492_15639.png,0.0,-4.3661633,-1.939201,-1.7161216
alexnet_w1_mlp_simclrhn_probe1,1,22,NaN,airplane,bird,0,0022_ps_dnn_0_bird_10_n02006656_7153.png,n02006656_7153.png,0.0,0.09050249,0.42385158,-0.23571339
alexnet_w1_mlp_simclrhn_probe1,1,23,NaN,boat,boat,60,0023_ps_dnn_60_boat_10_n04612504_14699.png,n04612504_14699.png,1.0,1.7437236,-2.8876944,3.2749074
alexnet_w1_mlp_simclrhn_probe1,1,24,NaN,bear,bear,60,0024_ps_dnn_60_bear_10_n02134418_5971.png,n02134418_5971.png,1.0,2.7543163,-0.3805824,2.2167082
alexnet_w1_mlp_simclrhn_probe1,1,25,NaN,bear,dog,90,0025_ps_dnn_90_dog_10_n02110063_16680.png,n02110063_16680.png,0.0,-1.563319,-0.78965396,-0.54706377
alexnet_w1_mlp_simclrhn_probe1,1,26,NaN,oven,car,90,0026_ps_dnn_90_car_10_n03100240_6010.png,n03100240_6010.png,0.0,-8.671799,-0.566167,-5.7315474
alexnet_w1_mlp_simclrhn_probe1,1,27,NaN,elephant,elephant,30,0027_ps_dnn_30_elephant_10_n02504458_9835.png,n02504458_9835.png,1.0,0.1429396,-1.9776338,1.4994719
alexnet_w1_mlp_simclrhn_probe1,1,28,NaN,airplane,airplane,30,0028_ps_dnn_30_airplane_10_n02690373_10207.png,n02690373_10207.png,1.0,3.8997092,-0.35206535,3.0064588
alexnet_w1_mlp_simclrhn_probe1,1,29,NaN,cat,bottle,180,0029_ps_dnn_180_bottle_10_n03983396_5532.png,n03983396_5532.png,0.0,-4.78133,-2.5412729,-1.5839597
alexnet_w1_mlp_simclrhn_probe1,1,30,NaN,dog,dog,30,0030_ps_dnn_30_dog_10_n02090622_1485.png,n02090622_1485.png,1.0,1.8930753,-2.315426,2.9758599
alexnet_w1_mlp_simclrhn_probe1,1,31,NaN,bear,truck,150,0031_ps_dnn_150_truck_10_n03417042_5503.png,n03417042_5503.png,0.0,-9.687538,-1.4192588,-5.846556
alexnet_w1_mlp_simclrhn_probe1,1,32,NaN,bear,bear,180,0032_ps_dnn_180_bear_10_n02133161_897.png,n02133161_897.png,1.0,-1.6320806,-1.9431648,0.2199698
alexnet_w1_mlp_simclrhn_probe1,1,33,NaN,knife,keyboard,180,0033_ps_dnn_180_keyboard_10_n04505470_4579.png,n04505470_4579.png,0.0,-2.7675378,-1.7069892,-0.74992114
alexnet_w1_mlp_simclrhn_probe1,1,34,NaN,bird,bird,60,0034_ps_dnn_60_bird_10_n01592084_5833.png,n01592084_5833.png,1.0,1.5016658,-2.4403348,2.7874155
alexnet_w1_mlp_simclrhn_probe1,1,35,NaN,dog,dog,0,0035_ps_dnn_0_dog_10_n02090379_3514.png,n02090379_3514.png,1.0,0.83451885,-3.4842386,3.0538228
alexnet_w1_mlp_simclrhn_probe1,1,36,NaN,knife,airplane,180,0036_ps_dnn_180_airplane_10_n02690373_6144.png,n02690373_6144.png,0.0,-8.611569,-1.7529263,-4.849793
alexnet_w1_mlp_simclrhn_probe1,1,37,NaN,knife,airplane,90,0037_ps_dnn_90_airplane_10_n02690373_1436.png,n02690373_1436.png,0.0,-1.1704772,-0.010259859,-0.8203975
alexnet_w1_mlp_simclrhn_probe1,1,38,NaN,bear,clock,120,0038_ps_dnn_120_clock_10_n04548280_354.png,n04548280_354.png,0.0,-3.2641585,-0.9155082,-1.6607466
alexnet_w1_mlp_simclrhn_probe1,1,39,NaN,keyboard,keyboard,0,0039_ps_dnn_0_keyboard_10_n03085013_2189.png,n03085013_2189.png,1.0,3.1712847,0.39650095,1.9620683
alexnet_w1_mlp_simclrhn_probe1,1,40,NaN,bear,chair,120,0040_ps_dnn_120_chair_10_n04099969_9005.png,n04099969_9005.png,0.0,-8.515469,-1.387261,-5.040404
alexnet_w1_mlp_simclrhn_probe1,1,41,NaN,bear,bicycle,180,0041_ps_dnn_180_bicycle_10_n02835271_7350.png,n02835271_7350.png,0.0,-2.8765433,-1.3317192,-1.0923556
alexnet_w1_mlp_simclrhn_probe1,1,42,NaN,knife,bottle,150,0042_ps_dnn_150_bottle_10_n04557648_8320.png,n04557648_8320.png,0.0,-3.0740132,-1.4139569,-1.1738371
alexnet_w1_mlp_simclrhn_probe1,1,43,NaN,dog,dog,0,0043_ps_dnn_0_dog_10_n02105641_6503.png,n02105641_6503.png,1.0,0.3131792,-3.983885,3.0384834
alexnet_w1_mlp_simclrhn_probe1,1,44,NaN,clock,clock,90,0044_ps_dnn_90_clock_10_n04548280_6022.png,n04548280_6022.png,1.0,-0.8966219,-3.1956246,1.6256404
alexnet_w1_mlp_simclrhn_probe1,1,45,NaN,keyboard,clock,60,0045_ps_dnn_60_clock_10_n03196217_7414.png,n03196217_7414.png,0.0,-1.2026064,-0.15219286,-0.7427546
alexnet_w1_mlp_simclrhn_probe1,1,46,NaN,knife,oven,150,0046_ps_dnn_150_oven_10_n04111531_7965.png,n04111531_7965.png,0.0,-5.177249,-3.3483107,-1.2932546
alexnet_w1_mlp_simclrhn_probe1,1,47,NaN,clock,bottle,90,0047_ps_dnn_90_bottle_10_n04579145_4594.png,n04579145_4594.png,0.0,-2.7876801,-1.8376566,-0.67176807
alexnet_w1_mlp_simclrhn_probe1,1,48,NaN,oven,bottle,30,0048_ps_dnn_30_bottle_10_n03983396_4564.png,n03983396_4564.png,0.0,0.039010506,1.4146324,-0.9727116
alexnet_w1_mlp_simclrhn_probe1,1,49,NaN,cat,cat,60,0049_ps_dnn_60_cat_10_n02125311_54015.png,n02125311_54015.png,1.0,1.4993051,-0.94462556,1.72812
alexnet_w1_mlp_simclrhn_probe1,1,50,NaN,knife,bicycle,150,0050_ps_dnn_150_bicycle_10_n03792782_5133.png,n03792782_5133.png,0.0,-2.4159908,-1.4065322,-0.71379507
alexnet_w1_mlp_simclrhn_probe1,1,51,NaN,bear,bird,120,0051_ps_dnn_120_bird_10_n02018207_6296.png,n02018207_6296.png,0.0,-2.0162468,-1.808424,-0.14695291
alexnet_w1_mlp_simclrhn_probe1,1,52,NaN,elephant,bird,30,0052_ps_dnn_30_bird_10_n01817953_11996.png,n01817953_11996.png,0.0,-7.618413,1.0761921,-6.148014
alexnet_w1_mlp_simclrhn_probe1,1,53,NaN,knife,keyboard,150,0053_ps_dnn_150_keyboard_10_n03085013_3148.png,n03085013_3148.png,0.0,-6.9370594,-2.518657,-3.1242826
alexnet_w1_mlp_simclrhn_probe1,1,54,NaN,bear,bear,60,0054_ps_dnn_60_bear_10_n02134418_5537.png,n02134418_5537.png,1.0,2.2382116,-0.8954828,2.2158566
alexnet_w1_mlp_simclrhn_probe1,1,55,NaN,knife,cat,150,0055_ps_dnn_150_cat_10_n02125311_11409.png,n02125311_11409.png,0.0,-3.9471405,-1.7389677,-1.561414
alexnet_w1_mlp_simclrhn_probe1,1,56,NaN,elephant,knife,30,0056_ps_dnn_30_knife_10_n03041632_3063.png,n03041632_3063.png,0.0,-5.36645,-2.2496169,-2.2039337
alexnet_w1_mlp_simclrhn_probe1,1,57,NaN,bear,dog,60,0057_ps_dnn_60_dog_10_n02106550_6424.png,n02106550_6424.png,0.0,-1.2931423,0.36313444,-1.1711645
alexnet_w1_mlp_simclrhn_probe1,1,58,NaN,elephant,bear,30,0058_ps_dnn_30_bear_10_n02133161_7032.png,n02133161_7032.png,0.0,0.8044113,1.2603855,-0.32242247
alexnet_w1_mlp_simclrhn_probe1,1,59,NaN,knife,cat,150,0059_ps_dnn_150_cat_10_n02125311_5570.png,n02125311_5570.png,0.0,-4.488683,-1.662565,-1.9983674
alexnet_w1_mlp_simclrhn_probe1,1,60,NaN,elephant,bird,30,0060_ps_dnn_30_bird_10_n01843383_13894.png,n01843383_13894.png,0.0,-1.0552998,0.050866157,-0.7821774
alexnet_w1_mlp_simclrhn_probe1,1,61,NaN,oven,bottle,60,0061_ps_dnn_60_bottle_10_n03983396_2205.png,n03983396_2205.png,0.0,-4.578812,0.536685,-3.6172028
alexnet_w1_mlp_simclrhn_probe1,1,62,NaN,bicycle,bicycle,60,0062_ps_dnn_60_bicycle_10_n03792782_31010.png,n03792782_31010.png,1.0,5.5618863,-3.9371352,6.7168226
alexnet_w1_mlp_simclrhn_probe1,1,63,NaN,bottle,bottle,60,0063_ps_dnn_60_bottle_10_n02823428_880.png,n02823428_880.png,1.0,4.477884,-2.69461,5.071719
alexnet_w1_mlp_simclrhn_probe1,1,64,NaN,bear,car,180,0064_ps_dnn_180_car_10_n02814533_40459.png,n02814533_40459.png,0.0,-10.195878,-2.7515793,-5.263914
alexnet_w1_mlp_simclrhn_probe1,1,65,NaN,bear,cat,120,0065_ps_dnn_120_cat_10_n02123045_567.png,n02123045_567.png,0.0,-1.4247427,-1.2753228,-0.10565583
alexnet_w1_mlp_simclrhn_probe1,1,66,NaN,elephant,knife,120,0066_ps_dnn_120_knife_10_n03041632_24541.png,n03041632_24541.png,0.0,-1.96538,-1.1705643,-0.5620195
alexnet_w1_mlp_simclrhn_probe1,1,67,NaN,elephant,elephant,30,0067_ps_dnn_30_elephant_10_n02504458_8644.png,n02504458_8644.png,1.0,5.538817,-0.59586793,4.3378773
alexnet_w1_mlp_simclrhn_probe1,1,68,NaN,keyboard,keyboard,0,0068_ps_dnn_0_keyboard_10_n03085013_2166.png,n03085013_2166.png,1.0,3.460356,-0.46699667,2.7770576
alexnet_w1_mlp_simclrhn_probe1,1,69,NaN,bear,boat,90,0069_ps_dnn_90_boat_10_n04273569_13972.png,n04273569_13972.png,0.0,-3.097231,-2.2885962,-0.5717911
alexnet_w1_mlp_simclrhn_probe1,1,70,NaN,knife,airplane,150,0070_ps_dnn_150_airplane_10_n02690373_9432.png,n02690373_9432.png,0.0,-7.764516,-1.9295502,-4.1259437
alexnet_w1_mlp_simclrhn_probe1,1,71,NaN,oven,truck,90,0071_ps_dnn_90_truck_10_n03417042_5228.png,n03417042_5228.png,0.0,-6.68137,-0.7678439,-4.181494
alexnet_w1_mlp_simclrhn_probe1,1,72,NaN,airplane,airplane,0,0072_ps_dnn_0_airplane_10_n02690373_4294.png,n02690373_4294.png,1.0,8.330631,1.6919752,4.6942387
alexnet_w1_mlp_simclrhn_probe1,1,73,NaN,clock,chair,30,0073_ps_dnn_30_chair_10_n04099969_52474.png,n04099969_52474.png,0.0,-2.4138436,-0.16502638,-1.5901539
alexnet_w1_mlp_simclrhn_probe1,1,74,NaN,oven,oven,30,0074_ps_dnn_30_oven_10_n04111531_21822.png,n04111531_21822.png,1.0,2.2262893,0.4844807,1.2316446
alexnet_w1_mlp_simclrhn_probe1,1,75,NaN,knife,oven,150,0075_ps_dnn_150_oven_10_n04111531_15735.png,n04111531_15735.png,0.0,-2.2598982,-1.7797768,-0.3394971
alexnet_w1_mlp_simclrhn_probe1,1,76,NaN,elephant,dog,120,0076_ps_dnn_120_dog_10_n02104029_7335.png,n02104029_7335.png,0.0,-1.9864724,-1.3847208,-0.42550263
alexnet_w1_mlp_simclrhn_probe1,1,77,NaN,bear,truck,150,0077_ps_dnn_150_truck_10_n03417042_17911.png,n03417042_17911.png,0.0,-12.529851,-1.9817519,-7.458633
alexnet_w1_mlp_simclrhn_probe1,1,78,NaN,bicycle,clock,30,0078_ps_dnn_30_clock_10_n02708093_899.png,n02708093_899.png,0.0,-4.0399337,-1.0638032,-2.1044421
alexnet_w1_mlp_simclrhn_probe1,1,79,NaN,boat,boat,60,0079_ps_dnn_60_boat_10_n03662601_9590.png,n03662601_9590.png,1.0,3.8450255,-2.1677065,4.2516437
alexnet_w1_mlp_simclrhn_probe1,1,80,NaN,bear,chair,90,0080_ps_dnn_90_chair_10_n02791124_6550.png,n02791124_6550.png,0.0,-8.140366,-0.90617657,-5.115344
alexnet_w1_mlp_simclrhn_probe1,1,81,NaN,knife,clock,180,0081_ps_dnn_180_clock_10_n03196217_4492.png,n03196217_4492.png,0.0,-3.4368355,-0.53221536,-2.0538766
alexnet_w1_mlp_simclrhn_probe1,1,82,NaN,car,car,30,0082_ps_dnn_30_car_10_n04285008_14128.png,n04285008_14128.png,1.0,8.804303,3.09653,4.036005
alexnet_w1_mlp_simclrhn_probe1,1,83,NaN,bicycle,bicycle,60,0083_ps_dnn_60_bicycle_10_n02835271_4730.png,n02835271_4730.png,1.0,1.0541139,-2.071879,2.2104108
alexnet_w1_mlp_simclrhn_probe1,1,84,NaN,elephant,elephant,0,0084_ps_dnn_0_elephant_10_n02504458_62.png,n02504458_62.png,1.0,16.099405,-2.1631033,12.913544
alexnet_w1_mlp_simclrhn_probe1,1,85,NaN,elephant,dog,120,0085_ps_dnn_120_dog_10_n02086646_8144.png,n02086646_8144.png,0.0,-3.269885,-0.27692825,-2.1163402
alexnet_w1_mlp_simclrhn_probe1,1,86,NaN,knife,knife,60,0086_ps_dnn_60_knife_10_n03041632_1671.png,n03041632_1671.png,1.0,-2.659676,-5.114451,1.735788
alexnet_w1_mlp_simclrhn_probe1,1,87,NaN,bear,bird,180,0087_ps_dnn_180_bird_10_n01534433_10801.png,n01534433_10801.png,0.0,-4.1002283,-1.1310353,-2.0995364
alexnet_w1_mlp_simclrhn_probe1,1,88,NaN,bear,keyboard,150,0088_ps_dnn_150_keyboard_10_n03085013_20570.png,n03085013_20570.png,0.0,-8.921076,-2.1051435,-4.819592
alexnet_w1_mlp_simclrhn_probe1,1,89,NaN,knife,knife,150,0089_ps_dnn_150_knife_10_n03041632_4808.png,n03041632_4808.png,1.0,-1.7669394,-2.5767035,0.57258976
alexnet_w1_mlp_simclrhn_probe1,1,90,NaN,knife,keyboard,180,0090_ps_dnn_180_keyboard_10_n03085013_1808.png,n03085013_1808.png,0.0,-3.141912,-1.8077619,-0.94338655
alexnet_w1_mlp_simclrhn_probe1,1,91,NaN,bear,truck,120,0091_ps_dnn_120_truck_10_n03796401_4370.png,n03796401_4370.png,0.0,-8.920122,-1.7683299,-5.057081
alexnet_w1_mlp_simclrhn_probe1,1,92,NaN,airplane,airplane,60,0092_ps_dnn_60_airplane_10_n02690373_6314.png,n02690373_6314.png,1.0,3.7548177,-0.4217536,2.9532819
alexnet_w1_mlp_simclrhn_probe1,1,93,NaN,oven,oven,90,0093_ps_dnn_90_oven_10_n04111531_4879.png,n04111531_4879.png,1.0,-2.7260985,-3.3661137,0.45255905
alexnet_w1_mlp_simclrhn_probe1,1,94,NaN,knife,airplane,180,0094_ps_dnn_180_airplane_10_n02690373_4375.png,n02690373_4375.png,0.0,-6.6839247,-0.89728016,-4.0917754
alexnet_w1_mlp_simclrhn_probe1,1,95,NaN,bottle,bottle,60,0095_ps_dnn_60_bottle_10_n04557648_4133.png,n04557648_4133.png,1.0,-1.5602812,-2.0156658,0.32200554
alexnet_w1_mlp_simclrhn_probe1,1,96,NaN,elephant,bicycle,120,0096_ps_dnn_120_bicycle_10_n02835271_19213.png,n02835271_19213.png,0.0,-3.1105158,-1.834365,-0.9023749
alexnet_w1_mlp_simclrhn_probe1,1,97,NaN,bear,bear,150,0097_ps_dnn_150_bear_10_n02132136_10577.png,n02132136_10577.png,1.0,-1.3382374,-2.3424232,0.7100666
alexnet_w1_mlp_simclrhn_probe1,1,98,NaN,airplane,airplane,90,0098_ps_dnn_90_airplane_10_n02690373_3147.png,n02690373_3147.png,1.0,-0.03268603,-0.67724633,0.45577294
alexnet_w1_mlp_simclrhn_probe1,1,99,NaN,elephant,elephant,60,0099_ps_dnn_60_elephant_10_n02504013_10389.png,n02504013_10389.png,1.0,5.991886,1.6562073,3.065788
alexnet_w1_mlp_simclrhn_probe1,1,100,NaN,knife,chair,150,0100_ps_dnn_150_chair_10_n02791124_5685.png,n02791124_5685.png,0.0,-5.9646544,-2.2925391,-2.5965776
alexnet_w1_mlp_simclrhn_probe1,1,101,NaN,bear,bird,60,0101_ps_dnn_60_bird_10_n01817953_6333.png,n01817953_6333.png,0.0,-5.802794,-2.7096436,-2.1871877
alexnet_w1_mlp_simclrhn_probe1,1,102,NaN,knife,keyboard,90,0102_ps_dnn_90_keyboard_10_n03085013_20247.png,n03085013_20247.png,0.0,-4.6628885,-2.4735658,-1.548085
alexnet_w1_mlp_simclrhn_probe1,1,103,NaN,airplane,airplane,0,0103_ps_dnn_0_airplane_10_n02690373_5729.png,n02690373_5729.png,1.0,9.470322,-1.9279308,8.059782
alexnet_w1_mlp_simclrhn_probe1,1,104,NaN,bicycle,bicycle,90,0104_ps_dnn_90_bicycle_10_n03792782_55532.png,n03792782_55532.png,1.0,4.5763874,-4.76885,6.608081
alexnet_w1_mlp_simclrhn_probe1,1,105,NaN,bicycle,bicycle,0,0105_ps_dnn_0_bicycle_10_n02835271_8417.png,n02835271_8417.png,1.0,10.016816,-2.1588852,8.609521
alexnet_w1_mlp_simclrhn_probe1,1,106,NaN,oven,clock,60,0106_ps_dnn_60_clock_10_n03196217_599.png,n03196217_599.png,0.0,-2.2052023,-0.37004167,-1.2976546
alexnet_w1_mlp_simclrhn_probe1,1,107,NaN,airplane,airplane,0,0107_ps_dnn_0_airplane_10_n02690373_1952.png,n02690373_1952.png,1.0,4.1792703,-0.59373546,3.3750246
alexnet_w1_mlp_simclrhn_probe1,1,108,NaN,knife,bear,180,0108_ps_dnn_180_bear_10_n02134084_23061.png,n02134084_23061.png,0.0,-2.6160426,-2.1124327,-0.35610598
alexnet_w1_mlp_simclrhn_probe1,1,109,NaN,oven,bicycle,150,0109_ps_dnn_150_bicycle_10_n03792782_27445.png,n03792782_27445.png,0.0,-3.3807948,-1.8600382,-1.0753373
alexnet_w1_mlp_simclrhn_probe1,1,110,NaN,bottle,clock,30,0110_ps_dnn_30_clock_10_n03196217_6348.png,n03196217_6348.png,0.0,-3.4472501,-2.1859295,-0.8918884
alexnet_w1_mlp_simclrhn_probe1,1,111,NaN,elephant,bear,90,0111_ps_dnn_90_bear_10_n02132136_5778.png,n02132136_5778.png,0.0,0.07165894,0.53252655,-0.3258826
alexnet_w1_mlp_simclrhn_probe1,1,112,NaN,knife,boat,90,0112_ps_dnn_90_boat_10_n04273569_4772.png,n04273569_4772.png,0.0,-4.2540116,-1.1233013,-2.2137465
alexnet_w1_mlp_simclrhn_probe1,1,113,NaN,bear,oven,180,0113_ps_dnn_180_oven_10_n04111531_23830.png,n04111531_23830.png,0.0,-5.0917177,-4.25593,-0.5909912
alexnet_w1_mlp_simclrhn_probe1,1,114,NaN,cat,bird,150,0114_ps_dnn_150_bird_10_n01855032_1306.png,n01855032_1306.png,0.0,-3.0198653,-1.118832,-1.3442335
alexnet_w1_mlp_simclrhn_probe1,1,115,NaN,elephant,elephant,60,0115_ps_dnn_60_elephant_10_n02504013_8905.png,n02504013_8905.png,1.0,5.22596,1.8305788,2.400897
alexnet_w1_mlp_simclrhn_probe1,1,116,NaN,elephant,truck,60,0116_ps_dnn_60_truck_10_n04467665_30461.png,n04467665_30461.png,0.0,-3.7717633,-1.9785364,-1.268003
alexnet_w1_mlp_simclrhn_probe1,1,117,NaN,knife,knife,60,0117_ps_dnn_60_knife_10_n03041632_20662.png,n03041632_20662.png,1.0,-0.99921465,-1.4209183,0.29818955
alexnet_w1_mlp_simclrhn_probe1,1,118,NaN,bear,boat,180,0118_ps_dnn_180_boat_10_n03662601_15915.png,n03662601_15915.png,0.0,-7.581108,-2.544756,-3.5612388
alexnet_w1_mlp_simclrhn_probe1,1,119,NaN,elephant,boat,150,0119_ps_dnn_150_boat_10_n04273569_62.png,n04273569_62.png,0.0,-3.6618683,-2.0548625,-1.1363248
alexnet_w1_mlp_simclrhn_probe1,1,120,NaN,knife,bicycle,180,0120_ps_dnn_180_bicycle_10_n03792782_8080.png,n03792782_8080.png,0.0,-3.2592556,-1.7346599,-1.078052
alexnet_w1_mlp_simclrhn_probe1,1,121,NaN,bear,airplane,120,0121_ps_dnn_120_airplane_10_n02690373_10309.png,n02690373_10309.png,0.0,-6.325738,-1.6660044,-3.2949295
alexnet_w1_mlp_simclrhn_probe1,1,122,NaN,dog,dog,30,0122_ps_dnn_30_dog_10_n02093859_1001.png,n02093859_1001.png,1.0,-0.112238914,-1.5237509,0.99808973
alexnet_w1_mlp_simclrhn_probe1,1,123,NaN,oven,oven,0,0123_ps_dnn_0_oven_10_n04111531_15267.png,n04111531_15267.png,1.0,5.800086,-0.90021783,4.7378306
alexnet_w1_mlp_simclrhn_probe1,1,124,NaN,bear,cat,90,0124_ps_dnn_90_cat_10_n02124075_81.png,n02124075_81.png,0.0,-1.3899044,-0.42722538,-0.6807169
alexnet_w1_mlp_simclrhn_probe1,1,125,NaN,elephant,elephant,60,0125_ps_dnn_60_elephant_10_n02504013_7314.png,n02504013_7314.png,1.0,2.5298698,0.7003937,1.293635
alexnet_w1_mlp_simclrhn_probe1,1,126,NaN,knife,bottle,120,0126_ps_dnn_120_bottle_10_n03983396_3294.png,n03983396_3294.png,0.0,-3.6168225,-1.9215598,-1.1987318
alexnet_w1_mlp_simclrhn_probe1,1,127,NaN,cat,cat,60,0127_ps_dnn_60_cat_10_n02123159_3201.png,n02123159_3201.png,1.0,7.171561,-3.059345,7.2343426
alexnet_w1_mlp_simclrhn_probe1,1,128,NaN,bear,dog,90,0128_ps_dnn_90_dog_10_n02101388_11601.png,n02101388_11601.png,0.0,-1.5073928,-0.25565925,-0.8851093
alexnet_w1_mlp_simclrhn_probe1,1,129,NaN,cat,cat,30,0129_ps_dnn_30_cat_10_n02123597_4442.png,n02123597_4442.png,1.0,1.0146914,0.33563176,0.4801677
alexnet_w1_mlp_simclrhn_probe1,1,130,NaN,airplane,airplane,30,0130_ps_dnn_30_airplane_10_n02690373_1950.png,n02690373_1950.png,1.0,6.1270514,1.3742462,3.360741
alexnet_w1_mlp_simclrhn_probe1,1,131,NaN,cat,bird,120,0131_ps_dnn_120_bird_10_n01616318_4652.png,n01616318_4652.png,0.0,-5.653677,-0.57541,-3.590877
alexnet_w1_mlp_simclrhn_probe1,1,132,NaN,airplane,airplane,90,0132_ps_dnn_90_airplane_10_n02690373_17937.png,n02690373_17937.png,1.0,0.6730733,-1.0580121,1.2240622
alexnet_w1_mlp_simclrhn_probe1,1,133,NaN,clock,clock,30,0133_ps_dnn_30_clock_10_n02708093_1125.png,n02708093_1125.png,1.0,2.9030533,-1.9562129,3.4360201
alexnet_w1_mlp_simclrhn_probe1,1,134,NaN,bear,elephant,150,0134_ps_dnn_150_elephant_10_n02504458_6499.png,n02504458_6499.png,0.0,-1.4528406,-0.6285205,-0.58288234
alexnet_w1_mlp_simclrhn_probe1,1,135,NaN,bicycle,clock,30,0135_ps_dnn_30_clock_10_n02708093_51.png,n02708093_51.png,0.0,-2.9913619,-1.8299917,-0.8212127
alexnet_w1_mlp_simclrhn_probe1,1,136,NaN,oven,bicycle,90,0136_ps_dnn_90_bicycle_10_n02835271_13180.png,n02835271_13180.png,0.0,-4.210204,0.13150308,-3.0700507
alexnet_w1_mlp_simclrhn_probe1,1,137,NaN,elephant,cat,120,0137_ps_dnn_120_cat_10_n02123597_7297.png,n02123597_7297.png,0.0,-2.6488893,-0.2763013,-1.677673
alexnet_w1_mlp_simclrhn_probe1,1,138,NaN,oven,clock,30,0138_ps_dnn_30_clock_10_n04548280_1109.png,n04548280_1109.png,0.0,-5.354195,-1.0910492,-3.0144994
alexnet_w1_mlp_simclrhn_probe1,1,139,NaN,clock,clock,60,0139_ps_dnn_60_clock_10_n04548280_1304.png,n04548280_1304.png,1.0,-1.8102092,-4.892548,2.1795428
alexnet_w1_mlp_simclrhn_probe1,1,140,NaN,knife,bird,180,0140_ps_dnn_180_bird_10_n01833805_8179.png,n01833805_8179.png,0.0,-2.969148,-1.3092911,-1.173696
alexnet_w1_mlp_simclrhn_probe1,1,141,NaN,bottle,bottle,60,0141_ps_dnn_60_bottle_10_n03983396_24525.png,n03983396_24525.png,1.0,0.8169789,-3.1571107,2.8101058
alexnet_w1_mlp_simclrhn_probe1,1,142,NaN,bear,elephant,120,0142_ps_dnn_120_elephant_10_n02504013_5945.png,n02504013_5945.png,0.0,-2.8271217,-1.8026195,-0.7244325
alexnet_w1_mlp_simclrhn_probe1,1,143,NaN,oven,airplane,120,0143_ps_dnn_120_airplane_10_n02690373_13610.png,n02690373_13610.png,0.0,-7.786515,-0.9316234,-4.8471403
alexnet_w1_mlp_simclrhn_probe1,1,144,NaN,elephant,knife,90,0144_ps_dnn_90_knife_10_n03041632_21859.png,n03041632_21859.png,0.0,-2.1623273,-0.9595778,-0.85047233
alexnet_w1_mlp_simclrhn_probe1,1,145,NaN,cat,cat,60,0145_ps_dnn_60_cat_10_n02123045_568.png,n02123045_568.png,1.0,0.8438051,0.044609923,0.56511635
alexnet_w1_mlp_simclrhn_probe1,1,146,NaN,knife,clock,180,0146_ps_dnn_180_clock_10_n02708093_960.png,n02708093_960.png,0.0,-4.0266285,-2.4533026,-1.1125094
alexnet_w1_mlp_simclrhn_probe1,1,147,NaN,bear,bicycle,120,0147_ps_dnn_120_bicycle_10_n02835271_9669.png,n02835271_9669.png,0.0,-1.8863946,-1.3803366,-0.35783702
alexnet_w1_mlp_simclrhn_probe1,1,148,NaN,cat,cat,60,0148_ps_dnn_60_cat_10_n02123597_14647.png,n02123597_14647.png,1.0,0.63217187,0.10921154,0.3697888
alexnet_w1_mlp_simclrhn_probe1,1,149,NaN,bicycle,bicycle,0,0149_ps_dnn_0_bicycle_10_n02835271_7794.png,n02835271_7794.png,1.0,4.8221316,-3.3066654,5.747928
alexnet_w1_mlp_simclrhn_probe1,1,150,NaN,bird,bird,0,0150_ps_dnn_0_bird_10_n02011460_5925.png,n02011460_5925.png,1.0,-2.015337,-2.8305423,0.57643723
alexnet_w1_mlp_simclrhn_probe1,1,151,NaN,oven,oven,90,0151_ps_dnn_90_oven_10_n04111531_8852.png,n04111531_8852.png,1.0,-0.80177385,-1.6106117,0.5719347
alexnet_w1_mlp_simclrhn_probe1,1,152,NaN,oven,knife,90,0152_ps_dnn_90_knife_10_n03041632_84086.png,n03041632_84086.png,0.0,-4.3364687,1.5851288,-4.187202
alexnet_w1_mlp_simclrhn_probe1,1,153,NaN,car,car,60,0153_ps_dnn_60_car_10_n03100240_13602.png,n03100240_13602.png,1.0,7.730843,2.2673283,3.8632884
alexnet_w1_mlp_simclrhn_probe1,1,154,NaN,bear,dog,180,0154_ps_dnn_180_dog_10_n02106662_43958.png,n02106662_43958.png,0.0,-4.373413,-2.117453,-1.5952046
alexnet_w1_mlp_simclrhn_probe1,1,155,NaN,knife,chair,30,0155_ps_dnn_30_chair_10_n02791124_1292.png,n02791124_1292.png,0.0,-2.0739388,-0.8513801,-0.8644796
alexnet_w1_mlp_simclrhn_probe1,1,156,NaN,bear,dog,90,0156_ps_dnn_90_dog_10_n02085782_4522.png,n02085782_4522.png,0.0,-2.2501545,1.6199458,-2.7365742
alexnet_w1_mlp_simclrhn_probe1,1,157,NaN,bear,bear,60,0157_ps_dnn_60_bear_10_n02132136_686.png,n02132136_686.png,1.0,4.108658,1.5956935,1.7769341
alexnet_w1_mlp_simclrhn_probe1,1,158,NaN,bear,bird,120,0158_ps_dnn_120_bird_10_n01796340_12914.png,n01796340_12914.png,0.0,-2.9079762,-1.1291828,-1.2577969
alexnet_w1_mlp_simclrhn_probe1,1,159,NaN,knife,knife,60,0159_ps_dnn_60_knife_10_n03041632_24060.png,n03041632_24060.png,1.0,0.8638885,0.368182,0.35051742
alexnet_w1_mlp_simclrhn_probe1,1,160,NaN,knife,bottle,180,0160_ps_dnn_180_bottle_10_n03983396_4775.png,n03983396_4775.png,0.0,-2.4030476,-1.1672773,-0.8738215
alexnet_w1_mlp_simclrhn_probe1,1,161,NaN,knife,keyboard,120,0161_ps_dnn_120_keyboard_10_n04505470_1516.png,n04505470_1516.png,0.0,-3.779087,-2.386632,-0.98461443
alexnet_w1_mlp_simclrhn_probe1,1,162,NaN,knife,boat,150,0162_ps_dnn_150_boat_10_n03344393_4944.png,n03344393_4944.png,0.0,-5.2808847,-1.3070543,-2.8099225
alexnet_w1_mlp_simclrhn_probe1,1,163,NaN,knife,cat,150,0163_ps_dnn_150_cat_10_n02123159_3524.png,n02123159_3524.png,0.0,-4.304068,-1.2163429,-2.1833515
alexnet_w1_mlp_simclrhn_probe1,1,164,NaN,airplane,truck,60,0164_ps_dnn_60_truck_10_n04467665_50648.png,n04467665_50648.png,0.0,-1.8652675,0.06852221,-1.3673959
alexnet_w1_mlp_simclrhn_probe1,1,165,NaN,dog,dog,0,0165_ps_dnn_0_dog_10_n02107574_1277.png,n02107574_1277.png,1.0,-2.029816,-2.9685917,0.6638147
alexnet_w1_mlp_simclrhn_probe1,1,166,NaN,oven,oven,60,0166_ps_dnn_60_oven_10_n04111531_21980.png,n04111531_21980.png,1.0,4.2642555,-1.6756393,4.20014
alexnet_w1_mlp_simclrhn_probe1,1,167,NaN,bear,boat,120,0167_ps_dnn_120_boat_10_n03344393_11315.png,n03344393_11315.png,0.0,-5.729318,-2.6362453,-2.1871328
alexnet_w1_mlp_simclrhn_probe1,1,168,NaN,oven,knife,90,0168_ps_dnn_90_knife_10_n03041632_32896.png,n03041632_32896.png,0.0,-1.2489419,0.059851497,-0.9254567
alexnet_w1_mlp_simclrhn_probe1,1,169,NaN,bottle,bottle,30,0169_ps_dnn_30_bottle_10_n03937543_3133.png,n03937543_3133.png,1.0,-1.0650085,-1.3837765,0.22540304
alexnet_w1_mlp_simclrhn_probe1,1,170,NaN,knife,car,180,0170_ps_dnn_180_car_10_n04285008_15213.png,n04285008_15213.png,0.0,-11.970612,-2.3877575,-6.7761016
alexnet_w1_mlp_simclrhn_probe1,1,171,NaN,oven,elephant,90,0171_ps_dnn_90_elephant_10_n02504013_3081.png,n02504013_3081.png,0.0,-0.4379239,-0.1768747,-0.18458967
alexnet_w1_mlp_simclrhn_probe1,1,172,NaN,cat,cat,60,0172_ps_dnn_60_cat_10_n02123159_6873.png,n02123159_6873.png,1.0,0.5580087,-2.676575,2.2871962
alexnet_w1_mlp_simclrhn_probe1,1,173,NaN,bottle,bottle,60,0173_ps_dnn_60_bottle_10_n04579145_4385.png,n04579145_4385.png,1.0,4.8003836,-3.552042,5.906057
alexnet_w1_mlp_simclrhn_probe1,1,174,NaN,bear,bear,60,0174_ps_dnn_60_bear_10_n02134418_2185.png,n02134418_2185.png,1.0,1.7150195,-1.2767351,2.11549
alexnet_w1_mlp_simclrhn_probe1,1,175,NaN,bear,chair,150,0175_ps_dnn_150_chair_10_n04429376_16002.png,n04429376_16002.png,0.0,-6.467665,-2.3227456,-2.9309006
alexnet_w1_mlp_simclrhn_probe1,1,176,NaN,oven,car,60,0176_ps_dnn_60_car_10_n03100240_8107.png,n03100240_8107.png,0.0,-0.86690634,-0.061027408,-0.56984246
alexnet_w1_mlp_simclrhn_probe1,1,177,NaN,boat,boat,60,0177_ps_dnn_60_boat_10_n04273569_15906.png,n04273569_15906.png,1.0,-0.8231572,-2.5132596,1.1950829
alexnet_w1_mlp_simclrhn_probe1,1,178,NaN,elephant,car,150,0178_ps_dnn_150_car_10_n02814533_85659.png,n02814533_85659.png,0.0,-8.311011,-2.272841,-4.2696314
alexnet_w1_mlp_simclrhn_probe1,1,179,NaN,knife,car,150,0179_ps_dnn_150_car_10_n02814533_87140.png,n02814533_87140.png,0.0,-14.60136,-3.400232,-7.920394
alexnet_w1_mlp_simclrhn_probe1,1,180,NaN,keyboard,keyboard,30,0180_ps_dnn_30_keyboard_10_n03085013_7520.png,n03085013_7520.png,1.0,4.20448,-0.6568897,3.4375079
alexnet_w1_mlp_simclrhn_probe1,1,181,NaN,bear,dog,90,0181_ps_dnn_90_dog_10_n02112018_10082.png,n02112018_10082.png,0.0,-1.1952089,1.8919652,-2.1829617
alexnet_w1_mlp_simclrhn_probe1,1,182,NaN,bear,bear,90,0182_ps_dnn_90_bear_10_n02134084_5733.png,n02134084_5733.png,1.0,0.4195547,-0.7415799,0.8210462
alexnet_w1_mlp_simclrhn_probe1,1,183,NaN,bear,cat,90,0183_ps_dnn_90_cat_10_n02123597_3821.png,n02123597_3821.png,0.0,-2.7053547,-0.0023164004,-1.9113367
alexnet_w1_mlp_simclrhn_probe1,1,184,NaN,knife,boat,120,0184_ps_dnn_120_boat_10_n04612504_15256.png,n04612504_15256.png,0.0,-7.6414657,-2.121544,-3.9031742
alexnet_w1_mlp_simclrhn_probe1,1,185,NaN,elephant,car,90,0185_ps_dnn_90_car_10_n02814533_84296.png,n02814533_84296.png,0.0,-6.2463117,-1.2792268,-3.5122595
alexnet_w1_mlp_simclrhn_probe1,1,186,NaN,bear,clock,120,0186_ps_dnn_120_clock_10_n04548280_5295.png,n04548280_5295.png,0.0,-4.6093006,-1.3184971,-2.3269494
alexnet_w1_mlp_simclrhn_probe1,1,187,NaN,airplane,airplane,30,0187_ps_dnn_30_airplane_10_n02690373_11799.png,n02690373_11799.png,1.0,8.140123,-1.8064634,7.033299
alexnet_w1_mlp_simclrhn_probe1,1,188,NaN,elephant,dog,120,0188_ps_dnn_120_dog_10_n02092002_9876.png,n02092002_9876.png,0.0,-4.621541,-1.4710923,-2.2277038
alexnet_w1_mlp_simclrhn_probe1,1,189,NaN,chair,chair,0,0189_ps_dnn_0_chair_10_n02791124_16885.png,n02791124_16885.png,1.0,-0.47043133,-1.4658314,0.70385414
alexnet_w1_mlp_simclrhn_probe1,1,190,NaN,bicycle,airplane,60,0190_ps_dnn_60_airplane_10_n02690373_9376.png,n02690373_9376.png,0.0,-2.2446811,-0.48720652,-1.2427223
alexnet_w1_mlp_simclrhn_probe1,1,191,NaN,knife,oven,180,0191_ps_dnn_180_oven_10_n04111531_6474.png,n04111531_6474.png,0.0,-3.430916,-1.7808613,-1.166765
alexnet_w1_mlp_simclrhn_probe1,1,192,NaN,knife,knife,180,0192_ps_dnn_180_knife_10_n03041632_44230.png,n03041632_44230.png,1.0,-2.1688046,-2.3416238,0.122201584
alexnet_w1_mlp_simclrhn_probe1,1,193,NaN,knife,dog,180,0193_ps_dnn_180_dog_10_n02099601_6318.png,n02099601_6318.png,0.0,-3.6825428,-1.7972183,-1.3331257
alexnet_w1_mlp_simclrhn_probe1,1,194,NaN,bear,cat,150,0194_ps_dnn_150_cat_10_n02125311_20241.png,n02125311_20241.png,0.0,-2.629442,-1.6550624,-0.6889904
alexnet_w1_mlp_simclrhn_probe1,1,195,NaN,bear,truck,120,0195_ps_dnn_120_truck_10_n04467665_51397.png,n04467665_51397.png,0.0,-10.249466,-2.427463,-5.5309916
alexnet_w1_mlp_simclrhn_probe1,1,196,NaN,dog,dog,0,0196_ps_dnn_0_dog_10_n02104365_1500.png,n02104365_1500.png,1.0,0.03275952,-3.4662333,2.4741614
alexnet_w1_mlp_simclrhn_probe1,1,197,NaN,knife,knife,90,0197_ps_dnn_90_knife_10_n03041632_3171.png,n03041632_3171.png,1.0,0.13742478,-2.6699038,1.9850811
alexnet_w1_mlp_simclrhn_probe1,1,198,NaN,oven,oven,60,0198_ps_dnn_60_oven_10_n04111531_249.png,n04111531_249.png,1.0,3.6372023,-1.3887581,3.5538907
alexnet_w1_mlp_simclrhn_probe1,1,199,NaN,bear,bear,90,0199_ps_dnn_90_bear_10_n02133161_8856.png,n02133161_8856.png,1.0,-1.6233205,-1.6569579,0.023785237
alexnet_w1_mlp_simclrhn_probe1,1,200,NaN,cat,cat,0,0200_ps_dnn_0_cat_10_n02123045_13354.png,n02123045_13354.png,1.0,13.098656,-7.7389393,14.734405
alexnet_w1_mlp_simclrhn_probe1,1,201,NaN,keyboard,keyboard,120,0201_ps_dnn_120_keyboard_10_n03085013_23267.png,n03085013_23267.png,1.0,-1.040281,-1.0602438,0.0141158225
alexnet_w1_mlp_simclrhn_probe1,1,202,NaN,truck,truck,30,0202_ps_dnn_30_truck_10_n03796401_22643.png,n03796401_22643.png,1.0,1.5008959,0.35002607,0.8137879
alexnet_w1_mlp_simclrhn_probe1,1,203,NaN,knife,elephant,180,0203_ps_dnn_180_elephant_10_n02504458_4572.png,n02504458_4572.png,0.0,-1.3800572,-0.7508607,-0.44490913
alexnet_w1_mlp_simclrhn_probe1,1,204,NaN,bear,truck,180,0204_ps_dnn_180_truck_10_n04467665_23173.png,n04467665_23173.png,0.0,-7.397888,-1.2872173,-4.320897
alexnet_w1_mlp_simclrhn_probe1,1,205,NaN,bear,bear,180,0205_ps_dnn_180_bear_10_n02134418_25040.png,n02134418_25040.png,1.0,-1.6567318,-1.7148908,0.04112462
alexnet_w1_mlp_simclrhn_probe1,1,206,NaN,bicycle,bicycle,60,0206_ps_dnn_60_bicycle_10_n02835271_21185.png,n02835271_21185.png,1.0,2.646013,-3.1150484,4.0736856
alexnet_w1_mlp_simclrhn_probe1,1,207,NaN,knife,boat,30,0207_ps_dnn_30_boat_10_n02951358_12664.png,n02951358_12664.png,0.0,-3.1150668,-1.0149251,-1.4850243
alexnet_w1_mlp_simclrhn_probe1,1,208,NaN,bottle,bottle,30,0208_ps_dnn_30_bottle_10_n03983396_11519.png,n03983396_11519.png,1.0,5.2071486,-2.3908916,5.372626
alexnet_w1_mlp_simclrhn_probe1,1,209,NaN,knife,knife,120,0209_ps_dnn_120_knife_10_n03041632_36280.png,n03041632_36280.png,1.0,-0.9893497,-2.3868232,0.988163
alexnet_w1_mlp_simclrhn_probe1,1,210,NaN,elephant,truck,60,0210_ps_dnn_60_truck_10_n04467665_67115.png,n04467665_67115.png,0.0,-3.5608666,-0.1313631,-2.4250252
alexnet_w1_mlp_simclrhn_probe1,1,211,NaN,bear,bear,30,0211_ps_dnn_30_bear_10_n02133161_1560.png,n02133161_1560.png,1.0,-0.28994673,-0.945703,0.46368974
alexnet_w1_mlp_simclrhn_probe1,1,212,NaN,knife,truck,180,0212_ps_dnn_180_truck_10_n03417042_6780.png,n03417042_6780.png,0.0,-8.943686,-1.4192088,-5.3206086
alexnet_w1_mlp_simclrhn_probe1,1,213,NaN,bear,bear,150,0213_ps_dnn_150_bear_10_n02134084_20261.png,n02134084_20261.png,1.0,-0.6881922,-0.9681076,0.19793008
alexnet_w1_mlp_simclrhn_probe1,1,214,NaN,knife,chair,180,0214_ps_dnn_180_chair_10_n03376595_8377.png,n03376595_8377.png,0.0,-8.905653,-3.050797,-4.1400084
alexnet_w1_mlp_simclrhn_probe1,1,215,NaN,bear,bird,180,0215_ps_dnn_180_bird_10_n01824575_3556.png,n01824575_3556.png,0.0,-3.014855,-1.6901743,-0.9366906
alexnet_w1_mlp_simclrhn_probe1,1,216,NaN,oven,chair,90,0216_ps_dnn_90_chair_10_n04099969_36004.png,n04099969_36004.png,0.0,-5.5727882,-3.4531682,-1.4987978
alexnet_w1_mlp_simclrhn_probe1,1,217,NaN,bicycle,bicycle,0,0217_ps_dnn_0_bicycle_10_n02835271_22549.png,n02835271_22549.png,1.0,12.852812,-0.58180076,9.499705
alexnet_w1_mlp_simclrhn_probe1,1,218,NaN,knife,clock,150,0218_ps_dnn_150_clock_10_n04548280_8535.png,n04548280_8535.png,0.0,-2.3319268,-1.4835472,-0.599895
alexnet_w1_mlp_simclrhn_probe1,1,219,NaN,bear,knife,120,0219_ps_dnn_120_knife_10_n03041632_14546.png,n03041632_14546.png,0.0,-4.441452,-1.1761844,-2.308893
alexnet_w1_mlp_simclrhn_probe1,1,220,NaN,keyboard,keyboard,0,0220_ps_dnn_0_keyboard_10_n04505470_4974.png,n04505470_4974.png,1.0,11.904679,0.3405683,8.177061
alexnet_w1_mlp_simclrhn_probe1,1,221,NaN,clock,clock,0,0221_ps_dnn_0_clock_10_n04548280_487.png,n04548280_487.png,1.0,4.4601483,-2.0014703,4.569054
alexnet_w1_mlp_simclrhn_probe1,1,222,NaN,truck,truck,30,0222_ps_dnn_30_truck_10_n03417042_10401.png,n03417042_10401.png,1.0,7.48118,2.548539,3.487904
alexnet_w1_mlp_simclrhn_probe1,1,223,NaN,knife,clock,180,0223_ps_dnn_180_clock_10_n03196217_6257.png,n03196217_6257.png,0.0,-5.571646,-2.480074,-2.1860719
alexnet_w1_mlp_simclrhn_probe1,1,224,NaN,bear,elephant,120,0224_ps_dnn_120_elephant_10_n02504458_1698.png,n02504458_1698.png,0.0,-1.2449231,-0.54375696,-0.49579936
alexnet_w1_mlp_simclrhn_probe1,1,225,NaN,cat,keyboard,180,0225_ps_dnn_180_keyboard_10_n03085013_23014.png,n03085013_23014.png,0.0,-4.6550283,-1.8124657,-2.0099955
alexnet_w1_mlp_simclrhn_probe1,1,226,NaN,cat,cat,60,0226_ps_dnn_60_cat_10_n02125311_17002.png,n02125311_17002.png,1.0,1.086825,0.43706018,0.45945314
alexnet_w1_mlp_simclrhn_probe1,1,227,NaN,bear,boat,180,0227_ps_dnn_180_boat_10_n03344393_5566.png,n03344393_5566.png,0.0,-3.811678,-1.1939396,-1.8510205
alexnet_w1_mlp_simclrhn_probe1,1,228,NaN,knife,bicycle,150,0228_ps_dnn_150_bicycle_10_n02835271_4887.png,n02835271_4887.png,0.0,-7.6930237,-2.7443404,-3.4992476
alexnet_w1_mlp_simclrhn_probe1,1,229,NaN,oven,keyboard,120,0229_ps_dnn_120_keyboard_10_n04505470_8386.png,n04505470_8386.png,0.0,-6.9976416,-0.60643524,-4.519265
alexnet_w1_mlp_simclrhn_probe1,1,230,NaN,bear,bear,120,0230_ps_dnn_120_bear_10_n02133161_361.png,n02133161_361.png,1.0,-0.005199522,-0.48077512,0.33628273
alexnet_w1_mlp_simclrhn_probe1,1,231,NaN,oven,bottle,0,0231_ps_dnn_0_bottle_10_n04560804_2165.png,n04560804_2165.png,0.0,-3.06088,-1.5705003,-1.0538576
alexnet_w1_mlp_simclrhn_probe1,1,232,NaN,knife,cat,150,0232_ps_dnn_150_cat_10_n02124075_14020.png,n02124075_14020.png,0.0,-2.5475678,-0.55467784,-1.409186
alexnet_w1_mlp_simclrhn_probe1,1,233,NaN,knife,clock,150,0233_ps_dnn_150_clock_10_n04548280_3301.png,n04548280_3301.png,0.0,-4.3632817,-3.3191738,-0.7382958
alexnet_w1_mlp_simclrhn_probe1,1,234,NaN,bear,knife,180,0234_ps_dnn_180_knife_10_n03041632_5820.png,n03041632_5820.png,0.0,-3.183076,-1.7626065,-1.0044236
alexnet_w1_mlp_simclrhn_probe1,1,235,NaN,oven,oven,120,0235_ps_dnn_120_oven_10_n04111531_2922.png,n04111531_2922.png,1.0,-2.7616763,-2.8759658,0.0808149
alexnet_w1_mlp_simclrhn_probe1,1,236,NaN,bear,bear,120,0236_ps_dnn_120_bear_10_n02134084_7441.png,n02134084_7441.png,1.0,-0.8260872,-1.3498305,0.37034246
alexnet_w1_mlp_simclrhn_probe1,1,237,NaN,knife,airplane,150,0237_ps_dnn_150_airplane_10_n02690373_8252.png,n02690373_8252.png,0.0,-6.322551,-0.89086604,-3.840781
alexnet_w1_mlp_simclrhn_probe1,1,238,NaN,knife,bird,150,0238_ps_dnn_150_bird_10_n02018207_69.png,n02018207_69.png,0.0,-4.2735176,-2.8269615,-1.0228696
alexnet_w1_mlp_simclrhn_probe1,1,239,NaN,bird,bird,30,0239_ps_dnn_30_bird_10_n01798484_5355.png,n01798484_5355.png,1.0,-0.8103254,-1.5708711,0.5377871
alexnet_w1_mlp_simclrhn_probe1,1,240,NaN,knife,keyboard,150,0240_ps_dnn_150_keyboard_10_n03085013_4999.png,n03085013_4999.png,0.0,-4.5796695,-2.4942248,-1.4746321
alexnet_w1_mlp_simclrhn_probe1,1,241,NaN,bear,dog,120,0241_ps_dnn_120_dog_10_n02111500_3041.png,n02111500_3041.png,0.0,-3.5137544,-0.96313524,-1.8035601
alexnet_w1_mlp_simclrhn_probe1,1,242,NaN,boat,boat,0,0242_ps_dnn_0_boat_10_n04612504_15237.png,n04612504_15237.png,1.0,5.392001,-3.5020123,6.289017
alexnet_w1_mlp_simclrhn_probe1,1,243,NaN,knife,truck,150,0243_ps_dnn_150_truck_10_n03417042_6480.png,n03417042_6480.png,0.0,-9.232701,-2.362531,-4.8579445
alexnet_w1_mlp_simclrhn_probe1,1,244,NaN,elephant,airplane,180,0244_ps_dnn_180_airplane_10_n02690373_8382.png,n02690373_8382.png,0.0,-7.46681,-1.8429985,-3.9766355
alexnet_w1_mlp_simclrhn_probe1,1,245,NaN,oven,bottle,120,0245_ps_dnn_120_bottle_10_n04591713_2345.png,n04591713_2345.png,0.0,-3.6413612,-0.32174724,-2.3473215
alexnet_w1_mlp_simclrhn_probe1,1,246,NaN,elephant,elephant,60,0246_ps_dnn_60_elephant_10_n02504458_9516.png,n02504458_9516.png,1.0,3.9447203,0.29746974,2.5789957
alexnet_w1_mlp_simclrhn_probe1,1,247,NaN,knife,elephant,180,0247_ps_dnn_180_elephant_10_n02504013_698.png,n02504013_698.png,0.0,-3.271059,-2.3576088,-0.64590687
alexnet_w1_mlp_simclrhn_probe1,1,248,NaN,bear,bear,0,0248_ps_dnn_0_bear_10_n02133161_5292.png,n02133161_5292.png,1.0,7.293864,0.4457792,4.842327
alexnet_w1_mlp_simclrhn_probe1,1,249,NaN,bicycle,boat,90,0249_ps_dnn_90_boat_10_n02951358_14341.png,n02951358_14341.png,0.0,-2.4804,-0.6317165,-1.3072168
alexnet_w1_mlp_simclrhn_probe1,1,250,NaN,elephant,bear,120,0250_ps_dnn_120_bear_10_n02133161_2304.png,n02133161_2304.png,0.0,-0.9979662,-0.87372005,-0.08785528
alexnet_w1_mlp_simclrhn_probe1,1,251,NaN,knife,airplane,150,0251_ps_dnn_150_airplane_10_n02690373_1751.png,n02690373_1751.png,0.0,-8.3426075,-1.6421556,-4.737935
alexnet_w1_mlp_simclrhn_probe1,1,252,NaN,knife,truck,150,0252_ps_dnn_150_truck_10_n04467665_48953.png,n04467665_48953.png,0.0,-7.9868813,-1.563268,-4.542181
alexnet_w1_mlp_simclrhn_probe1,1,253,NaN,oven,oven,0,0253_ps_dnn_0_oven_10_n04111531_10077.png,n04111531_10077.png,1.0,7.817649,-1.7096297,6.7368035
alexnet_w1_mlp_simclrhn_probe1,1,254,NaN,knife,dog,150,0254_ps_dnn_150_dog_10_n02097209_821.png,n02097209_821.png,0.0,-4.4641614,-1.8731897,-1.8320937
alexnet_w1_mlp_simclrhn_probe1,1,255,NaN,truck,truck,0,0255_ps_dnn_0_truck_10_n04467665_13231.png,n04467665_13231.png,1.0,1.2178537,-0.7076302,1.3615228
alexnet_w1_mlp_simclrhn_probe1,1,256,NaN,bear,dog,90,0256_ps_dnn_90_dog_10_n02107908_3447.png,n02107908_3447.png,0.0,-2.5010605,-1.0787337,-1.005737
alexnet_w1_mlp_simclrhn_probe1,1,257,NaN,knife,elephant,180,0257_ps_dnn_180_elephant_10_n02504013_5021.png,n02504013_5021.png,0.0,-2.5035577,-1.4175574,-0.7679182
alexnet_w1_mlp_simclrhn_probe1,1,258,NaN,knife,knife,90,0258_ps_dnn_90_knife_10_n03041632_12242.png,n03041632_12242.png,1.0,-1.9053197,-1.9547961,0.034985088
alexnet_w1_mlp_simclrhn_probe1,1,259,NaN,knife,keyboard,150,0259_ps_dnn_150_keyboard_10_n03085013_22821.png,n03085013_22821.png,0.0,-5.771312,-1.362186,-3.1177232
alexnet_w1_mlp_simclrhn_probe1,1,260,NaN,knife,cat,150,0260_ps_dnn_150_cat_10_n02124075_2080.png,n02124075_2080.png,0.0,-3.4607801,-1.5215969,-1.3712096
alexnet_w1_mlp_simclrhn_probe1,1,261,NaN,bear,bicycle,180,0261_ps_dnn_180_bicycle_10_n02835271_7296.png,n02835271_7296.png,0.0,-3.1627183,-1.5510135,-1.1396475
alexnet_w1_mlp_simclrhn_probe1,1,262,NaN,knife,boat,180,0262_ps_dnn_180_boat_10_n04612504_4302.png,n04612504_4302.png,0.0,-4.8735437,-1.8116384,-2.1650941
alexnet_w1_mlp_simclrhn_probe1,1,263,NaN,elephant,clock,150,0263_ps_dnn_150_clock_10_n04548280_4524.png,n04548280_4524.png,0.0,-4.41077,-0.08240384,-3.0606172
alexnet_w1_mlp_simclrhn_probe1,1,264,NaN,bear,knife,150,0264_ps_dnn_150_knife_10_n03041632_19275.png,n03041632_19275.png,0.0,-2.8287466,-2.5137398,-0.2227434
alexnet_w1_mlp_simclrhn_probe1,1,265,NaN,bird,bird,30,0265_ps_dnn_30_bird_10_n01796340_2973.png,n01796340_2973.png,1.0,1.1564295,-2.7421622,2.7567208
alexnet_w1_mlp_simclrhn_probe1,1,266,NaN,oven,chair,90,0266_ps_dnn_90_chair_10_n02791124_15407.png,n02791124_15407.png,0.0,-5.3375263,0.84954894,-4.3749228
alexnet_w1_mlp_simclrhn_probe1,1,267,NaN,dog,dog,30,0267_ps_dnn_30_dog_10_n02109525_72594.png,n02109525_72594.png,1.0,0.64892286,-2.649119,2.3320677
alexnet_w1_mlp_simclrhn_probe1,1,268,NaN,bear,knife,150,0268_ps_dnn_150_knife_10_n03041632_19614.png,n03041632_19614.png,0.0,-1.5621669,-1.3247061,-0.16791019
alexnet_w1_mlp_simclrhn_probe1,1,269,NaN,keyboard,keyboard,30,0269_ps_dnn_30_keyboard_10_n04505470_5111.png,n04505470_5111.png,1.0,8.130329,1.122156,4.955527
alexnet_w1_mlp_simclrhn_probe1,1,270,NaN,bicycle,bicycle,30,0270_ps_dnn_30_bicycle_10_n03792782_8374.png,n03792782_8374.png,1.0,6.6989765,-5.4661136,8.602018
alexnet_w1_mlp_simclrhn_probe1,1,271,NaN,elephant,boat,120,0271_ps_dnn_120_boat_10_n04612504_2024.png,n04612504_2024.png,0.0,-6.1048474,-1.1100875,-3.5318286
alexnet_w1_mlp_simclrhn_probe1,1,272,NaN,bicycle,bicycle,30,0272_ps_dnn_30_bicycle_10_n02835271_9860.png,n02835271_9860.png,1.0,2.9242935,-1.2919501,2.9813347
alexnet_w1_mlp_simclrhn_probe1,1,273,NaN,bear,bear,60,0273_ps_dnn_60_bear_10_n02134084_21921.png,n02134084_21921.png,1.0,2.718357,2.354755,0.25710556
alexnet_w1_mlp_simclrhn_probe1,1,274,NaN,bear,bear,90,0274_ps_dnn_90_bear_10_n02134418_836.png,n02134418_836.png,1.0,0.2422444,-0.9070183,0.81265146
alexnet_w1_mlp_simclrhn_probe1,1,275,NaN,oven,chair,60,0275_ps_dnn_60_chair_10_n04429376_6141.png,n04429376_6141.png,0.0,-3.9601703,-0.28207457,-2.6008065
alexnet_w1_mlp_simclrhn_probe1,1,276,NaN,truck,truck,30,0276_ps_dnn_30_truck_10_n04467665_6523.png,n04467665_6523.png,1.0,1.7715007,-0.51717484,1.618338
alexnet_w1_mlp_simclrhn_probe1,1,277,NaN,oven,chair,90,0277_ps_dnn_90_chair_10_n04429376_41755.png,n04429376_41755.png,0.0,-3.6666772,-2.9631171,-0.49749213
alexnet_w1_mlp_simclrhn_probe1,1,278,NaN,knife,bottle,180,0278_ps_dnn_180_bottle_10_n04579145_3302.png,n04579145_3302.png,0.0,-2.952103,-0.6476691,-1.6294808
alexnet_w1_mlp_simclrhn_probe1,1,279,NaN,cat,cat,0,0279_ps_dnn_0_cat_10_n02123045_12297.png,n02123045_12297.png,1.0,5.0675006,-5.163077,7.234111
alexnet_w1_mlp_simclrhn_probe1,1,280,NaN,clock,clock,60,0280_ps_dnn_60_clock_10_n04548280_5734.png,n04548280_5734.png,1.0,-1.5603999,-1.7788818,0.15449004
alexnet_w1_mlp_simclrhn_probe1,1,281,NaN,oven,elephant,90,0281_ps_dnn_90_elephant_10_n02504013_3640.png,n02504013_3640.png,0.0,-2.1672554,-1.2594544,-0.6419123
alexnet_w1_mlp_simclrhn_probe1,1,282,NaN,knife,car,0,0282_ps_dnn_0_car_10_n03100240_2108.png,n03100240_2108.png,0.0,-5.9200196,-2.0130157,-2.762669
alexnet_w1_mlp_simclrhn_probe1,1,283,NaN,elephant,car,90,0283_ps_dnn_90_car_10_n02814533_8499.png,n02814533_8499.png,0.0,-9.451797,-1.0823541,-5.9180894
alexnet_w1_mlp_simclrhn_probe1,1,284,NaN,bear,knife,180,0284_ps_dnn_180_knife_10_n03041632_9406.png,n03041632_9406.png,0.0,-3.915327,-3.0868695,-0.585808
alexnet_w1_mlp_simclrhn_probe1,1,285,NaN,clock,clock,120,0285_ps_dnn_120_clock_10_n04548280_3968.png,n04548280_3968.png,1.0,-2.1472487,-2.6907706,0.384328
alexnet_w1_mlp_simclrhn_probe1,1,286,NaN,bear,boat,120,0286_ps_dnn_120_boat_10_n04273569_20587.png,n04273569_20587.png,0.0,-3.4287286,-2.326993,-0.77904475
alexnet_w1_mlp_simclrhn_probe1,1,287,NaN,bear,truck,150,0287_ps_dnn_150_truck_10_n03796401_7261.png,n03796401_7261.png,0.0,-7.559436,-1.6650548,-4.167957
alexnet_w1_mlp_simclrhn_probe1,1,288,NaN,bear,boat,90,0288_ps_dnn_90_boat_10_n04273569_18037.png,n04273569_18037.png,0.0,-2.4900692,-0.041402638,-1.7314688
alexnet_w1_mlp_simclrhn_probe1,1,289,NaN,knife,bicycle,180,0289_ps_dnn_180_bicycle_10_n02835271_4789.png,n02835271_4789.png,0.0,-3.9032588,-2.0003364,-1.3455694
alexnet_w1_mlp_simclrhn_probe1,1,290,NaN,oven,chair,90,0290_ps_dnn_90_chair_10_n04099969_18380.png,n04099969_18380.png,0.0,-6.59925,-1.9279552,-3.3031042
alexnet_w1_mlp_simclrhn_probe1,1,291,NaN,bear,dog,120,0291_ps_dnn_120_dog_10_n02100583_13688.png,n02100583_13688.png,0.0,-6.8327227,-2.151824,-3.3098953
alexnet_w1_mlp_simclrhn_probe1,1,292,NaN,knife,boat,180,0292_ps_dnn_180_boat_10_n03662601_8065.png,n03662601_8065.png,0.0,-4.8832664,-1.687811,-2.2595284
alexnet_w1_mlp_simclrhn_probe1,1,293,NaN,boat,boat,0,0293_ps_dnn_0_boat_10_n02951358_15218.png,n02951358_15218.png,1.0,4.1332016,-2.125239,4.425386
alexnet_w1_mlp_simclrhn_probe1,1,294,NaN,bear,knife,180,0294_ps_dnn_180_knife_10_n03041632_24277.png,n03041632_24277.png,0.0,-2.054943,-1.5029439,-0.3903224
alexnet_w1_mlp_simclrhn_probe1,1,295,NaN,elephant,bird,90,0295_ps_dnn_90_bird_10_n01601694_2723.png,n01601694_2723.png,0.0,-0.936748,0.050074577,-0.69778895
alexnet_w1_mlp_simclrhn_probe1,1,296,NaN,oven,keyboard,120,0296_ps_dnn_120_keyboard_10_n04505470_4724.png,n04505470_4724.png,0.0,-1.8400836,-1.009102,-0.5875927
alexnet_w1_mlp_simclrhn_probe1,1,297,NaN,knife,bear,150,0297_ps_dnn_150_bear_10_n02134418_1642.png,n02134418_1642.png,0.0,-2.0000792,-1.0454856,-0.6749996
alexnet_w1_mlp_simclrhn_probe1,1,298,NaN,oven,truck,60,0298_ps_dnn_60_truck_10_n03417042_13055.png,n03417042_13055.png,0.0,-2.036142,0.50201887,-1.7947509
alexnet_w1_mlp_simclrhn_probe1,1,299,NaN,knife,bear,120,0299_ps_dnn_120_bear_10_n02133161_1629.png,n02133161_1629.png,0.0,-2.32806,-1.3720605,-0.6759937
alexnet_w1_mlp_simclrhn_probe1,1,300,NaN,knife,bottle,180,0300_ps_dnn_180_bottle_10_n04579145_1856.png,n04579145_1856.png,0.0,-3.1223125,-1.1372535,-1.4036487
alexnet_w1_mlp_simclrhn_probe1,1,301,NaN,bear,chair,150,0301_ps_dnn_150_chair_10_n04099969_3768.png,n04099969_3768.png,0.0,-7.588359,-2.3019266,-3.7380722
alexnet_w1_mlp_simclrhn_probe1,1,302,NaN,knife,bird,120,0302_ps_dnn_120_bird_10_n02009229_5172.png,n02009229_5172.png,0.0,-4.9091835,-2.744767,-1.5304736
alexnet_w1_mlp_simclrhn_probe1,1,303,NaN,airplane,airplane,90,0303_ps_dnn_90_airplane_10_n02690373_21731.png,n02690373_21731.png,1.0,1.4407965,-1.0790969,1.7818338
alexnet_w1_mlp_simclrhn_probe1,1,304,NaN,elephant,bear,30,0304_ps_dnn_30_bear_10_n02133161_959.png,n02133161_959.png,0.0,-1.2287323,-1.0331191,-0.13831946
alexnet_w1_mlp_simclrhn_probe1,1,305,NaN,chair,chair,0,0305_ps_dnn_0_chair_10_n04099969_1028.png,n04099969_1028.png,1.0,0.2204045,-0.83331496,0.7450922
alexnet_w1_mlp_simclrhn_probe1,1,306,NaN,bear,knife,180,0306_ps_dnn_180_knife_10_n03041632_44212.png,n03041632_44212.png,0.0,-4.339759,-2.9632154,-0.9733633
alexnet_w1_mlp_simclrhn_probe1,1,307,NaN,bear,oven,120,0307_ps_dnn_120_oven_10_n04111531_9344.png,n04111531_9344.png,0.0,-2.415411,-2.117634,-0.2105601
alexnet_w1_mlp_simclrhn_probe1,1,308,NaN,bear,car,180,0308_ps_dnn_180_car_10_n04285008_9080.png,n04285008_9080.png,0.0,-12.103554,-1.5122088,-7.489212
alexnet_w1_mlp_simclrhn_probe1,1,309,NaN,car,car,60,0309_ps_dnn_60_car_10_n03100240_17349.png,n03100240_17349.png,1.0,4.3659368,1.239854,2.2104745
alexnet_w1_mlp_simclrhn_probe1,1,310,NaN,dog,dog,30,0310_ps_dnn_30_dog_10_n02110958_1335.png,n02110958_1335.png,1.0,-3.222709,-4.069127,0.598508
alexnet_w1_mlp_simclrhn_probe1,1,311,NaN,knife,elephant,150,0311_ps_dnn_150_elephant_10_n02504013_7305.png,n02504013_7305.png,0.0,-3.921523,-0.7785969,-2.2223845
alexnet_w1_mlp_simclrhn_probe1,1,312,NaN,oven,dog,90,0312_ps_dnn_90_dog_10_n02091244_2626.png,n02091244_2626.png,0.0,-5.6618485,-1.1640079,-3.1804538
alexnet_w1_mlp_simclrhn_probe1,1,313,NaN,knife,bird,150,0313_ps_dnn_150_bird_10_n01828970_22.png,n01828970_22.png,0.0,-2.430491,-1.0964063,-0.9433403
alexnet_w1_mlp_simclrhn_probe1,1,314,NaN,cat,cat,60,0314_ps_dnn_60_cat_10_n02124075_13587.png,n02124075_13587.png,1.0,1.1477705,-0.20244847,0.95474905
alexnet_w1_mlp_simclrhn_probe1,1,315,NaN,bear,knife,120,0315_ps_dnn_120_knife_10_n03041632_13612.png,n03041632_13612.png,0.0,-3.1844149,-1.2165494,-1.391491
alexnet_w1_mlp_simclrhn_probe1,1,316,NaN,elephant,bicycle,90,0316_ps_dnn_90_bicycle_10_n02835271_2581.png,n02835271_2581.png,0.0,-6.0579996,-0.78618777,-3.727734
alexnet_w1_mlp_simclrhn_probe1,1,317,NaN,knife,clock,30,0317_ps_dnn_30_clock_10_n03196217_2536.png,n03196217_2536.png,0.0,-0.22653389,0.24950129,-0.3366077
alexnet_w1_mlp_simclrhn_probe1,1,318,NaN,cat,cat,90,0318_ps_dnn_90_cat_10_n02124075_15001.png,n02124075_15001.png,1.0,-0.3877075,-2.3952565,1.4195516
alexnet_w1_mlp_simclrhn_probe1,1,319,NaN,elephant,bear,60,0319_ps_dnn_60_bear_10_n02133161_6152.png,n02133161_6152.png,0.0,-0.14667943,0.040263504,-0.13218862
alexnet_w1_mlp_simclrhn_probe1,1,320,NaN,oven,chair,30,0320_ps_dnn_30_chair_10_n04099969_8401.png,n04099969_8401.png,0.0,-1.7481492,1.3898258,-2.2188835
alexnet_w1_mlp_simclrhn_probe1,1,321,NaN,bear,oven,150,0321_ps_dnn_150_oven_10_n04111531_7923.png,n04111531_7923.png,0.0,-3.9865432,-2.9270744,-0.74915755
alexnet_w1_mlp_simclrhn_probe1,1,322,NaN,knife,cat,120,0322_ps_dnn_120_cat_10_n02123159_5706.png,n02123159_5706.png,0.0,-2.763953,-2.186971,-0.4079879
alexnet_w1_mlp_simclrhn_probe1,1,323,NaN,airplane,airplane,30,0323_ps_dnn_30_airplane_10_n02690373_13324.png,n02690373_13324.png,1.0,4.7788243,-0.7933437,3.9401178
alexnet_w1_mlp_simclrhn_probe1,1,324,NaN,elephant,airplane,150,0324_ps_dnn_150_airplane_10_n02690373_4452.png,n02690373_4452.png,0.0,-7.7089834,-1.5684955,-4.3419805
alexnet_w1_mlp_simclrhn_probe1,1,325,NaN,oven,bird,90,0325_ps_dnn_90_bird_10_n02056570_10881.png,n02056570_10881.png,0.0,-4.9095345,-2.2057786,-1.9118441
alexnet_w1_mlp_simclrhn_probe1,1,326,NaN,airplane,airplane,90,0326_ps_dnn_90_airplane_10_n02690373_19133.png,n02690373_19133.png,1.0,-0.765026,-1.9038275,0.80525434
alexnet_w1_mlp_simclrhn_probe1,1,327,NaN,bottle,bottle,0,0327_ps_dnn_0_bottle_10_n03937543_4850.png,n03937543_4850.png,1.0,3.6265047,-2.851151,4.5803943
alexnet_w1_mlp_simclrhn_probe1,1,328,NaN,oven,keyboard,150,0328_ps_dnn_150_keyboard_10_n04505470_2709.png,n04505470_2709.png,0.0,-5.8349056,-1.8773232,-2.7984335
alexnet_w1_mlp_simclrhn_probe1,1,329,NaN,oven,keyboard,90,0329_ps_dnn_90_keyboard_10_n03085013_1797.png,n03085013_1797.png,0.0,-4.9599285,0.16780806,-3.6258574
alexnet_w1_mlp_simclrhn_probe1,1,330,NaN,oven,oven,30,0330_ps_dnn_30_oven_10_n04111531_3902.png,n04111531_3902.png,1.0,1.735939,-0.15111405,1.334348
alexnet_w1_mlp_simclrhn_probe1,1,331,NaN,knife,car,180,0331_ps_dnn_180_car_10_n03100240_6750.png,n03100240_6750.png,0.0,-7.5198646,-0.7895806,-4.7590294
alexnet_w1_mlp_simclrhn_probe1,1,332,NaN,chair,chair,0,0332_ps_dnn_0_chair_10_n03376595_16306.png,n03376595_16306.png,1.0,1.3700279,1.150646,0.15512645
alexnet_w1_mlp_simclrhn_probe1,1,333,NaN,bicycle,boat,60,0333_ps_dnn_60_boat_10_n02951358_13017.png,n02951358_13017.png,0.0,-5.7537603,1.2728816,-4.968586
alexnet_w1_mlp_simclrhn_probe1,1,334,NaN,knife,clock,90,0334_ps_dnn_90_clock_10_n03196217_5827.png,n03196217_5827.png,0.0,-5.101734,-1.8087804,-2.32847
alexnet_w1_mlp_simclrhn_probe1,1,335,NaN,keyboard,bottle,0,0335_ps_dnn_0_bottle_10_n02823428_685.png,n02823428_685.png,0.0,-1.1160744,-1.049172,-0.04730714
alexnet_w1_mlp_simclrhn_probe1,1,336,NaN,bear,airplane,120,0336_ps_dnn_120_airplane_10_n02690373_2092.png,n02690373_2092.png,0.0,-4.9036736,-1.1060205,-2.6853464
alexnet_w1_mlp_simclrhn_probe1,1,337,NaN,cat,bottle,180,0337_ps_dnn_180_bottle_10_n04557648_3637.png,n04557648_3637.png,0.0,-4.4713473,-1.8334583,-1.8652692
alexnet_w1_mlp_simclrhn_probe1,1,338,NaN,elephant,bird,90,0338_ps_dnn_90_bird_10_n01819313_5521.png,n01819313_5521.png,0.0,-2.9136295,0.7198514,-2.5692592
alexnet_w1_mlp_simclrhn_probe1,1,339,NaN,elephant,dog,90,0339_ps_dnn_90_dog_10_n02100583_24297.png,n02100583_24297.png,0.0,-1.7619106,1.9321015,-2.612061
alexnet_w1_mlp_simclrhn_probe1,1,340,NaN,bear,bird,60,0340_ps_dnn_60_bird_10_n02018207_12233.png,n02018207_12233.png,0.0,-2.874645,-0.1435405,-1.9311825
alexnet_w1_mlp_simclrhn_probe1,1,341,NaN,bear,bird,180,0341_ps_dnn_180_bird_10_n02013706_3032.png,n02013706_3032.png,0.0,-2.205038,-0.5363483,-1.1799419
alexnet_w1_mlp_simclrhn_probe1,1,342,NaN,oven,oven,60,0342_ps_dnn_60_oven_10_n04111531_9939.png,n04111531_9939.png,1.0,1.1845218,-4.2316885,3.829839
alexnet_w1_mlp_simclrhn_probe1,1,343,NaN,knife,bird,180,0343_ps_dnn_180_bird_10_n02011460_7629.png,n02011460_7629.png,0.0,-3.8539257,-2.3829424,-1.0401423
alexnet_w1_mlp_simclrhn_probe1,1,344,NaN,elephant,oven,60,0344_ps_dnn_60_oven_10_n04111531_13542.png,n04111531_13542.png,0.0,-1.9041909,-0.6069225,-0.9173073
alexnet_w1_mlp_simclrhn_probe1,1,345,NaN,bear,bear,90,0345_ps_dnn_90_bear_10_n02134418_270.png,n02134418_270.png,1.0,0.8919766,0.26448375,0.44370446
alexnet_w1_mlp_simclrhn_probe1,1,346,NaN,bear,bicycle,90,0346_ps_dnn_90_bicycle_10_n03792782_12561.png,n03792782_12561.png,0.0,-3.2370129,-0.7326141,-1.7708774
alexnet_w1_mlp_simclrhn_probe1,1,347,NaN,elephant,elephant,120,0347_ps_dnn_120_elephant_10_n02504458_9213.png,n02504458_9213.png,1.0,-3.5233936,-4.2592344,0.52031803
alexnet_w1_mlp_simclrhn_probe1,1,348,NaN,oven,chair,90,0348_ps_dnn_90_chair_10_n03376595_4155.png,n03376595_4155.png,0.0,-3.8099496,-1.483784,-1.6448475
alexnet_w1_mlp_simclrhn_probe1,1,349,NaN,bear,truck,120,0349_ps_dnn_120_truck_10_n04467665_69970.png,n04467665_69970.png,0.0,-9.668672,-1.5179627,-5.763422
alexnet_w1_mlp_simclrhn_probe1,1,350,NaN,bear,bird,120,0350_ps_dnn_120_bird_10_n02002556_2350.png,n02002556_2350.png,0.0,-3.3453653,-2.114653,-0.8702449
alexnet_w1_mlp_simclrhn_probe1,1,351,NaN,bear,bear,0,0351_ps_dnn_0_bear_10_n02133161_355.png,n02133161_355.png,1.0,5.381173,0.5311369,3.4294934
alexnet_w1_mlp_simclrhn_probe1,1,352,NaN,knife,airplane,90,0352_ps_dnn_90_airplane_10_n02690373_3065.png,n02690373_3065.png,0.0,-2.3702297,-1.0875964,-0.9069587
alexnet_w1_mlp_simclrhn_probe1,1,353,NaN,truck,truck,60,0353_ps_dnn_60_truck_10_n03417042_13289.png,n03417042_13289.png,1.0,1.6631743,-0.33933344,1.4159868
alexnet_w1_mlp_simclrhn_probe1,1,354,NaN,bicycle,oven,0,0354_ps_dnn_0_oven_10_n04111531_21404.png,n04111531_21404.png,0.0,-1.6943227,-1.6178806,-0.054052744
alexnet_w1_mlp_simclrhn_probe1,1,355,NaN,bear,bear,90,0355_ps_dnn_90_bear_10_n02132136_8358.png,n02132136_8358.png,1.0,1.4498132,1.3676208,0.05811882
alexnet_w1_mlp_simclrhn_probe1,1,356,NaN,oven,oven,90,0356_ps_dnn_90_oven_10_n04111531_274.png,n04111531_274.png,1.0,-0.050185412,-2.0989447,1.4486916
alexnet_w1_mlp_simclrhn_probe1,1,357,NaN,elephant,chair,120,0357_ps_dnn_120_chair_10_n02791124_2773.png,n02791124_2773.png,0.0,-4.3500934,-1.0521833,-2.3319747
alexnet_w1_mlp_simclrhn_probe1,1,358,NaN,bear,knife,120,0358_ps_dnn_120_knife_10_n03041632_102828.png,n03041632_102828.png,0.0,-2.8564372,-1.2036229,-1.1687162
alexnet_w1_mlp_simclrhn_probe1,1,359,NaN,bear,boat,150,0359_ps_dnn_150_boat_10_n02951358_30995.png,n02951358_30995.png,0.0,-5.1358805,-1.8923243,-2.2935405
alexnet_w1_mlp_simclrhn_probe1,1,360,NaN,knife,bicycle,150,0360_ps_dnn_150_bicycle_10_n03792782_4544.png,n03792782_4544.png,0.0,-8.21126,-1.5873361,-4.6838217
alexnet_w1_mlp_simclrhn_probe1,1,361,NaN,knife,airplane,120,0361_ps_dnn_120_airplane_10_n02690373_8446.png,n02690373_8446.png,0.0,-7.1074886,-1.955349,-3.643113
alexnet_w1_mlp_simclrhn_probe1,1,362,NaN,bottle,bottle,30,0362_ps_dnn_30_bottle_10_n04557648_900.png,n04557648_900.png,1.0,-0.034799814,-0.9373396,0.638192
alexnet_w1_mlp_simclrhn_probe1,1,363,NaN,knife,airplane,150,0363_ps_dnn_150_airplane_10_n02690373_3407.png,n02690373_3407.png,0.0,-8.320225,-2.0288024,-4.4487076
alexnet_w1_mlp_simclrhn_probe1,1,364,NaN,elephant,bottle,120,0364_ps_dnn_120_bottle_10_n03983396_8143.png,n03983396_8143.png,0.0,-3.1675305,-1.86748,-0.9192745
alexnet_w1_mlp_simclrhn_probe1,1,365,NaN,car,car,0,0365_ps_dnn_0_car_10_n03100240_9610.png,n03100240_9610.png,1.0,11.313802,6.6319504,3.3105688
alexnet_w1_mlp_simclrhn_probe1,1,366,NaN,bear,cat,120,0366_ps_dnn_120_cat_10_n02123159_1108.png,n02123159_1108.png,0.0,-3.0256646,-0.83039844,-1.5522877
alexnet_w1_mlp_simclrhn_probe1,1,367,NaN,clock,clock,0,0367_ps_dnn_0_clock_10_n04548280_2170.png,n04548280_2170.png,1.0,8.141625,-0.77019364,6.301608
alexnet_w1_mlp_simclrhn_probe1,1,368,NaN,bear,keyboard,120,0368_ps_dnn_120_keyboard_10_n04505470_4385.png,n04505470_4385.png,0.0,-6.9186187,-2.447325,-3.161682
alexnet_w1_mlp_simclrhn_probe1,1,369,NaN,knife,airplane,120,0369_ps_dnn_120_airplane_10_n02690373_18383.png,n02690373_18383.png,0.0,-3.580123,-1.2104797,-1.6755908
alexnet_w1_mlp_simclrhn_probe1,1,370,NaN,oven,truck,90,0370_ps_dnn_90_truck_10_n03417042_10243.png,n03417042_10243.png,0.0,-7.3837543,-1.1225433,-4.427345
alexnet_w1_mlp_simclrhn_probe1,1,371,NaN,cat,cat,30,0371_ps_dnn_30_cat_10_n02123045_11826.png,n02123045_11826.png,1.0,5.8349266,-4.2912555,7.1602926
alexnet_w1_mlp_simclrhn_probe1,1,372,NaN,bird,bird,0,0372_ps_dnn_0_bird_10_n01817953_2257.png,n01817953_2257.png,1.0,-0.42129603,-4.0654488,2.576805
alexnet_w1_mlp_simclrhn_probe1,1,373,NaN,boat,boat,0,0373_ps_dnn_0_boat_10_n04612504_18442.png,n04612504_18442.png,1.0,7.557294,3.7793498,2.6714098
alexnet_w1_mlp_simclrhn_probe1,1,374,NaN,knife,airplane,180,0374_ps_dnn_180_airplane_10_n02690373_2874.png,n02690373_2874.png,0.0,-7.5749874,-2.0291193,-3.921521
alexnet_w1_mlp_simclrhn_probe1,1,375,NaN,bicycle,bicycle,0,0375_ps_dnn_0_bicycle_10_n02835271_4963.png,n02835271_4963.png,1.0,9.5566225,0.3478305,6.511599
alexnet_w1_mlp_simclrhn_probe1,1,376,NaN,oven,boat,180,0376_ps_dnn_180_boat_10_n04273569_568.png,n04273569_568.png,0.0,-5.4273257,-1.4689453,-2.7989976
alexnet_w1_mlp_simclrhn_probe1,1,377,NaN,elephant,elephant,90,0377_ps_dnn_90_elephant_10_n02504013_2233.png,n02504013_2233.png,1.0,2.1232724,1.0779591,0.7391482
alexnet_w1_mlp_simclrhn_probe1,1,378,NaN,oven,bottle,60,0378_ps_dnn_60_bottle_10_n02823428_889.png,n02823428_889.png,0.0,-3.3418603,0.68556285,-2.8478181
alexnet_w1_mlp_simclrhn_probe1,1,379,NaN,boat,car,90,0379_ps_dnn_90_car_10_n04285008_3096.png,n04285008_3096.png,0.0,-3.2395027,-1.1815192,-1.455214
alexnet_w1_mlp_simclrhn_probe1,1,380,NaN,elephant,airplane,120,0380_ps_dnn_120_airplane_10_n02690373_13206.png,n02690373_13206.png,0.0,-9.473498,-2.5209627,-4.9161854
alexnet_w1_mlp_simclrhn_probe1,1,381,NaN,oven,keyboard,90,0381_ps_dnn_90_keyboard_10_n03085013_25443.png,n03085013_25443.png,0.0,-6.2774825,1.4077747,-5.4342976
alexnet_w1_mlp_simclrhn_probe1,1,382,NaN,truck,truck,30,0382_ps_dnn_30_truck_10_n04467665_20622.png,n04467665_20622.png,1.0,4.164818,0.10906676,2.8678489
alexnet_w1_mlp_simclrhn_probe1,1,383,NaN,bicycle,bicycle,60,0383_ps_dnn_60_bicycle_10_n02835271_24639.png,n02835271_24639.png,1.0,5.431752,-2.1190262,5.3392067
alexnet_w1_mlp_simclrhn_probe1,1,384,NaN,knife,knife,30,0384_ps_dnn_30_knife_10_n03041632_25603.png,n03041632_25603.png,1.0,0.23013926,-1.6524905,1.3312203
alexnet_w1_mlp_simclrhn_probe1,1,385,NaN,boat,boat,60,0385_ps_dnn_60_boat_10_n04273569_4978.png,n04273569_4978.png,1.0,2.387148,-3.9751837,4.498848
alexnet_w1_mlp_simclrhn_probe1,1,386,NaN,car,car,60,0386_ps_dnn_60_car_10_n02814533_46401.png,n02814533_46401.png,1.0,2.0446215,-0.12137973,1.5315943
alexnet_w1_mlp_simclrhn_probe1,1,387,NaN,elephant,bird,120,0387_ps_dnn_120_bird_10_n01798484_12863.png,n01798484_12863.png,0.0,-2.0832849,-1.9101429,-0.122429855
alexnet_w1_mlp_simclrhn_probe1,1,388,NaN,bear,boat,120,0388_ps_dnn_120_boat_10_n03662601_7885.png,n03662601_7885.png,0.0,-4.383786,-2.0647626,-1.6397973
alexnet_w1_mlp_simclrhn_probe1,1,389,NaN,clock,chair,0,0389_ps_dnn_0_chair_10_n03376595_3062.png,n03376595_3062.png,0.0,-1.2066766,-0.6313314,-0.40683052
alexnet_w1_mlp_simclrhn_probe1,1,390,NaN,knife,airplane,90,0390_ps_dnn_90_airplane_10_n02690373_19118.png,n02690373_19118.png,0.0,-2.2153683,-1.8379235,-0.26689374
alexnet_w1_mlp_simclrhn_probe1,1,391,NaN,bear,cat,180,0391_ps_dnn_180_cat_10_n02123597_3944.png,n02123597_3944.png,0.0,-4.27251,-2.205511,-1.461589
alexnet_w1_mlp_simclrhn_probe1,1,392,NaN,cat,keyboard,150,0392_ps_dnn_150_keyboard_10_n04505470_2113.png,n04505470_2113.png,0.0,-3.1109452,-2.1186144,-0.7016838
alexnet_w1_mlp_simclrhn_probe1,1,393,NaN,elephant,bird,30,0393_ps_dnn_30_bird_10_n02056570_4808.png,n02056570_4808.png,0.0,-2.136969,1.496245,-2.5690703
alexnet_w1_mlp_simclrhn_probe1,1,394,NaN,knife,bear,180,0394_ps_dnn_180_bear_10_n02133161_2316.png,n02133161_2316.png,0.0,-1.3606758,-1.2809776,-0.05635514
alexnet_w1_mlp_simclrhn_probe1,1,395,NaN,dog,dog,0,0395_ps_dnn_0_dog_10_n02106662_15515.png,n02106662_15515.png,1.0,0.4628986,-1.05875,1.0759681
alexnet_w1_mlp_simclrhn_probe1,1,396,NaN,airplane,airplane,0,0396_ps_dnn_0_airplane_10_n02690373_3899.png,n02690373_3899.png,1.0,4.708414,2.00648,1.910556
alexnet_w1_mlp_simclrhn_probe1,1,397,NaN,knife,boat,0,0397_ps_dnn_0_boat_10_n04273569_2449.png,n04273569_2449.png,0.0,-3.6301346,-3.1189766,-0.36144328
alexnet_w1_mlp_simclrhn_probe1,1,398,NaN,oven,bird,120,0398_ps_dnn_120_bird_10_n02007558_7614.png,n02007558_7614.png,0.0,-6.1553245,1.0391954,-5.087294
alexnet_w1_mlp_simclrhn_probe1,1,399,NaN,bottle,keyboard,90,0399_ps_dnn_90_keyboard_10_n03085013_4914.png,n03085013_4914.png,0.0,-5.79725,0.24579886,-4.273081
alexnet_w1_mlp_simclrhn_probe1,1,400,NaN,knife,oven,150,0400_ps_dnn_150_oven_10_n04111531_15296.png,n04111531_15296.png,0.0,-3.057529,-2.3000152,-0.5356431
alexnet_w1_mlp_simclrhn_probe1,1,401,NaN,oven,chair,60,0401_ps_dnn_60_chair_10_n04099969_246.png,n04099969_246.png,0.0,-3.1654215,-0.11175609,-2.1592677
alexnet_w1_mlp_simclrhn_probe1,1,402,NaN,knife,truck,180,0402_ps_dnn_180_truck_10_n04467665_670.png,n04467665_670.png,0.0,-10.579237,-2.0781608,-6.0111685
alexnet_w1_mlp_simclrhn_probe1,1,403,NaN,keyboard,keyboard,90,0403_ps_dnn_90_keyboard_10_n03085013_24192.png,n03085013_24192.png,1.0,-0.05423525,-1.7752076,1.2169113
alexnet_w1_mlp_simclrhn_probe1,1,404,NaN,bear,bicycle,150,0404_ps_dnn_150_bicycle_10_n03792782_378.png,n03792782_378.png,0.0,-3.0581112,-2.1039839,-0.6746699
alexnet_w1_mlp_simclrhn_probe1,1,405,NaN,bear,bird,180,0405_ps_dnn_180_bird_10_n02018207_14738.png,n02018207_14738.png,0.0,-2.632507,-1.3929874,-0.87647283
alexnet_w1_mlp_simclrhn_probe1,1,406,NaN,bird,bird,0,0406_ps_dnn_0_bird_10_n01530575_5222.png,n01530575_5222.png,1.0,-0.49459505,-1.702219,0.8539191
alexnet_w1_mlp_simclrhn_probe1,1,407,NaN,elephant,bear,30,0407_ps_dnn_30_bear_10_n02134084_10766.png,n02134084_10766.png,0.0,-1.7760988,-0.9391481,-0.59181356
alexnet_w1_mlp_simclrhn_probe1,1,408,NaN,elephant,bird,30,0408_ps_dnn_30_bird_10_n02007558_4009.png,n02007558_4009.png,0.0,-1.6595981,-0.6872202,-0.68757504
alexnet_w1_mlp_simclrhn_probe1,1,409,NaN,oven,chair,120,0409_ps_dnn_120_chair_10_n04099969_7545.png,n04099969_7545.png,0.0,-7.4634266,-1.5434628,-4.1860466
alexnet_w1_mlp_simclrhn_probe1,1,410,NaN,elephant,clock,90,0410_ps_dnn_90_clock_10_n03196217_127.png,n03196217_127.png,0.0,-4.593294,-0.69506514,-2.7564642
alexnet_w1_mlp_simclrhn_probe1,1,411,NaN,knife,bottle,150,0411_ps_dnn_150_bottle_10_n04560804_26326.png,n04560804_26326.png,0.0,-3.4465744,-1.3744943,-1.465182
alexnet_w1_mlp_simclrhn_probe1,1,412,NaN,knife,keyboard,30,0412_ps_dnn_30_keyboard_10_n03085013_25066.png,n03085013_25066.png,0.0,-0.3865491,-0.297429,-0.06301742
alexnet_w1_mlp_simclrhn_probe1,1,413,NaN,cat,cat,30,0413_ps_dnn_30_cat_10_n02124075_11776.png,n02124075_11776.png,1.0,12.880176,-3.898732,11.86448
alexnet_w1_mlp_simclrhn_probe1,1,414,NaN,knife,keyboard,120,0414_ps_dnn_120_keyboard_10_n04505470_2909.png,n04505470_2909.png,0.0,-4.234927,-2.2007978,-1.4383467
alexnet_w1_mlp_simclrhn_probe1,1,415,NaN,keyboard,keyboard,30,0415_ps_dnn_30_keyboard_10_n04505470_494.png,n04505470_494.png,1.0,3.9595447,0.5673596,2.398637
alexnet_w1_mlp_simclrhn_probe1,1,416,NaN,elephant,bear,120,0416_ps_dnn_120_bear_10_n02133161_2270.png,n02133161_2270.png,0.0,-1.2213726,-0.71016264,-0.36148003
alexnet_w1_mlp_simclrhn_probe1,1,417,NaN,bear,chair,120,0417_ps_dnn_120_chair_10_n04099969_13901.png,n04099969_13901.png,0.0,-4.7739925,-1.3057086,-2.4524472
alexnet_w1_mlp_simclrhn_probe1,1,418,NaN,oven,car,120,0418_ps_dnn_120_car_10_n02814533_2923.png,n02814533_2923.png,0.0,-6.7495646,-1.2219963,-3.908581
alexnet_w1_mlp_simclrhn_probe1,1,419,NaN,bottle,bottle,90,0419_ps_dnn_90_bottle_10_n03983396_12757.png,n03983396_12757.png,1.0,-2.1829407,-2.3301008,0.10405787
alexnet_w1_mlp_simclrhn_probe1,1,420,NaN,knife,knife,30,0420_ps_dnn_30_knife_10_n03041632_15444.png,n03041632_15444.png,1.0,-1.3425192,-2.0394285,0.4927893
alexnet_w1_mlp_simclrhn_probe1,1,421,NaN,bear,bicycle,180,0421_ps_dnn_180_bicycle_10_n02835271_5554.png,n02835271_5554.png,0.0,-6.52295,-2.7699122,-2.6537986
alexnet_w1_mlp_simclrhn_probe1,1,422,NaN,knife,knife,150,0422_ps_dnn_150_knife_10_n03041632_37618.png,n03041632_37618.png,1.0,-2.2064457,-3.0018206,0.562415
alexnet_w1_mlp_simclrhn_probe1,1,423,NaN,clock,chair,60,0423_ps_dnn_60_chair_10_n03376595_3910.png,n03376595_3910.png,0.0,-2.5079212,-1.9560128,-0.39025816
alexnet_w1_mlp_simclrhn_probe1,1,424,NaN,dog,dog,30,0424_ps_dnn_30_dog_10_n02086646_7362.png,n02086646_7362.png,1.0,1.4860122,-0.27505243,1.2452608
alexnet_w1_mlp_simclrhn_probe1,1,425,NaN,bear,dog,60,0425_ps_dnn_60_dog_10_n02113712_5829.png,n02113712_5829.png,0.0,-1.2177917,1.4681113,-1.8992203
alexnet_w1_mlp_simclrhn_probe1,1,426,NaN,knife,truck,180,0426_ps_dnn_180_truck_10_n03417042_1149.png,n03417042_1149.png,0.0,-9.393013,-2.27547,-5.032863
alexnet_w1_mlp_simclrhn_probe1,1,427,NaN,elephant,bird,60,0427_ps_dnn_60_bird_10_n02002724_3345.png,n02002724_3345.png,0.0,-3.2389655,-0.4486573,-1.973046
alexnet_w1_mlp_simclrhn_probe1,1,428,NaN,bear,bird,150,0428_ps_dnn_150_bird_10_n02002556_2917.png,n02002556_2917.png,0.0,-3.9299269,-1.7326753,-1.5536915
alexnet_w1_mlp_simclrhn_probe1,1,429,NaN,bear,bottle,180,0429_ps_dnn_180_bottle_10_n04560804_3959.png,n04560804_3959.png,0.0,-4.098986,-1.0892136,-2.1282306
alexnet_w1_mlp_simclrhn_probe1,1,430,NaN,airplane,airplane,30,0430_ps_dnn_30_airplane_10_n02690373_3639.png,n02690373_3639.png,1.0,7.6802607,-2.1410718,6.944731
alexnet_w1_mlp_simclrhn_probe1,1,431,NaN,elephant,bottle,120,0431_ps_dnn_120_bottle_10_n02823428_14453.png,n02823428_14453.png,0.0,-3.734901,-1.3968279,-1.6532673
alexnet_w1_mlp_simclrhn_probe1,1,432,NaN,bottle,bottle,0,0432_ps_dnn_0_bottle_10_n03937543_3253.png,n03937543_3253.png,1.0,6.5077286,-0.72572756,5.114826
alexnet_w1_mlp_simclrhn_probe1,1,433,NaN,elephant,elephant,30,0433_ps_dnn_30_elephant_10_n02504013_7010.png,n02504013_7010.png,1.0,0.5378617,-0.017547667,0.39273375
alexnet_w1_mlp_simclrhn_probe1,1,434,NaN,bear,car,150,0434_ps_dnn_150_car_10_n04285008_8813.png,n04285008_8813.png,0.0,-6.8940854,-1.6017432,-3.7422512
alexnet_w1_mlp_simclrhn_probe1,1,435,NaN,knife,bear,180,0435_ps_dnn_180_bear_10_n02132136_110.png,n02132136_110.png,0.0,-1.9480505,-1.1182142,-0.5867829
alexnet_w1_mlp_simclrhn_probe1,1,436,NaN,bear,bear,60,0436_ps_dnn_60_bear_10_n02133161_4294.png,n02133161_4294.png,1.0,-0.51521426,-1.8343014,0.9327354
alexnet_w1_mlp_simclrhn_probe1,1,437,NaN,car,car,0,0437_ps_dnn_0_car_10_n02814533_95144.png,n02814533_95144.png,1.0,9.477246,6.6106853,2.0269647
alexnet_w1_mlp_simclrhn_probe1,1,438,NaN,knife,oven,120,0438_ps_dnn_120_oven_10_n04111531_1220.png,n04111531_1220.png,0.0,-1.5787395,-1.046561,-0.37630704
alexnet_w1_mlp_simclrhn_probe1,1,439,NaN,knife,dog,60,0439_ps_dnn_60_dog_10_n02086240_7247.png,n02086240_7247.png,0.0,-2.6921098,-1.5876746,-0.78095365
alexnet_w1_mlp_simclrhn_probe1,1,440,NaN,airplane,airplane,0,0440_ps_dnn_0_airplane_10_n02690373_4144.png,n02690373_4144.png,1.0,7.583042,-1.9102612,6.712779
alexnet_w1_mlp_simclrhn_probe1,1,441,NaN,oven,oven,120,0441_ps_dnn_120_oven_10_n04111531_986.png,n04111531_986.png,1.0,-0.88624173,-2.5782459,1.1964277
alexnet_w1_mlp_simclrhn_probe1,1,442,NaN,bicycle,elephant,30,0442_ps_dnn_30_elephant_10_n02504458_6336.png,n02504458_6336.png,0.0,-0.38701683,0.10201803,-0.34579986
alexnet_w1_mlp_simclrhn_probe1,1,443,NaN,elephant,knife,150,0443_ps_dnn_150_knife_10_n03041632_14132.png,n03041632_14132.png,0.0,-1.6588273,-1.5314652,-0.09005863
alexnet_w1_mlp_simclrhn_probe1,1,444,NaN,bear,cat,150,0444_ps_dnn_150_cat_10_n02123159_799.png,n02123159_799.png,0.0,-4.5348887,-1.4933181,-2.1507154
alexnet_w1_mlp_simclrhn_probe1,1,445,NaN,elephant,bird,90,0445_ps_dnn_90_bird_10_n02006656_7456.png,n02006656_7456.png,0.0,-3.3747466,1.0565085,-3.1333706
alexnet_w1_mlp_simclrhn_probe1,1,446,NaN,elephant,cat,90,0446_ps_dnn_90_cat_10_n02123045_8722.png,n02123045_8722.png,0.0,-2.450025,-1.8519273,-0.422919
alexnet_w1_mlp_simclrhn_probe1,1,447,NaN,bear,chair,120,0447_ps_dnn_120_chair_10_n03376595_8302.png,n03376595_8302.png,0.0,-6.886735,-2.7251377,-2.9426937
alexnet_w1_mlp_simclrhn_probe1,1,448,NaN,bottle,bottle,30,0448_ps_dnn_30_bottle_10_n04560804_5769.png,n04560804_5769.png,1.0,2.0725691,0.48697978,1.121181
alexnet_w1_mlp_simclrhn_probe1,1,449,NaN,oven,car,90,0449_ps_dnn_90_car_10_n04285008_203.png,n04285008_203.png,0.0,-8.895577,-1.406342,-5.295689
alexnet_w1_mlp_simclrhn_probe1,1,450,NaN,knife,airplane,180,0450_ps_dnn_180_airplane_10_n02690373_9959.png,n02690373_9959.png,0.0,-10.583786,-2.236212,-5.9026265
alexnet_w1_mlp_simclrhn_probe1,1,451,NaN,car,car,0,0451_ps_dnn_0_car_10_n04285008_1867.png,n04285008_1867.png,1.0,15.318013,8.233635,5.009412
alexnet_w1_mlp_simclrhn_probe1,1,452,NaN,knife,airplane,150,0452_ps_dnn_150_airplane_10_n02690373_16250.png,n02690373_16250.png,0.0,-4.520957,-1.3886273,-2.2148917
alexnet_w1_mlp_simclrhn_probe1,1,453,NaN,elephant,elephant,30,0453_ps_dnn_30_elephant_10_n02504458_4696.png,n02504458_4696.png,1.0,3.8891532,1.131298,1.9500983
alexnet_w1_mlp_simclrhn_probe1,1,454,NaN,bicycle,car,60,0454_ps_dnn_60_car_10_n04285008_10755.png,n04285008_10755.png,0.0,-3.554849,1.802361,-3.7881198
alexnet_w1_mlp_simclrhn_probe1,1,455,NaN,knife,boat,150,0455_ps_dnn_150_boat_10_n02951358_11586.png,n02951358_11586.png,0.0,-6.99693,-1.9576243,-3.5633273
alexnet_w1_mlp_simclrhn_probe1,1,456,NaN,bottle,bottle,60,0456_ps_dnn_60_bottle_10_n02823428_4108.png,n02823428_4108.png,1.0,1.6948265,-1.9137809,2.5516708
alexnet_w1_mlp_simclrhn_probe1,1,457,NaN,elephant,car,180,0457_ps_dnn_180_car_10_n04285008_11770.png,n04285008_11770.png,0.0,-8.542039,-0.5714337,-5.6360693
alexnet_w1_mlp_simclrhn_probe1,1,458,NaN,oven,boat,90,0458_ps_dnn_90_boat_10_n04273569_32786.png,n04273569_32786.png,0.0,-2.0217412,-1.9009888,-0.08538479
alexnet_w1_mlp_simclrhn_probe1,1,459,NaN,bear,bear,30,0459_ps_dnn_30_bear_10_n02132136_21267.png,n02132136_21267.png,1.0,5.074123,3.1679964,1.347835
alexnet_w1_mlp_simclrhn_probe1,1,460,NaN,oven,car,90,0460_ps_dnn_90_car_10_n03100240_24001.png,n03100240_24001.png,0.0,-6.027368,-0.64513505,-3.8058136
alexnet_w1_mlp_simclrhn_probe1,1,461,NaN,bear,bottle,150,0461_ps_dnn_150_bottle_10_n03937543_71.png,n03937543_71.png,0.0,-3.559221,-1.4604921,-1.4840255
alexnet_w1_mlp_simclrhn_probe1,1,462,NaN,chair,chair,0,0462_ps_dnn_0_chair_10_n02791124_16127.png,n02791124_16127.png,1.0,-0.26468098,-0.40887952,0.101963766
alexnet_w1_mlp_simclrhn_probe1,1,463,NaN,bird,bird,90,0463_ps_dnn_90_bird_10_n02002724_12183.png,n02002724_12183.png,1.0,-1.2556318,-1.3952441,0.09872082
alexnet_w1_mlp_simclrhn_probe1,1,464,NaN,dog,dog,30,0464_ps_dnn_30_dog_10_n02108915_1165.png,n02108915_1165.png,1.0,-0.32309356,-0.5664829,0.17210226
alexnet_w1_mlp_simclrhn_probe1,1,465,NaN,knife,dog,180,0465_ps_dnn_180_dog_10_n02099429_4843.png,n02099429_4843.png,0.0,-2.740572,-1.282908,-1.0307242
alexnet_w1_mlp_simclrhn_probe1,1,466,NaN,boat,boat,60,0466_ps_dnn_60_boat_10_n03344393_3499.png,n03344393_3499.png,1.0,0.84793794,-1.0384398,1.3338705
alexnet_w1_mlp_simclrhn_probe1,1,467,NaN,oven,truck,120,0467_ps_dnn_120_truck_10_n03417042_20962.png,n03417042_20962.png,0.0,-5.511813,-1.6955382,-2.698514
alexnet_w1_mlp_simclrhn_probe1,1,468,NaN,dog,dog,30,0468_ps_dnn_30_dog_10_n02097047_4189.png,n02097047_4189.png,1.0,-1.6307478,-1.7569916,0.08926787
alexnet_w1_mlp_simclrhn_probe1,1,469,NaN,bicycle,bicycle,60,0469_ps_dnn_60_bicycle_10_n03792782_24591.png,n03792782_24591.png,1.0,9.369534,-3.3800404,9.01531
alexnet_w1_mlp_simclrhn_probe1,1,470,NaN,airplane,airplane,60,0470_ps_dnn_60_airplane_10_n02690373_243.png,n02690373_243.png,1.0,1.8342744,-1.1721923,2.125893
alexnet_w1_mlp_simclrhn_probe1,1,471,NaN,oven,boat,90,0471_ps_dnn_90_boat_10_n03344393_3072.png,n03344393_3072.png,0.0,-3.7336738,-2.3362126,-0.9881543
alexnet_w1_mlp_simclrhn_probe1,1,472,NaN,clock,clock,120,0472_ps_dnn_120_clock_10_n02708093_118.png,n02708093_118.png,1.0,-3.025338,-3.0852365,0.042354718
alexnet_w1_mlp_simclrhn_probe1,1,473,NaN,bird,bird,30,0473_ps_dnn_30_bird_10_n01843065_2664.png,n01843065_2664.png,1.0,1.2062211,-3.3494105,3.221318
alexnet_w1_mlp_simclrhn_probe1,1,474,NaN,knife,airplane,150,0474_ps_dnn_150_airplane_10_n02690373_19353.png,n02690373_19353.png,0.0,-8.598172,-2.2339346,-4.500196
alexnet_w1_mlp_simclrhn_probe1,1,475,NaN,bear,dog,120,0475_ps_dnn_120_dog_10_n02099849_4250.png,n02099849_4250.png,0.0,-2.9514604,-1.4163158,-1.0855112
alexnet_w1_mlp_simclrhn_probe1,1,476,NaN,oven,truck,90,0476_ps_dnn_90_truck_10_n04467665_29260.png,n04467665_29260.png,0.0,-5.147441,-2.446952,-1.909534
alexnet_w1_mlp_simclrhn_probe1,1,477,NaN,bear,elephant,30,0477_ps_dnn_30_elephant_10_n02504013_8308.png,n02504013_8308.png,0.0,2.6431048,3.3321004,-0.48719347
alexnet_w1_mlp_simclrhn_probe1,1,478,NaN,knife,boat,150,0478_ps_dnn_150_boat_10_n03344393_6854.png,n03344393_6854.png,0.0,-3.3433921,-0.52823085,-1.9906197
alexnet_w1_mlp_simclrhn_probe1,1,479,NaN,bear,truck,180,0479_ps_dnn_180_truck_10_n04467665_25129.png,n04467665_25129.png,0.0,-10.771599,-1.6142354,-6.475234
alexnet_w1_mlp_simclrhn_probe1,1,480,NaN,bird,bird,30,0480_ps_dnn_30_bird_10_n01824575_6272.png,n01824575_6272.png,1.0,-2.8863158,-4.1752243,0.91139597
alexnet_w1_mlp_simclrhn_probe1,1,481,NaN,knife,chair,180,0481_ps_dnn_180_chair_10_n04099969_19484.png,n04099969_19484.png,0.0,-10.153354,-2.81241,-5.1908307
alexnet_w1_mlp_simclrhn_probe1,1,482,NaN,knife,oven,120,0482_ps_dnn_120_oven_10_n04111531_5888.png,n04111531_5888.png,0.0,-3.5729234,-2.4056218,-0.8254069
alexnet_w1_mlp_simclrhn_probe1,1,483,NaN,knife,chair,60,0483_ps_dnn_60_chair_10_n04099969_16266.png,n04099969_16266.png,0.0,-4.1928043,0.5444332,-3.3497329
alexnet_w1_mlp_simclrhn_probe1,1,484,NaN,knife,truck,150,0484_ps_dnn_150_truck_10_n04467665_68754.png,n04467665_68754.png,0.0,-10.809828,-2.5998368,-5.805341
alexnet_w1_mlp_simclrhn_probe1,1,485,NaN,knife,cat,180,0485_ps_dnn_180_cat_10_n02123394_7859.png,n02123394_7859.png,0.0,-3.7051227,-0.42032963,-2.3226995
alexnet_w1_mlp_simclrhn_probe1,1,486,NaN,knife,car,90,0486_ps_dnn_90_car_10_n04285008_17056.png,n04285008_17056.png,0.0,-8.813676,-3.1476731,-4.0064692
alexnet_w1_mlp_simclrhn_probe1,1,487,NaN,bear,cat,120,0487_ps_dnn_120_cat_10_n02123045_12046.png,n02123045_12046.png,0.0,-2.2896235,-1.0064955,-0.9073085
alexnet_w1_mlp_simclrhn_probe1,1,488,NaN,bear,elephant,180,0488_ps_dnn_180_elephant_10_n02504013_3029.png,n02504013_3029.png,0.0,-1.4714046,-0.56357044,-0.64193565
alexnet_w1_mlp_simclrhn_probe1,1,489,NaN,boat,boat,120,0489_ps_dnn_120_boat_10_n03662601_7271.png,n03662601_7271.png,1.0,-1.5006819,-2.008071,0.35877827
alexnet_w1_mlp_simclrhn_probe1,1,490,NaN,bear,bear,30,0490_ps_dnn_30_bear_10_n02133161_6861.png,n02133161_6861.png,1.0,3.8959146,0.9604043,2.075719
alexnet_w1_mlp_simclrhn_probe1,1,491,NaN,oven,chair,30,0491_ps_dnn_30_chair_10_n02791124_4192.png,n02791124_4192.png,0.0,-1.2237822,-0.75577617,-0.33093023
alexnet_w1_mlp_simclrhn_probe1,1,492,NaN,oven,boat,60,0492_ps_dnn_60_boat_10_n04273569_1457.png,n04273569_1457.png,0.0,-1.0670671,-0.5289537,-0.38050368
alexnet_w1_mlp_simclrhn_probe1,1,493,NaN,clock,clock,90,0493_ps_dnn_90_clock_10_n04548280_764.png,n04548280_764.png,1.0,-2.3715847,-2.735218,0.25712764
alexnet_w1_mlp_simclrhn_probe1,1,494,NaN,elephant,bicycle,120,0494_ps_dnn_120_bicycle_10_n02835271_12346.png,n02835271_12346.png,0.0,-4.1370316,-1.9598563,-1.5394955
alexnet_w1_mlp_simclrhn_probe1,1,495,NaN,knife,bicycle,180,0495_ps_dnn_180_bicycle_10_n03792782_50673.png,n03792782_50673.png,0.0,-3.7339323,-2.4410982,-0.91417176
alexnet_w1_mlp_simclrhn_probe1,1,496,NaN,knife,truck,120,0496_ps_dnn_120_truck_10_n03796401_9198.png,n03796401_9198.png,0.0,-6.71603,-1.6756504,-3.5640867
alexnet_w1_mlp_simclrhn_probe1,1,497,NaN,airplane,airplane,0,0497_ps_dnn_0_airplane_10_n02690373_4110.png,n02690373_4110.png,1.0,7.9904838,0.889499,5.0211544
alexnet_w1_mlp_simclrhn_probe1,1,498,NaN,bear,dog,60,0498_ps_dnn_60_dog_10_n02107683_2484.png,n02107683_2484.png,0.0,0.41274437,0.6182597,-0.14532131
alexnet_w1_mlp_simclrhn_probe1,1,499,NaN,oven,chair,60,0499_ps_dnn_60_chair_10_n02791124_13057.png,n02791124_13057.png,0.0,-4.5266566,-0.18557788,-3.0696063
alexnet_w1_mlp_simclrhn_probe1,1,500,NaN,oven,bear,120,0500_ps_dnn_120_bear_10_n02134418_14451.png,n02134418_14451.png,0.0,-1.5861462,-1.4346225,-0.10714345
alexnet_w1_mlp_simclrhn_probe1,1,501,NaN,bird,bird,60,0501_ps_dnn_60_bird_10_n01843383_10059.png,n01843383_10059.png,1.0,-2.2122326,-2.3803797,0.118897945
alexnet_w1_mlp_simclrhn_probe1,1,502,NaN,bicycle,bicycle,0,0502_ps_dnn_0_bicycle_10_n03792782_11824.png,n03792782_11824.png,1.0,6.5084686,-0.6713376,5.07689
alexnet_w1_mlp_simclrhn_probe1,1,503,NaN,bird,bird,30,0503_ps_dnn_30_bird_10_n01532829_2492.png,n01532829_2492.png,1.0,-0.6813433,-3.2088675,1.7872295
alexnet_w1_mlp_simclrhn_probe1,1,504,NaN,bottle,bottle,0,0504_ps_dnn_0_bottle_10_n04579145_5621.png,n04579145_5621.png,1.0,3.9474595,-4.3590727,5.8736053
alexnet_w1_mlp_simclrhn_probe1,1,505,NaN,bear,truck,150,0505_ps_dnn_150_truck_10_n03417042_6250.png,n03417042_6250.png,0.0,-11.144615,-1.852936,-6.5702095
alexnet_w1_mlp_simclrhn_probe1,1,506,NaN,bear,dog,90,0506_ps_dnn_90_dog_10_n02108551_14704.png,n02108551_14704.png,0.0,-2.465828,0.9053217,-2.3837628
alexnet_w1_mlp_simclrhn_probe1,1,507,NaN,boat,boat,30,0507_ps_dnn_30_boat_10_n04612504_8407.png,n04612504_8407.png,1.0,5.986764,-1.1802068,5.067814
alexnet_w1_mlp_simclrhn_probe1,1,508,NaN,knife,car,120,0508_ps_dnn_120_car_10_n03100240_14794.png,n03100240_14794.png,0.0,-10.308538,-2.2919338,-5.6685953
alexnet_w1_mlp_simclrhn_probe1,1,509,NaN,oven,dog,60,0509_ps_dnn_60_dog_10_n02097658_759.png,n02097658_759.png,0.0,-3.1030765,0.9205477,-2.845132
alexnet_w1_mlp_simclrhn_probe1,1,510,NaN,bear,oven,90,0510_ps_dnn_90_oven_10_n04111531_5965.png,n04111531_5965.png,0.0,-1.7218797,-0.3135547,-0.99583614
alexnet_w1_mlp_simclrhn_probe1,1,511,NaN,knife,elephant,180,0511_ps_dnn_180_elephant_10_n02504013_6984.png,n02504013_6984.png,0.0,-2.9354005,-1.8986033,-0.73312634
alexnet_w1_mlp_simclrhn_probe1,1,512,NaN,bear,oven,180,0512_ps_dnn_180_oven_10_n04111531_6695.png,n04111531_6695.png,0.0,-3.2074199,-2.9903507,-0.15349106
alexnet_w1_mlp_simclrhn_probe1,1,513,NaN,bear,bird,60,0513_ps_dnn_60_bird_10_n02037110_4572.png,n02037110_4572.png,0.0,-1.6567295,-1.1090598,-0.38726094
alexnet_w1_mlp_simclrhn_probe1,1,514,NaN,oven,truck,30,0514_ps_dnn_30_truck_10_n03796401_11628.png,n03796401_11628.png,0.0,-2.5117311,-0.05142398,-1.7396998
alexnet_w1_mlp_simclrhn_probe1,1,515,NaN,bear,chair,180,0515_ps_dnn_180_chair_10_n02791124_1258.png,n02791124_1258.png,0.0,-7.887786,-2.1103122,-4.085291
alexnet_w1_mlp_simclrhn_probe1,1,516,NaN,bicycle,knife,0,0516_ps_dnn_0_knife_10_n03041632_62810.png,n03041632_62810.png,0.0,-3.2218366,-1.1556492,-1.4610151
alexnet_w1_mlp_simclrhn_probe1,1,517,NaN,oven,bird,90,0517_ps_dnn_90_bird_10_n01819313_2770.png,n01819313_2770.png,0.0,-4.059155,-0.94806033,-2.1998763
alexnet_w1_mlp_simclrhn_probe1,1,518,NaN,bicycle,bicycle,60,0518_ps_dnn_60_bicycle_10_n02835271_25519.png,n02835271_25519.png,1.0,0.47117895,-3.2993903,2.6661952
alexnet_w1_mlp_simclrhn_probe1,1,519,NaN,boat,boat,0,0519_ps_dnn_0_boat_10_n03662601_23248.png,n03662601_23248.png,1.0,9.541976,1.8460934,5.441811
alexnet_w1_mlp_simclrhn_probe1,1,520,NaN,oven,elephant,120,0520_ps_dnn_120_elephant_10_n02504013_1784.png,n02504013_1784.png,0.0,-2.6801932,-1.0560133,-1.1484686
alexnet_w1_mlp_simclrhn_probe1,1,521,NaN,bear,cat,150,0521_ps_dnn_150_cat_10_n02123394_270.png,n02123394_270.png,0.0,-3.503087,-1.3952528,-1.490464
alexnet_w1_mlp_simclrhn_probe1,1,522,NaN,dog,dog,30,0522_ps_dnn_30_dog_10_n02093647_1022.png,n02093647_1022.png,1.0,1.6435748,0.043724656,1.1312649
alexnet_w1_mlp_simclrhn_probe1,1,523,NaN,boat,boat,30,0523_ps_dnn_30_boat_10_n03662601_4881.png,n03662601_4881.png,1.0,2.3329887,-0.1868688,1.7818085
alexnet_w1_mlp_simclrhn_probe1,1,524,NaN,oven,knife,60,0524_ps_dnn_60_knife_10_n03041632_8321.png,n03041632_8321.png,0.0,-2.1121001,-1.0959488,-0.7185275
alexnet_w1_mlp_simclrhn_probe1,1,525,NaN,bear,car,120,0525_ps_dnn_120_car_10_n02814533_60400.png,n02814533_60400.png,0.0,-9.374904,-1.0185201,-5.9088554
alexnet_w1_mlp_simclrhn_probe1,1,526,NaN,bear,cat,150,0526_ps_dnn_150_cat_10_n02123597_3280.png,n02123597_3280.png,0.0,-1.7758096,-1.2456915,-0.37485012
alexnet_w1_mlp_simclrhn_probe1,1,527,NaN,bear,dog,150,0527_ps_dnn_150_dog_10_n02110063_3399.png,n02110063_3399.png,0.0,-3.2369153,-0.84274787,-1.692932
alexnet_w1_mlp_simclrhn_probe1,1,528,NaN,bear,bear,0,0528_ps_dnn_0_bear_10_n02132136_3109.png,n02132136_3109.png,1.0,3.5509076,-0.09389764,2.5772665
alexnet_w1_mlp_simclrhn_probe1,1,529,NaN,bear,bear,0,0529_ps_dnn_0_bear_10_n02134084_16632.png,n02134084_16632.png,1.0,3.0137458,-0.5339418,2.508594
alexnet_w1_mlp_simclrhn_probe1,1,530,NaN,knife,bottle,150,0530_ps_dnn_150_bottle_10_n04591713_5851.png,n04591713_5851.png,0.0,-4.0299535,-3.3115249,-0.50800574
alexnet_w1_mlp_simclrhn_probe1,1,531,NaN,oven,knife,0,0531_ps_dnn_0_knife_10_n03041632_29961.png,n03041632_29961.png,0.0,-1.8016403,-0.30694893,-1.0569065
alexnet_w1_mlp_simclrhn_probe1,1,532,NaN,knife,knife,30,0532_ps_dnn_30_knife_10_n03041632_10140.png,n03041632_10140.png,1.0,-1.5427005,-5.5585046,2.8396025
alexnet_w1_mlp_simclrhn_probe1,1,533,NaN,knife,airplane,180,0533_ps_dnn_180_airplane_10_n02690373_8765.png,n02690373_8765.png,0.0,-9.796195,-0.73052883,-6.410394
alexnet_w1_mlp_simclrhn_probe1,1,534,NaN,oven,knife,120,0534_ps_dnn_120_knife_10_n03041632_16826.png,n03041632_16826.png,0.0,-2.2367947,-0.83502203,-0.991203
alexnet_w1_mlp_simclrhn_probe1,1,535,NaN,oven,chair,30,0535_ps_dnn_30_chair_10_n04429376_21089.png,n04429376_21089.png,0.0,-2.1516697,-1.068402,-0.76598597
alexnet_w1_mlp_simclrhn_probe1,1,536,NaN,bear,bear,60,0536_ps_dnn_60_bear_10_n02134084_15118.png,n02134084_15118.png,1.0,2.3088279,1.6494952,0.4662186
alexnet_w1_mlp_simclrhn_probe1,1,537,NaN,oven,car,120,0537_ps_dnn_120_car_10_n04285008_3884.png,n04285008_3884.png,0.0,-8.213813,-1.5458031,-4.714995
alexnet_w1_mlp_simclrhn_probe1,1,538,NaN,knife,boat,150,0538_ps_dnn_150_boat_10_n04273569_1576.png,n04273569_1576.png,0.0,-4.094514,-1.2991192,-1.9766426
alexnet_w1_mlp_simclrhn_probe1,1,539,NaN,oven,bicycle,120,0539_ps_dnn_120_bicycle_10_n03792782_4600.png,n03792782_4600.png,0.0,-3.0512886,-1.2623355,-1.2649809
alexnet_w1_mlp_simclrhn_probe1,1,540,NaN,keyboard,clock,30,0540_ps_dnn_30_clock_10_n03196217_4537.png,n03196217_4537.png,0.0,2.1103904,2.1249065,-0.010264443
alexnet_w1_mlp_simclrhn_probe1,1,541,NaN,airplane,airplane,60,0541_ps_dnn_60_airplane_10_n02690373_10203.png,n02690373_10203.png,1.0,0.6338852,0.5638116,0.04954952
alexnet_w1_mlp_simclrhn_probe1,1,542,NaN,truck,truck,30,0542_ps_dnn_30_truck_10_n04467665_48875.png,n04467665_48875.png,1.0,1.9628527,0.63902813,0.9360854
alexnet_w1_mlp_simclrhn_probe1,1,543,NaN,oven,car,60,0543_ps_dnn_60_car_10_n02814533_38071.png,n02814533_38071.png,0.0,-1.1858364,-0.36118698,-0.5831152
alexnet_w1_mlp_simclrhn_probe1,1,544,NaN,bicycle,bear,90,0544_ps_dnn_90_bear_10_n02133161_160.png,n02133161_160.png,0.0,-4.1200857,-1.9429493,-1.5394679
alexnet_w1_mlp_simclrhn_probe1,1,545,NaN,truck,car,30,0545_ps_dnn_30_car_10_n02814533_40344.png,n02814533_40344.png,0.0,-0.48428378,1.602279,-1.4754226
alexnet_w1_mlp_simclrhn_probe1,1,546,NaN,bear,oven,180,0546_ps_dnn_180_oven_10_n04111531_9026.png,n04111531_9026.png,0.0,-3.9076328,-1.9558854,-1.3800938
alexnet_w1_mlp_simclrhn_probe1,1,547,NaN,cat,cat,0,0547_ps_dnn_0_cat_10_n02123597_13755.png,n02123597_13755.png,1.0,-1.0654927,-2.221985,0.8177636
alexnet_w1_mlp_simclrhn_probe1,1,548,NaN,knife,car,150,0548_ps_dnn_150_car_10_n02814533_39485.png,n02814533_39485.png,0.0,-10.830364,-1.9025773,-6.3128986
alexnet_w1_mlp_simclrhn_probe1,1,549,NaN,knife,bottle,90,0549_ps_dnn_90_bottle_10_n03937543_4512.png,n03937543_4512.png,0.0,-2.3111343,-0.94212186,-0.968038
alexnet_w1_mlp_simclrhn_probe1,1,550,NaN,bear,cat,120,0550_ps_dnn_120_cat_10_n02124075_2402.png,n02124075_2402.png,0.0,-3.2029994,-1.5117202,-1.195915
alexnet_w1_mlp_simclrhn_probe1,1,551,NaN,elephant,bird,0,0551_ps_dnn_0_bird_10_n02056570_9835.png,n02056570_9835.png,0.0,-2.7133675,-1.4018186,-0.92740506
alexnet_w1_mlp_simclrhn_probe1,1,552,NaN,knife,clock,120,0552_ps_dnn_120_clock_10_n04548280_13247.png,n04548280_13247.png,0.0,-3.4175346,-2.080475,-0.94544387
alexnet_w1_mlp_simclrhn_probe1,1,553,NaN,oven,truck,60,0553_ps_dnn_60_truck_10_n03417042_173.png,n03417042_173.png,0.0,-1.763508,2.3171434,-2.8854563
alexnet_w1_mlp_simclrhn_probe1,1,554,NaN,knife,airplane,180,0554_ps_dnn_180_airplane_10_n02690373_1592.png,n02690373_1592.png,0.0,-9.722436,-1.4686854,-5.836283
alexnet_w1_mlp_simclrhn_probe1,1,555,NaN,elephant,elephant,0,0555_ps_dnn_0_elephant_10_n02504013_1953.png,n02504013_1953.png,1.0,9.413427,1.2798914,5.751279
alexnet_w1_mlp_simclrhn_probe1,1,556,NaN,knife,elephant,150,0556_ps_dnn_150_elephant_10_n02504458_4348.png,n02504458_4348.png,0.0,-3.446886,-1.8610299,-1.1213697
alexnet_w1_mlp_simclrhn_probe1,1,557,NaN,knife,airplane,90,0557_ps_dnn_90_airplane_10_n02690373_1854.png,n02690373_1854.png,0.0,-11.530832,-1.1884432,-7.313174
alexnet_w1_mlp_simclrhn_probe1,1,558,NaN,bear,cat,180,0558_ps_dnn_180_cat_10_n02124075_14363.png,n02124075_14363.png,0.0,-2.7762196,-0.82982695,-1.3763075
alexnet_w1_mlp_simclrhn_probe1,1,559,NaN,bottle,bottle,30,0559_ps_dnn_30_bottle_10_n03983396_3377.png,n03983396_3377.png,1.0,0.7635084,-0.5760946,0.9472423
alexnet_w1_mlp_simclrhn_probe1,1,560,NaN,clock,clock,90,0560_ps_dnn_90_clock_10_n04548280_6743.png,n04548280_6743.png,1.0,-1.4702501,-2.501878,0.7294711
alexnet_w1_mlp_simclrhn_probe1,1,561,NaN,clock,clock,30,0561_ps_dnn_30_clock_10_n03196217_8034.png,n03196217_8034.png,1.0,-0.2160554,-0.8443812,0.44429347
alexnet_w1_mlp_simclrhn_probe1,1,562,NaN,bear,dog,150,0562_ps_dnn_150_dog_10_n02088094_13992.png,n02088094_13992.png,0.0,-5.486011,-1.3394139,-2.932087
alexnet_w1_mlp_simclrhn_probe1,1,563,NaN,car,car,30,0563_ps_dnn_30_car_10_n03100240_6216.png,n03100240_6216.png,1.0,4.9598303,2.2054439,1.9476453
alexnet_w1_mlp_simclrhn_probe1,1,564,NaN,oven,oven,30,0564_ps_dnn_30_oven_10_n04111531_2831.png,n04111531_2831.png,1.0,2.1703029,-2.2922559,3.1555057
alexnet_w1_mlp_simclrhn_probe1,1,565,NaN,knife,knife,0,0565_ps_dnn_0_knife_10_n03041632_927.png,n03041632_927.png,1.0,3.6698067,-2.670637,4.483371
alexnet_w1_mlp_simclrhn_probe1,1,566,NaN,bear,knife,150,0566_ps_dnn_150_knife_10_n03041632_5427.png,n03041632_5427.png,0.0,-4.063687,-2.5099077,-1.0986878
alexnet_w1_mlp_simclrhn_probe1,1,567,NaN,knife,cat,180,0567_ps_dnn_180_cat_10_n02123045_8690.png,n02123045_8690.png,0.0,-4.906442,-2.1545224,-1.9459012
alexnet_w1_mlp_simclrhn_probe1,1,568,NaN,clock,clock,90,0568_ps_dnn_90_clock_10_n02708093_6696.png,n02708093_6696.png,1.0,-0.9326603,-2.8347752,1.3449984
alexnet_w1_mlp_simclrhn_probe1,1,569,NaN,airplane,airplane,60,0569_ps_dnn_60_airplane_10_n02690373_7748.png,n02690373_7748.png,1.0,4.836361,1.5356874,2.3339286
alexnet_w1_mlp_simclrhn_probe1,1,570,NaN,airplane,airplane,0,0570_ps_dnn_0_airplane_10_n02690373_20011.png,n02690373_20011.png,1.0,1.4469354,-1.1907029,1.865092
alexnet_w1_mlp_simclrhn_probe1,1,571,NaN,knife,boat,150,0571_ps_dnn_150_boat_10_n02951358_16728.png,n02951358_16728.png,0.0,-3.6725984,-1.3024564,-1.6759435
alexnet_w1_mlp_simclrhn_probe1,1,572,NaN,airplane,truck,60,0572_ps_dnn_60_truck_10_n04467665_37833.png,n04467665_37833.png,0.0,0.5241512,1.9404855,-1.0014995
alexnet_w1_mlp_simclrhn_probe1,1,573,NaN,oven,oven,0,0573_ps_dnn_0_oven_10_n04111531_22886.png,n04111531_22886.png,1.0,-0.73210454,-1.3197279,0.41551247
alexnet_w1_mlp_simclrhn_probe1,1,574,NaN,car,car,30,0574_ps_dnn_30_car_10_n04285008_5959.png,n04285008_5959.png,1.0,7.34849,2.5523226,3.3914025
alexnet_w1_mlp_simclrhn_probe1,1,575,NaN,elephant,boat,120,0575_ps_dnn_120_boat_10_n04273569_10840.png,n04273569_10840.png,0.0,-6.660492,-2.1837416,-3.1655407
alexnet_w1_mlp_simclrhn_probe1,1,576,NaN,bear,clock,180,0576_ps_dnn_180_clock_10_n02708093_1352.png,n02708093_1352.png,0.0,-3.5803516,-1.3164773,-1.6008009
alexnet_w1_mlp_simclrhn_probe1,1,577,NaN,bear,oven,120,0577_ps_dnn_120_oven_10_n04111531_1004.png,n04111531_1004.png,0.0,-3.3453622,-2.176187,-0.8267317
alexnet_w1_mlp_simclrhn_probe1,1,578,NaN,elephant,car,180,0578_ps_dnn_180_car_10_n03100240_4619.png,n03100240_4619.png,0.0,-6.8525443,-1.6803259,-3.6573107
alexnet_w1_mlp_simclrhn_probe1,1,579,NaN,knife,oven,180,0579_ps_dnn_180_oven_10_n04111531_15367.png,n04111531_15367.png,0.0,-2.6539257,-1.5589483,-0.77426594
alexnet_w1_mlp_simclrhn_probe1,1,580,NaN,oven,oven,30,0580_ps_dnn_30_oven_10_n04111531_6903.png,n04111531_6903.png,1.0,1.4057138,-2.8700674,3.023434
alexnet_w1_mlp_simclrhn_probe1,1,581,NaN,oven,oven,60,0581_ps_dnn_60_oven_10_n04111531_1662.png,n04111531_1662.png,1.0,2.0333636,-0.45268902,1.7579046
alexnet_w1_mlp_simclrhn_probe1,1,582,NaN,keyboard,keyboard,0,0582_ps_dnn_0_keyboard_10_n04505470_1342.png,n04505470_1342.png,1.0,8.143626,-2.534222,7.550379
alexnet_w1_mlp_simclrhn_probe1,1,583,NaN,boat,boat,60,0583_ps_dnn_60_boat_10_n02951358_1911.png,n02951358_1911.png,1.0,-0.52887344,-0.8655436,0.23806176
alexnet_w1_mlp_simclrhn_probe1,1,584,NaN,bicycle,bicycle,30,0584_ps_dnn_30_bicycle_10_n03792782_42927.png,n03792782_42927.png,1.0,3.6225958,-2.6080298,4.405718
alexnet_w1_mlp_simclrhn_probe1,1,585,NaN,bear,chair,180,0585_ps_dnn_180_chair_10_n02791124_3994.png,n02791124_3994.png,0.0,-6.4979944,-1.5155034,-3.5231533
alexnet_w1_mlp_simclrhn_probe1,1,586,NaN,dog,dog,0,0586_ps_dnn_0_dog_10_n02101388_1383.png,n02101388_1383.png,1.0,4.2961183,-2.8842275,5.077271
alexnet_w1_mlp_simclrhn_probe1,1,587,NaN,clock,bear,30,0587_ps_dnn_30_bear_10_n02132136_9367.png,n02132136_9367.png,0.0,-7.4493446,-6.0744195,-0.97221893
alexnet_w1_mlp_simclrhn_probe1,1,588,NaN,knife,dog,150,0588_ps_dnn_150_dog_10_n02108915_7875.png,n02108915_7875.png,0.0,-3.1473265,-1.9688011,-0.83334327
alexnet_w1_mlp_simclrhn_probe1,1,589,NaN,oven,chair,60,0589_ps_dnn_60_chair_10_n02791124_6237.png,n02791124_6237.png,0.0,-2.9851592,-2.2020237,-0.55376035
alexnet_w1_mlp_simclrhn_probe1,1,590,NaN,cat,bird,60,0590_ps_dnn_60_bird_10_n01622779_13896.png,n01622779_13896.png,0.0,-9.160642,-1.8356447,-5.179555
alexnet_w1_mlp_simclrhn_probe1,1,591,NaN,knife,boat,30,0591_ps_dnn_30_boat_10_n04273569_15583.png,n04273569_15583.png,0.0,-2.703938,-2.0635679,-0.45281008
alexnet_w1_mlp_simclrhn_probe1,1,592,NaN,knife,bottle,0,0592_ps_dnn_0_bottle_10_n03937543_3079.png,n03937543_3079.png,0.0,-1.6656611,0.39577174,-1.4576532
alexnet_w1_mlp_simclrhn_probe1,1,593,NaN,oven,dog,150,0593_ps_dnn_150_dog_10_n02110063_5687.png,n02110063_5687.png,0.0,-5.6389327,-3.036171,-1.8404305
alexnet_w1_mlp_simclrhn_probe1,1,594,NaN,truck,truck,30,0594_ps_dnn_30_truck_10_n03417042_6685.png,n03417042_6685.png,1.0,0.4169497,-2.651314,2.1695902
alexnet_w1_mlp_simclrhn_probe1,1,595,NaN,clock,clock,0,0595_ps_dnn_0_clock_10_n02708093_340.png,n02708093_340.png,1.0,5.3870125,-1.2895687,4.721056
alexnet_w1_mlp_simclrhn_probe1,1,596,NaN,dog,dog,0,0596_ps_dnn_0_dog_10_n02111129_5463.png,n02111129_5463.png,1.0,2.939157,0.7995267,1.5129471
alexnet_w1_mlp_simclrhn_probe1,1,597,NaN,bicycle,bicycle,90,0597_ps_dnn_90_bicycle_10_n03792782_17503.png,n03792782_17503.png,1.0,0.5685527,-1.6813755,1.5909395
alexnet_w1_mlp_simclrhn_probe1,1,598,NaN,bear,bear,60,0598_ps_dnn_60_bear_10_n02134084_9253.png,n02134084_9253.png,1.0,-1.0000992,-1.802416,0.5673236
alexnet_w1_mlp_simclrhn_probe1,1,599,NaN,bicycle,car,30,0599_ps_dnn_30_car_10_n04285008_3688.png,n04285008_3688.png,0.0,-0.80773234,-0.60717213,-0.1418175
alexnet_w1_mlp_simclrhn_probe1,1,600,NaN,knife,bird,150,0600_ps_dnn_150_bird_10_n01795545_17324.png,n01795545_17324.png,0.0,-3.0149505,-1.2421849,-1.2535347
alexnet_w1_mlp_simclrhn_probe1,1,601,NaN,boat,boat,30,0601_ps_dnn_30_boat_10_n04273569_16064.png,n04273569_16064.png,1.0,4.6517334,0.18001482,3.1619828
alexnet_w1_mlp_simclrhn_probe1,1,602,NaN,knife,elephant,180,0602_ps_dnn_180_elephant_10_n02504458_4395.png,n02504458_4395.png,0.0,-2.9494376,-1.4430919,-1.0651473
alexnet_w1_mlp_simclrhn_probe1,1,603,NaN,oven,oven,30,0603_ps_dnn_30_oven_10_n04111531_21855.png,n04111531_21855.png,1.0,6.6199417,-2.475264,6.4312816
alexnet_w1_mlp_simclrhn_probe1,1,604,NaN,oven,oven,30,0604_ps_dnn_30_oven_10_n04111531_11225.png,n04111531_11225.png,1.0,3.6850488,-1.9217871,3.9646318
alexnet_w1_mlp_simclrhn_probe1,1,605,NaN,bear,oven,150,0605_ps_dnn_150_oven_10_n04111531_13486.png,n04111531_13486.png,0.0,-3.147739,-1.7669909,-0.9763363
alexnet_w1_mlp_simclrhn_probe1,1,606,NaN,chair,chair,0,0606_ps_dnn_0_chair_10_n02791124_1693.png,n02791124_1693.png,1.0,1.3041775,-0.5495895,1.3108113
alexnet_w1_mlp_simclrhn_probe1,1,607,NaN,bear,chair,150,0607_ps_dnn_150_chair_10_n04099969_26462.png,n04099969_26462.png,0.0,-7.0266495,-2.1206312,-3.4690788
alexnet_w1_mlp_simclrhn_probe1,1,608,NaN,bear,chair,120,0608_ps_dnn_120_chair_10_n04429376_16869.png,n04429376_16869.png,0.0,-7.318968,-1.222671,-4.310733
alexnet_w1_mlp_simclrhn_probe1,1,609,NaN,knife,bottle,0,0609_ps_dnn_0_bottle_10_n03983396_23471.png,n03983396_23471.png,0.0,-4.494739,-0.9526961,-2.5046027
alexnet_w1_mlp_simclrhn_probe1,1,610,NaN,bear,bear,0,0610_ps_dnn_0_bear_10_n02134084_5314.png,n02134084_5314.png,1.0,0.5720767,-1.240155,1.2814413
alexnet_w1_mlp_simclrhn_probe1,1,611,NaN,bear,elephant,180,0611_ps_dnn_180_elephant_10_n02504458_4564.png,n02504458_4564.png,0.0,-3.4748423,-2.0903428,-0.97898906
alexnet_w1_mlp_simclrhn_probe1,1,612,NaN,bear,bear,0,0612_ps_dnn_0_bear_10_n02132136_6967.png,n02132136_6967.png,1.0,6.438732,5.2523413,0.83890504
alexnet_w1_mlp_simclrhn_probe1,1,613,NaN,cat,cat,0,0613_ps_dnn_0_cat_10_n02123394_6517.png,n02123394_6517.png,1.0,2.6781769,-1.3002923,2.8132026
alexnet_w1_mlp_simclrhn_probe1,1,614,NaN,knife,keyboard,150,0614_ps_dnn_150_keyboard_10_n04505470_1076.png,n04505470_1076.png,0.0,-3.2202876,-2.1018865,-0.790829
alexnet_w1_mlp_simclrhn_probe1,1,615,NaN,bear,knife,180,0615_ps_dnn_180_knife_10_n03041632_5916.png,n03041632_5916.png,0.0,-2.7901511,-1.3878845,-0.99155223
alexnet_w1_mlp_simclrhn_probe1,1,616,NaN,elephant,car,90,0616_ps_dnn_90_car_10_n03100240_4674.png,n03100240_4674.png,0.0,-5.660129,-0.45292112,-3.6820524
alexnet_w1_mlp_simclrhn_probe1,1,617,NaN,bottle,bottle,90,0617_ps_dnn_90_bottle_10_n02823428_1602.png,n02823428_1602.png,1.0,-0.49046233,-2.201983,1.2102278
alexnet_w1_mlp_simclrhn_probe1,1,618,NaN,oven,boat,90,0618_ps_dnn_90_boat_10_n04273569_27343.png,n04273569_27343.png,0.0,-3.4662185,-2.6346297,-0.58802205
alexnet_w1_mlp_simclrhn_probe1,1,619,NaN,bear,bottle,120,0619_ps_dnn_120_bottle_10_n04560804_15162.png,n04560804_15162.png,0.0,-4.407651,-1.8172672,-1.8316779
alexnet_w1_mlp_simclrhn_probe1,1,620,NaN,knife,bottle,120,0620_ps_dnn_120_bottle_10_n03937543_24.png,n03937543_24.png,0.0,-2.786752,-1.9444981,-0.5955635
alexnet_w1_mlp_simclrhn_probe1,1,621,NaN,bear,dog,180,0621_ps_dnn_180_dog_10_n02105162_9615.png,n02105162_9615.png,0.0,-3.2949505,-1.1789643,-1.4962283
alexnet_w1_mlp_simclrhn_probe1,1,622,NaN,elephant,bird,150,0622_ps_dnn_150_bird_10_n01582220_1150.png,n01582220_1150.png,0.0,-2.9248097,-1.8457761,-0.762992
alexnet_w1_mlp_simclrhn_probe1,1,623,NaN,bear,clock,180,0623_ps_dnn_180_clock_10_n04548280_4560.png,n04548280_4560.png,0.0,-5.17066,-2.743455,-1.7162932
alexnet_w1_mlp_simclrhn_probe1,1,624,NaN,knife,bottle,150,0624_ps_dnn_150_bottle_10_n04560804_14605.png,n04560804_14605.png,0.0,-4.1734157,-2.4416628,-1.2245343
alexnet_w1_mlp_simclrhn_probe1,1,625,NaN,chair,chair,0,0625_ps_dnn_0_chair_10_n03376595_262.png,n03376595_262.png,1.0,0.8051106,-2.4523497,2.3033721
alexnet_w1_mlp_simclrhn_probe1,1,626,NaN,bear,dog,180,0626_ps_dnn_180_dog_10_n02091032_6523.png,n02091032_6523.png,0.0,-2.9592028,-0.97291696,-1.4045162
alexnet_w1_mlp_simclrhn_probe1,1,627,NaN,bear,cat,150,0627_ps_dnn_150_cat_10_n02123159_615.png,n02123159_615.png,0.0,-2.9971087,-1.3234828,-1.1834322
alexnet_w1_mlp_simclrhn_probe1,1,628,NaN,knife,bottle,180,0628_ps_dnn_180_bottle_10_n04579145_6049.png,n04579145_6049.png,0.0,-3.2554414,-2.6214964,-0.4482668
alexnet_w1_mlp_simclrhn_probe1,1,629,NaN,keyboard,bottle,90,0629_ps_dnn_90_bottle_10_n02823428_4386.png,n02823428_4386.png,0.0,-5.34855,-0.6843915,-3.298058
alexnet_w1_mlp_simclrhn_probe1,1,630,NaN,bear,car,150,0630_ps_dnn_150_car_10_n03100240_4594.png,n03100240_4594.png,0.0,-11.658051,-3.0714078,-6.071674
alexnet_w1_mlp_simclrhn_probe1,1,631,NaN,knife,knife,120,0631_ps_dnn_120_knife_10_n03041632_51581.png,n03041632_51581.png,1.0,0.097122535,-2.7392788,2.0056386
alexnet_w1_mlp_simclrhn_probe1,1,632,NaN,keyboard,keyboard,60,0632_ps_dnn_60_keyboard_10_n03085013_15836.png,n03085013_15836.png,1.0,-1.1901892,-1.7698176,0.40985915
alexnet_w1_mlp_simclrhn_probe1,1,633,NaN,elephant,bicycle,180,0633_ps_dnn_180_bicycle_10_n03792782_34197.png,n03792782_34197.png,0.0,-4.32823,-2.2046518,-1.5015965
alexnet_w1_mlp_simclrhn_probe1,1,634,NaN,knife,bicycle,180,0634_ps_dnn_180_bicycle_10_n02835271_9314.png,n02835271_9314.png,0.0,-6.5162263,-0.7983167,-4.043173
alexnet_w1_mlp_simclrhn_probe1,1,635,NaN,knife,oven,150,0635_ps_dnn_150_oven_10_n04111531_5643.png,n04111531_5643.png,0.0,-2.6981313,-1.6704797,-0.7266595
alexnet_w1_mlp_simclrhn_probe1,1,636,NaN,bear,cat,180,0636_ps_dnn_180_cat_10_n02123394_6362.png,n02123394_6362.png,0.0,-2.6464956,-1.1427779,-1.0632889
alexnet_w1_mlp_simclrhn_probe1,1,637,NaN,elephant,elephant,60,0637_ps_dnn_60_elephant_10_n02504458_3614.png,n02504458_3614.png,1.0,4.8585577,-0.058870554,3.4771469
alexnet_w1_mlp_simclrhn_probe1,1,638,NaN,bear,chair,180,0638_ps_dnn_180_chair_10_n04099969_6691.png,n04099969_6691.png,0.0,-6.9113655,-2.210353,-3.324118
alexnet_w1_mlp_simclrhn_probe1,1,639,NaN,bear,dog,60,0639_ps_dnn_60_dog_10_n02104365_1262.png,n02104365_1262.png,0.0,-3.214465,1.3969208,-3.2607422
