subj,session,trial,rt,object_response,category,condition,imagename,filename,is_correct,targ_act,max_nontarg_act,decision_margin
bagnet33,1,1,NaN,truck,truck,30,0001_ps_dnn_30_truck_10_n03417042_14861.png,n03417042_14861.png,1.0,14.325634,7.383437,4.9088745
bagnet33,1,2,NaN,keyboard,keyboard,0,0002_ps_dnn_0_keyboard_10_n03085013_25476.png,n03085013_25476.png,1.0,23.380741,4.306414,13.487587
bagnet33,1,3,NaN,elephant,elephant,0,0003_ps_dnn_0_elephant_10_n02504013_3087.png,n02504013_3087.png,1.0,13.454395,4.064327,6.639781
bagnet33,1,4,NaN,bear,cat,30,0004_ps_dnn_30_cat_10_n02123394_4633.png,n02123394_4633.png,0.0,7.498489,7.6684093,-0.1201519
bagnet33,1,5,NaN,knife,knife,120,0005_ps_dnn_120_knife_10_n03041632_48151.png,n03041632_48151.png,1.0,5.468557,3.8626316,1.1355608
bagnet33,1,6,NaN,bicycle,bicycle,60,0006_ps_dnn_60_bicycle_10_n02835271_1075.png,n02835271_1075.png,1.0,10.525543,2.9850123,5.3319607
bagnet33,1,7,NaN,knife,bear,180,0007_ps_dnn_180_bear_10_n02134084_10289.png,n02134084_10289.png,0.0,-0.3054885,4.5939345,-3.4644153
bagnet33,1,8,NaN,keyboard,keyboard,0,0008_ps_dnn_0_keyboard_10_n03085013_21967.png,n03085013_21967.png,1.0,23.41114,6.915188,11.6644
bagnet33,1,9,NaN,knife,oven,150,0009_ps_dnn_150_oven_10_n04111531_5737.png,n04111531_5737.png,0.0,-0.17612913,1.9187826,-1.4813263
bagnet33,1,10,NaN,elephant,elephant,60,0010_ps_dnn_60_elephant_10_n02504458_8141.png,n02504458_8141.png,1.0,4.972747,3.2334123,1.2298954
bagnet33,1,11,NaN,elephant,elephant,90,0011_ps_dnn_90_elephant_10_n02504458_3153.png,n02504458_3153.png,1.0,6.97586,2.5241258,3.1478517
bagnet33,1,12,NaN,bear,bear,60,0012_ps_dnn_60_bear_10_n02134418_5807.png,n02134418_5807.png,1.0,4.503356,3.7611287,0.524834
bagnet33,1,13,NaN,airplane,boat,0,0013_ps_dnn_0_boat_10_n04273569_15322.png,n04273569_15322.png,0.0,6.605221,9.548677,-2.0813382
bagnet33,1,14,NaN,oven,knife,0,0014_ps_dnn_0_knife_10_n03041632_42526.png,n03041632_42526.png,0.0,2.1346703,6.400095,-3.016111
bagnet33,1,15,NaN,bicycle,bicycle,30,0015_ps_dnn_30_bicycle_10_n02835271_5886.png,n02835271_5886.png,1.0,5.5184765,3.6291468,1.3359579
bagnet33,1,16,NaN,knife,dog,180,0016_ps_dnn_180_dog_10_n02110063_869.png,n02110063_869.png,0.0,-0.07013688,1.3097885,-0.9757546
bagnet33,1,17,NaN,knife,bicycle,180,0017_ps_dnn_180_bicycle_10_n03792782_3334.png,n03792782_3334.png,0.0,0.99952596,1.7089776,-0.5016581
bagnet33,1,18,NaN,airplane,airplane,0,0018_ps_dnn_0_airplane_10_n02690373_7355.png,n02690373_7355.png,1.0,23.642845,6.197487,12.3357315
bagnet33,1,19,NaN,bear,bird,120,0019_ps_dnn_120_bird_10_n01798484_2289.png,n01798484_2289.png,0.0,-0.9497114,2.0540557,-2.123984
bagnet33,1,20,NaN,knife,knife,60,0020_ps_dnn_60_knife_10_n03041632_87380.png,n03041632_87380.png,1.0,6.106497,1.9543765,2.9359927
bagnet33,1,21,NaN,airplane,bird,0,0021_ps_dnn_0_bird_10_n02027492_15639.png,n02027492_15639.png,0.0,0.93610144,4.0046635,-2.169801
bagnet33,1,22,NaN,knife,bird,0,0022_ps_dnn_0_bird_10_n02006656_7153.png,n02006656_7153.png,0.0,2.9865572,4.952874,-1.3903961
bagnet33,1,23,NaN,airplane,boat,60,0023_ps_dnn_60_boat_10_n04612504_14699.png,n04612504_14699.png,0.0,5.787915,7.2801676,-1.0551817
bagnet33,1,24,NaN,bear,bear,60,0024_ps_dnn_60_bear_10_n02134418_5971.png,n02134418_5971.png,1.0,5.027818,4.478991,0.38807943
bagnet33,1,25,NaN,cat,dog,90,0025_ps_dnn_90_dog_10_n02110063_16680.png,n02110063_16680.png,0.0,0.14948967,1.9328531,-1.2610284
bagnet33,1,26,NaN,airplane,car,90,0026_ps_dnn_90_car_10_n03100240_6010.png,n03100240_6010.png,0.0,1.0696312,7.205847,-4.3389597
bagnet33,1,27,NaN,elephant,elephant,30,0027_ps_dnn_30_elephant_10_n02504458_9835.png,n02504458_9835.png,1.0,4.7032757,2.043788,1.8805418
bagnet33,1,28,NaN,airplane,airplane,30,0028_ps_dnn_30_airplane_10_n02690373_10207.png,n02690373_10207.png,1.0,12.852956,4.531488,5.8841667
bagnet33,1,29,NaN,elephant,bottle,180,0029_ps_dnn_180_bottle_10_n03983396_5532.png,n03983396_5532.png,0.0,2.6916654,9.737747,-4.982332
bagnet33,1,30,NaN,dog,dog,30,0030_ps_dnn_30_dog_10_n02090622_1485.png,n02090622_1485.png,1.0,5.934955,5.8715143,0.04485942
bagnet33,1,31,NaN,knife,truck,150,0031_ps_dnn_150_truck_10_n03417042_5503.png,n03417042_5503.png,0.0,-1.194684,5.361986,-4.636266
bagnet33,1,32,NaN,airplane,bear,180,0032_ps_dnn_180_bear_10_n02133161_897.png,n02133161_897.png,0.0,0.02598326,2.0405533,-1.4245161
bagnet33,1,33,NaN,airplane,keyboard,180,0033_ps_dnn_180_keyboard_10_n04505470_4579.png,n04505470_4579.png,0.0,-1.2280487,9.571975,-7.63677
bagnet33,1,34,NaN,oven,bird,60,0034_ps_dnn_60_bird_10_n01592084_5833.png,n01592084_5833.png,0.0,0.7405037,1.8832141,-0.8080183
bagnet33,1,35,NaN,elephant,dog,0,0035_ps_dnn_0_dog_10_n02090379_3514.png,n02090379_3514.png,0.0,8.82494,9.768038,-0.6668711
bagnet33,1,36,NaN,knife,airplane,180,0036_ps_dnn_180_airplane_10_n02690373_6144.png,n02690373_6144.png,0.0,-0.64527017,7.9723015,-6.0935435
bagnet33,1,37,NaN,knife,airplane,90,0037_ps_dnn_90_airplane_10_n02690373_1436.png,n02690373_1436.png,0.0,5.5749397,7.2742987,-1.2016282
bagnet33,1,38,NaN,knife,clock,120,0038_ps_dnn_120_clock_10_n04548280_354.png,n04548280_354.png,0.0,3.8111906,6.546753,-1.9343348
bagnet33,1,39,NaN,keyboard,keyboard,0,0039_ps_dnn_0_keyboard_10_n03085013_2189.png,n03085013_2189.png,1.0,10.36565,5.147007,3.690138
bagnet33,1,40,NaN,knife,chair,120,0040_ps_dnn_120_chair_10_n04099969_9005.png,n04099969_9005.png,0.0,3.3056436,6.100279,-1.9761056
bagnet33,1,41,NaN,knife,bicycle,180,0041_ps_dnn_180_bicycle_10_n02835271_7350.png,n02835271_7350.png,0.0,0.15947828,2.6535654,-1.763586
bagnet33,1,42,NaN,knife,bottle,150,0042_ps_dnn_150_bottle_10_n04557648_8320.png,n04557648_8320.png,0.0,1.4042876,5.5177975,-2.908691
bagnet33,1,43,NaN,dog,dog,0,0043_ps_dnn_0_dog_10_n02105641_6503.png,n02105641_6503.png,1.0,3.595384,2.7439137,0.6020804
bagnet33,1,44,NaN,clock,clock,90,0044_ps_dnn_90_clock_10_n04548280_6022.png,n04548280_6022.png,1.0,6.4235153,3.1763527,2.2960906
bagnet33,1,45,NaN,keyboard,clock,60,0045_ps_dnn_60_clock_10_n03196217_7414.png,n03196217_7414.png,0.0,3.0095644,3.6694837,-0.46663338
bagnet33,1,46,NaN,knife,oven,150,0046_ps_dnn_150_oven_10_n04111531_7965.png,n04111531_7965.png,0.0,4.0014257,9.615328,-3.9696283
bagnet33,1,47,NaN,elephant,bottle,90,0047_ps_dnn_90_bottle_10_n04579145_4594.png,n04579145_4594.png,0.0,3.4748607,4.4118347,-0.66254073
bagnet33,1,48,NaN,clock,bottle,30,0048_ps_dnn_30_bottle_10_n03983396_4564.png,n03983396_4564.png,0.0,5.7163305,6.3230114,-0.42898816
bagnet33,1,49,NaN,cat,cat,60,0049_ps_dnn_60_cat_10_n02125311_54015.png,n02125311_54015.png,1.0,5.325247,2.5434966,1.9669945
bagnet33,1,50,NaN,knife,bicycle,150,0050_ps_dnn_150_bicycle_10_n03792782_5133.png,n03792782_5133.png,0.0,0.057812393,1.3490117,-0.9130157
bagnet33,1,51,NaN,knife,bird,120,0051_ps_dnn_120_bird_10_n02018207_6296.png,n02018207_6296.png,0.0,-0.17485338,3.9146843,-2.8917398
bagnet33,1,52,NaN,elephant,bird,30,0052_ps_dnn_30_bird_10_n01817953_11996.png,n01817953_11996.png,0.0,-1.5988389,4.325144,-4.1888885
bagnet33,1,53,NaN,oven,keyboard,150,0053_ps_dnn_150_keyboard_10_n03085013_3148.png,n03085013_3148.png,0.0,-1.992845,6.601837,-6.0773587
bagnet33,1,54,NaN,elephant,bear,60,0054_ps_dnn_60_bear_10_n02134418_5537.png,n02134418_5537.png,0.0,1.0417025,2.9729862,-1.3656238
bagnet33,1,55,NaN,clock,cat,150,0055_ps_dnn_150_cat_10_n02125311_11409.png,n02125311_11409.png,0.0,0.017498234,1.935627,-1.3563218
bagnet33,1,56,NaN,oven,knife,30,0056_ps_dnn_30_knife_10_n03041632_3063.png,n03041632_3063.png,0.0,2.728057,5.0197725,-1.6204877
bagnet33,1,57,NaN,bear,dog,60,0057_ps_dnn_60_dog_10_n02106550_6424.png,n02106550_6424.png,0.0,3.1753993,3.8623028,-0.4857141
bagnet33,1,58,NaN,elephant,bear,30,0058_ps_dnn_30_bear_10_n02133161_7032.png,n02133161_7032.png,0.0,3.551258,5.5755396,-1.4313833
bagnet33,1,59,NaN,clock,cat,150,0059_ps_dnn_150_cat_10_n02125311_5570.png,n02125311_5570.png,0.0,0.4265642,1.938168,-1.0688653
bagnet33,1,60,NaN,knife,bird,30,0060_ps_dnn_30_bird_10_n01843383_13894.png,n01843383_13894.png,0.0,-0.13243657,3.5470114,-2.6017625
bagnet33,1,61,NaN,airplane,bottle,60,0061_ps_dnn_60_bottle_10_n03983396_2205.png,n03983396_2205.png,0.0,1.9962004,4.2705917,-1.6082375
bagnet33,1,62,NaN,bicycle,bicycle,60,0062_ps_dnn_60_bicycle_10_n03792782_31010.png,n03792782_31010.png,1.0,7.56186,2.9333143,3.2728763
bagnet33,1,63,NaN,bottle,bottle,60,0063_ps_dnn_60_bottle_10_n02823428_880.png,n02823428_880.png,1.0,12.253045,5.296234,4.919208
bagnet33,1,64,NaN,elephant,car,180,0064_ps_dnn_180_car_10_n02814533_40459.png,n02814533_40459.png,0.0,0.232112,2.5487921,-1.6381403
bagnet33,1,65,NaN,bear,cat,120,0065_ps_dnn_120_cat_10_n02123045_567.png,n02123045_567.png,0.0,0.5628473,1.8875386,-0.9366982
bagnet33,1,66,NaN,knife,knife,120,0066_ps_dnn_120_knife_10_n03041632_24541.png,n03041632_24541.png,1.0,6.954436,3.8841183,2.1710424
bagnet33,1,67,NaN,elephant,elephant,30,0067_ps_dnn_30_elephant_10_n02504458_8644.png,n02504458_8644.png,1.0,10.934378,2.3417962,6.075873
bagnet33,1,68,NaN,keyboard,keyboard,0,0068_ps_dnn_0_keyboard_10_n03085013_2166.png,n03085013_2166.png,1.0,13.048351,8.937835,2.9065742
bagnet33,1,69,NaN,boat,boat,90,0069_ps_dnn_90_boat_10_n04273569_13972.png,n04273569_13972.png,1.0,4.6956563,3.5415697,0.81606245
bagnet33,1,70,NaN,knife,airplane,150,0070_ps_dnn_150_airplane_10_n02690373_9432.png,n02690373_9432.png,0.0,-1.1671991,2.6886725,-2.7265131
bagnet33,1,71,NaN,oven,truck,90,0071_ps_dnn_90_truck_10_n03417042_5228.png,n03417042_5228.png,0.0,2.8292089,6.022811,-2.2582178
bagnet33,1,72,NaN,airplane,airplane,0,0072_ps_dnn_0_airplane_10_n02690373_4294.png,n02690373_4294.png,1.0,13.913203,4.80486,6.4405713
bagnet33,1,73,NaN,knife,chair,30,0073_ps_dnn_30_chair_10_n04099969_52474.png,n04099969_52474.png,0.0,5.1029778,6.081126,-0.6916554
bagnet33,1,74,NaN,airplane,oven,30,0074_ps_dnn_30_oven_10_n04111531_21822.png,n04111531_21822.png,0.0,11.037085,12.041578,-0.71028435
bagnet33,1,75,NaN,airplane,oven,150,0075_ps_dnn_150_oven_10_n04111531_15735.png,n04111531_15735.png,0.0,1.1049598,7.015628,-4.1794734
bagnet33,1,76,NaN,knife,dog,120,0076_ps_dnn_120_dog_10_n02104029_7335.png,n02104029_7335.png,0.0,0.08473884,2.7790666,-1.9051775
bagnet33,1,77,NaN,knife,truck,150,0077_ps_dnn_150_truck_10_n03417042_17911.png,n03417042_17911.png,0.0,-1.6144845,3.8722177,-3.8796842
bagnet33,1,78,NaN,clock,clock,30,0078_ps_dnn_30_clock_10_n02708093_899.png,n02708093_899.png,1.0,5.4923596,3.2852352,1.5606728
bagnet33,1,79,NaN,boat,boat,60,0079_ps_dnn_60_boat_10_n03662601_9590.png,n03662601_9590.png,1.0,7.6783304,3.5472503,2.921115
bagnet33,1,80,NaN,knife,chair,90,0080_ps_dnn_90_chair_10_n02791124_6550.png,n02791124_6550.png,0.0,1.3873606,5.906349,-3.1954076
bagnet33,1,81,NaN,knife,clock,180,0081_ps_dnn_180_clock_10_n03196217_4492.png,n03196217_4492.png,0.0,2.2785857,4.31831,-1.4423028
bagnet33,1,82,NaN,car,car,30,0082_ps_dnn_30_car_10_n04285008_14128.png,n04285008_14128.png,1.0,13.267348,7.466086,4.102112
bagnet33,1,83,NaN,truck,bicycle,60,0083_ps_dnn_60_bicycle_10_n02835271_4730.png,n02835271_4730.png,0.0,2.4523635,5.886242,-2.4281187
bagnet33,1,84,NaN,elephant,elephant,0,0084_ps_dnn_0_elephant_10_n02504458_62.png,n02504458_62.png,1.0,32.031666,2.3511755,20.987276
bagnet33,1,85,NaN,airplane,dog,120,0085_ps_dnn_120_dog_10_n02086646_8144.png,n02086646_8144.png,0.0,0.57168907,3.3201897,-1.9434835
bagnet33,1,86,NaN,knife,knife,60,0086_ps_dnn_60_knife_10_n03041632_1671.png,n03041632_1671.png,1.0,8.337369,5.2801785,2.16176
bagnet33,1,87,NaN,cat,bird,180,0087_ps_dnn_180_bird_10_n01534433_10801.png,n01534433_10801.png,0.0,-0.20059451,3.971464,-2.950091
bagnet33,1,88,NaN,knife,keyboard,150,0088_ps_dnn_150_keyboard_10_n03085013_20570.png,n03085013_20570.png,0.0,-2.9080071,4.3579745,-5.137825
bagnet33,1,89,NaN,knife,knife,150,0089_ps_dnn_150_knife_10_n03041632_4808.png,n03041632_4808.png,1.0,7.353954,2.4630198,3.4584126
bagnet33,1,90,NaN,knife,keyboard,180,0090_ps_dnn_180_keyboard_10_n03085013_1808.png,n03085013_1808.png,0.0,-1.9754846,1.9324634,-2.7633367
bagnet33,1,91,NaN,knife,truck,120,0091_ps_dnn_120_truck_10_n03796401_4370.png,n03796401_4370.png,0.0,-0.83580345,5.8911004,-4.7566395
bagnet33,1,92,NaN,airplane,airplane,60,0092_ps_dnn_60_airplane_10_n02690373_6314.png,n02690373_6314.png,1.0,10.890448,5.115127,4.0837684
bagnet33,1,93,NaN,oven,oven,90,0093_ps_dnn_90_oven_10_n04111531_4879.png,n04111531_4879.png,1.0,8.242559,4.52816,2.626477
bagnet33,1,94,NaN,knife,airplane,180,0094_ps_dnn_180_airplane_10_n02690373_4375.png,n02690373_4375.png,0.0,-1.1082333,5.4153423,-4.612865
bagnet33,1,95,NaN,clock,bottle,60,0095_ps_dnn_60_bottle_10_n04557648_4133.png,n04557648_4133.png,0.0,6.9142265,7.2690244,-0.25087997
bagnet33,1,96,NaN,bicycle,bicycle,120,0096_ps_dnn_120_bicycle_10_n02835271_19213.png,n02835271_19213.png,1.0,2.0669055,1.8456473,0.15645315
bagnet33,1,97,NaN,airplane,bear,150,0097_ps_dnn_150_bear_10_n02132136_10577.png,n02132136_10577.png,0.0,1.4457588,1.7494919,-0.21477175
bagnet33,1,98,NaN,knife,airplane,90,0098_ps_dnn_90_airplane_10_n02690373_3147.png,n02690373_3147.png,0.0,0.23929751,2.1093068,-1.3222963
bagnet33,1,99,NaN,elephant,elephant,60,0099_ps_dnn_60_elephant_10_n02504013_10389.png,n02504013_10389.png,1.0,3.7626123,2.9382007,0.5829471
bagnet33,1,100,NaN,knife,chair,150,0100_ps_dnn_150_chair_10_n02791124_5685.png,n02791124_5685.png,0.0,1.0039737,4.855625,-2.7235289
bagnet33,1,101,NaN,knife,bird,60,0101_ps_dnn_60_bird_10_n01817953_6333.png,n01817953_6333.png,0.0,-3.2804537,4.167718,-5.2666526
bagnet33,1,102,NaN,knife,keyboard,90,0102_ps_dnn_90_keyboard_10_n03085013_20247.png,n03085013_20247.png,0.0,0.055079997,11.721097,-8.24912
bagnet33,1,103,NaN,airplane,airplane,0,0103_ps_dnn_0_airplane_10_n02690373_5729.png,n02690373_5729.png,1.0,21.12032,5.12846,11.307953
bagnet33,1,104,NaN,oven,bicycle,90,0104_ps_dnn_90_bicycle_10_n03792782_55532.png,n03792782_55532.png,0.0,4.3517246,6.650674,-1.6256026
bagnet33,1,105,NaN,bicycle,bicycle,0,0105_ps_dnn_0_bicycle_10_n02835271_8417.png,n02835271_8417.png,1.0,30.550694,4.082457,18.71587
bagnet33,1,106,NaN,airplane,clock,60,0106_ps_dnn_60_clock_10_n03196217_599.png,n03196217_599.png,0.0,0.88835365,2.8564184,-1.391632
bagnet33,1,107,NaN,airplane,airplane,0,0107_ps_dnn_0_airplane_10_n02690373_1952.png,n02690373_1952.png,1.0,13.27011,6.0170565,5.1286836
bagnet33,1,108,NaN,airplane,bear,180,0108_ps_dnn_180_bear_10_n02134084_23061.png,n02134084_23061.png,0.0,0.16055691,2.2739263,-1.4943779
bagnet33,1,109,NaN,knife,bicycle,150,0109_ps_dnn_150_bicycle_10_n03792782_27445.png,n03792782_27445.png,0.0,0.7794473,2.644153,-1.3185462
bagnet33,1,110,NaN,airplane,clock,30,0110_ps_dnn_30_clock_10_n03196217_6348.png,n03196217_6348.png,0.0,3.8273144,4.5271087,-0.4948293
bagnet33,1,111,NaN,knife,bear,90,0111_ps_dnn_90_bear_10_n02132136_5778.png,n02132136_5778.png,0.0,1.3921252,3.756754,-1.6720451
bagnet33,1,112,NaN,knife,boat,90,0112_ps_dnn_90_boat_10_n04273569_4772.png,n04273569_4772.png,0.0,-1.7520056,5.330348,-5.0079803
bagnet33,1,113,NaN,oven,oven,180,0113_ps_dnn_180_oven_10_n04111531_23830.png,n04111531_23830.png,1.0,5.980537,5.350086,0.44579598
bagnet33,1,114,NaN,knife,bird,150,0114_ps_dnn_150_bird_10_n01855032_1306.png,n01855032_1306.png,0.0,-0.6664292,2.088242,-1.9478468
bagnet33,1,115,NaN,elephant,elephant,60,0115_ps_dnn_60_elephant_10_n02504013_8905.png,n02504013_8905.png,1.0,4.5952435,2.8922772,1.2041789
bagnet33,1,116,NaN,knife,truck,60,0116_ps_dnn_60_truck_10_n04467665_30461.png,n04467665_30461.png,0.0,1.6214828,6.0785923,-3.1516523
bagnet33,1,117,NaN,knife,knife,60,0117_ps_dnn_60_knife_10_n03041632_20662.png,n03041632_20662.png,1.0,8.192689,3.2572167,3.489906
bagnet33,1,118,NaN,knife,boat,180,0118_ps_dnn_180_boat_10_n03662601_15915.png,n03662601_15915.png,0.0,0.7400984,5.050643,-3.0480154
bagnet33,1,119,NaN,bicycle,boat,150,0119_ps_dnn_150_boat_10_n04273569_62.png,n04273569_62.png,0.0,0.06730907,1.987963,-1.3581074
bagnet33,1,120,NaN,knife,bicycle,180,0120_ps_dnn_180_bicycle_10_n03792782_8080.png,n03792782_8080.png,0.0,-0.8789896,1.3466694,-1.5737785
bagnet33,1,121,NaN,knife,airplane,120,0121_ps_dnn_120_airplane_10_n02690373_10309.png,n02690373_10309.png,0.0,0.33408964,3.5482545,-2.2727578
bagnet33,1,122,NaN,dog,dog,30,0122_ps_dnn_30_dog_10_n02093859_1001.png,n02093859_1001.png,1.0,9.158062,5.4494276,2.6224005
bagnet33,1,123,NaN,oven,oven,0,0123_ps_dnn_0_oven_10_n04111531_15267.png,n04111531_15267.png,1.0,15.131118,5.309093,6.945221
bagnet33,1,124,NaN,airplane,cat,90,0124_ps_dnn_90_cat_10_n02124075_81.png,n02124075_81.png,0.0,1.0637664,2.0867882,-0.7233857
bagnet33,1,125,NaN,elephant,elephant,60,0125_ps_dnn_60_elephant_10_n02504013_7314.png,n02504013_7314.png,1.0,7.711808,2.920402,3.3880358
bagnet33,1,126,NaN,knife,bottle,120,0126_ps_dnn_120_bottle_10_n03983396_3294.png,n03983396_3294.png,0.0,3.0404036,5.238161,-1.5540493
bagnet33,1,127,NaN,cat,cat,60,0127_ps_dnn_60_cat_10_n02123159_3201.png,n02123159_3201.png,1.0,15.232574,2.63624,8.906954
bagnet33,1,128,NaN,bear,dog,90,0128_ps_dnn_90_dog_10_n02101388_11601.png,n02101388_11601.png,0.0,0.53853405,3.0857553,-1.8011574
bagnet33,1,129,NaN,cat,cat,30,0129_ps_dnn_30_cat_10_n02123597_4442.png,n02123597_4442.png,1.0,4.517802,2.9597757,1.1016908
bagnet33,1,130,NaN,airplane,airplane,30,0130_ps_dnn_30_airplane_10_n02690373_1950.png,n02690373_1950.png,1.0,29.284405,6.0850616,16.404413
bagnet33,1,131,NaN,cat,bird,120,0131_ps_dnn_120_bird_10_n01616318_4652.png,n01616318_4652.png,0.0,-0.8678291,3.2927282,-2.9419584
bagnet33,1,132,NaN,airplane,airplane,90,0132_ps_dnn_90_airplane_10_n02690373_17937.png,n02690373_17937.png,1.0,9.355204,4.2881317,3.582961
bagnet33,1,133,NaN,clock,clock,30,0133_ps_dnn_30_clock_10_n02708093_1125.png,n02708093_1125.png,1.0,14.498177,12.679375,1.2860872
bagnet33,1,134,NaN,bear,elephant,150,0134_ps_dnn_150_elephant_10_n02504458_6499.png,n02504458_6499.png,0.0,1.5155454,1.9920981,-0.33697367
bagnet33,1,135,NaN,clock,clock,30,0135_ps_dnn_30_clock_10_n02708093_51.png,n02708093_51.png,1.0,8.006871,6.588248,1.0031183
bagnet33,1,136,NaN,oven,bicycle,90,0136_ps_dnn_90_bicycle_10_n02835271_13180.png,n02835271_13180.png,0.0,2.0994616,6.270108,-2.9490926
bagnet33,1,137,NaN,knife,cat,120,0137_ps_dnn_120_cat_10_n02123597_7297.png,n02123597_7297.png,0.0,1.3733968,4.974974,-2.5466998
bagnet33,1,138,NaN,clock,clock,30,0138_ps_dnn_30_clock_10_n04548280_1109.png,n04548280_1109.png,1.0,4.5695424,3.8064396,0.5395951
bagnet33,1,139,NaN,clock,clock,60,0139_ps_dnn_60_clock_10_n04548280_1304.png,n04548280_1304.png,1.0,8.650165,6.61121,1.4417588
bagnet33,1,140,NaN,knife,bird,180,0140_ps_dnn_180_bird_10_n01833805_8179.png,n01833805_8179.png,0.0,-0.8351822,1.7317652,-1.815106
bagnet33,1,141,NaN,bottle,bottle,60,0141_ps_dnn_60_bottle_10_n03983396_24525.png,n03983396_24525.png,1.0,7.5288367,4.942678,1.8286904
bagnet33,1,142,NaN,knife,elephant,120,0142_ps_dnn_120_elephant_10_n02504013_5945.png,n02504013_5945.png,0.0,2.8004236,3.2364955,-0.30834937
bagnet33,1,143,NaN,airplane,airplane,120,0143_ps_dnn_120_airplane_10_n02690373_13610.png,n02690373_13610.png,1.0,5.866352,5.3674793,0.35275632
bagnet33,1,144,NaN,oven,knife,90,0144_ps_dnn_90_knife_10_n03041632_21859.png,n03041632_21859.png,0.0,3.356152,4.9232264,-1.1080889
bagnet33,1,145,NaN,cat,cat,60,0145_ps_dnn_60_cat_10_n02123045_568.png,n02123045_568.png,1.0,8.658766,4.7305975,2.7776344
bagnet33,1,146,NaN,knife,clock,180,0146_ps_dnn_180_clock_10_n02708093_960.png,n02708093_960.png,0.0,1.7229944,2.5650797,-0.5954442
bagnet33,1,147,NaN,knife,bicycle,120,0147_ps_dnn_120_bicycle_10_n02835271_9669.png,n02835271_9669.png,0.0,1.2335975,1.9054397,-0.4750642
bagnet33,1,148,NaN,knife,cat,60,0148_ps_dnn_60_cat_10_n02123597_14647.png,n02123597_14647.png,0.0,3.0800216,3.9432025,-0.61036104
bagnet33,1,149,NaN,bicycle,bicycle,0,0149_ps_dnn_0_bicycle_10_n02835271_7794.png,n02835271_7794.png,1.0,17.7804,1.3865598,11.592195
bagnet33,1,150,NaN,dog,bird,0,0150_ps_dnn_0_bird_10_n02011460_5925.png,n02011460_5925.png,0.0,0.5727026,3.5899236,-2.1334975
bagnet33,1,151,NaN,oven,oven,90,0151_ps_dnn_90_oven_10_n04111531_8852.png,n04111531_8852.png,1.0,2.4613109,2.2416463,0.1553263
bagnet33,1,152,NaN,elephant,knife,90,0152_ps_dnn_90_knife_10_n03041632_84086.png,n03041632_84086.png,0.0,3.7434988,5.013623,-0.8981136
bagnet33,1,153,NaN,car,car,60,0153_ps_dnn_60_car_10_n03100240_13602.png,n03100240_13602.png,1.0,8.373675,8.045528,0.23203492
bagnet33,1,154,NaN,clock,dog,180,0154_ps_dnn_180_dog_10_n02106662_43958.png,n02106662_43958.png,0.0,0.32777202,1.5410991,-0.8579518
bagnet33,1,155,NaN,airplane,chair,30,0155_ps_dnn_30_chair_10_n02791124_1292.png,n02791124_1292.png,0.0,4.6090374,6.1636977,-1.0993109
bagnet33,1,156,NaN,knife,dog,90,0156_ps_dnn_90_dog_10_n02085782_4522.png,n02085782_4522.png,0.0,-0.18690808,3.545971,-2.639544
bagnet33,1,157,NaN,bear,bear,60,0157_ps_dnn_60_bear_10_n02132136_686.png,n02132136_686.png,1.0,7.3288593,5.7682247,1.1035353
bagnet33,1,158,NaN,knife,bird,120,0158_ps_dnn_120_bird_10_n01796340_12914.png,n01796340_12914.png,0.0,-0.41826412,1.740655,-1.5265864
bagnet33,1,159,NaN,knife,knife,60,0159_ps_dnn_60_knife_10_n03041632_24060.png,n03041632_24060.png,1.0,5.930318,5.178725,0.5314566
bagnet33,1,160,NaN,knife,bottle,180,0160_ps_dnn_180_bottle_10_n03983396_4775.png,n03983396_4775.png,0.0,0.82188827,3.9370947,-2.2027836
bagnet33,1,161,NaN,knife,keyboard,120,0161_ps_dnn_120_keyboard_10_n04505470_1516.png,n04505470_1516.png,0.0,-1.791971,2.814938,-3.2575765
bagnet33,1,162,NaN,knife,boat,150,0162_ps_dnn_150_boat_10_n03344393_4944.png,n03344393_4944.png,0.0,-0.60239375,4.5562572,-3.647717
bagnet33,1,163,NaN,knife,cat,150,0163_ps_dnn_150_cat_10_n02123159_3524.png,n02123159_3524.png,0.0,0.23444422,3.6185236,-2.3929055
bagnet33,1,164,NaN,airplane,truck,60,0164_ps_dnn_60_truck_10_n04467665_50648.png,n04467665_50648.png,0.0,4.050773,7.081883,-2.1433184
bagnet33,1,165,NaN,knife,dog,0,0165_ps_dnn_0_dog_10_n02107574_1277.png,n02107574_1277.png,0.0,1.4548186,3.5264459,-1.4648616
bagnet33,1,166,NaN,oven,oven,60,0166_ps_dnn_60_oven_10_n04111531_21980.png,n04111531_21980.png,1.0,5.455598,4.417083,0.7343411
bagnet33,1,167,NaN,oven,boat,120,0167_ps_dnn_120_boat_10_n03344393_11315.png,n03344393_11315.png,0.0,0.44139442,5.1573267,-3.334668
bagnet33,1,168,NaN,airplane,knife,90,0168_ps_dnn_90_knife_10_n03041632_32896.png,n03041632_32896.png,0.0,2.2112062,3.6923144,-1.0473017
bagnet33,1,169,NaN,oven,bottle,30,0169_ps_dnn_30_bottle_10_n03937543_3133.png,n03937543_3133.png,0.0,2.7617176,3.1573455,-0.27975124
bagnet33,1,170,NaN,knife,car,180,0170_ps_dnn_180_car_10_n04285008_15213.png,n04285008_15213.png,0.0,-0.14297585,5.9188004,-4.286323
bagnet33,1,171,NaN,airplane,elephant,90,0171_ps_dnn_90_elephant_10_n02504013_3081.png,n02504013_3081.png,0.0,3.1565626,3.630845,-0.33536837
bagnet33,1,172,NaN,cat,cat,60,0172_ps_dnn_60_cat_10_n02123159_6873.png,n02123159_6873.png,1.0,9.810691,5.0102453,3.3944278
bagnet33,1,173,NaN,bottle,bottle,60,0173_ps_dnn_60_bottle_10_n04579145_4385.png,n04579145_4385.png,1.0,9.431028,4.8907423,3.210467
bagnet33,1,174,NaN,knife,bear,60,0174_ps_dnn_60_bear_10_n02134418_2185.png,n02134418_2185.png,0.0,1.0912976,3.5729651,-1.754804
bagnet33,1,175,NaN,bear,chair,150,0175_ps_dnn_150_chair_10_n04429376_16002.png,n04429376_16002.png,0.0,1.3916653,2.280351,-0.6283956
bagnet33,1,176,NaN,oven,car,60,0176_ps_dnn_60_car_10_n03100240_8107.png,n03100240_8107.png,0.0,1.9636011,5.8175516,-2.7251546
bagnet33,1,177,NaN,boat,boat,60,0177_ps_dnn_60_boat_10_n04273569_15906.png,n04273569_15906.png,1.0,6.706295,4.9280005,1.2574441
bagnet33,1,178,NaN,airplane,car,150,0178_ps_dnn_150_car_10_n02814533_85659.png,n02814533_85659.png,0.0,1.3377918,3.5337925,-1.552807
bagnet33,1,179,NaN,knife,car,150,0179_ps_dnn_150_car_10_n02814533_87140.png,n02814533_87140.png,0.0,-0.40801445,4.218747,-3.2716146
bagnet33,1,180,NaN,keyboard,keyboard,30,0180_ps_dnn_30_keyboard_10_n03085013_7520.png,n03085013_7520.png,1.0,17.15114,5.9983735,7.8861976
bagnet33,1,181,NaN,bear,dog,90,0181_ps_dnn_90_dog_10_n02112018_10082.png,n02112018_10082.png,0.0,2.973804,5.890718,-2.0625696
bagnet33,1,182,NaN,elephant,bear,90,0182_ps_dnn_90_bear_10_n02134084_5733.png,n02134084_5733.png,0.0,0.7060228,4.2267904,-2.4895587
bagnet33,1,183,NaN,elephant,cat,90,0183_ps_dnn_90_cat_10_n02123597_3821.png,n02123597_3821.png,0.0,2.15327,4.2664347,-1.4942331
bagnet33,1,184,NaN,knife,boat,120,0184_ps_dnn_120_boat_10_n04612504_15256.png,n04612504_15256.png,0.0,0.88360894,5.100022,-2.9814544
bagnet33,1,185,NaN,airplane,car,90,0185_ps_dnn_90_car_10_n02814533_84296.png,n02814533_84296.png,0.0,1.9968506,3.8678174,-1.3229734
bagnet33,1,186,NaN,knife,clock,120,0186_ps_dnn_120_clock_10_n04548280_5295.png,n04548280_5295.png,0.0,3.8772132,5.296292,-1.0034401
bagnet33,1,187,NaN,airplane,airplane,30,0187_ps_dnn_30_airplane_10_n02690373_11799.png,n02690373_11799.png,1.0,23.990662,7.2615767,11.829249
bagnet33,1,188,NaN,elephant,dog,120,0188_ps_dnn_120_dog_10_n02092002_9876.png,n02092002_9876.png,0.0,-0.40036947,3.1870499,-2.5366886
bagnet33,1,189,NaN,chair,chair,0,0189_ps_dnn_0_chair_10_n02791124_16885.png,n02791124_16885.png,1.0,6.031025,4.988345,0.737286
bagnet33,1,190,NaN,airplane,airplane,60,0190_ps_dnn_60_airplane_10_n02690373_9376.png,n02690373_9376.png,1.0,5.8857985,3.2746575,1.8463556
bagnet33,1,191,NaN,knife,oven,180,0191_ps_dnn_180_oven_10_n04111531_6474.png,n04111531_6474.png,0.0,-1.7531779,1.9748056,-2.6360824
bagnet33,1,192,NaN,knife,knife,180,0192_ps_dnn_180_knife_10_n03041632_44230.png,n03041632_44230.png,1.0,6.2200475,3.3187952,2.051495
bagnet33,1,193,NaN,clock,dog,180,0193_ps_dnn_180_dog_10_n02099601_6318.png,n02099601_6318.png,0.0,0.16722701,2.1736164,-1.4187316
bagnet33,1,194,NaN,cat,cat,150,0194_ps_dnn_150_cat_10_n02125311_20241.png,n02125311_20241.png,1.0,2.7319174,2.390364,0.24151476
bagnet33,1,195,NaN,oven,truck,120,0195_ps_dnn_120_truck_10_n04467665_51397.png,n04467665_51397.png,0.0,0.50779593,9.158467,-6.116948
bagnet33,1,196,NaN,dog,dog,0,0196_ps_dnn_0_dog_10_n02104365_1500.png,n02104365_1500.png,1.0,6.5069137,4.9261804,1.1177473
bagnet33,1,197,NaN,knife,knife,90,0197_ps_dnn_90_knife_10_n03041632_3171.png,n03041632_3171.png,1.0,6.671875,3.1581545,2.4845757
bagnet33,1,198,NaN,oven,oven,60,0198_ps_dnn_60_oven_10_n04111531_249.png,n04111531_249.png,1.0,6.722229,3.395516,2.3523414
bagnet33,1,199,NaN,bicycle,bear,90,0199_ps_dnn_90_bear_10_n02133161_8856.png,n02133161_8856.png,0.0,-0.3991344,1.7508583,-1.5202744
bagnet33,1,200,NaN,cat,cat,0,0200_ps_dnn_0_cat_10_n02123045_13354.png,n02123045_13354.png,1.0,38.581036,9.803158,20.349033
bagnet33,1,201,NaN,oven,keyboard,120,0201_ps_dnn_120_keyboard_10_n03085013_23267.png,n03085013_23267.png,0.0,-1.9024487,6.3229036,-5.8162026
bagnet33,1,202,NaN,airplane,truck,30,0202_ps_dnn_30_truck_10_n03796401_22643.png,n03796401_22643.png,0.0,5.547484,7.6182303,-1.4642389
bagnet33,1,203,NaN,knife,elephant,180,0203_ps_dnn_180_elephant_10_n02504458_4572.png,n02504458_4572.png,0.0,0.82628894,5.2756495,-3.1461732
bagnet33,1,204,NaN,knife,truck,180,0204_ps_dnn_180_truck_10_n04467665_23173.png,n04467665_23173.png,0.0,-1.4869823,3.2871919,-3.375851
bagnet33,1,205,NaN,knife,bear,180,0205_ps_dnn_180_bear_10_n02134418_25040.png,n02134418_25040.png,0.0,0.28791377,2.084013,-1.270034
bagnet33,1,206,NaN,oven,bicycle,60,0206_ps_dnn_60_bicycle_10_n02835271_21185.png,n02835271_21185.png,0.0,4.4235787,5.3894258,-0.682957
bagnet33,1,207,NaN,airplane,boat,30,0207_ps_dnn_30_boat_10_n02951358_12664.png,n02951358_12664.png,0.0,3.0654798,4.5637856,-1.0594622
bagnet33,1,208,NaN,bottle,bottle,30,0208_ps_dnn_30_bottle_10_n03983396_11519.png,n03983396_11519.png,1.0,24.661867,7.2375755,12.320835
bagnet33,1,209,NaN,knife,knife,120,0209_ps_dnn_120_knife_10_n03041632_36280.png,n03041632_36280.png,1.0,2.8939524,1.214065,1.1878598
bagnet33,1,210,NaN,clock,truck,60,0210_ps_dnn_60_truck_10_n04467665_67115.png,n04467665_67115.png,0.0,1.5869828,3.2326252,-1.1636449
bagnet33,1,211,NaN,elephant,bear,30,0211_ps_dnn_30_bear_10_n02133161_1560.png,n02133161_1560.png,0.0,2.5108194,3.097437,-0.4148012
bagnet33,1,212,NaN,chair,truck,180,0212_ps_dnn_180_truck_10_n03417042_6780.png,n03417042_6780.png,0.0,-2.0502095,2.588667,-3.280181
bagnet33,1,213,NaN,knife,bear,150,0213_ps_dnn_150_bear_10_n02134084_20261.png,n02134084_20261.png,0.0,0.6811328,3.8778067,-2.2603898
bagnet33,1,214,NaN,knife,chair,180,0214_ps_dnn_180_chair_10_n03376595_8377.png,n03376595_8377.png,0.0,5.005775,11.663036,-4.7073946
bagnet33,1,215,NaN,airplane,bird,180,0215_ps_dnn_180_bird_10_n01824575_3556.png,n01824575_3556.png,0.0,-0.2315858,2.316979,-1.8021073
bagnet33,1,216,NaN,clock,chair,90,0216_ps_dnn_90_chair_10_n04099969_36004.png,n04099969_36004.png,0.0,1.6973094,5.5826836,-2.7473743
bagnet33,1,217,NaN,bicycle,bicycle,0,0217_ps_dnn_0_bicycle_10_n02835271_22549.png,n02835271_22549.png,1.0,19.079178,7.4689636,8.2096615
bagnet33,1,218,NaN,oven,clock,150,0218_ps_dnn_150_clock_10_n04548280_8535.png,n04548280_8535.png,0.0,2.6308079,5.260033,-1.859143
bagnet33,1,219,NaN,oven,knife,120,0219_ps_dnn_120_knife_10_n03041632_14546.png,n03041632_14546.png,0.0,3.3972275,3.8264678,-0.30351868
bagnet33,1,220,NaN,keyboard,keyboard,0,0220_ps_dnn_0_keyboard_10_n04505470_4974.png,n04505470_4974.png,1.0,23.0573,10.533778,8.855468
bagnet33,1,221,NaN,clock,clock,0,0221_ps_dnn_0_clock_10_n04548280_487.png,n04548280_487.png,1.0,23.80597,6.3232718,12.362133
bagnet33,1,222,NaN,truck,truck,30,0222_ps_dnn_30_truck_10_n03417042_10401.png,n03417042_10401.png,1.0,16.309294,14.036069,1.6074127
bagnet33,1,223,NaN,knife,clock,180,0223_ps_dnn_180_clock_10_n03196217_6257.png,n03196217_6257.png,0.0,3.6769254,11.050264,-5.213738
bagnet33,1,224,NaN,airplane,elephant,120,0224_ps_dnn_120_elephant_10_n02504458_1698.png,n02504458_1698.png,0.0,2.4794264,2.7060623,-0.1602558
bagnet33,1,225,NaN,knife,keyboard,180,0225_ps_dnn_180_keyboard_10_n03085013_23014.png,n03085013_23014.png,0.0,-1.0465436,6.154793,-5.092114
bagnet33,1,226,NaN,cat,cat,60,0226_ps_dnn_60_cat_10_n02125311_17002.png,n02125311_17002.png,1.0,10.036256,7.773899,1.5997279
bagnet33,1,227,NaN,knife,boat,180,0227_ps_dnn_180_boat_10_n03344393_5566.png,n03344393_5566.png,0.0,1.6948534,4.519352,-1.9972222
bagnet33,1,228,NaN,knife,bicycle,150,0228_ps_dnn_150_bicycle_10_n02835271_4887.png,n02835271_4887.png,0.0,0.5586536,5.424182,-3.440448
bagnet33,1,229,NaN,airplane,keyboard,120,0229_ps_dnn_120_keyboard_10_n04505470_8386.png,n04505470_8386.png,0.0,-2.7501683,7.499974,-7.2479453
bagnet33,1,230,NaN,knife,bear,120,0230_ps_dnn_120_bear_10_n02133161_361.png,n02133161_361.png,0.0,1.4252093,2.4403987,-0.71784735
bagnet33,1,231,NaN,bottle,bottle,0,0231_ps_dnn_0_bottle_10_n04560804_2165.png,n04560804_2165.png,1.0,3.9437659,2.6612406,0.90688235
bagnet33,1,232,NaN,knife,cat,150,0232_ps_dnn_150_cat_10_n02124075_14020.png,n02124075_14020.png,0.0,0.36254898,4.721857,-3.0824964
bagnet33,1,233,NaN,knife,clock,150,0233_ps_dnn_150_clock_10_n04548280_3301.png,n04548280_3301.png,0.0,3.968942,5.347901,-0.97507125
bagnet33,1,234,NaN,cat,knife,180,0234_ps_dnn_180_knife_10_n03041632_5820.png,n03041632_5820.png,0.0,1.6380152,4.0082173,-1.6759859
bagnet33,1,235,NaN,knife,oven,120,0235_ps_dnn_120_oven_10_n04111531_2922.png,n04111531_2922.png,0.0,2.4581509,6.181115,-2.6325333
bagnet33,1,236,NaN,airplane,bear,120,0236_ps_dnn_120_bear_10_n02134084_7441.png,n02134084_7441.png,0.0,0.65057147,2.0903656,-1.0180882
bagnet33,1,237,NaN,knife,airplane,150,0237_ps_dnn_150_airplane_10_n02690373_8252.png,n02690373_8252.png,0.0,0.7212063,5.206644,-3.1716835
bagnet33,1,238,NaN,knife,bird,150,0238_ps_dnn_150_bird_10_n02018207_69.png,n02018207_69.png,0.0,-0.38296586,1.773077,-1.5245525
bagnet33,1,239,NaN,elephant,bird,30,0239_ps_dnn_30_bird_10_n01798484_5355.png,n01798484_5355.png,0.0,3.4328935,4.0708723,-0.45111912
bagnet33,1,240,NaN,airplane,keyboard,150,0240_ps_dnn_150_keyboard_10_n03085013_4999.png,n03085013_4999.png,0.0,-2.1705246,7.7543674,-7.0179586
bagnet33,1,241,NaN,elephant,dog,120,0241_ps_dnn_120_dog_10_n02111500_3041.png,n02111500_3041.png,0.0,-0.1621061,2.667339,-2.0007198
bagnet33,1,242,NaN,boat,boat,0,0242_ps_dnn_0_boat_10_n04612504_15237.png,n04612504_15237.png,1.0,8.846945,4.895101,2.7943757
bagnet33,1,243,NaN,knife,truck,150,0243_ps_dnn_150_truck_10_n03417042_6480.png,n03417042_6480.png,0.0,-1.0717613,5.4547133,-4.6149144
bagnet33,1,244,NaN,knife,airplane,180,0244_ps_dnn_180_airplane_10_n02690373_8382.png,n02690373_8382.png,0.0,-2.1747057,4.780889,-4.9183483
bagnet33,1,245,NaN,clock,bottle,120,0245_ps_dnn_120_bottle_10_n04591713_2345.png,n04591713_2345.png,0.0,0.7742029,3.7610047,-2.1119878
bagnet33,1,246,NaN,elephant,elephant,60,0246_ps_dnn_60_elephant_10_n02504458_9516.png,n02504458_9516.png,1.0,3.3931742,2.3786645,0.7173667
bagnet33,1,247,NaN,clock,elephant,180,0247_ps_dnn_180_elephant_10_n02504013_698.png,n02504013_698.png,0.0,0.50028306,2.3631418,-1.3172401
bagnet33,1,248,NaN,bear,bear,0,0248_ps_dnn_0_bear_10_n02133161_5292.png,n02133161_5292.png,1.0,10.956669,6.8615985,2.895652
bagnet33,1,249,NaN,bicycle,boat,90,0249_ps_dnn_90_boat_10_n02951358_14341.png,n02951358_14341.png,0.0,1.6163772,2.8706596,-0.8869116
bagnet33,1,250,NaN,knife,bear,120,0250_ps_dnn_120_bear_10_n02133161_2304.png,n02133161_2304.png,0.0,-0.7360643,3.3412263,-2.8830798
bagnet33,1,251,NaN,bear,airplane,150,0251_ps_dnn_150_airplane_10_n02690373_1751.png,n02690373_1751.png,0.0,-0.89085054,3.0828626,-2.8098395
bagnet33,1,252,NaN,knife,truck,150,0252_ps_dnn_150_truck_10_n04467665_48953.png,n04467665_48953.png,0.0,-1.1869576,6.8238945,-5.664528
bagnet33,1,253,NaN,oven,oven,0,0253_ps_dnn_0_oven_10_n04111531_10077.png,n04111531_10077.png,1.0,17.142458,5.5589056,8.190808
bagnet33,1,254,NaN,cat,dog,150,0254_ps_dnn_150_dog_10_n02097209_821.png,n02097209_821.png,0.0,1.0745325,2.2857988,-0.8564946
bagnet33,1,255,NaN,airplane,truck,0,0255_ps_dnn_0_truck_10_n04467665_13231.png,n04467665_13231.png,0.0,8.737659,9.833071,-0.7745728
bagnet33,1,256,NaN,bicycle,dog,90,0256_ps_dnn_90_dog_10_n02107908_3447.png,n02107908_3447.png,0.0,0.92247033,1.1659471,-0.17216407
bagnet33,1,257,NaN,airplane,elephant,180,0257_ps_dnn_180_elephant_10_n02504013_5021.png,n02504013_5021.png,0.0,0.9735857,4.588188,-2.55591
bagnet33,1,258,NaN,knife,knife,90,0258_ps_dnn_90_knife_10_n03041632_12242.png,n03041632_12242.png,1.0,5.722855,4.7300572,0.7020141
bagnet33,1,259,NaN,knife,keyboard,150,0259_ps_dnn_150_keyboard_10_n03085013_22821.png,n03085013_22821.png,0.0,-2.246109,4.5307684,-4.791976
bagnet33,1,260,NaN,elephant,cat,150,0260_ps_dnn_150_cat_10_n02124075_2080.png,n02124075_2080.png,0.0,0.73574233,1.6441437,-0.6423368
bagnet33,1,261,NaN,knife,bicycle,180,0261_ps_dnn_180_bicycle_10_n02835271_7296.png,n02835271_7296.png,0.0,-0.27875522,2.1070273,-1.687003
bagnet33,1,262,NaN,knife,boat,180,0262_ps_dnn_180_boat_10_n04612504_4302.png,n04612504_4302.png,0.0,0.5411923,5.8065,-3.7231348
bagnet33,1,263,NaN,knife,clock,150,0263_ps_dnn_150_clock_10_n04548280_4524.png,n04548280_4524.png,0.0,0.050902575,4.6148596,-3.227205
bagnet33,1,264,NaN,knife,knife,150,0264_ps_dnn_150_knife_10_n03041632_19275.png,n03041632_19275.png,1.0,5.7414,5.0750885,0.47115323
bagnet33,1,265,NaN,bird,bird,30,0265_ps_dnn_30_bird_10_n01796340_2973.png,n01796340_2973.png,1.0,3.2688446,1.8249164,1.0210115
bagnet33,1,266,NaN,clock,chair,90,0266_ps_dnn_90_chair_10_n02791124_15407.png,n02791124_15407.png,0.0,3.7907407,5.6920586,-1.3444347
bagnet33,1,267,NaN,elephant,dog,30,0267_ps_dnn_30_dog_10_n02109525_72594.png,n02109525_72594.png,0.0,2.4520795,3.1644778,-0.5037417
bagnet33,1,268,NaN,bicycle,knife,150,0268_ps_dnn_150_knife_10_n03041632_19614.png,n03041632_19614.png,0.0,0.9238399,1.1422753,-0.15445717
bagnet33,1,269,NaN,keyboard,keyboard,30,0269_ps_dnn_30_keyboard_10_n04505470_5111.png,n04505470_5111.png,1.0,47.018456,25.844774,14.972054
bagnet33,1,270,NaN,bicycle,bicycle,30,0270_ps_dnn_30_bicycle_10_n03792782_8374.png,n03792782_8374.png,1.0,12.676914,1.9153014,7.6096096
bagnet33,1,271,NaN,knife,boat,120,0271_ps_dnn_120_boat_10_n04612504_2024.png,n04612504_2024.png,0.0,-0.2657989,7.1862326,-5.269382
bagnet33,1,272,NaN,bicycle,bicycle,30,0272_ps_dnn_30_bicycle_10_n02835271_9860.png,n02835271_9860.png,1.0,6.1836896,2.8224378,2.376764
bagnet33,1,273,NaN,bear,bear,60,0273_ps_dnn_60_bear_10_n02134084_21921.png,n02134084_21921.png,1.0,9.258205,5.6307745,2.564981
bagnet33,1,274,NaN,airplane,bear,90,0274_ps_dnn_90_bear_10_n02134418_836.png,n02134418_836.png,0.0,1.2822027,6.403813,-3.6215253
bagnet33,1,275,NaN,airplane,chair,60,0275_ps_dnn_60_chair_10_n04429376_6141.png,n04429376_6141.png,0.0,2.7287245,5.326285,-1.8367527
bagnet33,1,276,NaN,airplane,truck,30,0276_ps_dnn_30_truck_10_n04467665_6523.png,n04467665_6523.png,0.0,6.3748145,8.721577,-1.6594114
bagnet33,1,277,NaN,clock,chair,90,0277_ps_dnn_90_chair_10_n04429376_41755.png,n04429376_41755.png,0.0,2.1721487,2.2987702,-0.08953491
bagnet33,1,278,NaN,knife,bottle,180,0278_ps_dnn_180_bottle_10_n04579145_3302.png,n04579145_3302.png,0.0,0.85648817,4.6946545,-2.7139933
bagnet33,1,279,NaN,cat,cat,0,0279_ps_dnn_0_cat_10_n02123045_12297.png,n02123045_12297.png,1.0,19.73053,8.9725065,7.6070714
bagnet33,1,280,NaN,clock,clock,60,0280_ps_dnn_60_clock_10_n04548280_5734.png,n04548280_5734.png,1.0,11.00166,4.8096385,4.378421
bagnet33,1,281,NaN,knife,elephant,90,0281_ps_dnn_90_elephant_10_n02504013_3640.png,n02504013_3640.png,0.0,3.4814508,7.307955,-2.705747
bagnet33,1,282,NaN,bicycle,car,0,0282_ps_dnn_0_car_10_n03100240_2108.png,n03100240_2108.png,0.0,0.83699536,3.2081723,-1.6766753
bagnet33,1,283,NaN,clock,car,90,0283_ps_dnn_90_car_10_n02814533_8499.png,n02814533_8499.png,0.0,1.641715,4.18784,-1.8003823
bagnet33,1,284,NaN,dog,knife,180,0284_ps_dnn_180_knife_10_n03041632_9406.png,n03041632_9406.png,0.0,-1.9097403,8.602129,-7.4330144
bagnet33,1,285,NaN,knife,clock,120,0285_ps_dnn_120_clock_10_n04548280_3968.png,n04548280_3968.png,0.0,5.12621,5.719939,-0.41982982
bagnet33,1,286,NaN,cat,boat,120,0286_ps_dnn_120_boat_10_n04273569_20587.png,n04273569_20587.png,0.0,2.4583764,2.5218298,-0.044868354
bagnet33,1,287,NaN,knife,truck,150,0287_ps_dnn_150_truck_10_n03796401_7261.png,n03796401_7261.png,0.0,-0.8977845,4.4772778,-3.8007429
bagnet33,1,288,NaN,elephant,boat,90,0288_ps_dnn_90_boat_10_n04273569_18037.png,n04273569_18037.png,0.0,1.706571,2.0102751,-0.21475126
bagnet33,1,289,NaN,airplane,bicycle,180,0289_ps_dnn_180_bicycle_10_n02835271_4789.png,n02835271_4789.png,0.0,2.4943438,3.636499,-0.80762565
bagnet33,1,290,NaN,elephant,chair,90,0290_ps_dnn_90_chair_10_n04099969_18380.png,n04099969_18380.png,0.0,1.9745582,4.474331,-1.7676061
bagnet33,1,291,NaN,knife,dog,120,0291_ps_dnn_120_dog_10_n02100583_13688.png,n02100583_13688.png,0.0,-0.8301425,6.2885904,-5.0337043
bagnet33,1,292,NaN,knife,boat,180,0292_ps_dnn_180_boat_10_n03662601_8065.png,n03662601_8065.png,0.0,0.24557948,2.7024653,-1.7372806
bagnet33,1,293,NaN,boat,boat,0,0293_ps_dnn_0_boat_10_n02951358_15218.png,n02951358_15218.png,1.0,7.7779527,4.333002,2.435948
bagnet33,1,294,NaN,knife,knife,180,0294_ps_dnn_180_knife_10_n03041632_24277.png,n03041632_24277.png,1.0,4.098294,3.9670906,0.09277466
bagnet33,1,295,NaN,knife,bird,90,0295_ps_dnn_90_bird_10_n01601694_2723.png,n01601694_2723.png,0.0,-0.054818723,2.7189143,-1.9613254
bagnet33,1,296,NaN,airplane,keyboard,120,0296_ps_dnn_120_keyboard_10_n04505470_4724.png,n04505470_4724.png,0.0,2.9977307,3.9063897,-0.64251894
bagnet33,1,297,NaN,knife,bear,150,0297_ps_dnn_150_bear_10_n02134418_1642.png,n02134418_1642.png,0.0,-0.24534082,6.080074,-4.4727435
bagnet33,1,298,NaN,oven,truck,60,0298_ps_dnn_60_truck_10_n03417042_13055.png,n03417042_13055.png,0.0,1.7693822,7.394739,-3.977728
bagnet33,1,299,NaN,chair,bear,120,0299_ps_dnn_120_bear_10_n02133161_1629.png,n02133161_1629.png,0.0,-3.5360956,4.09002,-5.3924785
bagnet33,1,300,NaN,oven,bottle,180,0300_ps_dnn_180_bottle_10_n04579145_1856.png,n04579145_1856.png,0.0,-0.16625445,4.2533374,-3.1251235
bagnet33,1,301,NaN,knife,chair,150,0301_ps_dnn_150_chair_10_n04099969_3768.png,n04099969_3768.png,0.0,1.3731121,2.7572708,-0.978748
bagnet33,1,302,NaN,knife,bird,120,0302_ps_dnn_120_bird_10_n02009229_5172.png,n02009229_5172.png,0.0,-0.79681545,1.920732,-1.9215963
bagnet33,1,303,NaN,airplane,airplane,90,0303_ps_dnn_90_airplane_10_n02690373_21731.png,n02690373_21731.png,1.0,10.9812765,4.486536,4.592475
bagnet33,1,304,NaN,chair,bear,30,0304_ps_dnn_30_bear_10_n02133161_959.png,n02133161_959.png,0.0,-0.84162384,3.2572386,-2.8983335
bagnet33,1,305,NaN,chair,chair,0,0305_ps_dnn_0_chair_10_n04099969_1028.png,n04099969_1028.png,1.0,7.8110766,4.143069,2.5936732
bagnet33,1,306,NaN,elephant,knife,180,0306_ps_dnn_180_knife_10_n03041632_44212.png,n03041632_44212.png,0.0,3.6297603,5.288314,-1.1727746
bagnet33,1,307,NaN,knife,oven,120,0307_ps_dnn_120_oven_10_n04111531_9344.png,n04111531_9344.png,0.0,1.2803377,4.2850685,-2.1246655
bagnet33,1,308,NaN,airplane,car,180,0308_ps_dnn_180_car_10_n04285008_9080.png,n04285008_9080.png,0.0,-0.50046754,4.0949893,-3.2494788
bagnet33,1,309,NaN,car,car,60,0309_ps_dnn_60_car_10_n03100240_17349.png,n03100240_17349.png,1.0,7.806576,6.623542,0.83653134
bagnet33,1,310,NaN,cat,dog,30,0310_ps_dnn_30_dog_10_n02110958_1335.png,n02110958_1335.png,0.0,4.3226643,4.9156814,-0.41932642
bagnet33,1,311,NaN,clock,elephant,150,0311_ps_dnn_150_elephant_10_n02504013_7305.png,n02504013_7305.png,0.0,1.277235,4.270102,-2.1162765
bagnet33,1,312,NaN,clock,dog,90,0312_ps_dnn_90_dog_10_n02091244_2626.png,n02091244_2626.png,0.0,-2.3092263,5.5271378,-5.5411463
bagnet33,1,313,NaN,knife,bird,150,0313_ps_dnn_150_bird_10_n01828970_22.png,n01828970_22.png,0.0,-0.52568525,1.5076122,-1.4377584
bagnet33,1,314,NaN,cat,cat,60,0314_ps_dnn_60_cat_10_n02124075_13587.png,n02124075_13587.png,1.0,5.5824394,3.1345344,1.7309303
bagnet33,1,315,NaN,elephant,knife,120,0315_ps_dnn_120_knife_10_n03041632_13612.png,n03041632_13612.png,0.0,-0.26471287,1.0343139,-0.9185506
bagnet33,1,316,NaN,knife,bicycle,90,0316_ps_dnn_90_bicycle_10_n02835271_2581.png,n02835271_2581.png,0.0,1.0365428,3.9732816,-2.0765882
bagnet33,1,317,NaN,knife,clock,30,0317_ps_dnn_30_clock_10_n03196217_2536.png,n03196217_2536.png,0.0,7.6507187,8.941986,-0.91306394
bagnet33,1,318,NaN,cat,cat,90,0318_ps_dnn_90_cat_10_n02124075_15001.png,n02124075_15001.png,1.0,5.5747647,4.2024374,0.970382
bagnet33,1,319,NaN,elephant,bear,60,0319_ps_dnn_60_bear_10_n02133161_6152.png,n02133161_6152.png,0.0,1.3417175,3.398824,-1.454594
bagnet33,1,320,NaN,chair,chair,30,0320_ps_dnn_30_chair_10_n04099969_8401.png,n04099969_8401.png,1.0,8.494774,7.5092535,0.6968681
bagnet33,1,321,NaN,knife,oven,150,0321_ps_dnn_150_oven_10_n04111531_7923.png,n04111531_7923.png,0.0,4.8185697,4.9902973,-0.12142979
bagnet33,1,322,NaN,cat,cat,120,0322_ps_dnn_120_cat_10_n02123159_5706.png,n02123159_5706.png,1.0,2.9761202,1.9320902,0.7382408
bagnet33,1,323,NaN,airplane,airplane,30,0323_ps_dnn_30_airplane_10_n02690373_13324.png,n02690373_13324.png,1.0,18.288218,6.876073,8.069605
bagnet33,1,324,NaN,knife,airplane,150,0324_ps_dnn_150_airplane_10_n02690373_4452.png,n02690373_4452.png,0.0,0.8989308,4.8225327,-2.7744055
bagnet33,1,325,NaN,airplane,bird,90,0325_ps_dnn_90_bird_10_n02056570_10881.png,n02056570_10881.png,0.0,-0.88829696,4.3179436,-3.681368
bagnet33,1,326,NaN,airplane,airplane,90,0326_ps_dnn_90_airplane_10_n02690373_19133.png,n02690373_19133.png,1.0,10.862793,3.1847894,5.429168
bagnet33,1,327,NaN,bottle,bottle,0,0327_ps_dnn_0_bottle_10_n03937543_4850.png,n03937543_4850.png,1.0,10.693936,4.0909624,4.669008
bagnet33,1,328,NaN,airplane,keyboard,150,0328_ps_dnn_150_keyboard_10_n04505470_2709.png,n04505470_2709.png,0.0,-0.73832625,3.9578662,-3.3207095
bagnet33,1,329,NaN,oven,keyboard,90,0329_ps_dnn_90_keyboard_10_n03085013_1797.png,n03085013_1797.png,0.0,-1.9351851,9.903358,-8.371115
bagnet33,1,330,NaN,oven,oven,30,0330_ps_dnn_30_oven_10_n04111531_3902.png,n04111531_3902.png,1.0,6.795025,4.535121,1.5979934
bagnet33,1,331,NaN,knife,car,180,0331_ps_dnn_180_car_10_n03100240_6750.png,n03100240_6750.png,0.0,-0.7581199,4.9425817,-4.031005
bagnet33,1,332,NaN,chair,chair,0,0332_ps_dnn_0_chair_10_n03376595_16306.png,n03376595_16306.png,1.0,11.235548,5.8699613,3.7940428
bagnet33,1,333,NaN,oven,boat,60,0333_ps_dnn_60_boat_10_n02951358_13017.png,n02951358_13017.png,0.0,-1.40046,6.951853,-5.9059772
bagnet33,1,334,NaN,oven,clock,90,0334_ps_dnn_90_clock_10_n03196217_5827.png,n03196217_5827.png,0.0,3.161257,6.700103,-2.502342
bagnet33,1,335,NaN,bottle,bottle,0,0335_ps_dnn_0_bottle_10_n02823428_685.png,n02823428_685.png,1.0,5.508739,4.798843,0.5019723
bagnet33,1,336,NaN,airplane,airplane,120,0336_ps_dnn_120_airplane_10_n02690373_2092.png,n02690373_2092.png,1.0,4.029373,2.8389933,0.8417257
bagnet33,1,337,NaN,clock,bottle,180,0337_ps_dnn_180_bottle_10_n04557648_3637.png,n04557648_3637.png,0.0,0.0029150078,4.717544,-3.3337464
bagnet33,1,338,NaN,cat,bird,90,0338_ps_dnn_90_bird_10_n01819313_5521.png,n01819313_5521.png,0.0,-0.86963534,3.9753227,-3.4259028
bagnet33,1,339,NaN,knife,dog,90,0339_ps_dnn_90_dog_10_n02100583_24297.png,n02100583_24297.png,0.0,-1.3506941,5.1362667,-4.586974
bagnet33,1,340,NaN,elephant,bird,60,0340_ps_dnn_60_bird_10_n02018207_12233.png,n02018207_12233.png,0.0,0.2639261,2.130981,-1.3202072
bagnet33,1,341,NaN,knife,bird,180,0341_ps_dnn_180_bird_10_n02013706_3032.png,n02013706_3032.png,0.0,-1.1883093,3.7678175,-3.5045109
bagnet33,1,342,NaN,oven,oven,60,0342_ps_dnn_60_oven_10_n04111531_9939.png,n04111531_9939.png,1.0,11.368205,3.158687,5.805006
bagnet33,1,343,NaN,knife,bird,180,0343_ps_dnn_180_bird_10_n02011460_7629.png,n02011460_7629.png,0.0,-1.3841243,1.6789341,-2.1659093
bagnet33,1,344,NaN,knife,oven,60,0344_ps_dnn_60_oven_10_n04111531_13542.png,n04111531_13542.png,0.0,4.95753,7.8313336,-2.0320861
bagnet33,1,345,NaN,bicycle,bear,90,0345_ps_dnn_90_bear_10_n02134418_270.png,n02134418_270.png,0.0,1.4018439,2.655397,-0.8863959
bagnet33,1,346,NaN,bear,bicycle,90,0346_ps_dnn_90_bicycle_10_n03792782_12561.png,n03792782_12561.png,0.0,1.2846009,3.3552356,-1.46416
bagnet33,1,347,NaN,elephant,elephant,120,0347_ps_dnn_120_elephant_10_n02504458_9213.png,n02504458_9213.png,1.0,6.8387923,3.1033385,2.6413648
bagnet33,1,348,NaN,knife,chair,90,0348_ps_dnn_90_chair_10_n03376595_4155.png,n03376595_4155.png,0.0,4.2773147,7.036881,-1.9513081
bagnet33,1,349,NaN,knife,truck,120,0349_ps_dnn_120_truck_10_n04467665_69970.png,n04467665_69970.png,0.0,-1.4716568,5.050494,-4.6118574
bagnet33,1,350,NaN,airplane,bird,120,0350_ps_dnn_120_bird_10_n02002556_2350.png,n02002556_2350.png,0.0,-0.03265772,1.8536952,-1.333853
bagnet33,1,351,NaN,bear,bear,0,0351_ps_dnn_0_bear_10_n02133161_355.png,n02133161_355.png,1.0,6.311419,4.794502,1.0726224
bagnet33,1,352,NaN,knife,airplane,90,0352_ps_dnn_90_airplane_10_n02690373_3065.png,n02690373_3065.png,0.0,2.8293414,6.815812,-2.8188605
bagnet33,1,353,NaN,airplane,truck,60,0353_ps_dnn_60_truck_10_n03417042_13289.png,n03417042_13289.png,0.0,7.2302904,7.4314394,-0.14223382
bagnet33,1,354,NaN,oven,oven,0,0354_ps_dnn_0_oven_10_n04111531_21404.png,n04111531_21404.png,1.0,9.168906,3.7704775,3.8172657
bagnet33,1,355,NaN,knife,bear,90,0355_ps_dnn_90_bear_10_n02132136_8358.png,n02132136_8358.png,0.0,1.2976179,2.7367914,-1.0176493
bagnet33,1,356,NaN,elephant,oven,90,0356_ps_dnn_90_oven_10_n04111531_274.png,n04111531_274.png,0.0,2.0071917,3.0124712,-0.71084
bagnet33,1,357,NaN,knife,chair,120,0357_ps_dnn_120_chair_10_n02791124_2773.png,n02791124_2773.png,0.0,3.034696,5.3847017,-1.6617049
bagnet33,1,358,NaN,elephant,knife,120,0358_ps_dnn_120_knife_10_n03041632_102828.png,n03041632_102828.png,0.0,1.9855511,2.7610073,-0.54833037
bagnet33,1,359,NaN,knife,boat,150,0359_ps_dnn_150_boat_10_n02951358_30995.png,n02951358_30995.png,0.0,-0.19416142,3.3362665,-2.4963896
bagnet33,1,360,NaN,airplane,bicycle,150,0360_ps_dnn_150_bicycle_10_n03792782_4544.png,n03792782_4544.png,0.0,0.7000466,4.4842734,-2.6758525
bagnet33,1,361,NaN,knife,airplane,120,0361_ps_dnn_120_airplane_10_n02690373_8446.png,n02690373_8446.png,0.0,-1.2768681,6.2177033,-5.2994623
bagnet33,1,362,NaN,knife,bottle,30,0362_ps_dnn_30_bottle_10_n04557648_900.png,n04557648_900.png,0.0,5.288957,6.782585,-1.0561545
bagnet33,1,363,NaN,knife,airplane,150,0363_ps_dnn_150_airplane_10_n02690373_3407.png,n02690373_3407.png,0.0,0.80738735,5.0233493,-2.9811354
bagnet33,1,364,NaN,clock,bottle,120,0364_ps_dnn_120_bottle_10_n03983396_8143.png,n03983396_8143.png,0.0,1.8194292,3.7203503,-1.3441542
bagnet33,1,365,NaN,car,car,0,0365_ps_dnn_0_car_10_n03100240_9610.png,n03100240_9610.png,1.0,14.961062,10.08242,3.4497209
bagnet33,1,366,NaN,elephant,cat,120,0366_ps_dnn_120_cat_10_n02123159_1108.png,n02123159_1108.png,0.0,0.2236089,1.2583017,-0.7316384
bagnet33,1,367,NaN,clock,clock,0,0367_ps_dnn_0_clock_10_n04548280_2170.png,n04548280_2170.png,1.0,24.045275,6.3790474,12.491909
bagnet33,1,368,NaN,knife,keyboard,120,0368_ps_dnn_120_keyboard_10_n04505470_4385.png,n04505470_4385.png,0.0,-1.8191361,1.724312,-2.5055962
bagnet33,1,369,NaN,knife,airplane,120,0369_ps_dnn_120_airplane_10_n02690373_18383.png,n02690373_18383.png,0.0,2.790997,4.1696453,-0.97485155
bagnet33,1,370,NaN,oven,truck,90,0370_ps_dnn_90_truck_10_n03417042_10243.png,n03417042_10243.png,0.0,0.5590347,6.049385,-3.882264
bagnet33,1,371,NaN,cat,cat,30,0371_ps_dnn_30_cat_10_n02123045_11826.png,n02123045_11826.png,1.0,9.247012,2.4516177,4.8050694
bagnet33,1,372,NaN,elephant,bird,0,0372_ps_dnn_0_bird_10_n01817953_2257.png,n01817953_2257.png,0.0,7.1697507,7.2012997,-0.022308497
bagnet33,1,373,NaN,boat,boat,0,0373_ps_dnn_0_boat_10_n04612504_18442.png,n04612504_18442.png,1.0,11.445459,8.851735,1.83404
bagnet33,1,374,NaN,airplane,airplane,180,0374_ps_dnn_180_airplane_10_n02690373_2874.png,n02690373_2874.png,1.0,4.014436,3.4260478,0.41605312
bagnet33,1,375,NaN,bicycle,bicycle,0,0375_ps_dnn_0_bicycle_10_n02835271_4963.png,n02835271_4963.png,1.0,25.95216,7.424732,13.10087
bagnet33,1,376,NaN,knife,boat,180,0376_ps_dnn_180_boat_10_n04273569_568.png,n04273569_568.png,0.0,3.1657634,4.24519,-0.76327
bagnet33,1,377,NaN,elephant,elephant,90,0377_ps_dnn_90_elephant_10_n02504013_2233.png,n02504013_2233.png,1.0,4.246311,2.040821,1.559517
bagnet33,1,378,NaN,oven,bottle,60,0378_ps_dnn_60_bottle_10_n02823428_889.png,n02823428_889.png,0.0,2.7167213,7.448395,-3.3457983
bagnet33,1,379,NaN,airplane,car,90,0379_ps_dnn_90_car_10_n04285008_3096.png,n04285008_3096.png,0.0,2.798135,5.696395,-2.0493793
bagnet33,1,380,NaN,knife,airplane,120,0380_ps_dnn_120_airplane_10_n02690373_13206.png,n02690373_13206.png,0.0,0.1798932,6.6636577,-4.584714
bagnet33,1,381,NaN,clock,keyboard,90,0381_ps_dnn_90_keyboard_10_n03085013_25443.png,n03085013_25443.png,0.0,-3.8166075,7.386994,-7.922143
bagnet33,1,382,NaN,airplane,truck,30,0382_ps_dnn_30_truck_10_n04467665_20622.png,n04467665_20622.png,0.0,12.842621,14.029943,-0.8395639
bagnet33,1,383,NaN,bicycle,bicycle,60,0383_ps_dnn_60_bicycle_10_n02835271_24639.png,n02835271_24639.png,1.0,8.118614,3.795553,3.0568657
bagnet33,1,384,NaN,knife,knife,30,0384_ps_dnn_30_knife_10_n03041632_25603.png,n03041632_25603.png,1.0,5.001776,2.998774,1.4163364
bagnet33,1,385,NaN,boat,boat,60,0385_ps_dnn_60_boat_10_n04273569_4978.png,n04273569_4978.png,1.0,6.9053183,6.7323813,0.12228487
bagnet33,1,386,NaN,airplane,car,60,0386_ps_dnn_60_car_10_n02814533_46401.png,n02814533_46401.png,0.0,6.3090014,6.751277,-0.31273603
bagnet33,1,387,NaN,bear,bird,120,0387_ps_dnn_120_bird_10_n01798484_12863.png,n01798484_12863.png,0.0,-0.67848486,6.1902094,-4.8569
bagnet33,1,388,NaN,knife,boat,120,0388_ps_dnn_120_boat_10_n03662601_7885.png,n03662601_7885.png,0.0,1.0144601,5.0149813,-2.8287957
bagnet33,1,389,NaN,chair,chair,0,0389_ps_dnn_0_chair_10_n03376595_3062.png,n03376595_3062.png,1.0,5.377082,4.5651803,0.5741011
bagnet33,1,390,NaN,airplane,airplane,90,0390_ps_dnn_90_airplane_10_n02690373_19118.png,n02690373_19118.png,1.0,9.246298,2.608143,4.6938844
bagnet33,1,391,NaN,knife,cat,180,0391_ps_dnn_180_cat_10_n02123597_3944.png,n02123597_3944.png,0.0,-0.05565272,5.7998896,-4.140494
bagnet33,1,392,NaN,clock,keyboard,150,0392_ps_dnn_150_keyboard_10_n04505470_2113.png,n04505470_2113.png,0.0,2.065749,3.2924836,-0.8674324
bagnet33,1,393,NaN,elephant,bird,30,0393_ps_dnn_30_bird_10_n02056570_4808.png,n02056570_4808.png,0.0,0.24413693,6.874337,-4.6882596
bagnet33,1,394,NaN,elephant,bear,180,0394_ps_dnn_180_bear_10_n02133161_2316.png,n02133161_2316.png,0.0,1.181033,1.5558786,-0.2650559
bagnet33,1,395,NaN,elephant,dog,0,0395_ps_dnn_0_dog_10_n02106662_15515.png,n02106662_15515.png,0.0,3.8559523,5.291913,-1.0153776
bagnet33,1,396,NaN,airplane,airplane,0,0396_ps_dnn_0_airplane_10_n02690373_3899.png,n02690373_3899.png,1.0,9.676827,4.4320135,3.7086434
bagnet33,1,397,NaN,bicycle,boat,0,0397_ps_dnn_0_boat_10_n04273569_2449.png,n04273569_2449.png,0.0,4.9158897,6.542274,-1.1500274
bagnet33,1,398,NaN,oven,bird,120,0398_ps_dnn_120_bird_10_n02007558_7614.png,n02007558_7614.png,0.0,0.0395889,5.394617,-3.7865767
bagnet33,1,399,NaN,bottle,keyboard,90,0399_ps_dnn_90_keyboard_10_n03085013_4914.png,n03085013_4914.png,0.0,1.3301831,8.75276,-5.2485547
bagnet33,1,400,NaN,bear,oven,150,0400_ps_dnn_150_oven_10_n04111531_15296.png,n04111531_15296.png,0.0,-1.9962139,2.983758,-3.5213718
bagnet33,1,401,NaN,knife,chair,60,0401_ps_dnn_60_chair_10_n04099969_246.png,n04099969_246.png,0.0,3.784959,7.379638,-2.541822
bagnet33,1,402,NaN,knife,truck,180,0402_ps_dnn_180_truck_10_n04467665_670.png,n04467665_670.png,0.0,-0.40955248,5.232151,-3.989287
bagnet33,1,403,NaN,bottle,keyboard,90,0403_ps_dnn_90_keyboard_10_n03085013_24192.png,n03085013_24192.png,0.0,4.825399,5.926643,-0.7786971
bagnet33,1,404,NaN,knife,bicycle,150,0404_ps_dnn_150_bicycle_10_n03792782_378.png,n03792782_378.png,0.0,0.85817134,2.5689657,-1.2097143
bagnet33,1,405,NaN,knife,bird,180,0405_ps_dnn_180_bird_10_n02018207_14738.png,n02018207_14738.png,0.0,-0.929549,1.8451768,-1.9620275
bagnet33,1,406,NaN,elephant,bird,0,0406_ps_dnn_0_bird_10_n01530575_5222.png,n01530575_5222.png,0.0,0.29819623,1.3043711,-0.7114731
bagnet33,1,407,NaN,bear,bear,30,0407_ps_dnn_30_bear_10_n02134084_10766.png,n02134084_10766.png,1.0,4.4031324,3.8561532,0.3867727
bagnet33,1,408,NaN,oven,bird,30,0408_ps_dnn_30_bird_10_n02007558_4009.png,n02007558_4009.png,0.0,0.13836427,4.782553,-3.2839375
bagnet33,1,409,NaN,bear,chair,120,0409_ps_dnn_120_chair_10_n04099969_7545.png,n04099969_7545.png,0.0,-0.7168673,2.7477927,-2.4498847
bagnet33,1,410,NaN,clock,clock,90,0410_ps_dnn_90_clock_10_n03196217_127.png,n03196217_127.png,1.0,6.758021,3.3847094,2.3852916
bagnet33,1,411,NaN,knife,bottle,150,0411_ps_dnn_150_bottle_10_n04560804_26326.png,n04560804_26326.png,0.0,1.3255732,6.8033085,-3.873344
bagnet33,1,412,NaN,keyboard,keyboard,30,0412_ps_dnn_30_keyboard_10_n03085013_25066.png,n03085013_25066.png,1.0,11.27377,4.2781005,4.946686
bagnet33,1,413,NaN,cat,cat,30,0413_ps_dnn_30_cat_10_n02124075_11776.png,n02124075_11776.png,1.0,28.083082,5.913146,15.676513
bagnet33,1,414,NaN,knife,keyboard,120,0414_ps_dnn_120_keyboard_10_n04505470_2909.png,n04505470_2909.png,0.0,-2.0562453,3.5352955,-3.9538164
bagnet33,1,415,NaN,keyboard,keyboard,30,0415_ps_dnn_30_keyboard_10_n04505470_494.png,n04505470_494.png,1.0,17.229443,8.539943,6.1444044
bagnet33,1,416,NaN,elephant,bear,120,0416_ps_dnn_120_bear_10_n02133161_2270.png,n02133161_2270.png,0.0,1.7152054,1.8941685,-0.126546
bagnet33,1,417,NaN,knife,chair,120,0417_ps_dnn_120_chair_10_n04099969_13901.png,n04099969_13901.png,0.0,4.615964,5.7602043,-0.80910015
bagnet33,1,418,NaN,bicycle,car,120,0418_ps_dnn_120_car_10_n02814533_2923.png,n02814533_2923.png,0.0,0.31326422,3.9058173,-2.5403187
bagnet33,1,419,NaN,elephant,bottle,90,0419_ps_dnn_90_bottle_10_n03983396_12757.png,n03983396_12757.png,0.0,3.8654163,4.125006,-0.1835578
bagnet33,1,420,NaN,knife,knife,30,0420_ps_dnn_30_knife_10_n03041632_15444.png,n03041632_15444.png,1.0,7.004342,5.105818,1.3424594
bagnet33,1,421,NaN,elephant,bicycle,180,0421_ps_dnn_180_bicycle_10_n02835271_5554.png,n02835271_5554.png,0.0,1.0283109,2.3242056,-0.916336
bagnet33,1,422,NaN,clock,knife,150,0422_ps_dnn_150_knife_10_n03041632_37618.png,n03041632_37618.png,0.0,0.5459455,1.2166393,-0.4742521
bagnet33,1,423,NaN,chair,chair,60,0423_ps_dnn_60_chair_10_n03376595_3910.png,n03376595_3910.png,1.0,7.245464,5.333614,1.3518821
bagnet33,1,424,NaN,dog,dog,30,0424_ps_dnn_30_dog_10_n02086646_7362.png,n02086646_7362.png,1.0,10.3633585,4.3930745,4.221628
bagnet33,1,425,NaN,bear,dog,60,0425_ps_dnn_60_dog_10_n02113712_5829.png,n02113712_5829.png,0.0,0.08051304,2.7602615,-1.8948684
bagnet33,1,426,NaN,knife,truck,180,0426_ps_dnn_180_truck_10_n03417042_1149.png,n03417042_1149.png,0.0,-1.1724167,5.2181177,-4.5187902
bagnet33,1,427,NaN,elephant,bird,60,0427_ps_dnn_60_bird_10_n02002724_3345.png,n02002724_3345.png,0.0,0.17860883,4.974248,-3.391029
bagnet33,1,428,NaN,knife,bird,150,0428_ps_dnn_150_bird_10_n02002556_2917.png,n02002556_2917.png,0.0,-0.18222322,1.4566338,-1.158847
bagnet33,1,429,NaN,elephant,bottle,180,0429_ps_dnn_180_bottle_10_n04560804_3959.png,n04560804_3959.png,0.0,-0.58359516,1.8184886,-1.6985298
bagnet33,1,430,NaN,airplane,airplane,30,0430_ps_dnn_30_airplane_10_n02690373_3639.png,n02690373_3639.png,1.0,22.235588,6.874607,10.861854
bagnet33,1,431,NaN,knife,bottle,120,0431_ps_dnn_120_bottle_10_n02823428_14453.png,n02823428_14453.png,0.0,1.6218617,5.5200157,-2.756411
bagnet33,1,432,NaN,bottle,bottle,0,0432_ps_dnn_0_bottle_10_n03937543_3253.png,n03937543_3253.png,1.0,15.554425,3.5612109,8.480483
bagnet33,1,433,NaN,elephant,elephant,30,0433_ps_dnn_30_elephant_10_n02504013_7010.png,n02504013_7010.png,1.0,5.1002316,3.5683675,1.0831915
bagnet33,1,434,NaN,airplane,car,150,0434_ps_dnn_150_car_10_n04285008_8813.png,n04285008_8813.png,0.0,0.17712192,3.2243657,-2.1547267
bagnet33,1,435,NaN,knife,bear,180,0435_ps_dnn_180_bear_10_n02132136_110.png,n02132136_110.png,0.0,0.023265757,5.100298,-3.590004
bagnet33,1,436,NaN,bear,bear,60,0436_ps_dnn_60_bear_10_n02133161_4294.png,n02133161_4294.png,1.0,5.810576,2.7931857,2.1336172
bagnet33,1,437,NaN,car,car,0,0437_ps_dnn_0_car_10_n02814533_95144.png,n02814533_95144.png,1.0,16.036993,10.836994,3.6769545
bagnet33,1,438,NaN,knife,oven,120,0438_ps_dnn_120_oven_10_n04111531_1220.png,n04111531_1220.png,0.0,2.4945087,4.623408,-1.505359
bagnet33,1,439,NaN,knife,dog,60,0439_ps_dnn_60_dog_10_n02086240_7247.png,n02086240_7247.png,0.0,0.23251279,1.82673,-1.1272818
bagnet33,1,440,NaN,airplane,airplane,0,0440_ps_dnn_0_airplane_10_n02690373_4144.png,n02690373_4144.png,1.0,18.142372,4.4402514,9.688863
bagnet33,1,441,NaN,airplane,oven,120,0441_ps_dnn_120_oven_10_n04111531_986.png,n04111531_986.png,0.0,0.081350446,3.6539593,-2.526216
bagnet33,1,442,NaN,elephant,elephant,30,0442_ps_dnn_30_elephant_10_n02504458_6336.png,n02504458_6336.png,1.0,7.2991962,4.170966,2.2119927
bagnet33,1,443,NaN,knife,knife,150,0443_ps_dnn_150_knife_10_n03041632_14132.png,n03041632_14132.png,1.0,3.182642,2.1559992,0.72594607
bagnet33,1,444,NaN,clock,cat,150,0444_ps_dnn_150_cat_10_n02123159_799.png,n02123159_799.png,0.0,0.32131442,3.7850006,-2.449196
bagnet33,1,445,NaN,knife,bird,90,0445_ps_dnn_90_bird_10_n02006656_7456.png,n02006656_7456.png,0.0,-0.26671973,6.1081905,-4.5077424
bagnet33,1,446,NaN,knife,cat,90,0446_ps_dnn_90_cat_10_n02123045_8722.png,n02123045_8722.png,0.0,0.60065645,4.7671537,-2.9461584
bagnet33,1,447,NaN,knife,chair,120,0447_ps_dnn_120_chair_10_n03376595_8302.png,n03376595_8302.png,0.0,1.8859404,4.6172047,-1.9312954
bagnet33,1,448,NaN,bottle,bottle,30,0448_ps_dnn_30_bottle_10_n04560804_5769.png,n04560804_5769.png,1.0,9.128877,5.222886,2.7619524
bagnet33,1,449,NaN,clock,car,90,0449_ps_dnn_90_car_10_n04285008_203.png,n04285008_203.png,0.0,-0.3329536,3.9650362,-3.0391378
bagnet33,1,450,NaN,knife,airplane,180,0450_ps_dnn_180_airplane_10_n02690373_9959.png,n02690373_9959.png,0.0,-0.95843434,5.4062757,-4.50053
bagnet33,1,451,NaN,car,car,0,0451_ps_dnn_0_car_10_n04285008_1867.png,n04285008_1867.png,1.0,18.120462,9.110119,6.371275
bagnet33,1,452,NaN,knife,airplane,150,0452_ps_dnn_150_airplane_10_n02690373_16250.png,n02690373_16250.png,0.0,0.86222655,2.725584,-1.3175927
bagnet33,1,453,NaN,elephant,elephant,30,0453_ps_dnn_30_elephant_10_n02504458_4696.png,n02504458_4696.png,1.0,4.4826064,3.0503929,1.012728
bagnet33,1,454,NaN,bicycle,car,60,0454_ps_dnn_60_car_10_n04285008_10755.png,n04285008_10755.png,0.0,2.9008172,5.300061,-1.6965218
bagnet33,1,455,NaN,knife,boat,150,0455_ps_dnn_150_boat_10_n02951358_11586.png,n02951358_11586.png,0.0,1.6004064,3.430392,-1.2939953
bagnet33,1,456,NaN,bottle,bottle,60,0456_ps_dnn_60_bottle_10_n02823428_4108.png,n02823428_4108.png,1.0,14.951867,5.848345,6.4371624
bagnet33,1,457,NaN,elephant,car,180,0457_ps_dnn_180_car_10_n04285008_11770.png,n04285008_11770.png,0.0,-1.7366356,5.4567914,-5.086521
bagnet33,1,458,NaN,knife,boat,90,0458_ps_dnn_90_boat_10_n04273569_32786.png,n04273569_32786.png,0.0,-0.32721588,4.9353347,-3.7211852
bagnet33,1,459,NaN,bear,bear,30,0459_ps_dnn_30_bear_10_n02132136_21267.png,n02132136_21267.png,1.0,9.922597,8.645582,0.9029858
bagnet33,1,460,NaN,airplane,car,90,0460_ps_dnn_90_car_10_n03100240_24001.png,n03100240_24001.png,0.0,0.26410058,3.6708114,-2.4089084
bagnet33,1,461,NaN,clock,bottle,150,0461_ps_dnn_150_bottle_10_n03937543_71.png,n03937543_71.png,0.0,-0.020058988,1.8420238,-1.3166914
bagnet33,1,462,NaN,airplane,chair,0,0462_ps_dnn_0_chair_10_n02791124_16127.png,n02791124_16127.png,0.0,5.6162996,8.5436325,-2.069937
bagnet33,1,463,NaN,airplane,bird,90,0463_ps_dnn_90_bird_10_n02002724_12183.png,n02002724_12183.png,0.0,-0.17495975,3.0412364,-2.274194
bagnet33,1,464,NaN,elephant,dog,30,0464_ps_dnn_30_dog_10_n02108915_1165.png,n02108915_1165.png,0.0,4.068192,4.455741,-0.27403846
bagnet33,1,465,NaN,knife,dog,180,0465_ps_dnn_180_dog_10_n02099429_4843.png,n02099429_4843.png,0.0,0.8435849,2.9706352,-1.5040518
bagnet33,1,466,NaN,airplane,boat,60,0466_ps_dnn_60_boat_10_n03344393_3499.png,n03344393_3499.png,0.0,6.9340277,12.885153,-4.2080812
bagnet33,1,467,NaN,clock,truck,120,0467_ps_dnn_120_truck_10_n03417042_20962.png,n03417042_20962.png,0.0,1.9202044,6.070494,-2.9346979
bagnet33,1,468,NaN,oven,dog,30,0468_ps_dnn_30_dog_10_n02097047_4189.png,n02097047_4189.png,0.0,2.294688,3.7446527,-1.0252799
bagnet33,1,469,NaN,bicycle,bicycle,60,0469_ps_dnn_60_bicycle_10_n03792782_24591.png,n03792782_24591.png,1.0,15.364872,4.2966976,7.826381
bagnet33,1,470,NaN,airplane,airplane,60,0470_ps_dnn_60_airplane_10_n02690373_243.png,n02690373_243.png,1.0,15.711415,4.4842825,7.9387817
bagnet33,1,471,NaN,airplane,boat,90,0471_ps_dnn_90_boat_10_n03344393_3072.png,n03344393_3072.png,0.0,3.327771,4.608031,-0.9052804
bagnet33,1,472,NaN,knife,clock,120,0472_ps_dnn_120_clock_10_n02708093_118.png,n02708093_118.png,0.0,5.4859557,5.5209146,-0.024719633
bagnet33,1,473,NaN,oven,bird,30,0473_ps_dnn_30_bird_10_n01843065_2664.png,n01843065_2664.png,0.0,2.0128274,2.8002176,-0.55676895
bagnet33,1,474,NaN,knife,airplane,150,0474_ps_dnn_150_airplane_10_n02690373_19353.png,n02690373_19353.png,0.0,-0.438151,6.106991,-4.628114
bagnet33,1,475,NaN,bear,dog,120,0475_ps_dnn_120_dog_10_n02099849_4250.png,n02099849_4250.png,0.0,0.43375984,1.8964951,-1.0343101
bagnet33,1,476,NaN,clock,truck,90,0476_ps_dnn_90_truck_10_n04467665_29260.png,n04467665_29260.png,0.0,3.4387307,5.600329,-1.5284808
bagnet33,1,477,NaN,elephant,elephant,30,0477_ps_dnn_30_elephant_10_n02504013_8308.png,n02504013_8308.png,1.0,17.149727,5.4270945,8.289153
bagnet33,1,478,NaN,knife,boat,150,0478_ps_dnn_150_boat_10_n03344393_6854.png,n03344393_6854.png,0.0,-0.32121244,5.09197,-3.827698
bagnet33,1,479,NaN,knife,truck,180,0479_ps_dnn_180_truck_10_n04467665_25129.png,n04467665_25129.png,0.0,-0.9102606,4.720122,-3.9812818
bagnet33,1,480,NaN,chair,bird,30,0480_ps_dnn_30_bird_10_n01824575_6272.png,n01824575_6272.png,0.0,-0.2592871,1.0070882,-0.8954626
bagnet33,1,481,NaN,elephant,chair,180,0481_ps_dnn_180_chair_10_n04099969_19484.png,n04099969_19484.png,0.0,0.9702159,2.5337725,-1.1056014
bagnet33,1,482,NaN,oven,oven,120,0482_ps_dnn_120_oven_10_n04111531_5888.png,n04111531_5888.png,1.0,6.4555826,3.5726504,2.0385408
bagnet33,1,483,NaN,knife,chair,60,0483_ps_dnn_60_chair_10_n04099969_16266.png,n04099969_16266.png,0.0,4.109292,5.697852,-1.1232816
bagnet33,1,484,NaN,knife,truck,150,0484_ps_dnn_150_truck_10_n04467665_68754.png,n04467665_68754.png,0.0,-0.81030995,5.3842382,-4.380207
bagnet33,1,485,NaN,knife,cat,180,0485_ps_dnn_180_cat_10_n02123394_7859.png,n02123394_7859.png,0.0,-0.066801734,3.853097,-2.771787
bagnet33,1,486,NaN,clock,car,90,0486_ps_dnn_90_car_10_n04285008_17056.png,n04285008_17056.png,0.0,-0.5114158,4.340918,-3.4311182
bagnet33,1,487,NaN,airplane,cat,120,0487_ps_dnn_120_cat_10_n02123045_12046.png,n02123045_12046.png,0.0,-0.3757361,1.7242014,-1.48488
bagnet33,1,488,NaN,bear,elephant,180,0488_ps_dnn_180_elephant_10_n02504013_3029.png,n02504013_3029.png,0.0,1.8003609,2.2674427,-0.3302767
bagnet33,1,489,NaN,knife,boat,120,0489_ps_dnn_120_boat_10_n03662601_7271.png,n03662601_7271.png,0.0,1.0959046,3.4954302,-1.6967208
bagnet33,1,490,NaN,bear,bear,30,0490_ps_dnn_30_bear_10_n02133161_6861.png,n02133161_6861.png,1.0,5.262699,3.4769742,1.2626982
bagnet33,1,491,NaN,chair,chair,30,0491_ps_dnn_30_chair_10_n02791124_4192.png,n02791124_4192.png,1.0,7.38607,5.8112235,1.1135845
bagnet33,1,492,NaN,oven,boat,60,0492_ps_dnn_60_boat_10_n04273569_1457.png,n04273569_1457.png,0.0,2.2625408,4.1646643,-1.3450044
bagnet33,1,493,NaN,clock,clock,90,0493_ps_dnn_90_clock_10_n04548280_764.png,n04548280_764.png,1.0,4.2936473,3.333242,0.67910916
bagnet33,1,494,NaN,elephant,bicycle,120,0494_ps_dnn_120_bicycle_10_n02835271_12346.png,n02835271_12346.png,0.0,1.7445523,6.234976,-3.175209
bagnet33,1,495,NaN,clock,bicycle,180,0495_ps_dnn_180_bicycle_10_n03792782_50673.png,n03792782_50673.png,0.0,1.0155747,1.6907209,-0.47740048
bagnet33,1,496,NaN,knife,truck,120,0496_ps_dnn_120_truck_10_n03796401_9198.png,n03796401_9198.png,0.0,-0.44097966,6.1670513,-4.6725836
bagnet33,1,497,NaN,airplane,airplane,0,0497_ps_dnn_0_airplane_10_n02690373_4110.png,n02690373_4110.png,1.0,16.235588,3.6824536,8.876407
bagnet33,1,498,NaN,bear,dog,60,0498_ps_dnn_60_dog_10_n02107683_2484.png,n02107683_2484.png,0.0,2.6855636,4.1643143,-1.0456346
bagnet33,1,499,NaN,clock,chair,60,0499_ps_dnn_60_chair_10_n02791124_13057.png,n02791124_13057.png,0.0,2.0486922,6.884298,-3.4192896
bagnet33,1,500,NaN,knife,bear,120,0500_ps_dnn_120_bear_10_n02134418_14451.png,n02134418_14451.png,0.0,0.64291066,1.9873897,-0.95069027
bagnet33,1,501,NaN,oven,bird,60,0501_ps_dnn_60_bird_10_n01843383_10059.png,n01843383_10059.png,0.0,-1.1603804,6.8887324,-5.691582
bagnet33,1,502,NaN,bicycle,bicycle,0,0502_ps_dnn_0_bicycle_10_n03792782_11824.png,n03792782_11824.png,1.0,26.610378,4.50348,15.631939
bagnet33,1,503,NaN,oven,bird,30,0503_ps_dnn_30_bird_10_n01532829_2492.png,n01532829_2492.png,0.0,2.4963658,4.863313,-1.6736846
bagnet33,1,504,NaN,bottle,bottle,0,0504_ps_dnn_0_bottle_10_n04579145_5621.png,n04579145_5621.png,1.0,7.432626,4.23215,2.2630782
bagnet33,1,505,NaN,knife,truck,150,0505_ps_dnn_150_truck_10_n03417042_6250.png,n03417042_6250.png,0.0,-1.2067602,5.039463,-4.416747
bagnet33,1,506,NaN,bear,dog,90,0506_ps_dnn_90_dog_10_n02108551_14704.png,n02108551_14704.png,0.0,3.7251325,6.9501786,-2.280452
bagnet33,1,507,NaN,boat,boat,30,0507_ps_dnn_30_boat_10_n04612504_8407.png,n04612504_8407.png,1.0,7.7558656,6.0151143,1.2308971
bagnet33,1,508,NaN,knife,car,120,0508_ps_dnn_120_car_10_n03100240_14794.png,n03100240_14794.png,0.0,-2.6171038,8.639692,-7.959757
bagnet33,1,509,NaN,airplane,dog,60,0509_ps_dnn_60_dog_10_n02097658_759.png,n02097658_759.png,0.0,-1.601508,4.351108,-4.2091355
bagnet33,1,510,NaN,elephant,oven,90,0510_ps_dnn_90_oven_10_n04111531_5965.png,n04111531_5965.png,0.0,1.9470356,3.9463706,-1.4137434
bagnet33,1,511,NaN,airplane,elephant,180,0511_ps_dnn_180_elephant_10_n02504013_6984.png,n02504013_6984.png,0.0,0.68946224,1.5375206,-0.59966785
bagnet33,1,512,NaN,oven,oven,180,0512_ps_dnn_180_oven_10_n04111531_6695.png,n04111531_6695.png,1.0,5.5883904,3.658939,1.3643283
bagnet33,1,513,NaN,oven,bird,60,0513_ps_dnn_60_bird_10_n02037110_4572.png,n02037110_4572.png,0.0,-0.5199845,3.3188484,-2.714465
bagnet33,1,514,NaN,truck,truck,30,0514_ps_dnn_30_truck_10_n03796401_11628.png,n03796401_11628.png,1.0,4.84647,3.778551,0.7551326
bagnet33,1,515,NaN,knife,chair,180,0515_ps_dnn_180_chair_10_n02791124_1258.png,n02791124_1258.png,0.0,2.3968022,4.592982,-1.5529336
bagnet33,1,516,NaN,clock,knife,0,0516_ps_dnn_0_knife_10_n03041632_62810.png,n03041632_62810.png,0.0,4.0515714,7.0183473,-2.0978274
bagnet33,1,517,NaN,airplane,bird,90,0517_ps_dnn_90_bird_10_n01819313_2770.png,n01819313_2770.png,0.0,-1.259023,1.9841168,-2.293246
bagnet33,1,518,NaN,clock,bicycle,60,0518_ps_dnn_60_bicycle_10_n02835271_25519.png,n02835271_25519.png,0.0,5.453374,6.029869,-0.40764365
bagnet33,1,519,NaN,boat,boat,0,0519_ps_dnn_0_boat_10_n03662601_23248.png,n03662601_23248.png,1.0,8.508158,8.298411,0.14831308
bagnet33,1,520,NaN,airplane,elephant,120,0520_ps_dnn_120_elephant_10_n02504013_1784.png,n02504013_1784.png,0.0,2.3662553,5.9701056,-2.5483072
bagnet33,1,521,NaN,knife,cat,150,0521_ps_dnn_150_cat_10_n02123394_270.png,n02123394_270.png,0.0,-0.06991776,3.6330671,-2.6184058
bagnet33,1,522,NaN,bear,dog,30,0522_ps_dnn_30_dog_10_n02093647_1022.png,n02093647_1022.png,0.0,4.717634,7.6946735,-2.1050847
bagnet33,1,523,NaN,airplane,boat,30,0523_ps_dnn_30_boat_10_n03662601_4881.png,n03662601_4881.png,0.0,6.4475656,9.373016,-2.0686061
bagnet33,1,524,NaN,elephant,knife,60,0524_ps_dnn_60_knife_10_n03041632_8321.png,n03041632_8321.png,0.0,3.7920117,4.553755,-0.5386337
bagnet33,1,525,NaN,knife,car,120,0525_ps_dnn_120_car_10_n02814533_60400.png,n02814533_60400.png,0.0,0.18030508,3.0702703,-2.043514
bagnet33,1,526,NaN,knife,cat,150,0526_ps_dnn_150_cat_10_n02123597_3280.png,n02123597_3280.png,0.0,1.0543946,3.6036894,-1.8026237
bagnet33,1,527,NaN,knife,dog,150,0527_ps_dnn_150_dog_10_n02110063_3399.png,n02110063_3399.png,0.0,-0.926481,2.2917922,-2.275663
bagnet33,1,528,NaN,elephant,bear,0,0528_ps_dnn_0_bear_10_n02132136_3109.png,n02132136_3109.png,0.0,7.6555624,9.223462,-1.1086725
bagnet33,1,529,NaN,bear,bear,0,0529_ps_dnn_0_bear_10_n02134084_16632.png,n02134084_16632.png,1.0,9.399775,8.299616,0.77792966
bagnet33,1,530,NaN,knife,bottle,150,0530_ps_dnn_150_bottle_10_n04591713_5851.png,n04591713_5851.png,0.0,0.8802065,4.86576,-2.8182118
bagnet33,1,531,NaN,airplane,knife,0,0531_ps_dnn_0_knife_10_n03041632_29961.png,n03041632_29961.png,0.0,3.594962,4.2941747,-0.4944181
bagnet33,1,532,NaN,knife,knife,30,0532_ps_dnn_30_knife_10_n03041632_10140.png,n03041632_10140.png,1.0,8.198326,3.600141,3.2514079
bagnet33,1,533,NaN,knife,airplane,180,0533_ps_dnn_180_airplane_10_n02690373_8765.png,n02690373_8765.png,0.0,-0.17685723,6.8080125,-4.939049
bagnet33,1,534,NaN,elephant,knife,120,0534_ps_dnn_120_knife_10_n03041632_16826.png,n03041632_16826.png,0.0,1.8014045,2.4619515,-0.46707729
bagnet33,1,535,NaN,knife,chair,30,0535_ps_dnn_30_chair_10_n04429376_21089.png,n04429376_21089.png,0.0,5.254554,5.4788084,-0.15857196
bagnet33,1,536,NaN,airplane,bear,60,0536_ps_dnn_60_bear_10_n02134084_15118.png,n02134084_15118.png,0.0,1.1053622,3.1434162,-1.4411218
bagnet33,1,537,NaN,knife,car,120,0537_ps_dnn_120_car_10_n04285008_3884.png,n04285008_3884.png,0.0,-1.1516414,2.1897132,-2.3626945
bagnet33,1,538,NaN,knife,boat,150,0538_ps_dnn_150_boat_10_n04273569_1576.png,n04273569_1576.png,0.0,1.316536,4.6019335,-2.3231268
bagnet33,1,539,NaN,elephant,bicycle,120,0539_ps_dnn_120_bicycle_10_n03792782_4600.png,n03792782_4600.png,0.0,0.4640372,2.393694,-1.3644733
bagnet33,1,540,NaN,clock,clock,30,0540_ps_dnn_30_clock_10_n03196217_4537.png,n03196217_4537.png,1.0,14.056815,10.201484,2.726131
bagnet33,1,541,NaN,airplane,airplane,60,0541_ps_dnn_60_airplane_10_n02690373_10203.png,n02690373_10203.png,1.0,7.082798,3.7182784,2.3790746
bagnet33,1,542,NaN,bottle,truck,30,0542_ps_dnn_30_truck_10_n04467665_48875.png,n04467665_48875.png,0.0,3.4916725,6.6773825,-2.2526371
bagnet33,1,543,NaN,airplane,car,60,0543_ps_dnn_60_car_10_n02814533_38071.png,n02814533_38071.png,0.0,6.7206798,9.308638,-1.8299626
bagnet33,1,544,NaN,elephant,bear,90,0544_ps_dnn_90_bear_10_n02133161_160.png,n02133161_160.png,0.0,1.1208138,6.2814856,-3.649146
bagnet33,1,545,NaN,airplane,car,30,0545_ps_dnn_30_car_10_n02814533_40344.png,n02814533_40344.png,0.0,5.547882,8.411916,-2.0251777
bagnet33,1,546,NaN,knife,oven,180,0546_ps_dnn_180_oven_10_n04111531_9026.png,n04111531_9026.png,0.0,0.33015585,4.292358,-2.8017
bagnet33,1,547,NaN,knife,cat,0,0547_ps_dnn_0_cat_10_n02123597_13755.png,n02123597_13755.png,0.0,2.5464306,3.054731,-0.3594226
bagnet33,1,548,NaN,knife,car,150,0548_ps_dnn_150_car_10_n02814533_39485.png,n02814533_39485.png,0.0,-1.5379299,6.3174415,-5.5545864
bagnet33,1,549,NaN,oven,bottle,90,0549_ps_dnn_90_bottle_10_n03937543_4512.png,n03937543_4512.png,0.0,0.15498528,3.9651806,-2.694215
bagnet33,1,550,NaN,cat,cat,120,0550_ps_dnn_120_cat_10_n02124075_2402.png,n02124075_2402.png,1.0,5.192488,3.1773167,1.4249414
bagnet33,1,551,NaN,bicycle,bird,0,0551_ps_dnn_0_bird_10_n02056570_9835.png,n02056570_9835.png,0.0,-1.4665082,4.576334,-4.2729344
bagnet33,1,552,NaN,knife,clock,120,0552_ps_dnn_120_clock_10_n04548280_13247.png,n04548280_13247.png,0.0,6.2015767,7.056674,-0.60464513
bagnet33,1,553,NaN,airplane,truck,60,0553_ps_dnn_60_truck_10_n03417042_173.png,n03417042_173.png,0.0,6.5513797,10.498233,-2.7908466
bagnet33,1,554,NaN,knife,airplane,180,0554_ps_dnn_180_airplane_10_n02690373_1592.png,n02690373_1592.png,0.0,1.9858339,4.5031376,-1.7800026
bagnet33,1,555,NaN,elephant,elephant,0,0555_ps_dnn_0_elephant_10_n02504013_1953.png,n02504013_1953.png,1.0,14.388095,3.901024,7.415479
bagnet33,1,556,NaN,airplane,elephant,150,0556_ps_dnn_150_elephant_10_n02504458_4348.png,n02504458_4348.png,0.0,0.4622795,5.182148,-3.3374512
bagnet33,1,557,NaN,knife,airplane,90,0557_ps_dnn_90_airplane_10_n02690373_1854.png,n02690373_1854.png,0.0,7.492309,8.750652,-0.889783
bagnet33,1,558,NaN,knife,cat,180,0558_ps_dnn_180_cat_10_n02124075_14363.png,n02124075_14363.png,0.0,0.2647664,3.0738523,-1.9863237
bagnet33,1,559,NaN,bottle,bottle,30,0559_ps_dnn_30_bottle_10_n03983396_3377.png,n03983396_3377.png,1.0,15.830913,6.623425,6.510677
bagnet33,1,560,NaN,clock,clock,90,0560_ps_dnn_90_clock_10_n04548280_6743.png,n04548280_6743.png,1.0,10.917023,6.1015415,3.4050596
bagnet33,1,561,NaN,airplane,clock,30,0561_ps_dnn_30_clock_10_n03196217_8034.png,n03196217_8034.png,0.0,6.2671356,6.787298,-0.3678105
bagnet33,1,562,NaN,knife,dog,150,0562_ps_dnn_150_dog_10_n02088094_13992.png,n02088094_13992.png,0.0,-1.390798,5.188524,-4.652283
bagnet33,1,563,NaN,car,car,30,0563_ps_dnn_30_car_10_n03100240_6216.png,n03100240_6216.png,1.0,13.236699,11.3908825,1.3051895
bagnet33,1,564,NaN,chair,oven,30,0564_ps_dnn_30_oven_10_n04111531_2831.png,n04111531_2831.png,0.0,5.761758,6.3624253,-0.42473605
bagnet33,1,565,NaN,knife,knife,0,0565_ps_dnn_0_knife_10_n03041632_927.png,n03041632_927.png,1.0,20.726498,3.9890633,11.835154
bagnet33,1,566,NaN,oven,knife,150,0566_ps_dnn_150_knife_10_n03041632_5427.png,n03041632_5427.png,0.0,2.8162777,4.4740562,-1.1722264
bagnet33,1,567,NaN,knife,cat,180,0567_ps_dnn_180_cat_10_n02123045_8690.png,n02123045_8690.png,0.0,-0.68946433,1.7874098,-1.7514145
bagnet33,1,568,NaN,clock,clock,90,0568_ps_dnn_90_clock_10_n02708093_6696.png,n02708093_6696.png,1.0,7.363018,3.08984,3.0215933
bagnet33,1,569,NaN,airplane,airplane,60,0569_ps_dnn_60_airplane_10_n02690373_7748.png,n02690373_7748.png,1.0,7.6970186,3.9178903,2.6722474
bagnet33,1,570,NaN,airplane,airplane,0,0570_ps_dnn_0_airplane_10_n02690373_20011.png,n02690373_20011.png,1.0,8.593129,5.344866,2.296869
bagnet33,1,571,NaN,knife,boat,150,0571_ps_dnn_150_boat_10_n02951358_16728.png,n02951358_16728.png,0.0,1.0018533,5.448798,-3.1444647
bagnet33,1,572,NaN,airplane,truck,60,0572_ps_dnn_60_truck_10_n04467665_37833.png,n04467665_37833.png,0.0,6.3774695,12.348143,-4.2219033
bagnet33,1,573,NaN,clock,oven,0,0573_ps_dnn_0_oven_10_n04111531_22886.png,n04111531_22886.png,0.0,4.6300945,4.747151,-0.08277135
bagnet33,1,574,NaN,car,car,30,0574_ps_dnn_30_car_10_n04285008_5959.png,n04285008_5959.png,1.0,12.485568,7.788663,3.3212135
bagnet33,1,575,NaN,knife,boat,120,0575_ps_dnn_120_boat_10_n04273569_10840.png,n04273569_10840.png,0.0,0.039024495,3.4624667,-2.4207392
bagnet33,1,576,NaN,knife,clock,180,0576_ps_dnn_180_clock_10_n02708093_1352.png,n02708093_1352.png,0.0,4.026533,4.471007,-0.3142904
bagnet33,1,577,NaN,knife,oven,120,0577_ps_dnn_120_oven_10_n04111531_1004.png,n04111531_1004.png,0.0,0.39289892,6.324449,-4.194239
bagnet33,1,578,NaN,knife,car,180,0578_ps_dnn_180_car_10_n03100240_4619.png,n03100240_4619.png,0.0,0.37362158,3.349006,-2.1039145
bagnet33,1,579,NaN,knife,oven,180,0579_ps_dnn_180_oven_10_n04111531_15367.png,n04111531_15367.png,0.0,-2.1691616,1.1991266,-2.3817394
bagnet33,1,580,NaN,oven,oven,30,0580_ps_dnn_30_oven_10_n04111531_6903.png,n04111531_6903.png,1.0,10.275155,5.626665,3.2869787
bagnet33,1,581,NaN,oven,oven,60,0581_ps_dnn_60_oven_10_n04111531_1662.png,n04111531_1662.png,1.0,3.9325075,2.1675942,1.2479821
bagnet33,1,582,NaN,keyboard,keyboard,0,0582_ps_dnn_0_keyboard_10_n04505470_1342.png,n04505470_1342.png,1.0,53.869183,14.318467,27.96658
bagnet33,1,583,NaN,airplane,boat,60,0583_ps_dnn_60_boat_10_n02951358_1911.png,n02951358_1911.png,0.0,3.2123504,6.6490664,-2.4301252
bagnet33,1,584,NaN,bicycle,bicycle,30,0584_ps_dnn_30_bicycle_10_n03792782_42927.png,n03792782_42927.png,1.0,3.438985,3.1765718,0.1855542
bagnet33,1,585,NaN,airplane,chair,180,0585_ps_dnn_180_chair_10_n02791124_3994.png,n02791124_3994.png,0.0,-0.36140496,2.3207757,-1.8965882
bagnet33,1,586,NaN,dog,dog,0,0586_ps_dnn_0_dog_10_n02101388_1383.png,n02101388_1383.png,1.0,6.923056,3.6037173,2.347127
bagnet33,1,587,NaN,dog,bear,30,0587_ps_dnn_30_bear_10_n02132136_9367.png,n02132136_9367.png,0.0,1.4531207,4.560398,-2.197177
bagnet33,1,588,NaN,knife,dog,150,0588_ps_dnn_150_dog_10_n02108915_7875.png,n02108915_7875.png,0.0,-0.046573106,1.967532,-1.4241874
bagnet33,1,589,NaN,chair,chair,60,0589_ps_dnn_60_chair_10_n02791124_6237.png,n02791124_6237.png,1.0,5.709553,5.2004604,0.35998264
bagnet33,1,590,NaN,cat,bird,60,0590_ps_dnn_60_bird_10_n01622779_13896.png,n01622779_13896.png,0.0,4.1818786,7.467748,-2.3234608
bagnet33,1,591,NaN,airplane,boat,30,0591_ps_dnn_30_boat_10_n04273569_15583.png,n04273569_15583.png,0.0,2.5886474,6.9823146,-3.106792
bagnet33,1,592,NaN,bottle,bottle,0,0592_ps_dnn_0_bottle_10_n03937543_3079.png,n03937543_3079.png,1.0,5.92312,5.908484,0.010349243
bagnet33,1,593,NaN,airplane,dog,150,0593_ps_dnn_150_dog_10_n02110063_5687.png,n02110063_5687.png,0.0,0.8643954,2.800983,-1.3693743
bagnet33,1,594,NaN,airplane,truck,30,0594_ps_dnn_30_truck_10_n03417042_6685.png,n03417042_6685.png,0.0,5.511634,7.1660347,-1.1698381
bagnet33,1,595,NaN,clock,clock,0,0595_ps_dnn_0_clock_10_n02708093_340.png,n02708093_340.png,1.0,16.28762,8.2200165,5.7046576
bagnet33,1,596,NaN,dog,dog,0,0596_ps_dnn_0_dog_10_n02111129_5463.png,n02111129_5463.png,1.0,11.539302,8.426888,2.2008088
bagnet33,1,597,NaN,bicycle,bicycle,90,0597_ps_dnn_90_bicycle_10_n03792782_17503.png,n03792782_17503.png,1.0,3.4696233,3.2908494,0.12641223
bagnet33,1,598,NaN,bicycle,bear,60,0598_ps_dnn_60_bear_10_n02134084_9253.png,n02134084_9253.png,0.0,1.1958276,1.2136573,-0.012607471
bagnet33,1,599,NaN,airplane,car,30,0599_ps_dnn_30_car_10_n04285008_3688.png,n04285008_3688.png,0.0,4.7398353,6.174992,-1.0148091
bagnet33,1,600,NaN,clock,bird,150,0600_ps_dnn_150_bird_10_n01795545_17324.png,n01795545_17324.png,0.0,-0.8008504,1.5908417,-1.6911818
bagnet33,1,601,NaN,boat,boat,30,0601_ps_dnn_30_boat_10_n04273569_16064.png,n04273569_16064.png,1.0,8.415048,6.677301,1.2287725
bagnet33,1,602,NaN,knife,elephant,180,0602_ps_dnn_180_elephant_10_n02504458_4395.png,n02504458_4395.png,0.0,0.47796112,2.6304297,-1.5220252
bagnet33,1,603,NaN,oven,oven,30,0603_ps_dnn_30_oven_10_n04111531_21855.png,n04111531_21855.png,1.0,8.257225,3.8044543,3.1485844
bagnet33,1,604,NaN,oven,oven,30,0604_ps_dnn_30_oven_10_n04111531_11225.png,n04111531_11225.png,1.0,10.448989,6.6490865,2.6869369
bagnet33,1,605,NaN,knife,oven,150,0605_ps_dnn_150_oven_10_n04111531_13486.png,n04111531_13486.png,0.0,1.3711056,4.26813,-2.0485055
bagnet33,1,606,NaN,truck,chair,0,0606_ps_dnn_0_chair_10_n02791124_1693.png,n02791124_1693.png,0.0,7.9154735,8.707154,-0.5598029
bagnet33,1,607,NaN,knife,chair,150,0607_ps_dnn_150_chair_10_n04099969_26462.png,n04099969_26462.png,0.0,1.0021589,3.863989,-2.0236197
bagnet33,1,608,NaN,knife,chair,120,0608_ps_dnn_120_chair_10_n04429376_16869.png,n04429376_16869.png,0.0,3.7128007,5.0024023,-0.91188604
bagnet33,1,609,NaN,knife,bottle,0,0609_ps_dnn_0_bottle_10_n03983396_23471.png,n03983396_23471.png,0.0,2.00596,6.9574165,-3.5012085
bagnet33,1,610,NaN,bear,bear,0,0610_ps_dnn_0_bear_10_n02134084_5314.png,n02134084_5314.png,1.0,7.708563,4.1557884,2.5121908
bagnet33,1,611,NaN,bear,elephant,180,0611_ps_dnn_180_elephant_10_n02504458_4564.png,n02504458_4564.png,0.0,2.651968,3.712598,-0.7499787
bagnet33,1,612,NaN,bear,bear,0,0612_ps_dnn_0_bear_10_n02132136_6967.png,n02132136_6967.png,1.0,11.952041,10.918801,0.73061055
bagnet33,1,613,NaN,cat,cat,0,0613_ps_dnn_0_cat_10_n02123394_6517.png,n02123394_6517.png,1.0,9.097205,5.961788,2.2170746
bagnet33,1,614,NaN,clock,keyboard,150,0614_ps_dnn_150_keyboard_10_n04505470_1076.png,n04505470_1076.png,0.0,0.36348638,2.802634,-1.7247379
bagnet33,1,615,NaN,knife,knife,180,0615_ps_dnn_180_knife_10_n03041632_5916.png,n03041632_5916.png,1.0,2.865488,2.0985765,0.54228836
bagnet33,1,616,NaN,car,car,90,0616_ps_dnn_90_car_10_n03100240_4674.png,n03100240_4674.png,1.0,3.065107,3.0056896,0.04201451
bagnet33,1,617,NaN,clock,bottle,90,0617_ps_dnn_90_bottle_10_n02823428_1602.png,n02823428_1602.png,0.0,4.7840724,6.902355,-1.4978522
bagnet33,1,618,NaN,knife,boat,90,0618_ps_dnn_90_boat_10_n04273569_27343.png,n04273569_27343.png,0.0,2.2170038,3.293276,-0.76103944
bagnet33,1,619,NaN,knife,bottle,120,0619_ps_dnn_120_bottle_10_n04560804_15162.png,n04560804_15162.png,0.0,0.3777162,2.9352782,-1.8084694
bagnet33,1,620,NaN,knife,bottle,120,0620_ps_dnn_120_bottle_10_n03937543_24.png,n03937543_24.png,0.0,2.0575552,4.976454,-2.063973
bagnet33,1,621,NaN,bear,dog,180,0621_ps_dnn_180_dog_10_n02105162_9615.png,n02105162_9615.png,0.0,1.8072215,2.3091297,-0.35490268
bagnet33,1,622,NaN,knife,bird,150,0622_ps_dnn_150_bird_10_n01582220_1150.png,n01582220_1150.png,0.0,-0.92344075,1.2111853,-1.5094086
bagnet33,1,623,NaN,knife,clock,180,0623_ps_dnn_180_clock_10_n04548280_4560.png,n04548280_4560.png,0.0,3.1793878,4.7997246,-1.1457511
bagnet33,1,624,NaN,airplane,bottle,150,0624_ps_dnn_150_bottle_10_n04560804_14605.png,n04560804_14605.png,0.0,0.03297882,3.1980252,-2.238026
bagnet33,1,625,NaN,chair,chair,0,0625_ps_dnn_0_chair_10_n03376595_262.png,n03376595_262.png,1.0,12.358643,3.9706228,5.931226
bagnet33,1,626,NaN,knife,dog,180,0626_ps_dnn_180_dog_10_n02091032_6523.png,n02091032_6523.png,0.0,0.19340524,4.911132,-3.3359365
bagnet33,1,627,NaN,airplane,cat,150,0627_ps_dnn_150_cat_10_n02123159_615.png,n02123159_615.png,0.0,0.27469435,1.445145,-0.8276336
bagnet33,1,628,NaN,knife,bottle,180,0628_ps_dnn_180_bottle_10_n04579145_6049.png,n04579145_6049.png,0.0,1.9277896,4.289714,-1.6701326
bagnet33,1,629,NaN,airplane,bottle,90,0629_ps_dnn_90_bottle_10_n02823428_4386.png,n02823428_4386.png,0.0,3.6399524,11.086281,-5.2653494
bagnet33,1,630,NaN,knife,car,150,0630_ps_dnn_150_car_10_n03100240_4594.png,n03100240_4594.png,0.0,-0.2243212,4.0021353,-2.9885561
bagnet33,1,631,NaN,knife,knife,120,0631_ps_dnn_120_knife_10_n03041632_51581.png,n03041632_51581.png,1.0,9.447419,4.0988193,3.7820313
bagnet33,1,632,NaN,chair,keyboard,60,0632_ps_dnn_60_keyboard_10_n03085013_15836.png,n03085013_15836.png,0.0,1.9139764,1.9226309,-0.006119638
bagnet33,1,633,NaN,bicycle,bicycle,180,0633_ps_dnn_180_bicycle_10_n03792782_34197.png,n03792782_34197.png,1.0,1.5771827,1.1437421,0.30648878
bagnet33,1,634,NaN,airplane,bicycle,180,0634_ps_dnn_180_bicycle_10_n02835271_9314.png,n02835271_9314.png,0.0,0.6845594,4.652854,-2.806008
bagnet33,1,635,NaN,knife,oven,150,0635_ps_dnn_150_oven_10_n04111531_5643.png,n04111531_5643.png,0.0,3.9993799,5.371704,-0.97037977
bagnet33,1,636,NaN,knife,cat,180,0636_ps_dnn_180_cat_10_n02123394_6362.png,n02123394_6362.png,0.0,-0.24073057,2.1432278,-1.6857132
bagnet33,1,637,NaN,elephant,elephant,60,0637_ps_dnn_60_elephant_10_n02504458_3614.png,n02504458_3614.png,1.0,6.8992987,3.0921152,2.6920853
bagnet33,1,638,NaN,knife,chair,180,0638_ps_dnn_180_chair_10_n04099969_6691.png,n04099969_6691.png,0.0,2.9123094,6.4969063,-2.5346928
bagnet33,1,639,NaN,bear,dog,60,0639_ps_dnn_60_dog_10_n02104365_1262.png,n02104365_1262.png,0.0,0.020915756,2.0544071,-1.4378955
bagnet33,1,640,NaN,knife,chair,180,0640_ps_dnn_180_chair_10_n02791124_2611.png,n02791124_2611.png,0.0,3.1895278,5.4094,-1.5696868
bagnet33,1,641,NaN,car,bird,90,0641_ps_dnn_90_bird_10_n02027492_211.png,n02027492_211.png,0.0,-0.010635666,0.74266165,-0.5326617
bagnet33,1,642,NaN,oven,keyboard,180,0642_ps_dnn_180_keyboard_10_n03085013_15576.png,n03085013_15576.png,0.0,-1.8609338,4.5377235,-4.524534
bagnet33,1,643,NaN,cat,cat,30,0643_ps_dnn_30_cat_10_n02123045_7255.png,n02123045_7255.png,1.0,12.465858,3.826713,6.108798
bagnet33,1,644,NaN,airplane,chair,60,0644_ps_dnn_60_chair_10_n04099969_16382.png,n04099969_16382.png,0.0,3.9926257,5.422651,-1.0111805
bagnet33,1,645,NaN,bear,bear,0,0645_ps_dnn_0_bear_10_n02134418_2324.png,n02134418_2324.png,1.0,11.345529,6.5883594,3.3638268
bagnet33,1,646,NaN,airplane,dog,150,0646_ps_dnn_150_dog_10_n02096585_271.png,n02096585_271.png,0.0,-0.7266013,2.5443745,-2.3129292
bagnet33,1,647,NaN,elephant,oven,150,0647_ps_dnn_150_oven_10_n04111531_4900.png,n04111531_4900.png,0.0,-0.7688727,3.3297443,-2.89816
bagnet33,1,648,NaN,knife,clock,150,0648_ps_dnn_150_clock_10_n04548280_23221.png,n04548280_23221.png,0.0,5.2212014,7.527075,-1.6304988
bagnet33,1,649,NaN,clock,car,60,0649_ps_dnn_60_car_10_n03100240_7753.png,n03100240_7753.png,0.0,2.4251313,5.723144,-2.3320472
bagnet33,1,650,NaN,knife,bear,180,0650_ps_dnn_180_bear_10_n02134084_1503.png,n02134084_1503.png,0.0,1.3802545,2.46286,-0.7655178
bagnet33,1,651,NaN,oven,keyboard,90,0651_ps_dnn_90_keyboard_10_n04505470_986.png,n04505470_986.png,0.0,2.1527653,5.6191316,-2.451091
bagnet33,1,652,NaN,knife,truck,180,0652_ps_dnn_180_truck_10_n04467665_23758.png,n04467665_23758.png,0.0,-1.878408,6.3499203,-5.818307
bagnet33,1,653,NaN,knife,chair,120,0653_ps_dnn_120_chair_10_n03376595_4362.png,n03376595_4362.png,0.0,3.0005758,6.6639023,-2.590363
bagnet33,1,654,NaN,knife,oven,180,0654_ps_dnn_180_oven_10_n04111531_6958.png,n04111531_6958.png,0.0,1.6885332,5.5997295,-2.7656333
bagnet33,1,655,NaN,keyboard,keyboard,30,0655_ps_dnn_30_keyboard_10_n03085013_6166.png,n03085013_6166.png,1.0,16.969757,7.5836143,6.6370053
bagnet33,1,656,NaN,knife,bicycle,120,0656_ps_dnn_120_bicycle_10_n03792782_20475.png,n03792782_20475.png,0.0,-0.63922143,2.9877002,-2.564621
bagnet33,1,657,NaN,knife,cat,180,0657_ps_dnn_180_cat_10_n02123394_2350.png,n02123394_2350.png,0.0,0.4542928,3.182884,-1.9294053
bagnet33,1,658,NaN,elephant,elephant,0,0658_ps_dnn_0_elephant_10_n02504458_4316.png,n02504458_4316.png,1.0,25.40052,2.44234,16.233885
bagnet33,1,659,NaN,clock,clock,30,0659_ps_dnn_30_clock_10_n04548280_4390.png,n04548280_4390.png,1.0,38.780064,13.646044,17.772436
bagnet33,1,660,NaN,airplane,car,60,0660_ps_dnn_60_car_10_n03100240_17421.png,n03100240_17421.png,0.0,6.373362,7.9808455,-1.1366624
bagnet33,1,661,NaN,clock,keyboard,60,0661_ps_dnn_60_keyboard_10_n03085013_30073.png,n03085013_30073.png,0.0,-1.7656245,5.602657,-5.2101617
bagnet33,1,662,NaN,elephant,knife,90,0662_ps_dnn_90_knife_10_n03041632_89391.png,n03041632_89391.png,0.0,2.8983262,4.193801,-0.916039
bagnet33,1,663,NaN,elephant,dog,90,0663_ps_dnn_90_dog_10_n02100877_2341.png,n02100877_2341.png,0.0,-0.34302092,2.2714307,-1.8486965
bagnet33,1,664,NaN,knife,boat,180,0664_ps_dnn_180_boat_10_n03344393_7114.png,n03344393_7114.png,0.0,0.4677853,4.426233,-2.799045
bagnet33,1,665,NaN,oven,knife,0,0665_ps_dnn_0_knife_10_n03041632_22051.png,n03041632_22051.png,0.0,4.4941597,6.4528966,-1.3850361
bagnet33,1,666,NaN,clock,clock,90,0666_ps_dnn_90_clock_10_n02708093_6850.png,n02708093_6850.png,1.0,5.3602104,4.696963,0.46898687
bagnet33,1,667,NaN,oven,knife,60,0667_ps_dnn_60_knife_10_n03041632_15299.png,n03041632_15299.png,0.0,2.9173853,6.8637037,-2.7904685
bagnet33,1,668,NaN,keyboard,keyboard,60,0668_ps_dnn_60_keyboard_10_n03085013_21490.png,n03085013_21490.png,1.0,7.4333673,5.234342,1.5549456
bagnet33,1,669,NaN,knife,knife,60,0669_ps_dnn_60_knife_10_n03041632_105081.png,n03041632_105081.png,1.0,9.735914,5.547023,2.9619935
bagnet33,1,670,NaN,elephant,elephant,0,0670_ps_dnn_0_elephant_10_n02504013_20805.png,n02504013_20805.png,1.0,20.989136,5.336688,11.067952
bagnet33,1,671,NaN,boat,boat,30,0671_ps_dnn_30_boat_10_n02951358_10151.png,n02951358_10151.png,1.0,8.0592785,5.563129,1.7650443
bagnet33,1,672,NaN,oven,oven,90,0672_ps_dnn_90_oven_10_n04111531_4944.png,n04111531_4944.png,1.0,5.7069063,2.6890326,2.133959
bagnet33,1,673,NaN,knife,bottle,180,0673_ps_dnn_180_bottle_10_n04591713_644.png,n04591713_644.png,0.0,1.2545162,7.7826858,-4.616113
bagnet33,1,674,NaN,bear,dog,60,0674_ps_dnn_60_dog_10_n02090721_1105.png,n02090721_1105.png,0.0,11.160817,11.939705,-0.5507568
bagnet33,1,675,NaN,keyboard,keyboard,60,0675_ps_dnn_60_keyboard_10_n04505470_5880.png,n04505470_5880.png,1.0,42.98524,14.319497,20.269743
bagnet33,1,676,NaN,knife,airplane,150,0676_ps_dnn_150_airplane_10_n02690373_3589.png,n02690373_3589.png,0.0,-0.9771498,5.488591,-4.5719695
bagnet33,1,677,NaN,knife,bird,120,0677_ps_dnn_120_bird_10_n01855672_3952.png,n01855672_3952.png,0.0,-1.0368758,5.474776,-4.604433
bagnet33,1,678,NaN,airplane,truck,60,0678_ps_dnn_60_truck_10_n03796401_8037.png,n03796401_8037.png,0.0,7.4520874,11.195513,-2.6470015
bagnet33,1,679,NaN,clock,clock,0,0679_ps_dnn_0_clock_10_n03196217_5493.png,n03196217_5493.png,1.0,9.636537,5.086356,3.2174635
bagnet33,1,680,NaN,oven,knife,30,0680_ps_dnn_30_knife_10_n03041632_32208.png,n03041632_32208.png,0.0,5.5012875,5.8922005,-0.27641726
bagnet33,1,681,NaN,bicycle,bicycle,90,0681_ps_dnn_90_bicycle_10_n03792782_5494.png,n03792782_5494.png,1.0,2.5664084,2.0682917,0.35222173
bagnet33,1,682,NaN,knife,chair,180,0682_ps_dnn_180_chair_10_n03376595_208.png,n03376595_208.png,0.0,1.6719918,5.056964,-2.3935368
bagnet33,1,683,NaN,knife,bicycle,150,0683_ps_dnn_150_bicycle_10_n02835271_3529.png,n02835271_3529.png,0.0,0.81775665,1.5171657,-0.49455687
bagnet33,1,684,NaN,knife,clock,180,0684_ps_dnn_180_clock_10_n02708093_2482.png,n02708093_2482.png,0.0,2.920491,5.024767,-1.4879478
bagnet33,1,685,NaN,knife,airplane,60,0685_ps_dnn_60_airplane_10_n02690373_1706.png,n02690373_1706.png,0.0,5.5321517,10.206767,-3.3054523
bagnet33,1,686,NaN,knife,knife,180,0686_ps_dnn_180_knife_10_n03041632_2973.png,n03041632_2973.png,1.0,4.761425,3.1249428,1.1571677
bagnet33,1,687,NaN,oven,oven,90,0687_ps_dnn_90_oven_10_n04111531_6346.png,n04111531_6346.png,1.0,6.6122518,4.7210307,1.3372953
bagnet33,1,688,NaN,knife,oven,180,0688_ps_dnn_180_oven_10_n04111531_10336.png,n04111531_10336.png,0.0,-1.2994102,4.9746532,-4.436433
bagnet33,1,689,NaN,elephant,elephant,120,0689_ps_dnn_120_elephant_10_n02504013_25336.png,n02504013_25336.png,1.0,3.7248182,2.0123935,1.2108672
bagnet33,1,690,NaN,airplane,oven,120,0690_ps_dnn_120_oven_10_n04111531_4322.png,n04111531_4322.png,0.0,0.15120363,8.034455,-5.574301
bagnet33,1,691,NaN,truck,truck,0,0691_ps_dnn_0_truck_10_n03417042_3482.png,n03417042_3482.png,1.0,5.213089,4.558348,0.4629717
bagnet33,1,692,NaN,elephant,bear,180,0692_ps_dnn_180_bear_10_n02132136_5146.png,n02132136_5146.png,0.0,2.2632294,2.3569865,-0.06629632
bagnet33,1,693,NaN,oven,bicycle,90,0693_ps_dnn_90_bicycle_10_n02835271_19853.png,n02835271_19853.png,0.0,1.0517212,3.4982643,-1.7299674
bagnet33,1,694,NaN,bicycle,bicycle,60,0694_ps_dnn_60_bicycle_10_n03792782_1477.png,n03792782_1477.png,1.0,5.3362236,1.5303539,2.6911561
bagnet33,1,695,NaN,knife,knife,90,0695_ps_dnn_90_knife_10_n03041632_52371.png,n03041632_52371.png,1.0,7.265155,5.9792175,0.909295
bagnet33,1,696,NaN,airplane,bird,150,0696_ps_dnn_150_bird_10_n02007558_7783.png,n02007558_7783.png,0.0,-0.74006075,2.3613973,-2.193062
bagnet33,1,697,NaN,knife,boat,90,0697_ps_dnn_90_boat_10_n02951358_30773.png,n02951358_30773.png,0.0,2.055697,3.0512142,-0.703937
bagnet33,1,698,NaN,knife,keyboard,180,0698_ps_dnn_180_keyboard_10_n03085013_4298.png,n03085013_4298.png,0.0,-2.1913023,6.11097,-5.8705935
bagnet33,1,699,NaN,knife,airplane,150,0699_ps_dnn_150_airplane_10_n02690373_13021.png,n02690373_13021.png,0.0,-1.4124849,7.701684,-6.4446907
bagnet33,1,700,NaN,oven,chair,90,0700_ps_dnn_90_chair_10_n03376595_8490.png,n03376595_8490.png,0.0,2.60758,7.830055,-3.6928475
bagnet33,1,701,NaN,chair,chair,60,0701_ps_dnn_60_chair_10_n02791124_5898.png,n02791124_5898.png,1.0,3.9686856,3.8520508,0.08247329
bagnet33,1,702,NaN,clock,clock,90,0702_ps_dnn_90_clock_10_n02708093_181.png,n02708093_181.png,1.0,12.1573515,9.0115,2.2244527
bagnet33,1,703,NaN,airplane,airplane,30,0703_ps_dnn_30_airplane_10_n02690373_190.png,n02690373_190.png,1.0,20.451004,5.267636,10.736263
bagnet33,1,704,NaN,knife,oven,180,0704_ps_dnn_180_oven_10_n04111531_6756.png,n04111531_6756.png,0.0,-1.5642014,6.662337,-5.817041
bagnet33,1,705,NaN,bicycle,car,120,0705_ps_dnn_120_car_10_n03100240_23906.png,n03100240_23906.png,0.0,3.3656642,5.9710627,-1.8422949
bagnet33,1,706,NaN,truck,truck,0,0706_ps_dnn_0_truck_10_n03417042_16038.png,n03417042_16038.png,1.0,13.655724,6.6833496,4.930213
bagnet33,1,707,NaN,elephant,elephant,30,0707_ps_dnn_30_elephant_10_n02504458_6602.png,n02504458_6602.png,1.0,12.872256,3.1419232,6.880385
bagnet33,1,708,NaN,truck,truck,0,0708_ps_dnn_0_truck_10_n04467665_18234.png,n04467665_18234.png,1.0,19.190392,12.759769,4.547137
bagnet33,1,709,NaN,oven,bottle,180,0709_ps_dnn_180_bottle_10_n03937543_4259.png,n03937543_4259.png,0.0,-0.38747188,5.2626076,-3.9952095
bagnet33,1,710,NaN,airplane,car,120,0710_ps_dnn_120_car_10_n03100240_17523.png,n03100240_17523.png,0.0,1.1995374,4.1848497,-2.1109347
bagnet33,1,711,NaN,clock,clock,0,0711_ps_dnn_0_clock_10_n02708093_1513.png,n02708093_1513.png,1.0,36.194466,9.53371,18.852001
bagnet33,1,712,NaN,cat,keyboard,180,0712_ps_dnn_180_keyboard_10_n03085013_4553.png,n03085013_4553.png,0.0,-1.2654123,4.3933864,-4.001375
bagnet33,1,713,NaN,knife,oven,180,0713_ps_dnn_180_oven_10_n04111531_8330.png,n04111531_8330.png,0.0,0.92516774,6.142561,-3.6892543
bagnet33,1,714,NaN,cat,bird,90,0714_ps_dnn_90_bird_10_n01530575_35115.png,n01530575_35115.png,0.0,-0.7619184,2.919391,-2.6030788
bagnet33,1,715,NaN,knife,elephant,150,0715_ps_dnn_150_elephant_10_n02504458_1600.png,n02504458_1600.png,0.0,1.1402032,4.867938,-2.6359067
bagnet33,1,716,NaN,knife,knife,30,0716_ps_dnn_30_knife_10_n03041632_3717.png,n03041632_3717.png,1.0,21.818708,7.85345,9.874929
bagnet33,1,717,NaN,knife,truck,180,0717_ps_dnn_180_truck_10_n04467665_39477.png,n04467665_39477.png,0.0,-1.3823571,2.2871885,-2.5947607
bagnet33,1,718,NaN,airplane,bear,180,0718_ps_dnn_180_bear_10_n02132136_20883.png,n02132136_20883.png,0.0,1.3586352,2.1611872,-0.56749
bagnet33,1,719,NaN,bicycle,bear,150,0719_ps_dnn_150_bear_10_n02133161_2340.png,n02133161_2340.png,0.0,1.687877,2.5250046,-0.5919386
bagnet33,1,720,NaN,knife,bear,90,0720_ps_dnn_90_bear_10_n02134084_4442.png,n02134084_4442.png,0.0,1.2557535,3.266174,-1.421582
bagnet33,1,721,NaN,knife,clock,150,0721_ps_dnn_150_clock_10_n04548280_8314.png,n04548280_8314.png,0.0,3.4129517,5.2358203,-1.2889627
bagnet33,1,722,NaN,oven,oven,0,0722_ps_dnn_0_oven_10_n04111531_13797.png,n04111531_13797.png,1.0,10.808766,4.004322,4.8114686
bagnet33,1,723,NaN,car,car,30,0723_ps_dnn_30_car_10_n04285008_13.png,n04285008_13.png,1.0,17.572214,11.730518,4.130703
bagnet33,1,724,NaN,clock,bird,150,0724_ps_dnn_150_bird_10_n02002724_5457.png,n02002724_5457.png,0.0,-0.128911,2.6331766,-1.9530909
bagnet33,1,725,NaN,airplane,airplane,0,0725_ps_dnn_0_airplane_10_n02690373_1325.png,n02690373_1325.png,1.0,18.448973,4.917462,9.568224
bagnet33,1,726,NaN,knife,knife,0,0726_ps_dnn_0_knife_10_n03041632_24561.png,n03041632_24561.png,1.0,33.3704,6.2489867,19.177734
bagnet33,1,727,NaN,knife,chair,180,0727_ps_dnn_180_chair_10_n03376595_2809.png,n03376595_2809.png,0.0,6.576765,11.87791,-3.7484753
bagnet33,1,728,NaN,elephant,cat,90,0728_ps_dnn_90_cat_10_n02125311_36331.png,n02125311_36331.png,0.0,1.0301079,2.8667836,-1.298726
bagnet33,1,729,NaN,oven,oven,90,0729_ps_dnn_90_oven_10_n04111531_7430.png,n04111531_7430.png,1.0,3.4897509,2.151033,0.94661653
bagnet33,1,730,NaN,chair,bottle,30,0730_ps_dnn_30_bottle_10_n04560804_8454.png,n04560804_8454.png,0.0,3.3367302,7.9542637,-3.2650895
bagnet33,1,731,NaN,bear,bear,150,0731_ps_dnn_150_bear_10_n02132136_7067.png,n02132136_7067.png,1.0,2.9797196,1.5617117,1.002683
bagnet33,1,732,NaN,chair,knife,0,0732_ps_dnn_0_knife_10_n03041632_33424.png,n03041632_33424.png,0.0,4.896653,5.390645,-0.349305
bagnet33,1,733,NaN,keyboard,keyboard,30,0733_ps_dnn_30_keyboard_10_n04505470_5171.png,n04505470_5171.png,1.0,33.351273,6.116342,19.258003
bagnet33,1,734,NaN,elephant,oven,180,0734_ps_dnn_180_oven_10_n04111531_14611.png,n04111531_14611.png,0.0,0.15266508,2.735907,-1.826628
bagnet33,1,735,NaN,knife,bird,180,0735_ps_dnn_180_bird_10_n02028035_14461.png,n02028035_14461.png,0.0,-2.198716,5.2185726,-5.2448153
bagnet33,1,736,NaN,airplane,airplane,60,0736_ps_dnn_60_airplane_10_n02690373_10232.png,n02690373_10232.png,1.0,27.843727,6.3849645,15.173637
bagnet33,1,737,NaN,knife,knife,180,0737_ps_dnn_180_knife_10_n03041632_18859.png,n03041632_18859.png,1.0,1.5093055,1.0852579,0.29984692
bagnet33,1,738,NaN,knife,truck,150,0738_ps_dnn_150_truck_10_n03417042_1279.png,n03417042_1279.png,0.0,-0.9641462,7.0712976,-5.681917
bagnet33,1,739,NaN,knife,airplane,180,0739_ps_dnn_180_airplane_10_n02690373_4691.png,n02690373_4691.png,0.0,0.79166806,3.2121892,-1.711567
bagnet33,1,740,NaN,knife,dog,120,0740_ps_dnn_120_dog_10_n02111277_21922.png,n02111277_21922.png,0.0,-1.4948909,3.6000075,-3.602637
bagnet33,1,741,NaN,knife,dog,180,0741_ps_dnn_180_dog_10_n02093991_2725.png,n02093991_2725.png,0.0,0.12598617,3.2105365,-2.1811066
bagnet33,1,742,NaN,oven,bottle,90,0742_ps_dnn_90_bottle_10_n04557648_11847.png,n04557648_11847.png,0.0,2.737388,4.159662,-1.0056995
bagnet33,1,743,NaN,knife,knife,180,0743_ps_dnn_180_knife_10_n03041632_20697.png,n03041632_20697.png,1.0,6.042549,4.3019986,1.2307551
bagnet33,1,744,NaN,clock,car,90,0744_ps_dnn_90_car_10_n02814533_35102.png,n02814533_35102.png,0.0,0.45454645,3.980132,-2.4929655
bagnet33,1,745,NaN,cat,cat,0,0745_ps_dnn_0_cat_10_n02125311_19769.png,n02125311_19769.png,1.0,10.865433,3.4377809,5.252143
bagnet33,1,746,NaN,airplane,keyboard,60,0746_ps_dnn_60_keyboard_10_n03085013_17795.png,n03085013_17795.png,0.0,3.3160381,5.4307065,-1.4952964
bagnet33,1,747,NaN,boat,clock,150,0747_ps_dnn_150_clock_10_n03196217_4019.png,n03196217_4019.png,0.0,-0.24739994,2.6599147,-2.055782
bagnet33,1,748,NaN,elephant,bear,120,0748_ps_dnn_120_bear_10_n02134418_2561.png,n02134418_2561.png,0.0,2.7477698,3.1861506,-0.30998197
bagnet33,1,749,NaN,knife,clock,150,0749_ps_dnn_150_clock_10_n04548280_21545.png,n04548280_21545.png,0.0,1.808859,2.1700335,-0.25538892
bagnet33,1,750,NaN,knife,elephant,150,0750_ps_dnn_150_elephant_10_n02504458_952.png,n02504458_952.png,0.0,0.996691,2.4848838,-1.0523112
