subj,session,trial,rt,object_response,category,condition,imagename,filename,is_correct,targ_act,max_nontarg_act,decision_margin
alexnet2023_baseline_pgd,1,1,NaN,truck,truck,30,0001_ps_dnn_30_truck_10_n03417042_14861.png,n03417042_14861.png,1.0,12.805419,6.0615005,4.7686706
alexnet2023_baseline_pgd,1,2,NaN,keyboard,keyboard,0,0002_ps_dnn_0_keyboard_10_n03085013_25476.png,n03085013_25476.png,1.0,18.394365,3.213278,10.73465
alexnet2023_baseline_pgd,1,3,NaN,elephant,elephant,0,0003_ps_dnn_0_elephant_10_n02504013_3087.png,n02504013_3087.png,1.0,16.024736,4.3861113,8.229751
alexnet2023_baseline_pgd,1,4,NaN,bear,cat,30,0004_ps_dnn_30_cat_10_n02123394_4633.png,n02123394_4633.png,0.0,4.8839345,6.725545,-1.3022152
alexnet2023_baseline_pgd,1,5,NaN,knife,knife,120,0005_ps_dnn_120_knife_10_n03041632_48151.png,n03041632_48151.png,1.0,5.480319,1.6490198,2.7091377
alexnet2023_baseline_pgd,1,6,NaN,bicycle,bicycle,60,0006_ps_dnn_60_bicycle_10_n02835271_1075.png,n02835271_1075.png,1.0,14.552082,3.778182,7.618298
alexnet2023_baseline_pgd,1,7,NaN,elephant,bear,180,0007_ps_dnn_180_bear_10_n02134084_10289.png,n02134084_10289.png,0.0,1.4139482,2.2514212,-0.5921829
alexnet2023_baseline_pgd,1,8,NaN,keyboard,keyboard,0,0008_ps_dnn_0_keyboard_10_n03085013_21967.png,n03085013_21967.png,1.0,10.514761,4.6329074,4.1590986
alexnet2023_baseline_pgd,1,9,NaN,bicycle,oven,150,0009_ps_dnn_150_oven_10_n04111531_5737.png,n04111531_5737.png,0.0,-0.13883317,1.8200352,-1.3851291
alexnet2023_baseline_pgd,1,10,NaN,elephant,elephant,60,0010_ps_dnn_60_elephant_10_n02504458_8141.png,n02504458_8141.png,1.0,8.982181,7.368899,1.1407624
alexnet2023_baseline_pgd,1,11,NaN,elephant,elephant,90,0011_ps_dnn_90_elephant_10_n02504458_3153.png,n02504458_3153.png,1.0,6.922594,1.9973603,3.4826663
alexnet2023_baseline_pgd,1,12,NaN,bear,bear,60,0012_ps_dnn_60_bear_10_n02134418_5807.png,n02134418_5807.png,1.0,4.082015,2.96215,0.7918641
alexnet2023_baseline_pgd,1,13,NaN,airplane,boat,0,0013_ps_dnn_0_boat_10_n04273569_15322.png,n04273569_15322.png,0.0,11.217921,11.288511,-0.04991468
alexnet2023_baseline_pgd,1,14,NaN,chair,knife,0,0014_ps_dnn_0_knife_10_n03041632_42526.png,n03041632_42526.png,0.0,0.40281385,6.0774136,-4.012548
alexnet2023_baseline_pgd,1,15,NaN,bicycle,bicycle,30,0015_ps_dnn_30_bicycle_10_n02835271_5886.png,n02835271_5886.png,1.0,7.9031825,1.4010042,4.5977345
alexnet2023_baseline_pgd,1,16,NaN,clock,dog,180,0016_ps_dnn_180_dog_10_n02110063_869.png,n02110063_869.png,0.0,-0.22235411,0.7431493,-0.682714
alexnet2023_baseline_pgd,1,17,NaN,clock,bicycle,180,0017_ps_dnn_180_bicycle_10_n03792782_3334.png,n03792782_3334.png,0.0,0.2506838,0.5927704,-0.24189174
alexnet2023_baseline_pgd,1,18,NaN,airplane,airplane,0,0018_ps_dnn_0_airplane_10_n02690373_7355.png,n02690373_7355.png,1.0,16.709547,7.718637,6.3575335
alexnet2023_baseline_pgd,1,19,NaN,elephant,bird,120,0019_ps_dnn_120_bird_10_n01798484_2289.png,n01798484_2289.png,0.0,1.4410799,1.8687243,-0.30239034
alexnet2023_baseline_pgd,1,20,NaN,elephant,knife,60,0020_ps_dnn_60_knife_10_n03041632_87380.png,n03041632_87380.png,0.0,-0.5685748,3.206819,-2.6696067
alexnet2023_baseline_pgd,1,21,NaN,bird,bird,0,0021_ps_dnn_0_bird_10_n02027492_15639.png,n02027492_15639.png,1.0,4.5004983,1.870406,1.859756
alexnet2023_baseline_pgd,1,22,NaN,airplane,bird,0,0022_ps_dnn_0_bird_10_n02006656_7153.png,n02006656_7153.png,0.0,8.224932,9.806204,-1.1181283
alexnet2023_baseline_pgd,1,23,NaN,boat,boat,60,0023_ps_dnn_60_boat_10_n04612504_14699.png,n04612504_14699.png,1.0,5.312587,2.865604,1.7302783
alexnet2023_baseline_pgd,1,24,NaN,bear,bear,60,0024_ps_dnn_60_bear_10_n02134418_5971.png,n02134418_5971.png,1.0,5.9633036,4.6043196,0.9609468
alexnet2023_baseline_pgd,1,25,NaN,elephant,dog,90,0025_ps_dnn_90_dog_10_n02110063_16680.png,n02110063_16680.png,0.0,0.871713,2.7623394,-1.3368748
alexnet2023_baseline_pgd,1,26,NaN,bear,car,90,0026_ps_dnn_90_car_10_n03100240_6010.png,n03100240_6010.png,0.0,0.6871572,2.8449066,-1.5257592
alexnet2023_baseline_pgd,1,27,NaN,elephant,elephant,30,0027_ps_dnn_30_elephant_10_n02504458_9835.png,n02504458_9835.png,1.0,6.8727493,4.677526,1.5522573
alexnet2023_baseline_pgd,1,28,NaN,airplane,airplane,30,0028_ps_dnn_30_airplane_10_n02690373_10207.png,n02690373_10207.png,1.0,10.532535,5.586381,3.497459
alexnet2023_baseline_pgd,1,29,NaN,cat,bottle,180,0029_ps_dnn_180_bottle_10_n03983396_5532.png,n03983396_5532.png,0.0,1.8984286,2.1957262,-0.21022116
alexnet2023_baseline_pgd,1,30,NaN,dog,dog,30,0030_ps_dnn_30_dog_10_n02090622_1485.png,n02090622_1485.png,1.0,8.686419,3.940703,3.3557277
alexnet2023_baseline_pgd,1,31,NaN,bear,truck,150,0031_ps_dnn_150_truck_10_n03417042_5503.png,n03417042_5503.png,0.0,-1.4882323,2.813202,-3.0415733
alexnet2023_baseline_pgd,1,32,NaN,cat,bear,180,0032_ps_dnn_180_bear_10_n02133161_897.png,n02133161_897.png,0.0,0.3759566,1.5152345,-0.80559117
alexnet2023_baseline_pgd,1,33,NaN,oven,keyboard,180,0033_ps_dnn_180_keyboard_10_n04505470_4579.png,n04505470_4579.png,0.0,0.3939112,3.7740788,-2.3901396
alexnet2023_baseline_pgd,1,34,NaN,bird,bird,60,0034_ps_dnn_60_bird_10_n01592084_5833.png,n01592084_5833.png,1.0,5.466125,2.2363696,2.283782
alexnet2023_baseline_pgd,1,35,NaN,elephant,dog,0,0035_ps_dnn_0_dog_10_n02090379_3514.png,n02090379_3514.png,0.0,7.0688214,9.819356,-1.9449216
alexnet2023_baseline_pgd,1,36,NaN,knife,airplane,180,0036_ps_dnn_180_airplane_10_n02690373_6144.png,n02690373_6144.png,0.0,-2.211142,1.2834519,-2.4710512
alexnet2023_baseline_pgd,1,37,NaN,airplane,airplane,90,0037_ps_dnn_90_airplane_10_n02690373_1436.png,n02690373_1436.png,1.0,3.48494,3.092411,0.27755994
alexnet2023_baseline_pgd,1,38,NaN,knife,clock,120,0038_ps_dnn_120_clock_10_n04548280_354.png,n04548280_354.png,0.0,1.4170419,4.7185473,-2.334517
alexnet2023_baseline_pgd,1,39,NaN,knife,keyboard,0,0039_ps_dnn_0_keyboard_10_n03085013_2189.png,n03085013_2189.png,0.0,4.4387217,4.7523174,-0.2217457
alexnet2023_baseline_pgd,1,40,NaN,knife,chair,120,0040_ps_dnn_120_chair_10_n04099969_9005.png,n04099969_9005.png,0.0,-0.5568487,2.8374398,-2.4001245
alexnet2023_baseline_pgd,1,41,NaN,knife,bicycle,180,0041_ps_dnn_180_bicycle_10_n02835271_7350.png,n02835271_7350.png,0.0,-0.4977005,2.044537,-1.7976334
alexnet2023_baseline_pgd,1,42,NaN,knife,bottle,150,0042_ps_dnn_150_bottle_10_n04557648_8320.png,n04557648_8320.png,0.0,0.07012166,2.5511973,-1.7543854
alexnet2023_baseline_pgd,1,43,NaN,dog,dog,0,0043_ps_dnn_0_dog_10_n02105641_6503.png,n02105641_6503.png,1.0,7.782187,2.6190188,3.650911
alexnet2023_baseline_pgd,1,44,NaN,elephant,clock,90,0044_ps_dnn_90_clock_10_n04548280_6022.png,n04548280_6022.png,0.0,2.928259,5.3467774,-1.7101508
alexnet2023_baseline_pgd,1,45,NaN,keyboard,clock,60,0045_ps_dnn_60_clock_10_n03196217_7414.png,n03196217_7414.png,0.0,2.0253336,2.9346857,-0.643009
alexnet2023_baseline_pgd,1,46,NaN,cat,oven,150,0046_ps_dnn_150_oven_10_n04111531_7965.png,n04111531_7965.png,0.0,-0.23259965,1.6247457,-1.3133415
alexnet2023_baseline_pgd,1,47,NaN,clock,bottle,90,0047_ps_dnn_90_bottle_10_n04579145_4594.png,n04579145_4594.png,0.0,2.0612586,4.4952397,-1.7210846
alexnet2023_baseline_pgd,1,48,NaN,oven,bottle,30,0048_ps_dnn_30_bottle_10_n03983396_4564.png,n03983396_4564.png,0.0,4.217563,5.5204577,-0.9212856
alexnet2023_baseline_pgd,1,49,NaN,cat,cat,60,0049_ps_dnn_60_cat_10_n02125311_54015.png,n02125311_54015.png,1.0,5.209189,2.01959,2.255387
alexnet2023_baseline_pgd,1,50,NaN,bird,bicycle,150,0050_ps_dnn_150_bicycle_10_n03792782_5133.png,n03792782_5133.png,0.0,-0.41441664,0.975901,-0.9831031
alexnet2023_baseline_pgd,1,51,NaN,boat,bird,120,0051_ps_dnn_120_bird_10_n02018207_6296.png,n02018207_6296.png,0.0,2.1490092,2.6261036,-0.3373567
alexnet2023_baseline_pgd,1,52,NaN,elephant,bird,30,0052_ps_dnn_30_bird_10_n01817953_11996.png,n01817953_11996.png,0.0,1.5246372,6.271502,-3.3565404
alexnet2023_baseline_pgd,1,53,NaN,oven,keyboard,150,0053_ps_dnn_150_keyboard_10_n03085013_3148.png,n03085013_3148.png,0.0,-3.793899,4.009589,-5.5178995
alexnet2023_baseline_pgd,1,54,NaN,bear,bear,60,0054_ps_dnn_60_bear_10_n02134418_5537.png,n02134418_5537.png,1.0,7.287324,4.8173046,1.7465675
alexnet2023_baseline_pgd,1,55,NaN,cat,cat,150,0055_ps_dnn_150_cat_10_n02125311_11409.png,n02125311_11409.png,1.0,1.7515868,1.1299089,0.43959266
alexnet2023_baseline_pgd,1,56,NaN,bear,knife,30,0056_ps_dnn_30_knife_10_n03041632_3063.png,n03041632_3063.png,0.0,2.5135243,2.7437487,-0.16279322
alexnet2023_baseline_pgd,1,57,NaN,elephant,dog,60,0057_ps_dnn_60_dog_10_n02106550_6424.png,n02106550_6424.png,0.0,2.6885283,3.7012086,-0.7160731
alexnet2023_baseline_pgd,1,58,NaN,elephant,bear,30,0058_ps_dnn_30_bear_10_n02133161_7032.png,n02133161_7032.png,0.0,3.4582,5.5012465,-1.4446521
alexnet2023_baseline_pgd,1,59,NaN,airplane,cat,150,0059_ps_dnn_150_cat_10_n02125311_5570.png,n02125311_5570.png,0.0,-0.53725725,1.6583195,-1.5525072
alexnet2023_baseline_pgd,1,60,NaN,knife,bird,30,0060_ps_dnn_30_bird_10_n01843383_13894.png,n01843383_13894.png,0.0,3.3526034,4.737695,-0.9794078
alexnet2023_baseline_pgd,1,61,NaN,boat,bottle,60,0061_ps_dnn_60_bottle_10_n03983396_2205.png,n03983396_2205.png,0.0,0.50871295,3.7663321,-2.3034847
alexnet2023_baseline_pgd,1,62,NaN,bicycle,bicycle,60,0062_ps_dnn_60_bicycle_10_n03792782_31010.png,n03792782_31010.png,1.0,14.817602,2.1438818,8.961674
alexnet2023_baseline_pgd,1,63,NaN,bottle,bottle,60,0063_ps_dnn_60_bottle_10_n02823428_880.png,n02823428_880.png,1.0,10.262238,5.5163407,3.355856
alexnet2023_baseline_pgd,1,64,NaN,bird,car,180,0064_ps_dnn_180_car_10_n02814533_40459.png,n02814533_40459.png,0.0,-0.3711073,1.6139497,-1.4036473
alexnet2023_baseline_pgd,1,65,NaN,bicycle,cat,120,0065_ps_dnn_120_cat_10_n02123045_567.png,n02123045_567.png,0.0,0.42523742,1.7272006,-0.92062706
alexnet2023_baseline_pgd,1,66,NaN,knife,knife,120,0066_ps_dnn_120_knife_10_n03041632_24541.png,n03041632_24541.png,1.0,2.8116317,2.3458083,0.3293869
alexnet2023_baseline_pgd,1,67,NaN,elephant,elephant,30,0067_ps_dnn_30_elephant_10_n02504458_8644.png,n02504458_8644.png,1.0,14.8204365,4.0361466,7.625645
alexnet2023_baseline_pgd,1,68,NaN,oven,keyboard,0,0068_ps_dnn_0_keyboard_10_n03085013_2166.png,n03085013_2166.png,0.0,8.078113,8.340738,-0.18570441
alexnet2023_baseline_pgd,1,69,NaN,bicycle,boat,90,0069_ps_dnn_90_boat_10_n04273569_13972.png,n04273569_13972.png,0.0,1.4735764,2.9193892,-1.0223441
alexnet2023_baseline_pgd,1,70,NaN,elephant,airplane,150,0070_ps_dnn_150_airplane_10_n02690373_9432.png,n02690373_9432.png,0.0,-1.0685136,1.4848138,-1.8054752
alexnet2023_baseline_pgd,1,71,NaN,bicycle,truck,90,0071_ps_dnn_90_truck_10_n03417042_5228.png,n03417042_5228.png,0.0,-1.9976707,3.3442488,-3.7773075
alexnet2023_baseline_pgd,1,72,NaN,airplane,airplane,0,0072_ps_dnn_0_airplane_10_n02690373_4294.png,n02690373_4294.png,1.0,15.274168,5.869293,6.650251
alexnet2023_baseline_pgd,1,73,NaN,knife,chair,30,0073_ps_dnn_30_chair_10_n04099969_52474.png,n04099969_52474.png,0.0,3.5318296,4.23197,-0.4950739
alexnet2023_baseline_pgd,1,74,NaN,oven,oven,30,0074_ps_dnn_30_oven_10_n04111531_21822.png,n04111531_21822.png,1.0,8.570721,5.2071476,2.3784053
alexnet2023_baseline_pgd,1,75,NaN,oven,oven,150,0075_ps_dnn_150_oven_10_n04111531_15735.png,n04111531_15735.png,1.0,3.7647722,3.1570387,0.42973247
alexnet2023_baseline_pgd,1,76,NaN,boat,dog,120,0076_ps_dnn_120_dog_10_n02104029_7335.png,n02104029_7335.png,0.0,1.7766858,4.8577695,-2.1786554
alexnet2023_baseline_pgd,1,77,NaN,knife,truck,150,0077_ps_dnn_150_truck_10_n03417042_17911.png,n03417042_17911.png,0.0,-2.843947,2.8785214,-4.0463963
alexnet2023_baseline_pgd,1,78,NaN,elephant,clock,30,0078_ps_dnn_30_clock_10_n02708093_899.png,n02708093_899.png,0.0,2.5630956,3.6488721,-0.76776
alexnet2023_baseline_pgd,1,79,NaN,boat,boat,60,0079_ps_dnn_60_boat_10_n03662601_9590.png,n03662601_9590.png,1.0,8.79982,2.525084,4.4369082
alexnet2023_baseline_pgd,1,80,NaN,bear,chair,90,0080_ps_dnn_90_chair_10_n02791124_6550.png,n02791124_6550.png,0.0,-1.2448124,1.334375,-1.823761
alexnet2023_baseline_pgd,1,81,NaN,knife,clock,180,0081_ps_dnn_180_clock_10_n03196217_4492.png,n03196217_4492.png,0.0,0.7384884,4.88349,-2.930959
alexnet2023_baseline_pgd,1,82,NaN,car,car,30,0082_ps_dnn_30_car_10_n04285008_14128.png,n04285008_14128.png,1.0,16.153975,8.868153,5.151854
alexnet2023_baseline_pgd,1,83,NaN,bicycle,bicycle,60,0083_ps_dnn_60_bicycle_10_n02835271_4730.png,n02835271_4730.png,1.0,6.776056,2.5419552,2.993961
alexnet2023_baseline_pgd,1,84,NaN,elephant,elephant,0,0084_ps_dnn_0_elephant_10_n02504458_62.png,n02504458_62.png,1.0,23.665142,4.4442525,13.591222
alexnet2023_baseline_pgd,1,85,NaN,elephant,dog,120,0085_ps_dnn_120_dog_10_n02086646_8144.png,n02086646_8144.png,0.0,-0.14749143,1.9713418,-1.4982414
alexnet2023_baseline_pgd,1,86,NaN,knife,knife,60,0086_ps_dnn_60_knife_10_n03041632_1671.png,n03041632_1671.png,1.0,8.470085,2.9530685,3.9011197
alexnet2023_baseline_pgd,1,87,NaN,cat,bird,180,0087_ps_dnn_180_bird_10_n01534433_10801.png,n01534433_10801.png,0.0,0.22346753,2.9388359,-1.9200554
alexnet2023_baseline_pgd,1,88,NaN,knife,keyboard,150,0088_ps_dnn_150_keyboard_10_n03085013_20570.png,n03085013_20570.png,0.0,-5.3108325,3.4408894,-6.188402
alexnet2023_baseline_pgd,1,89,NaN,cat,knife,150,0089_ps_dnn_150_knife_10_n03041632_4808.png,n03041632_4808.png,0.0,-1.4528712,2.1920717,-2.5773637
alexnet2023_baseline_pgd,1,90,NaN,cat,keyboard,180,0090_ps_dnn_180_keyboard_10_n03085013_1808.png,n03085013_1808.png,0.0,-1.8301681,2.0535905,-2.746232
alexnet2023_baseline_pgd,1,91,NaN,knife,truck,120,0091_ps_dnn_120_truck_10_n03796401_4370.png,n03796401_4370.png,0.0,-1.1967151,2.828199,-2.8460438
alexnet2023_baseline_pgd,1,92,NaN,airplane,airplane,60,0092_ps_dnn_60_airplane_10_n02690373_6314.png,n02690373_6314.png,1.0,9.198734,4.5396814,3.294448
alexnet2023_baseline_pgd,1,93,NaN,oven,oven,90,0093_ps_dnn_90_oven_10_n04111531_4879.png,n04111531_4879.png,1.0,4.1948237,3.0789948,0.7890103
alexnet2023_baseline_pgd,1,94,NaN,knife,airplane,180,0094_ps_dnn_180_airplane_10_n02690373_4375.png,n02690373_4375.png,0.0,-1.4572718,2.472131,-2.7785075
alexnet2023_baseline_pgd,1,95,NaN,bicycle,bottle,60,0095_ps_dnn_60_bottle_10_n04557648_4133.png,n04557648_4133.png,0.0,4.823361,4.8397713,-0.01160387
alexnet2023_baseline_pgd,1,96,NaN,bicycle,bicycle,120,0096_ps_dnn_120_bicycle_10_n02835271_19213.png,n02835271_19213.png,1.0,2.1873136,1.0241493,0.82248133
alexnet2023_baseline_pgd,1,97,NaN,knife,bear,150,0097_ps_dnn_150_bear_10_n02132136_10577.png,n02132136_10577.png,0.0,-0.18758003,0.9306803,-0.7907294
alexnet2023_baseline_pgd,1,98,NaN,boat,airplane,90,0098_ps_dnn_90_airplane_10_n02690373_3147.png,n02690373_3147.png,0.0,2.82641,3.1554732,-0.23268281
alexnet2023_baseline_pgd,1,99,NaN,elephant,elephant,60,0099_ps_dnn_60_elephant_10_n02504013_10389.png,n02504013_10389.png,1.0,10.273351,4.0353174,4.410956
alexnet2023_baseline_pgd,1,100,NaN,knife,chair,150,0100_ps_dnn_150_chair_10_n02791124_5685.png,n02791124_5685.png,0.0,-0.30033138,2.8805578,-2.2492282
alexnet2023_baseline_pgd,1,101,NaN,knife,bird,60,0101_ps_dnn_60_bird_10_n01817953_6333.png,n01817953_6333.png,0.0,0.8713608,3.737433,-2.0266192
alexnet2023_baseline_pgd,1,102,NaN,knife,keyboard,90,0102_ps_dnn_90_keyboard_10_n03085013_20247.png,n03085013_20247.png,0.0,1.1260386,4.0928755,-2.0978706
alexnet2023_baseline_pgd,1,103,NaN,airplane,airplane,0,0103_ps_dnn_0_airplane_10_n02690373_5729.png,n02690373_5729.png,1.0,19.500729,3.4144921,11.374687
alexnet2023_baseline_pgd,1,104,NaN,bicycle,bicycle,90,0104_ps_dnn_90_bicycle_10_n03792782_55532.png,n03792782_55532.png,1.0,10.984478,5.809028,3.6595957
alexnet2023_baseline_pgd,1,105,NaN,bicycle,bicycle,0,0105_ps_dnn_0_bicycle_10_n02835271_8417.png,n02835271_8417.png,1.0,18.013727,1.4775231,11.692862
alexnet2023_baseline_pgd,1,106,NaN,clock,clock,60,0106_ps_dnn_60_clock_10_n03196217_599.png,n03196217_599.png,1.0,2.3985703,2.112611,0.20220372
alexnet2023_baseline_pgd,1,107,NaN,airplane,airplane,0,0107_ps_dnn_0_airplane_10_n02690373_1952.png,n02690373_1952.png,1.0,14.606614,3.4813595,7.866743
alexnet2023_baseline_pgd,1,108,NaN,bicycle,bear,180,0108_ps_dnn_180_bear_10_n02134084_23061.png,n02134084_23061.png,0.0,-0.15189326,1.0465447,-0.8474236
alexnet2023_baseline_pgd,1,109,NaN,cat,bicycle,150,0109_ps_dnn_150_bicycle_10_n03792782_27445.png,n03792782_27445.png,0.0,0.3937475,0.73512864,-0.24139293
alexnet2023_baseline_pgd,1,110,NaN,bottle,clock,30,0110_ps_dnn_30_clock_10_n03196217_6348.png,n03196217_6348.png,0.0,1.5899006,2.0649886,-0.33593795
alexnet2023_baseline_pgd,1,111,NaN,elephant,bear,90,0111_ps_dnn_90_bear_10_n02132136_5778.png,n02132136_5778.png,0.0,2.9227884,4.0697665,-0.81103605
alexnet2023_baseline_pgd,1,112,NaN,bicycle,boat,90,0112_ps_dnn_90_boat_10_n04273569_4772.png,n04273569_4772.png,0.0,0.16619115,1.7716136,-1.1352051
alexnet2023_baseline_pgd,1,113,NaN,cat,oven,180,0113_ps_dnn_180_oven_10_n04111531_23830.png,n04111531_23830.png,0.0,0.0012214109,2.8446481,-2.0106063
alexnet2023_baseline_pgd,1,114,NaN,boat,bird,150,0114_ps_dnn_150_bird_10_n01855032_1306.png,n01855032_1306.png,0.0,0.4865209,0.89626455,-0.28973252
alexnet2023_baseline_pgd,1,115,NaN,elephant,elephant,60,0115_ps_dnn_60_elephant_10_n02504013_8905.png,n02504013_8905.png,1.0,11.758208,5.764676,4.238067
alexnet2023_baseline_pgd,1,116,NaN,boat,truck,60,0116_ps_dnn_60_truck_10_n04467665_30461.png,n04467665_30461.png,0.0,1.0311931,2.9090543,-1.3278483
alexnet2023_baseline_pgd,1,117,NaN,knife,knife,60,0117_ps_dnn_60_knife_10_n03041632_20662.png,n03041632_20662.png,1.0,5.6770544,3.9551373,1.2175794
alexnet2023_baseline_pgd,1,118,NaN,knife,boat,180,0118_ps_dnn_180_boat_10_n03662601_15915.png,n03662601_15915.png,0.0,-1.0492709,2.7987227,-2.7209425
alexnet2023_baseline_pgd,1,119,NaN,boat,boat,150,0119_ps_dnn_150_boat_10_n04273569_62.png,n04273569_62.png,1.0,2.3473287,0.90242755,1.0216994
alexnet2023_baseline_pgd,1,120,NaN,elephant,bicycle,180,0120_ps_dnn_180_bicycle_10_n03792782_8080.png,n03792782_8080.png,0.0,-0.46428052,0.64309907,-0.78303564
alexnet2023_baseline_pgd,1,121,NaN,knife,airplane,120,0121_ps_dnn_120_airplane_10_n02690373_10309.png,n02690373_10309.png,0.0,-1.9763165,2.0023086,-2.8133128
alexnet2023_baseline_pgd,1,122,NaN,dog,dog,30,0122_ps_dnn_30_dog_10_n02093859_1001.png,n02093859_1001.png,1.0,6.8098974,4.1491084,1.881462
alexnet2023_baseline_pgd,1,123,NaN,oven,oven,0,0123_ps_dnn_0_oven_10_n04111531_15267.png,n04111531_15267.png,1.0,12.938958,3.2272139,6.8672404
alexnet2023_baseline_pgd,1,124,NaN,cat,cat,90,0124_ps_dnn_90_cat_10_n02124075_81.png,n02124075_81.png,1.0,3.3533294,2.9664407,0.27357167
alexnet2023_baseline_pgd,1,125,NaN,elephant,elephant,60,0125_ps_dnn_60_elephant_10_n02504013_7314.png,n02504013_7314.png,1.0,11.101351,3.778748,5.177862
alexnet2023_baseline_pgd,1,126,NaN,bear,bottle,120,0126_ps_dnn_120_bottle_10_n03983396_3294.png,n03983396_3294.png,0.0,0.50208247,3.4732287,-2.1009176
alexnet2023_baseline_pgd,1,127,NaN,cat,cat,60,0127_ps_dnn_60_cat_10_n02123159_3201.png,n02123159_3201.png,1.0,10.644111,2.194819,5.974551
alexnet2023_baseline_pgd,1,128,NaN,dog,dog,90,0128_ps_dnn_90_dog_10_n02101388_11601.png,n02101388_11601.png,1.0,4.3632092,2.5281813,1.2975607
alexnet2023_baseline_pgd,1,129,NaN,cat,cat,30,0129_ps_dnn_30_cat_10_n02123597_4442.png,n02123597_4442.png,1.0,6.102487,3.181216,2.0656507
alexnet2023_baseline_pgd,1,130,NaN,airplane,airplane,30,0130_ps_dnn_30_airplane_10_n02690373_1950.png,n02690373_1950.png,1.0,15.064641,4.8530173,7.220709
alexnet2023_baseline_pgd,1,131,NaN,cat,bird,120,0131_ps_dnn_120_bird_10_n01616318_4652.png,n01616318_4652.png,0.0,-0.6290229,3.4517539,-2.885545
alexnet2023_baseline_pgd,1,132,NaN,airplane,airplane,90,0132_ps_dnn_90_airplane_10_n02690373_17937.png,n02690373_17937.png,1.0,7.4891496,4.1695952,2.3472793
alexnet2023_baseline_pgd,1,133,NaN,clock,clock,30,0133_ps_dnn_30_clock_10_n02708093_1125.png,n02708093_1125.png,1.0,9.411281,9.058412,0.24951608
alexnet2023_baseline_pgd,1,134,NaN,elephant,elephant,150,0134_ps_dnn_150_elephant_10_n02504458_6499.png,n02504458_6499.png,1.0,2.4482703,1.1381173,0.92641807
alexnet2023_baseline_pgd,1,135,NaN,clock,clock,30,0135_ps_dnn_30_clock_10_n02708093_51.png,n02708093_51.png,1.0,5.1743135,4.970829,0.1438853
alexnet2023_baseline_pgd,1,136,NaN,oven,bicycle,90,0136_ps_dnn_90_bicycle_10_n02835271_13180.png,n02835271_13180.png,0.0,3.5122638,4.923932,-0.99820024
alexnet2023_baseline_pgd,1,137,NaN,knife,cat,120,0137_ps_dnn_120_cat_10_n02123597_7297.png,n02123597_7297.png,0.0,2.4801147,2.8890183,-0.28913853
alexnet2023_baseline_pgd,1,138,NaN,bicycle,clock,30,0138_ps_dnn_30_clock_10_n04548280_1109.png,n04548280_1109.png,0.0,3.173055,3.2174807,-0.031413734
alexnet2023_baseline_pgd,1,139,NaN,bicycle,clock,60,0139_ps_dnn_60_clock_10_n04548280_1304.png,n04548280_1304.png,0.0,3.9130075,4.0186677,-0.074713044
alexnet2023_baseline_pgd,1,140,NaN,knife,bird,180,0140_ps_dnn_180_bird_10_n01833805_8179.png,n01833805_8179.png,0.0,0.07275288,1.2350338,-0.82185674
alexnet2023_baseline_pgd,1,141,NaN,bottle,bottle,60,0141_ps_dnn_60_bottle_10_n03983396_24525.png,n03983396_24525.png,1.0,5.452432,3.601158,1.3090487
alexnet2023_baseline_pgd,1,142,NaN,knife,elephant,120,0142_ps_dnn_120_elephant_10_n02504013_5945.png,n02504013_5945.png,0.0,1.2759397,1.827635,-0.39010754
alexnet2023_baseline_pgd,1,143,NaN,elephant,airplane,120,0143_ps_dnn_120_airplane_10_n02690373_13610.png,n02690373_13610.png,0.0,-1.0998617,3.188463,-3.0323036
alexnet2023_baseline_pgd,1,144,NaN,elephant,knife,90,0144_ps_dnn_90_knife_10_n03041632_21859.png,n03041632_21859.png,0.0,2.9356346,3.1013212,-0.11715812
alexnet2023_baseline_pgd,1,145,NaN,cat,cat,60,0145_ps_dnn_60_cat_10_n02123045_568.png,n02123045_568.png,1.0,4.110437,3.303769,0.5704003
alexnet2023_baseline_pgd,1,146,NaN,clock,clock,180,0146_ps_dnn_180_clock_10_n02708093_960.png,n02708093_960.png,1.0,2.3126094,1.4176962,0.6327992
alexnet2023_baseline_pgd,1,147,NaN,bicycle,bicycle,120,0147_ps_dnn_120_bicycle_10_n02835271_9669.png,n02835271_9669.png,1.0,1.717141,0.15636645,1.1036342
alexnet2023_baseline_pgd,1,148,NaN,cat,cat,60,0148_ps_dnn_60_cat_10_n02123597_14647.png,n02123597_14647.png,1.0,5.6782794,3.4798398,1.5545316
alexnet2023_baseline_pgd,1,149,NaN,bicycle,bicycle,0,0149_ps_dnn_0_bicycle_10_n02835271_7794.png,n02835271_7794.png,1.0,11.0882015,1.4152268,6.839826
alexnet2023_baseline_pgd,1,150,NaN,bird,bird,0,0150_ps_dnn_0_bird_10_n02011460_5925.png,n02011460_5925.png,1.0,3.2441459,2.866684,0.26690587
alexnet2023_baseline_pgd,1,151,NaN,bicycle,oven,90,0151_ps_dnn_90_oven_10_n04111531_8852.png,n04111531_8852.png,0.0,-0.45772767,3.1372786,-2.5420532
alexnet2023_baseline_pgd,1,152,NaN,oven,knife,90,0152_ps_dnn_90_knife_10_n03041632_84086.png,n03041632_84086.png,0.0,0.38632798,3.314462,-2.0705035
alexnet2023_baseline_pgd,1,153,NaN,car,car,60,0153_ps_dnn_60_car_10_n03100240_13602.png,n03100240_13602.png,1.0,14.694179,7.0068073,5.4357924
alexnet2023_baseline_pgd,1,154,NaN,cat,dog,180,0154_ps_dnn_180_dog_10_n02106662_43958.png,n02106662_43958.png,0.0,-0.49137235,1.2852539,-1.2562644
alexnet2023_baseline_pgd,1,155,NaN,chair,chair,30,0155_ps_dnn_30_chair_10_n02791124_1292.png,n02791124_1292.png,1.0,2.7702491,2.4260578,0.24338001
alexnet2023_baseline_pgd,1,156,NaN,bear,dog,90,0156_ps_dnn_90_dog_10_n02085782_4522.png,n02085782_4522.png,0.0,1.5018394,3.780497,-1.6112543
alexnet2023_baseline_pgd,1,157,NaN,bear,bear,60,0157_ps_dnn_60_bear_10_n02132136_686.png,n02132136_686.png,1.0,8.941168,8.742273,0.14063965
alexnet2023_baseline_pgd,1,158,NaN,bicycle,bird,120,0158_ps_dnn_120_bird_10_n01796340_12914.png,n01796340_12914.png,0.0,-0.018741967,1.3975036,-1.0014368
alexnet2023_baseline_pgd,1,159,NaN,elephant,knife,60,0159_ps_dnn_60_knife_10_n03041632_24060.png,n03041632_24060.png,0.0,3.8786013,5.5616665,-1.1901069
alexnet2023_baseline_pgd,1,160,NaN,knife,bottle,180,0160_ps_dnn_180_bottle_10_n03983396_4775.png,n03983396_4775.png,0.0,1.5351123,2.021993,-0.34427664
alexnet2023_baseline_pgd,1,161,NaN,cat,keyboard,120,0161_ps_dnn_120_keyboard_10_n04505470_1516.png,n04505470_1516.png,0.0,-2.5671344,1.7085241,-3.0233471
alexnet2023_baseline_pgd,1,162,NaN,knife,boat,150,0162_ps_dnn_150_boat_10_n03344393_4944.png,n03344393_4944.png,0.0,-1.5771357,4.111237,-4.022287
alexnet2023_baseline_pgd,1,163,NaN,elephant,cat,150,0163_ps_dnn_150_cat_10_n02123159_3524.png,n02123159_3524.png,0.0,1.1142772,2.4328222,-0.9323521
alexnet2023_baseline_pgd,1,164,NaN,airplane,truck,60,0164_ps_dnn_60_truck_10_n04467665_50648.png,n04467665_50648.png,0.0,3.2921019,6.0096674,-1.921609
alexnet2023_baseline_pgd,1,165,NaN,dog,dog,0,0165_ps_dnn_0_dog_10_n02107574_1277.png,n02107574_1277.png,1.0,2.8359787,0.8737935,1.3874745
alexnet2023_baseline_pgd,1,166,NaN,oven,oven,60,0166_ps_dnn_60_oven_10_n04111531_21980.png,n04111531_21980.png,1.0,7.112707,3.3016834,2.6948009
alexnet2023_baseline_pgd,1,167,NaN,bear,boat,120,0167_ps_dnn_120_boat_10_n03344393_11315.png,n03344393_11315.png,0.0,-0.6850988,3.8096542,-3.1782703
alexnet2023_baseline_pgd,1,168,NaN,knife,knife,90,0168_ps_dnn_90_knife_10_n03041632_32896.png,n03041632_32896.png,1.0,4.418081,4.3819904,0.02551975
alexnet2023_baseline_pgd,1,169,NaN,boat,bottle,30,0169_ps_dnn_30_bottle_10_n03937543_3133.png,n03937543_3133.png,0.0,2.8937218,3.2679248,-0.26460147
alexnet2023_baseline_pgd,1,170,NaN,knife,car,180,0170_ps_dnn_180_car_10_n04285008_15213.png,n04285008_15213.png,0.0,-1.5726643,2.2312737,-2.6897902
alexnet2023_baseline_pgd,1,171,NaN,elephant,elephant,90,0171_ps_dnn_90_elephant_10_n02504013_3081.png,n02504013_3081.png,1.0,4.5230803,2.965007,1.1017241
alexnet2023_baseline_pgd,1,172,NaN,cat,cat,60,0172_ps_dnn_60_cat_10_n02123159_6873.png,n02123159_6873.png,1.0,3.1035082,1.8166488,0.90994704
alexnet2023_baseline_pgd,1,173,NaN,bottle,bottle,60,0173_ps_dnn_60_bottle_10_n04579145_4385.png,n04579145_4385.png,1.0,10.266572,1.6984228,6.0585966
alexnet2023_baseline_pgd,1,174,NaN,bear,bear,60,0174_ps_dnn_60_bear_10_n02134418_2185.png,n02134418_2185.png,1.0,4.652771,4.65241,0.00025524132
alexnet2023_baseline_pgd,1,175,NaN,elephant,chair,150,0175_ps_dnn_150_chair_10_n04429376_16002.png,n04429376_16002.png,0.0,-1.8269539,2.241872,-2.8770943
alexnet2023_baseline_pgd,1,176,NaN,car,car,60,0176_ps_dnn_60_car_10_n03100240_8107.png,n03100240_8107.png,1.0,4.382529,3.2739916,0.7838542
alexnet2023_baseline_pgd,1,177,NaN,boat,boat,60,0177_ps_dnn_60_boat_10_n04273569_15906.png,n04273569_15906.png,1.0,9.2589245,3.7412963,3.9015524
alexnet2023_baseline_pgd,1,178,NaN,elephant,car,150,0178_ps_dnn_150_car_10_n02814533_85659.png,n02814533_85659.png,0.0,-0.48078653,1.6483023,-1.5054932
alexnet2023_baseline_pgd,1,179,NaN,cat,car,150,0179_ps_dnn_150_car_10_n02814533_87140.png,n02814533_87140.png,0.0,-1.9070482,1.2141887,-2.2070477
alexnet2023_baseline_pgd,1,180,NaN,keyboard,keyboard,30,0180_ps_dnn_30_keyboard_10_n03085013_7520.png,n03085013_7520.png,1.0,10.345228,4.64254,4.0324097
alexnet2023_baseline_pgd,1,181,NaN,bear,dog,90,0181_ps_dnn_90_dog_10_n02112018_10082.png,n02112018_10082.png,0.0,1.5607026,6.122031,-3.2253466
alexnet2023_baseline_pgd,1,182,NaN,bear,bear,90,0182_ps_dnn_90_bear_10_n02134084_5733.png,n02134084_5733.png,1.0,4.279615,2.1364949,1.5154147
alexnet2023_baseline_pgd,1,183,NaN,oven,cat,90,0183_ps_dnn_90_cat_10_n02123597_3821.png,n02123597_3821.png,0.0,0.6826,3.642635,-2.093061
alexnet2023_baseline_pgd,1,184,NaN,knife,boat,120,0184_ps_dnn_120_boat_10_n04612504_15256.png,n04612504_15256.png,0.0,-1.6801637,4.582882,-4.4286423
alexnet2023_baseline_pgd,1,185,NaN,bear,car,90,0185_ps_dnn_90_car_10_n02814533_84296.png,n02814533_84296.png,0.0,1.5295926,2.403742,-0.61811703
alexnet2023_baseline_pgd,1,186,NaN,knife,clock,120,0186_ps_dnn_120_clock_10_n04548280_5295.png,n04548280_5295.png,0.0,-0.027750095,3.3003526,-2.353324
alexnet2023_baseline_pgd,1,187,NaN,airplane,airplane,30,0187_ps_dnn_30_airplane_10_n02690373_11799.png,n02690373_11799.png,1.0,19.011547,4.4710274,10.2817
alexnet2023_baseline_pgd,1,188,NaN,elephant,dog,120,0188_ps_dnn_120_dog_10_n02092002_9876.png,n02092002_9876.png,0.0,2.2702744,3.4019113,-0.8001881
alexnet2023_baseline_pgd,1,189,NaN,knife,chair,0,0189_ps_dnn_0_chair_10_n02791124_16885.png,n02791124_16885.png,0.0,4.092589,4.867635,-0.5480402
alexnet2023_baseline_pgd,1,190,NaN,bicycle,airplane,60,0190_ps_dnn_60_airplane_10_n02690373_9376.png,n02690373_9376.png,0.0,5.781309,7.289073,-1.0661501
alexnet2023_baseline_pgd,1,191,NaN,cat,oven,180,0191_ps_dnn_180_oven_10_n04111531_6474.png,n04111531_6474.png,0.0,-0.8491095,1.509675,-1.6679125
alexnet2023_baseline_pgd,1,192,NaN,clock,knife,180,0192_ps_dnn_180_knife_10_n03041632_44230.png,n03041632_44230.png,0.0,1.163558,1.564859,-0.2837627
alexnet2023_baseline_pgd,1,193,NaN,elephant,dog,180,0193_ps_dnn_180_dog_10_n02099601_6318.png,n02099601_6318.png,0.0,0.44855216,1.9781455,-1.0815859
alexnet2023_baseline_pgd,1,194,NaN,elephant,cat,150,0194_ps_dnn_150_cat_10_n02125311_20241.png,n02125311_20241.png,0.0,2.2770665,3.0251498,-0.52897483
alexnet2023_baseline_pgd,1,195,NaN,bear,truck,120,0195_ps_dnn_120_truck_10_n04467665_51397.png,n04467665_51397.png,0.0,-2.6132293,4.9306803,-5.3343496
alexnet2023_baseline_pgd,1,196,NaN,dog,dog,0,0196_ps_dnn_0_dog_10_n02104365_1500.png,n02104365_1500.png,1.0,8.014154,7.06156,0.6735859
alexnet2023_baseline_pgd,1,197,NaN,knife,knife,90,0197_ps_dnn_90_knife_10_n03041632_3171.png,n03041632_3171.png,1.0,6.342947,1.6343498,3.3294811
alexnet2023_baseline_pgd,1,198,NaN,oven,oven,60,0198_ps_dnn_60_oven_10_n04111531_249.png,n04111531_249.png,1.0,8.454425,3.8270733,3.2720318
alexnet2023_baseline_pgd,1,199,NaN,dog,bear,90,0199_ps_dnn_90_bear_10_n02133161_8856.png,n02133161_8856.png,0.0,1.2399325,2.4879024,-0.88244796
alexnet2023_baseline_pgd,1,200,NaN,cat,cat,0,0200_ps_dnn_0_cat_10_n02123045_13354.png,n02123045_13354.png,1.0,14.393615,4.981963,6.6550426
alexnet2023_baseline_pgd,1,201,NaN,knife,keyboard,120,0201_ps_dnn_120_keyboard_10_n03085013_23267.png,n03085013_23267.png,0.0,0.5618871,4.183189,-2.5606472
alexnet2023_baseline_pgd,1,202,NaN,truck,truck,30,0202_ps_dnn_30_truck_10_n03796401_22643.png,n03796401_22643.png,1.0,7.567208,6.6884103,0.6214037
alexnet2023_baseline_pgd,1,203,NaN,knife,elephant,180,0203_ps_dnn_180_elephant_10_n02504458_4572.png,n02504458_4572.png,0.0,0.8686331,1.7404865,-0.61649346
alexnet2023_baseline_pgd,1,204,NaN,bear,truck,180,0204_ps_dnn_180_truck_10_n04467665_23173.png,n04467665_23173.png,0.0,-2.4950264,3.2590587,-4.068753
alexnet2023_baseline_pgd,1,205,NaN,elephant,bear,180,0205_ps_dnn_180_bear_10_n02134418_25040.png,n02134418_25040.png,0.0,-0.9383222,0.86651504,-1.2762127
alexnet2023_baseline_pgd,1,206,NaN,bicycle,bicycle,60,0206_ps_dnn_60_bicycle_10_n02835271_21185.png,n02835271_21185.png,1.0,8.407686,3.0417309,3.7943034
alexnet2023_baseline_pgd,1,207,NaN,chair,boat,30,0207_ps_dnn_30_boat_10_n02951358_12664.png,n02951358_12664.png,0.0,1.0187783,3.3831687,-1.6718765
alexnet2023_baseline_pgd,1,208,NaN,bottle,bottle,30,0208_ps_dnn_30_bottle_10_n03983396_11519.png,n03983396_11519.png,1.0,9.991605,5.3132143,3.3081217
alexnet2023_baseline_pgd,1,209,NaN,cat,knife,120,0209_ps_dnn_120_knife_10_n03041632_36280.png,n03041632_36280.png,0.0,1.5068994,1.6495022,-0.10083541
alexnet2023_baseline_pgd,1,210,NaN,elephant,truck,60,0210_ps_dnn_60_truck_10_n04467665_67115.png,n04467665_67115.png,0.0,1.722229,4.1255198,-1.6993833
alexnet2023_baseline_pgd,1,211,NaN,bear,bear,30,0211_ps_dnn_30_bear_10_n02133161_1560.png,n02133161_1560.png,1.0,4.904791,3.372199,1.0837061
alexnet2023_baseline_pgd,1,212,NaN,knife,truck,180,0212_ps_dnn_180_truck_10_n03417042_6780.png,n03417042_6780.png,0.0,-1.7378498,3.2116127,-3.4997985
alexnet2023_baseline_pgd,1,213,NaN,elephant,bear,150,0213_ps_dnn_150_bear_10_n02134084_20261.png,n02134084_20261.png,0.0,0.017625943,1.69732,-1.187723
alexnet2023_baseline_pgd,1,214,NaN,cat,chair,180,0214_ps_dnn_180_chair_10_n03376595_8377.png,n03376595_8377.png,0.0,-2.0747771,1.5364475,-2.5535214
alexnet2023_baseline_pgd,1,215,NaN,bird,bird,180,0215_ps_dnn_180_bird_10_n01824575_3556.png,n01824575_3556.png,1.0,1.0776446,1.0393991,0.02704361
alexnet2023_baseline_pgd,1,216,NaN,bear,chair,90,0216_ps_dnn_90_chair_10_n04099969_36004.png,n04099969_36004.png,0.0,-0.6647594,2.7948594,-2.44632
alexnet2023_baseline_pgd,1,217,NaN,bicycle,bicycle,0,0217_ps_dnn_0_bicycle_10_n02835271_22549.png,n02835271_22549.png,1.0,15.177883,6.374341,6.2250443
alexnet2023_baseline_pgd,1,218,NaN,knife,clock,150,0218_ps_dnn_150_clock_10_n04548280_8535.png,n04548280_8535.png,0.0,1.4257537,4.6778636,-2.2995892
alexnet2023_baseline_pgd,1,219,NaN,bear,knife,120,0219_ps_dnn_120_knife_10_n03041632_14546.png,n03041632_14546.png,0.0,0.8822998,4.5508227,-2.5940375
alexnet2023_baseline_pgd,1,220,NaN,keyboard,keyboard,0,0220_ps_dnn_0_keyboard_10_n04505470_4974.png,n04505470_4974.png,1.0,12.613611,5.3728766,5.1199727
alexnet2023_baseline_pgd,1,221,NaN,clock,clock,0,0221_ps_dnn_0_clock_10_n04548280_487.png,n04548280_487.png,1.0,12.175781,5.371126,4.811618
alexnet2023_baseline_pgd,1,222,NaN,truck,truck,30,0222_ps_dnn_30_truck_10_n03417042_10401.png,n03417042_10401.png,1.0,14.556099,8.7089405,4.1345654
alexnet2023_baseline_pgd,1,223,NaN,knife,clock,180,0223_ps_dnn_180_clock_10_n03196217_6257.png,n03196217_6257.png,0.0,-0.17214823,1.9867609,-1.5265793
alexnet2023_baseline_pgd,1,224,NaN,elephant,elephant,120,0224_ps_dnn_120_elephant_10_n02504458_1698.png,n02504458_1698.png,1.0,2.64062,1.2449737,0.986871
alexnet2023_baseline_pgd,1,225,NaN,cat,keyboard,180,0225_ps_dnn_180_keyboard_10_n03085013_23014.png,n03085013_23014.png,0.0,-2.2255006,2.775176,-3.5360124
alexnet2023_baseline_pgd,1,226,NaN,elephant,cat,60,0226_ps_dnn_60_cat_10_n02125311_17002.png,n02125311_17002.png,0.0,5.177915,9.633011,-3.1502285
alexnet2023_baseline_pgd,1,227,NaN,elephant,boat,180,0227_ps_dnn_180_boat_10_n03344393_5566.png,n03344393_5566.png,0.0,0.19902082,2.287277,-1.4766201
alexnet2023_baseline_pgd,1,228,NaN,elephant,bicycle,150,0228_ps_dnn_150_bicycle_10_n02835271_4887.png,n02835271_4887.png,0.0,-0.6741796,1.3248925,-1.4135574
alexnet2023_baseline_pgd,1,229,NaN,oven,keyboard,120,0229_ps_dnn_120_keyboard_10_n04505470_8386.png,n04505470_8386.png,0.0,-2.1734557,3.828577,-4.244078
alexnet2023_baseline_pgd,1,230,NaN,knife,bear,120,0230_ps_dnn_120_bear_10_n02133161_361.png,n02133161_361.png,0.0,1.975709,3.0107155,-0.73186016
alexnet2023_baseline_pgd,1,231,NaN,cat,bottle,0,0231_ps_dnn_0_bottle_10_n04560804_2165.png,n04560804_2165.png,0.0,0.85864735,4.4150295,-2.514742
alexnet2023_baseline_pgd,1,232,NaN,boat,cat,150,0232_ps_dnn_150_cat_10_n02124075_14020.png,n02124075_14020.png,0.0,1.2923453,1.7139282,-0.29810417
alexnet2023_baseline_pgd,1,233,NaN,knife,clock,150,0233_ps_dnn_150_clock_10_n04548280_3301.png,n04548280_3301.png,0.0,0.8400884,1.9869885,-0.8109809
alexnet2023_baseline_pgd,1,234,NaN,cat,knife,180,0234_ps_dnn_180_knife_10_n03041632_5820.png,n03041632_5820.png,0.0,1.0326996,2.047445,-0.7175334
alexnet2023_baseline_pgd,1,235,NaN,bear,oven,120,0235_ps_dnn_120_oven_10_n04111531_2922.png,n04111531_2922.png,0.0,-0.1994907,2.888845,-2.1837833
alexnet2023_baseline_pgd,1,236,NaN,airplane,bear,120,0236_ps_dnn_120_bear_10_n02134084_7441.png,n02134084_7441.png,0.0,0.2743024,2.8921523,-1.8510994
alexnet2023_baseline_pgd,1,237,NaN,knife,airplane,150,0237_ps_dnn_150_airplane_10_n02690373_8252.png,n02690373_8252.png,0.0,-2.2225113,3.2526593,-3.8715303
alexnet2023_baseline_pgd,1,238,NaN,cat,bird,150,0238_ps_dnn_150_bird_10_n02018207_69.png,n02018207_69.png,0.0,0.033967525,1.6132865,-1.1167471
alexnet2023_baseline_pgd,1,239,NaN,bird,bird,30,0239_ps_dnn_30_bird_10_n01798484_5355.png,n01798484_5355.png,1.0,4.7842894,2.777621,1.4189289
alexnet2023_baseline_pgd,1,240,NaN,oven,keyboard,150,0240_ps_dnn_150_keyboard_10_n03085013_4999.png,n03085013_4999.png,0.0,-0.28335512,2.957964,-2.2919588
alexnet2023_baseline_pgd,1,241,NaN,elephant,dog,120,0241_ps_dnn_120_dog_10_n02111500_3041.png,n02111500_3041.png,0.0,-1.1493981,2.633222,-2.6747165
alexnet2023_baseline_pgd,1,242,NaN,boat,boat,0,0242_ps_dnn_0_boat_10_n04612504_15237.png,n04612504_15237.png,1.0,6.379302,3.493383,2.040653
alexnet2023_baseline_pgd,1,243,NaN,elephant,truck,150,0243_ps_dnn_150_truck_10_n03417042_6480.png,n03417042_6480.png,0.0,-1.3100549,2.1152587,-2.4220624
alexnet2023_baseline_pgd,1,244,NaN,cat,airplane,180,0244_ps_dnn_180_airplane_10_n02690373_8382.png,n02690373_8382.png,0.0,-1.9798535,1.4860495,-2.4507637
alexnet2023_baseline_pgd,1,245,NaN,bear,bottle,120,0245_ps_dnn_120_bottle_10_n04591713_2345.png,n04591713_2345.png,0.0,1.7066286,3.120123,-0.99949145
alexnet2023_baseline_pgd,1,246,NaN,elephant,elephant,60,0246_ps_dnn_60_elephant_10_n02504458_9516.png,n02504458_9516.png,1.0,12.488018,4.587752,5.586332
alexnet2023_baseline_pgd,1,247,NaN,elephant,elephant,180,0247_ps_dnn_180_elephant_10_n02504013_698.png,n02504013_698.png,1.0,1.7451353,1.1575743,0.4154684
alexnet2023_baseline_pgd,1,248,NaN,elephant,bear,0,0248_ps_dnn_0_bear_10_n02133161_5292.png,n02133161_5292.png,0.0,10.004467,10.194426,-0.134321
alexnet2023_baseline_pgd,1,249,NaN,boat,boat,90,0249_ps_dnn_90_boat_10_n02951358_14341.png,n02951358_14341.png,1.0,3.0352669,2.3744833,0.46724454
alexnet2023_baseline_pgd,1,250,NaN,knife,bear,120,0250_ps_dnn_120_bear_10_n02133161_2304.png,n02133161_2304.png,0.0,-0.52700317,1.9026239,-1.7180057
alexnet2023_baseline_pgd,1,251,NaN,elephant,airplane,150,0251_ps_dnn_150_airplane_10_n02690373_1751.png,n02690373_1751.png,0.0,-1.23196,1.9208767,-2.2293923
alexnet2023_baseline_pgd,1,252,NaN,knife,truck,150,0252_ps_dnn_150_truck_10_n04467665_48953.png,n04467665_48953.png,0.0,-1.5176694,3.7208986,-3.7042272
alexnet2023_baseline_pgd,1,253,NaN,oven,oven,0,0253_ps_dnn_0_oven_10_n04111531_10077.png,n04111531_10077.png,1.0,12.105191,4.8077393,5.160078
alexnet2023_baseline_pgd,1,254,NaN,cat,dog,150,0254_ps_dnn_150_dog_10_n02097209_821.png,n02097209_821.png,0.0,-0.9715109,1.3551561,-1.6452019
alexnet2023_baseline_pgd,1,255,NaN,truck,truck,0,0255_ps_dnn_0_truck_10_n04467665_13231.png,n04467665_13231.png,1.0,7.748021,6.4956574,0.88555485
alexnet2023_baseline_pgd,1,256,NaN,dog,dog,90,0256_ps_dnn_90_dog_10_n02107908_3447.png,n02107908_3447.png,1.0,1.4736409,1.3523139,0.08579118
alexnet2023_baseline_pgd,1,257,NaN,elephant,elephant,180,0257_ps_dnn_180_elephant_10_n02504013_5021.png,n02504013_5021.png,1.0,2.3539515,1.8906353,0.32761404
alexnet2023_baseline_pgd,1,258,NaN,bear,knife,90,0258_ps_dnn_90_knife_10_n03041632_12242.png,n03041632_12242.png,0.0,2.7831492,2.793872,-0.0075822184
alexnet2023_baseline_pgd,1,259,NaN,knife,keyboard,150,0259_ps_dnn_150_keyboard_10_n03085013_22821.png,n03085013_22821.png,0.0,-2.9688857,3.9781947,-4.912328
alexnet2023_baseline_pgd,1,260,NaN,knife,cat,150,0260_ps_dnn_150_cat_10_n02124075_2080.png,n02124075_2080.png,0.0,-0.7990902,1.0846397,-1.3319982
alexnet2023_baseline_pgd,1,261,NaN,elephant,bicycle,180,0261_ps_dnn_180_bicycle_10_n02835271_7296.png,n02835271_7296.png,0.0,0.23513684,1.5884495,-0.95693654
alexnet2023_baseline_pgd,1,262,NaN,knife,boat,180,0262_ps_dnn_180_boat_10_n04612504_4302.png,n04612504_4302.png,0.0,-1.189971,3.5771413,-3.3708575
alexnet2023_baseline_pgd,1,263,NaN,cat,clock,150,0263_ps_dnn_150_clock_10_n04548280_4524.png,n04548280_4524.png,0.0,-0.7518954,3.3245604,-2.8824897
alexnet2023_baseline_pgd,1,264,NaN,cat,knife,150,0264_ps_dnn_150_knife_10_n03041632_19275.png,n03041632_19275.png,0.0,1.0258151,1.2331675,-0.14662029
alexnet2023_baseline_pgd,1,265,NaN,bird,bird,30,0265_ps_dnn_30_bird_10_n01796340_2973.png,n01796340_2973.png,1.0,7.099666,3.0424328,2.8688972
alexnet2023_baseline_pgd,1,266,NaN,oven,chair,90,0266_ps_dnn_90_chair_10_n02791124_15407.png,n02791124_15407.png,0.0,-0.6252105,5.1838207,-4.1076055
alexnet2023_baseline_pgd,1,267,NaN,dog,dog,30,0267_ps_dnn_30_dog_10_n02109525_72594.png,n02109525_72594.png,1.0,6.1608224,3.2586405,2.0521524
alexnet2023_baseline_pgd,1,268,NaN,elephant,knife,150,0268_ps_dnn_150_knife_10_n03041632_19614.png,n03041632_19614.png,0.0,0.4655246,1.4106656,-0.66831565
alexnet2023_baseline_pgd,1,269,NaN,keyboard,keyboard,30,0269_ps_dnn_30_keyboard_10_n04505470_5111.png,n04505470_5111.png,1.0,10.854893,3.9113848,4.909802
alexnet2023_baseline_pgd,1,270,NaN,bicycle,bicycle,30,0270_ps_dnn_30_bicycle_10_n03792782_8374.png,n03792782_8374.png,1.0,12.782437,1.7589765,7.7947636
alexnet2023_baseline_pgd,1,271,NaN,knife,boat,120,0271_ps_dnn_120_boat_10_n04612504_2024.png,n04612504_2024.png,0.0,-1.9006507,3.9964876,-4.1699066
alexnet2023_baseline_pgd,1,272,NaN,bicycle,bicycle,30,0272_ps_dnn_30_bicycle_10_n02835271_9860.png,n02835271_9860.png,1.0,13.264911,7.0921383,4.3648095
alexnet2023_baseline_pgd,1,273,NaN,bear,bear,60,0273_ps_dnn_60_bear_10_n02134084_21921.png,n02134084_21921.png,1.0,5.898887,5.617797,0.19876084
alexnet2023_baseline_pgd,1,274,NaN,bear,bear,90,0274_ps_dnn_90_bear_10_n02134418_836.png,n02134418_836.png,1.0,3.6175666,3.5009232,0.08247936
alexnet2023_baseline_pgd,1,275,NaN,clock,chair,60,0275_ps_dnn_60_chair_10_n04429376_6141.png,n04429376_6141.png,0.0,2.2206912,3.3139346,-0.7730398
alexnet2023_baseline_pgd,1,276,NaN,truck,truck,30,0276_ps_dnn_30_truck_10_n04467665_6523.png,n04467665_6523.png,1.0,9.311171,7.5869484,1.2192092
alexnet2023_baseline_pgd,1,277,NaN,knife,chair,90,0277_ps_dnn_90_chair_10_n04429376_41755.png,n04429376_41755.png,0.0,0.090382665,1.8946025,-1.2757761
alexnet2023_baseline_pgd,1,278,NaN,knife,bottle,180,0278_ps_dnn_180_bottle_10_n04579145_3302.png,n04579145_3302.png,0.0,0.5712118,4.131249,-2.5173264
alexnet2023_baseline_pgd,1,279,NaN,cat,cat,0,0279_ps_dnn_0_cat_10_n02123045_12297.png,n02123045_12297.png,1.0,10.04793,2.835871,5.099696
alexnet2023_baseline_pgd,1,280,NaN,clock,clock,60,0280_ps_dnn_60_clock_10_n04548280_5734.png,n04548280_5734.png,1.0,5.637338,1.6778282,2.7997963
alexnet2023_baseline_pgd,1,281,NaN,knife,elephant,90,0281_ps_dnn_90_elephant_10_n02504013_3640.png,n02504013_3640.png,0.0,1.7673302,4.0870547,-1.640293
alexnet2023_baseline_pgd,1,282,NaN,oven,car,0,0282_ps_dnn_0_car_10_n03100240_2108.png,n03100240_2108.png,0.0,0.48148656,2.9767923,-1.7644477
alexnet2023_baseline_pgd,1,283,NaN,elephant,car,90,0283_ps_dnn_90_car_10_n02814533_8499.png,n02814533_8499.png,0.0,-0.089458145,3.877846,-2.8053079
alexnet2023_baseline_pgd,1,284,NaN,cat,knife,180,0284_ps_dnn_180_knife_10_n03041632_9406.png,n03041632_9406.png,0.0,-0.27200735,3.7721603,-2.8596582
alexnet2023_baseline_pgd,1,285,NaN,clock,clock,120,0285_ps_dnn_120_clock_10_n04548280_3968.png,n04548280_3968.png,1.0,2.8350487,1.8242769,0.7147236
alexnet2023_baseline_pgd,1,286,NaN,cat,boat,120,0286_ps_dnn_120_boat_10_n04273569_20587.png,n04273569_20587.png,0.0,0.9339453,2.4360893,-1.0621762
alexnet2023_baseline_pgd,1,287,NaN,elephant,truck,150,0287_ps_dnn_150_truck_10_n03796401_7261.png,n03796401_7261.png,0.0,-1.3610165,2.3307257,-2.610456
alexnet2023_baseline_pgd,1,288,NaN,boat,boat,90,0288_ps_dnn_90_boat_10_n04273569_18037.png,n04273569_18037.png,1.0,2.916511,2.8204618,0.067917116
alexnet2023_baseline_pgd,1,289,NaN,clock,bicycle,180,0289_ps_dnn_180_bicycle_10_n02835271_4789.png,n02835271_4789.png,0.0,0.9019721,1.192803,-0.20564851
alexnet2023_baseline_pgd,1,290,NaN,bear,chair,90,0290_ps_dnn_90_chair_10_n04099969_18380.png,n04099969_18380.png,0.0,-0.43579876,2.0854545,-1.7827952
alexnet2023_baseline_pgd,1,291,NaN,oven,dog,120,0291_ps_dnn_120_dog_10_n02100583_13688.png,n02100583_13688.png,0.0,0.7503657,2.3044946,-1.0989351
alexnet2023_baseline_pgd,1,292,NaN,elephant,boat,180,0292_ps_dnn_180_boat_10_n03662601_8065.png,n03662601_8065.png,0.0,-1.1539026,1.4859765,-1.8666766
alexnet2023_baseline_pgd,1,293,NaN,boat,boat,0,0293_ps_dnn_0_boat_10_n02951358_15218.png,n02951358_15218.png,1.0,10.544309,7.5318427,2.130135
alexnet2023_baseline_pgd,1,294,NaN,knife,knife,180,0294_ps_dnn_180_knife_10_n03041632_24277.png,n03041632_24277.png,1.0,3.8657691,3.3501267,0.36461425
alexnet2023_baseline_pgd,1,295,NaN,elephant,bird,90,0295_ps_dnn_90_bird_10_n01601694_2723.png,n01601694_2723.png,0.0,2.760786,4.6671286,-1.3479878
alexnet2023_baseline_pgd,1,296,NaN,keyboard,keyboard,120,0296_ps_dnn_120_keyboard_10_n04505470_4724.png,n04505470_4724.png,1.0,2.0045538,1.9109685,0.06617477
alexnet2023_baseline_pgd,1,297,NaN,knife,bear,150,0297_ps_dnn_150_bear_10_n02134418_1642.png,n02134418_1642.png,0.0,0.46081054,3.3844533,-2.0673275
alexnet2023_baseline_pgd,1,298,NaN,boat,truck,60,0298_ps_dnn_60_truck_10_n03417042_13055.png,n03417042_13055.png,0.0,2.253348,4.815549,-1.8117496
alexnet2023_baseline_pgd,1,299,NaN,knife,bear,120,0299_ps_dnn_120_bear_10_n02133161_1629.png,n02133161_1629.png,0.0,0.19548774,3.7965746,-2.5463529
alexnet2023_baseline_pgd,1,300,NaN,knife,bottle,180,0300_ps_dnn_180_bottle_10_n04579145_1856.png,n04579145_1856.png,0.0,0.19369103,3.6491292,-2.4433637
alexnet2023_baseline_pgd,1,301,NaN,knife,chair,150,0301_ps_dnn_150_chair_10_n04099969_3768.png,n04099969_3768.png,0.0,-0.6718954,1.7154382,-1.6880999
alexnet2023_baseline_pgd,1,302,NaN,elephant,bird,120,0302_ps_dnn_120_bird_10_n02009229_5172.png,n02009229_5172.png,0.0,0.169086,0.8120996,-0.45467928
alexnet2023_baseline_pgd,1,303,NaN,airplane,airplane,90,0303_ps_dnn_90_airplane_10_n02690373_21731.png,n02690373_21731.png,1.0,4.4653845,3.5895627,0.6192996
alexnet2023_baseline_pgd,1,304,NaN,bicycle,bear,30,0304_ps_dnn_30_bear_10_n02133161_959.png,n02133161_959.png,0.0,3.8098226,3.8238587,-0.009925078
alexnet2023_baseline_pgd,1,305,NaN,chair,chair,0,0305_ps_dnn_0_chair_10_n04099969_1028.png,n04099969_1028.png,1.0,8.559379,3.4893084,3.585081
alexnet2023_baseline_pgd,1,306,NaN,bird,knife,180,0306_ps_dnn_180_knife_10_n03041632_44212.png,n03041632_44212.png,0.0,1.0946072,1.4628925,-0.26041704
alexnet2023_baseline_pgd,1,307,NaN,elephant,oven,120,0307_ps_dnn_120_oven_10_n04111531_9344.png,n04111531_9344.png,0.0,0.6821968,2.5919023,-1.3503656
alexnet2023_baseline_pgd,1,308,NaN,elephant,car,180,0308_ps_dnn_180_car_10_n04285008_9080.png,n04285008_9080.png,0.0,-1.1274832,2.0149999,-2.2220712
alexnet2023_baseline_pgd,1,309,NaN,car,car,60,0309_ps_dnn_60_car_10_n03100240_17349.png,n03100240_17349.png,1.0,9.800405,5.0533504,3.3566742
alexnet2023_baseline_pgd,1,310,NaN,dog,dog,30,0310_ps_dnn_30_dog_10_n02110958_1335.png,n02110958_1335.png,1.0,3.0195544,2.3190303,0.49534535
alexnet2023_baseline_pgd,1,311,NaN,knife,elephant,150,0311_ps_dnn_150_elephant_10_n02504013_7305.png,n02504013_7305.png,0.0,1.9945415,4.654595,-1.8809417
alexnet2023_baseline_pgd,1,312,NaN,bottle,dog,90,0312_ps_dnn_90_dog_10_n02091244_2626.png,n02091244_2626.png,0.0,0.749302,2.5116444,-1.2461642
alexnet2023_baseline_pgd,1,313,NaN,elephant,bird,150,0313_ps_dnn_150_bird_10_n01828970_22.png,n01828970_22.png,0.0,0.15617333,0.81065106,-0.46278563
alexnet2023_baseline_pgd,1,314,NaN,cat,cat,60,0314_ps_dnn_60_cat_10_n02124075_13587.png,n02124075_13587.png,1.0,4.1588635,3.11963,0.73484904
alexnet2023_baseline_pgd,1,315,NaN,elephant,knife,120,0315_ps_dnn_120_knife_10_n03041632_13612.png,n03041632_13612.png,0.0,-0.34224573,4.41803,-3.366023
alexnet2023_baseline_pgd,1,316,NaN,bicycle,bicycle,90,0316_ps_dnn_90_bicycle_10_n02835271_2581.png,n02835271_2581.png,1.0,4.6462803,2.6903608,1.383044
alexnet2023_baseline_pgd,1,317,NaN,knife,clock,30,0317_ps_dnn_30_clock_10_n03196217_2536.png,n03196217_2536.png,0.0,5.7135406,6.1662717,-0.32012925
alexnet2023_baseline_pgd,1,318,NaN,cat,cat,90,0318_ps_dnn_90_cat_10_n02124075_15001.png,n02124075_15001.png,1.0,4.387951,0.651485,2.6420805
alexnet2023_baseline_pgd,1,319,NaN,bear,bear,60,0319_ps_dnn_60_bear_10_n02133161_6152.png,n02133161_6152.png,1.0,4.472206,2.8939838,1.1159717
alexnet2023_baseline_pgd,1,320,NaN,oven,chair,30,0320_ps_dnn_30_chair_10_n04099969_8401.png,n04099969_8401.png,0.0,3.3852615,5.45612,-1.4643182
alexnet2023_baseline_pgd,1,321,NaN,knife,oven,150,0321_ps_dnn_150_oven_10_n04111531_7923.png,n04111531_7923.png,0.0,2.0318248,3.1631858,-0.79999304
alexnet2023_baseline_pgd,1,322,NaN,cat,cat,120,0322_ps_dnn_120_cat_10_n02123159_5706.png,n02123159_5706.png,1.0,1.6097239,0.3201926,0.9118364
alexnet2023_baseline_pgd,1,323,NaN,airplane,airplane,30,0323_ps_dnn_30_airplane_10_n02690373_13324.png,n02690373_13324.png,1.0,10.462842,7.7160525,1.9422735
alexnet2023_baseline_pgd,1,324,NaN,elephant,airplane,150,0324_ps_dnn_150_airplane_10_n02690373_4452.png,n02690373_4452.png,0.0,-1.5191007,1.4040396,-2.0669723
alexnet2023_baseline_pgd,1,325,NaN,bird,bird,90,0325_ps_dnn_90_bird_10_n02056570_10881.png,n02056570_10881.png,1.0,2.90137,2.1667924,0.51942486
alexnet2023_baseline_pgd,1,326,NaN,airplane,airplane,90,0326_ps_dnn_90_airplane_10_n02690373_19133.png,n02690373_19133.png,1.0,6.375219,2.3583176,2.840378
alexnet2023_baseline_pgd,1,327,NaN,bottle,bottle,0,0327_ps_dnn_0_bottle_10_n03937543_4850.png,n03937543_4850.png,1.0,6.417067,3.158169,2.304389
alexnet2023_baseline_pgd,1,328,NaN,knife,keyboard,150,0328_ps_dnn_150_keyboard_10_n04505470_2709.png,n04505470_2709.png,0.0,-2.2712598,1.2879987,-2.5167758
alexnet2023_baseline_pgd,1,329,NaN,bottle,keyboard,90,0329_ps_dnn_90_keyboard_10_n03085013_1797.png,n03085013_1797.png,0.0,-1.7033979,4.767916,-4.57591
alexnet2023_baseline_pgd,1,330,NaN,oven,oven,30,0330_ps_dnn_30_oven_10_n04111531_3902.png,n04111531_3902.png,1.0,8.045631,6.1597567,1.3335148
alexnet2023_baseline_pgd,1,331,NaN,knife,car,180,0331_ps_dnn_180_car_10_n03100240_6750.png,n03100240_6750.png,0.0,-0.8265548,2.5277307,-2.371838
alexnet2023_baseline_pgd,1,332,NaN,chair,chair,0,0332_ps_dnn_0_chair_10_n03376595_16306.png,n03376595_16306.png,1.0,9.3495,6.46488,2.0397341
alexnet2023_baseline_pgd,1,333,NaN,bicycle,boat,60,0333_ps_dnn_60_boat_10_n02951358_13017.png,n02951358_13017.png,0.0,-0.3314983,5.980338,-4.4631424
alexnet2023_baseline_pgd,1,334,NaN,knife,clock,90,0334_ps_dnn_90_clock_10_n03196217_5827.png,n03196217_5827.png,0.0,0.5682321,3.594342,-2.139783
alexnet2023_baseline_pgd,1,335,NaN,bottle,bottle,0,0335_ps_dnn_0_bottle_10_n02823428_685.png,n02823428_685.png,1.0,3.1587942,1.5681417,1.1247612
alexnet2023_baseline_pgd,1,336,NaN,boat,airplane,120,0336_ps_dnn_120_airplane_10_n02690373_2092.png,n02690373_2092.png,0.0,-1.0626798,2.944102,-2.8332224
alexnet2023_baseline_pgd,1,337,NaN,cat,bottle,180,0337_ps_dnn_180_bottle_10_n04557648_3637.png,n04557648_3637.png,0.0,0.30251196,3.1989892,-2.0481188
alexnet2023_baseline_pgd,1,338,NaN,elephant,bird,90,0338_ps_dnn_90_bird_10_n01819313_5521.png,n01819313_5521.png,0.0,1.9016695,4.0152125,-1.4945006
alexnet2023_baseline_pgd,1,339,NaN,elephant,dog,90,0339_ps_dnn_90_dog_10_n02100583_24297.png,n02100583_24297.png,0.0,3.0645428,8.984774,-4.1862354
alexnet2023_baseline_pgd,1,340,NaN,elephant,bird,60,0340_ps_dnn_60_bird_10_n02018207_12233.png,n02018207_12233.png,0.0,4.5655227,8.57984,-2.8385508
alexnet2023_baseline_pgd,1,341,NaN,elephant,bird,180,0341_ps_dnn_180_bird_10_n02013706_3032.png,n02013706_3032.png,0.0,1.2225802,1.5270855,-0.2153178
alexnet2023_baseline_pgd,1,342,NaN,bear,oven,60,0342_ps_dnn_60_oven_10_n04111531_9939.png,n04111531_9939.png,0.0,3.1889367,5.653556,-1.742749
alexnet2023_baseline_pgd,1,343,NaN,bird,bird,180,0343_ps_dnn_180_bird_10_n02011460_7629.png,n02011460_7629.png,1.0,1.1854666,0.88593024,0.21180423
alexnet2023_baseline_pgd,1,344,NaN,bottle,oven,60,0344_ps_dnn_60_oven_10_n04111531_13542.png,n04111531_13542.png,0.0,1.562461,4.1296473,-1.815275
alexnet2023_baseline_pgd,1,345,NaN,elephant,bear,90,0345_ps_dnn_90_bear_10_n02134418_270.png,n02134418_270.png,0.0,3.7056644,4.4577117,-0.53177774
alexnet2023_baseline_pgd,1,346,NaN,bicycle,bicycle,90,0346_ps_dnn_90_bicycle_10_n03792782_12561.png,n03792782_12561.png,1.0,3.2042418,1.0143076,1.5485173
alexnet2023_baseline_pgd,1,347,NaN,elephant,elephant,120,0347_ps_dnn_120_elephant_10_n02504458_9213.png,n02504458_9213.png,1.0,1.8380134,0.52001625,0.9319648
alexnet2023_baseline_pgd,1,348,NaN,oven,chair,90,0348_ps_dnn_90_chair_10_n03376595_4155.png,n03376595_4155.png,0.0,1.143388,3.6137602,-1.746817
alexnet2023_baseline_pgd,1,349,NaN,cat,truck,120,0349_ps_dnn_120_truck_10_n04467665_69970.png,n04467665_69970.png,0.0,-1.6294498,1.7385286,-2.3815205
alexnet2023_baseline_pgd,1,350,NaN,bicycle,bird,120,0350_ps_dnn_120_bird_10_n02002556_2350.png,n02002556_2350.png,0.0,0.11800684,0.76626307,-0.4583864
alexnet2023_baseline_pgd,1,351,NaN,bear,bear,0,0351_ps_dnn_0_bear_10_n02133161_355.png,n02133161_355.png,1.0,12.427073,6.800824,3.9783585
alexnet2023_baseline_pgd,1,352,NaN,boat,airplane,90,0352_ps_dnn_90_airplane_10_n02690373_3065.png,n02690373_3065.png,0.0,2.497725,3.3958123,-0.6350436
alexnet2023_baseline_pgd,1,353,NaN,truck,truck,60,0353_ps_dnn_60_truck_10_n03417042_13289.png,n03417042_13289.png,1.0,8.077959,5.5561914,1.783159
alexnet2023_baseline_pgd,1,354,NaN,oven,oven,0,0354_ps_dnn_0_oven_10_n04111531_21404.png,n04111531_21404.png,1.0,3.2617898,2.991311,0.19125734
alexnet2023_baseline_pgd,1,355,NaN,bear,bear,90,0355_ps_dnn_90_bear_10_n02132136_8358.png,n02132136_8358.png,1.0,3.7374654,3.6660457,0.050501365
alexnet2023_baseline_pgd,1,356,NaN,oven,oven,90,0356_ps_dnn_90_oven_10_n04111531_274.png,n04111531_274.png,1.0,2.8027594,1.3783224,1.0072291
alexnet2023_baseline_pgd,1,357,NaN,elephant,chair,120,0357_ps_dnn_120_chair_10_n02791124_2773.png,n02791124_2773.png,0.0,-0.034979686,2.5025265,-1.7942878
alexnet2023_baseline_pgd,1,358,NaN,bicycle,knife,120,0358_ps_dnn_120_knife_10_n03041632_102828.png,n03041632_102828.png,0.0,1.0855641,2.1165318,-0.72900426
alexnet2023_baseline_pgd,1,359,NaN,elephant,boat,150,0359_ps_dnn_150_boat_10_n02951358_30995.png,n02951358_30995.png,0.0,0.36972743,1.9177654,-1.0946282
alexnet2023_baseline_pgd,1,360,NaN,oven,bicycle,150,0360_ps_dnn_150_bicycle_10_n03792782_4544.png,n03792782_4544.png,0.0,-1.4365721,4.0320177,-3.866877
alexnet2023_baseline_pgd,1,361,NaN,cat,airplane,120,0361_ps_dnn_120_airplane_10_n02690373_8446.png,n02690373_8446.png,0.0,-3.211246,1.3703309,-3.239664
alexnet2023_baseline_pgd,1,362,NaN,bottle,bottle,30,0362_ps_dnn_30_bottle_10_n04557648_900.png,n04557648_900.png,1.0,3.459605,3.183989,0.1948899
alexnet2023_baseline_pgd,1,363,NaN,elephant,airplane,150,0363_ps_dnn_150_airplane_10_n02690373_3407.png,n02690373_3407.png,0.0,-0.8742473,2.214888,-2.1843486
alexnet2023_baseline_pgd,1,364,NaN,bottle,bottle,120,0364_ps_dnn_120_bottle_10_n03983396_8143.png,n03983396_8143.png,1.0,2.8717825,1.6586754,0.85779625
alexnet2023_baseline_pgd,1,365,NaN,car,car,0,0365_ps_dnn_0_car_10_n03100240_9610.png,n03100240_9610.png,1.0,15.764145,9.107652,4.7068515
alexnet2023_baseline_pgd,1,366,NaN,bicycle,cat,120,0366_ps_dnn_120_cat_10_n02123159_1108.png,n02123159_1108.png,0.0,0.8791044,1.9841444,-0.78138137
alexnet2023_baseline_pgd,1,367,NaN,clock,clock,0,0367_ps_dnn_0_clock_10_n04548280_2170.png,n04548280_2170.png,1.0,12.563538,4.5387926,5.6743517
alexnet2023_baseline_pgd,1,368,NaN,bicycle,keyboard,120,0368_ps_dnn_120_keyboard_10_n04505470_4385.png,n04505470_4385.png,0.0,-3.3882327,2.7347488,-4.329602
alexnet2023_baseline_pgd,1,369,NaN,bicycle,airplane,120,0369_ps_dnn_120_airplane_10_n02690373_18383.png,n02690373_18383.png,0.0,0.35404626,2.100531,-1.2349514
alexnet2023_baseline_pgd,1,370,NaN,elephant,truck,90,0370_ps_dnn_90_truck_10_n03417042_10243.png,n03417042_10243.png,0.0,-1.6106272,4.378883,-4.2352233
alexnet2023_baseline_pgd,1,371,NaN,cat,cat,30,0371_ps_dnn_30_cat_10_n02123045_11826.png,n02123045_11826.png,1.0,8.397691,2.4702723,4.191318
alexnet2023_baseline_pgd,1,372,NaN,bird,bird,0,0372_ps_dnn_0_bird_10_n01817953_2257.png,n01817953_2257.png,1.0,6.900489,2.4083529,3.17642
alexnet2023_baseline_pgd,1,373,NaN,boat,boat,0,0373_ps_dnn_0_boat_10_n04612504_18442.png,n04612504_18442.png,1.0,11.845652,7.863098,2.8160906
alexnet2023_baseline_pgd,1,374,NaN,bird,airplane,180,0374_ps_dnn_180_airplane_10_n02690373_2874.png,n02690373_2874.png,0.0,0.23142302,2.0180907,-1.2633649
alexnet2023_baseline_pgd,1,375,NaN,bicycle,bicycle,0,0375_ps_dnn_0_bicycle_10_n02835271_4963.png,n02835271_4963.png,1.0,12.9568,5.2175293,5.4724913
alexnet2023_baseline_pgd,1,376,NaN,knife,boat,180,0376_ps_dnn_180_boat_10_n04273569_568.png,n04273569_568.png,0.0,1.0505354,3.4852622,-1.7216119
alexnet2023_baseline_pgd,1,377,NaN,elephant,elephant,90,0377_ps_dnn_90_elephant_10_n02504013_2233.png,n02504013_2233.png,1.0,5.748333,3.2104523,1.7945527
alexnet2023_baseline_pgd,1,378,NaN,bottle,bottle,60,0378_ps_dnn_60_bottle_10_n02823428_889.png,n02823428_889.png,1.0,4.4101872,3.8031046,0.42927223
alexnet2023_baseline_pgd,1,379,NaN,airplane,car,90,0379_ps_dnn_90_car_10_n04285008_3096.png,n04285008_3096.png,0.0,2.8454902,4.5117917,-1.178253
alexnet2023_baseline_pgd,1,380,NaN,bicycle,airplane,120,0380_ps_dnn_120_airplane_10_n02690373_13206.png,n02690373_13206.png,0.0,-0.2659533,0.8673185,-0.8013442
alexnet2023_baseline_pgd,1,381,NaN,oven,keyboard,90,0381_ps_dnn_90_keyboard_10_n03085013_25443.png,n03085013_25443.png,0.0,-6.708908,3.766379,-7.407147
alexnet2023_baseline_pgd,1,382,NaN,truck,truck,30,0382_ps_dnn_30_truck_10_n04467665_20622.png,n04467665_20622.png,1.0,11.299238,4.597133,4.739104
alexnet2023_baseline_pgd,1,383,NaN,bicycle,bicycle,60,0383_ps_dnn_60_bicycle_10_n02835271_24639.png,n02835271_24639.png,1.0,12.51421,3.9430456,6.0607285
alexnet2023_baseline_pgd,1,384,NaN,knife,knife,30,0384_ps_dnn_30_knife_10_n03041632_25603.png,n03041632_25603.png,1.0,6.455823,1.9837661,3.162222
alexnet2023_baseline_pgd,1,385,NaN,boat,boat,60,0385_ps_dnn_60_boat_10_n04273569_4978.png,n04273569_4978.png,1.0,8.636241,4.312075,3.057647
alexnet2023_baseline_pgd,1,386,NaN,car,car,60,0386_ps_dnn_60_car_10_n02814533_46401.png,n02814533_46401.png,1.0,9.352397,4.8087215,3.2128637
alexnet2023_baseline_pgd,1,387,NaN,elephant,bird,120,0387_ps_dnn_120_bird_10_n01798484_12863.png,n01798484_12863.png,0.0,1.4939567,2.2988014,-0.56911117
alexnet2023_baseline_pgd,1,388,NaN,bird,boat,120,0388_ps_dnn_120_boat_10_n03662601_7885.png,n03662601_7885.png,0.0,-0.41814223,1.9336137,-1.6629425
alexnet2023_baseline_pgd,1,389,NaN,airplane,chair,0,0389_ps_dnn_0_chair_10_n03376595_3062.png,n03376595_3062.png,0.0,2.8666098,7.322226,-3.1505964
alexnet2023_baseline_pgd,1,390,NaN,airplane,airplane,90,0390_ps_dnn_90_airplane_10_n02690373_19118.png,n02690373_19118.png,1.0,10.170654,3.4449875,4.755765
alexnet2023_baseline_pgd,1,391,NaN,knife,cat,180,0391_ps_dnn_180_cat_10_n02123597_3944.png,n02123597_3944.png,0.0,1.4080027,2.4949508,-0.76858836
alexnet2023_baseline_pgd,1,392,NaN,cat,keyboard,150,0392_ps_dnn_150_keyboard_10_n04505470_2113.png,n04505470_2113.png,0.0,-1.2005837,2.4702952,-2.5957034
alexnet2023_baseline_pgd,1,393,NaN,elephant,bird,30,0393_ps_dnn_30_bird_10_n02056570_4808.png,n02056570_4808.png,0.0,3.4653034,6.847953,-2.3918943
alexnet2023_baseline_pgd,1,394,NaN,elephant,bear,180,0394_ps_dnn_180_bear_10_n02133161_2316.png,n02133161_2316.png,0.0,-0.21249938,1.3400772,-1.0978374
alexnet2023_baseline_pgd,1,395,NaN,elephant,dog,0,0395_ps_dnn_0_dog_10_n02106662_15515.png,n02106662_15515.png,0.0,3.0572777,4.790224,-1.2253782
alexnet2023_baseline_pgd,1,396,NaN,airplane,airplane,0,0396_ps_dnn_0_airplane_10_n02690373_3899.png,n02690373_3899.png,1.0,12.580825,7.8592796,3.3386366
alexnet2023_baseline_pgd,1,397,NaN,boat,boat,0,0397_ps_dnn_0_boat_10_n04273569_2449.png,n04273569_2449.png,1.0,5.177207,2.9835951,1.5511179
alexnet2023_baseline_pgd,1,398,NaN,elephant,bird,120,0398_ps_dnn_120_bird_10_n02007558_7614.png,n02007558_7614.png,0.0,-0.25599477,2.7125182,-2.0990558
alexnet2023_baseline_pgd,1,399,NaN,knife,keyboard,90,0399_ps_dnn_90_keyboard_10_n03085013_4914.png,n03085013_4914.png,0.0,0.10952023,4.8011713,-3.3174982
alexnet2023_baseline_pgd,1,400,NaN,bird,oven,150,0400_ps_dnn_150_oven_10_n04111531_15296.png,n04111531_15296.png,0.0,-0.55306923,1.3870873,-1.3718979
alexnet2023_baseline_pgd,1,401,NaN,chair,chair,60,0401_ps_dnn_60_chair_10_n04099969_246.png,n04099969_246.png,1.0,3.653207,3.5089548,0.10200178
alexnet2023_baseline_pgd,1,402,NaN,knife,truck,180,0402_ps_dnn_180_truck_10_n04467665_670.png,n04467665_670.png,0.0,-1.7797782,2.8555453,-3.2776687
alexnet2023_baseline_pgd,1,403,NaN,keyboard,keyboard,90,0403_ps_dnn_90_keyboard_10_n03085013_24192.png,n03085013_24192.png,1.0,4.7933273,2.8985846,1.3397855
alexnet2023_baseline_pgd,1,404,NaN,knife,bicycle,150,0404_ps_dnn_150_bicycle_10_n03792782_378.png,n03792782_378.png,0.0,0.36126587,1.1191273,-0.5358889
alexnet2023_baseline_pgd,1,405,NaN,clock,bird,180,0405_ps_dnn_180_bird_10_n02018207_14738.png,n02018207_14738.png,0.0,0.043668065,0.71051437,-0.47153154
alexnet2023_baseline_pgd,1,406,NaN,bicycle,bird,0,0406_ps_dnn_0_bird_10_n01530575_5222.png,n01530575_5222.png,0.0,2.4215837,3.5018349,-0.76385295
alexnet2023_baseline_pgd,1,407,NaN,bear,bear,30,0407_ps_dnn_30_bear_10_n02134084_10766.png,n02134084_10766.png,1.0,7.970322,5.656539,1.6360918
alexnet2023_baseline_pgd,1,408,NaN,elephant,bird,30,0408_ps_dnn_30_bird_10_n02007558_4009.png,n02007558_4009.png,0.0,2.119087,6.1744957,-2.8676069
alexnet2023_baseline_pgd,1,409,NaN,elephant,chair,120,0409_ps_dnn_120_chair_10_n04099969_7545.png,n04099969_7545.png,0.0,-1.7911372,2.9536285,-3.355056
alexnet2023_baseline_pgd,1,410,NaN,bottle,clock,90,0410_ps_dnn_90_clock_10_n03196217_127.png,n03196217_127.png,0.0,2.693491,3.060635,-0.2596101
alexnet2023_baseline_pgd,1,411,NaN,knife,bottle,150,0411_ps_dnn_150_bottle_10_n04560804_26326.png,n04560804_26326.png,0.0,0.5904969,4.2169657,-2.5643005
alexnet2023_baseline_pgd,1,412,NaN,keyboard,keyboard,30,0412_ps_dnn_30_keyboard_10_n03085013_25066.png,n03085013_25066.png,1.0,6.8476896,2.6735134,2.9515884
alexnet2023_baseline_pgd,1,413,NaN,cat,cat,30,0413_ps_dnn_30_cat_10_n02124075_11776.png,n02124075_11776.png,1.0,13.212083,2.4528565,7.6079216
alexnet2023_baseline_pgd,1,414,NaN,oven,keyboard,120,0414_ps_dnn_120_keyboard_10_n04505470_2909.png,n04505470_2909.png,0.0,-0.44168773,3.6942916,-2.924579
alexnet2023_baseline_pgd,1,415,NaN,keyboard,keyboard,30,0415_ps_dnn_30_keyboard_10_n04505470_494.png,n04505470_494.png,1.0,14.020175,4.183695,6.955442
alexnet2023_baseline_pgd,1,416,NaN,elephant,bear,120,0416_ps_dnn_120_bear_10_n02133161_2270.png,n02133161_2270.png,0.0,-0.23570319,2.4469995,-1.8969574
alexnet2023_baseline_pgd,1,417,NaN,knife,chair,120,0417_ps_dnn_120_chair_10_n04099969_13901.png,n04099969_13901.png,0.0,-0.85796505,4.0352545,-3.4600286
alexnet2023_baseline_pgd,1,418,NaN,elephant,car,120,0418_ps_dnn_120_car_10_n02814533_2923.png,n02814533_2923.png,0.0,-1.5775877,3.1193037,-3.3212037
alexnet2023_baseline_pgd,1,419,NaN,bear,bottle,90,0419_ps_dnn_90_bottle_10_n03983396_12757.png,n03983396_12757.png,0.0,1.7874545,3.0618367,-0.90112436
alexnet2023_baseline_pgd,1,420,NaN,knife,knife,30,0420_ps_dnn_30_knife_10_n03041632_15444.png,n03041632_15444.png,1.0,4.7197204,2.9831672,1.2279285
alexnet2023_baseline_pgd,1,421,NaN,elephant,bicycle,180,0421_ps_dnn_180_bicycle_10_n02835271_5554.png,n02835271_5554.png,0.0,0.39106518,1.2984161,-0.64159405
alexnet2023_baseline_pgd,1,422,NaN,clock,knife,150,0422_ps_dnn_150_knife_10_n03041632_37618.png,n03041632_37618.png,0.0,-0.19306159,1.4285787,-1.1466728
alexnet2023_baseline_pgd,1,423,NaN,chair,chair,60,0423_ps_dnn_60_chair_10_n03376595_3910.png,n03376595_3910.png,1.0,6.72297,5.4994226,0.8651787
alexnet2023_baseline_pgd,1,424,NaN,bear,dog,30,0424_ps_dnn_30_dog_10_n02086646_7362.png,n02086646_7362.png,0.0,5.5781536,7.2303023,-1.1682456
alexnet2023_baseline_pgd,1,425,NaN,bear,dog,60,0425_ps_dnn_60_dog_10_n02113712_5829.png,n02113712_5829.png,0.0,0.042901993,3.8048906,-2.6601276
alexnet2023_baseline_pgd,1,426,NaN,knife,truck,180,0426_ps_dnn_180_truck_10_n03417042_1149.png,n03417042_1149.png,0.0,-1.147614,1.3893222,-1.7938849
alexnet2023_baseline_pgd,1,427,NaN,bicycle,bird,60,0427_ps_dnn_60_bird_10_n02002724_3345.png,n02002724_3345.png,0.0,2.4917758,3.9799051,-1.0522664
alexnet2023_baseline_pgd,1,428,NaN,elephant,bird,150,0428_ps_dnn_150_bird_10_n02002556_2917.png,n02002556_2917.png,0.0,0.3022489,1.3863747,-0.7665927
alexnet2023_baseline_pgd,1,429,NaN,elephant,bottle,180,0429_ps_dnn_180_bottle_10_n04560804_3959.png,n04560804_3959.png,0.0,-1.2038857,2.2589684,-2.4486074
alexnet2023_baseline_pgd,1,430,NaN,airplane,airplane,30,0430_ps_dnn_30_airplane_10_n02690373_3639.png,n02690373_3639.png,1.0,17.26531,4.8357797,8.789006
alexnet2023_baseline_pgd,1,431,NaN,cat,bottle,120,0431_ps_dnn_120_bottle_10_n02823428_14453.png,n02823428_14453.png,0.0,0.32238632,2.9769812,-1.8770821
alexnet2023_baseline_pgd,1,432,NaN,bottle,bottle,0,0432_ps_dnn_0_bottle_10_n03937543_3253.png,n03937543_3253.png,1.0,11.340372,3.0964615,5.829325
alexnet2023_baseline_pgd,1,433,NaN,elephant,elephant,30,0433_ps_dnn_30_elephant_10_n02504013_7010.png,n02504013_7010.png,1.0,6.4079466,4.8504095,1.1013451
alexnet2023_baseline_pgd,1,434,NaN,elephant,car,150,0434_ps_dnn_150_car_10_n04285008_8813.png,n04285008_8813.png,0.0,-0.73416024,2.8091145,-2.5054736
alexnet2023_baseline_pgd,1,435,NaN,cat,bear,180,0435_ps_dnn_180_bear_10_n02132136_110.png,n02132136_110.png,0.0,-0.21517165,2.089208,-1.6294423
alexnet2023_baseline_pgd,1,436,NaN,bear,bear,60,0436_ps_dnn_60_bear_10_n02133161_4294.png,n02133161_4294.png,1.0,4.293561,3.4825587,0.5734652
alexnet2023_baseline_pgd,1,437,NaN,car,car,0,0437_ps_dnn_0_car_10_n02814533_95144.png,n02814533_95144.png,1.0,15.938735,11.281099,3.2934458
alexnet2023_baseline_pgd,1,438,NaN,knife,oven,120,0438_ps_dnn_120_oven_10_n04111531_1220.png,n04111531_1220.png,0.0,2.0642083,2.470912,-0.28758296
alexnet2023_baseline_pgd,1,439,NaN,dog,dog,60,0439_ps_dnn_60_dog_10_n02086240_7247.png,n02086240_7247.png,1.0,2.4952633,2.4787822,0.011653941
alexnet2023_baseline_pgd,1,440,NaN,airplane,airplane,0,0440_ps_dnn_0_airplane_10_n02690373_4144.png,n02690373_4144.png,1.0,13.279169,6.951743,4.474166
alexnet2023_baseline_pgd,1,441,NaN,bicycle,oven,120,0441_ps_dnn_120_oven_10_n04111531_986.png,n04111531_986.png,0.0,0.93926704,1.2940316,-0.25085646
alexnet2023_baseline_pgd,1,442,NaN,elephant,elephant,30,0442_ps_dnn_30_elephant_10_n02504458_6336.png,n02504458_6336.png,1.0,6.580121,4.762174,1.2854826
alexnet2023_baseline_pgd,1,443,NaN,knife,knife,150,0443_ps_dnn_150_knife_10_n03041632_14132.png,n03041632_14132.png,1.0,1.9549111,1.7963908,0.11209081
alexnet2023_baseline_pgd,1,444,NaN,knife,cat,150,0444_ps_dnn_150_cat_10_n02123159_799.png,n02123159_799.png,0.0,-0.69890046,1.6472894,-1.6590068
alexnet2023_baseline_pgd,1,445,NaN,elephant,bird,90,0445_ps_dnn_90_bird_10_n02006656_7456.png,n02006656_7456.png,0.0,1.6232191,6.439004,-3.4052742
alexnet2023_baseline_pgd,1,446,NaN,elephant,cat,90,0446_ps_dnn_90_cat_10_n02123045_8722.png,n02123045_8722.png,0.0,2.0806,3.7332292,-1.1685853
alexnet2023_baseline_pgd,1,447,NaN,knife,chair,120,0447_ps_dnn_120_chair_10_n03376595_8302.png,n03376595_8302.png,0.0,-1.9832844,2.5469475,-3.2033577
alexnet2023_baseline_pgd,1,448,NaN,bottle,bottle,30,0448_ps_dnn_30_bottle_10_n04560804_5769.png,n04560804_5769.png,1.0,8.365452,3.3102129,3.5745935
alexnet2023_baseline_pgd,1,449,NaN,bear,car,90,0449_ps_dnn_90_car_10_n04285008_203.png,n04285008_203.png,0.0,-0.4726027,3.6934507,-2.9458447
alexnet2023_baseline_pgd,1,450,NaN,knife,airplane,180,0450_ps_dnn_180_airplane_10_n02690373_9959.png,n02690373_9959.png,0.0,-4.1068354,3.8594723,-5.6330304
alexnet2023_baseline_pgd,1,451,NaN,car,car,0,0451_ps_dnn_0_car_10_n04285008_1867.png,n04285008_1867.png,1.0,20.936998,7.2045174,9.710331
alexnet2023_baseline_pgd,1,452,NaN,boat,airplane,150,0452_ps_dnn_150_airplane_10_n02690373_16250.png,n02690373_16250.png,0.0,-0.19801602,1.4192604,-1.1435871
alexnet2023_baseline_pgd,1,453,NaN,elephant,elephant,30,0453_ps_dnn_30_elephant_10_n02504458_4696.png,n02504458_4696.png,1.0,13.189413,5.544065,5.4060774
alexnet2023_baseline_pgd,1,454,NaN,bicycle,car,60,0454_ps_dnn_60_car_10_n04285008_10755.png,n04285008_10755.png,0.0,1.9516996,5.238537,-2.3241448
alexnet2023_baseline_pgd,1,455,NaN,elephant,boat,150,0455_ps_dnn_150_boat_10_n02951358_11586.png,n02951358_11586.png,0.0,0.30006137,2.0259435,-1.220383
alexnet2023_baseline_pgd,1,456,NaN,bottle,bottle,60,0456_ps_dnn_60_bottle_10_n02823428_4108.png,n02823428_4108.png,1.0,8.906304,4.321625,3.2418578
alexnet2023_baseline_pgd,1,457,NaN,cat,car,180,0457_ps_dnn_180_car_10_n04285008_11770.png,n04285008_11770.png,0.0,-1.4520701,2.4156177,-2.7348683
alexnet2023_baseline_pgd,1,458,NaN,boat,boat,90,0458_ps_dnn_90_boat_10_n04273569_32786.png,n04273569_32786.png,1.0,3.3521113,1.6064947,1.2343374
alexnet2023_baseline_pgd,1,459,NaN,elephant,bear,30,0459_ps_dnn_30_bear_10_n02132136_21267.png,n02132136_21267.png,0.0,6.4042215,9.563478,-2.233932
alexnet2023_baseline_pgd,1,460,NaN,bicycle,car,90,0460_ps_dnn_90_car_10_n03100240_24001.png,n03100240_24001.png,0.0,0.0413083,4.0140195,-2.809131
alexnet2023_baseline_pgd,1,461,NaN,knife,bottle,150,0461_ps_dnn_150_bottle_10_n03937543_71.png,n03937543_71.png,0.0,0.8546872,2.7880692,-1.3671076
alexnet2023_baseline_pgd,1,462,NaN,oven,chair,0,0462_ps_dnn_0_chair_10_n02791124_16127.png,n02791124_16127.png,0.0,4.6945157,4.778119,-0.05911652
alexnet2023_baseline_pgd,1,463,NaN,bird,bird,90,0463_ps_dnn_90_bird_10_n02002724_12183.png,n02002724_12183.png,1.0,3.7222893,3.6196728,0.07256086
alexnet2023_baseline_pgd,1,464,NaN,elephant,dog,30,0464_ps_dnn_30_dog_10_n02108915_1165.png,n02108915_1165.png,0.0,3.4411473,6.1482267,-1.9141942
alexnet2023_baseline_pgd,1,465,NaN,boat,dog,180,0465_ps_dnn_180_dog_10_n02099429_4843.png,n02099429_4843.png,0.0,0.332866,2.6005654,-1.6035057
alexnet2023_baseline_pgd,1,466,NaN,boat,boat,60,0466_ps_dnn_60_boat_10_n03344393_3499.png,n03344393_3499.png,1.0,10.102793,7.2202253,2.038283
alexnet2023_baseline_pgd,1,467,NaN,bicycle,truck,120,0467_ps_dnn_120_truck_10_n03417042_20962.png,n03417042_20962.png,0.0,2.0334704,4.6187077,-1.8280388
alexnet2023_baseline_pgd,1,468,NaN,dog,dog,30,0468_ps_dnn_30_dog_10_n02097047_4189.png,n02097047_4189.png,1.0,3.9660327,2.3326294,1.1549906
alexnet2023_baseline_pgd,1,469,NaN,bicycle,bicycle,60,0469_ps_dnn_60_bicycle_10_n03792782_24591.png,n03792782_24591.png,1.0,14.932595,3.0599952,8.395197
alexnet2023_baseline_pgd,1,470,NaN,airplane,airplane,60,0470_ps_dnn_60_airplane_10_n02690373_243.png,n02690373_243.png,1.0,10.167425,4.2452817,4.1875877
alexnet2023_baseline_pgd,1,471,NaN,bird,boat,90,0471_ps_dnn_90_boat_10_n03344393_3072.png,n03344393_3072.png,0.0,0.94365597,2.8501105,-1.3480669
alexnet2023_baseline_pgd,1,472,NaN,cat,clock,120,0472_ps_dnn_120_clock_10_n02708093_118.png,n02708093_118.png,0.0,1.0206457,1.5379404,-0.36578256
alexnet2023_baseline_pgd,1,473,NaN,bird,bird,30,0473_ps_dnn_30_bird_10_n01843065_2664.png,n01843065_2664.png,1.0,7.0467496,2.155383,3.4587185
alexnet2023_baseline_pgd,1,474,NaN,knife,airplane,150,0474_ps_dnn_150_airplane_10_n02690373_19353.png,n02690373_19353.png,0.0,-1.8302569,3.3325293,-3.6506414
alexnet2023_baseline_pgd,1,475,NaN,elephant,dog,120,0475_ps_dnn_120_dog_10_n02099849_4250.png,n02099849_4250.png,0.0,-0.5354947,1.5726061,-1.4906524
alexnet2023_baseline_pgd,1,476,NaN,bicycle,truck,90,0476_ps_dnn_90_truck_10_n04467665_29260.png,n04467665_29260.png,0.0,0.44826713,2.9787679,-1.7893342
alexnet2023_baseline_pgd,1,477,NaN,elephant,elephant,30,0477_ps_dnn_30_elephant_10_n02504013_8308.png,n02504013_8308.png,1.0,11.840894,8.961172,2.0362706
alexnet2023_baseline_pgd,1,478,NaN,knife,boat,150,0478_ps_dnn_150_boat_10_n03344393_6854.png,n03344393_6854.png,0.0,0.66654116,4.630287,-2.8027918
alexnet2023_baseline_pgd,1,479,NaN,bear,truck,180,0479_ps_dnn_180_truck_10_n04467665_25129.png,n04467665_25129.png,0.0,-2.0030217,3.0450842,-3.5695503
alexnet2023_baseline_pgd,1,480,NaN,bird,bird,30,0480_ps_dnn_30_bird_10_n01824575_6272.png,n01824575_6272.png,1.0,5.1134663,1.8324596,2.320022
alexnet2023_baseline_pgd,1,481,NaN,cat,chair,180,0481_ps_dnn_180_chair_10_n04099969_19484.png,n04099969_19484.png,0.0,-1.5820329,2.2388697,-2.7017863
alexnet2023_baseline_pgd,1,482,NaN,bear,oven,120,0482_ps_dnn_120_oven_10_n04111531_5888.png,n04111531_5888.png,0.0,2.606247,4.0953774,-1.0529743
alexnet2023_baseline_pgd,1,483,NaN,elephant,chair,60,0483_ps_dnn_60_chair_10_n04099969_16266.png,n04099969_16266.png,0.0,4.544069,7.12319,-1.823714
alexnet2023_baseline_pgd,1,484,NaN,knife,truck,150,0484_ps_dnn_150_truck_10_n04467665_68754.png,n04467665_68754.png,0.0,-1.5200144,3.0924072,-3.2614746
alexnet2023_baseline_pgd,1,485,NaN,knife,cat,180,0485_ps_dnn_180_cat_10_n02123394_7859.png,n02123394_7859.png,0.0,-0.15078801,2.8096335,-2.0933342
alexnet2023_baseline_pgd,1,486,NaN,bottle,car,90,0486_ps_dnn_90_car_10_n04285008_17056.png,n04285008_17056.png,0.0,-1.6042318,1.5609041,-2.238089
alexnet2023_baseline_pgd,1,487,NaN,bicycle,cat,120,0487_ps_dnn_120_cat_10_n02123045_12046.png,n02123045_12046.png,0.0,0.6326878,1.5452135,-0.64525306
alexnet2023_baseline_pgd,1,488,NaN,knife,elephant,180,0488_ps_dnn_180_elephant_10_n02504013_3029.png,n02504013_3029.png,0.0,0.99431777,2.4314637,-1.0162157
alexnet2023_baseline_pgd,1,489,NaN,boat,boat,120,0489_ps_dnn_120_boat_10_n03662601_7271.png,n03662601_7271.png,1.0,3.1091785,2.7679584,0.24127908
alexnet2023_baseline_pgd,1,490,NaN,bear,bear,30,0490_ps_dnn_30_bear_10_n02133161_6861.png,n02133161_6861.png,1.0,6.1247067,3.3242404,1.9802288
alexnet2023_baseline_pgd,1,491,NaN,chair,chair,30,0491_ps_dnn_30_chair_10_n02791124_4192.png,n02791124_4192.png,1.0,4.2241488,3.679722,0.3849678
alexnet2023_baseline_pgd,1,492,NaN,boat,boat,60,0492_ps_dnn_60_boat_10_n04273569_1457.png,n04273569_1457.png,1.0,5.3333764,4.235886,0.7760429
alexnet2023_baseline_pgd,1,493,NaN,knife,clock,90,0493_ps_dnn_90_clock_10_n04548280_764.png,n04548280_764.png,0.0,2.8907633,2.9518414,-0.04318872
alexnet2023_baseline_pgd,1,494,NaN,oven,bicycle,120,0494_ps_dnn_120_bicycle_10_n02835271_12346.png,n02835271_12346.png,0.0,1.6433899,1.9693955,-0.23052076
alexnet2023_baseline_pgd,1,495,NaN,clock,bicycle,180,0495_ps_dnn_180_bicycle_10_n03792782_50673.png,n03792782_50673.png,0.0,-0.27007395,0.87642926,-0.81070024
alexnet2023_baseline_pgd,1,496,NaN,knife,truck,120,0496_ps_dnn_120_truck_10_n03796401_9198.png,n03796401_9198.png,0.0,-1.2852689,3.9048722,-3.669984
alexnet2023_baseline_pgd,1,497,NaN,airplane,airplane,0,0497_ps_dnn_0_airplane_10_n02690373_4110.png,n02690373_4110.png,1.0,15.989353,6.4031663,6.778458
alexnet2023_baseline_pgd,1,498,NaN,bear,dog,60,0498_ps_dnn_60_dog_10_n02107683_2484.png,n02107683_2484.png,0.0,4.219113,4.603801,-0.27201542
alexnet2023_baseline_pgd,1,499,NaN,bear,chair,60,0499_ps_dnn_60_chair_10_n02791124_13057.png,n02791124_13057.png,0.0,1.3710601,3.820856,-1.7322674
alexnet2023_baseline_pgd,1,500,NaN,elephant,bear,120,0500_ps_dnn_120_bear_10_n02134418_14451.png,n02134418_14451.png,0.0,-0.07681495,1.3117896,-0.98189175
alexnet2023_baseline_pgd,1,501,NaN,oven,bird,60,0501_ps_dnn_60_bird_10_n01843383_10059.png,n01843383_10059.png,0.0,3.71758,4.264128,-0.3864679
alexnet2023_baseline_pgd,1,502,NaN,bicycle,bicycle,0,0502_ps_dnn_0_bicycle_10_n03792782_11824.png,n03792782_11824.png,1.0,14.565147,2.4314198,8.579842
alexnet2023_baseline_pgd,1,503,NaN,bird,bird,30,0503_ps_dnn_30_bird_10_n01532829_2492.png,n01532829_2492.png,1.0,7.4737716,2.3982327,3.5889478
alexnet2023_baseline_pgd,1,504,NaN,bottle,bottle,0,0504_ps_dnn_0_bottle_10_n04579145_5621.png,n04579145_5621.png,1.0,11.435806,3.4194648,5.6684093
alexnet2023_baseline_pgd,1,505,NaN,knife,truck,150,0505_ps_dnn_150_truck_10_n03417042_6250.png,n03417042_6250.png,0.0,-1.8005953,3.297756,-3.605079
alexnet2023_baseline_pgd,1,506,NaN,elephant,dog,90,0506_ps_dnn_90_dog_10_n02108551_14704.png,n02108551_14704.png,0.0,0.66827786,2.3848708,-1.2138145
alexnet2023_baseline_pgd,1,507,NaN,boat,boat,30,0507_ps_dnn_30_boat_10_n04612504_8407.png,n04612504_8407.png,1.0,10.892937,5.4997888,3.8135316
alexnet2023_baseline_pgd,1,508,NaN,bottle,car,120,0508_ps_dnn_120_car_10_n03100240_14794.png,n03100240_14794.png,0.0,-1.986936,2.3343775,-3.05563
alexnet2023_baseline_pgd,1,509,NaN,oven,dog,60,0509_ps_dnn_60_dog_10_n02097658_759.png,n02097658_759.png,0.0,-0.18815666,5.838683,-4.261619
alexnet2023_baseline_pgd,1,510,NaN,bicycle,oven,90,0510_ps_dnn_90_oven_10_n04111531_5965.png,n04111531_5965.png,0.0,3.1853907,4.1982045,-0.7161675
alexnet2023_baseline_pgd,1,511,NaN,clock,elephant,180,0511_ps_dnn_180_elephant_10_n02504013_6984.png,n02504013_6984.png,0.0,-0.18149684,1.2850219,-1.0369854
alexnet2023_baseline_pgd,1,512,NaN,knife,oven,180,0512_ps_dnn_180_oven_10_n04111531_6695.png,n04111531_6695.png,0.0,2.4853177,4.2293754,-1.233235
alexnet2023_baseline_pgd,1,513,NaN,bicycle,bird,60,0513_ps_dnn_60_bird_10_n02037110_4572.png,n02037110_4572.png,0.0,2.5203855,3.9484315,-1.009781
alexnet2023_baseline_pgd,1,514,NaN,bottle,truck,30,0514_ps_dnn_30_truck_10_n03796401_11628.png,n03796401_11628.png,0.0,2.8475876,4.7634974,-1.3547528
alexnet2023_baseline_pgd,1,515,NaN,knife,chair,180,0515_ps_dnn_180_chair_10_n02791124_1258.png,n02791124_1258.png,0.0,-0.9470593,2.059566,-2.1260052
alexnet2023_baseline_pgd,1,516,NaN,elephant,knife,0,0516_ps_dnn_0_knife_10_n03041632_62810.png,n03041632_62810.png,0.0,4.0489955,7.053853,-2.1247551
alexnet2023_baseline_pgd,1,517,NaN,bear,bird,90,0517_ps_dnn_90_bird_10_n01819313_2770.png,n01819313_2770.png,0.0,1.2327496,2.194517,-0.6800722
alexnet2023_baseline_pgd,1,518,NaN,bicycle,bicycle,60,0518_ps_dnn_60_bicycle_10_n02835271_25519.png,n02835271_25519.png,1.0,10.73446,2.873802,5.5583243
alexnet2023_baseline_pgd,1,519,NaN,boat,boat,0,0519_ps_dnn_0_boat_10_n03662601_23248.png,n03662601_23248.png,1.0,14.113147,7.0967736,4.961325
alexnet2023_baseline_pgd,1,520,NaN,oven,elephant,120,0520_ps_dnn_120_elephant_10_n02504013_1784.png,n02504013_1784.png,0.0,2.5199313,4.615921,-1.4820886
alexnet2023_baseline_pgd,1,521,NaN,knife,cat,150,0521_ps_dnn_150_cat_10_n02123394_270.png,n02123394_270.png,0.0,0.35887966,2.0168488,-1.1723613
alexnet2023_baseline_pgd,1,522,NaN,dog,dog,30,0522_ps_dnn_30_dog_10_n02093647_1022.png,n02093647_1022.png,1.0,11.244864,8.338981,2.0547702
alexnet2023_baseline_pgd,1,523,NaN,boat,boat,30,0523_ps_dnn_30_boat_10_n03662601_4881.png,n03662601_4881.png,1.0,7.229654,4.4530325,1.9633678
alexnet2023_baseline_pgd,1,524,NaN,bear,knife,60,0524_ps_dnn_60_knife_10_n03041632_8321.png,n03041632_8321.png,0.0,0.13667482,3.827098,-2.6095233
alexnet2023_baseline_pgd,1,525,NaN,bicycle,car,120,0525_ps_dnn_120_car_10_n02814533_60400.png,n02814533_60400.png,0.0,-0.5729093,2.1472113,-1.9234158
alexnet2023_baseline_pgd,1,526,NaN,cat,cat,150,0526_ps_dnn_150_cat_10_n02123597_3280.png,n02123597_3280.png,1.0,1.8390564,1.1379873,0.49573073
alexnet2023_baseline_pgd,1,527,NaN,cat,dog,150,0527_ps_dnn_150_dog_10_n02110063_3399.png,n02110063_3399.png,0.0,-0.63299966,1.1767666,-1.279698
alexnet2023_baseline_pgd,1,528,NaN,elephant,bear,0,0528_ps_dnn_0_bear_10_n02132136_3109.png,n02132136_3109.png,0.0,9.257497,11.674641,-1.7091788
alexnet2023_baseline_pgd,1,529,NaN,bear,bear,0,0529_ps_dnn_0_bear_10_n02134084_16632.png,n02134084_16632.png,1.0,14.229458,6.326711,5.5880857
alexnet2023_baseline_pgd,1,530,NaN,bear,bottle,150,0530_ps_dnn_150_bottle_10_n04591713_5851.png,n04591713_5851.png,0.0,-0.2512518,1.6357248,-1.334294
alexnet2023_baseline_pgd,1,531,NaN,knife,knife,0,0531_ps_dnn_0_knife_10_n03041632_29961.png,n03041632_29961.png,1.0,3.9087691,1.7026755,1.5599439
alexnet2023_baseline_pgd,1,532,NaN,knife,knife,30,0532_ps_dnn_30_knife_10_n03041632_10140.png,n03041632_10140.png,1.0,5.164465,1.6358858,2.4950824
alexnet2023_baseline_pgd,1,533,NaN,cat,airplane,180,0533_ps_dnn_180_airplane_10_n02690373_8765.png,n02690373_8765.png,0.0,-3.2258942,1.5515714,-3.3781786
alexnet2023_baseline_pgd,1,534,NaN,bicycle,knife,120,0534_ps_dnn_120_knife_10_n03041632_16826.png,n03041632_16826.png,0.0,0.8587414,2.7905447,-1.3659912
alexnet2023_baseline_pgd,1,535,NaN,chair,chair,30,0535_ps_dnn_30_chair_10_n04429376_21089.png,n04429376_21089.png,1.0,4.9151115,4.883152,0.022598803
alexnet2023_baseline_pgd,1,536,NaN,elephant,bear,60,0536_ps_dnn_60_bear_10_n02134084_15118.png,n02134084_15118.png,0.0,5.506156,5.961982,-0.3223175
alexnet2023_baseline_pgd,1,537,NaN,bicycle,car,120,0537_ps_dnn_120_car_10_n04285008_3884.png,n04285008_3884.png,0.0,-0.11965834,2.4072473,-1.786792
alexnet2023_baseline_pgd,1,538,NaN,boat,boat,150,0538_ps_dnn_150_boat_10_n04273569_1576.png,n04273569_1576.png,1.0,2.0717778,1.5091038,0.39787063
alexnet2023_baseline_pgd,1,539,NaN,bicycle,bicycle,120,0539_ps_dnn_120_bicycle_10_n03792782_4600.png,n03792782_4600.png,1.0,1.8920388,1.4543183,0.30951518
alexnet2023_baseline_pgd,1,540,NaN,clock,clock,30,0540_ps_dnn_30_clock_10_n03196217_4537.png,n03196217_4537.png,1.0,8.231773,5.373512,2.0210962
alexnet2023_baseline_pgd,1,541,NaN,airplane,airplane,60,0541_ps_dnn_60_airplane_10_n02690373_10203.png,n02690373_10203.png,1.0,7.5578423,6.563018,0.7034471
alexnet2023_baseline_pgd,1,542,NaN,truck,truck,30,0542_ps_dnn_30_truck_10_n04467665_48875.png,n04467665_48875.png,1.0,8.711311,5.7133756,2.1198606
alexnet2023_baseline_pgd,1,543,NaN,car,car,60,0543_ps_dnn_60_car_10_n02814533_38071.png,n02814533_38071.png,1.0,4.4191,3.907749,0.3615797
alexnet2023_baseline_pgd,1,544,NaN,elephant,bear,90,0544_ps_dnn_90_bear_10_n02133161_160.png,n02133161_160.png,0.0,0.5430658,2.6305332,-1.4760624
alexnet2023_baseline_pgd,1,545,NaN,boat,car,30,0545_ps_dnn_30_car_10_n02814533_40344.png,n02814533_40344.png,0.0,5.28105,6.560098,-0.90442353
alexnet2023_baseline_pgd,1,546,NaN,knife,oven,180,0546_ps_dnn_180_oven_10_n04111531_9026.png,n04111531_9026.png,0.0,-0.27701753,1.604921,-1.3307315
alexnet2023_baseline_pgd,1,547,NaN,cat,cat,0,0547_ps_dnn_0_cat_10_n02123597_13755.png,n02123597_13755.png,1.0,5.1934915,1.7671027,2.4228227
alexnet2023_baseline_pgd,1,548,NaN,cat,car,150,0548_ps_dnn_150_car_10_n02814533_39485.png,n02814533_39485.png,0.0,-2.9908402,4.3020306,-5.1568384
alexnet2023_baseline_pgd,1,549,NaN,knife,bottle,90,0549_ps_dnn_90_bottle_10_n03937543_4512.png,n03937543_4512.png,0.0,1.0356991,4.6358976,-2.5457249
alexnet2023_baseline_pgd,1,550,NaN,bicycle,cat,120,0550_ps_dnn_120_cat_10_n02124075_2402.png,n02124075_2402.png,0.0,0.44729635,1.0248296,-0.40837768
alexnet2023_baseline_pgd,1,551,NaN,boat,bird,0,0551_ps_dnn_0_bird_10_n02056570_9835.png,n02056570_9835.png,0.0,1.8327947,4.6544957,-1.995244
alexnet2023_baseline_pgd,1,552,NaN,knife,clock,120,0552_ps_dnn_120_clock_10_n04548280_13247.png,n04548280_13247.png,0.0,1.4157743,4.1604543,-1.9407818
alexnet2023_baseline_pgd,1,553,NaN,oven,truck,60,0553_ps_dnn_60_truck_10_n03417042_173.png,n03417042_173.png,0.0,2.849691,3.0689893,-0.15506737
alexnet2023_baseline_pgd,1,554,NaN,elephant,airplane,180,0554_ps_dnn_180_airplane_10_n02690373_1592.png,n02690373_1592.png,0.0,-2.403162,2.4948213,-3.4633975
alexnet2023_baseline_pgd,1,555,NaN,elephant,elephant,0,0555_ps_dnn_0_elephant_10_n02504013_1953.png,n02504013_1953.png,1.0,20.10884,8.009892,8.555248
alexnet2023_baseline_pgd,1,556,NaN,elephant,elephant,150,0556_ps_dnn_150_elephant_10_n02504458_4348.png,n02504458_4348.png,1.0,2.4052515,1.3756678,0.7280256
alexnet2023_baseline_pgd,1,557,NaN,knife,airplane,90,0557_ps_dnn_90_airplane_10_n02690373_1854.png,n02690373_1854.png,0.0,-3.553601,5.2711587,-6.2400475
alexnet2023_baseline_pgd,1,558,NaN,elephant,cat,180,0558_ps_dnn_180_cat_10_n02124075_14363.png,n02124075_14363.png,0.0,-0.45326602,1.458256,-1.3516502
alexnet2023_baseline_pgd,1,559,NaN,bottle,bottle,30,0559_ps_dnn_30_bottle_10_n03983396_3377.png,n03983396_3377.png,1.0,8.751431,3.8615468,3.457671
alexnet2023_baseline_pgd,1,560,NaN,clock,clock,90,0560_ps_dnn_90_clock_10_n04548280_6743.png,n04548280_6743.png,1.0,6.2063994,3.3256576,2.036992
alexnet2023_baseline_pgd,1,561,NaN,boat,clock,30,0561_ps_dnn_30_clock_10_n03196217_8034.png,n03196217_8034.png,0.0,2.0687072,3.4904637,-1.0053337
alexnet2023_baseline_pgd,1,562,NaN,knife,dog,150,0562_ps_dnn_150_dog_10_n02088094_13992.png,n02088094_13992.png,0.0,0.065575086,1.7599156,-1.1980797
alexnet2023_baseline_pgd,1,563,NaN,car,car,30,0563_ps_dnn_30_car_10_n03100240_6216.png,n03100240_6216.png,1.0,9.961769,8.343214,1.1444913
alexnet2023_baseline_pgd,1,564,NaN,chair,oven,30,0564_ps_dnn_30_oven_10_n04111531_2831.png,n04111531_2831.png,0.0,2.86703,4.1864686,-0.93298405
alexnet2023_baseline_pgd,1,565,NaN,knife,knife,0,0565_ps_dnn_0_knife_10_n03041632_927.png,n03041632_927.png,1.0,15.827904,4.5933547,7.9440255
alexnet2023_baseline_pgd,1,566,NaN,elephant,knife,150,0566_ps_dnn_150_knife_10_n03041632_5427.png,n03041632_5427.png,0.0,1.8881944,2.4503584,-0.39750993
alexnet2023_baseline_pgd,1,567,NaN,clock,cat,180,0567_ps_dnn_180_cat_10_n02123045_8690.png,n02123045_8690.png,0.0,-0.5986736,1.2657923,-1.3183764
alexnet2023_baseline_pgd,1,568,NaN,clock,clock,90,0568_ps_dnn_90_clock_10_n02708093_6696.png,n02708093_6696.png,1.0,6.0986176,4.398743,1.2019928
alexnet2023_baseline_pgd,1,569,NaN,airplane,airplane,60,0569_ps_dnn_60_airplane_10_n02690373_7748.png,n02690373_7748.png,1.0,10.15271,7.87951,1.6073952
alexnet2023_baseline_pgd,1,570,NaN,airplane,airplane,0,0570_ps_dnn_0_airplane_10_n02690373_20011.png,n02690373_20011.png,1.0,13.531351,5.8996825,5.3964047
alexnet2023_baseline_pgd,1,571,NaN,knife,boat,150,0571_ps_dnn_150_boat_10_n02951358_16728.png,n02951358_16728.png,0.0,1.1124935,2.5195665,-0.9949509
alexnet2023_baseline_pgd,1,572,NaN,airplane,truck,60,0572_ps_dnn_60_truck_10_n04467665_37833.png,n04467665_37833.png,0.0,4.496063,6.8866067,-1.6903695
alexnet2023_baseline_pgd,1,573,NaN,oven,oven,0,0573_ps_dnn_0_oven_10_n04111531_22886.png,n04111531_22886.png,1.0,6.6058764,5.0723042,1.0843993
alexnet2023_baseline_pgd,1,574,NaN,car,car,30,0574_ps_dnn_30_car_10_n04285008_5959.png,n04285008_5959.png,1.0,14.936386,7.0721345,5.560866
alexnet2023_baseline_pgd,1,575,NaN,elephant,boat,120,0575_ps_dnn_120_boat_10_n04273569_10840.png,n04273569_10840.png,0.0,-0.69474345,1.8523548,-1.8010705
alexnet2023_baseline_pgd,1,576,NaN,knife,clock,180,0576_ps_dnn_180_clock_10_n02708093_1352.png,n02708093_1352.png,0.0,0.74219555,2.731997,-1.4070021
alexnet2023_baseline_pgd,1,577,NaN,bear,oven,120,0577_ps_dnn_120_oven_10_n04111531_1004.png,n04111531_1004.png,0.0,-1.5857869,1.8178605,-2.406742
alexnet2023_baseline_pgd,1,578,NaN,elephant,car,180,0578_ps_dnn_180_car_10_n03100240_4619.png,n03100240_4619.png,0.0,1.0208497,2.5041008,-1.0488169
alexnet2023_baseline_pgd,1,579,NaN,clock,oven,180,0579_ps_dnn_180_oven_10_n04111531_15367.png,n04111531_15367.png,0.0,-1.4641038,0.83099896,-1.6228828
alexnet2023_baseline_pgd,1,580,NaN,oven,oven,30,0580_ps_dnn_30_oven_10_n04111531_6903.png,n04111531_6903.png,1.0,3.692628,2.3579032,0.9437929
alexnet2023_baseline_pgd,1,581,NaN,bear,oven,60,0581_ps_dnn_60_oven_10_n04111531_1662.png,n04111531_1662.png,0.0,2.0734065,3.0724204,-0.7064095
alexnet2023_baseline_pgd,1,582,NaN,keyboard,keyboard,0,0582_ps_dnn_0_keyboard_10_n04505470_1342.png,n04505470_1342.png,1.0,14.680294,3.8643663,7.648016
alexnet2023_baseline_pgd,1,583,NaN,boat,boat,60,0583_ps_dnn_60_boat_10_n02951358_1911.png,n02951358_1911.png,1.0,4.52753,3.0158243,1.0689375
alexnet2023_baseline_pgd,1,584,NaN,bicycle,bicycle,30,0584_ps_dnn_30_bicycle_10_n03792782_42927.png,n03792782_42927.png,1.0,9.759275,3.7345834,4.260101
alexnet2023_baseline_pgd,1,585,NaN,elephant,chair,180,0585_ps_dnn_180_chair_10_n02791124_3994.png,n02791124_3994.png,0.0,-0.7049457,1.8356586,-1.7964784
alexnet2023_baseline_pgd,1,586,NaN,dog,dog,0,0586_ps_dnn_0_dog_10_n02101388_1383.png,n02101388_1383.png,1.0,6.832644,2.5130017,3.0544484
alexnet2023_baseline_pgd,1,587,NaN,bear,bear,30,0587_ps_dnn_30_bear_10_n02132136_9367.png,n02132136_9367.png,1.0,6.0782185,5.564742,0.36308262
alexnet2023_baseline_pgd,1,588,NaN,clock,dog,150,0588_ps_dnn_150_dog_10_n02108915_7875.png,n02108915_7875.png,0.0,-0.35920575,0.9778177,-0.9454184
alexnet2023_baseline_pgd,1,589,NaN,chair,chair,60,0589_ps_dnn_60_chair_10_n02791124_6237.png,n02791124_6237.png,1.0,3.8213491,3.2741637,0.38691851
alexnet2023_baseline_pgd,1,590,NaN,cat,bird,60,0590_ps_dnn_60_bird_10_n01622779_13896.png,n01622779_13896.png,0.0,0.54709935,4.679636,-2.922145
alexnet2023_baseline_pgd,1,591,NaN,elephant,boat,30,0591_ps_dnn_30_boat_10_n04273569_15583.png,n04273569_15583.png,0.0,2.2765348,3.1795368,-0.63851887
alexnet2023_baseline_pgd,1,592,NaN,knife,bottle,0,0592_ps_dnn_0_bottle_10_n03937543_3079.png,n03937543_3079.png,0.0,2.1650755,4.3736567,-1.5617027
alexnet2023_baseline_pgd,1,593,NaN,clock,dog,150,0593_ps_dnn_150_dog_10_n02110063_5687.png,n02110063_5687.png,0.0,0.5483659,1.3554145,-0.57066953
alexnet2023_baseline_pgd,1,594,NaN,truck,truck,30,0594_ps_dnn_30_truck_10_n03417042_6685.png,n03417042_6685.png,1.0,9.128689,4.1019588,3.554435
alexnet2023_baseline_pgd,1,595,NaN,clock,clock,0,0595_ps_dnn_0_clock_10_n02708093_340.png,n02708093_340.png,1.0,12.892014,3.1016982,6.9227986
alexnet2023_baseline_pgd,1,596,NaN,elephant,dog,0,0596_ps_dnn_0_dog_10_n02111129_5463.png,n02111129_5463.png,0.0,10.604132,10.829947,-0.15967587
alexnet2023_baseline_pgd,1,597,NaN,bicycle,bicycle,90,0597_ps_dnn_90_bicycle_10_n03792782_17503.png,n03792782_17503.png,1.0,8.190817,2.1471186,4.27354
alexnet2023_baseline_pgd,1,598,NaN,bicycle,bear,60,0598_ps_dnn_60_bear_10_n02134084_9253.png,n02134084_9253.png,0.0,2.2296007,3.0802348,-0.6014891
alexnet2023_baseline_pgd,1,599,NaN,car,car,30,0599_ps_dnn_30_car_10_n04285008_3688.png,n04285008_3688.png,1.0,8.062693,6.1760306,1.3340715
alexnet2023_baseline_pgd,1,600,NaN,clock,bird,150,0600_ps_dnn_150_bird_10_n01795545_17324.png,n01795545_17324.png,0.0,-0.6551863,1.2639468,-1.3570321
alexnet2023_baseline_pgd,1,601,NaN,boat,boat,30,0601_ps_dnn_30_boat_10_n04273569_16064.png,n04273569_16064.png,1.0,8.832361,4.473713,3.0820298
alexnet2023_baseline_pgd,1,602,NaN,clock,elephant,180,0602_ps_dnn_180_elephant_10_n02504458_4395.png,n02504458_4395.png,0.0,1.0125629,1.1399407,-0.090069756
alexnet2023_baseline_pgd,1,603,NaN,oven,oven,30,0603_ps_dnn_30_oven_10_n04111531_21855.png,n04111531_21855.png,1.0,12.885529,5.1369677,5.47906
alexnet2023_baseline_pgd,1,604,NaN,oven,oven,30,0604_ps_dnn_30_oven_10_n04111531_11225.png,n04111531_11225.png,1.0,10.291231,4.561133,4.051791
alexnet2023_baseline_pgd,1,605,NaN,knife,oven,150,0605_ps_dnn_150_oven_10_n04111531_13486.png,n04111531_13486.png,0.0,1.3837105,3.0407476,-1.1717023
alexnet2023_baseline_pgd,1,606,NaN,chair,chair,0,0606_ps_dnn_0_chair_10_n02791124_1693.png,n02791124_1693.png,1.0,7.063709,5.3034487,1.2446918
alexnet2023_baseline_pgd,1,607,NaN,knife,chair,150,0607_ps_dnn_150_chair_10_n04099969_26462.png,n04099969_26462.png,0.0,-1.8852206,3.230308,-3.617225
alexnet2023_baseline_pgd,1,608,NaN,bear,chair,120,0608_ps_dnn_120_chair_10_n04429376_16869.png,n04429376_16869.png,0.0,-1.5929708,5.33267,-4.8971677
alexnet2023_baseline_pgd,1,609,NaN,knife,bottle,0,0609_ps_dnn_0_bottle_10_n03983396_23471.png,n03983396_23471.png,0.0,1.7741282,5.7373667,-2.8024328
alexnet2023_baseline_pgd,1,610,NaN,bear,bear,0,0610_ps_dnn_0_bear_10_n02134084_5314.png,n02134084_5314.png,1.0,12.057303,6.0513687,4.246837
alexnet2023_baseline_pgd,1,611,NaN,bicycle,elephant,180,0611_ps_dnn_180_elephant_10_n02504458_4564.png,n02504458_4564.png,0.0,1.2811987,1.6975142,-0.29437947
alexnet2023_baseline_pgd,1,612,NaN,elephant,bear,0,0612_ps_dnn_0_bear_10_n02132136_6967.png,n02132136_6967.png,0.0,10.203402,10.573427,-0.26164764
alexnet2023_baseline_pgd,1,613,NaN,cat,cat,0,0613_ps_dnn_0_cat_10_n02123394_6517.png,n02123394_6517.png,1.0,7.581304,2.3451853,3.702495
alexnet2023_baseline_pgd,1,614,NaN,knife,keyboard,150,0614_ps_dnn_150_keyboard_10_n04505470_1076.png,n04505470_1076.png,0.0,2.3228123,2.5143561,-0.13544193
alexnet2023_baseline_pgd,1,615,NaN,cat,knife,180,0615_ps_dnn_180_knife_10_n03041632_5916.png,n03041632_5916.png,0.0,1.5404298,1.8594252,-0.22556378
alexnet2023_baseline_pgd,1,616,NaN,elephant,car,90,0616_ps_dnn_90_car_10_n03100240_4674.png,n03100240_4674.png,0.0,1.426692,4.019137,-1.8331354
alexnet2023_baseline_pgd,1,617,NaN,bottle,bottle,90,0617_ps_dnn_90_bottle_10_n02823428_1602.png,n02823428_1602.png,1.0,5.8815737,4.6291623,0.8855886
alexnet2023_baseline_pgd,1,618,NaN,bird,boat,90,0618_ps_dnn_90_boat_10_n04273569_27343.png,n04273569_27343.png,0.0,2.847033,4.5799627,-1.2253664
alexnet2023_baseline_pgd,1,619,NaN,knife,bottle,120,0619_ps_dnn_120_bottle_10_n04560804_15162.png,n04560804_15162.png,0.0,0.01799862,1.5504845,-1.0836313
alexnet2023_baseline_pgd,1,620,NaN,knife,bottle,120,0620_ps_dnn_120_bottle_10_n03937543_24.png,n03937543_24.png,0.0,0.8807749,2.526157,-1.1634607
alexnet2023_baseline_pgd,1,621,NaN,bird,dog,180,0621_ps_dnn_180_dog_10_n02105162_9615.png,n02105162_9615.png,0.0,-0.25434992,1.6993979,-1.3815084
alexnet2023_baseline_pgd,1,622,NaN,elephant,bird,150,0622_ps_dnn_150_bird_10_n01582220_1150.png,n01582220_1150.png,0.0,0.5383664,1.1722522,-0.44822496
alexnet2023_baseline_pgd,1,623,NaN,knife,clock,180,0623_ps_dnn_180_clock_10_n04548280_4560.png,n04548280_4560.png,0.0,-0.9011917,2.0406046,-2.0801642
alexnet2023_baseline_pgd,1,624,NaN,elephant,bottle,150,0624_ps_dnn_150_bottle_10_n04560804_14605.png,n04560804_14605.png,0.0,-0.4708896,1.9827313,-1.734972
alexnet2023_baseline_pgd,1,625,NaN,chair,chair,0,0625_ps_dnn_0_chair_10_n03376595_262.png,n03376595_262.png,1.0,8.174662,2.0707047,4.3161497
alexnet2023_baseline_pgd,1,626,NaN,elephant,dog,180,0626_ps_dnn_180_dog_10_n02091032_6523.png,n02091032_6523.png,0.0,0.8278107,2.2185316,-0.9833882
alexnet2023_baseline_pgd,1,627,NaN,knife,cat,150,0627_ps_dnn_150_cat_10_n02123159_615.png,n02123159_615.png,0.0,0.8001628,0.91815335,-0.08343192
alexnet2023_baseline_pgd,1,628,NaN,elephant,bottle,180,0628_ps_dnn_180_bottle_10_n04579145_6049.png,n04579145_6049.png,0.0,1.1509073,1.9975728,-0.59868294
alexnet2023_baseline_pgd,1,629,NaN,oven,bottle,90,0629_ps_dnn_90_bottle_10_n02823428_4386.png,n02823428_4386.png,0.0,1.723149,3.5540795,-1.2946634
alexnet2023_baseline_pgd,1,630,NaN,elephant,car,150,0630_ps_dnn_150_car_10_n03100240_4594.png,n03100240_4594.png,0.0,-1.7683191,1.4757843,-2.2939277
alexnet2023_baseline_pgd,1,631,NaN,knife,knife,120,0631_ps_dnn_120_knife_10_n03041632_51581.png,n03041632_51581.png,1.0,3.710448,1.3997514,1.6339092
alexnet2023_baseline_pgd,1,632,NaN,airplane,keyboard,60,0632_ps_dnn_60_keyboard_10_n03085013_15836.png,n03085013_15836.png,0.0,1.5755754,2.1158736,-0.38204855
alexnet2023_baseline_pgd,1,633,NaN,dog,bicycle,180,0633_ps_dnn_180_bicycle_10_n03792782_34197.png,n03792782_34197.png,0.0,0.36740604,2.3585765,-1.4079702
alexnet2023_baseline_pgd,1,634,NaN,elephant,bicycle,180,0634_ps_dnn_180_bicycle_10_n02835271_9314.png,n02835271_9314.png,0.0,-0.9270662,2.686929,-2.5554805
alexnet2023_baseline_pgd,1,635,NaN,knife,oven,150,0635_ps_dnn_150_oven_10_n04111531_5643.png,n04111531_5643.png,0.0,2.3784657,3.8662972,-1.0520558
alexnet2023_baseline_pgd,1,636,NaN,bird,cat,180,0636_ps_dnn_180_cat_10_n02123394_6362.png,n02123394_6362.png,0.0,0.80232817,0.99448377,-0.13587452
alexnet2023_baseline_pgd,1,637,NaN,elephant,elephant,60,0637_ps_dnn_60_elephant_10_n02504458_3614.png,n02504458_3614.png,1.0,15.406449,3.9600298,8.093842
alexnet2023_baseline_pgd,1,638,NaN,knife,chair,180,0638_ps_dnn_180_chair_10_n04099969_6691.png,n04099969_6691.png,0.0,-3.0281732,2.6661885,-4.0265217
alexnet2023_baseline_pgd,1,639,NaN,elephant,dog,60,0639_ps_dnn_60_dog_10_n02104365_1262.png,n02104365_1262.png,0.0,-1.442715,4.314883,-4.071237
alexnet2023_baseline_pgd,1,640,NaN,knife,chair,180,0640_ps_dnn_180_chair_10_n02791124_2611.png,n02791124_2611.png,0.0,-2.7964365,3.040241,-4.1271544
alexnet2023_baseline_pgd,1,641,NaN,bird,bird,90,0641_ps_dnn_90_bird_10_n02027492_211.png,n02027492_211.png,1.0,4.0244627,2.887124,0.8042199
alexnet2023_baseline_pgd,1,642,NaN,knife,keyboard,180,0642_ps_dnn_180_keyboard_10_n03085013_15576.png,n03085013_15576.png,0.0,-3.34098,5.1463795,-6.00147
alexnet2023_baseline_pgd,1,643,NaN,cat,cat,30,0643_ps_dnn_30_cat_10_n02123045_7255.png,n02123045_7255.png,1.0,12.886767,3.8861794,6.3643765
alexnet2023_baseline_pgd,1,644,NaN,bear,chair,60,0644_ps_dnn_60_chair_10_n04099969_16382.png,n04099969_16382.png,0.0,-0.003684163,3.5187988,-2.4907715
alexnet2023_baseline_pgd,1,645,NaN,bear,bear,0,0645_ps_dnn_0_bear_10_n02134418_2324.png,n02134418_2324.png,1.0,13.788979,6.016259,5.496143
alexnet2023_baseline_pgd,1,646,NaN,oven,dog,150,0646_ps_dnn_150_dog_10_n02096585_271.png,n02096585_271.png,0.0,0.1910637,3.0631,-2.0308366
alexnet2023_baseline_pgd,1,647,NaN,knife,oven,150,0647_ps_dnn_150_oven_10_n04111531_4900.png,n04111531_4900.png,0.0,0.6117981,2.4447944,-1.2961242
alexnet2023_baseline_pgd,1,648,NaN,cat,clock,150,0648_ps_dnn_150_clock_10_n04548280_23221.png,n04548280_23221.png,0.0,-0.04491095,2.358767,-1.699657
alexnet2023_baseline_pgd,1,649,NaN,elephant,car,60,0649_ps_dnn_60_car_10_n03100240_7753.png,n03100240_7753.png,0.0,1.4589721,4.437855,-2.1063883
alexnet2023_baseline_pgd,1,650,NaN,cat,bear,180,0650_ps_dnn_180_bear_10_n02134084_1503.png,n02134084_1503.png,0.0,0.045570955,2.64752,-1.8398559
alexnet2023_baseline_pgd,1,651,NaN,oven,keyboard,90,0651_ps_dnn_90_keyboard_10_n04505470_986.png,n04505470_986.png,0.0,-1.8682823,3.80497,-4.0115952
alexnet2023_baseline_pgd,1,652,NaN,knife,truck,180,0652_ps_dnn_180_truck_10_n04467665_23758.png,n04467665_23758.png,0.0,-0.712193,2.22663,-2.0780616
alexnet2023_baseline_pgd,1,653,NaN,bear,chair,120,0653_ps_dnn_120_chair_10_n03376595_4362.png,n03376595_4362.png,0.0,-0.64434785,2.2701468,-2.060859
alexnet2023_baseline_pgd,1,654,NaN,knife,oven,180,0654_ps_dnn_180_oven_10_n04111531_6958.png,n04111531_6958.png,0.0,1.1529548,4.1129327,-2.0930204
alexnet2023_baseline_pgd,1,655,NaN,keyboard,keyboard,30,0655_ps_dnn_30_keyboard_10_n03085013_6166.png,n03085013_6166.png,1.0,8.598549,3.9175668,3.3099542
alexnet2023_baseline_pgd,1,656,NaN,elephant,bicycle,120,0656_ps_dnn_120_bicycle_10_n03792782_20475.png,n03792782_20475.png,0.0,0.8645402,1.0396801,-0.12384262
alexnet2023_baseline_pgd,1,657,NaN,knife,cat,180,0657_ps_dnn_180_cat_10_n02123394_2350.png,n02123394_2350.png,0.0,0.35208872,3.6476777,-2.3303332
alexnet2023_baseline_pgd,1,658,NaN,elephant,elephant,0,0658_ps_dnn_0_elephant_10_n02504458_4316.png,n02504458_4316.png,1.0,27.084791,8.687381,13.008935
alexnet2023_baseline_pgd,1,659,NaN,clock,clock,30,0659_ps_dnn_30_clock_10_n04548280_4390.png,n04548280_4390.png,1.0,16.71216,3.958786,9.017998
alexnet2023_baseline_pgd,1,660,NaN,car,car,60,0660_ps_dnn_60_car_10_n03100240_17421.png,n03100240_17421.png,1.0,5.0597644,3.8936753,0.8245495
alexnet2023_baseline_pgd,1,661,NaN,knife,keyboard,60,0661_ps_dnn_60_keyboard_10_n03085013_30073.png,n03085013_30073.png,0.0,-1.768516,6.893109,-6.124694
alexnet2023_baseline_pgd,1,662,NaN,elephant,knife,90,0662_ps_dnn_90_knife_10_n03041632_89391.png,n03041632_89391.png,0.0,-0.04940562,2.3014417,-1.6623001
alexnet2023_baseline_pgd,1,663,NaN,oven,dog,90,0663_ps_dnn_90_dog_10_n02100877_2341.png,n02100877_2341.png,0.0,0.1968494,1.8330309,-1.1569551
alexnet2023_baseline_pgd,1,664,NaN,knife,boat,180,0664_ps_dnn_180_boat_10_n03344393_7114.png,n03344393_7114.png,0.0,-1.3553369,2.1334276,-2.4669292
alexnet2023_baseline_pgd,1,665,NaN,oven,knife,0,0665_ps_dnn_0_knife_10_n03041632_22051.png,n03041632_22051.png,0.0,1.7240453,4.427459,-1.911602
alexnet2023_baseline_pgd,1,666,NaN,elephant,clock,90,0666_ps_dnn_90_clock_10_n02708093_6850.png,n02708093_6850.png,0.0,0.35806027,2.5564938,-1.5545272
alexnet2023_baseline_pgd,1,667,NaN,oven,knife,60,0667_ps_dnn_60_knife_10_n03041632_15299.png,n03041632_15299.png,0.0,-0.5631688,5.962571,-4.614395
alexnet2023_baseline_pgd,1,668,NaN,keyboard,keyboard,60,0668_ps_dnn_60_keyboard_10_n03085013_21490.png,n03085013_21490.png,1.0,3.0349298,2.485016,0.38884768
alexnet2023_baseline_pgd,1,669,NaN,knife,knife,60,0669_ps_dnn_60_knife_10_n03041632_105081.png,n03041632_105081.png,1.0,6.901479,4.330563,1.817912
alexnet2023_baseline_pgd,1,670,NaN,elephant,elephant,0,0670_ps_dnn_0_elephant_10_n02504013_20805.png,n02504013_20805.png,1.0,18.323267,5.621105,8.981785
