subj,session,trial,rt,object_response,category,condition,imagename,filename,is_correct,targ_act,max_nontarg_act,decision_margin
convnext_large,1,1,NaN,clock,boat,0.7,0001_hp_dnn_0.7_boat_10_n03662601_12531.png,n03662601_12531.png,0.0,-0.07234577,2.7291439,-1.9809523
convnext_large,1,2,NaN,chair,chair,0.7,0002_hp_dnn_0.7_chair_10_n04429376_22819.png,n04429376_22819.png,1.0,4.212592,2.8078983,0.99326855
convnext_large,1,3,NaN,elephant,elephant,0.45,0003_hp_dnn_0.45_elephant_10_n02504458_582.png,n02504458_582.png,1.0,4.782589,2.9330823,1.3077987
convnext_large,1,4,NaN,clock,bicycle,0.7,0004_hp_dnn_0.7_bicycle_10_n03792782_41173.png,n03792782_41173.png,0.0,-0.22550502,1.469235,-1.1983621
convnext_large,1,5,NaN,clock,cat,1.5,0005_hp_dnn_1.5_cat_10_n02123597_7071.png,n02123597_7071.png,0.0,-0.032609213,3.152937,-2.2525213
convnext_large,1,6,NaN,clock,cat,0.4,0006_hp_dnn_0.4_cat_10_n02123394_2386.png,n02123394_2386.png,0.0,0.090373635,3.3448505,-2.3012629
convnext_large,1,7,NaN,oven,oven,inf,0007_hp_dnn_inf_oven_10_n04111531_2201.png,n04111531_2201.png,1.0,8.083076,0.33058193,5.4818406
convnext_large,1,8,NaN,clock,cat,0.45,0008_hp_dnn_0.45_cat_10_n02125311_43276.png,n02125311_43276.png,0.0,0.63997805,3.8960993,-2.3024254
convnext_large,1,9,NaN,clock,dog,0.45,0009_hp_dnn_0.45_dog_10_n02111500_2439.png,n02111500_2439.png,0.0,-0.73017275,3.5687046,-3.0397654
convnext_large,1,10,NaN,clock,bicycle,0.4,0010_hp_dnn_0.4_bicycle_10_n02835271_12599.png,n02835271_12599.png,0.0,1.4714756,2.7597902,-0.910976
convnext_large,1,11,NaN,clock,dog,0.45,0011_hp_dnn_0.45_dog_10_n02096585_391.png,n02096585_391.png,0.0,-0.21986952,2.74425,-2.0959492
convnext_large,1,12,NaN,car,car,0.7,0012_hp_dnn_0.7_car_10_n04285008_12138.png,n04285008_12138.png,1.0,4.2880597,1.4333051,2.0186162
convnext_large,1,13,NaN,car,car,0.7,0013_hp_dnn_0.7_car_10_n02814533_44083.png,n02814533_44083.png,1.0,2.5235877,1.1862367,0.94565
convnext_large,1,14,NaN,oven,oven,inf,0014_hp_dnn_inf_oven_10_n04111531_2447.png,n04111531_2447.png,1.0,8.541974,0.3702894,5.7782536
convnext_large,1,15,NaN,chair,chair,0.55,0015_hp_dnn_0.55_chair_10_n03376595_9524.png,n03376595_9524.png,1.0,3.7435238,2.580855,0.8221311
convnext_large,1,16,NaN,elephant,elephant,0.55,0016_hp_dnn_0.55_elephant_10_n02504458_3092.png,n02504458_3092.png,1.0,4.24934,2.26592,1.4024899
convnext_large,1,17,NaN,truck,truck,0.4,0017_hp_dnn_0.4_truck_10_n04467665_42126.png,n04467665_42126.png,1.0,2.0114222,1.7873873,0.1584166
convnext_large,1,18,NaN,elephant,elephant,inf,0018_hp_dnn_inf_elephant_10_n02504458_12303.png,n02504458_12303.png,1.0,6.2221117,0.23744534,4.231798
convnext_large,1,19,NaN,clock,clock,0.4,0019_hp_dnn_0.4_clock_10_n04548280_7243.png,n04548280_7243.png,1.0,5.858572,0.38164687,3.8727708
convnext_large,1,20,NaN,airplane,airplane,0.4,0020_hp_dnn_0.4_airplane_10_n02690373_6978.png,n02690373_6978.png,1.0,3.9217262,2.7938757,0.7975108
convnext_large,1,21,NaN,boat,boat,3,0021_hp_dnn_3_boat_10_n04612504_4773.png,n04612504_4773.png,1.0,2.4868045,0.4885993,1.4129444
convnext_large,1,22,NaN,bottle,bottle,inf,0022_hp_dnn_inf_bottle_10_n04560804_5979.png,n04560804_5979.png,1.0,1.068802,0.3596664,0.5014346
convnext_large,1,23,NaN,airplane,airplane,3,0023_hp_dnn_3_airplane_10_n02690373_21922.png,n02690373_21922.png,1.0,8.328591,0.38904098,5.61411
convnext_large,1,24,NaN,clock,bird,0.4,0024_hp_dnn_0.4_bird_10_n01820546_6431.png,n01820546_6431.png,0.0,-0.88781714,2.6412354,-2.4954169
convnext_large,1,25,NaN,bird,bird,inf,0025_hp_dnn_inf_bird_10_n01795545_9555.png,n01795545_9555.png,1.0,1.1869786,0.59131396,0.4211985
convnext_large,1,26,NaN,truck,truck,3,0026_hp_dnn_3_truck_10_n04467665_45796.png,n04467665_45796.png,1.0,3.724514,0.675998,2.1556263
convnext_large,1,27,NaN,chair,oven,1,0027_hp_dnn_1_oven_10_n04111531_5906.png,n04111531_5906.png,0.0,-0.26165608,1.5659974,-1.2923461
convnext_large,1,28,NaN,clock,bicycle,0.45,0028_hp_dnn_0.45_bicycle_10_n03792782_6133.png,n03792782_6133.png,0.0,-0.36853477,3.8137913,-2.957351
convnext_large,1,29,NaN,keyboard,keyboard,1,0029_hp_dnn_1_keyboard_10_n04505470_4741.png,n04505470_4741.png,1.0,5.1862926,0.71642315,3.1606753
convnext_large,1,30,NaN,car,car,1.5,0030_hp_dnn_1.5_car_10_n02814533_5085.png,n02814533_5085.png,1.0,3.9752054,1.8090079,1.531733
convnext_large,1,31,NaN,clock,chair,0.4,0031_hp_dnn_0.4_chair_10_n04429376_10628.png,n04429376_10628.png,0.0,1.0800962,4.5032077,-2.4205053
convnext_large,1,32,NaN,clock,clock,0.55,0032_hp_dnn_0.55_clock_10_n02708093_5311.png,n02708093_5311.png,1.0,5.058211,0.99863714,2.870552
convnext_large,1,33,NaN,chair,chair,0.55,0033_hp_dnn_0.55_chair_10_n03376595_10460.png,n03376595_10460.png,1.0,2.4853184,1.1154919,0.9686137
convnext_large,1,34,NaN,bear,bear,3,0034_hp_dnn_3_bear_10_n02133161_1118.png,n02133161_1118.png,1.0,5.1030574,0.8854729,2.9822826
convnext_large,1,35,NaN,knife,knife,3,0035_hp_dnn_3_knife_10_n03041632_11603.png,n03041632_11603.png,1.0,7.3693085,0.28847215,5.0069075
convnext_large,1,36,NaN,clock,dog,0.4,0036_hp_dnn_0.4_dog_10_n02108422_7493.png,n02108422_7493.png,0.0,-1.1362103,4.0593305,-3.6738024
convnext_large,1,37,NaN,keyboard,keyboard,3,0037_hp_dnn_3_keyboard_10_n04505470_550.png,n04505470_550.png,1.0,7.099324,0.48972225,4.6736946
convnext_large,1,38,NaN,clock,dog,1.5,0038_hp_dnn_1.5_dog_10_n02097047_1003.png,n02097047_1003.png,0.0,-0.49859616,2.060239,-1.8093698
convnext_large,1,39,NaN,bird,bird,1.5,0039_hp_dnn_1.5_bird_10_n01616318_9819.png,n01616318_9819.png,1.0,0.8678482,0.49237394,0.2655004
convnext_large,1,40,NaN,clock,cat,0.55,0040_hp_dnn_0.55_cat_10_n02123597_1016.png,n02123597_1016.png,0.0,0.15388583,3.6190555,-2.450245
convnext_large,1,41,NaN,clock,bear,1,0041_hp_dnn_1_bear_10_n02134418_971.png,n02134418_971.png,0.0,-0.31850225,2.038812,-1.6668729
convnext_large,1,42,NaN,clock,bear,0.7,0042_hp_dnn_0.7_bear_10_n02132136_10944.png,n02132136_10944.png,0.0,1.6206291,2.347685,-0.5141063
convnext_large,1,43,NaN,clock,elephant,1,0043_hp_dnn_1_elephant_10_n02504458_4439.png,n02504458_4439.png,0.0,-0.249742,1.8130865,-1.4586401
convnext_large,1,44,NaN,keyboard,keyboard,0.4,0044_hp_dnn_0.4_keyboard_10_n03085013_2362.png,n03085013_2362.png,1.0,6.6384544,2.632754,2.8324578
convnext_large,1,45,NaN,clock,dog,1.5,0045_hp_dnn_1.5_dog_10_n02097474_9488.png,n02097474_9488.png,0.0,-0.65668863,3.6148202,-3.020413
convnext_large,1,46,NaN,clock,clock,inf,0046_hp_dnn_inf_clock_10_n04548280_3308.png,n04548280_3308.png,1.0,5.314535,0.38904405,3.4828484
convnext_large,1,47,NaN,clock,bear,1.5,0047_hp_dnn_1.5_bear_10_n02133161_334.png,n02133161_334.png,0.0,1.59633,2.1879318,-0.4183256
convnext_large,1,48,NaN,clock,knife,0.45,0048_hp_dnn_0.45_knife_10_n03041632_6708.png,n03041632_6708.png,0.0,1.6197248,3.4636385,-1.303844
convnext_large,1,49,NaN,clock,car,0.55,0049_hp_dnn_0.55_car_10_n02814533_81092.png,n02814533_81092.png,0.0,0.48623967,2.2232487,-1.2282509
convnext_large,1,50,NaN,bottle,bottle,0.45,0050_hp_dnn_0.45_bottle_10_n03937543_11897.png,n03937543_11897.png,1.0,4.0571814,1.7187122,1.6535473
convnext_large,1,51,NaN,airplane,airplane,3,0051_hp_dnn_3_airplane_10_n02690373_4429.png,n02690373_4429.png,1.0,8.428125,1.3532864,5.002667
convnext_large,1,52,NaN,clock,knife,0.4,0052_hp_dnn_0.4_knife_10_n03041632_22964.png,n03041632_22964.png,0.0,0.6093632,2.5508301,-1.3728244
convnext_large,1,53,NaN,clock,knife,1.5,0053_hp_dnn_1.5_knife_10_n03041632_33075.png,n03041632_33075.png,0.0,0.2648674,2.5010166,-1.5811964
convnext_large,1,54,NaN,clock,bird,0.7,0054_hp_dnn_0.7_bird_10_n02006656_1412.png,n02006656_1412.png,0.0,0.654011,2.8150997,-1.5281205
convnext_large,1,55,NaN,clock,clock,1,0055_hp_dnn_1_clock_10_n02708093_3173.png,n02708093_3173.png,1.0,5.5574036,0.29727358,3.7194736
convnext_large,1,56,NaN,clock,keyboard,0.45,0056_hp_dnn_0.45_keyboard_10_n03085013_22016.png,n03085013_22016.png,0.0,2.8972368,3.995868,-0.77684957
convnext_large,1,57,NaN,clock,elephant,0.55,0057_hp_dnn_0.55_elephant_10_n02504458_11214.png,n02504458_11214.png,0.0,-0.59069365,3.8202503,-3.1190085
convnext_large,1,58,NaN,clock,chair,0.7,0058_hp_dnn_0.7_chair_10_n04099969_13775.png,n04099969_13775.png,0.0,2.4147532,2.5947042,-0.12724455
convnext_large,1,59,NaN,clock,bicycle,0.4,0059_hp_dnn_0.4_bicycle_10_n02835271_8098.png,n02835271_8098.png,0.0,0.9758549,2.9565651,-1.4005737
convnext_large,1,60,NaN,clock,clock,0.4,0060_hp_dnn_0.4_clock_10_n04548280_1126.png,n04548280_1126.png,1.0,5.5959964,0.1369279,3.8601444
convnext_large,1,61,NaN,bicycle,bicycle,0.45,0061_hp_dnn_0.45_bicycle_10_n02835271_2050.png,n02835271_2050.png,1.0,2.3877482,2.1731684,0.15173085
convnext_large,1,62,NaN,oven,oven,1,0062_hp_dnn_1_oven_10_n04111531_891.png,n04111531_891.png,1.0,1.851745,1.2250144,0.44316545
convnext_large,1,63,NaN,bottle,bottle,0.7,0063_hp_dnn_0.7_bottle_10_n02823428_6201.png,n02823428_6201.png,1.0,3.5285342,2.2571146,0.8990294
convnext_large,1,64,NaN,bicycle,bicycle,0.7,0064_hp_dnn_0.7_bicycle_10_n02835271_20175.png,n02835271_20175.png,1.0,4.7793946,1.031818,2.649937
convnext_large,1,65,NaN,clock,cat,3,0065_hp_dnn_3_cat_10_n02123597_13175.png,n02123597_13175.png,0.0,0.1630053,1.2952538,-0.80062056
convnext_large,1,66,NaN,clock,dog,0.4,0066_hp_dnn_0.4_dog_10_n02085936_4391.png,n02085936_4391.png,0.0,-0.81654733,4.0502615,-3.4413536
convnext_large,1,67,NaN,airplane,airplane,1.5,0067_hp_dnn_1.5_airplane_10_n02690373_8846.png,n02690373_8846.png,1.0,7.4949093,1.1760676,4.4680963
convnext_large,1,68,NaN,cat,cat,1.5,0068_hp_dnn_1.5_cat_10_n02123597_10301.png,n02123597_10301.png,1.0,3.759383,2.8537877,0.6403526
convnext_large,1,69,NaN,elephant,elephant,0.7,0069_hp_dnn_0.7_elephant_10_n02504458_6135.png,n02504458_6135.png,1.0,5.7765207,1.7722877,2.8314202
convnext_large,1,70,NaN,clock,keyboard,0.45,0070_hp_dnn_0.45_keyboard_10_n03085013_22585.png,n03085013_22585.png,0.0,0.53712827,3.341833,-1.983226
convnext_large,1,71,NaN,clock,bird,1,0071_hp_dnn_1_bird_10_n02017213_1150.png,n02017213_1150.png,0.0,-0.7001753,2.9268978,-2.564728
convnext_large,1,72,NaN,bottle,bottle,3,0072_hp_dnn_3_bottle_10_n04560804_30885.png,n04560804_30885.png,1.0,2.8785686,0.668748,1.5625793
convnext_large,1,73,NaN,bicycle,bicycle,inf,0073_hp_dnn_inf_bicycle_10_n02835271_9191.png,n02835271_9191.png,1.0,5.2157016,0.59816307,3.2650928
convnext_large,1,74,NaN,truck,truck,inf,0074_hp_dnn_inf_truck_10_n03796401_7699.png,n03796401_7699.png,1.0,1.0956018,0.6800651,0.29382882
convnext_large,1,75,NaN,knife,knife,1.5,0075_hp_dnn_1.5_knife_10_n03041632_50332.png,n03041632_50332.png,1.0,6.007763,1.9876314,2.8426623
convnext_large,1,76,NaN,clock,knife,0.55,0076_hp_dnn_0.55_knife_10_n03041632_36247.png,n03041632_36247.png,0.0,0.5659948,3.3283443,-1.9532762
convnext_large,1,77,NaN,clock,knife,1.5,0077_hp_dnn_1.5_knife_10_n03041632_23667.png,n03041632_23667.png,0.0,1.940515,2.5598133,-0.43791
convnext_large,1,78,NaN,bear,dog,3,0078_hp_dnn_3_dog_10_n02102973_7028.png,n02102973_7028.png,0.0,0.76397467,2.5629504,-1.2720679
convnext_large,1,79,NaN,clock,oven,0.55,0079_hp_dnn_0.55_oven_10_n04111531_9867.png,n04111531_9867.png,0.0,-0.11364615,1.7804132,-1.3393022
convnext_large,1,80,NaN,car,car,0.55,0080_hp_dnn_0.55_car_10_n02814533_8121.png,n02814533_8121.png,1.0,3.300644,1.8163115,1.0495815
convnext_large,1,81,NaN,clock,boat,0.55,0081_hp_dnn_0.55_boat_10_n03662601_5210.png,n03662601_5210.png,0.0,1.4086208,2.0231268,-0.43452138
convnext_large,1,82,NaN,car,car,1.5,0082_hp_dnn_1.5_car_10_n03100240_6192.png,n03100240_6192.png,1.0,5.6548142,1.9309845,2.6331453
convnext_large,1,83,NaN,clock,oven,0.45,0083_hp_dnn_0.45_oven_10_n04111531_9314.png,n04111531_9314.png,0.0,-0.23140872,2.9957857,-2.281971
convnext_large,1,84,NaN,cat,cat,0.4,0084_hp_dnn_0.4_cat_10_n02123045_5189.png,n02123045_5189.png,1.0,3.5255759,3.4012973,0.087878205
convnext_large,1,85,NaN,knife,truck,0.7,0085_hp_dnn_0.7_truck_10_n04467665_30189.png,n04467665_30189.png,0.0,0.919282,1.6977886,-0.5504873
convnext_large,1,86,NaN,airplane,airplane,1.5,0086_hp_dnn_1.5_airplane_10_n02690373_3377.png,n02690373_3377.png,1.0,7.8681116,0.5742562,5.157535
convnext_large,1,87,NaN,clock,oven,0.4,0087_hp_dnn_0.4_oven_10_n04111531_1750.png,n04111531_1750.png,0.0,0.347342,4.4273057,-2.88497
convnext_large,1,88,NaN,clock,dog,inf,0088_hp_dnn_inf_dog_10_n02097047_2877.png,n02097047_2877.png,0.0,0.17560373,0.32536206,-0.10589513
convnext_large,1,89,NaN,cat,cat,inf,0089_hp_dnn_inf_cat_10_n02124075_15171.png,n02124075_15171.png,1.0,4.9237075,0.27505177,3.2870963
convnext_large,1,90,NaN,bottle,car,0.4,0090_hp_dnn_0.4_car_10_n03100240_23060.png,n03100240_23060.png,0.0,0.89471215,1.8795469,-0.69638336
convnext_large,1,91,NaN,knife,knife,inf,0091_hp_dnn_inf_knife_10_n03041632_20595.png,n03041632_20595.png,1.0,5.867475,0.7953683,3.5865211
convnext_large,1,92,NaN,clock,knife,0.45,0092_hp_dnn_0.45_knife_10_n03041632_2184.png,n03041632_2184.png,0.0,1.1364366,1.8923817,-0.5345339
convnext_large,1,93,NaN,clock,knife,0.4,0093_hp_dnn_0.4_knife_10_n03041632_42162.png,n03041632_42162.png,0.0,3.3705895,3.6241095,-0.17926572
convnext_large,1,94,NaN,clock,elephant,1,0094_hp_dnn_1_elephant_10_n02504458_3535.png,n02504458_3535.png,0.0,-0.65384316,1.7361656,-1.6899916
convnext_large,1,95,NaN,cat,bird,inf,0095_hp_dnn_inf_bird_10_n02056570_11311.png,n02056570_11311.png,0.0,0.055284403,0.15909739,-0.07340687
convnext_large,1,96,NaN,clock,chair,0.4,0096_hp_dnn_0.4_chair_10_n03376595_4121.png,n03376595_4121.png,0.0,1.4980793,3.8284914,-1.6478503
convnext_large,1,97,NaN,boat,dog,1,0097_hp_dnn_1_dog_10_n02086240_3572.png,n02086240_3572.png,0.0,0.914388,1.3932369,-0.3385973
convnext_large,1,98,NaN,elephant,elephant,inf,0098_hp_dnn_inf_elephant_10_n02504013_4523.png,n02504013_4523.png,1.0,6.6896687,0.24009445,4.560538
convnext_large,1,99,NaN,chair,chair,inf,0099_hp_dnn_inf_chair_10_n04429376_7902.png,n04429376_7902.png,1.0,3.1259108,0.5920998,1.7916751
convnext_large,1,100,NaN,clock,bird,0.45,0100_hp_dnn_0.45_bird_10_n01530575_14402.png,n01530575_14402.png,0.0,-0.7576076,3.3111732,-2.8770626
convnext_large,1,101,NaN,bottle,bottle,0.55,0101_hp_dnn_0.55_bottle_10_n02823428_11140.png,n02823428_11140.png,1.0,3.1771376,1.7052789,1.0407614
convnext_large,1,102,NaN,clock,airplane,0.55,0102_hp_dnn_0.55_airplane_10_n02690373_7685.png,n02690373_7685.png,0.0,0.61469847,3.2283812,-1.8481529
convnext_large,1,103,NaN,clock,boat,0.45,0103_hp_dnn_0.45_boat_10_n03344393_4827.png,n03344393_4827.png,0.0,-0.25340104,3.3785112,-2.5681498
convnext_large,1,104,NaN,clock,dog,0.7,0104_hp_dnn_0.7_dog_10_n02088364_8674.png,n02088364_8674.png,0.0,-0.9378919,2.0797184,-2.1337729
convnext_large,1,105,NaN,clock,knife,0.45,0105_hp_dnn_0.45_knife_10_n03041632_32004.png,n03041632_32004.png,0.0,1.5868016,3.9810162,-1.6929654
convnext_large,1,106,NaN,keyboard,keyboard,3,0106_hp_dnn_3_keyboard_10_n03085013_22949.png,n03085013_22949.png,1.0,4.7005396,1.1145241,2.5356958
convnext_large,1,107,NaN,clock,knife,0.7,0107_hp_dnn_0.7_knife_10_n03041632_4044.png,n03041632_4044.png,0.0,1.338064,3.0822299,-1.2333115
convnext_large,1,108,NaN,airplane,airplane,1.5,0108_hp_dnn_1.5_airplane_10_n02690373_6455.png,n02690373_6455.png,1.0,7.354268,1.0010284,4.492419
convnext_large,1,109,NaN,clock,airplane,0.55,0109_hp_dnn_0.55_airplane_10_n02690373_19646.png,n02690373_19646.png,0.0,1.4962463,3.194809,-1.2010652
convnext_large,1,110,NaN,boat,boat,inf,0110_hp_dnn_inf_boat_10_n04612504_1692.png,n04612504_1692.png,1.0,2.2071567,0.22820193,1.3993324
convnext_large,1,111,NaN,clock,cat,0.55,0111_hp_dnn_0.55_cat_10_n02124075_853.png,n02124075_853.png,0.0,2.01915,3.1189327,-0.7776638
convnext_large,1,112,NaN,clock,boat,1,0112_hp_dnn_1_boat_10_n04273569_6071.png,n04273569_6071.png,0.0,0.15352948,2.016874,-1.3175836
convnext_large,1,113,NaN,bicycle,bird,1.5,0113_hp_dnn_1.5_bird_10_n01616318_1214.png,n01616318_1214.png,0.0,0.31055048,1.7532444,-1.0201387
convnext_large,1,114,NaN,car,car,1.5,0114_hp_dnn_1.5_car_10_n02814533_14627.png,n02814533_14627.png,1.0,2.413256,1.2665595,0.81083685
convnext_large,1,115,NaN,clock,keyboard,0.7,0115_hp_dnn_0.7_keyboard_10_n03085013_1483.png,n03085013_1483.png,0.0,1.153332,3.8482144,-1.9055697
convnext_large,1,116,NaN,airplane,airplane,0.55,0116_hp_dnn_0.55_airplane_10_n02690373_7401.png,n02690373_7401.png,1.0,3.9590297,3.0294154,0.6573366
convnext_large,1,117,NaN,keyboard,keyboard,0.55,0117_hp_dnn_0.55_keyboard_10_n03085013_6963.png,n03085013_6963.png,1.0,3.6209893,2.4925587,0.79792094
convnext_large,1,118,NaN,knife,knife,3,0118_hp_dnn_3_knife_10_n03041632_1407.png,n03041632_1407.png,1.0,2.093254,1.0386181,0.7457403
convnext_large,1,119,NaN,elephant,elephant,1.5,0119_hp_dnn_1.5_elephant_10_n02504458_5137.png,n02504458_5137.png,1.0,4.31268,1.4633684,2.0147674
convnext_large,1,120,NaN,clock,clock,inf,0120_hp_dnn_inf_clock_10_n02708093_6635.png,n02708093_6635.png,1.0,5.254627,1.5429521,2.6245508
convnext_large,1,121,NaN,clock,oven,0.4,0121_hp_dnn_0.4_oven_10_n04111531_5927.png,n04111531_5927.png,0.0,-1.0386246,4.224211,-3.7213871
convnext_large,1,122,NaN,clock,clock,inf,0122_hp_dnn_inf_clock_10_n02708093_2043.png,n02708093_2043.png,1.0,4.9431787,0.7474232,2.9668472
convnext_large,1,123,NaN,airplane,airplane,0.4,0123_hp_dnn_0.4_airplane_10_n02690373_7300.png,n02690373_7300.png,1.0,4.6167994,2.0423224,1.8204302
convnext_large,1,124,NaN,clock,oven,0.55,0124_hp_dnn_0.55_oven_10_n04111531_190.png,n04111531_190.png,0.0,2.22584,2.620106,-0.2787881
convnext_large,1,125,NaN,bottle,dog,3,0125_hp_dnn_3_dog_10_n02091244_8497.png,n02091244_8497.png,0.0,0.33607167,0.47922325,-0.101223454
convnext_large,1,126,NaN,clock,bicycle,0.7,0126_hp_dnn_0.7_bicycle_10_n03792782_15932.png,n03792782_15932.png,0.0,-0.53825533,3.0790958,-2.5578535
convnext_large,1,127,NaN,clock,bear,0.4,0127_hp_dnn_0.4_bear_10_n02133161_463.png,n02133161_463.png,0.0,-0.5676713,3.9760177,-3.2128732
convnext_large,1,128,NaN,cat,cat,0.7,0128_hp_dnn_0.7_cat_10_n02123045_11126.png,n02123045_11126.png,1.0,2.4854977,1.9104799,0.406599
convnext_large,1,129,NaN,clock,clock,0.7,0129_hp_dnn_0.7_clock_10_n04548280_8646.png,n04548280_8646.png,1.0,3.3593063,1.5978659,1.2455264
convnext_large,1,130,NaN,clock,bottle,0.55,0130_hp_dnn_0.55_bottle_10_n03983396_11597.png,n03983396_11597.png,0.0,0.8041711,3.5954533,-1.9737346
convnext_large,1,131,NaN,truck,truck,3,0131_hp_dnn_3_truck_10_n03417042_212.png,n03417042_212.png,1.0,2.1261606,0.7706895,0.95846283
convnext_large,1,132,NaN,keyboard,keyboard,1,0132_hp_dnn_1_keyboard_10_n04505470_1724.png,n04505470_1724.png,1.0,5.3270826,0.60392493,3.339777
convnext_large,1,133,NaN,chair,chair,1,0133_hp_dnn_1_chair_10_n04099969_14028.png,n04099969_14028.png,1.0,3.3770375,2.3194277,0.7478431
convnext_large,1,134,NaN,clock,cat,0.45,0134_hp_dnn_0.45_cat_10_n02124075_2138.png,n02124075_2138.png,0.0,0.9208312,3.362031,-1.7261889
convnext_large,1,135,NaN,boat,boat,inf,0135_hp_dnn_inf_boat_10_n03662601_3145.png,n03662601_3145.png,1.0,1.7303934,1.4168917,0.2216792
convnext_large,1,136,NaN,cat,cat,3,0136_hp_dnn_3_cat_10_n02123045_1120.png,n02123045_1120.png,1.0,2.5750213,0.61202806,1.3880458
convnext_large,1,137,NaN,boat,boat,inf,0137_hp_dnn_inf_boat_10_n04612504_31305.png,n04612504_31305.png,1.0,2.2613118,0.4085,1.3101358
convnext_large,1,138,NaN,clock,chair,1,0138_hp_dnn_1_chair_10_n04099969_4275.png,n04099969_4275.png,0.0,1.3605437,3.1888726,-1.2928238
convnext_large,1,139,NaN,clock,keyboard,0.4,0139_hp_dnn_0.4_keyboard_10_n03085013_23005.png,n03085013_23005.png,0.0,1.0767275,3.6732504,-1.8360189
convnext_large,1,140,NaN,airplane,airplane,1,0140_hp_dnn_1_airplane_10_n02690373_9618.png,n02690373_9618.png,1.0,3.0752351,1.4171828,1.17242
convnext_large,1,141,NaN,knife,knife,0.55,0141_hp_dnn_0.55_knife_10_n03041632_17338.png,n03041632_17338.png,1.0,7.0005403,1.8802613,3.620584
convnext_large,1,142,NaN,clock,clock,0.45,0142_hp_dnn_0.45_clock_10_n04548280_8225.png,n04548280_8225.png,1.0,3.4219306,2.1971714,0.86603546
convnext_large,1,143,NaN,car,car,inf,0143_hp_dnn_inf_car_10_n03100240_8907.png,n03100240_8907.png,1.0,6.170302,0.25643444,4.181736
convnext_large,1,144,NaN,chair,chair,1.5,0144_hp_dnn_1.5_chair_10_n03376595_6865.png,n03376595_6865.png,1.0,2.629715,0.94407296,1.1919289
convnext_large,1,145,NaN,clock,bicycle,0.45,0145_hp_dnn_0.45_bicycle_10_n03792782_44296.png,n03792782_44296.png,0.0,-0.24197476,3.5734904,-2.6979413
convnext_large,1,146,NaN,truck,boat,1.5,0146_hp_dnn_1.5_boat_10_n04273569_1233.png,n04273569_1233.png,0.0,1.4040463,1.5747502,-0.12070588
convnext_large,1,147,NaN,clock,bird,1,0147_hp_dnn_1_bird_10_n01824575_12784.png,n01824575_12784.png,0.0,-1.0250283,2.947601,-2.8090734
convnext_large,1,148,NaN,boat,boat,3,0148_hp_dnn_3_boat_10_n03344393_408.png,n03344393_408.png,1.0,3.6396384,1.2484438,1.69083
convnext_large,1,149,NaN,airplane,airplane,1,0149_hp_dnn_1_airplane_10_n02690373_220.png,n02690373_220.png,1.0,6.990508,1.1389152,4.137701
convnext_large,1,150,NaN,chair,chair,3,0150_hp_dnn_3_chair_10_n04429376_10546.png,n04429376_10546.png,1.0,2.8182564,0.5894605,1.5759968
convnext_large,1,151,NaN,oven,oven,0.7,0151_hp_dnn_0.7_oven_10_n04111531_4749.png,n04111531_4749.png,1.0,2.8167255,0.8387191,1.3986617
convnext_large,1,152,NaN,truck,truck,0.4,0152_hp_dnn_0.4_truck_10_n03417042_18124.png,n03417042_18124.png,1.0,3.1504862,1.9549537,0.8453692
convnext_large,1,153,NaN,clock,clock,3,0153_hp_dnn_3_clock_10_n03196217_7353.png,n03196217_7353.png,1.0,3.633216,1.9570864,1.1852025
convnext_large,1,154,NaN,clock,dog,0.7,0154_hp_dnn_0.7_dog_10_n02098286_2699.png,n02098286_2699.png,0.0,-0.700815,3.5401516,-2.9988165
convnext_large,1,155,NaN,clock,truck,0.4,0155_hp_dnn_0.4_truck_10_n03796401_3651.png,n03796401_3651.png,0.0,1.8187103,3.280819,-1.0338669
convnext_large,1,156,NaN,knife,bottle,0.4,0156_hp_dnn_0.4_bottle_10_n03983396_4165.png,n03983396_4165.png,0.0,0.062046733,2.2396674,-1.5398103
convnext_large,1,157,NaN,clock,knife,1,0157_hp_dnn_1_knife_10_n03041632_25257.png,n03041632_25257.png,0.0,0.7658907,1.5849677,-0.57917494
convnext_large,1,158,NaN,chair,chair,3,0158_hp_dnn_3_chair_10_n04099969_1229.png,n04099969_1229.png,1.0,3.212119,0.7244179,1.7590704
convnext_large,1,159,NaN,bird,bird,inf,0159_hp_dnn_inf_bird_10_n01798484_518.png,n01798484_518.png,1.0,0.7761689,0.51064855,0.18775123
convnext_large,1,160,NaN,bird,bird,inf,0160_hp_dnn_inf_bird_10_n01797886_1953.png,n01797886_1953.png,1.0,0.32262406,0.26046702,0.04395166
convnext_large,1,161,NaN,bird,bird,3,0161_hp_dnn_3_bird_10_n01820546_228.png,n01820546_228.png,1.0,1.321573,0.6992691,0.4400353
convnext_large,1,162,NaN,clock,bear,1.5,0162_hp_dnn_1.5_bear_10_n02134418_2666.png,n02134418_2666.png,0.0,-0.10172198,1.951571,-1.4518974
convnext_large,1,163,NaN,boat,boat,1.5,0163_hp_dnn_1.5_boat_10_n03344393_7659.png,n03344393_7659.png,1.0,2.9324179,0.3369454,1.8352761
convnext_large,1,164,NaN,chair,oven,1.5,0164_hp_dnn_1.5_oven_10_n04111531_1752.png,n04111531_1752.png,0.0,1.0113136,1.1727046,-0.114120685
convnext_large,1,165,NaN,dog,dog,inf,0165_hp_dnn_inf_dog_10_n02091032_8873.png,n02091032_8873.png,1.0,0.5383812,0.32666075,0.14970899
convnext_large,1,166,NaN,oven,oven,0.7,0166_hp_dnn_0.7_oven_10_n04111531_14559.png,n04111531_14559.png,1.0,3.0903206,2.2602694,0.5869348
convnext_large,1,167,NaN,knife,cat,0.7,0167_hp_dnn_0.7_cat_10_n02123045_114.png,n02123045_114.png,0.0,0.34694684,2.4832928,-1.5106246
convnext_large,1,168,NaN,cat,cat,3,0168_hp_dnn_3_cat_10_n02123597_13865.png,n02123597_13865.png,1.0,5.6522555,1.6870074,2.803854
convnext_large,1,169,NaN,knife,knife,0.55,0169_hp_dnn_0.55_knife_10_n03041632_13478.png,n03041632_13478.png,1.0,4.283616,1.6870332,1.8360614
convnext_large,1,170,NaN,clock,elephant,0.55,0170_hp_dnn_0.55_elephant_10_n02504458_2618.png,n02504458_2618.png,0.0,0.225283,3.5305884,-2.337204
convnext_large,1,171,NaN,clock,truck,1,0171_hp_dnn_1_truck_10_n04467665_56954.png,n04467665_56954.png,0.0,1.6577501,3.7214916,-1.4592856
convnext_large,1,172,NaN,clock,chair,1,0172_hp_dnn_1_chair_10_n04429376_1791.png,n04429376_1791.png,0.0,2.3265939,2.592167,-0.18778849
convnext_large,1,173,NaN,bottle,bottle,3,0173_hp_dnn_3_bottle_10_n04560804_33214.png,n04560804_33214.png,1.0,1.424018,1.317334,0.07543696
convnext_large,1,174,NaN,knife,knife,inf,0174_hp_dnn_inf_knife_10_n03041632_48816.png,n03041632_48816.png,1.0,6.981657,0.26629436,4.7484784
convnext_large,1,175,NaN,cat,cat,3,0175_hp_dnn_3_cat_10_n02123394_2274.png,n02123394_2274.png,1.0,2.0863101,0.360054,1.2206475
convnext_large,1,176,NaN,truck,truck,1.5,0176_hp_dnn_1.5_truck_10_n03796401_1326.png,n03796401_1326.png,1.0,2.6281047,0.51009184,1.4976614
convnext_large,1,177,NaN,knife,knife,0.55,0177_hp_dnn_0.55_knife_10_n03041632_11887.png,n03041632_11887.png,1.0,6.2478814,3.1163561,2.2143228
convnext_large,1,178,NaN,clock,dog,0.7,0178_hp_dnn_0.7_dog_10_n02113978_8008.png,n02113978_8008.png,0.0,-0.5281238,2.5703437,-2.1909475
convnext_large,1,179,NaN,cat,cat,0.4,0179_hp_dnn_0.4_cat_10_n02123045_4812.png,n02123045_4812.png,1.0,3.4171238,2.4174452,0.70687956
convnext_large,1,180,NaN,chair,bird,inf,0180_hp_dnn_inf_bird_10_n01833805_3578.png,n01833805_3578.png,0.0,0.15994076,0.42800987,-0.18955347
convnext_large,1,181,NaN,truck,truck,1,0181_hp_dnn_1_truck_10_n03417042_3398.png,n03417042_3398.png,1.0,2.995819,1.1819285,1.2826144
convnext_large,1,182,NaN,clock,bird,0.7,0182_hp_dnn_0.7_bird_10_n02007558_4566.png,n02007558_4566.png,0.0,-1.0463014,3.3467138,-3.1063306
convnext_large,1,183,NaN,clock,knife,0.45,0183_hp_dnn_0.45_knife_10_n03041632_3516.png,n03041632_3516.png,0.0,1.5722368,3.34349,-1.2524651
convnext_large,1,184,NaN,cat,cat,1.5,0184_hp_dnn_1.5_cat_10_n02124075_14965.png,n02124075_14965.png,1.0,3.3159237,2.3154738,0.70742494
convnext_large,1,185,NaN,clock,bird,0.4,0185_hp_dnn_0.4_bird_10_n01843065_2176.png,n01843065_2176.png,0.0,1.1389027,1.1582284,-0.013665358
convnext_large,1,186,NaN,knife,knife,3,0186_hp_dnn_3_knife_10_n03041632_21034.png,n03041632_21034.png,1.0,3.8368955,0.9995211,2.0063267
convnext_large,1,187,NaN,keyboard,keyboard,1.5,0187_hp_dnn_1.5_keyboard_10_n03085013_24026.png,n03085013_24026.png,1.0,4.9647617,1.4078687,2.515103
convnext_large,1,188,NaN,clock,bottle,0.55,0188_hp_dnn_0.55_bottle_10_n04560804_14395.png,n04560804_14395.png,0.0,1.1508534,2.0727913,-0.6519086
convnext_large,1,189,NaN,clock,boat,0.45,0189_hp_dnn_0.45_boat_10_n02951358_11567.png,n02951358_11567.png,0.0,-0.46618938,3.635664,-2.9004483
convnext_large,1,190,NaN,clock,chair,0.4,0190_hp_dnn_0.4_chair_10_n03376595_17747.png,n03376595_17747.png,0.0,1.5795914,4.40984,-2.0012882
convnext_large,1,191,NaN,bottle,bottle,inf,0191_hp_dnn_inf_bottle_10_n04591713_5563.png,n04591713_5563.png,1.0,2.881538,0.8835927,1.4127606
convnext_large,1,192,NaN,airplane,airplane,3,0192_hp_dnn_3_airplane_10_n02690373_7496.png,n02690373_7496.png,1.0,8.983727,0.5275249,5.9794383
convnext_large,1,193,NaN,airplane,airplane,3,0193_hp_dnn_3_airplane_10_n02690373_4465.png,n02690373_4465.png,1.0,8.525662,0.6836446,5.545144
convnext_large,1,194,NaN,clock,bear,0.4,0194_hp_dnn_0.4_bear_10_n02134418_119.png,n02134418_119.png,0.0,-1.0700437,3.161248,-2.991975
convnext_large,1,195,NaN,bear,bear,1.5,0195_hp_dnn_1.5_bear_10_n02133161_1970.png,n02133161_1970.png,1.0,3.9954548,0.7481977,2.2961576
convnext_large,1,196,NaN,clock,bird,1.5,0196_hp_dnn_1.5_bird_10_n02018795_5488.png,n02018795_5488.png,0.0,-0.1388415,1.4368773,-1.1142014
convnext_large,1,197,NaN,clock,bird,0.45,0197_hp_dnn_0.45_bird_10_n01796340_1877.png,n01796340_1877.png,0.0,1.0620133,2.6486833,-1.1219451
convnext_large,1,198,NaN,airplane,airplane,0.4,0198_hp_dnn_0.4_airplane_10_n02690373_4964.png,n02690373_4964.png,1.0,4.351821,2.2856896,1.4609755
convnext_large,1,199,NaN,bottle,bottle,0.4,0199_hp_dnn_0.4_bottle_10_n04591713_1762.png,n04591713_1762.png,1.0,3.4236655,2.2841978,0.80572534
convnext_large,1,200,NaN,car,car,1,0200_hp_dnn_1_car_10_n03100240_6059.png,n03100240_6059.png,1.0,3.9181569,1.5408138,1.6810355
convnext_large,1,201,NaN,chair,chair,inf,0201_hp_dnn_inf_chair_10_n03376595_10769.png,n03376595_10769.png,1.0,2.6873236,0.7574127,1.3646531
convnext_large,1,202,NaN,oven,oven,inf,0202_hp_dnn_inf_oven_10_n04111531_1723.png,n04111531_1723.png,1.0,8.652071,0.544592,5.7328534
convnext_large,1,203,NaN,bicycle,bicycle,0.45,0203_hp_dnn_0.45_bicycle_10_n02835271_3570.png,n02835271_3570.png,1.0,2.6296484,1.3798461,0.8837437
convnext_large,1,204,NaN,clock,knife,0.4,0204_hp_dnn_0.4_knife_10_n03041632_83826.png,n03041632_83826.png,0.0,2.2500367,2.349003,-0.06997979
convnext_large,1,205,NaN,keyboard,keyboard,0.7,0205_hp_dnn_0.7_keyboard_10_n03085013_20673.png,n03085013_20673.png,1.0,2.113433,1.2341236,0.62176555
convnext_large,1,206,NaN,knife,knife,1,0206_hp_dnn_1_knife_10_n03041632_27575.png,n03041632_27575.png,1.0,7.2373657,1.0949233,4.343363
convnext_large,1,207,NaN,bird,bird,1.5,0207_hp_dnn_1.5_bird_10_n01558993_14305.png,n01558993_14305.png,1.0,1.2938344,0.82064664,0.3345943
convnext_large,1,208,NaN,clock,bird,0.4,0208_hp_dnn_0.4_bird_10_n01537544_18123.png,n01537544_18123.png,0.0,0.8517057,1.244764,-0.2779342
convnext_large,1,209,NaN,bicycle,bicycle,3,0209_hp_dnn_3_bicycle_10_n02835271_4307.png,n02835271_4307.png,1.0,4.843093,0.5885889,3.0083888
convnext_large,1,210,NaN,car,car,0.7,0210_hp_dnn_0.7_car_10_n04285008_6320.png,n04285008_6320.png,1.0,2.916458,2.363687,0.39086804
convnext_large,1,211,NaN,elephant,elephant,0.7,0211_hp_dnn_0.7_elephant_10_n02504458_1327.png,n02504458_1327.png,1.0,6.3322678,0.87598366,3.8581755
convnext_large,1,212,NaN,clock,bottle,1,0212_hp_dnn_1_bottle_10_n04560804_1813.png,n04560804_1813.png,0.0,1.2761017,1.4003714,-0.08787197
convnext_large,1,213,NaN,cat,cat,1,0213_hp_dnn_1_cat_10_n02124075_10085.png,n02124075_10085.png,1.0,3.4618769,2.4193344,0.7371889
convnext_large,1,214,NaN,clock,clock,inf,0214_hp_dnn_inf_clock_10_n03196217_2853.png,n03196217_2853.png,1.0,4.8535647,0.5102914,3.071158
convnext_large,1,215,NaN,clock,boat,1.5,0215_hp_dnn_1.5_boat_10_n04273569_10149.png,n04273569_10149.png,0.0,-0.9122307,2.2111003,-2.2085285
convnext_large,1,216,NaN,chair,chair,3,0216_hp_dnn_3_chair_10_n03376595_17859.png,n03376595_17859.png,1.0,4.3782687,0.6016399,2.6704798
convnext_large,1,217,NaN,clock,dog,0.55,0217_hp_dnn_0.55_dog_10_n02101556_7581.png,n02101556_7581.png,0.0,-0.77897674,2.7868955,-2.5214524
convnext_large,1,218,NaN,clock,cat,0.4,0218_hp_dnn_0.4_cat_10_n02125311_8522.png,n02125311_8522.png,0.0,1.8827139,3.7355587,-1.3101592
convnext_large,1,219,NaN,knife,clock,0.45,0219_hp_dnn_0.45_clock_10_n04548280_4345.png,n04548280_4345.png,0.0,1.8760382,1.9291629,-0.037564814
convnext_large,1,220,NaN,truck,truck,inf,0220_hp_dnn_inf_truck_10_n04467665_4088.png,n04467665_4088.png,1.0,2.8084517,0.29347894,1.7783543
convnext_large,1,221,NaN,dog,dog,inf,0221_hp_dnn_inf_dog_10_n02102040_1100.png,n02102040_1100.png,1.0,0.52836394,0.23614518,0.20662986
convnext_large,1,222,NaN,clock,bicycle,0.55,0222_hp_dnn_0.55_bicycle_10_n03792782_15557.png,n03792782_15557.png,0.0,-0.73365045,2.0073285,-1.9381648
convnext_large,1,223,NaN,car,car,3,0223_hp_dnn_3_car_10_n04285008_12767.png,n04285008_12767.png,1.0,6.2155213,0.7241299,3.883
convnext_large,1,224,NaN,clock,boat,0.4,0224_hp_dnn_0.4_boat_10_n03662601_2438.png,n03662601_2438.png,0.0,-0.74071395,3.6646461,-3.11506
convnext_large,1,225,NaN,truck,truck,inf,0225_hp_dnn_inf_truck_10_n03417042_6419.png,n03417042_6419.png,1.0,1.8214519,0.35067543,1.039996
convnext_large,1,226,NaN,chair,chair,0.45,0226_hp_dnn_0.45_chair_10_n04099969_9891.png,n04099969_9891.png,1.0,3.6054442,3.5536566,0.036619373
convnext_large,1,227,NaN,cat,cat,inf,0227_hp_dnn_inf_cat_10_n02123045_8543.png,n02123045_8543.png,1.0,3.9672577,0.47104394,2.4721966
convnext_large,1,228,NaN,clock,cat,0.55,0228_hp_dnn_0.55_cat_10_n02123045_7342.png,n02123045_7342.png,0.0,1.5301442,3.5424588,-1.4229213
convnext_large,1,229,NaN,clock,bird,0.55,0229_hp_dnn_0.55_bird_10_n02018207_10814.png,n02018207_10814.png,0.0,0.7498749,1.8191496,-0.75609136
convnext_large,1,230,NaN,airplane,airplane,3,0230_hp_dnn_3_airplane_10_n02690373_20033.png,n02690373_20033.png,1.0,8.916579,0.448359,5.9879355
convnext_large,1,231,NaN,clock,truck,0.55,0231_hp_dnn_0.55_truck_10_n04467665_13645.png,n04467665_13645.png,0.0,1.1507258,2.1974123,-0.7401191
convnext_large,1,232,NaN,airplane,airplane,1.5,0232_hp_dnn_1.5_airplane_10_n02690373_5015.png,n02690373_5015.png,1.0,6.941858,1.5922391,3.7827518
convnext_large,1,233,NaN,chair,chair,1.5,0233_hp_dnn_1.5_chair_10_n03376595_6173.png,n03376595_6173.png,1.0,2.0677023,0.4868362,1.1178411
convnext_large,1,234,NaN,clock,knife,1.5,0234_hp_dnn_1.5_knife_10_n03041632_91967.png,n03041632_91967.png,0.0,1.2283071,1.4392124,-0.14913258
convnext_large,1,235,NaN,elephant,elephant,inf,0235_hp_dnn_inf_elephant_10_n02504458_1271.png,n02504458_1271.png,1.0,7.7552824,0.29050598,5.278394
convnext_large,1,236,NaN,clock,cat,0.7,0236_hp_dnn_0.7_cat_10_n02123597_1684.png,n02123597_1684.png,0.0,1.1914908,4.348178,-2.232115
convnext_large,1,237,NaN,clock,dog,0.55,0237_hp_dnn_0.55_dog_10_n02091831_3628.png,n02091831_3628.png,0.0,-0.65731364,3.6130817,-3.0196254
convnext_large,1,238,NaN,truck,truck,0.45,0238_hp_dnn_0.45_truck_10_n04467665_64540.png,n04467665_64540.png,1.0,3.3612714,2.3088763,0.7441557
convnext_large,1,239,NaN,airplane,airplane,1,0239_hp_dnn_1_airplane_10_n02690373_3289.png,n02690373_3289.png,1.0,4.18585,1.3332014,2.0171273
convnext_large,1,240,NaN,boat,boat,3,0240_hp_dnn_3_boat_10_n04273569_16949.png,n04273569_16949.png,1.0,4.7279344,0.8372056,2.7511606
convnext_large,1,241,NaN,bicycle,bicycle,1,0241_hp_dnn_1_bicycle_10_n03792782_15174.png,n03792782_15174.png,1.0,1.8409667,1.6147438,0.15996373
convnext_large,1,242,NaN,clock,bottle,1.5,0242_hp_dnn_1.5_bottle_10_n03937543_146.png,n03937543_146.png,0.0,1.3413041,2.2175112,-0.619572
convnext_large,1,243,NaN,clock,chair,0.45,0243_hp_dnn_0.45_chair_10_n04429376_694.png,n04429376_694.png,0.0,2.2271376,3.6748006,-1.0236524
convnext_large,1,244,NaN,clock,keyboard,0.4,0244_hp_dnn_0.4_keyboard_10_n03085013_19407.png,n03085013_19407.png,0.0,2.103415,2.7760916,-0.47565416
convnext_large,1,245,NaN,clock,oven,0.45,0245_hp_dnn_0.45_oven_10_n04111531_4955.png,n04111531_4955.png,0.0,-0.7653492,3.8353531,-3.253188
convnext_large,1,246,NaN,bottle,dog,1.5,0246_hp_dnn_1.5_dog_10_n02099712_1825.png,n02099712_1825.png,0.0,0.5119091,1.1819499,-0.47379035
convnext_large,1,247,NaN,clock,bear,0.55,0247_hp_dnn_0.55_bear_10_n02134084_14031.png,n02134084_14031.png,0.0,-0.38855606,2.1330786,-1.783065
convnext_large,1,248,NaN,car,car,0.45,0248_hp_dnn_0.45_car_10_n02814533_70922.png,n02814533_70922.png,1.0,4.6347103,1.2598574,2.3863814
convnext_large,1,249,NaN,elephant,elephant,0.45,0249_hp_dnn_0.45_elephant_10_n02504458_217.png,n02504458_217.png,1.0,3.7090158,3.1008236,0.43005684
convnext_large,1,250,NaN,car,car,inf,0250_hp_dnn_inf_car_10_n02814533_27824.png,n02814533_27824.png,1.0,4.127846,1.2147815,2.0598476
convnext_large,1,251,NaN,keyboard,keyboard,0.7,0251_hp_dnn_0.7_keyboard_10_n03085013_24257.png,n03085013_24257.png,1.0,4.9753256,3.1207225,1.3114024
convnext_large,1,252,NaN,elephant,elephant,3,0252_hp_dnn_3_elephant_10_n02504013_2269.png,n02504013_2269.png,1.0,6.0569296,0.26914373,4.0925827
convnext_large,1,253,NaN,clock,bear,0.45,0253_hp_dnn_0.45_bear_10_n02134418_1798.png,n02134418_1798.png,0.0,-0.33452302,2.954529,-2.325711
convnext_large,1,254,NaN,clock,dog,0.45,0254_hp_dnn_0.45_dog_10_n02111129_6881.png,n02111129_6881.png,0.0,-1.0534109,3.931193,-3.5246472
convnext_large,1,255,NaN,truck,truck,1.5,0255_hp_dnn_1.5_truck_10_n04467665_67315.png,n04467665_67315.png,1.0,2.9924753,1.5200102,1.04119
convnext_large,1,256,NaN,clock,elephant,0.55,0256_hp_dnn_0.55_elephant_10_n02504013_3688.png,n02504013_3688.png,0.0,-0.8665043,3.58447,-3.1473143
convnext_large,1,257,NaN,bottle,truck,1.5,0257_hp_dnn_1.5_truck_10_n04467665_38886.png,n04467665_38886.png,0.0,0.58074903,1.4688613,-0.62799025
convnext_large,1,258,NaN,bottle,bottle,inf,0258_hp_dnn_inf_bottle_10_n04557648_4250.png,n04557648_4250.png,1.0,2.4459138,0.56824005,1.3277159
convnext_large,1,259,NaN,clock,chair,0.45,0259_hp_dnn_0.45_chair_10_n04099969_4053.png,n04099969_4053.png,0.0,2.9721568,3.5067816,-0.37803683
convnext_large,1,260,NaN,clock,knife,0.7,0260_hp_dnn_0.7_knife_10_n03041632_5727.png,n03041632_5727.png,0.0,0.73195624,1.4808798,-0.5295689
convnext_large,1,261,NaN,knife,dog,1,0261_hp_dnn_1_dog_10_n02091134_4525.png,n02091134_4525.png,0.0,-0.39778933,1.1118261,-1.0674593
convnext_large,1,262,NaN,keyboard,keyboard,inf,0262_hp_dnn_inf_keyboard_10_n04505470_4685.png,n04505470_4685.png,1.0,4.9631586,0.6543666,3.046776
convnext_large,1,263,NaN,clock,boat,0.4,0263_hp_dnn_0.4_boat_10_n02951358_6637.png,n02951358_6637.png,0.0,0.18759254,3.0292225,-2.0093358
convnext_large,1,264,NaN,dog,dog,1.5,0264_hp_dnn_1.5_dog_10_n02093256_11232.png,n02093256_11232.png,1.0,0.73290986,0.5691705,0.11578123
convnext_large,1,265,NaN,elephant,elephant,inf,0265_hp_dnn_inf_elephant_10_n02504013_816.png,n02504013_816.png,1.0,6.0868034,0.20860565,4.1565137
convnext_large,1,266,NaN,clock,bear,1.5,0266_hp_dnn_1.5_bear_10_n02134084_1484.png,n02134084_1484.png,0.0,1.7698768,2.3449714,-0.40665329
convnext_large,1,267,NaN,knife,boat,0.45,0267_hp_dnn_0.45_boat_10_n04273569_15859.png,n04273569_15859.png,0.0,-0.7021169,3.436271,-2.926282
convnext_large,1,268,NaN,bicycle,bicycle,3,0268_hp_dnn_3_bicycle_10_n02835271_7311.png,n02835271_7311.png,1.0,4.6873474,1.4855598,2.2640057
convnext_large,1,269,NaN,cat,cat,1,0269_hp_dnn_1_cat_10_n02123045_2339.png,n02123045_2339.png,1.0,2.8306017,1.2822167,1.0948735
convnext_large,1,270,NaN,clock,elephant,0.45,0270_hp_dnn_0.45_elephant_10_n02504458_4448.png,n02504458_4448.png,0.0,0.17795865,3.5050514,-2.3526099
convnext_large,1,271,NaN,car,car,1,0271_hp_dnn_1_car_10_n03100240_9955.png,n03100240_9955.png,1.0,6.363729,1.374529,3.5278974
convnext_large,1,272,NaN,keyboard,truck,0.55,0272_hp_dnn_0.55_truck_10_n03417042_7310.png,n03417042_7310.png,0.0,0.23888084,3.609746,-2.3835616
convnext_large,1,273,NaN,chair,chair,0.55,0273_hp_dnn_0.55_chair_10_n04099969_20421.png,n04099969_20421.png,1.0,3.5252376,2.1599922,0.96537423
convnext_large,1,274,NaN,clock,boat,0.45,0274_hp_dnn_0.45_boat_10_n04612504_4581.png,n04612504_4581.png,0.0,1.2989942,2.5926683,-0.9147658
convnext_large,1,275,NaN,clock,bear,1,0275_hp_dnn_1_bear_10_n02134418_4515.png,n02134418_4515.png,0.0,-0.42425248,2.4512725,-2.0333033
convnext_large,1,276,NaN,clock,truck,0.7,0276_hp_dnn_0.7_truck_10_n03796401_1082.png,n03796401_1082.png,0.0,-0.37543762,3.9397163,-3.0512748
convnext_large,1,277,NaN,bicycle,bicycle,1,0277_hp_dnn_1_bicycle_10_n03792782_8176.png,n03792782_8176.png,1.0,4.941415,1.4217323,2.4887912
convnext_large,1,278,NaN,clock,oven,0.4,0278_hp_dnn_0.4_oven_10_n04111531_5463.png,n04111531_5463.png,0.0,-0.78064704,3.3886511,-2.948139
convnext_large,1,279,NaN,elephant,elephant,1.5,0279_hp_dnn_1.5_elephant_10_n02504013_4166.png,n02504013_4166.png,1.0,3.6073108,0.7464918,2.0229044
convnext_large,1,280,NaN,airplane,airplane,0.7,0280_hp_dnn_0.7_airplane_10_n02690373_18295.png,n02690373_18295.png,1.0,3.666133,3.020874,0.45626694
convnext_large,1,281,NaN,clock,cat,0.45,0281_hp_dnn_0.45_cat_10_n02124075_1460.png,n02124075_1460.png,0.0,2.0233655,4.4211907,-1.6955185
convnext_large,1,282,NaN,clock,bird,0.55,0282_hp_dnn_0.55_bird_10_n02028035_17759.png,n02028035_17759.png,0.0,0.34464693,3.0775893,-1.9324821
convnext_large,1,283,NaN,chair,chair,3,0283_hp_dnn_3_chair_10_n02791124_6654.png,n02791124_6654.png,1.0,3.094853,0.8043078,1.6196599
convnext_large,1,284,NaN,clock,truck,0.7,0284_hp_dnn_0.7_truck_10_n04467665_22974.png,n04467665_22974.png,0.0,-0.5746674,3.8016741,-3.0945406
convnext_large,1,285,NaN,clock,clock,0.55,0285_hp_dnn_0.55_clock_10_n03196217_2983.png,n03196217_2983.png,1.0,4.825917,0.9314251,2.7538216
convnext_large,1,286,NaN,knife,knife,inf,0286_hp_dnn_inf_knife_10_n03041632_23968.png,n03041632_23968.png,1.0,8.317102,5.584669,1.9321221
convnext_large,1,287,NaN,clock,keyboard,0.4,0287_hp_dnn_0.4_keyboard_10_n03085013_23519.png,n03085013_23519.png,0.0,2.1727881,3.9228218,-1.2374606
convnext_large,1,288,NaN,bottle,bottle,1.5,0288_hp_dnn_1.5_bottle_10_n04591713_14895.png,n04591713_14895.png,1.0,1.9582165,1.8695265,0.06271333
convnext_large,1,289,NaN,knife,elephant,1,0289_hp_dnn_1_elephant_10_n02504013_3969.png,n02504013_3969.png,0.0,0.8212466,2.8380475,-1.4260936
convnext_large,1,290,NaN,chair,bear,3,0290_hp_dnn_3_bear_10_n02134418_3723.png,n02134418_3723.png,0.0,-0.24042591,1.2743526,-1.0711101
convnext_large,1,291,NaN,keyboard,keyboard,0.45,0291_hp_dnn_0.45_keyboard_10_n04505470_709.png,n04505470_709.png,1.0,3.5417492,2.9024994,0.45201787
convnext_large,1,292,NaN,knife,knife,1.5,0292_hp_dnn_1.5_knife_10_n03041632_379.png,n03041632_379.png,1.0,5.3169885,1.4041567,2.76679
convnext_large,1,293,NaN,oven,oven,3,0293_hp_dnn_3_oven_10_n04111531_13128.png,n04111531_13128.png,1.0,7.5358114,1.92588,3.9668207
convnext_large,1,294,NaN,elephant,elephant,0.55,0294_hp_dnn_0.55_elephant_10_n02504013_933.png,n02504013_933.png,1.0,4.238672,2.8832502,0.9584278
convnext_large,1,295,NaN,airplane,airplane,inf,0295_hp_dnn_inf_airplane_10_n02690373_17603.png,n02690373_17603.png,1.0,8.537066,0.3053225,5.820722
convnext_large,1,296,NaN,airplane,airplane,0.45,0296_hp_dnn_0.45_airplane_10_n02690373_5177.png,n02690373_5177.png,1.0,3.1035414,1.7535824,0.95456517
convnext_large,1,297,NaN,chair,chair,1.5,0297_hp_dnn_1.5_chair_10_n04429376_28121.png,n04429376_28121.png,1.0,2.6871855,0.88972086,1.2709994
convnext_large,1,298,NaN,clock,truck,0.55,0298_hp_dnn_0.55_truck_10_n03417042_6517.png,n03417042_6517.png,0.0,-0.051534414,2.4556036,-1.7728143
convnext_large,1,299,NaN,clock,chair,0.55,0299_hp_dnn_0.55_chair_10_n03376595_5503.png,n03376595_5503.png,0.0,2.5055535,3.6935482,-0.84003913
convnext_large,1,300,NaN,clock,clock,1.5,0300_hp_dnn_1.5_clock_10_n03196217_7918.png,n03196217_7918.png,1.0,5.1763854,1.0257536,2.93494
convnext_large,1,301,NaN,car,car,1,0301_hp_dnn_1_car_10_n04285008_7751.png,n04285008_7751.png,1.0,4.657725,2.2164543,1.726239
convnext_large,1,302,NaN,clock,clock,0.4,0302_hp_dnn_0.4_clock_10_n03196217_2628.png,n03196217_2628.png,1.0,3.7124174,2.5401351,0.8289287
convnext_large,1,303,NaN,bird,bird,0.55,0303_hp_dnn_0.55_bird_10_n01833805_6395.png,n01833805_6395.png,1.0,1.423802,1.0318296,0.27716637
convnext_large,1,304,NaN,clock,boat,0.4,0304_hp_dnn_0.4_boat_10_n03344393_6015.png,n03344393_6015.png,0.0,-0.45435148,3.1508033,-2.5492294
convnext_large,1,305,NaN,elephant,elephant,1.5,0305_hp_dnn_1.5_elephant_10_n02504013_2739.png,n02504013_2739.png,1.0,6.566883,1.4434311,3.6228278
convnext_large,1,306,NaN,clock,keyboard,0.45,0306_hp_dnn_0.45_keyboard_10_n03085013_23316.png,n03085013_23316.png,0.0,1.4391834,3.4014971,-1.3875654
convnext_large,1,307,NaN,airplane,airplane,1,0307_hp_dnn_1_airplane_10_n02690373_20350.png,n02690373_20350.png,1.0,4.810672,2.417733,1.6920633
convnext_large,1,308,NaN,clock,clock,3,0308_hp_dnn_3_clock_10_n02708093_3484.png,n02708093_3484.png,1.0,5.5215325,0.4433514,3.5908165
convnext_large,1,309,NaN,clock,bicycle,0.55,0309_hp_dnn_0.55_bicycle_10_n03792782_10185.png,n03792782_10185.png,0.0,-0.40018725,3.29924,-2.6158903
convnext_large,1,310,NaN,knife,knife,3,0310_hp_dnn_3_knife_10_n03041632_42196.png,n03041632_42196.png,1.0,8.521893,0.65674424,5.5615
convnext_large,1,311,NaN,bird,bird,inf,0311_hp_dnn_inf_bird_10_n01855672_6132.png,n01855672_6132.png,1.0,0.37953427,0.36704236,0.008833116
convnext_large,1,312,NaN,clock,bottle,0.4,0312_hp_dnn_0.4_bottle_10_n03983396_3047.png,n03983396_3047.png,0.0,1.0191619,2.706197,-1.192914
convnext_large,1,313,NaN,bottle,bottle,0.4,0313_hp_dnn_0.4_bottle_10_n04557648_2093.png,n04557648_2093.png,1.0,3.1756268,1.2877038,1.3349632
convnext_large,1,314,NaN,keyboard,keyboard,0.55,0314_hp_dnn_0.55_keyboard_10_n04505470_7686.png,n04505470_7686.png,1.0,4.354809,2.8547115,1.060729
convnext_large,1,315,NaN,oven,bear,1.5,0315_hp_dnn_1.5_bear_10_n02132136_5051.png,n02132136_5051.png,0.0,2.2348351,2.3042798,-0.049104787
convnext_large,1,316,NaN,clock,bear,1,0316_hp_dnn_1_bear_10_n02134418_24559.png,n02134418_24559.png,0.0,-0.5949664,1.8608168,-1.7365011
convnext_large,1,317,NaN,clock,oven,0.55,0317_hp_dnn_0.55_oven_10_n04111531_3702.png,n04111531_3702.png,0.0,-0.3604176,4.201727,-3.2259233
convnext_large,1,318,NaN,chair,bicycle,1,0318_hp_dnn_1_bicycle_10_n02835271_24230.png,n02835271_24230.png,0.0,1.4591638,1.8285236,-0.26117685
convnext_large,1,319,NaN,keyboard,keyboard,1.5,0319_hp_dnn_1.5_keyboard_10_n03085013_2272.png,n03085013_2272.png,1.0,6.42161,0.84204805,3.9453459
convnext_large,1,320,NaN,chair,keyboard,0.55,0320_hp_dnn_0.55_keyboard_10_n03085013_23201.png,n03085013_23201.png,0.0,1.7028269,3.2392354,-1.0864049
convnext_large,1,321,NaN,boat,boat,1.5,0321_hp_dnn_1.5_boat_10_n04273569_9803.png,n04273569_9803.png,1.0,2.536736,0.619385,1.3557719
convnext_large,1,322,NaN,clock,boat,0.4,0322_hp_dnn_0.4_boat_10_n04612504_29813.png,n04612504_29813.png,0.0,-0.58823,3.6287518,-2.9818566
convnext_large,1,323,NaN,clock,clock,1,0323_hp_dnn_1_clock_10_n02708093_1291.png,n02708093_1291.png,1.0,4.617187,1.6476823,2.099757
convnext_large,1,324,NaN,clock,oven,0.4,0324_hp_dnn_0.4_oven_10_n04111531_1794.png,n04111531_1794.png,0.0,3.7491994,3.8230922,-0.052250125
convnext_large,1,325,NaN,clock,bear,0.4,0325_hp_dnn_0.4_bear_10_n02132136_5612.png,n02132136_5612.png,0.0,-0.7264476,2.5249112,-2.299058
convnext_large,1,326,NaN,clock,boat,1.5,0326_hp_dnn_1.5_boat_10_n04273569_3401.png,n04273569_3401.png,0.0,1.1352894,2.2160075,-0.76418304
convnext_large,1,327,NaN,cat,cat,3,0327_hp_dnn_3_cat_10_n02125311_16544.png,n02125311_16544.png,1.0,1.2801033,0.19272648,0.7688916
convnext_large,1,328,NaN,clock,clock,1.5,0328_hp_dnn_1.5_clock_10_n03196217_10717.png,n03196217_10717.png,1.0,1.1133631,1.0915759,0.015405938
convnext_large,1,329,NaN,bear,bear,3,0329_hp_dnn_3_bear_10_n02134418_47.png,n02134418_47.png,1.0,0.346786,0.25482982,0.06502283
convnext_large,1,330,NaN,bottle,bottle,3,0330_hp_dnn_3_bottle_10_n04591713_4380.png,n04591713_4380.png,1.0,1.7863742,1.3728844,0.29238147
convnext_large,1,331,NaN,clock,chair,0.55,0331_hp_dnn_0.55_chair_10_n04429376_8710.png,n04429376_8710.png,0.0,1.4299339,3.1379998,-1.207785
convnext_large,1,332,NaN,bicycle,bicycle,3,0332_hp_dnn_3_bicycle_10_n02835271_781.png,n02835271_781.png,1.0,4.5884976,0.546838,2.8578851
convnext_large,1,333,NaN,clock,bear,1.5,0333_hp_dnn_1.5_bear_10_n02134418_875.png,n02134418_875.png,0.0,1.0060525,2.6524985,-1.1642132
convnext_large,1,334,NaN,clock,dog,0.55,0334_hp_dnn_0.55_dog_10_n02094433_10343.png,n02094433_10343.png,0.0,-0.80371344,3.930589,-3.3476574
convnext_large,1,335,NaN,airplane,airplane,3,0335_hp_dnn_3_airplane_10_n02690373_1053.png,n02690373_1053.png,1.0,8.688722,0.3368823,5.905642
convnext_large,1,336,NaN,airplane,airplane,3,0336_hp_dnn_3_airplane_10_n02690373_18848.png,n02690373_18848.png,1.0,7.937822,0.5087047,5.253179
convnext_large,1,337,NaN,keyboard,keyboard,3,0337_hp_dnn_3_keyboard_10_n03085013_18741.png,n03085013_18741.png,1.0,3.3561354,0.94676876,1.7036794
convnext_large,1,338,NaN,bear,bear,inf,0338_hp_dnn_inf_bear_10_n02134418_3152.png,n02134418_3152.png,1.0,3.1060328,0.35263574,1.9469457
convnext_large,1,339,NaN,bicycle,bicycle,1.5,0339_hp_dnn_1.5_bicycle_10_n03792782_14557.png,n03792782_14557.png,1.0,3.3618875,1.8699846,1.0549346
convnext_large,1,340,NaN,clock,bird,0.7,0340_hp_dnn_0.7_bird_10_n01796340_5262.png,n01796340_5262.png,0.0,0.4105236,2.6929226,-1.6138998
convnext_large,1,341,NaN,bicycle,bicycle,1,0341_hp_dnn_1_bicycle_10_n03792782_4559.png,n03792782_4559.png,1.0,4.7857037,1.8859582,2.0504298
convnext_large,1,342,NaN,clock,bear,0.45,0342_hp_dnn_0.45_bear_10_n02134084_3177.png,n02134084_3177.png,0.0,-0.40876937,3.4769506,-2.747619
convnext_large,1,343,NaN,clock,elephant,0.4,0343_hp_dnn_0.4_elephant_10_n02504458_5008.png,n02504458_5008.png,0.0,-1.0479298,3.351786,-3.1110687
convnext_large,1,344,NaN,oven,oven,3,0344_hp_dnn_3_oven_10_n04111531_7955.png,n04111531_7955.png,1.0,8.8555355,1.8075593,4.983672
convnext_large,1,345,NaN,bicycle,bicycle,inf,0345_hp_dnn_inf_bicycle_10_n02835271_13793.png,n02835271_13793.png,1.0,4.84793,0.47437856,3.092568
convnext_large,1,346,NaN,keyboard,keyboard,0.45,0346_hp_dnn_0.45_keyboard_10_n03085013_14810.png,n03085013_14810.png,1.0,5.643841,2.3844812,2.3047154
convnext_large,1,347,NaN,clock,car,0.7,0347_hp_dnn_0.7_car_10_n02814533_39933.png,n02814533_39933.png,0.0,-0.4892285,2.8634598,-2.3707087
convnext_large,1,348,NaN,bird,bird,1,0348_hp_dnn_1_bird_10_n02027492_4897.png,n02027492_4897.png,1.0,1.0759112,0.41911206,0.46442708
convnext_large,1,349,NaN,keyboard,keyboard,3,0349_hp_dnn_3_keyboard_10_n03085013_23776.png,n03085013_23776.png,1.0,6.49732,0.97496724,3.9048934
convnext_large,1,350,NaN,car,car,1.5,0350_hp_dnn_1.5_car_10_n02814533_31493.png,n02814533_31493.png,1.0,4.3208714,1.5642993,1.9491907
convnext_large,1,351,NaN,boat,boat,1.5,0351_hp_dnn_1.5_boat_10_n03344393_7631.png,n03344393_7631.png,1.0,1.839875,0.6996787,0.80624056
convnext_large,1,352,NaN,bicycle,bicycle,0.4,0352_hp_dnn_0.4_bicycle_10_n02835271_1261.png,n02835271_1261.png,1.0,2.8544788,2.5208259,0.23592828
convnext_large,1,353,NaN,clock,clock,1,0353_hp_dnn_1_clock_10_n03196217_1850.png,n03196217_1850.png,1.0,2.4783752,2.0993857,0.26798603
convnext_large,1,354,NaN,bear,bear,inf,0354_hp_dnn_inf_bear_10_n02132136_22387.png,n02132136_22387.png,1.0,3.63164,0.5628897,2.1699343
convnext_large,1,355,NaN,airplane,airplane,1.5,0355_hp_dnn_1.5_airplane_10_n02690373_2316.png,n02690373_2316.png,1.0,3.684254,0.49562487,2.2547014
convnext_large,1,356,NaN,clock,cat,0.7,0356_hp_dnn_0.7_cat_10_n02123597_3634.png,n02123597_3634.png,0.0,0.09098911,3.989669,-2.756783
convnext_large,1,357,NaN,clock,bird,0.45,0357_hp_dnn_0.45_bird_10_n02018207_4151.png,n02018207_4151.png,0.0,-0.5259225,3.188653,-2.6266017
convnext_large,1,358,NaN,clock,knife,0.7,0358_hp_dnn_0.7_knife_10_n03041632_94155.png,n03041632_94155.png,0.0,2.0572596,3.514178,-1.0301969
convnext_large,1,359,NaN,clock,bottle,0.45,0359_hp_dnn_0.45_bottle_10_n04560804_7509.png,n04560804_7509.png,0.0,0.01674228,2.7723405,-1.9485023
convnext_large,1,360,NaN,clock,cat,0.4,0360_hp_dnn_0.4_cat_10_n02123045_12748.png,n02123045_12748.png,0.0,2.4804657,3.7955248,-0.9298873
convnext_large,1,361,NaN,clock,elephant,0.7,0361_hp_dnn_0.7_elephant_10_n02504013_6.png,n02504013_6.png,0.0,0.6076585,1.870735,-0.89313
convnext_large,1,362,NaN,elephant,elephant,0.4,0362_hp_dnn_0.4_elephant_10_n02504013_1492.png,n02504013_1492.png,1.0,2.4920044,2.350108,0.10033597
convnext_large,1,363,NaN,clock,dog,0.4,0363_hp_dnn_0.4_dog_10_n02107142_27162.png,n02107142_27162.png,0.0,-1.0143515,3.476654,-3.1756206
convnext_large,1,364,NaN,clock,bear,0.7,0364_hp_dnn_0.7_bear_10_n02134418_962.png,n02134418_962.png,0.0,-0.21557821,2.7503757,-2.0972462
convnext_large,1,365,NaN,truck,truck,0.7,0365_hp_dnn_0.7_truck_10_n03417042_9693.png,n03417042_9693.png,1.0,4.3811774,0.45122194,2.7788982
convnext_large,1,366,NaN,oven,oven,1,0366_hp_dnn_1_oven_10_n04111531_2116.png,n04111531_2116.png,1.0,4.4542317,1.6866283,1.9569912
convnext_large,1,367,NaN,keyboard,keyboard,inf,0367_hp_dnn_inf_keyboard_10_n03085013_20460.png,n03085013_20460.png,1.0,6.67108,0.3870449,4.443484
convnext_large,1,368,NaN,clock,bird,0.45,0368_hp_dnn_0.45_bird_10_n01796340_6191.png,n01796340_6191.png,0.0,0.9678124,3.118007,-1.5204172
convnext_large,1,369,NaN,oven,oven,1.5,0369_hp_dnn_1.5_oven_10_n04111531_8046.png,n04111531_8046.png,1.0,5.804194,1.866091,2.7846594
convnext_large,1,370,NaN,clock,boat,0.45,0370_hp_dnn_0.45_boat_10_n03344393_11788.png,n03344393_11788.png,0.0,-0.6752351,3.8789952,-3.2203271
convnext_large,1,371,NaN,cat,cat,inf,0371_hp_dnn_inf_cat_10_n02123394_2765.png,n02123394_2765.png,1.0,1.7487907,0.5579536,0.84204906
convnext_large,1,372,NaN,bicycle,bicycle,0.4,0372_hp_dnn_0.4_bicycle_10_n03792782_26834.png,n03792782_26834.png,1.0,6.223468,3.1408243,2.179758
convnext_large,1,373,NaN,clock,cat,1.5,0373_hp_dnn_1.5_cat_10_n02125311_37036.png,n02125311_37036.png,0.0,0.7175756,1.1532043,-0.30803603
convnext_large,1,374,NaN,clock,bicycle,0.7,0374_hp_dnn_0.7_bicycle_10_n03792782_4067.png,n03792782_4067.png,0.0,1.3197856,2.444134,-0.7950344
convnext_large,1,375,NaN,bear,bear,inf,0375_hp_dnn_inf_bear_10_n02134418_3886.png,n02134418_3886.png,1.0,3.1057286,0.45275527,1.8759356
convnext_large,1,376,NaN,chair,dog,0.7,0376_hp_dnn_0.7_dog_10_n02110185_9014.png,n02110185_9014.png,0.0,-0.57088715,2.7182472,-2.3257692
convnext_large,1,377,NaN,bear,bear,inf,0377_hp_dnn_inf_bear_10_n02134084_14888.png,n02134084_14888.png,1.0,4.3792324,1.6954787,1.8977005
convnext_large,1,378,NaN,clock,truck,1.5,0378_hp_dnn_1.5_truck_10_n03417042_5249.png,n03417042_5249.png,0.0,0.015801571,3.1998188,-2.2514403
convnext_large,1,379,NaN,chair,oven,1,0379_hp_dnn_1_oven_10_n04111531_10711.png,n04111531_10711.png,0.0,-0.4307654,1.4443517,-1.3259081
convnext_large,1,380,NaN,car,car,1.5,0380_hp_dnn_1.5_car_10_n04285008_15271.png,n04285008_15271.png,1.0,4.6007113,1.6809788,2.0645628
convnext_large,1,381,NaN,clock,cat,0.45,0381_hp_dnn_0.45_cat_10_n02123597_12232.png,n02123597_12232.png,0.0,1.1108575,4.1338916,-2.137608
convnext_large,1,382,NaN,clock,clock,3,0382_hp_dnn_3_clock_10_n04548280_8083.png,n04548280_8083.png,1.0,1.5223441,1.1082568,0.29280394
convnext_large,1,383,NaN,clock,chair,0.45,0383_hp_dnn_0.45_chair_10_n04099969_8946.png,n04099969_8946.png,0.0,1.9214247,2.9219897,-0.70750624
convnext_large,1,384,NaN,knife,keyboard,0.7,0384_hp_dnn_0.7_keyboard_10_n03085013_21973.png,n03085013_21973.png,0.0,1.5644033,2.4909005,-0.6551325
convnext_large,1,385,NaN,clock,bottle,0.7,0385_hp_dnn_0.7_bottle_10_n04560804_15225.png,n04560804_15225.png,0.0,0.6028988,3.6205647,-2.133812
convnext_large,1,386,NaN,cat,cat,inf,0386_hp_dnn_inf_cat_10_n02123045_10395.png,n02123045_10395.png,1.0,4.768348,0.9295395,2.7144477
convnext_large,1,387,NaN,clock,truck,0.45,0387_hp_dnn_0.45_truck_10_n03417042_4188.png,n03417042_4188.png,0.0,1.6143708,2.3436704,-0.51569265
convnext_large,1,388,NaN,keyboard,keyboard,1.5,0388_hp_dnn_1.5_keyboard_10_n03085013_21615.png,n03085013_21615.png,1.0,6.03178,0.91637796,3.6171353
convnext_large,1,389,NaN,knife,knife,inf,0389_hp_dnn_inf_knife_10_n03041632_26989.png,n03041632_26989.png,1.0,9.168218,0.31934017,6.2571015
convnext_large,1,390,NaN,clock,airplane,0.55,0390_hp_dnn_0.55_airplane_10_n02690373_16986.png,n02690373_16986.png,0.0,1.0618973,2.8837316,-1.2882314
convnext_large,1,391,NaN,bicycle,bicycle,inf,0391_hp_dnn_inf_bicycle_10_n02835271_9067.png,n02835271_9067.png,1.0,5.201023,0.554337,3.2857032
convnext_large,1,392,NaN,clock,dog,0.45,0392_hp_dnn_0.45_dog_10_n02106382_9188.png,n02106382_9188.png,0.0,0.46978104,2.9533665,-1.75616
convnext_large,1,393,NaN,boat,boat,inf,0393_hp_dnn_inf_boat_10_n02951358_3205.png,n02951358_3205.png,1.0,3.0073564,0.30060515,1.9139622
convnext_large,1,394,NaN,clock,knife,0.4,0394_hp_dnn_0.4_knife_10_n03041632_45270.png,n03041632_45270.png,0.0,2.1996913,2.748148,-0.38781744
convnext_large,1,395,NaN,car,car,inf,0395_hp_dnn_inf_car_10_n03100240_6376.png,n03100240_6376.png,1.0,6.4193153,0.43814725,4.229325
convnext_large,1,396,NaN,truck,truck,1,0396_hp_dnn_1_truck_10_n03796401_430.png,n03796401_430.png,1.0,3.201706,1.6962286,1.0645332
convnext_large,1,397,NaN,clock,knife,0.7,0397_hp_dnn_0.7_knife_10_n03041632_24181.png,n03041632_24181.png,0.0,3.3844538,3.4178858,-0.02364
convnext_large,1,398,NaN,clock,bear,1,0398_hp_dnn_1_bear_10_n02134084_16190.png,n02134084_16190.png,0.0,0.2159009,2.857517,-1.8679047
convnext_large,1,399,NaN,clock,bear,0.55,0399_hp_dnn_0.55_bear_10_n02132136_7253.png,n02132136_7253.png,0.0,0.13622293,1.6216,-1.0503203
convnext_large,1,400,NaN,clock,boat,1,0400_hp_dnn_1_boat_10_n03662601_34676.png,n03662601_34676.png,0.0,-0.21022269,2.5457246,-1.9487491
convnext_large,1,401,NaN,clock,knife,0.55,0401_hp_dnn_0.55_knife_10_n03041632_81471.png,n03041632_81471.png,0.0,2.079186,2.3812168,-0.21356803
convnext_large,1,402,NaN,clock,cat,0.7,0402_hp_dnn_0.7_cat_10_n02123597_3822.png,n02123597_3822.png,0.0,0.6663572,3.877978,-2.270959
convnext_large,1,403,NaN,keyboard,keyboard,1.5,0403_hp_dnn_1.5_keyboard_10_n03085013_4823.png,n03085013_4823.png,1.0,4.2873306,0.46151555,2.7052598
convnext_large,1,404,NaN,clock,dog,0.4,0404_hp_dnn_0.4_dog_10_n02108551_8385.png,n02108551_8385.png,0.0,-0.37118056,2.3311622,-1.9108449
convnext_large,1,405,NaN,clock,cat,0.7,0405_hp_dnn_0.7_cat_10_n02124075_8732.png,n02124075_8732.png,0.0,2.1868417,3.2518005,-0.7530396
convnext_large,1,406,NaN,clock,dog,3,0406_hp_dnn_3_dog_10_n02093428_17625.png,n02093428_17625.png,0.0,-0.086990915,1.8934072,-1.400353
convnext_large,1,407,NaN,chair,chair,inf,0407_hp_dnn_inf_chair_10_n02791124_6999.png,n02791124_6999.png,1.0,2.9827988,0.32199022,1.8814758
convnext_large,1,408,NaN,clock,bird,3,0408_hp_dnn_3_bird_10_n02028035_521.png,n02028035_521.png,0.0,0.24195608,1.6034354,-0.9627113
convnext_large,1,409,NaN,clock,truck,0.4,0409_hp_dnn_0.4_truck_10_n03417042_750.png,n03417042_750.png,0.0,-1.0065742,5.02704,-4.2664094
convnext_large,1,410,NaN,airplane,airplane,inf,0410_hp_dnn_inf_airplane_10_n02690373_5779.png,n02690373_5779.png,1.0,8.360917,0.32778296,5.680284
convnext_large,1,411,NaN,cat,cat,1.5,0411_hp_dnn_1.5_cat_10_n02123045_7154.png,n02123045_7154.png,1.0,3.9578474,1.8467807,1.4927497
convnext_large,1,412,NaN,bottle,bottle,1.5,0412_hp_dnn_1.5_bottle_10_n04591713_6958.png,n04591713_6958.png,1.0,3.6237204,1.7990652,1.2902261
convnext_large,1,413,NaN,clock,bird,1.5,0413_hp_dnn_1.5_bird_10_n01818515_42621.png,n01818515_42621.png,0.0,-0.82229084,1.6514683,-1.7492119
convnext_large,1,414,NaN,truck,truck,inf,0414_hp_dnn_inf_truck_10_n03796401_1330.png,n03796401_1330.png,1.0,2.775453,0.5298546,1.587878
convnext_large,1,415,NaN,bottle,bird,1.5,0415_hp_dnn_1.5_bird_10_n01843065_6365.png,n01843065_6365.png,0.0,0.5211255,0.79862845,-0.19622423
convnext_large,1,416,NaN,bottle,bottle,1.5,0416_hp_dnn_1.5_bottle_10_n03983396_11898.png,n03983396_11898.png,1.0,3.8885632,0.8748331,2.131029
convnext_large,1,417,NaN,cat,bird,3,0417_hp_dnn_3_bird_10_n01530575_3831.png,n01530575_3831.png,0.0,0.7143302,0.79957914,-0.06028011
convnext_large,1,418,NaN,bottle,bottle,0.4,0418_hp_dnn_0.4_bottle_10_n03983396_8837.png,n03983396_8837.png,1.0,3.4830132,2.7069175,0.54878247
convnext_large,1,419,NaN,car,car,0.7,0419_hp_dnn_0.7_car_10_n02814533_90798.png,n02814533_90798.png,1.0,3.408638,1.3297395,1.4700032
convnext_large,1,420,NaN,chair,bird,3,0420_hp_dnn_3_bird_10_n01819313_3440.png,n01819313_3440.png,0.0,-0.7209528,0.6526811,-0.97130585
convnext_large,1,421,NaN,clock,dog,0.55,0421_hp_dnn_0.55_dog_10_n02090721_4433.png,n02090721_4433.png,0.0,-0.8998384,3.7688026,-3.3012278
convnext_large,1,422,NaN,elephant,elephant,3,0422_hp_dnn_3_elephant_10_n02504013_9566.png,n02504013_9566.png,1.0,7.082521,0.26558587,4.820301
convnext_large,1,423,NaN,clock,dog,1.5,0423_hp_dnn_1.5_dog_10_n02105251_6599.png,n02105251_6599.png,0.0,0.16870546,2.2863576,-1.4974062
convnext_large,1,424,NaN,clock,chair,0.7,0424_hp_dnn_0.7_chair_10_n02791124_5759.png,n02791124_5759.png,0.0,1.907536,2.14972,-0.1712499
convnext_large,1,425,NaN,elephant,elephant,inf,0425_hp_dnn_inf_elephant_10_n02504458_150.png,n02504458_150.png,1.0,6.211997,0.38010344,4.1237717
convnext_large,1,426,NaN,clock,clock,0.45,0426_hp_dnn_0.45_clock_10_n04548280_10040.png,n04548280_10040.png,1.0,5.683595,0.6770127,3.5401883
convnext_large,1,427,NaN,clock,elephant,0.7,0427_hp_dnn_0.7_elephant_10_n02504458_155.png,n02504458_155.png,0.0,-1.1382307,3.1110518,-3.0046964
convnext_large,1,428,NaN,clock,knife,1,0428_hp_dnn_1_knife_10_n03041632_48062.png,n03041632_48062.png,0.0,1.0489831,2.1460783,-0.7757635
convnext_large,1,429,NaN,truck,truck,1.5,0429_hp_dnn_1.5_truck_10_n04467665_40361.png,n04467665_40361.png,1.0,1.9718801,0.53601485,1.01531
convnext_large,1,430,NaN,clock,bird,0.45,0430_hp_dnn_0.45_bird_10_n01614925_7608.png,n01614925_7608.png,0.0,-0.065279596,2.5605824,-1.8567648
convnext_large,1,431,NaN,clock,bear,0.45,0431_hp_dnn_0.45_bear_10_n02133161_2749.png,n02133161_2749.png,0.0,0.017421573,2.640749,-1.8549727
convnext_large,1,432,NaN,boat,boat,0.55,0432_hp_dnn_0.55_boat_10_n04612504_654.png,n04612504_654.png,1.0,2.5748186,0.58366066,1.4079614
convnext_large,1,433,NaN,clock,bottle,1,0433_hp_dnn_1_bottle_10_n04579145_287.png,n04579145_287.png,0.0,1.5536133,1.6886367,-0.095475934
convnext_large,1,434,NaN,bear,bear,3,0434_hp_dnn_3_bear_10_n02133161_1423.png,n02133161_1423.png,1.0,5.0069323,0.31724817,3.3161073
convnext_large,1,435,NaN,bicycle,bicycle,0.7,0435_hp_dnn_0.7_bicycle_10_n02835271_4656.png,n02835271_4656.png,1.0,3.8265598,2.0992773,1.2213732
convnext_large,1,436,NaN,clock,clock,0.7,0436_hp_dnn_0.7_clock_10_n02708093_3688.png,n02708093_3688.png,1.0,4.0591273,2.2951674,1.247308
convnext_large,1,437,NaN,airplane,airplane,inf,0437_hp_dnn_inf_airplane_10_n02690373_10278.png,n02690373_10278.png,1.0,8.603087,0.7292299,5.567658
convnext_large,1,438,NaN,car,car,0.4,0438_hp_dnn_0.4_car_10_n04285008_11133.png,n04285008_11133.png,1.0,3.8464491,2.2400212,1.1359161
convnext_large,1,439,NaN,clock,knife,1,0439_hp_dnn_1_knife_10_n03041632_4214.png,n03041632_4214.png,0.0,2.2997806,2.910798,-0.4320546
convnext_large,1,440,NaN,oven,oven,inf,0440_hp_dnn_inf_oven_10_n04111531_7741.png,n04111531_7741.png,1.0,7.6255274,1.4386353,4.3747935
convnext_large,1,441,NaN,bicycle,bicycle,3,0441_hp_dnn_3_bicycle_10_n03792782_4472.png,n03792782_4472.png,1.0,7.168454,0.5157725,4.7041564
convnext_large,1,442,NaN,clock,bird,0.7,0442_hp_dnn_0.7_bird_10_n01798484_18666.png,n01798484_18666.png,0.0,-0.7523497,3.6667545,-3.1247785
convnext_large,1,443,NaN,keyboard,keyboard,1.5,0443_hp_dnn_1.5_keyboard_10_n04505470_5059.png,n04505470_5059.png,1.0,3.9516344,2.608445,0.9497784
convnext_large,1,444,NaN,clock,elephant,0.55,0444_hp_dnn_0.55_elephant_10_n02504013_2369.png,n02504013_2369.png,0.0,-0.08913623,3.0382645,-2.2114062
convnext_large,1,445,NaN,bottle,bottle,3,0445_hp_dnn_3_bottle_10_n02823428_10796.png,n02823428_10796.png,1.0,4.5870237,1.353715,2.2862947
convnext_large,1,446,NaN,oven,oven,3,0446_hp_dnn_3_oven_10_n04111531_4421.png,n04111531_4421.png,1.0,3.3829095,2.3321102,0.7430274
convnext_large,1,447,NaN,bicycle,bicycle,inf,0447_hp_dnn_inf_bicycle_10_n02835271_7303.png,n02835271_7303.png,1.0,6.1101923,0.46205875,3.9938338
convnext_large,1,448,NaN,chair,chair,inf,0448_hp_dnn_inf_chair_10_n02791124_7877.png,n02791124_7877.png,1.0,2.233625,0.4200254,1.2824086
convnext_large,1,449,NaN,clock,bottle,1.5,0449_hp_dnn_1.5_bottle_10_n04560804_12099.png,n04560804_12099.png,0.0,1.8442138,1.9862002,-0.100399524
convnext_large,1,450,NaN,boat,boat,1,0450_hp_dnn_1_boat_10_n03662601_18924.png,n03662601_18924.png,1.0,1.5663273,0.34956858,0.8603784
convnext_large,1,451,NaN,clock,bottle,1,0451_hp_dnn_1_bottle_10_n04591713_4206.png,n04591713_4206.png,0.0,1.4120532,2.6292436,-0.86068356
convnext_large,1,452,NaN,clock,clock,0.55,0452_hp_dnn_0.55_clock_10_n04548280_6689.png,n04548280_6689.png,1.0,4.4335465,1.4236456,2.1283214
convnext_large,1,453,NaN,clock,dog,0.4,0453_hp_dnn_0.4_dog_10_n02090721_5305.png,n02090721_5305.png,0.0,-0.865372,3.7604167,-3.2709267
convnext_large,1,454,NaN,clock,clock,0.7,0454_hp_dnn_0.7_clock_10_n03196217_1746.png,n03196217_1746.png,1.0,3.1368399,1.4749664,1.175122
convnext_large,1,455,NaN,keyboard,keyboard,3,0455_hp_dnn_3_keyboard_10_n04505470_7721.png,n04505470_7721.png,1.0,6.327284,0.8590842,3.8666012
convnext_large,1,456,NaN,clock,clock,0.55,0456_hp_dnn_0.55_clock_10_n04548280_3248.png,n04548280_3248.png,1.0,5.501797,1.1105434,3.1050856
convnext_large,1,457,NaN,airplane,bird,inf,0457_hp_dnn_inf_bird_10_n01534433_28009.png,n01534433_28009.png,0.0,0.36232233,0.3756451,-0.009420621
convnext_large,1,458,NaN,chair,chair,0.4,0458_hp_dnn_0.4_chair_10_n04099969_142.png,n04099969_142.png,1.0,3.3523607,3.1952684,0.11108106
convnext_large,1,459,NaN,bicycle,bicycle,0.55,0459_hp_dnn_0.55_bicycle_10_n03792782_7092.png,n03792782_7092.png,1.0,5.222785,3.217061,1.418261
convnext_large,1,460,NaN,clock,keyboard,0.45,0460_hp_dnn_0.45_keyboard_10_n03085013_25559.png,n03085013_25559.png,0.0,0.8734995,3.5755718,-1.9106536
convnext_large,1,461,NaN,elephant,elephant,0.7,0461_hp_dnn_0.7_elephant_10_n02504013_9144.png,n02504013_9144.png,1.0,4.780309,1.9311748,2.0146422
convnext_large,1,462,NaN,clock,clock,0.45,0462_hp_dnn_0.45_clock_10_n03196217_2003.png,n03196217_2003.png,1.0,3.8545702,1.8570567,1.4124553
convnext_large,1,463,NaN,elephant,elephant,1,0463_hp_dnn_1_elephant_10_n02504013_3169.png,n02504013_3169.png,1.0,3.172931,2.0594175,0.78737295
convnext_large,1,464,NaN,clock,dog,0.55,0464_hp_dnn_0.55_dog_10_n02089867_6424.png,n02089867_6424.png,0.0,0.008549862,3.9772422,-2.8062892
convnext_large,1,465,NaN,keyboard,keyboard,1,0465_hp_dnn_1_keyboard_10_n03085013_22494.png,n03085013_22494.png,1.0,4.325026,1.2649438,2.163805
convnext_large,1,466,NaN,clock,dog,0.4,0466_hp_dnn_0.4_dog_10_n02106662_37555.png,n02106662_37555.png,0.0,-1.0777512,3.4745266,-3.2189465
convnext_large,1,467,NaN,car,car,0.55,0467_hp_dnn_0.55_car_10_n02814533_4726.png,n02814533_4726.png,1.0,2.4963045,1.7192707,0.54944587
convnext_large,1,468,NaN,clock,elephant,0.45,0468_hp_dnn_0.45_elephant_10_n02504458_1473.png,n02504458_1473.png,0.0,-0.16998526,3.4957676,-2.5920787
convnext_large,1,469,NaN,clock,bottle,0.55,0469_hp_dnn_0.55_bottle_10_n04557648_3350.png,n04557648_3350.png,0.0,0.30144665,3.4703732,-2.2407694
convnext_large,1,470,NaN,clock,knife,0.4,0470_hp_dnn_0.4_knife_10_n03041632_31909.png,n03041632_31909.png,0.0,0.9500985,2.6265235,-1.1854115
convnext_large,1,471,NaN,clock,truck,0.4,0471_hp_dnn_0.4_truck_10_n04467665_70880.png,n04467665_70880.png,0.0,-0.81923366,3.2976716,-2.9110916
convnext_large,1,472,NaN,clock,dog,0.45,0472_hp_dnn_0.45_dog_10_n02097209_7557.png,n02097209_7557.png,0.0,-0.9161353,2.9636357,-2.7434125
convnext_large,1,473,NaN,clock,oven,1,0473_hp_dnn_1_oven_10_n04111531_4438.png,n04111531_4438.png,0.0,0.46639708,2.7659652,-1.6260402
convnext_large,1,474,NaN,airplane,airplane,0.7,0474_hp_dnn_0.7_airplane_10_n02690373_194.png,n02690373_194.png,1.0,5.3126917,3.25358,1.4560118
convnext_large,1,475,NaN,bicycle,bicycle,1.5,0475_hp_dnn_1.5_bicycle_10_n02835271_6953.png,n02835271_6953.png,1.0,5.2702847,0.5413123,3.3438885
convnext_large,1,476,NaN,clock,oven,0.45,0476_hp_dnn_0.45_oven_10_n04111531_14435.png,n04111531_14435.png,0.0,0.4826119,3.1154423,-1.8616922
convnext_large,1,477,NaN,elephant,elephant,1.5,0477_hp_dnn_1.5_elephant_10_n02504013_5192.png,n02504013_5192.png,1.0,2.0147495,1.1854787,0.58638304
convnext_large,1,478,NaN,clock,chair,0.7,0478_hp_dnn_0.7_chair_10_n03376595_3566.png,n03376595_3566.png,0.0,1.6297357,2.4023015,-0.5462866
convnext_large,1,479,NaN,truck,truck,1,0479_hp_dnn_1_truck_10_n03417042_22709.png,n03417042_22709.png,1.0,3.972069,0.6104161,2.3770475
convnext_large,1,480,NaN,keyboard,keyboard,inf,0480_hp_dnn_inf_keyboard_10_n04505470_4603.png,n04505470_4603.png,1.0,6.0048776,0.318501,4.0208755
convnext_large,1,481,NaN,clock,car,0.55,0481_hp_dnn_0.55_car_10_n03100240_1794.png,n03100240_1794.png,0.0,0.4429276,3.6141245,-2.242375
convnext_large,1,482,NaN,clock,elephant,0.7,0482_hp_dnn_0.7_elephant_10_n02504458_1233.png,n02504458_1233.png,0.0,-0.67927754,2.7357705,-2.4148037
convnext_large,1,483,NaN,clock,airplane,0.45,0483_hp_dnn_0.45_airplane_10_n02690373_3047.png,n02690373_3047.png,0.0,-0.08640814,2.013934,-1.4851661
convnext_large,1,484,NaN,clock,elephant,0.55,0484_hp_dnn_0.55_elephant_10_n02504013_7422.png,n02504013_7422.png,0.0,-0.28256163,2.9226115,-2.2663996
convnext_large,1,485,NaN,clock,bicycle,0.45,0485_hp_dnn_0.45_bicycle_10_n03792782_16034.png,n03792782_16034.png,0.0,2.6056361,3.8742816,-0.89706784
convnext_large,1,486,NaN,bicycle,bicycle,3,0486_hp_dnn_3_bicycle_10_n02835271_11922.png,n02835271_11922.png,1.0,4.9896193,0.89097095,2.898182
convnext_large,1,487,NaN,truck,truck,0.7,0487_hp_dnn_0.7_truck_10_n03796401_6526.png,n03796401_6526.png,1.0,2.9121299,1.0308717,1.3302504
convnext_large,1,488,NaN,boat,boat,3,0488_hp_dnn_3_boat_10_n03662601_1834.png,n03662601_1834.png,1.0,2.955439,0.39706096,1.8090466
convnext_large,1,489,NaN,clock,dog,0.7,0489_hp_dnn_0.7_dog_10_n02100236_619.png,n02100236_619.png,0.0,0.0051582023,2.163131,-1.5259173
convnext_large,1,490,NaN,clock,truck,0.45,0490_hp_dnn_0.45_truck_10_n04467665_21266.png,n04467665_21266.png,0.0,0.093999706,3.095239,-2.1221967
convnext_large,1,491,NaN,clock,chair,0.55,0491_hp_dnn_0.55_chair_10_n04099969_18220.png,n04099969_18220.png,0.0,2.1253717,3.0861652,-0.67938364
convnext_large,1,492,NaN,keyboard,keyboard,1.5,0492_hp_dnn_1.5_keyboard_10_n03085013_4157.png,n03085013_4157.png,1.0,6.19952,0.91812485,3.7345107
convnext_large,1,493,NaN,clock,bicycle,0.4,0493_hp_dnn_0.4_bicycle_10_n03792782_1276.png,n03792782_1276.png,0.0,-0.7029092,3.392133,-2.8956323
convnext_large,1,494,NaN,boat,boat,3,0494_hp_dnn_3_boat_10_n03344393_1987.png,n03344393_1987.png,1.0,2.7652612,0.73187035,1.4378244
convnext_large,1,495,NaN,clock,boat,0.45,0495_hp_dnn_0.45_boat_10_n03344393_381.png,n03344393_381.png,0.0,1.1227096,2.9430873,-1.2872014
convnext_large,1,496,NaN,clock,clock,inf,0496_hp_dnn_inf_clock_10_n02708093_8390.png,n02708093_8390.png,1.0,4.6896033,0.15477146,3.2066104
convnext_large,1,497,NaN,keyboard,keyboard,0.55,0497_hp_dnn_0.55_keyboard_10_n04505470_1043.png,n04505470_1043.png,1.0,5.356425,0.6744495,3.3106565
convnext_large,1,498,NaN,clock,dog,0.55,0498_hp_dnn_0.55_dog_10_n02100877_1902.png,n02100877_1902.png,0.0,-0.67879593,3.1167896,-2.6838844
convnext_large,1,499,NaN,knife,knife,1.5,0499_hp_dnn_1.5_knife_10_n03041632_55083.png,n03041632_55083.png,1.0,3.873034,1.6185604,1.5941536
convnext_large,1,500,NaN,clock,truck,1.5,0500_hp_dnn_1.5_truck_10_n04467665_45872.png,n04467665_45872.png,0.0,-0.13057825,1.8515784,-1.4015964
convnext_large,1,501,NaN,clock,boat,0.7,0501_hp_dnn_0.7_boat_10_n04273569_3244.png,n04273569_3244.png,0.0,0.91182345,2.088783,-0.83223605
convnext_large,1,502,NaN,clock,bear,0.45,0502_hp_dnn_0.45_bear_10_n02134418_2157.png,n02134418_2157.png,0.0,-0.65320146,3.5135326,-2.946326
convnext_large,1,503,NaN,bottle,bottle,3,0503_hp_dnn_3_bottle_10_n04591713_17618.png,n04591713_17618.png,1.0,4.0728455,0.67402196,2.4033313
convnext_large,1,504,NaN,clock,cat,1,0504_hp_dnn_1_cat_10_n02125311_8496.png,n02125311_8496.png,0.0,2.6489651,3.195904,-0.3867442
convnext_large,1,505,NaN,car,car,inf,0505_hp_dnn_inf_car_10_n02814533_3560.png,n02814533_3560.png,1.0,3.5493317,1.4475948,1.4861525
convnext_large,1,506,NaN,clock,truck,0.7,0506_hp_dnn_0.7_truck_10_n03417042_751.png,n03417042_751.png,0.0,0.7421483,3.123623,-1.6839567
convnext_large,1,507,NaN,keyboard,keyboard,inf,0507_hp_dnn_inf_keyboard_10_n03085013_23213.png,n03085013_23213.png,1.0,2.4525533,0.96761274,1.0500115
convnext_large,1,508,NaN,clock,bicycle,0.4,0508_hp_dnn_0.4_bicycle_10_n03792782_19709.png,n03792782_19709.png,0.0,-0.71977144,3.8886592,-3.2586527
convnext_large,1,509,NaN,oven,oven,inf,0509_hp_dnn_inf_oven_10_n04111531_3076.png,n04111531_3076.png,1.0,9.074699,0.4634761,6.0890546
convnext_large,1,510,NaN,knife,knife,0.4,0510_hp_dnn_0.4_knife_10_n03041632_14774.png,n03041632_14774.png,1.0,5.5808754,3.4795144,1.4858867
convnext_large,1,511,NaN,car,car,0.7,0511_hp_dnn_0.7_car_10_n03100240_7703.png,n03100240_7703.png,1.0,4.9270287,2.0965066,2.0014813
convnext_large,1,512,NaN,clock,bear,0.55,0512_hp_dnn_0.55_bear_10_n02134084_13434.png,n02134084_13434.png,0.0,-0.7545498,3.3752015,-2.920175
convnext_large,1,513,NaN,oven,dog,inf,0513_hp_dnn_inf_dog_10_n02111500_4280.png,n02111500_4280.png,0.0,0.09152231,0.973316,-0.6235223
convnext_large,1,514,NaN,clock,bear,0.55,0514_hp_dnn_0.55_bear_10_n02132136_23853.png,n02132136_23853.png,0.0,0.21754347,3.5874212,-2.3828635
convnext_large,1,515,NaN,bicycle,bicycle,1.5,0515_hp_dnn_1.5_bicycle_10_n03792782_17193.png,n03792782_17193.png,1.0,4.895561,1.2536981,2.5751863
convnext_large,1,516,NaN,clock,dog,1,0516_hp_dnn_1_dog_10_n02102177_5770.png,n02102177_5770.png,0.0,0.27641937,2.4255812,-1.5196869
convnext_large,1,517,NaN,bear,bear,0.7,0517_hp_dnn_0.7_bear_10_n02132136_2279.png,n02132136_2279.png,1.0,3.9158545,3.0771682,0.5930407
convnext_large,1,518,NaN,bear,bear,inf,0518_hp_dnn_inf_bear_10_n02134084_6910.png,n02134084_6910.png,1.0,3.1526496,0.6304218,1.7834843
convnext_large,1,519,NaN,oven,oven,0.7,0519_hp_dnn_0.7_oven_10_n04111531_9041.png,n04111531_9041.png,1.0,5.2081585,2.247677,2.0933764
convnext_large,1,520,NaN,clock,cat,1,0520_hp_dnn_1_cat_10_n02123159_5424.png,n02123159_5424.png,0.0,0.96803325,1.2022792,-0.16563691
convnext_large,1,521,NaN,clock,bicycle,0.45,0521_hp_dnn_0.45_bicycle_10_n02835271_672.png,n02835271_672.png,0.0,-0.18512294,3.4647467,-2.5808477
convnext_large,1,522,NaN,knife,airplane,0.45,0522_hp_dnn_0.45_airplane_10_n02690373_18111.png,n02690373_18111.png,0.0,2.0571175,3.54699,-1.053499
convnext_large,1,523,NaN,clock,clock,1,0523_hp_dnn_1_clock_10_n04548280_3013.png,n04548280_3013.png,1.0,2.3596377,1.3121738,0.74066883
convnext_large,1,524,NaN,clock,dog,0.45,0524_hp_dnn_0.45_dog_10_n02094258_4142.png,n02094258_4142.png,0.0,-0.7662256,3.6458313,-3.1197953
convnext_large,1,525,NaN,clock,clock,3,0525_hp_dnn_3_clock_10_n04548280_6919.png,n04548280_6919.png,1.0,4.946192,0.48724523,3.1529515
convnext_large,1,526,NaN,clock,cat,0.4,0526_hp_dnn_0.4_cat_10_n02124075_16814.png,n02124075_16814.png,0.0,2.3103087,2.6428702,-0.23515649
convnext_large,1,527,NaN,clock,clock,1,0527_hp_dnn_1_clock_10_n04548280_3342.png,n04548280_3342.png,1.0,3.0837185,0.24851799,2.0047896
convnext_large,1,528,NaN,boat,boat,1,0528_hp_dnn_1_boat_10_n04612504_31680.png,n04612504_31680.png,1.0,2.229533,0.6851249,1.0920614
convnext_large,1,529,NaN,keyboard,keyboard,inf,0529_hp_dnn_inf_keyboard_10_n03085013_7962.png,n03085013_7962.png,1.0,7.100462,0.45254263,4.700789
convnext_large,1,530,NaN,bicycle,bicycle,3,0530_hp_dnn_3_bicycle_10_n02835271_949.png,n02835271_949.png,1.0,4.809278,1.137902,2.5960548
convnext_large,1,531,NaN,keyboard,keyboard,1,0531_hp_dnn_1_keyboard_10_n04505470_4228.png,n04505470_4228.png,1.0,5.075434,0.6882179,3.1022305
convnext_large,1,532,NaN,clock,boat,0.7,0532_hp_dnn_0.7_boat_10_n03344393_3219.png,n03344393_3219.png,0.0,0.084867,2.950426,-2.0262563
convnext_large,1,533,NaN,bicycle,elephant,3,0533_hp_dnn_3_elephant_10_n02504458_3399.png,n02504458_3399.png,0.0,1.6077131,1.6235251,-0.0111808
convnext_large,1,534,NaN,clock,bird,0.55,0534_hp_dnn_0.55_bird_10_n01616318_12459.png,n01616318_12459.png,0.0,0.52741504,2.1997366,-1.1825099
convnext_large,1,535,NaN,clock,elephant,0.4,0535_hp_dnn_0.4_elephant_10_n02504013_1846.png,n02504013_1846.png,0.0,-0.9742593,3.4451294,-3.1249797
convnext_large,1,536,NaN,knife,bicycle,0.55,0536_hp_dnn_0.55_bicycle_10_n03792782_5097.png,n03792782_5097.png,0.0,-0.076634005,3.3127785,-2.3966765
convnext_large,1,537,NaN,bottle,bottle,3,0537_hp_dnn_3_bottle_10_n02823428_5115.png,n02823428_5115.png,1.0,4.9576526,1.232357,2.6341817
convnext_large,1,538,NaN,keyboard,keyboard,inf,0538_hp_dnn_inf_keyboard_10_n03085013_21282.png,n03085013_21282.png,1.0,7.110303,0.63652366,4.5776534
convnext_large,1,539,NaN,clock,oven,0.4,0539_hp_dnn_0.4_oven_10_n04111531_1815.png,n04111531_1815.png,0.0,0.42636198,2.4591978,-1.4374319
convnext_large,1,540,NaN,clock,chair,1,0540_hp_dnn_1_chair_10_n02791124_5268.png,n02791124_5268.png,0.0,2.1011243,2.6178546,-0.3653835
convnext_large,1,541,NaN,clock,airplane,0.55,0541_hp_dnn_0.55_airplane_10_n02690373_3035.png,n02690373_3035.png,0.0,3.1778846,3.317999,-0.09907578
convnext_large,1,542,NaN,dog,dog,inf,0542_hp_dnn_inf_dog_10_n02107683_1460.png,n02107683_1460.png,1.0,0.46417516,0.23707828,0.16058175
convnext_large,1,543,NaN,boat,boat,inf,0543_hp_dnn_inf_boat_10_n02951358_31813.png,n02951358_31813.png,1.0,2.800666,0.71429586,1.4752866
convnext_large,1,544,NaN,clock,bird,0.4,0544_hp_dnn_0.4_bird_10_n01797886_16808.png,n01797886_16808.png,0.0,0.23357095,3.7024765,-2.4528866
convnext_large,1,545,NaN,elephant,elephant,0.45,0545_hp_dnn_0.45_elephant_10_n02504458_4767.png,n02504458_4767.png,1.0,3.6221807,3.4756372,0.10362191
convnext_large,1,546,NaN,knife,knife,3,0546_hp_dnn_3_knife_10_n03041632_41493.png,n03041632_41493.png,1.0,6.779499,0.92301965,4.1411567
convnext_large,1,547,NaN,elephant,elephant,3,0547_hp_dnn_3_elephant_10_n02504458_3329.png,n02504458_3329.png,1.0,6.506996,0.23536137,4.4347153
convnext_large,1,548,NaN,clock,cat,0.45,0548_hp_dnn_0.45_cat_10_n02124075_12467.png,n02124075_12467.png,0.0,0.23653929,3.7781422,-2.5042915
convnext_large,1,549,NaN,chair,truck,0.7,0549_hp_dnn_0.7_truck_10_n03417042_6467.png,n03417042_6467.png,0.0,1.5940304,2.3087177,-0.5053603
convnext_large,1,550,NaN,airplane,airplane,inf,0550_hp_dnn_inf_airplane_10_n02690373_734.png,n02690373_734.png,1.0,8.223739,0.3561095,5.563254
convnext_large,1,551,NaN,clock,car,0.4,0551_hp_dnn_0.4_car_10_n02814533_85296.png,n02814533_85296.png,0.0,0.27949938,2.485834,-1.5601141
convnext_large,1,552,NaN,elephant,elephant,0.7,0552_hp_dnn_0.7_elephant_10_n02504013_18005.png,n02504013_18005.png,1.0,5.7070093,0.83060175,3.4481409
convnext_large,1,553,NaN,clock,clock,0.45,0553_hp_dnn_0.45_clock_10_n02708093_1495.png,n02708093_1495.png,1.0,4.100012,1.5872709,1.7767763
convnext_large,1,554,NaN,car,car,1.5,0554_hp_dnn_1.5_car_10_n04285008_3462.png,n04285008_3462.png,1.0,4.0298386,1.4431094,1.8290937
convnext_large,1,555,NaN,truck,truck,0.4,0555_hp_dnn_0.4_truck_10_n03417042_22297.png,n03417042_22297.png,1.0,3.5013146,0.67560834,1.9980761
convnext_large,1,556,NaN,chair,chair,3,0556_hp_dnn_3_chair_10_n04429376_7279.png,n04429376_7279.png,1.0,2.081095,1.7472297,0.23607841
convnext_large,1,557,NaN,bicycle,bicycle,3,0557_hp_dnn_3_bicycle_10_n02835271_6919.png,n02835271_6919.png,1.0,4.3696985,0.5522616,2.6993356
convnext_large,1,558,NaN,clock,oven,0.55,0558_hp_dnn_0.55_oven_10_n04111531_2260.png,n04111531_2260.png,0.0,0.84311616,1.5434828,-0.49523398
convnext_large,1,559,NaN,clock,bear,0.7,0559_hp_dnn_0.7_bear_10_n02134084_5794.png,n02134084_5794.png,0.0,-0.98892176,2.775404,-2.66178
convnext_large,1,560,NaN,airplane,airplane,0.7,0560_hp_dnn_0.7_airplane_10_n02690373_10397.png,n02690373_10397.png,1.0,4.2402635,1.1774626,2.1657274
convnext_large,1,561,NaN,clock,elephant,0.4,0561_hp_dnn_0.4_elephant_10_n02504458_2041.png,n02504458_2041.png,0.0,-0.81274146,3.2617567,-2.8811054
convnext_large,1,562,NaN,chair,chair,1,0562_hp_dnn_1_chair_10_n04429376_7732.png,n04429376_7732.png,1.0,1.4236109,1.3792744,0.03135068
convnext_large,1,563,NaN,airplane,airplane,0.4,0563_hp_dnn_0.4_airplane_10_n02690373_4788.png,n02690373_4788.png,1.0,3.9095178,2.109539,1.2727772
convnext_large,1,564,NaN,clock,dog,0.55,0564_hp_dnn_0.55_dog_10_n02097474_2799.png,n02097474_2799.png,0.0,-0.8729806,3.2654612,-2.9263206
convnext_large,1,565,NaN,clock,bear,1.5,0565_hp_dnn_1.5_bear_10_n02134084_17849.png,n02134084_17849.png,0.0,-0.28322047,2.369683,-1.8758861
convnext_large,1,566,NaN,chair,dog,inf,0566_hp_dnn_inf_dog_10_n02086646_7064.png,n02086646_7064.png,0.0,0.42749166,0.48292184,-0.039195053
convnext_large,1,567,NaN,clock,truck,0.55,0567_hp_dnn_0.55_truck_10_n03417042_7061.png,n03417042_7061.png,0.0,1.7539651,2.8088677,-0.74592876
convnext_large,1,568,NaN,clock,bird,1,0568_hp_dnn_1_bird_10_n01820546_3605.png,n01820546_3605.png,0.0,-1.0156057,2.3346634,-2.368998
convnext_large,1,569,NaN,clock,bear,0.4,0569_hp_dnn_0.4_bear_10_n02133161_2813.png,n02133161_2813.png,0.0,-1.1603758,3.3171244,-3.1660707
convnext_large,1,570,NaN,clock,bear,0.45,0570_hp_dnn_0.45_bear_10_n02132136_16636.png,n02132136_16636.png,0.0,-0.4617675,3.7080402,-2.9484994
convnext_large,1,571,NaN,bicycle,oven,1.5,0571_hp_dnn_1.5_oven_10_n04111531_14959.png,n04111531_14959.png,0.0,0.82937825,1.7698591,-0.6650204
convnext_large,1,572,NaN,clock,cat,0.45,0572_hp_dnn_0.45_cat_10_n02124075_5453.png,n02124075_5453.png,0.0,0.54944223,3.1401682,-1.8319199
convnext_large,1,573,NaN,cat,cat,1,0573_hp_dnn_1_cat_10_n02124075_11528.png,n02124075_11528.png,1.0,4.483088,1.2724916,2.2702346
convnext_large,1,574,NaN,clock,cat,1,0574_hp_dnn_1_cat_10_n02123159_3454.png,n02123159_3454.png,0.0,0.19459043,3.8162746,-2.5609176
convnext_large,1,575,NaN,clock,bird,0.45,0575_hp_dnn_0.45_bird_10_n02025239_2227.png,n02025239_2227.png,0.0,0.95748043,2.7242527,-1.2492967
convnext_large,1,576,NaN,clock,chair,0.7,0576_hp_dnn_0.7_chair_10_n03376595_12256.png,n03376595_12256.png,0.0,1.8037064,2.7783616,-0.68918526
convnext_large,1,577,NaN,clock,clock,1.5,0577_hp_dnn_1.5_clock_10_n02708093_6591.png,n02708093_6591.png,1.0,4.905213,1.1677239,2.642804
convnext_large,1,578,NaN,chair,chair,0.55,0578_hp_dnn_0.55_chair_10_n04099969_34144.png,n04099969_34144.png,1.0,2.596922,2.2576678,0.2398889
convnext_large,1,579,NaN,clock,bear,0.55,0579_hp_dnn_0.55_bear_10_n02132136_3563.png,n02132136_3563.png,0.0,0.60762686,4.2302876,-2.5616078
convnext_large,1,580,NaN,elephant,elephant,1,0580_hp_dnn_1_elephant_10_n02504013_6671.png,n02504013_6671.png,1.0,6.261279,2.157799,2.901599
convnext_large,1,581,NaN,clock,keyboard,0.7,0581_hp_dnn_0.7_keyboard_10_n03085013_22067.png,n03085013_22067.png,0.0,3.0271683,3.8342927,-0.5707231
convnext_large,1,582,NaN,truck,truck,inf,0582_hp_dnn_inf_truck_10_n03796401_1458.png,n03796401_1458.png,1.0,1.7477369,0.6220194,0.7960025
convnext_large,1,583,NaN,clock,bottle,0.45,0583_hp_dnn_0.45_bottle_10_n04591713_807.png,n04591713_807.png,0.0,0.683286,3.163987,-1.7541205
convnext_large,1,584,NaN,clock,car,1,0584_hp_dnn_1_car_10_n02814533_22693.png,n02814533_22693.png,0.0,-1.1438082,2.8782158,-2.8440006
convnext_large,1,585,NaN,clock,car,0.7,0585_hp_dnn_0.7_car_10_n02814533_5278.png,n02814533_5278.png,0.0,2.0059466,2.7908802,-0.55503184
convnext_large,1,586,NaN,boat,boat,1.5,0586_hp_dnn_1.5_boat_10_n03662601_10240.png,n03662601_10240.png,1.0,2.6308684,1.0340223,1.1291407
convnext_large,1,587,NaN,airplane,airplane,inf,0587_hp_dnn_inf_airplane_10_n02690373_9673.png,n02690373_9673.png,1.0,8.033538,0.42078918,5.383026
convnext_large,1,588,NaN,bird,bird,0.7,0588_hp_dnn_0.7_bird_10_n02009229_6029.png,n02009229_6029.png,1.0,0.73428386,0.4174262,0.2240522
convnext_large,1,589,NaN,clock,clock,0.4,0589_hp_dnn_0.4_clock_10_n02708093_2580.png,n02708093_2580.png,1.0,5.2676334,0.739549,3.2018392
convnext_large,1,590,NaN,clock,elephant,0.4,0590_hp_dnn_0.4_elephant_10_n02504013_295.png,n02504013_295.png,0.0,0.6837432,3.103491,-1.7110201
convnext_large,1,591,NaN,car,car,0.7,0591_hp_dnn_0.7_car_10_n04285008_9893.png,n04285008_9893.png,1.0,4.1725583,1.5497826,1.8545824
convnext_large,1,592,NaN,chair,chair,1.5,0592_hp_dnn_1.5_chair_10_n03376595_6850.png,n03376595_6850.png,1.0,2.5086365,0.97618455,1.0836071
convnext_large,1,593,NaN,boat,boat,3,0593_hp_dnn_3_boat_10_n03662601_15713.png,n03662601_15713.png,1.0,3.9263458,3.668297,0.18246804
convnext_large,1,594,NaN,clock,clock,0.4,0594_hp_dnn_0.4_clock_10_n04548280_9867.png,n04548280_9867.png,1.0,2.687312,1.2286416,1.0314356
convnext_large,1,595,NaN,airplane,airplane,1.5,0595_hp_dnn_1.5_airplane_10_n02690373_1450.png,n02690373_1450.png,1.0,8.393662,0.58924496,5.5185566
convnext_large,1,596,NaN,clock,bicycle,0.45,0596_hp_dnn_0.45_bicycle_10_n03792782_7787.png,n03792782_7787.png,0.0,0.26812616,3.551688,-2.3218288
convnext_large,1,597,NaN,clock,chair,0.45,0597_hp_dnn_0.45_chair_10_n04099969_1219.png,n04099969_1219.png,0.0,2.1798992,2.4762824,-0.20957454
convnext_large,1,598,NaN,keyboard,keyboard,0.55,0598_hp_dnn_0.55_keyboard_10_n03085013_8325.png,n03085013_8325.png,1.0,3.7348661,2.2927783,1.0197102
convnext_large,1,599,NaN,clock,bicycle,0.55,0599_hp_dnn_0.55_bicycle_10_n02835271_14732.png,n02835271_14732.png,0.0,0.7249139,3.5000203,-1.9622966
convnext_large,1,600,NaN,airplane,airplane,1.5,0600_hp_dnn_1.5_airplane_10_n02690373_4176.png,n02690373_4176.png,1.0,5.1324477,1.2514553,2.744276
convnext_large,1,601,NaN,clock,bird,1,0601_hp_dnn_1_bird_10_n01534433_905.png,n01534433_905.png,0.0,-0.36608624,2.9911892,-2.3739524
convnext_large,1,602,NaN,airplane,truck,1.5,0602_hp_dnn_1.5_truck_10_n04467665_45306.png,n04467665_45306.png,0.0,-0.20549005,2.1540046,-1.6684147
convnext_large,1,603,NaN,elephant,elephant,3,0603_hp_dnn_3_elephant_10_n02504458_1617.png,n02504458_1617.png,1.0,7.1600065,1.4539022,4.0348253
convnext_large,1,604,NaN,clock,oven,0.45,0604_hp_dnn_0.45_oven_10_n04111531_4148.png,n04111531_4148.png,0.0,-0.35544658,3.4861763,-2.7164376
convnext_large,1,605,NaN,elephant,bird,0.55,0605_hp_dnn_0.55_bird_10_n02009912_91.png,n02009912_91.png,0.0,1.9051118,2.5122137,-0.42928588
convnext_large,1,606,NaN,knife,knife,3,0606_hp_dnn_3_knife_10_n03041632_33739.png,n03041632_33739.png,1.0,8.233516,0.55454385,5.429853
convnext_large,1,607,NaN,airplane,airplane,1,0607_hp_dnn_1_airplane_10_n02690373_9318.png,n02690373_9318.png,1.0,8.20079,0.9065628,5.157798
convnext_large,1,608,NaN,clock,bird,0.4,0608_hp_dnn_0.4_bird_10_n01828970_8669.png,n01828970_8669.png,0.0,-0.55232847,2.38437,-2.0765593
convnext_large,1,609,NaN,truck,truck,1.5,0609_hp_dnn_1.5_truck_10_n04467665_58762.png,n04467665_58762.png,1.0,2.9360194,1.252754,1.1902485
convnext_large,1,610,NaN,car,car,3,0610_hp_dnn_3_car_10_n03100240_11417.png,n03100240_11417.png,1.0,6.233524,2.0165458,2.9818537
convnext_large,1,611,NaN,bicycle,bicycle,inf,0611_hp_dnn_inf_bicycle_10_n03792782_16179.png,n03792782_16179.png,1.0,7.498392,0.30798382,5.0843863
convnext_large,1,612,NaN,car,car,1,0612_hp_dnn_1_car_10_n04285008_8444.png,n04285008_8444.png,1.0,4.336251,1.3178467,2.134334
convnext_large,1,613,NaN,chair,chair,inf,0613_hp_dnn_inf_chair_10_n02791124_3240.png,n02791124_3240.png,1.0,2.363898,0.32348007,1.4427934
convnext_large,1,614,NaN,clock,bicycle,0.7,0614_hp_dnn_0.7_bicycle_10_n02835271_1035.png,n02835271_1035.png,0.0,1.5737003,3.045787,-1.0409225
convnext_large,1,615,NaN,bicycle,bicycle,0.55,0615_hp_dnn_0.55_bicycle_10_n02835271_6167.png,n02835271_6167.png,1.0,3.873004,2.8136082,0.74910593
convnext_large,1,616,NaN,bottle,bottle,3,0616_hp_dnn_3_bottle_10_n02823428_6830.png,n02823428_6830.png,1.0,2.486211,1.4236956,0.7513119
convnext_large,1,617,NaN,knife,knife,0.45,0617_hp_dnn_0.45_knife_10_n03041632_17349.png,n03041632_17349.png,1.0,3.3917904,2.127904,0.8937027
convnext_large,1,618,NaN,airplane,airplane,inf,0618_hp_dnn_inf_airplane_10_n02690373_2024.png,n02690373_2024.png,1.0,8.672032,0.5157091,5.7673917
convnext_large,1,619,NaN,clock,bottle,1,0619_hp_dnn_1_bottle_10_n02823428_8034.png,n02823428_8034.png,0.0,0.8371893,2.4929585,-1.1708057
convnext_large,1,620,NaN,chair,chair,1,0620_hp_dnn_1_chair_10_n02791124_6786.png,n02791124_6786.png,1.0,4.1347265,1.0608666,2.1735473
convnext_large,1,621,NaN,chair,chair,0.45,0621_hp_dnn_0.45_chair_10_n03376595_10689.png,n03376595_10689.png,1.0,3.1211364,2.7344034,0.27346158
convnext_large,1,622,NaN,clock,knife,0.4,0622_hp_dnn_0.4_knife_10_n03041632_22734.png,n03041632_22734.png,0.0,0.84443647,3.2177055,-1.6781547
convnext_large,1,623,NaN,clock,oven,0.4,0623_hp_dnn_0.4_oven_10_n04111531_10521.png,n04111531_10521.png,0.0,0.079698324,3.8410652,-2.659688
convnext_large,1,624,NaN,bird,bird,inf,0624_hp_dnn_inf_bird_10_n02007558_37147.png,n02007558_37147.png,1.0,0.7648756,0.1790753,0.41422337
convnext_large,1,625,NaN,chair,oven,3,0625_hp_dnn_3_oven_10_n04111531_14753.png,n04111531_14753.png,0.0,0.04758647,2.5364842,-1.7599165
convnext_large,1,626,NaN,clock,bottle,0.7,0626_hp_dnn_0.7_bottle_10_n03983396_4990.png,n03983396_4990.png,0.0,0.75382817,3.7521522,-2.1201353
convnext_large,1,627,NaN,clock,cat,0.45,0627_hp_dnn_0.45_cat_10_n02125311_25104.png,n02125311_25104.png,0.0,3.0163052,4.112285,-0.7749749
convnext_large,1,628,NaN,truck,truck,0.55,0628_hp_dnn_0.55_truck_10_n03417042_5600.png,n03417042_5600.png,1.0,3.0313256,1.903087,0.79778516
convnext_large,1,629,NaN,clock,cat,0.55,0629_hp_dnn_0.55_cat_10_n02125311_34158.png,n02125311_34158.png,0.0,-0.3304529,3.9203594,-3.005778
convnext_large,1,630,NaN,knife,knife,1,0630_hp_dnn_1_knife_10_n03041632_41077.png,n03041632_41077.png,1.0,5.150992,1.6068712,2.5060718
convnext_large,1,631,NaN,bicycle,bicycle,0.45,0631_hp_dnn_0.45_bicycle_10_n03792782_19295.png,n03792782_19295.png,1.0,4.378868,2.2552214,1.5016451
convnext_large,1,632,NaN,elephant,elephant,1,0632_hp_dnn_1_elephant_10_n02504013_7500.png,n02504013_7500.png,1.0,5.234319,0.87884724,3.079784
convnext_large,1,633,NaN,clock,chair,0.4,0633_hp_dnn_0.4_chair_10_n04429376_20837.png,n04429376_20837.png,0.0,0.90681845,4.1083903,-2.2638533
convnext_large,1,634,NaN,clock,oven,0.55,0634_hp_dnn_0.55_oven_10_n04111531_2371.png,n04111531_2371.png,0.0,-0.008583605,2.5731003,-1.8255262
convnext_large,1,635,NaN,clock,bear,0.45,0635_hp_dnn_0.45_bear_10_n02132136_2108.png,n02132136_2108.png,0.0,-0.5425484,3.9385526,-3.168617
convnext_large,1,636,NaN,clock,airplane,0.55,0636_hp_dnn_0.55_airplane_10_n02690373_7600.png,n02690373_7600.png,0.0,-0.54624647,4.7138586,-3.719456
convnext_large,1,637,NaN,clock,bicycle,0.4,0637_hp_dnn_0.4_bicycle_10_n03792782_8329.png,n03792782_8329.png,0.0,-0.11650805,4.087048,-2.972363
convnext_large,1,638,NaN,clock,airplane,0.7,0638_hp_dnn_0.7_airplane_10_n02690373_9712.png,n02690373_9712.png,0.0,1.0682421,1.2479649,-0.1270832
convnext_large,1,639,NaN,car,car,inf,0639_hp_dnn_inf_car_10_n02814533_43694.png,n02814533_43694.png,1.0,2.8167212,1.205931,1.1390008
convnext_large,1,640,NaN,bird,bird,0.4,0640_hp_dnn_0.4_bird_10_n01828970_454.png,n01828970_454.png,1.0,1.3164672,1.0080165,0.21810758
convnext_large,1,641,NaN,clock,bear,1,0641_hp_dnn_1_bear_10_n02132136_1141.png,n02132136_1141.png,0.0,-0.39433873,2.9701862,-2.3790784
convnext_large,1,642,NaN,clock,clock,0.7,0642_hp_dnn_0.7_clock_10_n03196217_6217.png,n03196217_6217.png,1.0,2.5559661,2.2723155,0.2005713
convnext_large,1,643,NaN,clock,truck,1,0643_hp_dnn_1_truck_10_n03417042_4520.png,n03417042_4520.png,0.0,2.3010721,2.5577576,-0.18150406
convnext_large,1,644,NaN,elephant,dog,3,0644_hp_dnn_3_dog_10_n02093256_2633.png,n02093256_2633.png,0.0,0.96882904,2.614824,-1.1638943
convnext_large,1,645,NaN,clock,dog,0.4,0645_hp_dnn_0.4_dog_10_n02108000_7066.png,n02108000_7066.png,0.0,-0.99149394,3.7529533,-3.354831
convnext_large,1,646,NaN,clock,dog,1.5,0646_hp_dnn_1.5_dog_10_n02099601_2805.png,n02099601_2805.png,0.0,0.90367216,1.1386892,-0.16618212
convnext_large,1,647,NaN,chair,dog,3,0647_hp_dnn_3_dog_10_n02091244_3193.png,n02091244_3193.png,0.0,0.3164043,0.3251866,-0.006210022
convnext_large,1,648,NaN,bicycle,bicycle,1.5,0648_hp_dnn_1.5_bicycle_10_n02835271_358.png,n02835271_358.png,1.0,3.6225283,1.9830078,1.1593161
convnext_large,1,649,NaN,boat,boat,0.7,0649_hp_dnn_0.7_boat_10_n03344393_9459.png,n03344393_9459.png,1.0,1.3565618,0.9056668,0.31883088
convnext_large,1,650,NaN,truck,truck,1,0650_hp_dnn_1_truck_10_n04467665_5053.png,n04467665_5053.png,1.0,3.9485319,1.3392469,1.8450431
convnext_large,1,651,NaN,clock,truck,0.45,0651_hp_dnn_0.45_truck_10_n04467665_36855.png,n04467665_36855.png,0.0,-0.8606134,3.5155036,-3.0943823
convnext_large,1,652,NaN,car,car,0.45,0652_hp_dnn_0.45_car_10_n02814533_72255.png,n02814533_72255.png,1.0,3.865034,2.108148,1.242306
convnext_large,1,653,NaN,clock,airplane,1.5,0653_hp_dnn_1.5_airplane_10_n02690373_5789.png,n02690373_5789.png,0.0,0.43031695,2.0875862,-1.1718663
convnext_large,1,654,NaN,clock,oven,0.4,0654_hp_dnn_0.4_oven_10_n04111531_9224.png,n04111531_9224.png,0.0,0.54729193,3.37302,-1.9980915
convnext_large,1,655,NaN,airplane,bird,inf,0655_hp_dnn_inf_bird_10_n01798484_4076.png,n01798484_4076.png,0.0,0.38087937,0.4638699,-0.058683164
convnext_large,1,656,NaN,clock,boat,1,0656_hp_dnn_1_boat_10_n04612504_1869.png,n04612504_1869.png,0.0,0.3630376,1.6951894,-0.94197357
convnext_large,1,657,NaN,clock,cat,0.45,0657_hp_dnn_0.45_cat_10_n02123394_7335.png,n02123394_7335.png,0.0,1.2041655,3.3220482,-1.4975693
convnext_large,1,658,NaN,boat,boat,1,0658_hp_dnn_1_boat_10_n04612504_11379.png,n04612504_11379.png,1.0,2.5640888,0.49054015,1.4662204
convnext_large,1,659,NaN,bicycle,bicycle,1,0659_hp_dnn_1_bicycle_10_n03792782_18496.png,n03792782_18496.png,1.0,4.3529277,2.2653573,1.4761353
convnext_large,1,660,NaN,bear,bear,inf,0660_hp_dnn_inf_bear_10_n02133161_8471.png,n02133161_8471.png,1.0,4.759446,1.0206518,2.6437268
convnext_large,1,661,NaN,keyboard,keyboard,0.7,0661_hp_dnn_0.7_keyboard_10_n04505470_3929.png,n04505470_3929.png,1.0,6.200537,0.7510245,3.8533874
convnext_large,1,662,NaN,clock,car,0.55,0662_hp_dnn_0.55_car_10_n03100240_6822.png,n03100240_6822.png,0.0,0.53883845,2.2944956,-1.2414371
convnext_large,1,663,NaN,keyboard,keyboard,0.4,0663_hp_dnn_0.4_keyboard_10_n04505470_207.png,n04505470_207.png,1.0,4.9778786,1.3922874,2.5353959
convnext_large,1,664,NaN,clock,elephant,0.55,0664_hp_dnn_0.55_elephant_10_n02504458_7221.png,n02504458_7221.png,0.0,-0.70010984,3.8299572,-3.203241
convnext_large,1,665,NaN,clock,bottle,1.5,0665_hp_dnn_1.5_bottle_10_n03983396_2091.png,n03983396_2091.png,0.0,1.0356537,4.213859,-2.2473307
convnext_large,1,666,NaN,clock,knife,0.4,0666_hp_dnn_0.4_knife_10_n03041632_30602.png,n03041632_30602.png,0.0,1.7203491,3.7467387,-1.4328738
convnext_large,1,667,NaN,clock,oven,0.45,0667_hp_dnn_0.45_oven_10_n04111531_7050.png,n04111531_7050.png,0.0,0.05975169,2.4386146,-1.6821101
convnext_large,1,668,NaN,car,car,0.45,0668_hp_dnn_0.45_car_10_n02814533_30383.png,n02814533_30383.png,1.0,2.6698139,2.4199848,0.17665581
convnext_large,1,669,NaN,cat,cat,0.7,0669_hp_dnn_0.7_cat_10_n02124075_7680.png,n02124075_7680.png,1.0,3.109168,2.3354607,0.54709375
convnext_large,1,670,NaN,clock,oven,0.55,0670_hp_dnn_0.55_oven_10_n04111531_3265.png,n04111531_3265.png,0.0,1.0370386,1.8274728,-0.5589214
convnext_large,1,671,NaN,chair,oven,1.5,0671_hp_dnn_1.5_oven_10_n04111531_49.png,n04111531_49.png,0.0,0.8646451,2.0942082,-0.86943245
convnext_large,1,672,NaN,chair,chair,inf,0672_hp_dnn_inf_chair_10_n02791124_8099.png,n02791124_8099.png,1.0,3.4331217,0.13715015,2.3306038
convnext_large,1,673,NaN,clock,bottle,0.7,0673_hp_dnn_0.7_bottle_10_n03937543_9606.png,n03937543_9606.png,0.0,0.15470009,3.1203763,-2.09705
convnext_large,1,674,NaN,cat,cat,inf,0674_hp_dnn_inf_cat_10_n02123045_4644.png,n02123045_4644.png,1.0,3.6429965,0.67857635,2.0961618
convnext_large,1,675,NaN,clock,chair,0.55,0675_hp_dnn_0.55_chair_10_n03376595_12251.png,n03376595_12251.png,0.0,2.6493988,3.9208682,-0.8990646
convnext_large,1,676,NaN,clock,chair,0.7,0676_hp_dnn_0.7_chair_10_n04429376_52822.png,n04429376_52822.png,0.0,1.9397005,3.8029242,-1.3174981
convnext_large,1,677,NaN,chair,chair,1.5,0677_hp_dnn_1.5_chair_10_n04429376_55898.png,n04429376_55898.png,1.0,3.1530538,0.90278816,1.591178
convnext_large,1,678,NaN,clock,bicycle,1.5,0678_hp_dnn_1.5_bicycle_10_n03792782_5106.png,n03792782_5106.png,0.0,0.44191724,1.3251759,-0.6245582
convnext_large,1,679,NaN,clock,bear,0.4,0679_hp_dnn_0.4_bear_10_n02134418_5735.png,n02134418_5735.png,0.0,-1.2095631,3.1260517,-3.0657425
convnext_large,1,680,NaN,clock,oven,0.45,0680_hp_dnn_0.45_oven_10_n04111531_3348.png,n04111531_3348.png,0.0,-0.94168293,3.8502853,-3.3884335
convnext_large,1,681,NaN,clock,boat,0.7,0681_hp_dnn_0.7_boat_10_n04612504_37043.png,n04612504_37043.png,0.0,1.4027103,1.4152241,-0.008848563
convnext_large,1,682,NaN,car,car,inf,0682_hp_dnn_inf_car_10_n02814533_40315.png,n02814533_40315.png,1.0,2.9188206,2.291052,0.4438994
convnext_large,1,683,NaN,clock,clock,0.45,0683_hp_dnn_0.45_clock_10_n04548280_3782.png,n04548280_3782.png,1.0,3.9085214,0.7470807,2.2354763
convnext_large,1,684,NaN,knife,knife,1.5,0684_hp_dnn_1.5_knife_10_n03041632_36907.png,n03041632_36907.png,1.0,8.490919,1.1934063,5.160121
convnext_large,1,685,NaN,car,car,inf,0685_hp_dnn_inf_car_10_n04285008_6587.png,n04285008_6587.png,1.0,4.1884103,0.38416508,2.6900077
convnext_large,1,686,NaN,clock,oven,0.45,0686_hp_dnn_0.45_oven_10_n04111531_9498.png,n04111531_9498.png,0.0,-0.105000585,3.039688,-2.2236307
convnext_large,1,687,NaN,clock,clock,0.7,0687_hp_dnn_0.7_clock_10_n03196217_3361.png,n03196217_3361.png,1.0,3.9799244,2.4144995,1.1069226
convnext_large,1,688,NaN,clock,truck,0.45,0688_hp_dnn_0.45_truck_10_n04467665_40002.png,n04467665_40002.png,0.0,-0.66275513,3.8861294,-3.216547
convnext_large,1,689,NaN,keyboard,keyboard,0.7,0689_hp_dnn_0.7_keyboard_10_n03085013_20805.png,n03085013_20805.png,1.0,4.224846,3.1703196,0.74566275
convnext_large,1,690,NaN,clock,clock,3,0690_hp_dnn_3_clock_10_n04548280_9816.png,n04548280_9816.png,1.0,4.647777,0.79560286,2.7238986
convnext_large,1,691,NaN,clock,truck,0.4,0691_hp_dnn_0.4_truck_10_n03417042_2293.png,n03417042_2293.png,0.0,-1.2046406,3.2392836,-3.1423287
convnext_large,1,692,NaN,clock,dog,1.5,0692_hp_dnn_1.5_dog_10_n02086910_730.png,n02086910_730.png,0.0,-0.54613733,3.3757126,-2.7731667
convnext_large,1,693,NaN,clock,truck,3,0693_hp_dnn_3_truck_10_n04467665_25059.png,n04467665_25059.png,0.0,0.45367596,1.5728259,-0.79135853
convnext_large,1,694,NaN,keyboard,keyboard,3,0694_hp_dnn_3_keyboard_10_n03085013_5738.png,n03085013_5738.png,1.0,6.8644514,0.9109904,4.209733
convnext_large,1,695,NaN,bottle,bottle,0.7,0695_hp_dnn_0.7_bottle_10_n04557648_3775.png,n04557648_3775.png,1.0,2.9929523,2.5700045,0.29906932
convnext_large,1,696,NaN,clock,bear,0.45,0696_hp_dnn_0.45_bear_10_n02134084_22801.png,n02134084_22801.png,0.0,-0.98339015,3.8770924,-3.4368804
convnext_large,1,697,NaN,airplane,airplane,3,0697_hp_dnn_3_airplane_10_n02690373_3468.png,n02690373_3468.png,1.0,8.61556,0.5363445,5.7128677
convnext_large,1,698,NaN,clock,clock,0.45,0698_hp_dnn_0.45_clock_10_n04548280_4713.png,n04548280_4713.png,1.0,2.7586896,0.99391973,1.2478808
convnext_large,1,699,NaN,bird,bird,0.4,0699_hp_dnn_0.4_bird_10_n02051845_3351.png,n02051845_3351.png,1.0,0.848943,0.66299397,0.13148582
convnext_large,1,700,NaN,elephant,elephant,3,0700_hp_dnn_3_elephant_10_n02504458_6762.png,n02504458_6762.png,1.0,7.2599297,0.38927218,4.858289
convnext_large,1,701,NaN,bicycle,bicycle,0.4,0701_hp_dnn_0.4_bicycle_10_n03792782_2327.png,n03792782_2327.png,1.0,3.8480682,3.6523266,0.13841026
convnext_large,1,702,NaN,bicycle,bicycle,3,0702_hp_dnn_3_bicycle_10_n03792782_19985.png,n03792782_19985.png,1.0,4.408325,1.1972047,2.270605
convnext_large,1,703,NaN,bear,bear,3,0703_hp_dnn_3_bear_10_n02134084_2970.png,n02134084_2970.png,1.0,2.999161,0.6000096,1.6964562
convnext_large,1,704,NaN,clock,truck,0.55,0704_hp_dnn_0.55_truck_10_n03417042_10642.png,n03417042_10642.png,0.0,-0.3147571,3.1454575,-2.4467413
convnext_large,1,705,NaN,boat,boat,3,0705_hp_dnn_3_boat_10_n03662601_3938.png,n03662601_3938.png,1.0,2.1771255,0.8181906,0.9609121
convnext_large,1,706,NaN,clock,chair,0.4,0706_hp_dnn_0.4_chair_10_n02791124_9414.png,n02791124_9414.png,0.0,1.6506662,4.5628743,-2.059242
convnext_large,1,707,NaN,clock,clock,0.55,0707_hp_dnn_0.55_clock_10_n04548280_3605.png,n04548280_3605.png,1.0,4.912621,1.3195508,2.5406845
convnext_large,1,708,NaN,chair,bottle,0.7,0708_hp_dnn_0.7_bottle_10_n04579145_2196.png,n04579145_2196.png,0.0,0.24211521,3.4998393,-2.3035588
convnext_large,1,709,NaN,clock,knife,0.7,0709_hp_dnn_0.7_knife_10_n03041632_5801.png,n03041632_5801.png,0.0,2.8016295,3.195816,-0.27873194
convnext_large,1,710,NaN,clock,boat,0.4,0710_hp_dnn_0.4_boat_10_n02951358_11867.png,n02951358_11867.png,0.0,-0.61989886,2.2778075,-2.0489879
convnext_large,1,711,NaN,clock,clock,1,0711_hp_dnn_1_clock_10_n02708093_3266.png,n02708093_3266.png,1.0,5.6590104,0.3607032,3.7464693
convnext_large,1,712,NaN,clock,bicycle,0.55,0712_hp_dnn_0.55_bicycle_10_n03792782_4251.png,n03792782_4251.png,0.0,1.0490193,4.0362988,-2.1123257
