subj,session,trial,rt,object_response,category,condition,imagename,filename,is_correct,targ_act,max_nontarg_act,decision_margin
alexnet_w1_mlp_simclrhn_probe0,1,1,NaN,boat,boat,0.7,0001_hp_dnn_0.7_boat_10_n03662601_12531.png,n03662601_12531.png,1.0,-0.49895173,-0.6124149,0.08023057
alexnet_w1_mlp_simclrhn_probe0,1,2,NaN,chair,chair,0.7,0002_hp_dnn_0.7_chair_10_n04429376_22819.png,n04429376_22819.png,1.0,-1.0588154,-2.0643458,0.71101743
alexnet_w1_mlp_simclrhn_probe0,1,3,NaN,elephant,elephant,0.45,0003_hp_dnn_0.45_elephant_10_n02504458_582.png,n02504458_582.png,1.0,-0.44098386,-0.63525397,0.1373697
alexnet_w1_mlp_simclrhn_probe0,1,4,NaN,bottle,bicycle,0.7,0004_hp_dnn_0.7_bicycle_10_n03792782_41173.png,n03792782_41173.png,0.0,-3.0874176,-1.8795198,-0.85411274
alexnet_w1_mlp_simclrhn_probe0,1,5,NaN,clock,cat,1.5,0005_hp_dnn_1.5_cat_10_n02123597_7071.png,n02123597_7071.png,0.0,-2.9590175,-1.5546125,-0.99306434
alexnet_w1_mlp_simclrhn_probe0,1,6,NaN,bear,cat,0.4,0006_hp_dnn_0.4_cat_10_n02123394_2386.png,n02123394_2386.png,0.0,-0.56447774,-0.28080052,-0.20059009
alexnet_w1_mlp_simclrhn_probe0,1,7,NaN,oven,oven,inf,0007_hp_dnn_inf_oven_10_n04111531_2201.png,n04111531_2201.png,1.0,-5.002033,-6.396007,0.9856884
alexnet_w1_mlp_simclrhn_probe0,1,8,NaN,elephant,cat,0.45,0008_hp_dnn_0.45_cat_10_n02125311_43276.png,n02125311_43276.png,0.0,-0.6447224,-0.2747094,-0.2616387
alexnet_w1_mlp_simclrhn_probe0,1,9,NaN,elephant,dog,0.45,0009_hp_dnn_0.45_dog_10_n02111500_2439.png,n02111500_2439.png,0.0,-1.2806377,-0.45266777,-0.58546317
alexnet_w1_mlp_simclrhn_probe0,1,10,NaN,clock,bicycle,0.4,0010_hp_dnn_0.4_bicycle_10_n02835271_12599.png,n02835271_12599.png,0.0,-0.67175865,-0.43977115,-0.16403994
alexnet_w1_mlp_simclrhn_probe0,1,11,NaN,elephant,dog,0.45,0011_hp_dnn_0.45_dog_10_n02096585_391.png,n02096585_391.png,0.0,-1.5482458,-0.4171645,-0.7997953
alexnet_w1_mlp_simclrhn_probe0,1,12,NaN,car,car,0.7,0012_hp_dnn_0.7_car_10_n04285008_12138.png,n04285008_12138.png,1.0,0.3058565,-0.025039116,0.23397852
alexnet_w1_mlp_simclrhn_probe0,1,13,NaN,clock,car,0.7,0013_hp_dnn_0.7_car_10_n02814533_44083.png,n02814533_44083.png,0.0,-1.4726133,-0.81036925,-0.46827728
alexnet_w1_mlp_simclrhn_probe0,1,14,NaN,oven,oven,inf,0014_hp_dnn_inf_oven_10_n04111531_2447.png,n04111531_2447.png,1.0,-1.3087131,-8.487405,5.076102
alexnet_w1_mlp_simclrhn_probe0,1,15,NaN,keyboard,chair,0.55,0015_hp_dnn_0.55_chair_10_n03376595_9524.png,n03376595_9524.png,0.0,-1.37867,-0.86065316,-0.36629322
alexnet_w1_mlp_simclrhn_probe0,1,16,NaN,elephant,elephant,0.55,0016_hp_dnn_0.55_elephant_10_n02504458_3092.png,n02504458_3092.png,1.0,-1.1260465,-1.1518853,0.018270744
alexnet_w1_mlp_simclrhn_probe0,1,17,NaN,airplane,truck,0.4,0017_hp_dnn_0.4_truck_10_n04467665_42126.png,n04467665_42126.png,0.0,-0.795062,-0.19165495,-0.4266732
alexnet_w1_mlp_simclrhn_probe0,1,18,NaN,elephant,elephant,inf,0018_hp_dnn_inf_elephant_10_n02504458_12303.png,n02504458_12303.png,1.0,2.2109573,-2.651421,3.4382205
alexnet_w1_mlp_simclrhn_probe0,1,19,NaN,clock,clock,0.4,0019_hp_dnn_0.4_clock_10_n04548280_7243.png,n04548280_7243.png,1.0,0.8012624,0.11481582,0.48539102
alexnet_w1_mlp_simclrhn_probe0,1,20,NaN,airplane,airplane,0.4,0020_hp_dnn_0.4_airplane_10_n02690373_6978.png,n02690373_6978.png,1.0,0.4215774,-0.1917104,0.43365997
alexnet_w1_mlp_simclrhn_probe0,1,21,NaN,boat,boat,3,0021_hp_dnn_3_boat_10_n04612504_4773.png,n04612504_4773.png,1.0,-0.8153313,-2.1781232,0.9636395
alexnet_w1_mlp_simclrhn_probe0,1,22,NaN,bottle,bottle,inf,0022_hp_dnn_inf_bottle_10_n04560804_5979.png,n04560804_5979.png,1.0,-6.4170203,-6.5538783,0.096773215
alexnet_w1_mlp_simclrhn_probe0,1,23,NaN,airplane,airplane,3,0023_hp_dnn_3_airplane_10_n02690373_21922.png,n02690373_21922.png,1.0,1.5951757,-0.5602562,1.5241206
alexnet_w1_mlp_simclrhn_probe0,1,24,NaN,elephant,bird,0.4,0024_hp_dnn_0.4_bird_10_n01820546_6431.png,n01820546_6431.png,0.0,-0.79272354,-0.52807474,-0.18713497
alexnet_w1_mlp_simclrhn_probe0,1,25,NaN,bird,bird,inf,0025_hp_dnn_inf_bird_10_n01795545_9555.png,n01795545_9555.png,1.0,-0.2414501,-1.7024179,1.0330602
alexnet_w1_mlp_simclrhn_probe0,1,26,NaN,bicycle,truck,3,0026_hp_dnn_3_truck_10_n04467665_45796.png,n04467665_45796.png,0.0,-1.770814,0.009669185,-1.2589917
alexnet_w1_mlp_simclrhn_probe0,1,27,NaN,bottle,oven,1,0027_hp_dnn_1_oven_10_n04111531_5906.png,n04111531_5906.png,0.0,-3.5087512,-1.0785639,-1.7184019
alexnet_w1_mlp_simclrhn_probe0,1,28,NaN,clock,bicycle,0.45,0028_hp_dnn_0.45_bicycle_10_n03792782_6133.png,n03792782_6133.png,0.0,-0.82518125,-0.3385967,-0.34406725
alexnet_w1_mlp_simclrhn_probe0,1,29,NaN,keyboard,keyboard,1,0029_hp_dnn_1_keyboard_10_n04505470_4741.png,n04505470_4741.png,1.0,1.27982,-0.73644537,1.425715
alexnet_w1_mlp_simclrhn_probe0,1,30,NaN,car,car,1.5,0030_hp_dnn_1.5_car_10_n02814533_5085.png,n02814533_5085.png,1.0,1.2594291,-1.0099334,1.6046816
alexnet_w1_mlp_simclrhn_probe0,1,31,NaN,clock,chair,0.4,0031_hp_dnn_0.4_chair_10_n04429376_10628.png,n04429376_10628.png,0.0,-0.56947315,-0.46341345,-0.07499553
alexnet_w1_mlp_simclrhn_probe0,1,32,NaN,clock,clock,0.55,0032_hp_dnn_0.55_clock_10_n02708093_5311.png,n02708093_5311.png,1.0,-0.037486497,-0.82115823,0.5541396
alexnet_w1_mlp_simclrhn_probe0,1,33,NaN,chair,chair,0.55,0033_hp_dnn_0.55_chair_10_n03376595_10460.png,n03376595_10460.png,1.0,0.10965249,0.03542395,0.052487504
alexnet_w1_mlp_simclrhn_probe0,1,34,NaN,bicycle,bear,3,0034_hp_dnn_3_bear_10_n02133161_1118.png,n02133161_1118.png,0.0,-7.460739,-4.0319996,-2.424485
alexnet_w1_mlp_simclrhn_probe0,1,35,NaN,airplane,knife,3,0035_hp_dnn_3_knife_10_n03041632_11603.png,n03041632_11603.png,0.0,-1.3699642,-0.5833477,-0.5562219
alexnet_w1_mlp_simclrhn_probe0,1,36,NaN,elephant,dog,0.4,0036_hp_dnn_0.4_dog_10_n02108422_7493.png,n02108422_7493.png,0.0,-1.3387678,-0.44785464,-0.6299707
alexnet_w1_mlp_simclrhn_probe0,1,37,NaN,bicycle,keyboard,3,0037_hp_dnn_3_keyboard_10_n04505470_550.png,n04505470_550.png,0.0,-3.611391,-2.3311915,-0.9052378
alexnet_w1_mlp_simclrhn_probe0,1,38,NaN,bird,dog,1.5,0038_hp_dnn_1.5_dog_10_n02097047_1003.png,n02097047_1003.png,0.0,-5.2275944,-3.294224,-1.3670993
alexnet_w1_mlp_simclrhn_probe0,1,39,NaN,bird,bird,1.5,0039_hp_dnn_1.5_bird_10_n01616318_9819.png,n01616318_9819.png,1.0,-2.672103,-2.9209108,0.17593376
alexnet_w1_mlp_simclrhn_probe0,1,40,NaN,elephant,cat,0.55,0040_hp_dnn_0.55_cat_10_n02123597_1016.png,n02123597_1016.png,0.0,-0.6063171,-0.3865868,-0.1553728
alexnet_w1_mlp_simclrhn_probe0,1,41,NaN,elephant,bear,1,0041_hp_dnn_1_bear_10_n02134418_971.png,n02134418_971.png,0.0,-2.968565,-1.6465375,-0.9348146
alexnet_w1_mlp_simclrhn_probe0,1,42,NaN,elephant,bear,0.7,0042_hp_dnn_0.7_bear_10_n02132136_10944.png,n02132136_10944.png,0.0,-3.1069484,-0.29852447,-1.9858557
alexnet_w1_mlp_simclrhn_probe0,1,43,NaN,elephant,elephant,1,0043_hp_dnn_1_elephant_10_n02504458_4439.png,n02504458_4439.png,1.0,-1.1029458,-2.183275,0.7639081
alexnet_w1_mlp_simclrhn_probe0,1,44,NaN,keyboard,keyboard,0.4,0044_hp_dnn_0.4_keyboard_10_n03085013_2362.png,n03085013_2362.png,1.0,0.7539399,0.08096304,0.47586656
alexnet_w1_mlp_simclrhn_probe0,1,45,NaN,clock,dog,1.5,0045_hp_dnn_1.5_dog_10_n02097474_9488.png,n02097474_9488.png,0.0,-3.1886601,-2.2049942,-0.6955569
alexnet_w1_mlp_simclrhn_probe0,1,46,NaN,clock,clock,inf,0046_hp_dnn_inf_clock_10_n04548280_3308.png,n04548280_3308.png,1.0,4.6094522,-2.3562818,4.925518
alexnet_w1_mlp_simclrhn_probe0,1,47,NaN,clock,bear,1.5,0047_hp_dnn_1.5_bear_10_n02133161_334.png,n02133161_334.png,0.0,-3.1834536,-1.948959,-0.8729195
alexnet_w1_mlp_simclrhn_probe0,1,48,NaN,clock,knife,0.45,0048_hp_dnn_0.45_knife_10_n03041632_6708.png,n03041632_6708.png,0.0,-1.2215971,-0.62436545,-0.42230654
alexnet_w1_mlp_simclrhn_probe0,1,49,NaN,car,car,0.55,0049_hp_dnn_0.55_car_10_n02814533_81092.png,n02814533_81092.png,1.0,-0.7871849,-0.8956134,0.07667051
alexnet_w1_mlp_simclrhn_probe0,1,50,NaN,bottle,bottle,0.45,0050_hp_dnn_0.45_bottle_10_n03937543_11897.png,n03937543_11897.png,1.0,0.11765375,0.0673465,0.0355726
alexnet_w1_mlp_simclrhn_probe0,1,51,NaN,airplane,airplane,3,0051_hp_dnn_3_airplane_10_n02690373_4429.png,n02690373_4429.png,1.0,-0.105493516,-0.7562235,0.4601356
alexnet_w1_mlp_simclrhn_probe0,1,52,NaN,clock,knife,0.4,0052_hp_dnn_0.4_knife_10_n03041632_22964.png,n03041632_22964.png,0.0,-0.8376237,-0.37895134,-0.32433036
alexnet_w1_mlp_simclrhn_probe0,1,53,NaN,boat,knife,1.5,0053_hp_dnn_1.5_knife_10_n03041632_33075.png,n03041632_33075.png,0.0,-0.7161967,-0.554502,-0.114335425
alexnet_w1_mlp_simclrhn_probe0,1,54,NaN,elephant,bird,0.7,0054_hp_dnn_0.7_bird_10_n02006656_1412.png,n02006656_1412.png,0.0,-1.4561434,-0.6557101,-0.5659918
alexnet_w1_mlp_simclrhn_probe0,1,55,NaN,clock,clock,1,0055_hp_dnn_1_clock_10_n02708093_3173.png,n02708093_3173.png,1.0,4.982916,-0.47563002,3.8597748
alexnet_w1_mlp_simclrhn_probe0,1,56,NaN,airplane,keyboard,0.45,0056_hp_dnn_0.45_keyboard_10_n03085013_22016.png,n03085013_22016.png,0.0,-0.2089462,0.44052076,-0.45924252
alexnet_w1_mlp_simclrhn_probe0,1,57,NaN,elephant,elephant,0.55,0057_hp_dnn_0.55_elephant_10_n02504458_11214.png,n02504458_11214.png,1.0,-0.5263128,-0.8186192,0.20669182
alexnet_w1_mlp_simclrhn_probe0,1,58,NaN,clock,chair,0.7,0058_hp_dnn_0.7_chair_10_n04099969_13775.png,n04099969_13775.png,0.0,-0.36535195,-0.009710908,-0.2514762
alexnet_w1_mlp_simclrhn_probe0,1,59,NaN,clock,bicycle,0.4,0059_hp_dnn_0.4_bicycle_10_n02835271_8098.png,n02835271_8098.png,0.0,-0.7316008,-0.38427743,-0.24559473
alexnet_w1_mlp_simclrhn_probe0,1,60,NaN,clock,clock,0.4,0060_hp_dnn_0.4_clock_10_n04548280_1126.png,n04548280_1126.png,1.0,0.536118,0.113303505,0.298975
alexnet_w1_mlp_simclrhn_probe0,1,61,NaN,clock,bicycle,0.45,0061_hp_dnn_0.45_bicycle_10_n02835271_2050.png,n02835271_2050.png,0.0,-0.47248864,-0.34995934,-0.0866413
alexnet_w1_mlp_simclrhn_probe0,1,62,NaN,oven,oven,1,0062_hp_dnn_1_oven_10_n04111531_891.png,n04111531_891.png,1.0,-1.6746944,-1.9155039,0.170278
alexnet_w1_mlp_simclrhn_probe0,1,63,NaN,clock,bottle,0.7,0063_hp_dnn_0.7_bottle_10_n02823428_6201.png,n02823428_6201.png,0.0,-0.417393,-0.31613204,-0.071602315
alexnet_w1_mlp_simclrhn_probe0,1,64,NaN,bicycle,bicycle,0.7,0064_hp_dnn_0.7_bicycle_10_n02835271_20175.png,n02835271_20175.png,1.0,0.6778581,-0.22295232,0.63696915
alexnet_w1_mlp_simclrhn_probe0,1,65,NaN,bicycle,cat,3,0065_hp_dnn_3_cat_10_n02123597_13175.png,n02123597_13175.png,0.0,-2.8321753,-2.5664258,-0.18791324
alexnet_w1_mlp_simclrhn_probe0,1,66,NaN,clock,dog,0.4,0066_hp_dnn_0.4_dog_10_n02085936_4391.png,n02085936_4391.png,0.0,-0.8830322,-0.24124742,-0.4538104
alexnet_w1_mlp_simclrhn_probe0,1,67,NaN,airplane,airplane,1.5,0067_hp_dnn_1.5_airplane_10_n02690373_8846.png,n02690373_8846.png,1.0,1.7308402,-1.509825,2.2914963
alexnet_w1_mlp_simclrhn_probe0,1,68,NaN,chair,cat,1.5,0068_hp_dnn_1.5_cat_10_n02123597_10301.png,n02123597_10301.png,0.0,-2.1000962,-1.6697204,-0.30432168
alexnet_w1_mlp_simclrhn_probe0,1,69,NaN,elephant,elephant,0.7,0069_hp_dnn_0.7_elephant_10_n02504458_6135.png,n02504458_6135.png,1.0,-0.47944406,-1.7797564,0.91945976
alexnet_w1_mlp_simclrhn_probe0,1,70,NaN,clock,keyboard,0.45,0070_hp_dnn_0.45_keyboard_10_n03085013_22585.png,n03085013_22585.png,0.0,-0.8094392,-0.35767484,-0.31944564
alexnet_w1_mlp_simclrhn_probe0,1,71,NaN,bicycle,bird,1,0071_hp_dnn_1_bird_10_n02017213_1150.png,n02017213_1150.png,0.0,-2.3538845,-2.184106,-0.12005142
alexnet_w1_mlp_simclrhn_probe0,1,72,NaN,chair,bottle,3,0072_hp_dnn_3_bottle_10_n04560804_30885.png,n04560804_30885.png,0.0,-3.1219976,0.036984183,-2.2337375
alexnet_w1_mlp_simclrhn_probe0,1,73,NaN,bicycle,bicycle,inf,0073_hp_dnn_inf_bicycle_10_n02835271_9191.png,n02835271_9191.png,1.0,5.8927813,-9.044376,10.562165
alexnet_w1_mlp_simclrhn_probe0,1,74,NaN,oven,truck,inf,0074_hp_dnn_inf_truck_10_n03796401_7699.png,n03796401_7699.png,0.0,-3.2001677,-2.2957902,-0.63949144
alexnet_w1_mlp_simclrhn_probe0,1,75,NaN,knife,knife,1.5,0075_hp_dnn_1.5_knife_10_n03041632_50332.png,n03041632_50332.png,1.0,0.024955004,-0.9566514,0.6941005
alexnet_w1_mlp_simclrhn_probe0,1,76,NaN,knife,knife,0.55,0076_hp_dnn_0.55_knife_10_n03041632_36247.png,n03041632_36247.png,1.0,-0.8394805,-0.9825541,0.10116828
alexnet_w1_mlp_simclrhn_probe0,1,77,NaN,clock,knife,1.5,0077_hp_dnn_1.5_knife_10_n03041632_23667.png,n03041632_23667.png,0.0,-3.961233,-1.9668078,-1.4102715
alexnet_w1_mlp_simclrhn_probe0,1,78,NaN,bird,dog,3,0078_hp_dnn_3_dog_10_n02102973_7028.png,n02102973_7028.png,0.0,-6.49576,-2.3638146,-2.9217267
alexnet_w1_mlp_simclrhn_probe0,1,79,NaN,keyboard,oven,0.55,0079_hp_dnn_0.55_oven_10_n04111531_9867.png,n04111531_9867.png,0.0,-2.3719356,-0.69923925,-1.1827749
alexnet_w1_mlp_simclrhn_probe0,1,80,NaN,car,car,0.55,0080_hp_dnn_0.55_car_10_n02814533_8121.png,n02814533_8121.png,1.0,0.1361913,-0.19595984,0.2348663
alexnet_w1_mlp_simclrhn_probe0,1,81,NaN,clock,boat,0.55,0081_hp_dnn_0.55_boat_10_n03662601_5210.png,n03662601_5210.png,0.0,-0.371088,-0.2928448,-0.055326294
alexnet_w1_mlp_simclrhn_probe0,1,82,NaN,car,car,1.5,0082_hp_dnn_1.5_car_10_n03100240_6192.png,n03100240_6192.png,1.0,-0.52199286,-1.3822956,0.6083259
alexnet_w1_mlp_simclrhn_probe0,1,83,NaN,clock,oven,0.45,0083_hp_dnn_0.45_oven_10_n04111531_9314.png,n04111531_9314.png,0.0,-1.7122155,-0.34043932,-0.9699923
alexnet_w1_mlp_simclrhn_probe0,1,84,NaN,clock,cat,0.4,0084_hp_dnn_0.4_cat_10_n02123045_5189.png,n02123045_5189.png,0.0,-0.6104433,-0.4195926,-0.13495183
alexnet_w1_mlp_simclrhn_probe0,1,85,NaN,clock,truck,0.7,0085_hp_dnn_0.7_truck_10_n04467665_30189.png,n04467665_30189.png,0.0,-1.1541406,-0.14657272,-0.7124581
alexnet_w1_mlp_simclrhn_probe0,1,86,NaN,airplane,airplane,1.5,0086_hp_dnn_1.5_airplane_10_n02690373_3377.png,n02690373_3377.png,1.0,0.7791374,-0.47675452,0.8880497
alexnet_w1_mlp_simclrhn_probe0,1,87,NaN,clock,oven,0.4,0087_hp_dnn_0.4_oven_10_n04111531_1750.png,n04111531_1750.png,0.0,-1.4075681,-0.43851718,-0.68522245
alexnet_w1_mlp_simclrhn_probe0,1,88,NaN,cat,dog,inf,0088_hp_dnn_inf_dog_10_n02097047_2877.png,n02097047_2877.png,0.0,-4.6394596,-2.8980973,-1.2313291
alexnet_w1_mlp_simclrhn_probe0,1,89,NaN,cat,cat,inf,0089_hp_dnn_inf_cat_10_n02124075_15171.png,n02124075_15171.png,1.0,2.7818048,-3.580778,4.4990253
alexnet_w1_mlp_simclrhn_probe0,1,90,NaN,clock,car,0.4,0090_hp_dnn_0.4_car_10_n03100240_23060.png,n03100240_23060.png,0.0,-0.7857537,-0.34363362,-0.31262612
alexnet_w1_mlp_simclrhn_probe0,1,91,NaN,knife,knife,inf,0091_hp_dnn_inf_knife_10_n03041632_20595.png,n03041632_20595.png,1.0,-6.9497275,-8.179586,0.86964154
alexnet_w1_mlp_simclrhn_probe0,1,92,NaN,clock,knife,0.45,0092_hp_dnn_0.45_knife_10_n03041632_2184.png,n03041632_2184.png,0.0,-1.232033,-0.509196,-0.511123
alexnet_w1_mlp_simclrhn_probe0,1,93,NaN,airplane,knife,0.4,0093_hp_dnn_0.4_knife_10_n03041632_42162.png,n03041632_42162.png,0.0,-0.071595915,0.063578025,-0.09558242
alexnet_w1_mlp_simclrhn_probe0,1,94,NaN,chair,elephant,1,0094_hp_dnn_1_elephant_10_n02504458_3535.png,n02504458_3535.png,0.0,-2.5131865,-1.361795,-0.8141568
alexnet_w1_mlp_simclrhn_probe0,1,95,NaN,bottle,bird,inf,0095_hp_dnn_inf_bird_10_n02056570_11311.png,n02056570_11311.png,0.0,-8.128496,-6.6029706,-1.0787095
alexnet_w1_mlp_simclrhn_probe0,1,96,NaN,airplane,chair,0.4,0096_hp_dnn_0.4_chair_10_n03376595_4121.png,n03376595_4121.png,0.0,-0.41759086,0.16103446,-0.4091499
alexnet_w1_mlp_simclrhn_probe0,1,97,NaN,chair,dog,1,0097_hp_dnn_1_dog_10_n02086240_3572.png,n02086240_3572.png,0.0,-3.9473062,-2.2724862,-1.1842766
alexnet_w1_mlp_simclrhn_probe0,1,98,NaN,elephant,elephant,inf,0098_hp_dnn_inf_elephant_10_n02504013_4523.png,n02504013_4523.png,1.0,7.4030147,-4.3721128,8.326273
alexnet_w1_mlp_simclrhn_probe0,1,99,NaN,truck,chair,inf,0099_hp_dnn_inf_chair_10_n04429376_7902.png,n04429376_7902.png,0.0,-4.645796,-3.6513274,-0.7031954
alexnet_w1_mlp_simclrhn_probe0,1,100,NaN,clock,bird,0.45,0100_hp_dnn_0.45_bird_10_n01530575_14402.png,n01530575_14402.png,0.0,-0.697012,-0.39143836,-0.2160732
alexnet_w1_mlp_simclrhn_probe0,1,101,NaN,clock,bottle,0.55,0101_hp_dnn_0.55_bottle_10_n02823428_11140.png,n02823428_11140.png,0.0,-0.5607782,0.10296298,-0.46933588
alexnet_w1_mlp_simclrhn_probe0,1,102,NaN,airplane,airplane,0.55,0102_hp_dnn_0.55_airplane_10_n02690373_7685.png,n02690373_7685.png,1.0,0.25050774,0.006579846,0.17248307
alexnet_w1_mlp_simclrhn_probe0,1,103,NaN,airplane,boat,0.45,0103_hp_dnn_0.45_boat_10_n03344393_4827.png,n03344393_4827.png,0.0,0.15398747,0.3113935,-0.111302875
alexnet_w1_mlp_simclrhn_probe0,1,104,NaN,knife,dog,0.7,0104_hp_dnn_0.7_dog_10_n02088364_8674.png,n02088364_8674.png,0.0,-3.5016203,-1.5838121,-1.3560952
alexnet_w1_mlp_simclrhn_probe0,1,105,NaN,clock,knife,0.45,0105_hp_dnn_0.45_knife_10_n03041632_32004.png,n03041632_32004.png,0.0,-0.81326693,-0.65947825,-0.10874502
alexnet_w1_mlp_simclrhn_probe0,1,106,NaN,keyboard,keyboard,3,0106_hp_dnn_3_keyboard_10_n03085013_22949.png,n03085013_22949.png,1.0,2.7504473,-0.88608223,2.5714147
alexnet_w1_mlp_simclrhn_probe0,1,107,NaN,clock,knife,0.7,0107_hp_dnn_0.7_knife_10_n03041632_4044.png,n03041632_4044.png,0.0,-0.9654294,-0.81294495,-0.107822806
alexnet_w1_mlp_simclrhn_probe0,1,108,NaN,airplane,airplane,1.5,0108_hp_dnn_1.5_airplane_10_n02690373_6455.png,n02690373_6455.png,1.0,3.233996,-0.26276323,2.472582
alexnet_w1_mlp_simclrhn_probe0,1,109,NaN,airplane,airplane,0.55,0109_hp_dnn_0.55_airplane_10_n02690373_19646.png,n02690373_19646.png,1.0,0.15550405,-0.38024452,0.37883148
alexnet_w1_mlp_simclrhn_probe0,1,110,NaN,boat,boat,inf,0110_hp_dnn_inf_boat_10_n04612504_1692.png,n04612504_1692.png,1.0,1.1816393,-2.7885602,2.8073552
alexnet_w1_mlp_simclrhn_probe0,1,111,NaN,bottle,cat,0.55,0111_hp_dnn_0.55_cat_10_n02124075_853.png,n02124075_853.png,0.0,-1.2688525,-1.0302492,-0.16871797
alexnet_w1_mlp_simclrhn_probe0,1,112,NaN,boat,boat,1,0112_hp_dnn_1_boat_10_n04273569_6071.png,n04273569_6071.png,1.0,-1.216917,-1.4201465,0.1437049
alexnet_w1_mlp_simclrhn_probe0,1,113,NaN,bicycle,bird,1.5,0113_hp_dnn_1.5_bird_10_n01616318_1214.png,n01616318_1214.png,0.0,-3.4150383,-2.6113477,-0.5682951
alexnet_w1_mlp_simclrhn_probe0,1,114,NaN,car,car,1.5,0114_hp_dnn_1.5_car_10_n02814533_14627.png,n02814533_14627.png,1.0,-0.27885273,-0.6510375,0.26317438
alexnet_w1_mlp_simclrhn_probe0,1,115,NaN,clock,keyboard,0.7,0115_hp_dnn_0.7_keyboard_10_n03085013_1483.png,n03085013_1483.png,0.0,-0.87796056,-0.47615576,-0.28411892
alexnet_w1_mlp_simclrhn_probe0,1,116,NaN,airplane,airplane,0.55,0116_hp_dnn_0.55_airplane_10_n02690373_7401.png,n02690373_7401.png,1.0,1.3307554,-0.31123653,1.1610636
alexnet_w1_mlp_simclrhn_probe0,1,117,NaN,clock,keyboard,0.55,0117_hp_dnn_0.55_keyboard_10_n03085013_6963.png,n03085013_6963.png,0.0,-0.9040366,-0.24131815,-0.4686127
alexnet_w1_mlp_simclrhn_probe0,1,118,NaN,bicycle,knife,3,0118_hp_dnn_3_knife_10_n03041632_1407.png,n03041632_1407.png,0.0,-4.851055,-1.6388066,-2.2714028
alexnet_w1_mlp_simclrhn_probe0,1,119,NaN,chair,elephant,1.5,0119_hp_dnn_1.5_elephant_10_n02504458_5137.png,n02504458_5137.png,0.0,-2.8960671,-2.6736188,-0.15729474
alexnet_w1_mlp_simclrhn_probe0,1,120,NaN,clock,clock,inf,0120_hp_dnn_inf_clock_10_n02708093_6635.png,n02708093_6635.png,1.0,2.6537817,-0.91716397,2.52504
alexnet_w1_mlp_simclrhn_probe0,1,121,NaN,clock,oven,0.4,0121_hp_dnn_0.4_oven_10_n04111531_5927.png,n04111531_5927.png,0.0,-1.5566254,-0.48751545,-0.7559749
alexnet_w1_mlp_simclrhn_probe0,1,122,NaN,clock,clock,inf,0122_hp_dnn_inf_clock_10_n02708093_2043.png,n02708093_2043.png,1.0,-0.74788046,-3.970518,2.278749
alexnet_w1_mlp_simclrhn_probe0,1,123,NaN,airplane,airplane,0.4,0123_hp_dnn_0.4_airplane_10_n02690373_7300.png,n02690373_7300.png,1.0,0.29846063,-0.25542316,0.391655
alexnet_w1_mlp_simclrhn_probe0,1,124,NaN,keyboard,oven,0.55,0124_hp_dnn_0.55_oven_10_n04111531_190.png,n04111531_190.png,0.0,-2.4250693,-0.71741724,-1.2074924
alexnet_w1_mlp_simclrhn_probe0,1,125,NaN,bird,dog,3,0125_hp_dnn_3_dog_10_n02091244_8497.png,n02091244_8497.png,0.0,-6.943459,-2.827994,-2.9100733
alexnet_w1_mlp_simclrhn_probe0,1,126,NaN,elephant,bicycle,0.7,0126_hp_dnn_0.7_bicycle_10_n03792782_15932.png,n03792782_15932.png,0.0,-2.7583146,-0.7682574,-1.4071829
alexnet_w1_mlp_simclrhn_probe0,1,127,NaN,elephant,bear,0.4,0127_hp_dnn_0.4_bear_10_n02133161_463.png,n02133161_463.png,0.0,-0.89274746,-0.42291918,-0.33221877
alexnet_w1_mlp_simclrhn_probe0,1,128,NaN,keyboard,cat,0.7,0128_hp_dnn_0.7_cat_10_n02123045_11126.png,n02123045_11126.png,0.0,-2.739535,-1.6152589,-0.7949833
alexnet_w1_mlp_simclrhn_probe0,1,129,NaN,clock,clock,0.7,0129_hp_dnn_0.7_clock_10_n04548280_8646.png,n04548280_8646.png,1.0,-0.25381634,-0.3852477,0.09293602
alexnet_w1_mlp_simclrhn_probe0,1,130,NaN,keyboard,bottle,0.55,0130_hp_dnn_0.55_bottle_10_n03983396_11597.png,n03983396_11597.png,0.0,-1.0760065,-0.7839565,-0.20651054
alexnet_w1_mlp_simclrhn_probe0,1,131,NaN,truck,truck,3,0131_hp_dnn_3_truck_10_n03417042_212.png,n03417042_212.png,1.0,-1.8920393,-3.1366034,0.8800397
alexnet_w1_mlp_simclrhn_probe0,1,132,NaN,keyboard,keyboard,1,0132_hp_dnn_1_keyboard_10_n04505470_1724.png,n04505470_1724.png,1.0,-1.765806,-1.8611292,0.06740369
alexnet_w1_mlp_simclrhn_probe0,1,133,NaN,chair,chair,1,0133_hp_dnn_1_chair_10_n04099969_14028.png,n04099969_14028.png,1.0,-0.6353871,-1.2766317,0.45342842
alexnet_w1_mlp_simclrhn_probe0,1,134,NaN,clock,cat,0.45,0134_hp_dnn_0.45_cat_10_n02124075_2138.png,n02124075_2138.png,0.0,-1.0982141,-0.41071868,-0.4861327
alexnet_w1_mlp_simclrhn_probe0,1,135,NaN,airplane,boat,inf,0135_hp_dnn_inf_boat_10_n03662601_3145.png,n03662601_3145.png,0.0,-1.1462196,2.2518713,-2.4028132
alexnet_w1_mlp_simclrhn_probe0,1,136,NaN,bicycle,cat,3,0136_hp_dnn_3_cat_10_n02123045_1120.png,n02123045_1120.png,0.0,-4.843781,-3.4759336,-0.9672142
alexnet_w1_mlp_simclrhn_probe0,1,137,NaN,boat,boat,inf,0137_hp_dnn_inf_boat_10_n04612504_31305.png,n04612504_31305.png,1.0,1.9961269,-1.8900473,2.74794
alexnet_w1_mlp_simclrhn_probe0,1,138,NaN,clock,chair,1,0138_hp_dnn_1_chair_10_n04099969_4275.png,n04099969_4275.png,0.0,-0.9351676,-0.9314161,-0.0026527226
alexnet_w1_mlp_simclrhn_probe0,1,139,NaN,clock,keyboard,0.4,0139_hp_dnn_0.4_keyboard_10_n03085013_23005.png,n03085013_23005.png,0.0,-0.71894217,-0.40588033,-0.22136815
alexnet_w1_mlp_simclrhn_probe0,1,140,NaN,airplane,airplane,1,0140_hp_dnn_1_airplane_10_n02690373_9618.png,n02690373_9618.png,1.0,-0.63937384,-1.5679307,0.65658885
alexnet_w1_mlp_simclrhn_probe0,1,141,NaN,airplane,knife,0.55,0141_hp_dnn_0.55_knife_10_n03041632_17338.png,n03041632_17338.png,0.0,-0.3917079,-0.025292562,-0.25909477
alexnet_w1_mlp_simclrhn_probe0,1,142,NaN,clock,clock,0.45,0142_hp_dnn_0.45_clock_10_n04548280_8225.png,n04548280_8225.png,1.0,-0.2738717,-0.80784726,0.37757778
alexnet_w1_mlp_simclrhn_probe0,1,143,NaN,car,car,inf,0143_hp_dnn_inf_car_10_n03100240_8907.png,n03100240_8907.png,1.0,3.9543514,-1.7162153,4.009696
alexnet_w1_mlp_simclrhn_probe0,1,144,NaN,chair,chair,1.5,0144_hp_dnn_1.5_chair_10_n03376595_6865.png,n03376595_6865.png,1.0,-0.01636076,-1.9471905,1.3653028
alexnet_w1_mlp_simclrhn_probe0,1,145,NaN,clock,bicycle,0.45,0145_hp_dnn_0.45_bicycle_10_n03792782_44296.png,n03792782_44296.png,0.0,-1.1218691,-0.7049809,-0.29478446
alexnet_w1_mlp_simclrhn_probe0,1,146,NaN,bicycle,boat,1.5,0146_hp_dnn_1.5_boat_10_n04273569_1233.png,n04273569_1233.png,0.0,-3.0797868,-2.2598805,-0.57976127
alexnet_w1_mlp_simclrhn_probe0,1,147,NaN,bottle,bird,1,0147_hp_dnn_1_bird_10_n01824575_12784.png,n01824575_12784.png,0.0,-3.3440118,-3.0709078,-0.19311365
alexnet_w1_mlp_simclrhn_probe0,1,148,NaN,airplane,boat,3,0148_hp_dnn_3_boat_10_n03344393_408.png,n03344393_408.png,0.0,0.64185286,0.918144,-0.19536734
alexnet_w1_mlp_simclrhn_probe0,1,149,NaN,airplane,airplane,1,0149_hp_dnn_1_airplane_10_n02690373_220.png,n02690373_220.png,1.0,2.0518506,-0.06868816,1.4994473
alexnet_w1_mlp_simclrhn_probe0,1,150,NaN,chair,chair,3,0150_hp_dnn_3_chair_10_n04429376_10546.png,n04429376_10546.png,1.0,-1.9454893,-3.0337067,0.7694859
alexnet_w1_mlp_simclrhn_probe0,1,151,NaN,keyboard,oven,0.7,0151_hp_dnn_0.7_oven_10_n04111531_4749.png,n04111531_4749.png,0.0,-2.201283,-1.2893258,-0.6448511
alexnet_w1_mlp_simclrhn_probe0,1,152,NaN,clock,truck,0.4,0152_hp_dnn_0.4_truck_10_n03417042_18124.png,n03417042_18124.png,0.0,-0.571883,-0.16237177,-0.2895682
alexnet_w1_mlp_simclrhn_probe0,1,153,NaN,bottle,clock,3,0153_hp_dnn_3_clock_10_n03196217_7353.png,n03196217_7353.png,0.0,-3.4305546,-3.0712187,-0.25408885
alexnet_w1_mlp_simclrhn_probe0,1,154,NaN,clock,dog,0.7,0154_hp_dnn_0.7_dog_10_n02098286_2699.png,n02098286_2699.png,0.0,-2.2442496,-0.99234754,-0.88522846
alexnet_w1_mlp_simclrhn_probe0,1,155,NaN,airplane,truck,0.4,0155_hp_dnn_0.4_truck_10_n03796401_3651.png,n03796401_3651.png,0.0,-0.7651948,-0.24050371,-0.3710126
alexnet_w1_mlp_simclrhn_probe0,1,156,NaN,clock,bottle,0.4,0156_hp_dnn_0.4_bottle_10_n03983396_4165.png,n03983396_4165.png,0.0,-0.43056712,-0.22878768,-0.14267962
alexnet_w1_mlp_simclrhn_probe0,1,157,NaN,clock,knife,1,0157_hp_dnn_1_knife_10_n03041632_25257.png,n03041632_25257.png,0.0,-3.668727,-1.752232,-1.3551666
alexnet_w1_mlp_simclrhn_probe0,1,158,NaN,chair,chair,3,0158_hp_dnn_3_chair_10_n04099969_1229.png,n04099969_1229.png,1.0,0.44682562,-3.5387871,2.818254
alexnet_w1_mlp_simclrhn_probe0,1,159,NaN,bear,bird,inf,0159_hp_dnn_inf_bird_10_n01798484_518.png,n01798484_518.png,0.0,-1.3922988,-1.3792725,-0.009211025
alexnet_w1_mlp_simclrhn_probe0,1,160,NaN,bird,bird,inf,0160_hp_dnn_inf_bird_10_n01797886_1953.png,n01797886_1953.png,1.0,-5.7483664,-7.6274486,1.3287117
alexnet_w1_mlp_simclrhn_probe0,1,161,NaN,bird,bird,3,0161_hp_dnn_3_bird_10_n01820546_228.png,n01820546_228.png,1.0,-2.2521305,-2.6234126,0.2625361
alexnet_w1_mlp_simclrhn_probe0,1,162,NaN,bird,bear,1.5,0162_hp_dnn_1.5_bear_10_n02134418_2666.png,n02134418_2666.png,0.0,-4.0852866,-3.334155,-0.5311302
alexnet_w1_mlp_simclrhn_probe0,1,163,NaN,boat,boat,1.5,0163_hp_dnn_1.5_boat_10_n03344393_7659.png,n03344393_7659.png,1.0,1.3357848,-0.27776128,1.1409495
alexnet_w1_mlp_simclrhn_probe0,1,164,NaN,bottle,oven,1.5,0164_hp_dnn_1.5_oven_10_n04111531_1752.png,n04111531_1752.png,0.0,-3.5733967,-3.3778155,-0.1382968
alexnet_w1_mlp_simclrhn_probe0,1,165,NaN,elephant,dog,inf,0165_hp_dnn_inf_dog_10_n02091032_8873.png,n02091032_8873.png,0.0,-9.314621,-3.6251075,-4.023093
alexnet_w1_mlp_simclrhn_probe0,1,166,NaN,clock,oven,0.7,0166_hp_dnn_0.7_oven_10_n04111531_14559.png,n04111531_14559.png,0.0,-2.142699,-0.5831519,-1.1027664
alexnet_w1_mlp_simclrhn_probe0,1,167,NaN,elephant,cat,0.7,0167_hp_dnn_0.7_cat_10_n02123045_114.png,n02123045_114.png,0.0,-1.5412283,-1.0214541,-0.36753586
alexnet_w1_mlp_simclrhn_probe0,1,168,NaN,cat,cat,3,0168_hp_dnn_3_cat_10_n02123597_13865.png,n02123597_13865.png,1.0,-1.164609,-3.3100057,1.5170246
alexnet_w1_mlp_simclrhn_probe0,1,169,NaN,knife,knife,0.55,0169_hp_dnn_0.55_knife_10_n03041632_13478.png,n03041632_13478.png,1.0,-0.18888001,-0.4596473,0.19146138
alexnet_w1_mlp_simclrhn_probe0,1,170,NaN,elephant,elephant,0.55,0170_hp_dnn_0.55_elephant_10_n02504458_2618.png,n02504458_2618.png,1.0,-0.3824489,-1.0532054,0.47429645
alexnet_w1_mlp_simclrhn_probe0,1,171,NaN,clock,truck,1,0171_hp_dnn_1_truck_10_n04467665_56954.png,n04467665_56954.png,0.0,-2.2741976,-0.9222479,-0.9559728
alexnet_w1_mlp_simclrhn_probe0,1,172,NaN,clock,chair,1,0172_hp_dnn_1_chair_10_n04429376_1791.png,n04429376_1791.png,0.0,-1.4224367,-0.59853077,-0.5825895
alexnet_w1_mlp_simclrhn_probe0,1,173,NaN,bottle,bottle,3,0173_hp_dnn_3_bottle_10_n04560804_33214.png,n04560804_33214.png,1.0,-0.99870557,-1.1723325,0.122772805
alexnet_w1_mlp_simclrhn_probe0,1,174,NaN,knife,knife,inf,0174_hp_dnn_inf_knife_10_n03041632_48816.png,n03041632_48816.png,1.0,-0.16930734,-2.7404025,1.818039
alexnet_w1_mlp_simclrhn_probe0,1,175,NaN,cat,cat,3,0175_hp_dnn_3_cat_10_n02123394_2274.png,n02123394_2274.png,1.0,-2.3408139,-3.4796736,0.80529547
alexnet_w1_mlp_simclrhn_probe0,1,176,NaN,truck,truck,1.5,0176_hp_dnn_1.5_truck_10_n03796401_1326.png,n03796401_1326.png,1.0,1.3105693,-0.13917033,1.0251207
alexnet_w1_mlp_simclrhn_probe0,1,177,NaN,clock,knife,0.55,0177_hp_dnn_0.55_knife_10_n03041632_11887.png,n03041632_11887.png,0.0,-0.28718716,-0.049782872,-0.16787018
alexnet_w1_mlp_simclrhn_probe0,1,178,NaN,knife,dog,0.7,0178_hp_dnn_0.7_dog_10_n02113978_8008.png,n02113978_8008.png,0.0,-1.9439408,-0.846833,-0.77577233
alexnet_w1_mlp_simclrhn_probe0,1,179,NaN,elephant,cat,0.4,0179_hp_dnn_0.4_cat_10_n02123045_4812.png,n02123045_4812.png,0.0,-0.9659216,-0.5027392,-0.32751942
alexnet_w1_mlp_simclrhn_probe0,1,180,NaN,knife,bird,inf,0180_hp_dnn_inf_bird_10_n01833805_3578.png,n01833805_3578.png,0.0,-6.7569156,-3.2598987,-2.4727645
alexnet_w1_mlp_simclrhn_probe0,1,181,NaN,truck,truck,1,0181_hp_dnn_1_truck_10_n03417042_3398.png,n03417042_3398.png,1.0,-0.8979383,-1.2222655,0.22933395
alexnet_w1_mlp_simclrhn_probe0,1,182,NaN,elephant,bird,0.7,0182_hp_dnn_0.7_bird_10_n02007558_4566.png,n02007558_4566.png,0.0,-2.2162344,-1.5464839,-0.4735852
alexnet_w1_mlp_simclrhn_probe0,1,183,NaN,chair,knife,0.45,0183_hp_dnn_0.45_knife_10_n03041632_3516.png,n03041632_3516.png,0.0,-0.5677671,-0.5082763,-0.04206635
alexnet_w1_mlp_simclrhn_probe0,1,184,NaN,chair,cat,1.5,0184_hp_dnn_1.5_cat_10_n02124075_14965.png,n02124075_14965.png,0.0,-2.9598935,-2.603757,-0.25182658
alexnet_w1_mlp_simclrhn_probe0,1,185,NaN,airplane,bird,0.4,0185_hp_dnn_0.4_bird_10_n01843065_2176.png,n01843065_2176.png,0.0,-0.47236392,-0.35945222,-0.07984063
alexnet_w1_mlp_simclrhn_probe0,1,186,NaN,bicycle,knife,3,0186_hp_dnn_3_knife_10_n03041632_21034.png,n03041632_21034.png,0.0,-4.6166916,-3.175063,-1.0193855
alexnet_w1_mlp_simclrhn_probe0,1,187,NaN,truck,keyboard,1.5,0187_hp_dnn_1.5_keyboard_10_n03085013_24026.png,n03085013_24026.png,0.0,-1.7446272,-1.0065335,-0.5219111
alexnet_w1_mlp_simclrhn_probe0,1,188,NaN,bottle,bottle,0.55,0188_hp_dnn_0.55_bottle_10_n04560804_14395.png,n04560804_14395.png,1.0,-0.21529031,-0.5257074,0.21949805
alexnet_w1_mlp_simclrhn_probe0,1,189,NaN,chair,boat,0.45,0189_hp_dnn_0.45_boat_10_n02951358_11567.png,n02951358_11567.png,0.0,-1.4716617,-0.32388178,-0.811603
alexnet_w1_mlp_simclrhn_probe0,1,190,NaN,chair,chair,0.4,0190_hp_dnn_0.4_chair_10_n03376595_17747.png,n03376595_17747.png,1.0,-0.37783384,-0.40204343,0.017118765
alexnet_w1_mlp_simclrhn_probe0,1,191,NaN,bottle,bottle,inf,0191_hp_dnn_inf_bottle_10_n04591713_5563.png,n04591713_5563.png,1.0,-1.7485883,-3.0909624,0.9492018
alexnet_w1_mlp_simclrhn_probe0,1,192,NaN,airplane,airplane,3,0192_hp_dnn_3_airplane_10_n02690373_7496.png,n02690373_7496.png,1.0,1.8833537,-1.9848143,2.7352078
alexnet_w1_mlp_simclrhn_probe0,1,193,NaN,airplane,airplane,3,0193_hp_dnn_3_airplane_10_n02690373_4465.png,n02690373_4465.png,1.0,4.7557783,-1.7547531,4.603641
alexnet_w1_mlp_simclrhn_probe0,1,194,NaN,elephant,bear,0.4,0194_hp_dnn_0.4_bear_10_n02134418_119.png,n02134418_119.png,0.0,-0.68925405,-0.36929697,-0.22624382
alexnet_w1_mlp_simclrhn_probe0,1,195,NaN,bird,bear,1.5,0195_hp_dnn_1.5_bear_10_n02133161_1970.png,n02133161_1970.png,0.0,-5.8501167,-3.8175218,-1.4372617
alexnet_w1_mlp_simclrhn_probe0,1,196,NaN,knife,bird,1.5,0196_hp_dnn_1.5_bird_10_n02018795_5488.png,n02018795_5488.png,0.0,-2.6744382,-1.7776451,-0.6341285
alexnet_w1_mlp_simclrhn_probe0,1,197,NaN,clock,bird,0.45,0197_hp_dnn_0.45_bird_10_n01796340_1877.png,n01796340_1877.png,0.0,-0.54037,-0.3549001,-0.13114703
alexnet_w1_mlp_simclrhn_probe0,1,198,NaN,airplane,airplane,0.4,0198_hp_dnn_0.4_airplane_10_n02690373_4964.png,n02690373_4964.png,1.0,0.4364625,-0.16490272,0.42522943
alexnet_w1_mlp_simclrhn_probe0,1,199,NaN,bottle,bottle,0.4,0199_hp_dnn_0.4_bottle_10_n04591713_1762.png,n04591713_1762.png,1.0,0.050644152,-0.19621438,0.17455535
alexnet_w1_mlp_simclrhn_probe0,1,200,NaN,car,car,1,0200_hp_dnn_1_car_10_n03100240_6059.png,n03100240_6059.png,1.0,-0.8031418,-1.6096436,0.5702829
alexnet_w1_mlp_simclrhn_probe0,1,201,NaN,knife,chair,inf,0201_hp_dnn_inf_chair_10_n03376595_10769.png,n03376595_10769.png,0.0,-4.183721,-3.0088084,-0.83078873
alexnet_w1_mlp_simclrhn_probe0,1,202,NaN,oven,oven,inf,0202_hp_dnn_inf_oven_10_n04111531_1723.png,n04111531_1723.png,1.0,1.7241601,-2.9827957,3.3283205
alexnet_w1_mlp_simclrhn_probe0,1,203,NaN,airplane,bicycle,0.45,0203_hp_dnn_0.45_bicycle_10_n02835271_3570.png,n02835271_3570.png,0.0,-0.17654583,-0.030728623,-0.10310834
alexnet_w1_mlp_simclrhn_probe0,1,204,NaN,clock,knife,0.4,0204_hp_dnn_0.4_knife_10_n03041632_83826.png,n03041632_83826.png,0.0,-0.67996514,-0.40865722,-0.19184367
alexnet_w1_mlp_simclrhn_probe0,1,205,NaN,chair,keyboard,0.7,0205_hp_dnn_0.7_keyboard_10_n03085013_20673.png,n03085013_20673.png,0.0,-1.3358593,-1.1453924,-0.13468042
alexnet_w1_mlp_simclrhn_probe0,1,206,NaN,knife,knife,1,0206_hp_dnn_1_knife_10_n03041632_27575.png,n03041632_27575.png,1.0,0.30260694,-0.05310327,0.2515251
alexnet_w1_mlp_simclrhn_probe0,1,207,NaN,bird,bird,1.5,0207_hp_dnn_1.5_bird_10_n01558993_14305.png,n01558993_14305.png,1.0,-1.4589431,-2.5300064,0.7573561
alexnet_w1_mlp_simclrhn_probe0,1,208,NaN,airplane,bird,0.4,0208_hp_dnn_0.4_bird_10_n01537544_18123.png,n01537544_18123.png,0.0,-0.30713508,-0.19487993,-0.07937637
alexnet_w1_mlp_simclrhn_probe0,1,209,NaN,bicycle,bicycle,3,0209_hp_dnn_3_bicycle_10_n02835271_4307.png,n02835271_4307.png,1.0,3.047296,-3.0043879,4.2791867
alexnet_w1_mlp_simclrhn_probe0,1,210,NaN,clock,car,0.7,0210_hp_dnn_0.7_car_10_n04285008_6320.png,n04285008_6320.png,0.0,-0.96604043,-0.64404434,-0.22768563
alexnet_w1_mlp_simclrhn_probe0,1,211,NaN,elephant,elephant,0.7,0211_hp_dnn_0.7_elephant_10_n02504458_1327.png,n02504458_1327.png,1.0,-1.2728363,-1.5668269,0.20788276
alexnet_w1_mlp_simclrhn_probe0,1,212,NaN,bottle,bottle,1,0212_hp_dnn_1_bottle_10_n04560804_1813.png,n04560804_1813.png,1.0,-1.8824776,-2.178215,0.20911792
alexnet_w1_mlp_simclrhn_probe0,1,213,NaN,cat,cat,1,0213_hp_dnn_1_cat_10_n02124075_10085.png,n02124075_10085.png,1.0,-1.3077606,-1.4771981,0.119810425
alexnet_w1_mlp_simclrhn_probe0,1,214,NaN,bottle,clock,inf,0214_hp_dnn_inf_clock_10_n03196217_2853.png,n03196217_2853.png,0.0,-3.8088348,-1.0034552,-1.983703
alexnet_w1_mlp_simclrhn_probe0,1,215,NaN,boat,boat,1.5,0215_hp_dnn_1.5_boat_10_n04273569_10149.png,n04273569_10149.png,1.0,0.2553567,-1.0167805,0.89953685
alexnet_w1_mlp_simclrhn_probe0,1,216,NaN,chair,chair,3,0216_hp_dnn_3_chair_10_n03376595_17859.png,n03376595_17859.png,1.0,0.65452385,-2.5357575,2.2558696
alexnet_w1_mlp_simclrhn_probe0,1,217,NaN,clock,dog,0.55,0217_hp_dnn_0.55_dog_10_n02101556_7581.png,n02101556_7581.png,0.0,-3.2136068,-0.6782143,-1.7927933
alexnet_w1_mlp_simclrhn_probe0,1,218,NaN,clock,cat,0.4,0218_hp_dnn_0.4_cat_10_n02125311_8522.png,n02125311_8522.png,0.0,-0.74190253,-0.44993627,-0.20645133
alexnet_w1_mlp_simclrhn_probe0,1,219,NaN,clock,clock,0.45,0219_hp_dnn_0.45_clock_10_n04548280_4345.png,n04548280_4345.png,1.0,-0.05217587,-0.59219503,0.38185123
alexnet_w1_mlp_simclrhn_probe0,1,220,NaN,truck,truck,inf,0220_hp_dnn_inf_truck_10_n04467665_4088.png,n04467665_4088.png,1.0,0.9493309,0.14601982,0.5680267
alexnet_w1_mlp_simclrhn_probe0,1,221,NaN,dog,dog,inf,0221_hp_dnn_inf_dog_10_n02102040_1100.png,n02102040_1100.png,1.0,-3.2199101,-6.8712707,2.5819018
alexnet_w1_mlp_simclrhn_probe0,1,222,NaN,bottle,bicycle,0.55,0222_hp_dnn_0.55_bicycle_10_n03792782_15557.png,n03792782_15557.png,0.0,-1.7462173,-0.61391395,-0.8006593
alexnet_w1_mlp_simclrhn_probe0,1,223,NaN,car,car,3,0223_hp_dnn_3_car_10_n04285008_12767.png,n04285008_12767.png,1.0,-0.6318125,-2.4379098,1.2771037
alexnet_w1_mlp_simclrhn_probe0,1,224,NaN,airplane,boat,0.4,0224_hp_dnn_0.4_boat_10_n03662601_2438.png,n03662601_2438.png,0.0,-0.5119016,0.16548805,-0.47898686
alexnet_w1_mlp_simclrhn_probe0,1,225,NaN,truck,truck,inf,0225_hp_dnn_inf_truck_10_n03417042_6419.png,n03417042_6419.png,1.0,2.5143752,-0.30211064,1.9915563
alexnet_w1_mlp_simclrhn_probe0,1,226,NaN,chair,chair,0.45,0226_hp_dnn_0.45_chair_10_n04099969_9891.png,n04099969_9891.png,1.0,-0.42136407,-0.5938435,0.12196139
alexnet_w1_mlp_simclrhn_probe0,1,227,NaN,cat,cat,inf,0227_hp_dnn_inf_cat_10_n02123045_8543.png,n02123045_8543.png,1.0,-1.501959,-6.942772,3.847236
alexnet_w1_mlp_simclrhn_probe0,1,228,NaN,clock,cat,0.55,0228_hp_dnn_0.55_cat_10_n02123045_7342.png,n02123045_7342.png,0.0,-0.9937008,-0.76928645,-0.15868491
alexnet_w1_mlp_simclrhn_probe0,1,229,NaN,clock,bird,0.55,0229_hp_dnn_0.55_bird_10_n02018207_10814.png,n02018207_10814.png,0.0,-0.88218385,-0.656201,-0.159794
alexnet_w1_mlp_simclrhn_probe0,1,230,NaN,airplane,airplane,3,0230_hp_dnn_3_airplane_10_n02690373_20033.png,n02690373_20033.png,1.0,4.521303,-0.6955137,3.6888466
alexnet_w1_mlp_simclrhn_probe0,1,231,NaN,clock,truck,0.55,0231_hp_dnn_0.55_truck_10_n04467665_13645.png,n04467665_13645.png,0.0,-1.1116427,-0.25750694,-0.60396516
alexnet_w1_mlp_simclrhn_probe0,1,232,NaN,airplane,airplane,1.5,0232_hp_dnn_1.5_airplane_10_n02690373_5015.png,n02690373_5015.png,1.0,0.70634687,-0.9428994,1.1661932
alexnet_w1_mlp_simclrhn_probe0,1,233,NaN,bicycle,chair,1.5,0233_hp_dnn_1.5_chair_10_n03376595_6173.png,n03376595_6173.png,0.0,-1.9281046,-0.77422106,-0.8159189
alexnet_w1_mlp_simclrhn_probe0,1,234,NaN,bicycle,knife,1.5,0234_hp_dnn_1.5_knife_10_n03041632_91967.png,n03041632_91967.png,0.0,-5.584815,-2.038387,-2.5077033
alexnet_w1_mlp_simclrhn_probe0,1,235,NaN,elephant,elephant,inf,0235_hp_dnn_inf_elephant_10_n02504458_1271.png,n02504458_1271.png,1.0,1.6375283,-6.5853367,5.8144436
alexnet_w1_mlp_simclrhn_probe0,1,236,NaN,cat,cat,0.7,0236_hp_dnn_0.7_cat_10_n02123597_1684.png,n02123597_1684.png,1.0,-0.9379576,-1.1015033,0.115644254
alexnet_w1_mlp_simclrhn_probe0,1,237,NaN,elephant,dog,0.55,0237_hp_dnn_0.55_dog_10_n02091831_3628.png,n02091831_3628.png,0.0,-1.7739468,-0.94925594,-0.5831445
alexnet_w1_mlp_simclrhn_probe0,1,238,NaN,clock,truck,0.45,0238_hp_dnn_0.45_truck_10_n04467665_64540.png,n04467665_64540.png,0.0,-0.55019504,-0.07798868,-0.33390033
alexnet_w1_mlp_simclrhn_probe0,1,239,NaN,airplane,airplane,1,0239_hp_dnn_1_airplane_10_n02690373_3289.png,n02690373_3289.png,1.0,0.54273057,-0.98917836,1.0832232
alexnet_w1_mlp_simclrhn_probe0,1,240,NaN,boat,boat,3,0240_hp_dnn_3_boat_10_n04273569_16949.png,n04273569_16949.png,1.0,0.22866106,-0.99893594,0.8680422
alexnet_w1_mlp_simclrhn_probe0,1,241,NaN,knife,bicycle,1,0241_hp_dnn_1_bicycle_10_n03792782_15174.png,n03792782_15174.png,0.0,-3.4169517,-1.4832953,-1.3673016
alexnet_w1_mlp_simclrhn_probe0,1,242,NaN,bottle,bottle,1.5,0242_hp_dnn_1.5_bottle_10_n03937543_146.png,n03937543_146.png,1.0,-2.3394153,-2.5075758,0.11890739
alexnet_w1_mlp_simclrhn_probe0,1,243,NaN,clock,chair,0.45,0243_hp_dnn_0.45_chair_10_n04429376_694.png,n04429376_694.png,0.0,-0.60257566,-0.29574275,-0.21696363
alexnet_w1_mlp_simclrhn_probe0,1,244,NaN,airplane,keyboard,0.4,0244_hp_dnn_0.4_keyboard_10_n03085013_19407.png,n03085013_19407.png,0.0,-0.45999026,-0.076951124,-0.2708496
alexnet_w1_mlp_simclrhn_probe0,1,245,NaN,elephant,oven,0.45,0245_hp_dnn_0.45_oven_10_n04111531_4955.png,n04111531_4955.png,0.0,-1.7477121,-0.24134949,-1.0651593
alexnet_w1_mlp_simclrhn_probe0,1,246,NaN,bicycle,dog,1.5,0246_hp_dnn_1.5_dog_10_n02099712_1825.png,n02099712_1825.png,0.0,-4.02912,-2.3193064,-1.2090209
alexnet_w1_mlp_simclrhn_probe0,1,247,NaN,clock,bear,0.55,0247_hp_dnn_0.55_bear_10_n02134084_14031.png,n02134084_14031.png,0.0,-2.273671,-0.6829202,-1.1248306
alexnet_w1_mlp_simclrhn_probe0,1,248,NaN,clock,car,0.45,0248_hp_dnn_0.45_car_10_n02814533_70922.png,n02814533_70922.png,0.0,-0.22340937,0.05316555,-0.195568
alexnet_w1_mlp_simclrhn_probe0,1,249,NaN,elephant,elephant,0.45,0249_hp_dnn_0.45_elephant_10_n02504458_217.png,n02504458_217.png,1.0,-0.16068333,-0.89867735,0.5218406
alexnet_w1_mlp_simclrhn_probe0,1,250,NaN,car,car,inf,0250_hp_dnn_inf_car_10_n02814533_27824.png,n02814533_27824.png,1.0,7.9164257,5.133723,1.9676682
alexnet_w1_mlp_simclrhn_probe0,1,251,NaN,clock,keyboard,0.7,0251_hp_dnn_0.7_keyboard_10_n03085013_24257.png,n03085013_24257.png,0.0,0.66385937,0.9511151,-0.20312046
alexnet_w1_mlp_simclrhn_probe0,1,252,NaN,bicycle,elephant,3,0252_hp_dnn_3_elephant_10_n02504013_2269.png,n02504013_2269.png,0.0,-3.500479,-2.9281902,-0.40466926
alexnet_w1_mlp_simclrhn_probe0,1,253,NaN,clock,bear,0.45,0253_hp_dnn_0.45_bear_10_n02134418_1798.png,n02134418_1798.png,0.0,-1.0327971,-0.2954034,-0.5214161
alexnet_w1_mlp_simclrhn_probe0,1,254,NaN,clock,dog,0.45,0254_hp_dnn_0.45_dog_10_n02111129_6881.png,n02111129_6881.png,0.0,-2.3106387,-0.8420737,-1.0384322
alexnet_w1_mlp_simclrhn_probe0,1,255,NaN,truck,truck,1.5,0255_hp_dnn_1.5_truck_10_n04467665_67315.png,n04467665_67315.png,1.0,-0.13791597,-1.6663612,1.0807741
alexnet_w1_mlp_simclrhn_probe0,1,256,NaN,elephant,elephant,0.55,0256_hp_dnn_0.55_elephant_10_n02504013_3688.png,n02504013_3688.png,1.0,-0.3934046,-0.9171735,0.37036055
alexnet_w1_mlp_simclrhn_probe0,1,257,NaN,truck,truck,1.5,0257_hp_dnn_1.5_truck_10_n04467665_38886.png,n04467665_38886.png,1.0,-0.759024,-1.4443345,0.4845877
alexnet_w1_mlp_simclrhn_probe0,1,258,NaN,bottle,bottle,inf,0258_hp_dnn_inf_bottle_10_n04557648_4250.png,n04557648_4250.png,1.0,-2.0972958,-5.192629,2.188731
alexnet_w1_mlp_simclrhn_probe0,1,259,NaN,knife,chair,0.45,0259_hp_dnn_0.45_chair_10_n04099969_4053.png,n04099969_4053.png,0.0,-0.4501821,-0.38625997,-0.045199778
alexnet_w1_mlp_simclrhn_probe0,1,260,NaN,clock,knife,0.7,0260_hp_dnn_0.7_knife_10_n03041632_5727.png,n03041632_5727.png,0.0,-2.7108712,-1.4839791,-0.86754376
alexnet_w1_mlp_simclrhn_probe0,1,261,NaN,chair,dog,1,0261_hp_dnn_1_dog_10_n02091134_4525.png,n02091134_4525.png,0.0,-5.265636,-2.0406618,-2.2804012
alexnet_w1_mlp_simclrhn_probe0,1,262,NaN,keyboard,keyboard,inf,0262_hp_dnn_inf_keyboard_10_n04505470_4685.png,n04505470_4685.png,1.0,6.24221,-0.9989086,5.120244
alexnet_w1_mlp_simclrhn_probe0,1,263,NaN,clock,boat,0.4,0263_hp_dnn_0.4_boat_10_n02951358_6637.png,n02951358_6637.png,0.0,-0.910096,-0.22936498,-0.48134953
alexnet_w1_mlp_simclrhn_probe0,1,264,NaN,bicycle,dog,1.5,0264_hp_dnn_1.5_dog_10_n02093256_11232.png,n02093256_11232.png,0.0,-5.685186,-3.6584766,-1.4331
alexnet_w1_mlp_simclrhn_probe0,1,265,NaN,elephant,elephant,inf,0265_hp_dnn_inf_elephant_10_n02504013_816.png,n02504013_816.png,1.0,-2.020827,-5.2973614,2.3168597
alexnet_w1_mlp_simclrhn_probe0,1,266,NaN,elephant,bear,1.5,0266_hp_dnn_1.5_bear_10_n02134084_1484.png,n02134084_1484.png,0.0,-2.5681524,-1.885081,-0.48300442
alexnet_w1_mlp_simclrhn_probe0,1,267,NaN,knife,boat,0.45,0267_hp_dnn_0.45_boat_10_n04273569_15859.png,n04273569_15859.png,0.0,-1.0780995,-0.65484834,-0.29928377
alexnet_w1_mlp_simclrhn_probe0,1,268,NaN,bicycle,bicycle,3,0268_hp_dnn_3_bicycle_10_n02835271_7311.png,n02835271_7311.png,1.0,-1.7986363,-5.386672,2.5371244
alexnet_w1_mlp_simclrhn_probe0,1,269,NaN,clock,cat,1,0269_hp_dnn_1_cat_10_n02123045_2339.png,n02123045_2339.png,0.0,-3.333306,-2.0851715,-0.8825645
alexnet_w1_mlp_simclrhn_probe0,1,270,NaN,elephant,elephant,0.45,0270_hp_dnn_0.45_elephant_10_n02504458_4448.png,n02504458_4448.png,1.0,-0.024473265,-0.6863097,0.46798906
alexnet_w1_mlp_simclrhn_probe0,1,271,NaN,car,car,1,0271_hp_dnn_1_car_10_n03100240_9955.png,n03100240_9955.png,1.0,1.727779,0.58433163,0.80853945
alexnet_w1_mlp_simclrhn_probe0,1,272,NaN,clock,truck,0.55,0272_hp_dnn_0.55_truck_10_n03417042_7310.png,n03417042_7310.png,0.0,-1.1695848,-0.8956736,-0.19368446
alexnet_w1_mlp_simclrhn_probe0,1,273,NaN,chair,chair,0.55,0273_hp_dnn_0.55_chair_10_n04099969_20421.png,n04099969_20421.png,1.0,-1.0870256,-1.1664444,0.05615756
alexnet_w1_mlp_simclrhn_probe0,1,274,NaN,boat,boat,0.45,0274_hp_dnn_0.45_boat_10_n04612504_4581.png,n04612504_4581.png,1.0,0.10828088,-0.2648607,0.26385096
alexnet_w1_mlp_simclrhn_probe0,1,275,NaN,clock,bear,1,0275_hp_dnn_1_bear_10_n02134418_4515.png,n02134418_4515.png,0.0,-3.132996,-1.7842911,-0.9536784
alexnet_w1_mlp_simclrhn_probe0,1,276,NaN,chair,truck,0.7,0276_hp_dnn_0.7_truck_10_n03796401_1082.png,n03796401_1082.png,0.0,-2.073554,-0.5977522,-1.0435495
alexnet_w1_mlp_simclrhn_probe0,1,277,NaN,bicycle,bicycle,1,0277_hp_dnn_1_bicycle_10_n03792782_8176.png,n03792782_8176.png,1.0,-0.6539699,-2.5603964,1.3480471
alexnet_w1_mlp_simclrhn_probe0,1,278,NaN,airplane,oven,0.4,0278_hp_dnn_0.4_oven_10_n04111531_5463.png,n04111531_5463.png,0.0,-1.144165,-0.17903984,-0.6824466
alexnet_w1_mlp_simclrhn_probe0,1,279,NaN,chair,elephant,1.5,0279_hp_dnn_1.5_elephant_10_n02504013_4166.png,n02504013_4166.png,0.0,-4.1292205,-2.6374688,-1.0548277
alexnet_w1_mlp_simclrhn_probe0,1,280,NaN,airplane,airplane,0.7,0280_hp_dnn_0.7_airplane_10_n02690373_18295.png,n02690373_18295.png,1.0,1.0869299,-1.1433433,1.5770414
alexnet_w1_mlp_simclrhn_probe0,1,281,NaN,clock,cat,0.45,0281_hp_dnn_0.45_cat_10_n02124075_1460.png,n02124075_1460.png,0.0,-0.68173295,-0.38540182,-0.20953776
alexnet_w1_mlp_simclrhn_probe0,1,282,NaN,elephant,bird,0.55,0282_hp_dnn_0.55_bird_10_n02028035_17759.png,n02028035_17759.png,0.0,-0.85606915,-0.6668144,-0.13382332
alexnet_w1_mlp_simclrhn_probe0,1,283,NaN,chair,chair,3,0283_hp_dnn_3_chair_10_n02791124_6654.png,n02791124_6654.png,1.0,-3.2535706,-3.832652,0.4094725
alexnet_w1_mlp_simclrhn_probe0,1,284,NaN,airplane,truck,0.7,0284_hp_dnn_0.7_truck_10_n04467665_22974.png,n04467665_22974.png,0.0,-1.2689588,0.19663748,-1.0363331
alexnet_w1_mlp_simclrhn_probe0,1,285,NaN,airplane,clock,0.55,0285_hp_dnn_0.55_clock_10_n03196217_2983.png,n03196217_2983.png,0.0,0.119261704,0.15479235,-0.025123963
alexnet_w1_mlp_simclrhn_probe0,1,286,NaN,oven,knife,inf,0286_hp_dnn_inf_knife_10_n03041632_23968.png,n03041632_23968.png,0.0,-5.7006326,-0.0332762,-4.0074263
alexnet_w1_mlp_simclrhn_probe0,1,287,NaN,keyboard,keyboard,0.4,0287_hp_dnn_0.4_keyboard_10_n03085013_23519.png,n03085013_23519.png,1.0,0.08920647,0.0059924894,0.058841173
alexnet_w1_mlp_simclrhn_probe0,1,288,NaN,bottle,bottle,1.5,0288_hp_dnn_1.5_bottle_10_n04591713_14895.png,n04591713_14895.png,1.0,-1.8057783,-2.1782885,0.2634045
alexnet_w1_mlp_simclrhn_probe0,1,289,NaN,elephant,elephant,1,0289_hp_dnn_1_elephant_10_n02504013_3969.png,n02504013_3969.png,1.0,-1.0169766,-2.2586076,0.87796575
alexnet_w1_mlp_simclrhn_probe0,1,290,NaN,bicycle,bear,3,0290_hp_dnn_3_bear_10_n02134418_3723.png,n02134418_3723.png,0.0,-5.5611367,-3.0060966,-1.8066863
alexnet_w1_mlp_simclrhn_probe0,1,291,NaN,clock,keyboard,0.45,0291_hp_dnn_0.45_keyboard_10_n04505470_709.png,n04505470_709.png,0.0,-0.5617118,-0.30597857,-0.1808307
alexnet_w1_mlp_simclrhn_probe0,1,292,NaN,clock,knife,1.5,0292_hp_dnn_1.5_knife_10_n03041632_379.png,n03041632_379.png,0.0,-2.8501804,-1.958076,-0.63081306
alexnet_w1_mlp_simclrhn_probe0,1,293,NaN,bird,oven,3,0293_hp_dnn_3_oven_10_n04111531_13128.png,n04111531_13128.png,0.0,-8.608276,-3.3680305,-3.7054133
alexnet_w1_mlp_simclrhn_probe0,1,294,NaN,elephant,elephant,0.55,0294_hp_dnn_0.55_elephant_10_n02504013_933.png,n02504013_933.png,1.0,-0.046291858,-0.6977643,0.4606606
alexnet_w1_mlp_simclrhn_probe0,1,295,NaN,car,airplane,inf,0295_hp_dnn_inf_airplane_10_n02690373_17603.png,n02690373_17603.png,0.0,-2.5574832,-0.90368366,-1.1694129
alexnet_w1_mlp_simclrhn_probe0,1,296,NaN,airplane,airplane,0.45,0296_hp_dnn_0.45_airplane_10_n02690373_5177.png,n02690373_5177.png,1.0,0.32619396,-0.20111926,0.37286678
alexnet_w1_mlp_simclrhn_probe0,1,297,NaN,chair,chair,1.5,0297_hp_dnn_1.5_chair_10_n04429376_28121.png,n04429376_28121.png,1.0,-4.872656,-5.014342,0.10018711
alexnet_w1_mlp_simclrhn_probe0,1,298,NaN,keyboard,truck,0.55,0298_hp_dnn_0.55_truck_10_n03417042_6517.png,n03417042_6517.png,0.0,-2.4589353,-1.1667076,-0.91374296
alexnet_w1_mlp_simclrhn_probe0,1,299,NaN,airplane,chair,0.55,0299_hp_dnn_0.55_chair_10_n03376595_5503.png,n03376595_5503.png,0.0,-0.32159284,-0.28259027,-0.02757898
alexnet_w1_mlp_simclrhn_probe0,1,300,NaN,clock,clock,1.5,0300_hp_dnn_1.5_clock_10_n03196217_7918.png,n03196217_7918.png,1.0,-0.8379329,-1.2551368,0.29500777
alexnet_w1_mlp_simclrhn_probe0,1,301,NaN,car,car,1,0301_hp_dnn_1_car_10_n04285008_7751.png,n04285008_7751.png,1.0,1.410861,0.19823033,0.8574594
alexnet_w1_mlp_simclrhn_probe0,1,302,NaN,clock,clock,0.4,0302_hp_dnn_0.4_clock_10_n03196217_2628.png,n03196217_2628.png,1.0,-0.10818124,-0.23613133,0.090474375
alexnet_w1_mlp_simclrhn_probe0,1,303,NaN,clock,bird,0.55,0303_hp_dnn_0.55_bird_10_n01833805_6395.png,n01833805_6395.png,0.0,-0.915066,-0.41286233,-0.35511166
alexnet_w1_mlp_simclrhn_probe0,1,304,NaN,airplane,boat,0.4,0304_hp_dnn_0.4_boat_10_n03344393_6015.png,n03344393_6015.png,0.0,0.06394841,0.07224578,-0.005867126
alexnet_w1_mlp_simclrhn_probe0,1,305,NaN,chair,elephant,1.5,0305_hp_dnn_1.5_elephant_10_n02504013_2739.png,n02504013_2739.png,0.0,-4.121211,-3.742111,-0.26806423
alexnet_w1_mlp_simclrhn_probe0,1,306,NaN,clock,keyboard,0.45,0306_hp_dnn_0.45_keyboard_10_n03085013_23316.png,n03085013_23316.png,0.0,0.06496422,0.14793794,-0.05867128
alexnet_w1_mlp_simclrhn_probe0,1,307,NaN,airplane,airplane,1,0307_hp_dnn_1_airplane_10_n02690373_20350.png,n02690373_20350.png,1.0,0.3582884,-0.9856723,0.95032376
alexnet_w1_mlp_simclrhn_probe0,1,308,NaN,clock,clock,3,0308_hp_dnn_3_clock_10_n02708093_3484.png,n02708093_3484.png,1.0,2.2553263,-2.226009,3.1687825
alexnet_w1_mlp_simclrhn_probe0,1,309,NaN,clock,bicycle,0.55,0309_hp_dnn_0.55_bicycle_10_n03792782_10185.png,n03792782_10185.png,0.0,-1.7061884,-1.1295842,-0.40772077
alexnet_w1_mlp_simclrhn_probe0,1,310,NaN,clock,knife,3,0310_hp_dnn_3_knife_10_n03041632_42196.png,n03041632_42196.png,0.0,-2.0912373,-0.5919763,-1.0601376
alexnet_w1_mlp_simclrhn_probe0,1,311,NaN,bird,bird,inf,0311_hp_dnn_inf_bird_10_n01855672_6132.png,n01855672_6132.png,1.0,-4.0964813,-6.130213,1.4380653
alexnet_w1_mlp_simclrhn_probe0,1,312,NaN,airplane,bottle,0.4,0312_hp_dnn_0.4_bottle_10_n03983396_3047.png,n03983396_3047.png,0.0,-0.39143685,-0.024955682,-0.25914133
alexnet_w1_mlp_simclrhn_probe0,1,313,NaN,clock,bottle,0.4,0313_hp_dnn_0.4_bottle_10_n04557648_2093.png,n04557648_2093.png,0.0,-0.1759625,0.22443219,-0.2831218
alexnet_w1_mlp_simclrhn_probe0,1,314,NaN,keyboard,keyboard,0.55,0314_hp_dnn_0.55_keyboard_10_n04505470_7686.png,n04505470_7686.png,1.0,1.4739301,1.2425764,0.16359182
alexnet_w1_mlp_simclrhn_probe0,1,315,NaN,elephant,bear,1.5,0315_hp_dnn_1.5_bear_10_n02132136_5051.png,n02132136_5051.png,0.0,-6.813469,-3.8114834,-2.1227243
alexnet_w1_mlp_simclrhn_probe0,1,316,NaN,elephant,bear,1,0316_hp_dnn_1_bear_10_n02134418_24559.png,n02134418_24559.png,0.0,-3.0988407,-1.4936516,-1.1350402
alexnet_w1_mlp_simclrhn_probe0,1,317,NaN,clock,oven,0.55,0317_hp_dnn_0.55_oven_10_n04111531_3702.png,n04111531_3702.png,0.0,-2.817692,-0.8711657,-1.376402
alexnet_w1_mlp_simclrhn_probe0,1,318,NaN,bicycle,bicycle,1,0318_hp_dnn_1_bicycle_10_n02835271_24230.png,n02835271_24230.png,1.0,-1.8056262,-2.2893577,0.34204984
alexnet_w1_mlp_simclrhn_probe0,1,319,NaN,keyboard,keyboard,1.5,0319_hp_dnn_1.5_keyboard_10_n03085013_2272.png,n03085013_2272.png,1.0,0.58605,-0.66627777,0.8855294
alexnet_w1_mlp_simclrhn_probe0,1,320,NaN,chair,keyboard,0.55,0320_hp_dnn_0.55_keyboard_10_n03085013_23201.png,n03085013_23201.png,0.0,-0.6222288,-0.42522654,-0.13930164
alexnet_w1_mlp_simclrhn_probe0,1,321,NaN,boat,boat,1.5,0321_hp_dnn_1.5_boat_10_n04273569_9803.png,n04273569_9803.png,1.0,-1.954037,-2.6351647,0.4816301
alexnet_w1_mlp_simclrhn_probe0,1,322,NaN,airplane,boat,0.4,0322_hp_dnn_0.4_boat_10_n04612504_29813.png,n04612504_29813.png,0.0,-0.37937087,-0.25368133,-0.08887593
alexnet_w1_mlp_simclrhn_probe0,1,323,NaN,clock,clock,1,0323_hp_dnn_1_clock_10_n02708093_1291.png,n02708093_1291.png,1.0,1.6018463,-1.1608564,1.9535259
alexnet_w1_mlp_simclrhn_probe0,1,324,NaN,clock,oven,0.4,0324_hp_dnn_0.4_oven_10_n04111531_1794.png,n04111531_1794.png,0.0,-0.9896987,-0.108460195,-0.6231297
alexnet_w1_mlp_simclrhn_probe0,1,325,NaN,clock,bear,0.4,0325_hp_dnn_0.4_bear_10_n02132136_5612.png,n02132136_5612.png,0.0,-0.87111086,-0.3658196,-0.35729486
alexnet_w1_mlp_simclrhn_probe0,1,326,NaN,boat,boat,1.5,0326_hp_dnn_1.5_boat_10_n04273569_3401.png,n04273569_3401.png,1.0,0.42073265,-1.7309769,1.5214884
alexnet_w1_mlp_simclrhn_probe0,1,327,NaN,bicycle,cat,3,0327_hp_dnn_3_cat_10_n02125311_16544.png,n02125311_16544.png,0.0,-6.1103196,-3.564681,-1.8000383
alexnet_w1_mlp_simclrhn_probe0,1,328,NaN,keyboard,clock,1.5,0328_hp_dnn_1.5_clock_10_n03196217_10717.png,n03196217_10717.png,0.0,0.36122867,0.40726954,-0.032555807
alexnet_w1_mlp_simclrhn_probe0,1,329,NaN,bicycle,bear,3,0329_hp_dnn_3_bear_10_n02134418_47.png,n02134418_47.png,0.0,-5.1560116,-3.153615,-1.4159082
alexnet_w1_mlp_simclrhn_probe0,1,330,NaN,keyboard,bottle,3,0330_hp_dnn_3_bottle_10_n04591713_4380.png,n04591713_4380.png,0.0,-2.3552566,-0.4371629,-1.356297
alexnet_w1_mlp_simclrhn_probe0,1,331,NaN,chair,chair,0.55,0331_hp_dnn_0.55_chair_10_n04429376_8710.png,n04429376_8710.png,1.0,-0.561553,-0.6689643,0.07595128
alexnet_w1_mlp_simclrhn_probe0,1,332,NaN,bicycle,bicycle,3,0332_hp_dnn_3_bicycle_10_n02835271_781.png,n02835271_781.png,1.0,2.3578305,-6.0445313,5.941367
alexnet_w1_mlp_simclrhn_probe0,1,333,NaN,elephant,bear,1.5,0333_hp_dnn_1.5_bear_10_n02134418_875.png,n02134418_875.png,0.0,-2.3093808,-1.803838,-0.35747272
alexnet_w1_mlp_simclrhn_probe0,1,334,NaN,clock,dog,0.55,0334_hp_dnn_0.55_dog_10_n02094433_10343.png,n02094433_10343.png,0.0,-1.2392199,-0.572884,-0.47117063
alexnet_w1_mlp_simclrhn_probe0,1,335,NaN,airplane,airplane,3,0335_hp_dnn_3_airplane_10_n02690373_1053.png,n02690373_1053.png,1.0,4.2198806,0.18760097,2.8512523
alexnet_w1_mlp_simclrhn_probe0,1,336,NaN,airplane,airplane,3,0336_hp_dnn_3_airplane_10_n02690373_18848.png,n02690373_18848.png,1.0,4.7267475,-1.8386496,4.642437
alexnet_w1_mlp_simclrhn_probe0,1,337,NaN,airplane,keyboard,3,0337_hp_dnn_3_keyboard_10_n03085013_18741.png,n03085013_18741.png,0.0,-1.3236029,-0.34389728,-0.69275653
alexnet_w1_mlp_simclrhn_probe0,1,338,NaN,bear,bear,inf,0338_hp_dnn_inf_bear_10_n02134418_3152.png,n02134418_3152.png,1.0,2.594739,0.34278566,1.5923715
alexnet_w1_mlp_simclrhn_probe0,1,339,NaN,knife,bicycle,1.5,0339_hp_dnn_1.5_bicycle_10_n03792782_14557.png,n03792782_14557.png,0.0,-4.3296165,-2.8077624,-1.0761135
alexnet_w1_mlp_simclrhn_probe0,1,340,NaN,elephant,bird,0.7,0340_hp_dnn_0.7_bird_10_n01796340_5262.png,n01796340_5262.png,0.0,-2.5440364,-0.28915462,-1.5944422
alexnet_w1_mlp_simclrhn_probe0,1,341,NaN,clock,bicycle,1,0341_hp_dnn_1_bicycle_10_n03792782_4559.png,n03792782_4559.png,0.0,-1.8244151,-1.5010858,-0.22862837
alexnet_w1_mlp_simclrhn_probe0,1,342,NaN,boat,bear,0.45,0342_hp_dnn_0.45_bear_10_n02134084_3177.png,n02134084_3177.png,0.0,-0.59830296,-0.29437575,-0.214909
alexnet_w1_mlp_simclrhn_probe0,1,343,NaN,boat,elephant,0.4,0343_hp_dnn_0.4_elephant_10_n02504458_5008.png,n02504458_5008.png,0.0,-0.29860562,-0.2029535,-0.06763627
alexnet_w1_mlp_simclrhn_probe0,1,344,NaN,keyboard,oven,3,0344_hp_dnn_3_oven_10_n04111531_7955.png,n04111531_7955.png,0.0,-2.0457091,-1.4458573,-0.42415932
alexnet_w1_mlp_simclrhn_probe0,1,345,NaN,bicycle,bicycle,inf,0345_hp_dnn_inf_bicycle_10_n02835271_13793.png,n02835271_13793.png,1.0,-4.2745676,-5.259103,0.6961715
alexnet_w1_mlp_simclrhn_probe0,1,346,NaN,clock,keyboard,0.45,0346_hp_dnn_0.45_keyboard_10_n03085013_14810.png,n03085013_14810.png,0.0,-0.21137239,-0.025893897,-0.1311531
alexnet_w1_mlp_simclrhn_probe0,1,347,NaN,clock,car,0.7,0347_hp_dnn_0.7_car_10_n02814533_39933.png,n02814533_39933.png,0.0,-2.2197387,-1.0428087,-0.83221525
alexnet_w1_mlp_simclrhn_probe0,1,348,NaN,bird,bird,1,0348_hp_dnn_1_bird_10_n02027492_4897.png,n02027492_4897.png,1.0,-0.9419418,-2.3635192,1.0052071
alexnet_w1_mlp_simclrhn_probe0,1,349,NaN,bicycle,keyboard,3,0349_hp_dnn_3_keyboard_10_n03085013_23776.png,n03085013_23776.png,0.0,-2.7056005,-1.7598264,-0.6687633
alexnet_w1_mlp_simclrhn_probe0,1,350,NaN,clock,car,1.5,0350_hp_dnn_1.5_car_10_n02814533_31493.png,n02814533_31493.png,0.0,-0.865232,-0.071496926,-0.56125546
alexnet_w1_mlp_simclrhn_probe0,1,351,NaN,boat,boat,1.5,0351_hp_dnn_1.5_boat_10_n03344393_7631.png,n03344393_7631.png,1.0,-1.8076227,-2.761084,0.67419904
alexnet_w1_mlp_simclrhn_probe0,1,352,NaN,clock,bicycle,0.4,0352_hp_dnn_0.4_bicycle_10_n02835271_1261.png,n02835271_1261.png,0.0,-0.3629107,-0.16691613,-0.13858908
alexnet_w1_mlp_simclrhn_probe0,1,353,NaN,clock,clock,1,0353_hp_dnn_1_clock_10_n03196217_1850.png,n03196217_1850.png,1.0,-0.8413315,-1.2521725,0.29050845
alexnet_w1_mlp_simclrhn_probe0,1,354,NaN,bear,bear,inf,0354_hp_dnn_inf_bear_10_n02132136_22387.png,n02132136_22387.png,1.0,0.28013456,-0.93331575,0.85803896
alexnet_w1_mlp_simclrhn_probe0,1,355,NaN,airplane,airplane,1.5,0355_hp_dnn_1.5_airplane_10_n02690373_2316.png,n02690373_2316.png,1.0,2.8174016,-1.2122681,2.849407
alexnet_w1_mlp_simclrhn_probe0,1,356,NaN,elephant,cat,0.7,0356_hp_dnn_0.7_cat_10_n02123597_3634.png,n02123597_3634.png,0.0,-1.2810422,-0.46272314,-0.578639
alexnet_w1_mlp_simclrhn_probe0,1,357,NaN,airplane,bird,0.45,0357_hp_dnn_0.45_bird_10_n02018207_4151.png,n02018207_4151.png,0.0,-0.42224282,-0.25124282,-0.120915264
alexnet_w1_mlp_simclrhn_probe0,1,358,NaN,elephant,knife,0.7,0358_hp_dnn_0.7_knife_10_n03041632_94155.png,n03041632_94155.png,0.0,-2.2934625,-1.0676234,-0.8667992
alexnet_w1_mlp_simclrhn_probe0,1,359,NaN,clock,bottle,0.45,0359_hp_dnn_0.45_bottle_10_n04560804_7509.png,n04560804_7509.png,0.0,-0.53628856,-0.07271784,-0.32779402
alexnet_w1_mlp_simclrhn_probe0,1,360,NaN,clock,cat,0.4,0360_hp_dnn_0.4_cat_10_n02123045_12748.png,n02123045_12748.png,0.0,-0.69523793,-0.4807996,-0.15163082
alexnet_w1_mlp_simclrhn_probe0,1,361,NaN,elephant,elephant,0.7,0361_hp_dnn_0.7_elephant_10_n02504013_6.png,n02504013_6.png,1.0,-1.357258,-1.5023581,0.102601275
alexnet_w1_mlp_simclrhn_probe0,1,362,NaN,clock,elephant,0.4,0362_hp_dnn_0.4_elephant_10_n02504013_1492.png,n02504013_1492.png,0.0,-0.7050689,-0.41877842,-0.20243794
alexnet_w1_mlp_simclrhn_probe0,1,363,NaN,airplane,dog,0.4,0363_hp_dnn_0.4_dog_10_n02107142_27162.png,n02107142_27162.png,0.0,-1.1682144,-0.5453812,-0.44040963
alexnet_w1_mlp_simclrhn_probe0,1,364,NaN,elephant,bear,0.7,0364_hp_dnn_0.7_bear_10_n02134418_962.png,n02134418_962.png,0.0,-1.1357726,-0.6385309,-0.35160297
alexnet_w1_mlp_simclrhn_probe0,1,365,NaN,clock,truck,0.7,0365_hp_dnn_0.7_truck_10_n03417042_9693.png,n03417042_9693.png,0.0,-0.20891407,-0.060449626,-0.104980215
alexnet_w1_mlp_simclrhn_probe0,1,366,NaN,clock,oven,1,0366_hp_dnn_1_oven_10_n04111531_2116.png,n04111531_2116.png,0.0,-2.6479013,-2.2797134,-0.26034817
alexnet_w1_mlp_simclrhn_probe0,1,367,NaN,keyboard,keyboard,inf,0367_hp_dnn_inf_keyboard_10_n03085013_20460.png,n03085013_20460.png,1.0,0.9578439,-1.4390543,1.6948631
alexnet_w1_mlp_simclrhn_probe0,1,368,NaN,elephant,bird,0.45,0368_hp_dnn_0.45_bird_10_n01796340_6191.png,n01796340_6191.png,0.0,-1.1461589,-0.43823117,-0.50058055
alexnet_w1_mlp_simclrhn_probe0,1,369,NaN,chair,oven,1.5,0369_hp_dnn_1.5_oven_10_n04111531_8046.png,n04111531_8046.png,0.0,-3.375431,-2.4100182,-0.68264997
alexnet_w1_mlp_simclrhn_probe0,1,370,NaN,clock,boat,0.45,0370_hp_dnn_0.45_boat_10_n03344393_11788.png,n03344393_11788.png,0.0,-0.6432699,-0.4244686,-0.15471588
alexnet_w1_mlp_simclrhn_probe0,1,371,NaN,cat,cat,inf,0371_hp_dnn_inf_cat_10_n02123394_2765.png,n02123394_2765.png,1.0,1.0985216,-3.5018113,3.2529266
alexnet_w1_mlp_simclrhn_probe0,1,372,NaN,bicycle,bicycle,0.4,0372_hp_dnn_0.4_bicycle_10_n03792782_26834.png,n03792782_26834.png,1.0,-0.0033155605,-0.17891915,0.1241705
alexnet_w1_mlp_simclrhn_probe0,1,373,NaN,bird,cat,1.5,0373_hp_dnn_1.5_cat_10_n02125311_37036.png,n02125311_37036.png,0.0,-3.383723,-2.6825967,-0.4957712
alexnet_w1_mlp_simclrhn_probe0,1,374,NaN,bicycle,bicycle,0.7,0374_hp_dnn_0.7_bicycle_10_n03792782_4067.png,n03792782_4067.png,1.0,-0.9724746,-1.0497801,0.054663282
alexnet_w1_mlp_simclrhn_probe0,1,375,NaN,elephant,bear,inf,0375_hp_dnn_inf_bear_10_n02134418_3886.png,n02134418_3886.png,0.0,-0.42136133,0.004234448,-0.30094165
alexnet_w1_mlp_simclrhn_probe0,1,376,NaN,clock,dog,0.7,0376_hp_dnn_0.7_dog_10_n02110185_9014.png,n02110185_9014.png,0.0,-4.183733,-0.41713426,-2.6633875
alexnet_w1_mlp_simclrhn_probe0,1,377,NaN,oven,bear,inf,0377_hp_dnn_inf_bear_10_n02134084_14888.png,n02134084_14888.png,0.0,-1.7018837,-1.633063,-0.048663594
alexnet_w1_mlp_simclrhn_probe0,1,378,NaN,bicycle,truck,1.5,0378_hp_dnn_1.5_truck_10_n03417042_5249.png,n03417042_5249.png,0.0,-4.038081,-2.3275874,-1.2095017
alexnet_w1_mlp_simclrhn_probe0,1,379,NaN,elephant,oven,1,0379_hp_dnn_1_oven_10_n04111531_10711.png,n04111531_10711.png,0.0,-4.030767,-2.0188904,-1.4226116
alexnet_w1_mlp_simclrhn_probe0,1,380,NaN,car,car,1.5,0380_hp_dnn_1.5_car_10_n04285008_15271.png,n04285008_15271.png,1.0,0.4198815,-1.0726866,1.055405
alexnet_w1_mlp_simclrhn_probe0,1,381,NaN,clock,cat,0.45,0381_hp_dnn_0.45_cat_10_n02123597_12232.png,n02123597_12232.png,0.0,-0.62106735,-0.4078318,-0.1507803
alexnet_w1_mlp_simclrhn_probe0,1,382,NaN,chair,clock,3,0382_hp_dnn_3_clock_10_n04548280_8083.png,n04548280_8083.png,0.0,-2.6418421,-1.0548308,-1.1221865
alexnet_w1_mlp_simclrhn_probe0,1,383,NaN,clock,chair,0.45,0383_hp_dnn_0.45_chair_10_n04099969_8946.png,n04099969_8946.png,0.0,-0.49201417,-0.22460842,-0.18908443
alexnet_w1_mlp_simclrhn_probe0,1,384,NaN,airplane,keyboard,0.7,0384_hp_dnn_0.7_keyboard_10_n03085013_21973.png,n03085013_21973.png,0.0,-1.4043535,-0.5006893,-0.63898706
alexnet_w1_mlp_simclrhn_probe0,1,385,NaN,clock,bottle,0.7,0385_hp_dnn_0.7_bottle_10_n04560804_15225.png,n04560804_15225.png,0.0,-1.4854624,-0.9565726,-0.3739816
alexnet_w1_mlp_simclrhn_probe0,1,386,NaN,cat,cat,inf,0386_hp_dnn_inf_cat_10_n02123045_10395.png,n02123045_10395.png,1.0,0.2805377,-7.825323,5.731709
alexnet_w1_mlp_simclrhn_probe0,1,387,NaN,clock,truck,0.45,0387_hp_dnn_0.45_truck_10_n03417042_4188.png,n03417042_4188.png,0.0,-0.6345155,-0.30652168,-0.23192668
alexnet_w1_mlp_simclrhn_probe0,1,388,NaN,keyboard,keyboard,1.5,0388_hp_dnn_1.5_keyboard_10_n03085013_21615.png,n03085013_21615.png,1.0,5.087172,-2.681424,5.493227
alexnet_w1_mlp_simclrhn_probe0,1,389,NaN,knife,knife,inf,0389_hp_dnn_inf_knife_10_n03041632_26989.png,n03041632_26989.png,1.0,0.47519028,-3.3460214,2.702005
alexnet_w1_mlp_simclrhn_probe0,1,390,NaN,airplane,airplane,0.55,0390_hp_dnn_0.55_airplane_10_n02690373_16986.png,n02690373_16986.png,1.0,0.55271405,-0.38250756,0.66130155
alexnet_w1_mlp_simclrhn_probe0,1,391,NaN,bicycle,bicycle,inf,0391_hp_dnn_inf_bicycle_10_n02835271_9067.png,n02835271_9067.png,1.0,3.8323355,-7.8349366,8.250008
alexnet_w1_mlp_simclrhn_probe0,1,392,NaN,elephant,dog,0.45,0392_hp_dnn_0.45_dog_10_n02106382_9188.png,n02106382_9188.png,0.0,-1.9603606,-0.4910087,-1.0389888
alexnet_w1_mlp_simclrhn_probe0,1,393,NaN,boat,boat,inf,0393_hp_dnn_inf_boat_10_n02951358_3205.png,n02951358_3205.png,1.0,0.8214218,-3.3554611,2.9535022
alexnet_w1_mlp_simclrhn_probe0,1,394,NaN,clock,knife,0.4,0394_hp_dnn_0.4_knife_10_n03041632_45270.png,n03041632_45270.png,0.0,-0.78361213,-0.29771307,-0.34358254
alexnet_w1_mlp_simclrhn_probe0,1,395,NaN,car,car,inf,0395_hp_dnn_inf_car_10_n03100240_6376.png,n03100240_6376.png,1.0,1.6786293,-0.8559829,1.7922415
alexnet_w1_mlp_simclrhn_probe0,1,396,NaN,truck,truck,1,0396_hp_dnn_1_truck_10_n03796401_430.png,n03796401_430.png,1.0,0.6334294,0.009020527,0.4415238
alexnet_w1_mlp_simclrhn_probe0,1,397,NaN,clock,knife,0.7,0397_hp_dnn_0.7_knife_10_n03041632_24181.png,n03041632_24181.png,0.0,-1.3543829,-0.8214447,-0.3768442
alexnet_w1_mlp_simclrhn_probe0,1,398,NaN,bird,bear,1,0398_hp_dnn_1_bear_10_n02134084_16190.png,n02134084_16190.png,0.0,-1.8757024,-1.5461646,-0.23301838
alexnet_w1_mlp_simclrhn_probe0,1,399,NaN,clock,bear,0.55,0399_hp_dnn_0.55_bear_10_n02132136_7253.png,n02132136_7253.png,0.0,-2.6811264,-0.62999517,-1.4503689
alexnet_w1_mlp_simclrhn_probe0,1,400,NaN,chair,boat,1,0400_hp_dnn_1_boat_10_n03662601_34676.png,n03662601_34676.png,0.0,-2.7213178,-2.2326097,-0.34556875
alexnet_w1_mlp_simclrhn_probe0,1,401,NaN,clock,knife,0.55,0401_hp_dnn_0.55_knife_10_n03041632_81471.png,n03041632_81471.png,0.0,-2.0633094,-1.1106249,-0.67364967
alexnet_w1_mlp_simclrhn_probe0,1,402,NaN,clock,cat,0.7,0402_hp_dnn_0.7_cat_10_n02123597_3822.png,n02123597_3822.png,0.0,-1.1469402,-0.55530643,-0.41834828
alexnet_w1_mlp_simclrhn_probe0,1,403,NaN,keyboard,keyboard,1.5,0403_hp_dnn_1.5_keyboard_10_n03085013_4823.png,n03085013_4823.png,1.0,0.40239725,-2.886143,2.325349
alexnet_w1_mlp_simclrhn_probe0,1,404,NaN,airplane,dog,0.4,0404_hp_dnn_0.4_dog_10_n02108551_8385.png,n02108551_8385.png,0.0,-0.9538273,-0.36811507,-0.41416112
alexnet_w1_mlp_simclrhn_probe0,1,405,NaN,elephant,cat,0.7,0405_hp_dnn_0.7_cat_10_n02124075_8732.png,n02124075_8732.png,0.0,-1.3537296,-1.3047724,-0.03461799
alexnet_w1_mlp_simclrhn_probe0,1,406,NaN,bicycle,dog,3,0406_hp_dnn_3_dog_10_n02093428_17625.png,n02093428_17625.png,0.0,-6.77071,-2.7703881,-2.8286548
alexnet_w1_mlp_simclrhn_probe0,1,407,NaN,car,chair,inf,0407_hp_dnn_inf_chair_10_n02791124_6999.png,n02791124_6999.png,0.0,-4.3085465,-0.54826605,-2.65892
alexnet_w1_mlp_simclrhn_probe0,1,408,NaN,bicycle,bird,3,0408_hp_dnn_3_bird_10_n02028035_521.png,n02028035_521.png,0.0,-1.3988191,-1.0987471,-0.21218292
alexnet_w1_mlp_simclrhn_probe0,1,409,NaN,clock,truck,0.4,0409_hp_dnn_0.4_truck_10_n03417042_750.png,n03417042_750.png,0.0,-0.9264662,-0.30914953,-0.43650883
alexnet_w1_mlp_simclrhn_probe0,1,410,NaN,airplane,airplane,inf,0410_hp_dnn_inf_airplane_10_n02690373_5779.png,n02690373_5779.png,1.0,5.6955695,0.3780748,3.7600367
alexnet_w1_mlp_simclrhn_probe0,1,411,NaN,cat,cat,1.5,0411_hp_dnn_1.5_cat_10_n02123045_7154.png,n02123045_7154.png,1.0,-3.2175438,-4.7684817,1.0966787
alexnet_w1_mlp_simclrhn_probe0,1,412,NaN,bottle,bottle,1.5,0412_hp_dnn_1.5_bottle_10_n04591713_6958.png,n04591713_6958.png,1.0,0.075693026,-1.0008329,0.7612188
alexnet_w1_mlp_simclrhn_probe0,1,413,NaN,bird,bird,1.5,0413_hp_dnn_1.5_bird_10_n01818515_42621.png,n01818515_42621.png,1.0,-2.785127,-2.9197474,0.09519102
alexnet_w1_mlp_simclrhn_probe0,1,414,NaN,truck,truck,inf,0414_hp_dnn_inf_truck_10_n03796401_1330.png,n03796401_1330.png,1.0,2.9658585,0.44789132,1.7804717
alexnet_w1_mlp_simclrhn_probe0,1,415,NaN,chair,bird,1.5,0415_hp_dnn_1.5_bird_10_n01843065_6365.png,n01843065_6365.png,0.0,-3.861774,-3.2886255,-0.4052772
alexnet_w1_mlp_simclrhn_probe0,1,416,NaN,bottle,bottle,1.5,0416_hp_dnn_1.5_bottle_10_n03983396_11898.png,n03983396_11898.png,1.0,-1.699754,-2.0532598,0.24996638
alexnet_w1_mlp_simclrhn_probe0,1,417,NaN,bird,bird,3,0417_hp_dnn_3_bird_10_n01530575_3831.png,n01530575_3831.png,1.0,-0.97052723,-1.9268924,0.6762523
alexnet_w1_mlp_simclrhn_probe0,1,418,NaN,clock,bottle,0.4,0418_hp_dnn_0.4_bottle_10_n03983396_8837.png,n03983396_8837.png,0.0,-0.04257562,-0.021195203,-0.0151182385
alexnet_w1_mlp_simclrhn_probe0,1,419,NaN,car,car,0.7,0419_hp_dnn_0.7_car_10_n02814533_90798.png,n02814533_90798.png,1.0,1.2539555,0.6877662,0.4003563
alexnet_w1_mlp_simclrhn_probe0,1,420,NaN,bicycle,bird,3,0420_hp_dnn_3_bird_10_n01819313_3440.png,n01819313_3440.png,0.0,-3.4101698,-3.2484725,-0.11433732
alexnet_w1_mlp_simclrhn_probe0,1,421,NaN,elephant,dog,0.55,0421_hp_dnn_0.55_dog_10_n02090721_4433.png,n02090721_4433.png,0.0,-2.234916,-0.75542915,-1.0461552
alexnet_w1_mlp_simclrhn_probe0,1,422,NaN,elephant,elephant,3,0422_hp_dnn_3_elephant_10_n02504013_9566.png,n02504013_9566.png,1.0,-1.8812919,-2.4885607,0.4294039
alexnet_w1_mlp_simclrhn_probe0,1,423,NaN,cat,dog,1.5,0423_hp_dnn_1.5_dog_10_n02105251_6599.png,n02105251_6599.png,0.0,-3.7803583,-2.4738944,-0.9238095
alexnet_w1_mlp_simclrhn_probe0,1,424,NaN,clock,chair,0.7,0424_hp_dnn_0.7_chair_10_n02791124_5759.png,n02791124_5759.png,0.0,-0.874896,-0.39173958,-0.34164318
alexnet_w1_mlp_simclrhn_probe0,1,425,NaN,elephant,elephant,inf,0425_hp_dnn_inf_elephant_10_n02504458_150.png,n02504458_150.png,1.0,0.7656319,-3.648682,3.1213915
alexnet_w1_mlp_simclrhn_probe0,1,426,NaN,clock,clock,0.45,0426_hp_dnn_0.45_clock_10_n04548280_10040.png,n04548280_10040.png,1.0,0.9024091,-0.42316753,0.93732417
alexnet_w1_mlp_simclrhn_probe0,1,427,NaN,clock,elephant,0.7,0427_hp_dnn_0.7_elephant_10_n02504458_155.png,n02504458_155.png,0.0,-2.090402,-1.1626815,-0.6559974
alexnet_w1_mlp_simclrhn_probe0,1,428,NaN,knife,knife,1,0428_hp_dnn_1_knife_10_n03041632_48062.png,n03041632_48062.png,1.0,-0.87639654,-0.9159325,0.027956132
alexnet_w1_mlp_simclrhn_probe0,1,429,NaN,truck,truck,1.5,0429_hp_dnn_1.5_truck_10_n04467665_40361.png,n04467665_40361.png,1.0,-1.0107644,-1.4716023,0.32586166
alexnet_w1_mlp_simclrhn_probe0,1,430,NaN,clock,bird,0.45,0430_hp_dnn_0.45_bird_10_n01614925_7608.png,n01614925_7608.png,0.0,-1.0355805,-0.69328576,-0.24203895
alexnet_w1_mlp_simclrhn_probe0,1,431,NaN,clock,bear,0.45,0431_hp_dnn_0.45_bear_10_n02133161_2749.png,n02133161_2749.png,0.0,-1.0636302,-0.4584212,-0.4279474
alexnet_w1_mlp_simclrhn_probe0,1,432,NaN,bicycle,boat,0.55,0432_hp_dnn_0.55_boat_10_n04612504_654.png,n04612504_654.png,0.0,-0.33290264,-0.1297973,-0.14361717
alexnet_w1_mlp_simclrhn_probe0,1,433,NaN,bottle,bottle,1,0433_hp_dnn_1_bottle_10_n04579145_287.png,n04579145_287.png,1.0,1.2494875,0.3170369,0.65934217
alexnet_w1_mlp_simclrhn_probe0,1,434,NaN,bird,bear,3,0434_hp_dnn_3_bear_10_n02133161_1423.png,n02133161_1423.png,0.0,-4.9571104,-2.6108437,-1.6590612
alexnet_w1_mlp_simclrhn_probe0,1,435,NaN,bicycle,bicycle,0.7,0435_hp_dnn_0.7_bicycle_10_n02835271_4656.png,n02835271_4656.png,1.0,0.05621001,-1.303061,0.9611498
alexnet_w1_mlp_simclrhn_probe0,1,436,NaN,clock,clock,0.7,0436_hp_dnn_0.7_clock_10_n02708093_3688.png,n02708093_3688.png,1.0,-0.005413711,-0.8506522,0.5976739
alexnet_w1_mlp_simclrhn_probe0,1,437,NaN,airplane,airplane,inf,0437_hp_dnn_inf_airplane_10_n02690373_10278.png,n02690373_10278.png,1.0,2.2066705,-0.21605988,1.7131292
alexnet_w1_mlp_simclrhn_probe0,1,438,NaN,elephant,car,0.4,0438_hp_dnn_0.4_car_10_n04285008_11133.png,n04285008_11133.png,0.0,-0.91110283,-0.57521105,-0.23751137
alexnet_w1_mlp_simclrhn_probe0,1,439,NaN,knife,knife,1,0439_hp_dnn_1_knife_10_n03041632_4214.png,n03041632_4214.png,1.0,-1.3864293,-1.4651579,0.055669498
alexnet_w1_mlp_simclrhn_probe0,1,440,NaN,knife,oven,inf,0440_hp_dnn_inf_oven_10_n04111531_7741.png,n04111531_7741.png,0.0,-5.8095675,-5.5612135,-0.17561278
alexnet_w1_mlp_simclrhn_probe0,1,441,NaN,bicycle,bicycle,3,0441_hp_dnn_3_bicycle_10_n03792782_4472.png,n03792782_4472.png,1.0,2.5247726,-4.7448287,5.1403847
alexnet_w1_mlp_simclrhn_probe0,1,442,NaN,elephant,bird,0.7,0442_hp_dnn_0.7_bird_10_n01798484_18666.png,n01798484_18666.png,0.0,-3.0923815,-1.1445496,-1.3773252
alexnet_w1_mlp_simclrhn_probe0,1,443,NaN,keyboard,keyboard,1.5,0443_hp_dnn_1.5_keyboard_10_n04505470_5059.png,n04505470_5059.png,1.0,-1.1178101,-2.0024328,0.62552273
alexnet_w1_mlp_simclrhn_probe0,1,444,NaN,clock,elephant,0.55,0444_hp_dnn_0.55_elephant_10_n02504013_2369.png,n02504013_2369.png,0.0,-1.3158909,-0.8571368,-0.32438815
alexnet_w1_mlp_simclrhn_probe0,1,445,NaN,bicycle,bottle,3,0445_hp_dnn_3_bottle_10_n02823428_10796.png,n02823428_10796.png,0.0,-3.591762,-3.166947,-0.3003897
alexnet_w1_mlp_simclrhn_probe0,1,446,NaN,chair,oven,3,0446_hp_dnn_3_oven_10_n04111531_4421.png,n04111531_4421.png,0.0,-5.0290904,-3.5252001,-1.063411
alexnet_w1_mlp_simclrhn_probe0,1,447,NaN,bicycle,bicycle,inf,0447_hp_dnn_inf_bicycle_10_n02835271_7303.png,n02835271_7303.png,1.0,3.9024868,-6.397321,7.2830644
alexnet_w1_mlp_simclrhn_probe0,1,448,NaN,truck,chair,inf,0448_hp_dnn_inf_chair_10_n02791124_7877.png,n02791124_7877.png,0.0,-5.268822,-5.0502143,-0.15457913
alexnet_w1_mlp_simclrhn_probe0,1,449,NaN,clock,bottle,1.5,0449_hp_dnn_1.5_bottle_10_n04560804_12099.png,n04560804_12099.png,0.0,-1.1645811,-0.6852229,-0.3389574
alexnet_w1_mlp_simclrhn_probe0,1,450,NaN,boat,boat,1,0450_hp_dnn_1_boat_10_n03662601_18924.png,n03662601_18924.png,1.0,-1.3984864,-2.1708245,0.54612553
alexnet_w1_mlp_simclrhn_probe0,1,451,NaN,clock,bottle,1,0451_hp_dnn_1_bottle_10_n04591713_4206.png,n04591713_4206.png,0.0,-0.70180863,-0.49297538,-0.14766741
alexnet_w1_mlp_simclrhn_probe0,1,452,NaN,clock,clock,0.55,0452_hp_dnn_0.55_clock_10_n04548280_6689.png,n04548280_6689.png,1.0,0.557231,-0.46535,0.72307396
alexnet_w1_mlp_simclrhn_probe0,1,453,NaN,elephant,dog,0.4,0453_hp_dnn_0.4_dog_10_n02090721_5305.png,n02090721_5305.png,0.0,-0.85652506,-0.12837155,-0.5148823
alexnet_w1_mlp_simclrhn_probe0,1,454,NaN,clock,clock,0.7,0454_hp_dnn_0.7_clock_10_n03196217_1746.png,n03196217_1746.png,1.0,-0.51856536,-0.67413914,0.11000728
alexnet_w1_mlp_simclrhn_probe0,1,455,NaN,keyboard,keyboard,3,0455_hp_dnn_3_keyboard_10_n04505470_7721.png,n04505470_7721.png,1.0,4.101005,1.4596021,1.867754
alexnet_w1_mlp_simclrhn_probe0,1,456,NaN,clock,clock,0.55,0456_hp_dnn_0.55_clock_10_n04548280_3248.png,n04548280_3248.png,1.0,0.080585144,-0.30947357,0.27581316
alexnet_w1_mlp_simclrhn_probe0,1,457,NaN,bird,bird,inf,0457_hp_dnn_inf_bird_10_n01534433_28009.png,n01534433_28009.png,1.0,-0.43245733,-3.9100287,2.4590144
alexnet_w1_mlp_simclrhn_probe0,1,458,NaN,chair,chair,0.4,0458_hp_dnn_0.4_chair_10_n04099969_142.png,n04099969_142.png,1.0,-0.36196542,-0.40949735,0.033610154
alexnet_w1_mlp_simclrhn_probe0,1,459,NaN,bicycle,bicycle,0.55,0459_hp_dnn_0.55_bicycle_10_n03792782_7092.png,n03792782_7092.png,1.0,-0.22200045,-0.744421,0.36940712
alexnet_w1_mlp_simclrhn_probe0,1,460,NaN,airplane,keyboard,0.45,0460_hp_dnn_0.45_keyboard_10_n03085013_25559.png,n03085013_25559.png,0.0,-0.28566474,-0.18458068,-0.07147722
alexnet_w1_mlp_simclrhn_probe0,1,461,NaN,elephant,elephant,0.7,0461_hp_dnn_0.7_elephant_10_n02504013_9144.png,n02504013_9144.png,1.0,-1.1037192,-1.7605166,0.46442592
alexnet_w1_mlp_simclrhn_probe0,1,462,NaN,keyboard,clock,0.45,0462_hp_dnn_0.45_clock_10_n03196217_2003.png,n03196217_2003.png,0.0,0.2543845,0.45272204,-0.14024583
alexnet_w1_mlp_simclrhn_probe0,1,463,NaN,elephant,elephant,1,0463_hp_dnn_1_elephant_10_n02504013_3169.png,n02504013_3169.png,1.0,-0.88738465,-2.2562828,0.9679572
alexnet_w1_mlp_simclrhn_probe0,1,464,NaN,elephant,dog,0.55,0464_hp_dnn_0.55_dog_10_n02089867_6424.png,n02089867_6424.png,0.0,-2.0438454,-0.99408793,-0.7422907
alexnet_w1_mlp_simclrhn_probe0,1,465,NaN,clock,keyboard,1,0465_hp_dnn_1_keyboard_10_n03085013_22494.png,n03085013_22494.png,0.0,-1.3077613,0.24055439,-1.0948246
alexnet_w1_mlp_simclrhn_probe0,1,466,NaN,clock,dog,0.4,0466_hp_dnn_0.4_dog_10_n02106662_37555.png,n02106662_37555.png,0.0,-0.95293194,-0.35375178,-0.42368436
alexnet_w1_mlp_simclrhn_probe0,1,467,NaN,car,car,0.55,0467_hp_dnn_0.55_car_10_n02814533_4726.png,n02814533_4726.png,1.0,-0.17898595,-0.43732065,0.18267022
alexnet_w1_mlp_simclrhn_probe0,1,468,NaN,elephant,elephant,0.45,0468_hp_dnn_0.45_elephant_10_n02504458_1473.png,n02504458_1473.png,1.0,-0.70350367,-0.70422655,0.000511157
alexnet_w1_mlp_simclrhn_probe0,1,469,NaN,clock,bottle,0.55,0469_hp_dnn_0.55_bottle_10_n04557648_3350.png,n04557648_3350.png,0.0,-0.5119132,-0.27137235,-0.17008805
alexnet_w1_mlp_simclrhn_probe0,1,470,NaN,airplane,knife,0.4,0470_hp_dnn_0.4_knife_10_n03041632_31909.png,n03041632_31909.png,0.0,-0.53165245,0.2073125,-0.5225271
alexnet_w1_mlp_simclrhn_probe0,1,471,NaN,airplane,truck,0.4,0471_hp_dnn_0.4_truck_10_n04467665_70880.png,n04467665_70880.png,0.0,-0.9431382,-0.3033469,-0.45240074
alexnet_w1_mlp_simclrhn_probe0,1,472,NaN,clock,dog,0.45,0472_hp_dnn_0.45_dog_10_n02097209_7557.png,n02097209_7557.png,0.0,-1.7221031,-0.6757596,-0.7398766
alexnet_w1_mlp_simclrhn_probe0,1,473,NaN,bottle,oven,1,0473_hp_dnn_1_oven_10_n04111531_4438.png,n04111531_4438.png,0.0,-3.561211,-1.281436,-1.6120445
alexnet_w1_mlp_simclrhn_probe0,1,474,NaN,airplane,airplane,0.7,0474_hp_dnn_0.7_airplane_10_n02690373_194.png,n02690373_194.png,1.0,0.045558803,-0.88253134,0.6562589
alexnet_w1_mlp_simclrhn_probe0,1,475,NaN,bicycle,bicycle,1.5,0475_hp_dnn_1.5_bicycle_10_n02835271_6953.png,n02835271_6953.png,1.0,-0.67038405,-3.7500553,2.1776567
alexnet_w1_mlp_simclrhn_probe0,1,476,NaN,clock,oven,0.45,0476_hp_dnn_0.45_oven_10_n04111531_14435.png,n04111531_14435.png,0.0,-1.9746962,-0.6568065,-0.93188876
alexnet_w1_mlp_simclrhn_probe0,1,477,NaN,bicycle,elephant,1.5,0477_hp_dnn_1.5_elephant_10_n02504013_5192.png,n02504013_5192.png,0.0,-3.5555744,-2.2908468,-0.8942975
alexnet_w1_mlp_simclrhn_probe0,1,478,NaN,bicycle,chair,0.7,0478_hp_dnn_0.7_chair_10_n03376595_3566.png,n03376595_3566.png,0.0,-1.5239338,-1.0068088,-0.3656626
alexnet_w1_mlp_simclrhn_probe0,1,479,NaN,bottle,truck,1,0479_hp_dnn_1_truck_10_n03417042_22709.png,n03417042_22709.png,0.0,-3.7200613,-2.3297658,-0.9830874
alexnet_w1_mlp_simclrhn_probe0,1,480,NaN,keyboard,keyboard,inf,0480_hp_dnn_inf_keyboard_10_n04505470_4603.png,n04505470_4603.png,1.0,5.754572,3.3482687,1.7015133
alexnet_w1_mlp_simclrhn_probe0,1,481,NaN,car,car,0.55,0481_hp_dnn_0.55_car_10_n03100240_1794.png,n03100240_1794.png,1.0,-0.5669545,-0.6770111,0.077821754
alexnet_w1_mlp_simclrhn_probe0,1,482,NaN,elephant,elephant,0.7,0482_hp_dnn_0.7_elephant_10_n02504458_1233.png,n02504458_1233.png,1.0,-0.68955964,-1.7982494,0.7839621
alexnet_w1_mlp_simclrhn_probe0,1,483,NaN,clock,airplane,0.45,0483_hp_dnn_0.45_airplane_10_n02690373_3047.png,n02690373_3047.png,0.0,-0.35582364,-0.2923981,-0.044848632
alexnet_w1_mlp_simclrhn_probe0,1,484,NaN,elephant,elephant,0.55,0484_hp_dnn_0.55_elephant_10_n02504013_7422.png,n02504013_7422.png,1.0,0.007090289,-0.6037058,0.43189806
alexnet_w1_mlp_simclrhn_probe0,1,485,NaN,bicycle,bicycle,0.45,0485_hp_dnn_0.45_bicycle_10_n03792782_16034.png,n03792782_16034.png,1.0,-0.5781753,-0.72827005,0.106133014
alexnet_w1_mlp_simclrhn_probe0,1,486,NaN,bicycle,bicycle,3,0486_hp_dnn_3_bicycle_10_n02835271_11922.png,n02835271_11922.png,1.0,-1.7828285,-3.4787676,1.1992102
alexnet_w1_mlp_simclrhn_probe0,1,487,NaN,keyboard,truck,0.7,0487_hp_dnn_0.7_truck_10_n03796401_6526.png,n03796401_6526.png,0.0,-1.6763294,-0.6004804,-0.76074016
alexnet_w1_mlp_simclrhn_probe0,1,488,NaN,boat,boat,3,0488_hp_dnn_3_boat_10_n03662601_1834.png,n03662601_1834.png,1.0,0.985079,-1.5304223,1.778728
alexnet_w1_mlp_simclrhn_probe0,1,489,NaN,elephant,dog,0.7,0489_hp_dnn_0.7_dog_10_n02100236_619.png,n02100236_619.png,0.0,-3.4688928,-1.4490206,-1.4282653
alexnet_w1_mlp_simclrhn_probe0,1,490,NaN,chair,truck,0.45,0490_hp_dnn_0.45_truck_10_n04467665_21266.png,n04467665_21266.png,0.0,-1.2332189,-0.56417733,-0.47308385
alexnet_w1_mlp_simclrhn_probe0,1,491,NaN,clock,chair,0.55,0491_hp_dnn_0.55_chair_10_n04099969_18220.png,n04099969_18220.png,0.0,-0.24438113,-0.17961018,-0.04579998
alexnet_w1_mlp_simclrhn_probe0,1,492,NaN,keyboard,keyboard,1.5,0492_hp_dnn_1.5_keyboard_10_n03085013_4157.png,n03085013_4157.png,1.0,1.5588436,0.7417421,0.57777804
alexnet_w1_mlp_simclrhn_probe0,1,493,NaN,clock,bicycle,0.4,0493_hp_dnn_0.4_bicycle_10_n03792782_1276.png,n03792782_1276.png,0.0,-1.1412039,-0.64501673,-0.35085732
alexnet_w1_mlp_simclrhn_probe0,1,494,NaN,boat,boat,3,0494_hp_dnn_3_boat_10_n03344393_1987.png,n03344393_1987.png,1.0,2.2377028,-1.2902408,2.494633
alexnet_w1_mlp_simclrhn_probe0,1,495,NaN,airplane,boat,0.45,0495_hp_dnn_0.45_boat_10_n03344393_381.png,n03344393_381.png,0.0,-0.8179474,-0.24084745,-0.40807128
alexnet_w1_mlp_simclrhn_probe0,1,496,NaN,clock,clock,inf,0496_hp_dnn_inf_clock_10_n02708093_8390.png,n02708093_8390.png,1.0,0.70769,-0.21923316,0.65543365
alexnet_w1_mlp_simclrhn_probe0,1,497,NaN,keyboard,keyboard,0.55,0497_hp_dnn_0.55_keyboard_10_n04505470_1043.png,n04505470_1043.png,1.0,1.4927588,-0.42807293,1.3582331
alexnet_w1_mlp_simclrhn_probe0,1,498,NaN,elephant,dog,0.55,0498_hp_dnn_0.55_dog_10_n02100877_1902.png,n02100877_1902.png,0.0,-2.804043,-1.1496894,-1.1698047
alexnet_w1_mlp_simclrhn_probe0,1,499,NaN,clock,knife,1.5,0499_hp_dnn_1.5_knife_10_n03041632_55083.png,n03041632_55083.png,0.0,-1.4741414,-0.23604572,-0.8754658
alexnet_w1_mlp_simclrhn_probe0,1,500,NaN,chair,truck,1.5,0500_hp_dnn_1.5_truck_10_n04467665_45872.png,n04467665_45872.png,0.0,-3.7850382,-1.8469785,-1.3704152
alexnet_w1_mlp_simclrhn_probe0,1,501,NaN,knife,boat,0.7,0501_hp_dnn_0.7_boat_10_n04273569_3244.png,n04273569_3244.png,0.0,-2.5596414,-0.7044542,-1.3118155
alexnet_w1_mlp_simclrhn_probe0,1,502,NaN,elephant,bear,0.45,0502_hp_dnn_0.45_bear_10_n02134418_2157.png,n02134418_2157.png,0.0,-0.8508624,-0.77403355,-0.05432619
alexnet_w1_mlp_simclrhn_probe0,1,503,NaN,bottle,bottle,3,0503_hp_dnn_3_bottle_10_n04591713_17618.png,n04591713_17618.png,1.0,-2.6439328,-4.0621877,1.0028577
alexnet_w1_mlp_simclrhn_probe0,1,504,NaN,clock,cat,1,0504_hp_dnn_1_cat_10_n02125311_8496.png,n02125311_8496.png,0.0,-2.3148963,-1.7037725,-0.4321298
alexnet_w1_mlp_simclrhn_probe0,1,505,NaN,car,car,inf,0505_hp_dnn_inf_car_10_n02814533_3560.png,n02814533_3560.png,1.0,12.799977,11.322865,1.0444765
alexnet_w1_mlp_simclrhn_probe0,1,506,NaN,clock,truck,0.7,0506_hp_dnn_0.7_truck_10_n03417042_751.png,n03417042_751.png,0.0,-1.461138,-1.0584503,-0.2847432
alexnet_w1_mlp_simclrhn_probe0,1,507,NaN,truck,keyboard,inf,0507_hp_dnn_inf_keyboard_10_n03085013_23213.png,n03085013_23213.png,0.0,-5.799315,-4.8462515,-0.67391765
alexnet_w1_mlp_simclrhn_probe0,1,508,NaN,bottle,bicycle,0.4,0508_hp_dnn_0.4_bicycle_10_n03792782_19709.png,n03792782_19709.png,0.0,-1.0837299,-0.48943445,-0.4202303
alexnet_w1_mlp_simclrhn_probe0,1,509,NaN,oven,oven,inf,0509_hp_dnn_inf_oven_10_n04111531_3076.png,n04111531_3076.png,1.0,2.5195403,0.43331248,1.4751859
alexnet_w1_mlp_simclrhn_probe0,1,510,NaN,airplane,knife,0.4,0510_hp_dnn_0.4_knife_10_n03041632_14774.png,n03041632_14774.png,0.0,-0.118789345,-0.00856211,-0.07794242
alexnet_w1_mlp_simclrhn_probe0,1,511,NaN,car,car,0.7,0511_hp_dnn_0.7_car_10_n03100240_7703.png,n03100240_7703.png,1.0,0.94059396,0.1143631,0.58423346
alexnet_w1_mlp_simclrhn_probe0,1,512,NaN,elephant,bear,0.55,0512_hp_dnn_0.55_bear_10_n02134084_13434.png,n02134084_13434.png,0.0,-1.2339357,-0.4308645,-0.5678571
alexnet_w1_mlp_simclrhn_probe0,1,513,NaN,dog,dog,inf,0513_hp_dnn_inf_dog_10_n02111500_4280.png,n02111500_4280.png,1.0,-3.2932262,-3.3209655,0.019614639
alexnet_w1_mlp_simclrhn_probe0,1,514,NaN,elephant,bear,0.55,0514_hp_dnn_0.55_bear_10_n02132136_23853.png,n02132136_23853.png,0.0,-1.217517,-0.6632562,-0.39192158
alexnet_w1_mlp_simclrhn_probe0,1,515,NaN,bicycle,bicycle,1.5,0515_hp_dnn_1.5_bicycle_10_n03792782_17193.png,n03792782_17193.png,1.0,-1.502241,-3.6380155,1.5102208
alexnet_w1_mlp_simclrhn_probe0,1,516,NaN,bottle,dog,1,0516_hp_dnn_1_dog_10_n02102177_5770.png,n02102177_5770.png,0.0,-2.4594955,-1.7411681,-0.5079342
alexnet_w1_mlp_simclrhn_probe0,1,517,NaN,elephant,bear,0.7,0517_hp_dnn_0.7_bear_10_n02132136_2279.png,n02132136_2279.png,0.0,-1.3769705,0.33664224,-1.2117072
alexnet_w1_mlp_simclrhn_probe0,1,518,NaN,bear,bear,inf,0518_hp_dnn_inf_bear_10_n02134084_6910.png,n02134084_6910.png,1.0,-4.4337378,-4.960724,0.37263545
alexnet_w1_mlp_simclrhn_probe0,1,519,NaN,oven,oven,0.7,0519_hp_dnn_0.7_oven_10_n04111531_9041.png,n04111531_9041.png,1.0,0.26757556,-1.0190842,0.90980583
alexnet_w1_mlp_simclrhn_probe0,1,520,NaN,cat,cat,1,0520_hp_dnn_1_cat_10_n02123159_5424.png,n02123159_5424.png,1.0,-1.8334955,-2.0436158,0.14857751
alexnet_w1_mlp_simclrhn_probe0,1,521,NaN,elephant,bicycle,0.45,0521_hp_dnn_0.45_bicycle_10_n02835271_672.png,n02835271_672.png,0.0,-1.5089576,-0.77554065,-0.5186041
alexnet_w1_mlp_simclrhn_probe0,1,522,NaN,airplane,airplane,0.45,0522_hp_dnn_0.45_airplane_10_n02690373_18111.png,n02690373_18111.png,1.0,-0.18544275,-0.48008946,0.2083467
alexnet_w1_mlp_simclrhn_probe0,1,523,NaN,clock,clock,1,0523_hp_dnn_1_clock_10_n04548280_3013.png,n04548280_3013.png,1.0,1.6531285,-0.5567718,1.5626355
alexnet_w1_mlp_simclrhn_probe0,1,524,NaN,elephant,dog,0.45,0524_hp_dnn_0.45_dog_10_n02094258_4142.png,n02094258_4142.png,0.0,-1.1812116,-0.49123842,-0.48788473
alexnet_w1_mlp_simclrhn_probe0,1,525,NaN,clock,clock,3,0525_hp_dnn_3_clock_10_n04548280_6919.png,n04548280_6919.png,1.0,4.112449,-0.25256953,3.0865345
alexnet_w1_mlp_simclrhn_probe0,1,526,NaN,airplane,cat,0.4,0526_hp_dnn_0.4_cat_10_n02124075_16814.png,n02124075_16814.png,0.0,-0.567775,-0.37489703,-0.13638532
alexnet_w1_mlp_simclrhn_probe0,1,527,NaN,clock,clock,1,0527_hp_dnn_1_clock_10_n04548280_3342.png,n04548280_3342.png,1.0,-0.8654368,-1.6576759,0.56019765
alexnet_w1_mlp_simclrhn_probe0,1,528,NaN,bicycle,boat,1,0528_hp_dnn_1_boat_10_n04612504_31680.png,n04612504_31680.png,0.0,-1.0121772,-0.65722775,-0.25098717
alexnet_w1_mlp_simclrhn_probe0,1,529,NaN,keyboard,keyboard,inf,0529_hp_dnn_inf_keyboard_10_n03085013_7962.png,n03085013_7962.png,1.0,9.0268135,0.39590517,6.1029735
alexnet_w1_mlp_simclrhn_probe0,1,530,NaN,bicycle,bicycle,3,0530_hp_dnn_3_bicycle_10_n02835271_949.png,n02835271_949.png,1.0,2.4806828,-3.7534084,4.4081683
alexnet_w1_mlp_simclrhn_probe0,1,531,NaN,keyboard,keyboard,1,0531_hp_dnn_1_keyboard_10_n04505470_4228.png,n04505470_4228.png,1.0,-0.7634339,-1.7402911,0.6907424
alexnet_w1_mlp_simclrhn_probe0,1,532,NaN,knife,boat,0.7,0532_hp_dnn_0.7_boat_10_n03344393_3219.png,n03344393_3219.png,0.0,-2.357679,-0.83328104,-1.0779121
alexnet_w1_mlp_simclrhn_probe0,1,533,NaN,bicycle,elephant,3,0533_hp_dnn_3_elephant_10_n02504458_3399.png,n02504458_3399.png,0.0,-9.523169,-5.4621096,-2.8716023
alexnet_w1_mlp_simclrhn_probe0,1,534,NaN,airplane,bird,0.55,0534_hp_dnn_0.55_bird_10_n01616318_12459.png,n01616318_12459.png,0.0,-1.0594318,-0.45047593,-0.43059683
alexnet_w1_mlp_simclrhn_probe0,1,535,NaN,elephant,elephant,0.4,0535_hp_dnn_0.4_elephant_10_n02504013_1846.png,n02504013_1846.png,1.0,-0.33945143,-0.43664902,0.06872908
alexnet_w1_mlp_simclrhn_probe0,1,536,NaN,bicycle,bicycle,0.55,0536_hp_dnn_0.55_bicycle_10_n03792782_5097.png,n03792782_5097.png,1.0,-1.0098393,-1.1353436,0.08874491
alexnet_w1_mlp_simclrhn_probe0,1,537,NaN,bicycle,bottle,3,0537_hp_dnn_3_bottle_10_n02823428_5115.png,n02823428_5115.png,0.0,-4.4711494,-1.6970778,-1.9615649
alexnet_w1_mlp_simclrhn_probe0,1,538,NaN,keyboard,keyboard,inf,0538_hp_dnn_inf_keyboard_10_n03085013_21282.png,n03085013_21282.png,1.0,3.6252203,2.5471156,0.7623352
alexnet_w1_mlp_simclrhn_probe0,1,539,NaN,clock,oven,0.4,0539_hp_dnn_0.4_oven_10_n04111531_1815.png,n04111531_1815.png,0.0,-0.76311505,-0.43240544,-0.233847
alexnet_w1_mlp_simclrhn_probe0,1,540,NaN,clock,chair,1,0540_hp_dnn_1_chair_10_n02791124_5268.png,n02791124_5268.png,0.0,-2.5355425,-2.1761243,-0.25414702
alexnet_w1_mlp_simclrhn_probe0,1,541,NaN,clock,airplane,0.55,0541_hp_dnn_0.55_airplane_10_n02690373_3035.png,n02690373_3035.png,0.0,-0.6754906,-0.5466165,-0.09112777
alexnet_w1_mlp_simclrhn_probe0,1,542,NaN,dog,dog,inf,0542_hp_dnn_inf_dog_10_n02107683_1460.png,n02107683_1460.png,1.0,-4.3594294,-6.5731163,1.5653131
alexnet_w1_mlp_simclrhn_probe0,1,543,NaN,bicycle,boat,inf,0543_hp_dnn_inf_boat_10_n02951358_31813.png,n02951358_31813.png,0.0,-0.36028105,0.76816654,-0.7979329
alexnet_w1_mlp_simclrhn_probe0,1,544,NaN,elephant,bird,0.4,0544_hp_dnn_0.4_bird_10_n01797886_16808.png,n01797886_16808.png,0.0,-1.0910437,-0.36053354,-0.5165487
alexnet_w1_mlp_simclrhn_probe0,1,545,NaN,elephant,elephant,0.45,0545_hp_dnn_0.45_elephant_10_n02504458_4767.png,n02504458_4767.png,1.0,-0.30673614,-0.5786502,0.19227226
alexnet_w1_mlp_simclrhn_probe0,1,546,NaN,bicycle,knife,3,0546_hp_dnn_3_knife_10_n03041632_41493.png,n03041632_41493.png,0.0,-4.1901827,-2.9442177,-0.8810303
alexnet_w1_mlp_simclrhn_probe0,1,547,NaN,bicycle,elephant,3,0547_hp_dnn_3_elephant_10_n02504458_3329.png,n02504458_3329.png,0.0,-4.040288,-2.6948218,-0.95138824
alexnet_w1_mlp_simclrhn_probe0,1,548,NaN,clock,cat,0.45,0548_hp_dnn_0.45_cat_10_n02124075_12467.png,n02124075_12467.png,0.0,-1.5499263,-0.7588584,-0.5593695
alexnet_w1_mlp_simclrhn_probe0,1,549,NaN,clock,truck,0.7,0549_hp_dnn_0.7_truck_10_n03417042_6467.png,n03417042_6467.png,0.0,-1.6415646,-0.84861344,-0.56070113
alexnet_w1_mlp_simclrhn_probe0,1,550,NaN,airplane,airplane,inf,0550_hp_dnn_inf_airplane_10_n02690373_734.png,n02690373_734.png,1.0,7.4832606,-5.6741905,9.303723
alexnet_w1_mlp_simclrhn_probe0,1,551,NaN,airplane,car,0.4,0551_hp_dnn_0.4_car_10_n02814533_85296.png,n02814533_85296.png,0.0,-0.93750507,-0.16457772,-0.54654217
alexnet_w1_mlp_simclrhn_probe0,1,552,NaN,clock,elephant,0.7,0552_hp_dnn_0.7_elephant_10_n02504013_18005.png,n02504013_18005.png,0.0,-1.3470511,-1.2993871,-0.03370357
alexnet_w1_mlp_simclrhn_probe0,1,553,NaN,clock,clock,0.45,0553_hp_dnn_0.45_clock_10_n02708093_1495.png,n02708093_1495.png,1.0,-0.087391205,-0.5526257,0.3289705
alexnet_w1_mlp_simclrhn_probe0,1,554,NaN,clock,car,1.5,0554_hp_dnn_1.5_car_10_n04285008_3462.png,n04285008_3462.png,0.0,-1.3219222,-1.2986686,-0.01644275
alexnet_w1_mlp_simclrhn_probe0,1,555,NaN,clock,truck,0.4,0555_hp_dnn_0.4_truck_10_n03417042_22297.png,n03417042_22297.png,0.0,-0.6248994,-0.21665041,-0.2886756
alexnet_w1_mlp_simclrhn_probe0,1,556,NaN,bicycle,chair,3,0556_hp_dnn_3_chair_10_n04429376_7279.png,n04429376_7279.png,0.0,-4.947938,-1.8605788,-2.1830926
alexnet_w1_mlp_simclrhn_probe0,1,557,NaN,bicycle,bicycle,3,0557_hp_dnn_3_bicycle_10_n02835271_6919.png,n02835271_6919.png,1.0,1.1256036,-4.283148,3.824565
alexnet_w1_mlp_simclrhn_probe0,1,558,NaN,clock,oven,0.55,0558_hp_dnn_0.55_oven_10_n04111531_2260.png,n04111531_2260.png,0.0,-0.52260053,-0.13790418,-0.2720214
alexnet_w1_mlp_simclrhn_probe0,1,559,NaN,elephant,bear,0.7,0559_hp_dnn_0.7_bear_10_n02134084_5794.png,n02134084_5794.png,0.0,-2.3812249,-0.89410037,-1.0515558
alexnet_w1_mlp_simclrhn_probe0,1,560,NaN,clock,airplane,0.7,0560_hp_dnn_0.7_airplane_10_n02690373_10397.png,n02690373_10397.png,0.0,-1.3784251,-0.46539602,-0.6456091
alexnet_w1_mlp_simclrhn_probe0,1,561,NaN,elephant,elephant,0.4,0561_hp_dnn_0.4_elephant_10_n02504458_2041.png,n02504458_2041.png,1.0,-0.394184,-0.4030236,0.0062505463
alexnet_w1_mlp_simclrhn_probe0,1,562,NaN,chair,chair,1,0562_hp_dnn_1_chair_10_n04429376_7732.png,n04429376_7732.png,1.0,-1.5456531,-1.9437352,0.28148657
alexnet_w1_mlp_simclrhn_probe0,1,563,NaN,airplane,airplane,0.4,0563_hp_dnn_0.4_airplane_10_n02690373_4788.png,n02690373_4788.png,1.0,0.21529986,-0.2707138,0.34366354
alexnet_w1_mlp_simclrhn_probe0,1,564,NaN,clock,dog,0.55,0564_hp_dnn_0.55_dog_10_n02097474_2799.png,n02097474_2799.png,0.0,-2.2611737,-0.77689403,-1.0495442
alexnet_w1_mlp_simclrhn_probe0,1,565,NaN,knife,bear,1.5,0565_hp_dnn_1.5_bear_10_n02134084_17849.png,n02134084_17849.png,0.0,-1.7656919,-1.1606802,-0.4278079
alexnet_w1_mlp_simclrhn_probe0,1,566,NaN,dog,dog,inf,0566_hp_dnn_inf_dog_10_n02086646_7064.png,n02086646_7064.png,1.0,-1.4727719,-4.3361554,2.024718
alexnet_w1_mlp_simclrhn_probe0,1,567,NaN,clock,truck,0.55,0567_hp_dnn_0.55_truck_10_n03417042_7061.png,n03417042_7061.png,0.0,-0.58397317,0.050056953,-0.448327
alexnet_w1_mlp_simclrhn_probe0,1,568,NaN,bicycle,bird,1,0568_hp_dnn_1_bird_10_n01820546_3605.png,n01820546_3605.png,0.0,-2.6942961,-1.5869702,-0.78299767
alexnet_w1_mlp_simclrhn_probe0,1,569,NaN,clock,bear,0.4,0569_hp_dnn_0.4_bear_10_n02133161_2813.png,n02133161_2813.png,0.0,-1.5967387,-0.33886778,-0.88944906
alexnet_w1_mlp_simclrhn_probe0,1,570,NaN,elephant,bear,0.45,0570_hp_dnn_0.45_bear_10_n02132136_16636.png,n02132136_16636.png,0.0,-0.80311763,-0.307678,-0.3503287
alexnet_w1_mlp_simclrhn_probe0,1,571,NaN,chair,oven,1.5,0571_hp_dnn_1.5_oven_10_n04111531_14959.png,n04111531_14959.png,0.0,-4.060304,-1.5957334,-1.7427148
alexnet_w1_mlp_simclrhn_probe0,1,572,NaN,clock,cat,0.45,0572_hp_dnn_0.45_cat_10_n02124075_5453.png,n02124075_5453.png,0.0,-0.98518974,-0.71305394,-0.19242907
alexnet_w1_mlp_simclrhn_probe0,1,573,NaN,elephant,cat,1,0573_hp_dnn_1_cat_10_n02124075_11528.png,n02124075_11528.png,0.0,-1.92569,-1.9063666,-0.013663756
alexnet_w1_mlp_simclrhn_probe0,1,574,NaN,elephant,cat,1,0574_hp_dnn_1_cat_10_n02123159_3454.png,n02123159_3454.png,0.0,-1.7710017,-1.4565735,-0.22233433
alexnet_w1_mlp_simclrhn_probe0,1,575,NaN,clock,bird,0.45,0575_hp_dnn_0.45_bird_10_n02025239_2227.png,n02025239_2227.png,0.0,-0.8324646,-0.7179024,-0.081007674
alexnet_w1_mlp_simclrhn_probe0,1,576,NaN,chair,chair,0.7,0576_hp_dnn_0.7_chair_10_n03376595_12256.png,n03376595_12256.png,1.0,-1.5834513,-1.6546167,0.050321568
alexnet_w1_mlp_simclrhn_probe0,1,577,NaN,clock,clock,1.5,0577_hp_dnn_1.5_clock_10_n02708093_6591.png,n02708093_6591.png,1.0,-1.3608516,-2.964282,1.1337966
alexnet_w1_mlp_simclrhn_probe0,1,578,NaN,clock,chair,0.55,0578_hp_dnn_0.55_chair_10_n04099969_34144.png,n04099969_34144.png,0.0,-1.0300969,-0.8765838,-0.10855014
alexnet_w1_mlp_simclrhn_probe0,1,579,NaN,elephant,bear,0.55,0579_hp_dnn_0.55_bear_10_n02132136_3563.png,n02132136_3563.png,0.0,-1.5011092,0.3564837,-1.3135166
alexnet_w1_mlp_simclrhn_probe0,1,580,NaN,elephant,elephant,1,0580_hp_dnn_1_elephant_10_n02504013_6671.png,n02504013_6671.png,1.0,0.19006425,-1.9996399,1.5483547
alexnet_w1_mlp_simclrhn_probe0,1,581,NaN,clock,keyboard,0.7,0581_hp_dnn_0.7_keyboard_10_n03085013_22067.png,n03085013_22067.png,0.0,-0.70472646,-0.5242637,-0.12760645
alexnet_w1_mlp_simclrhn_probe0,1,582,NaN,truck,truck,inf,0582_hp_dnn_inf_truck_10_n03796401_1458.png,n03796401_1458.png,1.0,-1.039876,-5.39067,3.0764759
alexnet_w1_mlp_simclrhn_probe0,1,583,NaN,clock,bottle,0.45,0583_hp_dnn_0.45_bottle_10_n04591713_807.png,n04591713_807.png,0.0,-0.6667525,-0.22400244,-0.3130716
alexnet_w1_mlp_simclrhn_probe0,1,584,NaN,clock,car,1,0584_hp_dnn_1_car_10_n02814533_22693.png,n02814533_22693.png,0.0,-3.1341712,-0.67092323,-1.7417794
alexnet_w1_mlp_simclrhn_probe0,1,585,NaN,clock,car,0.7,0585_hp_dnn_0.7_car_10_n02814533_5278.png,n02814533_5278.png,0.0,-1.0104123,-0.45694038,-0.39136377
alexnet_w1_mlp_simclrhn_probe0,1,586,NaN,boat,boat,1.5,0586_hp_dnn_1.5_boat_10_n03662601_10240.png,n03662601_10240.png,1.0,-1.9081494,-2.2980862,0.27572697
alexnet_w1_mlp_simclrhn_probe0,1,587,NaN,airplane,airplane,inf,0587_hp_dnn_inf_airplane_10_n02690373_9673.png,n02690373_9673.png,1.0,3.5449002,-1.4911124,3.5609987
alexnet_w1_mlp_simclrhn_probe0,1,588,NaN,bird,bird,0.7,0588_hp_dnn_0.7_bird_10_n02009229_6029.png,n02009229_6029.png,1.0,-0.3249443,-1.0828125,0.5358938
alexnet_w1_mlp_simclrhn_probe0,1,589,NaN,clock,clock,0.4,0589_hp_dnn_0.4_clock_10_n02708093_2580.png,n02708093_2580.png,1.0,0.7441637,-0.19856428,0.66660935
alexnet_w1_mlp_simclrhn_probe0,1,590,NaN,airplane,elephant,0.4,0590_hp_dnn_0.4_elephant_10_n02504013_295.png,n02504013_295.png,0.0,-0.6101563,-0.35467142,-0.18065509
alexnet_w1_mlp_simclrhn_probe0,1,591,NaN,car,car,0.7,0591_hp_dnn_0.7_car_10_n04285008_9893.png,n04285008_9893.png,1.0,-0.023332948,-0.25226703,0.16188084
alexnet_w1_mlp_simclrhn_probe0,1,592,NaN,knife,chair,1.5,0592_hp_dnn_1.5_chair_10_n03376595_6850.png,n03376595_6850.png,0.0,-3.010573,-3.0089443,-0.0011516205
alexnet_w1_mlp_simclrhn_probe0,1,593,NaN,car,boat,3,0593_hp_dnn_3_boat_10_n03662601_15713.png,n03662601_15713.png,0.0,-2.7868834,-1.9608836,-0.58407
alexnet_w1_mlp_simclrhn_probe0,1,594,NaN,airplane,clock,0.4,0594_hp_dnn_0.4_clock_10_n04548280_9867.png,n04548280_9867.png,0.0,-0.070707045,0.11199567,-0.12919034
alexnet_w1_mlp_simclrhn_probe0,1,595,NaN,airplane,airplane,1.5,0595_hp_dnn_1.5_airplane_10_n02690373_1450.png,n02690373_1450.png,1.0,1.2390634,-0.5872485,1.2913975
alexnet_w1_mlp_simclrhn_probe0,1,596,NaN,clock,bicycle,0.45,0596_hp_dnn_0.45_bicycle_10_n03792782_7787.png,n03792782_7787.png,0.0,-1.0554245,-0.6855101,-0.26156896
alexnet_w1_mlp_simclrhn_probe0,1,597,NaN,clock,chair,0.45,0597_hp_dnn_0.45_chair_10_n04099969_1219.png,n04099969_1219.png,0.0,-0.40854406,-0.24195558,-0.11779585
alexnet_w1_mlp_simclrhn_probe0,1,598,NaN,keyboard,keyboard,0.55,0598_hp_dnn_0.55_keyboard_10_n03085013_8325.png,n03085013_8325.png,1.0,0.65245736,-0.16374356,0.5771412
alexnet_w1_mlp_simclrhn_probe0,1,599,NaN,chair,bicycle,0.55,0599_hp_dnn_0.55_bicycle_10_n02835271_14732.png,n02835271_14732.png,0.0,-1.3039501,-1.0446084,-0.18338229
alexnet_w1_mlp_simclrhn_probe0,1,600,NaN,airplane,airplane,1.5,0600_hp_dnn_1.5_airplane_10_n02690373_4176.png,n02690373_4176.png,1.0,1.2844887,-1.3559732,1.8670886
alexnet_w1_mlp_simclrhn_probe0,1,601,NaN,elephant,bird,1,0601_hp_dnn_1_bird_10_n01534433_905.png,n01534433_905.png,0.0,-2.5665648,-1.2765461,-0.91218096
alexnet_w1_mlp_simclrhn_probe0,1,602,NaN,airplane,truck,1.5,0602_hp_dnn_1.5_truck_10_n04467665_45306.png,n04467665_45306.png,0.0,-1.6352248,-0.65699464,-0.6917132
alexnet_w1_mlp_simclrhn_probe0,1,603,NaN,bird,elephant,3,0603_hp_dnn_3_elephant_10_n02504458_1617.png,n02504458_1617.png,0.0,-3.6343997,-3.5829873,-0.036354017
alexnet_w1_mlp_simclrhn_probe0,1,604,NaN,clock,oven,0.45,0604_hp_dnn_0.45_oven_10_n04111531_4148.png,n04111531_4148.png,0.0,-1.3001096,-0.33540368,-0.6821501
alexnet_w1_mlp_simclrhn_probe0,1,605,NaN,clock,bird,0.55,0605_hp_dnn_0.55_bird_10_n02009912_91.png,n02009912_91.png,0.0,-2.205984,-1.4683043,-0.5216184
alexnet_w1_mlp_simclrhn_probe0,1,606,NaN,airplane,knife,3,0606_hp_dnn_3_knife_10_n03041632_33739.png,n03041632_33739.png,0.0,-1.6615646,-1.2876518,-0.26439628
alexnet_w1_mlp_simclrhn_probe0,1,607,NaN,airplane,airplane,1,0607_hp_dnn_1_airplane_10_n02690373_9318.png,n02690373_9318.png,1.0,2.5185263,-0.9269541,2.4363225
alexnet_w1_mlp_simclrhn_probe0,1,608,NaN,clock,bird,0.4,0608_hp_dnn_0.4_bird_10_n01828970_8669.png,n01828970_8669.png,0.0,-1.0323223,-0.42025793,-0.43279487
alexnet_w1_mlp_simclrhn_probe0,1,609,NaN,clock,truck,1.5,0609_hp_dnn_1.5_truck_10_n04467665_58762.png,n04467665_58762.png,0.0,-2.398026,-1.7408199,-0.46471485
alexnet_w1_mlp_simclrhn_probe0,1,610,NaN,car,car,3,0610_hp_dnn_3_car_10_n03100240_11417.png,n03100240_11417.png,1.0,1.6049176,-0.8423132,1.7304535
alexnet_w1_mlp_simclrhn_probe0,1,611,NaN,bicycle,bicycle,inf,0611_hp_dnn_inf_bicycle_10_n03792782_16179.png,n03792782_16179.png,1.0,0.56663513,-6.337599,4.8820305
alexnet_w1_mlp_simclrhn_probe0,1,612,NaN,car,car,1,0612_hp_dnn_1_car_10_n04285008_8444.png,n04285008_8444.png,1.0,-0.18162526,-0.43469763,0.1789492
alexnet_w1_mlp_simclrhn_probe0,1,613,NaN,chair,chair,inf,0613_hp_dnn_inf_chair_10_n02791124_3240.png,n02791124_3240.png,1.0,-2.1671789,-2.9527876,0.55550927
alexnet_w1_mlp_simclrhn_probe0,1,614,NaN,bicycle,bicycle,0.7,0614_hp_dnn_0.7_bicycle_10_n02835271_1035.png,n02835271_1035.png,1.0,-1.1349815,-1.9451582,0.57288146
alexnet_w1_mlp_simclrhn_probe0,1,615,NaN,chair,bicycle,0.55,0615_hp_dnn_0.55_bicycle_10_n02835271_6167.png,n02835271_6167.png,0.0,-0.8992499,-0.78519416,-0.0806496
alexnet_w1_mlp_simclrhn_probe0,1,616,NaN,clock,bottle,3,0616_hp_dnn_3_bottle_10_n02823428_6830.png,n02823428_6830.png,0.0,-0.249091,0.93764114,-0.8391464
alexnet_w1_mlp_simclrhn_probe0,1,617,NaN,knife,knife,0.45,0617_hp_dnn_0.45_knife_10_n03041632_17349.png,n03041632_17349.png,1.0,-0.28657937,-0.45298862,0.11766911
alexnet_w1_mlp_simclrhn_probe0,1,618,NaN,airplane,airplane,inf,0618_hp_dnn_inf_airplane_10_n02690373_2024.png,n02690373_2024.png,1.0,5.893521,0.90283376,3.5289485
alexnet_w1_mlp_simclrhn_probe0,1,619,NaN,bicycle,bottle,1,0619_hp_dnn_1_bottle_10_n02823428_8034.png,n02823428_8034.png,0.0,-2.6373267,-1.4253751,-0.8569792
alexnet_w1_mlp_simclrhn_probe0,1,620,NaN,chair,chair,1,0620_hp_dnn_1_chair_10_n02791124_6786.png,n02791124_6786.png,1.0,-1.6665604,-2.2631865,0.42187834
alexnet_w1_mlp_simclrhn_probe0,1,621,NaN,clock,chair,0.45,0621_hp_dnn_0.45_chair_10_n03376595_10689.png,n03376595_10689.png,0.0,-0.17646924,-0.13703783,-0.027882216
alexnet_w1_mlp_simclrhn_probe0,1,622,NaN,clock,knife,0.4,0622_hp_dnn_0.4_knife_10_n03041632_22734.png,n03041632_22734.png,0.0,-0.90475875,-0.15147606,-0.5326513
alexnet_w1_mlp_simclrhn_probe0,1,623,NaN,keyboard,oven,0.4,0623_hp_dnn_0.4_oven_10_n04111531_10521.png,n04111531_10521.png,0.0,-0.9445662,-0.35362267,-0.41786018
alexnet_w1_mlp_simclrhn_probe0,1,624,NaN,elephant,bird,inf,0624_hp_dnn_inf_bird_10_n02007558_37147.png,n02007558_37147.png,0.0,-6.505896,-5.836568,-0.47328654
alexnet_w1_mlp_simclrhn_probe0,1,625,NaN,chair,oven,3,0625_hp_dnn_3_oven_10_n04111531_14753.png,n04111531_14753.png,0.0,-3.2116647,-1.2484608,-1.3881948
alexnet_w1_mlp_simclrhn_probe0,1,626,NaN,keyboard,bottle,0.7,0626_hp_dnn_0.7_bottle_10_n03983396_4990.png,n03983396_4990.png,0.0,-1.7810243,-0.9918585,-0.5580245
alexnet_w1_mlp_simclrhn_probe0,1,627,NaN,elephant,cat,0.45,0627_hp_dnn_0.45_cat_10_n02125311_25104.png,n02125311_25104.png,0.0,-0.5896916,-0.4890365,-0.07117389
