subj,session,trial,rt,object_response,category,condition,imagename,filename,is_correct,targ_act,max_nontarg_act,decision_margin
alexnet_w1_mlp_simclrhn_probe2,1,1,NaN,airplane,boat,0.7,0001_hp_dnn_0.7_boat_10_n03662601_12531.png,n03662601_12531.png,0.0,-0.045464035,0.16958608,-0.1520634
alexnet_w1_mlp_simclrhn_probe2,1,2,NaN,clock,chair,0.7,0002_hp_dnn_0.7_chair_10_n04429376_22819.png,n04429376_22819.png,0.0,-0.37649363,-0.23166965,-0.102406025
alexnet_w1_mlp_simclrhn_probe2,1,3,NaN,clock,elephant,0.45,0003_hp_dnn_0.45_elephant_10_n02504458_582.png,n02504458_582.png,0.0,-0.5975491,0.1458921,-0.5256923
alexnet_w1_mlp_simclrhn_probe2,1,4,NaN,clock,bicycle,0.7,0004_hp_dnn_0.7_bicycle_10_n03792782_41173.png,n03792782_41173.png,0.0,-0.9166039,-0.24925475,-0.4718871
alexnet_w1_mlp_simclrhn_probe2,1,5,NaN,clock,cat,1.5,0005_hp_dnn_1.5_cat_10_n02123597_7071.png,n02123597_7071.png,0.0,-1.4942752,-0.21411152,-0.9052124
alexnet_w1_mlp_simclrhn_probe2,1,6,NaN,airplane,cat,0.4,0006_hp_dnn_0.4_cat_10_n02123394_2386.png,n02123394_2386.png,0.0,-0.3574017,0.20808935,-0.3998626
alexnet_w1_mlp_simclrhn_probe2,1,7,NaN,oven,oven,inf,0007_hp_dnn_inf_oven_10_n04111531_2201.png,n04111531_2201.png,1.0,1.5331728,-0.008370429,1.0900357
alexnet_w1_mlp_simclrhn_probe2,1,8,NaN,knife,cat,0.45,0008_hp_dnn_0.45_cat_10_n02125311_43276.png,n02125311_43276.png,0.0,-0.54305637,0.09885605,-0.4539006
alexnet_w1_mlp_simclrhn_probe2,1,9,NaN,clock,dog,0.45,0009_hp_dnn_0.45_dog_10_n02111500_2439.png,n02111500_2439.png,0.0,-1.0042605,0.033182953,-0.73358333
alexnet_w1_mlp_simclrhn_probe2,1,10,NaN,airplane,bicycle,0.4,0010_hp_dnn_0.4_bicycle_10_n02835271_12599.png,n02835271_12599.png,0.0,-0.43705305,0.08084823,-0.36621153
alexnet_w1_mlp_simclrhn_probe2,1,11,NaN,knife,dog,0.45,0011_hp_dnn_0.45_dog_10_n02096585_391.png,n02096585_391.png,0.0,-1.0934083,-0.026747651,-0.754243
alexnet_w1_mlp_simclrhn_probe2,1,12,NaN,clock,car,0.7,0012_hp_dnn_0.7_car_10_n04285008_12138.png,n04285008_12138.png,0.0,-0.09867678,0.5194394,-0.43707415
alexnet_w1_mlp_simclrhn_probe2,1,13,NaN,clock,car,0.7,0013_hp_dnn_0.7_car_10_n02814533_44083.png,n02814533_44083.png,0.0,-0.80225605,0.19876957,-0.70783204
alexnet_w1_mlp_simclrhn_probe2,1,14,NaN,oven,oven,inf,0014_hp_dnn_inf_oven_10_n04111531_2447.png,n04111531_2447.png,1.0,2.8395214,-2.241773,3.5930176
alexnet_w1_mlp_simclrhn_probe2,1,15,NaN,clock,chair,0.55,0015_hp_dnn_0.55_chair_10_n03376595_9524.png,n03376595_9524.png,0.0,-0.6131974,0.024406483,-0.45085403
alexnet_w1_mlp_simclrhn_probe2,1,16,NaN,clock,elephant,0.55,0016_hp_dnn_0.55_elephant_10_n02504458_3092.png,n02504458_3092.png,0.0,-1.2261109,0.06866506,-0.91554487
alexnet_w1_mlp_simclrhn_probe2,1,17,NaN,knife,truck,0.4,0017_hp_dnn_0.4_truck_10_n04467665_42126.png,n04467665_42126.png,0.0,-0.5454235,0.24655995,-0.56001693
alexnet_w1_mlp_simclrhn_probe2,1,18,NaN,elephant,elephant,inf,0018_hp_dnn_inf_elephant_10_n02504458_12303.png,n02504458_12303.png,1.0,5.8387985,2.3823109,2.4441059
alexnet_w1_mlp_simclrhn_probe2,1,19,NaN,clock,clock,0.4,0019_hp_dnn_0.4_clock_10_n04548280_7243.png,n04548280_7243.png,1.0,0.98480463,-0.09136344,0.76096576
alexnet_w1_mlp_simclrhn_probe2,1,20,NaN,airplane,airplane,0.4,0020_hp_dnn_0.4_airplane_10_n02690373_6978.png,n02690373_6978.png,1.0,0.5306987,0.36843026,0.11474113
alexnet_w1_mlp_simclrhn_probe2,1,21,NaN,boat,boat,3,0021_hp_dnn_3_boat_10_n04612504_4773.png,n04612504_4773.png,1.0,0.35566097,0.026719913,0.23259644
alexnet_w1_mlp_simclrhn_probe2,1,22,NaN,knife,bottle,inf,0022_hp_dnn_inf_bottle_10_n04560804_5979.png,n04560804_5979.png,0.0,-2.1314473,-1.0423656,-0.77009714
alexnet_w1_mlp_simclrhn_probe2,1,23,NaN,airplane,airplane,3,0023_hp_dnn_3_airplane_10_n02690373_21922.png,n02690373_21922.png,1.0,1.2399001,0.56336594,0.4783819
alexnet_w1_mlp_simclrhn_probe2,1,24,NaN,clock,bird,0.4,0024_hp_dnn_0.4_bird_10_n01820546_6431.png,n01820546_6431.png,0.0,-0.46067736,-0.018446932,-0.31270415
alexnet_w1_mlp_simclrhn_probe2,1,25,NaN,bird,bird,inf,0025_hp_dnn_inf_bird_10_n01795545_9555.png,n01795545_9555.png,1.0,0.23083743,-1.0771403,0.92487997
alexnet_w1_mlp_simclrhn_probe2,1,26,NaN,bicycle,truck,3,0026_hp_dnn_3_truck_10_n04467665_45796.png,n04467665_45796.png,0.0,-0.44306642,2.479707,-2.0667129
alexnet_w1_mlp_simclrhn_probe2,1,27,NaN,bottle,oven,1,0027_hp_dnn_1_oven_10_n04111531_5906.png,n04111531_5906.png,0.0,-2.1459446,0.23448656,-1.6832191
alexnet_w1_mlp_simclrhn_probe2,1,28,NaN,knife,bicycle,0.45,0028_hp_dnn_0.45_bicycle_10_n03792782_6133.png,n03792782_6133.png,0.0,-0.75858206,0.3450446,-0.780382
alexnet_w1_mlp_simclrhn_probe2,1,29,NaN,keyboard,keyboard,1,0029_hp_dnn_1_keyboard_10_n04505470_4741.png,n04505470_4741.png,1.0,1.2967906,0.22600956,0.7571565
alexnet_w1_mlp_simclrhn_probe2,1,30,NaN,car,car,1.5,0030_hp_dnn_1.5_car_10_n02814533_5085.png,n02814533_5085.png,1.0,2.0850298,0.60672104,1.0453222
alexnet_w1_mlp_simclrhn_probe2,1,31,NaN,clock,chair,0.4,0031_hp_dnn_0.4_chair_10_n04429376_10628.png,n04429376_10628.png,0.0,-0.387918,0.19069685,-0.40914246
alexnet_w1_mlp_simclrhn_probe2,1,32,NaN,clock,clock,0.55,0032_hp_dnn_0.55_clock_10_n02708093_5311.png,n02708093_5311.png,1.0,0.46910286,-0.14059019,0.4311181
alexnet_w1_mlp_simclrhn_probe2,1,33,NaN,clock,chair,0.55,0033_hp_dnn_0.55_chair_10_n03376595_10460.png,n03376595_10460.png,0.0,-0.026814342,0.2606366,-0.20325851
alexnet_w1_mlp_simclrhn_probe2,1,34,NaN,bicycle,bear,3,0034_hp_dnn_3_bear_10_n02133161_1118.png,n02133161_1118.png,0.0,-3.0766454,-0.89092004,-1.5455412
alexnet_w1_mlp_simclrhn_probe2,1,35,NaN,knife,knife,3,0035_hp_dnn_3_knife_10_n03041632_11603.png,n03041632_11603.png,1.0,0.5702914,0.1802727,0.27578488
alexnet_w1_mlp_simclrhn_probe2,1,36,NaN,clock,dog,0.4,0036_hp_dnn_0.4_dog_10_n02108422_7493.png,n02108422_7493.png,0.0,-1.0103008,0.106378436,-0.78961146
alexnet_w1_mlp_simclrhn_probe2,1,37,NaN,bicycle,keyboard,3,0037_hp_dnn_3_keyboard_10_n04505470_550.png,n04505470_550.png,0.0,-0.89683336,-0.61880976,-0.19659238
alexnet_w1_mlp_simclrhn_probe2,1,38,NaN,clock,dog,1.5,0038_hp_dnn_1.5_dog_10_n02097047_1003.png,n02097047_1003.png,0.0,-2.1290689,-0.8783485,-0.8843928
alexnet_w1_mlp_simclrhn_probe2,1,39,NaN,bird,bird,1.5,0039_hp_dnn_1.5_bird_10_n01616318_9819.png,n01616318_9819.png,1.0,-0.82621825,-1.0561011,0.16255172
alexnet_w1_mlp_simclrhn_probe2,1,40,NaN,clock,cat,0.55,0040_hp_dnn_0.55_cat_10_n02123597_1016.png,n02123597_1016.png,0.0,-0.4490366,-0.042505044,-0.28746122
alexnet_w1_mlp_simclrhn_probe2,1,41,NaN,clock,bear,1,0041_hp_dnn_1_bear_10_n02134418_971.png,n02134418_971.png,0.0,-1.3437618,-0.47884297,-0.61158997
alexnet_w1_mlp_simclrhn_probe2,1,42,NaN,elephant,bear,0.7,0042_hp_dnn_0.7_bear_10_n02132136_10944.png,n02132136_10944.png,0.0,-1.4608724,-0.41266367,-0.7411955
alexnet_w1_mlp_simclrhn_probe2,1,43,NaN,knife,elephant,1,0043_hp_dnn_1_elephant_10_n02504458_4439.png,n02504458_4439.png,0.0,-0.99653846,-0.5260513,-0.33268467
alexnet_w1_mlp_simclrhn_probe2,1,44,NaN,keyboard,keyboard,0.4,0044_hp_dnn_0.4_keyboard_10_n03085013_2362.png,n03085013_2362.png,1.0,0.5909393,0.23459484,0.2519736
alexnet_w1_mlp_simclrhn_probe2,1,45,NaN,clock,dog,1.5,0045_hp_dnn_1.5_dog_10_n02097474_9488.png,n02097474_9488.png,0.0,-1.4565684,-0.24830127,-0.8543739
alexnet_w1_mlp_simclrhn_probe2,1,46,NaN,clock,clock,inf,0046_hp_dnn_inf_clock_10_n04548280_3308.png,n04548280_3308.png,1.0,5.982862,-2.5601566,6.0408263
alexnet_w1_mlp_simclrhn_probe2,1,47,NaN,clock,bear,1.5,0047_hp_dnn_1.5_bear_10_n02133161_334.png,n02133161_334.png,0.0,-2.0547304,-0.4709156,-1.1199262
alexnet_w1_mlp_simclrhn_probe2,1,48,NaN,clock,knife,0.45,0048_hp_dnn_0.45_knife_10_n03041632_6708.png,n03041632_6708.png,0.0,-0.31656134,0.18412812,-0.35404092
alexnet_w1_mlp_simclrhn_probe2,1,49,NaN,clock,car,0.55,0049_hp_dnn_0.55_car_10_n02814533_81092.png,n02814533_81092.png,0.0,-0.6222712,0.30358946,-0.65468234
alexnet_w1_mlp_simclrhn_probe2,1,50,NaN,clock,bottle,0.45,0050_hp_dnn_0.45_bottle_10_n03937543_11897.png,n03937543_11897.png,0.0,0.22110486,0.438356,-0.15361977
alexnet_w1_mlp_simclrhn_probe2,1,51,NaN,clock,airplane,3,0051_hp_dnn_3_airplane_10_n02690373_4429.png,n02690373_4429.png,0.0,0.8646971,1.3932048,-0.37371138
alexnet_w1_mlp_simclrhn_probe2,1,52,NaN,clock,knife,0.4,0052_hp_dnn_0.4_knife_10_n03041632_22964.png,n03041632_22964.png,0.0,-0.15897809,0.20780073,-0.2593518
alexnet_w1_mlp_simclrhn_probe2,1,53,NaN,airplane,knife,1.5,0053_hp_dnn_1.5_knife_10_n03041632_33075.png,n03041632_33075.png,0.0,0.20846683,0.2154975,-0.0049714316
alexnet_w1_mlp_simclrhn_probe2,1,54,NaN,knife,bird,0.7,0054_hp_dnn_0.7_bird_10_n02006656_1412.png,n02006656_1412.png,0.0,-0.52815115,-0.21012345,-0.22487955
alexnet_w1_mlp_simclrhn_probe2,1,55,NaN,clock,clock,1,0055_hp_dnn_1_clock_10_n02708093_3173.png,n02708093_3173.png,1.0,4.805168,-0.8384817,3.9906633
alexnet_w1_mlp_simclrhn_probe2,1,56,NaN,airplane,keyboard,0.45,0056_hp_dnn_0.45_keyboard_10_n03085013_22016.png,n03085013_22016.png,0.0,-0.017282635,0.26135653,-0.19702765
alexnet_w1_mlp_simclrhn_probe2,1,57,NaN,clock,elephant,0.55,0057_hp_dnn_0.55_elephant_10_n02504458_11214.png,n02504458_11214.png,0.0,-0.9472753,0.051573526,-0.70629275
alexnet_w1_mlp_simclrhn_probe2,1,58,NaN,knife,chair,0.7,0058_hp_dnn_0.7_chair_10_n04099969_13775.png,n04099969_13775.png,0.0,0.02700594,0.25906476,-0.16409037
alexnet_w1_mlp_simclrhn_probe2,1,59,NaN,clock,bicycle,0.4,0059_hp_dnn_0.4_bicycle_10_n02835271_8098.png,n02835271_8098.png,0.0,-0.38462174,0.2760915,-0.4671948
alexnet_w1_mlp_simclrhn_probe2,1,60,NaN,clock,clock,0.4,0060_hp_dnn_0.4_clock_10_n04548280_1126.png,n04548280_1126.png,1.0,0.64779335,-0.021978065,0.47359994
alexnet_w1_mlp_simclrhn_probe2,1,61,NaN,clock,bicycle,0.45,0061_hp_dnn_0.45_bicycle_10_n02835271_2050.png,n02835271_2050.png,0.0,-0.25161424,0.2981054,-0.3887105
alexnet_w1_mlp_simclrhn_probe2,1,62,NaN,oven,oven,1,0062_hp_dnn_1_oven_10_n04111531_891.png,n04111531_891.png,1.0,0.44389012,0.1287144,0.22286288
alexnet_w1_mlp_simclrhn_probe2,1,63,NaN,clock,bottle,0.7,0063_hp_dnn_0.7_bottle_10_n02823428_6201.png,n02823428_6201.png,0.0,-0.15203714,0.37899944,-0.3754996
alexnet_w1_mlp_simclrhn_probe2,1,64,NaN,clock,bicycle,0.7,0064_hp_dnn_0.7_bicycle_10_n02835271_20175.png,n02835271_20175.png,0.0,0.47936487,0.7209106,-0.17079863
alexnet_w1_mlp_simclrhn_probe2,1,65,NaN,bicycle,cat,3,0065_hp_dnn_3_cat_10_n02123597_13175.png,n02123597_13175.png,0.0,-1.1075093,-0.8071162,-0.21240996
alexnet_w1_mlp_simclrhn_probe2,1,66,NaN,clock,dog,0.4,0066_hp_dnn_0.4_dog_10_n02085936_4391.png,n02085936_4391.png,0.0,-0.84244126,0.121403,-0.6815408
alexnet_w1_mlp_simclrhn_probe2,1,67,NaN,airplane,airplane,1.5,0067_hp_dnn_1.5_airplane_10_n02690373_8846.png,n02690373_8846.png,1.0,1.4620205,0.05647207,0.9938729
alexnet_w1_mlp_simclrhn_probe2,1,68,NaN,knife,cat,1.5,0068_hp_dnn_1.5_cat_10_n02123597_10301.png,n02123597_10301.png,0.0,-1.0800141,-0.33757004,-0.5249872
alexnet_w1_mlp_simclrhn_probe2,1,69,NaN,clock,elephant,0.7,0069_hp_dnn_0.7_elephant_10_n02504458_6135.png,n02504458_6135.png,0.0,-0.47677827,-0.26800072,-0.14762802
alexnet_w1_mlp_simclrhn_probe2,1,70,NaN,knife,keyboard,0.45,0070_hp_dnn_0.45_keyboard_10_n03085013_22585.png,n03085013_22585.png,0.0,-0.47774398,0.14505437,-0.44038492
alexnet_w1_mlp_simclrhn_probe2,1,71,NaN,clock,bird,1,0071_hp_dnn_1_bird_10_n02017213_1150.png,n02017213_1150.png,0.0,-1.0740223,-0.59930867,-0.33567324
alexnet_w1_mlp_simclrhn_probe2,1,72,NaN,chair,bottle,3,0072_hp_dnn_3_bottle_10_n04560804_30885.png,n04560804_30885.png,0.0,-0.17881224,1.2789195,-1.030772
alexnet_w1_mlp_simclrhn_probe2,1,73,NaN,bicycle,bicycle,inf,0073_hp_dnn_inf_bicycle_10_n02835271_9191.png,n02835271_9191.png,1.0,11.948967,-2.096376,9.931558
alexnet_w1_mlp_simclrhn_probe2,1,74,NaN,chair,truck,inf,0074_hp_dnn_inf_truck_10_n03796401_7699.png,n03796401_7699.png,0.0,0.38521874,1.2870291,-0.63767624
alexnet_w1_mlp_simclrhn_probe2,1,75,NaN,knife,knife,1.5,0075_hp_dnn_1.5_knife_10_n03041632_50332.png,n03041632_50332.png,1.0,0.5274476,-0.116858505,0.4555932
alexnet_w1_mlp_simclrhn_probe2,1,76,NaN,knife,knife,0.55,0076_hp_dnn_0.55_knife_10_n03041632_36247.png,n03041632_36247.png,1.0,-0.009745011,-0.018469622,0.006169232
alexnet_w1_mlp_simclrhn_probe2,1,77,NaN,clock,knife,1.5,0077_hp_dnn_1.5_knife_10_n03041632_23667.png,n03041632_23667.png,0.0,-1.1540115,0.1203629,-0.90111876
alexnet_w1_mlp_simclrhn_probe2,1,78,NaN,bird,dog,3,0078_hp_dnn_3_dog_10_n02102973_7028.png,n02102973_7028.png,0.0,-1.8437195,0.559915,-1.6996263
alexnet_w1_mlp_simclrhn_probe2,1,79,NaN,clock,oven,0.55,0079_hp_dnn_0.55_oven_10_n04111531_9867.png,n04111531_9867.png,0.0,-1.4323215,0.25906524,-1.1959912
alexnet_w1_mlp_simclrhn_probe2,1,80,NaN,clock,car,0.55,0080_hp_dnn_0.55_car_10_n02814533_8121.png,n02814533_8121.png,0.0,0.13625516,0.2190227,-0.058525495
alexnet_w1_mlp_simclrhn_probe2,1,81,NaN,airplane,boat,0.55,0081_hp_dnn_0.55_boat_10_n03662601_5210.png,n03662601_5210.png,0.0,-0.09434083,0.10391021,-0.14018466
alexnet_w1_mlp_simclrhn_probe2,1,82,NaN,car,car,1.5,0082_hp_dnn_1.5_car_10_n03100240_6192.png,n03100240_6192.png,1.0,0.030983865,-0.11137622,0.10066379
alexnet_w1_mlp_simclrhn_probe2,1,83,NaN,clock,oven,0.45,0083_hp_dnn_0.45_oven_10_n04111531_9314.png,n04111531_9314.png,0.0,-1.0738268,0.24738818,-0.93424004
alexnet_w1_mlp_simclrhn_probe2,1,84,NaN,clock,cat,0.4,0084_hp_dnn_0.4_cat_10_n02123045_5189.png,n02123045_5189.png,0.0,-0.44462585,0.0917202,-0.37925395
alexnet_w1_mlp_simclrhn_probe2,1,85,NaN,clock,truck,0.7,0085_hp_dnn_0.7_truck_10_n04467665_30189.png,n04467665_30189.png,0.0,-0.9654089,1.1777941,-1.5154734
alexnet_w1_mlp_simclrhn_probe2,1,86,NaN,clock,airplane,1.5,0086_hp_dnn_1.5_airplane_10_n02690373_3377.png,n02690373_3377.png,0.0,-0.01047603,0.7210091,-0.5172381
alexnet_w1_mlp_simclrhn_probe2,1,87,NaN,knife,oven,0.4,0087_hp_dnn_0.4_oven_10_n04111531_1750.png,n04111531_1750.png,0.0,-0.6746049,0.20746309,-0.62371624
alexnet_w1_mlp_simclrhn_probe2,1,88,NaN,cat,dog,inf,0088_hp_dnn_inf_dog_10_n02097047_2877.png,n02097047_2877.png,0.0,0.5297421,1.2807165,-0.5310191
alexnet_w1_mlp_simclrhn_probe2,1,89,NaN,cat,cat,inf,0089_hp_dnn_inf_cat_10_n02124075_15171.png,n02124075_15171.png,1.0,5.916061,-0.2314268,4.3469305
alexnet_w1_mlp_simclrhn_probe2,1,90,NaN,knife,car,0.4,0090_hp_dnn_0.4_car_10_n03100240_23060.png,n03100240_23060.png,0.0,-0.66953784,0.22466795,-0.632299
alexnet_w1_mlp_simclrhn_probe2,1,91,NaN,knife,knife,inf,0091_hp_dnn_inf_knife_10_n03041632_20595.png,n03041632_20595.png,1.0,0.44117486,-2.9628255,2.4069917
alexnet_w1_mlp_simclrhn_probe2,1,92,NaN,clock,knife,0.45,0092_hp_dnn_0.45_knife_10_n03041632_2184.png,n03041632_2184.png,0.0,-0.3942046,0.24600025,-0.4526932
alexnet_w1_mlp_simclrhn_probe2,1,93,NaN,knife,knife,0.4,0093_hp_dnn_0.4_knife_10_n03041632_42162.png,n03041632_42162.png,1.0,0.47572213,0.25382403,0.15690567
alexnet_w1_mlp_simclrhn_probe2,1,94,NaN,chair,elephant,1,0094_hp_dnn_1_elephant_10_n02504458_3535.png,n02504458_3535.png,0.0,-1.0318859,0.07207751,-0.78062
alexnet_w1_mlp_simclrhn_probe2,1,95,NaN,elephant,bird,inf,0095_hp_dnn_inf_bird_10_n02056570_11311.png,n02056570_11311.png,0.0,-3.8601825,-1.7323956,-1.5045725
alexnet_w1_mlp_simclrhn_probe2,1,96,NaN,airplane,chair,0.4,0096_hp_dnn_0.4_chair_10_n03376595_4121.png,n03376595_4121.png,0.0,-0.24295934,0.2898593,-0.37675965
alexnet_w1_mlp_simclrhn_probe2,1,97,NaN,chair,dog,1,0097_hp_dnn_1_dog_10_n02086240_3572.png,n02086240_3572.png,0.0,-1.5602947,-0.40402192,-0.8176084
alexnet_w1_mlp_simclrhn_probe2,1,98,NaN,elephant,elephant,inf,0098_hp_dnn_inf_elephant_10_n02504013_4523.png,n02504013_4523.png,1.0,10.721064,0.715437,7.0750465
alexnet_w1_mlp_simclrhn_probe2,1,99,NaN,oven,chair,inf,0099_hp_dnn_inf_chair_10_n04429376_7902.png,n04429376_7902.png,0.0,-0.8665554,-0.7503468,-0.0821719
alexnet_w1_mlp_simclrhn_probe2,1,100,NaN,clock,bird,0.45,0100_hp_dnn_0.45_bird_10_n01530575_14402.png,n01530575_14402.png,0.0,-0.5049369,0.25873837,-0.5399999
alexnet_w1_mlp_simclrhn_probe2,1,101,NaN,clock,bottle,0.55,0101_hp_dnn_0.55_bottle_10_n02823428_11140.png,n02823428_11140.png,0.0,-0.31061798,0.6725827,-0.69522786
alexnet_w1_mlp_simclrhn_probe2,1,102,NaN,clock,airplane,0.55,0102_hp_dnn_0.55_airplane_10_n02690373_7685.png,n02690373_7685.png,0.0,0.006032232,0.43450627,-0.3029769
alexnet_w1_mlp_simclrhn_probe2,1,103,NaN,airplane,boat,0.45,0103_hp_dnn_0.45_boat_10_n03344393_4827.png,n03344393_4827.png,0.0,0.15424879,0.4978353,-0.24295235
alexnet_w1_mlp_simclrhn_probe2,1,104,NaN,knife,dog,0.7,0104_hp_dnn_0.7_dog_10_n02088364_8674.png,n02088364_8674.png,0.0,-1.9981176,-0.289315,-1.208306
alexnet_w1_mlp_simclrhn_probe2,1,105,NaN,knife,knife,0.45,0105_hp_dnn_0.45_knife_10_n03041632_32004.png,n03041632_32004.png,1.0,0.046056032,-0.0026076834,0.034410443
alexnet_w1_mlp_simclrhn_probe2,1,106,NaN,keyboard,keyboard,3,0106_hp_dnn_3_keyboard_10_n03085013_22949.png,n03085013_22949.png,1.0,3.4661748,-0.38272557,2.7215836
alexnet_w1_mlp_simclrhn_probe2,1,107,NaN,knife,knife,0.7,0107_hp_dnn_0.7_knife_10_n03041632_4044.png,n03041632_4044.png,1.0,0.14815508,-0.041978974,0.13444507
alexnet_w1_mlp_simclrhn_probe2,1,108,NaN,airplane,airplane,1.5,0108_hp_dnn_1.5_airplane_10_n02690373_6455.png,n02690373_6455.png,1.0,2.58555,0.4808692,1.488234
alexnet_w1_mlp_simclrhn_probe2,1,109,NaN,airplane,airplane,0.55,0109_hp_dnn_0.55_airplane_10_n02690373_19646.png,n02690373_19646.png,1.0,0.74584365,0.030327631,0.5059462
alexnet_w1_mlp_simclrhn_probe2,1,110,NaN,boat,boat,inf,0110_hp_dnn_inf_boat_10_n04612504_1692.png,n04612504_1692.png,1.0,3.4074562,0.3380742,2.1703808
alexnet_w1_mlp_simclrhn_probe2,1,111,NaN,clock,cat,0.55,0111_hp_dnn_0.55_cat_10_n02124075_853.png,n02124075_853.png,0.0,-0.86710626,-0.055911135,-0.5736016
alexnet_w1_mlp_simclrhn_probe2,1,112,NaN,knife,boat,1,0112_hp_dnn_1_boat_10_n04273569_6071.png,n04273569_6071.png,0.0,-0.32019186,-0.17630655,-0.10174228
alexnet_w1_mlp_simclrhn_probe2,1,113,NaN,knife,bird,1.5,0113_hp_dnn_1.5_bird_10_n01616318_1214.png,n01616318_1214.png,0.0,-1.4995773,-0.2913248,-0.8543635
alexnet_w1_mlp_simclrhn_probe2,1,114,NaN,car,car,1.5,0114_hp_dnn_1.5_car_10_n02814533_14627.png,n02814533_14627.png,1.0,1.6418991,1.3895323,0.17845027
alexnet_w1_mlp_simclrhn_probe2,1,115,NaN,clock,keyboard,0.7,0115_hp_dnn_0.7_keyboard_10_n03085013_1483.png,n03085013_1483.png,0.0,-0.5871093,-0.046135534,-0.38252625
alexnet_w1_mlp_simclrhn_probe2,1,116,NaN,airplane,airplane,0.55,0116_hp_dnn_0.55_airplane_10_n02690373_7401.png,n02690373_7401.png,1.0,0.9678849,0.25174928,0.5063844
alexnet_w1_mlp_simclrhn_probe2,1,117,NaN,clock,keyboard,0.55,0117_hp_dnn_0.55_keyboard_10_n03085013_6963.png,n03085013_6963.png,0.0,-0.42419782,0.51737887,-0.66579527
alexnet_w1_mlp_simclrhn_probe2,1,118,NaN,bicycle,knife,3,0118_hp_dnn_3_knife_10_n03041632_1407.png,n03041632_1407.png,0.0,-0.9948959,-0.087560445,-0.641583
alexnet_w1_mlp_simclrhn_probe2,1,119,NaN,elephant,elephant,1.5,0119_hp_dnn_1.5_elephant_10_n02504458_5137.png,n02504458_5137.png,1.0,-0.4305154,-0.46696436,0.025773304
alexnet_w1_mlp_simclrhn_probe2,1,120,NaN,clock,clock,inf,0120_hp_dnn_inf_clock_10_n02708093_6635.png,n02708093_6635.png,1.0,4.978258,0.67830557,3.0405257
alexnet_w1_mlp_simclrhn_probe2,1,121,NaN,knife,oven,0.4,0121_hp_dnn_0.4_oven_10_n04111531_5927.png,n04111531_5927.png,0.0,-1.0311072,0.109906666,-0.80681866
alexnet_w1_mlp_simclrhn_probe2,1,122,NaN,clock,clock,inf,0122_hp_dnn_inf_clock_10_n02708093_2043.png,n02708093_2043.png,1.0,0.42790237,0.07912743,0.24662113
alexnet_w1_mlp_simclrhn_probe2,1,123,NaN,airplane,airplane,0.4,0123_hp_dnn_0.4_airplane_10_n02690373_7300.png,n02690373_7300.png,1.0,0.57476884,0.26833773,0.21667953
alexnet_w1_mlp_simclrhn_probe2,1,124,NaN,clock,oven,0.55,0124_hp_dnn_0.55_oven_10_n04111531_190.png,n04111531_190.png,0.0,-1.2753496,-0.09664806,-0.83346784
alexnet_w1_mlp_simclrhn_probe2,1,125,NaN,bird,dog,3,0125_hp_dnn_3_dog_10_n02091244_8497.png,n02091244_8497.png,0.0,-3.6240737,-0.36346883,-2.3055959
alexnet_w1_mlp_simclrhn_probe2,1,126,NaN,knife,bicycle,0.7,0126_hp_dnn_0.7_bicycle_10_n03792782_15932.png,n03792782_15932.png,0.0,-1.3957975,-0.5362476,-0.60779357
alexnet_w1_mlp_simclrhn_probe2,1,127,NaN,clock,bear,0.4,0127_hp_dnn_0.4_bear_10_n02133161_463.png,n02133161_463.png,0.0,-0.57805985,0.06029066,-0.45138195
alexnet_w1_mlp_simclrhn_probe2,1,128,NaN,clock,cat,0.7,0128_hp_dnn_0.7_cat_10_n02123045_11126.png,n02123045_11126.png,0.0,-1.0098572,-0.03917876,-0.68637335
alexnet_w1_mlp_simclrhn_probe2,1,129,NaN,knife,clock,0.7,0129_hp_dnn_0.7_clock_10_n04548280_8646.png,n04548280_8646.png,0.0,0.117933415,0.317257,-0.14094305
alexnet_w1_mlp_simclrhn_probe2,1,130,NaN,keyboard,bottle,0.55,0130_hp_dnn_0.55_bottle_10_n03983396_11597.png,n03983396_11597.png,0.0,-0.5370084,0.14107008,-0.4794739
alexnet_w1_mlp_simclrhn_probe2,1,131,NaN,truck,truck,3,0131_hp_dnn_3_truck_10_n03417042_212.png,n03417042_212.png,1.0,0.86413646,-0.2990214,0.8224768
alexnet_w1_mlp_simclrhn_probe2,1,132,NaN,keyboard,keyboard,1,0132_hp_dnn_1_keyboard_10_n04505470_1724.png,n04505470_1724.png,1.0,0.5346268,-0.28847674,0.58202213
alexnet_w1_mlp_simclrhn_probe2,1,133,NaN,chair,chair,1,0133_hp_dnn_1_chair_10_n04099969_14028.png,n04099969_14028.png,1.0,0.30307072,-0.21253045,0.36458507
alexnet_w1_mlp_simclrhn_probe2,1,134,NaN,knife,cat,0.45,0134_hp_dnn_0.45_cat_10_n02124075_2138.png,n02124075_2138.png,0.0,-0.7896309,0.1565308,-0.66903734
alexnet_w1_mlp_simclrhn_probe2,1,135,NaN,airplane,boat,inf,0135_hp_dnn_inf_boat_10_n03662601_3145.png,n03662601_3145.png,0.0,3.4770882,4.8213205,-0.9505158
alexnet_w1_mlp_simclrhn_probe2,1,136,NaN,bicycle,cat,3,0136_hp_dnn_3_cat_10_n02123045_1120.png,n02123045_1120.png,0.0,-1.7579688,-1.0700281,-0.48644754
alexnet_w1_mlp_simclrhn_probe2,1,137,NaN,boat,boat,inf,0137_hp_dnn_inf_boat_10_n04612504_31305.png,n04612504_31305.png,1.0,5.4010096,-1.2772186,4.7222204
alexnet_w1_mlp_simclrhn_probe2,1,138,NaN,clock,chair,1,0138_hp_dnn_1_chair_10_n04099969_4275.png,n04099969_4275.png,0.0,-0.20067622,0.33151934,-0.3763191
alexnet_w1_mlp_simclrhn_probe2,1,139,NaN,clock,keyboard,0.4,0139_hp_dnn_0.4_keyboard_10_n03085013_23005.png,n03085013_23005.png,0.0,-0.32946146,0.08508093,-0.29312572
alexnet_w1_mlp_simclrhn_probe2,1,140,NaN,airplane,airplane,1,0140_hp_dnn_1_airplane_10_n02690373_9618.png,n02690373_9618.png,1.0,0.1989218,-0.29313332,0.34793553
alexnet_w1_mlp_simclrhn_probe2,1,141,NaN,knife,knife,0.55,0141_hp_dnn_0.55_knife_10_n03041632_17338.png,n03041632_17338.png,1.0,0.5807937,0.1771785,0.28539902
alexnet_w1_mlp_simclrhn_probe2,1,142,NaN,clock,clock,0.45,0142_hp_dnn_0.45_clock_10_n04548280_8225.png,n04548280_8225.png,1.0,0.20860434,-0.09371187,0.21376984
alexnet_w1_mlp_simclrhn_probe2,1,143,NaN,car,car,inf,0143_hp_dnn_inf_car_10_n03100240_8907.png,n03100240_8907.png,1.0,5.7153587,1.3602529,3.079525
alexnet_w1_mlp_simclrhn_probe2,1,144,NaN,chair,chair,1.5,0144_hp_dnn_1.5_chair_10_n03376595_6865.png,n03376595_6865.png,1.0,1.861835,0.8272948,0.73153037
alexnet_w1_mlp_simclrhn_probe2,1,145,NaN,clock,bicycle,0.45,0145_hp_dnn_0.45_bicycle_10_n03792782_44296.png,n03792782_44296.png,0.0,-0.5865133,0.07660381,-0.4688946
alexnet_w1_mlp_simclrhn_probe2,1,146,NaN,bicycle,boat,1.5,0146_hp_dnn_1.5_boat_10_n04273569_1233.png,n04273569_1233.png,0.0,-1.1188142,-0.47239727,-0.45708582
alexnet_w1_mlp_simclrhn_probe2,1,147,NaN,bicycle,bird,1,0147_hp_dnn_1_bird_10_n01824575_12784.png,n01824575_12784.png,0.0,-0.9091944,-0.65749705,-0.17797692
alexnet_w1_mlp_simclrhn_probe2,1,148,NaN,airplane,boat,3,0148_hp_dnn_3_boat_10_n03344393_408.png,n03344393_408.png,0.0,1.6865829,2.0689168,-0.27035087
alexnet_w1_mlp_simclrhn_probe2,1,149,NaN,airplane,airplane,1,0149_hp_dnn_1_airplane_10_n02690373_220.png,n02690373_220.png,1.0,1.4642322,0.41092935,0.74479765
alexnet_w1_mlp_simclrhn_probe2,1,150,NaN,chair,chair,3,0150_hp_dnn_3_chair_10_n04429376_10546.png,n04429376_10546.png,1.0,0.21643865,-0.10408828,0.22664677
alexnet_w1_mlp_simclrhn_probe2,1,151,NaN,clock,oven,0.7,0151_hp_dnn_0.7_oven_10_n04111531_4749.png,n04111531_4749.png,0.0,-0.83752304,-0.07966304,-0.53588796
alexnet_w1_mlp_simclrhn_probe2,1,152,NaN,clock,truck,0.4,0152_hp_dnn_0.4_truck_10_n03417042_18124.png,n03417042_18124.png,0.0,-0.3633253,0.24444258,-0.4297568
alexnet_w1_mlp_simclrhn_probe2,1,153,NaN,clock,clock,3,0153_hp_dnn_3_clock_10_n03196217_7353.png,n03196217_7353.png,1.0,-0.12445649,-0.49188167,0.25980884
alexnet_w1_mlp_simclrhn_probe2,1,154,NaN,clock,dog,0.7,0154_hp_dnn_0.7_dog_10_n02098286_2699.png,n02098286_2699.png,0.0,-1.2440745,0.07397783,-0.93200374
alexnet_w1_mlp_simclrhn_probe2,1,155,NaN,clock,truck,0.4,0155_hp_dnn_0.4_truck_10_n03796401_3651.png,n03796401_3651.png,0.0,-0.5183704,0.20677729,-0.5127568
alexnet_w1_mlp_simclrhn_probe2,1,156,NaN,clock,bottle,0.4,0156_hp_dnn_0.4_bottle_10_n03983396_4165.png,n03983396_4165.png,0.0,-0.30934772,0.14203109,-0.31917304
alexnet_w1_mlp_simclrhn_probe2,1,157,NaN,clock,knife,1,0157_hp_dnn_1_knife_10_n03041632_25257.png,n03041632_25257.png,0.0,-1.1256052,0.18337639,-0.9255898
alexnet_w1_mlp_simclrhn_probe2,1,158,NaN,chair,chair,3,0158_hp_dnn_3_chair_10_n04099969_1229.png,n04099969_1229.png,1.0,1.7461087,-0.6687562,1.7075673
alexnet_w1_mlp_simclrhn_probe2,1,159,NaN,bird,bird,inf,0159_hp_dnn_inf_bird_10_n01798484_518.png,n01798484_518.png,1.0,0.35912082,-0.32267007,0.48209897
alexnet_w1_mlp_simclrhn_probe2,1,160,NaN,bird,bird,inf,0160_hp_dnn_inf_bird_10_n01797886_1953.png,n01797886_1953.png,1.0,0.44717976,-3.0979724,2.5068011
alexnet_w1_mlp_simclrhn_probe2,1,161,NaN,bird,bird,3,0161_hp_dnn_3_bird_10_n01820546_228.png,n01820546_228.png,1.0,-0.12151148,-0.53291315,0.2909049
alexnet_w1_mlp_simclrhn_probe2,1,162,NaN,clock,bear,1.5,0162_hp_dnn_1.5_bear_10_n02134418_2666.png,n02134418_2666.png,0.0,-1.8947167,-0.8081634,-0.76830924
alexnet_w1_mlp_simclrhn_probe2,1,163,NaN,boat,boat,1.5,0163_hp_dnn_1.5_boat_10_n03344393_7659.png,n03344393_7659.png,1.0,2.0410285,0.9258789,0.7885299
alexnet_w1_mlp_simclrhn_probe2,1,164,NaN,chair,oven,1.5,0164_hp_dnn_1.5_oven_10_n04111531_1752.png,n04111531_1752.png,0.0,-1.076226,-0.2784326,-0.5641251
alexnet_w1_mlp_simclrhn_probe2,1,165,NaN,elephant,dog,inf,0165_hp_dnn_inf_dog_10_n02091032_8873.png,n02091032_8873.png,0.0,-3.051345,1.951278,-3.5373888
alexnet_w1_mlp_simclrhn_probe2,1,166,NaN,keyboard,oven,0.7,0166_hp_dnn_0.7_oven_10_n04111531_14559.png,n04111531_14559.png,0.0,-1.4345124,0.25099432,-1.1918333
alexnet_w1_mlp_simclrhn_probe2,1,167,NaN,clock,cat,0.7,0167_hp_dnn_0.7_cat_10_n02123045_114.png,n02123045_114.png,0.0,-1.0783247,-0.09940479,-0.6922009
alexnet_w1_mlp_simclrhn_probe2,1,168,NaN,cat,cat,3,0168_hp_dnn_3_cat_10_n02123597_13865.png,n02123597_13865.png,1.0,0.8794956,-1.2167789,1.4822899
alexnet_w1_mlp_simclrhn_probe2,1,169,NaN,knife,knife,0.55,0169_hp_dnn_0.55_knife_10_n03041632_13478.png,n03041632_13478.png,1.0,0.24210627,0.06419595,0.12580161
alexnet_w1_mlp_simclrhn_probe2,1,170,NaN,clock,elephant,0.55,0170_hp_dnn_0.55_elephant_10_n02504458_2618.png,n02504458_2618.png,0.0,-0.9517014,-0.04026234,-0.64448476
alexnet_w1_mlp_simclrhn_probe2,1,171,NaN,clock,truck,1,0171_hp_dnn_1_truck_10_n04467665_56954.png,n04467665_56954.png,0.0,-1.0806648,0.092768885,-0.8297429
alexnet_w1_mlp_simclrhn_probe2,1,172,NaN,clock,chair,1,0172_hp_dnn_1_chair_10_n04429376_1791.png,n04429376_1791.png,0.0,-0.3445557,0.3916733,-0.5205925
alexnet_w1_mlp_simclrhn_probe2,1,173,NaN,bottle,bottle,3,0173_hp_dnn_3_bottle_10_n04560804_33214.png,n04560804_33214.png,1.0,0.6510898,0.1646503,0.34396467
alexnet_w1_mlp_simclrhn_probe2,1,174,NaN,airplane,knife,inf,0174_hp_dnn_inf_knife_10_n03041632_48816.png,n03041632_48816.png,0.0,1.2032092,1.2819991,-0.05571291
alexnet_w1_mlp_simclrhn_probe2,1,175,NaN,cat,cat,3,0175_hp_dnn_3_cat_10_n02123394_2274.png,n02123394_2274.png,1.0,-0.6656353,-1.0018864,0.23776542
alexnet_w1_mlp_simclrhn_probe2,1,176,NaN,truck,truck,1.5,0176_hp_dnn_1.5_truck_10_n03796401_1326.png,n03796401_1326.png,1.0,2.2412152,0.31760594,1.3601972
alexnet_w1_mlp_simclrhn_probe2,1,177,NaN,knife,knife,0.55,0177_hp_dnn_0.55_knife_10_n03041632_11887.png,n03041632_11887.png,1.0,0.25105906,0.14168328,0.07734036
alexnet_w1_mlp_simclrhn_probe2,1,178,NaN,knife,dog,0.7,0178_hp_dnn_0.7_dog_10_n02113978_8008.png,n02113978_8008.png,0.0,-1.3906587,0.10965047,-1.0608789
alexnet_w1_mlp_simclrhn_probe2,1,179,NaN,clock,cat,0.4,0179_hp_dnn_0.4_cat_10_n02123045_4812.png,n02123045_4812.png,0.0,-0.574256,0.111955486,-0.48522478
alexnet_w1_mlp_simclrhn_probe2,1,180,NaN,airplane,bird,inf,0180_hp_dnn_inf_bird_10_n01833805_3578.png,n01833805_3578.png,0.0,-2.3960497,-1.2067,-0.8409973
alexnet_w1_mlp_simclrhn_probe2,1,181,NaN,clock,truck,1,0181_hp_dnn_1_truck_10_n03417042_3398.png,n03417042_3398.png,0.0,0.09449267,0.15658273,-0.043904305
alexnet_w1_mlp_simclrhn_probe2,1,182,NaN,clock,bird,0.7,0182_hp_dnn_0.7_bird_10_n02007558_4566.png,n02007558_4566.png,0.0,-1.4064779,-0.23476398,-0.8285269
alexnet_w1_mlp_simclrhn_probe2,1,183,NaN,clock,knife,0.45,0183_hp_dnn_0.45_knife_10_n03041632_3516.png,n03041632_3516.png,0.0,0.08713718,0.14056839,-0.037781574
alexnet_w1_mlp_simclrhn_probe2,1,184,NaN,clock,cat,1.5,0184_hp_dnn_1.5_cat_10_n02124075_14965.png,n02124075_14965.png,0.0,-1.0074557,-0.42033008,-0.41516054
alexnet_w1_mlp_simclrhn_probe2,1,185,NaN,airplane,bird,0.4,0185_hp_dnn_0.4_bird_10_n01843065_2176.png,n01843065_2176.png,0.0,-0.24725932,0.21004713,-0.3233645
alexnet_w1_mlp_simclrhn_probe2,1,186,NaN,bicycle,knife,3,0186_hp_dnn_3_knife_10_n03041632_21034.png,n03041632_21034.png,0.0,-1.2980942,-0.95271385,-0.24422076
alexnet_w1_mlp_simclrhn_probe2,1,187,NaN,airplane,keyboard,1.5,0187_hp_dnn_1.5_keyboard_10_n03085013_24026.png,n03085013_24026.png,0.0,-0.38724312,0.14799699,-0.3784719
alexnet_w1_mlp_simclrhn_probe2,1,188,NaN,clock,bottle,0.55,0188_hp_dnn_0.55_bottle_10_n04560804_14395.png,n04560804_14395.png,0.0,0.08961882,0.29556614,-0.14562675
alexnet_w1_mlp_simclrhn_probe2,1,189,NaN,clock,boat,0.45,0189_hp_dnn_0.45_boat_10_n02951358_11567.png,n02951358_11567.png,0.0,-0.7423456,0.15560834,-0.6349493
alexnet_w1_mlp_simclrhn_probe2,1,190,NaN,clock,chair,0.4,0190_hp_dnn_0.4_chair_10_n03376595_17747.png,n03376595_17747.png,0.0,-0.37042397,0.24204592,-0.43308163
alexnet_w1_mlp_simclrhn_probe2,1,191,NaN,bottle,bottle,inf,0191_hp_dnn_inf_bottle_10_n04591713_5563.png,n04591713_5563.png,1.0,2.1509314,0.0564757,1.4810039
alexnet_w1_mlp_simclrhn_probe2,1,192,NaN,airplane,airplane,3,0192_hp_dnn_3_airplane_10_n02690373_7496.png,n02690373_7496.png,1.0,3.778093,0.9247958,2.0175858
alexnet_w1_mlp_simclrhn_probe2,1,193,NaN,airplane,airplane,3,0193_hp_dnn_3_airplane_10_n02690373_4465.png,n02690373_4465.png,1.0,4.9361267,1.3176079,2.5586793
alexnet_w1_mlp_simclrhn_probe2,1,194,NaN,clock,bear,0.4,0194_hp_dnn_0.4_bear_10_n02134418_119.png,n02134418_119.png,0.0,-0.5131666,0.09746321,-0.4317805
alexnet_w1_mlp_simclrhn_probe2,1,195,NaN,bird,bear,1.5,0195_hp_dnn_1.5_bear_10_n02133161_1970.png,n02133161_1970.png,0.0,-1.5341816,-0.29899994,-0.87340534
alexnet_w1_mlp_simclrhn_probe2,1,196,NaN,knife,bird,1.5,0196_hp_dnn_1.5_bird_10_n02018795_5488.png,n02018795_5488.png,0.0,-1.3675823,-0.25982365,-0.7833037
alexnet_w1_mlp_simclrhn_probe2,1,197,NaN,knife,bird,0.45,0197_hp_dnn_0.45_bird_10_n01796340_1877.png,n01796340_1877.png,0.0,-0.5027787,0.23497953,-0.52167386
alexnet_w1_mlp_simclrhn_probe2,1,198,NaN,airplane,airplane,0.4,0198_hp_dnn_0.4_airplane_10_n02690373_4964.png,n02690373_4964.png,1.0,0.4209673,0.24434559,0.12489042
alexnet_w1_mlp_simclrhn_probe2,1,199,NaN,clock,bottle,0.4,0199_hp_dnn_0.4_bottle_10_n04591713_1762.png,n04591713_1762.png,0.0,0.18200304,0.3881155,-0.14574352
alexnet_w1_mlp_simclrhn_probe2,1,200,NaN,car,car,1,0200_hp_dnn_1_car_10_n03100240_6059.png,n03100240_6059.png,1.0,-0.18911922,-0.20986032,0.014666176
alexnet_w1_mlp_simclrhn_probe2,1,201,NaN,chair,chair,inf,0201_hp_dnn_inf_chair_10_n03376595_10769.png,n03376595_10769.png,1.0,0.6111525,0.2584911,0.2493693
alexnet_w1_mlp_simclrhn_probe2,1,202,NaN,oven,oven,inf,0202_hp_dnn_inf_oven_10_n04111531_1723.png,n04111531_1723.png,1.0,3.1644273,-0.013262783,2.2469661
alexnet_w1_mlp_simclrhn_probe2,1,203,NaN,clock,bicycle,0.45,0203_hp_dnn_0.45_bicycle_10_n02835271_3570.png,n02835271_3570.png,0.0,0.18274535,0.347811,-0.11671905
alexnet_w1_mlp_simclrhn_probe2,1,204,NaN,clock,knife,0.4,0204_hp_dnn_0.4_knife_10_n03041632_83826.png,n03041632_83826.png,0.0,0.069073774,0.2177121,-0.10510318
alexnet_w1_mlp_simclrhn_probe2,1,205,NaN,clock,keyboard,0.7,0205_hp_dnn_0.7_keyboard_10_n03085013_20673.png,n03085013_20673.png,0.0,-0.2681377,0.059009433,-0.23132795
alexnet_w1_mlp_simclrhn_probe2,1,206,NaN,knife,knife,1,0206_hp_dnn_1_knife_10_n03041632_27575.png,n03041632_27575.png,1.0,0.9305395,0.2965294,0.44831282
alexnet_w1_mlp_simclrhn_probe2,1,207,NaN,bird,bird,1.5,0207_hp_dnn_1.5_bird_10_n01558993_14305.png,n01558993_14305.png,1.0,0.48874232,-1.0126278,1.061629
alexnet_w1_mlp_simclrhn_probe2,1,208,NaN,clock,bird,0.4,0208_hp_dnn_0.4_bird_10_n01537544_18123.png,n01537544_18123.png,0.0,-0.2084858,0.08089429,-0.20462261
alexnet_w1_mlp_simclrhn_probe2,1,209,NaN,bicycle,bicycle,3,0209_hp_dnn_3_bicycle_10_n02835271_4307.png,n02835271_4307.png,1.0,7.415018,0.755928,4.708688
alexnet_w1_mlp_simclrhn_probe2,1,210,NaN,clock,car,0.7,0210_hp_dnn_0.7_car_10_n04285008_6320.png,n04285008_6320.png,0.0,-0.5811218,-0.031485457,-0.3886516
alexnet_w1_mlp_simclrhn_probe2,1,211,NaN,clock,elephant,0.7,0211_hp_dnn_0.7_elephant_10_n02504458_1327.png,n02504458_1327.png,0.0,-1.2717047,0.0894086,-0.9624525
alexnet_w1_mlp_simclrhn_probe2,1,212,NaN,bottle,bottle,1,0212_hp_dnn_1_bottle_10_n04560804_1813.png,n04560804_1813.png,1.0,-0.43633625,-0.60938555,0.122364335
alexnet_w1_mlp_simclrhn_probe2,1,213,NaN,clock,cat,1,0213_hp_dnn_1_cat_10_n02124075_10085.png,n02124075_10085.png,0.0,-1.3586879,-0.10268768,-0.88812625
alexnet_w1_mlp_simclrhn_probe2,1,214,NaN,bottle,clock,inf,0214_hp_dnn_inf_clock_10_n03196217_2853.png,n03196217_2853.png,0.0,-0.09538544,1.9008181,-1.4115291
alexnet_w1_mlp_simclrhn_probe2,1,215,NaN,boat,boat,1.5,0215_hp_dnn_1.5_boat_10_n04273569_10149.png,n04273569_10149.png,1.0,0.7568358,0.0027825087,0.5331962
alexnet_w1_mlp_simclrhn_probe2,1,216,NaN,chair,chair,3,0216_hp_dnn_3_chair_10_n03376595_17859.png,n03376595_17859.png,1.0,2.0935428,-0.3929041,1.7581835
alexnet_w1_mlp_simclrhn_probe2,1,217,NaN,clock,dog,0.55,0217_hp_dnn_0.55_dog_10_n02101556_7581.png,n02101556_7581.png,0.0,-1.7876987,0.30131117,-1.4771532
alexnet_w1_mlp_simclrhn_probe2,1,218,NaN,clock,cat,0.4,0218_hp_dnn_0.4_cat_10_n02125311_8522.png,n02125311_8522.png,0.0,-0.40865025,0.04514997,-0.32088524
alexnet_w1_mlp_simclrhn_probe2,1,219,NaN,clock,clock,0.45,0219_hp_dnn_0.45_clock_10_n04548280_4345.png,n04548280_4345.png,1.0,0.4836636,-0.18943867,0.4759552
alexnet_w1_mlp_simclrhn_probe2,1,220,NaN,truck,truck,inf,0220_hp_dnn_inf_truck_10_n04467665_4088.png,n04467665_4088.png,1.0,5.049462,2.1056802,2.081568
alexnet_w1_mlp_simclrhn_probe2,1,221,NaN,dog,dog,inf,0221_hp_dnn_inf_dog_10_n02102040_1100.png,n02102040_1100.png,1.0,2.6390483,-1.4220062,2.8715994
alexnet_w1_mlp_simclrhn_probe2,1,222,NaN,airplane,bicycle,0.55,0222_hp_dnn_0.55_bicycle_10_n03792782_15557.png,n03792782_15557.png,0.0,-0.774632,0.18272492,-0.6769536
alexnet_w1_mlp_simclrhn_probe2,1,223,NaN,car,car,3,0223_hp_dnn_3_car_10_n04285008_12767.png,n04285008_12767.png,1.0,0.88915753,0.50289494,0.2731289
alexnet_w1_mlp_simclrhn_probe2,1,224,NaN,knife,boat,0.4,0224_hp_dnn_0.4_boat_10_n03662601_2438.png,n03662601_2438.png,0.0,-0.2964448,0.2613624,-0.39442927
alexnet_w1_mlp_simclrhn_probe2,1,225,NaN,truck,truck,inf,0225_hp_dnn_inf_truck_10_n03417042_6419.png,n03417042_6419.png,1.0,7.728674,6.2040386,1.0780799
alexnet_w1_mlp_simclrhn_probe2,1,226,NaN,clock,chair,0.45,0226_hp_dnn_0.45_chair_10_n04099969_9891.png,n04099969_9891.png,0.0,-0.39900446,0.042668458,-0.31230992
alexnet_w1_mlp_simclrhn_probe2,1,227,NaN,cat,cat,inf,0227_hp_dnn_inf_cat_10_n02123045_8543.png,n02123045_8543.png,1.0,3.9150333,-3.0109193,4.8973885
alexnet_w1_mlp_simclrhn_probe2,1,228,NaN,clock,cat,0.55,0228_hp_dnn_0.55_cat_10_n02123045_7342.png,n02123045_7342.png,0.0,-0.72017914,0.032001924,-0.53187233
alexnet_w1_mlp_simclrhn_probe2,1,229,NaN,clock,bird,0.55,0229_hp_dnn_0.55_bird_10_n02018207_10814.png,n02018207_10814.png,0.0,-0.27970147,0.026433438,-0.21647008
alexnet_w1_mlp_simclrhn_probe2,1,230,NaN,airplane,airplane,3,0230_hp_dnn_3_airplane_10_n02690373_20033.png,n02690373_20033.png,1.0,3.3030965,1.2642243,1.4417005
alexnet_w1_mlp_simclrhn_probe2,1,231,NaN,airplane,truck,0.55,0231_hp_dnn_0.55_truck_10_n04467665_13645.png,n04467665_13645.png,0.0,-0.6301724,0.3283754,-0.67779565
alexnet_w1_mlp_simclrhn_probe2,1,232,NaN,airplane,airplane,1.5,0232_hp_dnn_1.5_airplane_10_n02690373_5015.png,n02690373_5015.png,1.0,1.5912392,0.24086627,0.9548579
alexnet_w1_mlp_simclrhn_probe2,1,233,NaN,bicycle,chair,1.5,0233_hp_dnn_1.5_chair_10_n03376595_6173.png,n03376595_6173.png,0.0,-0.17300177,0.6247829,-0.564119
alexnet_w1_mlp_simclrhn_probe2,1,234,NaN,bicycle,knife,1.5,0234_hp_dnn_1.5_knife_10_n03041632_91967.png,n03041632_91967.png,0.0,-2.0168447,-0.045353897,-1.3940545
alexnet_w1_mlp_simclrhn_probe2,1,235,NaN,elephant,elephant,inf,0235_hp_dnn_inf_elephant_10_n02504458_1271.png,n02504458_1271.png,1.0,4.7768416,-2.0866406,4.853215
alexnet_w1_mlp_simclrhn_probe2,1,236,NaN,clock,cat,0.7,0236_hp_dnn_0.7_cat_10_n02123597_1684.png,n02123597_1684.png,0.0,-0.5912137,0.1404251,-0.51734674
alexnet_w1_mlp_simclrhn_probe2,1,237,NaN,knife,dog,0.55,0237_hp_dnn_0.55_dog_10_n02091831_3628.png,n02091831_3628.png,0.0,-1.2862656,-0.1426234,-0.80867714
alexnet_w1_mlp_simclrhn_probe2,1,238,NaN,clock,truck,0.45,0238_hp_dnn_0.45_truck_10_n04467665_64540.png,n04467665_64540.png,0.0,-0.48406726,0.55561024,-0.73516303
alexnet_w1_mlp_simclrhn_probe2,1,239,NaN,airplane,airplane,1,0239_hp_dnn_1_airplane_10_n02690373_3289.png,n02690373_3289.png,1.0,0.91456306,-0.028500106,0.66684633
alexnet_w1_mlp_simclrhn_probe2,1,240,NaN,boat,boat,3,0240_hp_dnn_3_boat_10_n04273569_16949.png,n04273569_16949.png,1.0,0.41143712,-0.8621159,0.90053797
alexnet_w1_mlp_simclrhn_probe2,1,241,NaN,knife,bicycle,1,0241_hp_dnn_1_bicycle_10_n03792782_15174.png,n03792782_15174.png,0.0,-1.2800889,-0.46329933,-0.57755744
alexnet_w1_mlp_simclrhn_probe2,1,242,NaN,chair,bottle,1.5,0242_hp_dnn_1.5_bottle_10_n03937543_146.png,n03937543_146.png,0.0,-0.8235688,-0.23911346,-0.41327235
alexnet_w1_mlp_simclrhn_probe2,1,243,NaN,clock,chair,0.45,0243_hp_dnn_0.45_chair_10_n04429376_694.png,n04429376_694.png,0.0,-0.4097115,0.27439955,-0.48373958
alexnet_w1_mlp_simclrhn_probe2,1,244,NaN,knife,keyboard,0.4,0244_hp_dnn_0.4_keyboard_10_n03085013_19407.png,n03085013_19407.png,0.0,-0.22428069,0.24490446,-0.331764
alexnet_w1_mlp_simclrhn_probe2,1,245,NaN,knife,oven,0.45,0245_hp_dnn_0.45_oven_10_n04111531_4955.png,n04111531_4955.png,0.0,-0.8852284,-0.019972643,-0.6118282
alexnet_w1_mlp_simclrhn_probe2,1,246,NaN,bicycle,dog,1.5,0246_hp_dnn_1.5_dog_10_n02099712_1825.png,n02099712_1825.png,0.0,-2.447836,-0.46499512,-1.4020802
alexnet_w1_mlp_simclrhn_probe2,1,247,NaN,clock,bear,0.55,0247_hp_dnn_0.55_bear_10_n02134084_14031.png,n02134084_14031.png,0.0,-1.5836482,0.057943802,-1.1607809
alexnet_w1_mlp_simclrhn_probe2,1,248,NaN,clock,car,0.45,0248_hp_dnn_0.45_car_10_n02814533_70922.png,n02814533_70922.png,0.0,-0.30187038,0.44123983,-0.5254583
alexnet_w1_mlp_simclrhn_probe2,1,249,NaN,clock,elephant,0.45,0249_hp_dnn_0.45_elephant_10_n02504458_217.png,n02504458_217.png,0.0,-0.71976817,0.068118475,-0.55711997
alexnet_w1_mlp_simclrhn_probe2,1,250,NaN,car,car,inf,0250_hp_dnn_inf_car_10_n02814533_27824.png,n02814533_27824.png,1.0,11.059928,8.519926,1.7960526
alexnet_w1_mlp_simclrhn_probe2,1,251,NaN,keyboard,keyboard,0.7,0251_hp_dnn_0.7_keyboard_10_n03085013_24257.png,n03085013_24257.png,1.0,1.1268886,0.5087237,0.43710864
alexnet_w1_mlp_simclrhn_probe2,1,252,NaN,elephant,elephant,3,0252_hp_dnn_3_elephant_10_n02504013_2269.png,n02504013_2269.png,1.0,0.7515091,0.7281401,0.016524347
alexnet_w1_mlp_simclrhn_probe2,1,253,NaN,clock,bear,0.45,0253_hp_dnn_0.45_bear_10_n02134418_1798.png,n02134418_1798.png,0.0,-1.2979258,0.2749952,-1.1122231
alexnet_w1_mlp_simclrhn_probe2,1,254,NaN,clock,dog,0.45,0254_hp_dnn_0.45_dog_10_n02111129_6881.png,n02111129_6881.png,0.0,-1.3159615,0.11895129,-1.0146366
alexnet_w1_mlp_simclrhn_probe2,1,255,NaN,truck,truck,1.5,0255_hp_dnn_1.5_truck_10_n04467665_67315.png,n04467665_67315.png,1.0,1.1086327,-0.25567952,0.9647144
alexnet_w1_mlp_simclrhn_probe2,1,256,NaN,knife,elephant,0.55,0256_hp_dnn_0.55_elephant_10_n02504013_3688.png,n02504013_3688.png,0.0,-0.92669785,-0.068196625,-0.607052
alexnet_w1_mlp_simclrhn_probe2,1,257,NaN,truck,truck,1.5,0257_hp_dnn_1.5_truck_10_n04467665_38886.png,n04467665_38886.png,1.0,0.53139603,0.45597196,0.053332876
alexnet_w1_mlp_simclrhn_probe2,1,258,NaN,bottle,bottle,inf,0258_hp_dnn_inf_bottle_10_n04557648_4250.png,n04557648_4250.png,1.0,2.2711272,0.96241766,0.92539746
alexnet_w1_mlp_simclrhn_probe2,1,259,NaN,clock,chair,0.45,0259_hp_dnn_0.45_chair_10_n04099969_4053.png,n04099969_4053.png,0.0,-0.23133655,0.07802015,-0.21874821
alexnet_w1_mlp_simclrhn_probe2,1,260,NaN,clock,knife,0.7,0260_hp_dnn_0.7_knife_10_n03041632_5727.png,n03041632_5727.png,0.0,-0.7220603,0.01959773,-0.5244314
alexnet_w1_mlp_simclrhn_probe2,1,261,NaN,clock,dog,1,0261_hp_dnn_1_dog_10_n02091134_4525.png,n02091134_4525.png,0.0,-2.6534708,-0.3259016,-1.64584
alexnet_w1_mlp_simclrhn_probe2,1,262,NaN,keyboard,keyboard,inf,0262_hp_dnn_inf_keyboard_10_n04505470_4685.png,n04505470_4685.png,1.0,6.363708,2.0062263,3.0812051
alexnet_w1_mlp_simclrhn_probe2,1,263,NaN,clock,boat,0.4,0263_hp_dnn_0.4_boat_10_n02951358_6637.png,n02951358_6637.png,0.0,-0.28729588,0.22493155,-0.3621995
alexnet_w1_mlp_simclrhn_probe2,1,264,NaN,chair,dog,1.5,0264_hp_dnn_1.5_dog_10_n02093256_11232.png,n02093256_11232.png,0.0,-2.290942,-0.40343523,-1.3346689
alexnet_w1_mlp_simclrhn_probe2,1,265,NaN,elephant,elephant,inf,0265_hp_dnn_inf_elephant_10_n02504013_816.png,n02504013_816.png,1.0,2.3399649,-0.08438262,1.7142725
alexnet_w1_mlp_simclrhn_probe2,1,266,NaN,elephant,bear,1.5,0266_hp_dnn_1.5_bear_10_n02134084_1484.png,n02134084_1484.png,0.0,-1.2071444,-0.73017716,-0.33726677
alexnet_w1_mlp_simclrhn_probe2,1,267,NaN,knife,boat,0.45,0267_hp_dnn_0.45_boat_10_n04273569_15859.png,n04273569_15859.png,0.0,-0.35039026,0.24805644,-0.42316574
alexnet_w1_mlp_simclrhn_probe2,1,268,NaN,bicycle,bicycle,3,0268_hp_dnn_3_bicycle_10_n02835271_7311.png,n02835271_7311.png,1.0,0.40765536,-1.613092,1.428884
alexnet_w1_mlp_simclrhn_probe2,1,269,NaN,clock,cat,1,0269_hp_dnn_1_cat_10_n02123045_2339.png,n02123045_2339.png,0.0,-1.3594629,-0.32021925,-0.7348562
alexnet_w1_mlp_simclrhn_probe2,1,270,NaN,clock,elephant,0.45,0270_hp_dnn_0.45_elephant_10_n02504458_4448.png,n02504458_4448.png,0.0,-0.24906856,-0.10434282,-0.102336556
alexnet_w1_mlp_simclrhn_probe2,1,271,NaN,car,car,1,0271_hp_dnn_1_car_10_n03100240_9955.png,n03100240_9955.png,1.0,2.5013204,1.439486,0.7508303
alexnet_w1_mlp_simclrhn_probe2,1,272,NaN,clock,truck,0.55,0272_hp_dnn_0.55_truck_10_n03417042_7310.png,n03417042_7310.png,0.0,-0.48977417,0.0025643508,-0.34813592
alexnet_w1_mlp_simclrhn_probe2,1,273,NaN,clock,chair,0.55,0273_hp_dnn_0.55_chair_10_n04099969_20421.png,n04099969_20421.png,0.0,-0.24538377,0.047022123,-0.2067622
alexnet_w1_mlp_simclrhn_probe2,1,274,NaN,boat,boat,0.45,0274_hp_dnn_0.45_boat_10_n04612504_4581.png,n04612504_4581.png,1.0,0.39941373,0.24131915,0.111789756
alexnet_w1_mlp_simclrhn_probe2,1,275,NaN,clock,bear,1,0275_hp_dnn_1_bear_10_n02134418_4515.png,n02134418_4515.png,0.0,-2.3649795,-0.16866189,-1.5530312
alexnet_w1_mlp_simclrhn_probe2,1,276,NaN,chair,truck,0.7,0276_hp_dnn_0.7_truck_10_n03796401_1082.png,n03796401_1082.png,0.0,-0.8832351,0.15482715,-0.7340208
alexnet_w1_mlp_simclrhn_probe2,1,277,NaN,bicycle,bicycle,1,0277_hp_dnn_1_bicycle_10_n03792782_8176.png,n03792782_8176.png,1.0,0.3976531,-0.37178865,0.54407746
alexnet_w1_mlp_simclrhn_probe2,1,278,NaN,airplane,oven,0.4,0278_hp_dnn_0.4_oven_10_n04111531_5463.png,n04111531_5463.png,0.0,-0.7829531,0.23189256,-0.7176042
alexnet_w1_mlp_simclrhn_probe2,1,279,NaN,chair,elephant,1.5,0279_hp_dnn_1.5_elephant_10_n02504013_4166.png,n02504013_4166.png,0.0,-2.0034451,-0.2500013,-1.2398721
alexnet_w1_mlp_simclrhn_probe2,1,280,NaN,airplane,airplane,0.7,0280_hp_dnn_0.7_airplane_10_n02690373_18295.png,n02690373_18295.png,1.0,1.079056,-0.0005341967,0.7633856
alexnet_w1_mlp_simclrhn_probe2,1,281,NaN,clock,cat,0.45,0281_hp_dnn_0.45_cat_10_n02124075_1460.png,n02124075_1460.png,0.0,-0.5057282,0.113277994,-0.43770346
alexnet_w1_mlp_simclrhn_probe2,1,282,NaN,clock,bird,0.55,0282_hp_dnn_0.55_bird_10_n02028035_17759.png,n02028035_17759.png,0.0,-0.34060302,-0.14453231,-0.13864294
alexnet_w1_mlp_simclrhn_probe2,1,283,NaN,bicycle,chair,3,0283_hp_dnn_3_chair_10_n02791124_6654.png,n02791124_6654.png,0.0,0.20063403,0.7710219,-0.4033251
alexnet_w1_mlp_simclrhn_probe2,1,284,NaN,airplane,truck,0.7,0284_hp_dnn_0.7_truck_10_n04467665_22974.png,n04467665_22974.png,0.0,-0.7211936,0.66900957,-0.98302215
alexnet_w1_mlp_simclrhn_probe2,1,285,NaN,clock,clock,0.55,0285_hp_dnn_0.55_clock_10_n03196217_2983.png,n03196217_2983.png,1.0,0.5575055,0.19358198,0.25733277
alexnet_w1_mlp_simclrhn_probe2,1,286,NaN,oven,knife,inf,0286_hp_dnn_inf_knife_10_n03041632_23968.png,n03041632_23968.png,0.0,-0.6304335,3.6441436,-3.0225825
alexnet_w1_mlp_simclrhn_probe2,1,287,NaN,clock,keyboard,0.4,0287_hp_dnn_0.4_keyboard_10_n03085013_23519.png,n03085013_23519.png,0.0,0.13941899,0.3551228,-0.15252563
alexnet_w1_mlp_simclrhn_probe2,1,288,NaN,clock,bottle,1.5,0288_hp_dnn_1.5_bottle_10_n04591713_14895.png,n04591713_14895.png,0.0,-0.4744342,-0.3809173,-0.06612643
alexnet_w1_mlp_simclrhn_probe2,1,289,NaN,clock,elephant,1,0289_hp_dnn_1_elephant_10_n02504013_3969.png,n02504013_3969.png,0.0,-0.64429283,-0.46013868,-0.13021666
alexnet_w1_mlp_simclrhn_probe2,1,290,NaN,chair,bear,3,0290_hp_dnn_3_bear_10_n02134418_3723.png,n02134418_3723.png,0.0,-2.5287333,-1.0178044,-1.0683881
alexnet_w1_mlp_simclrhn_probe2,1,291,NaN,clock,keyboard,0.45,0291_hp_dnn_0.45_keyboard_10_n04505470_709.png,n04505470_709.png,0.0,-0.3007364,0.108332835,-0.28925565
alexnet_w1_mlp_simclrhn_probe2,1,292,NaN,clock,knife,1.5,0292_hp_dnn_1.5_knife_10_n03041632_379.png,n03041632_379.png,0.0,-0.5805629,-0.079205394,-0.3545133
alexnet_w1_mlp_simclrhn_probe2,1,293,NaN,bird,oven,3,0293_hp_dnn_3_oven_10_n04111531_13128.png,n04111531_13128.png,0.0,-2.2981942,-1.104372,-0.8441597
alexnet_w1_mlp_simclrhn_probe2,1,294,NaN,clock,elephant,0.55,0294_hp_dnn_0.55_elephant_10_n02504013_933.png,n02504013_933.png,0.0,-0.93194836,0.032171857,-0.68173593
alexnet_w1_mlp_simclrhn_probe2,1,295,NaN,car,airplane,inf,0295_hp_dnn_inf_airplane_10_n02690373_17603.png,n02690373_17603.png,0.0,1.922353,2.555538,-0.44772935
alexnet_w1_mlp_simclrhn_probe2,1,296,NaN,airplane,airplane,0.45,0296_hp_dnn_0.45_airplane_10_n02690373_5177.png,n02690373_5177.png,1.0,0.4449401,0.2402457,0.14474079
alexnet_w1_mlp_simclrhn_probe2,1,297,NaN,chair,chair,1.5,0297_hp_dnn_1.5_chair_10_n04429376_28121.png,n04429376_28121.png,1.0,-1.6726778,-1.9583834,0.20202443
alexnet_w1_mlp_simclrhn_probe2,1,298,NaN,clock,truck,0.55,0298_hp_dnn_0.55_truck_10_n03417042_6517.png,n03417042_6517.png,0.0,-1.1136336,0.0009575884,-0.78813505
alexnet_w1_mlp_simclrhn_probe2,1,299,NaN,knife,chair,0.55,0299_hp_dnn_0.55_chair_10_n03376595_5503.png,n03376595_5503.png,0.0,-0.113579825,0.20517704,-0.22539516
alexnet_w1_mlp_simclrhn_probe2,1,300,NaN,clock,clock,1.5,0300_hp_dnn_1.5_clock_10_n03196217_7918.png,n03196217_7918.png,1.0,0.49792376,-0.2726461,0.5448752
alexnet_w1_mlp_simclrhn_probe2,1,301,NaN,car,car,1,0301_hp_dnn_1_car_10_n04285008_7751.png,n04285008_7751.png,1.0,2.0609121,0.81085855,0.88392144
alexnet_w1_mlp_simclrhn_probe2,1,302,NaN,clock,clock,0.4,0302_hp_dnn_0.4_clock_10_n03196217_2628.png,n03196217_2628.png,1.0,0.21197264,0.085731834,0.089265734
alexnet_w1_mlp_simclrhn_probe2,1,303,NaN,airplane,bird,0.55,0303_hp_dnn_0.55_bird_10_n01833805_6395.png,n01833805_6395.png,0.0,-0.40873468,0.2091408,-0.43690392
alexnet_w1_mlp_simclrhn_probe2,1,304,NaN,airplane,boat,0.4,0304_hp_dnn_0.4_boat_10_n03344393_6015.png,n03344393_6015.png,0.0,0.06387104,0.33832914,-0.19407119
alexnet_w1_mlp_simclrhn_probe2,1,305,NaN,chair,elephant,1.5,0305_hp_dnn_1.5_elephant_10_n02504013_2739.png,n02504013_2739.png,0.0,-0.9555951,-0.77673626,-0.12647228
alexnet_w1_mlp_simclrhn_probe2,1,306,NaN,clock,keyboard,0.45,0306_hp_dnn_0.45_keyboard_10_n03085013_23316.png,n03085013_23316.png,0.0,-0.06670197,0.4400197,-0.35830635
alexnet_w1_mlp_simclrhn_probe2,1,307,NaN,airplane,airplane,1,0307_hp_dnn_1_airplane_10_n02690373_20350.png,n02690373_20350.png,1.0,0.44035783,-0.03390935,0.33535755
alexnet_w1_mlp_simclrhn_probe2,1,308,NaN,clock,clock,3,0308_hp_dnn_3_clock_10_n02708093_3484.png,n02708093_3484.png,1.0,3.232239,-0.8601443,2.893752
alexnet_w1_mlp_simclrhn_probe2,1,309,NaN,clock,bicycle,0.55,0309_hp_dnn_0.55_bicycle_10_n03792782_10185.png,n03792782_10185.png,0.0,-0.90769833,-0.063979864,-0.59659904
alexnet_w1_mlp_simclrhn_probe2,1,310,NaN,oven,knife,3,0310_hp_dnn_3_knife_10_n03041632_42196.png,n03041632_42196.png,0.0,-0.34445602,0.5268891,-0.61613405
alexnet_w1_mlp_simclrhn_probe2,1,311,NaN,bird,bird,inf,0311_hp_dnn_inf_bird_10_n01855672_6132.png,n01855672_6132.png,1.0,1.0544502,-1.0675899,1.5005089
alexnet_w1_mlp_simclrhn_probe2,1,312,NaN,clock,bottle,0.4,0312_hp_dnn_0.4_bottle_10_n03983396_3047.png,n03983396_3047.png,0.0,-0.2473543,0.18141651,-0.30318674
alexnet_w1_mlp_simclrhn_probe2,1,313,NaN,clock,bottle,0.4,0313_hp_dnn_0.4_bottle_10_n04557648_2093.png,n04557648_2093.png,0.0,-0.115791164,0.53660125,-0.4613111
alexnet_w1_mlp_simclrhn_probe2,1,314,NaN,keyboard,keyboard,0.55,0314_hp_dnn_0.55_keyboard_10_n04505470_7686.png,n04505470_7686.png,1.0,0.9428994,0.45335603,0.34615946
alexnet_w1_mlp_simclrhn_probe2,1,315,NaN,bird,bear,1.5,0315_hp_dnn_1.5_bear_10_n02132136_5051.png,n02132136_5051.png,0.0,-3.037344,-0.14437018,-2.0456414
alexnet_w1_mlp_simclrhn_probe2,1,316,NaN,knife,bear,1,0316_hp_dnn_1_bear_10_n02134418_24559.png,n02134418_24559.png,0.0,-1.6122452,-0.4967464,-0.78877676
alexnet_w1_mlp_simclrhn_probe2,1,317,NaN,clock,oven,0.55,0317_hp_dnn_0.55_oven_10_n04111531_3702.png,n04111531_3702.png,0.0,-1.500005,0.16153747,-1.1748879
alexnet_w1_mlp_simclrhn_probe2,1,318,NaN,bicycle,bicycle,1,0318_hp_dnn_1_bicycle_10_n02835271_24230.png,n02835271_24230.png,1.0,-0.12674421,-0.41075322,0.2008247
alexnet_w1_mlp_simclrhn_probe2,1,319,NaN,keyboard,keyboard,1.5,0319_hp_dnn_1.5_keyboard_10_n03085013_2272.png,n03085013_2272.png,1.0,1.4760332,0.98113894,0.3499431
alexnet_w1_mlp_simclrhn_probe2,1,320,NaN,clock,keyboard,0.55,0320_hp_dnn_0.55_keyboard_10_n03085013_23201.png,n03085013_23201.png,0.0,-0.06513144,0.24739885,-0.22099228
alexnet_w1_mlp_simclrhn_probe2,1,321,NaN,bicycle,boat,1.5,0321_hp_dnn_1.5_boat_10_n04273569_9803.png,n04273569_9803.png,0.0,-0.8136462,0.036417365,-0.6010857
alexnet_w1_mlp_simclrhn_probe2,1,322,NaN,knife,boat,0.4,0322_hp_dnn_0.4_boat_10_n04612504_29813.png,n04612504_29813.png,0.0,-0.14823112,0.19334014,-0.24152736
alexnet_w1_mlp_simclrhn_probe2,1,323,NaN,clock,clock,1,0323_hp_dnn_1_clock_10_n02708093_1291.png,n02708093_1291.png,1.0,1.7724562,-0.2544412,1.4332329
alexnet_w1_mlp_simclrhn_probe2,1,324,NaN,clock,oven,0.4,0324_hp_dnn_0.4_oven_10_n04111531_1794.png,n04111531_1794.png,0.0,-0.59094095,0.45378867,-0.7387354
alexnet_w1_mlp_simclrhn_probe2,1,325,NaN,clock,bear,0.4,0325_hp_dnn_0.4_bear_10_n02132136_5612.png,n02132136_5612.png,0.0,-0.7197677,0.07685163,-0.5632949
alexnet_w1_mlp_simclrhn_probe2,1,326,NaN,boat,boat,1.5,0326_hp_dnn_1.5_boat_10_n04273569_3401.png,n04273569_3401.png,1.0,0.9165721,-0.6401496,1.1007684
alexnet_w1_mlp_simclrhn_probe2,1,327,NaN,bicycle,cat,3,0327_hp_dnn_3_cat_10_n02125311_16544.png,n02125311_16544.png,0.0,-1.5679278,-0.38246286,-0.83825034
alexnet_w1_mlp_simclrhn_probe2,1,328,NaN,keyboard,clock,1.5,0328_hp_dnn_1.5_clock_10_n03196217_10717.png,n03196217_10717.png,0.0,0.52653253,1.6060418,-0.7633283
alexnet_w1_mlp_simclrhn_probe2,1,329,NaN,bicycle,bear,3,0329_hp_dnn_3_bear_10_n02134418_47.png,n02134418_47.png,0.0,-2.1205707,-0.6299002,-1.0540632
alexnet_w1_mlp_simclrhn_probe2,1,330,NaN,keyboard,bottle,3,0330_hp_dnn_3_bottle_10_n04591713_4380.png,n04591713_4380.png,0.0,-1.0532911,0.6322055,-1.1918261
alexnet_w1_mlp_simclrhn_probe2,1,331,NaN,clock,chair,0.55,0331_hp_dnn_0.55_chair_10_n04429376_8710.png,n04429376_8710.png,0.0,-0.5252615,0.16333435,-0.48691082
alexnet_w1_mlp_simclrhn_probe2,1,332,NaN,bicycle,bicycle,3,0332_hp_dnn_3_bicycle_10_n02835271_781.png,n02835271_781.png,1.0,6.273763,-0.81456697,5.0122066
alexnet_w1_mlp_simclrhn_probe2,1,333,NaN,cat,bear,1.5,0333_hp_dnn_1.5_bear_10_n02134418_875.png,n02134418_875.png,0.0,-1.1875496,-0.5327741,-0.4629962
alexnet_w1_mlp_simclrhn_probe2,1,334,NaN,clock,dog,0.55,0334_hp_dnn_0.55_dog_10_n02094433_10343.png,n02094433_10343.png,0.0,-1.0618329,0.0048197308,-0.75423735
alexnet_w1_mlp_simclrhn_probe2,1,335,NaN,airplane,airplane,3,0335_hp_dnn_3_airplane_10_n02690373_1053.png,n02690373_1053.png,1.0,3.9488134,2.2117388,1.2282972
alexnet_w1_mlp_simclrhn_probe2,1,336,NaN,airplane,airplane,3,0336_hp_dnn_3_airplane_10_n02690373_18848.png,n02690373_18848.png,1.0,3.7336202,-0.38596192,2.9129846
alexnet_w1_mlp_simclrhn_probe2,1,337,NaN,knife,keyboard,3,0337_hp_dnn_3_keyboard_10_n03085013_18741.png,n03085013_18741.png,0.0,-0.062427342,0.20224847,-0.18715405
alexnet_w1_mlp_simclrhn_probe2,1,338,NaN,bear,bear,inf,0338_hp_dnn_inf_bear_10_n02134418_3152.png,n02134418_3152.png,1.0,5.8059216,1.589206,2.9816685
alexnet_w1_mlp_simclrhn_probe2,1,339,NaN,bird,bicycle,1.5,0339_hp_dnn_1.5_bicycle_10_n03792782_14557.png,n03792782_14557.png,0.0,-1.5146589,-1.0474256,-0.33038384
alexnet_w1_mlp_simclrhn_probe2,1,340,NaN,elephant,bird,0.7,0340_hp_dnn_0.7_bird_10_n01796340_5262.png,n01796340_5262.png,0.0,-0.9996416,-0.70337635,-0.20949116
alexnet_w1_mlp_simclrhn_probe2,1,341,NaN,clock,bicycle,1,0341_hp_dnn_1_bicycle_10_n03792782_4559.png,n03792782_4559.png,0.0,-0.2344955,0.60577255,-0.59415925
alexnet_w1_mlp_simclrhn_probe2,1,342,NaN,boat,bear,0.45,0342_hp_dnn_0.45_bear_10_n02134084_3177.png,n02134084_3177.png,0.0,-0.35784873,0.119807556,-0.337754
alexnet_w1_mlp_simclrhn_probe2,1,343,NaN,airplane,elephant,0.4,0343_hp_dnn_0.4_elephant_10_n02504458_5008.png,n02504458_5008.png,0.0,-0.41238928,0.20416924,-0.43597275
alexnet_w1_mlp_simclrhn_probe2,1,344,NaN,oven,oven,3,0344_hp_dnn_3_oven_10_n04111531_7955.png,n04111531_7955.png,1.0,0.47806242,-0.9557654,1.0138694
alexnet_w1_mlp_simclrhn_probe2,1,345,NaN,bicycle,bicycle,inf,0345_hp_dnn_inf_bicycle_10_n02835271_13793.png,n02835271_13793.png,1.0,-0.4845438,-0.8362631,0.24870312
alexnet_w1_mlp_simclrhn_probe2,1,346,NaN,clock,keyboard,0.45,0346_hp_dnn_0.45_keyboard_10_n03085013_14810.png,n03085013_14810.png,0.0,0.12804812,0.2909203,-0.11516801
alexnet_w1_mlp_simclrhn_probe2,1,347,NaN,clock,car,0.7,0347_hp_dnn_0.7_car_10_n02814533_39933.png,n02814533_39933.png,0.0,-1.2483207,0.033991233,-0.9067315
alexnet_w1_mlp_simclrhn_probe2,1,348,NaN,bird,bird,1,0348_hp_dnn_1_bird_10_n02027492_4897.png,n02027492_4897.png,1.0,0.7392174,-1.2838168,1.4305011
alexnet_w1_mlp_simclrhn_probe2,1,349,NaN,bicycle,keyboard,3,0349_hp_dnn_3_keyboard_10_n03085013_23776.png,n03085013_23776.png,0.0,-1.3552421,0.64566004,-1.4148515
alexnet_w1_mlp_simclrhn_probe2,1,350,NaN,clock,car,1.5,0350_hp_dnn_1.5_car_10_n02814533_31493.png,n02814533_31493.png,0.0,0.37921727,0.6723878,-0.20730285
alexnet_w1_mlp_simclrhn_probe2,1,351,NaN,boat,boat,1.5,0351_hp_dnn_1.5_boat_10_n03344393_7631.png,n03344393_7631.png,1.0,0.30739182,0.048883274,0.18279316
alexnet_w1_mlp_simclrhn_probe2,1,352,NaN,clock,bicycle,0.4,0352_hp_dnn_0.4_bicycle_10_n02835271_1261.png,n02835271_1261.png,0.0,-0.3810134,0.31191948,-0.4899775
alexnet_w1_mlp_simclrhn_probe2,1,353,NaN,clock,clock,1,0353_hp_dnn_1_clock_10_n03196217_1850.png,n03196217_1850.png,1.0,0.21741068,0.026389372,0.13507247
alexnet_w1_mlp_simclrhn_probe2,1,354,NaN,bear,bear,inf,0354_hp_dnn_inf_bear_10_n02132136_22387.png,n02132136_22387.png,1.0,2.2229147,1.0236409,0.84801465
alexnet_w1_mlp_simclrhn_probe2,1,355,NaN,airplane,airplane,1.5,0355_hp_dnn_1.5_airplane_10_n02690373_2316.png,n02690373_2316.png,1.0,1.3141279,0.08456158,0.8694347
alexnet_w1_mlp_simclrhn_probe2,1,356,NaN,knife,cat,0.7,0356_hp_dnn_0.7_cat_10_n02123597_3634.png,n02123597_3634.png,0.0,-0.86504936,-0.49524826,-0.26148888
alexnet_w1_mlp_simclrhn_probe2,1,357,NaN,knife,bird,0.45,0357_hp_dnn_0.45_bird_10_n02018207_4151.png,n02018207_4151.png,0.0,-0.37474522,0.13733259,-0.3620937
alexnet_w1_mlp_simclrhn_probe2,1,358,NaN,clock,knife,0.7,0358_hp_dnn_0.7_knife_10_n03041632_94155.png,n03041632_94155.png,0.0,-0.44912916,-0.10647122,-0.24229577
alexnet_w1_mlp_simclrhn_probe2,1,359,NaN,clock,bottle,0.45,0359_hp_dnn_0.45_bottle_10_n04560804_7509.png,n04560804_7509.png,0.0,-0.28340432,0.37707385,-0.46702862
alexnet_w1_mlp_simclrhn_probe2,1,360,NaN,clock,cat,0.4,0360_hp_dnn_0.4_cat_10_n02123045_12748.png,n02123045_12748.png,0.0,-0.5646703,0.12507485,-0.4877235
alexnet_w1_mlp_simclrhn_probe2,1,361,NaN,clock,elephant,0.7,0361_hp_dnn_0.7_elephant_10_n02504013_6.png,n02504013_6.png,0.0,-0.8747654,0.00027406216,-0.61874634
alexnet_w1_mlp_simclrhn_probe2,1,362,NaN,clock,elephant,0.4,0362_hp_dnn_0.4_elephant_10_n02504013_1492.png,n02504013_1492.png,0.0,-0.62792885,0.23723389,-0.61176246
alexnet_w1_mlp_simclrhn_probe2,1,363,NaN,airplane,dog,0.4,0363_hp_dnn_0.4_dog_10_n02107142_27162.png,n02107142_27162.png,0.0,-0.7178492,0.14524455,-0.61029947
alexnet_w1_mlp_simclrhn_probe2,1,364,NaN,clock,bear,0.7,0364_hp_dnn_0.7_bear_10_n02134418_962.png,n02134418_962.png,0.0,-0.78733915,-0.11260367,-0.47711006
alexnet_w1_mlp_simclrhn_probe2,1,365,NaN,clock,truck,0.7,0365_hp_dnn_0.7_truck_10_n03417042_9693.png,n03417042_9693.png,0.0,0.047104638,0.41361365,-0.25916103
alexnet_w1_mlp_simclrhn_probe2,1,366,NaN,knife,oven,1,0366_hp_dnn_1_oven_10_n04111531_2116.png,n04111531_2116.png,0.0,-0.8028538,-0.43141645,-0.2626459
alexnet_w1_mlp_simclrhn_probe2,1,367,NaN,keyboard,keyboard,inf,0367_hp_dnn_inf_keyboard_10_n03085013_20460.png,n03085013_20460.png,1.0,1.7127167,0.24093579,1.0407063
alexnet_w1_mlp_simclrhn_probe2,1,368,NaN,clock,bird,0.45,0368_hp_dnn_0.45_bird_10_n01796340_6191.png,n01796340_6191.png,0.0,-0.58509094,-0.029549083,-0.39282742
alexnet_w1_mlp_simclrhn_probe2,1,369,NaN,clock,oven,1.5,0369_hp_dnn_1.5_oven_10_n04111531_8046.png,n04111531_8046.png,0.0,-0.63299406,-0.562758,-0.04966437
alexnet_w1_mlp_simclrhn_probe2,1,370,NaN,clock,boat,0.45,0370_hp_dnn_0.45_boat_10_n03344393_11788.png,n03344393_11788.png,0.0,-0.5318867,0.21622129,-0.52899224
alexnet_w1_mlp_simclrhn_probe2,1,371,NaN,cat,cat,inf,0371_hp_dnn_inf_cat_10_n02123394_2765.png,n02123394_2765.png,1.0,3.030131,-0.45951274,2.4675508
alexnet_w1_mlp_simclrhn_probe2,1,372,NaN,clock,bicycle,0.4,0372_hp_dnn_0.4_bicycle_10_n03792782_26834.png,n03792782_26834.png,0.0,0.06301488,0.38869143,-0.2302881
alexnet_w1_mlp_simclrhn_probe2,1,373,NaN,knife,cat,1.5,0373_hp_dnn_1.5_cat_10_n02125311_37036.png,n02125311_37036.png,0.0,-1.2151061,-0.89820355,-0.22408396
alexnet_w1_mlp_simclrhn_probe2,1,374,NaN,clock,bicycle,0.7,0374_hp_dnn_0.7_bicycle_10_n03792782_4067.png,n03792782_4067.png,0.0,-0.5755206,-0.25545895,-0.22631775
alexnet_w1_mlp_simclrhn_probe2,1,375,NaN,elephant,bear,inf,0375_hp_dnn_inf_bear_10_n02134418_3886.png,n02134418_3886.png,0.0,3.6989884,3.9785018,-0.1976458
alexnet_w1_mlp_simclrhn_probe2,1,376,NaN,clock,dog,0.7,0376_hp_dnn_0.7_dog_10_n02110185_9014.png,n02110185_9014.png,0.0,-2.219242,0.578113,-1.9780289
alexnet_w1_mlp_simclrhn_probe2,1,377,NaN,oven,bear,inf,0377_hp_dnn_inf_bear_10_n02134084_14888.png,n02134084_14888.png,0.0,0.38950402,2.3334112,-1.37455
alexnet_w1_mlp_simclrhn_probe2,1,378,NaN,clock,truck,1.5,0378_hp_dnn_1.5_truck_10_n03417042_5249.png,n03417042_5249.png,0.0,-2.6215587,-0.0034561355,-1.8512781
alexnet_w1_mlp_simclrhn_probe2,1,379,NaN,knife,oven,1,0379_hp_dnn_1_oven_10_n04111531_10711.png,n04111531_10711.png,0.0,-1.0243632,-0.75227845,-0.19239295
alexnet_w1_mlp_simclrhn_probe2,1,380,NaN,car,car,1.5,0380_hp_dnn_1.5_car_10_n04285008_15271.png,n04285008_15271.png,1.0,0.7267093,0.2649056,0.32654452
alexnet_w1_mlp_simclrhn_probe2,1,381,NaN,clock,cat,0.45,0381_hp_dnn_0.45_cat_10_n02123597_12232.png,n02123597_12232.png,0.0,-0.5960587,0.14254701,-0.5222731
alexnet_w1_mlp_simclrhn_probe2,1,382,NaN,chair,clock,3,0382_hp_dnn_3_clock_10_n04548280_8083.png,n04548280_8083.png,0.0,-0.345704,0.3158659,-0.46780056
alexnet_w1_mlp_simclrhn_probe2,1,383,NaN,clock,chair,0.45,0383_hp_dnn_0.45_chair_10_n04099969_8946.png,n04099969_8946.png,0.0,-0.07226199,0.30984923,-0.27019343
alexnet_w1_mlp_simclrhn_probe2,1,384,NaN,airplane,keyboard,0.7,0384_hp_dnn_0.7_keyboard_10_n03085013_21973.png,n03085013_21973.png,0.0,-0.44732368,0.3758722,-0.5820874
alexnet_w1_mlp_simclrhn_probe2,1,385,NaN,clock,bottle,0.7,0385_hp_dnn_0.7_bottle_10_n04560804_15225.png,n04560804_15225.png,0.0,-0.7223565,-0.07097066,-0.46059936
alexnet_w1_mlp_simclrhn_probe2,1,386,NaN,cat,cat,inf,0386_hp_dnn_inf_cat_10_n02123045_10395.png,n02123045_10395.png,1.0,6.4953465,-2.0090635,6.013526
alexnet_w1_mlp_simclrhn_probe2,1,387,NaN,clock,truck,0.45,0387_hp_dnn_0.45_truck_10_n03417042_4188.png,n03417042_4188.png,0.0,-0.47621077,0.120238625,-0.4217534
alexnet_w1_mlp_simclrhn_probe2,1,388,NaN,keyboard,keyboard,1.5,0388_hp_dnn_1.5_keyboard_10_n03085013_21615.png,n03085013_21615.png,1.0,5.301923,-0.24436173,3.9218156
alexnet_w1_mlp_simclrhn_probe2,1,389,NaN,knife,knife,inf,0389_hp_dnn_inf_knife_10_n03041632_26989.png,n03041632_26989.png,1.0,1.5386894,-0.23841691,1.256604
alexnet_w1_mlp_simclrhn_probe2,1,390,NaN,airplane,airplane,0.55,0390_hp_dnn_0.55_airplane_10_n02690373_16986.png,n02690373_16986.png,1.0,0.91189325,0.13689555,0.5480061
alexnet_w1_mlp_simclrhn_probe2,1,391,NaN,bicycle,bicycle,inf,0391_hp_dnn_inf_bicycle_10_n02835271_9067.png,n02835271_9067.png,1.0,10.661921,-2.9801142,9.646376
alexnet_w1_mlp_simclrhn_probe2,1,392,NaN,clock,dog,0.45,0392_hp_dnn_0.45_dog_10_n02106382_9188.png,n02106382_9188.png,0.0,-1.2492301,-0.13347697,-0.78895664
alexnet_w1_mlp_simclrhn_probe2,1,393,NaN,boat,boat,inf,0393_hp_dnn_inf_boat_10_n02951358_3205.png,n02951358_3205.png,1.0,4.5931334,0.18293053,3.1184845
alexnet_w1_mlp_simclrhn_probe2,1,394,NaN,clock,knife,0.4,0394_hp_dnn_0.4_knife_10_n03041632_45270.png,n03041632_45270.png,0.0,-0.20336756,0.21775742,-0.29778033
alexnet_w1_mlp_simclrhn_probe2,1,395,NaN,car,car,inf,0395_hp_dnn_inf_car_10_n03100240_6376.png,n03100240_6376.png,1.0,3.1333835,1.3075662,1.2910478
alexnet_w1_mlp_simclrhn_probe2,1,396,NaN,truck,truck,1,0396_hp_dnn_1_truck_10_n03796401_430.png,n03796401_430.png,1.0,1.3549216,0.6876197,0.4718537
alexnet_w1_mlp_simclrhn_probe2,1,397,NaN,clock,knife,0.7,0397_hp_dnn_0.7_knife_10_n03041632_24181.png,n03041632_24181.png,0.0,-0.1526664,-0.12303299,-0.02095399
alexnet_w1_mlp_simclrhn_probe2,1,398,NaN,clock,bear,1,0398_hp_dnn_1_bear_10_n02134084_16190.png,n02134084_16190.png,0.0,-1.3673421,-0.38486207,-0.6947183
alexnet_w1_mlp_simclrhn_probe2,1,399,NaN,clock,bear,0.55,0399_hp_dnn_0.55_bear_10_n02132136_7253.png,n02132136_7253.png,0.0,-1.5377941,0.29758945,-1.2978122
alexnet_w1_mlp_simclrhn_probe2,1,400,NaN,chair,boat,1,0400_hp_dnn_1_boat_10_n03662601_34676.png,n03662601_34676.png,0.0,-1.4679418,-0.31219676,-0.8172352
alexnet_w1_mlp_simclrhn_probe2,1,401,NaN,clock,knife,0.55,0401_hp_dnn_0.55_knife_10_n03041632_81471.png,n03041632_81471.png,0.0,-0.72889006,0.4217968,-0.8136585
alexnet_w1_mlp_simclrhn_probe2,1,402,NaN,clock,cat,0.7,0402_hp_dnn_0.7_cat_10_n02123597_3822.png,n02123597_3822.png,0.0,-0.8873283,0.2741499,-0.8212892
alexnet_w1_mlp_simclrhn_probe2,1,403,NaN,keyboard,keyboard,1.5,0403_hp_dnn_1.5_keyboard_10_n03085013_4823.png,n03085013_4823.png,1.0,2.6333036,0.10732956,1.7861334
alexnet_w1_mlp_simclrhn_probe2,1,404,NaN,clock,dog,0.4,0404_hp_dnn_0.4_dog_10_n02108551_8385.png,n02108551_8385.png,0.0,-0.90632856,0.1282788,-0.73157793
alexnet_w1_mlp_simclrhn_probe2,1,405,NaN,clock,cat,0.7,0405_hp_dnn_0.7_cat_10_n02124075_8732.png,n02124075_8732.png,0.0,-0.55600184,-0.088166654,-0.33080944
alexnet_w1_mlp_simclrhn_probe2,1,406,NaN,bicycle,dog,3,0406_hp_dnn_3_dog_10_n02093428_17625.png,n02093428_17625.png,0.0,-3.0043817,0.41367376,-2.4169302
alexnet_w1_mlp_simclrhn_probe2,1,407,NaN,car,chair,inf,0407_hp_dnn_inf_chair_10_n02791124_6999.png,n02791124_6999.png,0.0,-0.7976812,2.2124014,-2.12845
alexnet_w1_mlp_simclrhn_probe2,1,408,NaN,bird,bird,3,0408_hp_dnn_3_bird_10_n02028035_521.png,n02028035_521.png,1.0,0.01560617,-0.045380913,0.043124378
alexnet_w1_mlp_simclrhn_probe2,1,409,NaN,knife,truck,0.4,0409_hp_dnn_0.4_truck_10_n03417042_750.png,n03417042_750.png,0.0,-0.87455785,0.19568819,-0.7567782
alexnet_w1_mlp_simclrhn_probe2,1,410,NaN,airplane,airplane,inf,0410_hp_dnn_inf_airplane_10_n02690373_5779.png,n02690373_5779.png,1.0,6.4177723,2.654558,2.6609945
alexnet_w1_mlp_simclrhn_probe2,1,411,NaN,bird,cat,1.5,0411_hp_dnn_1.5_cat_10_n02123045_7154.png,n02123045_7154.png,0.0,-1.3425584,-1.327983,-0.010306338
alexnet_w1_mlp_simclrhn_probe2,1,412,NaN,bottle,bottle,1.5,0412_hp_dnn_1.5_bottle_10_n04591713_6958.png,n04591713_6958.png,1.0,1.7079455,-0.31043664,1.4272116
alexnet_w1_mlp_simclrhn_probe2,1,413,NaN,elephant,bird,1.5,0413_hp_dnn_1.5_bird_10_n01818515_42621.png,n01818515_42621.png,0.0,-1.0183055,-0.8518285,-0.117717035
alexnet_w1_mlp_simclrhn_probe2,1,414,NaN,truck,truck,inf,0414_hp_dnn_inf_truck_10_n03796401_1330.png,n03796401_1330.png,1.0,3.5576725,2.376291,0.83536285
alexnet_w1_mlp_simclrhn_probe2,1,415,NaN,keyboard,bird,1.5,0415_hp_dnn_1.5_bird_10_n01843065_6365.png,n01843065_6365.png,0.0,-1.9003826,-1.0058855,-0.632505
alexnet_w1_mlp_simclrhn_probe2,1,416,NaN,bottle,bottle,1.5,0416_hp_dnn_1.5_bottle_10_n03983396_11898.png,n03983396_11898.png,1.0,-0.46685314,-0.88307047,0.2943101
alexnet_w1_mlp_simclrhn_probe2,1,417,NaN,bird,bird,3,0417_hp_dnn_3_bird_10_n01530575_3831.png,n01530575_3831.png,1.0,0.50450146,-0.30621225,0.57326114
alexnet_w1_mlp_simclrhn_probe2,1,418,NaN,clock,bottle,0.4,0418_hp_dnn_0.4_bottle_10_n03983396_8837.png,n03983396_8837.png,0.0,-0.0039975005,0.35576245,-0.25438872
alexnet_w1_mlp_simclrhn_probe2,1,419,NaN,truck,car,0.7,0419_hp_dnn_0.7_car_10_n02814533_90798.png,n02814533_90798.png,0.0,1.2371281,1.2828776,-0.032349728
alexnet_w1_mlp_simclrhn_probe2,1,420,NaN,bird,bird,3,0420_hp_dnn_3_bird_10_n01819313_3440.png,n01819313_3440.png,1.0,0.23601778,-1.0768266,0.9283212
alexnet_w1_mlp_simclrhn_probe2,1,421,NaN,clock,dog,0.55,0421_hp_dnn_0.55_dog_10_n02090721_4433.png,n02090721_4433.png,0.0,-1.429104,-0.052236985,-0.973592
alexnet_w1_mlp_simclrhn_probe2,1,422,NaN,elephant,elephant,3,0422_hp_dnn_3_elephant_10_n02504013_9566.png,n02504013_9566.png,1.0,-0.016598687,-0.5127617,0.35084024
alexnet_w1_mlp_simclrhn_probe2,1,423,NaN,cat,dog,1.5,0423_hp_dnn_1.5_dog_10_n02105251_6599.png,n02105251_6599.png,0.0,-1.4493648,-0.38831627,-0.7502746
alexnet_w1_mlp_simclrhn_probe2,1,424,NaN,clock,chair,0.7,0424_hp_dnn_0.7_chair_10_n02791124_5759.png,n02791124_5759.png,0.0,-0.18770316,0.30375633,-0.34751433
alexnet_w1_mlp_simclrhn_probe2,1,425,NaN,elephant,elephant,inf,0425_hp_dnn_inf_elephant_10_n02504458_150.png,n02504458_150.png,1.0,2.2183025,-0.51895916,1.9355364
alexnet_w1_mlp_simclrhn_probe2,1,426,NaN,clock,clock,0.45,0426_hp_dnn_0.45_clock_10_n04548280_10040.png,n04548280_10040.png,1.0,1.3916345,-0.1473658,1.0882375
alexnet_w1_mlp_simclrhn_probe2,1,427,NaN,chair,elephant,0.7,0427_hp_dnn_0.7_elephant_10_n02504458_155.png,n02504458_155.png,0.0,-1.7556808,-0.11148794,-1.16262
alexnet_w1_mlp_simclrhn_probe2,1,428,NaN,knife,knife,1,0428_hp_dnn_1_knife_10_n03041632_48062.png,n03041632_48062.png,1.0,0.19872652,0.16523354,0.023683116
alexnet_w1_mlp_simclrhn_probe2,1,429,NaN,airplane,truck,1.5,0429_hp_dnn_1.5_truck_10_n04467665_40361.png,n04467665_40361.png,0.0,0.49080312,1.3012469,-0.5730703
alexnet_w1_mlp_simclrhn_probe2,1,430,NaN,clock,bird,0.45,0430_hp_dnn_0.45_bird_10_n01614925_7608.png,n01614925_7608.png,0.0,-0.70774233,0.0749862,-0.5534727
alexnet_w1_mlp_simclrhn_probe2,1,431,NaN,clock,bear,0.45,0431_hp_dnn_0.45_bear_10_n02133161_2749.png,n02133161_2749.png,0.0,-0.7585877,0.10231582,-0.60875076
alexnet_w1_mlp_simclrhn_probe2,1,432,NaN,airplane,boat,0.55,0432_hp_dnn_0.55_boat_10_n04612504_654.png,n04612504_654.png,0.0,-0.034952354,0.16838762,-0.14378308
alexnet_w1_mlp_simclrhn_probe2,1,433,NaN,bottle,bottle,1,0433_hp_dnn_1_bottle_10_n04579145_287.png,n04579145_287.png,1.0,1.6311085,0.65472573,0.6904069
alexnet_w1_mlp_simclrhn_probe2,1,434,NaN,bird,bear,3,0434_hp_dnn_3_bear_10_n02133161_1423.png,n02133161_1423.png,0.0,-2.5456152,-0.7367178,-1.2790836
alexnet_w1_mlp_simclrhn_probe2,1,435,NaN,bicycle,bicycle,0.7,0435_hp_dnn_0.7_bicycle_10_n02835271_4656.png,n02835271_4656.png,1.0,0.39674228,0.10451453,0.20663622
alexnet_w1_mlp_simclrhn_probe2,1,436,NaN,clock,clock,0.7,0436_hp_dnn_0.7_clock_10_n02708093_3688.png,n02708093_3688.png,1.0,0.5544274,-0.40779454,0.68039364
alexnet_w1_mlp_simclrhn_probe2,1,437,NaN,airplane,airplane,inf,0437_hp_dnn_inf_airplane_10_n02690373_10278.png,n02690373_10278.png,1.0,1.5637012,0.26260597,0.9200133
alexnet_w1_mlp_simclrhn_probe2,1,438,NaN,knife,car,0.4,0438_hp_dnn_0.4_car_10_n04285008_11133.png,n04285008_11133.png,0.0,-0.7674597,0.06086404,-0.5857133
alexnet_w1_mlp_simclrhn_probe2,1,439,NaN,knife,knife,1,0439_hp_dnn_1_knife_10_n03041632_4214.png,n03041632_4214.png,1.0,-0.07753358,-0.20251465,0.088374965
alexnet_w1_mlp_simclrhn_probe2,1,440,NaN,oven,oven,inf,0440_hp_dnn_inf_oven_10_n04111531_7741.png,n04111531_7741.png,1.0,0.3700437,-0.40996155,0.551547
alexnet_w1_mlp_simclrhn_probe2,1,441,NaN,bicycle,bicycle,3,0441_hp_dnn_3_bicycle_10_n03792782_4472.png,n03792782_4472.png,1.0,3.8192933,-1.643493,3.8627732
alexnet_w1_mlp_simclrhn_probe2,1,442,NaN,clock,bird,0.7,0442_hp_dnn_0.7_bird_10_n01798484_18666.png,n01798484_18666.png,0.0,-1.1836903,-0.20015602,-0.6954638
alexnet_w1_mlp_simclrhn_probe2,1,443,NaN,keyboard,keyboard,1.5,0443_hp_dnn_1.5_keyboard_10_n04505470_5059.png,n04505470_5059.png,1.0,0.4902287,-0.27488065,0.541014
alexnet_w1_mlp_simclrhn_probe2,1,444,NaN,clock,elephant,0.55,0444_hp_dnn_0.55_elephant_10_n02504013_2369.png,n02504013_2369.png,0.0,-1.2616062,-0.04836603,-0.85789037
alexnet_w1_mlp_simclrhn_probe2,1,445,NaN,chair,bottle,3,0445_hp_dnn_3_bottle_10_n02823428_10796.png,n02823428_10796.png,0.0,-1.0297511,-0.28884006,-0.5239032
alexnet_w1_mlp_simclrhn_probe2,1,446,NaN,bicycle,oven,3,0446_hp_dnn_3_oven_10_n04111531_4421.png,n04111531_4421.png,0.0,-1.7748611,-1.007133,-0.54286575
alexnet_w1_mlp_simclrhn_probe2,1,447,NaN,bicycle,bicycle,inf,0447_hp_dnn_inf_bicycle_10_n02835271_7303.png,n02835271_7303.png,1.0,12.247967,-1.6608502,9.835019
alexnet_w1_mlp_simclrhn_probe2,1,448,NaN,chair,chair,inf,0448_hp_dnn_inf_chair_10_n02791124_7877.png,n02791124_7877.png,1.0,0.57998943,-1.2649184,1.304547
alexnet_w1_mlp_simclrhn_probe2,1,449,NaN,clock,bottle,1.5,0449_hp_dnn_1.5_bottle_10_n04560804_12099.png,n04560804_12099.png,0.0,-0.81405383,0.14135946,-0.67557925
alexnet_w1_mlp_simclrhn_probe2,1,450,NaN,airplane,boat,1,0450_hp_dnn_1_boat_10_n03662601_18924.png,n03662601_18924.png,0.0,0.7126846,0.77617425,-0.04489398
alexnet_w1_mlp_simclrhn_probe2,1,451,NaN,clock,bottle,1,0451_hp_dnn_1_bottle_10_n04591713_4206.png,n04591713_4206.png,0.0,-0.24996635,0.14468838,-0.27906305
alexnet_w1_mlp_simclrhn_probe2,1,452,NaN,clock,clock,0.55,0452_hp_dnn_0.55_clock_10_n04548280_6689.png,n04548280_6689.png,1.0,0.84680533,-0.1092044,0.676001
alexnet_w1_mlp_simclrhn_probe2,1,453,NaN,clock,dog,0.4,0453_hp_dnn_0.4_dog_10_n02090721_5305.png,n02090721_5305.png,0.0,-0.85996324,0.10421449,-0.68177664
alexnet_w1_mlp_simclrhn_probe2,1,454,NaN,clock,clock,0.7,0454_hp_dnn_0.7_clock_10_n03196217_1746.png,n03196217_1746.png,1.0,0.07794368,0.07323781,0.003327557
alexnet_w1_mlp_simclrhn_probe2,1,455,NaN,keyboard,keyboard,3,0455_hp_dnn_3_keyboard_10_n04505470_7721.png,n04505470_7721.png,1.0,2.38938,0.27556154,1.4946953
alexnet_w1_mlp_simclrhn_probe2,1,456,NaN,clock,clock,0.55,0456_hp_dnn_0.55_clock_10_n04548280_3248.png,n04548280_3248.png,1.0,0.71414787,-0.154701,0.6143689
alexnet_w1_mlp_simclrhn_probe2,1,457,NaN,bird,bird,inf,0457_hp_dnn_inf_bird_10_n01534433_28009.png,n01534433_28009.png,1.0,2.7381766,-3.635118,4.5066
alexnet_w1_mlp_simclrhn_probe2,1,458,NaN,clock,chair,0.4,0458_hp_dnn_0.4_chair_10_n04099969_142.png,n04099969_142.png,0.0,-0.20478144,0.06975652,-0.19412766
alexnet_w1_mlp_simclrhn_probe2,1,459,NaN,clock,bicycle,0.55,0459_hp_dnn_0.55_bicycle_10_n03792782_7092.png,n03792782_7092.png,0.0,-0.0084190015,0.36503553,-0.26407224
alexnet_w1_mlp_simclrhn_probe2,1,460,NaN,airplane,keyboard,0.45,0460_hp_dnn_0.45_keyboard_10_n03085013_25559.png,n03085013_25559.png,0.0,-0.18372889,0.1735971,-0.25266764
alexnet_w1_mlp_simclrhn_probe2,1,461,NaN,clock,elephant,0.7,0461_hp_dnn_0.7_elephant_10_n02504013_9144.png,n02504013_9144.png,0.0,-0.752907,-0.21051715,-0.38352752
alexnet_w1_mlp_simclrhn_probe2,1,462,NaN,clock,clock,0.45,0462_hp_dnn_0.45_clock_10_n03196217_2003.png,n03196217_2003.png,1.0,0.3926618,0.3285667,0.045322087
alexnet_w1_mlp_simclrhn_probe2,1,463,NaN,knife,elephant,1,0463_hp_dnn_1_elephant_10_n02504013_3169.png,n02504013_3169.png,0.0,-0.53684586,-0.3967955,-0.099030554
alexnet_w1_mlp_simclrhn_probe2,1,464,NaN,clock,dog,0.55,0464_hp_dnn_0.55_dog_10_n02089867_6424.png,n02089867_6424.png,0.0,-1.3302326,-0.110760935,-0.8622967
alexnet_w1_mlp_simclrhn_probe2,1,465,NaN,clock,keyboard,1,0465_hp_dnn_1_keyboard_10_n03085013_22494.png,n03085013_22494.png,0.0,-0.38585076,0.65715486,-0.73751634
alexnet_w1_mlp_simclrhn_probe2,1,466,NaN,knife,dog,0.4,0466_hp_dnn_0.4_dog_10_n02106662_37555.png,n02106662_37555.png,0.0,-0.841331,0.10323644,-0.66791004
alexnet_w1_mlp_simclrhn_probe2,1,467,NaN,clock,car,0.55,0467_hp_dnn_0.55_car_10_n02814533_4726.png,n02814533_4726.png,0.0,-0.19411986,0.42517233,-0.43790573
alexnet_w1_mlp_simclrhn_probe2,1,468,NaN,clock,elephant,0.45,0468_hp_dnn_0.45_elephant_10_n02504458_1473.png,n02504458_1473.png,0.0,-0.83494186,0.12717395,-0.68031865
alexnet_w1_mlp_simclrhn_probe2,1,469,NaN,knife,bottle,0.55,0469_hp_dnn_0.55_bottle_10_n04557648_3350.png,n04557648_3350.png,0.0,-0.2960383,0.14974357,-0.3152154
alexnet_w1_mlp_simclrhn_probe2,1,470,NaN,clock,knife,0.4,0470_hp_dnn_0.4_knife_10_n03041632_31909.png,n03041632_31909.png,0.0,0.11691688,0.26417032,-0.104123905
alexnet_w1_mlp_simclrhn_probe2,1,471,NaN,airplane,truck,0.4,0471_hp_dnn_0.4_truck_10_n04467665_70880.png,n04467665_70880.png,0.0,-0.6648606,0.17882171,-0.5965735
alexnet_w1_mlp_simclrhn_probe2,1,472,NaN,clock,dog,0.45,0472_hp_dnn_0.45_dog_10_n02097209_7557.png,n02097209_7557.png,0.0,-1.0665731,0.058264215,-0.7953802
alexnet_w1_mlp_simclrhn_probe2,1,473,NaN,oven,oven,1,0473_hp_dnn_1_oven_10_n04111531_4438.png,n04111531_4438.png,1.0,0.12013626,-0.24085645,0.2552604
alexnet_w1_mlp_simclrhn_probe2,1,474,NaN,airplane,airplane,0.7,0474_hp_dnn_0.7_airplane_10_n02690373_194.png,n02690373_194.png,1.0,0.59321964,0.1020706,0.3472948
alexnet_w1_mlp_simclrhn_probe2,1,475,NaN,bicycle,bicycle,1.5,0475_hp_dnn_1.5_bicycle_10_n02835271_6953.png,n02835271_6953.png,1.0,-0.1166647,-0.46543777,0.2466198
alexnet_w1_mlp_simclrhn_probe2,1,476,NaN,clock,oven,0.45,0476_hp_dnn_0.45_oven_10_n04111531_14435.png,n04111531_14435.png,0.0,-1.0850769,0.16837077,-0.88632137
alexnet_w1_mlp_simclrhn_probe2,1,477,NaN,bicycle,elephant,1.5,0477_hp_dnn_1.5_elephant_10_n02504013_5192.png,n02504013_5192.png,0.0,-1.6608262,-0.19029272,-1.0398242
alexnet_w1_mlp_simclrhn_probe2,1,478,NaN,bicycle,chair,0.7,0478_hp_dnn_0.7_chair_10_n03376595_3566.png,n03376595_3566.png,0.0,0.07757664,0.17913407,-0.07181195
alexnet_w1_mlp_simclrhn_probe2,1,479,NaN,clock,truck,1,0479_hp_dnn_1_truck_10_n03417042_22709.png,n03417042_22709.png,0.0,-1.1929873,-0.18218963,-0.71474195
alexnet_w1_mlp_simclrhn_probe2,1,480,NaN,keyboard,keyboard,inf,0480_hp_dnn_inf_keyboard_10_n04505470_4603.png,n04505470_4603.png,1.0,7.5971513,6.395451,0.8497304
alexnet_w1_mlp_simclrhn_probe2,1,481,NaN,clock,car,0.55,0481_hp_dnn_0.55_car_10_n03100240_1794.png,n03100240_1794.png,0.0,-0.12295997,0.21559341,-0.23939338
alexnet_w1_mlp_simclrhn_probe2,1,482,NaN,clock,elephant,0.7,0482_hp_dnn_0.7_elephant_10_n02504458_1233.png,n02504458_1233.png,0.0,-0.8021598,-0.3186655,-0.34188208
alexnet_w1_mlp_simclrhn_probe2,1,483,NaN,airplane,airplane,0.45,0483_hp_dnn_0.45_airplane_10_n02690373_3047.png,n02690373_3047.png,1.0,0.29863214,0.27018884,0.020112455
alexnet_w1_mlp_simclrhn_probe2,1,484,NaN,clock,elephant,0.55,0484_hp_dnn_0.55_elephant_10_n02504013_7422.png,n02504013_7422.png,0.0,-0.44674355,0.0015328726,-0.31697932
alexnet_w1_mlp_simclrhn_probe2,1,485,NaN,clock,bicycle,0.45,0485_hp_dnn_0.45_bicycle_10_n03792782_16034.png,n03792782_16034.png,0.0,-0.5592563,0.11851833,-0.47925907
alexnet_w1_mlp_simclrhn_probe2,1,486,NaN,bicycle,bicycle,3,0486_hp_dnn_3_bicycle_10_n02835271_11922.png,n02835271_11922.png,1.0,0.4243602,-0.026838342,0.31904554
alexnet_w1_mlp_simclrhn_probe2,1,487,NaN,clock,truck,0.7,0487_hp_dnn_0.7_truck_10_n03796401_6526.png,n03796401_6526.png,0.0,-0.6565939,0.46575323,-0.7936193
alexnet_w1_mlp_simclrhn_probe2,1,488,NaN,boat,boat,3,0488_hp_dnn_3_boat_10_n03662601_1834.png,n03662601_1834.png,1.0,1.9684944,-1.1186204,2.1829197
alexnet_w1_mlp_simclrhn_probe2,1,489,NaN,bird,dog,0.7,0489_hp_dnn_0.7_dog_10_n02100236_619.png,n02100236_619.png,0.0,-1.380555,-0.340366,-0.7355247
alexnet_w1_mlp_simclrhn_probe2,1,490,NaN,knife,truck,0.45,0490_hp_dnn_0.45_truck_10_n04467665_21266.png,n04467665_21266.png,0.0,-0.672506,0.1450996,-0.5781344
alexnet_w1_mlp_simclrhn_probe2,1,491,NaN,chair,chair,0.55,0491_hp_dnn_0.55_chair_10_n04099969_18220.png,n04099969_18220.png,1.0,0.23630029,0.17872052,0.040715046
alexnet_w1_mlp_simclrhn_probe2,1,492,NaN,keyboard,keyboard,1.5,0492_hp_dnn_1.5_keyboard_10_n03085013_4157.png,n03085013_4157.png,1.0,2.119747,0.80039513,0.9329226
alexnet_w1_mlp_simclrhn_probe2,1,493,NaN,clock,bicycle,0.4,0493_hp_dnn_0.4_bicycle_10_n03792782_1276.png,n03792782_1276.png,0.0,-0.7880043,0.11752784,-0.6403079
alexnet_w1_mlp_simclrhn_probe2,1,494,NaN,boat,boat,3,0494_hp_dnn_3_boat_10_n03344393_1987.png,n03344393_1987.png,1.0,2.5364456,1.1419854,0.9860323
alexnet_w1_mlp_simclrhn_probe2,1,495,NaN,airplane,boat,0.45,0495_hp_dnn_0.45_boat_10_n03344393_381.png,n03344393_381.png,0.0,0.0050274013,0.5202443,-0.36431336
alexnet_w1_mlp_simclrhn_probe2,1,496,NaN,clock,clock,inf,0496_hp_dnn_inf_clock_10_n02708093_8390.png,n02708093_8390.png,1.0,2.0895145,1.8447673,0.17306238
alexnet_w1_mlp_simclrhn_probe2,1,497,NaN,keyboard,keyboard,0.55,0497_hp_dnn_0.55_keyboard_10_n04505470_1043.png,n04505470_1043.png,1.0,1.6568546,0.15989411,1.0585109
alexnet_w1_mlp_simclrhn_probe2,1,498,NaN,clock,dog,0.55,0498_hp_dnn_0.55_dog_10_n02100877_1902.png,n02100877_1902.png,0.0,-1.4240273,-0.13770281,-0.9095688
alexnet_w1_mlp_simclrhn_probe2,1,499,NaN,clock,knife,1.5,0499_hp_dnn_1.5_knife_10_n03041632_55083.png,n03041632_55083.png,0.0,0.1519282,0.17847599,-0.018772122
alexnet_w1_mlp_simclrhn_probe2,1,500,NaN,chair,truck,1.5,0500_hp_dnn_1.5_truck_10_n04467665_45872.png,n04467665_45872.png,0.0,-1.8673911,0.13620976,-1.4167597
alexnet_w1_mlp_simclrhn_probe2,1,501,NaN,knife,boat,0.7,0501_hp_dnn_0.7_boat_10_n04273569_3244.png,n04273569_3244.png,0.0,-0.9948036,-0.1020783,-0.6312521
alexnet_w1_mlp_simclrhn_probe2,1,502,NaN,clock,bear,0.45,0502_hp_dnn_0.45_bear_10_n02134418_2157.png,n02134418_2157.png,0.0,-0.6978207,0.002763629,-0.49538794
alexnet_w1_mlp_simclrhn_probe2,1,503,NaN,bottle,bottle,3,0503_hp_dnn_3_bottle_10_n04591713_17618.png,n04591713_17618.png,1.0,0.08692193,-0.21374223,0.21260166
alexnet_w1_mlp_simclrhn_probe2,1,504,NaN,clock,cat,1,0504_hp_dnn_1_cat_10_n02125311_8496.png,n02125311_8496.png,0.0,-1.2320951,-0.41812208,-0.5755659
alexnet_w1_mlp_simclrhn_probe2,1,505,NaN,car,car,inf,0505_hp_dnn_inf_car_10_n02814533_3560.png,n02814533_3560.png,1.0,14.664159,13.921833,0.5249036
alexnet_w1_mlp_simclrhn_probe2,1,506,NaN,clock,truck,0.7,0506_hp_dnn_0.7_truck_10_n03417042_751.png,n03417042_751.png,0.0,-0.40568253,0.017392606,-0.29915932
alexnet_w1_mlp_simclrhn_probe2,1,507,NaN,chair,keyboard,inf,0507_hp_dnn_inf_keyboard_10_n03085013_23213.png,n03085013_23213.png,0.0,-1.5991176,0.5671586,-1.5317886
alexnet_w1_mlp_simclrhn_probe2,1,508,NaN,clock,bicycle,0.4,0508_hp_dnn_0.4_bicycle_10_n03792782_19709.png,n03792782_19709.png,0.0,-0.76944685,0.002143398,-0.5455967
alexnet_w1_mlp_simclrhn_probe2,1,509,NaN,oven,oven,inf,0509_hp_dnn_inf_oven_10_n04111531_3076.png,n04111531_3076.png,1.0,2.3278494,1.0174954,0.9265602
alexnet_w1_mlp_simclrhn_probe2,1,510,NaN,knife,knife,0.4,0510_hp_dnn_0.4_knife_10_n03041632_14774.png,n03041632_14774.png,1.0,0.2678698,0.19889699,0.048771143
alexnet_w1_mlp_simclrhn_probe2,1,511,NaN,car,car,0.7,0511_hp_dnn_0.7_car_10_n03100240_7703.png,n03100240_7703.png,1.0,1.1736468,0.6165113,0.3939543
alexnet_w1_mlp_simclrhn_probe2,1,512,NaN,clock,bear,0.55,0512_hp_dnn_0.55_bear_10_n02134084_13434.png,n02134084_13434.png,0.0,-0.95790935,0.0013118088,-0.6782718
alexnet_w1_mlp_simclrhn_probe2,1,513,NaN,cat,dog,inf,0513_hp_dnn_inf_dog_10_n02111500_4280.png,n02111500_4280.png,0.0,-0.053888224,0.72334236,-0.549585
alexnet_w1_mlp_simclrhn_probe2,1,514,NaN,knife,bear,0.55,0514_hp_dnn_0.55_bear_10_n02132136_23853.png,n02132136_23853.png,0.0,-0.72857845,0.0045954734,-0.51843226
alexnet_w1_mlp_simclrhn_probe2,1,515,NaN,bicycle,bicycle,1.5,0515_hp_dnn_1.5_bicycle_10_n03792782_17193.png,n03792782_17193.png,1.0,-0.12514597,-1.0377535,0.64531094
alexnet_w1_mlp_simclrhn_probe2,1,516,NaN,clock,dog,1,0516_hp_dnn_1_dog_10_n02102177_5770.png,n02102177_5770.png,0.0,-1.142792,-0.43563554,-0.5000351
alexnet_w1_mlp_simclrhn_probe2,1,517,NaN,elephant,bear,0.7,0517_hp_dnn_0.7_bear_10_n02132136_2279.png,n02132136_2279.png,0.0,-0.55066454,0.11602924,-0.47142372
alexnet_w1_mlp_simclrhn_probe2,1,518,NaN,elephant,bear,inf,0518_hp_dnn_inf_bear_10_n02134084_6910.png,n02134084_6910.png,0.0,-0.7614672,-0.118182205,-0.4548712
alexnet_w1_mlp_simclrhn_probe2,1,519,NaN,oven,oven,0.7,0519_hp_dnn_0.7_oven_10_n04111531_9041.png,n04111531_9041.png,1.0,0.98418635,0.13423079,0.60100937
alexnet_w1_mlp_simclrhn_probe2,1,520,NaN,knife,cat,1,0520_hp_dnn_1_cat_10_n02123159_5424.png,n02123159_5424.png,0.0,-0.97816354,-0.35962212,-0.43737483
alexnet_w1_mlp_simclrhn_probe2,1,521,NaN,clock,bicycle,0.45,0521_hp_dnn_0.45_bicycle_10_n02835271_672.png,n02835271_672.png,0.0,-0.7361076,-0.03914997,-0.49282345
alexnet_w1_mlp_simclrhn_probe2,1,522,NaN,airplane,airplane,0.45,0522_hp_dnn_0.45_airplane_10_n02690373_18111.png,n02690373_18111.png,1.0,0.36449152,0.095148,0.19045463
alexnet_w1_mlp_simclrhn_probe2,1,523,NaN,clock,clock,1,0523_hp_dnn_1_clock_10_n04548280_3013.png,n04548280_3013.png,1.0,2.462084,0.020918863,1.7261645
alexnet_w1_mlp_simclrhn_probe2,1,524,NaN,knife,dog,0.45,0524_hp_dnn_0.45_dog_10_n02094258_4142.png,n02094258_4142.png,0.0,-0.92409635,0.05886642,-0.69505966
alexnet_w1_mlp_simclrhn_probe2,1,525,NaN,clock,clock,3,0525_hp_dnn_3_clock_10_n04548280_6919.png,n04548280_6919.png,1.0,4.8652883,-0.21577665,3.5928555
alexnet_w1_mlp_simclrhn_probe2,1,526,NaN,clock,cat,0.4,0526_hp_dnn_0.4_cat_10_n02124075_16814.png,n02124075_16814.png,0.0,-0.39109173,0.12016647,-0.36151412
alexnet_w1_mlp_simclrhn_probe2,1,527,NaN,clock,clock,1,0527_hp_dnn_1_clock_10_n04548280_3342.png,n04548280_3342.png,1.0,-0.11320555,-1.2492131,0.8032786
alexnet_w1_mlp_simclrhn_probe2,1,528,NaN,clock,boat,1,0528_hp_dnn_1_boat_10_n04612504_31680.png,n04612504_31680.png,0.0,-0.22290707,0.12684804,-0.24731421
alexnet_w1_mlp_simclrhn_probe2,1,529,NaN,keyboard,keyboard,inf,0529_hp_dnn_inf_keyboard_10_n03085013_7962.png,n03085013_7962.png,1.0,9.575985,0.5925342,6.352259
alexnet_w1_mlp_simclrhn_probe2,1,530,NaN,bicycle,bicycle,3,0530_hp_dnn_3_bicycle_10_n02835271_949.png,n02835271_949.png,1.0,4.7334394,0.7511993,2.815869
alexnet_w1_mlp_simclrhn_probe2,1,531,NaN,keyboard,keyboard,1,0531_hp_dnn_1_keyboard_10_n04505470_4228.png,n04505470_4228.png,1.0,0.62534684,-0.06306893,0.48678347
alexnet_w1_mlp_simclrhn_probe2,1,532,NaN,knife,boat,0.7,0532_hp_dnn_0.7_boat_10_n03344393_3219.png,n03344393_3219.png,0.0,-0.6321558,0.19445647,-0.5845031
alexnet_w1_mlp_simclrhn_probe2,1,533,NaN,chair,elephant,3,0533_hp_dnn_3_elephant_10_n02504458_3399.png,n02504458_3399.png,0.0,-3.163988,-0.5205773,-1.8691736
alexnet_w1_mlp_simclrhn_probe2,1,534,NaN,airplane,bird,0.55,0534_hp_dnn_0.55_bird_10_n01616318_12459.png,n01616318_12459.png,0.0,-0.42066103,0.2763539,-0.49286398
alexnet_w1_mlp_simclrhn_probe2,1,535,NaN,knife,elephant,0.4,0535_hp_dnn_0.4_elephant_10_n02504013_1846.png,n02504013_1846.png,0.0,-0.48739672,0.048857734,-0.37918916
alexnet_w1_mlp_simclrhn_probe2,1,536,NaN,clock,bicycle,0.55,0536_hp_dnn_0.55_bicycle_10_n03792782_5097.png,n03792782_5097.png,0.0,-0.5325032,0.07123924,-0.42691037
alexnet_w1_mlp_simclrhn_probe2,1,537,NaN,bicycle,bottle,3,0537_hp_dnn_3_bottle_10_n02823428_5115.png,n02823428_5115.png,0.0,-1.232832,-0.3173914,-0.64731425
alexnet_w1_mlp_simclrhn_probe2,1,538,NaN,keyboard,keyboard,inf,0538_hp_dnn_inf_keyboard_10_n03085013_21282.png,n03085013_21282.png,1.0,5.749068,5.0443454,0.498314
alexnet_w1_mlp_simclrhn_probe2,1,539,NaN,knife,oven,0.4,0539_hp_dnn_0.4_oven_10_n04111531_1815.png,n04111531_1815.png,0.0,-0.72343564,0.2003972,-0.6532485
alexnet_w1_mlp_simclrhn_probe2,1,540,NaN,clock,chair,1,0540_hp_dnn_1_chair_10_n02791124_5268.png,n02791124_5268.png,0.0,-0.54477227,-0.3074882,-0.16778517
alexnet_w1_mlp_simclrhn_probe2,1,541,NaN,airplane,airplane,0.55,0541_hp_dnn_0.55_airplane_10_n02690373_3035.png,n02690373_3035.png,1.0,0.114679225,0.06874588,0.032479778
alexnet_w1_mlp_simclrhn_probe2,1,542,NaN,dog,dog,inf,0542_hp_dnn_inf_dog_10_n02107683_1460.png,n02107683_1460.png,1.0,2.1271625,0.12304783,1.4171231
alexnet_w1_mlp_simclrhn_probe2,1,543,NaN,boat,boat,inf,0543_hp_dnn_inf_boat_10_n02951358_31813.png,n02951358_31813.png,1.0,3.8460274,1.9958194,1.3082945
alexnet_w1_mlp_simclrhn_probe2,1,544,NaN,clock,bird,0.4,0544_hp_dnn_0.4_bird_10_n01797886_16808.png,n01797886_16808.png,0.0,-0.61332774,-0.08135734,-0.37615988
alexnet_w1_mlp_simclrhn_probe2,1,545,NaN,clock,elephant,0.45,0545_hp_dnn_0.45_elephant_10_n02504458_4767.png,n02504458_4767.png,0.0,-0.50790095,0.14523923,-0.46183985
alexnet_w1_mlp_simclrhn_probe2,1,546,NaN,chair,knife,3,0546_hp_dnn_3_knife_10_n03041632_41493.png,n03041632_41493.png,0.0,-1.2976398,0.04621078,-0.9502459
alexnet_w1_mlp_simclrhn_probe2,1,547,NaN,bicycle,elephant,3,0547_hp_dnn_3_elephant_10_n02504458_3329.png,n02504458_3329.png,0.0,-0.8483373,-0.3436493,-0.35686833
alexnet_w1_mlp_simclrhn_probe2,1,548,NaN,clock,cat,0.45,0548_hp_dnn_0.45_cat_10_n02124075_12467.png,n02124075_12467.png,0.0,-0.9069571,0.21148159,-0.79085565
alexnet_w1_mlp_simclrhn_probe2,1,549,NaN,clock,truck,0.7,0549_hp_dnn_0.7_truck_10_n03417042_6467.png,n03417042_6467.png,0.0,-0.77222836,0.1500749,-0.6521669
alexnet_w1_mlp_simclrhn_probe2,1,550,NaN,airplane,airplane,inf,0550_hp_dnn_inf_airplane_10_n02690373_734.png,n02690373_734.png,1.0,6.628713,-2.1544285,6.2106194
alexnet_w1_mlp_simclrhn_probe2,1,551,NaN,clock,car,0.4,0551_hp_dnn_0.4_car_10_n02814533_85296.png,n02814533_85296.png,0.0,-0.5336098,0.18865371,-0.51071745
alexnet_w1_mlp_simclrhn_probe2,1,552,NaN,clock,elephant,0.7,0552_hp_dnn_0.7_elephant_10_n02504013_18005.png,n02504013_18005.png,0.0,-1.1756482,0.068400525,-0.87967527
alexnet_w1_mlp_simclrhn_probe2,1,553,NaN,clock,clock,0.45,0553_hp_dnn_0.45_clock_10_n02708093_1495.png,n02708093_1495.png,1.0,0.46929434,-0.21761397,0.48571754
alexnet_w1_mlp_simclrhn_probe2,1,554,NaN,clock,car,1.5,0554_hp_dnn_1.5_car_10_n04285008_3462.png,n04285008_3462.png,0.0,-0.62124974,0.10626624,-0.5144315
alexnet_w1_mlp_simclrhn_probe2,1,555,NaN,clock,truck,0.4,0555_hp_dnn_0.4_truck_10_n03417042_22297.png,n03417042_22297.png,0.0,-0.44919097,0.29335546,-0.52505964
alexnet_w1_mlp_simclrhn_probe2,1,556,NaN,bicycle,chair,3,0556_hp_dnn_3_chair_10_n04429376_7279.png,n04429376_7279.png,0.0,-0.57702625,0.6584879,-0.8736405
alexnet_w1_mlp_simclrhn_probe2,1,557,NaN,bicycle,bicycle,3,0557_hp_dnn_3_bicycle_10_n02835271_6919.png,n02835271_6919.png,1.0,2.495964,-0.49958485,2.1181731
alexnet_w1_mlp_simclrhn_probe2,1,558,NaN,clock,oven,0.55,0558_hp_dnn_0.55_oven_10_n04111531_2260.png,n04111531_2260.png,0.0,0.20171344,0.65941924,-0.32364687
alexnet_w1_mlp_simclrhn_probe2,1,559,NaN,clock,bear,0.7,0559_hp_dnn_0.7_bear_10_n02134084_5794.png,n02134084_5794.png,0.0,-1.5342183,-0.058675587,-1.0433663
alexnet_w1_mlp_simclrhn_probe2,1,560,NaN,clock,airplane,0.7,0560_hp_dnn_0.7_airplane_10_n02690373_10397.png,n02690373_10397.png,0.0,-0.2284051,0.50189704,-0.5164016
alexnet_w1_mlp_simclrhn_probe2,1,561,NaN,knife,elephant,0.4,0561_hp_dnn_0.4_elephant_10_n02504458_2041.png,n02504458_2041.png,0.0,-0.6385653,0.12759599,-0.5417579
alexnet_w1_mlp_simclrhn_probe2,1,562,NaN,chair,chair,1,0562_hp_dnn_1_chair_10_n04429376_7732.png,n04429376_7732.png,1.0,-0.019177584,-0.22272341,0.14392863
alexnet_w1_mlp_simclrhn_probe2,1,563,NaN,airplane,airplane,0.4,0563_hp_dnn_0.4_airplane_10_n02690373_4788.png,n02690373_4788.png,1.0,0.32995677,0.20726901,0.086753346
alexnet_w1_mlp_simclrhn_probe2,1,564,NaN,clock,dog,0.55,0564_hp_dnn_0.55_dog_10_n02097474_2799.png,n02097474_2799.png,0.0,-1.4758897,0.21984069,-1.1990625
alexnet_w1_mlp_simclrhn_probe2,1,565,NaN,knife,bear,1.5,0565_hp_dnn_1.5_bear_10_n02134084_17849.png,n02134084_17849.png,0.0,-1.2127228,-0.28315622,-0.65730286
alexnet_w1_mlp_simclrhn_probe2,1,566,NaN,dog,dog,inf,0566_hp_dnn_inf_dog_10_n02086646_7064.png,n02086646_7064.png,1.0,1.4164696,-1.8623819,2.3184981
alexnet_w1_mlp_simclrhn_probe2,1,567,NaN,clock,truck,0.55,0567_hp_dnn_0.55_truck_10_n03417042_7061.png,n03417042_7061.png,0.0,-0.39764008,0.41666865,-0.5758033
alexnet_w1_mlp_simclrhn_probe2,1,568,NaN,bicycle,bird,1,0568_hp_dnn_1_bird_10_n01820546_3605.png,n01820546_3605.png,0.0,-0.8755199,0.113734506,-0.6995085
alexnet_w1_mlp_simclrhn_probe2,1,569,NaN,clock,bear,0.4,0569_hp_dnn_0.4_bear_10_n02133161_2813.png,n02133161_2813.png,0.0,-1.0849296,0.041637745,-0.79660344
alexnet_w1_mlp_simclrhn_probe2,1,570,NaN,knife,bear,0.45,0570_hp_dnn_0.45_bear_10_n02132136_16636.png,n02132136_16636.png,0.0,-0.58718914,0.095304176,-0.48259568
alexnet_w1_mlp_simclrhn_probe2,1,571,NaN,chair,oven,1.5,0571_hp_dnn_1.5_oven_10_n04111531_14959.png,n04111531_14959.png,0.0,-0.6162486,0.40341207,-0.721009
alexnet_w1_mlp_simclrhn_probe2,1,572,NaN,clock,cat,0.45,0572_hp_dnn_0.45_cat_10_n02124075_5453.png,n02124075_5453.png,0.0,-0.5289751,0.08565694,-0.43461052
alexnet_w1_mlp_simclrhn_probe2,1,573,NaN,elephant,cat,1,0573_hp_dnn_1_cat_10_n02124075_11528.png,n02124075_11528.png,0.0,-1.3614057,-1.1157656,-0.17369382
alexnet_w1_mlp_simclrhn_probe2,1,574,NaN,knife,cat,1,0574_hp_dnn_1_cat_10_n02123159_3454.png,n02123159_3454.png,0.0,-0.78206104,-0.64863455,-0.09434678
alexnet_w1_mlp_simclrhn_probe2,1,575,NaN,knife,bird,0.45,0575_hp_dnn_0.45_bird_10_n02025239_2227.png,n02025239_2227.png,0.0,-0.4065128,0.029064983,-0.308
alexnet_w1_mlp_simclrhn_probe2,1,576,NaN,clock,chair,0.7,0576_hp_dnn_0.7_chair_10_n03376595_12256.png,n03376595_12256.png,0.0,-0.46486387,-0.08557128,-0.26820037
alexnet_w1_mlp_simclrhn_probe2,1,577,NaN,clock,clock,1.5,0577_hp_dnn_1.5_clock_10_n02708093_6591.png,n02708093_6591.png,1.0,0.32560453,-1.0377796,0.96405816
alexnet_w1_mlp_simclrhn_probe2,1,578,NaN,clock,chair,0.55,0578_hp_dnn_0.55_chair_10_n04099969_34144.png,n04099969_34144.png,0.0,-0.1383237,0.2144667,-0.2494605
alexnet_w1_mlp_simclrhn_probe2,1,579,NaN,elephant,bear,0.55,0579_hp_dnn_0.55_bear_10_n02132136_3563.png,n02132136_3563.png,0.0,-0.91640216,-0.3953141,-0.36846492
alexnet_w1_mlp_simclrhn_probe2,1,580,NaN,elephant,elephant,1,0580_hp_dnn_1_elephant_10_n02504013_6671.png,n02504013_6671.png,1.0,0.2596257,-0.4666367,0.5135451
alexnet_w1_mlp_simclrhn_probe2,1,581,NaN,clock,keyboard,0.7,0581_hp_dnn_0.7_keyboard_10_n03085013_22067.png,n03085013_22067.png,0.0,-0.20331615,0.31428012,-0.36599582
alexnet_w1_mlp_simclrhn_probe2,1,582,NaN,truck,truck,inf,0582_hp_dnn_inf_truck_10_n03796401_1458.png,n03796401_1458.png,1.0,0.8478767,-0.57923335,1.0091193
alexnet_w1_mlp_simclrhn_probe2,1,583,NaN,clock,bottle,0.45,0583_hp_dnn_0.45_bottle_10_n04591713_807.png,n04591713_807.png,0.0,-0.33518845,0.17012197,-0.35730842
alexnet_w1_mlp_simclrhn_probe2,1,584,NaN,clock,car,1,0584_hp_dnn_1_car_10_n02814533_22693.png,n02814533_22693.png,0.0,-1.8227558,0.3994665,-1.5713485
alexnet_w1_mlp_simclrhn_probe2,1,585,NaN,clock,car,0.7,0585_hp_dnn_0.7_car_10_n02814533_5278.png,n02814533_5278.png,0.0,-0.24776177,0.18382692,-0.3051793
alexnet_w1_mlp_simclrhn_probe2,1,586,NaN,airplane,boat,1.5,0586_hp_dnn_1.5_boat_10_n03662601_10240.png,n03662601_10240.png,0.0,0.025588894,0.55979437,-0.37774032
alexnet_w1_mlp_simclrhn_probe2,1,587,NaN,airplane,airplane,inf,0587_hp_dnn_inf_airplane_10_n02690373_9673.png,n02690373_9673.png,1.0,4.173061,0.25786725,2.76846
alexnet_w1_mlp_simclrhn_probe2,1,588,NaN,bird,bird,0.7,0588_hp_dnn_0.7_bird_10_n02009229_6029.png,n02009229_6029.png,1.0,0.58076364,-0.42194423,0.7090215
alexnet_w1_mlp_simclrhn_probe2,1,589,NaN,clock,clock,0.4,0589_hp_dnn_0.4_clock_10_n02708093_2580.png,n02708093_2580.png,1.0,0.9128162,-0.29327476,0.85283506
alexnet_w1_mlp_simclrhn_probe2,1,590,NaN,airplane,elephant,0.4,0590_hp_dnn_0.4_elephant_10_n02504013_295.png,n02504013_295.png,0.0,-0.5528496,0.23810709,-0.5592908
alexnet_w1_mlp_simclrhn_probe2,1,591,NaN,clock,car,0.7,0591_hp_dnn_0.7_car_10_n04285008_9893.png,n04285008_9893.png,0.0,-0.17502463,0.3987199,-0.40569866
alexnet_w1_mlp_simclrhn_probe2,1,592,NaN,chair,chair,1.5,0592_hp_dnn_1.5_chair_10_n03376595_6850.png,n03376595_6850.png,1.0,-0.48035043,-0.5954325,0.08137532
alexnet_w1_mlp_simclrhn_probe2,1,593,NaN,car,boat,3,0593_hp_dnn_3_boat_10_n03662601_15713.png,n03662601_15713.png,0.0,0.34989044,0.8243583,-0.33549944
alexnet_w1_mlp_simclrhn_probe2,1,594,NaN,airplane,clock,0.4,0594_hp_dnn_0.4_clock_10_n04548280_9867.png,n04548280_9867.png,0.0,0.09576354,0.3318685,-0.16695142
alexnet_w1_mlp_simclrhn_probe2,1,595,NaN,airplane,airplane,1.5,0595_hp_dnn_1.5_airplane_10_n02690373_1450.png,n02690373_1450.png,1.0,1.4980052,0.22254586,0.9018859
alexnet_w1_mlp_simclrhn_probe2,1,596,NaN,clock,bicycle,0.45,0596_hp_dnn_0.45_bicycle_10_n03792782_7787.png,n03792782_7787.png,0.0,-0.7100579,0.027563283,-0.52157694
alexnet_w1_mlp_simclrhn_probe2,1,597,NaN,clock,chair,0.45,0597_hp_dnn_0.45_chair_10_n04099969_1219.png,n04099969_1219.png,0.0,-0.16116491,0.37056264,-0.37598816
alexnet_w1_mlp_simclrhn_probe2,1,598,NaN,keyboard,keyboard,0.55,0598_hp_dnn_0.55_keyboard_10_n03085013_8325.png,n03085013_8325.png,1.0,0.8453354,0.22031651,0.44195512
alexnet_w1_mlp_simclrhn_probe2,1,599,NaN,chair,bicycle,0.55,0599_hp_dnn_0.55_bicycle_10_n02835271_14732.png,n02835271_14732.png,0.0,-0.32622644,-0.073675245,-0.17858067
alexnet_w1_mlp_simclrhn_probe2,1,600,NaN,airplane,airplane,1.5,0600_hp_dnn_1.5_airplane_10_n02690373_4176.png,n02690373_4176.png,1.0,0.78459525,0.030349473,0.5333323
alexnet_w1_mlp_simclrhn_probe2,1,601,NaN,elephant,bird,1,0601_hp_dnn_1_bird_10_n01534433_905.png,n01534433_905.png,0.0,-1.1070281,-0.5864337,-0.36811584
alexnet_w1_mlp_simclrhn_probe2,1,602,NaN,airplane,truck,1.5,0602_hp_dnn_1.5_truck_10_n04467665_45306.png,n04467665_45306.png,0.0,-0.6687777,0.5541881,-0.8647674
alexnet_w1_mlp_simclrhn_probe2,1,603,NaN,elephant,elephant,3,0603_hp_dnn_3_elephant_10_n02504458_1617.png,n02504458_1617.png,1.0,0.308402,-0.42226997,0.51666313
alexnet_w1_mlp_simclrhn_probe2,1,604,NaN,knife,oven,0.45,0604_hp_dnn_0.45_oven_10_n04111531_4148.png,n04111531_4148.png,0.0,-0.9285754,0.2344535,-0.82238567
alexnet_w1_mlp_simclrhn_probe2,1,605,NaN,clock,bird,0.55,0605_hp_dnn_0.55_bird_10_n02009912_91.png,n02009912_91.png,0.0,-1.2717016,0.11599398,-0.981249
alexnet_w1_mlp_simclrhn_probe2,1,606,NaN,knife,knife,3,0606_hp_dnn_3_knife_10_n03041632_33739.png,n03041632_33739.png,1.0,0.36038652,-0.2528047,0.4335917
alexnet_w1_mlp_simclrhn_probe2,1,607,NaN,airplane,airplane,1,0607_hp_dnn_1_airplane_10_n02690373_9318.png,n02690373_9318.png,1.0,2.5830302,-0.114616826,1.9075246
alexnet_w1_mlp_simclrhn_probe2,1,608,NaN,clock,bird,0.4,0608_hp_dnn_0.4_bird_10_n01828970_8669.png,n01828970_8669.png,0.0,-0.51712346,0.25907993,-0.5488587
alexnet_w1_mlp_simclrhn_probe2,1,609,NaN,clock,truck,1.5,0609_hp_dnn_1.5_truck_10_n04467665_58762.png,n04467665_58762.png,0.0,-1.2406888,0.24645962,-1.0515727
alexnet_w1_mlp_simclrhn_probe2,1,610,NaN,car,car,3,0610_hp_dnn_3_car_10_n03100240_11417.png,n03100240_11417.png,1.0,3.2612073,1.4203033,1.3017157
alexnet_w1_mlp_simclrhn_probe2,1,611,NaN,bicycle,bicycle,inf,0611_hp_dnn_inf_bicycle_10_n03792782_16179.png,n03792782_16179.png,1.0,4.369671,-1.2282965,3.9583607
alexnet_w1_mlp_simclrhn_probe2,1,612,NaN,clock,car,1,0612_hp_dnn_1_car_10_n04285008_8444.png,n04285008_8444.png,0.0,-0.06043294,0.60052,-0.4673643
alexnet_w1_mlp_simclrhn_probe2,1,613,NaN,chair,chair,inf,0613_hp_dnn_inf_chair_10_n02791124_3240.png,n02791124_3240.png,1.0,0.6692572,-0.76716757,1.0157057
alexnet_w1_mlp_simclrhn_probe2,1,614,NaN,clock,bicycle,0.7,0614_hp_dnn_0.7_bicycle_10_n02835271_1035.png,n02835271_1035.png,0.0,-0.7287258,-0.00911953,-0.5088385
alexnet_w1_mlp_simclrhn_probe2,1,615,NaN,clock,bicycle,0.55,0615_hp_dnn_0.55_bicycle_10_n02835271_6167.png,n02835271_6167.png,0.0,-0.021936886,0.19195318,-0.15124312
alexnet_w1_mlp_simclrhn_probe2,1,616,NaN,keyboard,bottle,3,0616_hp_dnn_3_bottle_10_n02823428_6830.png,n02823428_6830.png,0.0,0.4636456,2.8021674,-1.6535846
alexnet_w1_mlp_simclrhn_probe2,1,617,NaN,knife,knife,0.45,0617_hp_dnn_0.45_knife_10_n03041632_17349.png,n03041632_17349.png,1.0,0.35577196,0.1341601,0.15670325
alexnet_w1_mlp_simclrhn_probe2,1,618,NaN,airplane,airplane,inf,0618_hp_dnn_inf_airplane_10_n02690373_2024.png,n02690373_2024.png,1.0,5.9609303,2.4620664,2.4740705
alexnet_w1_mlp_simclrhn_probe2,1,619,NaN,clock,bottle,1,0619_hp_dnn_1_bottle_10_n02823428_8034.png,n02823428_8034.png,0.0,-0.87145454,0.167376,-0.7345641
alexnet_w1_mlp_simclrhn_probe2,1,620,NaN,clock,chair,1,0620_hp_dnn_1_chair_10_n02791124_6786.png,n02791124_6786.png,0.0,-0.061012626,-0.04988427,-0.007868935
alexnet_w1_mlp_simclrhn_probe2,1,621,NaN,knife,chair,0.45,0621_hp_dnn_0.45_chair_10_n03376595_10689.png,n03376595_10689.png,0.0,0.08231348,0.32313412,-0.17028591
alexnet_w1_mlp_simclrhn_probe2,1,622,NaN,clock,knife,0.4,0622_hp_dnn_0.4_knife_10_n03041632_22734.png,n03041632_22734.png,0.0,-0.2299922,0.27880117,-0.35977125
alexnet_w1_mlp_simclrhn_probe2,1,623,NaN,knife,oven,0.4,0623_hp_dnn_0.4_oven_10_n04111531_10521.png,n04111531_10521.png,0.0,-0.50349486,0.13249221,-0.44971076
alexnet_w1_mlp_simclrhn_probe2,1,624,NaN,bird,bird,inf,0624_hp_dnn_inf_bird_10_n02007558_37147.png,n02007558_37147.png,1.0,-0.3623561,-1.7731107,0.99755424
alexnet_w1_mlp_simclrhn_probe2,1,625,NaN,chair,oven,3,0625_hp_dnn_3_oven_10_n04111531_14753.png,n04111531_14753.png,0.0,-0.47199187,0.50441647,-0.690425
alexnet_w1_mlp_simclrhn_probe2,1,626,NaN,clock,bottle,0.7,0626_hp_dnn_0.7_bottle_10_n03983396_4990.png,n03983396_4990.png,0.0,-0.96272117,-0.11630148,-0.59850913
alexnet_w1_mlp_simclrhn_probe2,1,627,NaN,clock,cat,0.45,0627_hp_dnn_0.45_cat_10_n02125311_25104.png,n02125311_25104.png,0.0,-0.47596848,0.06084703,-0.3795859
alexnet_w1_mlp_simclrhn_probe2,1,628,NaN,clock,truck,0.55,0628_hp_dnn_0.55_truck_10_n03417042_5600.png,n03417042_5600.png,0.0,0.10932772,0.28134772,-0.12163651
