subj,session,trial,rt,object_response,category,condition,imagename,filename,is_correct,targ_act,max_nontarg_act,decision_margin
alexnet_w1_mlp_simclrhn_probe3,1,1,NaN,knife,boat,0.7,0001_hp_dnn_0.7_boat_10_n03662601_12531.png,n03662601_12531.png,0.0,0.19741419,0.48748037,-0.20510776
alexnet_w1_mlp_simclrhn_probe3,1,2,NaN,bottle,chair,0.7,0002_hp_dnn_0.7_chair_10_n04429376_22819.png,n04429376_22819.png,0.0,0.31027588,0.35700297,-0.033041045
alexnet_w1_mlp_simclrhn_probe3,1,3,NaN,clock,elephant,0.45,0003_hp_dnn_0.45_elephant_10_n02504458_582.png,n02504458_582.png,0.0,-0.1200888,0.41774192,-0.38030374
alexnet_w1_mlp_simclrhn_probe3,1,4,NaN,clock,bicycle,0.7,0004_hp_dnn_0.7_bicycle_10_n03792782_41173.png,n03792782_41173.png,0.0,-0.09741441,0.39954567,-0.35140383
alexnet_w1_mlp_simclrhn_probe3,1,5,NaN,clock,cat,1.5,0005_hp_dnn_1.5_cat_10_n02123597_7071.png,n02123597_7071.png,0.0,-0.099203825,0.6138832,-0.50422865
alexnet_w1_mlp_simclrhn_probe3,1,6,NaN,knife,cat,0.4,0006_hp_dnn_0.4_cat_10_n02123394_2386.png,n02123394_2386.png,0.0,-0.040281456,0.367488,-0.28833655
alexnet_w1_mlp_simclrhn_probe3,1,7,NaN,oven,oven,inf,0007_hp_dnn_inf_oven_10_n04111531_2201.png,n04111531_2201.png,1.0,3.8627796,2.2865434,1.1145674
alexnet_w1_mlp_simclrhn_probe3,1,8,NaN,knife,cat,0.45,0008_hp_dnn_0.45_cat_10_n02125311_43276.png,n02125311_43276.png,0.0,-0.036897767,0.47164404,-0.3595934
alexnet_w1_mlp_simclrhn_probe3,1,9,NaN,knife,dog,0.45,0009_hp_dnn_0.45_dog_10_n02111500_2439.png,n02111500_2439.png,0.0,-0.13670029,0.40497363,-0.3830213
alexnet_w1_mlp_simclrhn_probe3,1,10,NaN,knife,bicycle,0.4,0010_hp_dnn_0.4_bicycle_10_n02835271_12599.png,n02835271_12599.png,0.0,-0.115668796,0.45695698,-0.40490755
alexnet_w1_mlp_simclrhn_probe3,1,11,NaN,knife,dog,0.45,0011_hp_dnn_0.45_dog_10_n02096585_391.png,n02096585_391.png,0.0,-0.14429398,0.44837165,-0.41907787
alexnet_w1_mlp_simclrhn_probe3,1,12,NaN,clock,car,0.7,0012_hp_dnn_0.7_car_10_n04285008_12138.png,n04285008_12138.png,0.0,0.0026810865,0.901761,-0.6357455
alexnet_w1_mlp_simclrhn_probe3,1,13,NaN,clock,car,0.7,0013_hp_dnn_0.7_car_10_n02814533_44083.png,n02814533_44083.png,0.0,-0.18694341,0.70072794,-0.62767845
alexnet_w1_mlp_simclrhn_probe3,1,14,NaN,oven,oven,inf,0014_hp_dnn_inf_oven_10_n04111531_2447.png,n04111531_2447.png,1.0,3.6273327,1.7047254,1.3594887
alexnet_w1_mlp_simclrhn_probe3,1,15,NaN,knife,chair,0.55,0015_hp_dnn_0.55_chair_10_n03376595_9524.png,n03376595_9524.png,0.0,0.1397194,0.49965695,-0.25451428
alexnet_w1_mlp_simclrhn_probe3,1,16,NaN,clock,elephant,0.55,0016_hp_dnn_0.55_elephant_10_n02504458_3092.png,n02504458_3092.png,0.0,-0.17012557,0.53196716,-0.49645457
alexnet_w1_mlp_simclrhn_probe3,1,17,NaN,knife,truck,0.4,0017_hp_dnn_0.4_truck_10_n04467665_42126.png,n04467665_42126.png,0.0,-0.23484911,0.5900777,-0.5833113
alexnet_w1_mlp_simclrhn_probe3,1,18,NaN,elephant,elephant,inf,0018_hp_dnn_inf_elephant_10_n02504458_12303.png,n02504458_12303.png,1.0,9.362168,5.3653502,2.8261771
alexnet_w1_mlp_simclrhn_probe3,1,19,NaN,clock,clock,0.4,0019_hp_dnn_0.4_clock_10_n04548280_7243.png,n04548280_7243.png,1.0,1.2794465,0.3029399,0.6904944
alexnet_w1_mlp_simclrhn_probe3,1,20,NaN,knife,airplane,0.4,0020_hp_dnn_0.4_airplane_10_n02690373_6978.png,n02690373_6978.png,0.0,0.2759772,0.7426963,-0.33002025
alexnet_w1_mlp_simclrhn_probe3,1,21,NaN,boat,boat,3,0021_hp_dnn_3_boat_10_n04612504_4773.png,n04612504_4773.png,1.0,2.1746454,1.6699275,0.3568895
alexnet_w1_mlp_simclrhn_probe3,1,22,NaN,oven,bottle,inf,0022_hp_dnn_inf_bottle_10_n04560804_5979.png,n04560804_5979.png,0.0,-0.30787626,1.0608181,-0.967813
alexnet_w1_mlp_simclrhn_probe3,1,23,NaN,airplane,airplane,3,0023_hp_dnn_3_airplane_10_n02690373_21922.png,n02690373_21922.png,1.0,1.8856795,1.4737844,0.29125378
alexnet_w1_mlp_simclrhn_probe3,1,24,NaN,knife,bird,0.4,0024_hp_dnn_0.4_bird_10_n01820546_6431.png,n01820546_6431.png,0.0,-0.08949596,0.34685847,-0.3085492
alexnet_w1_mlp_simclrhn_probe3,1,25,NaN,bird,bird,inf,0025_hp_dnn_inf_bird_10_n01795545_9555.png,n01795545_9555.png,1.0,0.73416895,0.61560357,0.08383839
alexnet_w1_mlp_simclrhn_probe3,1,26,NaN,bicycle,truck,3,0026_hp_dnn_3_truck_10_n04467665_45796.png,n04467665_45796.png,0.0,1.0709801,3.9572606,-2.0409086
alexnet_w1_mlp_simclrhn_probe3,1,27,NaN,bottle,oven,1,0027_hp_dnn_1_oven_10_n04111531_5906.png,n04111531_5906.png,0.0,-0.3244767,0.9051861,-0.8695029
alexnet_w1_mlp_simclrhn_probe3,1,28,NaN,knife,bicycle,0.45,0028_hp_dnn_0.45_bicycle_10_n03792782_6133.png,n03792782_6133.png,0.0,-0.1669622,0.7566461,-0.6530897
alexnet_w1_mlp_simclrhn_probe3,1,29,NaN,keyboard,keyboard,1,0029_hp_dnn_1_keyboard_10_n04505470_4741.png,n04505470_4741.png,1.0,1.7199209,0.80628496,0.6460382
alexnet_w1_mlp_simclrhn_probe3,1,30,NaN,car,car,1.5,0030_hp_dnn_1.5_car_10_n02814533_5085.png,n02814533_5085.png,1.0,3.2189887,1.3797879,1.3005114
alexnet_w1_mlp_simclrhn_probe3,1,31,NaN,knife,chair,0.4,0031_hp_dnn_0.4_chair_10_n04429376_10628.png,n04429376_10628.png,0.0,0.047594048,0.46215102,-0.29313606
alexnet_w1_mlp_simclrhn_probe3,1,32,NaN,clock,clock,0.55,0032_hp_dnn_0.55_clock_10_n02708093_5311.png,n02708093_5311.png,1.0,0.6917314,0.38654545,0.21579905
alexnet_w1_mlp_simclrhn_probe3,1,33,NaN,knife,chair,0.55,0033_hp_dnn_0.55_chair_10_n03376595_10460.png,n03376595_10460.png,0.0,0.49800196,0.696408,-0.14029424
alexnet_w1_mlp_simclrhn_probe3,1,34,NaN,bicycle,bear,3,0034_hp_dnn_3_bear_10_n02133161_1118.png,n02133161_1118.png,0.0,-0.40332568,0.74906063,-0.81486017
alexnet_w1_mlp_simclrhn_probe3,1,35,NaN,knife,knife,3,0035_hp_dnn_3_knife_10_n03041632_11603.png,n03041632_11603.png,1.0,0.88623184,0.80484223,0.05755114
alexnet_w1_mlp_simclrhn_probe3,1,36,NaN,knife,dog,0.4,0036_hp_dnn_0.4_dog_10_n02108422_7493.png,n02108422_7493.png,0.0,-0.14030422,0.4159401,-0.39332414
alexnet_w1_mlp_simclrhn_probe3,1,37,NaN,bicycle,keyboard,3,0037_hp_dnn_3_keyboard_10_n04505470_550.png,n04505470_550.png,0.0,0.13588654,0.4689644,-0.23552161
alexnet_w1_mlp_simclrhn_probe3,1,38,NaN,clock,dog,1.5,0038_hp_dnn_1.5_dog_10_n02097047_1003.png,n02097047_1003.png,0.0,-0.25227588,0.3567551,-0.43064994
alexnet_w1_mlp_simclrhn_probe3,1,39,NaN,bird,bird,1.5,0039_hp_dnn_1.5_bird_10_n01616318_9819.png,n01616318_9819.png,1.0,0.18077067,0.123306215,0.040633503
alexnet_w1_mlp_simclrhn_probe3,1,40,NaN,knife,cat,0.55,0040_hp_dnn_0.55_cat_10_n02123597_1016.png,n02123597_1016.png,0.0,0.10032455,0.334229,-0.16539542
alexnet_w1_mlp_simclrhn_probe3,1,41,NaN,clock,bear,1,0041_hp_dnn_1_bear_10_n02134418_971.png,n02134418_971.png,0.0,-0.14917421,0.30757034,-0.32296717
alexnet_w1_mlp_simclrhn_probe3,1,42,NaN,knife,bear,0.7,0042_hp_dnn_0.7_bear_10_n02132136_10944.png,n02132136_10944.png,0.0,-0.16776869,0.25698808,-0.3003484
alexnet_w1_mlp_simclrhn_probe3,1,43,NaN,knife,elephant,1,0043_hp_dnn_1_elephant_10_n02504458_4439.png,n02504458_4439.png,0.0,-0.10835803,0.37859264,-0.34432614
alexnet_w1_mlp_simclrhn_probe3,1,44,NaN,keyboard,keyboard,0.4,0044_hp_dnn_0.4_keyboard_10_n03085013_2362.png,n03085013_2362.png,1.0,0.5954265,0.44878805,0.103689045
alexnet_w1_mlp_simclrhn_probe3,1,45,NaN,clock,dog,1.5,0045_hp_dnn_1.5_dog_10_n02097474_9488.png,n02097474_9488.png,0.0,-0.12675233,0.27056384,-0.28094494
alexnet_w1_mlp_simclrhn_probe3,1,46,NaN,clock,clock,inf,0046_hp_dnn_inf_clock_10_n04548280_3308.png,n04548280_3308.png,1.0,8.711884,1.1040969,5.3795176
alexnet_w1_mlp_simclrhn_probe3,1,47,NaN,clock,bear,1.5,0047_hp_dnn_1.5_bear_10_n02133161_334.png,n02133161_334.png,0.0,-0.1569474,0.53091884,-0.48639488
alexnet_w1_mlp_simclrhn_probe3,1,48,NaN,clock,knife,0.45,0048_hp_dnn_0.45_knife_10_n03041632_6708.png,n03041632_6708.png,0.0,0.37550482,0.5021504,-0.08955196
alexnet_w1_mlp_simclrhn_probe3,1,49,NaN,clock,car,0.55,0049_hp_dnn_0.55_car_10_n02814533_81092.png,n02814533_81092.png,0.0,-0.21313763,0.60748696,-0.5802692
alexnet_w1_mlp_simclrhn_probe3,1,50,NaN,clock,bottle,0.45,0050_hp_dnn_0.45_bottle_10_n03937543_11897.png,n03937543_11897.png,0.0,0.74291813,0.79204243,-0.034736127
alexnet_w1_mlp_simclrhn_probe3,1,51,NaN,clock,airplane,3,0051_hp_dnn_3_airplane_10_n02690373_4429.png,n02690373_4429.png,0.0,1.3809953,1.9233042,-0.38347033
alexnet_w1_mlp_simclrhn_probe3,1,52,NaN,clock,knife,0.4,0052_hp_dnn_0.4_knife_10_n03041632_22964.png,n03041632_22964.png,0.0,0.3553557,0.5398214,-0.13043693
alexnet_w1_mlp_simclrhn_probe3,1,53,NaN,knife,knife,1.5,0053_hp_dnn_1.5_knife_10_n03041632_33075.png,n03041632_33075.png,1.0,0.5825475,0.34887278,0.16523297
alexnet_w1_mlp_simclrhn_probe3,1,54,NaN,knife,bird,0.7,0054_hp_dnn_0.7_bird_10_n02006656_1412.png,n02006656_1412.png,0.0,-0.04405955,0.36748046,-0.29100272
alexnet_w1_mlp_simclrhn_probe3,1,55,NaN,clock,clock,1,0055_hp_dnn_1_clock_10_n02708093_3173.png,n02708093_3173.png,1.0,6.0582848,0.45185333,3.9643457
alexnet_w1_mlp_simclrhn_probe3,1,56,NaN,knife,keyboard,0.45,0056_hp_dnn_0.45_keyboard_10_n03085013_22016.png,n03085013_22016.png,0.0,0.09209975,0.555882,-0.32794356
alexnet_w1_mlp_simclrhn_probe3,1,57,NaN,knife,elephant,0.55,0057_hp_dnn_0.55_elephant_10_n02504458_11214.png,n02504458_11214.png,0.0,-0.19555804,0.5364888,-0.5176353
alexnet_w1_mlp_simclrhn_probe3,1,58,NaN,knife,chair,0.7,0058_hp_dnn_0.7_chair_10_n04099969_13775.png,n04099969_13775.png,0.0,0.46572658,0.76975244,-0.21497875
alexnet_w1_mlp_simclrhn_probe3,1,59,NaN,clock,bicycle,0.4,0059_hp_dnn_0.4_bicycle_10_n02835271_8098.png,n02835271_8098.png,0.0,-0.034039583,0.5361222,-0.40316525
alexnet_w1_mlp_simclrhn_probe3,1,60,NaN,clock,clock,0.4,0060_hp_dnn_0.4_clock_10_n04548280_1126.png,n04548280_1126.png,1.0,0.8711017,0.2599331,0.43216145
alexnet_w1_mlp_simclrhn_probe3,1,61,NaN,clock,bicycle,0.45,0061_hp_dnn_0.45_bicycle_10_n02835271_2050.png,n02835271_2050.png,0.0,0.057163402,0.58326393,-0.37200925
alexnet_w1_mlp_simclrhn_probe3,1,62,NaN,oven,oven,1,0062_hp_dnn_1_oven_10_n04111531_891.png,n04111531_891.png,1.0,1.6796081,0.9047253,0.5479249
alexnet_w1_mlp_simclrhn_probe3,1,63,NaN,clock,bottle,0.7,0063_hp_dnn_0.7_bottle_10_n02823428_6201.png,n02823428_6201.png,0.0,0.46678084,0.7258887,-0.18321694
alexnet_w1_mlp_simclrhn_probe3,1,64,NaN,clock,bicycle,0.7,0064_hp_dnn_0.7_bicycle_10_n02835271_20175.png,n02835271_20175.png,0.0,0.89283633,1.2526993,-0.25446153
alexnet_w1_mlp_simclrhn_probe3,1,65,NaN,bicycle,cat,3,0065_hp_dnn_3_cat_10_n02123597_13175.png,n02123597_13175.png,0.0,0.24812178,0.40324166,-0.10968632
alexnet_w1_mlp_simclrhn_probe3,1,66,NaN,knife,dog,0.4,0066_hp_dnn_0.4_dog_10_n02085936_4391.png,n02085936_4391.png,0.0,-0.12524252,0.44649214,-0.40427747
alexnet_w1_mlp_simclrhn_probe3,1,67,NaN,airplane,airplane,1.5,0067_hp_dnn_1.5_airplane_10_n02690373_8846.png,n02690373_8846.png,1.0,1.5776124,0.8065912,0.5451943
alexnet_w1_mlp_simclrhn_probe3,1,68,NaN,knife,cat,1.5,0068_hp_dnn_1.5_cat_10_n02123597_10301.png,n02123597_10301.png,0.0,0.013543378,0.60658735,-0.41934544
alexnet_w1_mlp_simclrhn_probe3,1,69,NaN,knife,elephant,0.7,0069_hp_dnn_0.7_elephant_10_n02504458_6135.png,n02504458_6135.png,0.0,0.10841334,0.21167165,-0.073014654
alexnet_w1_mlp_simclrhn_probe3,1,70,NaN,knife,keyboard,0.45,0070_hp_dnn_0.45_keyboard_10_n03085013_22585.png,n03085013_22585.png,0.0,-0.21206304,0.5375456,-0.5300534
alexnet_w1_mlp_simclrhn_probe3,1,71,NaN,clock,bird,1,0071_hp_dnn_1_bird_10_n02017213_1150.png,n02017213_1150.png,0.0,-0.03365907,0.38436761,-0.2955895
alexnet_w1_mlp_simclrhn_probe3,1,72,NaN,chair,bottle,3,0072_hp_dnn_3_bottle_10_n04560804_30885.png,n04560804_30885.png,0.0,1.3711716,2.6193256,-0.8825782
alexnet_w1_mlp_simclrhn_probe3,1,73,NaN,bicycle,bicycle,inf,0073_hp_dnn_inf_bicycle_10_n02835271_9191.png,n02835271_9191.png,1.0,16.239565,2.0487397,10.03443
alexnet_w1_mlp_simclrhn_probe3,1,74,NaN,chair,truck,inf,0074_hp_dnn_inf_truck_10_n03796401_7699.png,n03796401_7699.png,0.0,1.689178,2.7944798,-0.78156644
alexnet_w1_mlp_simclrhn_probe3,1,75,NaN,knife,knife,1.5,0075_hp_dnn_1.5_knife_10_n03041632_50332.png,n03041632_50332.png,1.0,1.0542343,0.39544317,0.46583563
alexnet_w1_mlp_simclrhn_probe3,1,76,NaN,knife,knife,0.55,0076_hp_dnn_0.55_knife_10_n03041632_36247.png,n03041632_36247.png,1.0,0.44438833,0.31482878,0.091612436
alexnet_w1_mlp_simclrhn_probe3,1,77,NaN,clock,knife,1.5,0077_hp_dnn_1.5_knife_10_n03041632_23667.png,n03041632_23667.png,0.0,0.14218388,1.1066111,-0.6819531
alexnet_w1_mlp_simclrhn_probe3,1,78,NaN,bird,dog,3,0078_hp_dnn_3_dog_10_n02102973_7028.png,n02102973_7028.png,0.0,0.24633735,2.6112146,-1.6722207
alexnet_w1_mlp_simclrhn_probe3,1,79,NaN,clock,oven,0.55,0079_hp_dnn_0.55_oven_10_n04111531_9867.png,n04111531_9867.png,0.0,-0.017927676,0.5547061,-0.40491322
alexnet_w1_mlp_simclrhn_probe3,1,80,NaN,clock,car,0.55,0080_hp_dnn_0.55_car_10_n02814533_8121.png,n02814533_8121.png,0.0,0.49921438,0.65565234,-0.110618345
alexnet_w1_mlp_simclrhn_probe3,1,81,NaN,knife,boat,0.55,0081_hp_dnn_0.55_boat_10_n03662601_5210.png,n03662601_5210.png,0.0,0.06812892,0.49854237,-0.3043483
alexnet_w1_mlp_simclrhn_probe3,1,82,NaN,chair,car,1.5,0082_hp_dnn_1.5_car_10_n03100240_6192.png,n03100240_6192.png,0.0,0.33288577,0.46943998,-0.09655841
alexnet_w1_mlp_simclrhn_probe3,1,83,NaN,clock,oven,0.45,0083_hp_dnn_0.45_oven_10_n04111531_9314.png,n04111531_9314.png,0.0,0.0010836199,0.5022936,-0.35440898
alexnet_w1_mlp_simclrhn_probe3,1,84,NaN,knife,cat,0.4,0084_hp_dnn_0.4_cat_10_n02123045_5189.png,n02123045_5189.png,0.0,-0.012678702,0.36194113,-0.26489624
alexnet_w1_mlp_simclrhn_probe3,1,85,NaN,clock,truck,0.7,0085_hp_dnn_0.7_truck_10_n04467665_30189.png,n04467665_30189.png,0.0,-0.031879917,1.8208321,-1.3100653
alexnet_w1_mlp_simclrhn_probe3,1,86,NaN,clock,airplane,1.5,0086_hp_dnn_1.5_airplane_10_n02690373_3377.png,n02690373_3377.png,0.0,0.6725886,1.3734741,-0.4956009
alexnet_w1_mlp_simclrhn_probe3,1,87,NaN,knife,oven,0.4,0087_hp_dnn_0.4_oven_10_n04111531_1750.png,n04111531_1750.png,0.0,0.07338856,0.53084326,-0.3234693
alexnet_w1_mlp_simclrhn_probe3,1,88,NaN,cat,dog,inf,0088_hp_dnn_inf_dog_10_n02097047_2877.png,n02097047_2877.png,0.0,2.345022,3.6859665,-0.948191
alexnet_w1_mlp_simclrhn_probe3,1,89,NaN,cat,cat,inf,0089_hp_dnn_inf_cat_10_n02124075_15171.png,n02124075_15171.png,1.0,7.3476663,1.5243194,4.117728
alexnet_w1_mlp_simclrhn_probe3,1,90,NaN,knife,car,0.4,0090_hp_dnn_0.4_car_10_n03100240_23060.png,n03100240_23060.png,0.0,-0.33263248,0.6786889,-0.71511215
alexnet_w1_mlp_simclrhn_probe3,1,91,NaN,knife,knife,inf,0091_hp_dnn_inf_knife_10_n03041632_20595.png,n03041632_20595.png,1.0,2.264919,1.8536639,0.2908013
alexnet_w1_mlp_simclrhn_probe3,1,92,NaN,clock,knife,0.45,0092_hp_dnn_0.45_knife_10_n03041632_2184.png,n03041632_2184.png,0.0,0.33405328,0.5828349,-0.17591518
alexnet_w1_mlp_simclrhn_probe3,1,93,NaN,knife,knife,0.4,0093_hp_dnn_0.4_knife_10_n03041632_42162.png,n03041632_42162.png,1.0,0.73408943,0.26244563,0.33350253
alexnet_w1_mlp_simclrhn_probe3,1,94,NaN,oven,elephant,1,0094_hp_dnn_1_elephant_10_n02504458_3535.png,n02504458_3535.png,0.0,-0.18386036,0.68649316,-0.61543286
alexnet_w1_mlp_simclrhn_probe3,1,95,NaN,elephant,bird,inf,0095_hp_dnn_inf_bird_10_n02056570_11311.png,n02056570_11311.png,0.0,0.82636356,1.5556307,-0.51566976
alexnet_w1_mlp_simclrhn_probe3,1,96,NaN,knife,chair,0.4,0096_hp_dnn_0.4_chair_10_n03376595_4121.png,n03376595_4121.png,0.0,0.1940327,0.51971954,-0.23029537
alexnet_w1_mlp_simclrhn_probe3,1,97,NaN,chair,dog,1,0097_hp_dnn_1_dog_10_n02086240_3572.png,n02086240_3572.png,0.0,-0.21616814,0.35271502,-0.40226117
alexnet_w1_mlp_simclrhn_probe3,1,98,NaN,elephant,elephant,inf,0098_hp_dnn_inf_elephant_10_n02504013_4523.png,n02504013_4523.png,1.0,14.88176,4.4148936,7.4011917
alexnet_w1_mlp_simclrhn_probe3,1,99,NaN,oven,chair,inf,0099_hp_dnn_inf_chair_10_n04429376_7902.png,n04429376_7902.png,0.0,1.4986048,3.0316024,-1.0839931
alexnet_w1_mlp_simclrhn_probe3,1,100,NaN,clock,bird,0.45,0100_hp_dnn_0.45_bird_10_n01530575_14402.png,n01530575_14402.png,0.0,-0.06934718,0.46967497,-0.38114622
alexnet_w1_mlp_simclrhn_probe3,1,101,NaN,clock,bottle,0.55,0101_hp_dnn_0.55_bottle_10_n02823428_11140.png,n02823428_11140.png,0.0,0.34278485,1.1061249,-0.5397629
alexnet_w1_mlp_simclrhn_probe3,1,102,NaN,clock,airplane,0.55,0102_hp_dnn_0.55_airplane_10_n02690373_7685.png,n02690373_7685.png,0.0,0.10885664,0.641898,-0.37691715
alexnet_w1_mlp_simclrhn_probe3,1,103,NaN,knife,boat,0.45,0103_hp_dnn_0.45_boat_10_n03344393_4827.png,n03344393_4827.png,0.0,0.18364938,0.46582863,-0.19953085
alexnet_w1_mlp_simclrhn_probe3,1,104,NaN,knife,dog,0.7,0104_hp_dnn_0.7_dog_10_n02088364_8674.png,n02088364_8674.png,0.0,-0.23451516,0.496787,-0.51710874
alexnet_w1_mlp_simclrhn_probe3,1,105,NaN,knife,knife,0.45,0105_hp_dnn_0.45_knife_10_n03041632_32004.png,n03041632_32004.png,1.0,0.57405984,0.3141462,0.1837867
alexnet_w1_mlp_simclrhn_probe3,1,106,NaN,keyboard,keyboard,3,0106_hp_dnn_3_keyboard_10_n03085013_22949.png,n03085013_22949.png,1.0,3.779931,0.6211668,2.2335837
alexnet_w1_mlp_simclrhn_probe3,1,107,NaN,knife,knife,0.7,0107_hp_dnn_0.7_knife_10_n03041632_4044.png,n03041632_4044.png,1.0,0.6979078,0.3799248,0.22484794
alexnet_w1_mlp_simclrhn_probe3,1,108,NaN,airplane,airplane,1.5,0108_hp_dnn_1.5_airplane_10_n02690373_6455.png,n02690373_6455.png,1.0,2.9351494,1.1660461,1.250945
alexnet_w1_mlp_simclrhn_probe3,1,109,NaN,airplane,airplane,0.55,0109_hp_dnn_0.55_airplane_10_n02690373_19646.png,n02690373_19646.png,1.0,0.6784364,0.493111,0.13104483
alexnet_w1_mlp_simclrhn_probe3,1,110,NaN,boat,boat,inf,0110_hp_dnn_inf_boat_10_n04612504_1692.png,n04612504_1692.png,1.0,7.327844,3.285269,2.8585322
alexnet_w1_mlp_simclrhn_probe3,1,111,NaN,knife,cat,0.55,0111_hp_dnn_0.55_cat_10_n02124075_853.png,n02124075_853.png,0.0,0.012632306,0.46199575,-0.31774795
alexnet_w1_mlp_simclrhn_probe3,1,112,NaN,boat,boat,1,0112_hp_dnn_1_boat_10_n04273569_6071.png,n04273569_6071.png,1.0,0.5990344,0.57173645,0.019302582
alexnet_w1_mlp_simclrhn_probe3,1,113,NaN,knife,bird,1.5,0113_hp_dnn_1.5_bird_10_n01616318_1214.png,n01616318_1214.png,0.0,-0.08876696,0.6148601,-0.49753952
alexnet_w1_mlp_simclrhn_probe3,1,114,NaN,airplane,car,1.5,0114_hp_dnn_1.5_car_10_n02814533_14627.png,n02814533_14627.png,0.0,1.9904763,2.134623,-0.10192718
alexnet_w1_mlp_simclrhn_probe3,1,115,NaN,knife,keyboard,0.7,0115_hp_dnn_0.7_keyboard_10_n03085013_1483.png,n03085013_1483.png,0.0,-0.060705997,0.39086494,-0.31930888
alexnet_w1_mlp_simclrhn_probe3,1,116,NaN,airplane,airplane,0.55,0116_hp_dnn_0.55_airplane_10_n02690373_7401.png,n02690373_7401.png,1.0,0.8636746,0.5822851,0.1989724
alexnet_w1_mlp_simclrhn_probe3,1,117,NaN,clock,keyboard,0.55,0117_hp_dnn_0.55_keyboard_10_n03085013_6963.png,n03085013_6963.png,0.0,-0.11303976,0.8673565,-0.6932449
alexnet_w1_mlp_simclrhn_probe3,1,118,NaN,bicycle,knife,3,0118_hp_dnn_3_knife_10_n03041632_1407.png,n03041632_1407.png,0.0,0.5431535,1.803808,-0.8914173
alexnet_w1_mlp_simclrhn_probe3,1,119,NaN,elephant,elephant,1.5,0119_hp_dnn_1.5_elephant_10_n02504458_5137.png,n02504458_5137.png,1.0,0.5067648,0.4343681,0.051192217
alexnet_w1_mlp_simclrhn_probe3,1,120,NaN,clock,clock,inf,0120_hp_dnn_inf_clock_10_n02708093_6635.png,n02708093_6635.png,1.0,6.816705,1.8388132,3.5199013
alexnet_w1_mlp_simclrhn_probe3,1,121,NaN,knife,oven,0.4,0121_hp_dnn_0.4_oven_10_n04111531_5927.png,n04111531_5927.png,0.0,-0.063951574,0.5092676,-0.40532717
alexnet_w1_mlp_simclrhn_probe3,1,122,NaN,clock,clock,inf,0122_hp_dnn_inf_clock_10_n02708093_2043.png,n02708093_2043.png,1.0,1.4143629,0.85401,0.39622936
alexnet_w1_mlp_simclrhn_probe3,1,123,NaN,knife,airplane,0.4,0123_hp_dnn_0.4_airplane_10_n02690373_7300.png,n02690373_7300.png,0.0,0.38481128,0.6388041,-0.17960003
alexnet_w1_mlp_simclrhn_probe3,1,124,NaN,clock,oven,0.55,0124_hp_dnn_0.55_oven_10_n04111531_190.png,n04111531_190.png,0.0,-0.05841278,0.41768542,-0.33665228
alexnet_w1_mlp_simclrhn_probe3,1,125,NaN,bird,dog,3,0125_hp_dnn_3_dog_10_n02091244_8497.png,n02091244_8497.png,0.0,-0.6015212,0.96868813,-1.1103057
alexnet_w1_mlp_simclrhn_probe3,1,126,NaN,knife,bicycle,0.7,0126_hp_dnn_0.7_bicycle_10_n03792782_15932.png,n03792782_15932.png,0.0,-0.15165095,0.3508243,-0.35530367
alexnet_w1_mlp_simclrhn_probe3,1,127,NaN,knife,bear,0.4,0127_hp_dnn_0.4_bear_10_n02133161_463.png,n02133161_463.png,0.0,-0.08827013,0.38934034,-0.33772162
alexnet_w1_mlp_simclrhn_probe3,1,128,NaN,clock,cat,0.7,0128_hp_dnn_0.7_cat_10_n02123045_11126.png,n02123045_11126.png,0.0,-0.050131474,0.6887741,-0.5224852
alexnet_w1_mlp_simclrhn_probe3,1,129,NaN,knife,clock,0.7,0129_hp_dnn_0.7_clock_10_n04548280_8646.png,n04548280_8646.png,0.0,0.40266308,0.8173075,-0.29319787
alexnet_w1_mlp_simclrhn_probe3,1,130,NaN,knife,bottle,0.55,0130_hp_dnn_0.55_bottle_10_n03983396_11597.png,n03983396_11597.png,0.0,0.13058998,0.42098272,-0.20533869
alexnet_w1_mlp_simclrhn_probe3,1,131,NaN,truck,truck,3,0131_hp_dnn_3_truck_10_n03417042_212.png,n03417042_212.png,1.0,2.2603586,1.340825,0.6502085
alexnet_w1_mlp_simclrhn_probe3,1,132,NaN,keyboard,keyboard,1,0132_hp_dnn_1_keyboard_10_n04505470_1724.png,n04505470_1724.png,1.0,1.2048851,0.54996234,0.46310034
alexnet_w1_mlp_simclrhn_probe3,1,133,NaN,chair,chair,1,0133_hp_dnn_1_chair_10_n04099969_14028.png,n04099969_14028.png,1.0,0.84847903,0.39654863,0.31956306
alexnet_w1_mlp_simclrhn_probe3,1,134,NaN,knife,cat,0.45,0134_hp_dnn_0.45_cat_10_n02124075_2138.png,n02124075_2138.png,0.0,-0.06714405,0.585064,-0.46118072
alexnet_w1_mlp_simclrhn_probe3,1,135,NaN,boat,boat,inf,0135_hp_dnn_inf_boat_10_n03662601_3145.png,n03662601_3145.png,1.0,6.479303,6.3259473,0.10843878
alexnet_w1_mlp_simclrhn_probe3,1,136,NaN,cat,cat,3,0136_hp_dnn_3_cat_10_n02123045_1120.png,n02123045_1120.png,1.0,0.34980354,0.2835551,0.04684473
alexnet_w1_mlp_simclrhn_probe3,1,137,NaN,boat,boat,inf,0137_hp_dnn_inf_boat_10_n04612504_31305.png,n04612504_31305.png,1.0,11.183668,3.3024898,5.572835
alexnet_w1_mlp_simclrhn_probe3,1,138,NaN,clock,chair,1,0138_hp_dnn_1_chair_10_n04099969_4275.png,n04099969_4275.png,0.0,0.5726557,0.90126485,-0.23236178
alexnet_w1_mlp_simclrhn_probe3,1,139,NaN,knife,keyboard,0.4,0139_hp_dnn_0.4_keyboard_10_n03085013_23005.png,n03085013_23005.png,0.0,-0.18240836,0.3726627,-0.3924945
alexnet_w1_mlp_simclrhn_probe3,1,140,NaN,airplane,airplane,1,0140_hp_dnn_1_airplane_10_n02690373_9618.png,n02690373_9618.png,1.0,0.98260677,0.49146304,0.34729108
alexnet_w1_mlp_simclrhn_probe3,1,141,NaN,knife,knife,0.55,0141_hp_dnn_0.55_knife_10_n03041632_17338.png,n03041632_17338.png,1.0,1.0013981,0.53439826,0.33021876
alexnet_w1_mlp_simclrhn_probe3,1,142,NaN,clock,clock,0.45,0142_hp_dnn_0.45_clock_10_n04548280_8225.png,n04548280_8225.png,1.0,0.45968008,0.39748132,0.043981165
alexnet_w1_mlp_simclrhn_probe3,1,143,NaN,car,car,inf,0143_hp_dnn_inf_car_10_n03100240_8907.png,n03100240_8907.png,1.0,7.644506,2.737647,3.4696734
alexnet_w1_mlp_simclrhn_probe3,1,144,NaN,chair,chair,1.5,0144_hp_dnn_1.5_chair_10_n03376595_6865.png,n03376595_6865.png,1.0,2.5592961,1.6158292,0.66713184
alexnet_w1_mlp_simclrhn_probe3,1,145,NaN,clock,bicycle,0.45,0145_hp_dnn_0.45_bicycle_10_n03792782_44296.png,n03792782_44296.png,0.0,-0.09243886,0.40937224,-0.35483402
alexnet_w1_mlp_simclrhn_probe3,1,146,NaN,oven,boat,1.5,0146_hp_dnn_1.5_boat_10_n04273569_1233.png,n04273569_1233.png,0.0,0.14762248,0.8597298,-0.5035359
alexnet_w1_mlp_simclrhn_probe3,1,147,NaN,clock,bird,1,0147_hp_dnn_1_bird_10_n01824575_12784.png,n01824575_12784.png,0.0,-0.005822621,0.268632,-0.19406873
alexnet_w1_mlp_simclrhn_probe3,1,148,NaN,airplane,boat,3,0148_hp_dnn_3_boat_10_n03344393_408.png,n03344393_408.png,0.0,2.3741648,2.452273,-0.055230748
alexnet_w1_mlp_simclrhn_probe3,1,149,NaN,airplane,airplane,1,0149_hp_dnn_1_airplane_10_n02690373_220.png,n02690373_220.png,1.0,1.6639597,0.871111,0.5606288
alexnet_w1_mlp_simclrhn_probe3,1,150,NaN,oven,chair,3,0150_hp_dnn_3_chair_10_n04429376_10546.png,n04429376_10546.png,0.0,1.6987019,1.7997435,-0.07144725
alexnet_w1_mlp_simclrhn_probe3,1,151,NaN,chair,oven,0.7,0151_hp_dnn_0.7_oven_10_n04111531_4749.png,n04111531_4749.png,0.0,0.47224125,0.5287103,-0.03992965
alexnet_w1_mlp_simclrhn_probe3,1,152,NaN,clock,truck,0.4,0152_hp_dnn_0.4_truck_10_n03417042_18124.png,n03417042_18124.png,0.0,-0.1720312,0.43526062,-0.42942017
alexnet_w1_mlp_simclrhn_probe3,1,153,NaN,clock,clock,3,0153_hp_dnn_3_clock_10_n03196217_7353.png,n03196217_7353.png,1.0,1.0993577,0.8440161,0.18055381
alexnet_w1_mlp_simclrhn_probe3,1,154,NaN,clock,dog,0.7,0154_hp_dnn_0.7_dog_10_n02098286_2699.png,n02098286_2699.png,0.0,-0.18289177,0.45364633,-0.4501004
alexnet_w1_mlp_simclrhn_probe3,1,155,NaN,knife,truck,0.4,0155_hp_dnn_0.4_truck_10_n03796401_3651.png,n03796401_3651.png,0.0,-0.20463622,0.52333224,-0.51475143
alexnet_w1_mlp_simclrhn_probe3,1,156,NaN,clock,bottle,0.4,0156_hp_dnn_0.4_bottle_10_n03983396_4165.png,n03983396_4165.png,0.0,0.14791058,0.398573,-0.17724513
alexnet_w1_mlp_simclrhn_probe3,1,157,NaN,clock,knife,1,0157_hp_dnn_1_knife_10_n03041632_25257.png,n03041632_25257.png,0.0,-0.03868895,0.7773692,-0.57704026
alexnet_w1_mlp_simclrhn_probe3,1,158,NaN,chair,chair,3,0158_hp_dnn_3_chair_10_n04099969_1229.png,n04099969_1229.png,1.0,3.0639787,1.4592695,1.1347008
alexnet_w1_mlp_simclrhn_probe3,1,159,NaN,bird,bird,inf,0159_hp_dnn_inf_bird_10_n01798484_518.png,n01798484_518.png,1.0,0.89823294,0.58486146,0.2215871
alexnet_w1_mlp_simclrhn_probe3,1,160,NaN,bird,bird,inf,0160_hp_dnn_inf_bird_10_n01797886_1953.png,n01797886_1953.png,1.0,3.3193905,0.3127819,2.1259935
alexnet_w1_mlp_simclrhn_probe3,1,161,NaN,bird,bird,3,0161_hp_dnn_3_bird_10_n01820546_228.png,n01820546_228.png,1.0,1.2162428,0.8473429,0.26085162
alexnet_w1_mlp_simclrhn_probe3,1,162,NaN,clock,bear,1.5,0162_hp_dnn_1.5_bear_10_n02134418_2666.png,n02134418_2666.png,0.0,-0.12701084,0.44117817,-0.40177032
alexnet_w1_mlp_simclrhn_probe3,1,163,NaN,boat,boat,1.5,0163_hp_dnn_1.5_boat_10_n03344393_7659.png,n03344393_7659.png,1.0,3.410394,1.7556257,1.1700978
alexnet_w1_mlp_simclrhn_probe3,1,164,NaN,chair,oven,1.5,0164_hp_dnn_1.5_oven_10_n04111531_1752.png,n04111531_1752.png,0.0,0.7819559,0.9518131,-0.12010718
alexnet_w1_mlp_simclrhn_probe3,1,165,NaN,elephant,dog,inf,0165_hp_dnn_inf_dog_10_n02091032_8873.png,n02091032_8873.png,0.0,-0.17059544,3.487144,-2.5864124
alexnet_w1_mlp_simclrhn_probe3,1,166,NaN,knife,oven,0.7,0166_hp_dnn_0.7_oven_10_n04111531_14559.png,n04111531_14559.png,0.0,0.07585916,0.7845932,-0.50115067
alexnet_w1_mlp_simclrhn_probe3,1,167,NaN,knife,cat,0.7,0167_hp_dnn_0.7_cat_10_n02123045_114.png,n02123045_114.png,0.0,-0.025737429,0.5491915,-0.4065361
alexnet_w1_mlp_simclrhn_probe3,1,168,NaN,cat,cat,3,0168_hp_dnn_3_cat_10_n02123597_13865.png,n02123597_13865.png,1.0,2.421583,0.34598398,1.4676701
alexnet_w1_mlp_simclrhn_probe3,1,169,NaN,knife,knife,0.55,0169_hp_dnn_0.55_knife_10_n03041632_13478.png,n03041632_13478.png,1.0,0.6557839,0.3340046,0.22753231
alexnet_w1_mlp_simclrhn_probe3,1,170,NaN,clock,elephant,0.55,0170_hp_dnn_0.55_elephant_10_n02504458_2618.png,n02504458_2618.png,0.0,-0.19392087,0.35849515,-0.39061713
alexnet_w1_mlp_simclrhn_probe3,1,171,NaN,clock,truck,1,0171_hp_dnn_1_truck_10_n04467665_56954.png,n04467665_56954.png,0.0,-0.156831,0.5958783,-0.5322458
alexnet_w1_mlp_simclrhn_probe3,1,172,NaN,clock,chair,1,0172_hp_dnn_1_chair_10_n04429376_1791.png,n04429376_1791.png,0.0,0.39990187,0.85558933,-0.3222197
alexnet_w1_mlp_simclrhn_probe3,1,173,NaN,bottle,bottle,3,0173_hp_dnn_3_bottle_10_n04560804_33214.png,n04560804_33214.png,1.0,1.9031802,1.2206119,0.4826487
alexnet_w1_mlp_simclrhn_probe3,1,174,NaN,airplane,knife,inf,0174_hp_dnn_inf_knife_10_n03041632_48816.png,n03041632_48816.png,0.0,1.8321583,2.2598107,-0.30239588
alexnet_w1_mlp_simclrhn_probe3,1,175,NaN,cat,cat,3,0175_hp_dnn_3_cat_10_n02123394_2274.png,n02123394_2274.png,1.0,0.51049453,0.2599031,0.1771949
alexnet_w1_mlp_simclrhn_probe3,1,176,NaN,truck,truck,1.5,0176_hp_dnn_1.5_truck_10_n03796401_1326.png,n03796401_1326.png,1.0,3.2429292,1.1260757,1.4968414
alexnet_w1_mlp_simclrhn_probe3,1,177,NaN,knife,knife,0.55,0177_hp_dnn_0.55_knife_10_n03041632_11887.png,n03041632_11887.png,1.0,0.6224084,0.38326594,0.16909926
alexnet_w1_mlp_simclrhn_probe3,1,178,NaN,knife,dog,0.7,0178_hp_dnn_0.7_dog_10_n02113978_8008.png,n02113978_8008.png,0.0,-0.15823206,0.663083,-0.58075744
alexnet_w1_mlp_simclrhn_probe3,1,179,NaN,knife,cat,0.4,0179_hp_dnn_0.4_cat_10_n02123045_4812.png,n02123045_4812.png,0.0,-0.015320614,0.46261424,-0.33795097
alexnet_w1_mlp_simclrhn_probe3,1,180,NaN,airplane,bird,inf,0180_hp_dnn_inf_bird_10_n01833805_3578.png,n01833805_3578.png,0.0,0.37971738,0.62040305,-0.17019047
alexnet_w1_mlp_simclrhn_probe3,1,181,NaN,clock,truck,1,0181_hp_dnn_1_truck_10_n03417042_3398.png,n03417042_3398.png,0.0,0.6614976,0.6716376,-0.007170064
alexnet_w1_mlp_simclrhn_probe3,1,182,NaN,clock,bird,0.7,0182_hp_dnn_0.7_bird_10_n02007558_4566.png,n02007558_4566.png,0.0,-0.14050426,0.33914104,-0.33916047
alexnet_w1_mlp_simclrhn_probe3,1,183,NaN,knife,knife,0.45,0183_hp_dnn_0.45_knife_10_n03041632_3516.png,n03041632_3516.png,1.0,0.62884396,0.47832522,0.106432825
alexnet_w1_mlp_simclrhn_probe3,1,184,NaN,clock,cat,1.5,0184_hp_dnn_1.5_cat_10_n02124075_14965.png,n02124075_14965.png,0.0,0.12484049,0.45799875,-0.23557846
alexnet_w1_mlp_simclrhn_probe3,1,185,NaN,knife,bird,0.4,0185_hp_dnn_0.4_bird_10_n01843065_2176.png,n01843065_2176.png,0.0,-0.05308285,0.4408397,-0.349256
alexnet_w1_mlp_simclrhn_probe3,1,186,NaN,bicycle,knife,3,0186_hp_dnn_3_knife_10_n03041632_21034.png,n03041632_21034.png,0.0,0.64229536,0.9582511,-0.22341447
alexnet_w1_mlp_simclrhn_probe3,1,187,NaN,knife,keyboard,1.5,0187_hp_dnn_1.5_keyboard_10_n03085013_24026.png,n03085013_24026.png,0.0,-0.28623918,0.37511653,-0.46764913
alexnet_w1_mlp_simclrhn_probe3,1,188,NaN,clock,bottle,0.55,0188_hp_dnn_0.55_bottle_10_n04560804_14395.png,n04560804_14395.png,0.0,0.7652237,0.8338259,-0.048509084
alexnet_w1_mlp_simclrhn_probe3,1,189,NaN,knife,boat,0.45,0189_hp_dnn_0.45_boat_10_n02951358_11567.png,n02951358_11567.png,0.0,-0.31826675,0.59715384,-0.6473001
alexnet_w1_mlp_simclrhn_probe3,1,190,NaN,knife,chair,0.4,0190_hp_dnn_0.4_chair_10_n03376595_17747.png,n03376595_17747.png,0.0,0.14021905,0.6949409,-0.39224762
alexnet_w1_mlp_simclrhn_probe3,1,191,NaN,bottle,bottle,inf,0191_hp_dnn_inf_bottle_10_n04591713_5563.png,n04591713_5563.png,1.0,3.0157917,1.789578,0.86706406
alexnet_w1_mlp_simclrhn_probe3,1,192,NaN,airplane,airplane,3,0192_hp_dnn_3_airplane_10_n02690373_7496.png,n02690373_7496.png,1.0,4.691332,2.001655,1.9018887
alexnet_w1_mlp_simclrhn_probe3,1,193,NaN,airplane,airplane,3,0193_hp_dnn_3_airplane_10_n02690373_4465.png,n02690373_4465.png,1.0,5.5995717,2.3855042,2.2726889
alexnet_w1_mlp_simclrhn_probe3,1,194,NaN,knife,bear,0.4,0194_hp_dnn_0.4_bear_10_n02134418_119.png,n02134418_119.png,0.0,-0.098553,0.34643415,-0.31465343
alexnet_w1_mlp_simclrhn_probe3,1,195,NaN,bird,bear,1.5,0195_hp_dnn_1.5_bear_10_n02133161_1970.png,n02133161_1970.png,0.0,-0.021766163,0.5664601,-0.4159388
alexnet_w1_mlp_simclrhn_probe3,1,196,NaN,knife,bird,1.5,0196_hp_dnn_1.5_bird_10_n02018795_5488.png,n02018795_5488.png,0.0,-0.18396614,0.39276096,-0.40780765
alexnet_w1_mlp_simclrhn_probe3,1,197,NaN,knife,bird,0.45,0197_hp_dnn_0.45_bird_10_n01796340_1877.png,n01796340_1877.png,0.0,-0.08595807,0.58198285,-0.47230557
alexnet_w1_mlp_simclrhn_probe3,1,198,NaN,knife,airplane,0.4,0198_hp_dnn_0.4_airplane_10_n02690373_4964.png,n02690373_4964.png,0.0,0.24754882,0.58934736,-0.24168807
alexnet_w1_mlp_simclrhn_probe3,1,199,NaN,clock,bottle,0.4,0199_hp_dnn_0.4_bottle_10_n04591713_1762.png,n04591713_1762.png,0.0,0.72659314,0.74209315,-0.010960162
alexnet_w1_mlp_simclrhn_probe3,1,200,NaN,chair,car,1,0200_hp_dnn_1_car_10_n03100240_6059.png,n03100240_6059.png,0.0,0.35179332,0.5109464,-0.11253822
alexnet_w1_mlp_simclrhn_probe3,1,201,NaN,chair,chair,inf,0201_hp_dnn_inf_chair_10_n03376595_10769.png,n03376595_10769.png,1.0,2.3521214,1.8354875,0.36531532
alexnet_w1_mlp_simclrhn_probe3,1,202,NaN,oven,oven,inf,0202_hp_dnn_inf_oven_10_n04111531_1723.png,n04111531_1723.png,1.0,4.6208344,1.6497916,2.1008444
alexnet_w1_mlp_simclrhn_probe3,1,203,NaN,clock,bicycle,0.45,0203_hp_dnn_0.45_bicycle_10_n02835271_3570.png,n02835271_3570.png,0.0,0.30785066,0.650711,-0.24243888
alexnet_w1_mlp_simclrhn_probe3,1,204,NaN,knife,knife,0.4,0204_hp_dnn_0.4_knife_10_n03041632_83826.png,n03041632_83826.png,1.0,0.52570814,0.4608883,0.045834552
alexnet_w1_mlp_simclrhn_probe3,1,205,NaN,clock,keyboard,0.7,0205_hp_dnn_0.7_keyboard_10_n03085013_20673.png,n03085013_20673.png,0.0,0.15669471,0.6810215,-0.37075505
alexnet_w1_mlp_simclrhn_probe3,1,206,NaN,knife,knife,1,0206_hp_dnn_1_knife_10_n03041632_27575.png,n03041632_27575.png,1.0,1.1827044,0.43209124,0.5307637
alexnet_w1_mlp_simclrhn_probe3,1,207,NaN,bird,bird,1.5,0207_hp_dnn_1.5_bird_10_n01558993_14305.png,n01558993_14305.png,1.0,1.190726,0.24924399,0.6657284
alexnet_w1_mlp_simclrhn_probe3,1,208,NaN,knife,bird,0.4,0208_hp_dnn_0.4_bird_10_n01537544_18123.png,n01537544_18123.png,0.0,-0.042007476,0.30642536,-0.24637923
alexnet_w1_mlp_simclrhn_probe3,1,209,NaN,bicycle,bicycle,3,0209_hp_dnn_3_bicycle_10_n02835271_4307.png,n02835271_4307.png,1.0,10.189788,3.2447233,4.9109025
alexnet_w1_mlp_simclrhn_probe3,1,210,NaN,knife,car,0.7,0210_hp_dnn_0.7_car_10_n04285008_6320.png,n04285008_6320.png,0.0,0.046162426,0.5452945,-0.3529397
alexnet_w1_mlp_simclrhn_probe3,1,211,NaN,clock,elephant,0.7,0211_hp_dnn_0.7_elephant_10_n02504458_1327.png,n02504458_1327.png,0.0,-0.11873098,0.57960963,-0.4938014
alexnet_w1_mlp_simclrhn_probe3,1,212,NaN,bottle,bottle,1,0212_hp_dnn_1_bottle_10_n04560804_1813.png,n04560804_1813.png,1.0,0.3875521,0.30092457,0.061254922
alexnet_w1_mlp_simclrhn_probe3,1,213,NaN,clock,cat,1,0213_hp_dnn_1_cat_10_n02124075_10085.png,n02124075_10085.png,0.0,0.19102067,0.81761473,-0.44306892
alexnet_w1_mlp_simclrhn_probe3,1,214,NaN,bottle,clock,inf,0214_hp_dnn_inf_clock_10_n03196217_2853.png,n03196217_2853.png,0.0,1.6129608,2.8380244,-0.86625075
alexnet_w1_mlp_simclrhn_probe3,1,215,NaN,boat,boat,1.5,0215_hp_dnn_1.5_boat_10_n04273569_10149.png,n04273569_10149.png,1.0,1.1715004,0.43699837,0.5193714
alexnet_w1_mlp_simclrhn_probe3,1,216,NaN,chair,chair,3,0216_hp_dnn_3_chair_10_n03376595_17859.png,n03376595_17859.png,1.0,2.7143018,0.9336853,1.259086
alexnet_w1_mlp_simclrhn_probe3,1,217,NaN,clock,dog,0.55,0217_hp_dnn_0.55_dog_10_n02101556_7581.png,n02101556_7581.png,0.0,-0.18033439,0.76797765,-0.6705579
alexnet_w1_mlp_simclrhn_probe3,1,218,NaN,knife,cat,0.4,0218_hp_dnn_0.4_cat_10_n02125311_8522.png,n02125311_8522.png,0.0,-0.0431619,0.30596027,-0.24686666
alexnet_w1_mlp_simclrhn_probe3,1,219,NaN,clock,clock,0.45,0219_hp_dnn_0.45_clock_10_n04548280_4345.png,n04548280_4345.png,1.0,0.7750532,0.3542237,0.2975714
alexnet_w1_mlp_simclrhn_probe3,1,220,NaN,truck,truck,inf,0220_hp_dnn_inf_truck_10_n04467665_4088.png,n04467665_4088.png,1.0,6.060774,3.9426441,1.497744
alexnet_w1_mlp_simclrhn_probe3,1,221,NaN,dog,dog,inf,0221_hp_dnn_inf_dog_10_n02102040_1100.png,n02102040_1100.png,1.0,3.4674842,0.2971704,2.2417505
alexnet_w1_mlp_simclrhn_probe3,1,222,NaN,knife,bicycle,0.55,0222_hp_dnn_0.55_bicycle_10_n03792782_15557.png,n03792782_15557.png,0.0,-0.14314668,0.49356446,-0.45022276
alexnet_w1_mlp_simclrhn_probe3,1,223,NaN,car,car,3,0223_hp_dnn_3_car_10_n04285008_12767.png,n04285008_12767.png,1.0,1.9800934,1.9331185,0.033216268
alexnet_w1_mlp_simclrhn_probe3,1,224,NaN,knife,boat,0.4,0224_hp_dnn_0.4_boat_10_n03662601_2438.png,n03662601_2438.png,0.0,-0.11960008,0.6058835,-0.51299435
alexnet_w1_mlp_simclrhn_probe3,1,225,NaN,truck,truck,inf,0225_hp_dnn_inf_truck_10_n03417042_6419.png,n03417042_6419.png,1.0,8.992142,6.210295,1.9670626
alexnet_w1_mlp_simclrhn_probe3,1,226,NaN,knife,chair,0.45,0226_hp_dnn_0.45_chair_10_n04099969_9891.png,n04099969_9891.png,0.0,0.07242322,0.51224047,-0.31099775
alexnet_w1_mlp_simclrhn_probe3,1,227,NaN,cat,cat,inf,0227_hp_dnn_inf_cat_10_n02123045_8543.png,n02123045_8543.png,1.0,6.9429564,0.57936275,4.49974
alexnet_w1_mlp_simclrhn_probe3,1,228,NaN,knife,cat,0.55,0228_hp_dnn_0.55_cat_10_n02123045_7342.png,n02123045_7342.png,0.0,0.09190393,0.5345361,-0.31298822
alexnet_w1_mlp_simclrhn_probe3,1,229,NaN,knife,bird,0.55,0229_hp_dnn_0.55_bird_10_n02018207_10814.png,n02018207_10814.png,0.0,0.08706461,0.4992531,-0.29146126
alexnet_w1_mlp_simclrhn_probe3,1,230,NaN,airplane,airplane,3,0230_hp_dnn_3_airplane_10_n02690373_20033.png,n02690373_20033.png,1.0,3.6690414,2.1447134,1.0778626
alexnet_w1_mlp_simclrhn_probe3,1,231,NaN,knife,truck,0.55,0231_hp_dnn_0.55_truck_10_n04467665_13645.png,n04467665_13645.png,0.0,-0.18368706,0.6264032,-0.57282037
alexnet_w1_mlp_simclrhn_probe3,1,232,NaN,airplane,airplane,1.5,0232_hp_dnn_1.5_airplane_10_n02690373_5015.png,n02690373_5015.png,1.0,1.8767138,0.76941407,0.78297913
alexnet_w1_mlp_simclrhn_probe3,1,233,NaN,bicycle,chair,1.5,0233_hp_dnn_1.5_chair_10_n03376595_6173.png,n03376595_6173.png,0.0,0.5911101,1.1259085,-0.37815958
alexnet_w1_mlp_simclrhn_probe3,1,234,NaN,bicycle,knife,1.5,0234_hp_dnn_1.5_knife_10_n03041632_91967.png,n03041632_91967.png,0.0,-0.5104436,1.064945,-1.113968
alexnet_w1_mlp_simclrhn_probe3,1,235,NaN,elephant,elephant,inf,0235_hp_dnn_inf_elephant_10_n02504458_1271.png,n02504458_1271.png,1.0,6.24473,0.91363674,3.7696524
alexnet_w1_mlp_simclrhn_probe3,1,236,NaN,clock,cat,0.7,0236_hp_dnn_0.7_cat_10_n02123597_1684.png,n02123597_1684.png,0.0,0.1868609,0.539776,-0.24954867
alexnet_w1_mlp_simclrhn_probe3,1,237,NaN,knife,dog,0.55,0237_hp_dnn_0.55_dog_10_n02091831_3628.png,n02091831_3628.png,0.0,-0.16953547,0.45356253,-0.44059685
alexnet_w1_mlp_simclrhn_probe3,1,238,NaN,clock,truck,0.45,0238_hp_dnn_0.45_truck_10_n04467665_64540.png,n04467665_64540.png,0.0,-0.10176068,0.8733573,-0.68951255
alexnet_w1_mlp_simclrhn_probe3,1,239,NaN,airplane,airplane,1,0239_hp_dnn_1_airplane_10_n02690373_3289.png,n02690373_3289.png,1.0,1.039929,0.67176056,0.26033443
alexnet_w1_mlp_simclrhn_probe3,1,240,NaN,boat,boat,3,0240_hp_dnn_3_boat_10_n04273569_16949.png,n04273569_16949.png,1.0,2.2046685,1.3068745,0.63483626
alexnet_w1_mlp_simclrhn_probe3,1,241,NaN,knife,bicycle,1,0241_hp_dnn_1_bicycle_10_n03792782_15174.png,n03792782_15174.png,0.0,-0.21976665,0.3933502,-0.4335391
alexnet_w1_mlp_simclrhn_probe3,1,242,NaN,knife,bottle,1.5,0242_hp_dnn_1.5_bottle_10_n03937543_146.png,n03937543_146.png,0.0,0.15737359,0.92078686,-0.5398147
alexnet_w1_mlp_simclrhn_probe3,1,243,NaN,clock,chair,0.45,0243_hp_dnn_0.45_chair_10_n04429376_694.png,n04429376_694.png,0.0,0.071737826,0.65346116,-0.41134053
alexnet_w1_mlp_simclrhn_probe3,1,244,NaN,knife,keyboard,0.4,0244_hp_dnn_0.4_keyboard_10_n03085013_19407.png,n03085013_19407.png,0.0,-0.07897365,0.5910598,-0.47378522
alexnet_w1_mlp_simclrhn_probe3,1,245,NaN,knife,oven,0.45,0245_hp_dnn_0.45_oven_10_n04111531_4955.png,n04111531_4955.png,0.0,0.0067345276,0.42139602,-0.29320997
alexnet_w1_mlp_simclrhn_probe3,1,246,NaN,chair,dog,1.5,0246_hp_dnn_1.5_dog_10_n02099712_1825.png,n02099712_1825.png,0.0,-0.3738202,0.5079543,-0.62350875
alexnet_w1_mlp_simclrhn_probe3,1,247,NaN,knife,bear,0.55,0247_hp_dnn_0.55_bear_10_n02134084_14031.png,n02134084_14031.png,0.0,-0.13732548,0.60920644,-0.5278778
alexnet_w1_mlp_simclrhn_probe3,1,248,NaN,clock,car,0.45,0248_hp_dnn_0.45_car_10_n02814533_70922.png,n02814533_70922.png,0.0,-0.2656259,0.7148147,-0.6932762
alexnet_w1_mlp_simclrhn_probe3,1,249,NaN,knife,elephant,0.45,0249_hp_dnn_0.45_elephant_10_n02504458_217.png,n02504458_217.png,0.0,-0.13792373,0.41145325,-0.38846818
alexnet_w1_mlp_simclrhn_probe3,1,250,NaN,car,car,inf,0250_hp_dnn_inf_car_10_n02814533_27824.png,n02814533_27824.png,1.0,13.998837,10.073206,2.7758408
alexnet_w1_mlp_simclrhn_probe3,1,251,NaN,keyboard,keyboard,0.7,0251_hp_dnn_0.7_keyboard_10_n03085013_24257.png,n03085013_24257.png,1.0,1.3378441,0.78223324,0.39287624
alexnet_w1_mlp_simclrhn_probe3,1,252,NaN,bicycle,elephant,3,0252_hp_dnn_3_elephant_10_n02504013_2269.png,n02504013_2269.png,0.0,1.7064811,1.9851602,-0.1970559
alexnet_w1_mlp_simclrhn_probe3,1,253,NaN,knife,bear,0.45,0253_hp_dnn_0.45_bear_10_n02134418_1798.png,n02134418_1798.png,0.0,-0.1329822,0.6410425,-0.5473181
alexnet_w1_mlp_simclrhn_probe3,1,254,NaN,clock,dog,0.45,0254_hp_dnn_0.45_dog_10_n02111129_6881.png,n02111129_6881.png,0.0,-0.17111257,0.42458606,-0.42122254
alexnet_w1_mlp_simclrhn_probe3,1,255,NaN,truck,truck,1.5,0255_hp_dnn_1.5_truck_10_n04467665_67315.png,n04467665_67315.png,1.0,2.3153005,0.85244113,1.0343978
alexnet_w1_mlp_simclrhn_probe3,1,256,NaN,knife,elephant,0.55,0256_hp_dnn_0.55_elephant_10_n02504013_3688.png,n02504013_3688.png,0.0,-0.18576968,0.5210575,-0.4998023
alexnet_w1_mlp_simclrhn_probe3,1,257,NaN,truck,truck,1.5,0257_hp_dnn_1.5_truck_10_n04467665_38886.png,n04467665_38886.png,1.0,1.183506,1.0511646,0.09357949
alexnet_w1_mlp_simclrhn_probe3,1,258,NaN,bottle,bottle,inf,0258_hp_dnn_inf_bottle_10_n04557648_4250.png,n04557648_4250.png,1.0,4.0407667,2.7067049,0.9433242
alexnet_w1_mlp_simclrhn_probe3,1,259,NaN,knife,chair,0.45,0259_hp_dnn_0.45_chair_10_n04099969_4053.png,n04099969_4053.png,0.0,0.112450846,0.50468624,-0.2773523
alexnet_w1_mlp_simclrhn_probe3,1,260,NaN,clock,knife,0.7,0260_hp_dnn_0.7_knife_10_n03041632_5727.png,n03041632_5727.png,0.0,0.12278125,0.54930604,-0.30159858
alexnet_w1_mlp_simclrhn_probe3,1,261,NaN,clock,dog,1,0261_hp_dnn_1_dog_10_n02091134_4525.png,n02091134_4525.png,0.0,-0.36602494,0.6285594,-0.70327735
alexnet_w1_mlp_simclrhn_probe3,1,262,NaN,keyboard,keyboard,inf,0262_hp_dnn_inf_keyboard_10_n04505470_4685.png,n04505470_4685.png,1.0,7.853902,3.7117932,2.9289134
alexnet_w1_mlp_simclrhn_probe3,1,263,NaN,knife,boat,0.4,0263_hp_dnn_0.4_boat_10_n02951358_6637.png,n02951358_6637.png,0.0,-0.15346116,0.50898594,-0.46842083
alexnet_w1_mlp_simclrhn_probe3,1,264,NaN,bicycle,dog,1.5,0264_hp_dnn_1.5_dog_10_n02093256_11232.png,n02093256_11232.png,0.0,-0.32286558,0.719224,-0.7368686
alexnet_w1_mlp_simclrhn_probe3,1,265,NaN,elephant,elephant,inf,0265_hp_dnn_inf_elephant_10_n02504013_816.png,n02504013_816.png,1.0,3.7690337,2.1523545,1.1431649
alexnet_w1_mlp_simclrhn_probe3,1,266,NaN,knife,bear,1.5,0266_hp_dnn_1.5_bear_10_n02134084_1484.png,n02134084_1484.png,0.0,-0.024092743,0.27745667,-0.21322763
alexnet_w1_mlp_simclrhn_probe3,1,267,NaN,knife,boat,0.45,0267_hp_dnn_0.45_boat_10_n04273569_15859.png,n04273569_15859.png,0.0,-0.14471631,0.5301947,-0.47723415
alexnet_w1_mlp_simclrhn_probe3,1,268,NaN,bicycle,bicycle,3,0268_hp_dnn_3_bicycle_10_n02835271_7311.png,n02835271_7311.png,1.0,1.2416494,0.34215808,0.6360364
alexnet_w1_mlp_simclrhn_probe3,1,269,NaN,clock,cat,1,0269_hp_dnn_1_cat_10_n02123045_2339.png,n02123045_2339.png,0.0,0.17090778,0.61607474,-0.31478056
alexnet_w1_mlp_simclrhn_probe3,1,270,NaN,knife,elephant,0.45,0270_hp_dnn_0.45_elephant_10_n02504458_4448.png,n02504458_4448.png,0.0,0.025694601,0.26166338,-0.16685513
alexnet_w1_mlp_simclrhn_probe3,1,271,NaN,car,car,1,0271_hp_dnn_1_car_10_n03100240_9955.png,n03100240_9955.png,1.0,3.3438027,1.8939284,1.025216
alexnet_w1_mlp_simclrhn_probe3,1,272,NaN,knife,truck,0.55,0272_hp_dnn_0.55_truck_10_n03417042_7310.png,n03417042_7310.png,0.0,-0.15912792,0.37936783,-0.38077402
alexnet_w1_mlp_simclrhn_probe3,1,273,NaN,clock,chair,0.55,0273_hp_dnn_0.55_chair_10_n04099969_20421.png,n04099969_20421.png,0.0,0.3216411,0.4846625,-0.11527355
alexnet_w1_mlp_simclrhn_probe3,1,274,NaN,boat,boat,0.45,0274_hp_dnn_0.45_boat_10_n04612504_4581.png,n04612504_4581.png,1.0,0.49274245,0.31214482,0.12770182
alexnet_w1_mlp_simclrhn_probe3,1,275,NaN,clock,bear,1,0275_hp_dnn_1_bear_10_n02134418_4515.png,n02134418_4515.png,0.0,-0.19603741,0.74493647,-0.66536903
alexnet_w1_mlp_simclrhn_probe3,1,276,NaN,chair,truck,0.7,0276_hp_dnn_0.7_truck_10_n03796401_1082.png,n03796401_1082.png,0.0,-0.04828719,0.8723869,-0.6510149
alexnet_w1_mlp_simclrhn_probe3,1,277,NaN,bicycle,bicycle,1,0277_hp_dnn_1_bicycle_10_n03792782_8176.png,n03792782_8176.png,1.0,0.7898741,0.43195453,0.25308734
alexnet_w1_mlp_simclrhn_probe3,1,278,NaN,knife,oven,0.4,0278_hp_dnn_0.4_oven_10_n04111531_5463.png,n04111531_5463.png,0.0,0.014647819,0.33909762,-0.22942066
alexnet_w1_mlp_simclrhn_probe3,1,279,NaN,chair,elephant,1.5,0279_hp_dnn_1.5_elephant_10_n02504013_4166.png,n02504013_4166.png,0.0,-0.23304355,0.606531,-0.5936689
alexnet_w1_mlp_simclrhn_probe3,1,280,NaN,airplane,airplane,0.7,0280_hp_dnn_0.7_airplane_10_n02690373_18295.png,n02690373_18295.png,1.0,1.4915471,0.7133738,0.55025166
alexnet_w1_mlp_simclrhn_probe3,1,281,NaN,knife,cat,0.45,0281_hp_dnn_0.45_cat_10_n02124075_1460.png,n02124075_1460.png,0.0,-0.012562718,0.38596582,-0.28180224
alexnet_w1_mlp_simclrhn_probe3,1,282,NaN,knife,bird,0.55,0282_hp_dnn_0.55_bird_10_n02028035_17759.png,n02028035_17759.png,0.0,0.15462619,0.31918073,-0.11635763
alexnet_w1_mlp_simclrhn_probe3,1,283,NaN,bicycle,chair,3,0283_hp_dnn_3_chair_10_n02791124_6654.png,n02791124_6654.png,0.0,1.2888565,2.1930032,-0.63932824
alexnet_w1_mlp_simclrhn_probe3,1,284,NaN,knife,truck,0.7,0284_hp_dnn_0.7_truck_10_n04467665_22974.png,n04467665_22974.png,0.0,-0.110418946,0.84102935,-0.67277557
alexnet_w1_mlp_simclrhn_probe3,1,285,NaN,clock,clock,0.55,0285_hp_dnn_0.55_clock_10_n03196217_2983.png,n03196217_2983.png,1.0,0.7977808,0.5381373,0.18359567
alexnet_w1_mlp_simclrhn_probe3,1,286,NaN,oven,knife,inf,0286_hp_dnn_inf_knife_10_n03041632_23968.png,n03041632_23968.png,0.0,0.9653863,3.6159189,-1.8742096
alexnet_w1_mlp_simclrhn_probe3,1,287,NaN,clock,keyboard,0.4,0287_hp_dnn_0.4_keyboard_10_n03085013_23519.png,n03085013_23519.png,0.0,0.21574342,0.48079458,-0.18741947
alexnet_w1_mlp_simclrhn_probe3,1,288,NaN,clock,bottle,1.5,0288_hp_dnn_1.5_bottle_10_n04591713_14895.png,n04591713_14895.png,0.0,0.4134352,0.48746958,-0.052350223
alexnet_w1_mlp_simclrhn_probe3,1,289,NaN,clock,elephant,1,0289_hp_dnn_1_elephant_10_n02504013_3969.png,n02504013_3969.png,0.0,0.17527455,0.36277714,-0.13258436
alexnet_w1_mlp_simclrhn_probe3,1,290,NaN,chair,bear,3,0290_hp_dnn_3_bear_10_n02134418_3723.png,n02134418_3723.png,0.0,-0.36062357,0.29449475,-0.46323863
alexnet_w1_mlp_simclrhn_probe3,1,291,NaN,knife,keyboard,0.45,0291_hp_dnn_0.45_keyboard_10_n04505470_709.png,n04505470_709.png,0.0,-0.111617416,0.41580313,-0.37294263
alexnet_w1_mlp_simclrhn_probe3,1,292,NaN,clock,knife,1.5,0292_hp_dnn_1.5_knife_10_n03041632_379.png,n03041632_379.png,0.0,0.22430171,0.8531204,-0.44464198
alexnet_w1_mlp_simclrhn_probe3,1,293,NaN,bicycle,oven,3,0293_hp_dnn_3_oven_10_n04111531_13128.png,n04111531_13128.png,0.0,-0.3876699,0.37257737,-0.53757596
alexnet_w1_mlp_simclrhn_probe3,1,294,NaN,clock,elephant,0.55,0294_hp_dnn_0.55_elephant_10_n02504013_933.png,n02504013_933.png,0.0,0.05565944,0.5047509,-0.31755564
alexnet_w1_mlp_simclrhn_probe3,1,295,NaN,car,airplane,inf,0295_hp_dnn_inf_airplane_10_n02690373_17603.png,n02690373_17603.png,0.0,2.809401,4.3544655,-1.0925256
alexnet_w1_mlp_simclrhn_probe3,1,296,NaN,knife,airplane,0.45,0296_hp_dnn_0.45_airplane_10_n02690373_5177.png,n02690373_5177.png,0.0,0.34546155,0.5098239,-0.11622175
alexnet_w1_mlp_simclrhn_probe3,1,297,NaN,bicycle,chair,1.5,0297_hp_dnn_1.5_chair_10_n04429376_28121.png,n04429376_28121.png,0.0,0.18711618,0.40279776,-0.15250991
alexnet_w1_mlp_simclrhn_probe3,1,298,NaN,clock,truck,0.55,0298_hp_dnn_0.55_truck_10_n03417042_6517.png,n03417042_6517.png,0.0,-0.33713973,0.4088463,-0.52749175
alexnet_w1_mlp_simclrhn_probe3,1,299,NaN,knife,chair,0.55,0299_hp_dnn_0.55_chair_10_n03376595_5503.png,n03376595_5503.png,0.0,0.30595016,0.70820814,-0.28443936
alexnet_w1_mlp_simclrhn_probe3,1,300,NaN,clock,clock,1.5,0300_hp_dnn_1.5_clock_10_n03196217_7918.png,n03196217_7918.png,1.0,1.044557,0.7003746,0.24337369
alexnet_w1_mlp_simclrhn_probe3,1,301,NaN,car,car,1,0301_hp_dnn_1_car_10_n04285008_7751.png,n04285008_7751.png,1.0,2.6878147,1.0962272,1.1254224
alexnet_w1_mlp_simclrhn_probe3,1,302,NaN,knife,clock,0.4,0302_hp_dnn_0.4_clock_10_n03196217_2628.png,n03196217_2628.png,0.0,0.33499244,0.4536131,-0.083877474
alexnet_w1_mlp_simclrhn_probe3,1,303,NaN,knife,bird,0.55,0303_hp_dnn_0.55_bird_10_n01833805_6395.png,n01833805_6395.png,0.0,0.17052074,0.67226136,-0.35478422
alexnet_w1_mlp_simclrhn_probe3,1,304,NaN,knife,boat,0.4,0304_hp_dnn_0.4_boat_10_n03344393_6015.png,n03344393_6015.png,0.0,0.10939475,0.4511606,-0.24166496
alexnet_w1_mlp_simclrhn_probe3,1,305,NaN,clock,elephant,1.5,0305_hp_dnn_1.5_elephant_10_n02504013_2739.png,n02504013_2739.png,0.0,0.33944982,0.3586863,-0.013602242
alexnet_w1_mlp_simclrhn_probe3,1,306,NaN,clock,keyboard,0.45,0306_hp_dnn_0.45_keyboard_10_n03085013_23316.png,n03085013_23316.png,0.0,-0.032216735,0.63438696,-0.47136
alexnet_w1_mlp_simclrhn_probe3,1,307,NaN,airplane,airplane,1,0307_hp_dnn_1_airplane_10_n02690373_20350.png,n02690373_20350.png,1.0,0.7683353,0.4780213,0.205283
alexnet_w1_mlp_simclrhn_probe3,1,308,NaN,clock,clock,3,0308_hp_dnn_3_clock_10_n02708093_3484.png,n02708093_3484.png,1.0,4.3640037,0.92365927,2.4326909
alexnet_w1_mlp_simclrhn_probe3,1,309,NaN,clock,bicycle,0.55,0309_hp_dnn_0.55_bicycle_10_n03792782_10185.png,n03792782_10185.png,0.0,-0.15717554,0.27503943,-0.30562213
alexnet_w1_mlp_simclrhn_probe3,1,310,NaN,oven,knife,3,0310_hp_dnn_3_knife_10_n03041632_42196.png,n03041632_42196.png,0.0,0.9205934,1.8711627,-0.672154
alexnet_w1_mlp_simclrhn_probe3,1,311,NaN,bird,bird,inf,0311_hp_dnn_inf_bird_10_n01855672_6132.png,n01855672_6132.png,1.0,3.7198021,1.5527188,1.5323592
alexnet_w1_mlp_simclrhn_probe3,1,312,NaN,knife,bottle,0.4,0312_hp_dnn_0.4_bottle_10_n03983396_3047.png,n03983396_3047.png,0.0,0.266246,0.5042636,-0.16830385
alexnet_w1_mlp_simclrhn_probe3,1,313,NaN,clock,bottle,0.4,0313_hp_dnn_0.4_bottle_10_n04557648_2093.png,n04557648_2093.png,0.0,0.3443916,0.78079385,-0.308583
alexnet_w1_mlp_simclrhn_probe3,1,314,NaN,keyboard,keyboard,0.55,0314_hp_dnn_0.55_keyboard_10_n04505470_7686.png,n04505470_7686.png,1.0,1.1372479,0.5055328,0.44669005
alexnet_w1_mlp_simclrhn_probe3,1,315,NaN,bird,bear,1.5,0315_hp_dnn_1.5_bear_10_n02132136_5051.png,n02132136_5051.png,0.0,-0.12836617,1.6682193,-1.2703779
alexnet_w1_mlp_simclrhn_probe3,1,316,NaN,knife,bear,1,0316_hp_dnn_1_bear_10_n02134418_24559.png,n02134418_24559.png,0.0,-0.08159001,0.59342015,-0.47730425
alexnet_w1_mlp_simclrhn_probe3,1,317,NaN,clock,oven,0.55,0317_hp_dnn_0.55_oven_10_n04111531_3702.png,n04111531_3702.png,0.0,-0.15695831,0.5593385,-0.50649834
alexnet_w1_mlp_simclrhn_probe3,1,318,NaN,bicycle,bicycle,1,0318_hp_dnn_1_bicycle_10_n02835271_24230.png,n02835271_24230.png,1.0,0.39481872,0.27608284,0.083958946
alexnet_w1_mlp_simclrhn_probe3,1,319,NaN,keyboard,keyboard,1.5,0319_hp_dnn_1.5_keyboard_10_n03085013_2272.png,n03085013_2272.png,1.0,2.065225,1.8824979,0.12920749
alexnet_w1_mlp_simclrhn_probe3,1,320,NaN,oven,keyboard,0.55,0320_hp_dnn_0.55_keyboard_10_n03085013_23201.png,n03085013_23201.png,0.0,0.24971235,0.83611375,-0.4146484
alexnet_w1_mlp_simclrhn_probe3,1,321,NaN,boat,boat,1.5,0321_hp_dnn_1.5_boat_10_n04273569_9803.png,n04273569_9803.png,1.0,0.9412858,0.94068825,0.00042252216
alexnet_w1_mlp_simclrhn_probe3,1,322,NaN,knife,boat,0.4,0322_hp_dnn_0.4_boat_10_n04612504_29813.png,n04612504_29813.png,0.0,-0.043280013,0.5075943,-0.38952696
alexnet_w1_mlp_simclrhn_probe3,1,323,NaN,clock,clock,1,0323_hp_dnn_1_clock_10_n02708093_1291.png,n02708093_1291.png,1.0,2.1652958,0.8948834,0.8983173
alexnet_w1_mlp_simclrhn_probe3,1,324,NaN,clock,oven,0.4,0324_hp_dnn_0.4_oven_10_n04111531_1794.png,n04111531_1794.png,0.0,0.22689493,0.694053,-0.33033064
alexnet_w1_mlp_simclrhn_probe3,1,325,NaN,knife,bear,0.4,0325_hp_dnn_0.4_bear_10_n02132136_5612.png,n02132136_5612.png,0.0,-0.121944115,0.42156893,-0.38432178
alexnet_w1_mlp_simclrhn_probe3,1,326,NaN,boat,boat,1.5,0326_hp_dnn_1.5_boat_10_n04273569_3401.png,n04273569_3401.png,1.0,2.0560932,0.66278964,0.9852145
alexnet_w1_mlp_simclrhn_probe3,1,327,NaN,bird,cat,3,0327_hp_dnn_3_cat_10_n02125311_16544.png,n02125311_16544.png,0.0,0.2960475,0.7218453,-0.30108452
alexnet_w1_mlp_simclrhn_probe3,1,328,NaN,keyboard,clock,1.5,0328_hp_dnn_1.5_clock_10_n03196217_10717.png,n03196217_10717.png,0.0,0.94233197,2.4001737,-1.0308497
alexnet_w1_mlp_simclrhn_probe3,1,329,NaN,clock,bear,3,0329_hp_dnn_3_bear_10_n02134418_47.png,n02134418_47.png,0.0,-0.6557648,0.32878077,-0.69617885
alexnet_w1_mlp_simclrhn_probe3,1,330,NaN,keyboard,bottle,3,0330_hp_dnn_3_bottle_10_n04591713_4380.png,n04591713_4380.png,0.0,0.10064222,1.1341889,-0.73082787
alexnet_w1_mlp_simclrhn_probe3,1,331,NaN,knife,chair,0.55,0331_hp_dnn_0.55_chair_10_n04429376_8710.png,n04429376_8710.png,0.0,-0.07044697,0.44262618,-0.3627975
alexnet_w1_mlp_simclrhn_probe3,1,332,NaN,bicycle,bicycle,3,0332_hp_dnn_3_bicycle_10_n02835271_781.png,n02835271_781.png,1.0,8.849473,2.6769505,4.3646326
alexnet_w1_mlp_simclrhn_probe3,1,333,NaN,cat,bear,1.5,0333_hp_dnn_1.5_bear_10_n02134418_875.png,n02134418_875.png,0.0,-0.07120203,0.16886558,-0.16975343
alexnet_w1_mlp_simclrhn_probe3,1,334,NaN,clock,dog,0.55,0334_hp_dnn_0.55_dog_10_n02094433_10343.png,n02094433_10343.png,0.0,-0.13922523,0.3571174,-0.35096726
alexnet_w1_mlp_simclrhn_probe3,1,335,NaN,airplane,airplane,3,0335_hp_dnn_3_airplane_10_n02690373_1053.png,n02690373_1053.png,1.0,4.5617175,3.6788926,0.6242515
alexnet_w1_mlp_simclrhn_probe3,1,336,NaN,airplane,airplane,3,0336_hp_dnn_3_airplane_10_n02690373_18848.png,n02690373_18848.png,1.0,4.1330414,1.0137748,2.2056546
alexnet_w1_mlp_simclrhn_probe3,1,337,NaN,knife,keyboard,3,0337_hp_dnn_3_keyboard_10_n03085013_18741.png,n03085013_18741.png,0.0,0.46250165,0.62268496,-0.11326671
alexnet_w1_mlp_simclrhn_probe3,1,338,NaN,bear,bear,inf,0338_hp_dnn_inf_bear_10_n02134418_3152.png,n02134418_3152.png,1.0,6.6003027,3.2695267,2.3552144
alexnet_w1_mlp_simclrhn_probe3,1,339,NaN,knife,bicycle,1.5,0339_hp_dnn_1.5_bicycle_10_n03792782_14557.png,n03792782_14557.png,0.0,-0.039121594,0.17716815,-0.15293995
alexnet_w1_mlp_simclrhn_probe3,1,340,NaN,knife,bird,0.7,0340_hp_dnn_0.7_bird_10_n01796340_5262.png,n01796340_5262.png,0.0,-0.16891392,0.25132662,-0.29715493
alexnet_w1_mlp_simclrhn_probe3,1,341,NaN,clock,bicycle,1,0341_hp_dnn_1_bicycle_10_n03792782_4559.png,n03792782_4559.png,0.0,0.40669122,1.3190751,-0.64515287
alexnet_w1_mlp_simclrhn_probe3,1,342,NaN,knife,bear,0.45,0342_hp_dnn_0.45_bear_10_n02134084_3177.png,n02134084_3177.png,0.0,-0.050676577,0.3935389,-0.31410778
alexnet_w1_mlp_simclrhn_probe3,1,343,NaN,knife,elephant,0.4,0343_hp_dnn_0.4_elephant_10_n02504458_5008.png,n02504458_5008.png,0.0,-0.17129132,0.47360283,-0.456009
alexnet_w1_mlp_simclrhn_probe3,1,344,NaN,oven,oven,3,0344_hp_dnn_3_oven_10_n04111531_7955.png,n04111531_7955.png,1.0,2.0963364,1.5668104,0.37443143
alexnet_w1_mlp_simclrhn_probe3,1,345,NaN,bicycle,bicycle,inf,0345_hp_dnn_inf_bicycle_10_n02835271_13793.png,n02835271_13793.png,1.0,1.7223,0.7777786,0.6678775
alexnet_w1_mlp_simclrhn_probe3,1,346,NaN,knife,keyboard,0.45,0346_hp_dnn_0.45_keyboard_10_n03085013_14810.png,n03085013_14810.png,0.0,0.16495292,0.6835029,-0.36667022
alexnet_w1_mlp_simclrhn_probe3,1,347,NaN,chair,car,0.7,0347_hp_dnn_0.7_car_10_n02814533_39933.png,n02814533_39933.png,0.0,-0.45515934,0.5372637,-0.7017491
alexnet_w1_mlp_simclrhn_probe3,1,348,NaN,bird,bird,1,0348_hp_dnn_1_bird_10_n02027492_4897.png,n02027492_4897.png,1.0,1.4901545,0.4838906,0.7115361
alexnet_w1_mlp_simclrhn_probe3,1,349,NaN,bicycle,keyboard,3,0349_hp_dnn_3_keyboard_10_n03085013_23776.png,n03085013_23776.png,0.0,0.7149294,2.0996194,-0.9791237
alexnet_w1_mlp_simclrhn_probe3,1,350,NaN,truck,car,1.5,0350_hp_dnn_1.5_car_10_n02814533_31493.png,n02814533_31493.png,0.0,0.8978987,1.3088735,-0.2906031
alexnet_w1_mlp_simclrhn_probe3,1,351,NaN,boat,boat,1.5,0351_hp_dnn_1.5_boat_10_n03344393_7631.png,n03344393_7631.png,1.0,1.6392324,0.8242422,0.5762851
alexnet_w1_mlp_simclrhn_probe3,1,352,NaN,clock,bicycle,0.4,0352_hp_dnn_0.4_bicycle_10_n02835271_1261.png,n02835271_1261.png,0.0,-0.008344244,0.5226198,-0.37544826
alexnet_w1_mlp_simclrhn_probe3,1,353,NaN,keyboard,clock,1,0353_hp_dnn_1_clock_10_n03196217_1850.png,n03196217_1850.png,0.0,0.997138,1.0486326,-0.03641218
alexnet_w1_mlp_simclrhn_probe3,1,354,NaN,bear,bear,inf,0354_hp_dnn_inf_bear_10_n02132136_22387.png,n02132136_22387.png,1.0,3.344729,1.6193314,1.2200403
alexnet_w1_mlp_simclrhn_probe3,1,355,NaN,airplane,airplane,1.5,0355_hp_dnn_1.5_airplane_10_n02690373_2316.png,n02690373_2316.png,1.0,1.4266769,1.0144577,0.29148299
alexnet_w1_mlp_simclrhn_probe3,1,356,NaN,knife,cat,0.7,0356_hp_dnn_0.7_cat_10_n02123597_3634.png,n02123597_3634.png,0.0,-0.0059079775,0.3837031,-0.27549666
alexnet_w1_mlp_simclrhn_probe3,1,357,NaN,knife,bird,0.45,0357_hp_dnn_0.45_bird_10_n02018207_4151.png,n02018207_4151.png,0.0,-0.02187307,0.510826,-0.37667513
alexnet_w1_mlp_simclrhn_probe3,1,358,NaN,clock,knife,0.7,0358_hp_dnn_0.7_knife_10_n03041632_94155.png,n03041632_94155.png,0.0,0.28991443,0.43293884,-0.10113353
alexnet_w1_mlp_simclrhn_probe3,1,359,NaN,clock,bottle,0.45,0359_hp_dnn_0.45_bottle_10_n04560804_7509.png,n04560804_7509.png,0.0,0.26464334,0.7024429,-0.30957103
alexnet_w1_mlp_simclrhn_probe3,1,360,NaN,clock,cat,0.4,0360_hp_dnn_0.4_cat_10_n02123045_12748.png,n02123045_12748.png,0.0,0.06386036,0.37638006,-0.2209848
alexnet_w1_mlp_simclrhn_probe3,1,361,NaN,clock,elephant,0.7,0361_hp_dnn_0.7_elephant_10_n02504013_6.png,n02504013_6.png,0.0,-0.16741166,0.5379254,-0.49874863
alexnet_w1_mlp_simclrhn_probe3,1,362,NaN,clock,elephant,0.4,0362_hp_dnn_0.4_elephant_10_n02504013_1492.png,n02504013_1492.png,0.0,-0.18237981,0.4298557,-0.43291593
alexnet_w1_mlp_simclrhn_probe3,1,363,NaN,knife,dog,0.4,0363_hp_dnn_0.4_dog_10_n02107142_27162.png,n02107142_27162.png,0.0,-0.099640526,0.30732414,-0.28776747
alexnet_w1_mlp_simclrhn_probe3,1,364,NaN,knife,bear,0.7,0364_hp_dnn_0.7_bear_10_n02134418_962.png,n02134418_962.png,0.0,-0.07823019,0.40538976,-0.34197095
alexnet_w1_mlp_simclrhn_probe3,1,365,NaN,clock,truck,0.7,0365_hp_dnn_0.7_truck_10_n03417042_9693.png,n03417042_9693.png,0.0,0.4036036,0.88350207,-0.33933946
alexnet_w1_mlp_simclrhn_probe3,1,366,NaN,knife,oven,1,0366_hp_dnn_1_oven_10_n04111531_2116.png,n04111531_2116.png,0.0,0.3501802,0.5399304,-0.13417365
alexnet_w1_mlp_simclrhn_probe3,1,367,NaN,keyboard,keyboard,inf,0367_hp_dnn_inf_keyboard_10_n03085013_20460.png,n03085013_20460.png,1.0,1.7995961,0.7799778,0.72097903
alexnet_w1_mlp_simclrhn_probe3,1,368,NaN,knife,bird,0.45,0368_hp_dnn_0.45_bird_10_n01796340_6191.png,n01796340_6191.png,0.0,-0.11839623,0.40563828,-0.37054837
alexnet_w1_mlp_simclrhn_probe3,1,369,NaN,oven,oven,1.5,0369_hp_dnn_1.5_oven_10_n04111531_8046.png,n04111531_8046.png,1.0,1.1544709,0.7725333,0.2700707
alexnet_w1_mlp_simclrhn_probe3,1,370,NaN,knife,boat,0.45,0370_hp_dnn_0.45_boat_10_n03344393_11788.png,n03344393_11788.png,0.0,-0.081221245,0.6559926,-0.52128893
alexnet_w1_mlp_simclrhn_probe3,1,371,NaN,cat,cat,inf,0371_hp_dnn_inf_cat_10_n02123394_2765.png,n02123394_2765.png,1.0,3.2718556,0.46813357,1.9825308
alexnet_w1_mlp_simclrhn_probe3,1,372,NaN,clock,bicycle,0.4,0372_hp_dnn_0.4_bicycle_10_n03792782_26834.png,n03792782_26834.png,0.0,0.25408527,0.6524177,-0.28166357
alexnet_w1_mlp_simclrhn_probe3,1,373,NaN,clock,cat,1.5,0373_hp_dnn_1.5_cat_10_n02125311_37036.png,n02125311_37036.png,0.0,-0.11436763,0.25871035,-0.263806
alexnet_w1_mlp_simclrhn_probe3,1,374,NaN,knife,bicycle,0.7,0374_hp_dnn_0.7_bicycle_10_n03792782_4067.png,n03792782_4067.png,0.0,0.028522115,0.44494247,-0.29445368
alexnet_w1_mlp_simclrhn_probe3,1,375,NaN,bear,bear,inf,0375_hp_dnn_inf_bear_10_n02134418_3886.png,n02134418_3886.png,1.0,5.1321588,4.9239864,0.14720006
alexnet_w1_mlp_simclrhn_probe3,1,376,NaN,clock,dog,0.7,0376_hp_dnn_0.7_dog_10_n02110185_9014.png,n02110185_9014.png,0.0,-0.23647767,1.0041205,-0.8772354
alexnet_w1_mlp_simclrhn_probe3,1,377,NaN,oven,bear,inf,0377_hp_dnn_inf_bear_10_n02134084_14888.png,n02134084_14888.png,0.0,1.7569492,3.1110756,-0.957512
alexnet_w1_mlp_simclrhn_probe3,1,378,NaN,clock,truck,1.5,0378_hp_dnn_1.5_truck_10_n03417042_5249.png,n03417042_5249.png,0.0,-0.39790705,1.0481229,-1.0224975
alexnet_w1_mlp_simclrhn_probe3,1,379,NaN,oven,oven,1,0379_hp_dnn_1_oven_10_n04111531_10711.png,n04111531_10711.png,1.0,0.2534037,0.2409165,0.008829775
alexnet_w1_mlp_simclrhn_probe3,1,380,NaN,car,car,1.5,0380_hp_dnn_1.5_car_10_n04285008_15271.png,n04285008_15271.png,1.0,1.1609309,1.0569701,0.073511355
alexnet_w1_mlp_simclrhn_probe3,1,381,NaN,knife,cat,0.45,0381_hp_dnn_0.45_cat_10_n02123597_12232.png,n02123597_12232.png,0.0,-0.009907415,0.49092022,-0.3541386
alexnet_w1_mlp_simclrhn_probe3,1,382,NaN,chair,clock,3,0382_hp_dnn_3_clock_10_n04548280_8083.png,n04548280_8083.png,0.0,0.5105499,1.5384922,-0.726865
alexnet_w1_mlp_simclrhn_probe3,1,383,NaN,knife,chair,0.45,0383_hp_dnn_0.45_chair_10_n04099969_8946.png,n04099969_8946.png,0.0,0.33527344,0.6293238,-0.20792499
alexnet_w1_mlp_simclrhn_probe3,1,384,NaN,knife,keyboard,0.7,0384_hp_dnn_0.7_keyboard_10_n03085013_21973.png,n03085013_21973.png,0.0,-0.14297369,0.56232065,-0.49871844
alexnet_w1_mlp_simclrhn_probe3,1,385,NaN,knife,bottle,0.7,0385_hp_dnn_0.7_bottle_10_n04560804_15225.png,n04560804_15225.png,0.0,-0.05232838,0.51755005,-0.40296492
alexnet_w1_mlp_simclrhn_probe3,1,386,NaN,cat,cat,inf,0386_hp_dnn_inf_cat_10_n02123045_10395.png,n02123045_10395.png,1.0,10.931992,1.4835935,6.681027
alexnet_w1_mlp_simclrhn_probe3,1,387,NaN,knife,truck,0.45,0387_hp_dnn_0.45_truck_10_n03417042_4188.png,n03417042_4188.png,0.0,-0.21027142,0.46700472,-0.47890654
alexnet_w1_mlp_simclrhn_probe3,1,388,NaN,keyboard,keyboard,1.5,0388_hp_dnn_1.5_keyboard_10_n03085013_21615.png,n03085013_21615.png,1.0,6.214205,0.73324543,3.8756237
alexnet_w1_mlp_simclrhn_probe3,1,389,NaN,knife,knife,inf,0389_hp_dnn_inf_knife_10_n03041632_26989.png,n03041632_26989.png,1.0,1.7648685,0.62387925,0.80680126
alexnet_w1_mlp_simclrhn_probe3,1,390,NaN,airplane,airplane,0.55,0390_hp_dnn_0.55_airplane_10_n02690373_16986.png,n02690373_16986.png,1.0,0.8298386,0.52247053,0.21734203
alexnet_w1_mlp_simclrhn_probe3,1,391,NaN,bicycle,bicycle,inf,0391_hp_dnn_inf_bicycle_10_n02835271_9067.png,n02835271_9067.png,1.0,15.5635,1.9335861,9.637805
alexnet_w1_mlp_simclrhn_probe3,1,392,NaN,knife,dog,0.45,0392_hp_dnn_0.45_dog_10_n02106382_9188.png,n02106382_9188.png,0.0,-0.16773193,0.36322573,-0.37544376
alexnet_w1_mlp_simclrhn_probe3,1,393,NaN,boat,boat,inf,0393_hp_dnn_inf_boat_10_n02951358_3205.png,n02951358_3205.png,1.0,7.298575,2.7205348,3.2371633
alexnet_w1_mlp_simclrhn_probe3,1,394,NaN,clock,knife,0.4,0394_hp_dnn_0.4_knife_10_n03041632_45270.png,n03041632_45270.png,0.0,0.30478972,0.40821436,-0.07313226
alexnet_w1_mlp_simclrhn_probe3,1,395,NaN,car,car,inf,0395_hp_dnn_inf_car_10_n03100240_6376.png,n03100240_6376.png,1.0,4.42775,2.3091972,1.4980432
alexnet_w1_mlp_simclrhn_probe3,1,396,NaN,truck,truck,1,0396_hp_dnn_1_truck_10_n03796401_430.png,n03796401_430.png,1.0,1.7745066,0.7048028,0.75639486
alexnet_w1_mlp_simclrhn_probe3,1,397,NaN,clock,knife,0.7,0397_hp_dnn_0.7_knife_10_n03041632_24181.png,n03041632_24181.png,0.0,0.33398214,0.3454899,-0.0081372075
alexnet_w1_mlp_simclrhn_probe3,1,398,NaN,knife,bear,1,0398_hp_dnn_1_bear_10_n02134084_16190.png,n02134084_16190.png,0.0,-0.19420895,0.2950058,-0.34592706
alexnet_w1_mlp_simclrhn_probe3,1,399,NaN,clock,bear,0.55,0399_hp_dnn_0.55_bear_10_n02132136_7253.png,n02132136_7253.png,0.0,-0.08862642,0.7039829,-0.56045943
alexnet_w1_mlp_simclrhn_probe3,1,400,NaN,chair,boat,1,0400_hp_dnn_1_boat_10_n03662601_34676.png,n03662601_34676.png,0.0,-0.08061011,0.5597235,-0.45278424
alexnet_w1_mlp_simclrhn_probe3,1,401,NaN,clock,knife,0.55,0401_hp_dnn_0.55_knife_10_n03041632_81471.png,n03041632_81471.png,0.0,0.14811692,0.8686228,-0.5094746
alexnet_w1_mlp_simclrhn_probe3,1,402,NaN,clock,cat,0.7,0402_hp_dnn_0.7_cat_10_n02123597_3822.png,n02123597_3822.png,0.0,-0.030597134,0.6061436,-0.4502437
alexnet_w1_mlp_simclrhn_probe3,1,403,NaN,keyboard,keyboard,1.5,0403_hp_dnn_1.5_keyboard_10_n03085013_4823.png,n03085013_4823.png,1.0,2.889279,1.1711618,1.2148923
alexnet_w1_mlp_simclrhn_probe3,1,404,NaN,knife,dog,0.4,0404_hp_dnn_0.4_dog_10_n02108551_8385.png,n02108551_8385.png,0.0,-0.124898255,0.48505473,-0.4313019
alexnet_w1_mlp_simclrhn_probe3,1,405,NaN,clock,cat,0.7,0405_hp_dnn_0.7_cat_10_n02124075_8732.png,n02124075_8732.png,0.0,0.21204256,0.34195492,-0.09186191
alexnet_w1_mlp_simclrhn_probe3,1,406,NaN,bicycle,dog,3,0406_hp_dnn_3_dog_10_n02093428_17625.png,n02093428_17625.png,0.0,-0.287445,1.1679261,-1.0291028
alexnet_w1_mlp_simclrhn_probe3,1,407,NaN,car,chair,inf,0407_hp_dnn_inf_chair_10_n02791124_6999.png,n02791124_6999.png,0.0,2.3163702,3.2950287,-0.692016
alexnet_w1_mlp_simclrhn_probe3,1,408,NaN,bird,bird,3,0408_hp_dnn_3_bird_10_n02028035_521.png,n02028035_521.png,1.0,1.0143228,0.8882068,0.08917747
alexnet_w1_mlp_simclrhn_probe3,1,409,NaN,knife,truck,0.4,0409_hp_dnn_0.4_truck_10_n03417042_750.png,n03417042_750.png,0.0,-0.25659698,0.63682985,-0.6317482
alexnet_w1_mlp_simclrhn_probe3,1,410,NaN,airplane,airplane,inf,0410_hp_dnn_inf_airplane_10_n02690373_5779.png,n02690373_5779.png,1.0,8.775172,3.9829807,3.388591
alexnet_w1_mlp_simclrhn_probe3,1,411,NaN,cat,cat,1.5,0411_hp_dnn_1.5_cat_10_n02123045_7154.png,n02123045_7154.png,1.0,0.22909705,0.20006387,0.02052956
alexnet_w1_mlp_simclrhn_probe3,1,412,NaN,bottle,bottle,1.5,0412_hp_dnn_1.5_bottle_10_n04591713_6958.png,n04591713_6958.png,1.0,2.4115949,0.7949246,1.1431586
alexnet_w1_mlp_simclrhn_probe3,1,413,NaN,bird,bird,1.5,0413_hp_dnn_1.5_bird_10_n01818515_42621.png,n01818515_42621.png,1.0,0.14812066,0.124617994,0.016618893
alexnet_w1_mlp_simclrhn_probe3,1,414,NaN,truck,truck,inf,0414_hp_dnn_inf_truck_10_n03796401_1330.png,n03796401_1330.png,1.0,4.9394345,4.279251,0.46682018
alexnet_w1_mlp_simclrhn_probe3,1,415,NaN,chair,bird,1.5,0415_hp_dnn_1.5_bird_10_n01843065_6365.png,n01843065_6365.png,0.0,0.23070896,0.39816803,-0.118411444
alexnet_w1_mlp_simclrhn_probe3,1,416,NaN,bottle,bottle,1.5,0416_hp_dnn_1.5_bottle_10_n03983396_11898.png,n03983396_11898.png,1.0,0.37395626,0.34352684,0.021516852
alexnet_w1_mlp_simclrhn_probe3,1,417,NaN,bird,bird,3,0417_hp_dnn_3_bird_10_n01530575_3831.png,n01530575_3831.png,1.0,1.1052951,0.2900504,0.5764651
alexnet_w1_mlp_simclrhn_probe3,1,418,NaN,knife,bottle,0.4,0418_hp_dnn_0.4_bottle_10_n03983396_8837.png,n03983396_8837.png,0.0,0.5270154,0.6288677,-0.07202045
alexnet_w1_mlp_simclrhn_probe3,1,419,NaN,truck,car,0.7,0419_hp_dnn_0.7_car_10_n02814533_90798.png,n02814533_90798.png,0.0,1.682466,1.8075454,-0.088444486
alexnet_w1_mlp_simclrhn_probe3,1,420,NaN,bird,bird,3,0420_hp_dnn_3_bird_10_n01819313_3440.png,n01819313_3440.png,1.0,1.4607359,0.3421234,0.7909785
alexnet_w1_mlp_simclrhn_probe3,1,421,NaN,knife,dog,0.55,0421_hp_dnn_0.55_dog_10_n02090721_4433.png,n02090721_4433.png,0.0,-0.16558397,0.498623,-0.46966526
alexnet_w1_mlp_simclrhn_probe3,1,422,NaN,elephant,elephant,3,0422_hp_dnn_3_elephant_10_n02504013_9566.png,n02504013_9566.png,1.0,0.631217,0.5616184,0.049213655
alexnet_w1_mlp_simclrhn_probe3,1,423,NaN,cat,dog,1.5,0423_hp_dnn_1.5_dog_10_n02105251_6599.png,n02105251_6599.png,0.0,-0.17765357,0.2605348,-0.30984598
alexnet_w1_mlp_simclrhn_probe3,1,424,NaN,clock,chair,0.7,0424_hp_dnn_0.7_chair_10_n02791124_5759.png,n02791124_5759.png,0.0,0.4178331,0.7588603,-0.24114265
alexnet_w1_mlp_simclrhn_probe3,1,425,NaN,elephant,elephant,inf,0425_hp_dnn_inf_elephant_10_n02504458_150.png,n02504458_150.png,1.0,3.637805,1.0640787,1.8198993
alexnet_w1_mlp_simclrhn_probe3,1,426,NaN,clock,clock,0.45,0426_hp_dnn_0.45_clock_10_n04548280_10040.png,n04548280_10040.png,1.0,1.5503243,0.24611017,0.9222187
alexnet_w1_mlp_simclrhn_probe3,1,427,NaN,knife,elephant,0.7,0427_hp_dnn_0.7_elephant_10_n02504458_155.png,n02504458_155.png,0.0,-0.25505835,0.58756256,-0.595823
alexnet_w1_mlp_simclrhn_probe3,1,428,NaN,knife,knife,1,0428_hp_dnn_1_knife_10_n03041632_48062.png,n03041632_48062.png,1.0,0.8292736,0.6459029,0.12966268
alexnet_w1_mlp_simclrhn_probe3,1,429,NaN,airplane,truck,1.5,0429_hp_dnn_1.5_truck_10_n04467665_40361.png,n04467665_40361.png,0.0,1.3000547,2.5412707,-0.8776723
alexnet_w1_mlp_simclrhn_probe3,1,430,NaN,knife,bird,0.45,0430_hp_dnn_0.45_bird_10_n01614925_7608.png,n01614925_7608.png,0.0,-0.047119636,0.50480175,-0.39026734
alexnet_w1_mlp_simclrhn_probe3,1,431,NaN,knife,bear,0.45,0431_hp_dnn_0.45_bear_10_n02133161_2749.png,n02133161_2749.png,0.0,-0.110397354,0.4328181,-0.38411134
alexnet_w1_mlp_simclrhn_probe3,1,432,NaN,chair,boat,0.55,0432_hp_dnn_0.55_boat_10_n04612504_654.png,n04612504_654.png,0.0,0.36639485,0.6275975,-0.18469818
alexnet_w1_mlp_simclrhn_probe3,1,433,NaN,bottle,bottle,1,0433_hp_dnn_1_bottle_10_n04579145_287.png,n04579145_287.png,1.0,2.2905204,1.2797416,0.71472853
alexnet_w1_mlp_simclrhn_probe3,1,434,NaN,bird,bear,3,0434_hp_dnn_3_bear_10_n02133161_1423.png,n02133161_1423.png,0.0,-0.51001805,0.459779,-0.68575007
alexnet_w1_mlp_simclrhn_probe3,1,435,NaN,bicycle,bicycle,0.7,0435_hp_dnn_0.7_bicycle_10_n02835271_4656.png,n02835271_4656.png,1.0,0.82647,0.72840756,0.06934063
alexnet_w1_mlp_simclrhn_probe3,1,436,NaN,clock,clock,0.7,0436_hp_dnn_0.7_clock_10_n02708093_3688.png,n02708093_3688.png,1.0,1.2611667,0.51400816,0.52832085
alexnet_w1_mlp_simclrhn_probe3,1,437,NaN,airplane,airplane,inf,0437_hp_dnn_inf_airplane_10_n02690373_10278.png,n02690373_10278.png,1.0,2.4666412,1.0707191,0.987066
alexnet_w1_mlp_simclrhn_probe3,1,438,NaN,knife,car,0.4,0438_hp_dnn_0.4_car_10_n04285008_11133.png,n04285008_11133.png,0.0,-0.38685858,0.48088503,-0.6135874
alexnet_w1_mlp_simclrhn_probe3,1,439,NaN,knife,knife,1,0439_hp_dnn_1_knife_10_n03041632_4214.png,n03041632_4214.png,1.0,0.5723885,0.393065,0.12680088
alexnet_w1_mlp_simclrhn_probe3,1,440,NaN,oven,oven,inf,0440_hp_dnn_inf_oven_10_n04111531_7741.png,n04111531_7741.png,1.0,1.6580694,1.6459074,0.008599812
alexnet_w1_mlp_simclrhn_probe3,1,441,NaN,bicycle,bicycle,3,0441_hp_dnn_3_bicycle_10_n03792782_4472.png,n03792782_4472.png,1.0,5.561467,1.1489977,3.1200871
alexnet_w1_mlp_simclrhn_probe3,1,442,NaN,clock,bird,0.7,0442_hp_dnn_0.7_bird_10_n01798484_18666.png,n01798484_18666.png,0.0,-0.20190716,0.32840237,-0.3749855
alexnet_w1_mlp_simclrhn_probe3,1,443,NaN,keyboard,keyboard,1.5,0443_hp_dnn_1.5_keyboard_10_n04505470_5059.png,n04505470_5059.png,1.0,1.2503388,0.7357301,0.3638833
alexnet_w1_mlp_simclrhn_probe3,1,444,NaN,knife,elephant,0.55,0444_hp_dnn_0.55_elephant_10_n02504013_2369.png,n02504013_2369.png,0.0,-0.2374761,0.40851116,-0.45678198
alexnet_w1_mlp_simclrhn_probe3,1,445,NaN,chair,bottle,3,0445_hp_dnn_3_bottle_10_n02823428_10796.png,n02823428_10796.png,0.0,0.21213254,1.0867007,-0.61841303
alexnet_w1_mlp_simclrhn_probe3,1,446,NaN,bicycle,oven,3,0446_hp_dnn_3_oven_10_n04111531_4421.png,n04111531_4421.png,0.0,0.24332297,0.4231828,-0.1271801
alexnet_w1_mlp_simclrhn_probe3,1,447,NaN,bicycle,bicycle,inf,0447_hp_dnn_inf_bicycle_10_n02835271_7303.png,n02835271_7303.png,1.0,16.025888,2.0567803,9.877651
alexnet_w1_mlp_simclrhn_probe3,1,448,NaN,chair,chair,inf,0448_hp_dnn_inf_chair_10_n02791124_7877.png,n02791124_7877.png,1.0,2.3809025,1.0457145,0.9441205
alexnet_w1_mlp_simclrhn_probe3,1,449,NaN,clock,bottle,1.5,0449_hp_dnn_1.5_bottle_10_n04560804_12099.png,n04560804_12099.png,0.0,-0.06458334,0.79347014,-0.60673547
alexnet_w1_mlp_simclrhn_probe3,1,450,NaN,boat,boat,1,0450_hp_dnn_1_boat_10_n03662601_18924.png,n03662601_18924.png,1.0,1.8564711,1.7147827,0.10018879
alexnet_w1_mlp_simclrhn_probe3,1,451,NaN,knife,bottle,1,0451_hp_dnn_1_bottle_10_n04591713_4206.png,n04591713_4206.png,0.0,0.40530965,0.52390486,-0.08385948
alexnet_w1_mlp_simclrhn_probe3,1,452,NaN,clock,clock,0.55,0452_hp_dnn_0.55_clock_10_n04548280_6689.png,n04548280_6689.png,1.0,0.8827913,0.30260527,0.41025347
alexnet_w1_mlp_simclrhn_probe3,1,453,NaN,knife,dog,0.4,0453_hp_dnn_0.4_dog_10_n02090721_5305.png,n02090721_5305.png,0.0,-0.12114011,0.40202487,-0.36993352
alexnet_w1_mlp_simclrhn_probe3,1,454,NaN,knife,clock,0.7,0454_hp_dnn_0.7_clock_10_n03196217_1746.png,n03196217_1746.png,0.0,0.36065033,0.5880957,-0.16082819
alexnet_w1_mlp_simclrhn_probe3,1,455,NaN,keyboard,keyboard,3,0455_hp_dnn_3_keyboard_10_n04505470_7721.png,n04505470_7721.png,1.0,2.9135287,0.6224949,1.6200055
alexnet_w1_mlp_simclrhn_probe3,1,456,NaN,clock,clock,0.55,0456_hp_dnn_0.55_clock_10_n04548280_3248.png,n04548280_3248.png,1.0,0.9415808,0.28167975,0.4666205
alexnet_w1_mlp_simclrhn_probe3,1,457,NaN,bird,bird,inf,0457_hp_dnn_inf_bird_10_n01534433_28009.png,n01534433_28009.png,1.0,3.5099962,1.4125831,1.483095
alexnet_w1_mlp_simclrhn_probe3,1,458,NaN,knife,chair,0.4,0458_hp_dnn_0.4_chair_10_n04099969_142.png,n04099969_142.png,0.0,0.12812504,0.44526255,-0.2242501
alexnet_w1_mlp_simclrhn_probe3,1,459,NaN,clock,bicycle,0.55,0459_hp_dnn_0.55_bicycle_10_n03792782_7092.png,n03792782_7092.png,0.0,0.41518202,0.8121812,-0.2807208
alexnet_w1_mlp_simclrhn_probe3,1,460,NaN,knife,keyboard,0.45,0460_hp_dnn_0.45_keyboard_10_n03085013_25559.png,n03085013_25559.png,0.0,-0.032210216,0.4366988,-0.33156875
alexnet_w1_mlp_simclrhn_probe3,1,461,NaN,knife,elephant,0.7,0461_hp_dnn_0.7_elephant_10_n02504013_9144.png,n02504013_9144.png,0.0,-0.097412795,0.40965596,-0.35855177
alexnet_w1_mlp_simclrhn_probe3,1,462,NaN,clock,clock,0.45,0462_hp_dnn_0.45_clock_10_n03196217_2003.png,n03196217_2003.png,1.0,0.60313034,0.47582108,0.090021245
alexnet_w1_mlp_simclrhn_probe3,1,463,NaN,knife,elephant,1,0463_hp_dnn_1_elephant_10_n02504013_3169.png,n02504013_3169.png,0.0,0.014956454,0.37781656,-0.25658086
alexnet_w1_mlp_simclrhn_probe3,1,464,NaN,knife,dog,0.55,0464_hp_dnn_0.55_dog_10_n02089867_6424.png,n02089867_6424.png,0.0,-0.16466933,0.3281361,-0.34846607
alexnet_w1_mlp_simclrhn_probe3,1,465,NaN,clock,keyboard,1,0465_hp_dnn_1_keyboard_10_n03085013_22494.png,n03085013_22494.png,0.0,0.1878424,1.1593665,-0.6869713
alexnet_w1_mlp_simclrhn_probe3,1,466,NaN,knife,dog,0.4,0466_hp_dnn_0.4_dog_10_n02106662_37555.png,n02106662_37555.png,0.0,-0.099539116,0.45914686,-0.39505064
alexnet_w1_mlp_simclrhn_probe3,1,467,NaN,clock,car,0.55,0467_hp_dnn_0.55_car_10_n02814533_4726.png,n02814533_4726.png,0.0,0.15810068,0.82620734,-0.47242278
alexnet_w1_mlp_simclrhn_probe3,1,468,NaN,knife,elephant,0.45,0468_hp_dnn_0.45_elephant_10_n02504458_1473.png,n02504458_1473.png,0.0,-0.15171872,0.47171304,-0.44083282
alexnet_w1_mlp_simclrhn_probe3,1,469,NaN,knife,bottle,0.55,0469_hp_dnn_0.55_bottle_10_n04557648_3350.png,n04557648_3350.png,0.0,0.23215966,0.54641986,-0.22221552
alexnet_w1_mlp_simclrhn_probe3,1,470,NaN,knife,knife,0.4,0470_hp_dnn_0.4_knife_10_n03041632_31909.png,n03041632_31909.png,1.0,0.53170073,0.48054138,0.036175124
alexnet_w1_mlp_simclrhn_probe3,1,471,NaN,knife,truck,0.4,0471_hp_dnn_0.4_truck_10_n04467665_70880.png,n04467665_70880.png,0.0,-0.2326961,0.46958187,-0.49658552
alexnet_w1_mlp_simclrhn_probe3,1,472,NaN,clock,dog,0.45,0472_hp_dnn_0.45_dog_10_n02097209_7557.png,n02097209_7557.png,0.0,-0.13707972,0.36756435,-0.3568372
alexnet_w1_mlp_simclrhn_probe3,1,473,NaN,oven,oven,1,0473_hp_dnn_1_oven_10_n04111531_4438.png,n04111531_4438.png,1.0,1.5953782,0.61852026,0.69074285
alexnet_w1_mlp_simclrhn_probe3,1,474,NaN,knife,airplane,0.7,0474_hp_dnn_0.7_airplane_10_n02690373_194.png,n02690373_194.png,0.0,0.5862012,0.5957657,-0.0067631365
alexnet_w1_mlp_simclrhn_probe3,1,475,NaN,bicycle,bicycle,1.5,0475_hp_dnn_1.5_bicycle_10_n02835271_6953.png,n02835271_6953.png,1.0,1.0099694,0.81278515,0.13943028
alexnet_w1_mlp_simclrhn_probe3,1,476,NaN,clock,oven,0.45,0476_hp_dnn_0.45_oven_10_n04111531_14435.png,n04111531_14435.png,0.0,-0.08561905,0.4410468,-0.37240902
alexnet_w1_mlp_simclrhn_probe3,1,477,NaN,bicycle,elephant,1.5,0477_hp_dnn_1.5_elephant_10_n02504013_5192.png,n02504013_5192.png,0.0,-0.35666567,0.47001034,-0.58454823
alexnet_w1_mlp_simclrhn_probe3,1,478,NaN,chair,chair,0.7,0478_hp_dnn_0.7_chair_10_n03376595_3566.png,n03376595_3566.png,1.0,0.68493026,0.6061829,0.055682816
alexnet_w1_mlp_simclrhn_probe3,1,479,NaN,bottle,truck,1,0479_hp_dnn_1_truck_10_n03417042_22709.png,n03417042_22709.png,0.0,-0.122798525,0.4441634,-0.40090263
alexnet_w1_mlp_simclrhn_probe3,1,480,NaN,keyboard,keyboard,inf,0480_hp_dnn_inf_keyboard_10_n04505470_4603.png,n04505470_4603.png,1.0,8.644842,7.6169944,0.7267981
alexnet_w1_mlp_simclrhn_probe3,1,481,NaN,clock,car,0.55,0481_hp_dnn_0.55_car_10_n03100240_1794.png,n03100240_1794.png,0.0,0.1247195,0.72660184,-0.4255951
alexnet_w1_mlp_simclrhn_probe3,1,482,NaN,knife,elephant,0.7,0482_hp_dnn_0.7_elephant_10_n02504458_1233.png,n02504458_1233.png,0.0,-0.08737537,0.3772613,-0.32854775
alexnet_w1_mlp_simclrhn_probe3,1,483,NaN,knife,airplane,0.45,0483_hp_dnn_0.45_airplane_10_n02690373_3047.png,n02690373_3047.png,0.0,0.29888582,0.66876274,-0.26154247
alexnet_w1_mlp_simclrhn_probe3,1,484,NaN,knife,elephant,0.55,0484_hp_dnn_0.55_elephant_10_n02504013_7422.png,n02504013_7422.png,0.0,-0.16066417,0.44342053,-0.42715243
alexnet_w1_mlp_simclrhn_probe3,1,485,NaN,clock,bicycle,0.45,0485_hp_dnn_0.45_bicycle_10_n03792782_16034.png,n03792782_16034.png,0.0,0.051239863,0.4462885,-0.27934155
alexnet_w1_mlp_simclrhn_probe3,1,486,NaN,bicycle,bicycle,3,0486_hp_dnn_3_bicycle_10_n02835271_11922.png,n02835271_11922.png,1.0,2.430983,1.453739,0.6910159
alexnet_w1_mlp_simclrhn_probe3,1,487,NaN,clock,truck,0.7,0487_hp_dnn_0.7_truck_10_n03796401_6526.png,n03796401_6526.png,0.0,0.018467527,0.95918685,-0.665189
alexnet_w1_mlp_simclrhn_probe3,1,488,NaN,boat,boat,3,0488_hp_dnn_3_boat_10_n03662601_1834.png,n03662601_1834.png,1.0,3.1352067,0.59700924,1.7947767
alexnet_w1_mlp_simclrhn_probe3,1,489,NaN,knife,dog,0.7,0489_hp_dnn_0.7_dog_10_n02100236_619.png,n02100236_619.png,0.0,-0.20447567,0.18780848,-0.27738678
alexnet_w1_mlp_simclrhn_probe3,1,490,NaN,knife,truck,0.45,0490_hp_dnn_0.45_truck_10_n04467665_21266.png,n04467665_21266.png,0.0,-0.2356861,0.57836264,-0.5756194
alexnet_w1_mlp_simclrhn_probe3,1,491,NaN,chair,chair,0.55,0491_hp_dnn_0.55_chair_10_n04099969_18220.png,n04099969_18220.png,1.0,0.5798401,0.5537618,0.018440174
alexnet_w1_mlp_simclrhn_probe3,1,492,NaN,keyboard,keyboard,1.5,0492_hp_dnn_1.5_keyboard_10_n03085013_4157.png,n03085013_4157.png,1.0,2.5078707,1.1783578,0.9401076
alexnet_w1_mlp_simclrhn_probe3,1,493,NaN,clock,bicycle,0.4,0493_hp_dnn_0.4_bicycle_10_n03792782_1276.png,n03792782_1276.png,0.0,-0.1986689,0.40423954,-0.42632064
alexnet_w1_mlp_simclrhn_probe3,1,494,NaN,boat,boat,3,0494_hp_dnn_3_boat_10_n03344393_1987.png,n03344393_1987.png,1.0,4.0184717,2.7764106,0.87826985
alexnet_w1_mlp_simclrhn_probe3,1,495,NaN,airplane,boat,0.45,0495_hp_dnn_0.45_boat_10_n03344393_381.png,n03344393_381.png,0.0,0.22807932,0.44009408,-0.14991708
alexnet_w1_mlp_simclrhn_probe3,1,496,NaN,keyboard,clock,inf,0496_hp_dnn_inf_clock_10_n02708093_8390.png,n02708093_8390.png,0.0,3.6628866,4.3028393,-0.4525149
alexnet_w1_mlp_simclrhn_probe3,1,497,NaN,keyboard,keyboard,0.55,0497_hp_dnn_0.55_keyboard_10_n04505470_1043.png,n04505470_1043.png,1.0,1.557632,0.6942824,0.6104803
alexnet_w1_mlp_simclrhn_probe3,1,498,NaN,knife,dog,0.55,0498_hp_dnn_0.55_dog_10_n02100877_1902.png,n02100877_1902.png,0.0,-0.17907739,0.30921796,-0.34527695
alexnet_w1_mlp_simclrhn_probe3,1,499,NaN,knife,knife,1.5,0499_hp_dnn_1.5_knife_10_n03041632_55083.png,n03041632_55083.png,1.0,0.69045675,0.6269172,0.04492926
alexnet_w1_mlp_simclrhn_probe3,1,500,NaN,chair,truck,1.5,0500_hp_dnn_1.5_truck_10_n04467665_45872.png,n04467665_45872.png,0.0,-0.24983071,1.0452309,-0.91574687
alexnet_w1_mlp_simclrhn_probe3,1,501,NaN,knife,boat,0.7,0501_hp_dnn_0.7_boat_10_n04273569_3244.png,n04273569_3244.png,0.0,-0.016289985,0.5610596,-0.40824783
alexnet_w1_mlp_simclrhn_probe3,1,502,NaN,knife,bear,0.45,0502_hp_dnn_0.45_bear_10_n02134418_2157.png,n02134418_2157.png,0.0,-0.093352325,0.4291002,-0.36942974
alexnet_w1_mlp_simclrhn_probe3,1,503,NaN,bottle,bottle,3,0503_hp_dnn_3_bottle_10_n04591713_17618.png,n04591713_17618.png,1.0,1.6066178,1.2742023,0.23505323
alexnet_w1_mlp_simclrhn_probe3,1,504,NaN,knife,cat,1,0504_hp_dnn_1_cat_10_n02125311_8496.png,n02125311_8496.png,0.0,-0.026922703,0.48104954,-0.3591906
alexnet_w1_mlp_simclrhn_probe3,1,505,NaN,car,car,inf,0505_hp_dnn_inf_car_10_n02814533_3560.png,n02814533_3560.png,1.0,18.520939,16.449036,1.4650569
alexnet_w1_mlp_simclrhn_probe3,1,506,NaN,oven,truck,0.7,0506_hp_dnn_0.7_truck_10_n03417042_751.png,n03417042_751.png,0.0,0.031527314,0.41233712,-0.2692732
alexnet_w1_mlp_simclrhn_probe3,1,507,NaN,chair,keyboard,inf,0507_hp_dnn_inf_keyboard_10_n03085013_23213.png,n03085013_23213.png,0.0,1.3827024,3.0314572,-1.1658458
alexnet_w1_mlp_simclrhn_probe3,1,508,NaN,knife,bicycle,0.4,0508_hp_dnn_0.4_bicycle_10_n03792782_19709.png,n03792782_19709.png,0.0,-0.21914811,0.37729838,-0.42175138
alexnet_w1_mlp_simclrhn_probe3,1,509,NaN,oven,oven,inf,0509_hp_dnn_inf_oven_10_n04111531_3076.png,n04111531_3076.png,1.0,3.0525436,2.4551895,0.4223932
alexnet_w1_mlp_simclrhn_probe3,1,510,NaN,knife,knife,0.4,0510_hp_dnn_0.4_knife_10_n03041632_14774.png,n03041632_14774.png,1.0,0.5457024,0.3525599,0.13657238
alexnet_w1_mlp_simclrhn_probe3,1,511,NaN,car,car,0.7,0511_hp_dnn_0.7_car_10_n03100240_7703.png,n03100240_7703.png,1.0,1.5233617,0.7331769,0.558745
alexnet_w1_mlp_simclrhn_probe3,1,512,NaN,knife,bear,0.55,0512_hp_dnn_0.55_bear_10_n02134084_13434.png,n02134084_13434.png,0.0,-0.1257775,0.4043113,-0.37482938
alexnet_w1_mlp_simclrhn_probe3,1,513,NaN,cat,dog,inf,0513_hp_dnn_inf_dog_10_n02111500_4280.png,n02111500_4280.png,0.0,0.55562466,2.2405474,-1.1914203
alexnet_w1_mlp_simclrhn_probe3,1,514,NaN,knife,bear,0.55,0514_hp_dnn_0.55_bear_10_n02132136_23853.png,n02132136_23853.png,0.0,-0.11157569,0.44397157,-0.39283124
alexnet_w1_mlp_simclrhn_probe3,1,515,NaN,bicycle,bicycle,1.5,0515_hp_dnn_1.5_bicycle_10_n03792782_17193.png,n03792782_17193.png,1.0,0.8138623,0.45248866,0.25552976
alexnet_w1_mlp_simclrhn_probe3,1,516,NaN,clock,dog,1,0516_hp_dnn_1_dog_10_n02102177_5770.png,n02102177_5770.png,0.0,-0.10069145,0.19481654,-0.2089557
alexnet_w1_mlp_simclrhn_probe3,1,517,NaN,elephant,bear,0.7,0517_hp_dnn_0.7_bear_10_n02132136_2279.png,n02132136_2279.png,0.0,0.06571777,0.3525676,-0.20283349
alexnet_w1_mlp_simclrhn_probe3,1,518,NaN,bear,bear,inf,0518_hp_dnn_inf_bear_10_n02134084_6910.png,n02134084_6910.png,1.0,1.8492465,1.8333929,0.011210219
alexnet_w1_mlp_simclrhn_probe3,1,519,NaN,oven,oven,0.7,0519_hp_dnn_0.7_oven_10_n04111531_9041.png,n04111531_9041.png,1.0,1.6148696,0.68705034,0.6560673
alexnet_w1_mlp_simclrhn_probe3,1,520,NaN,knife,cat,1,0520_hp_dnn_1_cat_10_n02123159_5424.png,n02123159_5424.png,0.0,0.12155274,0.5601557,-0.31013912
alexnet_w1_mlp_simclrhn_probe3,1,521,NaN,knife,bicycle,0.45,0521_hp_dnn_0.45_bicycle_10_n02835271_672.png,n02835271_672.png,0.0,-0.13182038,0.3159446,-0.31661767
alexnet_w1_mlp_simclrhn_probe3,1,522,NaN,knife,airplane,0.45,0522_hp_dnn_0.45_airplane_10_n02690373_18111.png,n02690373_18111.png,0.0,0.34536034,0.5220758,-0.12495668
alexnet_w1_mlp_simclrhn_probe3,1,523,NaN,clock,clock,1,0523_hp_dnn_1_clock_10_n04548280_3013.png,n04548280_3013.png,1.0,2.6344388,0.28653055,1.6602219
alexnet_w1_mlp_simclrhn_probe3,1,524,NaN,knife,dog,0.45,0524_hp_dnn_0.45_dog_10_n02094258_4142.png,n02094258_4142.png,0.0,-0.11922871,0.4863163,-0.428185
alexnet_w1_mlp_simclrhn_probe3,1,525,NaN,clock,clock,3,0525_hp_dnn_3_clock_10_n04548280_6919.png,n04548280_6919.png,1.0,5.0708756,0.39363787,3.3073068
alexnet_w1_mlp_simclrhn_probe3,1,526,NaN,knife,cat,0.4,0526_hp_dnn_0.4_cat_10_n02124075_16814.png,n02124075_16814.png,0.0,-0.027128043,0.43768662,-0.3286736
alexnet_w1_mlp_simclrhn_probe3,1,527,NaN,clock,clock,1,0527_hp_dnn_1_clock_10_n04548280_3342.png,n04548280_3342.png,1.0,0.9176728,0.45750618,0.32538694
alexnet_w1_mlp_simclrhn_probe3,1,528,NaN,clock,boat,1,0528_hp_dnn_1_boat_10_n04612504_31680.png,n04612504_31680.png,0.0,0.17399886,0.67926216,-0.35727513
alexnet_w1_mlp_simclrhn_probe3,1,529,NaN,keyboard,keyboard,inf,0529_hp_dnn_inf_keyboard_10_n03085013_7962.png,n03085013_7962.png,1.0,9.694983,1.450959,5.829405
alexnet_w1_mlp_simclrhn_probe3,1,530,NaN,bicycle,bicycle,3,0530_hp_dnn_3_bicycle_10_n02835271_949.png,n02835271_949.png,1.0,5.565135,2.416032,2.226752
alexnet_w1_mlp_simclrhn_probe3,1,531,NaN,keyboard,keyboard,1,0531_hp_dnn_1_keyboard_10_n04505470_4228.png,n04505470_4228.png,1.0,1.1819065,0.8658463,0.2234883
alexnet_w1_mlp_simclrhn_probe3,1,532,NaN,knife,boat,0.7,0532_hp_dnn_0.7_boat_10_n03344393_3219.png,n03344393_3219.png,0.0,-0.0010641754,0.6365953,-0.45089334
alexnet_w1_mlp_simclrhn_probe3,1,533,NaN,chair,elephant,3,0533_hp_dnn_3_elephant_10_n02504458_3399.png,n02504458_3399.png,0.0,-0.3305204,0.83083713,-0.82120377
alexnet_w1_mlp_simclrhn_probe3,1,534,NaN,clock,bird,0.55,0534_hp_dnn_0.55_bird_10_n01616318_12459.png,n01616318_12459.png,0.0,-0.0060989554,0.5365242,-0.38369247
alexnet_w1_mlp_simclrhn_probe3,1,535,NaN,knife,elephant,0.4,0535_hp_dnn_0.4_elephant_10_n02504013_1846.png,n02504013_1846.png,0.0,-0.15791936,0.4076888,-0.39994535
alexnet_w1_mlp_simclrhn_probe3,1,536,NaN,clock,bicycle,0.55,0536_hp_dnn_0.55_bicycle_10_n03792782_5097.png,n03792782_5097.png,0.0,0.092644185,0.62322825,-0.37517962
alexnet_w1_mlp_simclrhn_probe3,1,537,NaN,keyboard,bottle,3,0537_hp_dnn_3_bottle_10_n02823428_5115.png,n02823428_5115.png,0.0,0.35452208,1.287223,-0.65951914
alexnet_w1_mlp_simclrhn_probe3,1,538,NaN,keyboard,keyboard,inf,0538_hp_dnn_inf_keyboard_10_n03085013_21282.png,n03085013_21282.png,1.0,6.3326974,5.059247,0.9004654
alexnet_w1_mlp_simclrhn_probe3,1,539,NaN,knife,oven,0.4,0539_hp_dnn_0.4_oven_10_n04111531_1815.png,n04111531_1815.png,0.0,0.09679165,0.59210557,-0.35023984
alexnet_w1_mlp_simclrhn_probe3,1,540,NaN,clock,chair,1,0540_hp_dnn_1_chair_10_n02791124_5268.png,n02791124_5268.png,0.0,0.23715305,0.34202155,-0.07415323
alexnet_w1_mlp_simclrhn_probe3,1,541,NaN,knife,airplane,0.55,0541_hp_dnn_0.55_airplane_10_n02690373_3035.png,n02690373_3035.png,0.0,0.15674317,0.47779536,-0.22701819
alexnet_w1_mlp_simclrhn_probe3,1,542,NaN,dog,dog,inf,0542_hp_dnn_inf_dog_10_n02107683_1460.png,n02107683_1460.png,1.0,2.9566557,1.9412985,0.717966
alexnet_w1_mlp_simclrhn_probe3,1,543,NaN,boat,boat,inf,0543_hp_dnn_inf_boat_10_n02951358_31813.png,n02951358_31813.png,1.0,6.2053995,3.2895536,2.0618143
alexnet_w1_mlp_simclrhn_probe3,1,544,NaN,knife,bird,0.4,0544_hp_dnn_0.4_bird_10_n01797886_16808.png,n01797886_16808.png,0.0,-0.14600489,0.38363528,-0.3745122
alexnet_w1_mlp_simclrhn_probe3,1,545,NaN,clock,elephant,0.45,0545_hp_dnn_0.45_elephant_10_n02504458_4767.png,n02504458_4767.png,0.0,-0.12153536,0.39891896,-0.36801675
alexnet_w1_mlp_simclrhn_probe3,1,546,NaN,chair,knife,3,0546_hp_dnn_3_knife_10_n03041632_41493.png,n03041632_41493.png,0.0,0.0029060375,1.0155455,-0.7160442
alexnet_w1_mlp_simclrhn_probe3,1,547,NaN,bicycle,elephant,3,0547_hp_dnn_3_elephant_10_n02504458_3329.png,n02504458_3329.png,0.0,-0.04904203,0.8459259,-0.63283795
alexnet_w1_mlp_simclrhn_probe3,1,548,NaN,clock,cat,0.45,0548_hp_dnn_0.45_cat_10_n02124075_12467.png,n02124075_12467.png,0.0,-0.0663143,0.53828895,-0.42751905
alexnet_w1_mlp_simclrhn_probe3,1,549,NaN,clock,truck,0.7,0549_hp_dnn_0.7_truck_10_n03417042_6467.png,n03417042_6467.png,0.0,-0.07449899,0.654412,-0.51541793
alexnet_w1_mlp_simclrhn_probe3,1,550,NaN,airplane,airplane,inf,0550_hp_dnn_inf_airplane_10_n02690373_734.png,n02690373_734.png,1.0,7.3840227,0.61431277,4.786908
alexnet_w1_mlp_simclrhn_probe3,1,551,NaN,knife,car,0.4,0551_hp_dnn_0.4_car_10_n02814533_85296.png,n02814533_85296.png,0.0,-0.3384974,0.5480132,-0.6268577
alexnet_w1_mlp_simclrhn_probe3,1,552,NaN,clock,elephant,0.7,0552_hp_dnn_0.7_elephant_10_n02504013_18005.png,n02504013_18005.png,0.0,-0.13783427,0.5356364,-0.4762157
alexnet_w1_mlp_simclrhn_probe3,1,553,NaN,clock,clock,0.45,0553_hp_dnn_0.45_clock_10_n02708093_1495.png,n02708093_1495.png,1.0,0.72120136,0.259929,0.3261688
alexnet_w1_mlp_simclrhn_probe3,1,554,NaN,clock,car,1.5,0554_hp_dnn_1.5_car_10_n04285008_3462.png,n04285008_3462.png,0.0,0.47872528,0.78931904,-0.21962295
alexnet_w1_mlp_simclrhn_probe3,1,555,NaN,clock,truck,0.4,0555_hp_dnn_0.4_truck_10_n03417042_22297.png,n03417042_22297.png,0.0,-0.18788205,0.51190656,-0.4948253
alexnet_w1_mlp_simclrhn_probe3,1,556,NaN,bicycle,chair,3,0556_hp_dnn_3_chair_10_n04429376_7279.png,n04429376_7279.png,0.0,0.7410681,1.8816781,-0.80653304
alexnet_w1_mlp_simclrhn_probe3,1,557,NaN,bicycle,bicycle,3,0557_hp_dnn_3_bicycle_10_n02835271_6919.png,n02835271_6919.png,1.0,3.9401417,1.3444835,1.8354076
alexnet_w1_mlp_simclrhn_probe3,1,558,NaN,clock,oven,0.55,0558_hp_dnn_0.55_oven_10_n04111531_2260.png,n04111531_2260.png,0.0,1.0840904,1.1366931,-0.037195776
alexnet_w1_mlp_simclrhn_probe3,1,559,NaN,knife,bear,0.7,0559_hp_dnn_0.7_bear_10_n02134084_5794.png,n02134084_5794.png,0.0,-0.17267475,0.45848897,-0.44630015
alexnet_w1_mlp_simclrhn_probe3,1,560,NaN,clock,airplane,0.7,0560_hp_dnn_0.7_airplane_10_n02690373_10397.png,n02690373_10397.png,0.0,0.07196212,0.7735161,-0.4960736
alexnet_w1_mlp_simclrhn_probe3,1,561,NaN,knife,elephant,0.4,0561_hp_dnn_0.4_elephant_10_n02504458_2041.png,n02504458_2041.png,0.0,-0.16885155,0.4559727,-0.4418175
alexnet_w1_mlp_simclrhn_probe3,1,562,NaN,chair,chair,1,0562_hp_dnn_1_chair_10_n04429376_7732.png,n04429376_7732.png,1.0,0.8251611,0.70199364,0.08709254
alexnet_w1_mlp_simclrhn_probe3,1,563,NaN,knife,airplane,0.4,0563_hp_dnn_0.4_airplane_10_n02690373_4788.png,n02690373_4788.png,0.0,0.16649339,0.54256517,-0.2659229
alexnet_w1_mlp_simclrhn_probe3,1,564,NaN,clock,dog,0.55,0564_hp_dnn_0.55_dog_10_n02097474_2799.png,n02097474_2799.png,0.0,-0.1625628,0.59746844,-0.53742325
alexnet_w1_mlp_simclrhn_probe3,1,565,NaN,knife,bear,1.5,0565_hp_dnn_1.5_bear_10_n02134084_17849.png,n02134084_17849.png,0.0,-0.18076554,0.45164505,-0.44718182
alexnet_w1_mlp_simclrhn_probe3,1,566,NaN,dog,dog,inf,0566_hp_dnn_inf_dog_10_n02086646_7064.png,n02086646_7064.png,1.0,2.0616522,0.507687,1.0988194
alexnet_w1_mlp_simclrhn_probe3,1,567,NaN,clock,truck,0.55,0567_hp_dnn_0.55_truck_10_n03417042_7061.png,n03417042_7061.png,0.0,-0.07240554,0.77216315,-0.5972002
alexnet_w1_mlp_simclrhn_probe3,1,568,NaN,bicycle,bird,1,0568_hp_dnn_1_bird_10_n01820546_3605.png,n01820546_3605.png,0.0,0.049518954,0.6308598,-0.41107008
alexnet_w1_mlp_simclrhn_probe3,1,569,NaN,knife,bear,0.4,0569_hp_dnn_0.4_bear_10_n02133161_2813.png,n02133161_2813.png,0.0,-0.102145955,0.36832812,-0.3326754
alexnet_w1_mlp_simclrhn_probe3,1,570,NaN,knife,bear,0.45,0570_hp_dnn_0.45_bear_10_n02132136_16636.png,n02132136_16636.png,0.0,-0.09778514,0.49791682,-0.4212249
alexnet_w1_mlp_simclrhn_probe3,1,571,NaN,chair,oven,1.5,0571_hp_dnn_1.5_oven_10_n04111531_14959.png,n04111531_14959.png,0.0,0.762504,1.4129347,-0.45992395
alexnet_w1_mlp_simclrhn_probe3,1,572,NaN,clock,cat,0.45,0572_hp_dnn_0.45_cat_10_n02124075_5453.png,n02124075_5453.png,0.0,0.07854945,0.40548143,-0.23117582
alexnet_w1_mlp_simclrhn_probe3,1,573,NaN,clock,cat,1,0573_hp_dnn_1_cat_10_n02124075_11528.png,n02124075_11528.png,0.0,-0.07193073,0.22197925,-0.20782574
alexnet_w1_mlp_simclrhn_probe3,1,574,NaN,knife,cat,1,0574_hp_dnn_1_cat_10_n02123159_3454.png,n02123159_3454.png,0.0,0.07372718,0.28349742,-0.14832996
alexnet_w1_mlp_simclrhn_probe3,1,575,NaN,knife,bird,0.45,0575_hp_dnn_0.45_bird_10_n02025239_2227.png,n02025239_2227.png,0.0,-0.08346171,0.46792027,-0.38988596
alexnet_w1_mlp_simclrhn_probe3,1,576,NaN,oven,chair,0.7,0576_hp_dnn_0.7_chair_10_n03376595_12256.png,n03376595_12256.png,0.0,0.26952472,0.53298813,-0.18629676
alexnet_w1_mlp_simclrhn_probe3,1,577,NaN,chair,clock,1.5,0577_hp_dnn_1.5_clock_10_n02708093_6591.png,n02708093_6591.png,0.0,1.1494578,1.4180837,-0.18994717
alexnet_w1_mlp_simclrhn_probe3,1,578,NaN,clock,chair,0.55,0578_hp_dnn_0.55_chair_10_n04099969_34144.png,n04099969_34144.png,0.0,0.41961744,0.67800236,-0.18270573
alexnet_w1_mlp_simclrhn_probe3,1,579,NaN,knife,bear,0.55,0579_hp_dnn_0.55_bear_10_n02132136_3563.png,n02132136_3563.png,0.0,-0.038593605,0.2843654,-0.22836651
alexnet_w1_mlp_simclrhn_probe3,1,580,NaN,elephant,elephant,1,0580_hp_dnn_1_elephant_10_n02504013_6671.png,n02504013_6671.png,1.0,0.57118773,0.26533046,0.21627375
alexnet_w1_mlp_simclrhn_probe3,1,581,NaN,clock,keyboard,0.7,0581_hp_dnn_0.7_keyboard_10_n03085013_22067.png,n03085013_22067.png,0.0,0.010025553,0.7615981,-0.53144205
alexnet_w1_mlp_simclrhn_probe3,1,582,NaN,truck,truck,inf,0582_hp_dnn_inf_truck_10_n03796401_1458.png,n03796401_1458.png,1.0,3.608358,2.6012373,0.7121418
alexnet_w1_mlp_simclrhn_probe3,1,583,NaN,clock,bottle,0.45,0583_hp_dnn_0.45_bottle_10_n04591713_807.png,n04591713_807.png,0.0,0.21323004,0.4239726,-0.1490175
alexnet_w1_mlp_simclrhn_probe3,1,584,NaN,clock,car,1,0584_hp_dnn_1_car_10_n02814533_22693.png,n02814533_22693.png,0.0,-0.3562347,0.94695216,-0.9214923
alexnet_w1_mlp_simclrhn_probe3,1,585,NaN,clock,car,0.7,0585_hp_dnn_0.7_car_10_n02814533_5278.png,n02814533_5278.png,0.0,0.0041843154,0.53029436,-0.37201598
alexnet_w1_mlp_simclrhn_probe3,1,586,NaN,airplane,boat,1.5,0586_hp_dnn_1.5_boat_10_n03662601_10240.png,n03662601_10240.png,0.0,1.0803825,1.5812249,-0.3541491
alexnet_w1_mlp_simclrhn_probe3,1,587,NaN,airplane,airplane,inf,0587_hp_dnn_inf_airplane_10_n02690373_9673.png,n02690373_9673.png,1.0,4.5627975,1.5118114,2.1573732
alexnet_w1_mlp_simclrhn_probe3,1,588,NaN,bird,bird,0.7,0588_hp_dnn_0.7_bird_10_n02009229_6029.png,n02009229_6029.png,1.0,1.1428835,0.27517197,0.6135647
alexnet_w1_mlp_simclrhn_probe3,1,589,NaN,clock,clock,0.4,0589_hp_dnn_0.4_clock_10_n02708093_2580.png,n02708093_2580.png,1.0,1.1579849,0.24644956,0.64455277
alexnet_w1_mlp_simclrhn_probe3,1,590,NaN,knife,elephant,0.4,0590_hp_dnn_0.4_elephant_10_n02504013_295.png,n02504013_295.png,0.0,-0.2034424,0.39874625,-0.42581168
alexnet_w1_mlp_simclrhn_probe3,1,591,NaN,clock,car,0.7,0591_hp_dnn_0.7_car_10_n04285008_9893.png,n04285008_9893.png,0.0,0.20826484,0.942503,-0.51918477
alexnet_w1_mlp_simclrhn_probe3,1,592,NaN,chair,chair,1.5,0592_hp_dnn_1.5_chair_10_n03376595_6850.png,n03376595_6850.png,1.0,0.8951639,0.6457689,0.17634891
alexnet_w1_mlp_simclrhn_probe3,1,593,NaN,car,boat,3,0593_hp_dnn_3_boat_10_n03662601_15713.png,n03662601_15713.png,0.0,1.520855,1.900103,-0.26816887
alexnet_w1_mlp_simclrhn_probe3,1,594,NaN,knife,clock,0.4,0594_hp_dnn_0.4_clock_10_n04548280_9867.png,n04548280_9867.png,0.0,0.2562572,0.3719616,-0.08181536
alexnet_w1_mlp_simclrhn_probe3,1,595,NaN,airplane,airplane,1.5,0595_hp_dnn_1.5_airplane_10_n02690373_1450.png,n02690373_1450.png,1.0,1.8422147,0.9618128,0.62253815
alexnet_w1_mlp_simclrhn_probe3,1,596,NaN,knife,bicycle,0.45,0596_hp_dnn_0.45_bicycle_10_n03792782_7787.png,n03792782_7787.png,0.0,-0.126846,0.44282147,-0.40281573
alexnet_w1_mlp_simclrhn_probe3,1,597,NaN,clock,chair,0.45,0597_hp_dnn_0.45_chair_10_n04099969_1219.png,n04099969_1219.png,0.0,0.26006168,0.6309903,-0.26228616
alexnet_w1_mlp_simclrhn_probe3,1,598,NaN,keyboard,keyboard,0.55,0598_hp_dnn_0.55_keyboard_10_n03085013_8325.png,n03085013_8325.png,1.0,1.0096796,0.7015964,0.2178477
alexnet_w1_mlp_simclrhn_probe3,1,599,NaN,chair,bicycle,0.55,0599_hp_dnn_0.55_bicycle_10_n02835271_14732.png,n02835271_14732.png,0.0,0.03409034,0.38159654,-0.245724
alexnet_w1_mlp_simclrhn_probe3,1,600,NaN,oven,airplane,1.5,0600_hp_dnn_1.5_airplane_10_n02690373_4176.png,n02690373_4176.png,0.0,1.0583324,1.3629017,-0.21536298
alexnet_w1_mlp_simclrhn_probe3,1,601,NaN,knife,bird,1,0601_hp_dnn_1_bird_10_n01534433_905.png,n01534433_905.png,0.0,-0.16355166,0.18773514,-0.24839728
alexnet_w1_mlp_simclrhn_probe3,1,602,NaN,airplane,truck,1.5,0602_hp_dnn_1.5_truck_10_n04467665_45306.png,n04467665_45306.png,0.0,-0.09510687,0.6417419,-0.5210307
alexnet_w1_mlp_simclrhn_probe3,1,603,NaN,elephant,elephant,3,0603_hp_dnn_3_elephant_10_n02504458_1617.png,n02504458_1617.png,1.0,1.2017014,0.5884644,0.43362406
alexnet_w1_mlp_simclrhn_probe3,1,604,NaN,knife,oven,0.45,0604_hp_dnn_0.45_oven_10_n04111531_4148.png,n04111531_4148.png,0.0,-0.022853523,0.6297209,-0.46143982
alexnet_w1_mlp_simclrhn_probe3,1,605,NaN,clock,bird,0.55,0605_hp_dnn_0.55_bird_10_n02009912_91.png,n02009912_91.png,0.0,-0.097511835,0.5671828,-0.47001007
alexnet_w1_mlp_simclrhn_probe3,1,606,NaN,knife,knife,3,0606_hp_dnn_3_knife_10_n03041632_33739.png,n03041632_33739.png,1.0,0.97123814,0.85770833,0.080277696
alexnet_w1_mlp_simclrhn_probe3,1,607,NaN,airplane,airplane,1,0607_hp_dnn_1_airplane_10_n02690373_9318.png,n02690373_9318.png,1.0,2.8968978,0.788217,1.4910625
alexnet_w1_mlp_simclrhn_probe3,1,608,NaN,clock,bird,0.4,0608_hp_dnn_0.4_bird_10_n01828970_8669.png,n01828970_8669.png,0.0,-0.10317281,0.42607975,-0.37423804
alexnet_w1_mlp_simclrhn_probe3,1,609,NaN,oven,truck,1.5,0609_hp_dnn_1.5_truck_10_n04467665_58762.png,n04467665_58762.png,0.0,0.06886041,1.2328084,-0.8230355
alexnet_w1_mlp_simclrhn_probe3,1,610,NaN,car,car,3,0610_hp_dnn_3_car_10_n03100240_11417.png,n03100240_11417.png,1.0,4.4626346,2.024211,1.7242259
alexnet_w1_mlp_simclrhn_probe3,1,611,NaN,bicycle,bicycle,inf,0611_hp_dnn_inf_bicycle_10_n03792782_16179.png,n03792782_16179.png,1.0,5.778454,0.8600133,3.4778626
alexnet_w1_mlp_simclrhn_probe3,1,612,NaN,clock,car,1,0612_hp_dnn_1_car_10_n04285008_8444.png,n04285008_8444.png,0.0,0.3418899,0.90835047,-0.40054813
alexnet_w1_mlp_simclrhn_probe3,1,613,NaN,chair,chair,inf,0613_hp_dnn_inf_chair_10_n02791124_3240.png,n02791124_3240.png,1.0,1.8191713,0.710504,0.7839462
alexnet_w1_mlp_simclrhn_probe3,1,614,NaN,clock,bicycle,0.7,0614_hp_dnn_0.7_bicycle_10_n02835271_1035.png,n02835271_1035.png,0.0,0.06738897,0.5341624,-0.33005866
alexnet_w1_mlp_simclrhn_probe3,1,615,NaN,clock,bicycle,0.55,0615_hp_dnn_0.55_bicycle_10_n02835271_6167.png,n02835271_6167.png,0.0,0.34958935,0.5669996,-0.15373227
alexnet_w1_mlp_simclrhn_probe3,1,616,NaN,keyboard,bottle,3,0616_hp_dnn_3_bottle_10_n02823428_6830.png,n02823428_6830.png,0.0,1.3623879,3.9024372,-1.7960861
alexnet_w1_mlp_simclrhn_probe3,1,617,NaN,knife,knife,0.45,0617_hp_dnn_0.45_knife_10_n03041632_17349.png,n03041632_17349.png,1.0,0.80570716,0.43882117,0.25942758
alexnet_w1_mlp_simclrhn_probe3,1,618,NaN,airplane,airplane,inf,0618_hp_dnn_inf_airplane_10_n02690373_2024.png,n02690373_2024.png,1.0,7.126484,3.1902716,2.7833226
alexnet_w1_mlp_simclrhn_probe3,1,619,NaN,clock,bottle,1,0619_hp_dnn_1_bottle_10_n02823428_8034.png,n02823428_8034.png,0.0,0.1632588,0.8084795,-0.45623994
alexnet_w1_mlp_simclrhn_probe3,1,620,NaN,bottle,chair,1,0620_hp_dnn_1_chair_10_n02791124_6786.png,n02791124_6786.png,0.0,0.720405,0.7496381,-0.020670922
alexnet_w1_mlp_simclrhn_probe3,1,621,NaN,knife,chair,0.45,0621_hp_dnn_0.45_chair_10_n03376595_10689.png,n03376595_10689.png,0.0,0.46497786,0.7128388,-0.17526418
alexnet_w1_mlp_simclrhn_probe3,1,622,NaN,clock,knife,0.4,0622_hp_dnn_0.4_knife_10_n03041632_22734.png,n03041632_22734.png,0.0,0.26077357,0.44738135,-0.13195163
alexnet_w1_mlp_simclrhn_probe3,1,623,NaN,knife,oven,0.4,0623_hp_dnn_0.4_oven_10_n04111531_10521.png,n04111531_10521.png,0.0,0.17547429,0.4836197,-0.21789171
alexnet_w1_mlp_simclrhn_probe3,1,624,NaN,bird,bird,inf,0624_hp_dnn_inf_bird_10_n02007558_37147.png,n02007558_37147.png,1.0,3.6601803,0.91749096,1.9393743
alexnet_w1_mlp_simclrhn_probe3,1,625,NaN,chair,oven,3,0625_hp_dnn_3_oven_10_n04111531_14753.png,n04111531_14753.png,0.0,1.2247097,1.6174369,-0.27770004
alexnet_w1_mlp_simclrhn_probe3,1,626,NaN,clock,bottle,0.7,0626_hp_dnn_0.7_bottle_10_n03983396_4990.png,n03983396_4990.png,0.0,-0.08471502,0.41790345,-0.35540494
alexnet_w1_mlp_simclrhn_probe3,1,627,NaN,knife,cat,0.45,0627_hp_dnn_0.45_cat_10_n02125311_25104.png,n02125311_25104.png,0.0,0.033817742,0.3603933,-0.23092379
alexnet_w1_mlp_simclrhn_probe3,1,628,NaN,clock,truck,0.55,0628_hp_dnn_0.55_truck_10_n03417042_5600.png,n03417042_5600.png,0.0,0.39094323,0.6744464,-0.20046702
alexnet_w1_mlp_simclrhn_probe3,1,629,NaN,knife,cat,0.55,0629_hp_dnn_0.55_cat_10_n02125311_34158.png,n02125311_34158.png,0.0,-0.07211015,0.44687325,-0.36697665
alexnet_w1_mlp_simclrhn_probe3,1,630,NaN,clock,knife,1,0630_hp_dnn_1_knife_10_n03041632_41077.png,n03041632_41077.png,0.0,1.1036413,1.1492969,-0.03228339
alexnet_w1_mlp_simclrhn_probe3,1,631,NaN,clock,bicycle,0.45,0631_hp_dnn_0.45_bicycle_10_n03792782_19295.png,n03792782_19295.png,0.0,-0.13919699,0.6045361,-0.52589875
