subj,session,trial,rt,object_response,category,condition,imagename,filename,is_correct,targ_act,max_nontarg_act,decision_margin
alexnet_w3_mlp_simclrhn_probe2,1,1,NaN,knife,boat,0.7,0001_hp_dnn_0.7_boat_10_n03662601_12531.png,n03662601_12531.png,0.0,-0.42168838,-0.031352732,-0.276009
alexnet_w3_mlp_simclrhn_probe2,1,2,NaN,clock,chair,0.7,0002_hp_dnn_0.7_chair_10_n04429376_22819.png,n04429376_22819.png,0.0,-0.18151078,0.12670259,-0.21793975
alexnet_w3_mlp_simclrhn_probe2,1,3,NaN,clock,elephant,0.45,0003_hp_dnn_0.45_elephant_10_n02504458_582.png,n02504458_582.png,0.0,-0.7141333,0.22210455,-0.66202015
alexnet_w3_mlp_simclrhn_probe2,1,4,NaN,clock,bicycle,0.7,0004_hp_dnn_0.7_bicycle_10_n03792782_41173.png,n03792782_41173.png,0.0,-0.9268227,-0.09872528,-0.58555335
alexnet_w3_mlp_simclrhn_probe2,1,5,NaN,clock,cat,1.5,0005_hp_dnn_1.5_cat_10_n02123597_7071.png,n02123597_7071.png,0.0,-1.355852,-0.2749674,-0.7643008
alexnet_w3_mlp_simclrhn_probe2,1,6,NaN,airplane,cat,0.4,0006_hp_dnn_0.4_cat_10_n02123394_2386.png,n02123394_2386.png,0.0,-0.42111316,0.20146793,-0.44023135
alexnet_w3_mlp_simclrhn_probe2,1,7,NaN,oven,oven,inf,0007_hp_dnn_inf_oven_10_n04111531_2201.png,n04111531_2201.png,1.0,2.034574,-0.13452375,1.5337839
alexnet_w3_mlp_simclrhn_probe2,1,8,NaN,knife,cat,0.45,0008_hp_dnn_0.45_cat_10_n02125311_43276.png,n02125311_43276.png,0.0,-0.60663944,0.20867975,-0.57651776
alexnet_w3_mlp_simclrhn_probe2,1,9,NaN,clock,dog,0.45,0009_hp_dnn_0.45_dog_10_n02111500_2439.png,n02111500_2439.png,0.0,-1.2012422,0.11258333,-0.9290149
alexnet_w3_mlp_simclrhn_probe2,1,10,NaN,clock,bicycle,0.4,0010_hp_dnn_0.4_bicycle_10_n02835271_12599.png,n02835271_12599.png,0.0,-0.5658365,0.055717204,-0.43950486
alexnet_w3_mlp_simclrhn_probe2,1,11,NaN,clock,dog,0.45,0011_hp_dnn_0.45_dog_10_n02096585_391.png,n02096585_391.png,0.0,-1.2263145,0.045344472,-0.8991987
alexnet_w3_mlp_simclrhn_probe2,1,12,NaN,clock,car,0.7,0012_hp_dnn_0.7_car_10_n04285008_12138.png,n04285008_12138.png,0.0,-0.47683167,0.6571114,-0.80181885
alexnet_w3_mlp_simclrhn_probe2,1,13,NaN,clock,car,0.7,0013_hp_dnn_0.7_car_10_n02814533_44083.png,n02814533_44083.png,0.0,-1.1477207,0.6009453,-1.2364936
alexnet_w3_mlp_simclrhn_probe2,1,14,NaN,oven,oven,inf,0014_hp_dnn_inf_oven_10_n04111531_2447.png,n04111531_2447.png,1.0,4.4342203,-1.7806959,4.3946095
alexnet_w3_mlp_simclrhn_probe2,1,15,NaN,clock,chair,0.55,0015_hp_dnn_0.55_chair_10_n03376595_9524.png,n03376595_9524.png,0.0,-0.50345135,0.1268912,-0.44571948
alexnet_w3_mlp_simclrhn_probe2,1,16,NaN,clock,elephant,0.55,0016_hp_dnn_0.55_elephant_10_n02504458_3092.png,n02504458_3092.png,0.0,-1.4480525,0.2465479,-1.1982635
alexnet_w3_mlp_simclrhn_probe2,1,17,NaN,knife,truck,0.4,0017_hp_dnn_0.4_truck_10_n04467665_42126.png,n04467665_42126.png,0.0,-0.5426605,0.24071898,-0.5539329
alexnet_w3_mlp_simclrhn_probe2,1,18,NaN,elephant,elephant,inf,0018_hp_dnn_inf_elephant_10_n02504458_12303.png,n02504458_12303.png,1.0,8.105164,3.1858137,3.4785056
alexnet_w3_mlp_simclrhn_probe2,1,19,NaN,clock,clock,0.4,0019_hp_dnn_0.4_clock_10_n04548280_7243.png,n04548280_7243.png,1.0,1.0421983,-0.10168855,0.8088501
alexnet_w3_mlp_simclrhn_probe2,1,20,NaN,knife,airplane,0.4,0020_hp_dnn_0.4_airplane_10_n02690373_6978.png,n02690373_6978.png,0.0,0.2454031,0.34015518,-0.066999845
alexnet_w3_mlp_simclrhn_probe2,1,21,NaN,boat,boat,3,0021_hp_dnn_3_boat_10_n04612504_4773.png,n04612504_4773.png,1.0,1.1460656,0.4428689,0.49723518
alexnet_w3_mlp_simclrhn_probe2,1,22,NaN,cat,bottle,inf,0022_hp_dnn_inf_bottle_10_n04560804_5979.png,n04560804_5979.png,0.0,-1.2437311,-1.2158188,-0.019737033
alexnet_w3_mlp_simclrhn_probe2,1,23,NaN,airplane,airplane,3,0023_hp_dnn_3_airplane_10_n02690373_21922.png,n02690373_21922.png,1.0,2.2774668,0.66987616,1.1367383
alexnet_w3_mlp_simclrhn_probe2,1,24,NaN,clock,bird,0.4,0024_hp_dnn_0.4_bird_10_n01820546_6431.png,n01820546_6431.png,0.0,-0.5054774,0.03362493,-0.38120297
alexnet_w3_mlp_simclrhn_probe2,1,25,NaN,bird,bird,inf,0025_hp_dnn_inf_bird_10_n01795545_9555.png,n01795545_9555.png,1.0,0.9210567,-0.7331034,1.1696678
alexnet_w3_mlp_simclrhn_probe2,1,26,NaN,bicycle,truck,3,0026_hp_dnn_3_truck_10_n04467665_45796.png,n04467665_45796.png,0.0,-0.1869776,1.2323785,-1.0036364
alexnet_w3_mlp_simclrhn_probe2,1,27,NaN,bottle,oven,1,0027_hp_dnn_1_oven_10_n04111531_5906.png,n04111531_5906.png,0.0,-2.214673,0.40481353,-1.8522568
alexnet_w3_mlp_simclrhn_probe2,1,28,NaN,knife,bicycle,0.45,0028_hp_dnn_0.45_bicycle_10_n03792782_6133.png,n03792782_6133.png,0.0,-0.7534836,0.30182332,-0.7462147
alexnet_w3_mlp_simclrhn_probe2,1,29,NaN,keyboard,keyboard,1,0029_hp_dnn_1_keyboard_10_n04505470_4741.png,n04505470_4741.png,1.0,1.5437369,0.29302096,0.88438976
alexnet_w3_mlp_simclrhn_probe2,1,30,NaN,car,car,1.5,0030_hp_dnn_1.5_car_10_n02814533_5085.png,n02814533_5085.png,1.0,0.55588543,0.12651673,0.30360952
alexnet_w3_mlp_simclrhn_probe2,1,31,NaN,clock,chair,0.4,0031_hp_dnn_0.4_chair_10_n04429376_10628.png,n04429376_10628.png,0.0,-0.3051979,0.15416855,-0.32482114
alexnet_w3_mlp_simclrhn_probe2,1,32,NaN,clock,clock,0.55,0032_hp_dnn_0.55_clock_10_n02708093_5311.png,n02708093_5311.png,1.0,0.76508695,-0.1608207,0.65471554
alexnet_w3_mlp_simclrhn_probe2,1,33,NaN,clock,chair,0.55,0033_hp_dnn_0.55_chair_10_n03376595_10460.png,n03376595_10460.png,0.0,0.30073518,0.3492445,-0.034301277
alexnet_w3_mlp_simclrhn_probe2,1,34,NaN,cat,bear,3,0034_hp_dnn_3_bear_10_n02133161_1118.png,n02133161_1118.png,0.0,-2.6796055,-0.9718354,-1.2075758
alexnet_w3_mlp_simclrhn_probe2,1,35,NaN,knife,knife,3,0035_hp_dnn_3_knife_10_n03041632_11603.png,n03041632_11603.png,1.0,0.75920534,0.62459636,0.095182925
alexnet_w3_mlp_simclrhn_probe2,1,36,NaN,clock,dog,0.4,0036_hp_dnn_0.4_dog_10_n02108422_7493.png,n02108422_7493.png,0.0,-0.94639903,0.11149276,-0.7480425
alexnet_w3_mlp_simclrhn_probe2,1,37,NaN,keyboard,keyboard,3,0037_hp_dnn_3_keyboard_10_n04505470_550.png,n04505470_550.png,1.0,1.2873771,-0.37715134,1.1769994
alexnet_w3_mlp_simclrhn_probe2,1,38,NaN,clock,dog,1.5,0038_hp_dnn_1.5_dog_10_n02097047_1003.png,n02097047_1003.png,0.0,-1.5784441,-0.4651427,-0.787223
alexnet_w3_mlp_simclrhn_probe2,1,39,NaN,bird,bird,1.5,0039_hp_dnn_1.5_bird_10_n01616318_9819.png,n01616318_9819.png,1.0,0.02396272,-1.5516806,1.1141481
alexnet_w3_mlp_simclrhn_probe2,1,40,NaN,clock,cat,0.55,0040_hp_dnn_0.55_cat_10_n02123597_1016.png,n02123597_1016.png,0.0,-0.47952858,-0.014754157,-0.32864517
alexnet_w3_mlp_simclrhn_probe2,1,41,NaN,knife,bear,1,0041_hp_dnn_1_bear_10_n02134418_971.png,n02134418_971.png,0.0,-1.2870212,-0.4222107,-0.6115134
alexnet_w3_mlp_simclrhn_probe2,1,42,NaN,clock,bear,0.7,0042_hp_dnn_0.7_bear_10_n02132136_10944.png,n02132136_10944.png,0.0,-2.100656,-0.5221183,-1.1161947
alexnet_w3_mlp_simclrhn_probe2,1,43,NaN,clock,elephant,1,0043_hp_dnn_1_elephant_10_n02504458_4439.png,n02504458_4439.png,0.0,-1.3474817,-0.105799355,-0.87800205
alexnet_w3_mlp_simclrhn_probe2,1,44,NaN,keyboard,keyboard,0.4,0044_hp_dnn_0.4_keyboard_10_n03085013_2362.png,n03085013_2362.png,1.0,0.8871247,0.3078315,0.4096222
alexnet_w3_mlp_simclrhn_probe2,1,45,NaN,clock,dog,1.5,0045_hp_dnn_1.5_dog_10_n02097474_9488.png,n02097474_9488.png,0.0,-1.2663592,0.054487456,-0.93397963
alexnet_w3_mlp_simclrhn_probe2,1,46,NaN,clock,clock,inf,0046_hp_dnn_inf_clock_10_n04548280_3308.png,n04548280_3308.png,1.0,9.139623,-2.4956424,8.227375
alexnet_w3_mlp_simclrhn_probe2,1,47,NaN,clock,bear,1.5,0047_hp_dnn_1.5_bear_10_n02133161_334.png,n02133161_334.png,0.0,-1.8626857,-0.3735725,-1.0529621
alexnet_w3_mlp_simclrhn_probe2,1,48,NaN,clock,knife,0.45,0048_hp_dnn_0.45_knife_10_n03041632_6708.png,n03041632_6708.png,0.0,-0.49064714,0.36784467,-0.60704535
alexnet_w3_mlp_simclrhn_probe2,1,49,NaN,clock,car,0.55,0049_hp_dnn_0.55_car_10_n02814533_81092.png,n02814533_81092.png,0.0,-0.88841325,0.6914778,-1.1171516
alexnet_w3_mlp_simclrhn_probe2,1,50,NaN,bottle,bottle,0.45,0050_hp_dnn_0.45_bottle_10_n03937543_11897.png,n03937543_11897.png,1.0,0.4268598,0.36334798,0.044909637
alexnet_w3_mlp_simclrhn_probe2,1,51,NaN,clock,airplane,3,0051_hp_dnn_3_airplane_10_n02690373_4429.png,n02690373_4429.png,0.0,0.7838713,1.1584828,-0.26489034
alexnet_w3_mlp_simclrhn_probe2,1,52,NaN,clock,knife,0.4,0052_hp_dnn_0.4_knife_10_n03041632_22964.png,n03041632_22964.png,0.0,-0.09499341,0.09211886,-0.13230836
alexnet_w3_mlp_simclrhn_probe2,1,53,NaN,airplane,knife,1.5,0053_hp_dnn_1.5_knife_10_n03041632_33075.png,n03041632_33075.png,0.0,0.2870147,0.32432467,-0.026382137
alexnet_w3_mlp_simclrhn_probe2,1,54,NaN,clock,bird,0.7,0054_hp_dnn_0.7_bird_10_n02006656_1412.png,n02006656_1412.png,0.0,-0.4036493,-0.02891018,-0.26498058
alexnet_w3_mlp_simclrhn_probe2,1,55,NaN,clock,clock,1,0055_hp_dnn_1_clock_10_n02708093_3173.png,n02708093_3173.png,1.0,6.6887116,-0.7862975,5.2856297
alexnet_w3_mlp_simclrhn_probe2,1,56,NaN,clock,keyboard,0.45,0056_hp_dnn_0.45_keyboard_10_n03085013_22016.png,n03085013_22016.png,0.0,0.27989572,0.39426133,-0.0808687
alexnet_w3_mlp_simclrhn_probe2,1,57,NaN,clock,elephant,0.55,0057_hp_dnn_0.55_elephant_10_n02504458_11214.png,n02504458_11214.png,0.0,-1.0259874,0.15168214,-0.8327381
alexnet_w3_mlp_simclrhn_probe2,1,58,NaN,knife,chair,0.7,0058_hp_dnn_0.7_chair_10_n04099969_13775.png,n04099969_13775.png,0.0,0.01821372,0.32904407,-0.21979025
alexnet_w3_mlp_simclrhn_probe2,1,59,NaN,clock,bicycle,0.4,0059_hp_dnn_0.4_bicycle_10_n02835271_8098.png,n02835271_8098.png,0.0,-0.45956093,0.38028288,-0.59385926
alexnet_w3_mlp_simclrhn_probe2,1,60,NaN,clock,clock,0.4,0060_hp_dnn_0.4_clock_10_n04548280_1126.png,n04548280_1126.png,1.0,0.8171029,0.053221285,0.5401459
alexnet_w3_mlp_simclrhn_probe2,1,61,NaN,clock,bicycle,0.45,0061_hp_dnn_0.45_bicycle_10_n02835271_2050.png,n02835271_2050.png,0.0,-0.22854388,0.38248262,-0.43206102
alexnet_w3_mlp_simclrhn_probe2,1,62,NaN,clock,oven,1,0062_hp_dnn_1_oven_10_n04111531_891.png,n04111531_891.png,0.0,-0.16762039,0.10681728,-0.19405673
alexnet_w3_mlp_simclrhn_probe2,1,63,NaN,clock,bottle,0.7,0063_hp_dnn_0.7_bottle_10_n02823428_6201.png,n02823428_6201.png,0.0,-0.04885177,0.47795883,-0.37251136
alexnet_w3_mlp_simclrhn_probe2,1,64,NaN,bicycle,bicycle,0.7,0064_hp_dnn_0.7_bicycle_10_n02835271_20175.png,n02835271_20175.png,1.0,1.0120363,0.85551643,0.11067627
alexnet_w3_mlp_simclrhn_probe2,1,65,NaN,knife,cat,3,0065_hp_dnn_3_cat_10_n02123597_13175.png,n02123597_13175.png,0.0,-0.9315842,-0.7275407,-0.14428055
alexnet_w3_mlp_simclrhn_probe2,1,66,NaN,knife,dog,0.4,0066_hp_dnn_0.4_dog_10_n02085936_4391.png,n02085936_4391.png,0.0,-0.7524067,0.14220661,-0.63258713
alexnet_w3_mlp_simclrhn_probe2,1,67,NaN,airplane,airplane,1.5,0067_hp_dnn_1.5_airplane_10_n02690373_8846.png,n02690373_8846.png,1.0,1.2969701,0.14688143,0.8132355
alexnet_w3_mlp_simclrhn_probe2,1,68,NaN,knife,cat,1.5,0068_hp_dnn_1.5_cat_10_n02123597_10301.png,n02123597_10301.png,0.0,-1.0307325,-0.2718688,-0.53659767
alexnet_w3_mlp_simclrhn_probe2,1,69,NaN,clock,elephant,0.7,0069_hp_dnn_0.7_elephant_10_n02504458_6135.png,n02504458_6135.png,0.0,-0.7619983,-0.062323857,-0.49474454
alexnet_w3_mlp_simclrhn_probe2,1,70,NaN,knife,keyboard,0.45,0070_hp_dnn_0.45_keyboard_10_n03085013_22585.png,n03085013_22585.png,0.0,-0.5800805,0.14775038,-0.51465416
alexnet_w3_mlp_simclrhn_probe2,1,71,NaN,clock,bird,1,0071_hp_dnn_1_bird_10_n02017213_1150.png,n02017213_1150.png,0.0,-1.209775,-0.31933016,-0.62963957
alexnet_w3_mlp_simclrhn_probe2,1,72,NaN,chair,bottle,3,0072_hp_dnn_3_bottle_10_n04560804_30885.png,n04560804_30885.png,0.0,0.2800584,1.2173599,-0.6627723
alexnet_w3_mlp_simclrhn_probe2,1,73,NaN,bicycle,bicycle,inf,0073_hp_dnn_inf_bicycle_10_n02835271_9191.png,n02835271_9191.png,1.0,13.436375,-3.1671436,11.74046
alexnet_w3_mlp_simclrhn_probe2,1,74,NaN,chair,truck,inf,0074_hp_dnn_inf_truck_10_n03796401_7699.png,n03796401_7699.png,0.0,0.5059347,2.3906062,-1.332664
alexnet_w3_mlp_simclrhn_probe2,1,75,NaN,knife,knife,1.5,0075_hp_dnn_1.5_knife_10_n03041632_50332.png,n03041632_50332.png,1.0,0.7274828,0.06389977,0.46922407
alexnet_w3_mlp_simclrhn_probe2,1,76,NaN,knife,knife,0.55,0076_hp_dnn_0.55_knife_10_n03041632_36247.png,n03041632_36247.png,1.0,-0.0051503605,-0.03250466,0.01934241
alexnet_w3_mlp_simclrhn_probe2,1,77,NaN,clock,knife,1.5,0077_hp_dnn_1.5_knife_10_n03041632_23667.png,n03041632_23667.png,0.0,-0.8273195,0.08841471,-0.6475219
alexnet_w3_mlp_simclrhn_probe2,1,78,NaN,bird,dog,3,0078_hp_dnn_3_dog_10_n02102973_7028.png,n02102973_7028.png,0.0,-1.5399759,0.60879034,-1.5194073
alexnet_w3_mlp_simclrhn_probe2,1,79,NaN,clock,oven,0.55,0079_hp_dnn_0.55_oven_10_n04111531_9867.png,n04111531_9867.png,0.0,-1.8636765,0.44065988,-1.629412
alexnet_w3_mlp_simclrhn_probe2,1,80,NaN,clock,car,0.55,0080_hp_dnn_0.55_car_10_n02814533_8121.png,n02814533_8121.png,0.0,-0.10951159,0.41254878,-0.36915246
alexnet_w3_mlp_simclrhn_probe2,1,81,NaN,airplane,boat,0.55,0081_hp_dnn_0.55_boat_10_n03662601_5210.png,n03662601_5210.png,0.0,-0.20069508,0.14908531,-0.24733208
alexnet_w3_mlp_simclrhn_probe2,1,82,NaN,clock,car,1.5,0082_hp_dnn_1.5_car_10_n03100240_6192.png,n03100240_6192.png,0.0,-0.48513296,-0.069691114,-0.29376176
alexnet_w3_mlp_simclrhn_probe2,1,83,NaN,clock,oven,0.45,0083_hp_dnn_0.45_oven_10_n04111531_9314.png,n04111531_9314.png,0.0,-0.90387046,0.17682822,-0.7641694
alexnet_w3_mlp_simclrhn_probe2,1,84,NaN,clock,cat,0.4,0084_hp_dnn_0.4_cat_10_n02123045_5189.png,n02123045_5189.png,0.0,-0.58178234,0.1383792,-0.50923115
alexnet_w3_mlp_simclrhn_probe2,1,85,NaN,clock,truck,0.7,0085_hp_dnn_0.7_truck_10_n04467665_30189.png,n04467665_30189.png,0.0,-0.69602954,1.0871116,-1.2608712
alexnet_w3_mlp_simclrhn_probe2,1,86,NaN,clock,airplane,1.5,0086_hp_dnn_1.5_airplane_10_n02690373_3377.png,n02690373_3377.png,0.0,-0.36564127,0.5348818,-0.63676596
alexnet_w3_mlp_simclrhn_probe2,1,87,NaN,knife,oven,0.4,0087_hp_dnn_0.4_oven_10_n04111531_1750.png,n04111531_1750.png,0.0,-0.61438656,0.2355829,-0.60101914
alexnet_w3_mlp_simclrhn_probe2,1,88,NaN,cat,dog,inf,0088_hp_dnn_inf_dog_10_n02097047_2877.png,n02097047_2877.png,0.0,0.41053778,0.9851771,-0.40633136
alexnet_w3_mlp_simclrhn_probe2,1,89,NaN,cat,cat,inf,0089_hp_dnn_inf_cat_10_n02124075_15171.png,n02124075_15171.png,1.0,6.965349,-1.1141237,5.71305
alexnet_w3_mlp_simclrhn_probe2,1,90,NaN,clock,car,0.4,0090_hp_dnn_0.4_car_10_n03100240_23060.png,n03100240_23060.png,0.0,-0.63940114,0.22474141,-0.61104107
alexnet_w3_mlp_simclrhn_probe2,1,91,NaN,knife,knife,inf,0091_hp_dnn_inf_knife_10_n03041632_20595.png,n03041632_20595.png,1.0,0.93983865,-2.0076687,2.0842025
alexnet_w3_mlp_simclrhn_probe2,1,92,NaN,clock,knife,0.45,0092_hp_dnn_0.45_knife_10_n03041632_2184.png,n03041632_2184.png,0.0,-0.2147428,0.49529627,-0.50207347
alexnet_w3_mlp_simclrhn_probe2,1,93,NaN,knife,knife,0.4,0093_hp_dnn_0.4_knife_10_n03041632_42162.png,n03041632_42162.png,1.0,0.5181798,0.23414218,0.20084491
alexnet_w3_mlp_simclrhn_probe2,1,94,NaN,chair,elephant,1,0094_hp_dnn_1_elephant_10_n02504458_3535.png,n02504458_3535.png,0.0,-0.88265526,0.3871606,-0.89789546
alexnet_w3_mlp_simclrhn_probe2,1,95,NaN,bird,bird,inf,0095_hp_dnn_inf_bird_10_n02056570_11311.png,n02056570_11311.png,1.0,-0.39657733,-1.4587837,0.7510933
alexnet_w3_mlp_simclrhn_probe2,1,96,NaN,clock,chair,0.4,0096_hp_dnn_0.4_chair_10_n03376595_4121.png,n03376595_4121.png,0.0,-0.08942367,0.32725927,-0.29463935
alexnet_w3_mlp_simclrhn_probe2,1,97,NaN,clock,dog,1,0097_hp_dnn_1_dog_10_n02086240_3572.png,n02086240_3572.png,0.0,-1.1634556,-0.10279944,-0.7499972
alexnet_w3_mlp_simclrhn_probe2,1,98,NaN,elephant,elephant,inf,0098_hp_dnn_inf_elephant_10_n02504013_4523.png,n02504013_4523.png,1.0,14.794461,2.8960187,8.413469
alexnet_w3_mlp_simclrhn_probe2,1,99,NaN,oven,chair,inf,0099_hp_dnn_inf_chair_10_n04429376_7902.png,n04429376_7902.png,0.0,0.7514454,1.584586,-0.5891194
alexnet_w3_mlp_simclrhn_probe2,1,100,NaN,clock,bird,0.45,0100_hp_dnn_0.45_bird_10_n01530575_14402.png,n01530575_14402.png,0.0,-0.5964556,0.3686974,-0.6824662
alexnet_w3_mlp_simclrhn_probe2,1,101,NaN,clock,bottle,0.55,0101_hp_dnn_0.55_bottle_10_n02823428_11140.png,n02823428_11140.png,0.0,-0.24394237,0.8300994,-0.7594622
alexnet_w3_mlp_simclrhn_probe2,1,102,NaN,clock,airplane,0.55,0102_hp_dnn_0.55_airplane_10_n02690373_7685.png,n02690373_7685.png,0.0,0.38983142,0.47604474,-0.060962025
alexnet_w3_mlp_simclrhn_probe2,1,103,NaN,airplane,boat,0.45,0103_hp_dnn_0.45_boat_10_n03344393_4827.png,n03344393_4827.png,0.0,0.2300427,0.5982057,-0.26033056
alexnet_w3_mlp_simclrhn_probe2,1,104,NaN,knife,dog,0.7,0104_hp_dnn_0.7_dog_10_n02088364_8674.png,n02088364_8674.png,0.0,-1.2908864,-0.27275643,-0.7199266
alexnet_w3_mlp_simclrhn_probe2,1,105,NaN,clock,knife,0.45,0105_hp_dnn_0.45_knife_10_n03041632_32004.png,n03041632_32004.png,0.0,-0.07568408,0.120502,-0.1387245
alexnet_w3_mlp_simclrhn_probe2,1,106,NaN,keyboard,keyboard,3,0106_hp_dnn_3_keyboard_10_n03085013_22949.png,n03085013_22949.png,1.0,3.7299356,0.20721829,2.4909375
alexnet_w3_mlp_simclrhn_probe2,1,107,NaN,clock,knife,0.7,0107_hp_dnn_0.7_knife_10_n03041632_4044.png,n03041632_4044.png,0.0,0.16725235,0.2692226,-0.07210385
alexnet_w3_mlp_simclrhn_probe2,1,108,NaN,airplane,airplane,1.5,0108_hp_dnn_1.5_airplane_10_n02690373_6455.png,n02690373_6455.png,1.0,1.8958052,0.028226564,1.3205775
alexnet_w3_mlp_simclrhn_probe2,1,109,NaN,airplane,airplane,0.55,0109_hp_dnn_0.55_airplane_10_n02690373_19646.png,n02690373_19646.png,1.0,0.9813641,0.09852027,0.62426484
alexnet_w3_mlp_simclrhn_probe2,1,110,NaN,boat,boat,inf,0110_hp_dnn_inf_boat_10_n04612504_1692.png,n04612504_1692.png,1.0,5.551194,2.715236,2.0053253
alexnet_w3_mlp_simclrhn_probe2,1,111,NaN,clock,cat,0.55,0111_hp_dnn_0.55_cat_10_n02124075_853.png,n02124075_853.png,0.0,-1.1149672,0.11925536,-0.87272716
alexnet_w3_mlp_simclrhn_probe2,1,112,NaN,knife,boat,1,0112_hp_dnn_1_boat_10_n04273569_6071.png,n04273569_6071.png,0.0,-0.19821289,-0.006027898,-0.13589531
alexnet_w3_mlp_simclrhn_probe2,1,113,NaN,knife,bird,1.5,0113_hp_dnn_1.5_bird_10_n01616318_1214.png,n01616318_1214.png,0.0,-2.0683079,-0.13621022,-1.3661994
alexnet_w3_mlp_simclrhn_probe2,1,114,NaN,car,car,1.5,0114_hp_dnn_1.5_car_10_n02814533_14627.png,n02814533_14627.png,1.0,1.5876708,1.5644968,0.016386526
alexnet_w3_mlp_simclrhn_probe2,1,115,NaN,clock,keyboard,0.7,0115_hp_dnn_0.7_keyboard_10_n03085013_1483.png,n03085013_1483.png,0.0,0.041446403,0.07576223,-0.024264952
alexnet_w3_mlp_simclrhn_probe2,1,116,NaN,airplane,airplane,0.55,0116_hp_dnn_0.55_airplane_10_n02690373_7401.png,n02690373_7401.png,1.0,1.0513936,0.2590264,0.56028825
alexnet_w3_mlp_simclrhn_probe2,1,117,NaN,clock,keyboard,0.55,0117_hp_dnn_0.55_keyboard_10_n03085013_6963.png,n03085013_6963.png,0.0,-0.5015756,0.8068268,-0.92518014
alexnet_w3_mlp_simclrhn_probe2,1,118,NaN,chair,knife,3,0118_hp_dnn_3_knife_10_n03041632_1407.png,n03041632_1407.png,0.0,-0.41567254,-0.05711411,-0.2535391
alexnet_w3_mlp_simclrhn_probe2,1,119,NaN,chair,elephant,1.5,0119_hp_dnn_1.5_elephant_10_n02504458_5137.png,n02504458_5137.png,0.0,-0.65914756,-0.14185148,-0.36578357
alexnet_w3_mlp_simclrhn_probe2,1,120,NaN,clock,clock,inf,0120_hp_dnn_inf_clock_10_n02708093_6635.png,n02708093_6635.png,1.0,4.1816425,0.7388972,2.4343886
alexnet_w3_mlp_simclrhn_probe2,1,121,NaN,clock,oven,0.4,0121_hp_dnn_0.4_oven_10_n04111531_5927.png,n04111531_5927.png,0.0,-1.0317676,0.055603698,-0.76888764
alexnet_w3_mlp_simclrhn_probe2,1,122,NaN,clock,clock,inf,0122_hp_dnn_inf_clock_10_n02708093_2043.png,n02708093_2043.png,1.0,0.99594975,0.15499908,0.5946419
alexnet_w3_mlp_simclrhn_probe2,1,123,NaN,airplane,airplane,0.4,0123_hp_dnn_0.4_airplane_10_n02690373_7300.png,n02690373_7300.png,1.0,0.37177002,0.19699611,0.12358382
alexnet_w3_mlp_simclrhn_probe2,1,124,NaN,clock,oven,0.55,0124_hp_dnn_0.55_oven_10_n04111531_190.png,n04111531_190.png,0.0,-1.3201047,-0.14192145,-0.83310145
alexnet_w3_mlp_simclrhn_probe2,1,125,NaN,bird,dog,3,0125_hp_dnn_3_dog_10_n02091244_8497.png,n02091244_8497.png,0.0,-2.6555595,-0.41449913,-1.5846691
alexnet_w3_mlp_simclrhn_probe2,1,126,NaN,knife,bicycle,0.7,0126_hp_dnn_0.7_bicycle_10_n03792782_15932.png,n03792782_15932.png,0.0,-1.0739939,-0.30122954,-0.54642695
alexnet_w3_mlp_simclrhn_probe2,1,127,NaN,clock,bear,0.4,0127_hp_dnn_0.4_bear_10_n02133161_463.png,n02133161_463.png,0.0,-0.84142834,0.15456848,-0.70427614
alexnet_w3_mlp_simclrhn_probe2,1,128,NaN,clock,cat,0.7,0128_hp_dnn_0.7_cat_10_n02123045_11126.png,n02123045_11126.png,0.0,-0.8672783,0.28041986,-0.8115452
alexnet_w3_mlp_simclrhn_probe2,1,129,NaN,clock,clock,0.7,0129_hp_dnn_0.7_clock_10_n04548280_8646.png,n04548280_8646.png,1.0,0.39527795,0.3346607,0.042862862
alexnet_w3_mlp_simclrhn_probe2,1,130,NaN,clock,bottle,0.55,0130_hp_dnn_0.55_bottle_10_n03983396_11597.png,n03983396_11597.png,0.0,-0.29794893,0.46982065,-0.5428951
alexnet_w3_mlp_simclrhn_probe2,1,131,NaN,truck,truck,3,0131_hp_dnn_3_truck_10_n03417042_212.png,n03417042_212.png,1.0,0.49783275,-0.31028247,0.57142377
alexnet_w3_mlp_simclrhn_probe2,1,132,NaN,keyboard,keyboard,1,0132_hp_dnn_1_keyboard_10_n04505470_1724.png,n04505470_1724.png,1.0,0.5744556,-0.006024584,0.41046152
alexnet_w3_mlp_simclrhn_probe2,1,133,NaN,chair,chair,1,0133_hp_dnn_1_chair_10_n04099969_14028.png,n04099969_14028.png,1.0,0.5655968,-0.11309705,0.47990906
alexnet_w3_mlp_simclrhn_probe2,1,134,NaN,knife,cat,0.45,0134_hp_dnn_0.45_cat_10_n02124075_2138.png,n02124075_2138.png,0.0,-0.7762406,0.28608543,-0.7511779
alexnet_w3_mlp_simclrhn_probe2,1,135,NaN,airplane,boat,inf,0135_hp_dnn_inf_boat_10_n03662601_3145.png,n03662601_3145.png,0.0,3.9834666,5.088379,-0.781291
alexnet_w3_mlp_simclrhn_probe2,1,136,NaN,knife,cat,3,0136_hp_dnn_3_cat_10_n02123045_1120.png,n02123045_1120.png,0.0,-1.2466838,-0.8189757,-0.30243534
alexnet_w3_mlp_simclrhn_probe2,1,137,NaN,boat,boat,inf,0137_hp_dnn_inf_boat_10_n04612504_31305.png,n04612504_31305.png,1.0,6.5356865,1.823223,3.3322148
alexnet_w3_mlp_simclrhn_probe2,1,138,NaN,clock,chair,1,0138_hp_dnn_1_chair_10_n04099969_4275.png,n04099969_4275.png,0.0,-0.48180714,0.47844735,-0.67900246
alexnet_w3_mlp_simclrhn_probe2,1,139,NaN,clock,keyboard,0.4,0139_hp_dnn_0.4_keyboard_10_n03085013_23005.png,n03085013_23005.png,0.0,-0.3436138,0.12270973,-0.32974052
alexnet_w3_mlp_simclrhn_probe2,1,140,NaN,airplane,airplane,1,0140_hp_dnn_1_airplane_10_n02690373_9618.png,n02690373_9618.png,1.0,0.3132654,-0.30013674,0.43374082
alexnet_w3_mlp_simclrhn_probe2,1,141,NaN,knife,knife,0.55,0141_hp_dnn_0.55_knife_10_n03041632_17338.png,n03041632_17338.png,1.0,0.58740544,0.22690207,0.25491437
alexnet_w3_mlp_simclrhn_probe2,1,142,NaN,clock,clock,0.45,0142_hp_dnn_0.45_clock_10_n04548280_8225.png,n04548280_8225.png,1.0,0.38838926,-0.0025889594,0.27646336
alexnet_w3_mlp_simclrhn_probe2,1,143,NaN,car,car,inf,0143_hp_dnn_inf_car_10_n03100240_8907.png,n03100240_8907.png,1.0,7.7675147,3.1184027,3.2874186
alexnet_w3_mlp_simclrhn_probe2,1,144,NaN,chair,chair,1.5,0144_hp_dnn_1.5_chair_10_n03376595_6865.png,n03376595_6865.png,1.0,1.9074696,0.93722254,0.6860683
alexnet_w3_mlp_simclrhn_probe2,1,145,NaN,clock,bicycle,0.45,0145_hp_dnn_0.45_bicycle_10_n03792782_44296.png,n03792782_44296.png,0.0,-0.67294466,0.094409384,-0.5426013
alexnet_w3_mlp_simclrhn_probe2,1,146,NaN,bicycle,boat,1.5,0146_hp_dnn_1.5_boat_10_n04273569_1233.png,n04273569_1233.png,0.0,-1.0497777,0.017832294,-0.7549143
alexnet_w3_mlp_simclrhn_probe2,1,147,NaN,clock,bird,1,0147_hp_dnn_1_bird_10_n01824575_12784.png,n01824575_12784.png,0.0,-0.78477407,-0.4118526,-0.2636953
alexnet_w3_mlp_simclrhn_probe2,1,148,NaN,boat,boat,3,0148_hp_dnn_3_boat_10_n03344393_408.png,n03344393_408.png,1.0,2.3471646,2.2152903,0.09324923
alexnet_w3_mlp_simclrhn_probe2,1,149,NaN,airplane,airplane,1,0149_hp_dnn_1_airplane_10_n02690373_220.png,n02690373_220.png,1.0,1.3057429,0.4942956,0.5737799
alexnet_w3_mlp_simclrhn_probe2,1,150,NaN,chair,chair,3,0150_hp_dnn_3_chair_10_n04429376_10546.png,n04429376_10546.png,1.0,0.8250617,0.5647916,0.18403873
alexnet_w3_mlp_simclrhn_probe2,1,151,NaN,clock,oven,0.7,0151_hp_dnn_0.7_oven_10_n04111531_4749.png,n04111531_4749.png,0.0,-0.70866793,0.29680708,-0.7109782
alexnet_w3_mlp_simclrhn_probe2,1,152,NaN,clock,truck,0.4,0152_hp_dnn_0.4_truck_10_n03417042_18124.png,n03417042_18124.png,0.0,-0.34331653,0.28323224,-0.44303688
alexnet_w3_mlp_simclrhn_probe2,1,153,NaN,clock,clock,3,0153_hp_dnn_3_clock_10_n03196217_7353.png,n03196217_7353.png,1.0,0.21946526,-0.26351643,0.34151962
alexnet_w3_mlp_simclrhn_probe2,1,154,NaN,clock,dog,0.7,0154_hp_dnn_0.7_dog_10_n02098286_2699.png,n02098286_2699.png,0.0,-1.0879695,0.060992826,-0.8124391
alexnet_w3_mlp_simclrhn_probe2,1,155,NaN,clock,truck,0.4,0155_hp_dnn_0.4_truck_10_n03796401_3651.png,n03796401_3651.png,0.0,-0.500447,0.3335173,-0.58970183
alexnet_w3_mlp_simclrhn_probe2,1,156,NaN,clock,bottle,0.4,0156_hp_dnn_0.4_bottle_10_n03983396_4165.png,n03983396_4165.png,0.0,-0.21720918,0.14559169,-0.25653896
alexnet_w3_mlp_simclrhn_probe2,1,157,NaN,clock,knife,1,0157_hp_dnn_1_knife_10_n03041632_25257.png,n03041632_25257.png,0.0,-1.1748288,0.53307647,-1.2076714
alexnet_w3_mlp_simclrhn_probe2,1,158,NaN,chair,chair,3,0158_hp_dnn_3_chair_10_n04099969_1229.png,n04099969_1229.png,1.0,2.0905704,-0.5386828,1.8591629
alexnet_w3_mlp_simclrhn_probe2,1,159,NaN,bird,bird,inf,0159_hp_dnn_inf_bird_10_n01798484_518.png,n01798484_518.png,1.0,0.702458,-0.48308176,0.8383032
alexnet_w3_mlp_simclrhn_probe2,1,160,NaN,bird,bird,inf,0160_hp_dnn_inf_bird_10_n01797886_1953.png,n01797886_1953.png,1.0,3.4455936,-3.8810248,5.1807017
alexnet_w3_mlp_simclrhn_probe2,1,161,NaN,bird,bird,3,0161_hp_dnn_3_bird_10_n01820546_228.png,n01820546_228.png,1.0,0.9373176,-1.8380514,1.9624823
alexnet_w3_mlp_simclrhn_probe2,1,162,NaN,clock,bear,1.5,0162_hp_dnn_1.5_bear_10_n02134418_2666.png,n02134418_2666.png,0.0,-1.3056043,-0.41478777,-0.6299024
alexnet_w3_mlp_simclrhn_probe2,1,163,NaN,boat,boat,1.5,0163_hp_dnn_1.5_boat_10_n03344393_7659.png,n03344393_7659.png,1.0,2.9929125,1.5836523,0.9964975
alexnet_w3_mlp_simclrhn_probe2,1,164,NaN,clock,oven,1.5,0164_hp_dnn_1.5_oven_10_n04111531_1752.png,n04111531_1752.png,0.0,-0.48514712,0.049958706,-0.37837696
alexnet_w3_mlp_simclrhn_probe2,1,165,NaN,elephant,dog,inf,0165_hp_dnn_inf_dog_10_n02091032_8873.png,n02091032_8873.png,0.0,-2.5575335,2.0013633,-3.223627
alexnet_w3_mlp_simclrhn_probe2,1,166,NaN,clock,oven,0.7,0166_hp_dnn_0.7_oven_10_n04111531_14559.png,n04111531_14559.png,0.0,-1.3040271,0.26239637,-1.1076286
alexnet_w3_mlp_simclrhn_probe2,1,167,NaN,knife,cat,0.7,0167_hp_dnn_0.7_cat_10_n02123045_114.png,n02123045_114.png,0.0,-1.1730682,-0.20483689,-0.6846429
alexnet_w3_mlp_simclrhn_probe2,1,168,NaN,cat,cat,3,0168_hp_dnn_3_cat_10_n02123597_13865.png,n02123597_13865.png,1.0,0.6547853,-0.6848732,0.9472816
alexnet_w3_mlp_simclrhn_probe2,1,169,NaN,knife,knife,0.55,0169_hp_dnn_0.55_knife_10_n03041632_13478.png,n03041632_13478.png,1.0,0.3434741,0.13662922,0.14626141
alexnet_w3_mlp_simclrhn_probe2,1,170,NaN,clock,elephant,0.55,0170_hp_dnn_0.55_elephant_10_n02504458_2618.png,n02504458_2618.png,0.0,-0.9862945,0.012194057,-0.70603806
alexnet_w3_mlp_simclrhn_probe2,1,171,NaN,clock,truck,1,0171_hp_dnn_1_truck_10_n04467665_56954.png,n04467665_56954.png,0.0,-0.95904446,0.36750197,-0.93801
alexnet_w3_mlp_simclrhn_probe2,1,172,NaN,clock,chair,1,0172_hp_dnn_1_chair_10_n04429376_1791.png,n04429376_1791.png,0.0,-0.29862288,0.6373592,-0.6618393
alexnet_w3_mlp_simclrhn_probe2,1,173,NaN,bottle,bottle,3,0173_hp_dnn_3_bottle_10_n04560804_33214.png,n04560804_33214.png,1.0,0.74162614,0.65330523,0.062452316
alexnet_w3_mlp_simclrhn_probe2,1,174,NaN,knife,knife,inf,0174_hp_dnn_inf_knife_10_n03041632_48816.png,n03041632_48816.png,1.0,1.2657261,0.6055015,0.4668493
alexnet_w3_mlp_simclrhn_probe2,1,175,NaN,cat,cat,3,0175_hp_dnn_3_cat_10_n02123394_2274.png,n02123394_2274.png,1.0,-0.6416225,-1.149764,0.35931027
alexnet_w3_mlp_simclrhn_probe2,1,176,NaN,truck,truck,1.5,0176_hp_dnn_1.5_truck_10_n03796401_1326.png,n03796401_1326.png,1.0,1.57585,0.5082379,0.75491583
alexnet_w3_mlp_simclrhn_probe2,1,177,NaN,knife,knife,0.55,0177_hp_dnn_0.55_knife_10_n03041632_11887.png,n03041632_11887.png,1.0,0.24513134,0.23594415,0.0064963256
alexnet_w3_mlp_simclrhn_probe2,1,178,NaN,knife,dog,0.7,0178_hp_dnn_0.7_dog_10_n02113978_8008.png,n02113978_8008.png,0.0,-1.0577166,0.019715972,-0.76185995
alexnet_w3_mlp_simclrhn_probe2,1,179,NaN,clock,cat,0.4,0179_hp_dnn_0.4_cat_10_n02123045_4812.png,n02123045_4812.png,0.0,-0.7206323,0.16907017,-0.6291147
alexnet_w3_mlp_simclrhn_probe2,1,180,NaN,bird,bird,inf,0180_hp_dnn_inf_bird_10_n01833805_3578.png,n01833805_3578.png,1.0,-0.39280844,-0.6363119,0.17218295
alexnet_w3_mlp_simclrhn_probe2,1,181,NaN,clock,truck,1,0181_hp_dnn_1_truck_10_n03417042_3398.png,n03417042_3398.png,0.0,0.063151866,0.31635317,-0.17904036
alexnet_w3_mlp_simclrhn_probe2,1,182,NaN,clock,bird,0.7,0182_hp_dnn_0.7_bird_10_n02007558_4566.png,n02007558_4566.png,0.0,-1.4353354,-0.056808114,-0.974766
alexnet_w3_mlp_simclrhn_probe2,1,183,NaN,clock,knife,0.45,0183_hp_dnn_0.45_knife_10_n03041632_3516.png,n03041632_3516.png,0.0,0.018190876,0.28290963,-0.18718444
alexnet_w3_mlp_simclrhn_probe2,1,184,NaN,clock,cat,1.5,0184_hp_dnn_1.5_cat_10_n02124075_14965.png,n02124075_14965.png,0.0,-1.1226147,-0.22378369,-0.6355696
alexnet_w3_mlp_simclrhn_probe2,1,185,NaN,knife,bird,0.4,0185_hp_dnn_0.4_bird_10_n01843065_2176.png,n01843065_2176.png,0.0,-0.37831423,0.1347149,-0.36276636
alexnet_w3_mlp_simclrhn_probe2,1,186,NaN,knife,knife,3,0186_hp_dnn_3_knife_10_n03041632_21034.png,n03041632_21034.png,1.0,-0.27232194,-1.2149479,0.6665372
alexnet_w3_mlp_simclrhn_probe2,1,187,NaN,knife,keyboard,1.5,0187_hp_dnn_1.5_keyboard_10_n03085013_24026.png,n03085013_24026.png,0.0,-0.2703403,0.1578049,-0.3027444
alexnet_w3_mlp_simclrhn_probe2,1,188,NaN,clock,bottle,0.55,0188_hp_dnn_0.55_bottle_10_n04560804_14395.png,n04560804_14395.png,0.0,0.2164571,0.45981097,-0.17207718
alexnet_w3_mlp_simclrhn_probe2,1,189,NaN,clock,boat,0.45,0189_hp_dnn_0.45_boat_10_n02951358_11567.png,n02951358_11567.png,0.0,-0.9813241,0.4714395,-1.027259
alexnet_w3_mlp_simclrhn_probe2,1,190,NaN,clock,chair,0.4,0190_hp_dnn_0.4_chair_10_n03376595_17747.png,n03376595_17747.png,0.0,-0.3981465,0.30198297,-0.49506634
alexnet_w3_mlp_simclrhn_probe2,1,191,NaN,bottle,bottle,inf,0191_hp_dnn_inf_bottle_10_n04591713_5563.png,n04591713_5563.png,1.0,1.8711531,0.6596562,0.8566576
alexnet_w3_mlp_simclrhn_probe2,1,192,NaN,airplane,airplane,3,0192_hp_dnn_3_airplane_10_n02690373_7496.png,n02690373_7496.png,1.0,5.1385484,1.0754532,2.873042
alexnet_w3_mlp_simclrhn_probe2,1,193,NaN,airplane,airplane,3,0193_hp_dnn_3_airplane_10_n02690373_4465.png,n02690373_4465.png,1.0,6.314892,1.3251638,3.5282705
alexnet_w3_mlp_simclrhn_probe2,1,194,NaN,clock,bear,0.4,0194_hp_dnn_0.4_bear_10_n02134418_119.png,n02134418_119.png,0.0,-0.6923036,0.15408255,-0.5984854
alexnet_w3_mlp_simclrhn_probe2,1,195,NaN,elephant,bear,1.5,0195_hp_dnn_1.5_bear_10_n02133161_1970.png,n02133161_1970.png,0.0,-1.0887674,-0.5471425,-0.38298663
alexnet_w3_mlp_simclrhn_probe2,1,196,NaN,knife,bird,1.5,0196_hp_dnn_1.5_bird_10_n02018795_5488.png,n02018795_5488.png,0.0,-1.3181986,0.12675181,-1.0217342
alexnet_w3_mlp_simclrhn_probe2,1,197,NaN,knife,bird,0.45,0197_hp_dnn_0.45_bird_10_n01796340_1877.png,n01796340_1877.png,0.0,-0.40554643,0.19556156,-0.42504752
alexnet_w3_mlp_simclrhn_probe2,1,198,NaN,airplane,airplane,0.4,0198_hp_dnn_0.4_airplane_10_n02690373_4964.png,n02690373_4964.png,1.0,0.4423945,0.26079628,0.12840933
alexnet_w3_mlp_simclrhn_probe2,1,199,NaN,clock,bottle,0.4,0199_hp_dnn_0.4_bottle_10_n04591713_1762.png,n04591713_1762.png,0.0,0.22196588,0.4493873,-0.16081125
alexnet_w3_mlp_simclrhn_probe2,1,200,NaN,clock,car,1,0200_hp_dnn_1_car_10_n03100240_6059.png,n03100240_6059.png,0.0,-0.8481045,0.12130743,-0.68547773
alexnet_w3_mlp_simclrhn_probe2,1,201,NaN,chair,chair,inf,0201_hp_dnn_inf_chair_10_n03376595_10769.png,n03376595_10769.png,1.0,1.1031573,0.7017394,0.28384534
alexnet_w3_mlp_simclrhn_probe2,1,202,NaN,oven,oven,inf,0202_hp_dnn_inf_oven_10_n04111531_1723.png,n04111531_1723.png,1.0,4.290341,0.25368494,2.8543468
alexnet_w3_mlp_simclrhn_probe2,1,203,NaN,clock,bicycle,0.45,0203_hp_dnn_0.45_bicycle_10_n02835271_3570.png,n02835271_3570.png,0.0,0.06667427,0.61595696,-0.3884015
alexnet_w3_mlp_simclrhn_probe2,1,204,NaN,clock,knife,0.4,0204_hp_dnn_0.4_knife_10_n03041632_83826.png,n03041632_83826.png,0.0,0.103578955,0.30937913,-0.1455227
alexnet_w3_mlp_simclrhn_probe2,1,205,NaN,clock,keyboard,0.7,0205_hp_dnn_0.7_keyboard_10_n03085013_20673.png,n03085013_20673.png,0.0,-0.10915366,0.37390468,-0.34157383
alexnet_w3_mlp_simclrhn_probe2,1,206,NaN,knife,knife,1,0206_hp_dnn_1_knife_10_n03041632_27575.png,n03041632_27575.png,1.0,1.0065929,0.49678448,0.360489
alexnet_w3_mlp_simclrhn_probe2,1,207,NaN,bird,bird,1.5,0207_hp_dnn_1.5_bird_10_n01558993_14305.png,n01558993_14305.png,1.0,0.6809225,-0.73316157,0.99990845
alexnet_w3_mlp_simclrhn_probe2,1,208,NaN,clock,bird,0.4,0208_hp_dnn_0.4_bird_10_n01537544_18123.png,n01537544_18123.png,0.0,-0.2672134,0.105921626,-0.2638463
alexnet_w3_mlp_simclrhn_probe2,1,209,NaN,bicycle,bicycle,3,0209_hp_dnn_3_bicycle_10_n02835271_4307.png,n02835271_4307.png,1.0,10.260322,1.0426314,6.5178914
alexnet_w3_mlp_simclrhn_probe2,1,210,NaN,clock,car,0.7,0210_hp_dnn_0.7_car_10_n04285008_6320.png,n04285008_6320.png,0.0,-0.6265569,0.39527473,-0.7225441
alexnet_w3_mlp_simclrhn_probe2,1,211,NaN,clock,elephant,0.7,0211_hp_dnn_0.7_elephant_10_n02504458_1327.png,n02504458_1327.png,0.0,-2.0421026,0.4096527,-1.7336528
alexnet_w3_mlp_simclrhn_probe2,1,212,NaN,bottle,bottle,1,0212_hp_dnn_1_bottle_10_n04560804_1813.png,n04560804_1813.png,1.0,-0.10365586,-0.21859725,0.081275836
alexnet_w3_mlp_simclrhn_probe2,1,213,NaN,clock,cat,1,0213_hp_dnn_1_cat_10_n02124075_10085.png,n02124075_10085.png,0.0,-1.0073615,-0.030700564,-0.6906036
alexnet_w3_mlp_simclrhn_probe2,1,214,NaN,bottle,clock,inf,0214_hp_dnn_inf_clock_10_n03196217_2853.png,n03196217_2853.png,0.0,0.51372105,1.9788011,-1.0359681
alexnet_w3_mlp_simclrhn_probe2,1,215,NaN,boat,boat,1.5,0215_hp_dnn_1.5_boat_10_n04273569_10149.png,n04273569_10149.png,1.0,0.2838787,0.06183143,0.15701114
alexnet_w3_mlp_simclrhn_probe2,1,216,NaN,chair,chair,3,0216_hp_dnn_3_chair_10_n03376595_17859.png,n03376595_17859.png,1.0,2.626912,-0.4001854,2.1404812
alexnet_w3_mlp_simclrhn_probe2,1,217,NaN,clock,dog,0.55,0217_hp_dnn_0.55_dog_10_n02101556_7581.png,n02101556_7581.png,0.0,-1.7125218,0.63731927,-1.6615887
alexnet_w3_mlp_simclrhn_probe2,1,218,NaN,clock,cat,0.4,0218_hp_dnn_0.4_cat_10_n02125311_8522.png,n02125311_8522.png,0.0,-0.5172972,0.10547081,-0.44036353
alexnet_w3_mlp_simclrhn_probe2,1,219,NaN,clock,clock,0.45,0219_hp_dnn_0.45_clock_10_n04548280_4345.png,n04548280_4345.png,1.0,0.6188008,-0.14560734,0.5405182
alexnet_w3_mlp_simclrhn_probe2,1,220,NaN,truck,truck,inf,0220_hp_dnn_inf_truck_10_n04467665_4088.png,n04467665_4088.png,1.0,6.0226955,1.040806,3.522728
alexnet_w3_mlp_simclrhn_probe2,1,221,NaN,dog,dog,inf,0221_hp_dnn_inf_dog_10_n02102040_1100.png,n02102040_1100.png,1.0,3.4299955,-3.811677,5.120636
alexnet_w3_mlp_simclrhn_probe2,1,222,NaN,clock,bicycle,0.55,0222_hp_dnn_0.55_bicycle_10_n03792782_15557.png,n03792782_15557.png,0.0,-0.83387685,0.1788166,-0.7160824
alexnet_w3_mlp_simclrhn_probe2,1,223,NaN,chair,car,3,0223_hp_dnn_3_car_10_n04285008_12767.png,n04285008_12767.png,0.0,0.29327437,0.8459717,-0.390816
alexnet_w3_mlp_simclrhn_probe2,1,224,NaN,knife,boat,0.4,0224_hp_dnn_0.4_boat_10_n03662601_2438.png,n03662601_2438.png,0.0,-0.39869514,0.27807534,-0.47854897
alexnet_w3_mlp_simclrhn_probe2,1,225,NaN,truck,truck,inf,0225_hp_dnn_inf_truck_10_n03417042_6419.png,n03417042_6419.png,1.0,7.3030577,5.180832,1.5006403
alexnet_w3_mlp_simclrhn_probe2,1,226,NaN,clock,chair,0.45,0226_hp_dnn_0.45_chair_10_n04099969_9891.png,n04099969_9891.png,0.0,-0.2676149,0.020541236,-0.20375717
alexnet_w3_mlp_simclrhn_probe2,1,227,NaN,cat,cat,inf,0227_hp_dnn_inf_cat_10_n02123045_8543.png,n02123045_8543.png,1.0,6.62579,-2.7045531,6.597549
alexnet_w3_mlp_simclrhn_probe2,1,228,NaN,clock,cat,0.55,0228_hp_dnn_0.55_cat_10_n02123045_7342.png,n02123045_7342.png,0.0,-0.622226,0.08556975,-0.50048715
alexnet_w3_mlp_simclrhn_probe2,1,229,NaN,clock,bird,0.55,0229_hp_dnn_0.55_bird_10_n02018207_10814.png,n02018207_10814.png,0.0,-0.7194554,0.1908545,-0.6436863
alexnet_w3_mlp_simclrhn_probe2,1,230,NaN,airplane,airplane,3,0230_hp_dnn_3_airplane_10_n02690373_20033.png,n02690373_20033.png,1.0,3.1519701,1.240158,1.3518554
alexnet_w3_mlp_simclrhn_probe2,1,231,NaN,airplane,truck,0.55,0231_hp_dnn_0.55_truck_10_n04467665_13645.png,n04467665_13645.png,0.0,-0.5743095,0.4220655,-0.70454353
alexnet_w3_mlp_simclrhn_probe2,1,232,NaN,airplane,airplane,1.5,0232_hp_dnn_1.5_airplane_10_n02690373_5015.png,n02690373_5015.png,1.0,2.191411,0.6680503,1.0771787
alexnet_w3_mlp_simclrhn_probe2,1,233,NaN,bicycle,chair,1.5,0233_hp_dnn_1.5_chair_10_n03376595_6173.png,n03376595_6173.png,0.0,0.088639826,0.59160197,-0.35564792
alexnet_w3_mlp_simclrhn_probe2,1,234,NaN,clock,knife,1.5,0234_hp_dnn_1.5_knife_10_n03041632_91967.png,n03041632_91967.png,0.0,-1.8007854,0.14084165,-1.3729377
alexnet_w3_mlp_simclrhn_probe2,1,235,NaN,elephant,elephant,inf,0235_hp_dnn_inf_elephant_10_n02504458_1271.png,n02504458_1271.png,1.0,5.0577602,-1.443965,4.597414
alexnet_w3_mlp_simclrhn_probe2,1,236,NaN,clock,cat,0.7,0236_hp_dnn_0.7_cat_10_n02123597_1684.png,n02123597_1684.png,0.0,-0.38907743,0.08757242,-0.33704236
alexnet_w3_mlp_simclrhn_probe2,1,237,NaN,knife,dog,0.55,0237_hp_dnn_0.55_dog_10_n02091831_3628.png,n02091831_3628.png,0.0,-1.1925552,-0.08228683,-0.7850783
alexnet_w3_mlp_simclrhn_probe2,1,238,NaN,clock,truck,0.45,0238_hp_dnn_0.45_truck_10_n04467665_64540.png,n04467665_64540.png,0.0,-0.3475657,0.7078857,-0.74631685
alexnet_w3_mlp_simclrhn_probe2,1,239,NaN,airplane,airplane,1,0239_hp_dnn_1_airplane_10_n02690373_3289.png,n02690373_3289.png,1.0,0.89216834,-0.010286833,0.63813215
alexnet_w3_mlp_simclrhn_probe2,1,240,NaN,boat,boat,3,0240_hp_dnn_3_boat_10_n04273569_16949.png,n04273569_16949.png,1.0,1.795676,-0.53028697,1.6447042
alexnet_w3_mlp_simclrhn_probe2,1,241,NaN,knife,bicycle,1,0241_hp_dnn_1_bicycle_10_n03792782_15174.png,n03792782_15174.png,0.0,-1.0604055,-0.21725288,-0.596199
alexnet_w3_mlp_simclrhn_probe2,1,242,NaN,knife,bottle,1.5,0242_hp_dnn_1.5_bottle_10_n03937543_146.png,n03937543_146.png,0.0,-0.7345547,0.057460018,-0.560039
alexnet_w3_mlp_simclrhn_probe2,1,243,NaN,clock,chair,0.45,0243_hp_dnn_0.45_chair_10_n04429376_694.png,n04429376_694.png,0.0,-0.3970049,0.63146746,-0.72723985
alexnet_w3_mlp_simclrhn_probe2,1,244,NaN,knife,keyboard,0.4,0244_hp_dnn_0.4_keyboard_10_n03085013_19407.png,n03085013_19407.png,0.0,-0.21327163,0.26220444,-0.33621237
alexnet_w3_mlp_simclrhn_probe2,1,245,NaN,knife,oven,0.45,0245_hp_dnn_0.45_oven_10_n04111531_4955.png,n04111531_4955.png,0.0,-0.90199494,0.0019876221,-0.63921225
alexnet_w3_mlp_simclrhn_probe2,1,246,NaN,knife,dog,1.5,0246_hp_dnn_1.5_dog_10_n02099712_1825.png,n02099712_1825.png,0.0,-2.4754586,-0.71279514,-1.2463913
alexnet_w3_mlp_simclrhn_probe2,1,247,NaN,clock,bear,0.55,0247_hp_dnn_0.55_bear_10_n02134084_14031.png,n02134084_14031.png,0.0,-1.0213813,0.17073576,-0.84295404
alexnet_w3_mlp_simclrhn_probe2,1,248,NaN,clock,car,0.45,0248_hp_dnn_0.45_car_10_n02814533_70922.png,n02814533_70922.png,0.0,-0.59511065,0.44887587,-0.73820996
alexnet_w3_mlp_simclrhn_probe2,1,249,NaN,clock,elephant,0.45,0249_hp_dnn_0.45_elephant_10_n02504458_217.png,n02504458_217.png,0.0,-1.0586467,0.18595576,-0.8800668
alexnet_w3_mlp_simclrhn_probe2,1,250,NaN,car,car,inf,0250_hp_dnn_inf_car_10_n02814533_27824.png,n02814533_27824.png,1.0,8.20854,6.637177,1.1111214
alexnet_w3_mlp_simclrhn_probe2,1,251,NaN,keyboard,keyboard,0.7,0251_hp_dnn_0.7_keyboard_10_n03085013_24257.png,n03085013_24257.png,1.0,1.3865297,0.9234457,0.32744983
alexnet_w3_mlp_simclrhn_probe2,1,252,NaN,elephant,elephant,3,0252_hp_dnn_3_elephant_10_n02504013_2269.png,n02504013_2269.png,1.0,1.5706893,-0.058121003,1.1517428
alexnet_w3_mlp_simclrhn_probe2,1,253,NaN,clock,bear,0.45,0253_hp_dnn_0.45_bear_10_n02134418_1798.png,n02134418_1798.png,0.0,-1.0593915,0.24186589,-0.9201279
alexnet_w3_mlp_simclrhn_probe2,1,254,NaN,clock,dog,0.45,0254_hp_dnn_0.45_dog_10_n02111129_6881.png,n02111129_6881.png,0.0,-1.4555053,0.2807681,-1.2277306
alexnet_w3_mlp_simclrhn_probe2,1,255,NaN,truck,truck,1.5,0255_hp_dnn_1.5_truck_10_n04467665_67315.png,n04467665_67315.png,1.0,0.71954083,-0.41232106,0.80034727
alexnet_w3_mlp_simclrhn_probe2,1,256,NaN,clock,elephant,0.55,0256_hp_dnn_0.55_elephant_10_n02504013_3688.png,n02504013_3688.png,0.0,-1.1923257,-0.03987058,-0.8149088
alexnet_w3_mlp_simclrhn_probe2,1,257,NaN,airplane,truck,1.5,0257_hp_dnn_1.5_truck_10_n04467665_38886.png,n04467665_38886.png,0.0,-0.2927246,0.19227001,-0.34294298
alexnet_w3_mlp_simclrhn_probe2,1,258,NaN,bottle,bottle,inf,0258_hp_dnn_inf_bottle_10_n04557648_4250.png,n04557648_4250.png,1.0,5.372575,0.84262806,3.2031562
alexnet_w3_mlp_simclrhn_probe2,1,259,NaN,clock,chair,0.45,0259_hp_dnn_0.45_chair_10_n04099969_4053.png,n04099969_4053.png,0.0,-0.16068691,0.13550548,-0.20943967
alexnet_w3_mlp_simclrhn_probe2,1,260,NaN,clock,knife,0.7,0260_hp_dnn_0.7_knife_10_n03041632_5727.png,n03041632_5727.png,0.0,-0.6586416,0.1577684,-0.57728904
alexnet_w3_mlp_simclrhn_probe2,1,261,NaN,clock,dog,1,0261_hp_dnn_1_dog_10_n02091134_4525.png,n02091134_4525.png,0.0,-2.7944784,-0.15363894,-1.8673556
alexnet_w3_mlp_simclrhn_probe2,1,262,NaN,keyboard,keyboard,inf,0262_hp_dnn_inf_keyboard_10_n04505470_4685.png,n04505470_4685.png,1.0,7.8278117,2.7817621,3.568096
alexnet_w3_mlp_simclrhn_probe2,1,263,NaN,clock,boat,0.4,0263_hp_dnn_0.4_boat_10_n02951358_6637.png,n02951358_6637.png,0.0,-0.38134992,0.28231642,-0.46928298
alexnet_w3_mlp_simclrhn_probe2,1,264,NaN,clock,dog,1.5,0264_hp_dnn_1.5_dog_10_n02093256_11232.png,n02093256_11232.png,0.0,-1.8027836,-0.16021344,-1.1614726
alexnet_w3_mlp_simclrhn_probe2,1,265,NaN,elephant,elephant,inf,0265_hp_dnn_inf_elephant_10_n02504013_816.png,n02504013_816.png,1.0,1.8613759,-0.008034781,1.3218731
alexnet_w3_mlp_simclrhn_probe2,1,266,NaN,knife,bear,1.5,0266_hp_dnn_1.5_bear_10_n02134084_1484.png,n02134084_1484.png,0.0,-1.6608051,-0.6228838,-0.73392123
alexnet_w3_mlp_simclrhn_probe2,1,267,NaN,knife,boat,0.45,0267_hp_dnn_0.45_boat_10_n04273569_15859.png,n04273569_15859.png,0.0,-0.29601568,0.19706994,-0.3486642
alexnet_w3_mlp_simclrhn_probe2,1,268,NaN,bicycle,bicycle,3,0268_hp_dnn_3_bicycle_10_n02835271_7311.png,n02835271_7311.png,1.0,0.35340488,-1.1782992,1.0830784
alexnet_w3_mlp_simclrhn_probe2,1,269,NaN,clock,cat,1,0269_hp_dnn_1_cat_10_n02123045_2339.png,n02123045_2339.png,0.0,-0.9111753,-0.38382196,-0.37289512
alexnet_w3_mlp_simclrhn_probe2,1,270,NaN,clock,elephant,0.45,0270_hp_dnn_0.45_elephant_10_n02504458_4448.png,n02504458_4448.png,0.0,-0.46113718,-0.06287523,-0.2816137
alexnet_w3_mlp_simclrhn_probe2,1,271,NaN,car,car,1,0271_hp_dnn_1_car_10_n03100240_9955.png,n03100240_9955.png,1.0,2.2423544,1.3842812,0.6067494
alexnet_w3_mlp_simclrhn_probe2,1,272,NaN,clock,truck,0.55,0272_hp_dnn_0.55_truck_10_n03417042_7310.png,n03417042_7310.png,0.0,-0.31483728,0.21793349,-0.37672582
alexnet_w3_mlp_simclrhn_probe2,1,273,NaN,clock,chair,0.55,0273_hp_dnn_0.55_chair_10_n04099969_20421.png,n04099969_20421.png,0.0,-0.18016237,0.29720518,-0.33754984
alexnet_w3_mlp_simclrhn_probe2,1,274,NaN,boat,boat,0.45,0274_hp_dnn_0.45_boat_10_n04612504_4581.png,n04612504_4581.png,1.0,0.23546052,0.20657417,0.020425733
alexnet_w3_mlp_simclrhn_probe2,1,275,NaN,clock,bear,1,0275_hp_dnn_1_bear_10_n02134418_4515.png,n02134418_4515.png,0.0,-1.9237584,-0.10436481,-1.2865056
alexnet_w3_mlp_simclrhn_probe2,1,276,NaN,clock,truck,0.7,0276_hp_dnn_0.7_truck_10_n03796401_1082.png,n03796401_1082.png,0.0,-0.6391584,0.48629117,-0.7958131
alexnet_w3_mlp_simclrhn_probe2,1,277,NaN,clock,bicycle,1,0277_hp_dnn_1_bicycle_10_n03792782_8176.png,n03792782_8176.png,0.0,-0.6434009,-0.0038156111,-0.45225513
alexnet_w3_mlp_simclrhn_probe2,1,278,NaN,airplane,oven,0.4,0278_hp_dnn_0.4_oven_10_n04111531_5463.png,n04111531_5463.png,0.0,-0.76396286,0.14454421,-0.64241153
alexnet_w3_mlp_simclrhn_probe2,1,279,NaN,chair,elephant,1.5,0279_hp_dnn_1.5_elephant_10_n02504013_4166.png,n02504013_4166.png,0.0,-1.3054198,0.04267192,-0.9532448
alexnet_w3_mlp_simclrhn_probe2,1,280,NaN,airplane,airplane,0.7,0280_hp_dnn_0.7_airplane_10_n02690373_18295.png,n02690373_18295.png,1.0,1.1370053,0.36009058,0.54936165
alexnet_w3_mlp_simclrhn_probe2,1,281,NaN,clock,cat,0.45,0281_hp_dnn_0.45_cat_10_n02124075_1460.png,n02124075_1460.png,0.0,-0.45428586,0.07191188,-0.372078
alexnet_w3_mlp_simclrhn_probe2,1,282,NaN,clock,bird,0.55,0282_hp_dnn_0.55_bird_10_n02028035_17759.png,n02028035_17759.png,0.0,-0.28332508,-0.13556273,-0.10448375
alexnet_w3_mlp_simclrhn_probe2,1,283,NaN,bicycle,chair,3,0283_hp_dnn_3_chair_10_n02791124_6654.png,n02791124_6654.png,0.0,0.47951227,0.86308205,-0.2712248
alexnet_w3_mlp_simclrhn_probe2,1,284,NaN,airplane,truck,0.7,0284_hp_dnn_0.7_truck_10_n04467665_22974.png,n04467665_22974.png,0.0,-0.54586136,0.55574787,-0.77895534
alexnet_w3_mlp_simclrhn_probe2,1,285,NaN,clock,clock,0.55,0285_hp_dnn_0.55_clock_10_n03196217_2983.png,n03196217_2983.png,1.0,0.4771304,0.40608138,0.050239254
alexnet_w3_mlp_simclrhn_probe2,1,286,NaN,oven,knife,inf,0286_hp_dnn_inf_knife_10_n03041632_23968.png,n03041632_23968.png,0.0,0.13849339,4.9822793,-3.4250739
alexnet_w3_mlp_simclrhn_probe2,1,287,NaN,clock,keyboard,0.4,0287_hp_dnn_0.4_keyboard_10_n03085013_23519.png,n03085013_23519.png,0.0,0.2547521,0.34724155,-0.06539992
alexnet_w3_mlp_simclrhn_probe2,1,288,NaN,clock,bottle,1.5,0288_hp_dnn_1.5_bottle_10_n04591713_14895.png,n04591713_14895.png,0.0,-0.338816,-0.0076440573,-0.23417392
alexnet_w3_mlp_simclrhn_probe2,1,289,NaN,clock,elephant,1,0289_hp_dnn_1_elephant_10_n02504013_3969.png,n02504013_3969.png,0.0,-1.6133573,-0.22159688,-0.9841233
alexnet_w3_mlp_simclrhn_probe2,1,290,NaN,knife,bear,3,0290_hp_dnn_3_bear_10_n02134418_3723.png,n02134418_3723.png,0.0,-2.1582913,-0.9156308,-0.8786937
alexnet_w3_mlp_simclrhn_probe2,1,291,NaN,clock,keyboard,0.45,0291_hp_dnn_0.45_keyboard_10_n04505470_709.png,n04505470_709.png,0.0,-0.14861812,0.19003125,-0.23946126
alexnet_w3_mlp_simclrhn_probe2,1,292,NaN,clock,knife,1.5,0292_hp_dnn_1.5_knife_10_n03041632_379.png,n03041632_379.png,0.0,-0.3475417,-0.19808482,-0.10568197
alexnet_w3_mlp_simclrhn_probe2,1,293,NaN,bird,oven,3,0293_hp_dnn_3_oven_10_n04111531_13128.png,n04111531_13128.png,0.0,-1.6896456,-1.2401584,-0.31783545
alexnet_w3_mlp_simclrhn_probe2,1,294,NaN,clock,elephant,0.55,0294_hp_dnn_0.55_elephant_10_n02504013_933.png,n02504013_933.png,0.0,-0.42845517,0.101519756,-0.3747489
alexnet_w3_mlp_simclrhn_probe2,1,295,NaN,airplane,airplane,inf,0295_hp_dnn_inf_airplane_10_n02690373_17603.png,n02690373_17603.png,1.0,4.250245,1.4312407,1.9933373
alexnet_w3_mlp_simclrhn_probe2,1,296,NaN,airplane,airplane,0.45,0296_hp_dnn_0.45_airplane_10_n02690373_5177.png,n02690373_5177.png,1.0,0.30812687,0.2920882,0.011341043
alexnet_w3_mlp_simclrhn_probe2,1,297,NaN,chair,chair,1.5,0297_hp_dnn_1.5_chair_10_n04429376_28121.png,n04429376_28121.png,1.0,-0.5047108,-0.86285704,0.25324765
alexnet_w3_mlp_simclrhn_probe2,1,298,NaN,clock,truck,0.55,0298_hp_dnn_0.55_truck_10_n03417042_6517.png,n03417042_6517.png,0.0,-1.0686857,0.17533351,-0.8796544
alexnet_w3_mlp_simclrhn_probe2,1,299,NaN,clock,chair,0.55,0299_hp_dnn_0.55_chair_10_n03376595_5503.png,n03376595_5503.png,0.0,-0.074387774,0.36616358,-0.31151685
alexnet_w3_mlp_simclrhn_probe2,1,300,NaN,clock,clock,1.5,0300_hp_dnn_1.5_clock_10_n03196217_7918.png,n03196217_7918.png,1.0,0.73349375,-0.06173873,0.5623143
alexnet_w3_mlp_simclrhn_probe2,1,301,NaN,car,car,1,0301_hp_dnn_1_car_10_n04285008_7751.png,n04285008_7751.png,1.0,1.563742,0.56614375,0.7054085
alexnet_w3_mlp_simclrhn_probe2,1,302,NaN,clock,clock,0.4,0302_hp_dnn_0.4_clock_10_n03196217_2628.png,n03196217_2628.png,1.0,0.23446639,0.16056857,0.052253652
alexnet_w3_mlp_simclrhn_probe2,1,303,NaN,airplane,bird,0.55,0303_hp_dnn_0.55_bird_10_n01833805_6395.png,n01833805_6395.png,0.0,-0.5215387,0.2401778,-0.5386149
alexnet_w3_mlp_simclrhn_probe2,1,304,NaN,airplane,boat,0.4,0304_hp_dnn_0.4_boat_10_n03344393_6015.png,n03344393_6015.png,0.0,0.048564337,0.4584581,-0.28983864
alexnet_w3_mlp_simclrhn_probe2,1,305,NaN,chair,elephant,1.5,0305_hp_dnn_1.5_elephant_10_n02504013_2739.png,n02504013_2739.png,0.0,-1.9821447,-0.27010733,-1.2105932
alexnet_w3_mlp_simclrhn_probe2,1,306,NaN,clock,keyboard,0.45,0306_hp_dnn_0.45_keyboard_10_n03085013_23316.png,n03085013_23316.png,0.0,-0.035840914,0.45742068,-0.34878862
alexnet_w3_mlp_simclrhn_probe2,1,307,NaN,clock,airplane,1,0307_hp_dnn_1_airplane_10_n02690373_20350.png,n02690373_20350.png,0.0,0.5809512,0.62744695,-0.03287745
alexnet_w3_mlp_simclrhn_probe2,1,308,NaN,clock,clock,3,0308_hp_dnn_3_clock_10_n02708093_3484.png,n02708093_3484.png,1.0,3.332135,-0.342311,2.5982256
alexnet_w3_mlp_simclrhn_probe2,1,309,NaN,clock,bicycle,0.55,0309_hp_dnn_0.55_bicycle_10_n03792782_10185.png,n03792782_10185.png,0.0,-0.79546297,0.053986866,-0.60065174
alexnet_w3_mlp_simclrhn_probe2,1,310,NaN,oven,knife,3,0310_hp_dnn_3_knife_10_n03041632_42196.png,n03041632_42196.png,0.0,0.19793859,0.46031642,-0.18552914
alexnet_w3_mlp_simclrhn_probe2,1,311,NaN,bird,bird,inf,0311_hp_dnn_inf_bird_10_n01855672_6132.png,n01855672_6132.png,1.0,3.3770938,-3.1583512,4.621258
alexnet_w3_mlp_simclrhn_probe2,1,312,NaN,clock,bottle,0.4,0312_hp_dnn_0.4_bottle_10_n03983396_3047.png,n03983396_3047.png,0.0,-0.20173272,0.25365153,-0.3220053
alexnet_w3_mlp_simclrhn_probe2,1,313,NaN,clock,bottle,0.4,0313_hp_dnn_0.4_bottle_10_n04557648_2093.png,n04557648_2093.png,0.0,0.033997297,0.40913105,-0.26525962
alexnet_w3_mlp_simclrhn_probe2,1,314,NaN,keyboard,keyboard,0.55,0314_hp_dnn_0.55_keyboard_10_n04505470_7686.png,n04505470_7686.png,1.0,0.7999457,0.47802424,0.22763285
alexnet_w3_mlp_simclrhn_probe2,1,315,NaN,bird,bear,1.5,0315_hp_dnn_1.5_bear_10_n02132136_5051.png,n02132136_5051.png,0.0,-2.6083267,0.52836543,-2.2179763
alexnet_w3_mlp_simclrhn_probe2,1,316,NaN,knife,bear,1,0316_hp_dnn_1_bear_10_n02134418_24559.png,n02134418_24559.png,0.0,-1.509203,-0.4072065,-0.77922916
alexnet_w3_mlp_simclrhn_probe2,1,317,NaN,clock,oven,0.55,0317_hp_dnn_0.55_oven_10_n04111531_3702.png,n04111531_3702.png,0.0,-1.4712772,0.28326178,-1.2406465
alexnet_w3_mlp_simclrhn_probe2,1,318,NaN,bicycle,bicycle,1,0318_hp_dnn_1_bicycle_10_n02835271_24230.png,n02835271_24230.png,1.0,0.01496068,-0.13981803,0.10944507
alexnet_w3_mlp_simclrhn_probe2,1,319,NaN,keyboard,keyboard,1.5,0319_hp_dnn_1.5_keyboard_10_n03085013_2272.png,n03085013_2272.png,1.0,2.1069064,1.6057911,0.35434204
alexnet_w3_mlp_simclrhn_probe2,1,320,NaN,clock,keyboard,0.55,0320_hp_dnn_0.55_keyboard_10_n03085013_23201.png,n03085013_23201.png,0.0,0.13445084,0.5580353,-0.29951945
alexnet_w3_mlp_simclrhn_probe2,1,321,NaN,bicycle,boat,1.5,0321_hp_dnn_1.5_boat_10_n04273569_9803.png,n04273569_9803.png,0.0,-0.77972484,0.03589815,-0.5767326
alexnet_w3_mlp_simclrhn_probe2,1,322,NaN,knife,boat,0.4,0322_hp_dnn_0.4_boat_10_n04612504_29813.png,n04612504_29813.png,0.0,-0.21918288,0.24067001,-0.3251651
alexnet_w3_mlp_simclrhn_probe2,1,323,NaN,clock,clock,1,0323_hp_dnn_1_clock_10_n02708093_1291.png,n02708093_1291.png,1.0,1.5792589,0.15021783,1.0104847
alexnet_w3_mlp_simclrhn_probe2,1,324,NaN,clock,oven,0.4,0324_hp_dnn_0.4_oven_10_n04111531_1794.png,n04111531_1794.png,0.0,-0.4533973,0.5765024,-0.7282491
alexnet_w3_mlp_simclrhn_probe2,1,325,NaN,clock,bear,0.4,0325_hp_dnn_0.4_bear_10_n02132136_5612.png,n02132136_5612.png,0.0,-0.6817591,0.054644525,-0.520716
alexnet_w3_mlp_simclrhn_probe2,1,326,NaN,boat,boat,1.5,0326_hp_dnn_1.5_boat_10_n04273569_3401.png,n04273569_3401.png,1.0,0.6029316,-0.45212564,0.7460382
alexnet_w3_mlp_simclrhn_probe2,1,327,NaN,bird,cat,3,0327_hp_dnn_3_cat_10_n02125311_16544.png,n02125311_16544.png,0.0,-1.628205,-1.0036798,-0.44160601
alexnet_w3_mlp_simclrhn_probe2,1,328,NaN,keyboard,clock,1.5,0328_hp_dnn_1.5_clock_10_n03196217_10717.png,n03196217_10717.png,0.0,0.5174275,2.1273193,-1.1383655
alexnet_w3_mlp_simclrhn_probe2,1,329,NaN,bicycle,bear,3,0329_hp_dnn_3_bear_10_n02134418_47.png,n02134418_47.png,0.0,-1.8260157,-1.1955811,-0.4457846
alexnet_w3_mlp_simclrhn_probe2,1,330,NaN,keyboard,bottle,3,0330_hp_dnn_3_bottle_10_n04591713_4380.png,n04591713_4380.png,0.0,-0.79960483,0.7510745,-1.0964959
alexnet_w3_mlp_simclrhn_probe2,1,331,NaN,clock,chair,0.55,0331_hp_dnn_0.55_chair_10_n04429376_8710.png,n04429376_8710.png,0.0,-0.28443664,0.31484568,-0.4237566
alexnet_w3_mlp_simclrhn_probe2,1,332,NaN,bicycle,bicycle,3,0332_hp_dnn_3_bicycle_10_n02835271_781.png,n02835271_781.png,1.0,7.5993433,0.12485629,5.28526
alexnet_w3_mlp_simclrhn_probe2,1,333,NaN,cat,bear,1.5,0333_hp_dnn_1.5_bear_10_n02134418_875.png,n02134418_875.png,0.0,-1.1011918,-0.5108239,-0.4174531
alexnet_w3_mlp_simclrhn_probe2,1,334,NaN,clock,dog,0.55,0334_hp_dnn_0.55_dog_10_n02094433_10343.png,n02094433_10343.png,0.0,-1.0052116,0.023600897,-0.72748035
alexnet_w3_mlp_simclrhn_probe2,1,335,NaN,airplane,airplane,3,0335_hp_dnn_3_airplane_10_n02690373_1053.png,n02690373_1053.png,1.0,4.8349223,3.0048943,1.2940253
alexnet_w3_mlp_simclrhn_probe2,1,336,NaN,airplane,airplane,3,0336_hp_dnn_3_airplane_10_n02690373_18848.png,n02690373_18848.png,1.0,3.5432308,-0.38806188,2.7798436
alexnet_w3_mlp_simclrhn_probe2,1,337,NaN,keyboard,keyboard,3,0337_hp_dnn_3_keyboard_10_n03085013_18741.png,n03085013_18741.png,1.0,0.7959859,0.53739136,0.18285394
alexnet_w3_mlp_simclrhn_probe2,1,338,NaN,bear,bear,inf,0338_hp_dnn_inf_bear_10_n02134418_3152.png,n02134418_3152.png,1.0,6.3488092,0.31389058,4.267332
alexnet_w3_mlp_simclrhn_probe2,1,339,NaN,knife,bicycle,1.5,0339_hp_dnn_1.5_bicycle_10_n03792782_14557.png,n03792782_14557.png,0.0,-1.2696853,-0.87325186,-0.28032076
alexnet_w3_mlp_simclrhn_probe2,1,340,NaN,knife,bird,0.7,0340_hp_dnn_0.7_bird_10_n01796340_5262.png,n01796340_5262.png,0.0,-1.0985937,-0.7349862,-0.25710934
alexnet_w3_mlp_simclrhn_probe2,1,341,NaN,clock,bicycle,1,0341_hp_dnn_1_bicycle_10_n03792782_4559.png,n03792782_4559.png,0.0,-0.101752914,0.6779151,-0.5513086
alexnet_w3_mlp_simclrhn_probe2,1,342,NaN,airplane,bear,0.45,0342_hp_dnn_0.45_bear_10_n02134084_3177.png,n02134084_3177.png,0.0,-0.39565533,0.16210715,-0.39439765
alexnet_w3_mlp_simclrhn_probe2,1,343,NaN,knife,elephant,0.4,0343_hp_dnn_0.4_elephant_10_n02504458_5008.png,n02504458_5008.png,0.0,-0.43294308,0.18005851,-0.43345758
alexnet_w3_mlp_simclrhn_probe2,1,344,NaN,oven,oven,3,0344_hp_dnn_3_oven_10_n04111531_7955.png,n04111531_7955.png,1.0,0.5053586,-0.21386904,0.50857073
alexnet_w3_mlp_simclrhn_probe2,1,345,NaN,bicycle,bicycle,inf,0345_hp_dnn_inf_bicycle_10_n02835271_13793.png,n02835271_13793.png,1.0,1.2208203,-0.72983766,1.3793235
alexnet_w3_mlp_simclrhn_probe2,1,346,NaN,knife,keyboard,0.45,0346_hp_dnn_0.45_keyboard_10_n03085013_14810.png,n03085013_14810.png,0.0,0.1487389,0.4633661,-0.222475
alexnet_w3_mlp_simclrhn_probe2,1,347,NaN,clock,car,0.7,0347_hp_dnn_0.7_car_10_n02814533_39933.png,n02814533_39933.png,0.0,-1.0498539,0.37235078,-1.0056506
alexnet_w3_mlp_simclrhn_probe2,1,348,NaN,bird,bird,1,0348_hp_dnn_1_bird_10_n02027492_4897.png,n02027492_4897.png,1.0,0.7444549,-1.4774973,1.5711575
alexnet_w3_mlp_simclrhn_probe2,1,349,NaN,chair,keyboard,3,0349_hp_dnn_3_keyboard_10_n03085013_23776.png,n03085013_23776.png,0.0,-0.99352205,0.2733314,-0.8958007
alexnet_w3_mlp_simclrhn_probe2,1,350,NaN,clock,car,1.5,0350_hp_dnn_1.5_car_10_n02814533_31493.png,n02814533_31493.png,0.0,-0.011095345,0.599528,-0.43177593
alexnet_w3_mlp_simclrhn_probe2,1,351,NaN,boat,boat,1.5,0351_hp_dnn_1.5_boat_10_n03344393_7631.png,n03344393_7631.png,1.0,0.5029853,0.43826437,0.04576461
alexnet_w3_mlp_simclrhn_probe2,1,352,NaN,clock,bicycle,0.4,0352_hp_dnn_0.4_bicycle_10_n02835271_1261.png,n02835271_1261.png,0.0,-0.37574673,0.36090925,-0.5208944
alexnet_w3_mlp_simclrhn_probe2,1,353,NaN,clock,clock,1,0353_hp_dnn_1_clock_10_n03196217_1850.png,n03196217_1850.png,1.0,0.67045254,0.38972864,0.19850178
alexnet_w3_mlp_simclrhn_probe2,1,354,NaN,bear,bear,inf,0354_hp_dnn_inf_bear_10_n02132136_22387.png,n02132136_22387.png,1.0,3.7769194,0.43137324,2.3656585
alexnet_w3_mlp_simclrhn_probe2,1,355,NaN,airplane,airplane,1.5,0355_hp_dnn_1.5_airplane_10_n02690373_2316.png,n02690373_2316.png,1.0,0.7737177,0.4184136,0.25123793
alexnet_w3_mlp_simclrhn_probe2,1,356,NaN,knife,cat,0.7,0356_hp_dnn_0.7_cat_10_n02123597_3634.png,n02123597_3634.png,0.0,-0.8196114,-0.36261064,-0.3231483
alexnet_w3_mlp_simclrhn_probe2,1,357,NaN,knife,bird,0.45,0357_hp_dnn_0.45_bird_10_n02018207_4151.png,n02018207_4151.png,0.0,-0.4128935,0.14709577,-0.39597222
alexnet_w3_mlp_simclrhn_probe2,1,358,NaN,clock,knife,0.7,0358_hp_dnn_0.7_knife_10_n03041632_94155.png,n03041632_94155.png,0.0,-0.6416366,0.19324867,-0.5903531
alexnet_w3_mlp_simclrhn_probe2,1,359,NaN,clock,bottle,0.45,0359_hp_dnn_0.45_bottle_10_n04560804_7509.png,n04560804_7509.png,0.0,-0.24119632,0.39897072,-0.45266646
alexnet_w3_mlp_simclrhn_probe2,1,360,NaN,clock,cat,0.4,0360_hp_dnn_0.4_cat_10_n02123045_12748.png,n02123045_12748.png,0.0,-0.610785,0.1674939,-0.5503263
alexnet_w3_mlp_simclrhn_probe2,1,361,NaN,clock,elephant,0.7,0361_hp_dnn_0.7_elephant_10_n02504013_6.png,n02504013_6.png,0.0,-1.2077636,0.208786,-1.0016518
alexnet_w3_mlp_simclrhn_probe2,1,362,NaN,clock,elephant,0.4,0362_hp_dnn_0.4_elephant_10_n02504013_1492.png,n02504013_1492.png,0.0,-0.81444377,0.28940505,-0.780539
alexnet_w3_mlp_simclrhn_probe2,1,363,NaN,clock,dog,0.4,0363_hp_dnn_0.4_dog_10_n02107142_27162.png,n02107142_27162.png,0.0,-0.8473616,0.08503728,-0.65930563
alexnet_w3_mlp_simclrhn_probe2,1,364,NaN,clock,bear,0.7,0364_hp_dnn_0.7_bear_10_n02134418_962.png,n02134418_962.png,0.0,-1.0475459,-0.013599853,-0.7311103
alexnet_w3_mlp_simclrhn_probe2,1,365,NaN,truck,truck,0.7,0365_hp_dnn_0.7_truck_10_n03417042_9693.png,n03417042_9693.png,1.0,0.43344778,0.2143381,0.15493394
alexnet_w3_mlp_simclrhn_probe2,1,366,NaN,clock,oven,1,0366_hp_dnn_1_oven_10_n04111531_2116.png,n04111531_2116.png,0.0,-0.8742716,-0.328061,-0.3862292
alexnet_w3_mlp_simclrhn_probe2,1,367,NaN,keyboard,keyboard,inf,0367_hp_dnn_inf_keyboard_10_n03085013_20460.png,n03085013_20460.png,1.0,2.6798594,0.35172874,1.646237
alexnet_w3_mlp_simclrhn_probe2,1,368,NaN,clock,bird,0.45,0368_hp_dnn_0.45_bird_10_n01796340_6191.png,n01796340_6191.png,0.0,-0.6839203,0.02340261,-0.5001529
alexnet_w3_mlp_simclrhn_probe2,1,369,NaN,chair,oven,1.5,0369_hp_dnn_1.5_oven_10_n04111531_8046.png,n04111531_8046.png,0.0,0.0007726252,0.033400923,-0.023071691
alexnet_w3_mlp_simclrhn_probe2,1,370,NaN,clock,boat,0.45,0370_hp_dnn_0.45_boat_10_n03344393_11788.png,n03344393_11788.png,0.0,-0.6205721,0.2777509,-0.6352103
alexnet_w3_mlp_simclrhn_probe2,1,371,NaN,cat,cat,inf,0371_hp_dnn_inf_cat_10_n02123394_2765.png,n02123394_2765.png,1.0,2.6295955,-0.840916,2.4540222
alexnet_w3_mlp_simclrhn_probe2,1,372,NaN,clock,bicycle,0.4,0372_hp_dnn_0.4_bicycle_10_n03792782_26834.png,n03792782_26834.png,0.0,0.04121221,0.5463443,-0.35718232
alexnet_w3_mlp_simclrhn_probe2,1,373,NaN,clock,cat,1.5,0373_hp_dnn_1.5_cat_10_n02125311_37036.png,n02125311_37036.png,0.0,-1.4217644,-0.58473474,-0.59186935
alexnet_w3_mlp_simclrhn_probe2,1,374,NaN,clock,bicycle,0.7,0374_hp_dnn_0.7_bicycle_10_n03792782_4067.png,n03792782_4067.png,0.0,-0.603665,-0.16079117,-0.3131591
alexnet_w3_mlp_simclrhn_probe2,1,375,NaN,bear,bear,inf,0375_hp_dnn_inf_bear_10_n02134418_3886.png,n02134418_3886.png,1.0,5.1027975,4.0769305,0.7253975
alexnet_w3_mlp_simclrhn_probe2,1,376,NaN,clock,dog,0.7,0376_hp_dnn_0.7_dog_10_n02110185_9014.png,n02110185_9014.png,0.0,-1.9314934,0.6352289,-1.8149469
alexnet_w3_mlp_simclrhn_probe2,1,377,NaN,oven,bear,inf,0377_hp_dnn_inf_bear_10_n02134084_14888.png,n02134084_14888.png,0.0,0.7096398,2.1820555,-1.0411551
alexnet_w3_mlp_simclrhn_probe2,1,378,NaN,clock,truck,1.5,0378_hp_dnn_1.5_truck_10_n03417042_5249.png,n03417042_5249.png,0.0,-2.096298,0.17211837,-1.6040126
alexnet_w3_mlp_simclrhn_probe2,1,379,NaN,clock,oven,1,0379_hp_dnn_1_oven_10_n04111531_10711.png,n04111531_10711.png,0.0,-1.0105771,-0.5341847,-0.3368603
alexnet_w3_mlp_simclrhn_probe2,1,380,NaN,clock,car,1.5,0380_hp_dnn_1.5_car_10_n04285008_15271.png,n04285008_15271.png,0.0,-0.1858932,0.80793047,-0.7027395
alexnet_w3_mlp_simclrhn_probe2,1,381,NaN,knife,cat,0.45,0381_hp_dnn_0.45_cat_10_n02123597_12232.png,n02123597_12232.png,0.0,-0.58235043,0.13769814,-0.5091512
alexnet_w3_mlp_simclrhn_probe2,1,382,NaN,oven,clock,3,0382_hp_dnn_3_clock_10_n04548280_8083.png,n04548280_8083.png,0.0,0.035370696,0.8519981,-0.57744277
alexnet_w3_mlp_simclrhn_probe2,1,383,NaN,clock,chair,0.45,0383_hp_dnn_0.45_chair_10_n04099969_8946.png,n04099969_8946.png,0.0,0.00784193,0.4031247,-0.2795071
alexnet_w3_mlp_simclrhn_probe2,1,384,NaN,airplane,keyboard,0.7,0384_hp_dnn_0.7_keyboard_10_n03085013_21973.png,n03085013_21973.png,0.0,-0.41833675,0.3787902,-0.5636539
alexnet_w3_mlp_simclrhn_probe2,1,385,NaN,clock,bottle,0.7,0385_hp_dnn_0.7_bottle_10_n04560804_15225.png,n04560804_15225.png,0.0,-0.68802774,-0.05986766,-0.44417626
alexnet_w3_mlp_simclrhn_probe2,1,386,NaN,cat,cat,inf,0386_hp_dnn_inf_cat_10_n02123045_10395.png,n02123045_10395.png,1.0,8.958398,-2.5303955,8.123804
alexnet_w3_mlp_simclrhn_probe2,1,387,NaN,clock,truck,0.45,0387_hp_dnn_0.45_truck_10_n03417042_4188.png,n03417042_4188.png,0.0,-0.47102466,0.11244393,-0.41257462
alexnet_w3_mlp_simclrhn_probe2,1,388,NaN,keyboard,keyboard,1.5,0388_hp_dnn_1.5_keyboard_10_n03085013_21615.png,n03085013_21615.png,1.0,5.6604433,0.09510328,3.9352899
alexnet_w3_mlp_simclrhn_probe2,1,389,NaN,knife,knife,inf,0389_hp_dnn_inf_knife_10_n03041632_26989.png,n03041632_26989.png,1.0,1.9994704,-0.6954552,1.9056002
alexnet_w3_mlp_simclrhn_probe2,1,390,NaN,airplane,airplane,0.55,0390_hp_dnn_0.55_airplane_10_n02690373_16986.png,n02690373_16986.png,1.0,0.68088883,0.36288238,0.22486453
alexnet_w3_mlp_simclrhn_probe2,1,391,NaN,bicycle,bicycle,inf,0391_hp_dnn_inf_bicycle_10_n02835271_9067.png,n02835271_9067.png,1.0,13.872895,-3.2539046,12.110477
alexnet_w3_mlp_simclrhn_probe2,1,392,NaN,clock,dog,0.45,0392_hp_dnn_0.45_dog_10_n02106382_9188.png,n02106382_9188.png,0.0,-1.0804241,-0.038920958,-0.7364539
alexnet_w3_mlp_simclrhn_probe2,1,393,NaN,boat,boat,inf,0393_hp_dnn_inf_boat_10_n02951358_3205.png,n02951358_3205.png,1.0,7.2361765,0.02988717,5.0956163
alexnet_w3_mlp_simclrhn_probe2,1,394,NaN,clock,knife,0.4,0394_hp_dnn_0.4_knife_10_n03041632_45270.png,n03041632_45270.png,0.0,-0.075728774,0.25304678,-0.23247942
alexnet_w3_mlp_simclrhn_probe2,1,395,NaN,car,car,inf,0395_hp_dnn_inf_car_10_n03100240_6376.png,n03100240_6376.png,1.0,3.7628376,2.0222096,1.2308099
alexnet_w3_mlp_simclrhn_probe2,1,396,NaN,truck,truck,1,0396_hp_dnn_1_truck_10_n03796401_430.png,n03796401_430.png,1.0,0.32232928,0.0005517006,0.22753112
alexnet_w3_mlp_simclrhn_probe2,1,397,NaN,clock,knife,0.7,0397_hp_dnn_0.7_knife_10_n03041632_24181.png,n03041632_24181.png,0.0,0.10075232,0.12674327,-0.01837838
alexnet_w3_mlp_simclrhn_probe2,1,398,NaN,clock,bear,1,0398_hp_dnn_1_bear_10_n02134084_16190.png,n02134084_16190.png,0.0,-1.5327005,-0.29202935,-0.87728703
alexnet_w3_mlp_simclrhn_probe2,1,399,NaN,clock,bear,0.55,0399_hp_dnn_0.55_bear_10_n02132136_7253.png,n02132136_7253.png,0.0,-1.2958261,0.34870887,-1.1628618
alexnet_w3_mlp_simclrhn_probe2,1,400,NaN,clock,boat,1,0400_hp_dnn_1_boat_10_n03662601_34676.png,n03662601_34676.png,0.0,-1.5322723,0.009909391,-1.0904871
alexnet_w3_mlp_simclrhn_probe2,1,401,NaN,clock,knife,0.55,0401_hp_dnn_0.55_knife_10_n03041632_81471.png,n03041632_81471.png,0.0,-0.8487534,0.45737576,-0.92357284
alexnet_w3_mlp_simclrhn_probe2,1,402,NaN,clock,cat,0.7,0402_hp_dnn_0.7_cat_10_n02123597_3822.png,n02123597_3822.png,0.0,-0.67190856,0.21909912,-0.63003755
alexnet_w3_mlp_simclrhn_probe2,1,403,NaN,keyboard,keyboard,1.5,0403_hp_dnn_1.5_keyboard_10_n03085013_4823.png,n03085013_4823.png,1.0,3.428216,0.5513949,2.0342197
alexnet_w3_mlp_simclrhn_probe2,1,404,NaN,knife,dog,0.4,0404_hp_dnn_0.4_dog_10_n02108551_8385.png,n02108551_8385.png,0.0,-0.86283106,0.13836183,-0.7079503
alexnet_w3_mlp_simclrhn_probe2,1,405,NaN,clock,cat,0.7,0405_hp_dnn_0.7_cat_10_n02124075_8732.png,n02124075_8732.png,0.0,-0.62066585,-0.11094269,-0.36042872
alexnet_w3_mlp_simclrhn_probe2,1,406,NaN,bicycle,dog,3,0406_hp_dnn_3_dog_10_n02093428_17625.png,n02093428_17625.png,0.0,-2.4786134,-0.7191816,-1.2441062
alexnet_w3_mlp_simclrhn_probe2,1,407,NaN,car,chair,inf,0407_hp_dnn_inf_chair_10_n02791124_6999.png,n02791124_6999.png,0.0,1.2785614,1.6784124,-0.2827374
alexnet_w3_mlp_simclrhn_probe2,1,408,NaN,bird,bird,3,0408_hp_dnn_3_bird_10_n02028035_521.png,n02028035_521.png,1.0,0.020340946,-0.066040516,0.06108092
alexnet_w3_mlp_simclrhn_probe2,1,409,NaN,knife,truck,0.4,0409_hp_dnn_0.4_truck_10_n03417042_750.png,n03417042_750.png,0.0,-0.7224158,0.24457718,-0.6837673
alexnet_w3_mlp_simclrhn_probe2,1,410,NaN,airplane,airplane,inf,0410_hp_dnn_inf_airplane_10_n02690373_5779.png,n02690373_5779.png,1.0,8.3821945,2.738421,3.9907506
alexnet_w3_mlp_simclrhn_probe2,1,411,NaN,knife,cat,1.5,0411_hp_dnn_1.5_cat_10_n02123045_7154.png,n02123045_7154.png,0.0,-0.96781063,-0.96398455,-0.0027054483
alexnet_w3_mlp_simclrhn_probe2,1,412,NaN,bottle,bottle,1.5,0412_hp_dnn_1.5_bottle_10_n04591713_6958.png,n04591713_6958.png,1.0,1.9480989,-0.40399185,1.6631794
alexnet_w3_mlp_simclrhn_probe2,1,413,NaN,bicycle,bird,1.5,0413_hp_dnn_1.5_bird_10_n01818515_42621.png,n01818515_42621.png,0.0,-0.9656235,-0.72813374,-0.16793062
alexnet_w3_mlp_simclrhn_probe2,1,414,NaN,truck,truck,inf,0414_hp_dnn_inf_truck_10_n03796401_1330.png,n03796401_1330.png,1.0,4.5875363,1.7487732,2.0073087
alexnet_w3_mlp_simclrhn_probe2,1,415,NaN,bird,bird,1.5,0415_hp_dnn_1.5_bird_10_n01843065_6365.png,n01843065_6365.png,1.0,-0.40517083,-1.1876458,0.5532934
alexnet_w3_mlp_simclrhn_probe2,1,416,NaN,bottle,bottle,1.5,0416_hp_dnn_1.5_bottle_10_n03983396_11898.png,n03983396_11898.png,1.0,-0.30464867,-0.5450455,0.16998623
alexnet_w3_mlp_simclrhn_probe2,1,417,NaN,bird,bird,3,0417_hp_dnn_3_bird_10_n01530575_3831.png,n01530575_3831.png,1.0,0.74885845,-0.40164977,0.8135321
alexnet_w3_mlp_simclrhn_probe2,1,418,NaN,clock,bottle,0.4,0418_hp_dnn_0.4_bottle_10_n03983396_8837.png,n03983396_8837.png,0.0,-0.048275214,0.44470966,-0.34859294
alexnet_w3_mlp_simclrhn_probe2,1,419,NaN,truck,car,0.7,0419_hp_dnn_0.7_car_10_n02814533_90798.png,n02814533_90798.png,0.0,0.77043325,1.0991569,-0.23244269
alexnet_w3_mlp_simclrhn_probe2,1,420,NaN,bird,bird,3,0420_hp_dnn_3_bird_10_n01819313_3440.png,n01819313_3440.png,1.0,-0.3341279,-0.7766166,0.31288674
alexnet_w3_mlp_simclrhn_probe2,1,421,NaN,clock,dog,0.55,0421_hp_dnn_0.55_dog_10_n02090721_4433.png,n02090721_4433.png,0.0,-1.5789359,-0.1670117,-0.99838114
alexnet_w3_mlp_simclrhn_probe2,1,422,NaN,elephant,elephant,3,0422_hp_dnn_3_elephant_10_n02504013_9566.png,n02504013_9566.png,1.0,-0.12785971,-0.6720006,0.3847657
alexnet_w3_mlp_simclrhn_probe2,1,423,NaN,cat,dog,1.5,0423_hp_dnn_1.5_dog_10_n02105251_6599.png,n02105251_6599.png,0.0,-1.4548928,-0.54655457,-0.6422921
alexnet_w3_mlp_simclrhn_probe2,1,424,NaN,clock,chair,0.7,0424_hp_dnn_0.7_chair_10_n02791124_5759.png,n02791124_5759.png,0.0,0.016053244,0.32861155,-0.22101209
alexnet_w3_mlp_simclrhn_probe2,1,425,NaN,elephant,elephant,inf,0425_hp_dnn_inf_elephant_10_n02504458_150.png,n02504458_150.png,1.0,5.574458,0.44076738,3.6300676
alexnet_w3_mlp_simclrhn_probe2,1,426,NaN,clock,clock,0.45,0426_hp_dnn_0.45_clock_10_n04548280_10040.png,n04548280_10040.png,1.0,1.3606133,-0.1254302,1.0507915
alexnet_w3_mlp_simclrhn_probe2,1,427,NaN,clock,elephant,0.7,0427_hp_dnn_0.7_elephant_10_n02504458_155.png,n02504458_155.png,0.0,-1.4113398,0.15624325,-1.1084485
alexnet_w3_mlp_simclrhn_probe2,1,428,NaN,knife,knife,1,0428_hp_dnn_1_knife_10_n03041632_48062.png,n03041632_48062.png,1.0,0.5187352,0.33596635,0.12923707
alexnet_w3_mlp_simclrhn_probe2,1,429,NaN,airplane,truck,1.5,0429_hp_dnn_1.5_truck_10_n04467665_40361.png,n04467665_40361.png,0.0,0.5676416,0.9346931,-0.2595446
alexnet_w3_mlp_simclrhn_probe2,1,430,NaN,clock,bird,0.45,0430_hp_dnn_0.45_bird_10_n01614925_7608.png,n01614925_7608.png,0.0,-0.9412479,0.3336911,-0.901518
alexnet_w3_mlp_simclrhn_probe2,1,431,NaN,clock,bear,0.45,0431_hp_dnn_0.45_bear_10_n02133161_2749.png,n02133161_2749.png,0.0,-1.047498,0.14709981,-0.84470826
alexnet_w3_mlp_simclrhn_probe2,1,432,NaN,airplane,boat,0.55,0432_hp_dnn_0.55_boat_10_n04612504_654.png,n04612504_654.png,0.0,0.031908344,0.42998207,-0.28148064
alexnet_w3_mlp_simclrhn_probe2,1,433,NaN,bottle,bottle,1,0433_hp_dnn_1_bottle_10_n04579145_287.png,n04579145_287.png,1.0,1.6149254,0.5891065,0.72536343
alexnet_w3_mlp_simclrhn_probe2,1,434,NaN,bird,bear,3,0434_hp_dnn_3_bear_10_n02133161_1423.png,n02133161_1423.png,0.0,-2.1472445,-0.7218106,-1.007934
alexnet_w3_mlp_simclrhn_probe2,1,435,NaN,clock,bicycle,0.7,0435_hp_dnn_0.7_bicycle_10_n02835271_4656.png,n02835271_4656.png,0.0,0.1844426,0.3045947,-0.084960364
alexnet_w3_mlp_simclrhn_probe2,1,436,NaN,clock,clock,0.7,0436_hp_dnn_0.7_clock_10_n02708093_3688.png,n02708093_3688.png,1.0,0.6721468,-0.120373905,0.5603968
alexnet_w3_mlp_simclrhn_probe2,1,437,NaN,airplane,airplane,inf,0437_hp_dnn_inf_airplane_10_n02690373_10278.png,n02690373_10278.png,1.0,1.6968162,0.12706746,1.10998
alexnet_w3_mlp_simclrhn_probe2,1,438,NaN,clock,car,0.4,0438_hp_dnn_0.4_car_10_n04285008_11133.png,n04285008_11133.png,0.0,-0.8363738,0.04916869,-0.62617314
alexnet_w3_mlp_simclrhn_probe2,1,439,NaN,knife,knife,1,0439_hp_dnn_1_knife_10_n03041632_4214.png,n03041632_4214.png,1.0,0.06753035,0.022574564,0.03178854
alexnet_w3_mlp_simclrhn_probe2,1,440,NaN,oven,oven,inf,0440_hp_dnn_inf_oven_10_n04111531_7741.png,n04111531_7741.png,1.0,-0.37162498,-1.0400957,0.4726802
alexnet_w3_mlp_simclrhn_probe2,1,441,NaN,bicycle,bicycle,3,0441_hp_dnn_3_bicycle_10_n03792782_4472.png,n03792782_4472.png,1.0,2.3918207,-1.0618718,2.4421294
alexnet_w3_mlp_simclrhn_probe2,1,442,NaN,clock,bird,0.7,0442_hp_dnn_0.7_bird_10_n01798484_18666.png,n01798484_18666.png,0.0,-1.4699198,-0.05149593,-1.0029771
alexnet_w3_mlp_simclrhn_probe2,1,443,NaN,keyboard,keyboard,1.5,0443_hp_dnn_1.5_keyboard_10_n04505470_5059.png,n04505470_5059.png,1.0,0.7406666,-0.015866939,0.53495
alexnet_w3_mlp_simclrhn_probe2,1,444,NaN,clock,elephant,0.55,0444_hp_dnn_0.55_elephant_10_n02504013_2369.png,n02504013_2369.png,0.0,-1.3229628,0.06654026,-0.982527
alexnet_w3_mlp_simclrhn_probe2,1,445,NaN,chair,bottle,3,0445_hp_dnn_3_bottle_10_n02823428_10796.png,n02823428_10796.png,0.0,-0.7730002,-0.27313736,-0.3534564
alexnet_w3_mlp_simclrhn_probe2,1,446,NaN,oven,oven,3,0446_hp_dnn_3_oven_10_n04111531_4421.png,n04111531_4421.png,1.0,-0.8465042,-0.9349495,0.06254028
alexnet_w3_mlp_simclrhn_probe2,1,447,NaN,bicycle,bicycle,inf,0447_hp_dnn_inf_bicycle_10_n02835271_7303.png,n02835271_7303.png,1.0,12.242424,-1.9440858,10.031378
alexnet_w3_mlp_simclrhn_probe2,1,448,NaN,chair,chair,inf,0448_hp_dnn_inf_chair_10_n02791124_7877.png,n02791124_7877.png,1.0,1.0826505,-0.3523928,1.0147289
alexnet_w3_mlp_simclrhn_probe2,1,449,NaN,clock,bottle,1.5,0449_hp_dnn_1.5_bottle_10_n04560804_12099.png,n04560804_12099.png,0.0,-0.5705088,0.24300833,-0.5752435
alexnet_w3_mlp_simclrhn_probe2,1,450,NaN,airplane,boat,1,0450_hp_dnn_1_boat_10_n03662601_18924.png,n03662601_18924.png,0.0,0.46083337,0.7383306,-0.19622017
alexnet_w3_mlp_simclrhn_probe2,1,451,NaN,clock,bottle,1,0451_hp_dnn_1_bottle_10_n04591713_4206.png,n04591713_4206.png,0.0,-0.18931954,0.34388074,-0.37702954
alexnet_w3_mlp_simclrhn_probe2,1,452,NaN,clock,clock,0.55,0452_hp_dnn_0.55_clock_10_n04548280_6689.png,n04548280_6689.png,1.0,1.1596082,0.16214648,0.705312
alexnet_w3_mlp_simclrhn_probe2,1,453,NaN,knife,dog,0.4,0453_hp_dnn_0.4_dog_10_n02090721_5305.png,n02090721_5305.png,0.0,-0.8507626,0.15177017,-0.7088977
alexnet_w3_mlp_simclrhn_probe2,1,454,NaN,airplane,clock,0.7,0454_hp_dnn_0.7_clock_10_n03196217_1746.png,n03196217_1746.png,0.0,0.0878343,0.19515833,-0.07588955
alexnet_w3_mlp_simclrhn_probe2,1,455,NaN,keyboard,keyboard,3,0455_hp_dnn_3_keyboard_10_n04505470_7721.png,n04505470_7721.png,1.0,3.4710133,0.29598746,2.2450824
alexnet_w3_mlp_simclrhn_probe2,1,456,NaN,clock,clock,0.55,0456_hp_dnn_0.55_clock_10_n04548280_3248.png,n04548280_3248.png,1.0,1.0313443,-0.16581132,0.84651685
alexnet_w3_mlp_simclrhn_probe2,1,457,NaN,bird,bird,inf,0457_hp_dnn_inf_bird_10_n01534433_28009.png,n01534433_28009.png,1.0,3.4650733,-3.563479,4.969937
alexnet_w3_mlp_simclrhn_probe2,1,458,NaN,knife,chair,0.4,0458_hp_dnn_0.4_chair_10_n04099969_142.png,n04099969_142.png,0.0,-0.16943687,0.07212649,-0.1708111
alexnet_w3_mlp_simclrhn_probe2,1,459,NaN,clock,bicycle,0.55,0459_hp_dnn_0.55_bicycle_10_n03792782_7092.png,n03792782_7092.png,0.0,0.45642662,0.64520407,-0.13348581
alexnet_w3_mlp_simclrhn_probe2,1,460,NaN,knife,keyboard,0.45,0460_hp_dnn_0.45_keyboard_10_n03085013_25559.png,n03085013_25559.png,0.0,-0.11817327,0.23705883,-0.25118706
alexnet_w3_mlp_simclrhn_probe2,1,461,NaN,clock,elephant,0.7,0461_hp_dnn_0.7_elephant_10_n02504013_9144.png,n02504013_9144.png,0.0,-0.77999926,0.009152566,-0.55801463
alexnet_w3_mlp_simclrhn_probe2,1,462,NaN,keyboard,clock,0.45,0462_hp_dnn_0.45_clock_10_n03196217_2003.png,n03196217_2003.png,0.0,0.45601717,0.49341977,-0.026447633
alexnet_w3_mlp_simclrhn_probe2,1,463,NaN,knife,elephant,1,0463_hp_dnn_1_elephant_10_n02504013_3169.png,n02504013_3169.png,0.0,-0.54435766,-0.2988264,-0.17361683
alexnet_w3_mlp_simclrhn_probe2,1,464,NaN,clock,dog,0.55,0464_hp_dnn_0.55_dog_10_n02089867_6424.png,n02089867_6424.png,0.0,-1.5220474,0.12142768,-1.1621124
alexnet_w3_mlp_simclrhn_probe2,1,465,NaN,clock,keyboard,1,0465_hp_dnn_1_keyboard_10_n03085013_22494.png,n03085013_22494.png,0.0,-0.18208516,0.69796485,-0.62228936
alexnet_w3_mlp_simclrhn_probe2,1,466,NaN,knife,dog,0.4,0466_hp_dnn_0.4_dog_10_n02106662_37555.png,n02106662_37555.png,0.0,-0.85098433,0.14974095,-0.7076196
alexnet_w3_mlp_simclrhn_probe2,1,467,NaN,clock,car,0.55,0467_hp_dnn_0.55_car_10_n02814533_4726.png,n02814533_4726.png,0.0,-0.35830435,0.6097684,-0.68453085
alexnet_w3_mlp_simclrhn_probe2,1,468,NaN,clock,elephant,0.45,0468_hp_dnn_0.45_elephant_10_n02504458_1473.png,n02504458_1473.png,0.0,-0.9654279,0.17911138,-0.80931145
alexnet_w3_mlp_simclrhn_probe2,1,469,NaN,clock,bottle,0.55,0469_hp_dnn_0.55_bottle_10_n04557648_3350.png,n04557648_3350.png,0.0,-0.21930578,0.2509792,-0.3325417
alexnet_w3_mlp_simclrhn_probe2,1,470,NaN,clock,knife,0.4,0470_hp_dnn_0.4_knife_10_n03041632_31909.png,n03041632_31909.png,0.0,0.22491744,0.3911947,-0.11757578
alexnet_w3_mlp_simclrhn_probe2,1,471,NaN,knife,truck,0.4,0471_hp_dnn_0.4_truck_10_n04467665_70880.png,n04467665_70880.png,0.0,-0.8521733,0.14428222,-0.7046005
alexnet_w3_mlp_simclrhn_probe2,1,472,NaN,clock,dog,0.45,0472_hp_dnn_0.45_dog_10_n02097209_7557.png,n02097209_7557.png,0.0,-1.0840557,0.077215366,-0.8211426
alexnet_w3_mlp_simclrhn_probe2,1,473,NaN,oven,oven,1,0473_hp_dnn_1_oven_10_n04111531_4438.png,n04111531_4438.png,1.0,0.1275178,-0.09319904,0.15607037
alexnet_w3_mlp_simclrhn_probe2,1,474,NaN,airplane,airplane,0.7,0474_hp_dnn_0.7_airplane_10_n02690373_194.png,n02690373_194.png,1.0,0.477526,0.098168194,0.2682465
alexnet_w3_mlp_simclrhn_probe2,1,475,NaN,bicycle,bicycle,1.5,0475_hp_dnn_1.5_bicycle_10_n02835271_6953.png,n02835271_6953.png,1.0,-0.056429118,-0.21884644,0.11484639
alexnet_w3_mlp_simclrhn_probe2,1,476,NaN,clock,oven,0.45,0476_hp_dnn_0.45_oven_10_n04111531_14435.png,n04111531_14435.png,0.0,-1.0030279,0.26293412,-0.89517033
alexnet_w3_mlp_simclrhn_probe2,1,477,NaN,clock,elephant,1.5,0477_hp_dnn_1.5_elephant_10_n02504013_5192.png,n02504013_5192.png,0.0,-1.6342784,-0.35882616,-0.901881
alexnet_w3_mlp_simclrhn_probe2,1,478,NaN,clock,chair,0.7,0478_hp_dnn_0.7_chair_10_n03376595_3566.png,n03376595_3566.png,0.0,0.19730777,0.28020784,-0.05861921
alexnet_w3_mlp_simclrhn_probe2,1,479,NaN,clock,truck,1,0479_hp_dnn_1_truck_10_n03417042_22709.png,n03417042_22709.png,0.0,-1.0018063,0.027273789,-0.7276695
alexnet_w3_mlp_simclrhn_probe2,1,480,NaN,keyboard,keyboard,inf,0480_hp_dnn_inf_keyboard_10_n04505470_4603.png,n04505470_4603.png,1.0,9.042415,5.1790857,2.7317863
alexnet_w3_mlp_simclrhn_probe2,1,481,NaN,clock,car,0.55,0481_hp_dnn_0.55_car_10_n03100240_1794.png,n03100240_1794.png,0.0,-0.127492,0.45409656,-0.41124523
alexnet_w3_mlp_simclrhn_probe2,1,482,NaN,clock,elephant,0.7,0482_hp_dnn_0.7_elephant_10_n02504458_1233.png,n02504458_1233.png,0.0,-1.7162683,-0.004316757,-1.2105325
alexnet_w3_mlp_simclrhn_probe2,1,483,NaN,knife,airplane,0.45,0483_hp_dnn_0.45_airplane_10_n02690373_3047.png,n02690373_3047.png,0.0,0.14398007,0.25295,-0.07705338
alexnet_w3_mlp_simclrhn_probe2,1,484,NaN,knife,elephant,0.55,0484_hp_dnn_0.55_elephant_10_n02504013_7422.png,n02504013_7422.png,0.0,-0.44119358,0.07700725,-0.3664233
alexnet_w3_mlp_simclrhn_probe2,1,485,NaN,clock,bicycle,0.45,0485_hp_dnn_0.45_bicycle_10_n03792782_16034.png,n03792782_16034.png,0.0,-0.48715633,0.3448844,-0.58834165
alexnet_w3_mlp_simclrhn_probe2,1,486,NaN,clock,bicycle,3,0486_hp_dnn_3_bicycle_10_n02835271_11922.png,n02835271_11922.png,0.0,0.16720371,0.19669221,-0.02085152
alexnet_w3_mlp_simclrhn_probe2,1,487,NaN,clock,truck,0.7,0487_hp_dnn_0.7_truck_10_n03796401_6526.png,n03796401_6526.png,0.0,-0.13160285,0.56831795,-0.49491873
alexnet_w3_mlp_simclrhn_probe2,1,488,NaN,boat,boat,3,0488_hp_dnn_3_boat_10_n03662601_1834.png,n03662601_1834.png,1.0,3.7052124,-1.0961641,3.3950858
alexnet_w3_mlp_simclrhn_probe2,1,489,NaN,clock,dog,0.7,0489_hp_dnn_0.7_dog_10_n02100236_619.png,n02100236_619.png,0.0,-1.7112292,-0.62300175,-0.76949304
alexnet_w3_mlp_simclrhn_probe2,1,490,NaN,clock,truck,0.45,0490_hp_dnn_0.45_truck_10_n04467665_21266.png,n04467665_21266.png,0.0,-0.6700178,0.2748724,-0.66813827
alexnet_w3_mlp_simclrhn_probe2,1,491,NaN,clock,chair,0.55,0491_hp_dnn_0.55_chair_10_n04099969_18220.png,n04099969_18220.png,0.0,0.21297798,0.35232306,-0.09853185
alexnet_w3_mlp_simclrhn_probe2,1,492,NaN,keyboard,keyboard,1.5,0492_hp_dnn_1.5_keyboard_10_n03085013_4157.png,n03085013_4157.png,1.0,2.40217,0.8409984,1.103915
alexnet_w3_mlp_simclrhn_probe2,1,493,NaN,clock,bicycle,0.4,0493_hp_dnn_0.4_bicycle_10_n03792782_1276.png,n03792782_1276.png,0.0,-0.73832,0.12276407,-0.6088784
alexnet_w3_mlp_simclrhn_probe2,1,494,NaN,boat,boat,3,0494_hp_dnn_3_boat_10_n03344393_1987.png,n03344393_1987.png,1.0,3.5369709,1.7194738,1.2851645
alexnet_w3_mlp_simclrhn_probe2,1,495,NaN,airplane,boat,0.45,0495_hp_dnn_0.45_boat_10_n03344393_381.png,n03344393_381.png,0.0,0.0032958016,0.41165417,-0.28875297
alexnet_w3_mlp_simclrhn_probe2,1,496,NaN,clock,clock,inf,0496_hp_dnn_inf_clock_10_n02708093_8390.png,n02708093_8390.png,1.0,4.751732,2.391171,1.6691686
alexnet_w3_mlp_simclrhn_probe2,1,497,NaN,keyboard,keyboard,0.55,0497_hp_dnn_0.55_keyboard_10_n04505470_1043.png,n04505470_1043.png,1.0,1.6891462,0.4417379,0.8820509
alexnet_w3_mlp_simclrhn_probe2,1,498,NaN,clock,dog,0.55,0498_hp_dnn_0.55_dog_10_n02100877_1902.png,n02100877_1902.png,0.0,-1.3312885,-0.19059324,-0.80659336
alexnet_w3_mlp_simclrhn_probe2,1,499,NaN,knife,knife,1.5,0499_hp_dnn_1.5_knife_10_n03041632_55083.png,n03041632_55083.png,1.0,0.35956332,0.23004794,0.0915812
alexnet_w3_mlp_simclrhn_probe2,1,500,NaN,chair,truck,1.5,0500_hp_dnn_1.5_truck_10_n04467665_45872.png,n04467665_45872.png,0.0,-1.2403021,0.23410393,-1.0425625
alexnet_w3_mlp_simclrhn_probe2,1,501,NaN,knife,boat,0.7,0501_hp_dnn_0.7_boat_10_n04273569_3244.png,n04273569_3244.png,0.0,-1.1519593,-0.04635795,-0.7817782
alexnet_w3_mlp_simclrhn_probe2,1,502,NaN,clock,bear,0.45,0502_hp_dnn_0.45_bear_10_n02134418_2157.png,n02134418_2157.png,0.0,-0.58360195,-0.016023695,-0.40133843
alexnet_w3_mlp_simclrhn_probe2,1,503,NaN,bottle,bottle,3,0503_hp_dnn_3_bottle_10_n04591713_17618.png,n04591713_17618.png,1.0,0.6797665,0.092731915,0.41509613
alexnet_w3_mlp_simclrhn_probe2,1,504,NaN,knife,cat,1,0504_hp_dnn_1_cat_10_n02125311_8496.png,n02125311_8496.png,0.0,-1.1736575,-0.049575586,-0.794846
alexnet_w3_mlp_simclrhn_probe2,1,505,NaN,car,car,inf,0505_hp_dnn_inf_car_10_n02814533_3560.png,n02814533_3560.png,1.0,10.46682,9.727072,0.5230808
alexnet_w3_mlp_simclrhn_probe2,1,506,NaN,clock,truck,0.7,0506_hp_dnn_0.7_truck_10_n03417042_751.png,n03417042_751.png,0.0,-0.3387793,0.26635775,-0.42789653
alexnet_w3_mlp_simclrhn_probe2,1,507,NaN,chair,keyboard,inf,0507_hp_dnn_inf_keyboard_10_n03085013_23213.png,n03085013_23213.png,0.0,0.3655033,1.399597,-0.7312147
alexnet_w3_mlp_simclrhn_probe2,1,508,NaN,knife,bicycle,0.4,0508_hp_dnn_0.4_bicycle_10_n03792782_19709.png,n03792782_19709.png,0.0,-0.71496487,0.07457839,-0.55829144
alexnet_w3_mlp_simclrhn_probe2,1,509,NaN,oven,oven,inf,0509_hp_dnn_inf_oven_10_n04111531_3076.png,n04111531_3076.png,1.0,2.2076743,1.3405225,0.6131689
alexnet_w3_mlp_simclrhn_probe2,1,510,NaN,knife,knife,0.4,0510_hp_dnn_0.4_knife_10_n03041632_14774.png,n03041632_14774.png,1.0,0.27195805,0.25956476,0.008763384
alexnet_w3_mlp_simclrhn_probe2,1,511,NaN,car,car,0.7,0511_hp_dnn_0.7_car_10_n03100240_7703.png,n03100240_7703.png,1.0,1.4888538,0.8696302,0.4378572
alexnet_w3_mlp_simclrhn_probe2,1,512,NaN,clock,bear,0.55,0512_hp_dnn_0.55_bear_10_n02134084_13434.png,n02134084_13434.png,0.0,-0.85180646,0.060219888,-0.6449
alexnet_w3_mlp_simclrhn_probe2,1,513,NaN,cat,dog,inf,0513_hp_dnn_inf_dog_10_n02111500_4280.png,n02111500_4280.png,0.0,-0.7537531,0.91724914,-1.1815771
alexnet_w3_mlp_simclrhn_probe2,1,514,NaN,knife,bear,0.55,0514_hp_dnn_0.55_bear_10_n02132136_23853.png,n02132136_23853.png,0.0,-0.6206734,0.028832966,-0.4592704
alexnet_w3_mlp_simclrhn_probe2,1,515,NaN,bicycle,bicycle,1.5,0515_hp_dnn_1.5_bicycle_10_n03792782_17193.png,n03792782_17193.png,1.0,-0.2687171,-0.71662617,0.31671953
alexnet_w3_mlp_simclrhn_probe2,1,516,NaN,clock,dog,1,0516_hp_dnn_1_dog_10_n02102177_5770.png,n02102177_5770.png,0.0,-1.0955416,-0.1445977,-0.6724189
alexnet_w3_mlp_simclrhn_probe2,1,517,NaN,clock,bear,0.7,0517_hp_dnn_0.7_bear_10_n02132136_2279.png,n02132136_2279.png,0.0,-0.8749112,-0.3003722,-0.4062604
alexnet_w3_mlp_simclrhn_probe2,1,518,NaN,elephant,bear,inf,0518_hp_dnn_inf_bear_10_n02134084_6910.png,n02134084_6910.png,0.0,0.7897804,1.0821409,-0.20673013
alexnet_w3_mlp_simclrhn_probe2,1,519,NaN,clock,oven,0.7,0519_hp_dnn_0.7_oven_10_n04111531_9041.png,n04111531_9041.png,0.0,0.2558503,0.5397845,-0.20077181
alexnet_w3_mlp_simclrhn_probe2,1,520,NaN,knife,cat,1,0520_hp_dnn_1_cat_10_n02123159_5424.png,n02123159_5424.png,0.0,-0.88437146,-0.26598793,-0.4372632
alexnet_w3_mlp_simclrhn_probe2,1,521,NaN,clock,bicycle,0.45,0521_hp_dnn_0.45_bicycle_10_n02835271_672.png,n02835271_672.png,0.0,-0.74801815,0.07178766,-0.5796903
alexnet_w3_mlp_simclrhn_probe2,1,522,NaN,airplane,airplane,0.45,0522_hp_dnn_0.45_airplane_10_n02690373_18111.png,n02690373_18111.png,1.0,0.14627706,0.06262242,0.05915276
alexnet_w3_mlp_simclrhn_probe2,1,523,NaN,clock,clock,1,0523_hp_dnn_1_clock_10_n04548280_3013.png,n04548280_3013.png,1.0,2.4790423,0.47755212,1.4152672
alexnet_w3_mlp_simclrhn_probe2,1,524,NaN,knife,dog,0.45,0524_hp_dnn_0.45_dog_10_n02094258_4142.png,n02094258_4142.png,0.0,-0.92218465,0.09809391,-0.7214459
alexnet_w3_mlp_simclrhn_probe2,1,525,NaN,clock,clock,3,0525_hp_dnn_3_clock_10_n04548280_6919.png,n04548280_6919.png,1.0,3.674035,-0.11357771,2.6782467
alexnet_w3_mlp_simclrhn_probe2,1,526,NaN,clock,cat,0.4,0526_hp_dnn_0.4_cat_10_n02124075_16814.png,n02124075_16814.png,0.0,-0.4315602,0.08455431,-0.36494806
alexnet_w3_mlp_simclrhn_probe2,1,527,NaN,clock,clock,1,0527_hp_dnn_1_clock_10_n04548280_3342.png,n04548280_3342.png,1.0,0.06554747,-1.0540199,0.7916537
alexnet_w3_mlp_simclrhn_probe2,1,528,NaN,clock,boat,1,0528_hp_dnn_1_boat_10_n04612504_31680.png,n04612504_31680.png,0.0,-0.03559346,0.23636091,-0.19230077
alexnet_w3_mlp_simclrhn_probe2,1,529,NaN,keyboard,keyboard,inf,0529_hp_dnn_inf_keyboard_10_n03085013_7962.png,n03085013_7962.png,1.0,11.347973,1.7797444,6.7657595
alexnet_w3_mlp_simclrhn_probe2,1,530,NaN,bicycle,bicycle,3,0530_hp_dnn_3_bicycle_10_n02835271_949.png,n02835271_949.png,1.0,5.9228354,1.2145298,3.3292747
alexnet_w3_mlp_simclrhn_probe2,1,531,NaN,keyboard,keyboard,1,0531_hp_dnn_1_keyboard_10_n04505470_4228.png,n04505470_4228.png,1.0,0.90674937,0.19470535,0.50349116
alexnet_w3_mlp_simclrhn_probe2,1,532,NaN,knife,boat,0.7,0532_hp_dnn_0.7_boat_10_n03344393_3219.png,n03344393_3219.png,0.0,-0.56933427,0.101508155,-0.47435722
alexnet_w3_mlp_simclrhn_probe2,1,533,NaN,chair,elephant,3,0533_hp_dnn_3_elephant_10_n02504458_3399.png,n02504458_3399.png,0.0,-2.4815168,-0.04641673,-1.7218758
alexnet_w3_mlp_simclrhn_probe2,1,534,NaN,airplane,bird,0.55,0534_hp_dnn_0.55_bird_10_n01616318_12459.png,n01616318_12459.png,0.0,-0.3397008,0.25421095,-0.41995904
alexnet_w3_mlp_simclrhn_probe2,1,535,NaN,knife,elephant,0.4,0535_hp_dnn_0.4_elephant_10_n02504013_1846.png,n02504013_1846.png,0.0,-0.4716587,0.13014947,-0.42554265
alexnet_w3_mlp_simclrhn_probe2,1,536,NaN,clock,bicycle,0.55,0536_hp_dnn_0.55_bicycle_10_n03792782_5097.png,n03792782_5097.png,0.0,-0.42685243,0.2924504,-0.5086239
alexnet_w3_mlp_simclrhn_probe2,1,537,NaN,keyboard,bottle,3,0537_hp_dnn_3_bottle_10_n02823428_5115.png,n02823428_5115.png,0.0,-0.77465147,0.22578816,-0.70741767
alexnet_w3_mlp_simclrhn_probe2,1,538,NaN,keyboard,keyboard,inf,0538_hp_dnn_inf_keyboard_10_n03085013_21282.png,n03085013_21282.png,1.0,6.380691,5.490531,0.6294382
alexnet_w3_mlp_simclrhn_probe2,1,539,NaN,clock,oven,0.4,0539_hp_dnn_0.4_oven_10_n04111531_1815.png,n04111531_1815.png,0.0,-0.51363075,0.2938939,-0.5710062
alexnet_w3_mlp_simclrhn_probe2,1,540,NaN,clock,chair,1,0540_hp_dnn_1_chair_10_n02791124_5268.png,n02791124_5268.png,0.0,-0.39382234,-0.11032849,-0.20046042
alexnet_w3_mlp_simclrhn_probe2,1,541,NaN,airplane,airplane,0.55,0541_hp_dnn_0.55_airplane_10_n02690373_3035.png,n02690373_3035.png,1.0,0.35521263,-0.04608065,0.2837572
alexnet_w3_mlp_simclrhn_probe2,1,542,NaN,dog,dog,inf,0542_hp_dnn_inf_dog_10_n02107683_1460.png,n02107683_1460.png,1.0,3.108734,-1.5224637,3.2747512
alexnet_w3_mlp_simclrhn_probe2,1,543,NaN,boat,boat,inf,0543_hp_dnn_inf_boat_10_n02951358_31813.png,n02951358_31813.png,1.0,7.1405554,2.3106334,3.4152706
alexnet_w3_mlp_simclrhn_probe2,1,544,NaN,clock,bird,0.4,0544_hp_dnn_0.4_bird_10_n01797886_16808.png,n01797886_16808.png,0.0,-0.6327246,0.026951471,-0.46646142
alexnet_w3_mlp_simclrhn_probe2,1,545,NaN,clock,elephant,0.45,0545_hp_dnn_0.45_elephant_10_n02504458_4767.png,n02504458_4767.png,0.0,-0.76102227,0.27099058,-0.7297433
alexnet_w3_mlp_simclrhn_probe2,1,546,NaN,chair,knife,3,0546_hp_dnn_3_knife_10_n03041632_41493.png,n03041632_41493.png,0.0,-0.8509591,0.1813268,-0.7299364
alexnet_w3_mlp_simclrhn_probe2,1,547,NaN,elephant,elephant,3,0547_hp_dnn_3_elephant_10_n02504458_3329.png,n02504458_3329.png,1.0,-0.27734956,-1.0816252,0.5687088
alexnet_w3_mlp_simclrhn_probe2,1,548,NaN,clock,cat,0.45,0548_hp_dnn_0.45_cat_10_n02124075_12467.png,n02124075_12467.png,0.0,-0.9410359,0.3564942,-0.9174924
alexnet_w3_mlp_simclrhn_probe2,1,549,NaN,clock,truck,0.7,0549_hp_dnn_0.7_truck_10_n03417042_6467.png,n03417042_6467.png,0.0,-0.60360104,0.47776547,-0.76464164
alexnet_w3_mlp_simclrhn_probe2,1,550,NaN,airplane,airplane,inf,0550_hp_dnn_inf_airplane_10_n02690373_734.png,n02690373_734.png,1.0,11.19076,-1.1407425,8.719688
alexnet_w3_mlp_simclrhn_probe2,1,551,NaN,clock,car,0.4,0551_hp_dnn_0.4_car_10_n02814533_85296.png,n02814533_85296.png,0.0,-0.5362126,0.30749857,-0.5965939
alexnet_w3_mlp_simclrhn_probe2,1,552,NaN,clock,elephant,0.7,0552_hp_dnn_0.7_elephant_10_n02504013_18005.png,n02504013_18005.png,0.0,-1.3170276,0.1327797,-1.0251685
alexnet_w3_mlp_simclrhn_probe2,1,553,NaN,clock,clock,0.45,0553_hp_dnn_0.45_clock_10_n02708093_1495.png,n02708093_1495.png,1.0,0.49941158,-0.14246766,0.45387718
alexnet_w3_mlp_simclrhn_probe2,1,554,NaN,car,car,1.5,0554_hp_dnn_1.5_car_10_n04285008_3462.png,n04285008_3462.png,1.0,0.029336572,-0.07230451,0.0718711
alexnet_w3_mlp_simclrhn_probe2,1,555,NaN,clock,truck,0.4,0555_hp_dnn_0.4_truck_10_n03417042_22297.png,n03417042_22297.png,0.0,-0.47699046,0.3439094,-0.5804638
alexnet_w3_mlp_simclrhn_probe2,1,556,NaN,bicycle,chair,3,0556_hp_dnn_3_chair_10_n04429376_7279.png,n04429376_7279.png,0.0,-0.497759,0.113380164,-0.43214068
alexnet_w3_mlp_simclrhn_probe2,1,557,NaN,bicycle,bicycle,3,0557_hp_dnn_3_bicycle_10_n02835271_6919.png,n02835271_6919.png,1.0,3.3956213,-0.29501435,2.6096735
alexnet_w3_mlp_simclrhn_probe2,1,558,NaN,clock,oven,0.55,0558_hp_dnn_0.55_oven_10_n04111531_2260.png,n04111531_2260.png,0.0,-0.040041648,0.86479235,-0.63981426
alexnet_w3_mlp_simclrhn_probe2,1,559,NaN,clock,bear,0.7,0559_hp_dnn_0.7_bear_10_n02134084_5794.png,n02134084_5794.png,0.0,-1.3783687,0.113859594,-1.0551647
alexnet_w3_mlp_simclrhn_probe2,1,560,NaN,clock,airplane,0.7,0560_hp_dnn_0.7_airplane_10_n02690373_10397.png,n02690373_10397.png,0.0,-0.82618785,0.66263145,-1.0527543
alexnet_w3_mlp_simclrhn_probe2,1,561,NaN,knife,elephant,0.4,0561_hp_dnn_0.4_elephant_10_n02504458_2041.png,n02504458_2041.png,0.0,-0.7348867,0.1716474,-0.6410164
alexnet_w3_mlp_simclrhn_probe2,1,562,NaN,clock,chair,1,0562_hp_dnn_1_chair_10_n04429376_7732.png,n04429376_7732.png,0.0,-0.010376342,0.17797486,-0.13318442
alexnet_w3_mlp_simclrhn_probe2,1,563,NaN,airplane,airplane,0.4,0563_hp_dnn_0.4_airplane_10_n02690373_4788.png,n02690373_4788.png,1.0,0.3417469,0.28296307,0.041566446
alexnet_w3_mlp_simclrhn_probe2,1,564,NaN,clock,dog,0.55,0564_hp_dnn_0.55_dog_10_n02097474_2799.png,n02097474_2799.png,0.0,-1.3964635,0.31827852,-1.2125058
alexnet_w3_mlp_simclrhn_probe2,1,565,NaN,knife,bear,1.5,0565_hp_dnn_1.5_bear_10_n02134084_17849.png,n02134084_17849.png,0.0,-0.73008436,-0.21338367,-0.36536255
alexnet_w3_mlp_simclrhn_probe2,1,566,NaN,dog,dog,inf,0566_hp_dnn_inf_dog_10_n02086646_7064.png,n02086646_7064.png,1.0,1.321046,-3.5689797,3.4577703
alexnet_w3_mlp_simclrhn_probe2,1,567,NaN,clock,truck,0.55,0567_hp_dnn_0.55_truck_10_n03417042_7061.png,n03417042_7061.png,0.0,-0.23393786,0.43301547,-0.47160724
alexnet_w3_mlp_simclrhn_probe2,1,568,NaN,clock,bird,1,0568_hp_dnn_1_bird_10_n01820546_3605.png,n01820546_3605.png,0.0,-1.7985687,0.026063263,-1.2902097
alexnet_w3_mlp_simclrhn_probe2,1,569,NaN,clock,bear,0.4,0569_hp_dnn_0.4_bear_10_n02133161_2813.png,n02133161_2813.png,0.0,-0.9913895,0.2125302,-0.85129976
alexnet_w3_mlp_simclrhn_probe2,1,570,NaN,knife,bear,0.45,0570_hp_dnn_0.45_bear_10_n02132136_16636.png,n02132136_16636.png,0.0,-0.7956834,0.17773274,-0.68830913
alexnet_w3_mlp_simclrhn_probe2,1,571,NaN,chair,oven,1.5,0571_hp_dnn_1.5_oven_10_n04111531_14959.png,n04111531_14959.png,0.0,-0.59193945,0.5238295,-0.7889678
alexnet_w3_mlp_simclrhn_probe2,1,572,NaN,clock,cat,0.45,0572_hp_dnn_0.45_cat_10_n02124075_5453.png,n02124075_5453.png,0.0,-0.59873796,0.06359851,-0.4683426
alexnet_w3_mlp_simclrhn_probe2,1,573,NaN,elephant,cat,1,0573_hp_dnn_1_cat_10_n02124075_11528.png,n02124075_11528.png,0.0,-1.1892172,-0.69758314,-0.3476378
alexnet_w3_mlp_simclrhn_probe2,1,574,NaN,knife,cat,1,0574_hp_dnn_1_cat_10_n02123159_3454.png,n02123159_3454.png,0.0,-0.90424937,-0.7031832,-0.14217527
alexnet_w3_mlp_simclrhn_probe2,1,575,NaN,knife,bird,0.45,0575_hp_dnn_0.45_bird_10_n02025239_2227.png,n02025239_2227.png,0.0,-0.5387364,-0.0065277424,-0.37632838
alexnet_w3_mlp_simclrhn_probe2,1,576,NaN,clock,chair,0.7,0576_hp_dnn_0.7_chair_10_n03376595_12256.png,n03376595_12256.png,0.0,-0.44987717,0.24909551,-0.49424836
alexnet_w3_mlp_simclrhn_probe2,1,577,NaN,clock,clock,1.5,0577_hp_dnn_1.5_clock_10_n02708093_6591.png,n02708093_6591.png,1.0,0.4561312,-0.61882424,0.7601083
alexnet_w3_mlp_simclrhn_probe2,1,578,NaN,clock,chair,0.55,0578_hp_dnn_0.55_chair_10_n04099969_34144.png,n04099969_34144.png,0.0,-0.25372332,0.55338484,-0.5707117
alexnet_w3_mlp_simclrhn_probe2,1,579,NaN,knife,bear,0.55,0579_hp_dnn_0.55_bear_10_n02132136_3563.png,n02132136_3563.png,0.0,-1.0609685,-0.30805552,-0.5323899
alexnet_w3_mlp_simclrhn_probe2,1,580,NaN,elephant,elephant,1,0580_hp_dnn_1_elephant_10_n02504013_6671.png,n02504013_6671.png,1.0,0.34948838,-0.22068946,0.40317664
alexnet_w3_mlp_simclrhn_probe2,1,581,NaN,clock,keyboard,0.7,0581_hp_dnn_0.7_keyboard_10_n03085013_22067.png,n03085013_22067.png,0.0,-0.23871586,0.42871967,-0.4719482
alexnet_w3_mlp_simclrhn_probe2,1,582,NaN,truck,truck,inf,0582_hp_dnn_inf_truck_10_n03796401_1458.png,n03796401_1458.png,1.0,1.2116729,0.7745366,0.30910203
alexnet_w3_mlp_simclrhn_probe2,1,583,NaN,keyboard,bottle,0.45,0583_hp_dnn_0.45_bottle_10_n04591713_807.png,n04591713_807.png,0.0,-0.20769484,0.20392498,-0.2910592
alexnet_w3_mlp_simclrhn_probe2,1,584,NaN,clock,car,1,0584_hp_dnn_1_car_10_n02814533_22693.png,n02814533_22693.png,0.0,-1.7176085,0.862698,-1.8245523
alexnet_w3_mlp_simclrhn_probe2,1,585,NaN,clock,car,0.7,0585_hp_dnn_0.7_car_10_n02814533_5278.png,n02814533_5278.png,0.0,-0.34750116,0.56426257,-0.64471436
alexnet_w3_mlp_simclrhn_probe2,1,586,NaN,airplane,boat,1.5,0586_hp_dnn_1.5_boat_10_n03662601_10240.png,n03662601_10240.png,0.0,0.31216612,0.37807876,-0.04660727
alexnet_w3_mlp_simclrhn_probe2,1,587,NaN,airplane,airplane,inf,0587_hp_dnn_inf_airplane_10_n02690373_9673.png,n02690373_9673.png,1.0,4.2032275,0.44499174,2.657474
alexnet_w3_mlp_simclrhn_probe2,1,588,NaN,bird,bird,0.7,0588_hp_dnn_0.7_bird_10_n02009229_6029.png,n02009229_6029.png,1.0,0.64547586,-0.6802473,0.9374279
alexnet_w3_mlp_simclrhn_probe2,1,589,NaN,clock,clock,0.4,0589_hp_dnn_0.4_clock_10_n02708093_2580.png,n02708093_2580.png,1.0,1.1324705,-0.2617861,0.9858883
alexnet_w3_mlp_simclrhn_probe2,1,590,NaN,clock,elephant,0.4,0590_hp_dnn_0.4_elephant_10_n02504013_295.png,n02504013_295.png,0.0,-0.63204503,0.18742347,-0.57945174
alexnet_w3_mlp_simclrhn_probe2,1,591,NaN,clock,car,0.7,0591_hp_dnn_0.7_car_10_n04285008_9893.png,n04285008_9893.png,0.0,-0.091516934,0.64173913,-0.5184903
alexnet_w3_mlp_simclrhn_probe2,1,592,NaN,chair,chair,1.5,0592_hp_dnn_1.5_chair_10_n03376595_6850.png,n03376595_6850.png,1.0,-0.15301535,-0.3127525,0.11295122
alexnet_w3_mlp_simclrhn_probe2,1,593,NaN,car,boat,3,0593_hp_dnn_3_boat_10_n03662601_15713.png,n03662601_15713.png,0.0,0.5568033,0.5759201,-0.013517632
alexnet_w3_mlp_simclrhn_probe2,1,594,NaN,airplane,clock,0.4,0594_hp_dnn_0.4_clock_10_n04548280_9867.png,n04548280_9867.png,0.0,0.11886844,0.3280741,-0.14793074
alexnet_w3_mlp_simclrhn_probe2,1,595,NaN,airplane,airplane,1.5,0595_hp_dnn_1.5_airplane_10_n02690373_1450.png,n02690373_1450.png,1.0,1.6179539,0.23383431,0.97872037
alexnet_w3_mlp_simclrhn_probe2,1,596,NaN,knife,bicycle,0.45,0596_hp_dnn_0.45_bicycle_10_n03792782_7787.png,n03792782_7787.png,0.0,-0.84847206,0.109039925,-0.6770632
alexnet_w3_mlp_simclrhn_probe2,1,597,NaN,clock,chair,0.45,0597_hp_dnn_0.45_chair_10_n04099969_1219.png,n04099969_1219.png,0.0,-0.20750865,0.4310279,-0.45151356
alexnet_w3_mlp_simclrhn_probe2,1,598,NaN,keyboard,keyboard,0.55,0598_hp_dnn_0.55_keyboard_10_n03085013_8325.png,n03085013_8325.png,1.0,1.2339737,0.22767043,0.7115639
alexnet_w3_mlp_simclrhn_probe2,1,599,NaN,clock,bicycle,0.55,0599_hp_dnn_0.55_bicycle_10_n02835271_14732.png,n02835271_14732.png,0.0,0.05349324,0.1928981,-0.098574124
alexnet_w3_mlp_simclrhn_probe2,1,600,NaN,airplane,airplane,1.5,0600_hp_dnn_1.5_airplane_10_n02690373_4176.png,n02690373_4176.png,1.0,0.6294772,0.22224146,0.28795916
alexnet_w3_mlp_simclrhn_probe2,1,601,NaN,elephant,bird,1,0601_hp_dnn_1_bird_10_n01534433_905.png,n01534433_905.png,0.0,-0.811144,-0.4996904,-0.22023094
alexnet_w3_mlp_simclrhn_probe2,1,602,NaN,airplane,truck,1.5,0602_hp_dnn_1.5_truck_10_n04467665_45306.png,n04467665_45306.png,0.0,-0.52653444,0.5915261,-0.79058826
alexnet_w3_mlp_simclrhn_probe2,1,603,NaN,elephant,elephant,3,0603_hp_dnn_3_elephant_10_n02504458_1617.png,n02504458_1617.png,1.0,0.20645139,-0.67745763,0.62501806
alexnet_w3_mlp_simclrhn_probe2,1,604,NaN,knife,oven,0.45,0604_hp_dnn_0.45_oven_10_n04111531_4148.png,n04111531_4148.png,0.0,-0.74237233,0.17230839,-0.646777
alexnet_w3_mlp_simclrhn_probe2,1,605,NaN,clock,bird,0.55,0605_hp_dnn_0.55_bird_10_n02009912_91.png,n02009912_91.png,0.0,-0.9630445,0.1736383,-0.8037562
alexnet_w3_mlp_simclrhn_probe2,1,606,NaN,knife,knife,3,0606_hp_dnn_3_knife_10_n03041632_33739.png,n03041632_33739.png,1.0,0.87905556,-0.33942178,0.8615936
alexnet_w3_mlp_simclrhn_probe2,1,607,NaN,airplane,airplane,1,0607_hp_dnn_1_airplane_10_n02690373_9318.png,n02690373_9318.png,1.0,2.6050544,0.26614696,1.6538574
alexnet_w3_mlp_simclrhn_probe2,1,608,NaN,clock,bird,0.4,0608_hp_dnn_0.4_bird_10_n01828970_8669.png,n01828970_8669.png,0.0,-0.47026166,0.32791445,-0.5643957
alexnet_w3_mlp_simclrhn_probe2,1,609,NaN,chair,truck,1.5,0609_hp_dnn_1.5_truck_10_n04467665_58762.png,n04467665_58762.png,0.0,-1.1220427,0.36669898,-1.0526993
alexnet_w3_mlp_simclrhn_probe2,1,610,NaN,car,car,3,0610_hp_dnn_3_car_10_n03100240_11417.png,n03100240_11417.png,1.0,3.8646908,1.9912009,1.3247575
alexnet_w3_mlp_simclrhn_probe2,1,611,NaN,bicycle,bicycle,inf,0611_hp_dnn_inf_bicycle_10_n03792782_16179.png,n03792782_16179.png,1.0,7.2258983,-1.7374821,6.3380675
alexnet_w3_mlp_simclrhn_probe2,1,612,NaN,clock,car,1,0612_hp_dnn_1_car_10_n04285008_8444.png,n04285008_8444.png,0.0,-0.40931234,0.88728124,-0.9168301
alexnet_w3_mlp_simclrhn_probe2,1,613,NaN,chair,chair,inf,0613_hp_dnn_inf_chair_10_n02791124_3240.png,n02791124_3240.png,1.0,1.5209461,-0.352836,1.324964
alexnet_w3_mlp_simclrhn_probe2,1,614,NaN,clock,bicycle,0.7,0614_hp_dnn_0.7_bicycle_10_n02835271_1035.png,n02835271_1035.png,0.0,-0.81007946,0.3879546,-0.847138
alexnet_w3_mlp_simclrhn_probe2,1,615,NaN,clock,bicycle,0.55,0615_hp_dnn_0.55_bicycle_10_n02835271_6167.png,n02835271_6167.png,0.0,0.13214874,0.5926048,-0.32559162
alexnet_w3_mlp_simclrhn_probe2,1,616,NaN,keyboard,bottle,3,0616_hp_dnn_3_bottle_10_n02823428_6830.png,n02823428_6830.png,0.0,0.15071322,2.978568,-1.9995954
alexnet_w3_mlp_simclrhn_probe2,1,617,NaN,knife,knife,0.45,0617_hp_dnn_0.45_knife_10_n03041632_17349.png,n03041632_17349.png,1.0,0.4385948,0.34055018,0.069328
alexnet_w3_mlp_simclrhn_probe2,1,618,NaN,airplane,airplane,inf,0618_hp_dnn_inf_airplane_10_n02690373_2024.png,n02690373_2024.png,1.0,7.651987,2.1250873,3.9081085
alexnet_w3_mlp_simclrhn_probe2,1,619,NaN,clock,bottle,1,0619_hp_dnn_1_bottle_10_n02823428_8034.png,n02823428_8034.png,0.0,-0.6488075,0.028686425,-0.47906056
alexnet_w3_mlp_simclrhn_probe2,1,620,NaN,clock,chair,1,0620_hp_dnn_1_chair_10_n02791124_6786.png,n02791124_6786.png,0.0,-0.1369261,0.19665162,-0.23587507
alexnet_w3_mlp_simclrhn_probe2,1,621,NaN,knife,chair,0.45,0621_hp_dnn_0.45_chair_10_n03376595_10689.png,n03376595_10689.png,0.0,0.08135396,0.30173236,-0.15583107
alexnet_w3_mlp_simclrhn_probe2,1,622,NaN,clock,knife,0.4,0622_hp_dnn_0.4_knife_10_n03041632_22734.png,n03041632_22734.png,0.0,-0.19083148,0.26298812,-0.32089892
alexnet_w3_mlp_simclrhn_probe2,1,623,NaN,knife,oven,0.4,0623_hp_dnn_0.4_oven_10_n04111531_10521.png,n04111531_10521.png,0.0,-0.37642938,0.15523323,-0.37594223
alexnet_w3_mlp_simclrhn_probe2,1,624,NaN,bird,bird,inf,0624_hp_dnn_inf_bird_10_n02007558_37147.png,n02007558_37147.png,1.0,2.127759,-2.6496444,3.3781343
alexnet_w3_mlp_simclrhn_probe2,1,625,NaN,chair,oven,3,0625_hp_dnn_3_oven_10_n04111531_14753.png,n04111531_14753.png,0.0,0.13404877,1.1471279,-0.7163551
alexnet_w3_mlp_simclrhn_probe2,1,626,NaN,clock,bottle,0.7,0626_hp_dnn_0.7_bottle_10_n03983396_4990.png,n03983396_4990.png,0.0,-0.83078986,0.010458191,-0.5948522
alexnet_w3_mlp_simclrhn_probe2,1,627,NaN,clock,cat,0.45,0627_hp_dnn_0.45_cat_10_n02125311_25104.png,n02125311_25104.png,0.0,-0.5905929,0.094371,-0.48434266
alexnet_w3_mlp_simclrhn_probe2,1,628,NaN,truck,truck,0.55,0628_hp_dnn_0.55_truck_10_n03417042_5600.png,n03417042_5600.png,1.0,0.36526126,0.16388051,0.14239769
alexnet_w3_mlp_simclrhn_probe2,1,629,NaN,clock,cat,0.55,0629_hp_dnn_0.55_cat_10_n02125311_34158.png,n02125311_34158.png,0.0,-0.863806,0.33056903,-0.8445507
