subj,session,trial,rt,object_response,category,condition,imagename,filename,is_correct,targ_act,max_nontarg_act,decision_margin
alexnet,1,1,NaN,boat,boat,0.7,0001_hp_dnn_0.7_boat_10_n03662601_12531.png,n03662601_12531.png,1.0,3.1844716,2.5465226,0.45109805
alexnet,1,2,NaN,knife,chair,0.7,0002_hp_dnn_0.7_chair_10_n04429376_22819.png,n04429376_22819.png,0.0,2.0019276,5.2654467,-2.3076565
alexnet,1,3,NaN,clock,elephant,0.45,0003_hp_dnn_0.45_elephant_10_n02504458_582.png,n02504458_582.png,0.0,-0.8235663,3.0005233,-2.7040396
alexnet,1,4,NaN,knife,bicycle,0.7,0004_hp_dnn_0.7_bicycle_10_n03792782_41173.png,n03792782_41173.png,0.0,-1.8982861,1.8514671,-2.651476
alexnet,1,5,NaN,knife,cat,1.5,0005_hp_dnn_1.5_cat_10_n02123597_7071.png,n02123597_7071.png,0.0,-0.48644868,4.3171034,-3.3966243
alexnet,1,6,NaN,airplane,cat,0.4,0006_hp_dnn_0.4_cat_10_n02123394_2386.png,n02123394_2386.png,0.0,-0.7708084,3.7606826,-3.204248
alexnet,1,7,NaN,oven,oven,inf,0007_hp_dnn_inf_oven_10_n04111531_2201.png,n04111531_2201.png,1.0,6.943254,4.377585,1.8142021
alexnet,1,8,NaN,airplane,cat,0.45,0008_hp_dnn_0.45_cat_10_n02125311_43276.png,n02125311_43276.png,0.0,0.16119678,3.1794949,-2.1342592
alexnet,1,9,NaN,clock,dog,0.45,0009_hp_dnn_0.45_dog_10_n02111500_2439.png,n02111500_2439.png,0.0,-0.71990484,2.607672,-2.3529522
alexnet,1,10,NaN,airplane,bicycle,0.4,0010_hp_dnn_0.4_bicycle_10_n02835271_12599.png,n02835271_12599.png,0.0,-1.1990534,4.1728244,-3.7984912
alexnet,1,11,NaN,clock,dog,0.45,0011_hp_dnn_0.45_dog_10_n02096585_391.png,n02096585_391.png,0.0,-1.0598644,2.9057553,-2.8041165
alexnet,1,12,NaN,clock,car,0.7,0012_hp_dnn_0.7_car_10_n04285008_12138.png,n04285008_12138.png,0.0,-1.0256417,2.933344,-2.7994256
alexnet,1,13,NaN,knife,car,0.7,0013_hp_dnn_0.7_car_10_n02814533_44083.png,n02814533_44083.png,0.0,-1.5008646,5.0724874,-4.6480618
alexnet,1,14,NaN,oven,oven,inf,0014_hp_dnn_inf_oven_10_n04111531_2447.png,n04111531_2447.png,1.0,8.631502,4.5077443,2.9159372
alexnet,1,15,NaN,clock,chair,0.55,0015_hp_dnn_0.55_chair_10_n03376595_9524.png,n03376595_9524.png,0.0,1.2111353,2.8343194,-1.1477644
alexnet,1,16,NaN,clock,elephant,0.55,0016_hp_dnn_0.55_elephant_10_n02504458_3092.png,n02504458_3092.png,0.0,-0.5864319,3.016038,-2.5473309
alexnet,1,17,NaN,airplane,truck,0.4,0017_hp_dnn_0.4_truck_10_n04467665_42126.png,n04467665_42126.png,0.0,-0.09768467,3.3147154,-2.4129312
alexnet,1,18,NaN,elephant,elephant,inf,0018_hp_dnn_inf_elephant_10_n02504458_12303.png,n02504458_12303.png,1.0,15.067902,5.5054517,6.7616735
alexnet,1,19,NaN,clock,clock,0.4,0019_hp_dnn_0.4_clock_10_n04548280_7243.png,n04548280_7243.png,1.0,5.374702,3.5149403,1.3150501
alexnet,1,20,NaN,airplane,airplane,0.4,0020_hp_dnn_0.4_airplane_10_n02690373_6978.png,n02690373_6978.png,1.0,4.9684887,2.1203122,2.013965
alexnet,1,21,NaN,boat,boat,3,0021_hp_dnn_3_boat_10_n04612504_4773.png,n04612504_4773.png,1.0,4.907432,2.064303,2.010396
alexnet,1,22,NaN,knife,bottle,inf,0022_hp_dnn_inf_bottle_10_n04560804_5979.png,n04560804_5979.png,0.0,4.247723,4.392934,-0.102679506
alexnet,1,23,NaN,airplane,airplane,3,0023_hp_dnn_3_airplane_10_n02690373_21922.png,n02690373_21922.png,1.0,8.948271,4.0936337,3.432747
alexnet,1,24,NaN,airplane,bird,0.4,0024_hp_dnn_0.4_bird_10_n01820546_6431.png,n01820546_6431.png,0.0,0.47783905,3.2578254,-1.9657472
alexnet,1,25,NaN,bear,bird,inf,0025_hp_dnn_inf_bird_10_n01795545_9555.png,n01795545_9555.png,0.0,5.5542264,5.7885194,-0.16567016
alexnet,1,26,NaN,bicycle,truck,3,0026_hp_dnn_3_truck_10_n04467665_45796.png,n04467665_45796.png,0.0,2.652671,6.0188303,-2.380234
alexnet,1,27,NaN,oven,oven,1,0027_hp_dnn_1_oven_10_n04111531_5906.png,n04111531_5906.png,1.0,3.7662582,3.4417853,0.229437
alexnet,1,28,NaN,airplane,bicycle,0.45,0028_hp_dnn_0.45_bicycle_10_n03792782_6133.png,n03792782_6133.png,0.0,-1.542554,4.117902,-4.002547
alexnet,1,29,NaN,knife,keyboard,1,0029_hp_dnn_1_keyboard_10_n04505470_4741.png,n04505470_4741.png,0.0,3.283333,4.2888117,-0.7109808
alexnet,1,30,NaN,knife,car,1.5,0030_hp_dnn_1.5_car_10_n02814533_5085.png,n02814533_5085.png,0.0,-0.4112226,5.624087,-4.267608
alexnet,1,31,NaN,airplane,chair,0.4,0031_hp_dnn_0.4_chair_10_n04429376_10628.png,n04429376_10628.png,0.0,0.38903356,2.4285355,-1.4421457
alexnet,1,32,NaN,airplane,clock,0.55,0032_hp_dnn_0.55_clock_10_n02708093_5311.png,n02708093_5311.png,0.0,3.212414,3.2909718,-0.055548705
alexnet,1,33,NaN,airplane,chair,0.55,0033_hp_dnn_0.55_chair_10_n03376595_10460.png,n03376595_10460.png,0.0,-0.36889535,3.9051306,-3.0221927
alexnet,1,34,NaN,knife,bear,3,0034_hp_dnn_3_bear_10_n02133161_1118.png,n02133161_1118.png,0.0,-0.5988929,2.4980483,-2.1898682
alexnet,1,35,NaN,clock,knife,3,0035_hp_dnn_3_knife_10_n03041632_11603.png,n03041632_11603.png,0.0,4.7946453,4.8383083,-0.030874422
alexnet,1,36,NaN,airplane,dog,0.4,0036_hp_dnn_0.4_dog_10_n02108422_7493.png,n02108422_7493.png,0.0,-0.8900176,2.4171176,-2.3384976
alexnet,1,37,NaN,keyboard,keyboard,3,0037_hp_dnn_3_keyboard_10_n04505470_550.png,n04505470_550.png,1.0,4.403262,3.1375992,0.89495885
alexnet,1,38,NaN,bottle,dog,1.5,0038_hp_dnn_1.5_dog_10_n02097047_1003.png,n02097047_1003.png,0.0,-1.1049726,2.0909584,-2.2598646
alexnet,1,39,NaN,elephant,bird,1.5,0039_hp_dnn_1.5_bird_10_n01616318_9819.png,n01616318_9819.png,0.0,0.7919587,2.489002,-1.1999909
alexnet,1,40,NaN,knife,cat,0.55,0040_hp_dnn_0.55_cat_10_n02123597_1016.png,n02123597_1016.png,0.0,0.57923293,2.2567,-1.1861484
alexnet,1,41,NaN,knife,bear,1,0041_hp_dnn_1_bear_10_n02134418_971.png,n02134418_971.png,0.0,-0.9127192,3.2819138,-2.9660535
alexnet,1,42,NaN,bottle,bear,0.7,0042_hp_dnn_0.7_bear_10_n02132136_10944.png,n02132136_10944.png,0.0,-1.3319936,1.7936344,-2.2101529
alexnet,1,43,NaN,clock,elephant,1,0043_hp_dnn_1_elephant_10_n02504458_4439.png,n02504458_4439.png,0.0,0.07734126,2.22766,-1.520505
alexnet,1,44,NaN,airplane,keyboard,0.4,0044_hp_dnn_0.4_keyboard_10_n03085013_2362.png,n03085013_2362.png,0.0,0.36255115,4.4772453,-2.9095283
alexnet,1,45,NaN,knife,dog,1.5,0045_hp_dnn_1.5_dog_10_n02097474_9488.png,n02097474_9488.png,0.0,-0.69154936,3.1512387,-2.7172616
alexnet,1,46,NaN,clock,clock,inf,0046_hp_dnn_inf_clock_10_n04548280_3308.png,n04548280_3308.png,1.0,14.941905,6.5240803,5.952301
alexnet,1,47,NaN,clock,bear,1.5,0047_hp_dnn_1.5_bear_10_n02133161_334.png,n02133161_334.png,0.0,-0.5555214,2.66051,-2.2740777
alexnet,1,48,NaN,clock,knife,0.45,0048_hp_dnn_0.45_knife_10_n03041632_6708.png,n03041632_6708.png,0.0,1.6129296,2.231096,-0.43710968
alexnet,1,49,NaN,knife,car,0.55,0049_hp_dnn_0.55_car_10_n02814533_81092.png,n02814533_81092.png,0.0,-1.7249422,4.6543627,-4.51085
alexnet,1,50,NaN,bottle,bottle,0.45,0050_hp_dnn_0.45_bottle_10_n03937543_11897.png,n03937543_11897.png,1.0,2.6940951,2.6710794,0.016274584
alexnet,1,51,NaN,clock,airplane,3,0051_hp_dnn_3_airplane_10_n02690373_4429.png,n02690373_4429.png,0.0,6.8162956,7.685383,-0.6145375
alexnet,1,52,NaN,clock,knife,0.4,0052_hp_dnn_0.4_knife_10_n03041632_22964.png,n03041632_22964.png,0.0,0.9678348,3.1264217,-1.5263516
alexnet,1,53,NaN,airplane,knife,1.5,0053_hp_dnn_1.5_knife_10_n03041632_33075.png,n03041632_33075.png,0.0,1.3182077,2.93794,-1.1453236
alexnet,1,54,NaN,knife,bird,0.7,0054_hp_dnn_0.7_bird_10_n02006656_1412.png,n02006656_1412.png,0.0,-0.024939654,2.1946855,-1.5695119
alexnet,1,55,NaN,clock,clock,1,0055_hp_dnn_1_clock_10_n02708093_3173.png,n02708093_3173.png,1.0,9.258404,4.5237575,3.3479006
alexnet,1,56,NaN,airplane,keyboard,0.45,0056_hp_dnn_0.45_keyboard_10_n03085013_22016.png,n03085013_22016.png,0.0,-0.44205105,4.175623,-3.2651885
alexnet,1,57,NaN,clock,elephant,0.55,0057_hp_dnn_0.55_elephant_10_n02504458_11214.png,n02504458_11214.png,0.0,-0.05216232,2.7717466,-1.9968053
alexnet,1,58,NaN,airplane,chair,0.7,0058_hp_dnn_0.7_chair_10_n04099969_13775.png,n04099969_13775.png,0.0,-0.050262928,2.861113,-2.0586538
alexnet,1,59,NaN,airplane,bicycle,0.4,0059_hp_dnn_0.4_bicycle_10_n02835271_8098.png,n02835271_8098.png,0.0,-1.4402435,3.0899332,-3.2033186
alexnet,1,60,NaN,airplane,clock,0.4,0060_hp_dnn_0.4_clock_10_n04548280_1126.png,n04548280_1126.png,0.0,2.0702581,3.8253994,-1.2410723
alexnet,1,61,NaN,airplane,bicycle,0.45,0061_hp_dnn_0.45_bicycle_10_n02835271_2050.png,n02835271_2050.png,0.0,-1.8331501,2.8393416,-3.3039508
alexnet,1,62,NaN,oven,oven,1,0062_hp_dnn_1_oven_10_n04111531_891.png,n04111531_891.png,1.0,4.2344556,3.9517298,0.19991735
alexnet,1,63,NaN,clock,bottle,0.7,0063_hp_dnn_0.7_bottle_10_n02823428_6201.png,n02823428_6201.png,0.0,1.1576955,3.393678,-1.5810784
alexnet,1,64,NaN,clock,bicycle,0.7,0064_hp_dnn_0.7_bicycle_10_n02835271_20175.png,n02835271_20175.png,0.0,-0.25310576,3.0406182,-2.3290145
alexnet,1,65,NaN,chair,cat,3,0065_hp_dnn_3_cat_10_n02123597_13175.png,n02123597_13175.png,0.0,1.6192523,2.1308868,-0.3617802
alexnet,1,66,NaN,airplane,dog,0.4,0066_hp_dnn_0.4_dog_10_n02085936_4391.png,n02085936_4391.png,0.0,-0.74504626,3.8949366,-3.2809632
alexnet,1,67,NaN,knife,airplane,1.5,0067_hp_dnn_1.5_airplane_10_n02690373_8846.png,n02690373_8846.png,0.0,3.021971,4.0788403,-0.74731946
alexnet,1,68,NaN,clock,cat,1.5,0068_hp_dnn_1.5_cat_10_n02123597_10301.png,n02123597_10301.png,0.0,0.055258095,2.9926403,-2.0770428
alexnet,1,69,NaN,clock,elephant,0.7,0069_hp_dnn_0.7_elephant_10_n02504458_6135.png,n02504458_6135.png,0.0,0.40900612,1.582613,-0.8298654
alexnet,1,70,NaN,airplane,keyboard,0.45,0070_hp_dnn_0.45_keyboard_10_n03085013_22585.png,n03085013_22585.png,0.0,-1.5263994,4.3325634,-4.1429124
alexnet,1,71,NaN,elephant,bird,1,0071_hp_dnn_1_bird_10_n02017213_1150.png,n02017213_1150.png,0.0,-0.097027466,3.3217392,-2.4174333
alexnet,1,72,NaN,oven,bottle,3,0072_hp_dnn_3_bottle_10_n04560804_30885.png,n04560804_30885.png,0.0,6.0810304,6.165896,-0.06000902
alexnet,1,73,NaN,bicycle,bicycle,inf,0073_hp_dnn_inf_bicycle_10_n02835271_9191.png,n02835271_9191.png,1.0,16.411964,3.564748,9.084354
alexnet,1,74,NaN,chair,truck,inf,0074_hp_dnn_inf_truck_10_n03796401_7699.png,n03796401_7699.png,0.0,3.6513429,6.1713705,-1.7819287
alexnet,1,75,NaN,knife,knife,1.5,0075_hp_dnn_1.5_knife_10_n03041632_50332.png,n03041632_50332.png,1.0,3.7329173,3.2562726,0.33703876
alexnet,1,76,NaN,airplane,knife,0.55,0076_hp_dnn_0.55_knife_10_n03041632_36247.png,n03041632_36247.png,0.0,1.048414,2.3096213,-0.8918083
alexnet,1,77,NaN,knife,knife,1.5,0077_hp_dnn_1.5_knife_10_n03041632_23667.png,n03041632_23667.png,1.0,4.0399823,2.74812,0.9134846
alexnet,1,78,NaN,elephant,dog,3,0078_hp_dnn_3_dog_10_n02102973_7028.png,n02102973_7028.png,0.0,1.0780447,2.2355447,-0.81847614
alexnet,1,79,NaN,clock,oven,0.55,0079_hp_dnn_0.55_oven_10_n04111531_9867.png,n04111531_9867.png,0.0,2.0293732,2.842919,-0.57526386
alexnet,1,80,NaN,knife,car,0.55,0080_hp_dnn_0.55_car_10_n02814533_8121.png,n02814533_8121.png,0.0,0.40860352,4.4840455,-2.8817725
alexnet,1,81,NaN,airplane,boat,0.55,0081_hp_dnn_0.55_boat_10_n03662601_5210.png,n03662601_5210.png,0.0,1.3568149,2.2353044,-0.6211859
alexnet,1,82,NaN,knife,car,1.5,0082_hp_dnn_1.5_car_10_n03100240_6192.png,n03100240_6192.png,0.0,-0.5530931,4.984644,-3.9157715
alexnet,1,83,NaN,airplane,oven,0.45,0083_hp_dnn_0.45_oven_10_n04111531_9314.png,n04111531_9314.png,0.0,-0.09480812,2.994444,-2.184431
alexnet,1,84,NaN,airplane,cat,0.4,0084_hp_dnn_0.4_cat_10_n02123045_5189.png,n02123045_5189.png,0.0,-0.08300953,3.707178,-2.6800673
alexnet,1,85,NaN,knife,truck,0.7,0085_hp_dnn_0.7_truck_10_n04467665_30189.png,n04467665_30189.png,0.0,0.37078977,4.838584,-3.1592078
alexnet,1,86,NaN,clock,airplane,1.5,0086_hp_dnn_1.5_airplane_10_n02690373_3377.png,n02690373_3377.png,0.0,3.5265338,4.473541,-0.66963506
alexnet,1,87,NaN,airplane,oven,0.4,0087_hp_dnn_0.4_oven_10_n04111531_1750.png,n04111531_1750.png,0.0,0.2623472,3.708702,-2.436941
alexnet,1,88,NaN,dog,dog,inf,0088_hp_dnn_inf_dog_10_n02097047_2877.png,n02097047_2877.png,1.0,3.309458,2.976898,0.23515548
alexnet,1,89,NaN,cat,cat,inf,0089_hp_dnn_inf_cat_10_n02124075_15171.png,n02124075_15171.png,1.0,12.144016,3.1964622,6.326876
alexnet,1,90,NaN,airplane,car,0.4,0090_hp_dnn_0.4_car_10_n03100240_23060.png,n03100240_23060.png,0.0,-0.013135304,3.2244205,-2.2892976
alexnet,1,91,NaN,knife,knife,inf,0091_hp_dnn_inf_knife_10_n03041632_20595.png,n03041632_20595.png,1.0,6.0775466,4.793538,0.90793115
alexnet,1,92,NaN,clock,knife,0.45,0092_hp_dnn_0.45_knife_10_n03041632_2184.png,n03041632_2184.png,0.0,0.13026525,3.1582165,-2.141085
alexnet,1,93,NaN,airplane,knife,0.4,0093_hp_dnn_0.4_knife_10_n03041632_42162.png,n03041632_42162.png,0.0,0.120833635,3.916193,-2.6837244
alexnet,1,94,NaN,clock,elephant,1,0094_hp_dnn_1_elephant_10_n02504458_3535.png,n02504458_3535.png,0.0,0.14110523,2.7903817,-1.8733214
alexnet,1,95,NaN,knife,bird,inf,0095_hp_dnn_inf_bird_10_n02056570_11311.png,n02056570_11311.png,0.0,-1.7676563,5.774262,-5.3329415
alexnet,1,96,NaN,airplane,chair,0.4,0096_hp_dnn_0.4_chair_10_n03376595_4121.png,n03376595_4121.png,0.0,-0.94621193,4.679615,-3.9780605
alexnet,1,97,NaN,knife,dog,1,0097_hp_dnn_1_dog_10_n02086240_3572.png,n02086240_3572.png,0.0,-1.1981094,3.50571,-3.3261025
alexnet,1,98,NaN,elephant,elephant,inf,0098_hp_dnn_inf_elephant_10_n02504013_4523.png,n02504013_4523.png,1.0,23.223682,8.489961,10.418315
alexnet,1,99,NaN,oven,chair,inf,0099_hp_dnn_inf_chair_10_n04429376_7902.png,n04429376_7902.png,0.0,3.5833464,5.4065475,-1.2891979
alexnet,1,100,NaN,airplane,bird,0.45,0100_hp_dnn_0.45_bird_10_n01530575_14402.png,n01530575_14402.png,0.0,0.97141236,3.4233532,-1.733784
alexnet,1,101,NaN,knife,bottle,0.55,0101_hp_dnn_0.55_bottle_10_n02823428_11140.png,n02823428_11140.png,0.0,2.1855338,3.5389493,-0.9570093
alexnet,1,102,NaN,airplane,airplane,0.55,0102_hp_dnn_0.55_airplane_10_n02690373_7685.png,n02690373_7685.png,1.0,4.2587624,3.3048403,0.6745247
alexnet,1,103,NaN,airplane,boat,0.45,0103_hp_dnn_0.45_boat_10_n03344393_4827.png,n03344393_4827.png,0.0,2.6410158,4.505314,-1.3182578
alexnet,1,104,NaN,clock,dog,0.7,0104_hp_dnn_0.7_dog_10_n02088364_8674.png,n02088364_8674.png,0.0,-1.3763307,3.3379495,-3.3334994
alexnet,1,105,NaN,clock,knife,0.45,0105_hp_dnn_0.45_knife_10_n03041632_32004.png,n03041632_32004.png,0.0,1.3511586,3.2416983,-1.3368134
alexnet,1,106,NaN,keyboard,keyboard,3,0106_hp_dnn_3_keyboard_10_n03085013_22949.png,n03085013_22949.png,1.0,9.233674,5.196894,2.8544345
alexnet,1,107,NaN,airplane,knife,0.7,0107_hp_dnn_0.7_knife_10_n03041632_4044.png,n03041632_4044.png,0.0,1.7003794,2.9729376,-0.8998346
alexnet,1,108,NaN,airplane,airplane,1.5,0108_hp_dnn_1.5_airplane_10_n02690373_6455.png,n02690373_6455.png,1.0,3.7040453,3.058237,0.45665538
alexnet,1,109,NaN,airplane,airplane,0.55,0109_hp_dnn_0.55_airplane_10_n02690373_19646.png,n02690373_19646.png,1.0,3.2619014,3.110269,0.10722023
alexnet,1,110,NaN,boat,boat,inf,0110_hp_dnn_inf_boat_10_n04612504_1692.png,n04612504_1692.png,1.0,10.800127,4.559304,4.412928
alexnet,1,111,NaN,clock,cat,0.55,0111_hp_dnn_0.55_cat_10_n02124075_853.png,n02124075_853.png,0.0,0.9518132,2.8677204,-1.354751
alexnet,1,112,NaN,airplane,boat,1,0112_hp_dnn_1_boat_10_n04273569_6071.png,n04273569_6071.png,0.0,2.3932533,3.7043505,-0.9270857
alexnet,1,113,NaN,chair,bird,1.5,0113_hp_dnn_1.5_bird_10_n01616318_1214.png,n01616318_1214.png,0.0,-0.6803874,1.6957198,-1.6801616
alexnet,1,114,NaN,clock,car,1.5,0114_hp_dnn_1.5_car_10_n02814533_14627.png,n02814533_14627.png,0.0,1.48572,3.9343865,-1.7314688
alexnet,1,115,NaN,airplane,keyboard,0.7,0115_hp_dnn_0.7_keyboard_10_n03085013_1483.png,n03085013_1483.png,0.0,-0.13829517,2.9286523,-2.1686594
alexnet,1,116,NaN,airplane,airplane,0.55,0116_hp_dnn_0.55_airplane_10_n02690373_7401.png,n02690373_7401.png,1.0,4.375103,2.922787,1.0269425
alexnet,1,117,NaN,clock,keyboard,0.55,0117_hp_dnn_0.55_keyboard_10_n03085013_6963.png,n03085013_6963.png,0.0,-0.5782603,2.6052418,-2.251076
alexnet,1,118,NaN,knife,knife,3,0118_hp_dnn_3_knife_10_n03041632_1407.png,n03041632_1407.png,1.0,4.4877534,4.104571,0.27095097
alexnet,1,119,NaN,knife,elephant,1.5,0119_hp_dnn_1.5_elephant_10_n02504458_5137.png,n02504458_5137.png,0.0,2.5038514,3.4043453,-0.63674533
alexnet,1,120,NaN,clock,clock,inf,0120_hp_dnn_inf_clock_10_n02708093_6635.png,n02708093_6635.png,1.0,10.3495455,9.068599,0.9057661
alexnet,1,121,NaN,airplane,oven,0.4,0121_hp_dnn_0.4_oven_10_n04111531_5927.png,n04111531_5927.png,0.0,-1.5549951,3.3258672,-3.4512908
alexnet,1,122,NaN,clock,clock,inf,0122_hp_dnn_inf_clock_10_n02708093_2043.png,n02708093_2043.png,1.0,8.343955,5.7866745,1.8082705
alexnet,1,123,NaN,airplane,airplane,0.4,0123_hp_dnn_0.4_airplane_10_n02690373_7300.png,n02690373_7300.png,1.0,4.0762987,2.0716639,1.417491
alexnet,1,124,NaN,clock,oven,0.55,0124_hp_dnn_0.55_oven_10_n04111531_190.png,n04111531_190.png,0.0,0.31846273,2.482748,-1.5303807
alexnet,1,125,NaN,knife,dog,3,0125_hp_dnn_3_dog_10_n02091244_8497.png,n02091244_8497.png,0.0,-0.09064209,3.50421,-2.5419443
alexnet,1,126,NaN,clock,bicycle,0.7,0126_hp_dnn_0.7_bicycle_10_n03792782_15932.png,n03792782_15932.png,0.0,-1.4015144,2.536114,-2.7843237
alexnet,1,127,NaN,airplane,bear,0.4,0127_hp_dnn_0.4_bear_10_n02133161_463.png,n02133161_463.png,0.0,-0.75123453,3.2640803,-2.8392565
alexnet,1,128,NaN,chair,cat,0.7,0128_hp_dnn_0.7_cat_10_n02123045_11126.png,n02123045_11126.png,0.0,0.23067676,3.806973,-2.5288234
alexnet,1,129,NaN,clock,clock,0.7,0129_hp_dnn_0.7_clock_10_n04548280_8646.png,n04548280_8646.png,1.0,3.262613,1.2847881,1.3985335
alexnet,1,130,NaN,knife,bottle,0.55,0130_hp_dnn_0.55_bottle_10_n03983396_11597.png,n03983396_11597.png,0.0,0.7932628,2.1509395,-0.96002245
alexnet,1,131,NaN,chair,truck,3,0131_hp_dnn_3_truck_10_n03417042_212.png,n03417042_212.png,0.0,2.9141045,3.1753159,-0.18470435
alexnet,1,132,NaN,oven,keyboard,1,0132_hp_dnn_1_keyboard_10_n04505470_1724.png,n04505470_1724.png,0.0,3.5409555,5.8565316,-1.6373596
alexnet,1,133,NaN,knife,chair,1,0133_hp_dnn_1_chair_10_n04099969_14028.png,n04099969_14028.png,0.0,1.8896042,2.7276,-0.5925526
alexnet,1,134,NaN,airplane,cat,0.45,0134_hp_dnn_0.45_cat_10_n02124075_2138.png,n02124075_2138.png,0.0,0.08428816,3.8684568,-2.6758113
alexnet,1,135,NaN,airplane,boat,inf,0135_hp_dnn_inf_boat_10_n03662601_3145.png,n03662601_3145.png,0.0,5.76148,6.398494,-0.45043686
alexnet,1,136,NaN,knife,cat,3,0136_hp_dnn_3_cat_10_n02123045_1120.png,n02123045_1120.png,0.0,0.8251057,3.3002365,-1.7501818
alexnet,1,137,NaN,airplane,boat,inf,0137_hp_dnn_inf_boat_10_n04612504_31305.png,n04612504_31305.png,0.0,10.609222,11.212849,-0.42682824
alexnet,1,138,NaN,clock,chair,1,0138_hp_dnn_1_chair_10_n04099969_4275.png,n04099969_4275.png,0.0,2.1723413,3.4020748,-0.8695529
alexnet,1,139,NaN,airplane,keyboard,0.4,0139_hp_dnn_0.4_keyboard_10_n03085013_23005.png,n03085013_23005.png,0.0,-1.8069311,2.7469497,-3.22008
alexnet,1,140,NaN,airplane,airplane,1,0140_hp_dnn_1_airplane_10_n02690373_9618.png,n02690373_9618.png,1.0,3.7354255,3.1336117,0.42554662
alexnet,1,141,NaN,airplane,knife,0.55,0141_hp_dnn_0.55_knife_10_n03041632_17338.png,n03041632_17338.png,0.0,2.8058372,3.3557987,-0.38888156
alexnet,1,142,NaN,airplane,clock,0.45,0142_hp_dnn_0.45_clock_10_n04548280_8225.png,n04548280_8225.png,0.0,2.704913,3.0308084,-0.23044296
alexnet,1,143,NaN,car,car,inf,0143_hp_dnn_inf_car_10_n03100240_8907.png,n03100240_8907.png,1.0,10.159507,5.8159494,3.071359
alexnet,1,144,NaN,knife,chair,1.5,0144_hp_dnn_1.5_chair_10_n03376595_6865.png,n03376595_6865.png,0.0,2.2713468,2.7356803,-0.3283334
alexnet,1,145,NaN,clock,bicycle,0.45,0145_hp_dnn_0.45_bicycle_10_n03792782_44296.png,n03792782_44296.png,0.0,-1.7121619,2.5093336,-2.9850483
alexnet,1,146,NaN,oven,boat,1.5,0146_hp_dnn_1.5_boat_10_n04273569_1233.png,n04273569_1233.png,0.0,-0.43521976,4.051568,-3.1726382
alexnet,1,147,NaN,elephant,bird,1,0147_hp_dnn_1_bird_10_n01824575_12784.png,n01824575_12784.png,0.0,-0.3495608,3.2793474,-2.5660255
alexnet,1,148,NaN,airplane,boat,3,0148_hp_dnn_3_boat_10_n03344393_408.png,n03344393_408.png,0.0,6.0364175,6.969587,-0.6598504
alexnet,1,149,NaN,clock,airplane,1,0149_hp_dnn_1_airplane_10_n02690373_220.png,n02690373_220.png,0.0,3.9866047,4.666206,-0.48055062
alexnet,1,150,NaN,chair,chair,3,0150_hp_dnn_3_chair_10_n04429376_10546.png,n04429376_10546.png,1.0,5.111815,4.251486,0.6083446
alexnet,1,151,NaN,knife,oven,0.7,0151_hp_dnn_0.7_oven_10_n04111531_4749.png,n04111531_4749.png,0.0,3.3694196,4.3711004,-0.70829535
alexnet,1,152,NaN,airplane,truck,0.4,0152_hp_dnn_0.4_truck_10_n03417042_18124.png,n03417042_18124.png,0.0,0.5329768,4.294789,-2.6600027
alexnet,1,153,NaN,bottle,clock,3,0153_hp_dnn_3_clock_10_n03196217_7353.png,n03196217_7353.png,0.0,2.9459743,6.002766,-2.1614783
alexnet,1,154,NaN,clock,dog,0.7,0154_hp_dnn_0.7_dog_10_n02098286_2699.png,n02098286_2699.png,0.0,-0.9589053,1.7881927,-1.9424917
alexnet,1,155,NaN,airplane,truck,0.4,0155_hp_dnn_0.4_truck_10_n03796401_3651.png,n03796401_3651.png,0.0,0.22056234,3.8286822,-2.551326
alexnet,1,156,NaN,airplane,bottle,0.4,0156_hp_dnn_0.4_bottle_10_n03983396_4165.png,n03983396_4165.png,0.0,1.0784591,3.310164,-1.5780536
alexnet,1,157,NaN,knife,knife,1,0157_hp_dnn_1_knife_10_n03041632_25257.png,n03041632_25257.png,1.0,3.1649566,2.4924858,0.4755087
alexnet,1,158,NaN,chair,chair,3,0158_hp_dnn_3_chair_10_n04099969_1229.png,n04099969_1229.png,1.0,7.8256845,4.8954,2.072024
alexnet,1,159,NaN,elephant,bird,inf,0159_hp_dnn_inf_bird_10_n01798484_518.png,n01798484_518.png,0.0,2.2118506,4.903171,-1.9030509
alexnet,1,160,NaN,cat,bird,inf,0160_hp_dnn_inf_bird_10_n01797886_1953.png,n01797886_1953.png,0.0,1.3293923,1.7497944,-0.29726914
alexnet,1,161,NaN,chair,bird,3,0161_hp_dnn_3_bird_10_n01820546_228.png,n01820546_228.png,0.0,0.7892232,2.5910497,-1.2740837
alexnet,1,162,NaN,knife,bear,1.5,0162_hp_dnn_1.5_bear_10_n02134418_2666.png,n02134418_2666.png,0.0,-0.011854768,1.9677747,-1.3998095
alexnet,1,163,NaN,boat,boat,1.5,0163_hp_dnn_1.5_boat_10_n03344393_7659.png,n03344393_7659.png,1.0,5.3972435,2.4653792,2.073141
alexnet,1,164,NaN,clock,oven,1.5,0164_hp_dnn_1.5_oven_10_n04111531_1752.png,n04111531_1752.png,0.0,3.400305,3.6709003,-0.19133979
alexnet,1,165,NaN,elephant,dog,inf,0165_hp_dnn_inf_dog_10_n02091032_8873.png,n02091032_8873.png,0.0,2.9346907,6.3115864,-2.387826
alexnet,1,166,NaN,knife,oven,0.7,0166_hp_dnn_0.7_oven_10_n04111531_14559.png,n04111531_14559.png,0.0,2.8627229,3.446916,-0.413087
alexnet,1,167,NaN,clock,cat,0.7,0167_hp_dnn_0.7_cat_10_n02123045_114.png,n02123045_114.png,0.0,0.5855182,2.9742305,-1.6890748
alexnet,1,168,NaN,knife,cat,3,0168_hp_dnn_3_cat_10_n02123597_13865.png,n02123597_13865.png,0.0,4.540183,5.5641875,-0.7240805
alexnet,1,169,NaN,airplane,knife,0.55,0169_hp_dnn_0.55_knife_10_n03041632_13478.png,n03041632_13478.png,0.0,2.6303697,2.7061217,-0.05356477
alexnet,1,170,NaN,clock,elephant,0.55,0170_hp_dnn_0.55_elephant_10_n02504458_2618.png,n02504458_2618.png,0.0,-0.027315676,2.7070656,-1.9334996
alexnet,1,171,NaN,clock,truck,1,0171_hp_dnn_1_truck_10_n04467665_56954.png,n04467665_56954.png,0.0,-0.8266191,3.4731534,-3.0403981
alexnet,1,172,NaN,knife,chair,1,0172_hp_dnn_1_chair_10_n04429376_1791.png,n04429376_1791.png,0.0,2.6871357,3.5668702,-0.62206626
alexnet,1,173,NaN,bottle,bottle,3,0173_hp_dnn_3_bottle_10_n04560804_33214.png,n04560804_33214.png,1.0,4.6770434,3.865392,0.57392424
alexnet,1,174,NaN,knife,knife,inf,0174_hp_dnn_inf_knife_10_n03041632_48816.png,n03041632_48816.png,1.0,7.428357,4.2498903,2.2475154
alexnet,1,175,NaN,clock,cat,3,0175_hp_dnn_3_cat_10_n02123394_2274.png,n02123394_2274.png,0.0,3.6753511,5.324765,-1.1663119
alexnet,1,176,NaN,oven,truck,1.5,0176_hp_dnn_1.5_truck_10_n03796401_1326.png,n03796401_1326.png,0.0,3.494824,4.488681,-0.70276296
alexnet,1,177,NaN,airplane,knife,0.55,0177_hp_dnn_0.55_knife_10_n03041632_11887.png,n03041632_11887.png,0.0,0.3451667,3.180943,-2.0051968
alexnet,1,178,NaN,clock,dog,0.7,0178_hp_dnn_0.7_dog_10_n02113978_8008.png,n02113978_8008.png,0.0,-0.6610056,2.039704,-1.9096903
alexnet,1,179,NaN,airplane,cat,0.4,0179_hp_dnn_0.4_cat_10_n02123045_4812.png,n02123045_4812.png,0.0,0.24169655,3.765062,-2.4913957
alexnet,1,180,NaN,knife,bird,inf,0180_hp_dnn_inf_bird_10_n01833805_3578.png,n01833805_3578.png,0.0,-2.0970135,6.5471206,-6.112326
alexnet,1,181,NaN,clock,truck,1,0181_hp_dnn_1_truck_10_n03417042_3398.png,n03417042_3398.png,0.0,0.06858057,2.985093,-2.062286
alexnet,1,182,NaN,knife,bird,0.7,0182_hp_dnn_0.7_bird_10_n02007558_4566.png,n02007558_4566.png,0.0,-0.28021306,3.5318222,-2.695516
alexnet,1,183,NaN,clock,knife,0.45,0183_hp_dnn_0.45_knife_10_n03041632_3516.png,n03041632_3516.png,0.0,1.958448,2.579097,-0.4388651
alexnet,1,184,NaN,knife,cat,1.5,0184_hp_dnn_1.5_cat_10_n02124075_14965.png,n02124075_14965.png,0.0,-0.16438866,3.5947077,-2.6580825
alexnet,1,185,NaN,airplane,bird,0.4,0185_hp_dnn_0.4_bird_10_n01843065_2176.png,n01843065_2176.png,0.0,1.7645273,5.0114126,-2.2958946
alexnet,1,186,NaN,knife,knife,3,0186_hp_dnn_3_knife_10_n03041632_21034.png,n03041632_21034.png,1.0,3.6345108,3.2073522,0.30204675
alexnet,1,187,NaN,airplane,keyboard,1.5,0187_hp_dnn_1.5_keyboard_10_n03085013_24026.png,n03085013_24026.png,0.0,1.4689685,3.2137418,-1.233741
alexnet,1,188,NaN,knife,bottle,0.55,0188_hp_dnn_0.55_bottle_10_n04560804_14395.png,n04560804_14395.png,0.0,2.4082386,3.1275434,-0.5086253
alexnet,1,189,NaN,clock,boat,0.45,0189_hp_dnn_0.45_boat_10_n02951358_11567.png,n02951358_11567.png,0.0,0.5558259,2.7641125,-1.5614944
alexnet,1,190,NaN,airplane,chair,0.4,0190_hp_dnn_0.4_chair_10_n03376595_17747.png,n03376595_17747.png,0.0,0.3327847,3.7202487,-2.395299
alexnet,1,191,NaN,bottle,bottle,inf,0191_hp_dnn_inf_bottle_10_n04591713_5563.png,n04591713_5563.png,1.0,7.693658,7.1899314,0.35618842
alexnet,1,192,NaN,airplane,airplane,3,0192_hp_dnn_3_airplane_10_n02690373_7496.png,n02690373_7496.png,1.0,11.745214,6.080607,4.0054827
alexnet,1,193,NaN,airplane,airplane,3,0193_hp_dnn_3_airplane_10_n02690373_4465.png,n02690373_4465.png,1.0,7.9786277,4.192119,2.677466
alexnet,1,194,NaN,airplane,bear,0.4,0194_hp_dnn_0.4_bear_10_n02134418_119.png,n02134418_119.png,0.0,-1.0525787,4.2760344,-3.7678986
alexnet,1,195,NaN,knife,bear,1.5,0195_hp_dnn_1.5_bear_10_n02133161_1970.png,n02133161_1970.png,0.0,-0.62034357,1.5579906,-1.5403149
alexnet,1,196,NaN,clock,bird,1.5,0196_hp_dnn_1.5_bird_10_n02018795_5488.png,n02018795_5488.png,0.0,-0.46442342,2.2838936,-1.9433537
alexnet,1,197,NaN,airplane,bird,0.45,0197_hp_dnn_0.45_bird_10_n01796340_1877.png,n01796340_1877.png,0.0,0.81465864,3.7390308,-2.0678434
alexnet,1,198,NaN,airplane,airplane,0.4,0198_hp_dnn_0.4_airplane_10_n02690373_4964.png,n02690373_4964.png,1.0,4.630973,2.4664352,1.5305593
alexnet,1,199,NaN,bottle,bottle,0.4,0199_hp_dnn_0.4_bottle_10_n04591713_1762.png,n04591713_1762.png,1.0,5.5280643,4.440017,0.76936543
alexnet,1,200,NaN,knife,car,1,0200_hp_dnn_1_car_10_n03100240_6059.png,n03100240_6059.png,0.0,-1.5225376,5.8486423,-5.2122116
alexnet,1,201,NaN,chair,chair,inf,0201_hp_dnn_inf_chair_10_n03376595_10769.png,n03376595_10769.png,1.0,5.9018035,4.8213468,0.76399827
alexnet,1,202,NaN,oven,oven,inf,0202_hp_dnn_inf_oven_10_n04111531_1723.png,n04111531_1723.png,1.0,7.0131884,5.3818016,1.1535647
alexnet,1,203,NaN,airplane,bicycle,0.45,0203_hp_dnn_0.45_bicycle_10_n02835271_3570.png,n02835271_3570.png,0.0,-2.852829,2.666956,-3.9030774
alexnet,1,204,NaN,airplane,knife,0.4,0204_hp_dnn_0.4_knife_10_n03041632_83826.png,n03041632_83826.png,0.0,0.8833455,3.0555487,-1.5359795
alexnet,1,205,NaN,knife,keyboard,0.7,0205_hp_dnn_0.7_keyboard_10_n03085013_20673.png,n03085013_20673.png,0.0,0.6839236,4.151801,-2.4521596
alexnet,1,206,NaN,airplane,knife,1,0206_hp_dnn_1_knife_10_n03041632_27575.png,n03041632_27575.png,0.0,3.2242255,5.054633,-1.2942936
alexnet,1,207,NaN,bottle,bird,1.5,0207_hp_dnn_1.5_bird_10_n01558993_14305.png,n01558993_14305.png,0.0,1.7785487,2.3930728,-0.4345342
alexnet,1,208,NaN,airplane,bird,0.4,0208_hp_dnn_0.4_bird_10_n01537544_18123.png,n01537544_18123.png,0.0,1.2388235,4.049701,-1.9875908
alexnet,1,209,NaN,bicycle,bicycle,3,0209_hp_dnn_3_bicycle_10_n02835271_4307.png,n02835271_4307.png,1.0,9.807024,5.87393,2.7811174
alexnet,1,210,NaN,knife,car,0.7,0210_hp_dnn_0.7_car_10_n04285008_6320.png,n04285008_6320.png,0.0,0.0290126,4.5479994,-3.1954062
alexnet,1,211,NaN,knife,elephant,0.7,0211_hp_dnn_0.7_elephant_10_n02504458_1327.png,n02504458_1327.png,0.0,-0.21464908,2.0543194,-1.6044031
alexnet,1,212,NaN,bottle,bottle,1,0212_hp_dnn_1_bottle_10_n04560804_1813.png,n04560804_1813.png,1.0,4.5148478,4.1179748,0.2806316
alexnet,1,213,NaN,clock,cat,1,0213_hp_dnn_1_cat_10_n02124075_10085.png,n02124075_10085.png,0.0,0.37738785,2.8473654,-1.7465379
alexnet,1,214,NaN,clock,clock,inf,0214_hp_dnn_inf_clock_10_n03196217_2853.png,n03196217_2853.png,1.0,6.446195,5.586871,0.6076338
alexnet,1,215,NaN,boat,boat,1.5,0215_hp_dnn_1.5_boat_10_n04273569_10149.png,n04273569_10149.png,1.0,5.04717,2.1801786,2.0272691
alexnet,1,216,NaN,chair,chair,3,0216_hp_dnn_3_chair_10_n03376595_17859.png,n03376595_17859.png,1.0,6.71329,3.5523164,2.235146
alexnet,1,217,NaN,knife,dog,0.55,0217_hp_dnn_0.55_dog_10_n02101556_7581.png,n02101556_7581.png,0.0,-1.3348589,2.8055348,-2.9277005
alexnet,1,218,NaN,airplane,cat,0.4,0218_hp_dnn_0.4_cat_10_n02125311_8522.png,n02125311_8522.png,0.0,-0.2992843,3.781497,-2.8855484
alexnet,1,219,NaN,clock,clock,0.45,0219_hp_dnn_0.45_clock_10_n04548280_4345.png,n04548280_4345.png,1.0,3.2052886,2.3129277,0.6309945
alexnet,1,220,NaN,truck,truck,inf,0220_hp_dnn_inf_truck_10_n04467665_4088.png,n04467665_4088.png,1.0,11.374489,5.71594,4.0011983
alexnet,1,221,NaN,dog,dog,inf,0221_hp_dnn_inf_dog_10_n02102040_1100.png,n02102040_1100.png,1.0,5.409478,1.9962196,2.4135382
alexnet,1,222,NaN,airplane,bicycle,0.55,0222_hp_dnn_0.55_bicycle_10_n03792782_15557.png,n03792782_15557.png,0.0,-1.1678733,2.912568,-2.8853078
alexnet,1,223,NaN,chair,car,3,0223_hp_dnn_3_car_10_n04285008_12767.png,n04285008_12767.png,0.0,2.5389092,6.3909783,-2.7238243
alexnet,1,224,NaN,airplane,boat,0.4,0224_hp_dnn_0.4_boat_10_n03662601_2438.png,n03662601_2438.png,0.0,2.4244595,3.3255546,-0.6371705
alexnet,1,225,NaN,truck,truck,inf,0225_hp_dnn_inf_truck_10_n03417042_6419.png,n03417042_6419.png,1.0,11.685011,8.122456,2.519107
alexnet,1,226,NaN,airplane,chair,0.45,0226_hp_dnn_0.45_chair_10_n04099969_9891.png,n04099969_9891.png,0.0,0.613037,2.4649234,-1.3094815
alexnet,1,227,NaN,cat,cat,inf,0227_hp_dnn_inf_cat_10_n02123045_8543.png,n02123045_8543.png,1.0,8.555474,1.3765196,5.0762877
alexnet,1,228,NaN,airplane,cat,0.55,0228_hp_dnn_0.55_cat_10_n02123045_7342.png,n02123045_7342.png,0.0,1.4012617,2.3351784,-0.6603788
alexnet,1,229,NaN,airplane,bird,0.55,0229_hp_dnn_0.55_bird_10_n02018207_10814.png,n02018207_10814.png,0.0,1.2791404,2.866629,-1.1225239
alexnet,1,230,NaN,airplane,airplane,3,0230_hp_dnn_3_airplane_10_n02690373_20033.png,n02690373_20033.png,1.0,6.810711,3.3444622,2.451008
alexnet,1,231,NaN,airplane,truck,0.55,0231_hp_dnn_0.55_truck_10_n04467665_13645.png,n04467665_13645.png,0.0,1.2155569,5.4468045,-2.991944
alexnet,1,232,NaN,airplane,airplane,1.5,0232_hp_dnn_1.5_airplane_10_n02690373_5015.png,n02690373_5015.png,1.0,4.499282,2.267974,1.577773
alexnet,1,233,NaN,airplane,chair,1.5,0233_hp_dnn_1.5_chair_10_n03376595_6173.png,n03376595_6173.png,0.0,0.29398227,1.2756705,-0.69415843
alexnet,1,234,NaN,knife,knife,1.5,0234_hp_dnn_1.5_knife_10_n03041632_91967.png,n03041632_91967.png,1.0,4.6018925,3.199382,0.9917246
alexnet,1,235,NaN,elephant,elephant,inf,0235_hp_dnn_inf_elephant_10_n02504458_1271.png,n02504458_1271.png,1.0,14.006306,3.3158774,7.559274
alexnet,1,236,NaN,knife,cat,0.7,0236_hp_dnn_0.7_cat_10_n02123597_1684.png,n02123597_1684.png,0.0,-0.07730305,3.7165008,-2.6826243
alexnet,1,237,NaN,knife,dog,0.55,0237_hp_dnn_0.55_dog_10_n02091831_3628.png,n02091831_3628.png,0.0,-0.91836107,2.4019632,-2.3478239
alexnet,1,238,NaN,clock,truck,0.45,0238_hp_dnn_0.45_truck_10_n04467665_64540.png,n04467665_64540.png,0.0,-0.70784295,3.7230244,-3.1330962
alexnet,1,239,NaN,knife,airplane,1,0239_hp_dnn_1_airplane_10_n02690373_3289.png,n02690373_3289.png,0.0,2.5418768,2.7976017,-0.18082482
alexnet,1,240,NaN,boat,boat,3,0240_hp_dnn_3_boat_10_n04273569_16949.png,n04273569_16949.png,1.0,6.589537,2.4568849,2.9222264
alexnet,1,241,NaN,knife,bicycle,1,0241_hp_dnn_1_bicycle_10_n03792782_15174.png,n03792782_15174.png,0.0,-0.5325099,2.590822,-2.2085292
alexnet,1,242,NaN,knife,bottle,1.5,0242_hp_dnn_1.5_bottle_10_n03937543_146.png,n03937543_146.png,0.0,2.8845036,4.837225,-1.3807825
alexnet,1,243,NaN,clock,chair,0.45,0243_hp_dnn_0.45_chair_10_n04429376_694.png,n04429376_694.png,0.0,1.3875499,2.6219559,-0.87285686
alexnet,1,244,NaN,airplane,keyboard,0.4,0244_hp_dnn_0.4_keyboard_10_n03085013_19407.png,n03085013_19407.png,0.0,-1.4851594,3.1141505,-3.2522032
alexnet,1,245,NaN,airplane,oven,0.45,0245_hp_dnn_0.45_oven_10_n04111531_4955.png,n04111531_4955.png,0.0,-0.46416327,2.2791343,-1.9398043
alexnet,1,246,NaN,clock,dog,1.5,0246_hp_dnn_1.5_dog_10_n02099712_1825.png,n02099712_1825.png,0.0,-0.64839983,1.7088343,-1.6668162
alexnet,1,247,NaN,airplane,bear,0.55,0247_hp_dnn_0.55_bear_10_n02134084_14031.png,n02134084_14031.png,0.0,-0.70706165,2.0938182,-1.9805212
alexnet,1,248,NaN,airplane,car,0.45,0248_hp_dnn_0.45_car_10_n02814533_70922.png,n02814533_70922.png,0.0,-0.6208486,3.338158,-2.7994404
alexnet,1,249,NaN,airplane,elephant,0.45,0249_hp_dnn_0.45_elephant_10_n02504458_217.png,n02504458_217.png,0.0,-0.52679217,2.8622835,-2.3964386
alexnet,1,250,NaN,car,car,inf,0250_hp_dnn_inf_car_10_n02814533_27824.png,n02814533_27824.png,1.0,13.952352,8.865725,3.5967884
alexnet,1,251,NaN,clock,keyboard,0.7,0251_hp_dnn_0.7_keyboard_10_n03085013_24257.png,n03085013_24257.png,0.0,1.7918563,4.218668,-1.716015
alexnet,1,252,NaN,elephant,elephant,3,0252_hp_dnn_3_elephant_10_n02504013_2269.png,n02504013_2269.png,1.0,7.7006226,2.8687603,3.4166427
alexnet,1,253,NaN,airplane,bear,0.45,0253_hp_dnn_0.45_bear_10_n02134418_1798.png,n02134418_1798.png,0.0,-1.2251972,3.3028522,-3.2018147
alexnet,1,254,NaN,clock,dog,0.45,0254_hp_dnn_0.45_dog_10_n02111129_6881.png,n02111129_6881.png,0.0,-1.1337482,2.2892687,-2.4204385
alexnet,1,255,NaN,chair,truck,1.5,0255_hp_dnn_1.5_truck_10_n04467665_67315.png,n04467665_67315.png,0.0,2.1270857,4.576181,-1.731772
alexnet,1,256,NaN,knife,elephant,0.55,0256_hp_dnn_0.55_elephant_10_n02504013_3688.png,n02504013_3688.png,0.0,0.22891244,2.29068,-1.4578899
alexnet,1,257,NaN,knife,truck,1.5,0257_hp_dnn_1.5_truck_10_n04467665_38886.png,n04467665_38886.png,0.0,1.1970644,4.137554,-2.0792403
alexnet,1,258,NaN,bottle,bottle,inf,0258_hp_dnn_inf_bottle_10_n04557648_4250.png,n04557648_4250.png,1.0,7.766604,5.1775103,1.8307657
alexnet,1,259,NaN,clock,chair,0.45,0259_hp_dnn_0.45_chair_10_n04099969_4053.png,n04099969_4053.png,0.0,0.97104394,2.9439628,-1.3950644
alexnet,1,260,NaN,knife,knife,0.7,0260_hp_dnn_0.7_knife_10_n03041632_5727.png,n03041632_5727.png,1.0,2.239342,2.085521,0.10876787
alexnet,1,261,NaN,knife,dog,1,0261_hp_dnn_1_dog_10_n02091134_4525.png,n02091134_4525.png,0.0,-2.4519444,6.0857553,-6.0370655
alexnet,1,262,NaN,keyboard,keyboard,inf,0262_hp_dnn_inf_keyboard_10_n04505470_4685.png,n04505470_4685.png,1.0,14.175059,7.572769,4.6685243
alexnet,1,263,NaN,airplane,boat,0.4,0263_hp_dnn_0.4_boat_10_n02951358_6637.png,n02951358_6637.png,0.0,1.336084,4.336916,-2.1219087
alexnet,1,264,NaN,knife,dog,1.5,0264_hp_dnn_1.5_dog_10_n02093256_11232.png,n02093256_11232.png,0.0,-1.2687863,2.895012,-2.94425
alexnet,1,265,NaN,elephant,elephant,inf,0265_hp_dnn_inf_elephant_10_n02504013_816.png,n02504013_816.png,1.0,9.176307,2.9805048,4.3810935
alexnet,1,266,NaN,elephant,bear,1.5,0266_hp_dnn_1.5_bear_10_n02134084_1484.png,n02134084_1484.png,0.0,1.1048777,4.0735264,-2.0991516
alexnet,1,267,NaN,airplane,boat,0.45,0267_hp_dnn_0.45_boat_10_n04273569_15859.png,n04273569_15859.png,0.0,1.4321352,3.8073092,-1.6795017
alexnet,1,268,NaN,bicycle,bicycle,3,0268_hp_dnn_3_bicycle_10_n02835271_7311.png,n02835271_7311.png,1.0,4.297347,3.1171336,0.83453697
alexnet,1,269,NaN,knife,cat,1,0269_hp_dnn_1_cat_10_n02123045_2339.png,n02123045_2339.png,0.0,-1.1056985,2.5939276,-2.6160307
alexnet,1,270,NaN,airplane,elephant,0.45,0270_hp_dnn_0.45_elephant_10_n02504458_4448.png,n02504458_4448.png,0.0,-0.5363613,2.2753572,-1.9881852
alexnet,1,271,NaN,knife,car,1,0271_hp_dnn_1_car_10_n03100240_9955.png,n03100240_9955.png,0.0,1.862971,4.384557,-1.7830305
alexnet,1,272,NaN,knife,truck,0.55,0272_hp_dnn_0.55_truck_10_n03417042_7310.png,n03417042_7310.png,0.0,-0.9500423,4.31594,-3.7236118
alexnet,1,273,NaN,knife,chair,0.55,0273_hp_dnn_0.55_chair_10_n04099969_20421.png,n04099969_20421.png,0.0,1.9012042,3.0338693,-0.8009151
alexnet,1,274,NaN,boat,boat,0.45,0274_hp_dnn_0.45_boat_10_n04612504_4581.png,n04612504_4581.png,1.0,4.5381,4.096355,0.31236076
alexnet,1,275,NaN,knife,bear,1,0275_hp_dnn_1_bear_10_n02134418_4515.png,n02134418_4515.png,0.0,-1.3692081,3.2516642,-3.2674503
alexnet,1,276,NaN,knife,truck,0.7,0276_hp_dnn_0.7_truck_10_n03796401_1082.png,n03796401_1082.png,0.0,-0.6033014,4.0888777,-3.3178718
alexnet,1,277,NaN,knife,bicycle,1,0277_hp_dnn_1_bicycle_10_n03792782_8176.png,n03792782_8176.png,0.0,0.5252842,2.8667107,-1.6556385
alexnet,1,278,NaN,airplane,oven,0.4,0278_hp_dnn_0.4_oven_10_n04111531_5463.png,n04111531_5463.png,0.0,-1.3825438,4.0795894,-3.8623116
alexnet,1,279,NaN,knife,elephant,1.5,0279_hp_dnn_1.5_elephant_10_n02504013_4166.png,n02504013_4166.png,0.0,1.8732475,3.3670197,-1.0562564
alexnet,1,280,NaN,knife,airplane,0.7,0280_hp_dnn_0.7_airplane_10_n02690373_18295.png,n02690373_18295.png,0.0,2.82871,5.694878,-2.026687
alexnet,1,281,NaN,clock,cat,0.45,0281_hp_dnn_0.45_cat_10_n02124075_1460.png,n02124075_1460.png,0.0,0.26479536,2.6883783,-1.713732
alexnet,1,282,NaN,bird,bird,0.55,0282_hp_dnn_0.55_bird_10_n02028035_17759.png,n02028035_17759.png,1.0,1.9110665,1.7511835,0.11305437
alexnet,1,283,NaN,chair,chair,3,0283_hp_dnn_3_chair_10_n02791124_6654.png,n02791124_6654.png,1.0,4.660611,2.0858514,1.8206301
alexnet,1,284,NaN,airplane,truck,0.7,0284_hp_dnn_0.7_truck_10_n04467665_22974.png,n04467665_22974.png,0.0,1.0349059,4.453699,-2.4174519
alexnet,1,285,NaN,knife,clock,0.55,0285_hp_dnn_0.55_clock_10_n03196217_2983.png,n03196217_2983.png,0.0,1.6195756,3.8579788,-1.5827901
alexnet,1,286,NaN,oven,knife,inf,0286_hp_dnn_inf_knife_10_n03041632_23968.png,n03041632_23968.png,0.0,4.4710436,4.818705,-0.2458338
alexnet,1,287,NaN,airplane,keyboard,0.4,0287_hp_dnn_0.4_keyboard_10_n03085013_23519.png,n03085013_23519.png,0.0,-0.34022605,3.433345,-2.6683178
alexnet,1,288,NaN,knife,bottle,1.5,0288_hp_dnn_1.5_bottle_10_n04591713_14895.png,n04591713_14895.png,0.0,4.030263,4.7317715,-0.49604145
alexnet,1,289,NaN,knife,elephant,1,0289_hp_dnn_1_elephant_10_n02504013_3969.png,n02504013_3969.png,0.0,2.9201818,3.710248,-0.5586612
alexnet,1,290,NaN,chair,bear,3,0290_hp_dnn_3_bear_10_n02134418_3723.png,n02134418_3723.png,0.0,-1.0794346,3.3435378,-3.1275141
alexnet,1,291,NaN,airplane,keyboard,0.45,0291_hp_dnn_0.45_keyboard_10_n04505470_709.png,n04505470_709.png,0.0,-0.6090442,4.093571,-3.325251
alexnet,1,292,NaN,knife,knife,1.5,0292_hp_dnn_1.5_knife_10_n03041632_379.png,n03041632_379.png,1.0,4.2304497,3.523998,0.49953675
alexnet,1,293,NaN,bottle,oven,3,0293_hp_dnn_3_oven_10_n04111531_13128.png,n04111531_13128.png,0.0,2.918451,3.0207894,-0.072364114
alexnet,1,294,NaN,knife,elephant,0.55,0294_hp_dnn_0.55_elephant_10_n02504013_933.png,n02504013_933.png,0.0,1.9558654,3.7246175,-1.2506967
alexnet,1,295,NaN,airplane,airplane,inf,0295_hp_dnn_inf_airplane_10_n02690373_17603.png,n02690373_17603.png,1.0,16.388279,7.8213706,6.0577188
alexnet,1,296,NaN,airplane,airplane,0.45,0296_hp_dnn_0.45_airplane_10_n02690373_5177.png,n02690373_5177.png,1.0,3.7397833,1.663602,1.468082
alexnet,1,297,NaN,knife,chair,1.5,0297_hp_dnn_1.5_chair_10_n04429376_28121.png,n04429376_28121.png,0.0,3.0164669,5.3467436,-1.6477545
alexnet,1,298,NaN,knife,truck,0.55,0298_hp_dnn_0.55_truck_10_n03417042_6517.png,n03417042_6517.png,0.0,-0.9141507,2.6744542,-2.5375268
alexnet,1,299,NaN,airplane,chair,0.55,0299_hp_dnn_0.55_chair_10_n03376595_5503.png,n03376595_5503.png,0.0,0.7301248,5.212188,-3.169297
alexnet,1,300,NaN,clock,clock,1.5,0300_hp_dnn_1.5_clock_10_n03196217_7918.png,n03196217_7918.png,1.0,4.5886035,4.029591,0.39528146
alexnet,1,301,NaN,knife,car,1,0301_hp_dnn_1_car_10_n04285008_7751.png,n04285008_7751.png,0.0,2.503029,3.6052012,-0.7793534
alexnet,1,302,NaN,airplane,clock,0.4,0302_hp_dnn_0.4_clock_10_n03196217_2628.png,n03196217_2628.png,0.0,1.2731801,2.780954,-1.0661571
alexnet,1,303,NaN,airplane,bird,0.55,0303_hp_dnn_0.55_bird_10_n01833805_6395.png,n01833805_6395.png,0.0,2.2527096,3.341807,-0.77010804
alexnet,1,304,NaN,airplane,boat,0.4,0304_hp_dnn_0.4_boat_10_n03344393_6015.png,n03344393_6015.png,0.0,2.5152807,4.3200817,-1.2761871
alexnet,1,305,NaN,knife,elephant,1.5,0305_hp_dnn_1.5_elephant_10_n02504013_2739.png,n02504013_2739.png,0.0,2.1906657,3.7780156,-1.1224259
alexnet,1,306,NaN,clock,keyboard,0.45,0306_hp_dnn_0.45_keyboard_10_n03085013_23316.png,n03085013_23316.png,0.0,0.57909036,2.55692,-1.3985368
alexnet,1,307,NaN,knife,airplane,1,0307_hp_dnn_1_airplane_10_n02690373_20350.png,n02690373_20350.png,0.0,2.913508,4.2130227,-0.9188957
alexnet,1,308,NaN,clock,clock,3,0308_hp_dnn_3_clock_10_n02708093_3484.png,n02708093_3484.png,1.0,7.1857667,3.3490663,2.712957
alexnet,1,309,NaN,bottle,bicycle,0.55,0309_hp_dnn_0.55_bicycle_10_n03792782_10185.png,n03792782_10185.png,0.0,-2.283624,2.663279,-3.497989
alexnet,1,310,NaN,oven,knife,3,0310_hp_dnn_3_knife_10_n03041632_42196.png,n03041632_42196.png,0.0,6.1567826,8.681857,-1.7854973
alexnet,1,311,NaN,bird,bird,inf,0311_hp_dnn_inf_bird_10_n01855672_6132.png,n01855672_6132.png,1.0,5.9432898,2.3663795,2.5292575
alexnet,1,312,NaN,airplane,bottle,0.4,0312_hp_dnn_0.4_bottle_10_n03983396_3047.png,n03983396_3047.png,0.0,0.46012202,3.8994236,-2.4319534
alexnet,1,313,NaN,clock,bottle,0.4,0313_hp_dnn_0.4_bottle_10_n04557648_2093.png,n04557648_2093.png,0.0,2.0053182,3.887659,-1.3310161
alexnet,1,314,NaN,knife,keyboard,0.55,0314_hp_dnn_0.55_keyboard_10_n04505470_7686.png,n04505470_7686.png,0.0,1.795765,3.1402078,-0.9506646
alexnet,1,315,NaN,knife,bear,1.5,0315_hp_dnn_1.5_bear_10_n02132136_5051.png,n02132136_5051.png,0.0,0.8661249,5.275233,-3.11771
alexnet,1,316,NaN,clock,bear,1,0316_hp_dnn_1_bear_10_n02134418_24559.png,n02134418_24559.png,0.0,-0.14460489,1.9689535,-1.4945115
alexnet,1,317,NaN,clock,oven,0.55,0317_hp_dnn_0.55_oven_10_n04111531_3702.png,n04111531_3702.png,0.0,0.0029237568,2.07379,-1.4643236
alexnet,1,318,NaN,knife,bicycle,1,0318_hp_dnn_1_bicycle_10_n02835271_24230.png,n02835271_24230.png,0.0,-0.3100919,4.1233735,-3.1349335
alexnet,1,319,NaN,clock,keyboard,1.5,0319_hp_dnn_1.5_keyboard_10_n03085013_2272.png,n03085013_2272.png,0.0,2.487319,3.8730786,-0.97988003
alexnet,1,320,NaN,oven,keyboard,0.55,0320_hp_dnn_0.55_keyboard_10_n03085013_23201.png,n03085013_23201.png,0.0,1.1732951,4.9190016,-2.6486146
alexnet,1,321,NaN,boat,boat,1.5,0321_hp_dnn_1.5_boat_10_n04273569_9803.png,n04273569_9803.png,1.0,2.7283754,1.6051135,0.79426616
alexnet,1,322,NaN,boat,boat,0.4,0322_hp_dnn_0.4_boat_10_n04612504_29813.png,n04612504_29813.png,1.0,3.771381,3.6182966,0.10824693
alexnet,1,323,NaN,clock,clock,1,0323_hp_dnn_1_clock_10_n02708093_1291.png,n02708093_1291.png,1.0,5.487578,3.4685705,1.4276539
alexnet,1,324,NaN,clock,oven,0.4,0324_hp_dnn_0.4_oven_10_n04111531_1794.png,n04111531_1794.png,0.0,1.2563922,2.8325183,-1.1144894
alexnet,1,325,NaN,airplane,bear,0.4,0325_hp_dnn_0.4_bear_10_n02132136_5612.png,n02132136_5612.png,0.0,-0.9626649,4.55666,-3.9027524
alexnet,1,326,NaN,boat,boat,1.5,0326_hp_dnn_1.5_boat_10_n04273569_3401.png,n04273569_3401.png,1.0,4.5007777,1.9724903,1.7877692
alexnet,1,327,NaN,elephant,cat,3,0327_hp_dnn_3_cat_10_n02125311_16544.png,n02125311_16544.png,0.0,0.7630231,2.5515475,-1.2646778
alexnet,1,328,NaN,oven,clock,1.5,0328_hp_dnn_1.5_clock_10_n03196217_10717.png,n03196217_10717.png,0.0,4.323129,4.9165707,-0.4196265
alexnet,1,329,NaN,bicycle,bear,3,0329_hp_dnn_3_bear_10_n02134418_47.png,n02134418_47.png,0.0,0.19302332,2.230883,-1.4409842
alexnet,1,330,NaN,clock,bottle,3,0330_hp_dnn_3_bottle_10_n04591713_4380.png,n04591713_4380.png,0.0,1.0754802,4.2686505,-2.2579124
alexnet,1,331,NaN,knife,chair,0.55,0331_hp_dnn_0.55_chair_10_n04429376_8710.png,n04429376_8710.png,0.0,1.6937182,2.7443166,-0.74288523
alexnet,1,332,NaN,bicycle,bicycle,3,0332_hp_dnn_3_bicycle_10_n02835271_781.png,n02835271_781.png,1.0,8.47435,3.4527605,3.5507998
alexnet,1,333,NaN,elephant,bear,1.5,0333_hp_dnn_1.5_bear_10_n02134418_875.png,n02134418_875.png,0.0,0.8641319,3.680455,-1.9914411
alexnet,1,334,NaN,airplane,dog,0.55,0334_hp_dnn_0.55_dog_10_n02094433_10343.png,n02094433_10343.png,0.0,-0.29232812,2.6561272,-2.0848727
alexnet,1,335,NaN,airplane,airplane,3,0335_hp_dnn_3_airplane_10_n02690373_1053.png,n02690373_1053.png,1.0,11.199808,5.2388678,4.2150216
alexnet,1,336,NaN,airplane,airplane,3,0336_hp_dnn_3_airplane_10_n02690373_18848.png,n02690373_18848.png,1.0,9.130537,2.4303942,4.7377167
alexnet,1,337,NaN,keyboard,keyboard,3,0337_hp_dnn_3_keyboard_10_n03085013_18741.png,n03085013_18741.png,1.0,6.9556656,5.151711,1.2755885
alexnet,1,338,NaN,bear,bear,inf,0338_hp_dnn_inf_bear_10_n02134418_3152.png,n02134418_3152.png,1.0,10.985691,4.713775,4.434914
alexnet,1,339,NaN,boat,bicycle,1.5,0339_hp_dnn_1.5_bicycle_10_n03792782_14557.png,n03792782_14557.png,0.0,0.5331607,1.5614225,-0.7270909
alexnet,1,340,NaN,elephant,bird,0.7,0340_hp_dnn_0.7_bird_10_n01796340_5262.png,n01796340_5262.png,0.0,0.10186986,1.7761561,-1.1838992
alexnet,1,341,NaN,knife,bicycle,1,0341_hp_dnn_1_bicycle_10_n03792782_4559.png,n03792782_4559.png,0.0,-1.8945563,4.219495,-4.323287
alexnet,1,342,NaN,boat,bear,0.45,0342_hp_dnn_0.45_bear_10_n02134084_3177.png,n02134084_3177.png,0.0,0.6389223,3.7870247,-2.2260447
alexnet,1,343,NaN,airplane,elephant,0.4,0343_hp_dnn_0.4_elephant_10_n02504458_5008.png,n02504458_5008.png,0.0,-0.5405098,4.8029795,-3.7784176
alexnet,1,344,NaN,clock,oven,3,0344_hp_dnn_3_oven_10_n04111531_7955.png,n04111531_7955.png,0.0,2.4366274,5.3459396,-2.0571945
alexnet,1,345,NaN,bicycle,bicycle,inf,0345_hp_dnn_inf_bicycle_10_n02835271_13793.png,n02835271_13793.png,1.0,5.303892,3.2961419,1.4196938
alexnet,1,346,NaN,airplane,keyboard,0.45,0346_hp_dnn_0.45_keyboard_10_n03085013_14810.png,n03085013_14810.png,0.0,-0.49975055,3.9050689,-3.1146777
alexnet,1,347,NaN,knife,car,0.7,0347_hp_dnn_0.7_car_10_n02814533_39933.png,n02814533_39933.png,0.0,-0.8724835,4.123415,-3.5326335
alexnet,1,348,NaN,knife,bird,1,0348_hp_dnn_1_bird_10_n02027492_4897.png,n02027492_4897.png,0.0,1.8158665,3.5861988,-1.251814
alexnet,1,349,NaN,keyboard,keyboard,3,0349_hp_dnn_3_keyboard_10_n03085013_23776.png,n03085013_23776.png,1.0,5.668895,5.060484,0.43021142
alexnet,1,350,NaN,clock,car,1.5,0350_hp_dnn_1.5_car_10_n02814533_31493.png,n02814533_31493.png,0.0,2.2707977,3.8572981,-1.1218252
alexnet,1,351,NaN,clock,boat,1.5,0351_hp_dnn_1.5_boat_10_n03344393_7631.png,n03344393_7631.png,0.0,0.7299184,4.231854,-2.4762423
alexnet,1,352,NaN,airplane,bicycle,0.4,0352_hp_dnn_0.4_bicycle_10_n02835271_1261.png,n02835271_1261.png,0.0,-1.3360515,3.0115874,-3.0742452
alexnet,1,353,NaN,knife,clock,1,0353_hp_dnn_1_clock_10_n03196217_1850.png,n03196217_1850.png,0.0,2.1680725,3.5767567,-0.99609023
alexnet,1,354,NaN,bear,bear,inf,0354_hp_dnn_inf_bear_10_n02132136_22387.png,n02132136_22387.png,1.0,10.819716,6.851177,2.806181
alexnet,1,355,NaN,airplane,airplane,1.5,0355_hp_dnn_1.5_airplane_10_n02690373_2316.png,n02690373_2316.png,1.0,5.7515473,3.9447877,1.277572
alexnet,1,356,NaN,bottle,cat,0.7,0356_hp_dnn_0.7_cat_10_n02123597_3634.png,n02123597_3634.png,0.0,0.77639633,1.9981009,-0.86387557
alexnet,1,357,NaN,airplane,bird,0.45,0357_hp_dnn_0.45_bird_10_n02018207_4151.png,n02018207_4151.png,0.0,1.7062745,3.2518966,-1.09292
alexnet,1,358,NaN,knife,knife,0.7,0358_hp_dnn_0.7_knife_10_n03041632_94155.png,n03041632_94155.png,1.0,3.693191,2.260401,1.0131356
alexnet,1,359,NaN,clock,bottle,0.45,0359_hp_dnn_0.45_bottle_10_n04560804_7509.png,n04560804_7509.png,0.0,2.1091857,3.589337,-1.0466251
alexnet,1,360,NaN,airplane,cat,0.4,0360_hp_dnn_0.4_cat_10_n02123045_12748.png,n02123045_12748.png,0.0,0.2307591,3.352933,-2.2077103
alexnet,1,361,NaN,knife,elephant,0.7,0361_hp_dnn_0.7_elephant_10_n02504013_6.png,n02504013_6.png,0.0,-0.012871325,4.475431,-3.173709
alexnet,1,362,NaN,airplane,elephant,0.4,0362_hp_dnn_0.4_elephant_10_n02504013_1492.png,n02504013_1492.png,0.0,-0.67831457,3.8797457,-3.2230353
alexnet,1,363,NaN,airplane,dog,0.4,0363_hp_dnn_0.4_dog_10_n02107142_27162.png,n02107142_27162.png,0.0,-0.99893725,3.8249211,-3.4109828
alexnet,1,364,NaN,knife,bear,0.7,0364_hp_dnn_0.7_bear_10_n02134418_962.png,n02134418_962.png,0.0,-0.24392366,3.3774383,-2.5606897
alexnet,1,365,NaN,knife,truck,0.7,0365_hp_dnn_0.7_truck_10_n03417042_9693.png,n03417042_9693.png,0.0,0.12795568,2.7131586,-1.8280146
alexnet,1,366,NaN,oven,oven,1,0366_hp_dnn_1_oven_10_n04111531_2116.png,n04111531_2116.png,1.0,4.7808294,2.794186,1.404769
alexnet,1,367,NaN,keyboard,keyboard,inf,0367_hp_dnn_inf_keyboard_10_n03085013_20460.png,n03085013_20460.png,1.0,15.250771,5.455179,6.9265294
alexnet,1,368,NaN,airplane,bird,0.45,0368_hp_dnn_0.45_bird_10_n01796340_6191.png,n01796340_6191.png,0.0,0.8481003,2.5455737,-1.200295
alexnet,1,369,NaN,chair,oven,1.5,0369_hp_dnn_1.5_oven_10_n04111531_8046.png,n04111531_8046.png,0.0,3.8196635,4.620714,-0.56642836
alexnet,1,370,NaN,airplane,boat,0.45,0370_hp_dnn_0.45_boat_10_n03344393_11788.png,n03344393_11788.png,0.0,2.5712523,2.9838128,-0.2917243
alexnet,1,371,NaN,cat,cat,inf,0371_hp_dnn_inf_cat_10_n02123394_2765.png,n02123394_2765.png,1.0,9.59668,4.08007,3.9008322
alexnet,1,372,NaN,clock,bicycle,0.4,0372_hp_dnn_0.4_bicycle_10_n03792782_26834.png,n03792782_26834.png,0.0,-1.0302161,2.5437067,-2.527145
alexnet,1,373,NaN,bottle,cat,1.5,0373_hp_dnn_1.5_cat_10_n02125311_37036.png,n02125311_37036.png,0.0,0.47036192,2.3910973,-1.358165
alexnet,1,374,NaN,clock,bicycle,0.7,0374_hp_dnn_0.7_bicycle_10_n03792782_4067.png,n03792782_4067.png,0.0,-2.06553,2.779702,-3.4260964
alexnet,1,375,NaN,bear,bear,inf,0375_hp_dnn_inf_bear_10_n02134418_3886.png,n02134418_3886.png,1.0,11.558498,8.712709,2.0122766
alexnet,1,376,NaN,clock,dog,0.7,0376_hp_dnn_0.7_dog_10_n02110185_9014.png,n02110185_9014.png,0.0,-1.3959495,3.1115522,-3.187285
alexnet,1,377,NaN,bear,bear,inf,0377_hp_dnn_inf_bear_10_n02134084_14888.png,n02134084_14888.png,1.0,6.2593336,6.031143,0.161355
alexnet,1,378,NaN,clock,truck,1.5,0378_hp_dnn_1.5_truck_10_n03417042_5249.png,n03417042_5249.png,0.0,0.33773962,3.5983384,-2.3055913
alexnet,1,379,NaN,knife,oven,1,0379_hp_dnn_1_oven_10_n04111531_10711.png,n04111531_10711.png,0.0,1.4450212,3.325695,-1.3298373
alexnet,1,380,NaN,knife,car,1.5,0380_hp_dnn_1.5_car_10_n04285008_15271.png,n04285008_15271.png,0.0,2.1082366,6.0556593,-2.7912495
alexnet,1,381,NaN,airplane,cat,0.45,0381_hp_dnn_0.45_cat_10_n02123597_12232.png,n02123597_12232.png,0.0,-0.18843363,3.7878656,-2.8116682
alexnet,1,382,NaN,chair,clock,3,0382_hp_dnn_3_clock_10_n04548280_8083.png,n04548280_8083.png,0.0,4.5009613,6.457858,-1.3837351
alexnet,1,383,NaN,airplane,chair,0.45,0383_hp_dnn_0.45_chair_10_n04099969_8946.png,n04099969_8946.png,0.0,0.5728479,3.4646404,-2.0448062
alexnet,1,384,NaN,oven,keyboard,0.7,0384_hp_dnn_0.7_keyboard_10_n03085013_21973.png,n03085013_21973.png,0.0,0.97804284,3.9379582,-2.0929763
alexnet,1,385,NaN,knife,bottle,0.7,0385_hp_dnn_0.7_bottle_10_n04560804_15225.png,n04560804_15225.png,0.0,0.9727995,2.58659,-1.1411222
alexnet,1,386,NaN,cat,cat,inf,0386_hp_dnn_inf_cat_10_n02123045_10395.png,n02123045_10395.png,1.0,10.735675,3.4142885,5.177002
alexnet,1,387,NaN,airplane,truck,0.45,0387_hp_dnn_0.45_truck_10_n03417042_4188.png,n03417042_4188.png,0.0,0.91406226,3.6557176,-1.9386431
alexnet,1,388,NaN,keyboard,keyboard,1.5,0388_hp_dnn_1.5_keyboard_10_n03085013_21615.png,n03085013_21615.png,1.0,8.35697,6.6714334,1.1918542
alexnet,1,389,NaN,knife,knife,inf,0389_hp_dnn_inf_knife_10_n03041632_26989.png,n03041632_26989.png,1.0,9.519371,4.811959,3.328643
alexnet,1,390,NaN,airplane,airplane,0.55,0390_hp_dnn_0.55_airplane_10_n02690373_16986.png,n02690373_16986.png,1.0,3.4206655,3.0213199,0.28238
alexnet,1,391,NaN,bicycle,bicycle,inf,0391_hp_dnn_inf_bicycle_10_n02835271_9067.png,n02835271_9067.png,1.0,10.598419,1.7952226,6.2248
alexnet,1,392,NaN,airplane,dog,0.45,0392_hp_dnn_0.45_dog_10_n02106382_9188.png,n02106382_9188.png,0.0,-0.74913067,2.0937562,-2.0102246
alexnet,1,393,NaN,boat,boat,inf,0393_hp_dnn_inf_boat_10_n02951358_3205.png,n02951358_3205.png,1.0,12.700078,1.9598297,7.594503
alexnet,1,394,NaN,airplane,knife,0.4,0394_hp_dnn_0.4_knife_10_n03041632_45270.png,n03041632_45270.png,0.0,-0.79477614,3.5172787,-3.0490832
alexnet,1,395,NaN,car,car,inf,0395_hp_dnn_inf_car_10_n03100240_6376.png,n03100240_6376.png,1.0,12.0444975,6.4732594,3.9394603
alexnet,1,396,NaN,knife,truck,1,0396_hp_dnn_1_truck_10_n03796401_430.png,n03796401_430.png,0.0,0.80468595,3.7540798,-2.0855362
alexnet,1,397,NaN,clock,knife,0.7,0397_hp_dnn_0.7_knife_10_n03041632_24181.png,n03041632_24181.png,0.0,1.6119249,2.1956031,-0.41272286
alexnet,1,398,NaN,knife,bear,1,0398_hp_dnn_1_bear_10_n02134084_16190.png,n02134084_16190.png,0.0,0.043635726,2.7108393,-1.8859977
alexnet,1,399,NaN,clock,bear,0.55,0399_hp_dnn_0.55_bear_10_n02132136_7253.png,n02132136_7253.png,0.0,-0.73080975,2.0633945,-1.9758008
alexnet,1,400,NaN,knife,boat,1,0400_hp_dnn_1_boat_10_n03662601_34676.png,n03662601_34676.png,0.0,-0.7594741,3.464231,-2.9866107
alexnet,1,401,NaN,clock,knife,0.55,0401_hp_dnn_0.55_knife_10_n03041632_81471.png,n03041632_81471.png,0.0,2.8399448,2.9944928,-0.10928189
alexnet,1,402,NaN,knife,cat,0.7,0402_hp_dnn_0.7_cat_10_n02123597_3822.png,n02123597_3822.png,0.0,-0.05458651,2.7773836,-2.0025053
alexnet,1,403,NaN,keyboard,keyboard,1.5,0403_hp_dnn_1.5_keyboard_10_n03085013_4823.png,n03085013_4823.png,1.0,5.9944725,4.743324,0.88469577
alexnet,1,404,NaN,airplane,dog,0.4,0404_hp_dnn_0.4_dog_10_n02108551_8385.png,n02108551_8385.png,0.0,-0.8039243,4.6426497,-3.8513095
alexnet,1,405,NaN,knife,cat,0.7,0405_hp_dnn_0.7_cat_10_n02124075_8732.png,n02124075_8732.png,0.0,0.45668435,3.1351852,-1.8939862
alexnet,1,406,NaN,chair,dog,3,0406_hp_dnn_3_dog_10_n02093428_17625.png,n02093428_17625.png,0.0,-1.0767522,2.3384228,-2.4148934
alexnet,1,407,NaN,chair,chair,inf,0407_hp_dnn_inf_chair_10_n02791124_6999.png,n02791124_6999.png,1.0,9.375396,7.7249856,1.1670163
alexnet,1,408,NaN,clock,bird,3,0408_hp_dnn_3_bird_10_n02028035_521.png,n02028035_521.png,0.0,1.7893729,3.457483,-1.179532
alexnet,1,409,NaN,airplane,truck,0.4,0409_hp_dnn_0.4_truck_10_n03417042_750.png,n03417042_750.png,0.0,-0.07991576,3.1442447,-2.2798257
alexnet,1,410,NaN,airplane,airplane,inf,0410_hp_dnn_inf_airplane_10_n02690373_5779.png,n02690373_5779.png,1.0,14.523664,6.083206,5.9683056
alexnet,1,411,NaN,knife,cat,1.5,0411_hp_dnn_1.5_cat_10_n02123045_7154.png,n02123045_7154.png,0.0,0.27154356,3.2590735,-2.1125028
alexnet,1,412,NaN,bottle,bottle,1.5,0412_hp_dnn_1.5_bottle_10_n04591713_6958.png,n04591713_6958.png,1.0,5.967626,5.001116,0.683426
alexnet,1,413,NaN,knife,bird,1.5,0413_hp_dnn_1.5_bird_10_n01818515_42621.png,n01818515_42621.png,0.0,-0.42988864,3.1899586,-2.5596187
alexnet,1,414,NaN,truck,truck,inf,0414_hp_dnn_inf_truck_10_n03796401_1330.png,n03796401_1330.png,1.0,11.571213,5.6319594,4.1996865
alexnet,1,415,NaN,knife,bird,1.5,0415_hp_dnn_1.5_bird_10_n01843065_6365.png,n01843065_6365.png,0.0,0.18919086,2.8456326,-1.8783879
alexnet,1,416,NaN,knife,bottle,1.5,0416_hp_dnn_1.5_bottle_10_n03983396_11898.png,n03983396_11898.png,0.0,4.822292,6.4455786,-1.147837
alexnet,1,417,NaN,knife,bird,3,0417_hp_dnn_3_bird_10_n01530575_3831.png,n01530575_3831.png,0.0,1.8211994,2.2318017,-0.2903397
alexnet,1,418,NaN,clock,bottle,0.4,0418_hp_dnn_0.4_bottle_10_n03983396_8837.png,n03983396_8837.png,0.0,2.8589113,3.2852457,-0.30146393
alexnet,1,419,NaN,clock,car,0.7,0419_hp_dnn_0.7_car_10_n02814533_90798.png,n02814533_90798.png,0.0,-0.11135309,3.6293218,-2.6450567
alexnet,1,420,NaN,knife,bird,3,0420_hp_dnn_3_bird_10_n01819313_3440.png,n01819313_3440.png,0.0,-0.58089226,2.5675044,-2.2262528
alexnet,1,421,NaN,clock,dog,0.55,0421_hp_dnn_0.55_dog_10_n02090721_4433.png,n02090721_4433.png,0.0,-0.83877164,1.9594126,-1.978615
alexnet,1,422,NaN,elephant,elephant,3,0422_hp_dnn_3_elephant_10_n02504013_9566.png,n02504013_9566.png,1.0,11.271767,4.931866,4.482987
alexnet,1,423,NaN,elephant,dog,1.5,0423_hp_dnn_1.5_dog_10_n02105251_6599.png,n02105251_6599.png,0.0,0.69308364,6.336922,-3.9907966
alexnet,1,424,NaN,oven,chair,0.7,0424_hp_dnn_0.7_chair_10_n02791124_5759.png,n02791124_5759.png,0.0,2.4796572,4.5386753,-1.4559457
alexnet,1,425,NaN,elephant,elephant,inf,0425_hp_dnn_inf_elephant_10_n02504458_150.png,n02504458_150.png,1.0,11.495762,2.2251582,6.5553064
alexnet,1,426,NaN,clock,clock,0.45,0426_hp_dnn_0.45_clock_10_n04548280_10040.png,n04548280_10040.png,1.0,4.785407,2.7450495,1.4427507
alexnet,1,427,NaN,knife,elephant,0.7,0427_hp_dnn_0.7_elephant_10_n02504458_155.png,n02504458_155.png,0.0,0.409919,3.3915057,-2.1083002
alexnet,1,428,NaN,knife,knife,1,0428_hp_dnn_1_knife_10_n03041632_48062.png,n03041632_48062.png,1.0,4.406254,2.7749932,1.1534755
alexnet,1,429,NaN,clock,truck,1.5,0429_hp_dnn_1.5_truck_10_n04467665_40361.png,n04467665_40361.png,0.0,3.9729548,4.2381306,-0.18750763
alexnet,1,430,NaN,airplane,bird,0.45,0430_hp_dnn_0.45_bird_10_n01614925_7608.png,n01614925_7608.png,0.0,1.1465183,3.663823,-1.7800031
alexnet,1,431,NaN,airplane,bear,0.45,0431_hp_dnn_0.45_bear_10_n02133161_2749.png,n02133161_2749.png,0.0,-0.8451786,3.9031463,-3.3575728
alexnet,1,432,NaN,boat,boat,0.55,0432_hp_dnn_0.55_boat_10_n04612504_654.png,n04612504_654.png,1.0,2.9604826,2.7121785,0.17557754
alexnet,1,433,NaN,bottle,bottle,1,0433_hp_dnn_1_bottle_10_n04579145_287.png,n04579145_287.png,1.0,7.5747538,5.020033,1.8064605
alexnet,1,434,NaN,elephant,bear,3,0434_hp_dnn_3_bear_10_n02133161_1423.png,n02133161_1423.png,0.0,0.4521268,2.3257942,-1.324883
alexnet,1,435,NaN,clock,bicycle,0.7,0435_hp_dnn_0.7_bicycle_10_n02835271_4656.png,n02835271_4656.png,0.0,-1.4798006,2.9576938,-3.1377823
alexnet,1,436,NaN,clock,clock,0.7,0436_hp_dnn_0.7_clock_10_n02708093_3688.png,n02708093_3688.png,1.0,3.7993336,3.341538,0.32371038
alexnet,1,437,NaN,airplane,airplane,inf,0437_hp_dnn_inf_airplane_10_n02690373_10278.png,n02690373_10278.png,1.0,4.882859,2.9029171,1.4000305
alexnet,1,438,NaN,airplane,car,0.4,0438_hp_dnn_0.4_car_10_n04285008_11133.png,n04285008_11133.png,0.0,-0.7779954,3.0595665,-2.713566
alexnet,1,439,NaN,knife,knife,1,0439_hp_dnn_1_knife_10_n03041632_4214.png,n03041632_4214.png,1.0,3.4162579,2.7164774,0.49481952
alexnet,1,440,NaN,oven,oven,inf,0440_hp_dnn_inf_oven_10_n04111531_7741.png,n04111531_7741.png,1.0,4.49592,4.2438254,0.17825791
alexnet,1,441,NaN,bicycle,bicycle,3,0441_hp_dnn_3_bicycle_10_n03792782_4472.png,n03792782_4472.png,1.0,5.987239,3.126302,2.0229878
alexnet,1,442,NaN,knife,bird,0.7,0442_hp_dnn_0.7_bird_10_n01798484_18666.png,n01798484_18666.png,0.0,-1.2376244,3.7470338,-3.5246856
alexnet,1,443,NaN,knife,keyboard,1.5,0443_hp_dnn_1.5_keyboard_10_n04505470_5059.png,n04505470_5059.png,0.0,3.7982988,4.046196,-0.17528975
alexnet,1,444,NaN,knife,elephant,0.55,0444_hp_dnn_0.55_elephant_10_n02504013_2369.png,n02504013_2369.png,0.0,0.23135564,3.4459546,-2.2730646
alexnet,1,445,NaN,knife,bottle,3,0445_hp_dnn_3_bottle_10_n02823428_10796.png,n02823428_10796.png,0.0,5.1810136,6.4835596,-0.92103916
alexnet,1,446,NaN,chair,oven,3,0446_hp_dnn_3_oven_10_n04111531_4421.png,n04111531_4421.png,0.0,3.0938544,3.3362913,-0.17142877
alexnet,1,447,NaN,bicycle,bicycle,inf,0447_hp_dnn_inf_bicycle_10_n02835271_7303.png,n02835271_7303.png,1.0,11.49321,2.3528285,6.4632254
alexnet,1,448,NaN,chair,chair,inf,0448_hp_dnn_inf_chair_10_n02791124_7877.png,n02791124_7877.png,1.0,6.8148794,4.296381,1.7808473
alexnet,1,449,NaN,bottle,bottle,1.5,0449_hp_dnn_1.5_bottle_10_n04560804_12099.png,n04560804_12099.png,1.0,4.2432685,3.5764432,0.4715167
alexnet,1,450,NaN,knife,boat,1,0450_hp_dnn_1_boat_10_n03662601_18924.png,n03662601_18924.png,0.0,0.7231036,2.6793704,-1.3832896
alexnet,1,451,NaN,clock,bottle,1,0451_hp_dnn_1_bottle_10_n04591713_4206.png,n04591713_4206.png,0.0,1.9656457,3.1480627,-0.8360951
alexnet,1,452,NaN,clock,clock,0.55,0452_hp_dnn_0.55_clock_10_n04548280_6689.png,n04548280_6689.png,1.0,3.157568,2.7244017,0.3062948
alexnet,1,453,NaN,airplane,dog,0.4,0453_hp_dnn_0.4_dog_10_n02090721_5305.png,n02090721_5305.png,0.0,-0.680513,3.9014678,-3.2399497
alexnet,1,454,NaN,airplane,clock,0.7,0454_hp_dnn_0.7_clock_10_n03196217_1746.png,n03196217_1746.png,0.0,2.7891395,3.717577,-0.65650445
alexnet,1,455,NaN,keyboard,keyboard,3,0455_hp_dnn_3_keyboard_10_n04505470_7721.png,n04505470_7721.png,1.0,7.2221437,2.706897,3.1927614
alexnet,1,456,NaN,clock,clock,0.55,0456_hp_dnn_0.55_clock_10_n04548280_3248.png,n04548280_3248.png,1.0,5.128123,2.4747486,1.8762189
alexnet,1,457,NaN,bird,bird,inf,0457_hp_dnn_inf_bird_10_n01534433_28009.png,n01534433_28009.png,1.0,5.1342397,4.417418,0.5068695
alexnet,1,458,NaN,airplane,chair,0.4,0458_hp_dnn_0.4_chair_10_n04099969_142.png,n04099969_142.png,0.0,0.2749731,2.2748108,-1.4140987
alexnet,1,459,NaN,knife,bicycle,0.55,0459_hp_dnn_0.55_bicycle_10_n03792782_7092.png,n03792782_7092.png,0.0,-1.2692171,3.340059,-3.2592506
alexnet,1,460,NaN,airplane,keyboard,0.45,0460_hp_dnn_0.45_keyboard_10_n03085013_25559.png,n03085013_25559.png,0.0,-0.255638,3.1677678,-2.4207134
alexnet,1,461,NaN,knife,elephant,0.7,0461_hp_dnn_0.7_elephant_10_n02504013_9144.png,n02504013_9144.png,0.0,0.6079392,3.3724632,-1.9548137
alexnet,1,462,NaN,airplane,clock,0.45,0462_hp_dnn_0.45_clock_10_n03196217_2003.png,n03196217_2003.png,0.0,2.6238656,4.556791,-1.3667846
alexnet,1,463,NaN,clock,elephant,1,0463_hp_dnn_1_elephant_10_n02504013_3169.png,n02504013_3169.png,0.0,-0.97442263,2.4628603,-2.4305263
alexnet,1,464,NaN,clock,dog,0.55,0464_hp_dnn_0.55_dog_10_n02089867_6424.png,n02089867_6424.png,0.0,-1.3546382,2.8757973,-2.9913695
alexnet,1,465,NaN,knife,keyboard,1,0465_hp_dnn_1_keyboard_10_n03085013_22494.png,n03085013_22494.png,0.0,2.8672075,5.110504,-1.5862503
alexnet,1,466,NaN,airplane,dog,0.4,0466_hp_dnn_0.4_dog_10_n02106662_37555.png,n02106662_37555.png,0.0,0.24607942,2.6676705,-1.7123234
alexnet,1,467,NaN,knife,car,0.55,0467_hp_dnn_0.55_car_10_n02814533_4726.png,n02814533_4726.png,0.0,-0.1472289,3.1817992,-2.3539784
alexnet,1,468,NaN,airplane,elephant,0.45,0468_hp_dnn_0.45_elephant_10_n02504458_1473.png,n02504458_1473.png,0.0,-1.0914488,3.0463853,-2.9258907
alexnet,1,469,NaN,airplane,bottle,0.55,0469_hp_dnn_0.55_bottle_10_n04557648_3350.png,n04557648_3350.png,0.0,0.7838529,3.1461687,-1.6704096
alexnet,1,470,NaN,airplane,knife,0.4,0470_hp_dnn_0.4_knife_10_n03041632_31909.png,n03041632_31909.png,0.0,-0.47470188,3.059234,-2.49887
alexnet,1,471,NaN,airplane,truck,0.4,0471_hp_dnn_0.4_truck_10_n04467665_70880.png,n04467665_70880.png,0.0,-0.029240876,4.2799907,-3.047087
alexnet,1,472,NaN,airplane,dog,0.45,0472_hp_dnn_0.45_dog_10_n02097209_7557.png,n02097209_7557.png,0.0,-0.25138336,3.3885746,-2.573839
alexnet,1,473,NaN,knife,oven,1,0473_hp_dnn_1_oven_10_n04111531_4438.png,n04111531_4438.png,0.0,0.6593606,3.9073768,-2.2966943
alexnet,1,474,NaN,airplane,airplane,0.7,0474_hp_dnn_0.7_airplane_10_n02690373_194.png,n02690373_194.png,1.0,3.0993323,2.513822,0.41401827
alexnet,1,475,NaN,knife,bicycle,1.5,0475_hp_dnn_1.5_bicycle_10_n02835271_6953.png,n02835271_6953.png,0.0,2.2971551,3.525186,-0.868349
alexnet,1,476,NaN,clock,oven,0.45,0476_hp_dnn_0.45_oven_10_n04111531_14435.png,n04111531_14435.png,0.0,1.1568673,3.1515255,-1.4104364
alexnet,1,477,NaN,knife,elephant,1.5,0477_hp_dnn_1.5_elephant_10_n02504013_5192.png,n02504013_5192.png,0.0,1.1098688,3.2252707,-1.4958152
alexnet,1,478,NaN,knife,chair,0.7,0478_hp_dnn_0.7_chair_10_n03376595_3566.png,n03376595_3566.png,0.0,1.9920958,3.1929197,-0.8491107
alexnet,1,479,NaN,knife,truck,1,0479_hp_dnn_1_truck_10_n03417042_22709.png,n03417042_22709.png,0.0,-0.5654143,3.1874905,-2.6537046
alexnet,1,480,NaN,keyboard,keyboard,inf,0480_hp_dnn_inf_keyboard_10_n04505470_4603.png,n04505470_4603.png,1.0,18.335793,10.117988,5.810866
alexnet,1,481,NaN,knife,car,0.55,0481_hp_dnn_0.55_car_10_n03100240_1794.png,n03100240_1794.png,0.0,-0.75830084,2.8124743,-2.5249193
alexnet,1,482,NaN,clock,elephant,0.7,0482_hp_dnn_0.7_elephant_10_n02504458_1233.png,n02504458_1233.png,0.0,1.1650261,2.1732242,-0.71290374
alexnet,1,483,NaN,airplane,airplane,0.45,0483_hp_dnn_0.45_airplane_10_n02690373_3047.png,n02690373_3047.png,1.0,3.9318154,1.8639148,1.4622266
alexnet,1,484,NaN,airplane,elephant,0.55,0484_hp_dnn_0.55_elephant_10_n02504013_7422.png,n02504013_7422.png,0.0,0.17159882,2.2166348,-1.4460588
alexnet,1,485,NaN,clock,bicycle,0.45,0485_hp_dnn_0.45_bicycle_10_n03792782_16034.png,n03792782_16034.png,0.0,-0.9893994,3.3823092,-3.0912647
alexnet,1,486,NaN,clock,bicycle,3,0486_hp_dnn_3_bicycle_10_n02835271_11922.png,n02835271_11922.png,0.0,4.9014707,5.18785,-0.20250078
alexnet,1,487,NaN,knife,truck,0.7,0487_hp_dnn_0.7_truck_10_n03796401_6526.png,n03796401_6526.png,0.0,-0.43031642,3.7919745,-2.9856107
alexnet,1,488,NaN,boat,boat,3,0488_hp_dnn_3_boat_10_n03662601_1834.png,n03662601_1834.png,1.0,6.908375,2.052458,3.433652
alexnet,1,489,NaN,clock,dog,0.7,0489_hp_dnn_0.7_dog_10_n02100236_619.png,n02100236_619.png,0.0,-1.1029402,1.6673971,-1.9589244
alexnet,1,490,NaN,airplane,truck,0.45,0490_hp_dnn_0.45_truck_10_n04467665_21266.png,n04467665_21266.png,0.0,-0.11644748,3.1873648,-2.336148
alexnet,1,491,NaN,airplane,chair,0.55,0491_hp_dnn_0.55_chair_10_n04099969_18220.png,n04099969_18220.png,0.0,0.9485218,3.0354147,-1.4756562
alexnet,1,492,NaN,keyboard,keyboard,1.5,0492_hp_dnn_1.5_keyboard_10_n03085013_4157.png,n03085013_4157.png,1.0,4.899622,4.344465,0.39255542
alexnet,1,493,NaN,airplane,bicycle,0.4,0493_hp_dnn_0.4_bicycle_10_n03792782_1276.png,n03792782_1276.png,0.0,-1.6042824,3.8485405,-3.855728
alexnet,1,494,NaN,boat,boat,3,0494_hp_dnn_3_boat_10_n03344393_1987.png,n03344393_1987.png,1.0,9.34707,4.032374,3.7580576
alexnet,1,495,NaN,airplane,boat,0.45,0495_hp_dnn_0.45_boat_10_n03344393_381.png,n03344393_381.png,0.0,2.571368,2.9404182,-0.26095796
alexnet,1,496,NaN,clock,clock,inf,0496_hp_dnn_inf_clock_10_n02708093_8390.png,n02708093_8390.png,1.0,15.482784,7.7649417,5.457339
alexnet,1,497,NaN,knife,keyboard,0.55,0497_hp_dnn_0.55_keyboard_10_n04505470_1043.png,n04505470_1043.png,0.0,2.686378,3.824226,-0.80458
alexnet,1,498,NaN,clock,dog,0.55,0498_hp_dnn_0.55_dog_10_n02100877_1902.png,n02100877_1902.png,0.0,-1.3198103,2.8028924,-2.915191
alexnet,1,499,NaN,clock,knife,1.5,0499_hp_dnn_1.5_knife_10_n03041632_55083.png,n03041632_55083.png,0.0,4.6163254,6.633045,-1.4260362
alexnet,1,500,NaN,knife,truck,1.5,0500_hp_dnn_1.5_truck_10_n04467665_45872.png,n04467665_45872.png,0.0,0.0014120936,3.7521563,-2.6521766
alexnet,1,501,NaN,boat,boat,0.7,0501_hp_dnn_0.7_boat_10_n04273569_3244.png,n04273569_3244.png,1.0,2.7190638,2.0201633,0.49419725
alexnet,1,502,NaN,airplane,bear,0.45,0502_hp_dnn_0.45_bear_10_n02134418_2157.png,n02134418_2157.png,0.0,0.39137414,3.2230787,-2.0023177
alexnet,1,503,NaN,oven,bottle,3,0503_hp_dnn_3_bottle_10_n04591713_17618.png,n04591713_17618.png,0.0,3.857666,5.047586,-0.8414005
alexnet,1,504,NaN,knife,cat,1,0504_hp_dnn_1_cat_10_n02125311_8496.png,n02125311_8496.png,0.0,0.15911049,1.7906615,-1.1536808
alexnet,1,505,NaN,car,car,inf,0505_hp_dnn_inf_car_10_n02814533_3560.png,n02814533_3560.png,1.0,8.96133,6.864217,1.4828833
alexnet,1,506,NaN,knife,truck,0.7,0506_hp_dnn_0.7_truck_10_n03417042_751.png,n03417042_751.png,0.0,-0.6179577,3.5872476,-2.9735293
alexnet,1,507,NaN,chair,keyboard,inf,0507_hp_dnn_inf_keyboard_10_n03085013_23213.png,n03085013_23213.png,0.0,4.741478,4.8784347,-0.096843004
alexnet,1,508,NaN,airplane,bicycle,0.4,0508_hp_dnn_0.4_bicycle_10_n03792782_19709.png,n03792782_19709.png,0.0,-0.9277921,3.75161,-3.3088372
alexnet,1,509,NaN,oven,oven,inf,0509_hp_dnn_inf_oven_10_n04111531_3076.png,n04111531_3076.png,1.0,11.388826,6.0606318,3.7676027
alexnet,1,510,NaN,airplane,knife,0.4,0510_hp_dnn_0.4_knife_10_n03041632_14774.png,n03041632_14774.png,0.0,2.2107055,3.2868643,-0.76095915
alexnet,1,511,NaN,knife,car,0.7,0511_hp_dnn_0.7_car_10_n03100240_7703.png,n03100240_7703.png,0.0,0.013043642,4.347489,-3.0649154
alexnet,1,512,NaN,airplane,bear,0.55,0512_hp_dnn_0.55_bear_10_n02134084_13434.png,n02134084_13434.png,0.0,-0.581074,2.2966757,-2.0348763
alexnet,1,513,NaN,bear,dog,inf,0513_hp_dnn_inf_dog_10_n02111500_4280.png,n02111500_4280.png,0.0,4.5910864,4.626452,-0.025007242
alexnet,1,514,NaN,clock,bear,0.55,0514_hp_dnn_0.55_bear_10_n02132136_23853.png,n02132136_23853.png,0.0,-1.1228678,3.039133,-2.9429789
alexnet,1,515,NaN,chair,bicycle,1.5,0515_hp_dnn_1.5_bicycle_10_n03792782_17193.png,n03792782_17193.png,0.0,0.73112595,2.2788703,-1.0944206
alexnet,1,516,NaN,bottle,dog,1,0516_hp_dnn_1_dog_10_n02102177_5770.png,n02102177_5770.png,0.0,-1.2372863,2.7252905,-2.801965
alexnet,1,517,NaN,clock,bear,0.7,0517_hp_dnn_0.7_bear_10_n02132136_2279.png,n02132136_2279.png,0.0,0.28032696,2.2836857,-1.4165887
alexnet,1,518,NaN,bear,bear,inf,0518_hp_dnn_inf_bear_10_n02134084_6910.png,n02134084_6910.png,1.0,5.835494,3.805118,1.4356927
alexnet,1,519,NaN,oven,oven,0.7,0519_hp_dnn_0.7_oven_10_n04111531_9041.png,n04111531_9041.png,1.0,7.928115,4.1857004,2.6462867
alexnet,1,520,NaN,knife,cat,1,0520_hp_dnn_1_cat_10_n02123159_5424.png,n02123159_5424.png,0.0,1.719368,3.0250707,-0.92327124
alexnet,1,521,NaN,clock,bicycle,0.45,0521_hp_dnn_0.45_bicycle_10_n02835271_672.png,n02835271_672.png,0.0,-1.4994754,2.2574408,-2.6565409
alexnet,1,522,NaN,airplane,airplane,0.45,0522_hp_dnn_0.45_airplane_10_n02690373_18111.png,n02690373_18111.png,1.0,3.5193229,2.9730802,0.38625193
alexnet,1,523,NaN,clock,clock,1,0523_hp_dnn_1_clock_10_n04548280_3013.png,n04548280_3013.png,1.0,4.6300406,4.6283607,0.0011878668
alexnet,1,524,NaN,airplane,dog,0.45,0524_hp_dnn_0.45_dog_10_n02094258_4142.png,n02094258_4142.png,0.0,-0.25515202,3.5827518,-2.7138078
alexnet,1,525,NaN,clock,clock,3,0525_hp_dnn_3_clock_10_n04548280_6919.png,n04548280_6919.png,1.0,7.4668155,3.8655934,2.5464485
alexnet,1,526,NaN,airplane,cat,0.4,0526_hp_dnn_0.4_cat_10_n02124075_16814.png,n02124075_16814.png,0.0,-0.084533356,2.7949026,-2.0360687
alexnet,1,527,NaN,clock,clock,1,0527_hp_dnn_1_clock_10_n04548280_3342.png,n04548280_3342.png,1.0,5.5376916,4.4386578,0.7771343
alexnet,1,528,NaN,clock,boat,1,0528_hp_dnn_1_boat_10_n04612504_31680.png,n04612504_31680.png,0.0,1.4310977,2.507402,-0.761062
alexnet,1,529,NaN,keyboard,keyboard,inf,0529_hp_dnn_inf_keyboard_10_n03085013_7962.png,n03085013_7962.png,1.0,21.557789,7.104712,10.21987
alexnet,1,530,NaN,bicycle,bicycle,3,0530_hp_dnn_3_bicycle_10_n02835271_949.png,n02835271_949.png,1.0,7.9046574,5.048346,2.0197172
alexnet,1,531,NaN,clock,keyboard,1,0531_hp_dnn_1_keyboard_10_n04505470_4228.png,n04505470_4228.png,0.0,2.0248497,3.8011897,-1.256062
alexnet,1,532,NaN,knife,boat,0.7,0532_hp_dnn_0.7_boat_10_n03344393_3219.png,n03344393_3219.png,0.0,0.20398489,3.9884467,-2.6760187
alexnet,1,533,NaN,clock,elephant,3,0533_hp_dnn_3_elephant_10_n02504458_3399.png,n02504458_3399.png,0.0,-1.0655406,5.3516955,-4.5376716
alexnet,1,534,NaN,airplane,bird,0.55,0534_hp_dnn_0.55_bird_10_n01616318_12459.png,n01616318_12459.png,0.0,1.2667444,3.7253952,-1.7385287
alexnet,1,535,NaN,airplane,elephant,0.4,0535_hp_dnn_0.4_elephant_10_n02504013_1846.png,n02504013_1846.png,0.0,-0.5424826,3.3321998,-2.7398143
alexnet,1,536,NaN,knife,bicycle,0.55,0536_hp_dnn_0.55_bicycle_10_n03792782_5097.png,n03792782_5097.png,0.0,-3.0588732,2.9959075,-4.281377
alexnet,1,537,NaN,keyboard,bottle,3,0537_hp_dnn_3_bottle_10_n02823428_5115.png,n02823428_5115.png,0.0,2.6604867,4.670723,-1.4214517
alexnet,1,538,NaN,keyboard,keyboard,inf,0538_hp_dnn_inf_keyboard_10_n03085013_21282.png,n03085013_21282.png,1.0,10.862089,6.3114038,3.2178206
alexnet,1,539,NaN,airplane,oven,0.4,0539_hp_dnn_0.4_oven_10_n04111531_1815.png,n04111531_1815.png,0.0,0.43442988,3.0129728,-1.8233052
alexnet,1,540,NaN,knife,chair,1,0540_hp_dnn_1_chair_10_n02791124_5268.png,n02791124_5268.png,0.0,1.548712,3.4988284,-1.3789406
alexnet,1,541,NaN,airplane,airplane,0.55,0541_hp_dnn_0.55_airplane_10_n02690373_3035.png,n02690373_3035.png,1.0,4.0433493,2.6055295,1.016692
alexnet,1,542,NaN,dog,dog,inf,0542_hp_dnn_inf_dog_10_n02107683_1460.png,n02107683_1460.png,1.0,6.422939,3.9740448,1.7316296
alexnet,1,543,NaN,bicycle,boat,inf,0543_hp_dnn_inf_boat_10_n02951358_31813.png,n02951358_31813.png,0.0,4.9051223,7.2356935,-1.6479627
alexnet,1,544,NaN,airplane,bird,0.4,0544_hp_dnn_0.4_bird_10_n01797886_16808.png,n01797886_16808.png,0.0,0.3519885,2.7795393,-1.7165377
alexnet,1,545,NaN,clock,elephant,0.45,0545_hp_dnn_0.45_elephant_10_n02504458_4767.png,n02504458_4767.png,0.0,-0.8323209,2.5739214,-2.4085772
alexnet,1,546,NaN,knife,knife,3,0546_hp_dnn_3_knife_10_n03041632_41493.png,n03041632_41493.png,1.0,4.5295258,3.3760543,0.8156275
alexnet,1,547,NaN,elephant,elephant,3,0547_hp_dnn_3_elephant_10_n02504458_3329.png,n02504458_3329.png,1.0,4.111757,2.4747648,1.1575282
alexnet,1,548,NaN,clock,cat,0.45,0548_hp_dnn_0.45_cat_10_n02124075_12467.png,n02124075_12467.png,0.0,1.0520929,2.657178,-1.1349665
alexnet,1,549,NaN,knife,truck,0.7,0549_hp_dnn_0.7_truck_10_n03417042_6467.png,n03417042_6467.png,0.0,-0.27353594,3.3809195,-2.5840902
alexnet,1,550,NaN,airplane,airplane,inf,0550_hp_dnn_inf_airplane_10_n02690373_734.png,n02690373_734.png,1.0,22.683472,5.5653787,12.104321
alexnet,1,551,NaN,airplane,car,0.4,0551_hp_dnn_0.4_car_10_n02814533_85296.png,n02814533_85296.png,0.0,-1.0541521,3.3827877,-3.1373901
alexnet,1,552,NaN,knife,elephant,0.7,0552_hp_dnn_0.7_elephant_10_n02504013_18005.png,n02504013_18005.png,0.0,-0.09537032,2.451292,-1.8007622
alexnet,1,553,NaN,clock,clock,0.45,0553_hp_dnn_0.45_clock_10_n02708093_1495.png,n02708093_1495.png,1.0,2.7627914,2.1133175,0.4592474
alexnet,1,554,NaN,knife,car,1.5,0554_hp_dnn_1.5_car_10_n04285008_3462.png,n04285008_3462.png,0.0,1.0883669,5.8599377,-3.37401
alexnet,1,555,NaN,airplane,truck,0.4,0555_hp_dnn_0.4_truck_10_n03417042_22297.png,n03417042_22297.png,0.0,-0.36111593,3.3431876,-2.6193383
alexnet,1,556,NaN,chair,chair,3,0556_hp_dnn_3_chair_10_n04429376_7279.png,n04429376_7279.png,1.0,5.136916,5.0413666,0.06756376
alexnet,1,557,NaN,chair,bicycle,3,0557_hp_dnn_3_bicycle_10_n02835271_6919.png,n02835271_6919.png,0.0,5.8629913,6.156607,-0.20761774
alexnet,1,558,NaN,oven,oven,0.55,0558_hp_dnn_0.55_oven_10_n04111531_2260.png,n04111531_2260.png,1.0,5.4701605,4.1157737,0.95769614
alexnet,1,559,NaN,knife,bear,0.7,0559_hp_dnn_0.7_bear_10_n02134084_5794.png,n02134084_5794.png,0.0,-0.59774274,1.5988238,-1.5532072
alexnet,1,560,NaN,knife,airplane,0.7,0560_hp_dnn_0.7_airplane_10_n02690373_10397.png,n02690373_10397.png,0.0,-0.23911762,3.636005,-2.7401254
alexnet,1,561,NaN,airplane,elephant,0.4,0561_hp_dnn_0.4_elephant_10_n02504458_2041.png,n02504458_2041.png,0.0,-1.1435876,2.7058442,-2.7219594
alexnet,1,562,NaN,knife,chair,1,0562_hp_dnn_1_chair_10_n04429376_7732.png,n04429376_7732.png,0.0,2.8071768,3.7937589,-0.69761884
alexnet,1,563,NaN,airplane,airplane,0.4,0563_hp_dnn_0.4_airplane_10_n02690373_4788.png,n02690373_4788.png,1.0,4.834259,2.8350568,1.4136494
alexnet,1,564,NaN,clock,dog,0.55,0564_hp_dnn_0.55_dog_10_n02097474_2799.png,n02097474_2799.png,0.0,-1.167558,2.7329152,-2.7580512
alexnet,1,565,NaN,knife,bear,1.5,0565_hp_dnn_1.5_bear_10_n02134084_17849.png,n02134084_17849.png,0.0,-0.7435789,4.203555,-3.498152
alexnet,1,566,NaN,dog,dog,inf,0566_hp_dnn_inf_dog_10_n02086646_7064.png,n02086646_7064.png,1.0,4.1557894,2.0524697,1.4872717
alexnet,1,567,NaN,knife,truck,0.55,0567_hp_dnn_0.55_truck_10_n03417042_7061.png,n03417042_7061.png,0.0,-1.318147,3.2215562,-3.210055
alexnet,1,568,NaN,knife,bird,1,0568_hp_dnn_1_bird_10_n01820546_3605.png,n01820546_3605.png,0.0,-1.1591482,3.3667378,-3.2002847
alexnet,1,569,NaN,airplane,bear,0.4,0569_hp_dnn_0.4_bear_10_n02133161_2813.png,n02133161_2813.png,0.0,-1.2866273,3.9338784,-3.6914551
alexnet,1,570,NaN,airplane,bear,0.45,0570_hp_dnn_0.45_bear_10_n02132136_16636.png,n02132136_16636.png,0.0,0.22284696,2.8732724,-1.8741338
alexnet,1,571,NaN,oven,oven,1.5,0571_hp_dnn_1.5_oven_10_n04111531_14959.png,n04111531_14959.png,1.0,4.1423435,3.612561,0.37461284
alexnet,1,572,NaN,airplane,cat,0.45,0572_hp_dnn_0.45_cat_10_n02124075_5453.png,n02124075_5453.png,0.0,0.10618893,2.3669095,-1.5985708
alexnet,1,573,NaN,bottle,cat,1,0573_hp_dnn_1_cat_10_n02124075_11528.png,n02124075_11528.png,0.0,1.9242802,2.185201,-0.18449885
alexnet,1,574,NaN,knife,cat,1,0574_hp_dnn_1_cat_10_n02123159_3454.png,n02123159_3454.png,0.0,1.8679792,2.6587868,-0.55918545
alexnet,1,575,NaN,airplane,bird,0.45,0575_hp_dnn_0.45_bird_10_n02025239_2227.png,n02025239_2227.png,0.0,1.428191,4.0169325,-1.8305167
alexnet,1,576,NaN,knife,chair,0.7,0576_hp_dnn_0.7_chair_10_n03376595_12256.png,n03376595_12256.png,0.0,1.7393659,3.5066347,-1.2496477
alexnet,1,577,NaN,clock,clock,1.5,0577_hp_dnn_1.5_clock_10_n02708093_6591.png,n02708093_6591.png,1.0,3.809272,3.4103258,0.28209764
alexnet,1,578,NaN,knife,chair,0.55,0578_hp_dnn_0.55_chair_10_n04099969_34144.png,n04099969_34144.png,0.0,2.653008,3.874037,-0.86339796
alexnet,1,579,NaN,clock,bear,0.55,0579_hp_dnn_0.55_bear_10_n02132136_3563.png,n02132136_3563.png,0.0,-1.3929778,2.7772427,-2.9487913
alexnet,1,580,NaN,knife,elephant,1,0580_hp_dnn_1_elephant_10_n02504013_6671.png,n02504013_6671.png,0.0,3.6036425,4.766737,-0.82243204
alexnet,1,581,NaN,knife,keyboard,0.7,0581_hp_dnn_0.7_keyboard_10_n03085013_22067.png,n03085013_22067.png,0.0,0.36803272,3.017274,-1.8732965
alexnet,1,582,NaN,bicycle,truck,inf,0582_hp_dnn_inf_truck_10_n03796401_1458.png,n03796401_1458.png,0.0,6.4858456,6.7776866,-0.20636277
alexnet,1,583,NaN,knife,bottle,0.45,0583_hp_dnn_0.45_bottle_10_n04591713_807.png,n04591713_807.png,0.0,0.47254124,2.7711177,-1.6253389
alexnet,1,584,NaN,knife,car,1,0584_hp_dnn_1_car_10_n02814533_22693.png,n02814533_22693.png,0.0,-1.8029166,4.030165,-4.124612
alexnet,1,585,NaN,knife,car,0.7,0585_hp_dnn_0.7_car_10_n02814533_5278.png,n02814533_5278.png,0.0,-0.13802098,4.0965176,-2.994271
alexnet,1,586,NaN,clock,boat,1.5,0586_hp_dnn_1.5_boat_10_n03662601_10240.png,n03662601_10240.png,0.0,0.7265278,2.9887183,-1.5996102
alexnet,1,587,NaN,airplane,airplane,inf,0587_hp_dnn_inf_airplane_10_n02690373_9673.png,n02690373_9673.png,1.0,17.901976,7.5978236,7.2861357
alexnet,1,588,NaN,bird,bird,0.7,0588_hp_dnn_0.7_bird_10_n02009229_6029.png,n02009229_6029.png,1.0,1.9658716,1.9562087,0.006832679
alexnet,1,589,NaN,clock,clock,0.4,0589_hp_dnn_0.4_clock_10_n02708093_2580.png,n02708093_2580.png,1.0,4.7532716,3.2713985,1.0478425
alexnet,1,590,NaN,airplane,elephant,0.4,0590_hp_dnn_0.4_elephant_10_n02504013_295.png,n02504013_295.png,0.0,-1.1180793,3.7274897,-3.4263349
alexnet,1,591,NaN,knife,car,0.7,0591_hp_dnn_0.7_car_10_n04285008_9893.png,n04285008_9893.png,0.0,-0.7869126,3.358623,-2.9313364
alexnet,1,592,NaN,knife,chair,1.5,0592_hp_dnn_1.5_chair_10_n03376595_6850.png,n03376595_6850.png,0.0,3.1349785,4.916206,-1.2595179
alexnet,1,593,NaN,clock,boat,3,0593_hp_dnn_3_boat_10_n03662601_15713.png,n03662601_15713.png,0.0,3.8400123,4.862867,-0.72326744
alexnet,1,594,NaN,airplane,clock,0.4,0594_hp_dnn_0.4_clock_10_n04548280_9867.png,n04548280_9867.png,0.0,1.9225845,3.8066294,-1.3322209
alexnet,1,595,NaN,airplane,airplane,1.5,0595_hp_dnn_1.5_airplane_10_n02690373_1450.png,n02690373_1450.png,1.0,5.574665,3.4073632,1.5325139
alexnet,1,596,NaN,airplane,bicycle,0.45,0596_hp_dnn_0.45_bicycle_10_n03792782_7787.png,n03792782_7787.png,0.0,-2.129797,2.4688752,-3.2517521
alexnet,1,597,NaN,airplane,chair,0.45,0597_hp_dnn_0.45_chair_10_n04099969_1219.png,n04099969_1219.png,0.0,0.37062052,3.3103864,-2.0787284
alexnet,1,598,NaN,knife,keyboard,0.55,0598_hp_dnn_0.55_keyboard_10_n03085013_8325.png,n03085013_8325.png,0.0,1.8846929,3.3887377,-1.0635203
alexnet,1,599,NaN,knife,bicycle,0.55,0599_hp_dnn_0.55_bicycle_10_n02835271_14732.png,n02835271_14732.png,0.0,-2.7411022,2.6178484,-3.7893503
alexnet,1,600,NaN,knife,airplane,1.5,0600_hp_dnn_1.5_airplane_10_n02690373_4176.png,n02690373_4176.png,0.0,2.9502006,4.72058,-1.2518474
alexnet,1,601,NaN,elephant,bird,1,0601_hp_dnn_1_bird_10_n01534433_905.png,n01534433_905.png,0.0,-0.9058105,3.9915786,-3.462977
alexnet,1,602,NaN,clock,truck,1.5,0602_hp_dnn_1.5_truck_10_n04467665_45306.png,n04467665_45306.png,0.0,0.52857155,2.8530285,-1.6436393
alexnet,1,603,NaN,oven,elephant,3,0603_hp_dnn_3_elephant_10_n02504458_1617.png,n02504458_1617.png,0.0,3.2419984,3.6082869,-0.25900504
alexnet,1,604,NaN,airplane,oven,0.45,0604_hp_dnn_0.45_oven_10_n04111531_4148.png,n04111531_4148.png,0.0,-1.5655262,2.9285884,-3.1778193
alexnet,1,605,NaN,knife,bird,0.55,0605_hp_dnn_0.55_bird_10_n02009912_91.png,n02009912_91.png,0.0,-0.46710125,3.1076837,-2.5277548
alexnet,1,606,NaN,knife,knife,3,0606_hp_dnn_3_knife_10_n03041632_33739.png,n03041632_33739.png,1.0,5.2002373,4.3385544,0.6093018
alexnet,1,607,NaN,airplane,airplane,1,0607_hp_dnn_1_airplane_10_n02690373_9318.png,n02690373_9318.png,1.0,5.9817624,5.5698013,0.29130048
alexnet,1,608,NaN,airplane,bird,0.4,0608_hp_dnn_0.4_bird_10_n01828970_8669.png,n01828970_8669.png,0.0,0.68363374,4.4991717,-2.6979928
alexnet,1,609,NaN,chair,truck,1.5,0609_hp_dnn_1.5_truck_10_n04467665_58762.png,n04467665_58762.png,0.0,1.3358327,5.269498,-2.7815213
alexnet,1,610,NaN,car,car,3,0610_hp_dnn_3_car_10_n03100240_11417.png,n03100240_11417.png,1.0,8.263982,6.124816,1.5126188
alexnet,1,611,NaN,bicycle,bicycle,inf,0611_hp_dnn_inf_bicycle_10_n03792782_16179.png,n03792782_16179.png,1.0,11.219822,2.1186447,6.4355044
alexnet,1,612,NaN,knife,car,1,0612_hp_dnn_1_car_10_n04285008_8444.png,n04285008_8444.png,0.0,1.6690229,6.076423,-3.1165025
alexnet,1,613,NaN,chair,chair,inf,0613_hp_dnn_inf_chair_10_n02791124_3240.png,n02791124_3240.png,1.0,7.302997,4.218612,2.1809895
alexnet,1,614,NaN,knife,bicycle,0.7,0614_hp_dnn_0.7_bicycle_10_n02835271_1035.png,n02835271_1035.png,0.0,-2.0507295,4.1223693,-4.36504
alexnet,1,615,NaN,clock,bicycle,0.55,0615_hp_dnn_0.55_bicycle_10_n02835271_6167.png,n02835271_6167.png,0.0,-0.30142796,2.2401657,-1.797178
alexnet,1,616,NaN,keyboard,bottle,3,0616_hp_dnn_3_bottle_10_n02823428_6830.png,n02823428_6830.png,0.0,5.0597696,8.125343,-2.167688
alexnet,1,617,NaN,airplane,knife,0.45,0617_hp_dnn_0.45_knife_10_n03041632_17349.png,n03041632_17349.png,0.0,0.63578564,3.812353,-2.2461724
alexnet,1,618,NaN,airplane,airplane,inf,0618_hp_dnn_inf_airplane_10_n02690373_2024.png,n02690373_2024.png,1.0,14.659861,6.3076906,5.905876
alexnet,1,619,NaN,knife,bottle,1,0619_hp_dnn_1_bottle_10_n02823428_8034.png,n02823428_8034.png,0.0,2.1920397,3.296031,-0.7806397
alexnet,1,620,NaN,knife,chair,1,0620_hp_dnn_1_chair_10_n02791124_6786.png,n02791124_6786.png,0.0,2.6224823,3.845422,-0.864749
alexnet,1,621,NaN,airplane,chair,0.45,0621_hp_dnn_0.45_chair_10_n03376595_10689.png,n03376595_10689.png,0.0,-0.5476801,3.3327932,-2.7439091
alexnet,1,622,NaN,clock,knife,0.4,0622_hp_dnn_0.4_knife_10_n03041632_22734.png,n03041632_22734.png,0.0,1.3740004,3.561983,-1.5471374
alexnet,1,623,NaN,airplane,oven,0.4,0623_hp_dnn_0.4_oven_10_n04111531_10521.png,n04111531_10521.png,0.0,0.49763978,3.7585618,-2.30582
alexnet,1,624,NaN,oven,bird,inf,0624_hp_dnn_inf_bird_10_n02007558_37147.png,n02007558_37147.png,0.0,0.4199486,4.9833026,-3.2267785
alexnet,1,625,NaN,chair,oven,3,0625_hp_dnn_3_oven_10_n04111531_14753.png,n04111531_14753.png,0.0,6.0845795,6.2128983,-0.090735085
alexnet,1,626,NaN,clock,bottle,0.7,0626_hp_dnn_0.7_bottle_10_n03983396_4990.png,n03983396_4990.png,0.0,0.90581954,1.9269651,-0.72205895
alexnet,1,627,NaN,airplane,cat,0.45,0627_hp_dnn_0.45_cat_10_n02125311_25104.png,n02125311_25104.png,0.0,0.38989976,2.8000665,-1.7042453
alexnet,1,628,NaN,knife,truck,0.55,0628_hp_dnn_0.55_truck_10_n03417042_5600.png,n03417042_5600.png,0.0,-0.92489487,3.563839,-3.174014
alexnet,1,629,NaN,clock,cat,0.55,0629_hp_dnn_0.55_cat_10_n02125311_34158.png,n02125311_34158.png,0.0,0.046877306,2.9088337,-2.0237088
alexnet,1,630,NaN,clock,knife,1,0630_hp_dnn_1_knife_10_n03041632_41077.png,n03041632_41077.png,0.0,4.36259,4.393288,-0.021706976
alexnet,1,631,NaN,airplane,bicycle,0.45,0631_hp_dnn_0.45_bicycle_10_n03792782_19295.png,n03792782_19295.png,0.0,-1.4247663,4.1334114,-3.9302254
alexnet,1,632,NaN,knife,elephant,1,0632_hp_dnn_1_elephant_10_n02504013_7500.png,n02504013_7500.png,0.0,1.1082067,4.7023373,-2.541434
alexnet,1,633,NaN,airplane,chair,0.4,0633_hp_dnn_0.4_chair_10_n04429376_20837.png,n04429376_20837.png,0.0,-0.26651493,3.3089144,-2.5282104
alexnet,1,634,NaN,knife,oven,0.55,0634_hp_dnn_0.55_oven_10_n04111531_2371.png,n04111531_2371.png,0.0,2.1810231,4.2352996,-1.4525928
alexnet,1,635,NaN,airplane,bear,0.45,0635_hp_dnn_0.45_bear_10_n02132136_2108.png,n02132136_2108.png,0.0,-0.06623992,2.914603,-2.1077743
alexnet,1,636,NaN,knife,airplane,0.55,0636_hp_dnn_0.55_airplane_10_n02690373_7600.png,n02690373_7600.png,0.0,2.9467893,3.3092842,-0.25632265
alexnet,1,637,NaN,clock,bicycle,0.4,0637_hp_dnn_0.4_bicycle_10_n03792782_8329.png,n03792782_8329.png,0.0,-1.4799409,2.6480267,-2.918914
alexnet,1,638,NaN,oven,airplane,0.7,0638_hp_dnn_0.7_airplane_10_n02690373_9712.png,n02690373_9712.png,0.0,3.5825133,4.34077,-0.5361683
alexnet,1,639,NaN,car,car,inf,0639_hp_dnn_inf_car_10_n02814533_43694.png,n02814533_43694.png,1.0,13.099214,9.066122,2.8518264
alexnet,1,640,NaN,airplane,bird,0.4,0640_hp_dnn_0.4_bird_10_n01828970_454.png,n01828970_454.png,0.0,0.75298,3.549199,-1.9772255
alexnet,1,641,NaN,bottle,bear,1,0641_hp_dnn_1_bear_10_n02132136_1141.png,n02132136_1141.png,0.0,0.0145224035,1.4090774,-0.9860993
alexnet,1,642,NaN,clock,clock,0.7,0642_hp_dnn_0.7_clock_10_n03196217_6217.png,n03196217_6217.png,1.0,5.2546206,5.0526586,0.14280869
alexnet,1,643,NaN,knife,truck,1,0643_hp_dnn_1_truck_10_n03417042_4520.png,n03417042_4520.png,0.0,0.69514203,4.6132717,-2.7705362
alexnet,1,644,NaN,elephant,dog,3,0644_hp_dnn_3_dog_10_n02093256_2633.png,n02093256_2633.png,0.0,0.24367446,4.429969,-2.9601574
alexnet,1,645,NaN,airplane,dog,0.4,0645_hp_dnn_0.4_dog_10_n02108000_7066.png,n02108000_7066.png,0.0,-1.0924183,4.9296484,-4.258244
alexnet,1,646,NaN,knife,dog,1.5,0646_hp_dnn_1.5_dog_10_n02099601_2805.png,n02099601_2805.png,0.0,-0.70498747,2.9242997,-2.5662937
alexnet,1,647,NaN,bicycle,dog,3,0647_hp_dnn_3_dog_10_n02091244_3193.png,n02091244_3193.png,0.0,-1.8531687,5.6887755,-5.33296
alexnet,1,648,NaN,bottle,bicycle,1.5,0648_hp_dnn_1.5_bicycle_10_n02835271_358.png,n02835271_358.png,0.0,0.12638813,1.2544948,-0.7976918
alexnet,1,649,NaN,airplane,boat,0.7,0649_hp_dnn_0.7_boat_10_n03344393_9459.png,n03344393_9459.png,0.0,2.3551035,2.9937327,-0.45157903
alexnet,1,650,NaN,airplane,truck,1,0650_hp_dnn_1_truck_10_n04467665_5053.png,n04467665_5053.png,0.0,0.77923757,2.8727546,-1.4803401
alexnet,1,651,NaN,airplane,truck,0.45,0651_hp_dnn_0.45_truck_10_n04467665_36855.png,n04467665_36855.png,0.0,-0.11787298,2.3509238,-1.745703
alexnet,1,652,NaN,airplane,car,0.45,0652_hp_dnn_0.45_car_10_n02814533_72255.png,n02814533_72255.png,0.0,-0.8893223,2.8648067,-2.65457
alexnet,1,653,NaN,airplane,airplane,1.5,0653_hp_dnn_1.5_airplane_10_n02690373_5789.png,n02690373_5789.png,1.0,2.654965,2.3048549,0.2475652
alexnet,1,654,NaN,airplane,oven,0.4,0654_hp_dnn_0.4_oven_10_n04111531_9224.png,n04111531_9224.png,0.0,-0.8778504,4.0388145,-3.4766073
alexnet,1,655,NaN,bird,bird,inf,0655_hp_dnn_inf_bird_10_n01798484_4076.png,n01798484_4076.png,1.0,2.6098015,2.373959,0.16676581
alexnet,1,656,NaN,knife,boat,1,0656_hp_dnn_1_boat_10_n04612504_1869.png,n04612504_1869.png,0.0,0.7113031,5.079277,-3.088624
alexnet,1,657,NaN,airplane,cat,0.45,0657_hp_dnn_0.45_cat_10_n02123394_7335.png,n02123394_7335.png,0.0,0.2440089,2.9475887,-1.9117197
alexnet,1,658,NaN,knife,boat,1,0658_hp_dnn_1_boat_10_n04612504_11379.png,n04612504_11379.png,0.0,2.8829055,3.2088308,-0.23046403
alexnet,1,659,NaN,knife,bicycle,1,0659_hp_dnn_1_bicycle_10_n03792782_18496.png,n03792782_18496.png,0.0,-0.3730852,1.5292209,-1.3451335
alexnet,1,660,NaN,knife,bear,inf,0660_hp_dnn_inf_bear_10_n02133161_8471.png,n02133161_8471.png,0.0,0.50555813,5.1876383,-3.3107307
alexnet,1,661,NaN,oven,keyboard,0.7,0661_hp_dnn_0.7_keyboard_10_n04505470_3929.png,n04505470_3929.png,0.0,4.679251,5.6247416,-0.66856265
alexnet,1,662,NaN,knife,car,0.55,0662_hp_dnn_0.55_car_10_n03100240_6822.png,n03100240_6822.png,0.0,1.0619125,3.5932057,-1.7898946
alexnet,1,663,NaN,knife,keyboard,0.4,0663_hp_dnn_0.4_keyboard_10_n04505470_207.png,n04505470_207.png,0.0,0.36438334,4.275616,-2.7656593
alexnet,1,664,NaN,knife,elephant,0.55,0664_hp_dnn_0.55_elephant_10_n02504458_7221.png,n02504458_7221.png,0.0,1.0075471,2.1383607,-0.79960597
alexnet,1,665,NaN,knife,bottle,1.5,0665_hp_dnn_1.5_bottle_10_n03983396_2091.png,n03983396_2091.png,0.0,3.0113373,3.666397,-0.46319723
alexnet,1,666,NaN,airplane,knife,0.4,0666_hp_dnn_0.4_knife_10_n03041632_30602.png,n03041632_30602.png,0.0,1.3511147,3.5064526,-1.524054
alexnet,1,667,NaN,airplane,oven,0.45,0667_hp_dnn_0.45_oven_10_n04111531_7050.png,n04111531_7050.png,0.0,0.9004187,3.853487,-2.0881345
alexnet,1,668,NaN,airplane,car,0.45,0668_hp_dnn_0.45_car_10_n02814533_30383.png,n02814533_30383.png,0.0,-0.7402412,3.017958,-2.6574483
alexnet,1,669,NaN,bottle,cat,0.7,0669_hp_dnn_0.7_cat_10_n02124075_7680.png,n02124075_7680.png,0.0,0.63044196,3.8200746,-2.255411
alexnet,1,670,NaN,knife,oven,0.55,0670_hp_dnn_0.55_oven_10_n04111531_3265.png,n04111531_3265.png,0.0,3.4851155,3.6251094,-0.09899064
alexnet,1,671,NaN,knife,oven,1.5,0671_hp_dnn_1.5_oven_10_n04111531_49.png,n04111531_49.png,0.0,0.43514988,5.3637533,-3.485049
alexnet,1,672,NaN,chair,chair,inf,0672_hp_dnn_inf_chair_10_n02791124_8099.png,n02791124_8099.png,1.0,10.856718,9.574032,0.90699613
alexnet,1,673,NaN,clock,bottle,0.7,0673_hp_dnn_0.7_bottle_10_n03937543_9606.png,n03937543_9606.png,0.0,2.3597968,3.548767,-0.840729
alexnet,1,674,NaN,cat,cat,inf,0674_hp_dnn_inf_cat_10_n02123045_4644.png,n02123045_4644.png,1.0,5.8929543,4.3724847,1.0751344
alexnet,1,675,NaN,knife,chair,0.55,0675_hp_dnn_0.55_chair_10_n03376595_12251.png,n03376595_12251.png,0.0,0.96868646,3.1109843,-1.5148333
alexnet,1,676,NaN,chair,chair,0.7,0676_hp_dnn_0.7_chair_10_n04429376_52822.png,n04429376_52822.png,1.0,3.2133837,2.6278677,0.41402233
alexnet,1,677,NaN,knife,chair,1.5,0677_hp_dnn_1.5_chair_10_n04429376_55898.png,n04429376_55898.png,0.0,2.8366156,4.639164,-1.2745942
alexnet,1,678,NaN,knife,bicycle,1.5,0678_hp_dnn_1.5_bicycle_10_n03792782_5106.png,n03792782_5106.png,0.0,-0.74932766,2.452056,-2.26372
alexnet,1,679,NaN,airplane,bear,0.4,0679_hp_dnn_0.4_bear_10_n02134418_5735.png,n02134418_5735.png,0.0,-1.0952632,3.6936731,-3.3862896
alexnet,1,680,NaN,airplane,oven,0.45,0680_hp_dnn_0.45_oven_10_n04111531_3348.png,n04111531_3348.png,0.0,-0.72557235,2.4901237,-2.2738407
alexnet,1,681,NaN,bird,boat,0.7,0681_hp_dnn_0.7_boat_10_n04612504_37043.png,n04612504_37043.png,0.0,1.800354,2.0818675,-0.19906007
alexnet,1,682,NaN,car,car,inf,0682_hp_dnn_inf_car_10_n02814533_40315.png,n02814533_40315.png,1.0,12.86652,10.364107,1.7694731
alexnet,1,683,NaN,clock,clock,0.45,0683_hp_dnn_0.45_clock_10_n04548280_3782.png,n04548280_3782.png,1.0,5.461595,1.6292112,2.7099047
alexnet,1,684,NaN,knife,knife,1.5,0684_hp_dnn_1.5_knife_10_n03041632_36907.png,n03041632_36907.png,1.0,5.352027,2.984587,1.6740329
alexnet,1,685,NaN,car,car,inf,0685_hp_dnn_inf_car_10_n04285008_6587.png,n04285008_6587.png,1.0,12.708089,9.220212,2.4663014
alexnet,1,686,NaN,airplane,oven,0.45,0686_hp_dnn_0.45_oven_10_n04111531_9498.png,n04111531_9498.png,0.0,0.73028636,3.1963453,-1.743767
alexnet,1,687,NaN,clock,clock,0.7,0687_hp_dnn_0.7_clock_10_n03196217_3361.png,n03196217_3361.png,1.0,3.9533308,3.8781297,0.053175163
alexnet,1,688,NaN,airplane,truck,0.45,0688_hp_dnn_0.45_truck_10_n04467665_40002.png,n04467665_40002.png,0.0,0.45883685,3.797681,-2.3609195
alexnet,1,689,NaN,airplane,keyboard,0.7,0689_hp_dnn_0.7_keyboard_10_n03085013_20805.png,n03085013_20805.png,0.0,0.51881456,3.8090873,-2.326574
alexnet,1,690,NaN,clock,clock,3,0690_hp_dnn_3_clock_10_n04548280_9816.png,n04548280_9816.png,1.0,5.77923,3.164211,1.8490977
alexnet,1,691,NaN,airplane,truck,0.4,0691_hp_dnn_0.4_truck_10_n03417042_2293.png,n03417042_2293.png,0.0,0.19790594,4.0503683,-2.7241023
alexnet,1,692,NaN,knife,dog,1.5,0692_hp_dnn_1.5_dog_10_n02086910_730.png,n02086910_730.png,0.0,-0.4451323,2.2116816,-1.8786511
alexnet,1,693,NaN,boat,truck,3,0693_hp_dnn_3_truck_10_n04467665_25059.png,n04467665_25059.png,0.0,-0.10863641,1.7386099,-1.3062004
alexnet,1,694,NaN,keyboard,keyboard,3,0694_hp_dnn_3_keyboard_10_n03085013_5738.png,n03085013_5738.png,1.0,14.548719,5.920645,6.1009703
alexnet,1,695,NaN,bottle,bottle,0.7,0695_hp_dnn_0.7_bottle_10_n04557648_3775.png,n04557648_3775.png,1.0,4.0858417,2.9727592,0.7870681
alexnet,1,696,NaN,airplane,bear,0.45,0696_hp_dnn_0.45_bear_10_n02134084_22801.png,n02134084_22801.png,0.0,0.05615498,2.7931466,-1.9353454
alexnet,1,697,NaN,chair,airplane,3,0697_hp_dnn_3_airplane_10_n02690373_3468.png,n02690373_3468.png,0.0,3.786975,4.353721,-0.4007501
alexnet,1,698,NaN,clock,clock,0.45,0698_hp_dnn_0.45_clock_10_n04548280_4713.png,n04548280_4713.png,1.0,4.889681,2.7613351,1.5049677
alexnet,1,699,NaN,airplane,bird,0.4,0699_hp_dnn_0.4_bird_10_n02051845_3351.png,n02051845_3351.png,0.0,1.2440795,4.582706,-2.3607655
alexnet,1,700,NaN,chair,elephant,3,0700_hp_dnn_3_elephant_10_n02504458_6762.png,n02504458_6762.png,0.0,3.2635074,3.9227695,-0.46616876
alexnet,1,701,NaN,airplane,bicycle,0.4,0701_hp_dnn_0.4_bicycle_10_n03792782_2327.png,n03792782_2327.png,0.0,-2.3925314,2.7111087,-3.6088185
alexnet,1,702,NaN,bicycle,bicycle,3,0702_hp_dnn_3_bicycle_10_n03792782_19985.png,n03792782_19985.png,1.0,2.3017778,1.9452269,0.2521196
alexnet,1,703,NaN,elephant,bear,3,0703_hp_dnn_3_bear_10_n02134084_2970.png,n02134084_2970.png,0.0,2.4170165,6.037137,-2.5598118
alexnet,1,704,NaN,airplane,truck,0.55,0704_hp_dnn_0.55_truck_10_n03417042_10642.png,n03417042_10642.png,0.0,-0.1535045,2.3948073,-1.8019286
alexnet,1,705,NaN,airplane,boat,3,0705_hp_dnn_3_boat_10_n03662601_3938.png,n03662601_3938.png,0.0,1.6577253,3.4156637,-1.2430502
alexnet,1,706,NaN,airplane,chair,0.4,0706_hp_dnn_0.4_chair_10_n02791124_9414.png,n02791124_9414.png,0.0,0.18346798,4.0829487,-2.7573495
alexnet,1,707,NaN,clock,clock,0.55,0707_hp_dnn_0.55_clock_10_n04548280_3605.png,n04548280_3605.png,1.0,5.063471,2.0293438,2.1454518
alexnet,1,708,NaN,knife,bottle,0.7,0708_hp_dnn_0.7_bottle_10_n04579145_2196.png,n04579145_2196.png,0.0,1.689782,4.116963,-1.716276
alexnet,1,709,NaN,clock,knife,0.7,0709_hp_dnn_0.7_knife_10_n03041632_5801.png,n03041632_5801.png,0.0,0.6773537,2.846737,-1.5339856
alexnet,1,710,NaN,airplane,boat,0.4,0710_hp_dnn_0.4_boat_10_n02951358_11867.png,n02951358_11867.png,0.0,1.6385044,3.672239,-1.4380677
alexnet,1,711,NaN,clock,clock,1,0711_hp_dnn_1_clock_10_n02708093_3266.png,n02708093_3266.png,1.0,11.294121,4.4088793,4.868601
alexnet,1,712,NaN,clock,bicycle,0.55,0712_hp_dnn_0.55_bicycle_10_n03792782_4251.png,n03792782_4251.png,0.0,-1.2960508,2.5081937,-2.6900072
alexnet,1,713,NaN,knife,bear,1,0713_hp_dnn_1_bear_10_n02132136_11125.png,n02132136_11125.png,0.0,-1.4701469,3.3304577,-3.3945403
alexnet,1,714,NaN,chair,elephant,3,0714_hp_dnn_3_elephant_10_n02504458_6821.png,n02504458_6821.png,0.0,0.7556823,2.7277353,-1.3944521
alexnet,1,715,NaN,airplane,truck,3,0715_hp_dnn_3_truck_10_n04467665_77214.png,n04467665_77214.png,0.0,2.0940418,3.2552156,-0.8210739
alexnet,1,716,NaN,oven,clock,1.5,0716_hp_dnn_1.5_clock_10_n03196217_10190.png,n03196217_10190.png,0.0,4.159412,5.225719,-0.753993
alexnet,1,717,NaN,elephant,elephant,inf,0717_hp_dnn_inf_elephant_10_n02504458_1506.png,n02504458_1506.png,1.0,10.775383,3.5930722,5.078661
alexnet,1,718,NaN,bicycle,boat,inf,0718_hp_dnn_inf_boat_10_n02951358_4189.png,n02951358_4189.png,0.0,0.82830554,5.955411,-3.625411
alexnet,1,719,NaN,knife,bear,0.55,0719_hp_dnn_0.55_bear_10_n02132136_9311.png,n02132136_9311.png,0.0,-0.36656234,2.153933,-1.7822595
alexnet,1,720,NaN,airplane,airplane,inf,0720_hp_dnn_inf_airplane_10_n02690373_5564.png,n02690373_5564.png,1.0,8.579227,8.074908,0.35660753
alexnet,1,721,NaN,airplane,airplane,0.45,0721_hp_dnn_0.45_airplane_10_n02690373_798.png,n02690373_798.png,1.0,5.0731726,2.2623966,1.9875188
alexnet,1,722,NaN,knife,airplane,0.7,0722_hp_dnn_0.7_airplane_10_n02690373_9642.png,n02690373_9642.png,0.0,0.079705596,4.31356,-2.993787
alexnet,1,723,NaN,clock,bear,0.7,0723_hp_dnn_0.7_bear_10_n02132136_19995.png,n02132136_19995.png,0.0,-0.54494417,3.6117694,-2.9392405
alexnet,1,724,NaN,bicycle,bicycle,inf,0724_hp_dnn_inf_bicycle_10_n02835271_14914.png,n02835271_14914.png,1.0,16.429892,4.3374104,8.550676
alexnet,1,725,NaN,clock,chair,0.55,0725_hp_dnn_0.55_chair_10_n03376595_1862.png,n03376595_1862.png,0.0,1.3611534,2.2396524,-0.62119263
alexnet,1,726,NaN,airplane,bird,0.55,0726_hp_dnn_0.55_bird_10_n01824575_8564.png,n01824575_8564.png,0.0,0.88397926,2.251875,-0.96724826
alexnet,1,727,NaN,knife,knife,inf,0727_hp_dnn_inf_knife_10_n03041632_40450.png,n03041632_40450.png,1.0,9.347787,3.2832193,4.2882967
alexnet,1,728,NaN,clock,chair,0.45,0728_hp_dnn_0.45_chair_10_n03376595_8196.png,n03376595_8196.png,0.0,1.3425885,2.833131,-1.0539727
alexnet,1,729,NaN,oven,boat,inf,0729_hp_dnn_inf_boat_10_n03662601_5968.png,n03662601_5968.png,0.0,2.637002,3.1520686,-0.36420712
alexnet,1,730,NaN,knife,car,0.55,0730_hp_dnn_0.55_car_10_n03100240_3241.png,n03100240_3241.png,0.0,-1.0959867,3.6601546,-3.3630998
alexnet,1,731,NaN,cat,cat,inf,0731_hp_dnn_inf_cat_10_n02125311_18354.png,n02125311_18354.png,1.0,3.3062642,2.8344188,0.33364508
alexnet,1,732,NaN,clock,oven,0.55,0732_hp_dnn_0.55_oven_10_n04111531_11505.png,n04111531_11505.png,0.0,2.6139975,3.4942062,-0.6224016
alexnet,1,733,NaN,clock,clock,1,0733_hp_dnn_1_clock_10_n04548280_4229.png,n04548280_4229.png,1.0,5.195463,4.4968247,0.494012
alexnet,1,734,NaN,knife,car,0.55,0734_hp_dnn_0.55_car_10_n02814533_12532.png,n02814533_12532.png,0.0,-1.0150822,3.891357,-3.4693766
alexnet,1,735,NaN,knife,chair,1.5,0735_hp_dnn_1.5_chair_10_n03376595_99.png,n03376595_99.png,0.0,3.2581236,3.731638,-0.3348252
alexnet,1,736,NaN,clock,keyboard,0.4,0736_hp_dnn_0.4_keyboard_10_n04505470_9762.png,n04505470_9762.png,0.0,1.8304698,3.3966312,-1.1074433
alexnet,1,737,NaN,bear,bear,3,0737_hp_dnn_3_bear_10_n02132136_7647.png,n02132136_7647.png,1.0,2.212686,1.6079546,0.4276097
alexnet,1,738,NaN,clock,bottle,0.45,0738_hp_dnn_0.45_bottle_10_n04560804_19619.png,n04560804_19619.png,0.0,0.8937823,3.0831864,-1.5481424
alexnet,1,739,NaN,knife,truck,0.7,0739_hp_dnn_0.7_truck_10_n03417042_4292.png,n03417042_4292.png,0.0,-0.5409776,5.121643,-4.0040774
alexnet,1,740,NaN,airplane,elephant,0.4,0740_hp_dnn_0.4_elephant_10_n02504458_3163.png,n02504458_3163.png,0.0,-1.2646883,3.4126544,-3.3073807
alexnet,1,741,NaN,clock,elephant,1.5,0741_hp_dnn_1.5_elephant_10_n02504458_7144.png,n02504458_7144.png,0.0,1.4295816,1.8329729,-0.28524068
alexnet,1,742,NaN,clock,bear,0.55,0742_hp_dnn_0.55_bear_10_n02133161_4049.png,n02133161_4049.png,0.0,-0.4018831,2.793068,-2.2591715
alexnet,1,743,NaN,clock,bottle,0.7,0743_hp_dnn_0.7_bottle_10_n04591713_7074.png,n04591713_7074.png,0.0,1.9288356,2.6769516,-0.5289979
alexnet,1,744,NaN,cat,bear,inf,0744_hp_dnn_inf_bear_10_n02132136_13370.png,n02132136_13370.png,0.0,6.490101,7.137518,-0.457793
alexnet,1,745,NaN,clock,clock,inf,0745_hp_dnn_inf_clock_10_n03196217_4844.png,n03196217_4844.png,1.0,10.2702265,5.560483,3.3302915
