subj,session,trial,rt,object_response,category,condition,imagename,filename,is_correct,targ_act,max_nontarg_act,decision_margin
alexnet_w3_mlp_simclrhn_probe0,1,1,NaN,clock,boat,0.7,0001_hp_dnn_0.7_boat_10_n03662601_12531.png,n03662601_12531.png,0.0,-0.93290746,-0.5440984,-0.27492955
alexnet_w3_mlp_simclrhn_probe0,1,2,NaN,chair,chair,0.7,0002_hp_dnn_0.7_chair_10_n04429376_22819.png,n04429376_22819.png,1.0,-0.49732354,-0.588826,0.06470201
alexnet_w3_mlp_simclrhn_probe0,1,3,NaN,clock,elephant,0.45,0003_hp_dnn_0.45_elephant_10_n02504458_582.png,n02504458_582.png,0.0,-0.6219396,-0.059169263,-0.39793876
alexnet_w3_mlp_simclrhn_probe0,1,4,NaN,clock,bicycle,0.7,0004_hp_dnn_0.7_bicycle_10_n03792782_41173.png,n03792782_41173.png,0.0,-2.120264,-1.1380813,-0.6945081
alexnet_w3_mlp_simclrhn_probe0,1,5,NaN,clock,cat,1.5,0005_hp_dnn_1.5_cat_10_n02123597_7071.png,n02123597_7071.png,0.0,-2.430497,-1.4289013,-0.7082351
alexnet_w3_mlp_simclrhn_probe0,1,6,NaN,clock,cat,0.4,0006_hp_dnn_0.4_cat_10_n02123394_2386.png,n02123394_2386.png,0.0,-0.3260431,-0.16153516,-0.116324686
alexnet_w3_mlp_simclrhn_probe0,1,7,NaN,oven,oven,inf,0007_hp_dnn_inf_oven_10_n04111531_2201.png,n04111531_2201.png,1.0,-2.0024576,-3.9864838,1.4029185
alexnet_w3_mlp_simclrhn_probe0,1,8,NaN,clock,cat,0.45,0008_hp_dnn_0.45_cat_10_n02125311_43276.png,n02125311_43276.png,0.0,-0.5420132,-0.2979329,-0.17259087
alexnet_w3_mlp_simclrhn_probe0,1,9,NaN,clock,dog,0.45,0009_hp_dnn_0.45_dog_10_n02111500_2439.png,n02111500_2439.png,0.0,-1.1781447,-0.15404311,-0.7241492
alexnet_w3_mlp_simclrhn_probe0,1,10,NaN,clock,bicycle,0.4,0010_hp_dnn_0.4_bicycle_10_n02835271_12599.png,n02835271_12599.png,0.0,-0.41011578,-0.19988032,-0.14865892
alexnet_w3_mlp_simclrhn_probe0,1,11,NaN,clock,dog,0.45,0011_hp_dnn_0.45_dog_10_n02096585_391.png,n02096585_391.png,0.0,-1.4072489,-0.37447122,-0.7302841
alexnet_w3_mlp_simclrhn_probe0,1,12,NaN,clock,car,0.7,0012_hp_dnn_0.7_car_10_n04285008_12138.png,n04285008_12138.png,0.0,-0.45721284,0.67177314,-0.7983137
alexnet_w3_mlp_simclrhn_probe0,1,13,NaN,clock,car,0.7,0013_hp_dnn_0.7_car_10_n02814533_44083.png,n02814533_44083.png,0.0,-1.3925624,0.5316318,-1.3606108
alexnet_w3_mlp_simclrhn_probe0,1,14,NaN,oven,oven,inf,0014_hp_dnn_inf_oven_10_n04111531_2447.png,n04111531_2447.png,1.0,2.2552283,-6.0192513,5.8509407
alexnet_w3_mlp_simclrhn_probe0,1,15,NaN,clock,chair,0.55,0015_hp_dnn_0.55_chair_10_n03376595_9524.png,n03376595_9524.png,0.0,-1.1342306,0.064978726,-0.84796906
alexnet_w3_mlp_simclrhn_probe0,1,16,NaN,clock,elephant,0.55,0016_hp_dnn_0.55_elephant_10_n02504458_3092.png,n02504458_3092.png,0.0,-1.9458643,-0.40340507,-1.0906835
alexnet_w3_mlp_simclrhn_probe0,1,17,NaN,clock,truck,0.4,0017_hp_dnn_0.4_truck_10_n04467665_42126.png,n04467665_42126.png,0.0,-0.6668274,-0.09502781,-0.40432337
alexnet_w3_mlp_simclrhn_probe0,1,18,NaN,elephant,elephant,inf,0018_hp_dnn_inf_elephant_10_n02504458_12303.png,n02504458_12303.png,1.0,3.9082315,-0.61617035,3.1992352
alexnet_w3_mlp_simclrhn_probe0,1,19,NaN,clock,clock,0.4,0019_hp_dnn_0.4_clock_10_n04548280_7243.png,n04548280_7243.png,1.0,1.2273774,-0.06382889,0.9130208
alexnet_w3_mlp_simclrhn_probe0,1,20,NaN,airplane,airplane,0.4,0020_hp_dnn_0.4_airplane_10_n02690373_6978.png,n02690373_6978.png,1.0,0.19870186,0.1844669,0.010065637
alexnet_w3_mlp_simclrhn_probe0,1,21,NaN,boat,boat,3,0021_hp_dnn_3_boat_10_n04612504_4773.png,n04612504_4773.png,1.0,-0.040355872,-0.59798926,0.39430636
alexnet_w3_mlp_simclrhn_probe0,1,22,NaN,bottle,bottle,inf,0022_hp_dnn_inf_bottle_10_n04560804_5979.png,n04560804_5979.png,1.0,-4.289678,-4.69495,0.28657058
alexnet_w3_mlp_simclrhn_probe0,1,23,NaN,airplane,airplane,3,0023_hp_dnn_3_airplane_10_n02690373_21922.png,n02690373_21922.png,1.0,2.3838313,0.32245508,1.457613
alexnet_w3_mlp_simclrhn_probe0,1,24,NaN,clock,bird,0.4,0024_hp_dnn_0.4_bird_10_n01820546_6431.png,n01820546_6431.png,0.0,-0.56348675,-0.31092772,-0.17858621
alexnet_w3_mlp_simclrhn_probe0,1,25,NaN,bird,bird,inf,0025_hp_dnn_inf_bird_10_n01795545_9555.png,n01795545_9555.png,1.0,0.21231963,-0.61819696,0.58726394
alexnet_w3_mlp_simclrhn_probe0,1,26,NaN,airplane,truck,3,0026_hp_dnn_3_truck_10_n04467665_45796.png,n04467665_45796.png,0.0,-1.2089229,0.06626699,-0.90169543
alexnet_w3_mlp_simclrhn_probe0,1,27,NaN,bottle,oven,1,0027_hp_dnn_1_oven_10_n04111531_5906.png,n04111531_5906.png,0.0,-3.0461524,-0.6894833,-1.6664166
alexnet_w3_mlp_simclrhn_probe0,1,28,NaN,clock,bicycle,0.45,0028_hp_dnn_0.45_bicycle_10_n03792782_6133.png,n03792782_6133.png,0.0,-0.69641316,-0.056517195,-0.4524748
alexnet_w3_mlp_simclrhn_probe0,1,29,NaN,keyboard,keyboard,1,0029_hp_dnn_1_keyboard_10_n04505470_4741.png,n04505470_4741.png,1.0,1.5125725,-0.1845125,1.2000203
alexnet_w3_mlp_simclrhn_probe0,1,30,NaN,car,car,1.5,0030_hp_dnn_1.5_car_10_n02814533_5085.png,n02814533_5085.png,1.0,0.86255646,-1.2319503,1.48104
alexnet_w3_mlp_simclrhn_probe0,1,31,NaN,clock,chair,0.4,0031_hp_dnn_0.4_chair_10_n04429376_10628.png,n04429376_10628.png,0.0,-0.54119873,-0.044054657,-0.35153395
alexnet_w3_mlp_simclrhn_probe0,1,32,NaN,clock,clock,0.55,0032_hp_dnn_0.55_clock_10_n02708093_5311.png,n02708093_5311.png,1.0,0.5870816,-0.32853952,0.6474419
alexnet_w3_mlp_simclrhn_probe0,1,33,NaN,clock,chair,0.55,0033_hp_dnn_0.55_chair_10_n03376595_10460.png,n03376595_10460.png,0.0,0.061825782,0.4376296,-0.26573345
alexnet_w3_mlp_simclrhn_probe0,1,34,NaN,cat,bear,3,0034_hp_dnn_3_bear_10_n02133161_1118.png,n02133161_1118.png,0.0,-5.756046,-4.612642,-0.80850875
alexnet_w3_mlp_simclrhn_probe0,1,35,NaN,knife,knife,3,0035_hp_dnn_3_knife_10_n03041632_11603.png,n03041632_11603.png,1.0,-0.09421277,-0.6597452,0.39989182
alexnet_w3_mlp_simclrhn_probe0,1,36,NaN,clock,dog,0.4,0036_hp_dnn_0.4_dog_10_n02108422_7493.png,n02108422_7493.png,0.0,-1.0574881,-0.18248214,-0.6187227
alexnet_w3_mlp_simclrhn_probe0,1,37,NaN,keyboard,keyboard,3,0037_hp_dnn_3_keyboard_10_n04505470_550.png,n04505470_550.png,1.0,-0.27472708,-1.9614501,1.1926932
alexnet_w3_mlp_simclrhn_probe0,1,38,NaN,bird,dog,1.5,0038_hp_dnn_1.5_dog_10_n02097047_1003.png,n02097047_1003.png,0.0,-4.422645,-2.7080057,-1.2124332
alexnet_w3_mlp_simclrhn_probe0,1,39,NaN,bird,bird,1.5,0039_hp_dnn_1.5_bird_10_n01616318_9819.png,n01616318_9819.png,1.0,-2.0475473,-2.8323627,0.5549482
alexnet_w3_mlp_simclrhn_probe0,1,40,NaN,clock,cat,0.55,0040_hp_dnn_0.55_cat_10_n02123597_1016.png,n02123597_1016.png,0.0,-0.68526363,-0.57550484,-0.077611186
alexnet_w3_mlp_simclrhn_probe0,1,41,NaN,cat,bear,1,0041_hp_dnn_1_bear_10_n02134418_971.png,n02134418_971.png,0.0,-2.7781348,-1.716534,-0.7506651
alexnet_w3_mlp_simclrhn_probe0,1,42,NaN,elephant,bear,0.7,0042_hp_dnn_0.7_bear_10_n02132136_10944.png,n02132136_10944.png,0.0,-3.2953434,-1.4567876,-1.3000553
alexnet_w3_mlp_simclrhn_probe0,1,43,NaN,keyboard,elephant,1,0043_hp_dnn_1_elephant_10_n02504458_4439.png,n02504458_4439.png,0.0,-1.655392,-0.94700587,-0.5009047
alexnet_w3_mlp_simclrhn_probe0,1,44,NaN,keyboard,keyboard,0.4,0044_hp_dnn_0.4_keyboard_10_n03085013_2362.png,n03085013_2362.png,1.0,0.8696943,0.16267164,0.49994054
alexnet_w3_mlp_simclrhn_probe0,1,45,NaN,clock,dog,1.5,0045_hp_dnn_1.5_dog_10_n02097474_9488.png,n02097474_9488.png,0.0,-2.6009984,-1.3590527,-0.87818825
alexnet_w3_mlp_simclrhn_probe0,1,46,NaN,clock,clock,inf,0046_hp_dnn_inf_clock_10_n04548280_3308.png,n04548280_3308.png,1.0,6.4137645,-2.503156,6.3052154
alexnet_w3_mlp_simclrhn_probe0,1,47,NaN,clock,bear,1.5,0047_hp_dnn_1.5_bear_10_n02133161_334.png,n02133161_334.png,0.0,-2.647777,-1.8889045,-0.536604
alexnet_w3_mlp_simclrhn_probe0,1,48,NaN,clock,knife,0.45,0048_hp_dnn_0.45_knife_10_n03041632_6708.png,n03041632_6708.png,0.0,-1.3439753,0.022466332,-0.96622014
alexnet_w3_mlp_simclrhn_probe0,1,49,NaN,clock,car,0.55,0049_hp_dnn_0.55_car_10_n02814533_81092.png,n02814533_81092.png,0.0,-0.8920035,0.18171753,-0.75923544
alexnet_w3_mlp_simclrhn_probe0,1,50,NaN,bottle,bottle,0.45,0050_hp_dnn_0.45_bottle_10_n03937543_11897.png,n03937543_11897.png,1.0,0.23920839,0.20725532,0.02259423
alexnet_w3_mlp_simclrhn_probe0,1,51,NaN,clock,airplane,3,0051_hp_dnn_3_airplane_10_n02690373_4429.png,n02690373_4429.png,0.0,-0.24311392,0.5948304,-0.5925161
alexnet_w3_mlp_simclrhn_probe0,1,52,NaN,clock,knife,0.4,0052_hp_dnn_0.4_knife_10_n03041632_22964.png,n03041632_22964.png,0.0,-0.6502973,-0.09154642,-0.39509654
alexnet_w3_mlp_simclrhn_probe0,1,53,NaN,knife,knife,1.5,0053_hp_dnn_1.5_knife_10_n03041632_33075.png,n03041632_33075.png,1.0,-0.11878894,-0.37841055,0.1835802
alexnet_w3_mlp_simclrhn_probe0,1,54,NaN,clock,bird,0.7,0054_hp_dnn_0.7_bird_10_n02006656_1412.png,n02006656_1412.png,0.0,-1.2670774,-0.6970897,-0.40304223
alexnet_w3_mlp_simclrhn_probe0,1,55,NaN,clock,clock,1,0055_hp_dnn_1_clock_10_n02708093_3173.png,n02708093_3173.png,1.0,6.995575,-0.36764714,5.2065845
alexnet_w3_mlp_simclrhn_probe0,1,56,NaN,clock,keyboard,0.45,0056_hp_dnn_0.45_keyboard_10_n03085013_22016.png,n03085013_22016.png,0.0,0.0067629367,0.22165465,-0.15195139
alexnet_w3_mlp_simclrhn_probe0,1,57,NaN,clock,elephant,0.55,0057_hp_dnn_0.55_elephant_10_n02504458_11214.png,n02504458_11214.png,0.0,-1.0891168,-0.34481585,-0.52630025
alexnet_w3_mlp_simclrhn_probe0,1,58,NaN,clock,chair,0.7,0058_hp_dnn_0.7_chair_10_n04099969_13775.png,n04099969_13775.png,0.0,-0.42713308,0.16111216,-0.41595224
alexnet_w3_mlp_simclrhn_probe0,1,59,NaN,clock,bicycle,0.4,0059_hp_dnn_0.4_bicycle_10_n02835271_8098.png,n02835271_8098.png,0.0,-0.4543468,0.16110735,-0.4351918
alexnet_w3_mlp_simclrhn_probe0,1,60,NaN,clock,clock,0.4,0060_hp_dnn_0.4_clock_10_n04548280_1126.png,n04548280_1126.png,1.0,0.8034024,-0.1295641,0.65970695
alexnet_w3_mlp_simclrhn_probe0,1,61,NaN,clock,bicycle,0.45,0061_hp_dnn_0.45_bicycle_10_n02835271_2050.png,n02835271_2050.png,0.0,-0.46426153,0.18624364,-0.45997664
alexnet_w3_mlp_simclrhn_probe0,1,62,NaN,clock,oven,1,0062_hp_dnn_1_oven_10_n04111531_891.png,n04111531_891.png,0.0,-1.9873881,-0.57645774,-0.99767846
alexnet_w3_mlp_simclrhn_probe0,1,63,NaN,clock,bottle,0.7,0063_hp_dnn_0.7_bottle_10_n02823428_6201.png,n02823428_6201.png,0.0,-0.36209393,0.4312005,-0.5609439
alexnet_w3_mlp_simclrhn_probe0,1,64,NaN,bicycle,bicycle,0.7,0064_hp_dnn_0.7_bicycle_10_n02835271_20175.png,n02835271_20175.png,1.0,1.468501,1.0291523,0.31066644
alexnet_w3_mlp_simclrhn_probe0,1,65,NaN,cat,cat,3,0065_hp_dnn_3_cat_10_n02123597_13175.png,n02123597_13175.png,1.0,-2.1230276,-2.8026624,0.4805744
alexnet_w3_mlp_simclrhn_probe0,1,66,NaN,clock,dog,0.4,0066_hp_dnn_0.4_dog_10_n02085936_4391.png,n02085936_4391.png,0.0,-0.748128,-0.15732159,-0.41776323
alexnet_w3_mlp_simclrhn_probe0,1,67,NaN,airplane,airplane,1.5,0067_hp_dnn_1.5_airplane_10_n02690373_8846.png,n02690373_8846.png,1.0,1.2722669,-0.57989967,1.3096795
alexnet_w3_mlp_simclrhn_probe0,1,68,NaN,knife,cat,1.5,0068_hp_dnn_1.5_cat_10_n02123597_10301.png,n02123597_10301.png,0.0,-1.4964328,-1.4615942,-0.024634581
alexnet_w3_mlp_simclrhn_probe0,1,69,NaN,elephant,elephant,0.7,0069_hp_dnn_0.7_elephant_10_n02504458_6135.png,n02504458_6135.png,1.0,-0.87563264,-1.1571704,0.19907726
alexnet_w3_mlp_simclrhn_probe0,1,70,NaN,clock,keyboard,0.45,0070_hp_dnn_0.45_keyboard_10_n03085013_22585.png,n03085013_22585.png,0.0,-0.6998581,-0.11133946,-0.41614556
alexnet_w3_mlp_simclrhn_probe0,1,71,NaN,clock,bird,1,0071_hp_dnn_1_bird_10_n02017213_1150.png,n02017213_1150.png,0.0,-1.7244201,-1.3841244,-0.24062538
alexnet_w3_mlp_simclrhn_probe0,1,72,NaN,chair,bottle,3,0072_hp_dnn_3_bottle_10_n04560804_30885.png,n04560804_30885.png,0.0,-2.118822,0.58231556,-1.9099927
alexnet_w3_mlp_simclrhn_probe0,1,73,NaN,bicycle,bicycle,inf,0073_hp_dnn_inf_bicycle_10_n02835271_9191.png,n02835271_9191.png,1.0,8.581489,-6.0965657,10.378952
alexnet_w3_mlp_simclrhn_probe0,1,74,NaN,oven,truck,inf,0074_hp_dnn_inf_truck_10_n03796401_7699.png,n03796401_7699.png,0.0,-0.85973513,-0.63478386,-0.15906458
alexnet_w3_mlp_simclrhn_probe0,1,75,NaN,knife,knife,1.5,0075_hp_dnn_1.5_knife_10_n03041632_50332.png,n03041632_50332.png,1.0,0.3549609,-0.72559327,0.7640672
alexnet_w3_mlp_simclrhn_probe0,1,76,NaN,clock,knife,0.55,0076_hp_dnn_0.55_knife_10_n03041632_36247.png,n03041632_36247.png,0.0,-0.61571103,-0.5971524,-0.013122927
alexnet_w3_mlp_simclrhn_probe0,1,77,NaN,clock,knife,1.5,0077_hp_dnn_1.5_knife_10_n03041632_23667.png,n03041632_23667.png,0.0,-2.757676,-0.89149237,-1.319591
alexnet_w3_mlp_simclrhn_probe0,1,78,NaN,bird,dog,3,0078_hp_dnn_3_dog_10_n02102973_7028.png,n02102973_7028.png,0.0,-5.360439,-2.3313046,-2.1419215
alexnet_w3_mlp_simclrhn_probe0,1,79,NaN,clock,oven,0.55,0079_hp_dnn_0.55_oven_10_n04111531_9867.png,n04111531_9867.png,0.0,-2.8231468,0.5793732,-2.405945
alexnet_w3_mlp_simclrhn_probe0,1,80,NaN,clock,car,0.55,0080_hp_dnn_0.55_car_10_n02814533_8121.png,n02814533_8121.png,0.0,-0.20438933,0.41167685,-0.4356246
alexnet_w3_mlp_simclrhn_probe0,1,81,NaN,clock,boat,0.55,0081_hp_dnn_0.55_boat_10_n03662601_5210.png,n03662601_5210.png,0.0,-0.5472832,-0.31009123,-0.16772003
alexnet_w3_mlp_simclrhn_probe0,1,82,NaN,car,car,1.5,0082_hp_dnn_1.5_car_10_n03100240_6192.png,n03100240_6192.png,1.0,-0.33984527,-1.1799641,0.5940537
alexnet_w3_mlp_simclrhn_probe0,1,83,NaN,clock,oven,0.45,0083_hp_dnn_0.45_oven_10_n04111531_9314.png,n04111531_9314.png,0.0,-1.4389194,-0.08788944,-0.9553225
alexnet_w3_mlp_simclrhn_probe0,1,84,NaN,clock,cat,0.4,0084_hp_dnn_0.4_cat_10_n02123045_5189.png,n02123045_5189.png,0.0,-0.4578797,-0.16942574,-0.20396774
alexnet_w3_mlp_simclrhn_probe0,1,85,NaN,clock,truck,0.7,0085_hp_dnn_0.7_truck_10_n04467665_30189.png,n04467665_30189.png,0.0,-1.2520924,0.9101224,-1.5289167
alexnet_w3_mlp_simclrhn_probe0,1,86,NaN,airplane,airplane,1.5,0086_hp_dnn_1.5_airplane_10_n02690373_3377.png,n02690373_3377.png,1.0,0.25777915,-0.2956923,0.3913634
alexnet_w3_mlp_simclrhn_probe0,1,87,NaN,clock,oven,0.4,0087_hp_dnn_0.4_oven_10_n04111531_1750.png,n04111531_1750.png,0.0,-1.2048644,-0.07335473,-0.8000982
alexnet_w3_mlp_simclrhn_probe0,1,88,NaN,cat,dog,inf,0088_hp_dnn_inf_dog_10_n02097047_2877.png,n02097047_2877.png,0.0,-3.3035645,-1.4869958,-1.2845081
alexnet_w3_mlp_simclrhn_probe0,1,89,NaN,cat,cat,inf,0089_hp_dnn_inf_cat_10_n02124075_15171.png,n02124075_15171.png,1.0,4.2175765,-3.3892767,5.3788576
alexnet_w3_mlp_simclrhn_probe0,1,90,NaN,clock,car,0.4,0090_hp_dnn_0.4_car_10_n03100240_23060.png,n03100240_23060.png,0.0,-0.590168,-0.006576836,-0.41266128
alexnet_w3_mlp_simclrhn_probe0,1,91,NaN,knife,knife,inf,0091_hp_dnn_inf_knife_10_n03041632_20595.png,n03041632_20595.png,1.0,-4.3611565,-6.5831394,1.5711793
alexnet_w3_mlp_simclrhn_probe0,1,92,NaN,clock,knife,0.45,0092_hp_dnn_0.45_knife_10_n03041632_2184.png,n03041632_2184.png,0.0,-1.0230529,0.2325403,-0.8878385
alexnet_w3_mlp_simclrhn_probe0,1,93,NaN,clock,knife,0.4,0093_hp_dnn_0.4_knife_10_n03041632_42162.png,n03041632_42162.png,0.0,0.065108344,0.09866833,-0.023730494
alexnet_w3_mlp_simclrhn_probe0,1,94,NaN,chair,elephant,1,0094_hp_dnn_1_elephant_10_n02504458_3535.png,n02504458_3535.png,0.0,-2.1798582,-0.60809183,-1.1114067
alexnet_w3_mlp_simclrhn_probe0,1,95,NaN,bird,bird,inf,0095_hp_dnn_inf_bird_10_n02056570_11311.png,n02056570_11311.png,1.0,-4.9374456,-5.248185,0.21972603
alexnet_w3_mlp_simclrhn_probe0,1,96,NaN,clock,chair,0.4,0096_hp_dnn_0.4_chair_10_n03376595_4121.png,n03376595_4121.png,0.0,-0.23678446,0.3046039,-0.3828194
alexnet_w3_mlp_simclrhn_probe0,1,97,NaN,chair,dog,1,0097_hp_dnn_1_dog_10_n02086240_3572.png,n02086240_3572.png,0.0,-3.5339835,-2.068279,-1.0364096
alexnet_w3_mlp_simclrhn_probe0,1,98,NaN,elephant,elephant,inf,0098_hp_dnn_inf_elephant_10_n02504013_4523.png,n02504013_4523.png,1.0,9.408348,-2.6310563,8.5131445
alexnet_w3_mlp_simclrhn_probe0,1,99,NaN,oven,chair,inf,0099_hp_dnn_inf_chair_10_n04429376_7902.png,n04429376_7902.png,0.0,-3.6055858,-2.2384114,-0.9667383
alexnet_w3_mlp_simclrhn_probe0,1,100,NaN,clock,bird,0.45,0100_hp_dnn_0.45_bird_10_n01530575_14402.png,n01530575_14402.png,0.0,-0.7999871,-0.03676628,-0.5396786
alexnet_w3_mlp_simclrhn_probe0,1,101,NaN,clock,bottle,0.55,0101_hp_dnn_0.55_bottle_10_n02823428_11140.png,n02823428_11140.png,0.0,-0.65988225,0.88547236,-1.0927308
alexnet_w3_mlp_simclrhn_probe0,1,102,NaN,airplane,airplane,0.55,0102_hp_dnn_0.55_airplane_10_n02690373_7685.png,n02690373_7685.png,1.0,0.5066925,0.4461893,0.042782236
alexnet_w3_mlp_simclrhn_probe0,1,103,NaN,airplane,boat,0.45,0103_hp_dnn_0.45_boat_10_n03344393_4827.png,n03344393_4827.png,0.0,0.21426478,0.24237236,-0.019875063
alexnet_w3_mlp_simclrhn_probe0,1,104,NaN,keyboard,dog,0.7,0104_hp_dnn_0.7_dog_10_n02088364_8674.png,n02088364_8674.png,0.0,-3.2446878,-1.5304393,-1.2121568
alexnet_w3_mlp_simclrhn_probe0,1,105,NaN,clock,knife,0.45,0105_hp_dnn_0.45_knife_10_n03041632_32004.png,n03041632_32004.png,0.0,-0.7470895,-0.102268666,-0.45595717
alexnet_w3_mlp_simclrhn_probe0,1,106,NaN,keyboard,keyboard,3,0106_hp_dnn_3_keyboard_10_n03085013_22949.png,n03085013_22949.png,1.0,3.8228853,0.4927276,2.354777
alexnet_w3_mlp_simclrhn_probe0,1,107,NaN,clock,knife,0.7,0107_hp_dnn_0.7_knife_10_n03041632_4044.png,n03041632_4044.png,0.0,-0.7687134,0.053467195,-0.5813695
alexnet_w3_mlp_simclrhn_probe0,1,108,NaN,airplane,airplane,1.5,0108_hp_dnn_1.5_airplane_10_n02690373_6455.png,n02690373_6455.png,1.0,3.377936,-0.8633118,2.999015
alexnet_w3_mlp_simclrhn_probe0,1,109,NaN,airplane,airplane,0.55,0109_hp_dnn_0.55_airplane_10_n02690373_19646.png,n02690373_19646.png,1.0,0.5475037,0.04791634,0.35326162
alexnet_w3_mlp_simclrhn_probe0,1,110,NaN,boat,boat,inf,0110_hp_dnn_inf_boat_10_n04612504_1692.png,n04612504_1692.png,1.0,2.4081566,-0.3361342,1.9405067
alexnet_w3_mlp_simclrhn_probe0,1,111,NaN,clock,cat,0.55,0111_hp_dnn_0.55_cat_10_n02124075_853.png,n02124075_853.png,0.0,-1.1718633,-0.34337088,-0.5858326
alexnet_w3_mlp_simclrhn_probe0,1,112,NaN,boat,boat,1,0112_hp_dnn_1_boat_10_n04273569_6071.png,n04273569_6071.png,1.0,-0.6533608,-1.1414454,0.34512794
alexnet_w3_mlp_simclrhn_probe0,1,113,NaN,chair,bird,1.5,0113_hp_dnn_1.5_bird_10_n01616318_1214.png,n01616318_1214.png,0.0,-2.8182034,-2.0819159,-0.52063394
alexnet_w3_mlp_simclrhn_probe0,1,114,NaN,car,car,1.5,0114_hp_dnn_1.5_car_10_n02814533_14627.png,n02814533_14627.png,1.0,0.34442875,-0.14310125,0.34473577
alexnet_w3_mlp_simclrhn_probe0,1,115,NaN,clock,keyboard,0.7,0115_hp_dnn_0.7_keyboard_10_n03085013_1483.png,n03085013_1483.png,0.0,-0.27985126,-0.0080492,-0.19219309
alexnet_w3_mlp_simclrhn_probe0,1,116,NaN,airplane,airplane,0.55,0116_hp_dnn_0.55_airplane_10_n02690373_7401.png,n02690373_7401.png,1.0,1.1798351,0.16070852,0.7206313
alexnet_w3_mlp_simclrhn_probe0,1,117,NaN,clock,keyboard,0.55,0117_hp_dnn_0.55_keyboard_10_n03085013_6963.png,n03085013_6963.png,0.0,-0.44922593,0.66692084,-0.789235
alexnet_w3_mlp_simclrhn_probe0,1,118,NaN,bicycle,knife,3,0118_hp_dnn_3_knife_10_n03041632_1407.png,n03041632_1407.png,0.0,-2.8956025,-1.9553052,-0.6648906
alexnet_w3_mlp_simclrhn_probe0,1,119,NaN,chair,elephant,1.5,0119_hp_dnn_1.5_elephant_10_n02504458_5137.png,n02504458_5137.png,0.0,-1.6477805,-1.6069247,-0.028889474
alexnet_w3_mlp_simclrhn_probe0,1,120,NaN,clock,clock,inf,0120_hp_dnn_inf_clock_10_n02708093_6635.png,n02708093_6635.png,1.0,2.7444317,-1.2002633,2.7893207
alexnet_w3_mlp_simclrhn_probe0,1,121,NaN,clock,oven,0.4,0121_hp_dnn_0.4_oven_10_n04111531_5927.png,n04111531_5927.png,0.0,-1.421435,-0.09290356,-0.93941355
alexnet_w3_mlp_simclrhn_probe0,1,122,NaN,clock,clock,inf,0122_hp_dnn_inf_clock_10_n02708093_2043.png,n02708093_2043.png,1.0,0.17842555,-3.2278295,2.408586
alexnet_w3_mlp_simclrhn_probe0,1,123,NaN,airplane,airplane,0.4,0123_hp_dnn_0.4_airplane_10_n02690373_7300.png,n02690373_7300.png,1.0,0.32118422,-0.017425254,0.23943305
alexnet_w3_mlp_simclrhn_probe0,1,124,NaN,clock,oven,0.55,0124_hp_dnn_0.55_oven_10_n04111531_190.png,n04111531_190.png,0.0,-2.6392603,-0.66351527,-1.3970627
alexnet_w3_mlp_simclrhn_probe0,1,125,NaN,bird,dog,3,0125_hp_dnn_3_dog_10_n02091244_8497.png,n02091244_8497.png,0.0,-5.5936565,-2.4416897,-2.2287772
alexnet_w3_mlp_simclrhn_probe0,1,126,NaN,cat,bicycle,0.7,0126_hp_dnn_0.7_bicycle_10_n03792782_15932.png,n03792782_15932.png,0.0,-2.8668857,-1.8632904,-0.709649
alexnet_w3_mlp_simclrhn_probe0,1,127,NaN,clock,bear,0.4,0127_hp_dnn_0.4_bear_10_n02133161_463.png,n02133161_463.png,0.0,-0.57260424,-0.20620036,-0.25908667
alexnet_w3_mlp_simclrhn_probe0,1,128,NaN,clock,cat,0.7,0128_hp_dnn_0.7_cat_10_n02123045_11126.png,n02123045_11126.png,0.0,-2.4506314,-0.76001877,-1.1954436
alexnet_w3_mlp_simclrhn_probe0,1,129,NaN,clock,clock,0.7,0129_hp_dnn_0.7_clock_10_n04548280_8646.png,n04548280_8646.png,1.0,0.5743138,-0.15359189,0.5147071
alexnet_w3_mlp_simclrhn_probe0,1,130,NaN,clock,bottle,0.55,0130_hp_dnn_0.55_bottle_10_n03983396_11597.png,n03983396_11597.png,0.0,-0.6745865,0.26424268,-0.6638525
alexnet_w3_mlp_simclrhn_probe0,1,131,NaN,truck,truck,3,0131_hp_dnn_3_truck_10_n03417042_212.png,n03417042_212.png,1.0,-1.936735,-2.7865853,0.6009349
alexnet_w3_mlp_simclrhn_probe0,1,132,NaN,keyboard,keyboard,1,0132_hp_dnn_1_keyboard_10_n04505470_1724.png,n04505470_1724.png,1.0,-0.48054385,-1.0505515,0.4030563
alexnet_w3_mlp_simclrhn_probe0,1,133,NaN,chair,chair,1,0133_hp_dnn_1_chair_10_n04099969_14028.png,n04099969_14028.png,1.0,0.03086418,-1.0115227,0.7370788
alexnet_w3_mlp_simclrhn_probe0,1,134,NaN,clock,cat,0.45,0134_hp_dnn_0.45_cat_10_n02124075_2138.png,n02124075_2138.png,0.0,-0.91878223,-0.12041384,-0.56453174
alexnet_w3_mlp_simclrhn_probe0,1,135,NaN,airplane,boat,inf,0135_hp_dnn_inf_boat_10_n03662601_3145.png,n03662601_3145.png,0.0,1.7528553,4.6501775,-2.0487163
alexnet_w3_mlp_simclrhn_probe0,1,136,NaN,knife,cat,3,0136_hp_dnn_3_cat_10_n02123045_1120.png,n02123045_1120.png,0.0,-3.853009,-3.0537226,-0.56518084
alexnet_w3_mlp_simclrhn_probe0,1,137,NaN,boat,boat,inf,0137_hp_dnn_inf_boat_10_n04612504_31305.png,n04612504_31305.png,1.0,2.3529334,-0.48280495,2.0051699
alexnet_w3_mlp_simclrhn_probe0,1,138,NaN,clock,chair,1,0138_hp_dnn_1_chair_10_n04099969_4275.png,n04099969_4275.png,0.0,-0.6005086,-0.07336861,-0.37274426
alexnet_w3_mlp_simclrhn_probe0,1,139,NaN,clock,keyboard,0.4,0139_hp_dnn_0.4_keyboard_10_n03085013_23005.png,n03085013_23005.png,0.0,-0.4595275,-0.19611733,-0.1862591
alexnet_w3_mlp_simclrhn_probe0,1,140,NaN,airplane,airplane,1,0140_hp_dnn_1_airplane_10_n02690373_9618.png,n02690373_9618.png,1.0,-0.3280725,-1.0937637,0.54142547
alexnet_w3_mlp_simclrhn_probe0,1,141,NaN,airplane,knife,0.55,0141_hp_dnn_0.55_knife_10_n03041632_17338.png,n03041632_17338.png,0.0,0.24333794,0.3097249,-0.046942666
alexnet_w3_mlp_simclrhn_probe0,1,142,NaN,clock,clock,0.45,0142_hp_dnn_0.45_clock_10_n04548280_8225.png,n04548280_8225.png,1.0,0.26283386,-0.502018,0.5408319
alexnet_w3_mlp_simclrhn_probe0,1,143,NaN,car,car,inf,0143_hp_dnn_inf_car_10_n03100240_8907.png,n03100240_8907.png,1.0,5.372106,-0.16723263,3.916904
alexnet_w3_mlp_simclrhn_probe0,1,144,NaN,chair,chair,1.5,0144_hp_dnn_1.5_chair_10_n03376595_6865.png,n03376595_6865.png,1.0,0.88684916,-0.7513182,1.1583593
alexnet_w3_mlp_simclrhn_probe0,1,145,NaN,clock,bicycle,0.45,0145_hp_dnn_0.45_bicycle_10_n03792782_44296.png,n03792782_44296.png,0.0,-0.9273132,-0.018243968,-0.64280903
alexnet_w3_mlp_simclrhn_probe0,1,146,NaN,bicycle,boat,1.5,0146_hp_dnn_1.5_boat_10_n04273569_1233.png,n04273569_1233.png,0.0,-1.8535168,-0.84127355,-0.7157641
alexnet_w3_mlp_simclrhn_probe0,1,147,NaN,bird,bird,1,0147_hp_dnn_1_bird_10_n01824575_12784.png,n01824575_12784.png,1.0,-2.2704258,-2.4827015,0.15010162
alexnet_w3_mlp_simclrhn_probe0,1,148,NaN,airplane,boat,3,0148_hp_dnn_3_boat_10_n03344393_408.png,n03344393_408.png,0.0,0.93037194,0.9591306,-0.020335434
alexnet_w3_mlp_simclrhn_probe0,1,149,NaN,airplane,airplane,1,0149_hp_dnn_1_airplane_10_n02690373_220.png,n02690373_220.png,1.0,1.8268859,0.76563376,0.7504186
alexnet_w3_mlp_simclrhn_probe0,1,150,NaN,chair,chair,3,0150_hp_dnn_3_chair_10_n04429376_10546.png,n04429376_10546.png,1.0,-0.29883933,-1.072117,0.5467899
alexnet_w3_mlp_simclrhn_probe0,1,151,NaN,clock,oven,0.7,0151_hp_dnn_0.7_oven_10_n04111531_4749.png,n04111531_4749.png,0.0,-2.2969184,-0.38131174,-1.3545384
alexnet_w3_mlp_simclrhn_probe0,1,152,NaN,clock,truck,0.4,0152_hp_dnn_0.4_truck_10_n03417042_18124.png,n03417042_18124.png,0.0,-0.5331364,0.090472005,-0.44095775
alexnet_w3_mlp_simclrhn_probe0,1,153,NaN,chair,clock,3,0153_hp_dnn_3_clock_10_n03196217_7353.png,n03196217_7353.png,0.0,-2.4117393,-2.0557046,-0.25175458
alexnet_w3_mlp_simclrhn_probe0,1,154,NaN,clock,dog,0.7,0154_hp_dnn_0.7_dog_10_n02098286_2699.png,n02098286_2699.png,0.0,-2.1537104,-0.61295694,-1.0894772
alexnet_w3_mlp_simclrhn_probe0,1,155,NaN,clock,truck,0.4,0155_hp_dnn_0.4_truck_10_n03796401_3651.png,n03796401_3651.png,0.0,-0.6335742,0.053270042,-0.48567224
alexnet_w3_mlp_simclrhn_probe0,1,156,NaN,clock,bottle,0.4,0156_hp_dnn_0.4_bottle_10_n03983396_4165.png,n03983396_4165.png,0.0,-0.33866802,-0.0703048,-0.18976144
alexnet_w3_mlp_simclrhn_probe0,1,157,NaN,clock,knife,1,0157_hp_dnn_1_knife_10_n03041632_25257.png,n03041632_25257.png,0.0,-3.1919277,-0.095414795,-2.1895652
alexnet_w3_mlp_simclrhn_probe0,1,158,NaN,chair,chair,3,0158_hp_dnn_3_chair_10_n04099969_1229.png,n04099969_1229.png,1.0,1.456177,-2.6639254,2.9133525
alexnet_w3_mlp_simclrhn_probe0,1,159,NaN,bird,bird,inf,0159_hp_dnn_inf_bird_10_n01798484_518.png,n01798484_518.png,1.0,-0.49013248,-0.59718037,0.075694285
alexnet_w3_mlp_simclrhn_probe0,1,160,NaN,bird,bird,inf,0160_hp_dnn_inf_bird_10_n01797886_1953.png,n01797886_1953.png,1.0,-1.6678839,-6.6481023,3.5215464
alexnet_w3_mlp_simclrhn_probe0,1,161,NaN,bird,bird,3,0161_hp_dnn_3_bird_10_n01820546_228.png,n01820546_228.png,1.0,-1.644866,-2.7135558,0.7556778
alexnet_w3_mlp_simclrhn_probe0,1,162,NaN,bird,bear,1.5,0162_hp_dnn_1.5_bear_10_n02134418_2666.png,n02134418_2666.png,0.0,-3.1577785,-2.4292016,-0.51518166
alexnet_w3_mlp_simclrhn_probe0,1,163,NaN,boat,boat,1.5,0163_hp_dnn_1.5_boat_10_n03344393_7659.png,n03344393_7659.png,1.0,1.7768748,-0.403651,1.5418646
alexnet_w3_mlp_simclrhn_probe0,1,164,NaN,clock,oven,1.5,0164_hp_dnn_1.5_oven_10_n04111531_1752.png,n04111531_1752.png,0.0,-3.1605327,-1.9863263,-0.8302893
alexnet_w3_mlp_simclrhn_probe0,1,165,NaN,elephant,dog,inf,0165_hp_dnn_inf_dog_10_n02091032_8873.png,n02091032_8873.png,0.0,-7.5320234,-1.881028,-3.9958572
alexnet_w3_mlp_simclrhn_probe0,1,166,NaN,clock,oven,0.7,0166_hp_dnn_0.7_oven_10_n04111531_14559.png,n04111531_14559.png,0.0,-2.8613665,0.3571807,-2.2758567
alexnet_w3_mlp_simclrhn_probe0,1,167,NaN,clock,cat,0.7,0167_hp_dnn_0.7_cat_10_n02123045_114.png,n02123045_114.png,0.0,-1.6853428,-1.1302507,-0.3925094
alexnet_w3_mlp_simclrhn_probe0,1,168,NaN,cat,cat,3,0168_hp_dnn_3_cat_10_n02123597_13865.png,n02123597_13865.png,1.0,-0.42188057,-3.187045,1.9552667
alexnet_w3_mlp_simclrhn_probe0,1,169,NaN,clock,knife,0.55,0169_hp_dnn_0.55_knife_10_n03041632_13478.png,n03041632_13478.png,0.0,-0.07631938,-0.05001855,-0.018597497
alexnet_w3_mlp_simclrhn_probe0,1,170,NaN,clock,elephant,0.55,0170_hp_dnn_0.55_elephant_10_n02504458_2618.png,n02504458_2618.png,0.0,-1.1851877,-0.27584913,-0.6429995
alexnet_w3_mlp_simclrhn_probe0,1,171,NaN,clock,truck,1,0171_hp_dnn_1_truck_10_n04467665_56954.png,n04467665_56954.png,0.0,-2.2783175,-0.042687833,-1.5808289
alexnet_w3_mlp_simclrhn_probe0,1,172,NaN,clock,chair,1,0172_hp_dnn_1_chair_10_n04429376_1791.png,n04429376_1791.png,0.0,-1.152107,0.18143408,-0.9429559
alexnet_w3_mlp_simclrhn_probe0,1,173,NaN,clock,bottle,3,0173_hp_dnn_3_bottle_10_n04560804_33214.png,n04560804_33214.png,0.0,-0.5423999,0.1972559,-0.5230156
alexnet_w3_mlp_simclrhn_probe0,1,174,NaN,knife,knife,inf,0174_hp_dnn_inf_knife_10_n03041632_48816.png,n03041632_48816.png,1.0,1.2025995,-2.381953,2.5346615
alexnet_w3_mlp_simclrhn_probe0,1,175,NaN,cat,cat,3,0175_hp_dnn_3_cat_10_n02123394_2274.png,n02123394_2274.png,1.0,-1.800003,-3.1730595,0.9708975
alexnet_w3_mlp_simclrhn_probe0,1,176,NaN,clock,truck,1.5,0176_hp_dnn_1.5_truck_10_n03796401_1326.png,n03796401_1326.png,0.0,0.63236403,1.0095103,-0.26668268
alexnet_w3_mlp_simclrhn_probe0,1,177,NaN,clock,knife,0.55,0177_hp_dnn_0.55_knife_10_n03041632_11887.png,n03041632_11887.png,0.0,-0.22120547,0.029490119,-0.17726855
alexnet_w3_mlp_simclrhn_probe0,1,178,NaN,knife,dog,0.7,0178_hp_dnn_0.7_dog_10_n02113978_8008.png,n02113978_8008.png,0.0,-1.7942418,-0.6385051,-0.8172293
alexnet_w3_mlp_simclrhn_probe0,1,179,NaN,clock,cat,0.4,0179_hp_dnn_0.4_cat_10_n02123045_4812.png,n02123045_4812.png,0.0,-0.75295514,-0.22832958,-0.3709663
alexnet_w3_mlp_simclrhn_probe0,1,180,NaN,airplane,bird,inf,0180_hp_dnn_inf_bird_10_n01833805_3578.png,n01833805_3578.png,0.0,-4.164721,-2.750802,-0.9997917
alexnet_w3_mlp_simclrhn_probe0,1,181,NaN,clock,truck,1,0181_hp_dnn_1_truck_10_n03417042_3398.png,n03417042_3398.png,0.0,-0.84134936,0.19531013,-0.73302895
alexnet_w3_mlp_simclrhn_probe0,1,182,NaN,clock,bird,0.7,0182_hp_dnn_0.7_bird_10_n02007558_4566.png,n02007558_4566.png,0.0,-1.9256724,-1.0397668,-0.62642986
alexnet_w3_mlp_simclrhn_probe0,1,183,NaN,clock,knife,0.45,0183_hp_dnn_0.45_knife_10_n03041632_3516.png,n03041632_3516.png,0.0,-0.5668322,-0.050163824,-0.36533973
alexnet_w3_mlp_simclrhn_probe0,1,184,NaN,clock,cat,1.5,0184_hp_dnn_1.5_cat_10_n02124075_14965.png,n02124075_14965.png,0.0,-1.9861479,-1.7610797,-0.15914726
alexnet_w3_mlp_simclrhn_probe0,1,185,NaN,clock,bird,0.4,0185_hp_dnn_0.4_bird_10_n01843065_2176.png,n01843065_2176.png,0.0,-0.38053957,-0.2403646,-0.09911867
alexnet_w3_mlp_simclrhn_probe0,1,186,NaN,bicycle,knife,3,0186_hp_dnn_3_knife_10_n03041632_21034.png,n03041632_21034.png,0.0,-2.5055344,-2.427363,-0.055275593
alexnet_w3_mlp_simclrhn_probe0,1,187,NaN,chair,keyboard,1.5,0187_hp_dnn_1.5_keyboard_10_n03085013_24026.png,n03085013_24026.png,0.0,-1.0634857,-0.9054126,-0.11177458
alexnet_w3_mlp_simclrhn_probe0,1,188,NaN,clock,bottle,0.55,0188_hp_dnn_0.55_bottle_10_n04560804_14395.png,n04560804_14395.png,0.0,-0.062188942,0.12521745,-0.13251634
alexnet_w3_mlp_simclrhn_probe0,1,189,NaN,clock,boat,0.45,0189_hp_dnn_0.45_boat_10_n02951358_11567.png,n02951358_11567.png,0.0,-1.4750154,0.1901244,-1.1774317
alexnet_w3_mlp_simclrhn_probe0,1,190,NaN,clock,chair,0.4,0190_hp_dnn_0.4_chair_10_n03376595_17747.png,n03376595_17747.png,0.0,-0.43314427,0.12425178,-0.39413854
alexnet_w3_mlp_simclrhn_probe0,1,191,NaN,bottle,bottle,inf,0191_hp_dnn_inf_bottle_10_n04591713_5563.png,n04591713_5563.png,1.0,-0.6377965,-1.632452,0.70332766
alexnet_w3_mlp_simclrhn_probe0,1,192,NaN,airplane,airplane,3,0192_hp_dnn_3_airplane_10_n02690373_7496.png,n02690373_7496.png,1.0,4.1986527,-1.2269773,3.8365
alexnet_w3_mlp_simclrhn_probe0,1,193,NaN,airplane,airplane,3,0193_hp_dnn_3_airplane_10_n02690373_4465.png,n02690373_4465.png,1.0,5.8238683,-1.1403812,4.924468
alexnet_w3_mlp_simclrhn_probe0,1,194,NaN,clock,bear,0.4,0194_hp_dnn_0.4_bear_10_n02134418_119.png,n02134418_119.png,0.0,-0.6003402,-0.18952887,-0.29048747
alexnet_w3_mlp_simclrhn_probe0,1,195,NaN,elephant,bear,1.5,0195_hp_dnn_1.5_bear_10_n02133161_1970.png,n02133161_1970.png,0.0,-4.3409424,-2.7958229,-1.0925645
alexnet_w3_mlp_simclrhn_probe0,1,196,NaN,knife,bird,1.5,0196_hp_dnn_1.5_bird_10_n02018795_5488.png,n02018795_5488.png,0.0,-2.1025405,-1.4084103,-0.49082416
alexnet_w3_mlp_simclrhn_probe0,1,197,NaN,clock,bird,0.45,0197_hp_dnn_0.45_bird_10_n01796340_1877.png,n01796340_1877.png,0.0,-0.40551975,-0.17513235,-0.1629085
alexnet_w3_mlp_simclrhn_probe0,1,198,NaN,airplane,airplane,0.4,0198_hp_dnn_0.4_airplane_10_n02690373_4964.png,n02690373_4964.png,1.0,0.48021227,-0.03767721,0.3662032
alexnet_w3_mlp_simclrhn_probe0,1,199,NaN,clock,bottle,0.4,0199_hp_dnn_0.4_bottle_10_n04591713_1762.png,n04591713_1762.png,0.0,0.11457542,0.28262177,-0.11882672
alexnet_w3_mlp_simclrhn_probe0,1,200,NaN,car,car,1,0200_hp_dnn_1_car_10_n03100240_6059.png,n03100240_6059.png,1.0,-1.0696657,-1.1946467,0.08837495
alexnet_w3_mlp_simclrhn_probe0,1,201,NaN,bicycle,chair,inf,0201_hp_dnn_inf_chair_10_n03376595_10769.png,n03376595_10769.png,0.0,-2.486849,-1.5614674,-0.65434366
alexnet_w3_mlp_simclrhn_probe0,1,202,NaN,oven,oven,inf,0202_hp_dnn_inf_oven_10_n04111531_1723.png,n04111531_1723.png,1.0,3.59945,-2.0943575,4.02613
alexnet_w3_mlp_simclrhn_probe0,1,203,NaN,clock,bicycle,0.45,0203_hp_dnn_0.45_bicycle_10_n02835271_3570.png,n02835271_3570.png,0.0,-0.18850443,0.5594265,-0.528867
alexnet_w3_mlp_simclrhn_probe0,1,204,NaN,clock,knife,0.4,0204_hp_dnn_0.4_knife_10_n03041632_83826.png,n03041632_83826.png,0.0,-0.4423118,0.08107414,-0.37008977
alexnet_w3_mlp_simclrhn_probe0,1,205,NaN,clock,keyboard,0.7,0205_hp_dnn_0.7_keyboard_10_n03085013_20673.png,n03085013_20673.png,0.0,-1.0361333,-0.63395816,-0.28438076
alexnet_w3_mlp_simclrhn_probe0,1,206,NaN,knife,knife,1,0206_hp_dnn_1_knife_10_n03041632_27575.png,n03041632_27575.png,1.0,0.70888156,0.54254556,0.11761732
alexnet_w3_mlp_simclrhn_probe0,1,207,NaN,bird,bird,1.5,0207_hp_dnn_1.5_bird_10_n01558993_14305.png,n01558993_14305.png,1.0,-0.88680935,-1.966356,0.7633548
alexnet_w3_mlp_simclrhn_probe0,1,208,NaN,clock,bird,0.4,0208_hp_dnn_0.4_bird_10_n01537544_18123.png,n01537544_18123.png,0.0,-0.27948466,-0.12950905,-0.10604878
alexnet_w3_mlp_simclrhn_probe0,1,209,NaN,bicycle,bicycle,3,0209_hp_dnn_3_bicycle_10_n02835271_4307.png,n02835271_4307.png,1.0,7.5385227,-1.2998067,6.249643
alexnet_w3_mlp_simclrhn_probe0,1,210,NaN,clock,car,0.7,0210_hp_dnn_0.7_car_10_n04285008_6320.png,n04285008_6320.png,0.0,-0.73967487,0.36245966,-0.7793268
alexnet_w3_mlp_simclrhn_probe0,1,211,NaN,clock,elephant,0.7,0211_hp_dnn_0.7_elephant_10_n02504458_1327.png,n02504458_1327.png,0.0,-2.455487,-0.27505675,-1.541797
alexnet_w3_mlp_simclrhn_probe0,1,212,NaN,bottle,bottle,1,0212_hp_dnn_1_bottle_10_n04560804_1813.png,n04560804_1813.png,1.0,-1.096772,-1.3308758,0.16553639
alexnet_w3_mlp_simclrhn_probe0,1,213,NaN,clock,cat,1,0213_hp_dnn_1_cat_10_n02124075_10085.png,n02124075_10085.png,0.0,-1.247503,-0.8560098,-0.27682754
alexnet_w3_mlp_simclrhn_probe0,1,214,NaN,bottle,clock,inf,0214_hp_dnn_inf_clock_10_n03196217_2853.png,n03196217_2853.png,0.0,-1.1914111,0.22187294,-0.99934274
alexnet_w3_mlp_simclrhn_probe0,1,215,NaN,boat,boat,1.5,0215_hp_dnn_1.5_boat_10_n04273569_10149.png,n04273569_10149.png,1.0,0.09668051,-0.89103526,0.6984205
alexnet_w3_mlp_simclrhn_probe0,1,216,NaN,chair,chair,3,0216_hp_dnn_3_chair_10_n03376595_17859.png,n03376595_17859.png,1.0,1.5601339,-1.9206088,2.4612567
alexnet_w3_mlp_simclrhn_probe0,1,217,NaN,clock,dog,0.55,0217_hp_dnn_0.55_dog_10_n02101556_7581.png,n02101556_7581.png,0.0,-3.2088284,0.3485755,-2.5154645
alexnet_w3_mlp_simclrhn_probe0,1,218,NaN,clock,cat,0.4,0218_hp_dnn_0.4_cat_10_n02125311_8522.png,n02125311_8522.png,0.0,-0.58741325,-0.18854482,-0.2820426
alexnet_w3_mlp_simclrhn_probe0,1,219,NaN,clock,clock,0.45,0219_hp_dnn_0.45_clock_10_n04548280_4345.png,n04548280_4345.png,1.0,0.55400926,-0.6741822,0.86846244
alexnet_w3_mlp_simclrhn_probe0,1,220,NaN,truck,truck,inf,0220_hp_dnn_inf_truck_10_n04467665_4088.png,n04467665_4088.png,1.0,3.0998623,1.8329734,0.8958258
alexnet_w3_mlp_simclrhn_probe0,1,221,NaN,dog,dog,inf,0221_hp_dnn_inf_dog_10_n02102040_1100.png,n02102040_1100.png,1.0,-1.527038,-5.650148,2.915479
alexnet_w3_mlp_simclrhn_probe0,1,222,NaN,keyboard,bicycle,0.55,0222_hp_dnn_0.55_bicycle_10_n03792782_15557.png,n03792782_15557.png,0.0,-1.5654819,-0.58884114,-0.6905893
alexnet_w3_mlp_simclrhn_probe0,1,223,NaN,car,car,3,0223_hp_dnn_3_car_10_n04285008_12767.png,n04285008_12767.png,1.0,0.428497,-1.173979,1.1331216
alexnet_w3_mlp_simclrhn_probe0,1,224,NaN,airplane,boat,0.4,0224_hp_dnn_0.4_boat_10_n03662601_2438.png,n03662601_2438.png,0.0,-0.39834934,0.055544898,-0.3209517
alexnet_w3_mlp_simclrhn_probe0,1,225,NaN,truck,truck,inf,0225_hp_dnn_inf_truck_10_n03417042_6419.png,n03417042_6419.png,1.0,4.6416397,1.7839231,2.0207107
alexnet_w3_mlp_simclrhn_probe0,1,226,NaN,clock,chair,0.45,0226_hp_dnn_0.45_chair_10_n04099969_9891.png,n04099969_9891.png,0.0,-0.4387874,-0.35002384,-0.06276532
alexnet_w3_mlp_simclrhn_probe0,1,227,NaN,cat,cat,inf,0227_hp_dnn_inf_cat_10_n02123045_8543.png,n02123045_8543.png,1.0,2.0304215,-5.881773,5.594766
alexnet_w3_mlp_simclrhn_probe0,1,228,NaN,clock,cat,0.55,0228_hp_dnn_0.55_cat_10_n02123045_7342.png,n02123045_7342.png,0.0,-0.8152775,-0.41127253,-0.28567466
alexnet_w3_mlp_simclrhn_probe0,1,229,NaN,clock,bird,0.55,0229_hp_dnn_0.55_bird_10_n02018207_10814.png,n02018207_10814.png,0.0,-0.8491593,-0.34525207,-0.3563162
alexnet_w3_mlp_simclrhn_probe0,1,230,NaN,airplane,airplane,3,0230_hp_dnn_3_airplane_10_n02690373_20033.png,n02690373_20033.png,1.0,4.1837745,-0.07190524,3.00922
alexnet_w3_mlp_simclrhn_probe0,1,231,NaN,clock,truck,0.55,0231_hp_dnn_0.55_truck_10_n04467665_13645.png,n04467665_13645.png,0.0,-1.1186903,0.0005187492,-0.7914003
alexnet_w3_mlp_simclrhn_probe0,1,232,NaN,airplane,airplane,1.5,0232_hp_dnn_1.5_airplane_10_n02690373_5015.png,n02690373_5015.png,1.0,1.5930285,-0.48297253,1.4679545
alexnet_w3_mlp_simclrhn_probe0,1,233,NaN,bicycle,chair,1.5,0233_hp_dnn_1.5_chair_10_n03376595_6173.png,n03376595_6173.png,0.0,-1.2631297,0.043920696,-0.92422426
alexnet_w3_mlp_simclrhn_probe0,1,234,NaN,clock,knife,1.5,0234_hp_dnn_1.5_knife_10_n03041632_91967.png,n03041632_91967.png,0.0,-4.128738,-1.4241902,-1.9124042
alexnet_w3_mlp_simclrhn_probe0,1,235,NaN,elephant,elephant,inf,0235_hp_dnn_inf_elephant_10_n02504458_1271.png,n02504458_1271.png,1.0,0.86782634,-4.8068705,4.0126166
alexnet_w3_mlp_simclrhn_probe0,1,236,NaN,clock,cat,0.7,0236_hp_dnn_0.7_cat_10_n02123597_1684.png,n02123597_1684.png,0.0,-1.0633897,-0.7376111,-0.23036022
alexnet_w3_mlp_simclrhn_probe0,1,237,NaN,chair,dog,0.55,0237_hp_dnn_0.55_dog_10_n02091831_3628.png,n02091831_3628.png,0.0,-1.6889207,-0.771018,-0.64905524
alexnet_w3_mlp_simclrhn_probe0,1,238,NaN,clock,truck,0.45,0238_hp_dnn_0.45_truck_10_n04467665_64540.png,n04467665_64540.png,0.0,-0.26874,0.6952302,-0.68162984
alexnet_w3_mlp_simclrhn_probe0,1,239,NaN,airplane,airplane,1,0239_hp_dnn_1_airplane_10_n02690373_3289.png,n02690373_3289.png,1.0,1.0932136,-0.77906334,1.3238997
alexnet_w3_mlp_simclrhn_probe0,1,240,NaN,boat,boat,3,0240_hp_dnn_3_boat_10_n04273569_16949.png,n04273569_16949.png,1.0,1.1937222,-0.6273815,1.2877148
alexnet_w3_mlp_simclrhn_probe0,1,241,NaN,knife,bicycle,1,0241_hp_dnn_1_bicycle_10_n03792782_15174.png,n03792782_15174.png,0.0,-2.7712178,-1.5501356,-0.8634355
alexnet_w3_mlp_simclrhn_probe0,1,242,NaN,bottle,bottle,1.5,0242_hp_dnn_1.5_bottle_10_n03937543_146.png,n03937543_146.png,1.0,-1.7104629,-1.7340809,0.016700435
alexnet_w3_mlp_simclrhn_probe0,1,243,NaN,clock,chair,0.45,0243_hp_dnn_0.45_chair_10_n04429376_694.png,n04429376_694.png,0.0,-0.58005315,0.30212322,-0.62379295
alexnet_w3_mlp_simclrhn_probe0,1,244,NaN,clock,keyboard,0.4,0244_hp_dnn_0.4_keyboard_10_n03085013_19407.png,n03085013_19407.png,0.0,-0.39240876,-0.15505736,-0.16783279
alexnet_w3_mlp_simclrhn_probe0,1,245,NaN,clock,oven,0.45,0245_hp_dnn_0.45_oven_10_n04111531_4955.png,n04111531_4955.png,0.0,-1.5760174,-0.5960404,-0.69294834
alexnet_w3_mlp_simclrhn_probe0,1,246,NaN,clock,dog,1.5,0246_hp_dnn_1.5_dog_10_n02099712_1825.png,n02099712_1825.png,0.0,-3.5325098,-2.3491902,-0.8367333
alexnet_w3_mlp_simclrhn_probe0,1,247,NaN,clock,bear,0.55,0247_hp_dnn_0.55_bear_10_n02134084_14031.png,n02134084_14031.png,0.0,-1.9612067,-0.29834837,-1.1758183
alexnet_w3_mlp_simclrhn_probe0,1,248,NaN,clock,car,0.45,0248_hp_dnn_0.45_car_10_n02814533_70922.png,n02814533_70922.png,0.0,-0.339432,0.40499774,-0.5263913
alexnet_w3_mlp_simclrhn_probe0,1,249,NaN,clock,elephant,0.45,0249_hp_dnn_0.45_elephant_10_n02504458_217.png,n02504458_217.png,0.0,-0.7592908,-0.17026727,-0.41650254
alexnet_w3_mlp_simclrhn_probe0,1,250,NaN,car,car,inf,0250_hp_dnn_inf_car_10_n02814533_27824.png,n02814533_27824.png,1.0,8.084287,5.3410854,1.9397362
alexnet_w3_mlp_simclrhn_probe0,1,251,NaN,clock,keyboard,0.7,0251_hp_dnn_0.7_keyboard_10_n03085013_24257.png,n03085013_24257.png,0.0,1.1183853,1.5187124,-0.283074
alexnet_w3_mlp_simclrhn_probe0,1,252,NaN,elephant,elephant,3,0252_hp_dnn_3_elephant_10_n02504013_2269.png,n02504013_2269.png,1.0,-0.82656085,-2.7390013,1.3522996
alexnet_w3_mlp_simclrhn_probe0,1,253,NaN,clock,bear,0.45,0253_hp_dnn_0.45_bear_10_n02134418_1798.png,n02134418_1798.png,0.0,-0.96127546,-0.064974755,-0.6337803
alexnet_w3_mlp_simclrhn_probe0,1,254,NaN,clock,dog,0.45,0254_hp_dnn_0.45_dog_10_n02111129_6881.png,n02111129_6881.png,0.0,-2.0315597,-0.0061071217,-1.4322113
alexnet_w3_mlp_simclrhn_probe0,1,255,NaN,truck,truck,1.5,0255_hp_dnn_1.5_truck_10_n04467665_67315.png,n04467665_67315.png,1.0,0.3003205,-0.4603572,0.53788036
alexnet_w3_mlp_simclrhn_probe0,1,256,NaN,clock,elephant,0.55,0256_hp_dnn_0.55_elephant_10_n02504013_3688.png,n02504013_3688.png,0.0,-1.0523509,-0.57478815,-0.33768785
alexnet_w3_mlp_simclrhn_probe0,1,257,NaN,clock,truck,1.5,0257_hp_dnn_1.5_truck_10_n04467665_38886.png,n04467665_38886.png,0.0,-1.3234475,-1.028713,-0.20840876
alexnet_w3_mlp_simclrhn_probe0,1,258,NaN,bottle,bottle,inf,0258_hp_dnn_inf_bottle_10_n04557648_4250.png,n04557648_4250.png,1.0,0.97714996,-3.484998,3.155215
alexnet_w3_mlp_simclrhn_probe0,1,259,NaN,clock,chair,0.45,0259_hp_dnn_0.45_chair_10_n04099969_4053.png,n04099969_4053.png,0.0,-0.37862933,-0.21234107,-0.11758356
alexnet_w3_mlp_simclrhn_probe0,1,260,NaN,clock,knife,0.7,0260_hp_dnn_0.7_knife_10_n03041632_5727.png,n03041632_5727.png,0.0,-2.173967,-0.43797135,-1.2275342
alexnet_w3_mlp_simclrhn_probe0,1,261,NaN,chair,dog,1,0261_hp_dnn_1_dog_10_n02091134_4525.png,n02091134_4525.png,0.0,-4.6543264,-1.3262423,-2.3533108
alexnet_w3_mlp_simclrhn_probe0,1,262,NaN,keyboard,keyboard,inf,0262_hp_dnn_inf_keyboard_10_n04505470_4685.png,n04505470_4685.png,1.0,6.9188623,-1.4719523,5.9332023
alexnet_w3_mlp_simclrhn_probe0,1,263,NaN,clock,boat,0.4,0263_hp_dnn_0.4_boat_10_n02951358_6637.png,n02951358_6637.png,0.0,-0.5835491,0.014931142,-0.42318943
alexnet_w3_mlp_simclrhn_probe0,1,264,NaN,bicycle,dog,1.5,0264_hp_dnn_1.5_dog_10_n02093256_11232.png,n02093256_11232.png,0.0,-4.296222,-2.2491574,-1.4474934
alexnet_w3_mlp_simclrhn_probe0,1,265,NaN,elephant,elephant,inf,0265_hp_dnn_inf_elephant_10_n02504013_816.png,n02504013_816.png,1.0,-1.0360209,-3.620925,1.8278034
alexnet_w3_mlp_simclrhn_probe0,1,266,NaN,elephant,bear,1.5,0266_hp_dnn_1.5_bear_10_n02134084_1484.png,n02134084_1484.png,0.0,-2.5708532,-1.593831,-0.6908591
alexnet_w3_mlp_simclrhn_probe0,1,267,NaN,clock,boat,0.45,0267_hp_dnn_0.45_boat_10_n04273569_15859.png,n04273569_15859.png,0.0,-0.61623275,-0.011263788,-0.42777768
alexnet_w3_mlp_simclrhn_probe0,1,268,NaN,bicycle,bicycle,3,0268_hp_dnn_3_bicycle_10_n02835271_7311.png,n02835271_7311.png,1.0,-0.88411295,-4.3519855,2.4521563
alexnet_w3_mlp_simclrhn_probe0,1,269,NaN,clock,cat,1,0269_hp_dnn_1_cat_10_n02123045_2339.png,n02123045_2339.png,0.0,-2.301996,-1.8950115,-0.28778148
alexnet_w3_mlp_simclrhn_probe0,1,270,NaN,elephant,elephant,0.45,0270_hp_dnn_0.45_elephant_10_n02504458_4448.png,n02504458_4448.png,1.0,-0.2880189,-0.4792993,0.13525566
alexnet_w3_mlp_simclrhn_probe0,1,271,NaN,car,car,1,0271_hp_dnn_1_car_10_n03100240_9955.png,n03100240_9955.png,1.0,2.078957,0.7323977,0.9521613
alexnet_w3_mlp_simclrhn_probe0,1,272,NaN,clock,truck,0.55,0272_hp_dnn_0.55_truck_10_n03417042_7310.png,n03417042_7310.png,0.0,-1.0656167,-0.35896266,-0.4996799
alexnet_w3_mlp_simclrhn_probe0,1,273,NaN,clock,chair,0.55,0273_hp_dnn_0.55_chair_10_n04099969_20421.png,n04099969_20421.png,0.0,-0.91700286,-0.041106727,-0.6193521
alexnet_w3_mlp_simclrhn_probe0,1,274,NaN,boat,boat,0.45,0274_hp_dnn_0.45_boat_10_n04612504_4581.png,n04612504_4581.png,1.0,0.16361827,-0.22102416,0.27198327
alexnet_w3_mlp_simclrhn_probe0,1,275,NaN,clock,bear,1,0275_hp_dnn_1_bear_10_n02134418_4515.png,n02134418_4515.png,0.0,-3.0071757,-1.633488,-0.9713439
alexnet_w3_mlp_simclrhn_probe0,1,276,NaN,clock,truck,0.7,0276_hp_dnn_0.7_truck_10_n03796401_1082.png,n03796401_1082.png,0.0,-1.4988637,0.3532791,-1.3096628
alexnet_w3_mlp_simclrhn_probe0,1,277,NaN,bicycle,bicycle,1,0277_hp_dnn_1_bicycle_10_n03792782_8176.png,n03792782_8176.png,1.0,0.007150553,-1.645223,1.1684046
alexnet_w3_mlp_simclrhn_probe0,1,278,NaN,clock,oven,0.4,0278_hp_dnn_0.4_oven_10_n04111531_5463.png,n04111531_5463.png,0.0,-0.9769687,-0.1370697,-0.5938983
alexnet_w3_mlp_simclrhn_probe0,1,279,NaN,chair,elephant,1.5,0279_hp_dnn_1.5_elephant_10_n02504013_4166.png,n02504013_4166.png,0.0,-2.6966887,-1.8379275,-0.60723585
alexnet_w3_mlp_simclrhn_probe0,1,280,NaN,airplane,airplane,0.7,0280_hp_dnn_0.7_airplane_10_n02690373_18295.png,n02690373_18295.png,1.0,1.4155303,0.156031,0.8906005
alexnet_w3_mlp_simclrhn_probe0,1,281,NaN,clock,cat,0.45,0281_hp_dnn_0.45_cat_10_n02124075_1460.png,n02124075_1460.png,0.0,-0.43195257,-0.21234904,-0.15528314
alexnet_w3_mlp_simclrhn_probe0,1,282,NaN,clock,bird,0.55,0282_hp_dnn_0.55_bird_10_n02028035_17759.png,n02028035_17759.png,0.0,-0.7860323,-0.5853851,-0.14187902
alexnet_w3_mlp_simclrhn_probe0,1,283,NaN,bicycle,chair,3,0283_hp_dnn_3_chair_10_n02791124_6654.png,n02791124_6654.png,0.0,-1.9653283,-1.4752334,-0.34654942
alexnet_w3_mlp_simclrhn_probe0,1,284,NaN,airplane,truck,0.7,0284_hp_dnn_0.7_truck_10_n04467665_22974.png,n04467665_22974.png,0.0,-1.239052,0.042506367,-0.9061986
alexnet_w3_mlp_simclrhn_probe0,1,285,NaN,clock,clock,0.55,0285_hp_dnn_0.55_clock_10_n03196217_2983.png,n03196217_2983.png,1.0,0.7071821,0.29417327,0.29204136
alexnet_w3_mlp_simclrhn_probe0,1,286,NaN,oven,knife,inf,0286_hp_dnn_inf_knife_10_n03041632_23968.png,n03041632_23968.png,0.0,-3.519341,1.1116002,-3.2745702
alexnet_w3_mlp_simclrhn_probe0,1,287,NaN,keyboard,keyboard,0.4,0287_hp_dnn_0.4_keyboard_10_n03085013_23519.png,n03085013_23519.png,1.0,0.12613997,0.08596466,0.028408235
alexnet_w3_mlp_simclrhn_probe0,1,288,NaN,bottle,bottle,1.5,0288_hp_dnn_1.5_bottle_10_n04591713_14895.png,n04591713_14895.png,1.0,-1.5091256,-1.6023375,0.06591076
alexnet_w3_mlp_simclrhn_probe0,1,289,NaN,chair,elephant,1,0289_hp_dnn_1_elephant_10_n02504013_3969.png,n02504013_3969.png,0.0,-1.80147,-1.7761645,-0.017893698
alexnet_w3_mlp_simclrhn_probe0,1,290,NaN,bird,bear,3,0290_hp_dnn_3_bear_10_n02134418_3723.png,n02134418_3723.png,0.0,-4.152687,-2.3415759,-1.2806491
alexnet_w3_mlp_simclrhn_probe0,1,291,NaN,clock,keyboard,0.45,0291_hp_dnn_0.45_keyboard_10_n04505470_709.png,n04505470_709.png,0.0,-0.3613187,-0.11090966,-0.17706592
alexnet_w3_mlp_simclrhn_probe0,1,292,NaN,clock,knife,1.5,0292_hp_dnn_1.5_knife_10_n03041632_379.png,n03041632_379.png,0.0,-1.8350312,-1.4185303,-0.29451054
alexnet_w3_mlp_simclrhn_probe0,1,293,NaN,bird,oven,3,0293_hp_dnn_3_oven_10_n04111531_13128.png,n04111531_13128.png,0.0,-6.732066,-2.0437756,-3.3151221
alexnet_w3_mlp_simclrhn_probe0,1,294,NaN,clock,elephant,0.55,0294_hp_dnn_0.55_elephant_10_n02504013_933.png,n02504013_933.png,0.0,-0.7434741,-0.24668796,-0.35128087
alexnet_w3_mlp_simclrhn_probe0,1,295,NaN,airplane,airplane,inf,0295_hp_dnn_inf_airplane_10_n02690373_17603.png,n02690373_17603.png,1.0,0.18652685,0.097952805,0.06263131
alexnet_w3_mlp_simclrhn_probe0,1,296,NaN,airplane,airplane,0.45,0296_hp_dnn_0.45_airplane_10_n02690373_5177.png,n02690373_5177.png,1.0,0.39556196,0.040681243,0.25093856
alexnet_w3_mlp_simclrhn_probe0,1,297,NaN,chair,chair,1.5,0297_hp_dnn_1.5_chair_10_n04429376_28121.png,n04429376_28121.png,1.0,-2.5713954,-3.1814082,0.43134418
alexnet_w3_mlp_simclrhn_probe0,1,298,NaN,clock,truck,0.55,0298_hp_dnn_0.55_truck_10_n03417042_6517.png,n03417042_6517.png,0.0,-2.418711,-0.75381774,-1.1772573
alexnet_w3_mlp_simclrhn_probe0,1,299,NaN,clock,chair,0.55,0299_hp_dnn_0.55_chair_10_n03376595_5503.png,n03376595_5503.png,0.0,-0.26010418,0.11409575,-0.26459932
alexnet_w3_mlp_simclrhn_probe0,1,300,NaN,clock,clock,1.5,0300_hp_dnn_1.5_clock_10_n03196217_7918.png,n03196217_7918.png,1.0,0.13397281,-0.81360364,0.67003775
alexnet_w3_mlp_simclrhn_probe0,1,301,NaN,car,car,1,0301_hp_dnn_1_car_10_n04285008_7751.png,n04285008_7751.png,1.0,0.55648726,0.23222245,0.22928986
alexnet_w3_mlp_simclrhn_probe0,1,302,NaN,clock,clock,0.4,0302_hp_dnn_0.4_clock_10_n03196217_2628.png,n03196217_2628.png,1.0,0.005833278,-0.23544683,0.1706108
alexnet_w3_mlp_simclrhn_probe0,1,303,NaN,clock,bird,0.55,0303_hp_dnn_0.55_bird_10_n01833805_6395.png,n01833805_6395.png,0.0,-0.6805249,0.20048468,-0.62296784
alexnet_w3_mlp_simclrhn_probe0,1,304,NaN,airplane,boat,0.4,0304_hp_dnn_0.4_boat_10_n03344393_6015.png,n03344393_6015.png,0.0,0.024253655,0.06501461,-0.028822348
alexnet_w3_mlp_simclrhn_probe0,1,305,NaN,chair,elephant,1.5,0305_hp_dnn_1.5_elephant_10_n02504013_2739.png,n02504013_2739.png,0.0,-3.3760743,-2.6045058,-0.54558134
alexnet_w3_mlp_simclrhn_probe0,1,306,NaN,clock,keyboard,0.45,0306_hp_dnn_0.45_keyboard_10_n03085013_23316.png,n03085013_23316.png,0.0,0.13587382,0.55265796,-0.2947109
alexnet_w3_mlp_simclrhn_probe0,1,307,NaN,clock,airplane,1,0307_hp_dnn_1_airplane_10_n02690373_20350.png,n02690373_20350.png,0.0,0.5273361,0.5624401,-0.024822261
alexnet_w3_mlp_simclrhn_probe0,1,308,NaN,clock,clock,3,0308_hp_dnn_3_clock_10_n02708093_3484.png,n02708093_3484.png,1.0,2.8130825,-1.2245089,2.8550084
alexnet_w3_mlp_simclrhn_probe0,1,309,NaN,clock,bicycle,0.55,0309_hp_dnn_0.55_bicycle_10_n03792782_10185.png,n03792782_10185.png,0.0,-1.577994,-0.35144675,-0.8672999
alexnet_w3_mlp_simclrhn_probe0,1,310,NaN,chair,knife,3,0310_hp_dnn_3_knife_10_n03041632_42196.png,n03041632_42196.png,0.0,-1.1853524,-0.567188,-0.43710825
alexnet_w3_mlp_simclrhn_probe0,1,311,NaN,bird,bird,inf,0311_hp_dnn_inf_bird_10_n01855672_6132.png,n01855672_6132.png,1.0,-1.2817124,-4.5613055,2.3190224
alexnet_w3_mlp_simclrhn_probe0,1,312,NaN,clock,bottle,0.4,0312_hp_dnn_0.4_bottle_10_n03983396_3047.png,n03983396_3047.png,0.0,-0.38946694,0.0065943203,-0.2800576
alexnet_w3_mlp_simclrhn_probe0,1,313,NaN,clock,bottle,0.4,0313_hp_dnn_0.4_bottle_10_n04557648_2093.png,n04557648_2093.png,0.0,-0.07781214,0.38197598,-0.3251193
alexnet_w3_mlp_simclrhn_probe0,1,314,NaN,keyboard,keyboard,0.55,0314_hp_dnn_0.55_keyboard_10_n04505470_7686.png,n04505470_7686.png,1.0,1.3680443,1.224702,0.10135829
alexnet_w3_mlp_simclrhn_probe0,1,315,NaN,bird,bear,1.5,0315_hp_dnn_1.5_bear_10_n02132136_5051.png,n02132136_5051.png,0.0,-6.921546,-2.8964763,-2.8461542
alexnet_w3_mlp_simclrhn_probe0,1,316,NaN,elephant,bear,1,0316_hp_dnn_1_bear_10_n02134418_24559.png,n02134418_24559.png,0.0,-2.8798437,-1.844001,-0.7324514
alexnet_w3_mlp_simclrhn_probe0,1,317,NaN,clock,oven,0.55,0317_hp_dnn_0.55_oven_10_n04111531_3702.png,n04111531_3702.png,0.0,-2.964805,-0.20316929,-1.9527713
alexnet_w3_mlp_simclrhn_probe0,1,318,NaN,bicycle,bicycle,1,0318_hp_dnn_1_bicycle_10_n02835271_24230.png,n02835271_24230.png,1.0,-0.7227229,-1.3240157,0.42517826
alexnet_w3_mlp_simclrhn_probe0,1,319,NaN,keyboard,keyboard,1.5,0319_hp_dnn_1.5_keyboard_10_n03085013_2272.png,n03085013_2272.png,1.0,1.0503641,0.16090786,0.6289406
alexnet_w3_mlp_simclrhn_probe0,1,320,NaN,clock,keyboard,0.55,0320_hp_dnn_0.55_keyboard_10_n03085013_23201.png,n03085013_23201.png,0.0,-0.076477036,0.48006025,-0.3935313
alexnet_w3_mlp_simclrhn_probe0,1,321,NaN,boat,boat,1.5,0321_hp_dnn_1.5_boat_10_n04273569_9803.png,n04273569_9803.png,1.0,-0.9922589,-1.7738817,0.55269074
alexnet_w3_mlp_simclrhn_probe0,1,322,NaN,boat,boat,0.4,0322_hp_dnn_0.4_boat_10_n04612504_29813.png,n04612504_29813.png,1.0,-0.14707468,-0.15158081,0.0031863123
alexnet_w3_mlp_simclrhn_probe0,1,323,NaN,clock,clock,1,0323_hp_dnn_1_clock_10_n02708093_1291.png,n02708093_1291.png,1.0,1.9156466,-0.660183,1.8213866
alexnet_w3_mlp_simclrhn_probe0,1,324,NaN,clock,oven,0.4,0324_hp_dnn_0.4_oven_10_n04111531_1794.png,n04111531_1794.png,0.0,-0.7951351,0.290446,-0.76762176
alexnet_w3_mlp_simclrhn_probe0,1,325,NaN,clock,bear,0.4,0325_hp_dnn_0.4_bear_10_n02132136_5612.png,n02132136_5612.png,0.0,-0.68784666,-0.1624935,-0.37148082
alexnet_w3_mlp_simclrhn_probe0,1,326,NaN,boat,boat,1.5,0326_hp_dnn_1.5_boat_10_n04273569_3401.png,n04273569_3401.png,1.0,0.36858281,-1.8165797,1.5451432
alexnet_w3_mlp_simclrhn_probe0,1,327,NaN,bird,cat,3,0327_hp_dnn_3_cat_10_n02125311_16544.png,n02125311_16544.png,0.0,-4.8751187,-2.7578807,-1.4971133
alexnet_w3_mlp_simclrhn_probe0,1,328,NaN,keyboard,clock,1.5,0328_hp_dnn_1.5_clock_10_n03196217_10717.png,n03196217_10717.png,0.0,0.8390469,1.154367,-0.22296497
alexnet_w3_mlp_simclrhn_probe0,1,329,NaN,elephant,bear,3,0329_hp_dnn_3_bear_10_n02134418_47.png,n02134418_47.png,0.0,-3.7001,-3.4103427,-0.20488933
alexnet_w3_mlp_simclrhn_probe0,1,330,NaN,keyboard,bottle,3,0330_hp_dnn_3_bottle_10_n04591713_4380.png,n04591713_4380.png,0.0,-2.0154462,-0.13680229,-1.3284018
alexnet_w3_mlp_simclrhn_probe0,1,331,NaN,clock,chair,0.55,0331_hp_dnn_0.55_chair_10_n04429376_8710.png,n04429376_8710.png,0.0,-0.51954377,0.08218517,-0.4254866
alexnet_w3_mlp_simclrhn_probe0,1,332,NaN,bicycle,bicycle,3,0332_hp_dnn_3_bicycle_10_n02835271_781.png,n02835271_781.png,1.0,6.405153,-3.4320927,6.9559836
alexnet_w3_mlp_simclrhn_probe0,1,333,NaN,elephant,bear,1.5,0333_hp_dnn_1.5_bear_10_n02134418_875.png,n02134418_875.png,0.0,-1.7293038,-1.0833949,-0.4567266
alexnet_w3_mlp_simclrhn_probe0,1,334,NaN,clock,dog,0.55,0334_hp_dnn_0.55_dog_10_n02094433_10343.png,n02094433_10343.png,0.0,-1.1428363,-0.42222574,-0.50954866
alexnet_w3_mlp_simclrhn_probe0,1,335,NaN,airplane,airplane,3,0335_hp_dnn_3_airplane_10_n02690373_1053.png,n02690373_1053.png,1.0,4.980132,1.0665133,2.7673464
alexnet_w3_mlp_simclrhn_probe0,1,336,NaN,airplane,airplane,3,0336_hp_dnn_3_airplane_10_n02690373_18848.png,n02690373_18848.png,1.0,4.2966514,-1.390438,4.0213795
alexnet_w3_mlp_simclrhn_probe0,1,337,NaN,keyboard,keyboard,3,0337_hp_dnn_3_keyboard_10_n03085013_18741.png,n03085013_18741.png,1.0,-0.01978755,-0.46456206,0.31450307
alexnet_w3_mlp_simclrhn_probe0,1,338,NaN,bear,bear,inf,0338_hp_dnn_inf_bear_10_n02134418_3152.png,n02134418_3152.png,1.0,3.9230185,0.5815786,2.3627548
alexnet_w3_mlp_simclrhn_probe0,1,339,NaN,bird,bicycle,1.5,0339_hp_dnn_1.5_bicycle_10_n03792782_14557.png,n03792782_14557.png,0.0,-3.9891129,-3.191078,-0.5642959
alexnet_w3_mlp_simclrhn_probe0,1,340,NaN,elephant,bird,0.7,0340_hp_dnn_0.7_bird_10_n01796340_5262.png,n01796340_5262.png,0.0,-2.3130326,-1.6886244,-0.4415233
alexnet_w3_mlp_simclrhn_probe0,1,341,NaN,clock,bicycle,1,0341_hp_dnn_1_bicycle_10_n03792782_4559.png,n03792782_4559.png,0.0,-0.55880636,0.08296112,-0.45379817
alexnet_w3_mlp_simclrhn_probe0,1,342,NaN,knife,bear,0.45,0342_hp_dnn_0.45_bear_10_n02134084_3177.png,n02134084_3177.png,0.0,-0.58830416,-0.26406568,-0.22927123
alexnet_w3_mlp_simclrhn_probe0,1,343,NaN,boat,elephant,0.4,0343_hp_dnn_0.4_elephant_10_n02504458_5008.png,n02504458_5008.png,0.0,-0.22615737,-0.07160845,-0.10928258
alexnet_w3_mlp_simclrhn_probe0,1,344,NaN,keyboard,oven,3,0344_hp_dnn_3_oven_10_n04111531_7955.png,n04111531_7955.png,0.0,-1.4866694,-0.41267616,-0.7594279
alexnet_w3_mlp_simclrhn_probe0,1,345,NaN,bicycle,bicycle,inf,0345_hp_dnn_inf_bicycle_10_n02835271_13793.png,n02835271_13793.png,1.0,-1.1770906,-3.7849805,1.8440566
alexnet_w3_mlp_simclrhn_probe0,1,346,NaN,clock,keyboard,0.45,0346_hp_dnn_0.45_keyboard_10_n03085013_14810.png,n03085013_14810.png,0.0,-0.096028686,0.23595886,-0.23475066
alexnet_w3_mlp_simclrhn_probe0,1,347,NaN,clock,car,0.7,0347_hp_dnn_0.7_car_10_n02814533_39933.png,n02814533_39933.png,0.0,-1.3945485,-0.027752766,-0.9664706
alexnet_w3_mlp_simclrhn_probe0,1,348,NaN,bird,bird,1,0348_hp_dnn_1_bird_10_n02027492_4897.png,n02027492_4897.png,1.0,-0.7004577,-1.7856174,0.7673238
alexnet_w3_mlp_simclrhn_probe0,1,349,NaN,keyboard,keyboard,3,0349_hp_dnn_3_keyboard_10_n03085013_23776.png,n03085013_23776.png,1.0,-1.6502149,-2.1409025,0.34696853
alexnet_w3_mlp_simclrhn_probe0,1,350,NaN,clock,car,1.5,0350_hp_dnn_1.5_car_10_n02814533_31493.png,n02814533_31493.png,0.0,-0.8659021,0.35390258,-0.86253226
alexnet_w3_mlp_simclrhn_probe0,1,351,NaN,boat,boat,1.5,0351_hp_dnn_1.5_boat_10_n03344393_7631.png,n03344393_7631.png,1.0,-0.99399054,-1.3020254,0.21781357
alexnet_w3_mlp_simclrhn_probe0,1,352,NaN,clock,bicycle,0.4,0352_hp_dnn_0.4_bicycle_10_n02835271_1261.png,n02835271_1261.png,0.0,-0.1770432,0.08901181,-0.1881293
alexnet_w3_mlp_simclrhn_probe0,1,353,NaN,clock,clock,1,0353_hp_dnn_1_clock_10_n03196217_1850.png,n03196217_1850.png,1.0,0.2409089,-0.047218382,0.20373677
alexnet_w3_mlp_simclrhn_probe0,1,354,NaN,bear,bear,inf,0354_hp_dnn_inf_bear_10_n02132136_22387.png,n02132136_22387.png,1.0,2.38735,-0.5000495,2.0417
alexnet_w3_mlp_simclrhn_probe0,1,355,NaN,airplane,airplane,1.5,0355_hp_dnn_1.5_airplane_10_n02690373_2316.png,n02690373_2316.png,1.0,1.0516634,-0.81485546,1.3198282
alexnet_w3_mlp_simclrhn_probe0,1,356,NaN,elephant,cat,0.7,0356_hp_dnn_0.7_cat_10_n02123597_3634.png,n02123597_3634.png,0.0,-1.3998771,-1.1657727,-0.1655368
alexnet_w3_mlp_simclrhn_probe0,1,357,NaN,boat,bird,0.45,0357_hp_dnn_0.45_bird_10_n02018207_4151.png,n02018207_4151.png,0.0,-0.2770932,-0.21675423,-0.0426661
alexnet_w3_mlp_simclrhn_probe0,1,358,NaN,clock,knife,0.7,0358_hp_dnn_0.7_knife_10_n03041632_94155.png,n03041632_94155.png,0.0,-2.051488,-0.46472672,-1.1220096
alexnet_w3_mlp_simclrhn_probe0,1,359,NaN,clock,bottle,0.45,0359_hp_dnn_0.45_bottle_10_n04560804_7509.png,n04560804_7509.png,0.0,-0.44125172,0.29766235,-0.52249116
alexnet_w3_mlp_simclrhn_probe0,1,360,NaN,clock,cat,0.4,0360_hp_dnn_0.4_cat_10_n02123045_12748.png,n02123045_12748.png,0.0,-0.63384366,-0.23806421,-0.27985832
alexnet_w3_mlp_simclrhn_probe0,1,361,NaN,clock,elephant,0.7,0361_hp_dnn_0.7_elephant_10_n02504013_6.png,n02504013_6.png,0.0,-1.7405002,-0.7243987,-0.7184923
alexnet_w3_mlp_simclrhn_probe0,1,362,NaN,clock,elephant,0.4,0362_hp_dnn_0.4_elephant_10_n02504013_1492.png,n02504013_1492.png,0.0,-0.8971085,-0.007166321,-0.62928414
alexnet_w3_mlp_simclrhn_probe0,1,363,NaN,clock,dog,0.4,0363_hp_dnn_0.4_dog_10_n02107142_27162.png,n02107142_27162.png,0.0,-0.913849,-0.34538636,-0.40196377
alexnet_w3_mlp_simclrhn_probe0,1,364,NaN,clock,bear,0.7,0364_hp_dnn_0.7_bear_10_n02134418_962.png,n02134418_962.png,0.0,-1.6131879,-0.76529074,-0.5995538
alexnet_w3_mlp_simclrhn_probe0,1,365,NaN,clock,truck,0.7,0365_hp_dnn_0.7_truck_10_n03417042_9693.png,n03417042_9693.png,0.0,-0.24440476,0.31936634,-0.39864638
alexnet_w3_mlp_simclrhn_probe0,1,366,NaN,clock,oven,1,0366_hp_dnn_1_oven_10_n04111531_2116.png,n04111531_2116.png,0.0,-2.6914454,-1.4109564,-0.9054425
alexnet_w3_mlp_simclrhn_probe0,1,367,NaN,keyboard,keyboard,inf,0367_hp_dnn_inf_keyboard_10_n03085013_20460.png,n03085013_20460.png,1.0,1.5859394,-0.8408503,1.7159995
alexnet_w3_mlp_simclrhn_probe0,1,368,NaN,clock,bird,0.45,0368_hp_dnn_0.45_bird_10_n01796340_6191.png,n01796340_6191.png,0.0,-0.7733672,-0.358623,-0.29326847
alexnet_w3_mlp_simclrhn_probe0,1,369,NaN,chair,oven,1.5,0369_hp_dnn_1.5_oven_10_n04111531_8046.png,n04111531_8046.png,0.0,-1.872169,-1.4826269,-0.27544788
alexnet_w3_mlp_simclrhn_probe0,1,370,NaN,clock,boat,0.45,0370_hp_dnn_0.45_boat_10_n03344393_11788.png,n03344393_11788.png,0.0,-0.5334052,0.013386575,-0.38664016
alexnet_w3_mlp_simclrhn_probe0,1,371,NaN,cat,cat,inf,0371_hp_dnn_inf_cat_10_n02123394_2765.png,n02123394_2765.png,1.0,1.6790738,-2.8737876,3.2193592
alexnet_w3_mlp_simclrhn_probe0,1,372,NaN,clock,bicycle,0.4,0372_hp_dnn_0.4_bicycle_10_n03792782_26834.png,n03792782_26834.png,0.0,0.13874654,0.3605008,-0.15680395
alexnet_w3_mlp_simclrhn_probe0,1,373,NaN,bird,cat,1.5,0373_hp_dnn_1.5_cat_10_n02125311_37036.png,n02125311_37036.png,0.0,-3.215067,-2.7430243,-0.3337845
alexnet_w3_mlp_simclrhn_probe0,1,374,NaN,clock,bicycle,0.7,0374_hp_dnn_0.7_bicycle_10_n03792782_4067.png,n03792782_4067.png,0.0,-1.1060145,-0.895843,-0.14861366
alexnet_w3_mlp_simclrhn_probe0,1,375,NaN,elephant,bear,inf,0375_hp_dnn_inf_bear_10_n02134418_3886.png,n02134418_3886.png,0.0,1.1798055,1.6591682,-0.33896065
alexnet_w3_mlp_simclrhn_probe0,1,376,NaN,clock,dog,0.7,0376_hp_dnn_0.7_dog_10_n02110185_9014.png,n02110185_9014.png,0.0,-3.53836,0.5342986,-2.8798046
alexnet_w3_mlp_simclrhn_probe0,1,377,NaN,oven,bear,inf,0377_hp_dnn_inf_bear_10_n02134084_14888.png,n02134084_14888.png,0.0,-1.0462939,0.5249153,-1.1110127
alexnet_w3_mlp_simclrhn_probe0,1,378,NaN,clock,truck,1.5,0378_hp_dnn_1.5_truck_10_n03417042_5249.png,n03417042_5249.png,0.0,-3.5144396,-1.401893,-1.493796
alexnet_w3_mlp_simclrhn_probe0,1,379,NaN,bottle,oven,1,0379_hp_dnn_1_oven_10_n04111531_10711.png,n04111531_10711.png,0.0,-4.1147127,-2.374846,-1.2302716
alexnet_w3_mlp_simclrhn_probe0,1,380,NaN,car,car,1.5,0380_hp_dnn_1.5_car_10_n04285008_15271.png,n04285008_15271.png,1.0,-0.25885287,-0.5075977,0.17588915
alexnet_w3_mlp_simclrhn_probe0,1,381,NaN,clock,cat,0.45,0381_hp_dnn_0.45_cat_10_n02123597_12232.png,n02123597_12232.png,0.0,-0.5294827,-0.08398504,-0.31501445
alexnet_w3_mlp_simclrhn_probe0,1,382,NaN,chair,clock,3,0382_hp_dnn_3_clock_10_n04548280_8083.png,n04548280_8083.png,0.0,-2.0124328,0.2550032,-1.6033194
alexnet_w3_mlp_simclrhn_probe0,1,383,NaN,clock,chair,0.45,0383_hp_dnn_0.45_chair_10_n04099969_8946.png,n04099969_8946.png,0.0,-0.41779256,0.06235364,-0.33951464
alexnet_w3_mlp_simclrhn_probe0,1,384,NaN,airplane,keyboard,0.7,0384_hp_dnn_0.7_keyboard_10_n03085013_21973.png,n03085013_21973.png,0.0,-1.0982707,-0.35411623,-0.52619666
alexnet_w3_mlp_simclrhn_probe0,1,385,NaN,clock,bottle,0.7,0385_hp_dnn_0.7_bottle_10_n04560804_15225.png,n04560804_15225.png,0.0,-1.5932319,-0.7816666,-0.5738634
alexnet_w3_mlp_simclrhn_probe0,1,386,NaN,cat,cat,inf,0386_hp_dnn_inf_cat_10_n02123045_10395.png,n02123045_10395.png,1.0,3.5029752,-5.400605,6.2957826
alexnet_w3_mlp_simclrhn_probe0,1,387,NaN,clock,truck,0.45,0387_hp_dnn_0.45_truck_10_n03417042_4188.png,n03417042_4188.png,0.0,-0.5186547,-0.031906422,-0.34418303
alexnet_w3_mlp_simclrhn_probe0,1,388,NaN,keyboard,keyboard,1.5,0388_hp_dnn_1.5_keyboard_10_n03085013_21615.png,n03085013_21615.png,1.0,4.98575,-1.8322232,4.821035
alexnet_w3_mlp_simclrhn_probe0,1,389,NaN,knife,knife,inf,0389_hp_dnn_inf_knife_10_n03041632_26989.png,n03041632_26989.png,1.0,1.3526592,-2.3907745,2.6470075
alexnet_w3_mlp_simclrhn_probe0,1,390,NaN,airplane,airplane,0.55,0390_hp_dnn_0.55_airplane_10_n02690373_16986.png,n02690373_16986.png,1.0,0.68830025,0.23213005,0.32256106
alexnet_w3_mlp_simclrhn_probe0,1,391,NaN,bicycle,bicycle,inf,0391_hp_dnn_inf_bicycle_10_n02835271_9067.png,n02835271_9067.png,1.0,7.450089,-5.856268,9.409015
alexnet_w3_mlp_simclrhn_probe0,1,392,NaN,clock,dog,0.45,0392_hp_dnn_0.45_dog_10_n02106382_9188.png,n02106382_9188.png,0.0,-1.571848,-0.5430208,-0.7274907
alexnet_w3_mlp_simclrhn_probe0,1,393,NaN,boat,boat,inf,0393_hp_dnn_inf_boat_10_n02951358_3205.png,n02951358_3205.png,1.0,2.2957585,-2.810296,3.6105256
alexnet_w3_mlp_simclrhn_probe0,1,394,NaN,clock,knife,0.4,0394_hp_dnn_0.4_knife_10_n03041632_45270.png,n03041632_45270.png,0.0,-0.58303326,0.16168053,-0.5265922
alexnet_w3_mlp_simclrhn_probe0,1,395,NaN,car,car,inf,0395_hp_dnn_inf_car_10_n03100240_6376.png,n03100240_6376.png,1.0,2.7428303,-0.38885286,2.2144344
alexnet_w3_mlp_simclrhn_probe0,1,396,NaN,clock,truck,1,0396_hp_dnn_1_truck_10_n03796401_430.png,n03796401_430.png,0.0,-0.41679808,-0.27604732,-0.099525824
alexnet_w3_mlp_simclrhn_probe0,1,397,NaN,clock,knife,0.7,0397_hp_dnn_0.7_knife_10_n03041632_24181.png,n03041632_24181.png,0.0,-0.5985604,-0.11829124,-0.33960158
alexnet_w3_mlp_simclrhn_probe0,1,398,NaN,knife,bear,1,0398_hp_dnn_1_bear_10_n02134084_16190.png,n02134084_16190.png,0.0,-1.9765005,-1.333001,-0.45502287
alexnet_w3_mlp_simclrhn_probe0,1,399,NaN,clock,bear,0.55,0399_hp_dnn_0.55_bear_10_n02132136_7253.png,n02132136_7253.png,0.0,-2.383679,-0.18086727,-1.5576231
alexnet_w3_mlp_simclrhn_probe0,1,400,NaN,clock,boat,1,0400_hp_dnn_1_boat_10_n03662601_34676.png,n03662601_34676.png,0.0,-1.9630864,-0.87308604,-0.7707467
alexnet_w3_mlp_simclrhn_probe0,1,401,NaN,clock,knife,0.55,0401_hp_dnn_0.55_knife_10_n03041632_81471.png,n03041632_81471.png,0.0,-1.8724536,0.44050112,-1.6355059
alexnet_w3_mlp_simclrhn_probe0,1,402,NaN,clock,cat,0.7,0402_hp_dnn_0.7_cat_10_n02123597_3822.png,n02123597_3822.png,0.0,-1.1117266,-0.43458274,-0.47881308
alexnet_w3_mlp_simclrhn_probe0,1,403,NaN,keyboard,keyboard,1.5,0403_hp_dnn_1.5_keyboard_10_n03085013_4823.png,n03085013_4823.png,1.0,2.342583,-1.0914682,2.4282408
alexnet_w3_mlp_simclrhn_probe0,1,404,NaN,clock,dog,0.4,0404_hp_dnn_0.4_dog_10_n02108551_8385.png,n02108551_8385.png,0.0,-0.87181646,-0.21906507,-0.46156493
alexnet_w3_mlp_simclrhn_probe0,1,405,NaN,elephant,cat,0.7,0405_hp_dnn_0.7_cat_10_n02124075_8732.png,n02124075_8732.png,0.0,-1.2404004,-1.1259859,-0.08090332
alexnet_w3_mlp_simclrhn_probe0,1,406,NaN,bicycle,dog,3,0406_hp_dnn_3_dog_10_n02093428_17625.png,n02093428_17625.png,0.0,-5.1183915,-2.167614,-2.086515
alexnet_w3_mlp_simclrhn_probe0,1,407,NaN,car,chair,inf,0407_hp_dnn_inf_chair_10_n02791124_6999.png,n02791124_6999.png,0.0,-1.5021822,0.8814332,-1.6854707
alexnet_w3_mlp_simclrhn_probe0,1,408,NaN,bird,bird,3,0408_hp_dnn_3_bird_10_n02028035_521.png,n02028035_521.png,1.0,-1.3212975,-1.7042444,0.27078432
alexnet_w3_mlp_simclrhn_probe0,1,409,NaN,clock,truck,0.4,0409_hp_dnn_0.4_truck_10_n03417042_750.png,n03417042_750.png,0.0,-0.7802607,-0.0339115,-0.5277486
alexnet_w3_mlp_simclrhn_probe0,1,410,NaN,airplane,airplane,inf,0410_hp_dnn_inf_airplane_10_n02690373_5779.png,n02690373_5779.png,1.0,8.020789,1.5832958,4.5519953
alexnet_w3_mlp_simclrhn_probe0,1,411,NaN,cat,cat,1.5,0411_hp_dnn_1.5_cat_10_n02123045_7154.png,n02123045_7154.png,1.0,-2.8445098,-3.471719,0.4435039
alexnet_w3_mlp_simclrhn_probe0,1,412,NaN,bottle,bottle,1.5,0412_hp_dnn_1.5_bottle_10_n04591713_6958.png,n04591713_6958.png,1.0,-0.036081407,-0.87136793,0.59063673
alexnet_w3_mlp_simclrhn_probe0,1,413,NaN,bird,bird,1.5,0413_hp_dnn_1.5_bird_10_n01818515_42621.png,n01818515_42621.png,1.0,-1.7455443,-1.8314083,0.060714982
alexnet_w3_mlp_simclrhn_probe0,1,414,NaN,truck,truck,inf,0414_hp_dnn_inf_truck_10_n03796401_1330.png,n03796401_1330.png,1.0,4.035612,1.474692,1.8108441
alexnet_w3_mlp_simclrhn_probe0,1,415,NaN,bird,bird,1.5,0415_hp_dnn_1.5_bird_10_n01843065_6365.png,n01843065_6365.png,1.0,-2.674358,-3.186058,0.36182666
alexnet_w3_mlp_simclrhn_probe0,1,416,NaN,bottle,bottle,1.5,0416_hp_dnn_1.5_bottle_10_n03983396_11898.png,n03983396_11898.png,1.0,-1.0013801,-1.6261545,0.44178227
alexnet_w3_mlp_simclrhn_probe0,1,417,NaN,bicycle,bird,3,0417_hp_dnn_3_bird_10_n01530575_3831.png,n01530575_3831.png,0.0,-0.4120344,-0.33084583,-0.05740898
alexnet_w3_mlp_simclrhn_probe0,1,418,NaN,clock,bottle,0.4,0418_hp_dnn_0.4_bottle_10_n03983396_8837.png,n03983396_8837.png,0.0,-0.0797866,0.22138996,-0.21296398
alexnet_w3_mlp_simclrhn_probe0,1,419,NaN,clock,car,0.7,0419_hp_dnn_0.7_car_10_n02814533_90798.png,n02814533_90798.png,0.0,0.34988618,0.52457625,-0.12352453
alexnet_w3_mlp_simclrhn_probe0,1,420,NaN,bird,bird,3,0420_hp_dnn_3_bird_10_n01819313_3440.png,n01819313_3440.png,1.0,-2.7788603,-3.7327363,0.67449224
alexnet_w3_mlp_simclrhn_probe0,1,421,NaN,clock,dog,0.55,0421_hp_dnn_0.55_dog_10_n02090721_4433.png,n02090721_4433.png,0.0,-2.1161234,-0.7008836,-1.0007256
alexnet_w3_mlp_simclrhn_probe0,1,422,NaN,elephant,elephant,3,0422_hp_dnn_3_elephant_10_n02504013_9566.png,n02504013_9566.png,1.0,-1.2310044,-2.438428,0.8537774
alexnet_w3_mlp_simclrhn_probe0,1,423,NaN,cat,dog,1.5,0423_hp_dnn_1.5_dog_10_n02105251_6599.png,n02105251_6599.png,0.0,-2.7655902,-1.742026,-0.7237692
alexnet_w3_mlp_simclrhn_probe0,1,424,NaN,clock,chair,0.7,0424_hp_dnn_0.7_chair_10_n02791124_5759.png,n02791124_5759.png,0.0,-0.6024798,0.28014812,-0.62411225
alexnet_w3_mlp_simclrhn_probe0,1,425,NaN,elephant,elephant,inf,0425_hp_dnn_inf_elephant_10_n02504458_150.png,n02504458_150.png,1.0,3.1490726,-1.8235794,3.516196
alexnet_w3_mlp_simclrhn_probe0,1,426,NaN,clock,clock,0.45,0426_hp_dnn_0.45_clock_10_n04548280_10040.png,n04548280_10040.png,1.0,1.8450794,-0.07575908,1.358238
alexnet_w3_mlp_simclrhn_probe0,1,427,NaN,clock,elephant,0.7,0427_hp_dnn_0.7_elephant_10_n02504458_155.png,n02504458_155.png,0.0,-2.1407034,0.034620296,-1.5381862
alexnet_w3_mlp_simclrhn_probe0,1,428,NaN,knife,knife,1,0428_hp_dnn_1_knife_10_n03041632_48062.png,n03041632_48062.png,1.0,-0.10196382,-0.20157282,0.070434205
alexnet_w3_mlp_simclrhn_probe0,1,429,NaN,truck,truck,1.5,0429_hp_dnn_1.5_truck_10_n04467665_40361.png,n04467665_40361.png,1.0,-0.4068809,-0.673706,0.18867385
alexnet_w3_mlp_simclrhn_probe0,1,430,NaN,clock,bird,0.45,0430_hp_dnn_0.45_bird_10_n01614925_7608.png,n01614925_7608.png,0.0,-0.83003867,-0.006630689,-0.5822374
alexnet_w3_mlp_simclrhn_probe0,1,431,NaN,clock,bear,0.45,0431_hp_dnn_0.45_bear_10_n02133161_2749.png,n02133161_2749.png,0.0,-1.0406382,-0.19896173,-0.5951552
alexnet_w3_mlp_simclrhn_probe0,1,432,NaN,clock,boat,0.55,0432_hp_dnn_0.55_boat_10_n04612504_654.png,n04612504_654.png,0.0,-0.20364013,-0.09498689,-0.07682944
alexnet_w3_mlp_simclrhn_probe0,1,433,NaN,bottle,bottle,1,0433_hp_dnn_1_bottle_10_n04579145_287.png,n04579145_287.png,1.0,1.2155335,0.85353845,0.25596917
alexnet_w3_mlp_simclrhn_probe0,1,434,NaN,bird,bear,3,0434_hp_dnn_3_bear_10_n02133161_1423.png,n02133161_1423.png,0.0,-3.9049292,-1.9502343,-1.3821781
alexnet_w3_mlp_simclrhn_probe0,1,435,NaN,bicycle,bicycle,0.7,0435_hp_dnn_0.7_bicycle_10_n02835271_4656.png,n02835271_4656.png,1.0,0.20443828,0.05082651,0.108619936
alexnet_w3_mlp_simclrhn_probe0,1,436,NaN,clock,clock,0.7,0436_hp_dnn_0.7_clock_10_n02708093_3688.png,n02708093_3688.png,1.0,0.76093465,-0.90084565,1.1750562
alexnet_w3_mlp_simclrhn_probe0,1,437,NaN,airplane,airplane,inf,0437_hp_dnn_inf_airplane_10_n02690373_10278.png,n02690373_10278.png,1.0,2.022658,-0.62107307,1.8694003
alexnet_w3_mlp_simclrhn_probe0,1,438,NaN,clock,car,0.4,0438_hp_dnn_0.4_car_10_n04285008_11133.png,n04285008_11133.png,0.0,-0.6705939,-0.18741941,-0.34165597
alexnet_w3_mlp_simclrhn_probe0,1,439,NaN,clock,knife,1,0439_hp_dnn_1_knife_10_n03041632_4214.png,n03041632_4214.png,0.0,-1.0236294,-0.8098092,-0.15119372
alexnet_w3_mlp_simclrhn_probe0,1,440,NaN,knife,oven,inf,0440_hp_dnn_inf_oven_10_n04111531_7741.png,n04111531_7741.png,0.0,-4.6534314,-3.9725845,-0.48143148
alexnet_w3_mlp_simclrhn_probe0,1,441,NaN,bicycle,bicycle,3,0441_hp_dnn_3_bicycle_10_n03792782_4472.png,n03792782_4472.png,1.0,3.451167,-3.4753683,4.8978004
alexnet_w3_mlp_simclrhn_probe0,1,442,NaN,clock,bird,0.7,0442_hp_dnn_0.7_bird_10_n01798484_18666.png,n01798484_18666.png,0.0,-2.6512613,-1.2144488,-1.0159799
alexnet_w3_mlp_simclrhn_probe0,1,443,NaN,keyboard,keyboard,1.5,0443_hp_dnn_1.5_keyboard_10_n04505470_5059.png,n04505470_5059.png,1.0,-0.27423263,-1.5097606,0.87365025
alexnet_w3_mlp_simclrhn_probe0,1,444,NaN,clock,elephant,0.55,0444_hp_dnn_0.55_elephant_10_n02504013_2369.png,n02504013_2369.png,0.0,-1.7874248,-0.34990928,-1.016477
alexnet_w3_mlp_simclrhn_probe0,1,445,NaN,bottle,bottle,3,0445_hp_dnn_3_bottle_10_n02823428_10796.png,n02823428_10796.png,1.0,-2.2618945,-2.7822647,0.36795732
alexnet_w3_mlp_simclrhn_probe0,1,446,NaN,bicycle,oven,3,0446_hp_dnn_3_oven_10_n04111531_4421.png,n04111531_4421.png,0.0,-3.3014216,-2.772155,-0.374248
alexnet_w3_mlp_simclrhn_probe0,1,447,NaN,bicycle,bicycle,inf,0447_hp_dnn_inf_bicycle_10_n02835271_7303.png,n02835271_7303.png,1.0,6.4755745,-5.5316267,8.490374
alexnet_w3_mlp_simclrhn_probe0,1,448,NaN,chair,chair,inf,0448_hp_dnn_inf_chair_10_n02791124_7877.png,n02791124_7877.png,1.0,-3.346782,-3.9724512,0.44241497
alexnet_w3_mlp_simclrhn_probe0,1,449,NaN,clock,bottle,1.5,0449_hp_dnn_1.5_bottle_10_n04560804_12099.png,n04560804_12099.png,0.0,-1.0099134,-0.25894058,-0.531018
alexnet_w3_mlp_simclrhn_probe0,1,450,NaN,airplane,boat,1,0450_hp_dnn_1_boat_10_n03662601_18924.png,n03662601_18924.png,0.0,-0.6785818,-0.049869627,-0.44456664
alexnet_w3_mlp_simclrhn_probe0,1,451,NaN,clock,bottle,1,0451_hp_dnn_1_bottle_10_n04591713_4206.png,n04591713_4206.png,0.0,-0.5384822,-0.32234547,-0.15283175
alexnet_w3_mlp_simclrhn_probe0,1,452,NaN,clock,clock,0.55,0452_hp_dnn_0.55_clock_10_n04548280_6689.png,n04548280_6689.png,1.0,1.1094478,-0.19705068,0.92383397
alexnet_w3_mlp_simclrhn_probe0,1,453,NaN,clock,dog,0.4,0453_hp_dnn_0.4_dog_10_n02090721_5305.png,n02090721_5305.png,0.0,-0.6866693,-0.17995338,-0.35830227
alexnet_w3_mlp_simclrhn_probe0,1,454,NaN,clock,clock,0.7,0454_hp_dnn_0.7_clock_10_n03196217_1746.png,n03196217_1746.png,1.0,-0.2729365,-0.5490583,0.19524762
alexnet_w3_mlp_simclrhn_probe0,1,455,NaN,keyboard,keyboard,3,0455_hp_dnn_3_keyboard_10_n04505470_7721.png,n04505470_7721.png,1.0,5.7892466,0.3491039,3.8467617
alexnet_w3_mlp_simclrhn_probe0,1,456,NaN,clock,clock,0.55,0456_hp_dnn_0.55_clock_10_n04548280_3248.png,n04548280_3248.png,1.0,0.8614276,-0.26238978,0.79465896
alexnet_w3_mlp_simclrhn_probe0,1,457,NaN,bird,bird,inf,0457_hp_dnn_inf_bird_10_n01534433_28009.png,n01534433_28009.png,1.0,0.58901376,-2.9403608,2.4956448
alexnet_w3_mlp_simclrhn_probe0,1,458,NaN,clock,chair,0.4,0458_hp_dnn_0.4_chair_10_n04099969_142.png,n04099969_142.png,0.0,-0.19639796,-0.058748882,-0.0973326
alexnet_w3_mlp_simclrhn_probe0,1,459,NaN,bicycle,bicycle,0.55,0459_hp_dnn_0.55_bicycle_10_n03792782_7092.png,n03792782_7092.png,1.0,0.5994814,0.5255282,0.052292816
alexnet_w3_mlp_simclrhn_probe0,1,460,NaN,clock,keyboard,0.45,0460_hp_dnn_0.45_keyboard_10_n03085013_25559.png,n03085013_25559.png,0.0,-0.24167281,-0.0208406,-0.15615197
alexnet_w3_mlp_simclrhn_probe0,1,461,NaN,clock,elephant,0.7,0461_hp_dnn_0.7_elephant_10_n02504013_9144.png,n02504013_9144.png,0.0,-1.8696249,-0.8783745,-0.70091987
alexnet_w3_mlp_simclrhn_probe0,1,462,NaN,clock,clock,0.45,0462_hp_dnn_0.45_clock_10_n03196217_2003.png,n03196217_2003.png,1.0,0.4648554,0.4108128,0.038213894
alexnet_w3_mlp_simclrhn_probe0,1,463,NaN,elephant,elephant,1,0463_hp_dnn_1_elephant_10_n02504013_3169.png,n02504013_3169.png,1.0,-1.0990082,-2.1070366,0.7127837
alexnet_w3_mlp_simclrhn_probe0,1,464,NaN,clock,dog,0.55,0464_hp_dnn_0.55_dog_10_n02089867_6424.png,n02089867_6424.png,0.0,-2.109225,-0.33183673,-1.2568034
alexnet_w3_mlp_simclrhn_probe0,1,465,NaN,clock,keyboard,1,0465_hp_dnn_1_keyboard_10_n03085013_22494.png,n03085013_22494.png,0.0,-1.1224523,0.5321291,-1.1699656
alexnet_w3_mlp_simclrhn_probe0,1,466,NaN,clock,dog,0.4,0466_hp_dnn_0.4_dog_10_n02106662_37555.png,n02106662_37555.png,0.0,-0.80269897,-0.24481113,-0.39448628
alexnet_w3_mlp_simclrhn_probe0,1,467,NaN,clock,car,0.55,0467_hp_dnn_0.55_car_10_n02814533_4726.png,n02814533_4726.png,0.0,-0.4033436,0.490374,-0.6319538
alexnet_w3_mlp_simclrhn_probe0,1,468,NaN,clock,elephant,0.45,0468_hp_dnn_0.45_elephant_10_n02504458_1473.png,n02504458_1473.png,0.0,-1.0449255,-0.21200518,-0.58896357
alexnet_w3_mlp_simclrhn_probe0,1,469,NaN,clock,bottle,0.55,0469_hp_dnn_0.55_bottle_10_n04557648_3350.png,n04557648_3350.png,0.0,-0.40968755,-0.04061942,-0.26097056
alexnet_w3_mlp_simclrhn_probe0,1,470,NaN,clock,knife,0.4,0470_hp_dnn_0.4_knife_10_n03041632_31909.png,n03041632_31909.png,0.0,-0.35990155,0.26935306,-0.4449502
alexnet_w3_mlp_simclrhn_probe0,1,471,NaN,clock,truck,0.4,0471_hp_dnn_0.4_truck_10_n04467665_70880.png,n04467665_70880.png,0.0,-0.8713567,-0.12190797,-0.5299403
alexnet_w3_mlp_simclrhn_probe0,1,472,NaN,clock,dog,0.45,0472_hp_dnn_0.45_dog_10_n02097209_7557.png,n02097209_7557.png,0.0,-1.399779,-0.4210863,-0.6920402
alexnet_w3_mlp_simclrhn_probe0,1,473,NaN,clock,oven,1,0473_hp_dnn_1_oven_10_n04111531_4438.png,n04111531_4438.png,0.0,-2.6126282,-0.6048637,-1.419704
alexnet_w3_mlp_simclrhn_probe0,1,474,NaN,airplane,airplane,0.7,0474_hp_dnn_0.7_airplane_10_n02690373_194.png,n02690373_194.png,1.0,0.6202686,-0.5426102,0.82227945
alexnet_w3_mlp_simclrhn_probe0,1,475,NaN,bicycle,bicycle,1.5,0475_hp_dnn_1.5_bicycle_10_n02835271_6953.png,n02835271_6953.png,1.0,1.2536652,-2.3062673,2.5172524
alexnet_w3_mlp_simclrhn_probe0,1,476,NaN,clock,oven,0.45,0476_hp_dnn_0.45_oven_10_n04111531_14435.png,n04111531_14435.png,0.0,-1.7854868,-0.02344667,-1.2459506
alexnet_w3_mlp_simclrhn_probe0,1,477,NaN,bicycle,elephant,1.5,0477_hp_dnn_1.5_elephant_10_n02504013_5192.png,n02504013_5192.png,0.0,-2.568349,-1.6968365,-0.61625236
alexnet_w3_mlp_simclrhn_probe0,1,478,NaN,clock,chair,0.7,0478_hp_dnn_0.7_chair_10_n03376595_3566.png,n03376595_3566.png,0.0,-1.1284142,-0.42323944,-0.4986338
alexnet_w3_mlp_simclrhn_probe0,1,479,NaN,clock,truck,1,0479_hp_dnn_1_truck_10_n03417042_22709.png,n03417042_22709.png,0.0,-2.757515,-1.5757619,-0.8356256
alexnet_w3_mlp_simclrhn_probe0,1,480,NaN,keyboard,keyboard,inf,0480_hp_dnn_inf_keyboard_10_n04505470_4603.png,n04505470_4603.png,1.0,6.384132,2.6643584,2.6302772
alexnet_w3_mlp_simclrhn_probe0,1,481,NaN,clock,car,0.55,0481_hp_dnn_0.55_car_10_n03100240_1794.png,n03100240_1794.png,0.0,-0.55077,0.11609262,-0.47154307
alexnet_w3_mlp_simclrhn_probe0,1,482,NaN,clock,elephant,0.7,0482_hp_dnn_0.7_elephant_10_n02504458_1233.png,n02504458_1233.png,0.0,-2.0141768,-0.77512485,-0.87614214
alexnet_w3_mlp_simclrhn_probe0,1,483,NaN,clock,airplane,0.45,0483_hp_dnn_0.45_airplane_10_n02690373_3047.png,n02690373_3047.png,0.0,-0.23319875,-0.23041447,-0.0019687847
alexnet_w3_mlp_simclrhn_probe0,1,484,NaN,elephant,elephant,0.55,0484_hp_dnn_0.55_elephant_10_n02504013_7422.png,n02504013_7422.png,1.0,-0.18857318,-0.3655267,0.12512504
alexnet_w3_mlp_simclrhn_probe0,1,485,NaN,clock,bicycle,0.45,0485_hp_dnn_0.45_bicycle_10_n03792782_16034.png,n03792782_16034.png,0.0,-0.09351141,0.23250401,-0.23052771
alexnet_w3_mlp_simclrhn_probe0,1,486,NaN,bicycle,bicycle,3,0486_hp_dnn_3_bicycle_10_n02835271_11922.png,n02835271_11922.png,1.0,-1.4473817,-2.465711,0.7200676
alexnet_w3_mlp_simclrhn_probe0,1,487,NaN,clock,truck,0.7,0487_hp_dnn_0.7_truck_10_n03796401_6526.png,n03796401_6526.png,0.0,-0.7937056,0.4401096,-0.8724391
alexnet_w3_mlp_simclrhn_probe0,1,488,NaN,boat,boat,3,0488_hp_dnn_3_boat_10_n03662601_1834.png,n03662601_1834.png,1.0,2.170606,-1.8716294,2.858292
alexnet_w3_mlp_simclrhn_probe0,1,489,NaN,clock,dog,0.7,0489_hp_dnn_0.7_dog_10_n02100236_619.png,n02100236_619.png,0.0,-3.1844077,-1.4411589,-1.232663
alexnet_w3_mlp_simclrhn_probe0,1,490,NaN,clock,truck,0.45,0490_hp_dnn_0.45_truck_10_n04467665_21266.png,n04467665_21266.png,0.0,-1.0240688,-0.20240052,-0.58100724
alexnet_w3_mlp_simclrhn_probe0,1,491,NaN,clock,chair,0.55,0491_hp_dnn_0.55_chair_10_n04099969_18220.png,n04099969_18220.png,0.0,-0.19010665,0.20254497,-0.27764663
alexnet_w3_mlp_simclrhn_probe0,1,492,NaN,keyboard,keyboard,1.5,0492_hp_dnn_1.5_keyboard_10_n03085013_4157.png,n03085013_4157.png,1.0,1.386025,0.937253,0.3173297
alexnet_w3_mlp_simclrhn_probe0,1,493,NaN,clock,bicycle,0.4,0493_hp_dnn_0.4_bicycle_10_n03792782_1276.png,n03792782_1276.png,0.0,-0.8023331,-0.14070795,-0.46783963
alexnet_w3_mlp_simclrhn_probe0,1,494,NaN,boat,boat,3,0494_hp_dnn_3_boat_10_n03344393_1987.png,n03344393_1987.png,1.0,2.6991322,-0.69175947,2.3977225
alexnet_w3_mlp_simclrhn_probe0,1,495,NaN,airplane,boat,0.45,0495_hp_dnn_0.45_boat_10_n03344393_381.png,n03344393_381.png,0.0,-0.5394349,-0.124189064,-0.29362315
alexnet_w3_mlp_simclrhn_probe0,1,496,NaN,clock,clock,inf,0496_hp_dnn_inf_clock_10_n02708093_8390.png,n02708093_8390.png,1.0,2.362738,-0.44639665,1.986358
alexnet_w3_mlp_simclrhn_probe0,1,497,NaN,keyboard,keyboard,0.55,0497_hp_dnn_0.55_keyboard_10_n04505470_1043.png,n04505470_1043.png,1.0,1.8949957,-0.08484014,1.3999554
alexnet_w3_mlp_simclrhn_probe0,1,498,NaN,clock,dog,0.55,0498_hp_dnn_0.55_dog_10_n02100877_1902.png,n02100877_1902.png,0.0,-2.711276,-0.9981659,-1.2113519
alexnet_w3_mlp_simclrhn_probe0,1,499,NaN,clock,knife,1.5,0499_hp_dnn_1.5_knife_10_n03041632_55083.png,n03041632_55083.png,0.0,-0.39216554,0.36867675,-0.53799677
alexnet_w3_mlp_simclrhn_probe0,1,500,NaN,chair,truck,1.5,0500_hp_dnn_1.5_truck_10_n04467665_45872.png,n04467665_45872.png,0.0,-3.2149692,-1.4842719,-1.2237878
alexnet_w3_mlp_simclrhn_probe0,1,501,NaN,knife,boat,0.7,0501_hp_dnn_0.7_boat_10_n04273569_3244.png,n04273569_3244.png,0.0,-1.7966025,-1.018296,-0.5503458
alexnet_w3_mlp_simclrhn_probe0,1,502,NaN,clock,bear,0.45,0502_hp_dnn_0.45_bear_10_n02134418_2157.png,n02134418_2157.png,0.0,-0.71664333,-0.57751507,-0.09837855
alexnet_w3_mlp_simclrhn_probe0,1,503,NaN,bottle,bottle,3,0503_hp_dnn_3_bottle_10_n04591713_17618.png,n04591713_17618.png,1.0,-1.4991814,-2.6191049,0.7919055
alexnet_w3_mlp_simclrhn_probe0,1,504,NaN,clock,cat,1,0504_hp_dnn_1_cat_10_n02125311_8496.png,n02125311_8496.png,0.0,-2.6400979,-1.0480821,-1.1257252
alexnet_w3_mlp_simclrhn_probe0,1,505,NaN,car,car,inf,0505_hp_dnn_inf_car_10_n02814533_3560.png,n02814533_3560.png,1.0,9.6116295,8.469236,0.8077939
alexnet_w3_mlp_simclrhn_probe0,1,506,NaN,clock,truck,0.7,0506_hp_dnn_0.7_truck_10_n03417042_751.png,n03417042_751.png,0.0,-1.3470607,-0.1207332,-0.86714447
alexnet_w3_mlp_simclrhn_probe0,1,507,NaN,chair,keyboard,inf,0507_hp_dnn_inf_keyboard_10_n03085013_23213.png,n03085013_23213.png,0.0,-3.3890746,-3.2242372,-0.11655762
alexnet_w3_mlp_simclrhn_probe0,1,508,NaN,knife,bicycle,0.4,0508_hp_dnn_0.4_bicycle_10_n03792782_19709.png,n03792782_19709.png,0.0,-0.92692643,-0.46553242,-0.32625484
alexnet_w3_mlp_simclrhn_probe0,1,509,NaN,oven,oven,inf,0509_hp_dnn_inf_oven_10_n04111531_3076.png,n04111531_3076.png,1.0,2.8263462,0.83510935,1.408017
alexnet_w3_mlp_simclrhn_probe0,1,510,NaN,airplane,knife,0.4,0510_hp_dnn_0.4_knife_10_n03041632_14774.png,n03041632_14774.png,0.0,-0.05050294,-0.0028758482,-0.03367744
alexnet_w3_mlp_simclrhn_probe0,1,511,NaN,car,car,0.7,0511_hp_dnn_0.7_car_10_n03100240_7703.png,n03100240_7703.png,1.0,1.1612152,0.3200172,0.5948168
alexnet_w3_mlp_simclrhn_probe0,1,512,NaN,clock,bear,0.55,0512_hp_dnn_0.55_bear_10_n02134084_13434.png,n02134084_13434.png,0.0,-1.1272027,-0.54051554,-0.4148505
alexnet_w3_mlp_simclrhn_probe0,1,513,NaN,dog,dog,inf,0513_hp_dnn_inf_dog_10_n02111500_4280.png,n02111500_4280.png,1.0,-1.6874268,-2.3758297,0.48677436
alexnet_w3_mlp_simclrhn_probe0,1,514,NaN,knife,bear,0.55,0514_hp_dnn_0.55_bear_10_n02132136_23853.png,n02132136_23853.png,0.0,-1.3294663,-0.6888632,-0.45297483
alexnet_w3_mlp_simclrhn_probe0,1,515,NaN,bicycle,bicycle,1.5,0515_hp_dnn_1.5_bicycle_10_n03792782_17193.png,n03792782_17193.png,1.0,-1.6231399,-2.9113994,0.9109371
alexnet_w3_mlp_simclrhn_probe0,1,516,NaN,clock,dog,1,0516_hp_dnn_1_dog_10_n02102177_5770.png,n02102177_5770.png,0.0,-2.1596692,-1.5593334,-0.42450148
alexnet_w3_mlp_simclrhn_probe0,1,517,NaN,elephant,bear,0.7,0517_hp_dnn_0.7_bear_10_n02132136_2279.png,n02132136_2279.png,0.0,-1.8909221,-0.71111894,-0.8342468
alexnet_w3_mlp_simclrhn_probe0,1,518,NaN,bear,bear,inf,0518_hp_dnn_inf_bear_10_n02134084_6910.png,n02134084_6910.png,1.0,-1.5774916,-2.0151303,0.30945724
alexnet_w3_mlp_simclrhn_probe0,1,519,NaN,clock,oven,0.7,0519_hp_dnn_0.7_oven_10_n04111531_9041.png,n04111531_9041.png,0.0,-0.29844636,-0.06904224,-0.1622132
alexnet_w3_mlp_simclrhn_probe0,1,520,NaN,cat,cat,1,0520_hp_dnn_1_cat_10_n02123159_5424.png,n02123159_5424.png,1.0,-1.5009966,-1.6803665,0.12683369
alexnet_w3_mlp_simclrhn_probe0,1,521,NaN,clock,bicycle,0.45,0521_hp_dnn_0.45_bicycle_10_n02835271_672.png,n02835271_672.png,0.0,-0.76172745,-0.23188664,-0.37465405
alexnet_w3_mlp_simclrhn_probe0,1,522,NaN,airplane,airplane,0.45,0522_hp_dnn_0.45_airplane_10_n02690373_18111.png,n02690373_18111.png,1.0,-0.2606589,-0.3129264,0.03695872
alexnet_w3_mlp_simclrhn_probe0,1,523,NaN,clock,clock,1,0523_hp_dnn_1_clock_10_n04548280_3013.png,n04548280_3013.png,1.0,3.0188038,0.42250544,1.8358603
alexnet_w3_mlp_simclrhn_probe0,1,524,NaN,cat,dog,0.45,0524_hp_dnn_0.45_dog_10_n02094258_4142.png,n02094258_4142.png,0.0,-1.0139893,-0.42685547,-0.41516635
alexnet_w3_mlp_simclrhn_probe0,1,525,NaN,clock,clock,3,0525_hp_dnn_3_clock_10_n04548280_6919.png,n04548280_6919.png,1.0,4.3785367,-0.6279952,3.5401525
alexnet_w3_mlp_simclrhn_probe0,1,526,NaN,clock,cat,0.4,0526_hp_dnn_0.4_cat_10_n02124075_16814.png,n02124075_16814.png,0.0,-0.5529603,-0.24615295,-0.21694556
alexnet_w3_mlp_simclrhn_probe0,1,527,NaN,clock,clock,1,0527_hp_dnn_1_clock_10_n04548280_3342.png,n04548280_3342.png,1.0,-0.19200134,-1.4702235,0.9038396
alexnet_w3_mlp_simclrhn_probe0,1,528,NaN,clock,boat,1,0528_hp_dnn_1_boat_10_n04612504_31680.png,n04612504_31680.png,0.0,-0.6097429,0.16545968,-0.548151
alexnet_w3_mlp_simclrhn_probe0,1,529,NaN,keyboard,keyboard,inf,0529_hp_dnn_inf_keyboard_10_n03085013_7962.png,n03085013_7962.png,1.0,9.636263,0.6050161,6.3860564
alexnet_w3_mlp_simclrhn_probe0,1,530,NaN,bicycle,bicycle,3,0530_hp_dnn_3_bicycle_10_n02835271_949.png,n02835271_949.png,1.0,4.453276,-1.0673212,3.903652
alexnet_w3_mlp_simclrhn_probe0,1,531,NaN,keyboard,keyboard,1,0531_hp_dnn_1_keyboard_10_n04505470_4228.png,n04505470_4228.png,1.0,0.055362374,-0.4860479,0.38283488
alexnet_w3_mlp_simclrhn_probe0,1,532,NaN,clock,boat,0.7,0532_hp_dnn_0.7_boat_10_n03344393_3219.png,n03344393_3219.png,0.0,-1.4117025,-0.6521111,-0.53711224
alexnet_w3_mlp_simclrhn_probe0,1,533,NaN,chair,elephant,3,0533_hp_dnn_3_elephant_10_n02504458_3399.png,n02504458_3399.png,0.0,-6.9341364,-4.1449637,-1.972243
alexnet_w3_mlp_simclrhn_probe0,1,534,NaN,clock,bird,0.55,0534_hp_dnn_0.55_bird_10_n01616318_12459.png,n01616318_12459.png,0.0,-1.0059295,-0.12669368,-0.62171364
alexnet_w3_mlp_simclrhn_probe0,1,535,NaN,elephant,elephant,0.4,0535_hp_dnn_0.4_elephant_10_n02504013_1846.png,n02504013_1846.png,1.0,-0.30324286,-0.31364954,0.0073586293
alexnet_w3_mlp_simclrhn_probe0,1,536,NaN,clock,bicycle,0.55,0536_hp_dnn_0.55_bicycle_10_n03792782_5097.png,n03792782_5097.png,0.0,-0.84046674,0.15179043,-0.7016318
alexnet_w3_mlp_simclrhn_probe0,1,537,NaN,keyboard,bottle,3,0537_hp_dnn_3_bottle_10_n02823428_5115.png,n02823428_5115.png,0.0,-3.4607918,-1.2521058,-1.5617768
alexnet_w3_mlp_simclrhn_probe0,1,538,NaN,keyboard,keyboard,inf,0538_hp_dnn_inf_keyboard_10_n03085013_21282.png,n03085013_21282.png,1.0,3.2211692,2.649708,0.4040841
alexnet_w3_mlp_simclrhn_probe0,1,539,NaN,clock,oven,0.4,0539_hp_dnn_0.4_oven_10_n04111531_1815.png,n04111531_1815.png,0.0,-0.69828427,-0.0055839964,-0.48981306
alexnet_w3_mlp_simclrhn_probe0,1,540,NaN,clock,chair,1,0540_hp_dnn_1_chair_10_n02791124_5268.png,n02791124_5268.png,0.0,-2.1345391,-1.4948587,-0.45232233
alexnet_w3_mlp_simclrhn_probe0,1,541,NaN,clock,airplane,0.55,0541_hp_dnn_0.55_airplane_10_n02690373_3035.png,n02690373_3035.png,0.0,-0.46618235,-0.1773872,-0.20420903
alexnet_w3_mlp_simclrhn_probe0,1,542,NaN,dog,dog,inf,0542_hp_dnn_inf_dog_10_n02107683_1460.png,n02107683_1460.png,1.0,-1.9485095,-5.05885,2.1993427
alexnet_w3_mlp_simclrhn_probe0,1,543,NaN,boat,boat,inf,0543_hp_dnn_inf_boat_10_n02951358_31813.png,n02951358_31813.png,1.0,3.154626,1.8860487,0.89701957
alexnet_w3_mlp_simclrhn_probe0,1,544,NaN,clock,bird,0.4,0544_hp_dnn_0.4_bird_10_n01797886_16808.png,n01797886_16808.png,0.0,-0.6584549,-0.312277,-0.24478474
alexnet_w3_mlp_simclrhn_probe0,1,545,NaN,clock,elephant,0.45,0545_hp_dnn_0.45_elephant_10_n02504458_4767.png,n02504458_4767.png,0.0,-0.6542299,-0.018165827,-0.4497652
alexnet_w3_mlp_simclrhn_probe0,1,546,NaN,bicycle,knife,3,0546_hp_dnn_3_knife_10_n03041632_41493.png,n03041632_41493.png,0.0,-3.563988,-2.163483,-0.9903067
alexnet_w3_mlp_simclrhn_probe0,1,547,NaN,elephant,elephant,3,0547_hp_dnn_3_elephant_10_n02504458_3329.png,n02504458_3329.png,1.0,-0.8659875,-2.453822,1.1227684
alexnet_w3_mlp_simclrhn_probe0,1,548,NaN,clock,cat,0.45,0548_hp_dnn_0.45_cat_10_n02124075_12467.png,n02124075_12467.png,0.0,-1.4468971,0.012006353,-1.0316006
alexnet_w3_mlp_simclrhn_probe0,1,549,NaN,clock,truck,0.7,0549_hp_dnn_0.7_truck_10_n03417042_6467.png,n03417042_6467.png,0.0,-1.6184728,0.22890492,-1.3062934
alexnet_w3_mlp_simclrhn_probe0,1,550,NaN,airplane,airplane,inf,0550_hp_dnn_inf_airplane_10_n02690373_734.png,n02690373_734.png,1.0,8.833769,-3.67374,8.844145
alexnet_w3_mlp_simclrhn_probe0,1,551,NaN,clock,car,0.4,0551_hp_dnn_0.4_car_10_n02814533_85296.png,n02814533_85296.png,0.0,-0.72369385,0.05402558,-0.5499307
alexnet_w3_mlp_simclrhn_probe0,1,552,NaN,clock,elephant,0.7,0552_hp_dnn_0.7_elephant_10_n02504013_18005.png,n02504013_18005.png,0.0,-1.9268357,-0.71337396,-0.85804695
alexnet_w3_mlp_simclrhn_probe0,1,553,NaN,clock,clock,0.45,0553_hp_dnn_0.45_clock_10_n02708093_1495.png,n02708093_1495.png,1.0,0.39058912,-0.40783486,0.564571
alexnet_w3_mlp_simclrhn_probe0,1,554,NaN,car,car,1.5,0554_hp_dnn_1.5_car_10_n04285008_3462.png,n04285008_3462.png,1.0,-0.63669723,-1.3901367,0.53276217
alexnet_w3_mlp_simclrhn_probe0,1,555,NaN,clock,truck,0.4,0555_hp_dnn_0.4_truck_10_n03417042_22297.png,n03417042_22297.png,0.0,-0.5017015,0.07687863,-0.4091179
alexnet_w3_mlp_simclrhn_probe0,1,556,NaN,bicycle,chair,3,0556_hp_dnn_3_chair_10_n04429376_7279.png,n04429376_7279.png,0.0,-4.1742806,-1.3473821,-1.9989191
alexnet_w3_mlp_simclrhn_probe0,1,557,NaN,bicycle,bicycle,3,0557_hp_dnn_3_bicycle_10_n02835271_6919.png,n02835271_6919.png,1.0,3.129137,-2.953181,4.3008485
alexnet_w3_mlp_simclrhn_probe0,1,558,NaN,clock,oven,0.55,0558_hp_dnn_0.55_oven_10_n04111531_2260.png,n04111531_2260.png,0.0,-1.0019816,0.7557649,-1.2429144
alexnet_w3_mlp_simclrhn_probe0,1,559,NaN,clock,bear,0.7,0559_hp_dnn_0.7_bear_10_n02134084_5794.png,n02134084_5794.png,0.0,-2.2531695,-0.40412533,-1.3074718
alexnet_w3_mlp_simclrhn_probe0,1,560,NaN,clock,airplane,0.7,0560_hp_dnn_0.7_airplane_10_n02690373_10397.png,n02690373_10397.png,0.0,-0.9038832,0.3916931,-0.9161108
alexnet_w3_mlp_simclrhn_probe0,1,561,NaN,clock,elephant,0.4,0561_hp_dnn_0.4_elephant_10_n02504458_2041.png,n02504458_2041.png,0.0,-0.51326716,-0.08818611,-0.3005777
alexnet_w3_mlp_simclrhn_probe0,1,562,NaN,clock,chair,1,0562_hp_dnn_1_chair_10_n04429376_7732.png,n04429376_7732.png,0.0,-1.031531,-0.80489606,-0.16025509
alexnet_w3_mlp_simclrhn_probe0,1,563,NaN,airplane,airplane,0.4,0563_hp_dnn_0.4_airplane_10_n02690373_4788.png,n02690373_4788.png,1.0,0.018501962,-0.021908246,0.02857433
alexnet_w3_mlp_simclrhn_probe0,1,564,NaN,clock,dog,0.55,0564_hp_dnn_0.55_dog_10_n02097474_2799.png,n02097474_2799.png,0.0,-2.1060143,-0.10784579,-1.4129184
alexnet_w3_mlp_simclrhn_probe0,1,565,NaN,knife,bear,1.5,0565_hp_dnn_1.5_bear_10_n02134084_17849.png,n02134084_17849.png,0.0,-1.4778497,-0.94410944,-0.37741137
alexnet_w3_mlp_simclrhn_probe0,1,566,NaN,dog,dog,inf,0566_hp_dnn_inf_dog_10_n02086646_7064.png,n02086646_7064.png,1.0,-0.70625234,-3.3078563,1.8396119
alexnet_w3_mlp_simclrhn_probe0,1,567,NaN,clock,truck,0.55,0567_hp_dnn_0.55_truck_10_n03417042_7061.png,n03417042_7061.png,0.0,-0.57158005,0.42041922,-0.7014494
alexnet_w3_mlp_simclrhn_probe0,1,568,NaN,bicycle,bird,1,0568_hp_dnn_1_bird_10_n01820546_3605.png,n01820546_3605.png,0.0,-2.3061717,-1.3565087,-0.6715131
alexnet_w3_mlp_simclrhn_probe0,1,569,NaN,clock,bear,0.4,0569_hp_dnn_0.4_bear_10_n02133161_2813.png,n02133161_2813.png,0.0,-1.7064672,-0.0519401,-1.1699274
alexnet_w3_mlp_simclrhn_probe0,1,570,NaN,clock,bear,0.45,0570_hp_dnn_0.45_bear_10_n02132136_16636.png,n02132136_16636.png,0.0,-0.66873455,-0.3626671,-0.21642236
alexnet_w3_mlp_simclrhn_probe0,1,571,NaN,chair,oven,1.5,0571_hp_dnn_1.5_oven_10_n04111531_14959.png,n04111531_14959.png,0.0,-3.5391133,-0.773826,-1.9553535
alexnet_w3_mlp_simclrhn_probe0,1,572,NaN,clock,cat,0.45,0572_hp_dnn_0.45_cat_10_n02124075_5453.png,n02124075_5453.png,0.0,-0.9279268,-0.38903806,-0.38105187
alexnet_w3_mlp_simclrhn_probe0,1,573,NaN,elephant,cat,1,0573_hp_dnn_1_cat_10_n02124075_11528.png,n02124075_11528.png,0.0,-2.3784704,-2.158939,-0.15523224
alexnet_w3_mlp_simclrhn_probe0,1,574,NaN,cat,cat,1,0574_hp_dnn_1_cat_10_n02123159_3454.png,n02123159_3454.png,1.0,-1.3009996,-1.8746539,0.40563485
alexnet_w3_mlp_simclrhn_probe0,1,575,NaN,clock,bird,0.45,0575_hp_dnn_0.45_bird_10_n02025239_2227.png,n02025239_2227.png,0.0,-0.6675977,-0.5086482,-0.112394266
alexnet_w3_mlp_simclrhn_probe0,1,576,NaN,clock,chair,0.7,0576_hp_dnn_0.7_chair_10_n03376595_12256.png,n03376595_12256.png,0.0,-1.5614132,-0.4923893,-0.75591403
alexnet_w3_mlp_simclrhn_probe0,1,577,NaN,clock,clock,1.5,0577_hp_dnn_1.5_clock_10_n02708093_6591.png,n02708093_6591.png,1.0,-0.71260196,-2.4446793,1.2247636
alexnet_w3_mlp_simclrhn_probe0,1,578,NaN,clock,chair,0.55,0578_hp_dnn_0.55_chair_10_n04099969_34144.png,n04099969_34144.png,0.0,-1.1768029,0.28083375,-1.0307047
alexnet_w3_mlp_simclrhn_probe0,1,579,NaN,elephant,bear,0.55,0579_hp_dnn_0.55_bear_10_n02132136_3563.png,n02132136_3563.png,0.0,-1.8837861,-1.1526966,-0.51695836
alexnet_w3_mlp_simclrhn_probe0,1,580,NaN,elephant,elephant,1,0580_hp_dnn_1_elephant_10_n02504013_6671.png,n02504013_6671.png,1.0,0.046219613,-1.8361101,1.3310081
alexnet_w3_mlp_simclrhn_probe0,1,581,NaN,clock,keyboard,0.7,0581_hp_dnn_0.7_keyboard_10_n03085013_22067.png,n03085013_22067.png,0.0,-0.43244168,-0.01391529,-0.29594284
alexnet_w3_mlp_simclrhn_probe0,1,582,NaN,truck,truck,inf,0582_hp_dnn_inf_truck_10_n03796401_1458.png,n03796401_1458.png,1.0,-0.96740264,-4.2599096,2.328154
alexnet_w3_mlp_simclrhn_probe0,1,583,NaN,clock,bottle,0.45,0583_hp_dnn_0.45_bottle_10_n04591713_807.png,n04591713_807.png,0.0,-0.64616966,0.018375456,-0.46990436
alexnet_w3_mlp_simclrhn_probe0,1,584,NaN,clock,car,1,0584_hp_dnn_1_car_10_n02814533_22693.png,n02814533_22693.png,0.0,-2.626564,1.0213909,-2.5794938
alexnet_w3_mlp_simclrhn_probe0,1,585,NaN,clock,car,0.7,0585_hp_dnn_0.7_car_10_n02814533_5278.png,n02814533_5278.png,0.0,-0.6143628,0.43393084,-0.7412555
alexnet_w3_mlp_simclrhn_probe0,1,586,NaN,boat,boat,1.5,0586_hp_dnn_1.5_boat_10_n03662601_10240.png,n03662601_10240.png,1.0,-1.1282938,-1.3177867,0.13399175
alexnet_w3_mlp_simclrhn_probe0,1,587,NaN,airplane,airplane,inf,0587_hp_dnn_inf_airplane_10_n02690373_9673.png,n02690373_9673.png,1.0,4.1932635,-1.0696648,3.7214525
alexnet_w3_mlp_simclrhn_probe0,1,588,NaN,bird,bird,0.7,0588_hp_dnn_0.7_bird_10_n02009229_6029.png,n02009229_6029.png,1.0,-0.33243954,-0.9679978,0.44940755
alexnet_w3_mlp_simclrhn_probe0,1,589,NaN,clock,clock,0.4,0589_hp_dnn_0.4_clock_10_n02708093_2580.png,n02708093_2580.png,1.0,0.9963129,-0.29167905,0.9107479
alexnet_w3_mlp_simclrhn_probe0,1,590,NaN,clock,elephant,0.4,0590_hp_dnn_0.4_elephant_10_n02504013_295.png,n02504013_295.png,0.0,-0.735327,-0.042262286,-0.49007076
alexnet_w3_mlp_simclrhn_probe0,1,591,NaN,clock,car,0.7,0591_hp_dnn_0.7_car_10_n04285008_9893.png,n04285008_9893.png,0.0,0.13688944,0.6708079,-0.37753737
alexnet_w3_mlp_simclrhn_probe0,1,592,NaN,bicycle,chair,1.5,0592_hp_dnn_1.5_chair_10_n03376595_6850.png,n03376595_6850.png,0.0,-2.0879378,-1.8463216,-0.17084849
alexnet_w3_mlp_simclrhn_probe0,1,593,NaN,car,boat,3,0593_hp_dnn_3_boat_10_n03662601_15713.png,n03662601_15713.png,0.0,-0.9186239,-0.745631,-0.12232449
alexnet_w3_mlp_simclrhn_probe0,1,594,NaN,airplane,clock,0.4,0594_hp_dnn_0.4_clock_10_n04548280_9867.png,n04548280_9867.png,0.0,-0.11016051,-0.02942754,-0.057086833
alexnet_w3_mlp_simclrhn_probe0,1,595,NaN,airplane,airplane,1.5,0595_hp_dnn_1.5_airplane_10_n02690373_1450.png,n02690373_1450.png,1.0,1.490022,0.033680107,1.0297892
alexnet_w3_mlp_simclrhn_probe0,1,596,NaN,clock,bicycle,0.45,0596_hp_dnn_0.45_bicycle_10_n03792782_7787.png,n03792782_7787.png,0.0,-1.2094088,-0.4261386,-0.5538556
alexnet_w3_mlp_simclrhn_probe0,1,597,NaN,clock,chair,0.45,0597_hp_dnn_0.45_chair_10_n04099969_1219.png,n04099969_1219.png,0.0,-0.40896726,0.2313958,-0.45280504
alexnet_w3_mlp_simclrhn_probe0,1,598,NaN,keyboard,keyboard,0.55,0598_hp_dnn_0.55_keyboard_10_n03085013_8325.png,n03085013_8325.png,1.0,0.9763304,-0.13530579,0.7860455
alexnet_w3_mlp_simclrhn_probe0,1,599,NaN,clock,bicycle,0.55,0599_hp_dnn_0.55_bicycle_10_n02835271_14732.png,n02835271_14732.png,0.0,-0.7412306,-0.02847445,-0.5039947
alexnet_w3_mlp_simclrhn_probe0,1,600,NaN,airplane,airplane,1.5,0600_hp_dnn_1.5_airplane_10_n02690373_4176.png,n02690373_4176.png,1.0,1.3291095,-0.95251286,1.6133507
alexnet_w3_mlp_simclrhn_probe0,1,601,NaN,elephant,bird,1,0601_hp_dnn_1_bird_10_n01534433_905.png,n01534433_905.png,0.0,-1.7459824,-1.2741729,-0.3336197
alexnet_w3_mlp_simclrhn_probe0,1,602,NaN,airplane,truck,1.5,0602_hp_dnn_1.5_truck_10_n04467665_45306.png,n04467665_45306.png,0.0,-1.2290901,0.122639894,-0.95581746
alexnet_w3_mlp_simclrhn_probe0,1,603,NaN,elephant,elephant,3,0603_hp_dnn_3_elephant_10_n02504458_1617.png,n02504458_1617.png,1.0,-2.6382146,-3.4173417,0.5509261
alexnet_w3_mlp_simclrhn_probe0,1,604,NaN,clock,oven,0.45,0604_hp_dnn_0.45_oven_10_n04111531_4148.png,n04111531_4148.png,0.0,-1.0835583,-0.15724693,-0.65500104
alexnet_w3_mlp_simclrhn_probe0,1,605,NaN,clock,bird,0.55,0605_hp_dnn_0.55_bird_10_n02009912_91.png,n02009912_91.png,0.0,-1.7704794,-0.27534732,-1.0572181
alexnet_w3_mlp_simclrhn_probe0,1,606,NaN,airplane,knife,3,0606_hp_dnn_3_knife_10_n03041632_33739.png,n03041632_33739.png,0.0,-0.97134995,-0.9392753,-0.02268019
alexnet_w3_mlp_simclrhn_probe0,1,607,NaN,airplane,airplane,1,0607_hp_dnn_1_airplane_10_n02690373_9318.png,n02690373_9318.png,1.0,2.8109903,0.17803271,1.8617823
alexnet_w3_mlp_simclrhn_probe0,1,608,NaN,clock,bird,0.4,0608_hp_dnn_0.4_bird_10_n01828970_8669.png,n01828970_8669.png,0.0,-0.8013524,0.11471548,-0.64775777
alexnet_w3_mlp_simclrhn_probe0,1,609,NaN,chair,truck,1.5,0609_hp_dnn_1.5_truck_10_n04467665_58762.png,n04467665_58762.png,0.0,-1.3986144,-0.43287405,-0.68288153
alexnet_w3_mlp_simclrhn_probe0,1,610,NaN,car,car,3,0610_hp_dnn_3_car_10_n03100240_11417.png,n03100240_11417.png,1.0,2.247293,-0.60057306,2.0137455
alexnet_w3_mlp_simclrhn_probe0,1,611,NaN,bicycle,bicycle,inf,0611_hp_dnn_inf_bicycle_10_n03792782_16179.png,n03792782_16179.png,1.0,3.7536674,-4.2369485,5.650219
alexnet_w3_mlp_simclrhn_probe0,1,612,NaN,clock,car,1,0612_hp_dnn_1_car_10_n04285008_8444.png,n04285008_8444.png,0.0,-1.0230008,0.29013744,-0.92852896
alexnet_w3_mlp_simclrhn_probe0,1,613,NaN,chair,chair,inf,0613_hp_dnn_inf_chair_10_n02791124_3240.png,n02791124_3240.png,1.0,-0.159148,-1.1915547,0.7300218
alexnet_w3_mlp_simclrhn_probe0,1,614,NaN,clock,bicycle,0.7,0614_hp_dnn_0.7_bicycle_10_n02835271_1035.png,n02835271_1035.png,0.0,-0.82599777,-0.30692542,-0.3670396
alexnet_w3_mlp_simclrhn_probe0,1,615,NaN,clock,bicycle,0.55,0615_hp_dnn_0.55_bicycle_10_n02835271_6167.png,n02835271_6167.png,0.0,0.07311353,0.27175808,-0.1404629
alexnet_w3_mlp_simclrhn_probe0,1,616,NaN,clock,bottle,3,0616_hp_dnn_3_bottle_10_n02823428_6830.png,n02823428_6830.png,0.0,-0.25975242,2.0000532,-1.597924
alexnet_w3_mlp_simclrhn_probe0,1,617,NaN,clock,knife,0.45,0617_hp_dnn_0.45_knife_10_n03041632_17349.png,n03041632_17349.png,0.0,-0.011024233,0.052618604,-0.04500228
alexnet_w3_mlp_simclrhn_probe0,1,618,NaN,airplane,airplane,inf,0618_hp_dnn_inf_airplane_10_n02690373_2024.png,n02690373_2024.png,1.0,7.681407,1.12396,4.636815
alexnet_w3_mlp_simclrhn_probe0,1,619,NaN,clock,bottle,1,0619_hp_dnn_1_bottle_10_n02823428_8034.png,n02823428_8034.png,0.0,-2.0423687,-0.5504436,-1.0549504
alexnet_w3_mlp_simclrhn_probe0,1,620,NaN,clock,chair,1,0620_hp_dnn_1_chair_10_n02791124_6786.png,n02791124_6786.png,0.0,-1.0083245,-0.36932203,-0.45184296
alexnet_w3_mlp_simclrhn_probe0,1,621,NaN,clock,chair,0.45,0621_hp_dnn_0.45_chair_10_n03376595_10689.png,n03376595_10689.png,0.0,-0.1513893,0.11958253,-0.19160603
alexnet_w3_mlp_simclrhn_probe0,1,622,NaN,clock,knife,0.4,0622_hp_dnn_0.4_knife_10_n03041632_22734.png,n03041632_22734.png,0.0,-0.7188703,0.060967248,-0.55142844
alexnet_w3_mlp_simclrhn_probe0,1,623,NaN,clock,oven,0.4,0623_hp_dnn_0.4_oven_10_n04111531_10521.png,n04111531_10521.png,0.0,-0.67897725,-0.24120073,-0.30955476
alexnet_w3_mlp_simclrhn_probe0,1,624,NaN,bird,bird,inf,0624_hp_dnn_inf_bird_10_n02007558_37147.png,n02007558_37147.png,1.0,-3.4096172,-5.387615,1.3986559
alexnet_w3_mlp_simclrhn_probe0,1,625,NaN,chair,oven,3,0625_hp_dnn_3_oven_10_n04111531_14753.png,n04111531_14753.png,0.0,-2.5557604,-0.31564078,-1.5840038
alexnet_w3_mlp_simclrhn_probe0,1,626,NaN,clock,bottle,0.7,0626_hp_dnn_0.7_bottle_10_n03983396_4990.png,n03983396_4990.png,0.0,-1.5026138,-0.1738904,-0.9395494
alexnet_w3_mlp_simclrhn_probe0,1,627,NaN,clock,cat,0.45,0627_hp_dnn_0.45_cat_10_n02125311_25104.png,n02125311_25104.png,0.0,-0.4138997,-0.21299696,-0.14205968
alexnet_w3_mlp_simclrhn_probe0,1,628,NaN,clock,truck,0.55,0628_hp_dnn_0.55_truck_10_n03417042_5600.png,n03417042_5600.png,0.0,-0.03045542,0.4741151,-0.35678527
