subj,session,trial,rt,object_response,category,condition,imagename,filename,is_correct,targ_act,max_nontarg_act,decision_margin
vit_b_16,1,1,NaN,clock,boat,0.7,0001_hp_dnn_0.7_boat_10_n03662601_12531.png,n03662601_12531.png,0.0,-0.8922971,4.167502,-3.5778184
vit_b_16,1,2,NaN,chair,chair,0.7,0002_hp_dnn_0.7_chair_10_n04429376_22819.png,n04429376_22819.png,1.0,4.5141354,3.8343194,0.48070252
vit_b_16,1,3,NaN,knife,elephant,0.45,0003_hp_dnn_0.45_elephant_10_n02504458_582.png,n02504458_582.png,0.0,-0.549916,3.8113964,-3.0839136
vit_b_16,1,4,NaN,knife,bicycle,0.7,0004_hp_dnn_0.7_bicycle_10_n03792782_41173.png,n03792782_41173.png,0.0,-0.50733805,3.716937,-2.9870136
vit_b_16,1,5,NaN,knife,cat,1.5,0005_hp_dnn_1.5_cat_10_n02123597_7071.png,n02123597_7071.png,0.0,0.11992098,2.3729486,-1.5931312
vit_b_16,1,6,NaN,knife,cat,0.4,0006_hp_dnn_0.4_cat_10_n02123394_2386.png,n02123394_2386.png,0.0,-0.2068445,3.2443442,-2.440359
vit_b_16,1,7,NaN,oven,oven,inf,0007_hp_dnn_inf_oven_10_n04111531_2201.png,n04111531_2201.png,1.0,9.8482895,1.390405,5.980628
vit_b_16,1,8,NaN,clock,cat,0.45,0008_hp_dnn_0.45_cat_10_n02125311_43276.png,n02125311_43276.png,0.0,-0.24344139,4.3734818,-3.2646577
vit_b_16,1,9,NaN,clock,dog,0.45,0009_hp_dnn_0.45_dog_10_n02111500_2439.png,n02111500_2439.png,0.0,-0.7748029,4.0482326,-3.4104009
vit_b_16,1,10,NaN,knife,bicycle,0.4,0010_hp_dnn_0.4_bicycle_10_n02835271_12599.png,n02835271_12599.png,0.0,-0.58831304,4.9684043,-3.9291925
vit_b_16,1,11,NaN,clock,dog,0.45,0011_hp_dnn_0.45_dog_10_n02096585_391.png,n02096585_391.png,0.0,-0.4964289,3.8290977,-3.0586092
vit_b_16,1,12,NaN,knife,car,0.7,0012_hp_dnn_0.7_car_10_n04285008_12138.png,n04285008_12138.png,0.0,2.0538104,2.9441776,-0.6295847
vit_b_16,1,13,NaN,clock,car,0.7,0013_hp_dnn_0.7_car_10_n02814533_44083.png,n02814533_44083.png,0.0,-0.60256726,2.344072,-2.0835886
vit_b_16,1,14,NaN,oven,oven,inf,0014_hp_dnn_inf_oven_10_n04111531_2447.png,n04111531_2447.png,1.0,9.20089,0.39048517,6.229897
vit_b_16,1,15,NaN,clock,chair,0.55,0015_hp_dnn_0.55_chair_10_n03376595_9524.png,n03376595_9524.png,0.0,0.33565024,2.7379818,-1.698705
vit_b_16,1,16,NaN,clock,elephant,0.55,0016_hp_dnn_0.55_elephant_10_n02504458_3092.png,n02504458_3092.png,0.0,1.1526885,2.9977386,-1.3046474
vit_b_16,1,17,NaN,knife,truck,0.4,0017_hp_dnn_0.4_truck_10_n04467665_42126.png,n04467665_42126.png,0.0,-1.3609204,3.8776894,-3.7042565
vit_b_16,1,18,NaN,elephant,elephant,inf,0018_hp_dnn_inf_elephant_10_n02504458_12303.png,n02504458_12303.png,1.0,6.5358677,0.30304962,4.407268
vit_b_16,1,19,NaN,clock,clock,0.4,0019_hp_dnn_0.4_clock_10_n04548280_7243.png,n04548280_7243.png,1.0,3.701994,1.644046,1.4551891
vit_b_16,1,20,NaN,knife,airplane,0.4,0020_hp_dnn_0.4_airplane_10_n02690373_6978.png,n02690373_6978.png,0.0,0.46998978,5.0676107,-3.251009
vit_b_16,1,21,NaN,boat,boat,3,0021_hp_dnn_3_boat_10_n04612504_4773.png,n04612504_4773.png,1.0,2.372867,0.14139087,1.5778921
vit_b_16,1,22,NaN,bottle,bottle,inf,0022_hp_dnn_inf_bottle_10_n04560804_5979.png,n04560804_5979.png,1.0,0.92804044,0.60979384,0.22503434
vit_b_16,1,23,NaN,airplane,airplane,3,0023_hp_dnn_3_airplane_10_n02690373_21922.png,n02690373_21922.png,1.0,8.969035,1.0039883,5.6321387
vit_b_16,1,24,NaN,clock,bird,0.4,0024_hp_dnn_0.4_bird_10_n01820546_6431.png,n01820546_6431.png,0.0,0.14134122,3.2375538,-2.189353
vit_b_16,1,25,NaN,bird,bird,inf,0025_hp_dnn_inf_bird_10_n01795545_9555.png,n01795545_9555.png,1.0,1.2755334,0.30656812,0.68516195
vit_b_16,1,26,NaN,truck,truck,3,0026_hp_dnn_3_truck_10_n04467665_45796.png,n04467665_45796.png,1.0,2.988471,0.5921984,1.6944207
vit_b_16,1,27,NaN,chair,oven,1,0027_hp_dnn_1_oven_10_n04111531_5906.png,n04111531_5906.png,0.0,0.62001026,3.1624196,-1.797755
vit_b_16,1,28,NaN,knife,bicycle,0.45,0028_hp_dnn_0.45_bicycle_10_n03792782_6133.png,n03792782_6133.png,0.0,-0.60181606,3.992772,-3.2488647
vit_b_16,1,29,NaN,keyboard,keyboard,1,0029_hp_dnn_1_keyboard_10_n04505470_4741.png,n04505470_4741.png,1.0,5.449082,2.061199,2.395595
vit_b_16,1,30,NaN,chair,car,1.5,0030_hp_dnn_1.5_car_10_n02814533_5085.png,n02814533_5085.png,0.0,1.0460062,2.1010332,-0.74601674
vit_b_16,1,31,NaN,clock,chair,0.4,0031_hp_dnn_0.4_chair_10_n04429376_10628.png,n04429376_10628.png,0.0,0.48612776,3.9633312,-2.458754
vit_b_16,1,32,NaN,clock,clock,0.55,0032_hp_dnn_0.55_clock_10_n02708093_5311.png,n02708093_5311.png,1.0,3.2857351,1.4658571,1.2868481
vit_b_16,1,33,NaN,chair,chair,0.55,0033_hp_dnn_0.55_chair_10_n03376595_10460.png,n03376595_10460.png,1.0,3.1474223,1.9778799,0.8269914
vit_b_16,1,34,NaN,bear,bear,3,0034_hp_dnn_3_bear_10_n02133161_1118.png,n02133161_1118.png,1.0,2.4311674,0.8384211,1.1262417
vit_b_16,1,35,NaN,knife,knife,3,0035_hp_dnn_3_knife_10_n03041632_11603.png,n03041632_11603.png,1.0,2.8560076,0.64892393,1.5606439
vit_b_16,1,36,NaN,knife,dog,0.4,0036_hp_dnn_0.4_dog_10_n02108422_7493.png,n02108422_7493.png,0.0,-0.6329875,3.8945334,-3.201441
vit_b_16,1,37,NaN,keyboard,keyboard,3,0037_hp_dnn_3_keyboard_10_n04505470_550.png,n04505470_550.png,1.0,6.6984787,0.84409934,4.1396713
vit_b_16,1,38,NaN,knife,dog,1.5,0038_hp_dnn_1.5_dog_10_n02097047_1003.png,n02097047_1003.png,0.0,-0.5101287,1.7102169,-1.5700214
vit_b_16,1,39,NaN,knife,bird,1.5,0039_hp_dnn_1.5_bird_10_n01616318_9819.png,n01616318_9819.png,0.0,-0.48033753,1.793252,-1.6076707
vit_b_16,1,40,NaN,clock,cat,0.55,0040_hp_dnn_0.55_cat_10_n02123597_1016.png,n02123597_1016.png,0.0,-0.45306388,3.2260818,-2.601549
vit_b_16,1,41,NaN,knife,bear,1,0041_hp_dnn_1_bear_10_n02134418_971.png,n02134418_971.png,0.0,1.1933752,2.898294,-1.2055596
vit_b_16,1,42,NaN,clock,bear,0.7,0042_hp_dnn_0.7_bear_10_n02132136_10944.png,n02132136_10944.png,0.0,-0.80554664,3.8673985,-3.3042712
vit_b_16,1,43,NaN,clock,elephant,1,0043_hp_dnn_1_elephant_10_n02504458_4439.png,n02504458_4439.png,0.0,-0.7471928,3.9035978,-3.2886057
vit_b_16,1,44,NaN,keyboard,keyboard,0.4,0044_hp_dnn_0.4_keyboard_10_n03085013_2362.png,n03085013_2362.png,1.0,4.5464573,3.4031038,0.808473
vit_b_16,1,45,NaN,knife,dog,1.5,0045_hp_dnn_1.5_dog_10_n02097474_9488.png,n02097474_9488.png,0.0,-0.4807237,2.0657058,-1.8005975
vit_b_16,1,46,NaN,clock,clock,inf,0046_hp_dnn_inf_clock_10_n04548280_3308.png,n04548280_3308.png,1.0,5.7355976,0.4864739,3.711691
vit_b_16,1,47,NaN,clock,bear,1.5,0047_hp_dnn_1.5_bear_10_n02133161_334.png,n02133161_334.png,0.0,-0.19061925,1.9429756,-1.5086795
vit_b_16,1,48,NaN,clock,knife,0.45,0048_hp_dnn_0.45_knife_10_n03041632_6708.png,n03041632_6708.png,0.0,2.7871158,3.4063718,-0.43788013
vit_b_16,1,49,NaN,clock,car,0.55,0049_hp_dnn_0.55_car_10_n02814533_81092.png,n02814533_81092.png,0.0,-1.0033308,2.5002754,-2.477424
vit_b_16,1,50,NaN,knife,bottle,0.45,0050_hp_dnn_0.45_bottle_10_n03937543_11897.png,n03937543_11897.png,0.0,4.144046,6.040336,-1.3408798
vit_b_16,1,51,NaN,airplane,airplane,3,0051_hp_dnn_3_airplane_10_n02690373_4429.png,n02690373_4429.png,1.0,6.9032555,3.0409353,2.731073
vit_b_16,1,52,NaN,clock,knife,0.4,0052_hp_dnn_0.4_knife_10_n03041632_22964.png,n03041632_22964.png,0.0,3.0614202,3.6057389,-0.38489142
vit_b_16,1,53,NaN,knife,knife,1.5,0053_hp_dnn_1.5_knife_10_n03041632_33075.png,n03041632_33075.png,1.0,1.660139,0.91682297,0.5256038
vit_b_16,1,54,NaN,clock,bird,0.7,0054_hp_dnn_0.7_bird_10_n02006656_1412.png,n02006656_1412.png,0.0,-0.018333508,4.1804814,-2.9690106
vit_b_16,1,55,NaN,clock,clock,1,0055_hp_dnn_1_clock_10_n02708093_3173.png,n02708093_3173.png,1.0,6.5612693,0.44534776,4.3246098
vit_b_16,1,56,NaN,knife,keyboard,0.45,0056_hp_dnn_0.45_keyboard_10_n03085013_22016.png,n03085013_22016.png,0.0,0.2537642,3.535717,-2.320691
vit_b_16,1,57,NaN,clock,elephant,0.55,0057_hp_dnn_0.55_elephant_10_n02504458_11214.png,n02504458_11214.png,0.0,-0.7168044,4.110672,-3.4135413
vit_b_16,1,58,NaN,knife,chair,0.7,0058_hp_dnn_0.7_chair_10_n04099969_13775.png,n04099969_13775.png,0.0,2.6172235,2.998008,-0.2692553
vit_b_16,1,59,NaN,clock,bicycle,0.4,0059_hp_dnn_0.4_bicycle_10_n02835271_8098.png,n02835271_8098.png,0.0,-0.79740906,3.4014378,-2.969033
vit_b_16,1,60,NaN,knife,clock,0.4,0060_hp_dnn_0.4_clock_10_n04548280_1126.png,n04548280_1126.png,0.0,2.7729633,4.356294,-1.119584
vit_b_16,1,61,NaN,knife,bicycle,0.45,0061_hp_dnn_0.45_bicycle_10_n02835271_2050.png,n02835271_2050.png,0.0,0.105003,3.8293488,-2.63351
vit_b_16,1,62,NaN,chair,oven,1,0062_hp_dnn_1_oven_10_n04111531_891.png,n04111531_891.png,0.0,0.98008305,2.2210846,-0.8775207
vit_b_16,1,63,NaN,clock,bottle,0.7,0063_hp_dnn_0.7_bottle_10_n02823428_6201.png,n02823428_6201.png,0.0,2.045046,3.3384552,-0.9145784
vit_b_16,1,64,NaN,clock,bicycle,0.7,0064_hp_dnn_0.7_bicycle_10_n02835271_20175.png,n02835271_20175.png,0.0,2.6707692,3.0251534,-0.25058746
vit_b_16,1,65,NaN,keyboard,cat,3,0065_hp_dnn_3_cat_10_n02123597_13175.png,n02123597_13175.png,0.0,-0.27050754,1.6233392,-1.3391519
vit_b_16,1,66,NaN,clock,dog,0.4,0066_hp_dnn_0.4_dog_10_n02085936_4391.png,n02085936_4391.png,0.0,-0.8187059,3.0945015,-2.7670555
vit_b_16,1,67,NaN,airplane,airplane,1.5,0067_hp_dnn_1.5_airplane_10_n02690373_8846.png,n02690373_8846.png,1.0,4.488055,2.7701447,1.2147462
vit_b_16,1,68,NaN,cat,cat,1.5,0068_hp_dnn_1.5_cat_10_n02123597_10301.png,n02123597_10301.png,1.0,3.392972,0.66826874,1.9266562
vit_b_16,1,69,NaN,elephant,elephant,0.7,0069_hp_dnn_0.7_elephant_10_n02504458_6135.png,n02504458_6135.png,1.0,6.3510056,2.0071752,3.0715518
vit_b_16,1,70,NaN,clock,keyboard,0.45,0070_hp_dnn_0.45_keyboard_10_n03085013_22585.png,n03085013_22585.png,0.0,0.14750099,2.9885921,-2.0089548
vit_b_16,1,71,NaN,clock,bird,1,0071_hp_dnn_1_bird_10_n02017213_1150.png,n02017213_1150.png,0.0,-0.14929262,1.2999977,-1.024803
vit_b_16,1,72,NaN,bottle,bottle,3,0072_hp_dnn_3_bottle_10_n04560804_30885.png,n04560804_30885.png,1.0,2.9437785,1.6278083,0.93053144
vit_b_16,1,73,NaN,bicycle,bicycle,inf,0073_hp_dnn_inf_bicycle_10_n02835271_9191.png,n02835271_9191.png,1.0,6.1112995,0.10254703,4.2488294
vit_b_16,1,74,NaN,clock,truck,inf,0074_hp_dnn_inf_truck_10_n03796401_7699.png,n03796401_7699.png,0.0,1.4906585,2.459609,-0.6851515
vit_b_16,1,75,NaN,knife,knife,1.5,0075_hp_dnn_1.5_knife_10_n03041632_50332.png,n03041632_50332.png,1.0,8.401401,1.92836,4.577131
vit_b_16,1,76,NaN,clock,knife,0.55,0076_hp_dnn_0.55_knife_10_n03041632_36247.png,n03041632_36247.png,0.0,2.250401,3.132129,-0.6234758
vit_b_16,1,77,NaN,clock,knife,1.5,0077_hp_dnn_1.5_knife_10_n03041632_23667.png,n03041632_23667.png,0.0,1.9552686,2.378472,-0.29925004
vit_b_16,1,78,NaN,bear,dog,3,0078_hp_dnn_3_dog_10_n02102973_7028.png,n02102973_7028.png,0.0,0.23078379,2.18794,-1.3839184
vit_b_16,1,79,NaN,knife,oven,0.55,0079_hp_dnn_0.55_oven_10_n04111531_9867.png,n04111531_9867.png,0.0,0.028757365,2.2088995,-1.5415933
vit_b_16,1,80,NaN,clock,car,0.55,0080_hp_dnn_0.55_car_10_n02814533_8121.png,n02814533_8121.png,0.0,0.8024389,2.1453924,-0.9496115
vit_b_16,1,81,NaN,clock,boat,0.55,0081_hp_dnn_0.55_boat_10_n03662601_5210.png,n03662601_5210.png,0.0,1.5065719,3.3074179,-1.2733904
vit_b_16,1,82,NaN,car,car,1.5,0082_hp_dnn_1.5_car_10_n03100240_6192.png,n03100240_6192.png,1.0,4.666076,2.200093,1.7437135
vit_b_16,1,83,NaN,clock,oven,0.45,0083_hp_dnn_0.45_oven_10_n04111531_9314.png,n04111531_9314.png,0.0,-0.34367666,3.0597217,-2.4065661
vit_b_16,1,84,NaN,clock,cat,0.4,0084_hp_dnn_0.4_cat_10_n02123045_5189.png,n02123045_5189.png,0.0,-0.4539381,3.1600769,-2.5554945
vit_b_16,1,85,NaN,knife,truck,0.7,0085_hp_dnn_0.7_truck_10_n04467665_30189.png,n04467665_30189.png,0.0,-0.54341227,2.2294526,-1.9607116
vit_b_16,1,86,NaN,airplane,airplane,1.5,0086_hp_dnn_1.5_airplane_10_n02690373_3377.png,n02690373_3377.png,1.0,5.158454,1.9686388,2.25554
vit_b_16,1,87,NaN,clock,oven,0.4,0087_hp_dnn_0.4_oven_10_n04111531_1750.png,n04111531_1750.png,0.0,-0.6838643,3.2389717,-2.773864
vit_b_16,1,88,NaN,clock,dog,inf,0088_hp_dnn_inf_dog_10_n02097047_2877.png,n02097047_2877.png,0.0,-0.24160868,0.42795977,-0.47345638
vit_b_16,1,89,NaN,cat,cat,inf,0089_hp_dnn_inf_cat_10_n02124075_15171.png,n02124075_15171.png,1.0,4.1682997,0.8006569,2.381283
vit_b_16,1,90,NaN,clock,car,0.4,0090_hp_dnn_0.4_car_10_n03100240_23060.png,n03100240_23060.png,0.0,-1.0047065,3.51474,-3.1957312
vit_b_16,1,91,NaN,knife,knife,inf,0091_hp_dnn_inf_knife_10_n03041632_20595.png,n03041632_20595.png,1.0,7.521883,0.8718529,4.7022815
vit_b_16,1,92,NaN,clock,knife,0.45,0092_hp_dnn_0.45_knife_10_n03041632_2184.png,n03041632_2184.png,0.0,2.143178,3.1675758,-0.7243587
vit_b_16,1,93,NaN,knife,knife,0.4,0093_hp_dnn_0.4_knife_10_n03041632_42162.png,n03041632_42162.png,1.0,4.148678,3.061096,0.76903653
vit_b_16,1,94,NaN,clock,elephant,1,0094_hp_dnn_1_elephant_10_n02504458_3535.png,n02504458_3535.png,0.0,-0.2754276,3.495793,-2.6666558
vit_b_16,1,95,NaN,knife,bird,inf,0095_hp_dnn_inf_bird_10_n02056570_11311.png,n02056570_11311.png,0.0,0.19561857,0.2354686,-0.028178224
vit_b_16,1,96,NaN,knife,chair,0.4,0096_hp_dnn_0.4_chair_10_n03376595_4121.png,n03376595_4121.png,0.0,0.3838095,4.024096,-2.5740712
vit_b_16,1,97,NaN,chair,dog,1,0097_hp_dnn_1_dog_10_n02086240_3572.png,n02086240_3572.png,0.0,-0.24051031,1.7721888,-1.4231932
vit_b_16,1,98,NaN,elephant,elephant,inf,0098_hp_dnn_inf_elephant_10_n02504013_4523.png,n02504013_4523.png,1.0,7.513464,0.29144323,5.10674
vit_b_16,1,99,NaN,chair,chair,inf,0099_hp_dnn_inf_chair_10_n04429376_7902.png,n04429376_7902.png,1.0,3.7224402,0.85735625,2.0259204
vit_b_16,1,100,NaN,clock,bird,0.45,0100_hp_dnn_0.45_bird_10_n01530575_14402.png,n01530575_14402.png,0.0,-0.78970695,3.7412615,-3.2038786
vit_b_16,1,101,NaN,clock,bottle,0.55,0101_hp_dnn_0.55_bottle_10_n02823428_11140.png,n02823428_11140.png,0.0,0.76332396,3.3629189,-1.8381912
vit_b_16,1,102,NaN,knife,airplane,0.55,0102_hp_dnn_0.55_airplane_10_n02690373_7685.png,n02690373_7685.png,0.0,-0.31647623,4.035115,-3.0770397
vit_b_16,1,103,NaN,knife,boat,0.45,0103_hp_dnn_0.45_boat_10_n03344393_4827.png,n03344393_4827.png,0.0,-0.7340199,3.9616108,-3.3203123
vit_b_16,1,104,NaN,clock,dog,0.7,0104_hp_dnn_0.7_dog_10_n02088364_8674.png,n02088364_8674.png,0.0,-0.8488811,3.7082272,-3.2223623
vit_b_16,1,105,NaN,clock,knife,0.45,0105_hp_dnn_0.45_knife_10_n03041632_32004.png,n03041632_32004.png,0.0,2.6250463,4.196387,-1.1111056
vit_b_16,1,106,NaN,keyboard,keyboard,3,0106_hp_dnn_3_keyboard_10_n03085013_22949.png,n03085013_22949.png,1.0,6.45494,0.68517774,4.079838
vit_b_16,1,107,NaN,knife,knife,0.7,0107_hp_dnn_0.7_knife_10_n03041632_4044.png,n03041632_4044.png,1.0,2.8225641,2.1424344,0.48092437
vit_b_16,1,108,NaN,keyboard,airplane,1.5,0108_hp_dnn_1.5_airplane_10_n02690373_6455.png,n02690373_6455.png,0.0,1.463565,2.7916036,-0.9390651
vit_b_16,1,109,NaN,knife,airplane,0.55,0109_hp_dnn_0.55_airplane_10_n02690373_19646.png,n02690373_19646.png,0.0,1.0356073,4.4689393,-2.4277325
vit_b_16,1,110,NaN,boat,boat,inf,0110_hp_dnn_inf_boat_10_n04612504_1692.png,n04612504_1692.png,1.0,2.2762427,0.039336286,1.5817318
vit_b_16,1,111,NaN,clock,cat,0.55,0111_hp_dnn_0.55_cat_10_n02124075_853.png,n02124075_853.png,0.0,-0.5241859,3.973655,-3.1804538
vit_b_16,1,112,NaN,knife,boat,1,0112_hp_dnn_1_boat_10_n04273569_6071.png,n04273569_6071.png,0.0,-0.113249466,2.0810199,-1.5515828
vit_b_16,1,113,NaN,knife,bird,1.5,0113_hp_dnn_1.5_bird_10_n01616318_1214.png,n01616318_1214.png,0.0,-0.49075076,2.2775145,-1.9574592
vit_b_16,1,114,NaN,truck,car,1.5,0114_hp_dnn_1.5_car_10_n02814533_14627.png,n02814533_14627.png,0.0,2.950989,3.2218182,-0.19150516
vit_b_16,1,115,NaN,keyboard,keyboard,0.7,0115_hp_dnn_0.7_keyboard_10_n03085013_1483.png,n03085013_1483.png,1.0,3.249364,2.5270832,0.5107296
vit_b_16,1,116,NaN,knife,airplane,0.55,0116_hp_dnn_0.55_airplane_10_n02690373_7401.png,n02690373_7401.png,0.0,1.8391219,4.581734,-1.9393198
vit_b_16,1,117,NaN,clock,keyboard,0.55,0117_hp_dnn_0.55_keyboard_10_n03085013_6963.png,n03085013_6963.png,0.0,2.1877122,2.7291756,-0.38287243
vit_b_16,1,118,NaN,knife,knife,3,0118_hp_dnn_3_knife_10_n03041632_1407.png,n03041632_1407.png,1.0,2.750161,1.5744419,0.8313589
vit_b_16,1,119,NaN,elephant,elephant,1.5,0119_hp_dnn_1.5_elephant_10_n02504458_5137.png,n02504458_5137.png,1.0,6.2199793,1.0108364,3.6834202
vit_b_16,1,120,NaN,clock,clock,inf,0120_hp_dnn_inf_clock_10_n02708093_6635.png,n02708093_6635.png,1.0,5.635746,0.3013475,3.7719893
vit_b_16,1,121,NaN,clock,oven,0.4,0121_hp_dnn_0.4_oven_10_n04111531_5927.png,n04111531_5927.png,0.0,-0.86561996,3.3556263,-2.9848719
vit_b_16,1,122,NaN,clock,clock,inf,0122_hp_dnn_inf_clock_10_n02708093_2043.png,n02708093_2043.png,1.0,5.7616305,0.46440744,3.7457025
vit_b_16,1,123,NaN,knife,airplane,0.4,0123_hp_dnn_0.4_airplane_10_n02690373_7300.png,n02690373_7300.png,0.0,1.2055647,4.1140847,-2.0566342
vit_b_16,1,124,NaN,clock,oven,0.55,0124_hp_dnn_0.55_oven_10_n04111531_190.png,n04111531_190.png,0.0,0.37411958,3.8535492,-2.4603283
vit_b_16,1,125,NaN,cat,dog,3,0125_hp_dnn_3_dog_10_n02091244_8497.png,n02091244_8497.png,0.0,0.19354345,2.656661,-1.7416872
vit_b_16,1,126,NaN,clock,bicycle,0.7,0126_hp_dnn_0.7_bicycle_10_n03792782_15932.png,n03792782_15932.png,0.0,0.012060598,4.0177817,-2.8324726
vit_b_16,1,127,NaN,clock,bear,0.4,0127_hp_dnn_0.4_bear_10_n02133161_463.png,n02133161_463.png,0.0,-0.92045665,3.450158,-3.0904915
vit_b_16,1,128,NaN,knife,cat,0.7,0128_hp_dnn_0.7_cat_10_n02123045_11126.png,n02123045_11126.png,0.0,1.6601539,3.7159233,-1.4536486
vit_b_16,1,129,NaN,knife,clock,0.7,0129_hp_dnn_0.7_clock_10_n04548280_8646.png,n04548280_8646.png,0.0,2.9072206,4.0297103,-0.79372007
vit_b_16,1,130,NaN,clock,bottle,0.55,0130_hp_dnn_0.55_bottle_10_n03983396_11597.png,n03983396_11597.png,0.0,0.2588434,3.4720562,-2.2720845
vit_b_16,1,131,NaN,chair,truck,3,0131_hp_dnn_3_truck_10_n03417042_212.png,n03417042_212.png,0.0,1.0753403,1.8327322,-0.535557
vit_b_16,1,132,NaN,keyboard,keyboard,1,0132_hp_dnn_1_keyboard_10_n04505470_1724.png,n04505470_1724.png,1.0,5.24588,2.6763277,1.8169479
vit_b_16,1,133,NaN,chair,chair,1,0133_hp_dnn_1_chair_10_n04099969_14028.png,n04099969_14028.png,1.0,4.5403,1.544486,2.1183603
vit_b_16,1,134,NaN,clock,cat,0.45,0134_hp_dnn_0.45_cat_10_n02124075_2138.png,n02124075_2138.png,0.0,-0.19241858,3.988367,-2.9562619
vit_b_16,1,135,NaN,airplane,boat,inf,0135_hp_dnn_inf_boat_10_n03662601_3145.png,n03662601_3145.png,0.0,0.49734432,2.652748,-1.5241007
vit_b_16,1,136,NaN,cat,cat,3,0136_hp_dnn_3_cat_10_n02123045_1120.png,n02123045_1120.png,1.0,2.5187426,1.1373357,0.97680223
vit_b_16,1,137,NaN,boat,boat,inf,0137_hp_dnn_inf_boat_10_n04612504_31305.png,n04612504_31305.png,1.0,2.2733357,0.14846185,1.5025127
vit_b_16,1,138,NaN,clock,chair,1,0138_hp_dnn_1_chair_10_n04099969_4275.png,n04099969_4275.png,0.0,1.8982984,3.073243,-0.83081126
vit_b_16,1,139,NaN,knife,keyboard,0.4,0139_hp_dnn_0.4_keyboard_10_n03085013_23005.png,n03085013_23005.png,0.0,0.29296246,3.1805499,-2.0418327
vit_b_16,1,140,NaN,clock,airplane,1,0140_hp_dnn_1_airplane_10_n02690373_9618.png,n02690373_9618.png,0.0,1.8592293,3.2013543,-0.9490257
vit_b_16,1,141,NaN,knife,knife,0.55,0141_hp_dnn_0.55_knife_10_n03041632_17338.png,n03041632_17338.png,1.0,6.012331,2.4069347,2.5494
vit_b_16,1,142,NaN,clock,clock,0.45,0142_hp_dnn_0.45_clock_10_n04548280_8225.png,n04548280_8225.png,1.0,3.1439629,1.72813,1.001145
vit_b_16,1,143,NaN,car,car,inf,0143_hp_dnn_inf_car_10_n03100240_8907.png,n03100240_8907.png,1.0,6.159697,0.3824144,4.085156
vit_b_16,1,144,NaN,chair,chair,1.5,0144_hp_dnn_1.5_chair_10_n03376595_6865.png,n03376595_6865.png,1.0,2.0129695,1.5881023,0.30042645
vit_b_16,1,145,NaN,clock,bicycle,0.45,0145_hp_dnn_0.45_bicycle_10_n03792782_44296.png,n03792782_44296.png,0.0,-0.40222976,3.8887494,-3.0341804
vit_b_16,1,146,NaN,chair,boat,1.5,0146_hp_dnn_1.5_boat_10_n04273569_1233.png,n04273569_1233.png,0.0,0.38115397,2.302383,-1.3585141
vit_b_16,1,147,NaN,clock,bird,1,0147_hp_dnn_1_bird_10_n01824575_12784.png,n01824575_12784.png,0.0,-0.6134189,2.3382413,-2.087139
vit_b_16,1,148,NaN,boat,boat,3,0148_hp_dnn_3_boat_10_n03344393_408.png,n03344393_408.png,1.0,3.2200656,1.4117457,1.2786753
vit_b_16,1,149,NaN,airplane,airplane,1,0149_hp_dnn_1_airplane_10_n02690373_220.png,n02690373_220.png,1.0,4.7128797,3.066623,1.1640793
vit_b_16,1,150,NaN,chair,chair,3,0150_hp_dnn_3_chair_10_n04429376_10546.png,n04429376_10546.png,1.0,4.764943,0.63066053,2.9233794
vit_b_16,1,151,NaN,clock,oven,0.7,0151_hp_dnn_0.7_oven_10_n04111531_4749.png,n04111531_4749.png,0.0,0.8097032,1.6134435,-0.5683302
vit_b_16,1,152,NaN,clock,truck,0.4,0152_hp_dnn_0.4_truck_10_n03417042_18124.png,n03417042_18124.png,0.0,-1.0434824,3.2666245,-3.0477057
vit_b_16,1,153,NaN,clock,clock,3,0153_hp_dnn_3_clock_10_n03196217_7353.png,n03196217_7353.png,1.0,3.2790039,2.7069273,0.40451923
vit_b_16,1,154,NaN,knife,dog,0.7,0154_hp_dnn_0.7_dog_10_n02098286_2699.png,n02098286_2699.png,0.0,-0.7295103,5.31785,-4.2761297
vit_b_16,1,155,NaN,clock,truck,0.4,0155_hp_dnn_0.4_truck_10_n03796401_3651.png,n03796401_3651.png,0.0,-1.5249128,3.5694878,-3.6022851
vit_b_16,1,156,NaN,knife,bottle,0.4,0156_hp_dnn_0.4_bottle_10_n03983396_4165.png,n03983396_4165.png,0.0,0.65001094,2.9783146,-1.6463594
vit_b_16,1,157,NaN,clock,knife,1,0157_hp_dnn_1_knife_10_n03041632_25257.png,n03041632_25257.png,0.0,1.0407511,1.566588,-0.37182286
vit_b_16,1,158,NaN,chair,chair,3,0158_hp_dnn_3_chair_10_n04099969_1229.png,n04099969_1229.png,1.0,2.4743729,0.6755966,1.2719269
vit_b_16,1,159,NaN,bicycle,bird,inf,0159_hp_dnn_inf_bird_10_n01798484_518.png,n01798484_518.png,0.0,0.24275003,0.26328343,-0.014519305
vit_b_16,1,160,NaN,bird,bird,inf,0160_hp_dnn_inf_bird_10_n01797886_1953.png,n01797886_1953.png,1.0,0.56364155,0.108900376,0.32155058
vit_b_16,1,161,NaN,bird,bird,3,0161_hp_dnn_3_bird_10_n01820546_228.png,n01820546_228.png,1.0,0.85026026,0.39469433,0.32213375
vit_b_16,1,162,NaN,clock,bear,1.5,0162_hp_dnn_1.5_bear_10_n02134418_2666.png,n02134418_2666.png,0.0,-0.5376681,2.76643,-2.3363502
vit_b_16,1,163,NaN,clock,boat,1.5,0163_hp_dnn_1.5_boat_10_n03344393_7659.png,n03344393_7659.png,0.0,2.8929267,3.0990858,-0.14577651
vit_b_16,1,164,NaN,chair,oven,1.5,0164_hp_dnn_1.5_oven_10_n04111531_1752.png,n04111531_1752.png,0.0,0.1201738,3.3192792,-2.2621093
vit_b_16,1,165,NaN,boat,dog,inf,0165_hp_dnn_inf_dog_10_n02091032_8873.png,n02091032_8873.png,0.0,0.12836826,0.31296402,-0.13052891
vit_b_16,1,166,NaN,clock,oven,0.7,0166_hp_dnn_0.7_oven_10_n04111531_14559.png,n04111531_14559.png,0.0,2.017057,2.0441854,-0.019182717
vit_b_16,1,167,NaN,clock,cat,0.7,0167_hp_dnn_0.7_cat_10_n02123045_114.png,n02123045_114.png,0.0,0.0022916843,2.2801163,-1.6106653
vit_b_16,1,168,NaN,cat,cat,3,0168_hp_dnn_3_cat_10_n02123597_13865.png,n02123597_13865.png,1.0,4.2138724,1.5362262,1.8933818
vit_b_16,1,169,NaN,knife,knife,0.55,0169_hp_dnn_0.55_knife_10_n03041632_13478.png,n03041632_13478.png,1.0,3.0536945,1.7226,0.94122595
vit_b_16,1,170,NaN,elephant,elephant,0.55,0170_hp_dnn_0.55_elephant_10_n02504458_2618.png,n02504458_2618.png,1.0,5.27295,2.6810684,1.8327372
vit_b_16,1,171,NaN,clock,truck,1,0171_hp_dnn_1_truck_10_n04467665_56954.png,n04467665_56954.png,0.0,0.4200158,3.430031,-2.1284022
vit_b_16,1,172,NaN,clock,chair,1,0172_hp_dnn_1_chair_10_n04429376_1791.png,n04429376_1791.png,0.0,2.252661,3.9057262,-1.1688937
vit_b_16,1,173,NaN,bottle,bottle,3,0173_hp_dnn_3_bottle_10_n04560804_33214.png,n04560804_33214.png,1.0,1.9304155,1.1183141,0.5742424
vit_b_16,1,174,NaN,knife,knife,inf,0174_hp_dnn_inf_knife_10_n03041632_48816.png,n03041632_48816.png,1.0,7.1569767,0.7317437,4.543326
vit_b_16,1,175,NaN,cat,cat,3,0175_hp_dnn_3_cat_10_n02123394_2274.png,n02123394_2274.png,1.0,2.446091,1.0162787,1.01103
vit_b_16,1,176,NaN,truck,truck,1.5,0176_hp_dnn_1.5_truck_10_n03796401_1326.png,n03796401_1326.png,1.0,3.806498,1.0146078,1.9741645
vit_b_16,1,177,NaN,knife,knife,0.55,0177_hp_dnn_0.55_knife_10_n03041632_11887.png,n03041632_11887.png,1.0,8.796805,1.15222,5.4055386
vit_b_16,1,178,NaN,clock,dog,0.7,0178_hp_dnn_0.7_dog_10_n02113978_8008.png,n02113978_8008.png,0.0,-0.3491297,1.8559442,-1.5592227
vit_b_16,1,179,NaN,knife,cat,0.4,0179_hp_dnn_0.4_cat_10_n02123045_4812.png,n02123045_4812.png,0.0,-0.3170074,4.7431173,-3.5780487
vit_b_16,1,180,NaN,chair,bird,inf,0180_hp_dnn_inf_bird_10_n01833805_3578.png,n01833805_3578.png,0.0,-0.32788125,0.8404848,-0.8261596
vit_b_16,1,181,NaN,clock,truck,1,0181_hp_dnn_1_truck_10_n03417042_3398.png,n03417042_3398.png,0.0,0.8002237,2.5223744,-1.2177445
vit_b_16,1,182,NaN,clock,bird,0.7,0182_hp_dnn_0.7_bird_10_n02007558_4566.png,n02007558_4566.png,0.0,-0.93161833,3.5422852,-3.1635277
vit_b_16,1,183,NaN,clock,knife,0.45,0183_hp_dnn_0.45_knife_10_n03041632_3516.png,n03041632_3516.png,0.0,2.7951012,3.5990524,-0.5684794
vit_b_16,1,184,NaN,cat,cat,1.5,0184_hp_dnn_1.5_cat_10_n02124075_14965.png,n02124075_14965.png,1.0,3.109461,1.4050728,1.2051845
vit_b_16,1,185,NaN,knife,bird,0.4,0185_hp_dnn_0.4_bird_10_n01843065_2176.png,n01843065_2176.png,0.0,-0.110089645,3.3205042,-2.425796
vit_b_16,1,186,NaN,knife,knife,3,0186_hp_dnn_3_knife_10_n03041632_21034.png,n03041632_21034.png,1.0,2.0813863,0.95222956,0.79843444
vit_b_16,1,187,NaN,keyboard,keyboard,1.5,0187_hp_dnn_1.5_keyboard_10_n03085013_24026.png,n03085013_24026.png,1.0,3.3094554,2.491175,0.5786117
vit_b_16,1,188,NaN,knife,bottle,0.55,0188_hp_dnn_0.55_bottle_10_n04560804_14395.png,n04560804_14395.png,0.0,1.039141,4.471876,-2.4273102
vit_b_16,1,189,NaN,clock,boat,0.45,0189_hp_dnn_0.45_boat_10_n02951358_11567.png,n02951358_11567.png,0.0,-0.64118415,4.4567704,-3.6047983
vit_b_16,1,190,NaN,knife,chair,0.4,0190_hp_dnn_0.4_chair_10_n03376595_17747.png,n03376595_17747.png,0.0,0.36818022,3.7811112,-2.4133067
vit_b_16,1,191,NaN,bottle,bottle,inf,0191_hp_dnn_inf_bottle_10_n04591713_5563.png,n04591713_5563.png,1.0,3.8024685,0.49862185,2.3361723
vit_b_16,1,192,NaN,airplane,airplane,3,0192_hp_dnn_3_airplane_10_n02690373_7496.png,n02690373_7496.png,1.0,9.768107,0.6972628,6.414056
vit_b_16,1,193,NaN,airplane,airplane,3,0193_hp_dnn_3_airplane_10_n02690373_4465.png,n02690373_4465.png,1.0,8.743365,0.9177229,5.533565
vit_b_16,1,194,NaN,clock,bear,0.4,0194_hp_dnn_0.4_bear_10_n02134418_119.png,n02134418_119.png,0.0,-1.1316886,2.931977,-2.8734455
vit_b_16,1,195,NaN,bear,bear,1.5,0195_hp_dnn_1.5_bear_10_n02133161_1970.png,n02133161_1970.png,1.0,4.2883368,1.3876052,2.051127
vit_b_16,1,196,NaN,clock,bird,1.5,0196_hp_dnn_1.5_bird_10_n02018795_5488.png,n02018795_5488.png,0.0,0.12943338,2.814428,-1.898578
vit_b_16,1,197,NaN,knife,bird,0.45,0197_hp_dnn_0.45_bird_10_n01796340_1877.png,n01796340_1877.png,0.0,0.066753335,4.629542,-3.2263787
vit_b_16,1,198,NaN,knife,airplane,0.4,0198_hp_dnn_0.4_airplane_10_n02690373_4964.png,n02690373_4964.png,0.0,0.57486176,4.9988685,-3.128245
vit_b_16,1,199,NaN,knife,bottle,0.4,0199_hp_dnn_0.4_bottle_10_n04591713_1762.png,n04591713_1762.png,0.0,1.8007228,5.3936105,-2.5405552
vit_b_16,1,200,NaN,car,car,1,0200_hp_dnn_1_car_10_n03100240_6059.png,n03100240_6059.png,1.0,4.773317,2.8330078,1.3720057
vit_b_16,1,201,NaN,chair,chair,inf,0201_hp_dnn_inf_chair_10_n03376595_10769.png,n03376595_10769.png,1.0,2.7587187,0.70049846,1.4553816
vit_b_16,1,202,NaN,oven,oven,inf,0202_hp_dnn_inf_oven_10_n04111531_1723.png,n04111531_1723.png,1.0,9.049825,1.1080377,5.615691
vit_b_16,1,203,NaN,clock,bicycle,0.45,0203_hp_dnn_0.45_bicycle_10_n02835271_3570.png,n02835271_3570.png,0.0,-0.4439907,2.8122036,-2.3024771
vit_b_16,1,204,NaN,knife,knife,0.4,0204_hp_dnn_0.4_knife_10_n03041632_83826.png,n03041632_83826.png,1.0,3.8582544,3.7679718,0.063839495
vit_b_16,1,205,NaN,knife,keyboard,0.7,0205_hp_dnn_0.7_keyboard_10_n03085013_20673.png,n03085013_20673.png,0.0,1.2079455,2.9971964,-1.2651916
vit_b_16,1,206,NaN,knife,knife,1,0206_hp_dnn_1_knife_10_n03041632_27575.png,n03041632_27575.png,1.0,9.6710205,0.89174414,6.2078857
vit_b_16,1,207,NaN,knife,bird,1.5,0207_hp_dnn_1.5_bird_10_n01558993_14305.png,n01558993_14305.png,0.0,1.3518245,1.3827797,-0.021888629
vit_b_16,1,208,NaN,knife,bird,0.4,0208_hp_dnn_0.4_bird_10_n01537544_18123.png,n01537544_18123.png,0.0,-0.16536234,2.821159,-2.1117895
vit_b_16,1,209,NaN,bicycle,bicycle,3,0209_hp_dnn_3_bicycle_10_n02835271_4307.png,n02835271_4307.png,1.0,6.106867,1.0243087,3.5939114
vit_b_16,1,210,NaN,chair,car,0.7,0210_hp_dnn_0.7_car_10_n04285008_6320.png,n04285008_6320.png,0.0,1.6879783,2.9731264,-0.908737
vit_b_16,1,211,NaN,elephant,elephant,0.7,0211_hp_dnn_0.7_elephant_10_n02504458_1327.png,n02504458_1327.png,1.0,6.5686126,2.447887,2.913793
vit_b_16,1,212,NaN,bottle,bottle,1,0212_hp_dnn_1_bottle_10_n04560804_1813.png,n04560804_1813.png,1.0,2.669461,2.2710888,0.28169167
vit_b_16,1,213,NaN,cat,cat,1,0213_hp_dnn_1_cat_10_n02124075_10085.png,n02124075_10085.png,1.0,2.5977356,2.0397496,0.39455572
vit_b_16,1,214,NaN,clock,clock,inf,0214_hp_dnn_inf_clock_10_n03196217_2853.png,n03196217_2853.png,1.0,4.570458,0.5491532,2.8434918
vit_b_16,1,215,NaN,clock,boat,1.5,0215_hp_dnn_1.5_boat_10_n04273569_10149.png,n04273569_10149.png,0.0,0.16376552,2.3492966,-1.545404
vit_b_16,1,216,NaN,chair,chair,3,0216_hp_dnn_3_chair_10_n03376595_17859.png,n03376595_17859.png,1.0,4.8125186,1.7011737,2.200053
vit_b_16,1,217,NaN,clock,dog,0.55,0217_hp_dnn_0.55_dog_10_n02101556_7581.png,n02101556_7581.png,0.0,-0.70984435,3.5510502,-3.0129077
vit_b_16,1,218,NaN,clock,cat,0.4,0218_hp_dnn_0.4_cat_10_n02125311_8522.png,n02125311_8522.png,0.0,-0.34263662,3.174548,-2.487025
vit_b_16,1,219,NaN,knife,clock,0.45,0219_hp_dnn_0.45_clock_10_n04548280_4345.png,n04548280_4345.png,0.0,2.2790654,4.0082264,-1.2227015
vit_b_16,1,220,NaN,truck,truck,inf,0220_hp_dnn_inf_truck_10_n04467665_4088.png,n04467665_4088.png,1.0,3.3741548,1.0044832,1.6756109
vit_b_16,1,221,NaN,elephant,dog,inf,0221_hp_dnn_inf_dog_10_n02102040_1100.png,n02102040_1100.png,0.0,0.4436262,0.6377572,-0.13727134
vit_b_16,1,222,NaN,knife,bicycle,0.55,0222_hp_dnn_0.55_bicycle_10_n03792782_15557.png,n03792782_15557.png,0.0,-0.5075427,3.9364295,-3.1423628
vit_b_16,1,223,NaN,car,car,3,0223_hp_dnn_3_car_10_n04285008_12767.png,n04285008_12767.png,1.0,5.972529,1.9187953,2.8664227
vit_b_16,1,224,NaN,knife,boat,0.4,0224_hp_dnn_0.4_boat_10_n03662601_2438.png,n03662601_2438.png,0.0,-0.68617594,3.2487383,-2.7824044
vit_b_16,1,225,NaN,truck,truck,inf,0225_hp_dnn_inf_truck_10_n03417042_6419.png,n03417042_6419.png,1.0,1.392595,0.39119574,0.7080962
vit_b_16,1,226,NaN,clock,chair,0.45,0226_hp_dnn_0.45_chair_10_n04099969_9891.png,n04099969_9891.png,0.0,0.7205626,3.9308097,-2.2699876
vit_b_16,1,227,NaN,cat,cat,inf,0227_hp_dnn_inf_cat_10_n02123045_8543.png,n02123045_8543.png,1.0,3.843982,0.7394725,2.1952198
vit_b_16,1,228,NaN,clock,cat,0.55,0228_hp_dnn_0.55_cat_10_n02123045_7342.png,n02123045_7342.png,0.0,0.19084734,2.692295,-1.7687906
vit_b_16,1,229,NaN,clock,bird,0.55,0229_hp_dnn_0.55_bird_10_n02018207_10814.png,n02018207_10814.png,0.0,1.5544062,1.8506352,-0.20946555
vit_b_16,1,230,NaN,airplane,airplane,3,0230_hp_dnn_3_airplane_10_n02690373_20033.png,n02690373_20033.png,1.0,9.918143,2.1084287,5.522302
vit_b_16,1,231,NaN,knife,truck,0.55,0231_hp_dnn_0.55_truck_10_n04467665_13645.png,n04467665_13645.png,0.0,0.19274944,3.382451,-2.2554595
vit_b_16,1,232,NaN,airplane,airplane,1.5,0232_hp_dnn_1.5_airplane_10_n02690373_5015.png,n02690373_5015.png,1.0,7.3982997,1.6835943,4.040907
vit_b_16,1,233,NaN,chair,chair,1.5,0233_hp_dnn_1.5_chair_10_n03376595_6173.png,n03376595_6173.png,1.0,2.489712,1.5052714,0.6961046
vit_b_16,1,234,NaN,clock,knife,1.5,0234_hp_dnn_1.5_knife_10_n03041632_91967.png,n03041632_91967.png,0.0,0.736557,1.6416129,-0.63997114
vit_b_16,1,235,NaN,elephant,elephant,inf,0235_hp_dnn_inf_elephant_10_n02504458_1271.png,n02504458_1271.png,1.0,7.6798086,0.08703202,5.368904
vit_b_16,1,236,NaN,knife,cat,0.7,0236_hp_dnn_0.7_cat_10_n02123597_1684.png,n02123597_1684.png,0.0,-0.39902648,3.2748315,-2.5978098
vit_b_16,1,237,NaN,clock,dog,0.55,0237_hp_dnn_0.55_dog_10_n02091831_3628.png,n02091831_3628.png,0.0,-0.74293345,3.7128048,-3.1506827
vit_b_16,1,238,NaN,clock,truck,0.45,0238_hp_dnn_0.45_truck_10_n04467665_64540.png,n04467665_64540.png,0.0,2.4492712,2.5337508,-0.059736077
vit_b_16,1,239,NaN,airplane,airplane,1,0239_hp_dnn_1_airplane_10_n02690373_3289.png,n02690373_3289.png,1.0,4.7795854,2.4402747,1.6541425
vit_b_16,1,240,NaN,boat,boat,3,0240_hp_dnn_3_boat_10_n04273569_16949.png,n04273569_16949.png,1.0,3.509194,0.933594,1.8212242
vit_b_16,1,241,NaN,clock,bicycle,1,0241_hp_dnn_1_bicycle_10_n03792782_15174.png,n03792782_15174.png,0.0,0.52706975,3.0190442,-1.762092
vit_b_16,1,242,NaN,bottle,bottle,1.5,0242_hp_dnn_1.5_bottle_10_n03937543_146.png,n03937543_146.png,1.0,2.0780528,0.97811764,0.77777153
vit_b_16,1,243,NaN,knife,chair,0.45,0243_hp_dnn_0.45_chair_10_n04429376_694.png,n04429376_694.png,0.0,1.1657417,4.042633,-2.0342693
vit_b_16,1,244,NaN,clock,keyboard,0.4,0244_hp_dnn_0.4_keyboard_10_n03085013_19407.png,n03085013_19407.png,0.0,0.10423133,3.6277924,-2.491534
vit_b_16,1,245,NaN,clock,oven,0.45,0245_hp_dnn_0.45_oven_10_n04111531_4955.png,n04111531_4955.png,0.0,-0.5975229,3.91104,-3.1880355
vit_b_16,1,246,NaN,knife,dog,1.5,0246_hp_dnn_1.5_dog_10_n02099712_1825.png,n02099712_1825.png,0.0,-0.69009036,1.4792308,-1.5339416
vit_b_16,1,247,NaN,knife,bear,0.55,0247_hp_dnn_0.55_bear_10_n02134084_14031.png,n02134084_14031.png,0.0,-0.45958003,2.5517168,-2.1293085
vit_b_16,1,248,NaN,knife,car,0.45,0248_hp_dnn_0.45_car_10_n02814533_70922.png,n02814533_70922.png,0.0,0.47929263,3.3487244,-2.0289946
vit_b_16,1,249,NaN,clock,elephant,0.45,0249_hp_dnn_0.45_elephant_10_n02504458_217.png,n02504458_217.png,0.0,2.4404771,3.858082,-1.002398
vit_b_16,1,250,NaN,car,car,inf,0250_hp_dnn_inf_car_10_n02814533_27824.png,n02814533_27824.png,1.0,2.789492,1.2773099,1.0692742
vit_b_16,1,251,NaN,keyboard,keyboard,0.7,0251_hp_dnn_0.7_keyboard_10_n03085013_24257.png,n03085013_24257.png,1.0,5.4460273,0.95353544,3.1766715
vit_b_16,1,252,NaN,elephant,elephant,3,0252_hp_dnn_3_elephant_10_n02504013_2269.png,n02504013_2269.png,1.0,7.7443585,0.32218364,5.2482705
vit_b_16,1,253,NaN,knife,bear,0.45,0253_hp_dnn_0.45_bear_10_n02134418_1798.png,n02134418_1798.png,0.0,-0.41977358,5.407542,-4.1205344
vit_b_16,1,254,NaN,clock,dog,0.45,0254_hp_dnn_0.45_dog_10_n02111129_6881.png,n02111129_6881.png,0.0,-0.8618143,4.465379,-3.7668948
vit_b_16,1,255,NaN,truck,truck,1.5,0255_hp_dnn_1.5_truck_10_n04467665_67315.png,n04467665_67315.png,1.0,3.510003,1.6223787,1.3347521
vit_b_16,1,256,NaN,clock,elephant,0.55,0256_hp_dnn_0.55_elephant_10_n02504013_3688.png,n02504013_3688.png,0.0,-0.85059035,4.027514,-3.4493406
vit_b_16,1,257,NaN,clock,truck,1.5,0257_hp_dnn_1.5_truck_10_n04467665_38886.png,n04467665_38886.png,0.0,1.4981669,1.6691457,-0.12090026
vit_b_16,1,258,NaN,bottle,bottle,inf,0258_hp_dnn_inf_bottle_10_n04557648_4250.png,n04557648_4250.png,1.0,2.6279182,0.46336526,1.53057
vit_b_16,1,259,NaN,clock,chair,0.45,0259_hp_dnn_0.45_chair_10_n04099969_4053.png,n04099969_4053.png,0.0,0.2711259,2.507571,-1.5814054
vit_b_16,1,260,NaN,clock,knife,0.7,0260_hp_dnn_0.7_knife_10_n03041632_5727.png,n03041632_5727.png,0.0,2.7038288,3.7547352,-0.7431031
vit_b_16,1,261,NaN,knife,dog,1,0261_hp_dnn_1_dog_10_n02091134_4525.png,n02091134_4525.png,0.0,-0.640427,1.5208439,-1.5282493
vit_b_16,1,262,NaN,keyboard,keyboard,inf,0262_hp_dnn_inf_keyboard_10_n04505470_4685.png,n04505470_4685.png,1.0,5.200571,0.28186917,3.4780476
vit_b_16,1,263,NaN,clock,boat,0.4,0263_hp_dnn_0.4_boat_10_n02951358_6637.png,n02951358_6637.png,0.0,-0.2997529,3.3935106,-2.6115317
vit_b_16,1,264,NaN,dog,dog,1.5,0264_hp_dnn_1.5_dog_10_n02093256_11232.png,n02093256_11232.png,1.0,0.8536501,0.6684868,0.13093024
vit_b_16,1,265,NaN,elephant,elephant,inf,0265_hp_dnn_inf_elephant_10_n02504013_816.png,n02504013_816.png,1.0,6.6326137,0.2710965,4.498272
vit_b_16,1,266,NaN,bear,bear,1.5,0266_hp_dnn_1.5_bear_10_n02134084_1484.png,n02134084_1484.png,1.0,3.2736046,3.117581,0.11032545
vit_b_16,1,267,NaN,knife,boat,0.45,0267_hp_dnn_0.45_boat_10_n04273569_15859.png,n04273569_15859.png,0.0,-0.5547272,6.800222,-5.2007346
vit_b_16,1,268,NaN,bicycle,bicycle,3,0268_hp_dnn_3_bicycle_10_n02835271_7311.png,n02835271_7311.png,1.0,3.147848,1.9297491,0.8613259
vit_b_16,1,269,NaN,knife,cat,1,0269_hp_dnn_1_cat_10_n02123045_2339.png,n02123045_2339.png,0.0,1.6030296,1.6341965,-0.022038335
vit_b_16,1,270,NaN,clock,elephant,0.45,0270_hp_dnn_0.45_elephant_10_n02504458_4448.png,n02504458_4448.png,0.0,-0.7795256,4.0649304,-3.4255478
vit_b_16,1,271,NaN,car,car,1,0271_hp_dnn_1_car_10_n03100240_9955.png,n03100240_9955.png,1.0,6.7859306,2.5396242,3.002592
vit_b_16,1,272,NaN,clock,truck,0.55,0272_hp_dnn_0.55_truck_10_n03417042_7310.png,n03417042_7310.png,0.0,-0.9503709,3.6968403,-3.2860746
vit_b_16,1,273,NaN,clock,chair,0.55,0273_hp_dnn_0.55_chair_10_n04099969_20421.png,n04099969_20421.png,0.0,2.5879202,2.7050617,-0.08283154
vit_b_16,1,274,NaN,clock,boat,0.45,0274_hp_dnn_0.45_boat_10_n04612504_4581.png,n04612504_4581.png,0.0,0.026461815,3.8251579,-2.6860838
vit_b_16,1,275,NaN,elephant,bear,1,0275_hp_dnn_1_bear_10_n02134418_4515.png,n02134418_4515.png,0.0,1.3095118,2.8146284,-1.0642781
vit_b_16,1,276,NaN,clock,truck,0.7,0276_hp_dnn_0.7_truck_10_n03796401_1082.png,n03796401_1082.png,0.0,-0.5853102,3.8676589,-3.1487248
vit_b_16,1,277,NaN,bicycle,bicycle,1,0277_hp_dnn_1_bicycle_10_n03792782_8176.png,n03792782_8176.png,1.0,3.8050091,2.234653,1.1104095
vit_b_16,1,278,NaN,knife,oven,0.4,0278_hp_dnn_0.4_oven_10_n04111531_5463.png,n04111531_5463.png,0.0,-0.4507433,2.400833,-2.0163689
vit_b_16,1,279,NaN,chair,elephant,1.5,0279_hp_dnn_1.5_elephant_10_n02504013_4166.png,n02504013_4166.png,0.0,1.0896418,2.9632046,-1.324809
vit_b_16,1,280,NaN,knife,airplane,0.7,0280_hp_dnn_0.7_airplane_10_n02690373_18295.png,n02690373_18295.png,0.0,1.0957215,6.287513,-3.6711512
vit_b_16,1,281,NaN,knife,cat,0.45,0281_hp_dnn_0.45_cat_10_n02124075_1460.png,n02124075_1460.png,0.0,-0.07173279,5.530173,-3.9611456
vit_b_16,1,282,NaN,clock,bird,0.55,0282_hp_dnn_0.55_bird_10_n02028035_17759.png,n02028035_17759.png,0.0,-0.19236965,4.073023,-3.0160878
vit_b_16,1,283,NaN,chair,chair,3,0283_hp_dnn_3_chair_10_n02791124_6654.png,n02791124_6654.png,1.0,3.8362942,0.5460491,2.3265545
vit_b_16,1,284,NaN,clock,truck,0.7,0284_hp_dnn_0.7_truck_10_n04467665_22974.png,n04467665_22974.png,0.0,-0.69718176,4.0121903,-3.330029
vit_b_16,1,285,NaN,clock,clock,0.55,0285_hp_dnn_0.55_clock_10_n03196217_2983.png,n03196217_2983.png,1.0,4.531352,2.2125185,1.639663
vit_b_16,1,286,NaN,oven,knife,inf,0286_hp_dnn_inf_knife_10_n03041632_23968.png,n03041632_23968.png,0.0,5.4798703,7.120783,-1.1603004
vit_b_16,1,287,NaN,clock,keyboard,0.4,0287_hp_dnn_0.4_keyboard_10_n03085013_23519.png,n03085013_23519.png,0.0,0.049353283,3.1654227,-2.2033937
vit_b_16,1,288,NaN,bottle,bottle,1.5,0288_hp_dnn_1.5_bottle_10_n04591713_14895.png,n04591713_14895.png,1.0,2.25803,1.81678,0.31201085
vit_b_16,1,289,NaN,clock,elephant,1,0289_hp_dnn_1_elephant_10_n02504013_3969.png,n02504013_3969.png,0.0,-0.08391066,2.9685032,-2.1583827
vit_b_16,1,290,NaN,chair,bear,3,0290_hp_dnn_3_bear_10_n02134418_3723.png,n02134418_3723.png,0.0,-0.52605075,1.1474471,-1.1833417
vit_b_16,1,291,NaN,clock,keyboard,0.45,0291_hp_dnn_0.45_keyboard_10_n04505470_709.png,n04505470_709.png,0.0,0.44753253,3.379865,-2.0734723
vit_b_16,1,292,NaN,knife,knife,1.5,0292_hp_dnn_1.5_knife_10_n03041632_379.png,n03041632_379.png,1.0,3.3055427,2.186605,0.79120845
vit_b_16,1,293,NaN,oven,oven,3,0293_hp_dnn_3_oven_10_n04111531_13128.png,n04111531_13128.png,1.0,3.495099,1.9105405,1.1204522
vit_b_16,1,294,NaN,knife,elephant,0.55,0294_hp_dnn_0.55_elephant_10_n02504013_933.png,n02504013_933.png,0.0,0.35940033,2.8702695,-1.7754527
vit_b_16,1,295,NaN,airplane,airplane,inf,0295_hp_dnn_inf_airplane_10_n02690373_17603.png,n02690373_17603.png,1.0,8.852948,0.31737706,6.03556
vit_b_16,1,296,NaN,knife,airplane,0.45,0296_hp_dnn_0.45_airplane_10_n02690373_5177.png,n02690373_5177.png,0.0,0.17260511,5.827497,-3.9986126
vit_b_16,1,297,NaN,chair,chair,1.5,0297_hp_dnn_1.5_chair_10_n04429376_28121.png,n04429376_28121.png,1.0,2.3396924,0.91946864,1.0042498
vit_b_16,1,298,NaN,knife,truck,0.55,0298_hp_dnn_0.55_truck_10_n03417042_6517.png,n03417042_6517.png,0.0,-0.74804604,3.3652477,-2.9085379
vit_b_16,1,299,NaN,clock,chair,0.55,0299_hp_dnn_0.55_chair_10_n03376595_5503.png,n03376595_5503.png,0.0,1.6509029,4.0067577,-1.6658411
vit_b_16,1,300,NaN,clock,clock,1.5,0300_hp_dnn_1.5_clock_10_n03196217_7918.png,n03196217_7918.png,1.0,5.9916058,0.9803823,3.5434701
vit_b_16,1,301,NaN,car,car,1,0301_hp_dnn_1_car_10_n04285008_7751.png,n04285008_7751.png,1.0,5.725988,1.6836962,2.858332
vit_b_16,1,302,NaN,clock,clock,0.4,0302_hp_dnn_0.4_clock_10_n03196217_2628.png,n03196217_2628.png,1.0,2.5532207,2.4713445,0.057895273
vit_b_16,1,303,NaN,bird,bird,0.55,0303_hp_dnn_0.55_bird_10_n01833805_6395.png,n01833805_6395.png,1.0,1.8507882,1.2081906,0.4543852
vit_b_16,1,304,NaN,knife,boat,0.4,0304_hp_dnn_0.4_boat_10_n03344393_6015.png,n03344393_6015.png,0.0,-0.66621786,3.700385,-3.0876546
vit_b_16,1,305,NaN,knife,elephant,1.5,0305_hp_dnn_1.5_elephant_10_n02504013_2739.png,n02504013_2739.png,0.0,-0.18576872,2.4714596,-1.8789443
vit_b_16,1,306,NaN,clock,keyboard,0.45,0306_hp_dnn_0.45_keyboard_10_n03085013_23316.png,n03085013_23316.png,0.0,0.81133497,3.6845596,-2.0316768
vit_b_16,1,307,NaN,clock,airplane,1,0307_hp_dnn_1_airplane_10_n02690373_20350.png,n02690373_20350.png,0.0,1.5973305,3.4426432,-1.3048332
vit_b_16,1,308,NaN,clock,clock,3,0308_hp_dnn_3_clock_10_n02708093_3484.png,n02708093_3484.png,1.0,4.8753204,1.0035391,2.737763
vit_b_16,1,309,NaN,clock,bicycle,0.55,0309_hp_dnn_0.55_bicycle_10_n03792782_10185.png,n03792782_10185.png,0.0,-0.23893031,3.669276,-2.7635193
vit_b_16,1,310,NaN,knife,knife,3,0310_hp_dnn_3_knife_10_n03041632_42196.png,n03041632_42196.png,1.0,11.042907,1.4442353,6.7872853
vit_b_16,1,311,NaN,bird,bird,inf,0311_hp_dnn_inf_bird_10_n01855672_6132.png,n01855672_6132.png,1.0,0.30559605,0.108028114,0.13970163
vit_b_16,1,312,NaN,knife,bottle,0.4,0312_hp_dnn_0.4_bottle_10_n03983396_3047.png,n03983396_3047.png,0.0,0.6113151,3.6525667,-2.1504898
vit_b_16,1,313,NaN,knife,bottle,0.4,0313_hp_dnn_0.4_bottle_10_n04557648_2093.png,n04557648_2093.png,0.0,1.0555679,4.460044,-2.4073281
vit_b_16,1,314,NaN,keyboard,keyboard,0.55,0314_hp_dnn_0.55_keyboard_10_n04505470_7686.png,n04505470_7686.png,1.0,5.8243313,3.1987448,1.85657
vit_b_16,1,315,NaN,bear,bear,1.5,0315_hp_dnn_1.5_bear_10_n02132136_5051.png,n02132136_5051.png,1.0,1.767695,1.4785324,0.20446879
vit_b_16,1,316,NaN,clock,bear,1,0316_hp_dnn_1_bear_10_n02134418_24559.png,n02134418_24559.png,0.0,-0.8003533,3.2769253,-2.8830714
vit_b_16,1,317,NaN,clock,oven,0.55,0317_hp_dnn_0.55_oven_10_n04111531_3702.png,n04111531_3702.png,0.0,-0.1723459,2.3946567,-1.8151449
vit_b_16,1,318,NaN,clock,bicycle,1,0318_hp_dnn_1_bicycle_10_n02835271_24230.png,n02835271_24230.png,0.0,1.9385753,2.5022647,-0.39858866
vit_b_16,1,319,NaN,keyboard,keyboard,1.5,0319_hp_dnn_1.5_keyboard_10_n03085013_2272.png,n03085013_2272.png,1.0,6.6778526,0.6990055,4.2276835
vit_b_16,1,320,NaN,clock,keyboard,0.55,0320_hp_dnn_0.55_keyboard_10_n03085013_23201.png,n03085013_23201.png,0.0,0.58662957,1.8432096,-0.88853633
vit_b_16,1,321,NaN,clock,boat,1.5,0321_hp_dnn_1.5_boat_10_n04273569_9803.png,n04273569_9803.png,0.0,2.2275386,2.5766077,-0.24682915
vit_b_16,1,322,NaN,clock,boat,0.4,0322_hp_dnn_0.4_boat_10_n04612504_29813.png,n04612504_29813.png,0.0,-0.65080035,3.6178873,-3.018418
vit_b_16,1,323,NaN,clock,clock,1,0323_hp_dnn_1_clock_10_n02708093_1291.png,n02708093_1291.png,1.0,5.1251836,2.708376,1.7089411
vit_b_16,1,324,NaN,knife,oven,0.4,0324_hp_dnn_0.4_oven_10_n04111531_1794.png,n04111531_1794.png,0.0,0.49732944,4.650933,-2.9370413
vit_b_16,1,325,NaN,clock,bear,0.4,0325_hp_dnn_0.4_bear_10_n02132136_5612.png,n02132136_5612.png,0.0,-1.0108246,2.5772803,-2.5371733
vit_b_16,1,326,NaN,clock,boat,1.5,0326_hp_dnn_1.5_boat_10_n04273569_3401.png,n04273569_3401.png,0.0,1.3147112,2.077818,-0.5395979
vit_b_16,1,327,NaN,cat,cat,3,0327_hp_dnn_3_cat_10_n02125311_16544.png,n02125311_16544.png,1.0,1.395486,0.51647735,0.621553
vit_b_16,1,328,NaN,chair,clock,1.5,0328_hp_dnn_1.5_clock_10_n03196217_10717.png,n03196217_10717.png,0.0,1.3590018,1.8206545,-0.3264378
vit_b_16,1,329,NaN,bear,bear,3,0329_hp_dnn_3_bear_10_n02134418_47.png,n02134418_47.png,1.0,0.68906224,0.46506664,0.15838881
vit_b_16,1,330,NaN,keyboard,bottle,3,0330_hp_dnn_3_bottle_10_n04591713_4380.png,n04591713_4380.png,0.0,1.1038157,4.8279295,-2.6333463
vit_b_16,1,331,NaN,clock,chair,0.55,0331_hp_dnn_0.55_chair_10_n04429376_8710.png,n04429376_8710.png,0.0,0.711527,4.101237,-2.3968868
vit_b_16,1,332,NaN,bicycle,bicycle,3,0332_hp_dnn_3_bicycle_10_n02835271_781.png,n02835271_781.png,1.0,5.2064896,0.29516065,3.4728339
vit_b_16,1,333,NaN,bear,bear,1.5,0333_hp_dnn_1.5_bear_10_n02134418_875.png,n02134418_875.png,1.0,3.5318742,2.2523763,0.90474164
vit_b_16,1,334,NaN,knife,dog,0.55,0334_hp_dnn_0.55_dog_10_n02094433_10343.png,n02094433_10343.png,0.0,-0.42460674,3.6201882,-2.860102
vit_b_16,1,335,NaN,airplane,airplane,3,0335_hp_dnn_3_airplane_10_n02690373_1053.png,n02690373_1053.png,1.0,9.515189,0.41885647,6.4320784
vit_b_16,1,336,NaN,airplane,airplane,3,0336_hp_dnn_3_airplane_10_n02690373_18848.png,n02690373_18848.png,1.0,9.090777,1.289486,5.516346
vit_b_16,1,337,NaN,keyboard,keyboard,3,0337_hp_dnn_3_keyboard_10_n03085013_18741.png,n03085013_18741.png,1.0,4.4630685,1.605153,2.0208514
vit_b_16,1,338,NaN,bear,bear,inf,0338_hp_dnn_inf_bear_10_n02134418_3152.png,n02134418_3152.png,1.0,2.6933317,0.26079366,1.7200642
vit_b_16,1,339,NaN,clock,bicycle,1.5,0339_hp_dnn_1.5_bicycle_10_n03792782_14557.png,n03792782_14557.png,0.0,1.0568134,2.38966,-0.9424648
vit_b_16,1,340,NaN,clock,bird,0.7,0340_hp_dnn_0.7_bird_10_n01796340_5262.png,n01796340_5262.png,0.0,-0.70355815,3.6825123,-3.1014202
vit_b_16,1,341,NaN,knife,bicycle,1,0341_hp_dnn_1_bicycle_10_n03792782_4559.png,n03792782_4559.png,0.0,1.8552355,3.3293548,-1.0423598
vit_b_16,1,342,NaN,clock,bear,0.45,0342_hp_dnn_0.45_bear_10_n02134084_3177.png,n02134084_3177.png,0.0,-1.014814,4.311092,-3.765984
vit_b_16,1,343,NaN,knife,elephant,0.4,0343_hp_dnn_0.4_elephant_10_n02504458_5008.png,n02504458_5008.png,0.0,-1.1084349,2.9575658,-2.8750968
vit_b_16,1,344,NaN,chair,oven,3,0344_hp_dnn_3_oven_10_n04111531_7955.png,n04111531_7955.png,0.0,1.2381867,1.8471248,-0.43058425
vit_b_16,1,345,NaN,bicycle,bicycle,inf,0345_hp_dnn_inf_bicycle_10_n02835271_13793.png,n02835271_13793.png,1.0,5.4379663,0.9030133,3.2066963
vit_b_16,1,346,NaN,knife,keyboard,0.45,0346_hp_dnn_0.45_keyboard_10_n03085013_14810.png,n03085013_14810.png,0.0,1.2134676,3.7369328,-1.7843593
vit_b_16,1,347,NaN,knife,car,0.7,0347_hp_dnn_0.7_car_10_n02814533_39933.png,n02814533_39933.png,0.0,-0.10170984,2.8781967,-2.1071122
vit_b_16,1,348,NaN,knife,bird,1,0348_hp_dnn_1_bird_10_n02027492_4897.png,n02027492_4897.png,0.0,0.6804739,1.1397856,-0.32478243
vit_b_16,1,349,NaN,keyboard,keyboard,3,0349_hp_dnn_3_keyboard_10_n03085013_23776.png,n03085013_23776.png,1.0,6.372671,0.58805823,4.0903387
vit_b_16,1,350,NaN,car,car,1.5,0350_hp_dnn_1.5_car_10_n02814533_31493.png,n02814533_31493.png,1.0,4.4531903,2.4019737,1.4504292
vit_b_16,1,351,NaN,airplane,boat,1.5,0351_hp_dnn_1.5_boat_10_n03344393_7631.png,n03344393_7631.png,0.0,1.5367249,1.9758352,-0.31049785
vit_b_16,1,352,NaN,knife,bicycle,0.4,0352_hp_dnn_0.4_bicycle_10_n02835271_1261.png,n02835271_1261.png,0.0,-0.67351055,3.5875554,-3.0130286
vit_b_16,1,353,NaN,clock,clock,1,0353_hp_dnn_1_clock_10_n03196217_1850.png,n03196217_1850.png,1.0,2.4897761,2.174268,0.22309794
vit_b_16,1,354,NaN,bear,bear,inf,0354_hp_dnn_inf_bear_10_n02132136_22387.png,n02132136_22387.png,1.0,3.8453841,0.68194455,2.2368896
vit_b_16,1,355,NaN,airplane,airplane,1.5,0355_hp_dnn_1.5_airplane_10_n02690373_2316.png,n02690373_2316.png,1.0,7.3045154,0.9728405,4.4771705
vit_b_16,1,356,NaN,clock,cat,0.7,0356_hp_dnn_0.7_cat_10_n02123597_3634.png,n02123597_3634.png,0.0,-0.21436815,3.8363762,-2.864309
vit_b_16,1,357,NaN,knife,bird,0.45,0357_hp_dnn_0.45_bird_10_n02018207_4151.png,n02018207_4151.png,0.0,0.14528279,3.6927752,-2.508456
vit_b_16,1,358,NaN,clock,knife,0.7,0358_hp_dnn_0.7_knife_10_n03041632_94155.png,n03041632_94155.png,0.0,2.43427,3.958161,-1.0775539
vit_b_16,1,359,NaN,knife,bottle,0.45,0359_hp_dnn_0.45_bottle_10_n04560804_7509.png,n04560804_7509.png,0.0,0.49736732,3.4914184,-2.1171138
vit_b_16,1,360,NaN,knife,cat,0.4,0360_hp_dnn_0.4_cat_10_n02123045_12748.png,n02123045_12748.png,0.0,-0.3794026,3.8232994,-2.971759
vit_b_16,1,361,NaN,knife,elephant,0.7,0361_hp_dnn_0.7_elephant_10_n02504013_6.png,n02504013_6.png,0.0,0.050792076,3.20358,-2.2293577
vit_b_16,1,362,NaN,clock,elephant,0.4,0362_hp_dnn_0.4_elephant_10_n02504013_1492.png,n02504013_1492.png,0.0,-0.51160103,3.2698777,-2.6739092
vit_b_16,1,363,NaN,clock,dog,0.4,0363_hp_dnn_0.4_dog_10_n02107142_27162.png,n02107142_27162.png,0.0,-0.8656165,3.2384949,-2.902045
vit_b_16,1,364,NaN,clock,bear,0.7,0364_hp_dnn_0.7_bear_10_n02134418_962.png,n02134418_962.png,0.0,-0.5212792,3.8133736,-3.0650625
vit_b_16,1,365,NaN,truck,truck,0.7,0365_hp_dnn_0.7_truck_10_n03417042_9693.png,n03417042_9693.png,1.0,4.4717026,1.7272868,1.940595
vit_b_16,1,366,NaN,clock,oven,1,0366_hp_dnn_1_oven_10_n04111531_2116.png,n04111531_2116.png,0.0,0.9083161,1.5211991,-0.43337375
vit_b_16,1,367,NaN,keyboard,keyboard,inf,0367_hp_dnn_inf_keyboard_10_n03085013_20460.png,n03085013_20460.png,1.0,6.19786,0.44890106,4.065128
vit_b_16,1,368,NaN,clock,bird,0.45,0368_hp_dnn_0.45_bird_10_n01796340_6191.png,n01796340_6191.png,0.0,-0.5025488,3.9249353,-3.130704
vit_b_16,1,369,NaN,chair,oven,1.5,0369_hp_dnn_1.5_oven_10_n04111531_8046.png,n04111531_8046.png,0.0,1.2410872,3.460598,-1.5694312
vit_b_16,1,370,NaN,clock,boat,0.45,0370_hp_dnn_0.45_boat_10_n03344393_11788.png,n03344393_11788.png,0.0,-0.53201735,4.2480965,-3.380051
vit_b_16,1,371,NaN,cat,cat,inf,0371_hp_dnn_inf_cat_10_n02123394_2765.png,n02123394_2765.png,1.0,1.81681,1.3104649,0.3580401
vit_b_16,1,372,NaN,knife,bicycle,0.4,0372_hp_dnn_0.4_bicycle_10_n03792782_26834.png,n03792782_26834.png,0.0,-0.42788082,4.129617,-3.222638
vit_b_16,1,373,NaN,clock,cat,1.5,0373_hp_dnn_1.5_cat_10_n02125311_37036.png,n02125311_37036.png,0.0,-0.3917129,2.05649,-1.7311409
vit_b_16,1,374,NaN,knife,bicycle,0.7,0374_hp_dnn_0.7_bicycle_10_n03792782_4067.png,n03792782_4067.png,0.0,0.46386355,3.8263502,-2.3776371
vit_b_16,1,375,NaN,bear,bear,inf,0375_hp_dnn_inf_bear_10_n02134418_3886.png,n02134418_3886.png,1.0,3.6710844,0.242354,2.4244785
vit_b_16,1,376,NaN,chair,dog,0.7,0376_hp_dnn_0.7_dog_10_n02110185_9014.png,n02110185_9014.png,0.0,-0.45411605,2.9666986,-2.4188814
vit_b_16,1,377,NaN,bear,bear,inf,0377_hp_dnn_inf_bear_10_n02134084_14888.png,n02134084_14888.png,1.0,4.2933397,1.8511863,1.7268633
vit_b_16,1,378,NaN,clock,truck,1.5,0378_hp_dnn_1.5_truck_10_n03417042_5249.png,n03417042_5249.png,0.0,-0.15989262,2.7171211,-2.0343559
vit_b_16,1,379,NaN,knife,oven,1,0379_hp_dnn_1_oven_10_n04111531_10711.png,n04111531_10711.png,0.0,-0.17466214,2.6190805,-1.9754744
vit_b_16,1,380,NaN,car,car,1.5,0380_hp_dnn_1.5_car_10_n04285008_15271.png,n04285008_15271.png,1.0,5.0244656,2.3076673,1.9210665
vit_b_16,1,381,NaN,clock,cat,0.45,0381_hp_dnn_0.45_cat_10_n02123597_12232.png,n02123597_12232.png,0.0,-0.25764078,4.175434,-3.1346574
vit_b_16,1,382,NaN,clock,clock,3,0382_hp_dnn_3_clock_10_n04548280_8083.png,n04548280_8083.png,1.0,3.6977966,1.6879745,1.4211589
vit_b_16,1,383,NaN,clock,chair,0.45,0383_hp_dnn_0.45_chair_10_n04099969_8946.png,n04099969_8946.png,0.0,0.88984084,3.5525036,-1.8827869
vit_b_16,1,384,NaN,knife,keyboard,0.7,0384_hp_dnn_0.7_keyboard_10_n03085013_21973.png,n03085013_21973.png,0.0,0.3665048,3.1600928,-1.9753652
vit_b_16,1,385,NaN,knife,bottle,0.7,0385_hp_dnn_0.7_bottle_10_n04560804_15225.png,n04560804_15225.png,0.0,0.23281692,3.3323007,-2.191666
vit_b_16,1,386,NaN,cat,cat,inf,0386_hp_dnn_inf_cat_10_n02123045_10395.png,n02123045_10395.png,1.0,4.3342266,0.9556231,2.3890336
vit_b_16,1,387,NaN,clock,truck,0.45,0387_hp_dnn_0.45_truck_10_n03417042_4188.png,n03417042_4188.png,0.0,-0.85183394,2.9824274,-2.7112322
vit_b_16,1,388,NaN,keyboard,keyboard,1.5,0388_hp_dnn_1.5_keyboard_10_n03085013_21615.png,n03085013_21615.png,1.0,6.348313,0.66373587,4.019603
vit_b_16,1,389,NaN,knife,knife,inf,0389_hp_dnn_inf_knife_10_n03041632_26989.png,n03041632_26989.png,1.0,9.611964,0.31746915,6.5722003
vit_b_16,1,390,NaN,knife,airplane,0.55,0390_hp_dnn_0.55_airplane_10_n02690373_16986.png,n02690373_16986.png,0.0,0.47265488,4.566053,-2.8944695
vit_b_16,1,391,NaN,bicycle,bicycle,inf,0391_hp_dnn_inf_bicycle_10_n02835271_9067.png,n02835271_9067.png,1.0,5.5443163,0.17423691,3.7972198
vit_b_16,1,392,NaN,clock,dog,0.45,0392_hp_dnn_0.45_dog_10_n02106382_9188.png,n02106382_9188.png,0.0,-0.7622706,3.848245,-3.2601268
vit_b_16,1,393,NaN,boat,boat,inf,0393_hp_dnn_inf_boat_10_n02951358_3205.png,n02951358_3205.png,1.0,1.9571378,0.27619556,1.1886057
vit_b_16,1,394,NaN,knife,knife,0.4,0394_hp_dnn_0.4_knife_10_n03041632_45270.png,n03041632_45270.png,1.0,3.3016121,2.8909693,0.29036835
vit_b_16,1,395,NaN,car,car,inf,0395_hp_dnn_inf_car_10_n03100240_6376.png,n03100240_6376.png,1.0,6.0442615,0.6357491,3.8243957
vit_b_16,1,396,NaN,truck,truck,1,0396_hp_dnn_1_truck_10_n03796401_430.png,n03796401_430.png,1.0,4.1439877,1.4517852,1.9036747
vit_b_16,1,397,NaN,knife,knife,0.7,0397_hp_dnn_0.7_knife_10_n03041632_24181.png,n03041632_24181.png,1.0,2.8258462,1.4292902,0.98751426
vit_b_16,1,398,NaN,clock,bear,1,0398_hp_dnn_1_bear_10_n02134084_16190.png,n02134084_16190.png,0.0,-0.36711085,3.2591133,-2.5641277
vit_b_16,1,399,NaN,clock,bear,0.55,0399_hp_dnn_0.55_bear_10_n02132136_7253.png,n02132136_7253.png,0.0,-0.22127211,2.5880053,-1.9864593
vit_b_16,1,400,NaN,knife,boat,1,0400_hp_dnn_1_boat_10_n03662601_34676.png,n03662601_34676.png,0.0,-0.6723503,1.9640348,-1.8642057
vit_b_16,1,401,NaN,clock,knife,0.55,0401_hp_dnn_0.55_knife_10_n03041632_81471.png,n03041632_81471.png,0.0,3.6183615,4.104836,-0.34398943
vit_b_16,1,402,NaN,knife,cat,0.7,0402_hp_dnn_0.7_cat_10_n02123597_3822.png,n02123597_3822.png,0.0,-0.4205251,2.5103984,-2.072476
vit_b_16,1,403,NaN,keyboard,keyboard,1.5,0403_hp_dnn_1.5_keyboard_10_n03085013_4823.png,n03085013_4823.png,1.0,5.3440213,0.7541212,3.2455494
vit_b_16,1,404,NaN,knife,dog,0.4,0404_hp_dnn_0.4_dog_10_n02108551_8385.png,n02108551_8385.png,0.0,-0.5226537,3.1951523,-2.6288857
vit_b_16,1,405,NaN,clock,cat,0.7,0405_hp_dnn_0.7_cat_10_n02124075_8732.png,n02124075_8732.png,0.0,0.18205869,2.769621,-1.8296827
vit_b_16,1,406,NaN,clock,dog,3,0406_hp_dnn_3_dog_10_n02093428_17625.png,n02093428_17625.png,0.0,0.40355128,0.7074714,-0.21490397
vit_b_16,1,407,NaN,chair,chair,inf,0407_hp_dnn_inf_chair_10_n02791124_6999.png,n02791124_6999.png,1.0,2.7229776,0.21579067,1.7728488
vit_b_16,1,408,NaN,bird,bird,3,0408_hp_dnn_3_bird_10_n02028035_521.png,n02028035_521.png,1.0,1.5045593,0.87403727,0.4458464
vit_b_16,1,409,NaN,clock,truck,0.4,0409_hp_dnn_0.4_truck_10_n03417042_750.png,n03417042_750.png,0.0,-1.540619,2.946743,-3.1730442
vit_b_16,1,410,NaN,airplane,airplane,inf,0410_hp_dnn_inf_airplane_10_n02690373_5779.png,n02690373_5779.png,1.0,8.888772,0.31156775,6.0649996
vit_b_16,1,411,NaN,knife,cat,1.5,0411_hp_dnn_1.5_cat_10_n02123045_7154.png,n02123045_7154.png,0.0,-0.27144805,2.582972,-2.01838
vit_b_16,1,412,NaN,bottle,bottle,1.5,0412_hp_dnn_1.5_bottle_10_n04591713_6958.png,n04591713_6958.png,1.0,3.966848,2.0445497,1.3592701
vit_b_16,1,413,NaN,knife,bird,1.5,0413_hp_dnn_1.5_bird_10_n01818515_42621.png,n01818515_42621.png,0.0,-0.6714739,2.3292038,-2.1217997
vit_b_16,1,414,NaN,truck,truck,inf,0414_hp_dnn_inf_truck_10_n03796401_1330.png,n03796401_1330.png,1.0,2.3903883,0.21134199,1.5408183
vit_b_16,1,415,NaN,knife,bird,1.5,0415_hp_dnn_1.5_bird_10_n01843065_6365.png,n01843065_6365.png,0.0,0.90844476,1.0392462,-0.09249058
vit_b_16,1,416,NaN,bottle,bottle,1.5,0416_hp_dnn_1.5_bottle_10_n03983396_11898.png,n03983396_11898.png,1.0,5.111444,3.5578413,1.0985631
vit_b_16,1,417,NaN,bird,bird,3,0417_hp_dnn_3_bird_10_n01530575_3831.png,n01530575_3831.png,1.0,1.4549769,1.3764048,0.055558905
vit_b_16,1,418,NaN,clock,bottle,0.4,0418_hp_dnn_0.4_bottle_10_n03983396_8837.png,n03983396_8837.png,0.0,0.5167647,3.7917006,-2.3157294
vit_b_16,1,419,NaN,truck,car,0.7,0419_hp_dnn_0.7_car_10_n02814533_90798.png,n02814533_90798.png,0.0,3.3180416,4.456539,-0.8050394
vit_b_16,1,420,NaN,bird,bird,3,0420_hp_dnn_3_bird_10_n01819313_3440.png,n01819313_3440.png,1.0,1.4775059,0.22734801,0.8839952
vit_b_16,1,421,NaN,clock,dog,0.55,0421_hp_dnn_0.55_dog_10_n02090721_4433.png,n02090721_4433.png,0.0,-0.9647451,3.8515837,-3.405659
vit_b_16,1,422,NaN,elephant,elephant,3,0422_hp_dnn_3_elephant_10_n02504013_9566.png,n02504013_9566.png,1.0,8.391769,0.91402006,5.287567
vit_b_16,1,423,NaN,clock,dog,1.5,0423_hp_dnn_1.5_dog_10_n02105251_6599.png,n02105251_6599.png,0.0,-0.07125851,2.1551945,-1.5743401
vit_b_16,1,424,NaN,clock,chair,0.7,0424_hp_dnn_0.7_chair_10_n02791124_5759.png,n02791124_5759.png,0.0,1.7649022,4.01969,-1.5943758
vit_b_16,1,425,NaN,elephant,elephant,inf,0425_hp_dnn_inf_elephant_10_n02504458_150.png,n02504458_150.png,1.0,6.671397,0.18115905,4.5892916
vit_b_16,1,426,NaN,clock,clock,0.45,0426_hp_dnn_0.45_clock_10_n04548280_10040.png,n04548280_10040.png,1.0,5.2525306,1.687798,2.5206466
vit_b_16,1,427,NaN,clock,elephant,0.7,0427_hp_dnn_0.7_elephant_10_n02504458_155.png,n02504458_155.png,0.0,-0.6384252,2.9305713,-2.5236616
vit_b_16,1,428,NaN,knife,knife,1,0428_hp_dnn_1_knife_10_n03041632_48062.png,n03041632_48062.png,1.0,6.0673904,1.300099,3.3709843
vit_b_16,1,429,NaN,truck,truck,1.5,0429_hp_dnn_1.5_truck_10_n04467665_40361.png,n04467665_40361.png,1.0,3.2126985,1.3422121,1.3226336
vit_b_16,1,430,NaN,knife,bird,0.45,0430_hp_dnn_0.45_bird_10_n01614925_7608.png,n01614925_7608.png,0.0,-0.46828297,3.0955443,-2.5200064
vit_b_16,1,431,NaN,clock,bear,0.45,0431_hp_dnn_0.45_bear_10_n02133161_2749.png,n02133161_2749.png,0.0,-0.9082438,3.0192206,-2.7771368
vit_b_16,1,432,NaN,boat,boat,0.55,0432_hp_dnn_0.55_boat_10_n04612504_654.png,n04612504_654.png,1.0,2.3410416,2.1627438,0.12607555
vit_b_16,1,433,NaN,bottle,bottle,1,0433_hp_dnn_1_bottle_10_n04579145_287.png,n04579145_287.png,1.0,4.611988,1.701516,2.0580144
vit_b_16,1,434,NaN,elephant,bear,3,0434_hp_dnn_3_bear_10_n02133161_1423.png,n02133161_1423.png,0.0,0.62086535,1.0371447,-0.29435393
vit_b_16,1,435,NaN,bicycle,bicycle,0.7,0435_hp_dnn_0.7_bicycle_10_n02835271_4656.png,n02835271_4656.png,1.0,4.008114,2.6713135,0.9452606
vit_b_16,1,436,NaN,clock,clock,0.7,0436_hp_dnn_0.7_clock_10_n02708093_3688.png,n02708093_3688.png,1.0,3.7067516,0.9468303,1.9515591
vit_b_16,1,437,NaN,airplane,airplane,inf,0437_hp_dnn_inf_airplane_10_n02690373_10278.png,n02690373_10278.png,1.0,8.817893,0.77033186,5.6904855
vit_b_16,1,438,NaN,clock,car,0.4,0438_hp_dnn_0.4_car_10_n04285008_11133.png,n04285008_11133.png,0.0,-0.92259026,3.2999756,-2.9858048
vit_b_16,1,439,NaN,chair,knife,1,0439_hp_dnn_1_knife_10_n03041632_4214.png,n03041632_4214.png,0.0,1.8184885,2.9586685,-0.806229
vit_b_16,1,440,NaN,oven,oven,inf,0440_hp_dnn_inf_oven_10_n04111531_7741.png,n04111531_7741.png,1.0,8.651119,2.7428837,4.1777534
vit_b_16,1,441,NaN,bicycle,bicycle,3,0441_hp_dnn_3_bicycle_10_n03792782_4472.png,n03792782_4472.png,1.0,7.234164,1.4250429,4.107669
vit_b_16,1,442,NaN,clock,bird,0.7,0442_hp_dnn_0.7_bird_10_n01798484_18666.png,n01798484_18666.png,0.0,-0.5812962,3.0949154,-2.5994742
vit_b_16,1,443,NaN,keyboard,keyboard,1.5,0443_hp_dnn_1.5_keyboard_10_n04505470_5059.png,n04505470_5059.png,1.0,5.890126,0.61514467,3.7299752
vit_b_16,1,444,NaN,knife,elephant,0.55,0444_hp_dnn_0.55_elephant_10_n02504013_2369.png,n02504013_2369.png,0.0,-0.46707547,3.0660777,-2.4983165
vit_b_16,1,445,NaN,bottle,bottle,3,0445_hp_dnn_3_bottle_10_n02823428_10796.png,n02823428_10796.png,1.0,4.6796217,0.54096866,2.9264696
vit_b_16,1,446,NaN,keyboard,oven,3,0446_hp_dnn_3_oven_10_n04111531_4421.png,n04111531_4421.png,0.0,0.27341866,2.2187648,-1.3755674
vit_b_16,1,447,NaN,bicycle,bicycle,inf,0447_hp_dnn_inf_bicycle_10_n02835271_7303.png,n02835271_7303.png,1.0,5.784506,0.2639495,3.9036229
vit_b_16,1,448,NaN,chair,chair,inf,0448_hp_dnn_inf_chair_10_n02791124_7877.png,n02791124_7877.png,1.0,1.6142849,0.5083571,0.782009
vit_b_16,1,449,NaN,bottle,bottle,1.5,0449_hp_dnn_1.5_bottle_10_n04560804_12099.png,n04560804_12099.png,1.0,2.0777872,0.29406363,1.261283
vit_b_16,1,450,NaN,airplane,boat,1,0450_hp_dnn_1_boat_10_n03662601_18924.png,n03662601_18924.png,0.0,2.2154212,4.1823654,-1.3908396
vit_b_16,1,451,NaN,knife,bottle,1,0451_hp_dnn_1_bottle_10_n04591713_4206.png,n04591713_4206.png,0.0,2.7025573,3.0188932,-0.22368328
vit_b_16,1,452,NaN,clock,clock,0.55,0452_hp_dnn_0.55_clock_10_n04548280_6689.png,n04548280_6689.png,1.0,1.5951248,0.65306115,0.66613966
vit_b_16,1,453,NaN,knife,dog,0.4,0453_hp_dnn_0.4_dog_10_n02090721_5305.png,n02090721_5305.png,0.0,-0.8147917,3.5119762,-3.059487
vit_b_16,1,454,NaN,clock,clock,0.7,0454_hp_dnn_0.7_clock_10_n03196217_1746.png,n03196217_1746.png,1.0,3.1345932,2.498837,0.44954756
vit_b_16,1,455,NaN,keyboard,keyboard,3,0455_hp_dnn_3_keyboard_10_n04505470_7721.png,n04505470_7721.png,1.0,5.6086326,0.20049487,3.824131
vit_b_16,1,456,NaN,clock,clock,0.55,0456_hp_dnn_0.55_clock_10_n04548280_3248.png,n04548280_3248.png,1.0,6.074799,2.084159,2.8218088
vit_b_16,1,457,NaN,bird,bird,inf,0457_hp_dnn_inf_bird_10_n01534433_28009.png,n01534433_28009.png,1.0,0.4826047,0.4797387,0.002026568
vit_b_16,1,458,NaN,clock,chair,0.4,0458_hp_dnn_0.4_chair_10_n04099969_142.png,n04099969_142.png,0.0,0.87136793,3.1480114,-1.6098301
vit_b_16,1,459,NaN,bicycle,bicycle,0.55,0459_hp_dnn_0.55_bicycle_10_n03792782_7092.png,n03792782_7092.png,1.0,5.517926,3.1443386,1.6783799
vit_b_16,1,460,NaN,knife,keyboard,0.45,0460_hp_dnn_0.45_keyboard_10_n03085013_25559.png,n03085013_25559.png,0.0,0.54175204,4.334085,-2.6815844
vit_b_16,1,461,NaN,knife,elephant,0.7,0461_hp_dnn_0.7_elephant_10_n02504013_9144.png,n02504013_9144.png,0.0,2.989266,3.8312185,-0.5953504
vit_b_16,1,462,NaN,knife,clock,0.45,0462_hp_dnn_0.45_clock_10_n03196217_2003.png,n03196217_2003.png,0.0,3.395422,3.52969,-0.09494185
vit_b_16,1,463,NaN,knife,elephant,1,0463_hp_dnn_1_elephant_10_n02504013_3169.png,n02504013_3169.png,0.0,0.18638125,2.8033633,-1.8504857
vit_b_16,1,464,NaN,clock,dog,0.55,0464_hp_dnn_0.55_dog_10_n02089867_6424.png,n02089867_6424.png,0.0,-0.9916654,3.4927456,-3.1709576
vit_b_16,1,465,NaN,keyboard,keyboard,1,0465_hp_dnn_1_keyboard_10_n03085013_22494.png,n03085013_22494.png,1.0,3.8661237,2.03131,1.2974092
vit_b_16,1,466,NaN,knife,dog,0.4,0466_hp_dnn_0.4_dog_10_n02106662_37555.png,n02106662_37555.png,0.0,-0.9140118,3.9274168,-3.423407
vit_b_16,1,467,NaN,clock,car,0.55,0467_hp_dnn_0.55_car_10_n02814533_4726.png,n02814533_4726.png,0.0,2.2752328,3.910599,-1.1563785
vit_b_16,1,468,NaN,clock,elephant,0.45,0468_hp_dnn_0.45_elephant_10_n02504458_1473.png,n02504458_1473.png,0.0,-1.0083201,3.9570398,-3.5110395
vit_b_16,1,469,NaN,knife,bottle,0.55,0469_hp_dnn_0.55_bottle_10_n04557648_3350.png,n04557648_3350.png,0.0,0.48435622,4.0882206,-2.548317
vit_b_16,1,470,NaN,knife,knife,0.4,0470_hp_dnn_0.4_knife_10_n03041632_31909.png,n03041632_31909.png,1.0,4.046288,3.1305587,0.6475184
vit_b_16,1,471,NaN,clock,truck,0.4,0471_hp_dnn_0.4_truck_10_n04467665_70880.png,n04467665_70880.png,0.0,-1.4307797,3.888219,-3.7611003
vit_b_16,1,472,NaN,clock,dog,0.45,0472_hp_dnn_0.45_dog_10_n02097209_7557.png,n02097209_7557.png,0.0,-0.8253856,3.3964279,-2.985273
vit_b_16,1,473,NaN,clock,oven,1,0473_hp_dnn_1_oven_10_n04111531_4438.png,n04111531_4438.png,0.0,-0.012392013,3.0711868,-2.1804194
vit_b_16,1,474,NaN,airplane,airplane,0.7,0474_hp_dnn_0.7_airplane_10_n02690373_194.png,n02690373_194.png,1.0,6.212213,3.3563554,2.0193963
vit_b_16,1,475,NaN,bicycle,bicycle,1.5,0475_hp_dnn_1.5_bicycle_10_n02835271_6953.png,n02835271_6953.png,1.0,4.6698265,1.1633874,2.479427
vit_b_16,1,476,NaN,clock,oven,0.45,0476_hp_dnn_0.45_oven_10_n04111531_14435.png,n04111531_14435.png,0.0,-0.20581591,3.65983,-2.7334244
vit_b_16,1,477,NaN,clock,elephant,1.5,0477_hp_dnn_1.5_elephant_10_n02504013_5192.png,n02504013_5192.png,0.0,1.4388099,1.9540113,-0.36430246
vit_b_16,1,478,NaN,clock,chair,0.7,0478_hp_dnn_0.7_chair_10_n03376595_3566.png,n03376595_3566.png,0.0,2.0256364,3.2070768,-0.8354045
vit_b_16,1,479,NaN,clock,truck,1,0479_hp_dnn_1_truck_10_n03417042_22709.png,n03417042_22709.png,0.0,-0.2885605,1.6190089,-1.3488553
vit_b_16,1,480,NaN,keyboard,keyboard,inf,0480_hp_dnn_inf_keyboard_10_n04505470_4603.png,n04505470_4603.png,1.0,6.5885425,0.43599963,4.350505
vit_b_16,1,481,NaN,knife,car,0.55,0481_hp_dnn_0.55_car_10_n03100240_1794.png,n03100240_1794.png,0.0,-0.73731947,3.193957,-2.7798324
vit_b_16,1,482,NaN,clock,elephant,0.7,0482_hp_dnn_0.7_elephant_10_n02504458_1233.png,n02504458_1233.png,0.0,-0.35740834,3.9658973,-3.0570388
vit_b_16,1,483,NaN,knife,airplane,0.45,0483_hp_dnn_0.45_airplane_10_n02690373_3047.png,n02690373_3047.png,0.0,-0.62927145,4.279798,-3.4712365
vit_b_16,1,484,NaN,clock,elephant,0.55,0484_hp_dnn_0.55_elephant_10_n02504013_7422.png,n02504013_7422.png,0.0,0.045643285,2.3316264,-1.6164342
vit_b_16,1,485,NaN,clock,bicycle,0.45,0485_hp_dnn_0.45_bicycle_10_n03792782_16034.png,n03792782_16034.png,0.0,0.026188314,4.3183265,-3.035
vit_b_16,1,486,NaN,bicycle,bicycle,3,0486_hp_dnn_3_bicycle_10_n02835271_11922.png,n02835271_11922.png,1.0,5.612513,2.217131,2.4008977
vit_b_16,1,487,NaN,knife,truck,0.7,0487_hp_dnn_0.7_truck_10_n03796401_6526.png,n03796401_6526.png,0.0,0.4434983,2.9132314,-1.746365
vit_b_16,1,488,NaN,boat,boat,3,0488_hp_dnn_3_boat_10_n03662601_1834.png,n03662601_1834.png,1.0,2.5942147,0.3804293,1.5653827
vit_b_16,1,489,NaN,clock,dog,0.7,0489_hp_dnn_0.7_dog_10_n02100236_619.png,n02100236_619.png,0.0,-0.98193413,3.8521004,-3.4181786
vit_b_16,1,490,NaN,clock,truck,0.45,0490_hp_dnn_0.45_truck_10_n04467665_21266.png,n04467665_21266.png,0.0,-1.3759276,3.8172302,-3.672117
vit_b_16,1,491,NaN,knife,chair,0.55,0491_hp_dnn_0.55_chair_10_n04099969_18220.png,n04099969_18220.png,0.0,2.908523,3.0826874,-0.123152755
vit_b_16,1,492,NaN,keyboard,keyboard,1.5,0492_hp_dnn_1.5_keyboard_10_n03085013_4157.png,n03085013_4157.png,1.0,6.36255,0.72964543,3.9830651
vit_b_16,1,493,NaN,clock,bicycle,0.4,0493_hp_dnn_0.4_bicycle_10_n03792782_1276.png,n03792782_1276.png,0.0,-0.6345195,3.0107586,-2.577601
vit_b_16,1,494,NaN,boat,boat,3,0494_hp_dnn_3_boat_10_n03344393_1987.png,n03344393_1987.png,1.0,2.7064624,0.16880812,1.7943925
vit_b_16,1,495,NaN,clock,boat,0.45,0495_hp_dnn_0.45_boat_10_n03344393_381.png,n03344393_381.png,0.0,-0.6941558,4.3659453,-3.5780318
vit_b_16,1,496,NaN,clock,clock,inf,0496_hp_dnn_inf_clock_10_n02708093_8390.png,n02708093_8390.png,1.0,5.0196347,0.2590079,3.3662715
vit_b_16,1,497,NaN,keyboard,keyboard,0.55,0497_hp_dnn_0.55_keyboard_10_n04505470_1043.png,n04505470_1043.png,1.0,6.297245,0.9736994,3.7643151
vit_b_16,1,498,NaN,clock,dog,0.55,0498_hp_dnn_0.55_dog_10_n02100877_1902.png,n02100877_1902.png,0.0,-0.93249995,3.7523487,-3.3126884
vit_b_16,1,499,NaN,knife,knife,1.5,0499_hp_dnn_1.5_knife_10_n03041632_55083.png,n03041632_55083.png,1.0,3.3295455,0.87307215,1.736989
vit_b_16,1,500,NaN,clock,truck,1.5,0500_hp_dnn_1.5_truck_10_n04467665_45872.png,n04467665_45872.png,0.0,-0.38718772,2.7853165,-2.2432992
vit_b_16,1,501,NaN,clock,boat,0.7,0501_hp_dnn_0.7_boat_10_n04273569_3244.png,n04273569_3244.png,0.0,-0.70808023,3.7428405,-3.1472762
vit_b_16,1,502,NaN,clock,bear,0.45,0502_hp_dnn_0.45_bear_10_n02134418_2157.png,n02134418_2157.png,0.0,-1.072869,3.9997904,-3.586912
vit_b_16,1,503,NaN,bottle,bottle,3,0503_hp_dnn_3_bottle_10_n04591713_17618.png,n04591713_17618.png,1.0,4.2401996,1.1057667,2.2163787
vit_b_16,1,504,NaN,clock,cat,1,0504_hp_dnn_1_cat_10_n02125311_8496.png,n02125311_8496.png,0.0,-0.46624613,3.2416945,-2.6219099
vit_b_16,1,505,NaN,truck,car,inf,0505_hp_dnn_inf_car_10_n02814533_3560.png,n02814533_3560.png,0.0,2.065381,2.7964306,-0.5169301
vit_b_16,1,506,NaN,clock,truck,0.7,0506_hp_dnn_0.7_truck_10_n03417042_751.png,n03417042_751.png,0.0,-0.39505798,3.5920951,-2.819343
vit_b_16,1,507,NaN,keyboard,keyboard,inf,0507_hp_dnn_inf_keyboard_10_n03085013_23213.png,n03085013_23213.png,1.0,2.816186,1.2215852,1.1275531
vit_b_16,1,508,NaN,clock,bicycle,0.4,0508_hp_dnn_0.4_bicycle_10_n03792782_19709.png,n03792782_19709.png,0.0,-0.6631444,3.077919,-2.6453314
vit_b_16,1,509,NaN,oven,oven,inf,0509_hp_dnn_inf_oven_10_n04111531_3076.png,n04111531_3076.png,1.0,8.687622,0.3160219,5.9196153
vit_b_16,1,510,NaN,knife,knife,0.4,0510_hp_dnn_0.4_knife_10_n03041632_14774.png,n03041632_14774.png,1.0,5.4325156,2.3662763,2.1681588
vit_b_16,1,511,NaN,car,car,0.7,0511_hp_dnn_0.7_car_10_n03100240_7703.png,n03100240_7703.png,1.0,6.0708027,2.417742,2.5831041
vit_b_16,1,512,NaN,clock,bear,0.55,0512_hp_dnn_0.55_bear_10_n02134084_13434.png,n02134084_13434.png,0.0,-0.7767549,3.561636,-3.0677056
vit_b_16,1,513,NaN,elephant,dog,inf,0513_hp_dnn_inf_dog_10_n02111500_4280.png,n02111500_4280.png,0.0,-0.28938958,0.36107302,-0.45994654
vit_b_16,1,514,NaN,clock,bear,0.55,0514_hp_dnn_0.55_bear_10_n02132136_23853.png,n02132136_23853.png,0.0,-0.6931447,3.542242,-2.994871
vit_b_16,1,515,NaN,bicycle,bicycle,1.5,0515_hp_dnn_1.5_bicycle_10_n03792782_17193.png,n03792782_17193.png,1.0,1.6688193,1.1783605,0.3468068
vit_b_16,1,516,NaN,clock,dog,1,0516_hp_dnn_1_dog_10_n02102177_5770.png,n02102177_5770.png,0.0,-0.416091,3.3187735,-2.640948
vit_b_16,1,517,NaN,clock,bear,0.7,0517_hp_dnn_0.7_bear_10_n02132136_2279.png,n02132136_2279.png,0.0,0.6100228,3.1610692,-1.8038622
vit_b_16,1,518,NaN,bear,bear,inf,0518_hp_dnn_inf_bear_10_n02134084_6910.png,n02134084_6910.png,1.0,3.8469436,0.33316725,2.484615
vit_b_16,1,519,NaN,oven,oven,0.7,0519_hp_dnn_0.7_oven_10_n04111531_9041.png,n04111531_9041.png,1.0,2.7228758,2.3930519,0.23322077
vit_b_16,1,520,NaN,clock,cat,1,0520_hp_dnn_1_cat_10_n02123159_5424.png,n02123159_5424.png,0.0,-0.4620653,1.1047646,-1.1079161
vit_b_16,1,521,NaN,clock,bicycle,0.45,0521_hp_dnn_0.45_bicycle_10_n02835271_672.png,n02835271_672.png,0.0,-0.3502642,4.2057047,-3.2215564
vit_b_16,1,522,NaN,knife,airplane,0.45,0522_hp_dnn_0.45_airplane_10_n02690373_18111.png,n02690373_18111.png,0.0,1.0593292,5.3512917,-3.0348759
vit_b_16,1,523,NaN,clock,clock,1,0523_hp_dnn_1_clock_10_n04548280_3013.png,n04548280_3013.png,1.0,2.9241724,1.1013668,1.2889183
vit_b_16,1,524,NaN,clock,dog,0.45,0524_hp_dnn_0.45_dog_10_n02094258_4142.png,n02094258_4142.png,0.0,-0.9762989,4.022598,-3.5347538
vit_b_16,1,525,NaN,clock,clock,3,0525_hp_dnn_3_clock_10_n04548280_6919.png,n04548280_6919.png,1.0,5.6079135,0.59127086,3.547302
vit_b_16,1,526,NaN,knife,cat,0.4,0526_hp_dnn_0.4_cat_10_n02124075_16814.png,n02124075_16814.png,0.0,-0.51139516,3.1252742,-2.5715137
vit_b_16,1,527,NaN,clock,clock,1,0527_hp_dnn_1_clock_10_n04548280_3342.png,n04548280_3342.png,1.0,2.7226498,0.9393466,1.2609859
vit_b_16,1,528,NaN,boat,boat,1,0528_hp_dnn_1_boat_10_n04612504_31680.png,n04612504_31680.png,1.0,2.323674,1.6540585,0.47348967
vit_b_16,1,529,NaN,keyboard,keyboard,inf,0529_hp_dnn_inf_keyboard_10_n03085013_7962.png,n03085013_7962.png,1.0,6.94528,0.5624946,4.513311
vit_b_16,1,530,NaN,bicycle,bicycle,3,0530_hp_dnn_3_bicycle_10_n02835271_949.png,n02835271_949.png,1.0,5.189238,1.7468747,2.4341185
vit_b_16,1,531,NaN,keyboard,keyboard,1,0531_hp_dnn_1_keyboard_10_n04505470_4228.png,n04505470_4228.png,1.0,7.077963,2.646377,3.1336045
vit_b_16,1,532,NaN,clock,boat,0.7,0532_hp_dnn_0.7_boat_10_n03344393_3219.png,n03344393_3219.png,0.0,-0.14063422,4.029171,-2.9484975
vit_b_16,1,533,NaN,bicycle,elephant,3,0533_hp_dnn_3_elephant_10_n02504458_3399.png,n02504458_3399.png,0.0,-0.46753854,1.2717557,-1.2298669
vit_b_16,1,534,NaN,chair,bird,0.55,0534_hp_dnn_0.55_bird_10_n01616318_12459.png,n01616318_12459.png,0.0,-0.39799574,3.1846187,-2.533291
vit_b_16,1,535,NaN,clock,elephant,0.4,0535_hp_dnn_0.4_elephant_10_n02504013_1846.png,n02504013_1846.png,0.0,-0.89036775,3.2406242,-2.9210525
vit_b_16,1,536,NaN,knife,bicycle,0.55,0536_hp_dnn_0.55_bicycle_10_n03792782_5097.png,n03792782_5097.png,0.0,-0.41065416,5.5382743,-4.2065277
vit_b_16,1,537,NaN,bottle,bottle,3,0537_hp_dnn_3_bottle_10_n02823428_5115.png,n02823428_5115.png,1.0,3.5837076,3.0042582,0.4097326
vit_b_16,1,538,NaN,keyboard,keyboard,inf,0538_hp_dnn_inf_keyboard_10_n03085013_21282.png,n03085013_21282.png,1.0,6.8439693,0.7511711,4.308259
vit_b_16,1,539,NaN,clock,oven,0.4,0539_hp_dnn_0.4_oven_10_n04111531_1815.png,n04111531_1815.png,0.0,0.1694471,3.3635871,-2.258598
vit_b_16,1,540,NaN,clock,chair,1,0540_hp_dnn_1_chair_10_n02791124_5268.png,n02791124_5268.png,0.0,1.7136813,3.4422128,-1.2222563
vit_b_16,1,541,NaN,clock,airplane,0.55,0541_hp_dnn_0.55_airplane_10_n02690373_3035.png,n02690373_3035.png,0.0,0.7004015,4.3072762,-2.5504456
vit_b_16,1,542,NaN,dog,dog,inf,0542_hp_dnn_inf_dog_10_n02107683_1460.png,n02107683_1460.png,1.0,0.40520725,0.30234224,0.07273655
vit_b_16,1,543,NaN,boat,boat,inf,0543_hp_dnn_inf_boat_10_n02951358_31813.png,n02951358_31813.png,1.0,1.8909632,0.2904441,1.131738
vit_b_16,1,544,NaN,clock,bird,0.4,0544_hp_dnn_0.4_bird_10_n01797886_16808.png,n01797886_16808.png,0.0,0.21401013,3.672557,-2.445562
vit_b_16,1,545,NaN,clock,elephant,0.45,0545_hp_dnn_0.45_elephant_10_n02504458_4767.png,n02504458_4767.png,0.0,-0.4641893,3.8327,-3.0383596
vit_b_16,1,546,NaN,knife,knife,3,0546_hp_dnn_3_knife_10_n03041632_41493.png,n03041632_41493.png,1.0,1.30282,1.069836,0.16474453
vit_b_16,1,547,NaN,elephant,elephant,3,0547_hp_dnn_3_elephant_10_n02504458_3329.png,n02504458_3329.png,1.0,6.5144243,0.16015697,4.4931455
vit_b_16,1,548,NaN,knife,cat,0.45,0548_hp_dnn_0.45_cat_10_n02124075_12467.png,n02124075_12467.png,0.0,-0.27853736,2.969842,-2.296951
vit_b_16,1,549,NaN,clock,truck,0.7,0549_hp_dnn_0.7_truck_10_n03417042_6467.png,n03417042_6467.png,0.0,-0.2799905,3.0126,-2.328213
vit_b_16,1,550,NaN,airplane,airplane,inf,0550_hp_dnn_inf_airplane_10_n02690373_734.png,n02690373_734.png,1.0,9.09849,0.46667942,6.1036115
vit_b_16,1,551,NaN,clock,car,0.4,0551_hp_dnn_0.4_car_10_n02814533_85296.png,n02814533_85296.png,0.0,-0.92727995,3.5979674,-3.1998334
vit_b_16,1,552,NaN,elephant,elephant,0.7,0552_hp_dnn_0.7_elephant_10_n02504013_18005.png,n02504013_18005.png,1.0,6.7916327,1.8573896,3.4890368
vit_b_16,1,553,NaN,knife,clock,0.45,0553_hp_dnn_0.45_clock_10_n02708093_1495.png,n02708093_1495.png,0.0,4.0046954,4.617287,-0.4331678
vit_b_16,1,554,NaN,car,car,1.5,0554_hp_dnn_1.5_car_10_n04285008_3462.png,n04285008_3462.png,1.0,4.7088604,2.9477072,1.2453234
vit_b_16,1,555,NaN,knife,truck,0.4,0555_hp_dnn_0.4_truck_10_n03417042_22297.png,n03417042_22297.png,0.0,-0.5692788,3.7621055,-3.0627513
vit_b_16,1,556,NaN,chair,chair,3,0556_hp_dnn_3_chair_10_n04429376_7279.png,n04429376_7279.png,1.0,2.067017,1.0054013,0.75067574
vit_b_16,1,557,NaN,bicycle,bicycle,3,0557_hp_dnn_3_bicycle_10_n02835271_6919.png,n02835271_6919.png,1.0,4.7292347,3.4011898,0.93906957
vit_b_16,1,558,NaN,clock,oven,0.55,0558_hp_dnn_0.55_oven_10_n04111531_2260.png,n04111531_2260.png,0.0,0.6487331,3.1292925,-1.7540203
vit_b_16,1,559,NaN,clock,bear,0.7,0559_hp_dnn_0.7_bear_10_n02134084_5794.png,n02134084_5794.png,0.0,0.29045144,3.280841,-2.1145248
vit_b_16,1,560,NaN,clock,airplane,0.7,0560_hp_dnn_0.7_airplane_10_n02690373_10397.png,n02690373_10397.png,0.0,0.29117614,3.4872653,-2.2599764
vit_b_16,1,561,NaN,clock,elephant,0.4,0561_hp_dnn_0.4_elephant_10_n02504458_2041.png,n02504458_2041.png,0.0,-0.9220947,2.989732,-2.7660792
vit_b_16,1,562,NaN,clock,chair,1,0562_hp_dnn_1_chair_10_n04429376_7732.png,n04429376_7732.png,0.0,1.3800136,3.0408983,-1.1744229
vit_b_16,1,563,NaN,knife,airplane,0.4,0563_hp_dnn_0.4_airplane_10_n02690373_4788.png,n02690373_4788.png,0.0,0.5823068,3.212522,-1.859843
vit_b_16,1,564,NaN,knife,dog,0.55,0564_hp_dnn_0.55_dog_10_n02097474_2799.png,n02097474_2799.png,0.0,-0.6752497,3.3769033,-2.865305
vit_b_16,1,565,NaN,knife,bear,1.5,0565_hp_dnn_1.5_bear_10_n02134084_17849.png,n02134084_17849.png,0.0,-0.35865378,2.5059032,-2.0255477
vit_b_16,1,566,NaN,chair,dog,inf,0566_hp_dnn_inf_dog_10_n02086646_7064.png,n02086646_7064.png,0.0,-0.04800655,0.25880113,-0.21694581
vit_b_16,1,567,NaN,knife,truck,0.55,0567_hp_dnn_0.55_truck_10_n03417042_7061.png,n03417042_7061.png,0.0,0.53376454,2.2776542,-1.2331161
vit_b_16,1,568,NaN,clock,bird,1,0568_hp_dnn_1_bird_10_n01820546_3605.png,n01820546_3605.png,0.0,-1.0153689,2.484586,-2.4748418
vit_b_16,1,569,NaN,clock,bear,0.4,0569_hp_dnn_0.4_bear_10_n02133161_2813.png,n02133161_2813.png,0.0,-1.1620493,3.944744,-3.6110482
vit_b_16,1,570,NaN,clock,bear,0.45,0570_hp_dnn_0.45_bear_10_n02132136_16636.png,n02132136_16636.png,0.0,-0.84746695,3.2633877,-2.9068131
vit_b_16,1,571,NaN,chair,oven,1.5,0571_hp_dnn_1.5_oven_10_n04111531_14959.png,n04111531_14959.png,0.0,-0.26769605,1.5893638,-1.3131397
vit_b_16,1,572,NaN,knife,cat,0.45,0572_hp_dnn_0.45_cat_10_n02124075_5453.png,n02124075_5453.png,0.0,-0.37669435,4.2882686,-3.298627
vit_b_16,1,573,NaN,knife,cat,1,0573_hp_dnn_1_cat_10_n02124075_11528.png,n02124075_11528.png,0.0,-0.02501434,2.7507641,-1.9627719
vit_b_16,1,574,NaN,knife,cat,1,0574_hp_dnn_1_cat_10_n02123159_3454.png,n02123159_3454.png,0.0,-0.0037531666,3.3667817,-2.3833282
vit_b_16,1,575,NaN,knife,bird,0.45,0575_hp_dnn_0.45_bird_10_n02025239_2227.png,n02025239_2227.png,0.0,-0.41165188,4.322972,-3.3478847
vit_b_16,1,576,NaN,clock,chair,0.7,0576_hp_dnn_0.7_chair_10_n03376595_12256.png,n03376595_12256.png,0.0,1.3416841,3.6371462,-1.6231369
vit_b_16,1,577,NaN,clock,clock,1.5,0577_hp_dnn_1.5_clock_10_n02708093_6591.png,n02708093_6591.png,1.0,5.117704,2.0075288,2.199226
vit_b_16,1,578,NaN,clock,chair,0.55,0578_hp_dnn_0.55_chair_10_n04099969_34144.png,n04099969_34144.png,0.0,2.8329892,3.47459,-0.4536803
vit_b_16,1,579,NaN,clock,bear,0.55,0579_hp_dnn_0.55_bear_10_n02132136_3563.png,n02132136_3563.png,0.0,-0.8142663,3.7507114,-3.2279267
vit_b_16,1,580,NaN,elephant,elephant,1,0580_hp_dnn_1_elephant_10_n02504013_6671.png,n02504013_6671.png,1.0,7.452002,1.74917,4.032511
vit_b_16,1,581,NaN,clock,keyboard,0.7,0581_hp_dnn_0.7_keyboard_10_n03085013_22067.png,n03085013_22067.png,0.0,1.7026901,1.8948704,-0.13589197
vit_b_16,1,582,NaN,truck,truck,inf,0582_hp_dnn_inf_truck_10_n03796401_1458.png,n03796401_1458.png,1.0,1.6435409,0.8050089,0.5929316
vit_b_16,1,583,NaN,clock,bottle,0.45,0583_hp_dnn_0.45_bottle_10_n04591713_807.png,n04591713_807.png,0.0,0.6422509,3.8573148,-2.2733936
vit_b_16,1,584,NaN,clock,car,1,0584_hp_dnn_1_car_10_n02814533_22693.png,n02814533_22693.png,0.0,-0.579169,2.2594006,-2.0071719
vit_b_16,1,585,NaN,clock,car,0.7,0585_hp_dnn_0.7_car_10_n02814533_5278.png,n02814533_5278.png,0.0,0.22159141,1.9425887,-1.216929
vit_b_16,1,586,NaN,chair,boat,1.5,0586_hp_dnn_1.5_boat_10_n03662601_10240.png,n03662601_10240.png,0.0,1.7065312,2.0404742,-0.23613337
vit_b_16,1,587,NaN,airplane,airplane,inf,0587_hp_dnn_inf_airplane_10_n02690373_9673.png,n02690373_9673.png,1.0,9.23383,0.233465,6.364219
vit_b_16,1,588,NaN,knife,bird,0.7,0588_hp_dnn_0.7_bird_10_n02009229_6029.png,n02009229_6029.png,0.0,0.18921077,0.92151666,-0.51781845
vit_b_16,1,589,NaN,clock,clock,0.4,0589_hp_dnn_0.4_clock_10_n02708093_2580.png,n02708093_2580.png,1.0,3.6044571,1.2237014,1.6834487
vit_b_16,1,590,NaN,clock,elephant,0.4,0590_hp_dnn_0.4_elephant_10_n02504013_295.png,n02504013_295.png,0.0,-0.87720734,3.1950514,-2.879522
vit_b_16,1,591,NaN,knife,car,0.7,0591_hp_dnn_0.7_car_10_n04285008_9893.png,n04285008_9893.png,0.0,-0.12340178,2.21671,-1.6547091
vit_b_16,1,592,NaN,chair,chair,1.5,0592_hp_dnn_1.5_chair_10_n03376595_6850.png,n03376595_6850.png,1.0,3.4717097,1.9822543,1.053204
vit_b_16,1,593,NaN,boat,boat,3,0593_hp_dnn_3_boat_10_n03662601_15713.png,n03662601_15713.png,1.0,3.9217637,0.37545288,2.5076206
vit_b_16,1,594,NaN,knife,clock,0.4,0594_hp_dnn_0.4_clock_10_n04548280_9867.png,n04548280_9867.png,0.0,2.3387687,4.210102,-1.3232325
vit_b_16,1,595,NaN,airplane,airplane,1.5,0595_hp_dnn_1.5_airplane_10_n02690373_1450.png,n02690373_1450.png,1.0,8.854943,2.1045055,4.77328
vit_b_16,1,596,NaN,clock,bicycle,0.45,0596_hp_dnn_0.45_bicycle_10_n03792782_7787.png,n03792782_7787.png,0.0,-0.5204629,3.7694693,-3.0334404
vit_b_16,1,597,NaN,knife,chair,0.45,0597_hp_dnn_0.45_chair_10_n04099969_1219.png,n04099969_1219.png,0.0,0.54728645,4.3875465,-2.715474
vit_b_16,1,598,NaN,clock,keyboard,0.55,0598_hp_dnn_0.55_keyboard_10_n03085013_8325.png,n03085013_8325.png,0.0,3.3433661,3.6698303,-0.23084503
vit_b_16,1,599,NaN,chair,bicycle,0.55,0599_hp_dnn_0.55_bicycle_10_n02835271_14732.png,n02835271_14732.png,0.0,-0.4859026,3.390019,-2.7406905
vit_b_16,1,600,NaN,clock,airplane,1.5,0600_hp_dnn_1.5_airplane_10_n02690373_4176.png,n02690373_4176.png,0.0,1.801819,2.6295226,-0.5852748
vit_b_16,1,601,NaN,clock,bird,1,0601_hp_dnn_1_bird_10_n01534433_905.png,n01534433_905.png,0.0,-0.2215486,2.9625378,-2.2514892
vit_b_16,1,602,NaN,knife,truck,1.5,0602_hp_dnn_1.5_truck_10_n04467665_45306.png,n04467665_45306.png,0.0,-0.13039741,3.6625774,-2.682038
vit_b_16,1,603,NaN,elephant,elephant,3,0603_hp_dnn_3_elephant_10_n02504458_1617.png,n02504458_1617.png,1.0,5.304069,2.011422,2.328253
vit_b_16,1,604,NaN,clock,oven,0.45,0604_hp_dnn_0.45_oven_10_n04111531_4148.png,n04111531_4148.png,0.0,-0.33524367,3.8810894,-2.9813976
vit_b_16,1,605,NaN,clock,bird,0.55,0605_hp_dnn_0.55_bird_10_n02009912_91.png,n02009912_91.png,0.0,0.539534,3.0880225,-1.8020536
vit_b_16,1,606,NaN,knife,knife,3,0606_hp_dnn_3_knife_10_n03041632_33739.png,n03041632_33739.png,1.0,8.278384,0.96980184,5.1679482
vit_b_16,1,607,NaN,airplane,airplane,1,0607_hp_dnn_1_airplane_10_n02690373_9318.png,n02690373_9318.png,1.0,8.801912,0.652371,5.7625957
vit_b_16,1,608,NaN,clock,bird,0.4,0608_hp_dnn_0.4_bird_10_n01828970_8669.png,n01828970_8669.png,0.0,0.39763722,2.6274464,-1.5767133
vit_b_16,1,609,NaN,chair,truck,1.5,0609_hp_dnn_1.5_truck_10_n04467665_58762.png,n04467665_58762.png,0.0,0.4340881,2.4734855,-1.4420717
vit_b_16,1,610,NaN,car,car,3,0610_hp_dnn_3_car_10_n03100240_11417.png,n03100240_11417.png,1.0,6.685596,2.4241633,3.013288
vit_b_16,1,611,NaN,bicycle,bicycle,inf,0611_hp_dnn_inf_bicycle_10_n03792782_16179.png,n03792782_16179.png,1.0,8.39565,0.33229846,5.7016506
vit_b_16,1,612,NaN,knife,car,1,0612_hp_dnn_1_car_10_n04285008_8444.png,n04285008_8444.png,0.0,1.3046247,2.749117,-1.0214102
vit_b_16,1,613,NaN,chair,chair,inf,0613_hp_dnn_inf_chair_10_n02791124_3240.png,n02791124_3240.png,1.0,1.8398834,0.7803995,0.74916834
vit_b_16,1,614,NaN,clock,bicycle,0.7,0614_hp_dnn_0.7_bicycle_10_n02835271_1035.png,n02835271_1035.png,0.0,0.14664358,2.4369934,-1.6195219
vit_b_16,1,615,NaN,clock,bicycle,0.55,0615_hp_dnn_0.55_bicycle_10_n02835271_6167.png,n02835271_6167.png,0.0,0.3393287,2.4925559,-1.5225616
vit_b_16,1,616,NaN,bottle,bottle,3,0616_hp_dnn_3_bottle_10_n02823428_6830.png,n02823428_6830.png,1.0,4.2031317,1.1292713,2.1735475
vit_b_16,1,617,NaN,knife,knife,0.45,0617_hp_dnn_0.45_knife_10_n03041632_17349.png,n03041632_17349.png,1.0,3.5778232,2.2227545,0.9581783
vit_b_16,1,618,NaN,airplane,airplane,inf,0618_hp_dnn_inf_airplane_10_n02690373_2024.png,n02690373_2024.png,1.0,8.991121,0.17785132,6.2319226
vit_b_16,1,619,NaN,knife,bottle,1,0619_hp_dnn_1_bottle_10_n02823428_8034.png,n02823428_8034.png,0.0,-0.055762388,1.9948891,-1.4500296
vit_b_16,1,620,NaN,chair,chair,1,0620_hp_dnn_1_chair_10_n02791124_6786.png,n02791124_6786.png,1.0,2.115126,1.2431763,0.6165615
vit_b_16,1,621,NaN,knife,chair,0.45,0621_hp_dnn_0.45_chair_10_n03376595_10689.png,n03376595_10689.png,0.0,1.7913846,3.405436,-1.1413068
vit_b_16,1,622,NaN,knife,knife,0.4,0622_hp_dnn_0.4_knife_10_n03041632_22734.png,n03041632_22734.png,1.0,4.837315,2.690379,1.5181131
vit_b_16,1,623,NaN,clock,oven,0.4,0623_hp_dnn_0.4_oven_10_n04111531_10521.png,n04111531_10521.png,0.0,-0.11321327,3.6211293,-2.640579
vit_b_16,1,624,NaN,knife,bird,inf,0624_hp_dnn_inf_bird_10_n02007558_37147.png,n02007558_37147.png,0.0,0.18922246,0.32439506,-0.095581464
vit_b_16,1,625,NaN,chair,oven,3,0625_hp_dnn_3_oven_10_n04111531_14753.png,n04111531_14753.png,0.0,0.37730876,3.4042451,-2.1403673
vit_b_16,1,626,NaN,clock,bottle,0.7,0626_hp_dnn_0.7_bottle_10_n03983396_4990.png,n03983396_4990.png,0.0,0.043025296,3.1945903,-2.228493
vit_b_16,1,627,NaN,clock,cat,0.45,0627_hp_dnn_0.45_cat_10_n02125311_25104.png,n02125311_25104.png,0.0,-0.011987309,4.507159,-3.1955192
vit_b_16,1,628,NaN,clock,truck,0.55,0628_hp_dnn_0.55_truck_10_n03417042_5600.png,n03417042_5600.png,0.0,-0.04666607,3.0375671,-2.1808822
vit_b_16,1,629,NaN,clock,cat,0.55,0629_hp_dnn_0.55_cat_10_n02125311_34158.png,n02125311_34158.png,0.0,-0.33689,3.784572,-2.9143138
vit_b_16,1,630,NaN,knife,knife,1,0630_hp_dnn_1_knife_10_n03041632_41077.png,n03041632_41077.png,1.0,7.7163224,0.67512107,4.9788814
vit_b_16,1,631,NaN,clock,bicycle,0.45,0631_hp_dnn_0.45_bicycle_10_n03792782_19295.png,n03792782_19295.png,0.0,-0.2193599,3.3198407,-2.5025928
vit_b_16,1,632,NaN,elephant,elephant,1,0632_hp_dnn_1_elephant_10_n02504013_7500.png,n02504013_7500.png,1.0,7.22558,1.7665693,3.8601038
vit_b_16,1,633,NaN,clock,chair,0.4,0633_hp_dnn_0.4_chair_10_n04429376_20837.png,n04429376_20837.png,0.0,0.43938044,3.5406444,-2.1929247
vit_b_16,1,634,NaN,clock,oven,0.55,0634_hp_dnn_0.55_oven_10_n04111531_2371.png,n04111531_2371.png,0.0,-0.027707068,3.876913,-2.7609835
vit_b_16,1,635,NaN,clock,bear,0.45,0635_hp_dnn_0.45_bear_10_n02132136_2108.png,n02132136_2108.png,0.0,-0.9061574,3.9939873,-3.4649255
vit_b_16,1,636,NaN,clock,airplane,0.55,0636_hp_dnn_0.55_airplane_10_n02690373_7600.png,n02690373_7600.png,0.0,-0.5145437,3.524041,-2.8557107
vit_b_16,1,637,NaN,clock,bicycle,0.4,0637_hp_dnn_0.4_bicycle_10_n03792782_8329.png,n03792782_8329.png,0.0,-0.72726095,3.434018,-2.9424684
vit_b_16,1,638,NaN,clock,airplane,0.7,0638_hp_dnn_0.7_airplane_10_n02690373_9712.png,n02690373_9712.png,0.0,0.005150333,2.8654232,-2.0225184
vit_b_16,1,639,NaN,car,car,inf,0639_hp_dnn_inf_car_10_n02814533_43694.png,n02814533_43694.png,1.0,2.5960486,0.9433894,1.1686065
vit_b_16,1,640,NaN,knife,bird,0.4,0640_hp_dnn_0.4_bird_10_n01828970_454.png,n01828970_454.png,0.0,0.2044885,3.175142,-2.1005692
vit_b_16,1,641,NaN,clock,bear,1,0641_hp_dnn_1_bear_10_n02132136_1141.png,n02132136_1141.png,0.0,0.06150895,2.949787,-2.042321
vit_b_16,1,642,NaN,knife,clock,0.7,0642_hp_dnn_0.7_clock_10_n03196217_6217.png,n03196217_6217.png,0.0,1.5505453,1.8166324,-0.18815197
vit_b_16,1,643,NaN,clock,truck,1,0643_hp_dnn_1_truck_10_n03417042_4520.png,n03417042_4520.png,0.0,1.0401869,1.9545645,-0.6465626
vit_b_16,1,644,NaN,cat,dog,3,0644_hp_dnn_3_dog_10_n02093256_2633.png,n02093256_2633.png,0.0,-0.051496632,1.8522038,-1.3461195
vit_b_16,1,645,NaN,clock,dog,0.4,0645_hp_dnn_0.4_dog_10_n02108000_7066.png,n02108000_7066.png,0.0,-0.7532455,2.6600482,-2.4135633
vit_b_16,1,646,NaN,chair,dog,1.5,0646_hp_dnn_1.5_dog_10_n02099601_2805.png,n02099601_2805.png,0.0,-0.67243236,2.8487582,-2.489858
vit_b_16,1,647,NaN,boat,dog,3,0647_hp_dnn_3_dog_10_n02091244_3193.png,n02091244_3193.png,0.0,0.045887265,0.31391636,-0.18952519
vit_b_16,1,648,NaN,clock,bicycle,1.5,0648_hp_dnn_1.5_bicycle_10_n02835271_358.png,n02835271_358.png,0.0,-0.47255448,2.628263,-2.192609
vit_b_16,1,649,NaN,clock,boat,0.7,0649_hp_dnn_0.7_boat_10_n03344393_9459.png,n03344393_9459.png,0.0,0.25918537,2.4401,-1.5421395
vit_b_16,1,650,NaN,truck,truck,1,0650_hp_dnn_1_truck_10_n04467665_5053.png,n04467665_5053.png,1.0,3.326147,2.5565891,0.54415965
vit_b_16,1,651,NaN,clock,truck,0.45,0651_hp_dnn_0.45_truck_10_n04467665_36855.png,n04467665_36855.png,0.0,-1.4635818,4.1260014,-3.9524324
vit_b_16,1,652,NaN,knife,car,0.45,0652_hp_dnn_0.45_car_10_n02814533_72255.png,n02814533_72255.png,0.0,2.10444,2.6337376,-0.37426993
vit_b_16,1,653,NaN,clock,airplane,1.5,0653_hp_dnn_1.5_airplane_10_n02690373_5789.png,n02690373_5789.png,0.0,-0.39871126,2.0407495,-1.7249593
vit_b_16,1,654,NaN,clock,oven,0.4,0654_hp_dnn_0.4_oven_10_n04111531_9224.png,n04111531_9224.png,0.0,0.049904734,2.9986954,-2.08511
vit_b_16,1,655,NaN,keyboard,bird,inf,0655_hp_dnn_inf_bird_10_n01798484_4076.png,n01798484_4076.png,0.0,0.14527373,0.20285814,-0.040718324
vit_b_16,1,656,NaN,knife,boat,1,0656_hp_dnn_1_boat_10_n04612504_1869.png,n04612504_1869.png,0.0,0.3229241,3.949008,-2.5640285
vit_b_16,1,657,NaN,clock,cat,0.45,0657_hp_dnn_0.45_cat_10_n02123394_7335.png,n02123394_7335.png,0.0,-0.32647598,4.5133767,-3.4222927
vit_b_16,1,658,NaN,clock,boat,1,0658_hp_dnn_1_boat_10_n04612504_11379.png,n04612504_11379.png,0.0,-0.3510881,2.6313777,-2.1089218
vit_b_16,1,659,NaN,clock,bicycle,1,0659_hp_dnn_1_bicycle_10_n03792782_18496.png,n03792782_18496.png,0.0,0.14448436,2.6122448,-1.7449702
vit_b_16,1,660,NaN,bear,bear,inf,0660_hp_dnn_inf_bear_10_n02133161_8471.png,n02133161_8471.png,1.0,4.8424654,0.9474944,2.7541604
vit_b_16,1,661,NaN,keyboard,keyboard,0.7,0661_hp_dnn_0.7_keyboard_10_n04505470_3929.png,n04505470_3929.png,1.0,6.9876375,1.7661724,3.6921334
vit_b_16,1,662,NaN,knife,car,0.55,0662_hp_dnn_0.55_car_10_n03100240_6822.png,n03100240_6822.png,0.0,-0.26611885,2.4304984,-1.9067963
vit_b_16,1,663,NaN,knife,keyboard,0.4,0663_hp_dnn_0.4_keyboard_10_n04505470_207.png,n04505470_207.png,0.0,0.55090815,4.742333,-2.963785
vit_b_16,1,664,NaN,clock,elephant,0.55,0664_hp_dnn_0.55_elephant_10_n02504458_7221.png,n02504458_7221.png,0.0,-0.9424234,3.750737,-3.3185656
vit_b_16,1,665,NaN,clock,bottle,1.5,0665_hp_dnn_1.5_bottle_10_n03983396_2091.png,n03983396_2091.png,0.0,0.41703695,2.5715723,-1.5234865
vit_b_16,1,666,NaN,knife,knife,0.4,0666_hp_dnn_0.4_knife_10_n03041632_30602.png,n03041632_30602.png,1.0,3.3154898,2.7482398,0.40110633
vit_b_16,1,667,NaN,clock,oven,0.45,0667_hp_dnn_0.45_oven_10_n04111531_7050.png,n04111531_7050.png,0.0,-0.4969987,3.6325302,-2.920018
vit_b_16,1,668,NaN,clock,car,0.45,0668_hp_dnn_0.45_car_10_n02814533_30383.png,n02814533_30383.png,0.0,-0.83664924,3.4902928,-3.0596101
vit_b_16,1,669,NaN,knife,cat,0.7,0669_hp_dnn_0.7_cat_10_n02124075_7680.png,n02124075_7680.png,0.0,-0.11778442,4.0115323,-2.919868
vit_b_16,1,670,NaN,clock,oven,0.55,0670_hp_dnn_0.55_oven_10_n04111531_3265.png,n04111531_3265.png,0.0,-0.1884006,3.172436,-2.3764703
vit_b_16,1,671,NaN,chair,oven,1.5,0671_hp_dnn_1.5_oven_10_n04111531_49.png,n04111531_49.png,0.0,1.4077572,3.0023274,-1.1275315
vit_b_16,1,672,NaN,chair,chair,inf,0672_hp_dnn_inf_chair_10_n02791124_8099.png,n02791124_8099.png,1.0,3.1478045,0.24260767,2.0542846
vit_b_16,1,673,NaN,clock,bottle,0.7,0673_hp_dnn_0.7_bottle_10_n03937543_9606.png,n03937543_9606.png,0.0,0.9334227,3.4281952,-1.7640705
vit_b_16,1,674,NaN,cat,cat,inf,0674_hp_dnn_inf_cat_10_n02123045_4644.png,n02123045_4644.png,1.0,3.454337,0.97983253,1.7497389
vit_b_16,1,675,NaN,clock,chair,0.55,0675_hp_dnn_0.55_chair_10_n03376595_12251.png,n03376595_12251.png,0.0,2.791184,4.623404,-1.2955753
vit_b_16,1,676,NaN,clock,chair,0.7,0676_hp_dnn_0.7_chair_10_n04429376_52822.png,n04429376_52822.png,0.0,1.0015373,3.5284708,-1.7868118
vit_b_16,1,677,NaN,clock,chair,1.5,0677_hp_dnn_1.5_chair_10_n04429376_55898.png,n04429376_55898.png,0.0,0.7761274,1.1440071,-0.26013023
vit_b_16,1,678,NaN,knife,bicycle,1.5,0678_hp_dnn_1.5_bicycle_10_n03792782_5106.png,n03792782_5106.png,0.0,0.18734439,2.1971571,-1.4211524
vit_b_16,1,679,NaN,knife,bear,0.4,0679_hp_dnn_0.4_bear_10_n02134418_5735.png,n02134418_5735.png,0.0,-0.88703907,2.9048233,-2.6812518
vit_b_16,1,680,NaN,clock,oven,0.45,0680_hp_dnn_0.45_oven_10_n04111531_3348.png,n04111531_3348.png,0.0,0.03945902,3.9057133,-2.7338548
vit_b_16,1,681,NaN,knife,boat,0.7,0681_hp_dnn_0.7_boat_10_n04612504_37043.png,n04612504_37043.png,0.0,1.84646,2.5886965,-0.5248405
vit_b_16,1,682,NaN,car,car,inf,0682_hp_dnn_inf_car_10_n02814533_40315.png,n02814533_40315.png,1.0,3.0811586,1.6808987,0.99013335
vit_b_16,1,683,NaN,clock,clock,0.45,0683_hp_dnn_0.45_clock_10_n04548280_3782.png,n04548280_3782.png,1.0,4.530056,2.220838,1.6328636
vit_b_16,1,684,NaN,knife,knife,1.5,0684_hp_dnn_1.5_knife_10_n03041632_36907.png,n03041632_36907.png,1.0,9.345297,0.6961779,6.115851
vit_b_16,1,685,NaN,car,car,inf,0685_hp_dnn_inf_car_10_n04285008_6587.png,n04285008_6587.png,1.0,4.003054,0.87427586,2.2123804
vit_b_16,1,686,NaN,knife,oven,0.45,0686_hp_dnn_0.45_oven_10_n04111531_9498.png,n04111531_9498.png,0.0,-0.44300315,2.7997847,-2.2929974
vit_b_16,1,687,NaN,clock,clock,0.7,0687_hp_dnn_0.7_clock_10_n03196217_3361.png,n03196217_3361.png,1.0,5.1916327,3.5326219,1.1730978
vit_b_16,1,688,NaN,clock,truck,0.45,0688_hp_dnn_0.45_truck_10_n04467665_40002.png,n04467665_40002.png,0.0,-1.5249288,3.6680138,-3.6719651
vit_b_16,1,689,NaN,keyboard,keyboard,0.7,0689_hp_dnn_0.7_keyboard_10_n03085013_20805.png,n03085013_20805.png,1.0,6.224021,0.86940783,3.7862835
vit_b_16,1,690,NaN,clock,clock,3,0690_hp_dnn_3_clock_10_n04548280_9816.png,n04548280_9816.png,1.0,6.39183,1.3364943,3.5746622
vit_b_16,1,691,NaN,clock,truck,0.4,0691_hp_dnn_0.4_truck_10_n03417042_2293.png,n03417042_2293.png,0.0,-1.524612,3.5677292,-3.6008291
vit_b_16,1,692,NaN,knife,dog,1.5,0692_hp_dnn_1.5_dog_10_n02086910_730.png,n02086910_730.png,0.0,-0.64033467,2.2522182,-2.0453439
vit_b_16,1,693,NaN,clock,truck,3,0693_hp_dnn_3_truck_10_n04467665_25059.png,n04467665_25059.png,0.0,-0.45651028,1.8516388,-1.6321079
vit_b_16,1,694,NaN,keyboard,keyboard,3,0694_hp_dnn_3_keyboard_10_n03085013_5738.png,n03085013_5738.png,1.0,6.385913,0.8905157,3.8858325
vit_b_16,1,695,NaN,bottle,bottle,0.7,0695_hp_dnn_0.7_bottle_10_n04557648_3775.png,n04557648_3775.png,1.0,4.2145896,2.1479719,1.4613194
vit_b_16,1,696,NaN,clock,bear,0.45,0696_hp_dnn_0.45_bear_10_n02134084_22801.png,n02134084_22801.png,0.0,-0.97695506,3.905174,-3.4521868
vit_b_16,1,697,NaN,airplane,airplane,3,0697_hp_dnn_3_airplane_10_n02690373_3468.png,n02690373_3468.png,1.0,5.013736,1.8683834,2.2241
vit_b_16,1,698,NaN,knife,clock,0.45,0698_hp_dnn_0.45_clock_10_n04548280_4713.png,n04548280_4713.png,0.0,2.7160876,2.7268376,-0.007601437
vit_b_16,1,699,NaN,knife,bird,0.4,0699_hp_dnn_0.4_bird_10_n02051845_3351.png,n02051845_3351.png,0.0,-0.53688794,3.127631,-2.591206
vit_b_16,1,700,NaN,elephant,elephant,3,0700_hp_dnn_3_elephant_10_n02504458_6762.png,n02504458_6762.png,1.0,7.7635,0.4372775,5.180422
vit_b_16,1,701,NaN,clock,bicycle,0.4,0701_hp_dnn_0.4_bicycle_10_n03792782_2327.png,n03792782_2327.png,0.0,-0.710333,3.317564,-2.8481534
vit_b_16,1,702,NaN,elephant,bicycle,3,0702_hp_dnn_3_bicycle_10_n03792782_19985.png,n03792782_19985.png,0.0,0.20722494,1.008198,-0.56637347
vit_b_16,1,703,NaN,bear,bear,3,0703_hp_dnn_3_bear_10_n02134084_2970.png,n02134084_2970.png,1.0,3.6950073,1.1211478,1.8199936
vit_b_16,1,704,NaN,knife,truck,0.55,0704_hp_dnn_0.55_truck_10_n03417042_10642.png,n03417042_10642.png,0.0,-1.3582463,5.179069,-4.62258
vit_b_16,1,705,NaN,boat,boat,3,0705_hp_dnn_3_boat_10_n03662601_3938.png,n03662601_3938.png,1.0,1.427,0.7724042,0.46286917
vit_b_16,1,706,NaN,clock,chair,0.4,0706_hp_dnn_0.4_chair_10_n02791124_9414.png,n02791124_9414.png,0.0,0.71000606,2.8902671,-1.5416775
vit_b_16,1,707,NaN,clock,clock,0.55,0707_hp_dnn_0.55_clock_10_n04548280_3605.png,n04548280_3605.png,1.0,5.2951436,3.5363042,1.2436873
vit_b_16,1,708,NaN,clock,bottle,0.7,0708_hp_dnn_0.7_bottle_10_n04579145_2196.png,n04579145_2196.png,0.0,0.3545204,3.0404594,-1.8992457
vit_b_16,1,709,NaN,clock,knife,0.7,0709_hp_dnn_0.7_knife_10_n03041632_5801.png,n03041632_5801.png,0.0,2.2522364,2.9735422,-0.5100403
vit_b_16,1,710,NaN,knife,boat,0.4,0710_hp_dnn_0.4_boat_10_n02951358_11867.png,n02951358_11867.png,0.0,-0.7167465,3.2805996,-2.8265507
vit_b_16,1,711,NaN,clock,clock,1,0711_hp_dnn_1_clock_10_n02708093_3266.png,n02708093_3266.png,1.0,6.416416,0.24966867,4.360549
vit_b_16,1,712,NaN,clock,bicycle,0.55,0712_hp_dnn_0.55_bicycle_10_n03792782_4251.png,n03792782_4251.png,0.0,-0.077313766,3.8971977,-2.810404
vit_b_16,1,713,NaN,elephant,bear,1,0713_hp_dnn_1_bear_10_n02132136_11125.png,n02132136_11125.png,0.0,2.6546173,5.7706537,-2.2033706
vit_b_16,1,714,NaN,elephant,elephant,3,0714_hp_dnn_3_elephant_10_n02504458_6821.png,n02504458_6821.png,1.0,7.669341,1.3917491,4.4389277
vit_b_16,1,715,NaN,airplane,truck,3,0715_hp_dnn_3_truck_10_n04467665_77214.png,n04467665_77214.png,0.0,1.0252323,1.0301648,-0.0034878203
vit_b_16,1,716,NaN,clock,clock,1.5,0716_hp_dnn_1.5_clock_10_n03196217_10190.png,n03196217_10190.png,1.0,3.320573,2.1891482,0.8000382
vit_b_16,1,717,NaN,elephant,elephant,inf,0717_hp_dnn_inf_elephant_10_n02504458_1506.png,n02504458_1506.png,1.0,7.626187,0.33484548,5.155757
vit_b_16,1,718,NaN,boat,boat,inf,0718_hp_dnn_inf_boat_10_n02951358_4189.png,n02951358_4189.png,1.0,2.0910144,0.18447588,1.3481263
vit_b_16,1,719,NaN,clock,bear,0.55,0719_hp_dnn_0.55_bear_10_n02132136_9311.png,n02132136_9311.png,0.0,-0.6617063,3.0442069,-2.6204762
vit_b_16,1,720,NaN,airplane,airplane,inf,0720_hp_dnn_inf_airplane_10_n02690373_5564.png,n02690373_5564.png,1.0,7.903926,0.6286973,5.1443634
vit_b_16,1,721,NaN,knife,airplane,0.45,0721_hp_dnn_0.45_airplane_10_n02690373_798.png,n02690373_798.png,0.0,0.4859134,3.706942,-2.2776113
vit_b_16,1,722,NaN,clock,airplane,0.7,0722_hp_dnn_0.7_airplane_10_n02690373_9642.png,n02690373_9642.png,0.0,2.4730291,3.3128211,-0.59382266
vit_b_16,1,723,NaN,clock,bear,0.7,0723_hp_dnn_0.7_bear_10_n02132136_19995.png,n02132136_19995.png,0.0,-0.5109397,3.45162,-2.8019528
vit_b_16,1,724,NaN,bicycle,bicycle,inf,0724_hp_dnn_inf_bicycle_10_n02835271_14914.png,n02835271_14914.png,1.0,5.942138,0.8710701,3.5857868
vit_b_16,1,725,NaN,clock,chair,0.55,0725_hp_dnn_0.55_chair_10_n03376595_1862.png,n03376595_1862.png,0.0,0.67566144,3.4291832,-1.947034
vit_b_16,1,726,NaN,knife,bird,0.55,0726_hp_dnn_0.55_bird_10_n01824575_8564.png,n01824575_8564.png,0.0,-0.1721543,2.3384187,-1.7752432
vit_b_16,1,727,NaN,knife,knife,inf,0727_hp_dnn_inf_knife_10_n03041632_40450.png,n03041632_40450.png,1.0,9.3013315,0.5790979,6.1675506
vit_b_16,1,728,NaN,clock,chair,0.45,0728_hp_dnn_0.45_chair_10_n03376595_8196.png,n03376595_8196.png,0.0,0.65144885,3.8784294,-2.28182
vit_b_16,1,729,NaN,boat,boat,inf,0729_hp_dnn_inf_boat_10_n03662601_5968.png,n03662601_5968.png,1.0,5.318118,0.30419743,3.5453775
vit_b_16,1,730,NaN,clock,car,0.55,0730_hp_dnn_0.55_car_10_n03100240_3241.png,n03100240_3241.png,0.0,-0.49010995,2.4420645,-2.0733604
vit_b_16,1,731,NaN,cat,cat,inf,0731_hp_dnn_inf_cat_10_n02125311_18354.png,n02125311_18354.png,1.0,1.1256441,0.6546191,0.33306497
vit_b_16,1,732,NaN,clock,oven,0.55,0732_hp_dnn_0.55_oven_10_n04111531_11505.png,n04111531_11505.png,0.0,1.4973875,4.0517125,-1.8061806
vit_b_16,1,733,NaN,clock,clock,1,0733_hp_dnn_1_clock_10_n04548280_4229.png,n04548280_4229.png,1.0,5.329787,3.1053271,1.5729306
vit_b_16,1,734,NaN,clock,car,0.55,0734_hp_dnn_0.55_car_10_n02814533_12532.png,n02814533_12532.png,0.0,0.056391824,3.78619,-2.6373658
vit_b_16,1,735,NaN,chair,chair,1.5,0735_hp_dnn_1.5_chair_10_n03376595_99.png,n03376595_99.png,1.0,2.7953668,0.7683554,1.4333135
vit_b_16,1,736,NaN,knife,keyboard,0.4,0736_hp_dnn_0.4_keyboard_10_n04505470_9762.png,n04505470_9762.png,0.0,1.8678656,5.6301923,-2.6603668
vit_b_16,1,737,NaN,bear,bear,3,0737_hp_dnn_3_bear_10_n02132136_7647.png,n02132136_7647.png,1.0,3.594164,0.6853636,2.0568326
vit_b_16,1,738,NaN,knife,bottle,0.45,0738_hp_dnn_0.45_bottle_10_n04560804_19619.png,n04560804_19619.png,0.0,0.7967496,3.1703446,-1.6783851
vit_b_16,1,739,NaN,clock,truck,0.7,0739_hp_dnn_0.7_truck_10_n03417042_4292.png,n03417042_4292.png,0.0,-0.5859678,4.5758367,-3.649947
vit_b_16,1,740,NaN,clock,elephant,0.4,0740_hp_dnn_0.4_elephant_10_n02504458_3163.png,n02504458_3163.png,0.0,-0.93708616,3.1332505,-2.8781629
vit_b_16,1,741,NaN,clock,elephant,1.5,0741_hp_dnn_1.5_elephant_10_n02504458_7144.png,n02504458_7144.png,0.0,1.5638149,1.7229224,-0.11250604
vit_b_16,1,742,NaN,clock,bear,0.55,0742_hp_dnn_0.55_bear_10_n02133161_4049.png,n02133161_4049.png,0.0,-0.750551,3.833315,-3.241283
vit_b_16,1,743,NaN,clock,bottle,0.7,0743_hp_dnn_0.7_bottle_10_n04591713_7074.png,n04591713_7074.png,0.0,0.48400918,3.795327,-2.3414552
