subj,session,trial,rt,object_response,category,condition,imagename,filename,is_correct,targ_act,max_nontarg_act,decision_margin
alexnet_w1_mlp_simclrhn_probe1,1,1,NaN,airplane,boat,0.7,0001_hp_dnn_0.7_boat_10_n03662601_12531.png,n03662601_12531.png,0.0,-0.6677624,-0.36880803,-0.21139267
alexnet_w1_mlp_simclrhn_probe1,1,2,NaN,chair,chair,0.7,0002_hp_dnn_0.7_chair_10_n04429376_22819.png,n04429376_22819.png,1.0,-0.5373336,-0.9889276,0.31932518
alexnet_w1_mlp_simclrhn_probe1,1,3,NaN,clock,elephant,0.45,0003_hp_dnn_0.45_elephant_10_n02504458_582.png,n02504458_582.png,0.0,-0.71609676,-0.39805916,-0.22488655
alexnet_w1_mlp_simclrhn_probe1,1,4,NaN,clock,bicycle,0.7,0004_hp_dnn_0.7_bicycle_10_n03792782_41173.png,n03792782_41173.png,0.0,-2.0411594,-1.2588291,-0.55319107
alexnet_w1_mlp_simclrhn_probe1,1,5,NaN,clock,cat,1.5,0005_hp_dnn_1.5_cat_10_n02123597_7071.png,n02123597_7071.png,0.0,-1.8451694,-0.53380233,-0.92727655
alexnet_w1_mlp_simclrhn_probe1,1,6,NaN,clock,cat,0.4,0006_hp_dnn_0.4_cat_10_n02123394_2386.png,n02123394_2386.png,0.0,-0.99951106,-0.7476186,-0.17811486
alexnet_w1_mlp_simclrhn_probe1,1,7,NaN,oven,oven,inf,0007_hp_dnn_inf_oven_10_n04111531_2201.png,n04111531_2201.png,1.0,0.028626353,-1.2039983,0.8715973
alexnet_w1_mlp_simclrhn_probe1,1,8,NaN,knife,cat,0.45,0008_hp_dnn_0.45_cat_10_n02125311_43276.png,n02125311_43276.png,0.0,-0.88215643,-0.7234881,-0.11219546
alexnet_w1_mlp_simclrhn_probe1,1,9,NaN,clock,dog,0.45,0009_hp_dnn_0.45_dog_10_n02111500_2439.png,n02111500_2439.png,0.0,-1.8584788,-0.7421968,-0.7893306
alexnet_w1_mlp_simclrhn_probe1,1,10,NaN,clock,bicycle,0.4,0010_hp_dnn_0.4_bicycle_10_n02835271_12599.png,n02835271_12599.png,0.0,-0.94580626,-0.6159025,-0.2332772
alexnet_w1_mlp_simclrhn_probe1,1,11,NaN,clock,dog,0.45,0011_hp_dnn_0.45_dog_10_n02096585_391.png,n02096585_391.png,0.0,-1.8785706,-0.79825807,-0.7638963
alexnet_w1_mlp_simclrhn_probe1,1,12,NaN,clock,car,0.7,0012_hp_dnn_0.7_car_10_n04285008_12138.png,n04285008_12138.png,0.0,-0.43162712,0.2070208,-0.45159227
alexnet_w1_mlp_simclrhn_probe1,1,13,NaN,clock,car,0.7,0013_hp_dnn_0.7_car_10_n02814533_44083.png,n02814533_44083.png,0.0,-1.3983771,0.036894042,-1.01489
alexnet_w1_mlp_simclrhn_probe1,1,14,NaN,oven,oven,inf,0014_hp_dnn_inf_oven_10_n04111531_2447.png,n04111531_2447.png,1.0,2.438471,-3.39855,4.127397
alexnet_w1_mlp_simclrhn_probe1,1,15,NaN,keyboard,chair,0.55,0015_hp_dnn_0.55_chair_10_n03376595_9524.png,n03376595_9524.png,0.0,-1.1989715,-0.86899644,-0.23332761
alexnet_w1_mlp_simclrhn_probe1,1,16,NaN,clock,elephant,0.55,0016_hp_dnn_0.55_elephant_10_n02504458_3092.png,n02504458_3092.png,0.0,-1.5403425,-0.4943885,-0.7396012
alexnet_w1_mlp_simclrhn_probe1,1,17,NaN,airplane,truck,0.4,0017_hp_dnn_0.4_truck_10_n04467665_42126.png,n04467665_42126.png,0.0,-1.5678608,-0.33647704,-0.87071985
alexnet_w1_mlp_simclrhn_probe1,1,18,NaN,elephant,elephant,inf,0018_hp_dnn_inf_elephant_10_n02504458_12303.png,n02504458_12303.png,1.0,5.769388,1.7560608,2.8378513
alexnet_w1_mlp_simclrhn_probe1,1,19,NaN,clock,clock,0.4,0019_hp_dnn_0.4_clock_10_n04548280_7243.png,n04548280_7243.png,1.0,0.92154294,-0.19861923,0.79207426
alexnet_w1_mlp_simclrhn_probe1,1,20,NaN,airplane,airplane,0.4,0020_hp_dnn_0.4_airplane_10_n02690373_6978.png,n02690373_6978.png,1.0,0.20338127,-0.19824056,0.28398952
alexnet_w1_mlp_simclrhn_probe1,1,21,NaN,boat,boat,3,0021_hp_dnn_3_boat_10_n04612504_4773.png,n04612504_4773.png,1.0,-0.086810276,-0.49975562,0.29199645
alexnet_w1_mlp_simclrhn_probe1,1,22,NaN,knife,bottle,inf,0022_hp_dnn_inf_bottle_10_n04560804_5979.png,n04560804_5979.png,0.0,-3.602361,-2.999498,-0.42628857
alexnet_w1_mlp_simclrhn_probe1,1,23,NaN,airplane,airplane,3,0023_hp_dnn_3_airplane_10_n02690373_21922.png,n02690373_21922.png,1.0,2.347116,0.6007335,1.2348789
alexnet_w1_mlp_simclrhn_probe1,1,24,NaN,clock,bird,0.4,0024_hp_dnn_0.4_bird_10_n01820546_6431.png,n01820546_6431.png,0.0,-0.90997523,-0.7259082,-0.13015503
alexnet_w1_mlp_simclrhn_probe1,1,25,NaN,bird,bird,inf,0025_hp_dnn_inf_bird_10_n01795545_9555.png,n01795545_9555.png,1.0,-0.21691054,-1.8777649,1.1744014
alexnet_w1_mlp_simclrhn_probe1,1,26,NaN,bicycle,truck,3,0026_hp_dnn_3_truck_10_n04467665_45796.png,n04467665_45796.png,0.0,-0.3629426,2.4430194,-1.9841149
alexnet_w1_mlp_simclrhn_probe1,1,27,NaN,bottle,oven,1,0027_hp_dnn_1_oven_10_n04111531_5906.png,n04111531_5906.png,0.0,-2.9349382,-0.38719082,-1.8015295
alexnet_w1_mlp_simclrhn_probe1,1,28,NaN,clock,bicycle,0.45,0028_hp_dnn_0.45_bicycle_10_n03792782_6133.png,n03792782_6133.png,0.0,-1.3769298,-0.46393964,-0.6455815
alexnet_w1_mlp_simclrhn_probe1,1,29,NaN,keyboard,keyboard,1,0029_hp_dnn_1_keyboard_10_n04505470_4741.png,n04505470_4741.png,1.0,1.1398466,-0.24941199,0.9823541
alexnet_w1_mlp_simclrhn_probe1,1,30,NaN,car,car,1.5,0030_hp_dnn_1.5_car_10_n02814533_5085.png,n02814533_5085.png,1.0,2.2996938,0.46905404,1.2944579
alexnet_w1_mlp_simclrhn_probe1,1,31,NaN,clock,chair,0.4,0031_hp_dnn_0.4_chair_10_n04429376_10628.png,n04429376_10628.png,0.0,-0.81811225,-0.3113302,-0.35834903
alexnet_w1_mlp_simclrhn_probe1,1,32,NaN,clock,clock,0.55,0032_hp_dnn_0.55_clock_10_n02708093_5311.png,n02708093_5311.png,1.0,0.019014588,-0.8143633,0.58928716
alexnet_w1_mlp_simclrhn_probe1,1,33,NaN,clock,chair,0.55,0033_hp_dnn_0.55_chair_10_n03376595_10460.png,n03376595_10460.png,0.0,-0.45937675,-0.22649305,-0.16467366
alexnet_w1_mlp_simclrhn_probe1,1,34,NaN,bicycle,bear,3,0034_hp_dnn_3_bear_10_n02133161_1118.png,n02133161_1118.png,0.0,-4.0648346,-0.7309798,-2.3573914
alexnet_w1_mlp_simclrhn_probe1,1,35,NaN,knife,knife,3,0035_hp_dnn_3_knife_10_n03041632_11603.png,n03041632_11603.png,1.0,-0.74886924,-1.1338924,0.2722525
alexnet_w1_mlp_simclrhn_probe1,1,36,NaN,clock,dog,0.4,0036_hp_dnn_0.4_dog_10_n02108422_7493.png,n02108422_7493.png,0.0,-1.8088892,-0.5185046,-0.91243964
alexnet_w1_mlp_simclrhn_probe1,1,37,NaN,knife,keyboard,3,0037_hp_dnn_3_keyboard_10_n04505470_550.png,n04505470_550.png,0.0,-1.7270489,-1.5853235,-0.10021501
alexnet_w1_mlp_simclrhn_probe1,1,38,NaN,bird,dog,1.5,0038_hp_dnn_1.5_dog_10_n02097047_1003.png,n02097047_1003.png,0.0,-3.6927648,-1.3756003,-1.6384827
alexnet_w1_mlp_simclrhn_probe1,1,39,NaN,bird,bird,1.5,0039_hp_dnn_1.5_bird_10_n01616318_9819.png,n01616318_9819.png,1.0,-1.4977229,-1.9080929,0.2901754
alexnet_w1_mlp_simclrhn_probe1,1,40,NaN,cat,cat,0.55,0040_hp_dnn_0.55_cat_10_n02123597_1016.png,n02123597_1016.png,1.0,-0.6057832,-0.87542003,0.19066203
alexnet_w1_mlp_simclrhn_probe1,1,41,NaN,cat,bear,1,0041_hp_dnn_1_bear_10_n02134418_971.png,n02134418_971.png,0.0,-2.103148,-0.98160297,-0.79305214
alexnet_w1_mlp_simclrhn_probe1,1,42,NaN,elephant,bear,0.7,0042_hp_dnn_0.7_bear_10_n02132136_10944.png,n02132136_10944.png,0.0,-2.429696,-0.6847115,-1.2338905
alexnet_w1_mlp_simclrhn_probe1,1,43,NaN,elephant,elephant,1,0043_hp_dnn_1_elephant_10_n02504458_4439.png,n02504458_4439.png,1.0,-0.9070151,-1.4079028,0.35418114
alexnet_w1_mlp_simclrhn_probe1,1,44,NaN,keyboard,keyboard,0.4,0044_hp_dnn_0.4_keyboard_10_n03085013_2362.png,n03085013_2362.png,1.0,0.3506778,-0.038034003,0.27486074
alexnet_w1_mlp_simclrhn_probe1,1,45,NaN,cat,dog,1.5,0045_hp_dnn_1.5_dog_10_n02097474_9488.png,n02097474_9488.png,0.0,-2.5591094,-1.4136661,-0.80995077
alexnet_w1_mlp_simclrhn_probe1,1,46,NaN,clock,clock,inf,0046_hp_dnn_inf_clock_10_n04548280_3308.png,n04548280_3308.png,1.0,5.919628,-0.94218814,4.852037
alexnet_w1_mlp_simclrhn_probe1,1,47,NaN,clock,bear,1.5,0047_hp_dnn_1.5_bear_10_n02133161_334.png,n02133161_334.png,0.0,-2.7846084,-1.2554741,-1.0812613
alexnet_w1_mlp_simclrhn_probe1,1,48,NaN,clock,knife,0.45,0048_hp_dnn_0.45_knife_10_n03041632_6708.png,n03041632_6708.png,0.0,-1.0134377,-0.3714527,-0.45395198
alexnet_w1_mlp_simclrhn_probe1,1,49,NaN,clock,car,0.55,0049_hp_dnn_0.55_car_10_n02814533_81092.png,n02814533_81092.png,0.0,-1.202871,-0.067891166,-0.802552
alexnet_w1_mlp_simclrhn_probe1,1,50,NaN,clock,bottle,0.45,0050_hp_dnn_0.45_bottle_10_n03937543_11897.png,n03937543_11897.png,0.0,-0.08590282,0.11969662,-0.14538075
alexnet_w1_mlp_simclrhn_probe1,1,51,NaN,clock,airplane,3,0051_hp_dnn_3_airplane_10_n02690373_4429.png,n02690373_4429.png,0.0,0.6636914,1.182758,-0.3670355
alexnet_w1_mlp_simclrhn_probe1,1,52,NaN,clock,knife,0.4,0052_hp_dnn_0.4_knife_10_n03041632_22964.png,n03041632_22964.png,0.0,-0.73437,-0.21124844,-0.3699028
alexnet_w1_mlp_simclrhn_probe1,1,53,NaN,knife,knife,1.5,0053_hp_dnn_1.5_knife_10_n03041632_33075.png,n03041632_33075.png,1.0,-0.46047288,-0.5547321,0.06665132
alexnet_w1_mlp_simclrhn_probe1,1,54,NaN,elephant,bird,0.7,0054_hp_dnn_0.7_bird_10_n02006656_1412.png,n02006656_1412.png,0.0,-1.091317,-0.86539495,-0.15975106
alexnet_w1_mlp_simclrhn_probe1,1,55,NaN,clock,clock,1,0055_hp_dnn_1_clock_10_n02708093_3173.png,n02708093_3173.png,1.0,5.126863,-0.8404184,4.2195053
alexnet_w1_mlp_simclrhn_probe1,1,56,NaN,airplane,keyboard,0.45,0056_hp_dnn_0.45_keyboard_10_n03085013_22016.png,n03085013_22016.png,0.0,-0.5448848,-0.07831747,-0.32991293
alexnet_w1_mlp_simclrhn_probe1,1,57,NaN,clock,elephant,0.55,0057_hp_dnn_0.55_elephant_10_n02504458_11214.png,n02504458_11214.png,0.0,-0.894916,-0.5435658,-0.2484421
alexnet_w1_mlp_simclrhn_probe1,1,58,NaN,clock,chair,0.7,0058_hp_dnn_0.7_chair_10_n04099969_13775.png,n04099969_13775.png,0.0,-0.13031396,0.031989038,-0.114765555
alexnet_w1_mlp_simclrhn_probe1,1,59,NaN,clock,bicycle,0.4,0059_hp_dnn_0.4_bicycle_10_n02835271_8098.png,n02835271_8098.png,0.0,-0.9133474,-0.27317032,-0.45267358
alexnet_w1_mlp_simclrhn_probe1,1,60,NaN,clock,clock,0.4,0060_hp_dnn_0.4_clock_10_n04548280_1126.png,n04548280_1126.png,1.0,0.4906393,-0.47867656,0.68540984
alexnet_w1_mlp_simclrhn_probe1,1,61,NaN,clock,bicycle,0.45,0061_hp_dnn_0.45_bicycle_10_n02835271_2050.png,n02835271_2050.png,0.0,-0.38333175,-0.04472794,-0.23942904
alexnet_w1_mlp_simclrhn_probe1,1,62,NaN,oven,oven,1,0062_hp_dnn_1_oven_10_n04111531_891.png,n04111531_891.png,1.0,-0.20981874,-0.63301545,0.2992453
alexnet_w1_mlp_simclrhn_probe1,1,63,NaN,clock,bottle,0.7,0063_hp_dnn_0.7_bottle_10_n02823428_6201.png,n02823428_6201.png,0.0,-0.38210157,0.23100822,-0.4335341
alexnet_w1_mlp_simclrhn_probe1,1,64,NaN,bicycle,bicycle,0.7,0064_hp_dnn_0.7_bicycle_10_n02835271_20175.png,n02835271_20175.png,1.0,0.8437679,0.12494556,0.50828415
alexnet_w1_mlp_simclrhn_probe1,1,65,NaN,bicycle,cat,3,0065_hp_dnn_3_cat_10_n02123597_13175.png,n02123597_13175.png,0.0,-1.2906843,-0.9171806,-0.26410705
alexnet_w1_mlp_simclrhn_probe1,1,66,NaN,clock,dog,0.4,0066_hp_dnn_0.4_dog_10_n02085936_4391.png,n02085936_4391.png,0.0,-1.7121881,-0.5642231,-0.81173384
alexnet_w1_mlp_simclrhn_probe1,1,67,NaN,airplane,airplane,1.5,0067_hp_dnn_1.5_airplane_10_n02690373_8846.png,n02690373_8846.png,1.0,1.9706132,-0.79590046,1.9562207
alexnet_w1_mlp_simclrhn_probe1,1,68,NaN,knife,cat,1.5,0068_hp_dnn_1.5_cat_10_n02123597_10301.png,n02123597_10301.png,0.0,-1.4739639,-1.1460328,-0.23188227
alexnet_w1_mlp_simclrhn_probe1,1,69,NaN,elephant,elephant,0.7,0069_hp_dnn_0.7_elephant_10_n02504458_6135.png,n02504458_6135.png,1.0,-0.75750387,-1.2024661,0.31463584
alexnet_w1_mlp_simclrhn_probe1,1,70,NaN,clock,keyboard,0.45,0070_hp_dnn_0.45_keyboard_10_n03085013_22585.png,n03085013_22585.png,0.0,-1.0763758,-0.34993827,-0.51366895
alexnet_w1_mlp_simclrhn_probe1,1,71,NaN,clock,bird,1,0071_hp_dnn_1_bird_10_n02017213_1150.png,n02017213_1150.png,0.0,-1.5137458,-1.1997563,-0.22202413
alexnet_w1_mlp_simclrhn_probe1,1,72,NaN,chair,bottle,3,0072_hp_dnn_3_bottle_10_n04560804_30885.png,n04560804_30885.png,0.0,-1.270291,1.5143671,-1.9690505
alexnet_w1_mlp_simclrhn_probe1,1,73,NaN,bicycle,bicycle,inf,0073_hp_dnn_inf_bicycle_10_n02835271_9191.png,n02835271_9191.png,1.0,10.765085,-4.6036596,10.867344
alexnet_w1_mlp_simclrhn_probe1,1,74,NaN,oven,truck,inf,0074_hp_dnn_inf_truck_10_n03796401_7699.png,n03796401_7699.png,0.0,-1.2889208,0.35126123,-1.1597838
alexnet_w1_mlp_simclrhn_probe1,1,75,NaN,knife,knife,1.5,0075_hp_dnn_1.5_knife_10_n03041632_50332.png,n03041632_50332.png,1.0,0.054692537,-0.504418,0.39535084
alexnet_w1_mlp_simclrhn_probe1,1,76,NaN,clock,knife,0.55,0076_hp_dnn_0.55_knife_10_n03041632_36247.png,n03041632_36247.png,0.0,-0.68510485,-0.6467014,-0.027155342
alexnet_w1_mlp_simclrhn_probe1,1,77,NaN,clock,knife,1.5,0077_hp_dnn_1.5_knife_10_n03041632_23667.png,n03041632_23667.png,0.0,-2.2675462,-0.6263582,-1.1604952
alexnet_w1_mlp_simclrhn_probe1,1,78,NaN,bird,dog,3,0078_hp_dnn_3_dog_10_n02102973_7028.png,n02102973_7028.png,0.0,-4.6232347,-0.5083275,-2.909679
alexnet_w1_mlp_simclrhn_probe1,1,79,NaN,clock,oven,0.55,0079_hp_dnn_0.55_oven_10_n04111531_9867.png,n04111531_9867.png,0.0,-2.5912433,-0.3468912,-1.5869967
alexnet_w1_mlp_simclrhn_probe1,1,80,NaN,car,car,0.55,0080_hp_dnn_0.55_car_10_n02814533_8121.png,n02814533_8121.png,1.0,-0.16711527,-0.2787448,0.07893399
alexnet_w1_mlp_simclrhn_probe1,1,81,NaN,boat,boat,0.55,0081_hp_dnn_0.55_boat_10_n03662601_5210.png,n03662601_5210.png,1.0,-0.48204932,-0.5569333,0.052950963
alexnet_w1_mlp_simclrhn_probe1,1,82,NaN,car,car,1.5,0082_hp_dnn_1.5_car_10_n03100240_6192.png,n03100240_6192.png,1.0,0.046357125,-0.16631216,0.1503799
alexnet_w1_mlp_simclrhn_probe1,1,83,NaN,clock,oven,0.45,0083_hp_dnn_0.45_oven_10_n04111531_9314.png,n04111531_9314.png,0.0,-2.1491125,-0.25348356,-1.3404121
alexnet_w1_mlp_simclrhn_probe1,1,84,NaN,clock,cat,0.4,0084_hp_dnn_0.4_cat_10_n02123045_5189.png,n02123045_5189.png,0.0,-0.86401373,-0.613386,-0.17722058
alexnet_w1_mlp_simclrhn_probe1,1,85,NaN,clock,truck,0.7,0085_hp_dnn_0.7_truck_10_n04467665_30189.png,n04467665_30189.png,0.0,-1.4093146,1.0064584,-1.7082094
alexnet_w1_mlp_simclrhn_probe1,1,86,NaN,airplane,airplane,1.5,0086_hp_dnn_1.5_airplane_10_n02690373_3377.png,n02690373_3377.png,1.0,0.567381,0.45325717,0.08069775
alexnet_w1_mlp_simclrhn_probe1,1,87,NaN,knife,oven,0.4,0087_hp_dnn_0.4_oven_10_n04111531_1750.png,n04111531_1750.png,0.0,-1.898787,-0.50435585,-0.9860117
alexnet_w1_mlp_simclrhn_probe1,1,88,NaN,cat,dog,inf,0088_hp_dnn_inf_dog_10_n02097047_2877.png,n02097047_2877.png,0.0,0.12806563,1.6832514,-1.0996825
alexnet_w1_mlp_simclrhn_probe1,1,89,NaN,cat,cat,inf,0089_hp_dnn_inf_cat_10_n02124075_15171.png,n02124075_15171.png,1.0,6.3110414,-0.30075523,4.6752462
alexnet_w1_mlp_simclrhn_probe1,1,90,NaN,clock,car,0.4,0090_hp_dnn_0.4_car_10_n03100240_23060.png,n03100240_23060.png,0.0,-1.8137816,-0.25716668,-1.100693
alexnet_w1_mlp_simclrhn_probe1,1,91,NaN,knife,knife,inf,0091_hp_dnn_inf_knife_10_n03041632_20595.png,n03041632_20595.png,1.0,-1.5646424,-4.032199,1.744826
alexnet_w1_mlp_simclrhn_probe1,1,92,NaN,clock,knife,0.45,0092_hp_dnn_0.45_knife_10_n03041632_2184.png,n03041632_2184.png,0.0,-1.4456108,-0.43979955,-0.7112159
alexnet_w1_mlp_simclrhn_probe1,1,93,NaN,knife,knife,0.4,0093_hp_dnn_0.4_knife_10_n03041632_42162.png,n03041632_42162.png,1.0,-0.10487613,-0.3887873,0.20075552
alexnet_w1_mlp_simclrhn_probe1,1,94,NaN,chair,elephant,1,0094_hp_dnn_1_elephant_10_n02504458_3535.png,n02504458_3535.png,0.0,-1.5230366,-0.19173697,-0.941371
alexnet_w1_mlp_simclrhn_probe1,1,95,NaN,elephant,bird,inf,0095_hp_dnn_inf_bird_10_n02056570_11311.png,n02056570_11311.png,0.0,-4.4510818,-2.6528416,-1.2715478
alexnet_w1_mlp_simclrhn_probe1,1,96,NaN,airplane,chair,0.4,0096_hp_dnn_0.4_chair_10_n03376595_4121.png,n03376595_4121.png,0.0,-0.72352886,-0.16159362,-0.39734823
alexnet_w1_mlp_simclrhn_probe1,1,97,NaN,chair,dog,1,0097_hp_dnn_1_dog_10_n02086240_3572.png,n02086240_3572.png,0.0,-2.480061,-0.9459628,-1.0847713
alexnet_w1_mlp_simclrhn_probe1,1,98,NaN,elephant,elephant,inf,0098_hp_dnn_inf_elephant_10_n02504013_4523.png,n02504013_4523.png,1.0,10.672549,-1.0338593,8.277681
alexnet_w1_mlp_simclrhn_probe1,1,99,NaN,oven,chair,inf,0099_hp_dnn_inf_chair_10_n04429376_7902.png,n04429376_7902.png,0.0,-3.897515,-2.8658729,-0.7294812
alexnet_w1_mlp_simclrhn_probe1,1,100,NaN,clock,bird,0.45,0100_hp_dnn_0.45_bird_10_n01530575_14402.png,n01530575_14402.png,0.0,-0.808018,-0.31875455,-0.34596154
alexnet_w1_mlp_simclrhn_probe1,1,101,NaN,clock,bottle,0.55,0101_hp_dnn_0.55_bottle_10_n02823428_11140.png,n02823428_11140.png,0.0,-0.40461588,0.48768255,-0.63095033
alexnet_w1_mlp_simclrhn_probe1,1,102,NaN,clock,airplane,0.55,0102_hp_dnn_0.55_airplane_10_n02690373_7685.png,n02690373_7685.png,0.0,-0.09112668,0.22232147,-0.2216413
alexnet_w1_mlp_simclrhn_probe1,1,103,NaN,airplane,boat,0.45,0103_hp_dnn_0.45_boat_10_n03344393_4827.png,n03344393_4827.png,0.0,-0.25459778,0.09075195,-0.24419914
alexnet_w1_mlp_simclrhn_probe1,1,104,NaN,knife,dog,0.7,0104_hp_dnn_0.7_dog_10_n02088364_8674.png,n02088364_8674.png,0.0,-3.2303567,-1.0256162,-1.558987
alexnet_w1_mlp_simclrhn_probe1,1,105,NaN,clock,knife,0.45,0105_hp_dnn_0.45_knife_10_n03041632_32004.png,n03041632_32004.png,0.0,-0.7059673,-0.57269263,-0.09423943
alexnet_w1_mlp_simclrhn_probe1,1,106,NaN,keyboard,keyboard,3,0106_hp_dnn_3_keyboard_10_n03085013_22949.png,n03085013_22949.png,1.0,2.8029752,-0.9274147,2.637784
alexnet_w1_mlp_simclrhn_probe1,1,107,NaN,clock,knife,0.7,0107_hp_dnn_0.7_knife_10_n03041632_4044.png,n03041632_4044.png,0.0,-0.75314176,-0.5851027,-0.118821576
alexnet_w1_mlp_simclrhn_probe1,1,108,NaN,airplane,airplane,1.5,0108_hp_dnn_1.5_airplane_10_n02690373_6455.png,n02690373_6455.png,1.0,4.0062265,0.5745563,2.4265573
alexnet_w1_mlp_simclrhn_probe1,1,109,NaN,airplane,airplane,0.55,0109_hp_dnn_0.55_airplane_10_n02690373_19646.png,n02690373_19646.png,1.0,0.55756503,-0.21141939,0.5437541
alexnet_w1_mlp_simclrhn_probe1,1,110,NaN,boat,boat,inf,0110_hp_dnn_inf_boat_10_n04612504_1692.png,n04612504_1692.png,1.0,3.6135812,0.39940006,2.2727695
alexnet_w1_mlp_simclrhn_probe1,1,111,NaN,clock,cat,0.55,0111_hp_dnn_0.55_cat_10_n02124075_853.png,n02124075_853.png,0.0,-1.161048,-0.809222,-0.24877861
alexnet_w1_mlp_simclrhn_probe1,1,112,NaN,boat,boat,1,0112_hp_dnn_1_boat_10_n04273569_6071.png,n04273569_6071.png,1.0,-0.8021181,-1.0639659,0.18515435
alexnet_w1_mlp_simclrhn_probe1,1,113,NaN,bicycle,bird,1.5,0113_hp_dnn_1.5_bird_10_n01616318_1214.png,n01616318_1214.png,0.0,-1.532808,-0.8475466,-0.48455298
alexnet_w1_mlp_simclrhn_probe1,1,114,NaN,car,car,1.5,0114_hp_dnn_1.5_car_10_n02814533_14627.png,n02814533_14627.png,1.0,1.0378035,1.0333474,0.0031509828
alexnet_w1_mlp_simclrhn_probe1,1,115,NaN,clock,keyboard,0.7,0115_hp_dnn_0.7_keyboard_10_n03085013_1483.png,n03085013_1483.png,0.0,-1.0334653,-0.5029564,-0.37512642
alexnet_w1_mlp_simclrhn_probe1,1,116,NaN,airplane,airplane,0.55,0116_hp_dnn_0.55_airplane_10_n02690373_7401.png,n02690373_7401.png,1.0,0.91232383,-0.34195456,0.88690877
alexnet_w1_mlp_simclrhn_probe1,1,117,NaN,clock,keyboard,0.55,0117_hp_dnn_0.55_keyboard_10_n03085013_6963.png,n03085013_6963.png,0.0,-0.7025155,0.09474817,-0.5637505
alexnet_w1_mlp_simclrhn_probe1,1,118,NaN,bicycle,knife,3,0118_hp_dnn_3_knife_10_n03041632_1407.png,n03041632_1407.png,0.0,-1.8604999,0.7124879,-1.8193772
alexnet_w1_mlp_simclrhn_probe1,1,119,NaN,chair,elephant,1.5,0119_hp_dnn_1.5_elephant_10_n02504458_5137.png,n02504458_5137.png,0.0,-0.90907997,-0.6814719,-0.16094323
alexnet_w1_mlp_simclrhn_probe1,1,120,NaN,clock,clock,inf,0120_hp_dnn_inf_clock_10_n02708093_6635.png,n02708093_6635.png,1.0,5.126615,1.1671524,2.799763
alexnet_w1_mlp_simclrhn_probe1,1,121,NaN,clock,oven,0.4,0121_hp_dnn_0.4_oven_10_n04111531_5927.png,n04111531_5927.png,0.0,-2.2783406,-0.57811564,-1.2022406
alexnet_w1_mlp_simclrhn_probe1,1,122,NaN,clock,clock,inf,0122_hp_dnn_inf_clock_10_n02708093_2043.png,n02708093_2043.png,1.0,0.8455507,-1.7857797,1.8606317
alexnet_w1_mlp_simclrhn_probe1,1,123,NaN,airplane,airplane,0.4,0123_hp_dnn_0.4_airplane_10_n02690373_7300.png,n02690373_7300.png,1.0,0.1670852,-0.32241908,0.3461318
alexnet_w1_mlp_simclrhn_probe1,1,124,NaN,clock,oven,0.55,0124_hp_dnn_0.55_oven_10_n04111531_190.png,n04111531_190.png,0.0,-2.337758,-0.66726613,-1.1812162
alexnet_w1_mlp_simclrhn_probe1,1,125,NaN,bird,dog,3,0125_hp_dnn_3_dog_10_n02091244_8497.png,n02091244_8497.png,0.0,-4.749365,-0.9246583,-2.7044759
alexnet_w1_mlp_simclrhn_probe1,1,126,NaN,elephant,bicycle,0.7,0126_hp_dnn_0.7_bicycle_10_n03792782_15932.png,n03792782_15932.png,0.0,-1.7379768,-0.8222842,-0.6474924
alexnet_w1_mlp_simclrhn_probe1,1,127,NaN,clock,bear,0.4,0127_hp_dnn_0.4_bear_10_n02133161_463.png,n02133161_463.png,0.0,-1.4427135,-0.77797514,-0.470041
alexnet_w1_mlp_simclrhn_probe1,1,128,NaN,clock,cat,0.7,0128_hp_dnn_0.7_cat_10_n02123045_11126.png,n02123045_11126.png,0.0,-1.634201,-0.88906187,-0.52689296
alexnet_w1_mlp_simclrhn_probe1,1,129,NaN,knife,clock,0.7,0129_hp_dnn_0.7_clock_10_n04548280_8646.png,n04548280_8646.png,0.0,-0.7922066,-0.62895703,-0.11543487
alexnet_w1_mlp_simclrhn_probe1,1,130,NaN,clock,bottle,0.55,0130_hp_dnn_0.55_bottle_10_n03983396_11597.png,n03983396_11597.png,0.0,-1.3728908,-0.7013697,-0.47483715
alexnet_w1_mlp_simclrhn_probe1,1,131,NaN,truck,truck,3,0131_hp_dnn_3_truck_10_n03417042_212.png,n03417042_212.png,1.0,0.32996345,0.064204425,0.18792
alexnet_w1_mlp_simclrhn_probe1,1,132,NaN,keyboard,keyboard,1,0132_hp_dnn_1_keyboard_10_n04505470_1724.png,n04505470_1724.png,1.0,-0.5243547,-1.051821,0.372975
alexnet_w1_mlp_simclrhn_probe1,1,133,NaN,chair,chair,1,0133_hp_dnn_1_chair_10_n04099969_14028.png,n04099969_14028.png,1.0,-0.09311819,-0.81420875,0.50988805
alexnet_w1_mlp_simclrhn_probe1,1,134,NaN,clock,cat,0.45,0134_hp_dnn_0.45_cat_10_n02124075_2138.png,n02124075_2138.png,0.0,-1.1003655,-0.2781078,-0.58142406
alexnet_w1_mlp_simclrhn_probe1,1,135,NaN,airplane,boat,inf,0135_hp_dnn_inf_boat_10_n03662601_3145.png,n03662601_3145.png,0.0,1.3491399,3.891325,-1.7975963
alexnet_w1_mlp_simclrhn_probe1,1,136,NaN,bicycle,cat,3,0136_hp_dnn_3_cat_10_n02123045_1120.png,n02123045_1120.png,0.0,-2.272268,-1.4194621,-0.6030249
alexnet_w1_mlp_simclrhn_probe1,1,137,NaN,boat,boat,inf,0137_hp_dnn_inf_boat_10_n04612504_31305.png,n04612504_31305.png,1.0,4.4541793,-1.738625,4.378974
alexnet_w1_mlp_simclrhn_probe1,1,138,NaN,clock,chair,1,0138_hp_dnn_1_chair_10_n04099969_4275.png,n04099969_4275.png,0.0,-0.047945112,0.13438433,-0.1289264
alexnet_w1_mlp_simclrhn_probe1,1,139,NaN,clock,keyboard,0.4,0139_hp_dnn_0.4_keyboard_10_n03085013_23005.png,n03085013_23005.png,0.0,-1.2076044,-0.59558785,-0.43276107
alexnet_w1_mlp_simclrhn_probe1,1,140,NaN,airplane,airplane,1,0140_hp_dnn_1_airplane_10_n02690373_9618.png,n02690373_9618.png,1.0,0.1583586,-0.649227,0.5710493
alexnet_w1_mlp_simclrhn_probe1,1,141,NaN,knife,knife,0.55,0141_hp_dnn_0.55_knife_10_n03041632_17338.png,n03041632_17338.png,1.0,-0.119780995,-0.12192553,0.0015164173
alexnet_w1_mlp_simclrhn_probe1,1,142,NaN,clock,clock,0.45,0142_hp_dnn_0.45_clock_10_n04548280_8225.png,n04548280_8225.png,1.0,-0.092333816,-0.87933016,0.5564905
alexnet_w1_mlp_simclrhn_probe1,1,143,NaN,car,car,inf,0143_hp_dnn_inf_car_10_n03100240_8907.png,n03100240_8907.png,1.0,6.9244924,1.5756505,3.7822022
alexnet_w1_mlp_simclrhn_probe1,1,144,NaN,chair,chair,1.5,0144_hp_dnn_1.5_chair_10_n03376595_6865.png,n03376595_6865.png,1.0,1.5764978,0.64406204,0.6593317
alexnet_w1_mlp_simclrhn_probe1,1,145,NaN,clock,bicycle,0.45,0145_hp_dnn_0.45_bicycle_10_n03792782_44296.png,n03792782_44296.png,0.0,-1.2613647,-0.503185,-0.53611404
alexnet_w1_mlp_simclrhn_probe1,1,146,NaN,bicycle,boat,1.5,0146_hp_dnn_1.5_boat_10_n04273569_1233.png,n04273569_1233.png,0.0,-1.605875,-0.47485143,-0.7997545
alexnet_w1_mlp_simclrhn_probe1,1,147,NaN,bird,bird,1,0147_hp_dnn_1_bird_10_n01824575_12784.png,n01824575_12784.png,1.0,-1.7572684,-1.8559364,0.0697688
alexnet_w1_mlp_simclrhn_probe1,1,148,NaN,airplane,boat,3,0148_hp_dnn_3_boat_10_n03344393_408.png,n03344393_408.png,0.0,1.2274289,2.0288677,-0.56670284
alexnet_w1_mlp_simclrhn_probe1,1,149,NaN,airplane,airplane,1,0149_hp_dnn_1_airplane_10_n02690373_220.png,n02690373_220.png,1.0,1.9877355,0.15695344,1.2945584
alexnet_w1_mlp_simclrhn_probe1,1,150,NaN,bicycle,chair,3,0150_hp_dnn_3_chair_10_n04429376_10546.png,n04429376_10546.png,0.0,-0.5057279,-0.35385364,-0.10739131
alexnet_w1_mlp_simclrhn_probe1,1,151,NaN,clock,oven,0.7,0151_hp_dnn_0.7_oven_10_n04111531_4749.png,n04111531_4749.png,0.0,-1.426543,-0.3706535,-0.7466266
alexnet_w1_mlp_simclrhn_probe1,1,152,NaN,clock,truck,0.4,0152_hp_dnn_0.4_truck_10_n03417042_18124.png,n03417042_18124.png,0.0,-1.1513114,-0.06256344,-0.7698611
alexnet_w1_mlp_simclrhn_probe1,1,153,NaN,chair,clock,3,0153_hp_dnn_3_clock_10_n03196217_7353.png,n03196217_7353.png,0.0,-0.70158213,-0.63654846,-0.045985755
alexnet_w1_mlp_simclrhn_probe1,1,154,NaN,clock,dog,0.7,0154_hp_dnn_0.7_dog_10_n02098286_2699.png,n02098286_2699.png,0.0,-2.0133553,-0.46035752,-1.0981352
alexnet_w1_mlp_simclrhn_probe1,1,155,NaN,clock,truck,0.4,0155_hp_dnn_0.4_truck_10_n03796401_3651.png,n03796401_3651.png,0.0,-1.4028288,-0.20850557,-0.84451413
alexnet_w1_mlp_simclrhn_probe1,1,156,NaN,clock,bottle,0.4,0156_hp_dnn_0.4_bottle_10_n03983396_4165.png,n03983396_4165.png,0.0,-0.8546645,-0.35385716,-0.35412428
alexnet_w1_mlp_simclrhn_probe1,1,157,NaN,clock,knife,1,0157_hp_dnn_1_knife_10_n03041632_25257.png,n03041632_25257.png,0.0,-1.9956292,-0.376062,-1.1452069
alexnet_w1_mlp_simclrhn_probe1,1,158,NaN,chair,chair,3,0158_hp_dnn_3_chair_10_n04099969_1229.png,n04099969_1229.png,1.0,1.372553,-2.9156923,3.0322473
alexnet_w1_mlp_simclrhn_probe1,1,159,NaN,bird,bird,inf,0159_hp_dnn_inf_bird_10_n01798484_518.png,n01798484_518.png,1.0,-0.071796685,-0.5315547,0.325098
alexnet_w1_mlp_simclrhn_probe1,1,160,NaN,bird,bird,inf,0160_hp_dnn_inf_bird_10_n01797886_1953.png,n01797886_1953.png,1.0,-0.29696542,-3.5395794,2.2928743
alexnet_w1_mlp_simclrhn_probe1,1,161,NaN,bird,bird,3,0161_hp_dnn_3_bird_10_n01820546_228.png,n01820546_228.png,1.0,-0.37476498,-1.1950822,0.5800519
alexnet_w1_mlp_simclrhn_probe1,1,162,NaN,bicycle,bear,1.5,0162_hp_dnn_1.5_bear_10_n02134418_2666.png,n02134418_2666.png,0.0,-2.215605,-1.1778445,-0.7338075
alexnet_w1_mlp_simclrhn_probe1,1,163,NaN,boat,boat,1.5,0163_hp_dnn_1.5_boat_10_n03344393_7659.png,n03344393_7659.png,1.0,1.9055074,1.5251652,0.2689426
alexnet_w1_mlp_simclrhn_probe1,1,164,NaN,bicycle,oven,1.5,0164_hp_dnn_1.5_oven_10_n04111531_1752.png,n04111531_1752.png,0.0,-2.535116,-1.3194711,-0.8595907
alexnet_w1_mlp_simclrhn_probe1,1,165,NaN,elephant,dog,inf,0165_hp_dnn_inf_dog_10_n02091032_8873.png,n02091032_8873.png,0.0,-4.9014354,1.5159991,-4.5378118
alexnet_w1_mlp_simclrhn_probe1,1,166,NaN,clock,oven,0.7,0166_hp_dnn_0.7_oven_10_n04111531_14559.png,n04111531_14559.png,0.0,-2.7222009,-0.413093,-1.6327858
alexnet_w1_mlp_simclrhn_probe1,1,167,NaN,knife,cat,0.7,0167_hp_dnn_0.7_cat_10_n02123045_114.png,n02123045_114.png,0.0,-1.446227,-1.2566588,-0.13404493
alexnet_w1_mlp_simclrhn_probe1,1,168,NaN,cat,cat,3,0168_hp_dnn_3_cat_10_n02123597_13865.png,n02123597_13865.png,1.0,0.5104926,-2.689601,2.2628078
alexnet_w1_mlp_simclrhn_probe1,1,169,NaN,knife,knife,0.55,0169_hp_dnn_0.55_knife_10_n03041632_13478.png,n03041632_13478.png,1.0,0.017490912,-0.40054962,0.2955993
alexnet_w1_mlp_simclrhn_probe1,1,170,NaN,clock,elephant,0.55,0170_hp_dnn_0.55_elephant_10_n02504458_2618.png,n02504458_2618.png,0.0,-1.2702372,-0.77986294,-0.34674698
alexnet_w1_mlp_simclrhn_probe1,1,171,NaN,clock,truck,1,0171_hp_dnn_1_truck_10_n04467665_56954.png,n04467665_56954.png,0.0,-1.6928887,-0.13337229,-1.1027447
alexnet_w1_mlp_simclrhn_probe1,1,172,NaN,clock,chair,1,0172_hp_dnn_1_chair_10_n04429376_1791.png,n04429376_1791.png,0.0,-0.73109907,0.0895251,-0.5802689
alexnet_w1_mlp_simclrhn_probe1,1,173,NaN,clock,bottle,3,0173_hp_dnn_3_bottle_10_n04560804_33214.png,n04560804_33214.png,0.0,-0.09628008,-0.057993967,-0.027072372
alexnet_w1_mlp_simclrhn_probe1,1,174,NaN,knife,knife,inf,0174_hp_dnn_inf_knife_10_n03041632_48816.png,n03041632_48816.png,1.0,1.2004615,-1.2258507,1.7156619
alexnet_w1_mlp_simclrhn_probe1,1,175,NaN,cat,cat,3,0175_hp_dnn_3_cat_10_n02123394_2274.png,n02123394_2274.png,1.0,-0.96394897,-2.2767498,0.9282904
alexnet_w1_mlp_simclrhn_probe1,1,176,NaN,truck,truck,1.5,0176_hp_dnn_1.5_truck_10_n03796401_1326.png,n03796401_1326.png,1.0,1.6643184,0.37532583,0.91145545
alexnet_w1_mlp_simclrhn_probe1,1,177,NaN,clock,knife,0.55,0177_hp_dnn_0.55_knife_10_n03041632_11887.png,n03041632_11887.png,0.0,-0.35280487,-0.23812056,-0.08109406
alexnet_w1_mlp_simclrhn_probe1,1,178,NaN,knife,dog,0.7,0178_hp_dnn_0.7_dog_10_n02113978_8008.png,n02113978_8008.png,0.0,-2.214124,-0.602458,-1.13962
alexnet_w1_mlp_simclrhn_probe1,1,179,NaN,clock,cat,0.4,0179_hp_dnn_0.4_cat_10_n02123045_4812.png,n02123045_4812.png,0.0,-0.98204947,-0.5757242,-0.28731537
alexnet_w1_mlp_simclrhn_probe1,1,180,NaN,knife,bird,inf,0180_hp_dnn_inf_bird_10_n01833805_3578.png,n01833805_3578.png,0.0,-3.2214618,-1.367549,-1.3109144
alexnet_w1_mlp_simclrhn_probe1,1,181,NaN,clock,truck,1,0181_hp_dnn_1_truck_10_n03417042_3398.png,n03417042_3398.png,0.0,-0.044970587,0.27961376,-0.2295158
alexnet_w1_mlp_simclrhn_probe1,1,182,NaN,clock,bird,0.7,0182_hp_dnn_0.7_bird_10_n02007558_4566.png,n02007558_4566.png,0.0,-1.4533949,-0.90532166,-0.3875463
alexnet_w1_mlp_simclrhn_probe1,1,183,NaN,clock,knife,0.45,0183_hp_dnn_0.45_knife_10_n03041632_3516.png,n03041632_3516.png,0.0,-0.3729732,-0.32584658,-0.033323552
alexnet_w1_mlp_simclrhn_probe1,1,184,NaN,chair,cat,1.5,0184_hp_dnn_1.5_cat_10_n02124075_14965.png,n02124075_14965.png,0.0,-1.2525462,-0.7786436,-0.33509973
alexnet_w1_mlp_simclrhn_probe1,1,185,NaN,knife,bird,0.4,0185_hp_dnn_0.4_bird_10_n01843065_2176.png,n01843065_2176.png,0.0,-0.7712037,-0.57302105,-0.14013629
alexnet_w1_mlp_simclrhn_probe1,1,186,NaN,bicycle,knife,3,0186_hp_dnn_3_knife_10_n03041632_21034.png,n03041632_21034.png,0.0,-1.9083551,-0.91809505,-0.70021963
alexnet_w1_mlp_simclrhn_probe1,1,187,NaN,airplane,keyboard,1.5,0187_hp_dnn_1.5_keyboard_10_n03085013_24026.png,n03085013_24026.png,0.0,-1.7109606,-0.9197818,-0.55944794
alexnet_w1_mlp_simclrhn_probe1,1,188,NaN,clock,bottle,0.55,0188_hp_dnn_0.55_bottle_10_n04560804_14395.png,n04560804_14395.png,0.0,-0.21691582,-0.1992749,-0.0124740135
alexnet_w1_mlp_simclrhn_probe1,1,189,NaN,clock,boat,0.45,0189_hp_dnn_0.45_boat_10_n02951358_11567.png,n02951358_11567.png,0.0,-1.4440699,-0.27190086,-0.82884866
alexnet_w1_mlp_simclrhn_probe1,1,190,NaN,clock,chair,0.4,0190_hp_dnn_0.4_chair_10_n03376595_17747.png,n03376595_17747.png,0.0,-0.54308337,-0.21696372,-0.23060143
alexnet_w1_mlp_simclrhn_probe1,1,191,NaN,bottle,bottle,inf,0191_hp_dnn_inf_bottle_10_n04591713_5563.png,n04591713_5563.png,1.0,1.2018584,-1.0221943,1.5726428
alexnet_w1_mlp_simclrhn_probe1,1,192,NaN,airplane,airplane,3,0192_hp_dnn_3_airplane_10_n02690373_7496.png,n02690373_7496.png,1.0,3.1017628,-0.37340885,2.4573174
alexnet_w1_mlp_simclrhn_probe1,1,193,NaN,airplane,airplane,3,0193_hp_dnn_3_airplane_10_n02690373_4465.png,n02690373_4465.png,1.0,6.093635,0.6920635,3.819488
alexnet_w1_mlp_simclrhn_probe1,1,194,NaN,clock,bear,0.4,0194_hp_dnn_0.4_bear_10_n02134418_119.png,n02134418_119.png,0.0,-1.4884552,-0.7053764,-0.55372036
alexnet_w1_mlp_simclrhn_probe1,1,195,NaN,bird,bear,1.5,0195_hp_dnn_1.5_bear_10_n02133161_1970.png,n02133161_1970.png,0.0,-2.6953385,-0.65540576,-1.4424503
alexnet_w1_mlp_simclrhn_probe1,1,196,NaN,knife,bird,1.5,0196_hp_dnn_1.5_bird_10_n02018795_5488.png,n02018795_5488.png,0.0,-2.842039,-1.2976427,-1.0920532
alexnet_w1_mlp_simclrhn_probe1,1,197,NaN,knife,bird,0.45,0197_hp_dnn_0.45_bird_10_n01796340_1877.png,n01796340_1877.png,0.0,-0.8275849,-0.41262698,-0.29341957
alexnet_w1_mlp_simclrhn_probe1,1,198,NaN,airplane,airplane,0.4,0198_hp_dnn_0.4_airplane_10_n02690373_4964.png,n02690373_4964.png,1.0,0.025993232,-0.435087,0.32603297
alexnet_w1_mlp_simclrhn_probe1,1,199,NaN,clock,bottle,0.4,0199_hp_dnn_0.4_bottle_10_n04591713_1762.png,n04591713_1762.png,0.0,-0.1831626,-0.1015529,-0.05770677
alexnet_w1_mlp_simclrhn_probe1,1,200,NaN,bicycle,car,1,0200_hp_dnn_1_car_10_n03100240_6059.png,n03100240_6059.png,0.0,-0.1060633,0.17632708,-0.19968016
alexnet_w1_mlp_simclrhn_probe1,1,201,NaN,airplane,chair,inf,0201_hp_dnn_inf_chair_10_n03376595_10769.png,n03376595_10769.png,0.0,-1.8614601,-0.7123848,-0.81251895
alexnet_w1_mlp_simclrhn_probe1,1,202,NaN,oven,oven,inf,0202_hp_dnn_inf_oven_10_n04111531_1723.png,n04111531_1723.png,1.0,3.1274495,-0.10763941,2.2875533
alexnet_w1_mlp_simclrhn_probe1,1,203,NaN,clock,bicycle,0.45,0203_hp_dnn_0.45_bicycle_10_n02835271_3570.png,n02835271_3570.png,0.0,-0.11364019,0.009922166,-0.08737178
alexnet_w1_mlp_simclrhn_probe1,1,204,NaN,clock,knife,0.4,0204_hp_dnn_0.4_knife_10_n03041632_83826.png,n03041632_83826.png,0.0,-0.5969613,-0.29752257,-0.21173517
alexnet_w1_mlp_simclrhn_probe1,1,205,NaN,chair,keyboard,0.7,0205_hp_dnn_0.7_keyboard_10_n03085013_20673.png,n03085013_20673.png,0.0,-0.87235206,-0.26725817,-0.427866
alexnet_w1_mlp_simclrhn_probe1,1,206,NaN,knife,knife,1,0206_hp_dnn_1_knife_10_n03041632_27575.png,n03041632_27575.png,1.0,0.08386053,-0.34779847,0.305229
alexnet_w1_mlp_simclrhn_probe1,1,207,NaN,bird,bird,1.5,0207_hp_dnn_1.5_bird_10_n01558993_14305.png,n01558993_14305.png,1.0,-0.22697955,-1.4354643,0.8545277
alexnet_w1_mlp_simclrhn_probe1,1,208,NaN,clock,bird,0.4,0208_hp_dnn_0.4_bird_10_n01537544_18123.png,n01537544_18123.png,0.0,-0.77601504,-0.67278665,-0.072993495
alexnet_w1_mlp_simclrhn_probe1,1,209,NaN,bicycle,bicycle,3,0209_hp_dnn_3_bicycle_10_n02835271_4307.png,n02835271_4307.png,1.0,6.870576,0.3791539,4.590129
alexnet_w1_mlp_simclrhn_probe1,1,210,NaN,clock,car,0.7,0210_hp_dnn_0.7_car_10_n04285008_6320.png,n04285008_6320.png,0.0,-0.9603181,-0.23744386,-0.5111493
alexnet_w1_mlp_simclrhn_probe1,1,211,NaN,clock,elephant,0.7,0211_hp_dnn_0.7_elephant_10_n02504458_1327.png,n02504458_1327.png,0.0,-1.6385802,-1.0614375,-0.40810153
alexnet_w1_mlp_simclrhn_probe1,1,212,NaN,bottle,bottle,1,0212_hp_dnn_1_bottle_10_n04560804_1813.png,n04560804_1813.png,1.0,-0.9697381,-1.1339598,0.11612224
alexnet_w1_mlp_simclrhn_probe1,1,213,NaN,clock,cat,1,0213_hp_dnn_1_cat_10_n02124075_10085.png,n02124075_10085.png,0.0,-1.6184427,-0.85119957,-0.5425228
alexnet_w1_mlp_simclrhn_probe1,1,214,NaN,bottle,clock,inf,0214_hp_dnn_inf_clock_10_n03196217_2853.png,n03196217_2853.png,0.0,-0.5938039,1.5811285,-1.5379095
alexnet_w1_mlp_simclrhn_probe1,1,215,NaN,boat,boat,1.5,0215_hp_dnn_1.5_boat_10_n04273569_10149.png,n04273569_10149.png,1.0,0.17986238,-0.80636245,0.6973663
alexnet_w1_mlp_simclrhn_probe1,1,216,NaN,chair,chair,3,0216_hp_dnn_3_chair_10_n03376595_17859.png,n03376595_17859.png,1.0,2.1345026,-1.2648287,2.4036903
alexnet_w1_mlp_simclrhn_probe1,1,217,NaN,clock,dog,0.55,0217_hp_dnn_0.55_dog_10_n02101556_7581.png,n02101556_7581.png,0.0,-2.8192348,0.054124814,-2.0317721
alexnet_w1_mlp_simclrhn_probe1,1,218,NaN,clock,cat,0.4,0218_hp_dnn_0.4_cat_10_n02125311_8522.png,n02125311_8522.png,0.0,-1.0572914,-0.7195535,-0.23881678
alexnet_w1_mlp_simclrhn_probe1,1,219,NaN,clock,clock,0.45,0219_hp_dnn_0.45_clock_10_n04548280_4345.png,n04548280_4345.png,1.0,0.26453653,-0.47513407,0.5230261
alexnet_w1_mlp_simclrhn_probe1,1,220,NaN,truck,truck,inf,0220_hp_dnn_inf_truck_10_n04467665_4088.png,n04467665_4088.png,1.0,4.552863,2.03664,1.7792385
alexnet_w1_mlp_simclrhn_probe1,1,221,NaN,dog,dog,inf,0221_hp_dnn_inf_dog_10_n02102040_1100.png,n02102040_1100.png,1.0,2.8073902,-2.6820602,3.8816278
alexnet_w1_mlp_simclrhn_probe1,1,222,NaN,airplane,bicycle,0.55,0222_hp_dnn_0.55_bicycle_10_n03792782_15557.png,n03792782_15557.png,0.0,-1.2889147,-0.4711243,-0.57826513
alexnet_w1_mlp_simclrhn_probe1,1,223,NaN,car,car,3,0223_hp_dnn_3_car_10_n04285008_12767.png,n04285008_12767.png,1.0,0.8577018,0.6019732,0.18082744
alexnet_w1_mlp_simclrhn_probe1,1,224,NaN,airplane,boat,0.4,0224_hp_dnn_0.4_boat_10_n03662601_2438.png,n03662601_2438.png,0.0,-1.0214831,-0.18401256,-0.5921811
alexnet_w1_mlp_simclrhn_probe1,1,225,NaN,truck,truck,inf,0225_hp_dnn_inf_truck_10_n03417042_6419.png,n03417042_6419.png,1.0,7.9056034,5.3499312,1.8071332
alexnet_w1_mlp_simclrhn_probe1,1,226,NaN,clock,chair,0.45,0226_hp_dnn_0.45_chair_10_n04099969_9891.png,n04099969_9891.png,0.0,-0.62611467,-0.5243443,-0.0719625
alexnet_w1_mlp_simclrhn_probe1,1,227,NaN,cat,cat,inf,0227_hp_dnn_inf_cat_10_n02123045_8543.png,n02123045_8543.png,1.0,3.2928498,-3.5121164,4.8118377
alexnet_w1_mlp_simclrhn_probe1,1,228,NaN,clock,cat,0.55,0228_hp_dnn_0.55_cat_10_n02123045_7342.png,n02123045_7342.png,0.0,-0.860768,-0.58240294,-0.19683383
alexnet_w1_mlp_simclrhn_probe1,1,229,NaN,clock,bird,0.55,0229_hp_dnn_0.55_bird_10_n02018207_10814.png,n02018207_10814.png,0.0,-0.6862062,-0.6160723,-0.049592175
alexnet_w1_mlp_simclrhn_probe1,1,230,NaN,airplane,airplane,3,0230_hp_dnn_3_airplane_10_n02690373_20033.png,n02690373_20033.png,1.0,4.8792214,0.938735,2.7863448
alexnet_w1_mlp_simclrhn_probe1,1,231,NaN,clock,truck,0.55,0231_hp_dnn_0.55_truck_10_n04467665_13645.png,n04467665_13645.png,0.0,-1.6594834,-0.29804656,-0.96268123
alexnet_w1_mlp_simclrhn_probe1,1,232,NaN,airplane,airplane,1.5,0232_hp_dnn_1.5_airplane_10_n02690373_5015.png,n02690373_5015.png,1.0,1.6695682,-0.08272831,1.2390608
alexnet_w1_mlp_simclrhn_probe1,1,233,NaN,bicycle,chair,1.5,0233_hp_dnn_1.5_chair_10_n03376595_6173.png,n03376595_6173.png,0.0,-1.0998513,0.6479548,-1.2358855
alexnet_w1_mlp_simclrhn_probe1,1,234,NaN,bicycle,knife,1.5,0234_hp_dnn_1.5_knife_10_n03041632_91967.png,n03041632_91967.png,0.0,-3.4061203,-0.36969432,-2.1470776
alexnet_w1_mlp_simclrhn_probe1,1,235,NaN,elephant,elephant,inf,0235_hp_dnn_inf_elephant_10_n02504458_1271.png,n02504458_1271.png,1.0,3.5293002,-4.3791595,5.5921254
alexnet_w1_mlp_simclrhn_probe1,1,236,NaN,cat,cat,0.7,0236_hp_dnn_0.7_cat_10_n02123597_1684.png,n02123597_1684.png,1.0,-0.6270433,-0.6843439,0.04051762
alexnet_w1_mlp_simclrhn_probe1,1,237,NaN,clock,dog,0.55,0237_hp_dnn_0.55_dog_10_n02091831_3628.png,n02091831_3628.png,0.0,-1.929732,-0.80865604,-0.7927204
alexnet_w1_mlp_simclrhn_probe1,1,238,NaN,clock,truck,0.45,0238_hp_dnn_0.45_truck_10_n04467665_64540.png,n04467665_64540.png,0.0,-0.9425821,0.27543348,-0.8612671
alexnet_w1_mlp_simclrhn_probe1,1,239,NaN,airplane,airplane,1,0239_hp_dnn_1_airplane_10_n02690373_3289.png,n02690373_3289.png,1.0,0.75240767,-0.63262016,0.9793626
alexnet_w1_mlp_simclrhn_probe1,1,240,NaN,boat,boat,3,0240_hp_dnn_3_boat_10_n04273569_16949.png,n04273569_16949.png,1.0,-1.5203007,-2.3582191,0.59249777
alexnet_w1_mlp_simclrhn_probe1,1,241,NaN,knife,bicycle,1,0241_hp_dnn_1_bicycle_10_n03792782_15174.png,n03792782_15174.png,0.0,-1.9043839,-1.3514493,-0.39098385
alexnet_w1_mlp_simclrhn_probe1,1,242,NaN,chair,bottle,1.5,0242_hp_dnn_1.5_bottle_10_n03937543_146.png,n03937543_146.png,0.0,-1.050268,-0.6820606,-0.260362
alexnet_w1_mlp_simclrhn_probe1,1,243,NaN,clock,chair,0.45,0243_hp_dnn_0.45_chair_10_n04429376_694.png,n04429376_694.png,0.0,-0.6461797,-0.060058713,-0.4144501
alexnet_w1_mlp_simclrhn_probe1,1,244,NaN,airplane,keyboard,0.4,0244_hp_dnn_0.4_keyboard_10_n03085013_19407.png,n03085013_19407.png,0.0,-0.95114446,-0.43292272,-0.36643812
alexnet_w1_mlp_simclrhn_probe1,1,245,NaN,elephant,oven,0.45,0245_hp_dnn_0.45_oven_10_n04111531_4955.png,n04111531_4955.png,0.0,-2.1220348,-0.8085643,-0.9287639
alexnet_w1_mlp_simclrhn_probe1,1,246,NaN,bicycle,dog,1.5,0246_hp_dnn_1.5_dog_10_n02099712_1825.png,n02099712_1825.png,0.0,-3.2160356,-0.5647586,-1.8747361
alexnet_w1_mlp_simclrhn_probe1,1,247,NaN,clock,bear,0.55,0247_hp_dnn_0.55_bear_10_n02134084_14031.png,n02134084_14031.png,0.0,-2.2309775,-0.27291685,-1.3845581
alexnet_w1_mlp_simclrhn_probe1,1,248,NaN,clock,car,0.45,0248_hp_dnn_0.45_car_10_n02814533_70922.png,n02814533_70922.png,0.0,-0.9415562,0.2103727,-0.81453675
alexnet_w1_mlp_simclrhn_probe1,1,249,NaN,clock,elephant,0.45,0249_hp_dnn_0.45_elephant_10_n02504458_217.png,n02504458_217.png,0.0,-0.8913505,-0.6721115,-0.15502538
alexnet_w1_mlp_simclrhn_probe1,1,250,NaN,car,car,inf,0250_hp_dnn_inf_car_10_n02814533_27824.png,n02814533_27824.png,1.0,11.558757,8.254274,2.336622
alexnet_w1_mlp_simclrhn_probe1,1,251,NaN,clock,keyboard,0.7,0251_hp_dnn_0.7_keyboard_10_n03085013_24257.png,n03085013_24257.png,0.0,0.26126778,0.62005526,-0.25370106
alexnet_w1_mlp_simclrhn_probe1,1,252,NaN,bicycle,elephant,3,0252_hp_dnn_3_elephant_10_n02504013_2269.png,n02504013_2269.png,0.0,-0.4037381,-0.057854377,-0.24457674
alexnet_w1_mlp_simclrhn_probe1,1,253,NaN,clock,bear,0.45,0253_hp_dnn_0.45_bear_10_n02134418_1798.png,n02134418_1798.png,0.0,-1.5655928,-0.20955427,-0.958864
alexnet_w1_mlp_simclrhn_probe1,1,254,NaN,clock,dog,0.45,0254_hp_dnn_0.45_dog_10_n02111129_6881.png,n02111129_6881.png,0.0,-2.3962786,-0.4394687,-1.3836735
alexnet_w1_mlp_simclrhn_probe1,1,255,NaN,truck,truck,1.5,0255_hp_dnn_1.5_truck_10_n04467665_67315.png,n04467665_67315.png,1.0,1.3399622,0.041239385,0.91833574
alexnet_w1_mlp_simclrhn_probe1,1,256,NaN,knife,elephant,0.55,0256_hp_dnn_0.55_elephant_10_n02504013_3688.png,n02504013_3688.png,0.0,-0.97500455,-0.85692096,-0.08349771
alexnet_w1_mlp_simclrhn_probe1,1,257,NaN,truck,truck,1.5,0257_hp_dnn_1.5_truck_10_n04467665_38886.png,n04467665_38886.png,1.0,0.29442465,0.07701691,0.15373048
alexnet_w1_mlp_simclrhn_probe1,1,258,NaN,bottle,bottle,inf,0258_hp_dnn_inf_bottle_10_n04557648_4250.png,n04557648_4250.png,1.0,2.1312814,-0.59842813,1.9301962
alexnet_w1_mlp_simclrhn_probe1,1,259,NaN,knife,chair,0.45,0259_hp_dnn_0.45_chair_10_n04099969_4053.png,n04099969_4053.png,0.0,-0.5022895,-0.47181022,-0.021552086
alexnet_w1_mlp_simclrhn_probe1,1,260,NaN,clock,knife,0.7,0260_hp_dnn_0.7_knife_10_n03041632_5727.png,n03041632_5727.png,0.0,-1.6657901,-0.7625347,-0.63869804
alexnet_w1_mlp_simclrhn_probe1,1,261,NaN,chair,dog,1,0261_hp_dnn_1_dog_10_n02091134_4525.png,n02091134_4525.png,0.0,-3.4281695,-0.5492388,-2.0357113
alexnet_w1_mlp_simclrhn_probe1,1,262,NaN,keyboard,keyboard,inf,0262_hp_dnn_inf_keyboard_10_n04505470_4685.png,n04505470_4685.png,1.0,7.45115,-0.15399715,5.377651
alexnet_w1_mlp_simclrhn_probe1,1,263,NaN,clock,boat,0.4,0263_hp_dnn_0.4_boat_10_n02951358_6637.png,n02951358_6637.png,0.0,-1.2580941,-0.28514138,-0.6879815
alexnet_w1_mlp_simclrhn_probe1,1,264,NaN,bicycle,dog,1.5,0264_hp_dnn_1.5_dog_10_n02093256_11232.png,n02093256_11232.png,0.0,-3.462638,-0.7245837,-1.9360968
alexnet_w1_mlp_simclrhn_probe1,1,265,NaN,elephant,elephant,inf,0265_hp_dnn_inf_elephant_10_n02504013_816.png,n02504013_816.png,1.0,1.9733608,-1.0575862,2.1432033
alexnet_w1_mlp_simclrhn_probe1,1,266,NaN,elephant,bear,1.5,0266_hp_dnn_1.5_bear_10_n02134084_1484.png,n02134084_1484.png,0.0,-1.5326419,-0.8678125,-0.47010538
alexnet_w1_mlp_simclrhn_probe1,1,267,NaN,knife,boat,0.45,0267_hp_dnn_0.45_boat_10_n04273569_15859.png,n04273569_15859.png,0.0,-1.1960388,-0.46502602,-0.5169041
alexnet_w1_mlp_simclrhn_probe1,1,268,NaN,bicycle,bicycle,3,0268_hp_dnn_3_bicycle_10_n02835271_7311.png,n02835271_7311.png,1.0,0.5031034,-2.4219222,2.0683055
alexnet_w1_mlp_simclrhn_probe1,1,269,NaN,clock,cat,1,0269_hp_dnn_1_cat_10_n02123045_2339.png,n02123045_2339.png,0.0,-2.1790445,-1.0168203,-0.8218166
alexnet_w1_mlp_simclrhn_probe1,1,270,NaN,elephant,elephant,0.45,0270_hp_dnn_0.45_elephant_10_n02504458_4448.png,n02504458_4448.png,1.0,-0.93243825,-0.974401,0.02967214
alexnet_w1_mlp_simclrhn_probe1,1,271,NaN,car,car,1,0271_hp_dnn_1_car_10_n03100240_9955.png,n03100240_9955.png,1.0,2.6841393,1.447349,0.87454283
alexnet_w1_mlp_simclrhn_probe1,1,272,NaN,airplane,truck,0.55,0272_hp_dnn_0.55_truck_10_n03417042_7310.png,n03417042_7310.png,0.0,-1.3647277,-0.33526528,-0.7279399
alexnet_w1_mlp_simclrhn_probe1,1,273,NaN,clock,chair,0.55,0273_hp_dnn_0.55_chair_10_n04099969_20421.png,n04099969_20421.png,0.0,-0.7878122,-0.5089583,-0.19717948
alexnet_w1_mlp_simclrhn_probe1,1,274,NaN,boat,boat,0.45,0274_hp_dnn_0.45_boat_10_n04612504_4581.png,n04612504_4581.png,1.0,0.042775344,-0.34135264,0.2716195
alexnet_w1_mlp_simclrhn_probe1,1,275,NaN,clock,bear,1,0275_hp_dnn_1_bear_10_n02134418_4515.png,n02134418_4515.png,0.0,-2.404395,-0.8654832,-1.088175
alexnet_w1_mlp_simclrhn_probe1,1,276,NaN,chair,truck,0.7,0276_hp_dnn_0.7_truck_10_n03796401_1082.png,n03796401_1082.png,0.0,-1.6578778,0.033038367,-1.1956583
alexnet_w1_mlp_simclrhn_probe1,1,277,NaN,bicycle,bicycle,1,0277_hp_dnn_1_bicycle_10_n03792782_8176.png,n03792782_8176.png,1.0,0.5372299,-1.1686637,1.206249
alexnet_w1_mlp_simclrhn_probe1,1,278,NaN,clock,oven,0.4,0278_hp_dnn_0.4_oven_10_n04111531_5463.png,n04111531_5463.png,0.0,-1.8326614,-0.6706071,-0.82169646
alexnet_w1_mlp_simclrhn_probe1,1,279,NaN,chair,elephant,1.5,0279_hp_dnn_1.5_elephant_10_n02504013_4166.png,n02504013_4166.png,0.0,-2.2171788,-0.69106805,-1.0791233
alexnet_w1_mlp_simclrhn_probe1,1,280,NaN,airplane,airplane,0.7,0280_hp_dnn_0.7_airplane_10_n02690373_18295.png,n02690373_18295.png,1.0,1.3604169,-0.6859239,1.4469814
alexnet_w1_mlp_simclrhn_probe1,1,281,NaN,clock,cat,0.45,0281_hp_dnn_0.45_cat_10_n02124075_1460.png,n02124075_1460.png,0.0,-0.73913807,-0.47064936,-0.18985018
alexnet_w1_mlp_simclrhn_probe1,1,282,NaN,bird,bird,0.55,0282_hp_dnn_0.55_bird_10_n02028035_17759.png,n02028035_17759.png,1.0,-0.61122686,-0.813812,0.14324935
alexnet_w1_mlp_simclrhn_probe1,1,283,NaN,bicycle,chair,3,0283_hp_dnn_3_chair_10_n02791124_6654.png,n02791124_6654.png,0.0,-0.68730396,0.64007795,-0.9386007
alexnet_w1_mlp_simclrhn_probe1,1,284,NaN,airplane,truck,0.7,0284_hp_dnn_0.7_truck_10_n04467665_22974.png,n04467665_22974.png,0.0,-1.6618204,0.4874839,-1.5197878
alexnet_w1_mlp_simclrhn_probe1,1,285,NaN,clock,clock,0.55,0285_hp_dnn_0.55_clock_10_n03196217_2983.png,n03196217_2983.png,1.0,0.15299071,-0.41477394,0.40147024
alexnet_w1_mlp_simclrhn_probe1,1,286,NaN,oven,knife,inf,0286_hp_dnn_inf_knife_10_n03041632_23968.png,n03041632_23968.png,0.0,-0.9578743,3.7426264,-3.3237557
alexnet_w1_mlp_simclrhn_probe1,1,287,NaN,clock,keyboard,0.4,0287_hp_dnn_0.4_keyboard_10_n03085013_23519.png,n03085013_23519.png,0.0,-0.1022107,-0.016874842,-0.060341567
alexnet_w1_mlp_simclrhn_probe1,1,288,NaN,bottle,bottle,1.5,0288_hp_dnn_1.5_bottle_10_n04591713_14895.png,n04591713_14895.png,1.0,-0.73019993,-1.0903847,0.2546891
alexnet_w1_mlp_simclrhn_probe1,1,289,NaN,elephant,elephant,1,0289_hp_dnn_1_elephant_10_n02504013_3969.png,n02504013_3969.png,1.0,-0.97270954,-1.4695722,0.35133496
alexnet_w1_mlp_simclrhn_probe1,1,290,NaN,bicycle,bear,3,0290_hp_dnn_3_bear_10_n02134418_3723.png,n02134418_3723.png,0.0,-3.1608946,-0.9853768,-1.5383234
alexnet_w1_mlp_simclrhn_probe1,1,291,NaN,clock,keyboard,0.45,0291_hp_dnn_0.45_keyboard_10_n04505470_709.png,n04505470_709.png,0.0,-0.92730033,-0.39209476,-0.3784475
alexnet_w1_mlp_simclrhn_probe1,1,292,NaN,clock,knife,1.5,0292_hp_dnn_1.5_knife_10_n03041632_379.png,n03041632_379.png,0.0,-1.0635506,-0.49645793,-0.40099508
alexnet_w1_mlp_simclrhn_probe1,1,293,NaN,bicycle,oven,3,0293_hp_dnn_3_oven_10_n04111531_13128.png,n04111531_13128.png,0.0,-5.1886783,-1.5692818,-2.5592997
alexnet_w1_mlp_simclrhn_probe1,1,294,NaN,clock,elephant,0.55,0294_hp_dnn_0.55_elephant_10_n02504013_933.png,n02504013_933.png,0.0,-1.0869551,-0.8425315,-0.17283356
alexnet_w1_mlp_simclrhn_probe1,1,295,NaN,car,airplane,inf,0295_hp_dnn_inf_airplane_10_n02690373_17603.png,n02690373_17603.png,0.0,0.6056868,3.2376664,-1.8610905
alexnet_w1_mlp_simclrhn_probe1,1,296,NaN,airplane,airplane,0.45,0296_hp_dnn_0.45_airplane_10_n02690373_5177.png,n02690373_5177.png,1.0,0.15772898,-0.3297682,0.3447126
alexnet_w1_mlp_simclrhn_probe1,1,297,NaN,chair,chair,1.5,0297_hp_dnn_1.5_chair_10_n04429376_28121.png,n04429376_28121.png,1.0,-2.9261088,-3.3367994,0.29040208
alexnet_w1_mlp_simclrhn_probe1,1,298,NaN,keyboard,truck,0.55,0298_hp_dnn_0.55_truck_10_n03417042_6517.png,n03417042_6517.png,0.0,-2.4954724,-0.7506519,-1.2337745
alexnet_w1_mlp_simclrhn_probe1,1,299,NaN,clock,chair,0.55,0299_hp_dnn_0.55_chair_10_n03376595_5503.png,n03376595_5503.png,0.0,-0.31750453,-0.14375724,-0.12285788
alexnet_w1_mlp_simclrhn_probe1,1,300,NaN,clock,clock,1.5,0300_hp_dnn_1.5_clock_10_n03196217_7918.png,n03196217_7918.png,1.0,0.3301132,-0.3198943,0.4596247
alexnet_w1_mlp_simclrhn_probe1,1,301,NaN,car,car,1,0301_hp_dnn_1_car_10_n04285008_7751.png,n04285008_7751.png,1.0,1.9898766,0.4996296,1.0537637
alexnet_w1_mlp_simclrhn_probe1,1,302,NaN,clock,clock,0.4,0302_hp_dnn_0.4_clock_10_n03196217_2628.png,n03196217_2628.png,1.0,-0.31778875,-0.57430834,0.18138674
alexnet_w1_mlp_simclrhn_probe1,1,303,NaN,clock,bird,0.55,0303_hp_dnn_0.55_bird_10_n01833805_6395.png,n01833805_6395.png,0.0,-0.65948045,-0.39492473,-0.18706915
alexnet_w1_mlp_simclrhn_probe1,1,304,NaN,airplane,boat,0.4,0304_hp_dnn_0.4_boat_10_n03344393_6015.png,n03344393_6015.png,0.0,-0.40991583,-0.19081573,-0.15492716
alexnet_w1_mlp_simclrhn_probe1,1,305,NaN,bottle,elephant,1.5,0305_hp_dnn_1.5_elephant_10_n02504013_2739.png,n02504013_2739.png,0.0,-2.4288673,-1.7984799,-0.44575122
alexnet_w1_mlp_simclrhn_probe1,1,306,NaN,clock,keyboard,0.45,0306_hp_dnn_0.45_keyboard_10_n03085013_23316.png,n03085013_23316.png,0.0,-0.30231458,0.27256855,-0.40650374
alexnet_w1_mlp_simclrhn_probe1,1,307,NaN,airplane,airplane,1,0307_hp_dnn_1_airplane_10_n02690373_20350.png,n02690373_20350.png,1.0,1.1015757,-0.28261623,0.97877157
alexnet_w1_mlp_simclrhn_probe1,1,308,NaN,clock,clock,3,0308_hp_dnn_3_clock_10_n02708093_3484.png,n02708093_3484.png,1.0,4.0783305,-0.8053136,3.453258
alexnet_w1_mlp_simclrhn_probe1,1,309,NaN,clock,bicycle,0.55,0309_hp_dnn_0.55_bicycle_10_n03792782_10185.png,n03792782_10185.png,0.0,-1.5067551,-0.6856057,-0.5806403
alexnet_w1_mlp_simclrhn_probe1,1,310,NaN,oven,knife,3,0310_hp_dnn_3_knife_10_n03041632_42196.png,n03041632_42196.png,0.0,-0.689283,0.13395882,-0.5821199
alexnet_w1_mlp_simclrhn_probe1,1,311,NaN,bird,bird,inf,0311_hp_dnn_inf_bird_10_n01855672_6132.png,n01855672_6132.png,1.0,-0.31089735,-1.8464403,1.0857929
alexnet_w1_mlp_simclrhn_probe1,1,312,NaN,clock,bottle,0.4,0312_hp_dnn_0.4_bottle_10_n03983396_3047.png,n03983396_3047.png,0.0,-0.7607066,-0.32571945,-0.30758238
alexnet_w1_mlp_simclrhn_probe1,1,313,NaN,clock,bottle,0.4,0313_hp_dnn_0.4_bottle_10_n04557648_2093.png,n04557648_2093.png,0.0,-0.4068007,0.23310323,-0.4524804
alexnet_w1_mlp_simclrhn_probe1,1,314,NaN,keyboard,keyboard,0.55,0314_hp_dnn_0.55_keyboard_10_n04505470_7686.png,n04505470_7686.png,1.0,0.7560512,0.2137723,0.38344908
alexnet_w1_mlp_simclrhn_probe1,1,315,NaN,bird,bear,1.5,0315_hp_dnn_1.5_bear_10_n02132136_5051.png,n02132136_5051.png,0.0,-4.6307993,-0.97673595,-2.583813
alexnet_w1_mlp_simclrhn_probe1,1,316,NaN,elephant,bear,1,0316_hp_dnn_1_bear_10_n02134418_24559.png,n02134418_24559.png,0.0,-2.2390702,-1.4100755,-0.5861877
alexnet_w1_mlp_simclrhn_probe1,1,317,NaN,clock,oven,0.55,0317_hp_dnn_0.55_oven_10_n04111531_3702.png,n04111531_3702.png,0.0,-2.6745105,-0.31098112,-1.6712677
alexnet_w1_mlp_simclrhn_probe1,1,318,NaN,bicycle,bicycle,1,0318_hp_dnn_1_bicycle_10_n02835271_24230.png,n02835271_24230.png,1.0,-0.50236374,-1.3893049,0.6271621
alexnet_w1_mlp_simclrhn_probe1,1,319,NaN,keyboard,keyboard,1.5,0319_hp_dnn_1.5_keyboard_10_n03085013_2272.png,n03085013_2272.png,1.0,0.5126278,-0.7416923,0.8869383
alexnet_w1_mlp_simclrhn_probe1,1,320,NaN,clock,keyboard,0.55,0320_hp_dnn_0.55_keyboard_10_n03085013_23201.png,n03085013_23201.png,0.0,-0.7931485,0.06336177,-0.6056442
alexnet_w1_mlp_simclrhn_probe1,1,321,NaN,bicycle,boat,1.5,0321_hp_dnn_1.5_boat_10_n04273569_9803.png,n04273569_9803.png,0.0,-1.0142393,-0.58971876,-0.30018136
alexnet_w1_mlp_simclrhn_probe1,1,322,NaN,knife,boat,0.4,0322_hp_dnn_0.4_boat_10_n04612504_29813.png,n04612504_29813.png,0.0,-0.78394735,-0.41276902,-0.2624627
alexnet_w1_mlp_simclrhn_probe1,1,323,NaN,clock,clock,1,0323_hp_dnn_1_clock_10_n02708093_1291.png,n02708093_1291.png,1.0,2.0864503,-1.212473,2.3326912
alexnet_w1_mlp_simclrhn_probe1,1,324,NaN,clock,oven,0.4,0324_hp_dnn_0.4_oven_10_n04111531_1794.png,n04111531_1794.png,0.0,-1.4933856,0.046794932,-1.0890721
alexnet_w1_mlp_simclrhn_probe1,1,325,NaN,clock,bear,0.4,0325_hp_dnn_0.4_bear_10_n02132136_5612.png,n02132136_5612.png,0.0,-1.5812744,-0.48211694,-0.7772217
alexnet_w1_mlp_simclrhn_probe1,1,326,NaN,boat,boat,1.5,0326_hp_dnn_1.5_boat_10_n04273569_3401.png,n04273569_3401.png,1.0,0.6201749,-1.4331031,1.4518868
alexnet_w1_mlp_simclrhn_probe1,1,327,NaN,bicycle,cat,3,0327_hp_dnn_3_cat_10_n02125311_16544.png,n02125311_16544.png,0.0,-2.7931492,-1.054739,-1.2292417
alexnet_w1_mlp_simclrhn_probe1,1,328,NaN,keyboard,clock,1.5,0328_hp_dnn_1.5_clock_10_n03196217_10717.png,n03196217_10717.png,0.0,0.129058,0.2121407,-0.058748335
alexnet_w1_mlp_simclrhn_probe1,1,329,NaN,bicycle,bear,3,0329_hp_dnn_3_bear_10_n02134418_47.png,n02134418_47.png,0.0,-3.5705962,-1.2305098,-1.654691
alexnet_w1_mlp_simclrhn_probe1,1,330,NaN,keyboard,bottle,3,0330_hp_dnn_3_bottle_10_n04591713_4380.png,n04591713_4380.png,0.0,-2.221161,-0.061025202,-1.5274466
alexnet_w1_mlp_simclrhn_probe1,1,331,NaN,clock,chair,0.55,0331_hp_dnn_0.55_chair_10_n04429376_8710.png,n04429376_8710.png,0.0,-0.5985689,-0.3620614,-0.16723606
alexnet_w1_mlp_simclrhn_probe1,1,332,NaN,bicycle,bicycle,3,0332_hp_dnn_3_bicycle_10_n02835271_781.png,n02835271_781.png,1.0,7.1803393,-1.4586301,6.108674
alexnet_w1_mlp_simclrhn_probe1,1,333,NaN,cat,bear,1.5,0333_hp_dnn_1.5_bear_10_n02134418_875.png,n02134418_875.png,0.0,-1.5871093,-0.80472726,-0.55322766
alexnet_w1_mlp_simclrhn_probe1,1,334,NaN,clock,dog,0.55,0334_hp_dnn_0.55_dog_10_n02094433_10343.png,n02094433_10343.png,0.0,-1.8777375,-0.5850075,-0.9140982
alexnet_w1_mlp_simclrhn_probe1,1,335,NaN,airplane,airplane,3,0335_hp_dnn_3_airplane_10_n02690373_1053.png,n02690373_1053.png,1.0,4.3991733,1.3357714,2.1661522
alexnet_w1_mlp_simclrhn_probe1,1,336,NaN,airplane,airplane,3,0336_hp_dnn_3_airplane_10_n02690373_18848.png,n02690373_18848.png,1.0,4.8499064,-0.98511916,4.1259866
alexnet_w1_mlp_simclrhn_probe1,1,337,NaN,airplane,keyboard,3,0337_hp_dnn_3_keyboard_10_n03085013_18741.png,n03085013_18741.png,0.0,-0.9335604,-0.6529918,-0.19839196
alexnet_w1_mlp_simclrhn_probe1,1,338,NaN,bear,bear,inf,0338_hp_dnn_inf_bear_10_n02134418_3152.png,n02134418_3152.png,1.0,6.384179,3.2738361,2.1993446
alexnet_w1_mlp_simclrhn_probe1,1,339,NaN,bird,bicycle,1.5,0339_hp_dnn_1.5_bicycle_10_n03792782_14557.png,n03792782_14557.png,0.0,-3.1186333,-2.338327,-0.5517599
alexnet_w1_mlp_simclrhn_probe1,1,340,NaN,elephant,bird,0.7,0340_hp_dnn_0.7_bird_10_n01796340_5262.png,n01796340_5262.png,0.0,-1.6196201,-0.6817434,-0.663179
alexnet_w1_mlp_simclrhn_probe1,1,341,NaN,clock,bicycle,1,0341_hp_dnn_1_bicycle_10_n03792782_4559.png,n03792782_4559.png,0.0,-0.60945696,-0.19780736,-0.2910802
alexnet_w1_mlp_simclrhn_probe1,1,342,NaN,knife,bear,0.45,0342_hp_dnn_0.45_bear_10_n02134084_3177.png,n02134084_3177.png,0.0,-1.2078078,-0.54426026,-0.46919894
alexnet_w1_mlp_simclrhn_probe1,1,343,NaN,airplane,elephant,0.4,0343_hp_dnn_0.4_elephant_10_n02504458_5008.png,n02504458_5008.png,0.0,-0.8576088,-0.58802986,-0.1906211
alexnet_w1_mlp_simclrhn_probe1,1,344,NaN,oven,oven,3,0344_hp_dnn_3_oven_10_n04111531_7955.png,n04111531_7955.png,1.0,-0.7970817,-1.4945135,0.49315876
alexnet_w1_mlp_simclrhn_probe1,1,345,NaN,bicycle,bicycle,inf,0345_hp_dnn_inf_bicycle_10_n02835271_13793.png,n02835271_13793.png,1.0,-1.1454921,-3.7240531,1.823318
alexnet_w1_mlp_simclrhn_probe1,1,346,NaN,clock,keyboard,0.45,0346_hp_dnn_0.45_keyboard_10_n03085013_14810.png,n03085013_14810.png,0.0,-0.62110496,-0.044048548,-0.4080405
alexnet_w1_mlp_simclrhn_probe1,1,347,NaN,clock,car,0.7,0347_hp_dnn_0.7_car_10_n02814533_39933.png,n02814533_39933.png,0.0,-2.0891025,-0.2713572,-1.2853401
alexnet_w1_mlp_simclrhn_probe1,1,348,NaN,bird,bird,1,0348_hp_dnn_1_bird_10_n02027492_4897.png,n02027492_4897.png,1.0,0.49807698,-1.485692,1.4027365
alexnet_w1_mlp_simclrhn_probe1,1,349,NaN,bicycle,keyboard,3,0349_hp_dnn_3_keyboard_10_n03085013_23776.png,n03085013_23776.png,0.0,-1.6509132,0.20301433,-1.3109248
alexnet_w1_mlp_simclrhn_probe1,1,350,NaN,clock,car,1.5,0350_hp_dnn_1.5_car_10_n02814533_31493.png,n02814533_31493.png,0.0,0.26125133,0.72367173,-0.32698062
alexnet_w1_mlp_simclrhn_probe1,1,351,NaN,airplane,boat,1.5,0351_hp_dnn_1.5_boat_10_n03344393_7631.png,n03344393_7631.png,0.0,-0.89819634,-0.44568515,-0.31997374
alexnet_w1_mlp_simclrhn_probe1,1,352,NaN,clock,bicycle,0.4,0352_hp_dnn_0.4_bicycle_10_n02835271_1261.png,n02835271_1261.png,0.0,-0.9170926,-0.23273641,-0.48391291
alexnet_w1_mlp_simclrhn_probe1,1,353,NaN,clock,clock,1,0353_hp_dnn_1_clock_10_n03196217_1850.png,n03196217_1850.png,1.0,-0.11446589,-0.7936133,0.48022977
alexnet_w1_mlp_simclrhn_probe1,1,354,NaN,bear,bear,inf,0354_hp_dnn_inf_bear_10_n02132136_22387.png,n02132136_22387.png,1.0,2.5571098,0.82324934,1.2260245
alexnet_w1_mlp_simclrhn_probe1,1,355,NaN,airplane,airplane,1.5,0355_hp_dnn_1.5_airplane_10_n02690373_2316.png,n02690373_2316.png,1.0,1.8972434,-1.3969444,2.3293426
alexnet_w1_mlp_simclrhn_probe1,1,356,NaN,elephant,cat,0.7,0356_hp_dnn_0.7_cat_10_n02123597_3634.png,n02123597_3634.png,0.0,-1.042728,-0.698704,-0.24326167
alexnet_w1_mlp_simclrhn_probe1,1,357,NaN,knife,bird,0.45,0357_hp_dnn_0.45_bird_10_n02018207_4151.png,n02018207_4151.png,0.0,-0.76895905,-0.5204677,-0.17570992
alexnet_w1_mlp_simclrhn_probe1,1,358,NaN,clock,knife,0.7,0358_hp_dnn_0.7_knife_10_n03041632_94155.png,n03041632_94155.png,0.0,-1.6594841,-0.79319215,-0.612561
alexnet_w1_mlp_simclrhn_probe1,1,359,NaN,clock,bottle,0.45,0359_hp_dnn_0.45_bottle_10_n04560804_7509.png,n04560804_7509.png,0.0,-0.58979326,0.14997914,-0.5230981
alexnet_w1_mlp_simclrhn_probe1,1,360,NaN,clock,cat,0.4,0360_hp_dnn_0.4_cat_10_n02123045_12748.png,n02123045_12748.png,0.0,-0.8540887,-0.53822976,-0.22334601
alexnet_w1_mlp_simclrhn_probe1,1,361,NaN,clock,elephant,0.7,0361_hp_dnn_0.7_elephant_10_n02504013_6.png,n02504013_6.png,0.0,-1.1101027,-0.69481975,-0.29364938
alexnet_w1_mlp_simclrhn_probe1,1,362,NaN,clock,elephant,0.4,0362_hp_dnn_0.4_elephant_10_n02504013_1492.png,n02504013_1492.png,0.0,-1.2888795,-0.24857128,-0.735609
alexnet_w1_mlp_simclrhn_probe1,1,363,NaN,clock,dog,0.4,0363_hp_dnn_0.4_dog_10_n02107142_27162.png,n02107142_27162.png,0.0,-1.7370976,-0.8272517,-0.64335823
alexnet_w1_mlp_simclrhn_probe1,1,364,NaN,elephant,bear,0.7,0364_hp_dnn_0.7_bear_10_n02134418_962.png,n02134418_962.png,0.0,-0.95853686,-0.7003081,-0.18259533
alexnet_w1_mlp_simclrhn_probe1,1,365,NaN,clock,truck,0.7,0365_hp_dnn_0.7_truck_10_n03417042_9693.png,n03417042_9693.png,0.0,-0.37503812,0.46486363,-0.5939002
alexnet_w1_mlp_simclrhn_probe1,1,366,NaN,keyboard,oven,1,0366_hp_dnn_1_oven_10_n04111531_2116.png,n04111531_2116.png,0.0,-1.9086674,-0.97967994,-0.6568934
alexnet_w1_mlp_simclrhn_probe1,1,367,NaN,keyboard,keyboard,inf,0367_hp_dnn_inf_keyboard_10_n03085013_20460.png,n03085013_20460.png,1.0,1.894232,-0.15147725,1.446535
alexnet_w1_mlp_simclrhn_probe1,1,368,NaN,clock,bird,0.45,0368_hp_dnn_0.45_bird_10_n01796340_6191.png,n01796340_6191.png,0.0,-1.1315311,-0.8920576,-0.16933335
alexnet_w1_mlp_simclrhn_probe1,1,369,NaN,chair,oven,1.5,0369_hp_dnn_1.5_oven_10_n04111531_8046.png,n04111531_8046.png,0.0,-1.5168872,-0.8869816,-0.44541052
alexnet_w1_mlp_simclrhn_probe1,1,370,NaN,clock,boat,0.45,0370_hp_dnn_0.45_boat_10_n03344393_11788.png,n03344393_11788.png,0.0,-0.6494061,-0.25751153,-0.2771113
alexnet_w1_mlp_simclrhn_probe1,1,371,NaN,cat,cat,inf,0371_hp_dnn_inf_cat_10_n02123394_2765.png,n02123394_2765.png,1.0,3.6060305,-1.2466841,3.4313874
alexnet_w1_mlp_simclrhn_probe1,1,372,NaN,clock,bicycle,0.4,0372_hp_dnn_0.4_bicycle_10_n03792782_26834.png,n03792782_26834.png,0.0,-0.11071324,-0.017095387,-0.06619782
alexnet_w1_mlp_simclrhn_probe1,1,373,NaN,bird,cat,1.5,0373_hp_dnn_1.5_cat_10_n02125311_37036.png,n02125311_37036.png,0.0,-1.7143794,-1.4734404,-0.17036963
alexnet_w1_mlp_simclrhn_probe1,1,374,NaN,bicycle,bicycle,0.7,0374_hp_dnn_0.7_bicycle_10_n03792782_4067.png,n03792782_4067.png,1.0,-0.82582676,-0.9109607,0.060198765
alexnet_w1_mlp_simclrhn_probe1,1,375,NaN,elephant,bear,inf,0375_hp_dnn_inf_bear_10_n02134418_3886.png,n02134418_3886.png,0.0,3.3374314,4.118807,-0.55251586
alexnet_w1_mlp_simclrhn_probe1,1,376,NaN,clock,dog,0.7,0376_hp_dnn_0.7_dog_10_n02110185_9014.png,n02110185_9014.png,0.0,-3.4646907,0.3694398,-2.7111397
alexnet_w1_mlp_simclrhn_probe1,1,377,NaN,oven,bear,inf,0377_hp_dnn_inf_bear_10_n02134084_14888.png,n02134084_14888.png,0.0,-1.0032889,1.3363997,-1.6544096
alexnet_w1_mlp_simclrhn_probe1,1,378,NaN,clock,truck,1.5,0378_hp_dnn_1.5_truck_10_n03417042_5249.png,n03417042_5249.png,0.0,-3.31317,-0.6579849,-1.8774993
alexnet_w1_mlp_simclrhn_probe1,1,379,NaN,cat,oven,1,0379_hp_dnn_1_oven_10_n04111531_10711.png,n04111531_10711.png,0.0,-2.3323216,-1.1864377,-0.8102623
alexnet_w1_mlp_simclrhn_probe1,1,380,NaN,car,car,1.5,0380_hp_dnn_1.5_car_10_n04285008_15271.png,n04285008_15271.png,1.0,0.86591196,0.4421002,0.29968017
alexnet_w1_mlp_simclrhn_probe1,1,381,NaN,clock,cat,0.45,0381_hp_dnn_0.45_cat_10_n02123597_12232.png,n02123597_12232.png,0.0,-0.7894242,-0.54974777,-0.16947682
alexnet_w1_mlp_simclrhn_probe1,1,382,NaN,chair,clock,3,0382_hp_dnn_3_clock_10_n04548280_8083.png,n04548280_8083.png,0.0,-1.191594,-0.10433817,-0.768806
alexnet_w1_mlp_simclrhn_probe1,1,383,NaN,clock,chair,0.45,0383_hp_dnn_0.45_chair_10_n04099969_8946.png,n04099969_8946.png,0.0,-0.25775665,0.04652633,-0.21516058
alexnet_w1_mlp_simclrhn_probe1,1,384,NaN,airplane,keyboard,0.7,0384_hp_dnn_0.7_keyboard_10_n03085013_21973.png,n03085013_21973.png,0.0,-1.3037641,-0.018484473,-0.90883
alexnet_w1_mlp_simclrhn_probe1,1,385,NaN,clock,bottle,0.7,0385_hp_dnn_0.7_bottle_10_n04560804_15225.png,n04560804_15225.png,0.0,-1.2209857,-0.5428232,-0.47953328
alexnet_w1_mlp_simclrhn_probe1,1,386,NaN,cat,cat,inf,0386_hp_dnn_inf_cat_10_n02123045_10395.png,n02123045_10395.png,1.0,6.263062,-1.7472011,5.6641116
alexnet_w1_mlp_simclrhn_probe1,1,387,NaN,clock,truck,0.45,0387_hp_dnn_0.45_truck_10_n03417042_4188.png,n03417042_4188.png,0.0,-1.1621675,-0.11183697,-0.7426959
alexnet_w1_mlp_simclrhn_probe1,1,388,NaN,keyboard,keyboard,1.5,0388_hp_dnn_1.5_keyboard_10_n03085013_21615.png,n03085013_21615.png,1.0,5.281455,-1.3992815,4.7239943
alexnet_w1_mlp_simclrhn_probe1,1,389,NaN,knife,knife,inf,0389_hp_dnn_inf_knife_10_n03041632_26989.png,n03041632_26989.png,1.0,1.0538738,-1.3515142,1.7008661
alexnet_w1_mlp_simclrhn_probe1,1,390,NaN,airplane,airplane,0.55,0390_hp_dnn_0.55_airplane_10_n02690373_16986.png,n02690373_16986.png,1.0,0.80779046,-0.305397,0.7871424
alexnet_w1_mlp_simclrhn_probe1,1,391,NaN,bicycle,bicycle,inf,0391_hp_dnn_inf_bicycle_10_n02835271_9067.png,n02835271_9067.png,1.0,8.678582,-2.7437007,8.076774
alexnet_w1_mlp_simclrhn_probe1,1,392,NaN,cat,dog,0.45,0392_hp_dnn_0.45_dog_10_n02106382_9188.png,n02106382_9188.png,0.0,-2.083278,-0.92062646,-0.8221188
alexnet_w1_mlp_simclrhn_probe1,1,393,NaN,boat,boat,inf,0393_hp_dnn_inf_boat_10_n02951358_3205.png,n02951358_3205.png,1.0,3.570465,-1.2055029,3.3771195
alexnet_w1_mlp_simclrhn_probe1,1,394,NaN,clock,knife,0.4,0394_hp_dnn_0.4_knife_10_n03041632_45270.png,n03041632_45270.png,0.0,-0.9437423,-0.19918518,-0.5264814
alexnet_w1_mlp_simclrhn_probe1,1,395,NaN,car,car,inf,0395_hp_dnn_inf_car_10_n03100240_6376.png,n03100240_6376.png,1.0,3.455576,0.94441324,1.7756603
alexnet_w1_mlp_simclrhn_probe1,1,396,NaN,truck,truck,1,0396_hp_dnn_1_truck_10_n03796401_430.png,n03796401_430.png,1.0,1.389437,0.80639243,0.41227475
alexnet_w1_mlp_simclrhn_probe1,1,397,NaN,clock,knife,0.7,0397_hp_dnn_0.7_knife_10_n03041632_24181.png,n03041632_24181.png,0.0,-1.0683639,-0.7710611,-0.21022482
alexnet_w1_mlp_simclrhn_probe1,1,398,NaN,bird,bear,1,0398_hp_dnn_1_bear_10_n02134084_16190.png,n02134084_16190.png,0.0,-1.6701982,-0.8953399,-0.5479076
alexnet_w1_mlp_simclrhn_probe1,1,399,NaN,clock,bear,0.55,0399_hp_dnn_0.55_bear_10_n02132136_7253.png,n02132136_7253.png,0.0,-2.464537,-0.16014934,-1.629448
alexnet_w1_mlp_simclrhn_probe1,1,400,NaN,chair,boat,1,0400_hp_dnn_1_boat_10_n03662601_34676.png,n03662601_34676.png,0.0,-1.8744414,-0.92849565,-0.66888463
alexnet_w1_mlp_simclrhn_probe1,1,401,NaN,clock,knife,0.55,0401_hp_dnn_0.55_knife_10_n03041632_81471.png,n03041632_81471.png,0.0,-1.8392886,-0.52936363,-0.92625684
alexnet_w1_mlp_simclrhn_probe1,1,402,NaN,clock,cat,0.7,0402_hp_dnn_0.7_cat_10_n02123597_3822.png,n02123597_3822.png,0.0,-0.8826599,-0.11367313,-0.54375577
alexnet_w1_mlp_simclrhn_probe1,1,403,NaN,keyboard,keyboard,1.5,0403_hp_dnn_1.5_keyboard_10_n03085013_4823.png,n03085013_4823.png,1.0,1.3681772,-1.6706686,2.1487885
alexnet_w1_mlp_simclrhn_probe1,1,404,NaN,clock,dog,0.4,0404_hp_dnn_0.4_dog_10_n02108551_8385.png,n02108551_8385.png,0.0,-1.7240037,-0.5342535,-0.84128046
alexnet_w1_mlp_simclrhn_probe1,1,405,NaN,cat,cat,0.7,0405_hp_dnn_0.7_cat_10_n02124075_8732.png,n02124075_8732.png,1.0,-0.9145724,-1.1260351,0.1495267
alexnet_w1_mlp_simclrhn_probe1,1,406,NaN,bicycle,dog,3,0406_hp_dnn_3_dog_10_n02093428_17625.png,n02093428_17625.png,0.0,-5.745647,-0.94717896,-3.3930295
alexnet_w1_mlp_simclrhn_probe1,1,407,NaN,car,chair,inf,0407_hp_dnn_inf_chair_10_n02791124_6999.png,n02791124_6999.png,0.0,-1.7194699,2.1595047,-2.742849
alexnet_w1_mlp_simclrhn_probe1,1,408,NaN,bird,bird,3,0408_hp_dnn_3_bird_10_n02028035_521.png,n02028035_521.png,1.0,-0.29840276,-0.83728915,0.38105026
alexnet_w1_mlp_simclrhn_probe1,1,409,NaN,clock,truck,0.4,0409_hp_dnn_0.4_truck_10_n03417042_750.png,n03417042_750.png,0.0,-1.9526871,-0.37537464,-1.1153283
alexnet_w1_mlp_simclrhn_probe1,1,410,NaN,airplane,airplane,inf,0410_hp_dnn_inf_airplane_10_n02690373_5779.png,n02690373_5779.png,1.0,6.148809,1.7673275,3.098175
alexnet_w1_mlp_simclrhn_probe1,1,411,NaN,cat,cat,1.5,0411_hp_dnn_1.5_cat_10_n02123045_7154.png,n02123045_7154.png,1.0,-2.086864,-2.989374,0.6381709
alexnet_w1_mlp_simclrhn_probe1,1,412,NaN,bottle,bottle,1.5,0412_hp_dnn_1.5_bottle_10_n04591713_6958.png,n04591713_6958.png,1.0,1.2212652,-0.15171446,0.97084326
alexnet_w1_mlp_simclrhn_probe1,1,413,NaN,bird,bird,1.5,0413_hp_dnn_1.5_bird_10_n01818515_42621.png,n01818515_42621.png,1.0,-1.6239697,-1.6633868,0.027872132
alexnet_w1_mlp_simclrhn_probe1,1,414,NaN,truck,truck,inf,0414_hp_dnn_inf_truck_10_n03796401_1330.png,n03796401_1330.png,1.0,4.3787704,3.1513524,0.8679156
alexnet_w1_mlp_simclrhn_probe1,1,415,NaN,chair,bird,1.5,0415_hp_dnn_1.5_bird_10_n01843065_6365.png,n01843065_6365.png,0.0,-2.0875866,-1.4822909,-0.42800876
alexnet_w1_mlp_simclrhn_probe1,1,416,NaN,bottle,bottle,1.5,0416_hp_dnn_1.5_bottle_10_n03983396_11898.png,n03983396_11898.png,1.0,-1.3411418,-1.6623204,0.22710754
alexnet_w1_mlp_simclrhn_probe1,1,417,NaN,bird,bird,3,0417_hp_dnn_3_bird_10_n01530575_3831.png,n01530575_3831.png,1.0,-0.6573343,-2.5037103,1.305585
alexnet_w1_mlp_simclrhn_probe1,1,418,NaN,clock,bottle,0.4,0418_hp_dnn_0.4_bottle_10_n03983396_8837.png,n03983396_8837.png,0.0,-0.38490584,-0.113188915,-0.19213288
alexnet_w1_mlp_simclrhn_probe1,1,419,NaN,car,car,0.7,0419_hp_dnn_0.7_car_10_n02814533_90798.png,n02814533_90798.png,1.0,1.192991,0.8855532,0.21739139
alexnet_w1_mlp_simclrhn_probe1,1,420,NaN,bird,bird,3,0420_hp_dnn_3_bird_10_n01819313_3440.png,n01819313_3440.png,1.0,-0.22871028,-1.5486422,0.9333328
alexnet_w1_mlp_simclrhn_probe1,1,421,NaN,clock,dog,0.55,0421_hp_dnn_0.55_dog_10_n02090721_4433.png,n02090721_4433.png,0.0,-2.3555567,-1.0175713,-0.94609857
alexnet_w1_mlp_simclrhn_probe1,1,422,NaN,elephant,elephant,3,0422_hp_dnn_3_elephant_10_n02504013_9566.png,n02504013_9566.png,1.0,0.0021773651,-0.68610376,0.48668826
alexnet_w1_mlp_simclrhn_probe1,1,423,NaN,cat,dog,1.5,0423_hp_dnn_1.5_dog_10_n02105251_6599.png,n02105251_6599.png,0.0,-3.0979939,-1.5589495,-1.0882688
alexnet_w1_mlp_simclrhn_probe1,1,424,NaN,clock,chair,0.7,0424_hp_dnn_0.7_chair_10_n02791124_5759.png,n02791124_5759.png,0.0,-0.17506462,0.032192416,-0.14655286
alexnet_w1_mlp_simclrhn_probe1,1,425,NaN,elephant,elephant,inf,0425_hp_dnn_inf_elephant_10_n02504458_150.png,n02504458_150.png,1.0,2.5240102,-1.5178787,2.858047
alexnet_w1_mlp_simclrhn_probe1,1,426,NaN,clock,clock,0.45,0426_hp_dnn_0.45_clock_10_n04548280_10040.png,n04548280_10040.png,1.0,1.1278958,-0.4025901,1.082217
alexnet_w1_mlp_simclrhn_probe1,1,427,NaN,clock,elephant,0.7,0427_hp_dnn_0.7_elephant_10_n02504458_155.png,n02504458_155.png,0.0,-2.251698,-0.50701624,-1.2336764
alexnet_w1_mlp_simclrhn_probe1,1,428,NaN,clock,knife,1,0428_hp_dnn_1_knife_10_n03041632_48062.png,n03041632_48062.png,0.0,-0.3493905,-0.30326363,-0.032616626
alexnet_w1_mlp_simclrhn_probe1,1,429,NaN,airplane,truck,1.5,0429_hp_dnn_1.5_truck_10_n04467665_40361.png,n04467665_40361.png,0.0,-0.13499902,0.47413924,-0.43072578
alexnet_w1_mlp_simclrhn_probe1,1,430,NaN,clock,bird,0.45,0430_hp_dnn_0.45_bird_10_n01614925_7608.png,n01614925_7608.png,0.0,-0.714753,-0.5458422,-0.11943798
alexnet_w1_mlp_simclrhn_probe1,1,431,NaN,clock,bear,0.45,0431_hp_dnn_0.45_bear_10_n02133161_2749.png,n02133161_2749.png,0.0,-1.696492,-0.6567219,-0.73522854
alexnet_w1_mlp_simclrhn_probe1,1,432,NaN,boat,boat,0.55,0432_hp_dnn_0.55_boat_10_n04612504_654.png,n04612504_654.png,1.0,-0.5052018,-0.579969,0.052868374
alexnet_w1_mlp_simclrhn_probe1,1,433,NaN,bottle,bottle,1,0433_hp_dnn_1_bottle_10_n04579145_287.png,n04579145_287.png,1.0,1.5232012,0.78087527,0.5249037
alexnet_w1_mlp_simclrhn_probe1,1,434,NaN,bird,bear,3,0434_hp_dnn_3_bear_10_n02133161_1423.png,n02133161_1423.png,0.0,-3.4047503,-0.98952407,-1.7078229
alexnet_w1_mlp_simclrhn_probe1,1,435,NaN,bicycle,bicycle,0.7,0435_hp_dnn_0.7_bicycle_10_n02835271_4656.png,n02835271_4656.png,1.0,0.6292049,-0.35595587,0.6966139
alexnet_w1_mlp_simclrhn_probe1,1,436,NaN,clock,clock,0.7,0436_hp_dnn_0.7_clock_10_n02708093_3688.png,n02708093_3688.png,1.0,0.46131337,-0.4696176,0.6582676
alexnet_w1_mlp_simclrhn_probe1,1,437,NaN,airplane,airplane,inf,0437_hp_dnn_inf_airplane_10_n02690373_10278.png,n02690373_10278.png,1.0,1.9966748,0.4076826,1.1235871
alexnet_w1_mlp_simclrhn_probe1,1,438,NaN,clock,car,0.4,0438_hp_dnn_0.4_car_10_n04285008_11133.png,n04285008_11133.png,0.0,-1.7524723,-0.51644486,-0.8740034
alexnet_w1_mlp_simclrhn_probe1,1,439,NaN,knife,knife,1,0439_hp_dnn_1_knife_10_n03041632_4214.png,n03041632_4214.png,1.0,-0.46123368,-0.5552353,0.06646921
alexnet_w1_mlp_simclrhn_probe1,1,440,NaN,oven,oven,inf,0440_hp_dnn_inf_oven_10_n04111531_7741.png,n04111531_7741.png,1.0,-0.8377338,-1.4851519,0.4577937
alexnet_w1_mlp_simclrhn_probe1,1,441,NaN,bicycle,bicycle,3,0441_hp_dnn_3_bicycle_10_n03792782_4472.png,n03792782_4472.png,1.0,4.7045383,-3.12671,5.537529
alexnet_w1_mlp_simclrhn_probe1,1,442,NaN,cat,bird,0.7,0442_hp_dnn_0.7_bird_10_n01798484_18666.png,n01798484_18666.png,0.0,-1.9634622,-1.1788286,-0.55481976
alexnet_w1_mlp_simclrhn_probe1,1,443,NaN,keyboard,keyboard,1.5,0443_hp_dnn_1.5_keyboard_10_n04505470_5059.png,n04505470_5059.png,1.0,-0.35804406,-0.84875727,0.34698665
alexnet_w1_mlp_simclrhn_probe1,1,444,NaN,clock,elephant,0.55,0444_hp_dnn_0.55_elephant_10_n02504013_2369.png,n02504013_2369.png,0.0,-1.5123904,-0.53441346,-0.6915341
alexnet_w1_mlp_simclrhn_probe1,1,445,NaN,bicycle,bottle,3,0445_hp_dnn_3_bottle_10_n02823428_10796.png,n02823428_10796.png,0.0,-1.6244286,-1.1461452,-0.33819744
alexnet_w1_mlp_simclrhn_probe1,1,446,NaN,bicycle,oven,3,0446_hp_dnn_3_oven_10_n04111531_4421.png,n04111531_4421.png,0.0,-2.7833347,-1.4385579,-0.95090085
alexnet_w1_mlp_simclrhn_probe1,1,447,NaN,bicycle,bicycle,inf,0447_hp_dnn_inf_bicycle_10_n02835271_7303.png,n02835271_7303.png,1.0,10.067354,-1.515802,8.190529
alexnet_w1_mlp_simclrhn_probe1,1,448,NaN,chair,chair,inf,0448_hp_dnn_inf_chair_10_n02791124_7877.png,n02791124_7877.png,1.0,-1.1953648,-2.7281704,1.0838572
alexnet_w1_mlp_simclrhn_probe1,1,449,NaN,clock,bottle,1.5,0449_hp_dnn_1.5_bottle_10_n04560804_12099.png,n04560804_12099.png,0.0,-1.1432602,-0.28358877,-0.6078795
alexnet_w1_mlp_simclrhn_probe1,1,450,NaN,boat,boat,1,0450_hp_dnn_1_boat_10_n03662601_18924.png,n03662601_18924.png,1.0,0.28671765,0.010121942,0.1955827
alexnet_w1_mlp_simclrhn_probe1,1,451,NaN,clock,bottle,1,0451_hp_dnn_1_bottle_10_n04591713_4206.png,n04591713_4206.png,0.0,-0.5633679,-0.14850134,-0.29335496
alexnet_w1_mlp_simclrhn_probe1,1,452,NaN,clock,clock,0.55,0452_hp_dnn_0.55_clock_10_n04548280_6689.png,n04548280_6689.png,1.0,0.6470477,-0.6818687,0.93968576
alexnet_w1_mlp_simclrhn_probe1,1,453,NaN,knife,dog,0.4,0453_hp_dnn_0.4_dog_10_n02090721_5305.png,n02090721_5305.png,0.0,-1.6412854,-0.7592187,-0.6237154
alexnet_w1_mlp_simclrhn_probe1,1,454,NaN,airplane,clock,0.7,0454_hp_dnn_0.7_clock_10_n03196217_1746.png,n03196217_1746.png,0.0,-0.27018067,-0.20956221,-0.042863727
alexnet_w1_mlp_simclrhn_probe1,1,455,NaN,keyboard,keyboard,3,0455_hp_dnn_3_keyboard_10_n04505470_7721.png,n04505470_7721.png,1.0,2.156228,-0.49893954,1.8774871
alexnet_w1_mlp_simclrhn_probe1,1,456,NaN,clock,clock,0.55,0456_hp_dnn_0.55_clock_10_n04548280_3248.png,n04548280_3248.png,1.0,0.22635686,-0.5760103,0.56735927
alexnet_w1_mlp_simclrhn_probe1,1,457,NaN,bird,bird,inf,0457_hp_dnn_inf_bird_10_n01534433_28009.png,n01534433_28009.png,1.0,1.7191001,-2.8471913,3.2288556
alexnet_w1_mlp_simclrhn_probe1,1,458,NaN,clock,chair,0.4,0458_hp_dnn_0.4_chair_10_n04099969_142.png,n04099969_142.png,0.0,-0.6319742,-0.52092296,-0.0785251
alexnet_w1_mlp_simclrhn_probe1,1,459,NaN,bicycle,bicycle,0.55,0459_hp_dnn_0.55_bicycle_10_n03792782_7092.png,n03792782_7092.png,1.0,0.044858858,-0.037386674,0.05815637
alexnet_w1_mlp_simclrhn_probe1,1,460,NaN,clock,keyboard,0.45,0460_hp_dnn_0.45_keyboard_10_n03085013_25559.png,n03085013_25559.png,0.0,-0.95038164,-0.49516913,-0.32188386
alexnet_w1_mlp_simclrhn_probe1,1,461,NaN,elephant,elephant,0.7,0461_hp_dnn_0.7_elephant_10_n02504013_9144.png,n02504013_9144.png,1.0,-0.9112702,-0.976729,0.046286345
alexnet_w1_mlp_simclrhn_probe1,1,462,NaN,keyboard,clock,0.45,0462_hp_dnn_0.45_clock_10_n03196217_2003.png,n03196217_2003.png,0.0,0.06226309,0.12192845,-0.042189784
alexnet_w1_mlp_simclrhn_probe1,1,463,NaN,elephant,elephant,1,0463_hp_dnn_1_elephant_10_n02504013_3169.png,n02504013_3169.png,1.0,-0.56256443,-1.4567952,0.63231665
alexnet_w1_mlp_simclrhn_probe1,1,464,NaN,clock,dog,0.55,0464_hp_dnn_0.55_dog_10_n02089867_6424.png,n02089867_6424.png,0.0,-2.0367148,-0.7326894,-0.9220852
alexnet_w1_mlp_simclrhn_probe1,1,465,NaN,clock,keyboard,1,0465_hp_dnn_1_keyboard_10_n03085013_22494.png,n03085013_22494.png,0.0,-0.8731069,0.5437936,-1.0019
alexnet_w1_mlp_simclrhn_probe1,1,466,NaN,clock,dog,0.4,0466_hp_dnn_0.4_dog_10_n02106662_37555.png,n02106662_37555.png,0.0,-1.7552114,-0.627817,-0.7971883
alexnet_w1_mlp_simclrhn_probe1,1,467,NaN,clock,car,0.55,0467_hp_dnn_0.55_car_10_n02814533_4726.png,n02814533_4726.png,0.0,-0.5991163,0.03229027,-0.4464719
alexnet_w1_mlp_simclrhn_probe1,1,468,NaN,clock,elephant,0.45,0468_hp_dnn_0.45_elephant_10_n02504458_1473.png,n02504458_1473.png,0.0,-1.1180563,-0.41747633,-0.49538487
alexnet_w1_mlp_simclrhn_probe1,1,469,NaN,clock,bottle,0.55,0469_hp_dnn_0.55_bottle_10_n04557648_3350.png,n04557648_3350.png,0.0,-0.7627254,-0.34957257,-0.2921432
alexnet_w1_mlp_simclrhn_probe1,1,470,NaN,clock,knife,0.4,0470_hp_dnn_0.4_knife_10_n03041632_31909.png,n03041632_31909.png,0.0,-0.56794137,-0.01602588,-0.39026317
alexnet_w1_mlp_simclrhn_probe1,1,471,NaN,airplane,truck,0.4,0471_hp_dnn_0.4_truck_10_n04467665_70880.png,n04467665_70880.png,0.0,-1.8900938,-0.50589615,-0.9787756
alexnet_w1_mlp_simclrhn_probe1,1,472,NaN,clock,dog,0.45,0472_hp_dnn_0.45_dog_10_n02097209_7557.png,n02097209_7557.png,0.0,-2.0534184,-0.57754743,-1.0435984
alexnet_w1_mlp_simclrhn_probe1,1,473,NaN,clock,oven,1,0473_hp_dnn_1_oven_10_n04111531_4438.png,n04111531_4438.png,0.0,-1.477943,-0.51358,-0.6819076
alexnet_w1_mlp_simclrhn_probe1,1,474,NaN,airplane,airplane,0.7,0474_hp_dnn_0.7_airplane_10_n02690373_194.png,n02690373_194.png,1.0,0.6473353,-0.5966856,0.87965566
alexnet_w1_mlp_simclrhn_probe1,1,475,NaN,bicycle,bicycle,1.5,0475_hp_dnn_1.5_bicycle_10_n02835271_6953.png,n02835271_6953.png,1.0,1.1682589,-1.6650296,2.0034378
alexnet_w1_mlp_simclrhn_probe1,1,476,NaN,clock,oven,0.45,0476_hp_dnn_0.45_oven_10_n04111531_14435.png,n04111531_14435.png,0.0,-2.1294777,-0.28619692,-1.3033963
alexnet_w1_mlp_simclrhn_probe1,1,477,NaN,bicycle,elephant,1.5,0477_hp_dnn_1.5_elephant_10_n02504013_5192.png,n02504013_5192.png,0.0,-2.3320389,-0.5361867,-1.2698593
alexnet_w1_mlp_simclrhn_probe1,1,478,NaN,bicycle,chair,0.7,0478_hp_dnn_0.7_chair_10_n03376595_3566.png,n03376595_3566.png,0.0,-0.6062909,-0.22762811,-0.267755
alexnet_w1_mlp_simclrhn_probe1,1,479,NaN,bottle,truck,1,0479_hp_dnn_1_truck_10_n03417042_22709.png,n03417042_22709.png,0.0,-1.7552156,-0.6720547,-0.7659104
alexnet_w1_mlp_simclrhn_probe1,1,480,NaN,keyboard,keyboard,inf,0480_hp_dnn_inf_keyboard_10_n04505470_4603.png,n04505470_4603.png,1.0,7.366741,4.8484855,1.7806758
alexnet_w1_mlp_simclrhn_probe1,1,481,NaN,clock,car,0.55,0481_hp_dnn_0.55_car_10_n03100240_1794.png,n03100240_1794.png,0.0,-0.5204659,0.069735095,-0.41733515
alexnet_w1_mlp_simclrhn_probe1,1,482,NaN,elephant,elephant,0.7,0482_hp_dnn_0.7_elephant_10_n02504458_1233.png,n02504458_1233.png,1.0,-0.99152946,-1.3649698,0.26406223
alexnet_w1_mlp_simclrhn_probe1,1,483,NaN,airplane,airplane,0.45,0483_hp_dnn_0.45_airplane_10_n02690373_3047.png,n02690373_3047.png,1.0,-0.23348996,-0.33451188,0.07143328
alexnet_w1_mlp_simclrhn_probe1,1,484,NaN,elephant,elephant,0.55,0484_hp_dnn_0.55_elephant_10_n02504013_7422.png,n02504013_7422.png,1.0,-0.2635702,-0.5017151,0.1683939
alexnet_w1_mlp_simclrhn_probe1,1,485,NaN,clock,bicycle,0.45,0485_hp_dnn_0.45_bicycle_10_n03792782_16034.png,n03792782_16034.png,0.0,-0.87401557,-0.6646266,-0.14806037
alexnet_w1_mlp_simclrhn_probe1,1,486,NaN,bicycle,bicycle,3,0486_hp_dnn_3_bicycle_10_n02835271_11922.png,n02835271_11922.png,1.0,1.4150457,-1.0031468,1.7099203
alexnet_w1_mlp_simclrhn_probe1,1,487,NaN,clock,truck,0.7,0487_hp_dnn_0.7_truck_10_n03796401_6526.png,n03796401_6526.png,0.0,-1.4023927,0.08692307,-1.0531054
alexnet_w1_mlp_simclrhn_probe1,1,488,NaN,boat,boat,3,0488_hp_dnn_3_boat_10_n03662601_1834.png,n03662601_1834.png,1.0,1.0727391,-2.414413,2.4657888
alexnet_w1_mlp_simclrhn_probe1,1,489,NaN,bird,dog,0.7,0489_hp_dnn_0.7_dog_10_n02100236_619.png,n02100236_619.png,0.0,-2.730348,-1.0284616,-1.2034155
alexnet_w1_mlp_simclrhn_probe1,1,490,NaN,airplane,truck,0.45,0490_hp_dnn_0.45_truck_10_n04467665_21266.png,n04467665_21266.png,0.0,-1.613087,-0.3337744,-0.90461063
alexnet_w1_mlp_simclrhn_probe1,1,491,NaN,chair,chair,0.55,0491_hp_dnn_0.55_chair_10_n04099969_18220.png,n04099969_18220.png,1.0,-0.034511566,-0.1253018,0.06419839
alexnet_w1_mlp_simclrhn_probe1,1,492,NaN,keyboard,keyboard,1.5,0492_hp_dnn_1.5_keyboard_10_n03085013_4157.png,n03085013_4157.png,1.0,1.06688,0.29340163,0.5469318
alexnet_w1_mlp_simclrhn_probe1,1,493,NaN,clock,bicycle,0.4,0493_hp_dnn_0.4_bicycle_10_n03792782_1276.png,n03792782_1276.png,0.0,-1.507531,-0.58164114,-0.654703
alexnet_w1_mlp_simclrhn_probe1,1,494,NaN,boat,boat,3,0494_hp_dnn_3_boat_10_n03344393_1987.png,n03344393_1987.png,1.0,2.4848976,0.23964763,1.5876315
alexnet_w1_mlp_simclrhn_probe1,1,495,NaN,airplane,boat,0.45,0495_hp_dnn_0.45_boat_10_n03344393_381.png,n03344393_381.png,0.0,-0.5399771,0.41315156,-0.6739637
alexnet_w1_mlp_simclrhn_probe1,1,496,NaN,clock,clock,inf,0496_hp_dnn_inf_clock_10_n02708093_8390.png,n02708093_8390.png,1.0,1.6663295,1.4120686,0.1797896
alexnet_w1_mlp_simclrhn_probe1,1,497,NaN,keyboard,keyboard,0.55,0497_hp_dnn_0.55_keyboard_10_n04505470_1043.png,n04505470_1043.png,1.0,1.579787,-0.37195238,1.3800882
alexnet_w1_mlp_simclrhn_probe1,1,498,NaN,clock,dog,0.55,0498_hp_dnn_0.55_dog_10_n02100877_1902.png,n02100877_1902.png,0.0,-2.3844619,-0.8761161,-1.0665616
alexnet_w1_mlp_simclrhn_probe1,1,499,NaN,clock,knife,1.5,0499_hp_dnn_1.5_knife_10_n03041632_55083.png,n03041632_55083.png,0.0,-0.60466456,-0.0065564313,-0.4229263
alexnet_w1_mlp_simclrhn_probe1,1,500,NaN,chair,truck,1.5,0500_hp_dnn_1.5_truck_10_n04467665_45872.png,n04467665_45872.png,0.0,-2.4778676,-0.029746221,-1.7310832
alexnet_w1_mlp_simclrhn_probe1,1,501,NaN,knife,boat,0.7,0501_hp_dnn_0.7_boat_10_n04273569_3244.png,n04273569_3244.png,0.0,-2.3904474,-1.0897511,-0.91973114
alexnet_w1_mlp_simclrhn_probe1,1,502,NaN,clock,bear,0.45,0502_hp_dnn_0.45_bear_10_n02134418_2157.png,n02134418_2157.png,0.0,-1.2098848,-0.72719496,-0.34131324
alexnet_w1_mlp_simclrhn_probe1,1,503,NaN,bottle,bottle,3,0503_hp_dnn_3_bottle_10_n04591713_17618.png,n04591713_17618.png,1.0,-0.6644306,-1.2866087,0.43994635
alexnet_w1_mlp_simclrhn_probe1,1,504,NaN,clock,cat,1,0504_hp_dnn_1_cat_10_n02125311_8496.png,n02125311_8496.png,0.0,-1.8151523,-0.9990325,-0.5770838
alexnet_w1_mlp_simclrhn_probe1,1,505,NaN,car,car,inf,0505_hp_dnn_inf_car_10_n02814533_3560.png,n02814533_3560.png,1.0,16.767643,15.652168,0.78875977
alexnet_w1_mlp_simclrhn_probe1,1,506,NaN,clock,truck,0.7,0506_hp_dnn_0.7_truck_10_n03417042_751.png,n03417042_751.png,0.0,-1.3003719,-0.4274862,-0.6172234
alexnet_w1_mlp_simclrhn_probe1,1,507,NaN,chair,keyboard,inf,0507_hp_dnn_inf_keyboard_10_n03085013_23213.png,n03085013_23213.png,0.0,-1.5319438,-1.2703366,-0.1849842
alexnet_w1_mlp_simclrhn_probe1,1,508,NaN,clock,bicycle,0.4,0508_hp_dnn_0.4_bicycle_10_n03792782_19709.png,n03792782_19709.png,0.0,-1.7158993,-0.809465,-0.6409459
alexnet_w1_mlp_simclrhn_probe1,1,509,NaN,oven,oven,inf,0509_hp_dnn_inf_oven_10_n04111531_3076.png,n04111531_3076.png,1.0,3.2055862,0.5655406,1.8667942
alexnet_w1_mlp_simclrhn_probe1,1,510,NaN,knife,knife,0.4,0510_hp_dnn_0.4_knife_10_n03041632_14774.png,n03041632_14774.png,1.0,-0.38993365,-0.46762645,0.054937113
alexnet_w1_mlp_simclrhn_probe1,1,511,NaN,car,car,0.7,0511_hp_dnn_0.7_car_10_n03100240_7703.png,n03100240_7703.png,1.0,1.3681488,0.5920769,0.5487657
alexnet_w1_mlp_simclrhn_probe1,1,512,NaN,clock,bear,0.55,0512_hp_dnn_0.55_bear_10_n02134084_13434.png,n02134084_13434.png,0.0,-1.6190846,-0.8072665,-0.5740421
alexnet_w1_mlp_simclrhn_probe1,1,513,NaN,cat,dog,inf,0513_hp_dnn_inf_dog_10_n02111500_4280.png,n02111500_4280.png,0.0,0.19440955,0.5898795,-0.2796395
alexnet_w1_mlp_simclrhn_probe1,1,514,NaN,knife,bear,0.55,0514_hp_dnn_0.55_bear_10_n02132136_23853.png,n02132136_23853.png,0.0,-1.742831,-0.908199,-0.59017396
alexnet_w1_mlp_simclrhn_probe1,1,515,NaN,bicycle,bicycle,1.5,0515_hp_dnn_1.5_bicycle_10_n03792782_17193.png,n03792782_17193.png,1.0,-0.24593626,-1.6827238,1.0159622
alexnet_w1_mlp_simclrhn_probe1,1,516,NaN,bicycle,dog,1,0516_hp_dnn_1_dog_10_n02102177_5770.png,n02102177_5770.png,0.0,-1.9862878,-1.0585583,-0.65600383
alexnet_w1_mlp_simclrhn_probe1,1,517,NaN,elephant,bear,0.7,0517_hp_dnn_0.7_bear_10_n02132136_2279.png,n02132136_2279.png,0.0,-0.8063761,0.3201641,-0.7965842
alexnet_w1_mlp_simclrhn_probe1,1,518,NaN,bear,bear,inf,0518_hp_dnn_inf_bear_10_n02134084_6910.png,n02134084_6910.png,1.0,-1.0107754,-1.2061783,0.13817069
alexnet_w1_mlp_simclrhn_probe1,1,519,NaN,oven,oven,0.7,0519_hp_dnn_0.7_oven_10_n04111531_9041.png,n04111531_9041.png,1.0,0.42010468,-0.45256758,0.61707246
alexnet_w1_mlp_simclrhn_probe1,1,520,NaN,cat,cat,1,0520_hp_dnn_1_cat_10_n02123159_5424.png,n02123159_5424.png,1.0,-0.81833464,-1.0388814,0.15595013
alexnet_w1_mlp_simclrhn_probe1,1,521,NaN,clock,bicycle,0.45,0521_hp_dnn_0.45_bicycle_10_n02835271_672.png,n02835271_672.png,0.0,-1.5550414,-0.95056295,-0.42743084
alexnet_w1_mlp_simclrhn_probe1,1,522,NaN,airplane,airplane,0.45,0522_hp_dnn_0.45_airplane_10_n02690373_18111.png,n02690373_18111.png,1.0,0.008617282,-0.4931829,0.3548263
alexnet_w1_mlp_simclrhn_probe1,1,523,NaN,clock,clock,1,0523_hp_dnn_1_clock_10_n04548280_3013.png,n04548280_3013.png,1.0,2.6560407,-0.16068363,1.9917248
alexnet_w1_mlp_simclrhn_probe1,1,524,NaN,cat,dog,0.45,0524_hp_dnn_0.45_dog_10_n02094258_4142.png,n02094258_4142.png,0.0,-1.7522622,-0.72706145,-0.7249265
alexnet_w1_mlp_simclrhn_probe1,1,525,NaN,clock,clock,3,0525_hp_dnn_3_clock_10_n04548280_6919.png,n04548280_6919.png,1.0,5.4225426,-0.23207092,3.9984157
alexnet_w1_mlp_simclrhn_probe1,1,526,NaN,clock,cat,0.4,0526_hp_dnn_0.4_cat_10_n02124075_16814.png,n02124075_16814.png,0.0,-0.999643,-0.6408402,-0.25371194
alexnet_w1_mlp_simclrhn_probe1,1,527,NaN,clock,clock,1,0527_hp_dnn_1_clock_10_n04548280_3342.png,n04548280_3342.png,1.0,-0.2748692,-1.3655083,0.77119833
alexnet_w1_mlp_simclrhn_probe1,1,528,NaN,bicycle,boat,1,0528_hp_dnn_1_boat_10_n04612504_31680.png,n04612504_31680.png,0.0,-0.771495,-0.43895462,-0.23514155
alexnet_w1_mlp_simclrhn_probe1,1,529,NaN,keyboard,keyboard,inf,0529_hp_dnn_inf_keyboard_10_n03085013_7962.png,n03085013_7962.png,1.0,9.035281,0.60800004,5.9589877
alexnet_w1_mlp_simclrhn_probe1,1,530,NaN,bicycle,bicycle,3,0530_hp_dnn_3_bicycle_10_n02835271_949.png,n02835271_949.png,1.0,5.1437163,-0.28920713,3.841657
alexnet_w1_mlp_simclrhn_probe1,1,531,NaN,keyboard,keyboard,1,0531_hp_dnn_1_keyboard_10_n04505470_4228.png,n04505470_4228.png,1.0,-0.09834057,-0.4683625,0.26164502
alexnet_w1_mlp_simclrhn_probe1,1,532,NaN,knife,boat,0.7,0532_hp_dnn_0.7_boat_10_n03344393_3219.png,n03344393_3219.png,0.0,-1.5365623,-0.27429187,-0.89256
alexnet_w1_mlp_simclrhn_probe1,1,533,NaN,bicycle,elephant,3,0533_hp_dnn_3_elephant_10_n02504458_3399.png,n02504458_3399.png,0.0,-4.2664394,-1.1672857,-2.1914327
alexnet_w1_mlp_simclrhn_probe1,1,534,NaN,airplane,bird,0.55,0534_hp_dnn_0.55_bird_10_n01616318_12459.png,n01616318_12459.png,0.0,-0.7511722,-0.142474,-0.43041462
alexnet_w1_mlp_simclrhn_probe1,1,535,NaN,knife,elephant,0.4,0535_hp_dnn_0.4_elephant_10_n02504013_1846.png,n02504013_1846.png,0.0,-0.9834847,-0.7373877,-0.17401683
alexnet_w1_mlp_simclrhn_probe1,1,536,NaN,clock,bicycle,0.55,0536_hp_dnn_0.55_bicycle_10_n03792782_5097.png,n03792782_5097.png,0.0,-0.74772733,-0.64783734,-0.07063289
alexnet_w1_mlp_simclrhn_probe1,1,537,NaN,bicycle,bottle,3,0537_hp_dnn_3_bottle_10_n02823428_5115.png,n02823428_5115.png,0.0,-2.2682183,-0.4540856,-1.2827855
alexnet_w1_mlp_simclrhn_probe1,1,538,NaN,keyboard,keyboard,inf,0538_hp_dnn_inf_keyboard_10_n03085013_21282.png,n03085013_21282.png,1.0,3.3138149,3.1463113,0.11844293
alexnet_w1_mlp_simclrhn_probe1,1,539,NaN,clock,oven,0.4,0539_hp_dnn_0.4_oven_10_n04111531_1815.png,n04111531_1815.png,0.0,-1.2396691,-0.35672784,-0.62433374
alexnet_w1_mlp_simclrhn_probe1,1,540,NaN,clock,chair,1,0540_hp_dnn_1_chair_10_n02791124_5268.png,n02791124_5268.png,0.0,-0.96663475,-0.784185,-0.12901147
alexnet_w1_mlp_simclrhn_probe1,1,541,NaN,airplane,airplane,0.55,0541_hp_dnn_0.55_airplane_10_n02690373_3035.png,n02690373_3035.png,1.0,-0.18391764,-0.38318154,0.14090085
alexnet_w1_mlp_simclrhn_probe1,1,542,NaN,dog,dog,inf,0542_hp_dnn_inf_dog_10_n02107683_1460.png,n02107683_1460.png,1.0,1.5668803,-0.51145077,1.469602
alexnet_w1_mlp_simclrhn_probe1,1,543,NaN,bicycle,boat,inf,0543_hp_dnn_inf_boat_10_n02951358_31813.png,n02951358_31813.png,0.0,2.017092,2.4584675,-0.3120996
alexnet_w1_mlp_simclrhn_probe1,1,544,NaN,clock,bird,0.4,0544_hp_dnn_0.4_bird_10_n01797886_16808.png,n01797886_16808.png,0.0,-1.2803723,-0.89268494,-0.27413633
alexnet_w1_mlp_simclrhn_probe1,1,545,NaN,clock,elephant,0.45,0545_hp_dnn_0.45_elephant_10_n02504458_4767.png,n02504458_4767.png,0.0,-0.70747185,-0.44541824,-0.18529989
alexnet_w1_mlp_simclrhn_probe1,1,546,NaN,chair,knife,3,0546_hp_dnn_3_knife_10_n03041632_41493.png,n03041632_41493.png,0.0,-2.0301793,-0.53062475,-1.0603452
alexnet_w1_mlp_simclrhn_probe1,1,547,NaN,bicycle,elephant,3,0547_hp_dnn_3_elephant_10_n02504458_3329.png,n02504458_3329.png,0.0,-1.1453912,-0.44241518,-0.49707913
alexnet_w1_mlp_simclrhn_probe1,1,548,NaN,clock,cat,0.45,0548_hp_dnn_0.45_cat_10_n02124075_12467.png,n02124075_12467.png,0.0,-1.2918272,-0.35226044,-0.664374
alexnet_w1_mlp_simclrhn_probe1,1,549,NaN,clock,truck,0.7,0549_hp_dnn_0.7_truck_10_n03417042_6467.png,n03417042_6467.png,0.0,-1.5992819,-0.339155,-0.8910443
alexnet_w1_mlp_simclrhn_probe1,1,550,NaN,airplane,airplane,inf,0550_hp_dnn_inf_airplane_10_n02690373_734.png,n02690373_734.png,1.0,8.998556,-2.8889337,8.405725
alexnet_w1_mlp_simclrhn_probe1,1,551,NaN,clock,car,0.4,0551_hp_dnn_0.4_car_10_n02814533_85296.png,n02814533_85296.png,0.0,-1.8094743,-0.2950692,-1.0708462
alexnet_w1_mlp_simclrhn_probe1,1,552,NaN,clock,elephant,0.7,0552_hp_dnn_0.7_elephant_10_n02504013_18005.png,n02504013_18005.png,0.0,-1.4820092,-0.64576346,-0.59131503
alexnet_w1_mlp_simclrhn_probe1,1,553,NaN,clock,clock,0.45,0553_hp_dnn_0.45_clock_10_n02708093_1495.png,n02708093_1495.png,1.0,0.113203466,-0.7076406,0.5804244
alexnet_w1_mlp_simclrhn_probe1,1,554,NaN,clock,car,1.5,0554_hp_dnn_1.5_car_10_n04285008_3462.png,n04285008_3462.png,0.0,-0.11574037,0.21312554,-0.23254332
alexnet_w1_mlp_simclrhn_probe1,1,555,NaN,clock,truck,0.4,0555_hp_dnn_0.4_truck_10_n03417042_22297.png,n03417042_22297.png,0.0,-1.1152537,-0.0020375352,-0.7871627
alexnet_w1_mlp_simclrhn_probe1,1,556,NaN,bicycle,chair,3,0556_hp_dnn_3_chair_10_n04429376_7279.png,n04429376_7279.png,0.0,-1.136068,1.7817156,-2.0631847
alexnet_w1_mlp_simclrhn_probe1,1,557,NaN,bicycle,bicycle,3,0557_hp_dnn_3_bicycle_10_n02835271_6919.png,n02835271_6919.png,1.0,4.1925488,-0.9746736,3.653778
alexnet_w1_mlp_simclrhn_probe1,1,558,NaN,clock,oven,0.55,0558_hp_dnn_0.55_oven_10_n04111531_2260.png,n04111531_2260.png,0.0,-0.51481724,0.38877228,-0.63893425
alexnet_w1_mlp_simclrhn_probe1,1,559,NaN,clock,bear,0.7,0559_hp_dnn_0.7_bear_10_n02134084_5794.png,n02134084_5794.png,0.0,-2.036227,-0.7395237,-0.9169077
alexnet_w1_mlp_simclrhn_probe1,1,560,NaN,clock,airplane,0.7,0560_hp_dnn_0.7_airplane_10_n02690373_10397.png,n02690373_10397.png,0.0,-0.5829482,0.25108185,-0.5897483
alexnet_w1_mlp_simclrhn_probe1,1,561,NaN,knife,elephant,0.4,0561_hp_dnn_0.4_elephant_10_n02504458_2041.png,n02504458_2041.png,0.0,-1.3733408,-0.6447561,-0.51518726
alexnet_w1_mlp_simclrhn_probe1,1,562,NaN,chair,chair,1,0562_hp_dnn_1_chair_10_n04429376_7732.png,n04429376_7732.png,1.0,-0.21026583,-0.9378562,0.5144841
alexnet_w1_mlp_simclrhn_probe1,1,563,NaN,airplane,airplane,0.4,0563_hp_dnn_0.4_airplane_10_n02690373_4788.png,n02690373_4788.png,1.0,-0.026461087,-0.31966746,0.20732822
alexnet_w1_mlp_simclrhn_probe1,1,564,NaN,clock,dog,0.55,0564_hp_dnn_0.55_dog_10_n02097474_2799.png,n02097474_2799.png,0.0,-2.0470076,-0.29580972,-1.2382839
alexnet_w1_mlp_simclrhn_probe1,1,565,NaN,knife,bear,1.5,0565_hp_dnn_1.5_bear_10_n02134084_17849.png,n02134084_17849.png,0.0,-1.9851735,-0.99391305,-0.70092696
alexnet_w1_mlp_simclrhn_probe1,1,566,NaN,dog,dog,inf,0566_hp_dnn_inf_dog_10_n02086646_7064.png,n02086646_7064.png,1.0,1.8400596,-1.429662,2.3120422
alexnet_w1_mlp_simclrhn_probe1,1,567,NaN,clock,truck,0.55,0567_hp_dnn_0.55_truck_10_n03417042_7061.png,n03417042_7061.png,0.0,-0.7266038,0.41156706,-0.8048083
alexnet_w1_mlp_simclrhn_probe1,1,568,NaN,bicycle,bird,1,0568_hp_dnn_1_bird_10_n01820546_3605.png,n01820546_3605.png,0.0,-1.2666829,0.018698514,-0.9089019
alexnet_w1_mlp_simclrhn_probe1,1,569,NaN,clock,bear,0.4,0569_hp_dnn_0.4_bear_10_n02133161_2813.png,n02133161_2813.png,0.0,-2.4920826,-0.6254495,-1.319909
alexnet_w1_mlp_simclrhn_probe1,1,570,NaN,knife,bear,0.45,0570_hp_dnn_0.45_bear_10_n02132136_16636.png,n02132136_16636.png,0.0,-1.4803954,-0.6277608,-0.6029037
alexnet_w1_mlp_simclrhn_probe1,1,571,NaN,chair,oven,1.5,0571_hp_dnn_1.5_oven_10_n04111531_14959.png,n04111531_14959.png,0.0,-1.8551466,0.26418248,-1.4985921
alexnet_w1_mlp_simclrhn_probe1,1,572,NaN,clock,cat,0.45,0572_hp_dnn_0.45_cat_10_n02124075_5453.png,n02124075_5453.png,0.0,-0.8970352,-0.6528096,-0.17269355
alexnet_w1_mlp_simclrhn_probe1,1,573,NaN,cat,cat,1,0573_hp_dnn_1_cat_10_n02124075_11528.png,n02124075_11528.png,1.0,-1.7194782,-2.084448,0.25807267
alexnet_w1_mlp_simclrhn_probe1,1,574,NaN,cat,cat,1,0574_hp_dnn_1_cat_10_n02123159_3454.png,n02123159_3454.png,1.0,-1.3151157,-1.756057,0.3117926
alexnet_w1_mlp_simclrhn_probe1,1,575,NaN,knife,bird,0.45,0575_hp_dnn_0.45_bird_10_n02025239_2227.png,n02025239_2227.png,0.0,-0.849287,-0.69046843,-0.11230167
alexnet_w1_mlp_simclrhn_probe1,1,576,NaN,clock,chair,0.7,0576_hp_dnn_0.7_chair_10_n03376595_12256.png,n03376595_12256.png,0.0,-0.61403424,-0.504955,-0.077130675
alexnet_w1_mlp_simclrhn_probe1,1,577,NaN,clock,clock,1.5,0577_hp_dnn_1.5_clock_10_n02708093_6591.png,n02708093_6591.png,1.0,0.3287797,-1.47981,1.278866
alexnet_w1_mlp_simclrhn_probe1,1,578,NaN,clock,chair,0.55,0578_hp_dnn_0.55_chair_10_n04099969_34144.png,n04099969_34144.png,0.0,-0.3477034,-0.18883,-0.11234046
alexnet_w1_mlp_simclrhn_probe1,1,579,NaN,elephant,bear,0.55,0579_hp_dnn_0.55_bear_10_n02132136_3563.png,n02132136_3563.png,0.0,-1.635442,-0.5696075,-0.75365883
alexnet_w1_mlp_simclrhn_probe1,1,580,NaN,elephant,elephant,1,0580_hp_dnn_1_elephant_10_n02504013_6671.png,n02504013_6671.png,1.0,0.4708133,-1.3849818,1.3122452
alexnet_w1_mlp_simclrhn_probe1,1,581,NaN,clock,keyboard,0.7,0581_hp_dnn_0.7_keyboard_10_n03085013_22067.png,n03085013_22067.png,0.0,-0.5044875,-0.04413985,-0.32551494
alexnet_w1_mlp_simclrhn_probe1,1,582,NaN,truck,truck,inf,0582_hp_dnn_inf_truck_10_n03796401_1458.png,n03796401_1458.png,1.0,1.5140189,-3.1865444,3.3238003
alexnet_w1_mlp_simclrhn_probe1,1,583,NaN,clock,bottle,0.45,0583_hp_dnn_0.45_bottle_10_n04591713_807.png,n04591713_807.png,0.0,-0.9144424,-0.26473337,-0.45941368
alexnet_w1_mlp_simclrhn_probe1,1,584,NaN,clock,car,1,0584_hp_dnn_1_car_10_n02814533_22693.png,n02814533_22693.png,0.0,-2.8854425,-0.055357516,-2.0011723
alexnet_w1_mlp_simclrhn_probe1,1,585,NaN,clock,car,0.7,0585_hp_dnn_0.7_car_10_n02814533_5278.png,n02814533_5278.png,0.0,-1.2534051,0.0058626533,-0.8904368
alexnet_w1_mlp_simclrhn_probe1,1,586,NaN,airplane,boat,1.5,0586_hp_dnn_1.5_boat_10_n03662601_10240.png,n03662601_10240.png,0.0,-0.18187675,0.8285759,-0.7144979
alexnet_w1_mlp_simclrhn_probe1,1,587,NaN,airplane,airplane,inf,0587_hp_dnn_inf_airplane_10_n02690373_9673.png,n02690373_9673.png,1.0,4.8461227,-0.85204303,4.029212
alexnet_w1_mlp_simclrhn_probe1,1,588,NaN,bird,bird,0.7,0588_hp_dnn_0.7_bird_10_n02009229_6029.png,n02009229_6029.png,1.0,0.4984893,-0.80465114,0.92145944
alexnet_w1_mlp_simclrhn_probe1,1,589,NaN,clock,clock,0.4,0589_hp_dnn_0.4_clock_10_n02708093_2580.png,n02708093_2580.png,1.0,0.8264962,-0.53335714,0.9615615
alexnet_w1_mlp_simclrhn_probe1,1,590,NaN,clock,elephant,0.4,0590_hp_dnn_0.4_elephant_10_n02504013_295.png,n02504013_295.png,0.0,-1.248023,-0.51172,-0.5206449
alexnet_w1_mlp_simclrhn_probe1,1,591,NaN,clock,car,0.7,0591_hp_dnn_0.7_car_10_n04285008_9893.png,n04285008_9893.png,0.0,-0.24732073,0.43325305,-0.48123834
alexnet_w1_mlp_simclrhn_probe1,1,592,NaN,bicycle,chair,1.5,0592_hp_dnn_1.5_chair_10_n03376595_6850.png,n03376595_6850.png,0.0,-1.440002,-0.67963296,-0.5376621
alexnet_w1_mlp_simclrhn_probe1,1,593,NaN,car,boat,3,0593_hp_dnn_3_boat_10_n03662601_15713.png,n03662601_15713.png,0.0,0.26387444,0.66987437,-0.2870853
alexnet_w1_mlp_simclrhn_probe1,1,594,NaN,airplane,clock,0.4,0594_hp_dnn_0.4_clock_10_n04548280_9867.png,n04548280_9867.png,0.0,-0.5014004,-0.49415046,-0.00512649
alexnet_w1_mlp_simclrhn_probe1,1,595,NaN,airplane,airplane,1.5,0595_hp_dnn_1.5_airplane_10_n02690373_1450.png,n02690373_1450.png,1.0,1.3214917,0.1106683,0.85618144
alexnet_w1_mlp_simclrhn_probe1,1,596,NaN,knife,bicycle,0.45,0596_hp_dnn_0.45_bicycle_10_n03792782_7787.png,n03792782_7787.png,0.0,-1.3928351,-0.8118255,-0.41083586
alexnet_w1_mlp_simclrhn_probe1,1,597,NaN,clock,chair,0.45,0597_hp_dnn_0.45_chair_10_n04099969_1219.png,n04099969_1219.png,0.0,-0.34975332,-0.04759823,-0.2136559
alexnet_w1_mlp_simclrhn_probe1,1,598,NaN,keyboard,keyboard,0.55,0598_hp_dnn_0.55_keyboard_10_n03085013_8325.png,n03085013_8325.png,1.0,0.3807488,-0.2414195,0.43993944
alexnet_w1_mlp_simclrhn_probe1,1,599,NaN,chair,bicycle,0.55,0599_hp_dnn_0.55_bicycle_10_n02835271_14732.png,n02835271_14732.png,0.0,-0.96800256,-0.78435886,-0.1298557
alexnet_w1_mlp_simclrhn_probe1,1,600,NaN,airplane,airplane,1.5,0600_hp_dnn_1.5_airplane_10_n02690373_4176.png,n02690373_4176.png,1.0,1.6408241,-0.79669195,1.723584
alexnet_w1_mlp_simclrhn_probe1,1,601,NaN,elephant,bird,1,0601_hp_dnn_1_bird_10_n01534433_905.png,n01534433_905.png,0.0,-1.9045212,-1.2281319,-0.4782795
alexnet_w1_mlp_simclrhn_probe1,1,602,NaN,airplane,truck,1.5,0602_hp_dnn_1.5_truck_10_n04467665_45306.png,n04467665_45306.png,0.0,-1.6084951,0.3281209,-1.3693943
alexnet_w1_mlp_simclrhn_probe1,1,603,NaN,elephant,elephant,3,0603_hp_dnn_3_elephant_10_n02504458_1617.png,n02504458_1617.png,1.0,-1.1922463,-1.2253591,0.02341426
alexnet_w1_mlp_simclrhn_probe1,1,604,NaN,clock,oven,0.45,0604_hp_dnn_0.45_oven_10_n04111531_4148.png,n04111531_4148.png,0.0,-1.6312636,-0.3692199,-0.89239967
alexnet_w1_mlp_simclrhn_probe1,1,605,NaN,clock,bird,0.55,0605_hp_dnn_0.55_bird_10_n02009912_91.png,n02009912_91.png,0.0,-1.4824228,-0.94787544,-0.37798208
alexnet_w1_mlp_simclrhn_probe1,1,606,NaN,airplane,knife,3,0606_hp_dnn_3_knife_10_n03041632_33739.png,n03041632_33739.png,0.0,-0.36622256,-0.1057238,-0.18420045
alexnet_w1_mlp_simclrhn_probe1,1,607,NaN,airplane,airplane,1,0607_hp_dnn_1_airplane_10_n02690373_9318.png,n02690373_9318.png,1.0,2.9752674,-0.66963273,2.5773337
alexnet_w1_mlp_simclrhn_probe1,1,608,NaN,clock,bird,0.4,0608_hp_dnn_0.4_bird_10_n01828970_8669.png,n01828970_8669.png,0.0,-1.1097698,-0.20481479,-0.63989985
alexnet_w1_mlp_simclrhn_probe1,1,609,NaN,chair,truck,1.5,0609_hp_dnn_1.5_truck_10_n04467665_58762.png,n04467665_58762.png,0.0,-1.3205141,-0.13274404,-0.8398802
alexnet_w1_mlp_simclrhn_probe1,1,610,NaN,car,car,3,0610_hp_dnn_3_car_10_n03100240_11417.png,n03100240_11417.png,1.0,3.750209,1.2796284,1.7469643
alexnet_w1_mlp_simclrhn_probe1,1,611,NaN,bicycle,bicycle,inf,0611_hp_dnn_inf_bicycle_10_n03792782_16179.png,n03792782_16179.png,1.0,4.265139,-3.2904658,5.3426194
alexnet_w1_mlp_simclrhn_probe1,1,612,NaN,clock,car,1,0612_hp_dnn_1_car_10_n04285008_8444.png,n04285008_8444.png,0.0,-0.1738262,0.26612768,-0.31109437
alexnet_w1_mlp_simclrhn_probe1,1,613,NaN,chair,chair,inf,0613_hp_dnn_inf_chair_10_n02791124_3240.png,n02791124_3240.png,1.0,0.1554527,-1.324995,1.0468347
alexnet_w1_mlp_simclrhn_probe1,1,614,NaN,bicycle,bicycle,0.7,0614_hp_dnn_0.7_bicycle_10_n02835271_1035.png,n02835271_1035.png,1.0,-0.6026726,-0.9677748,0.25816625
alexnet_w1_mlp_simclrhn_probe1,1,615,NaN,bicycle,bicycle,0.55,0615_hp_dnn_0.55_bicycle_10_n02835271_6167.png,n02835271_6167.png,1.0,-0.36378086,-0.4260838,0.044054836
alexnet_w1_mlp_simclrhn_probe1,1,616,NaN,keyboard,bottle,3,0616_hp_dnn_3_bottle_10_n02823428_6830.png,n02823428_6830.png,0.0,0.12514392,2.095791,-1.393458
alexnet_w1_mlp_simclrhn_probe1,1,617,NaN,knife,knife,0.45,0617_hp_dnn_0.45_knife_10_n03041632_17349.png,n03041632_17349.png,1.0,-0.1548751,-0.26348266,0.07679714
alexnet_w1_mlp_simclrhn_probe1,1,618,NaN,airplane,airplane,inf,0618_hp_dnn_inf_airplane_10_n02690373_2024.png,n02690373_2024.png,1.0,6.0043774,1.9313399,2.8800726
alexnet_w1_mlp_simclrhn_probe1,1,619,NaN,clock,bottle,1,0619_hp_dnn_1_bottle_10_n02823428_8034.png,n02823428_8034.png,0.0,-2.4197845,-0.34618345,-1.4662573
alexnet_w1_mlp_simclrhn_probe1,1,620,NaN,chair,chair,1,0620_hp_dnn_1_chair_10_n02791124_6786.png,n02791124_6786.png,1.0,0.0006766841,-0.63279694,0.44793352
alexnet_w1_mlp_simclrhn_probe1,1,621,NaN,knife,chair,0.45,0621_hp_dnn_0.45_chair_10_n03376595_10689.png,n03376595_10689.png,0.0,-0.35782728,-0.21977386,-0.09761851
alexnet_w1_mlp_simclrhn_probe1,1,622,NaN,clock,knife,0.4,0622_hp_dnn_0.4_knife_10_n03041632_22734.png,n03041632_22734.png,0.0,-0.9644315,-0.19237535,-0.54592615
alexnet_w1_mlp_simclrhn_probe1,1,623,NaN,knife,oven,0.4,0623_hp_dnn_0.4_oven_10_n04111531_10521.png,n04111531_10521.png,0.0,-1.4131666,-0.45830482,-0.67518926
alexnet_w1_mlp_simclrhn_probe1,1,624,NaN,bird,bird,inf,0624_hp_dnn_inf_bird_10_n02007558_37147.png,n02007558_37147.png,1.0,-1.6501112,-2.5626507,0.64526284
alexnet_w1_mlp_simclrhn_probe1,1,625,NaN,chair,oven,3,0625_hp_dnn_3_oven_10_n04111531_14753.png,n04111531_14753.png,0.0,-2.26404,0.3653398,-1.8592523
alexnet_w1_mlp_simclrhn_probe1,1,626,NaN,clock,bottle,0.7,0626_hp_dnn_0.7_bottle_10_n03983396_4990.png,n03983396_4990.png,0.0,-1.9262326,-0.9243334,-0.7084498
alexnet_w1_mlp_simclrhn_probe1,1,627,NaN,clock,cat,0.45,0627_hp_dnn_0.45_cat_10_n02125311_25104.png,n02125311_25104.png,0.0,-0.7719345,-0.70178825,-0.0496009
alexnet_w1_mlp_simclrhn_probe1,1,628,NaN,clock,truck,0.55,0628_hp_dnn_0.55_truck_10_n03417042_5600.png,n03417042_5600.png,0.0,-0.33829692,0.21831386,-0.39358324
