subj,session,trial,rt,object_response,category,condition,imagename,filename,is_correct,targ_act,max_nontarg_act,decision_margin
alexnet_w1_mlp_simclrhn_probe1,1,1,NaN,airplane,boat,0.7,0001_hp_dnn_0.7_boat_10_n03662601_12531.png,n03662601_12531.png,0.0,-0.87300074,-0.55869144,-0.22225024
alexnet_w1_mlp_simclrhn_probe1,1,2,NaN,chair,chair,0.7,0002_hp_dnn_0.7_chair_10_n04429376_22819.png,n04429376_22819.png,1.0,-0.43257797,-0.47893897,0.03278218
alexnet_w1_mlp_simclrhn_probe1,1,3,NaN,clock,elephant,0.45,0003_hp_dnn_0.45_elephant_10_n02504458_582.png,n02504458_582.png,0.0,-0.705167,-0.108408295,-0.42197216
alexnet_w1_mlp_simclrhn_probe1,1,4,NaN,clock,bicycle,0.7,0004_hp_dnn_0.7_bicycle_10_n03792782_41173.png,n03792782_41173.png,0.0,-1.3608311,-0.73052853,-0.44569126
alexnet_w1_mlp_simclrhn_probe1,1,5,NaN,clock,cat,1.5,0005_hp_dnn_1.5_cat_10_n02123597_7071.png,n02123597_7071.png,0.0,-2.1109786,-0.8661158,-0.88025093
alexnet_w1_mlp_simclrhn_probe1,1,6,NaN,clock,cat,0.4,0006_hp_dnn_0.4_cat_10_n02123394_2386.png,n02123394_2386.png,0.0,-0.8549537,-0.6215048,-0.16507332
alexnet_w1_mlp_simclrhn_probe1,1,7,NaN,oven,oven,inf,0007_hp_dnn_inf_oven_10_n04111531_2201.png,n04111531_2201.png,1.0,-0.059368253,-0.67349,0.43424964
alexnet_w1_mlp_simclrhn_probe1,1,8,NaN,clock,cat,0.45,0008_hp_dnn_0.45_cat_10_n02125311_43276.png,n02125311_43276.png,0.0,-0.87033796,-0.5608364,-0.21885067
alexnet_w1_mlp_simclrhn_probe1,1,9,NaN,clock,dog,0.45,0009_hp_dnn_0.45_dog_10_n02111500_2439.png,n02111500_2439.png,0.0,-1.811287,-0.32861808,-1.0484053
alexnet_w1_mlp_simclrhn_probe1,1,10,NaN,clock,bicycle,0.4,0010_hp_dnn_0.4_bicycle_10_n02835271_12599.png,n02835271_12599.png,0.0,-0.57384807,-0.3779883,-0.13849376
alexnet_w1_mlp_simclrhn_probe1,1,11,NaN,clock,dog,0.45,0011_hp_dnn_0.45_dog_10_n02096585_391.png,n02096585_391.png,0.0,-1.7432346,-0.4937165,-0.8835428
alexnet_w1_mlp_simclrhn_probe1,1,12,NaN,clock,car,0.7,0012_hp_dnn_0.7_car_10_n04285008_12138.png,n04285008_12138.png,0.0,-0.81354123,0.29770443,-0.78576934
alexnet_w1_mlp_simclrhn_probe1,1,13,NaN,clock,car,0.7,0013_hp_dnn_0.7_car_10_n02814533_44083.png,n02814533_44083.png,0.0,-2.2908134,0.31594422,-1.843256
alexnet_w1_mlp_simclrhn_probe1,1,14,NaN,oven,oven,inf,0014_hp_dnn_inf_oven_10_n04111531_2447.png,n04111531_2447.png,1.0,4.9906216,-3.5269501,6.022833
alexnet_w1_mlp_simclrhn_probe1,1,15,NaN,clock,chair,0.55,0015_hp_dnn_0.55_chair_10_n03376595_9524.png,n03376595_9524.png,0.0,-1.6730213,-0.37472305,-0.9180355
alexnet_w1_mlp_simclrhn_probe1,1,16,NaN,clock,elephant,0.55,0016_hp_dnn_0.55_elephant_10_n02504458_3092.png,n02504458_3092.png,0.0,-1.9843246,-0.032755554,-1.3799678
alexnet_w1_mlp_simclrhn_probe1,1,17,NaN,clock,truck,0.4,0017_hp_dnn_0.4_truck_10_n04467665_42126.png,n04467665_42126.png,0.0,-1.073241,-0.16820152,-0.6399596
alexnet_w1_mlp_simclrhn_probe1,1,18,NaN,elephant,elephant,inf,0018_hp_dnn_inf_elephant_10_n02504458_12303.png,n02504458_12303.png,1.0,7.7568374,2.3548737,3.8197653
alexnet_w1_mlp_simclrhn_probe1,1,19,NaN,clock,clock,0.4,0019_hp_dnn_0.4_clock_10_n04548280_7243.png,n04548280_7243.png,1.0,1.0272844,-0.5975152,1.1489068
alexnet_w1_mlp_simclrhn_probe1,1,20,NaN,clock,airplane,0.4,0020_hp_dnn_0.4_airplane_10_n02690373_6978.png,n02690373_6978.png,0.0,-0.21118256,-0.004306724,-0.14628331
alexnet_w1_mlp_simclrhn_probe1,1,21,NaN,boat,boat,3,0021_hp_dnn_3_boat_10_n04612504_4773.png,n04612504_4773.png,1.0,0.22896531,-0.3981163,0.44341367
alexnet_w1_mlp_simclrhn_probe1,1,22,NaN,bottle,bottle,inf,0022_hp_dnn_inf_bottle_10_n04560804_5979.png,n04560804_5979.png,1.0,-3.1773686,-4.1188016,0.66569364
alexnet_w1_mlp_simclrhn_probe1,1,23,NaN,airplane,airplane,3,0023_hp_dnn_3_airplane_10_n02690373_21922.png,n02690373_21922.png,1.0,2.9784908,0.24688737,1.9315354
alexnet_w1_mlp_simclrhn_probe1,1,24,NaN,clock,bird,0.4,0024_hp_dnn_0.4_bird_10_n01820546_6431.png,n01820546_6431.png,0.0,-0.7938922,-0.49828383,-0.2090267
alexnet_w1_mlp_simclrhn_probe1,1,25,NaN,bird,bird,inf,0025_hp_dnn_inf_bird_10_n01795545_9555.png,n01795545_9555.png,1.0,-0.37767947,-2.9196372,1.7974356
alexnet_w1_mlp_simclrhn_probe1,1,26,NaN,airplane,truck,3,0026_hp_dnn_3_truck_10_n04467665_45796.png,n04467665_45796.png,0.0,-0.19944786,1.3215079,-1.0754782
alexnet_w1_mlp_simclrhn_probe1,1,27,NaN,clock,oven,1,0027_hp_dnn_1_oven_10_n04111531_5906.png,n04111531_5906.png,0.0,-3.1519647,-0.3031659,-2.014405
alexnet_w1_mlp_simclrhn_probe1,1,28,NaN,clock,bicycle,0.45,0028_hp_dnn_0.45_bicycle_10_n03792782_6133.png,n03792782_6133.png,0.0,-1.1583477,-0.34839928,-0.57272005
alexnet_w1_mlp_simclrhn_probe1,1,29,NaN,keyboard,keyboard,1,0029_hp_dnn_1_keyboard_10_n04505470_4741.png,n04505470_4741.png,1.0,1.6530519,-0.40212777,1.4532315
alexnet_w1_mlp_simclrhn_probe1,1,30,NaN,car,car,1.5,0030_hp_dnn_1.5_car_10_n02814533_5085.png,n02814533_5085.png,1.0,0.65023124,-0.7318671,0.9772911
alexnet_w1_mlp_simclrhn_probe1,1,31,NaN,clock,chair,0.4,0031_hp_dnn_0.4_chair_10_n04429376_10628.png,n04429376_10628.png,0.0,-0.6854956,-0.15117793,-0.37781966
alexnet_w1_mlp_simclrhn_probe1,1,32,NaN,clock,clock,0.55,0032_hp_dnn_0.55_clock_10_n02708093_5311.png,n02708093_5311.png,1.0,0.5095782,-0.86995053,0.9754742
alexnet_w1_mlp_simclrhn_probe1,1,33,NaN,clock,chair,0.55,0033_hp_dnn_0.55_chair_10_n03376595_10460.png,n03376595_10460.png,0.0,-0.6450949,-0.30227485,-0.24241036
alexnet_w1_mlp_simclrhn_probe1,1,34,NaN,cat,bear,3,0034_hp_dnn_3_bear_10_n02133161_1118.png,n02133161_1118.png,0.0,-2.8668547,-1.3252133,-1.090105
alexnet_w1_mlp_simclrhn_probe1,1,35,NaN,knife,knife,3,0035_hp_dnn_3_knife_10_n03041632_11603.png,n03041632_11603.png,1.0,-0.5438597,-1.3069528,0.53958833
alexnet_w1_mlp_simclrhn_probe1,1,36,NaN,clock,dog,0.4,0036_hp_dnn_0.4_dog_10_n02108422_7493.png,n02108422_7493.png,0.0,-1.5187321,-0.44207528,-0.76131135
alexnet_w1_mlp_simclrhn_probe1,1,37,NaN,keyboard,keyboard,3,0037_hp_dnn_3_keyboard_10_n04505470_550.png,n04505470_550.png,1.0,0.5973936,-1.2955842,1.3385375
alexnet_w1_mlp_simclrhn_probe1,1,38,NaN,clock,dog,1.5,0038_hp_dnn_1.5_dog_10_n02097047_1003.png,n02097047_1003.png,0.0,-3.977598,-1.7392111,-1.5827786
alexnet_w1_mlp_simclrhn_probe1,1,39,NaN,bird,bird,1.5,0039_hp_dnn_1.5_bird_10_n01616318_9819.png,n01616318_9819.png,1.0,-1.05936,-3.5186348,1.7389699
alexnet_w1_mlp_simclrhn_probe1,1,40,NaN,clock,cat,0.55,0040_hp_dnn_0.55_cat_10_n02123597_1016.png,n02123597_1016.png,0.0,-0.62300384,-0.5867359,-0.025645304
alexnet_w1_mlp_simclrhn_probe1,1,41,NaN,cat,bear,1,0041_hp_dnn_1_bear_10_n02134418_971.png,n02134418_971.png,0.0,-2.5720644,-1.0351223,-1.0867822
alexnet_w1_mlp_simclrhn_probe1,1,42,NaN,clock,bear,0.7,0042_hp_dnn_0.7_bear_10_n02132136_10944.png,n02132136_10944.png,0.0,-3.554034,-1.363388,-1.5490208
alexnet_w1_mlp_simclrhn_probe1,1,43,NaN,clock,elephant,1,0043_hp_dnn_1_elephant_10_n02504458_4439.png,n02504458_4439.png,0.0,-2.2356763,-0.9215992,-0.9291929
alexnet_w1_mlp_simclrhn_probe1,1,44,NaN,keyboard,keyboard,0.4,0044_hp_dnn_0.4_keyboard_10_n03085013_2362.png,n03085013_2362.png,1.0,0.5982,-0.1430598,0.52414984
alexnet_w1_mlp_simclrhn_probe1,1,45,NaN,clock,dog,1.5,0045_hp_dnn_1.5_dog_10_n02097474_9488.png,n02097474_9488.png,0.0,-2.6232703,-0.89238787,-1.2239187
alexnet_w1_mlp_simclrhn_probe1,1,46,NaN,clock,clock,inf,0046_hp_dnn_inf_clock_10_n04548280_3308.png,n04548280_3308.png,1.0,8.635656,-2.393429,7.798741
alexnet_w1_mlp_simclrhn_probe1,1,47,NaN,clock,bear,1.5,0047_hp_dnn_1.5_bear_10_n02133161_334.png,n02133161_334.png,0.0,-2.5637174,-0.9546216,-1.1378026
alexnet_w1_mlp_simclrhn_probe1,1,48,NaN,clock,knife,0.45,0048_hp_dnn_0.45_knife_10_n03041632_6708.png,n03041632_6708.png,0.0,-1.4006232,0.22487664,-1.149402
alexnet_w1_mlp_simclrhn_probe1,1,49,NaN,clock,car,0.55,0049_hp_dnn_0.55_car_10_n02814533_81092.png,n02814533_81092.png,0.0,-1.5703329,0.35718358,-1.36296
alexnet_w1_mlp_simclrhn_probe1,1,50,NaN,bottle,bottle,0.45,0050_hp_dnn_0.45_bottle_10_n03937543_11897.png,n03937543_11897.png,1.0,0.03340865,0.016789116,0.011751785
alexnet_w1_mlp_simclrhn_probe1,1,51,NaN,clock,airplane,3,0051_hp_dnn_3_airplane_10_n02690373_4429.png,n02690373_4429.png,0.0,0.584386,1.3749495,-0.5590128
alexnet_w1_mlp_simclrhn_probe1,1,52,NaN,clock,knife,0.4,0052_hp_dnn_0.4_knife_10_n03041632_22964.png,n03041632_22964.png,0.0,-0.68947136,-0.14224404,-0.38694817
alexnet_w1_mlp_simclrhn_probe1,1,53,NaN,knife,knife,1.5,0053_hp_dnn_1.5_knife_10_n03041632_33075.png,n03041632_33075.png,1.0,-0.24744454,-0.5236727,0.19532281
alexnet_w1_mlp_simclrhn_probe1,1,54,NaN,clock,bird,0.7,0054_hp_dnn_0.7_bird_10_n02006656_1412.png,n02006656_1412.png,0.0,-1.0059043,-0.6896677,-0.22361305
alexnet_w1_mlp_simclrhn_probe1,1,55,NaN,clock,clock,1,0055_hp_dnn_1_clock_10_n02708093_3173.png,n02708093_3173.png,1.0,7.839763,-2.0034668,6.960215
alexnet_w1_mlp_simclrhn_probe1,1,56,NaN,clock,keyboard,0.45,0056_hp_dnn_0.45_keyboard_10_n03085013_22016.png,n03085013_22016.png,0.0,-0.16457517,-0.0090565225,-0.1099683
alexnet_w1_mlp_simclrhn_probe1,1,57,NaN,clock,elephant,0.55,0057_hp_dnn_0.55_elephant_10_n02504458_11214.png,n02504458_11214.png,0.0,-1.3248956,-0.2643903,-0.74989057
alexnet_w1_mlp_simclrhn_probe1,1,58,NaN,clock,chair,0.7,0058_hp_dnn_0.7_chair_10_n04099969_13775.png,n04099969_13775.png,0.0,-0.2578916,-0.061923742,-0.1385702
alexnet_w1_mlp_simclrhn_probe1,1,59,NaN,clock,bicycle,0.4,0059_hp_dnn_0.4_bicycle_10_n02835271_8098.png,n02835271_8098.png,0.0,-0.62649643,0.06449119,-0.48860207
alexnet_w1_mlp_simclrhn_probe1,1,60,NaN,clock,clock,0.4,0060_hp_dnn_0.4_clock_10_n04548280_1126.png,n04548280_1126.png,1.0,0.711616,-0.5403653,0.8852844
alexnet_w1_mlp_simclrhn_probe1,1,61,NaN,clock,bicycle,0.45,0061_hp_dnn_0.45_bicycle_10_n02835271_2050.png,n02835271_2050.png,0.0,-0.3805156,0.16395094,-0.384996
alexnet_w1_mlp_simclrhn_probe1,1,62,NaN,clock,oven,1,0062_hp_dnn_1_oven_10_n04111531_891.png,n04111531_891.png,0.0,-1.1468544,-0.26457924,-0.62386274
alexnet_w1_mlp_simclrhn_probe1,1,63,NaN,clock,bottle,0.7,0063_hp_dnn_0.7_bottle_10_n02823428_6201.png,n02823428_6201.png,0.0,-0.61498916,0.32236877,-0.6628121
alexnet_w1_mlp_simclrhn_probe1,1,64,NaN,bicycle,bicycle,0.7,0064_hp_dnn_0.7_bicycle_10_n02835271_20175.png,n02835271_20175.png,1.0,1.3347858,0.57503897,0.53722215
alexnet_w1_mlp_simclrhn_probe1,1,65,NaN,cat,cat,3,0065_hp_dnn_3_cat_10_n02123597_13175.png,n02123597_13175.png,1.0,-1.1609712,-1.4017059,0.17022514
alexnet_w1_mlp_simclrhn_probe1,1,66,NaN,clock,dog,0.4,0066_hp_dnn_0.4_dog_10_n02085936_4391.png,n02085936_4391.png,0.0,-1.3690821,-0.5279065,-0.594801
alexnet_w1_mlp_simclrhn_probe1,1,67,NaN,airplane,airplane,1.5,0067_hp_dnn_1.5_airplane_10_n02690373_8846.png,n02690373_8846.png,1.0,1.3503493,-0.7235905,1.466497
alexnet_w1_mlp_simclrhn_probe1,1,68,NaN,clock,cat,1.5,0068_hp_dnn_1.5_cat_10_n02123597_10301.png,n02123597_10301.png,0.0,-1.4722308,-1.103394,-0.26080698
alexnet_w1_mlp_simclrhn_probe1,1,69,NaN,elephant,elephant,0.7,0069_hp_dnn_0.7_elephant_10_n02504458_6135.png,n02504458_6135.png,1.0,-0.8145403,-0.9827516,0.11894334
alexnet_w1_mlp_simclrhn_probe1,1,70,NaN,clock,keyboard,0.45,0070_hp_dnn_0.45_keyboard_10_n03085013_22585.png,n03085013_22585.png,0.0,-1.0132594,-0.27709755,-0.520545
alexnet_w1_mlp_simclrhn_probe1,1,71,NaN,clock,bird,1,0071_hp_dnn_1_bird_10_n02017213_1150.png,n02017213_1150.png,0.0,-2.2935023,-0.97150356,-0.93479437
alexnet_w1_mlp_simclrhn_probe1,1,72,NaN,chair,bottle,3,0072_hp_dnn_3_bottle_10_n04560804_30885.png,n04560804_30885.png,0.0,-1.3482233,1.0683299,-1.7087612
alexnet_w1_mlp_simclrhn_probe1,1,73,NaN,bicycle,bicycle,inf,0073_hp_dnn_inf_bicycle_10_n02835271_9191.png,n02835271_9191.png,1.0,12.898191,-6.3822346,13.63332
alexnet_w1_mlp_simclrhn_probe1,1,74,NaN,chair,truck,inf,0074_hp_dnn_inf_truck_10_n03796401_7699.png,n03796401_7699.png,0.0,-1.298445,0.64511573,-1.374305
alexnet_w1_mlp_simclrhn_probe1,1,75,NaN,knife,knife,1.5,0075_hp_dnn_1.5_knife_10_n03041632_50332.png,n03041632_50332.png,1.0,0.32066208,-0.62879676,0.6713688
alexnet_w1_mlp_simclrhn_probe1,1,76,NaN,clock,knife,0.55,0076_hp_dnn_0.55_knife_10_n03041632_36247.png,n03041632_36247.png,0.0,-0.64275986,-0.43162164,-0.14929727
alexnet_w1_mlp_simclrhn_probe1,1,77,NaN,clock,knife,1.5,0077_hp_dnn_1.5_knife_10_n03041632_23667.png,n03041632_23667.png,0.0,-2.211213,-0.5020729,-1.2085447
alexnet_w1_mlp_simclrhn_probe1,1,78,NaN,bird,dog,3,0078_hp_dnn_3_dog_10_n02102973_7028.png,n02102973_7028.png,0.0,-4.4153786,-1.0183213,-2.4020822
alexnet_w1_mlp_simclrhn_probe1,1,79,NaN,clock,oven,0.55,0079_hp_dnn_0.55_oven_10_n04111531_9867.png,n04111531_9867.png,0.0,-2.9880989,0.27022538,-2.3039832
alexnet_w1_mlp_simclrhn_probe1,1,80,NaN,clock,car,0.55,0080_hp_dnn_0.55_car_10_n02814533_8121.png,n02814533_8121.png,0.0,-0.51769793,-0.08652597,-0.3048846
alexnet_w1_mlp_simclrhn_probe1,1,81,NaN,airplane,boat,0.55,0081_hp_dnn_0.55_boat_10_n03662601_5210.png,n03662601_5210.png,0.0,-0.55024767,-0.49785224,-0.037049167
alexnet_w1_mlp_simclrhn_probe1,1,82,NaN,clock,car,1.5,0082_hp_dnn_1.5_car_10_n03100240_6192.png,n03100240_6192.png,0.0,-0.53371173,-0.4735434,-0.04254543
alexnet_w1_mlp_simclrhn_probe1,1,83,NaN,clock,oven,0.45,0083_hp_dnn_0.45_oven_10_n04111531_9314.png,n04111531_9314.png,0.0,-1.4761237,-0.16484033,-0.92721736
alexnet_w1_mlp_simclrhn_probe1,1,84,NaN,clock,cat,0.4,0084_hp_dnn_0.4_cat_10_n02123045_5189.png,n02123045_5189.png,0.0,-0.7969722,-0.44023073,-0.25225434
alexnet_w1_mlp_simclrhn_probe1,1,85,NaN,clock,truck,0.7,0085_hp_dnn_0.7_truck_10_n04467665_30189.png,n04467665_30189.png,0.0,-1.0431486,0.9984088,-1.443599
alexnet_w1_mlp_simclrhn_probe1,1,86,NaN,clock,airplane,1.5,0086_hp_dnn_1.5_airplane_10_n02690373_3377.png,n02690373_3377.png,0.0,-0.044496164,0.05180647,-0.06809624
alexnet_w1_mlp_simclrhn_probe1,1,87,NaN,clock,oven,0.4,0087_hp_dnn_0.4_oven_10_n04111531_1750.png,n04111531_1750.png,0.0,-1.5522063,-0.39074108,-0.8212799
alexnet_w1_mlp_simclrhn_probe1,1,88,NaN,cat,dog,inf,0088_hp_dnn_inf_dog_10_n02097047_2877.png,n02097047_2877.png,0.0,-0.16396484,1.2014437,-0.9654896
alexnet_w1_mlp_simclrhn_probe1,1,89,NaN,cat,cat,inf,0089_hp_dnn_inf_cat_10_n02124075_15171.png,n02124075_15171.png,1.0,8.053309,-1.8360422,6.992828
alexnet_w1_mlp_simclrhn_probe1,1,90,NaN,clock,car,0.4,0090_hp_dnn_0.4_car_10_n03100240_23060.png,n03100240_23060.png,0.0,-1.3585749,-0.1274299,-0.87055093
alexnet_w1_mlp_simclrhn_probe1,1,91,NaN,knife,knife,inf,0091_hp_dnn_inf_knife_10_n03041632_20595.png,n03041632_20595.png,1.0,-1.5277832,-4.269339,1.9385728
alexnet_w1_mlp_simclrhn_probe1,1,92,NaN,clock,knife,0.45,0092_hp_dnn_0.45_knife_10_n03041632_2184.png,n03041632_2184.png,0.0,-1.6900976,-0.066804945,-1.1478413
alexnet_w1_mlp_simclrhn_probe1,1,93,NaN,knife,knife,0.4,0093_hp_dnn_0.4_knife_10_n03041632_42162.png,n03041632_42162.png,1.0,-0.19732551,-0.26391542,0.047086176
alexnet_w1_mlp_simclrhn_probe1,1,94,NaN,chair,elephant,1,0094_hp_dnn_1_elephant_10_n02504458_3535.png,n02504458_3535.png,0.0,-1.5017138,0.1817865,-1.1904145
alexnet_w1_mlp_simclrhn_probe1,1,95,NaN,bird,bird,inf,0095_hp_dnn_inf_bird_10_n02056570_11311.png,n02056570_11311.png,1.0,-2.5867333,-4.570509,1.4027412
alexnet_w1_mlp_simclrhn_probe1,1,96,NaN,clock,chair,0.4,0096_hp_dnn_0.4_chair_10_n03376595_4121.png,n03376595_4121.png,0.0,-0.69588363,-0.18158548,-0.3636637
alexnet_w1_mlp_simclrhn_probe1,1,97,NaN,chair,dog,1,0097_hp_dnn_1_dog_10_n02086240_3572.png,n02086240_3572.png,0.0,-2.302807,-1.2285119,-0.7596414
alexnet_w1_mlp_simclrhn_probe1,1,98,NaN,elephant,elephant,inf,0098_hp_dnn_inf_elephant_10_n02504013_4523.png,n02504013_4523.png,1.0,14.650189,0.21114862,10.209944
alexnet_w1_mlp_simclrhn_probe1,1,99,NaN,oven,chair,inf,0099_hp_dnn_inf_chair_10_n04429376_7902.png,n04429376_7902.png,0.0,-3.5306008,-2.297868,-0.8716737
alexnet_w1_mlp_simclrhn_probe1,1,100,NaN,clock,bird,0.45,0100_hp_dnn_0.45_bird_10_n01530575_14402.png,n01530575_14402.png,0.0,-0.8746806,-0.04907717,-0.58378977
alexnet_w1_mlp_simclrhn_probe1,1,101,NaN,clock,bottle,0.55,0101_hp_dnn_0.55_bottle_10_n02823428_11140.png,n02823428_11140.png,0.0,-0.7910736,0.83167964,-1.1474599
alexnet_w1_mlp_simclrhn_probe1,1,102,NaN,clock,airplane,0.55,0102_hp_dnn_0.55_airplane_10_n02690373_7685.png,n02690373_7685.png,0.0,-0.08922763,0.29299054,-0.27026907
alexnet_w1_mlp_simclrhn_probe1,1,103,NaN,airplane,boat,0.45,0103_hp_dnn_0.45_boat_10_n03344393_4827.png,n03344393_4827.png,0.0,-0.28390303,-0.110192895,-0.12283162
alexnet_w1_mlp_simclrhn_probe1,1,104,NaN,keyboard,dog,0.7,0104_hp_dnn_0.7_dog_10_n02088364_8674.png,n02088364_8674.png,0.0,-3.5221467,-1.563342,-1.3850842
alexnet_w1_mlp_simclrhn_probe1,1,105,NaN,clock,knife,0.45,0105_hp_dnn_0.45_knife_10_n03041632_32004.png,n03041632_32004.png,0.0,-0.9957692,-0.13869019,-0.6060464
alexnet_w1_mlp_simclrhn_probe1,1,106,NaN,keyboard,keyboard,3,0106_hp_dnn_3_keyboard_10_n03085013_22949.png,n03085013_22949.png,1.0,3.1166759,-0.8103521,2.776828
alexnet_w1_mlp_simclrhn_probe1,1,107,NaN,clock,knife,0.7,0107_hp_dnn_0.7_knife_10_n03041632_4044.png,n03041632_4044.png,0.0,-0.9351268,-0.034106195,-0.6371178
alexnet_w1_mlp_simclrhn_probe1,1,108,NaN,airplane,airplane,1.5,0108_hp_dnn_1.5_airplane_10_n02690373_6455.png,n02690373_6455.png,1.0,3.1403303,-0.42830944,2.5234094
alexnet_w1_mlp_simclrhn_probe1,1,109,NaN,airplane,airplane,0.55,0109_hp_dnn_0.55_airplane_10_n02690373_19646.png,n02690373_19646.png,1.0,0.75465655,-0.11433082,0.6144669
alexnet_w1_mlp_simclrhn_probe1,1,110,NaN,boat,boat,inf,0110_hp_dnn_inf_boat_10_n04612504_1692.png,n04612504_1692.png,1.0,4.674925,1.3646433,2.3407226
alexnet_w1_mlp_simclrhn_probe1,1,111,NaN,clock,cat,0.55,0111_hp_dnn_0.55_cat_10_n02124075_853.png,n02124075_853.png,0.0,-1.4119686,-0.21725322,-0.84479135
alexnet_w1_mlp_simclrhn_probe1,1,112,NaN,boat,boat,1,0112_hp_dnn_1_boat_10_n04273569_6071.png,n04273569_6071.png,1.0,-0.916275,-0.9171727,0.00063473155
alexnet_w1_mlp_simclrhn_probe1,1,113,NaN,bicycle,bird,1.5,0113_hp_dnn_1.5_bird_10_n01616318_1214.png,n01616318_1214.png,0.0,-2.204087,-0.749804,-1.0283334
alexnet_w1_mlp_simclrhn_probe1,1,114,NaN,car,car,1.5,0114_hp_dnn_1.5_car_10_n02814533_14627.png,n02814533_14627.png,1.0,1.2771648,1.0362962,0.1703198
alexnet_w1_mlp_simclrhn_probe1,1,115,NaN,clock,keyboard,0.7,0115_hp_dnn_0.7_keyboard_10_n03085013_1483.png,n03085013_1483.png,0.0,-0.4572959,-0.22786784,-0.16223013
alexnet_w1_mlp_simclrhn_probe1,1,116,NaN,airplane,airplane,0.55,0116_hp_dnn_0.55_airplane_10_n02690373_7401.png,n02690373_7401.png,1.0,0.95041776,-0.14986795,0.77801955
alexnet_w1_mlp_simclrhn_probe1,1,117,NaN,clock,keyboard,0.55,0117_hp_dnn_0.55_keyboard_10_n03085013_6963.png,n03085013_6963.png,0.0,-0.7526271,0.5895758,-0.94908077
alexnet_w1_mlp_simclrhn_probe1,1,118,NaN,bicycle,knife,3,0118_hp_dnn_3_knife_10_n03041632_1407.png,n03041632_1407.png,0.0,-1.5325413,-0.44807592,-0.7668328
alexnet_w1_mlp_simclrhn_probe1,1,119,NaN,bicycle,elephant,1.5,0119_hp_dnn_1.5_elephant_10_n02504458_5137.png,n02504458_5137.png,0.0,-0.7900887,-0.71397364,-0.053821485
alexnet_w1_mlp_simclrhn_probe1,1,120,NaN,clock,clock,inf,0120_hp_dnn_inf_clock_10_n02708093_6635.png,n02708093_6635.png,1.0,3.9740503,-0.19988562,2.9514184
alexnet_w1_mlp_simclrhn_probe1,1,121,NaN,clock,oven,0.4,0121_hp_dnn_0.4_oven_10_n04111531_5927.png,n04111531_5927.png,0.0,-1.7370355,-0.3594179,-0.97412276
alexnet_w1_mlp_simclrhn_probe1,1,122,NaN,clock,clock,inf,0122_hp_dnn_inf_clock_10_n02708093_2043.png,n02708093_2043.png,1.0,0.82442665,-1.5469476,1.6768148
alexnet_w1_mlp_simclrhn_probe1,1,123,NaN,airplane,airplane,0.4,0123_hp_dnn_0.4_airplane_10_n02690373_7300.png,n02690373_7300.png,1.0,0.09273228,-0.11909867,0.1497871
alexnet_w1_mlp_simclrhn_probe1,1,124,NaN,clock,oven,0.55,0124_hp_dnn_0.55_oven_10_n04111531_190.png,n04111531_190.png,0.0,-2.0747979,-0.49250546,-1.1188498
alexnet_w1_mlp_simclrhn_probe1,1,125,NaN,bird,dog,3,0125_hp_dnn_3_dog_10_n02091244_8497.png,n02091244_8497.png,0.0,-5.100643,-1.3017285,-2.6862383
alexnet_w1_mlp_simclrhn_probe1,1,126,NaN,chair,bicycle,0.7,0126_hp_dnn_0.7_bicycle_10_n03792782_15932.png,n03792782_15932.png,0.0,-1.7319332,-1.1099052,-0.43984023
alexnet_w1_mlp_simclrhn_probe1,1,127,NaN,clock,bear,0.4,0127_hp_dnn_0.4_bear_10_n02133161_463.png,n02133161_463.png,0.0,-1.1973367,-0.44470942,-0.5321878
alexnet_w1_mlp_simclrhn_probe1,1,128,NaN,clock,cat,0.7,0128_hp_dnn_0.7_cat_10_n02123045_11126.png,n02123045_11126.png,0.0,-1.4080673,-0.5592831,-0.6001811
alexnet_w1_mlp_simclrhn_probe1,1,129,NaN,clock,clock,0.7,0129_hp_dnn_0.7_clock_10_n04548280_8646.png,n04548280_8646.png,1.0,-0.06728753,-0.7383381,0.47450444
alexnet_w1_mlp_simclrhn_probe1,1,130,NaN,clock,bottle,0.55,0130_hp_dnn_0.55_bottle_10_n03983396_11597.png,n03983396_11597.png,0.0,-1.4415702,0.008444555,-1.0253153
alexnet_w1_mlp_simclrhn_probe1,1,131,NaN,truck,truck,3,0131_hp_dnn_3_truck_10_n03417042_212.png,n03417042_212.png,1.0,-0.6443226,-0.7948952,0.106470905
alexnet_w1_mlp_simclrhn_probe1,1,132,NaN,keyboard,keyboard,1,0132_hp_dnn_1_keyboard_10_n04505470_1724.png,n04505470_1724.png,1.0,-0.37142995,-0.50841963,0.09686633
alexnet_w1_mlp_simclrhn_probe1,1,133,NaN,chair,chair,1,0133_hp_dnn_1_chair_10_n04099969_14028.png,n04099969_14028.png,1.0,-0.22840449,-0.5850097,0.25215796
alexnet_w1_mlp_simclrhn_probe1,1,134,NaN,clock,cat,0.45,0134_hp_dnn_0.45_cat_10_n02124075_2138.png,n02124075_2138.png,0.0,-1.0336839,-0.1855521,-0.59971976
alexnet_w1_mlp_simclrhn_probe1,1,135,NaN,airplane,boat,inf,0135_hp_dnn_inf_boat_10_n03662601_3145.png,n03662601_3145.png,0.0,1.743174,5.1319532,-2.3962288
alexnet_w1_mlp_simclrhn_probe1,1,136,NaN,cat,cat,3,0136_hp_dnn_3_cat_10_n02123045_1120.png,n02123045_1120.png,1.0,-1.9695708,-1.972146,0.0018209968
alexnet_w1_mlp_simclrhn_probe1,1,137,NaN,boat,boat,inf,0137_hp_dnn_inf_boat_10_n04612504_31305.png,n04612504_31305.png,1.0,4.124354,-1.6852969,4.1080437
alexnet_w1_mlp_simclrhn_probe1,1,138,NaN,clock,chair,1,0138_hp_dnn_1_chair_10_n04099969_4275.png,n04099969_4275.png,0.0,-0.49244794,0.24165297,-0.51908773
alexnet_w1_mlp_simclrhn_probe1,1,139,NaN,clock,keyboard,0.4,0139_hp_dnn_0.4_keyboard_10_n03085013_23005.png,n03085013_23005.png,0.0,-0.79629004,-0.38230434,-0.2927321
alexnet_w1_mlp_simclrhn_probe1,1,140,NaN,airplane,airplane,1,0140_hp_dnn_1_airplane_10_n02690373_9618.png,n02690373_9618.png,1.0,-0.055917233,-1.018684,0.6807789
alexnet_w1_mlp_simclrhn_probe1,1,141,NaN,knife,knife,0.55,0141_hp_dnn_0.55_knife_10_n03041632_17338.png,n03041632_17338.png,1.0,0.021325078,-0.18497686,0.14587751
alexnet_w1_mlp_simclrhn_probe1,1,142,NaN,clock,clock,0.45,0142_hp_dnn_0.45_clock_10_n04548280_8225.png,n04548280_8225.png,1.0,0.20995772,-0.8231212,0.7304971
alexnet_w1_mlp_simclrhn_probe1,1,143,NaN,car,car,inf,0143_hp_dnn_inf_car_10_n03100240_8907.png,n03100240_8907.png,1.0,8.027871,2.3601265,4.007701
alexnet_w1_mlp_simclrhn_probe1,1,144,NaN,chair,chair,1.5,0144_hp_dnn_1.5_chair_10_n03376595_6865.png,n03376595_6865.png,1.0,1.2300589,0.20727956,0.7232142
alexnet_w1_mlp_simclrhn_probe1,1,145,NaN,clock,bicycle,0.45,0145_hp_dnn_0.45_bicycle_10_n03792782_44296.png,n03792782_44296.png,0.0,-1.242675,-0.17529775,-0.75474966
alexnet_w1_mlp_simclrhn_probe1,1,146,NaN,bicycle,boat,1.5,0146_hp_dnn_1.5_boat_10_n04273569_1233.png,n04273569_1233.png,0.0,-1.8689646,-0.61891353,-0.8839196
alexnet_w1_mlp_simclrhn_probe1,1,147,NaN,clock,bird,1,0147_hp_dnn_1_bird_10_n01824575_12784.png,n01824575_12784.png,0.0,-1.9624765,-1.7952756,-0.118228905
alexnet_w1_mlp_simclrhn_probe1,1,148,NaN,airplane,boat,3,0148_hp_dnn_3_boat_10_n03344393_408.png,n03344393_408.png,0.0,1.5552962,1.8083503,-0.1789363
alexnet_w1_mlp_simclrhn_probe1,1,149,NaN,airplane,airplane,1,0149_hp_dnn_1_airplane_10_n02690373_220.png,n02690373_220.png,1.0,1.5018706,0.19522202,0.9239401
alexnet_w1_mlp_simclrhn_probe1,1,150,NaN,chair,chair,3,0150_hp_dnn_3_chair_10_n04429376_10546.png,n04429376_10546.png,1.0,0.29721057,-0.0057764053,0.21424416
alexnet_w1_mlp_simclrhn_probe1,1,151,NaN,clock,oven,0.7,0151_hp_dnn_0.7_oven_10_n04111531_4749.png,n04111531_4749.png,0.0,-1.8149629,-0.062055156,-1.239493
alexnet_w1_mlp_simclrhn_probe1,1,152,NaN,clock,truck,0.4,0152_hp_dnn_0.4_truck_10_n03417042_18124.png,n03417042_18124.png,0.0,-0.9241904,0.09007766,-0.7171958
alexnet_w1_mlp_simclrhn_probe1,1,153,NaN,clock,clock,3,0153_hp_dnn_3_clock_10_n03196217_7353.png,n03196217_7353.png,1.0,-0.8152345,-1.2604358,0.31480488
alexnet_w1_mlp_simclrhn_probe1,1,154,NaN,clock,dog,0.7,0154_hp_dnn_0.7_dog_10_n02098286_2699.png,n02098286_2699.png,0.0,-1.791921,-0.3014584,-1.0539162
alexnet_w1_mlp_simclrhn_probe1,1,155,NaN,clock,truck,0.4,0155_hp_dnn_0.4_truck_10_n03796401_3651.png,n03796401_3651.png,0.0,-1.0794291,-0.015271239,-0.75247335
alexnet_w1_mlp_simclrhn_probe1,1,156,NaN,clock,bottle,0.4,0156_hp_dnn_0.4_bottle_10_n03983396_4165.png,n03983396_4165.png,0.0,-0.77553433,-0.28956178,-0.3436345
alexnet_w1_mlp_simclrhn_probe1,1,157,NaN,clock,knife,1,0157_hp_dnn_1_knife_10_n03041632_25257.png,n03041632_25257.png,0.0,-2.3972883,0.23061007,-1.8582048
alexnet_w1_mlp_simclrhn_probe1,1,158,NaN,chair,chair,3,0158_hp_dnn_3_chair_10_n04099969_1229.png,n04099969_1229.png,1.0,1.572242,-2.9494834,3.1973429
alexnet_w1_mlp_simclrhn_probe1,1,159,NaN,bird,bird,inf,0159_hp_dnn_inf_bird_10_n01798484_518.png,n01798484_518.png,1.0,-0.16408893,-1.0771606,0.6456392
alexnet_w1_mlp_simclrhn_probe1,1,160,NaN,bird,bird,inf,0160_hp_dnn_inf_bird_10_n01797886_1953.png,n01797886_1953.png,1.0,2.9002116,-6.413525,6.585807
alexnet_w1_mlp_simclrhn_probe1,1,161,NaN,bird,bird,3,0161_hp_dnn_3_bird_10_n01820546_228.png,n01820546_228.png,1.0,0.0928626,-3.2986588,2.3981678
alexnet_w1_mlp_simclrhn_probe1,1,162,NaN,bicycle,bear,1.5,0162_hp_dnn_1.5_bear_10_n02134418_2666.png,n02134418_2666.png,0.0,-1.7484167,-1.2328525,-0.36455896
alexnet_w1_mlp_simclrhn_probe1,1,163,NaN,boat,boat,1.5,0163_hp_dnn_1.5_boat_10_n03344393_7659.png,n03344393_7659.png,1.0,2.4989455,0.61078185,1.3351333
alexnet_w1_mlp_simclrhn_probe1,1,164,NaN,clock,oven,1.5,0164_hp_dnn_1.5_oven_10_n04111531_1752.png,n04111531_1752.png,0.0,-2.5723073,-0.7637082,-1.2788728
alexnet_w1_mlp_simclrhn_probe1,1,165,NaN,elephant,dog,inf,0165_hp_dnn_inf_dog_10_n02091032_8873.png,n02091032_8873.png,0.0,-3.962574,1.0118885,-3.5174763
alexnet_w1_mlp_simclrhn_probe1,1,166,NaN,clock,oven,0.7,0166_hp_dnn_0.7_oven_10_n04111531_14559.png,n04111531_14559.png,0.0,-2.656831,-0.25169757,-1.7006862
alexnet_w1_mlp_simclrhn_probe1,1,167,NaN,clock,cat,0.7,0167_hp_dnn_0.7_cat_10_n02123045_114.png,n02123045_114.png,0.0,-1.5199507,-0.8170349,-0.49703658
alexnet_w1_mlp_simclrhn_probe1,1,168,NaN,cat,cat,3,0168_hp_dnn_3_cat_10_n02123597_13865.png,n02123597_13865.png,1.0,0.5267399,-3.2166555,2.6469803
alexnet_w1_mlp_simclrhn_probe1,1,169,NaN,knife,knife,0.55,0169_hp_dnn_0.55_knife_10_n03041632_13478.png,n03041632_13478.png,1.0,0.10756237,-0.19029956,0.2106202
alexnet_w1_mlp_simclrhn_probe1,1,170,NaN,clock,elephant,0.55,0170_hp_dnn_0.55_elephant_10_n02504458_2618.png,n02504458_2618.png,0.0,-1.600204,-0.38316846,-0.86057407
alexnet_w1_mlp_simclrhn_probe1,1,171,NaN,clock,truck,1,0171_hp_dnn_1_truck_10_n04467665_56954.png,n04467665_56954.png,0.0,-1.6096649,0.09946597,-1.208538
alexnet_w1_mlp_simclrhn_probe1,1,172,NaN,clock,chair,1,0172_hp_dnn_1_chair_10_n04429376_1791.png,n04429376_1791.png,0.0,-1.1272874,0.5435552,-1.1814642
alexnet_w1_mlp_simclrhn_probe1,1,173,NaN,clock,bottle,3,0173_hp_dnn_3_bottle_10_n04560804_33214.png,n04560804_33214.png,0.0,-0.13335581,0.53057665,-0.46947113
alexnet_w1_mlp_simclrhn_probe1,1,174,NaN,knife,knife,inf,0174_hp_dnn_inf_knife_10_n03041632_48816.png,n03041632_48816.png,1.0,0.9581559,-2.695846,2.5837696
alexnet_w1_mlp_simclrhn_probe1,1,175,NaN,cat,cat,3,0175_hp_dnn_3_cat_10_n02123394_2274.png,n02123394_2274.png,1.0,-1.3240584,-2.8137846,1.0533955
alexnet_w1_mlp_simclrhn_probe1,1,176,NaN,clock,truck,1.5,0176_hp_dnn_1.5_truck_10_n03796401_1326.png,n03796401_1326.png,0.0,0.2555167,0.59822744,-0.24233308
alexnet_w1_mlp_simclrhn_probe1,1,177,NaN,clock,knife,0.55,0177_hp_dnn_0.55_knife_10_n03041632_11887.png,n03041632_11887.png,0.0,-0.42520502,-0.2609398,-0.11615305
alexnet_w1_mlp_simclrhn_probe1,1,178,NaN,knife,dog,0.7,0178_hp_dnn_0.7_dog_10_n02113978_8008.png,n02113978_8008.png,0.0,-2.0975697,-0.65930194,-1.0170089
alexnet_w1_mlp_simclrhn_probe1,1,179,NaN,clock,cat,0.4,0179_hp_dnn_0.4_cat_10_n02123045_4812.png,n02123045_4812.png,0.0,-0.96541566,-0.32168326,-0.45518756
alexnet_w1_mlp_simclrhn_probe1,1,180,NaN,airplane,bird,inf,0180_hp_dnn_inf_bird_10_n01833805_3578.png,n01833805_3578.png,0.0,-1.8330611,-0.6343382,-0.8476251
alexnet_w1_mlp_simclrhn_probe1,1,181,NaN,clock,truck,1,0181_hp_dnn_1_truck_10_n03417042_3398.png,n03417042_3398.png,0.0,-0.42746878,0.5111358,-0.66369367
alexnet_w1_mlp_simclrhn_probe1,1,182,NaN,clock,bird,0.7,0182_hp_dnn_0.7_bird_10_n02007558_4566.png,n02007558_4566.png,0.0,-1.6865652,-0.49081302,-0.8455245
alexnet_w1_mlp_simclrhn_probe1,1,183,NaN,clock,knife,0.45,0183_hp_dnn_0.45_knife_10_n03041632_3516.png,n03041632_3516.png,0.0,-0.61539614,-0.051605653,-0.3986601
alexnet_w1_mlp_simclrhn_probe1,1,184,NaN,clock,cat,1.5,0184_hp_dnn_1.5_cat_10_n02124075_14965.png,n02124075_14965.png,0.0,-1.1997365,-1.0340279,-0.117173634
alexnet_w1_mlp_simclrhn_probe1,1,185,NaN,clock,bird,0.4,0185_hp_dnn_0.4_bird_10_n01843065_2176.png,n01843065_2176.png,0.0,-0.7701581,-0.48455584,-0.20195131
alexnet_w1_mlp_simclrhn_probe1,1,186,NaN,knife,knife,3,0186_hp_dnn_3_knife_10_n03041632_21034.png,n03041632_21034.png,1.0,-1.2000041,-1.3909369,0.13500984
alexnet_w1_mlp_simclrhn_probe1,1,187,NaN,chair,keyboard,1.5,0187_hp_dnn_1.5_keyboard_10_n03085013_24026.png,n03085013_24026.png,0.0,-1.0778992,-0.7479118,-0.23333634
alexnet_w1_mlp_simclrhn_probe1,1,188,NaN,clock,bottle,0.55,0188_hp_dnn_0.55_bottle_10_n04560804_14395.png,n04560804_14395.png,0.0,-0.25919202,0.021219999,-0.19828124
alexnet_w1_mlp_simclrhn_probe1,1,189,NaN,clock,boat,0.45,0189_hp_dnn_0.45_boat_10_n02951358_11567.png,n02951358_11567.png,0.0,-1.5786755,0.13888392,-1.2144979
alexnet_w1_mlp_simclrhn_probe1,1,190,NaN,clock,chair,0.4,0190_hp_dnn_0.4_chair_10_n03376595_17747.png,n03376595_17747.png,0.0,-0.6145446,-0.010266612,-0.42728907
alexnet_w1_mlp_simclrhn_probe1,1,191,NaN,bottle,bottle,inf,0191_hp_dnn_inf_bottle_10_n04591713_5563.png,n04591713_5563.png,1.0,1.2355913,-0.22551166,1.0331558
alexnet_w1_mlp_simclrhn_probe1,1,192,NaN,airplane,airplane,3,0192_hp_dnn_3_airplane_10_n02690373_7496.png,n02690373_7496.png,1.0,4.3402643,-0.93250036,3.7284076
alexnet_w1_mlp_simclrhn_probe1,1,193,NaN,airplane,airplane,3,0193_hp_dnn_3_airplane_10_n02690373_4465.png,n02690373_4465.png,1.0,6.539701,0.7374727,4.102795
alexnet_w1_mlp_simclrhn_probe1,1,194,NaN,clock,bear,0.4,0194_hp_dnn_0.4_bear_10_n02134418_119.png,n02134418_119.png,0.0,-1.1521591,-0.474723,-0.47901967
alexnet_w1_mlp_simclrhn_probe1,1,195,NaN,bicycle,bear,1.5,0195_hp_dnn_1.5_bear_10_n02133161_1970.png,n02133161_1970.png,0.0,-2.182977,-1.060445,-0.79375
alexnet_w1_mlp_simclrhn_probe1,1,196,NaN,knife,bird,1.5,0196_hp_dnn_1.5_bird_10_n02018795_5488.png,n02018795_5488.png,0.0,-3.3392205,-1.2848194,-1.4526811
alexnet_w1_mlp_simclrhn_probe1,1,197,NaN,clock,bird,0.45,0197_hp_dnn_0.45_bird_10_n01796340_1877.png,n01796340_1877.png,0.0,-0.82224536,-0.44015265,-0.27018034
alexnet_w1_mlp_simclrhn_probe1,1,198,NaN,airplane,airplane,0.4,0198_hp_dnn_0.4_airplane_10_n02690373_4964.png,n02690373_4964.png,1.0,0.07606143,-0.33764687,0.29253596
alexnet_w1_mlp_simclrhn_probe1,1,199,NaN,clock,bottle,0.4,0199_hp_dnn_0.4_bottle_10_n04591713_1762.png,n04591713_1762.png,0.0,-0.28485075,0.08217501,-0.2595264
alexnet_w1_mlp_simclrhn_probe1,1,200,NaN,bicycle,car,1,0200_hp_dnn_1_car_10_n03100240_6059.png,n03100240_6059.png,0.0,-0.9560906,0.18128754,-0.80424786
alexnet_w1_mlp_simclrhn_probe1,1,201,NaN,airplane,chair,inf,0201_hp_dnn_inf_chair_10_n03376595_10769.png,n03376595_10769.png,0.0,-1.7083539,-0.9628911,-0.5271218
alexnet_w1_mlp_simclrhn_probe1,1,202,NaN,oven,oven,inf,0202_hp_dnn_inf_oven_10_n04111531_1723.png,n04111531_1723.png,1.0,4.9172544,-0.47340158,3.8117695
alexnet_w1_mlp_simclrhn_probe1,1,203,NaN,clock,bicycle,0.45,0203_hp_dnn_0.45_bicycle_10_n02835271_3570.png,n02835271_3570.png,0.0,-0.2638824,0.301224,-0.39959058
alexnet_w1_mlp_simclrhn_probe1,1,204,NaN,clock,knife,0.4,0204_hp_dnn_0.4_knife_10_n03041632_83826.png,n03041632_83826.png,0.0,-0.6695453,-0.011278818,-0.4654647
alexnet_w1_mlp_simclrhn_probe1,1,205,NaN,clock,keyboard,0.7,0205_hp_dnn_0.7_keyboard_10_n03085013_20673.png,n03085013_20673.png,0.0,-0.54150623,-0.13537559,-0.28717774
alexnet_w1_mlp_simclrhn_probe1,1,206,NaN,knife,knife,1,0206_hp_dnn_1_knife_10_n03041632_27575.png,n03041632_27575.png,1.0,0.06779799,-0.17253064,0.169938
alexnet_w1_mlp_simclrhn_probe1,1,207,NaN,bird,bird,1.5,0207_hp_dnn_1.5_bird_10_n01558993_14305.png,n01558993_14305.png,1.0,0.039056018,-2.449006,1.7593256
alexnet_w1_mlp_simclrhn_probe1,1,208,NaN,clock,bird,0.4,0208_hp_dnn_0.4_bird_10_n01537544_18123.png,n01537544_18123.png,0.0,-0.75378007,-0.46148714,-0.20668231
alexnet_w1_mlp_simclrhn_probe1,1,209,NaN,bicycle,bicycle,3,0209_hp_dnn_3_bicycle_10_n02835271_4307.png,n02835271_4307.png,1.0,10.547301,-0.65656054,7.922327
alexnet_w1_mlp_simclrhn_probe1,1,210,NaN,clock,car,0.7,0210_hp_dnn_0.7_car_10_n04285008_6320.png,n04285008_6320.png,0.0,-1.3031987,0.20962657,-1.069729
alexnet_w1_mlp_simclrhn_probe1,1,211,NaN,clock,elephant,0.7,0211_hp_dnn_0.7_elephant_10_n02504458_1327.png,n02504458_1327.png,0.0,-2.869523,-0.2543974,-1.8491731
alexnet_w1_mlp_simclrhn_probe1,1,212,NaN,bottle,bottle,1,0212_hp_dnn_1_bottle_10_n04560804_1813.png,n04560804_1813.png,1.0,-0.52289885,-0.9737201,0.31877875
alexnet_w1_mlp_simclrhn_probe1,1,213,NaN,clock,cat,1,0213_hp_dnn_1_cat_10_n02124075_10085.png,n02124075_10085.png,0.0,-1.1424576,-0.65210694,-0.3467303
alexnet_w1_mlp_simclrhn_probe1,1,214,NaN,bottle,clock,inf,0214_hp_dnn_inf_clock_10_n03196217_2853.png,n03196217_2853.png,0.0,0.09584168,1.9483448,-1.3099176
alexnet_w1_mlp_simclrhn_probe1,1,215,NaN,boat,boat,1.5,0215_hp_dnn_1.5_boat_10_n04273569_10149.png,n04273569_10149.png,1.0,-0.56002855,-0.9721248,0.29139605
alexnet_w1_mlp_simclrhn_probe1,1,216,NaN,chair,chair,3,0216_hp_dnn_3_chair_10_n03376595_17859.png,n03376595_17859.png,1.0,2.5902114,-0.92691875,2.4869866
alexnet_w1_mlp_simclrhn_probe1,1,217,NaN,clock,dog,0.55,0217_hp_dnn_0.55_dog_10_n02101556_7581.png,n02101556_7581.png,0.0,-2.990294,0.45903805,-2.4390461
alexnet_w1_mlp_simclrhn_probe1,1,218,NaN,clock,cat,0.4,0218_hp_dnn_0.4_cat_10_n02125311_8522.png,n02125311_8522.png,0.0,-0.89507395,-0.45269382,-0.31281
alexnet_w1_mlp_simclrhn_probe1,1,219,NaN,clock,clock,0.45,0219_hp_dnn_0.45_clock_10_n04548280_4345.png,n04548280_4345.png,1.0,0.51482964,-0.7217764,0.8744126
alexnet_w1_mlp_simclrhn_probe1,1,220,NaN,truck,truck,inf,0220_hp_dnn_inf_truck_10_n04467665_4088.png,n04467665_4088.png,1.0,5.4705653,0.7466357,3.3403225
alexnet_w1_mlp_simclrhn_probe1,1,221,NaN,dog,dog,inf,0221_hp_dnn_inf_dog_10_n02102040_1100.png,n02102040_1100.png,1.0,2.2349775,-5.8675027,5.7293186
alexnet_w1_mlp_simclrhn_probe1,1,222,NaN,keyboard,bicycle,0.55,0222_hp_dnn_0.55_bicycle_10_n03792782_15557.png,n03792782_15557.png,0.0,-1.3619881,-0.40822604,-0.67441165
alexnet_w1_mlp_simclrhn_probe1,1,223,NaN,car,car,3,0223_hp_dnn_3_car_10_n04285008_12767.png,n04285008_12767.png,1.0,0.8594096,0.27994388,0.4097441
alexnet_w1_mlp_simclrhn_probe1,1,224,NaN,knife,boat,0.4,0224_hp_dnn_0.4_boat_10_n03662601_2438.png,n03662601_2438.png,0.0,-1.0970738,-0.38182622,-0.50575644
alexnet_w1_mlp_simclrhn_probe1,1,225,NaN,truck,truck,inf,0225_hp_dnn_inf_truck_10_n03417042_6419.png,n03417042_6419.png,1.0,8.918722,6.0083885,2.0579166
alexnet_w1_mlp_simclrhn_probe1,1,226,NaN,clock,chair,0.45,0226_hp_dnn_0.45_chair_10_n04099969_9891.png,n04099969_9891.png,0.0,-0.52826,-0.34333336,-0.13076288
alexnet_w1_mlp_simclrhn_probe1,1,227,NaN,cat,cat,inf,0227_hp_dnn_inf_cat_10_n02123045_8543.png,n02123045_8543.png,1.0,7.6055646,-4.503786,8.562604
alexnet_w1_mlp_simclrhn_probe1,1,228,NaN,clock,cat,0.55,0228_hp_dnn_0.55_cat_10_n02123045_7342.png,n02123045_7342.png,0.0,-0.8503797,-0.3092538,-0.3826338
alexnet_w1_mlp_simclrhn_probe1,1,229,NaN,clock,bird,0.55,0229_hp_dnn_0.55_bird_10_n02018207_10814.png,n02018207_10814.png,0.0,-0.8806153,-0.4076871,-0.33441073
alexnet_w1_mlp_simclrhn_probe1,1,230,NaN,airplane,airplane,3,0230_hp_dnn_3_airplane_10_n02690373_20033.png,n02690373_20033.png,1.0,4.1454515,0.756909,2.3960614
alexnet_w1_mlp_simclrhn_probe1,1,231,NaN,clock,truck,0.55,0231_hp_dnn_0.55_truck_10_n04467665_13645.png,n04467665_13645.png,0.0,-1.1702392,-0.06835098,-0.77915263
alexnet_w1_mlp_simclrhn_probe1,1,232,NaN,airplane,airplane,1.5,0232_hp_dnn_1.5_airplane_10_n02690373_5015.png,n02690373_5015.png,1.0,2.036097,0.0602157,1.3971591
alexnet_w1_mlp_simclrhn_probe1,1,233,NaN,bicycle,chair,1.5,0233_hp_dnn_1.5_chair_10_n03376595_6173.png,n03376595_6173.png,0.0,-1.0267527,0.15770319,-0.8375368
alexnet_w1_mlp_simclrhn_probe1,1,234,NaN,clock,knife,1.5,0234_hp_dnn_1.5_knife_10_n03041632_91967.png,n03041632_91967.png,0.0,-3.2471595,-0.7123156,-1.7924054
alexnet_w1_mlp_simclrhn_probe1,1,235,NaN,elephant,elephant,inf,0235_hp_dnn_inf_elephant_10_n02504458_1271.png,n02504458_1271.png,1.0,4.4766455,-5.074948,6.753997
alexnet_w1_mlp_simclrhn_probe1,1,236,NaN,clock,cat,0.7,0236_hp_dnn_0.7_cat_10_n02123597_1684.png,n02123597_1684.png,0.0,-0.6971009,-0.6440613,-0.03750463
alexnet_w1_mlp_simclrhn_probe1,1,237,NaN,chair,dog,0.55,0237_hp_dnn_0.55_dog_10_n02091831_3628.png,n02091831_3628.png,0.0,-1.8122838,-0.5837083,-0.86873406
alexnet_w1_mlp_simclrhn_probe1,1,238,NaN,clock,truck,0.45,0238_hp_dnn_0.45_truck_10_n04467665_64540.png,n04467665_64540.png,0.0,-0.72411793,0.55338764,-0.9033329
alexnet_w1_mlp_simclrhn_probe1,1,239,NaN,airplane,airplane,1,0239_hp_dnn_1_airplane_10_n02690373_3289.png,n02690373_3289.png,1.0,0.8190285,-0.89554846,1.212389
alexnet_w1_mlp_simclrhn_probe1,1,240,NaN,boat,boat,3,0240_hp_dnn_3_boat_10_n04273569_16949.png,n04273569_16949.png,1.0,0.2704751,-2.5065289,1.9636384
alexnet_w1_mlp_simclrhn_probe1,1,241,NaN,knife,bicycle,1,0241_hp_dnn_1_bicycle_10_n03792782_15174.png,n03792782_15174.png,0.0,-1.9780822,-1.4041866,-0.40580547
alexnet_w1_mlp_simclrhn_probe1,1,242,NaN,knife,bottle,1.5,0242_hp_dnn_1.5_bottle_10_n03937543_146.png,n03937543_146.png,0.0,-1.5312291,-0.8060779,-0.5127594
alexnet_w1_mlp_simclrhn_probe1,1,243,NaN,clock,chair,0.45,0243_hp_dnn_0.45_chair_10_n04429376_694.png,n04429376_694.png,0.0,-0.7794852,0.3760201,-0.81706566
alexnet_w1_mlp_simclrhn_probe1,1,244,NaN,clock,keyboard,0.4,0244_hp_dnn_0.4_keyboard_10_n03085013_19407.png,n03085013_19407.png,0.0,-0.7686702,-0.35923764,-0.28951254
alexnet_w1_mlp_simclrhn_probe1,1,245,NaN,clock,oven,0.45,0245_hp_dnn_0.45_oven_10_n04111531_4955.png,n04111531_4955.png,0.0,-1.6753011,-0.61585456,-0.7491419
alexnet_w1_mlp_simclrhn_probe1,1,246,NaN,bicycle,dog,1.5,0246_hp_dnn_1.5_dog_10_n02099712_1825.png,n02099712_1825.png,0.0,-3.2403874,-0.7849183,-1.7362789
alexnet_w1_mlp_simclrhn_probe1,1,247,NaN,clock,bear,0.55,0247_hp_dnn_0.55_bear_10_n02134084_14031.png,n02134084_14031.png,0.0,-1.9050205,-0.27650225,-1.1515363
alexnet_w1_mlp_simclrhn_probe1,1,248,NaN,clock,car,0.45,0248_hp_dnn_0.45_car_10_n02814533_70922.png,n02814533_70922.png,0.0,-1.1096067,0.19365354,-0.92154425
alexnet_w1_mlp_simclrhn_probe1,1,249,NaN,clock,elephant,0.45,0249_hp_dnn_0.45_elephant_10_n02504458_217.png,n02504458_217.png,0.0,-1.027467,-0.25407088,-0.5468737
alexnet_w1_mlp_simclrhn_probe1,1,250,NaN,car,car,inf,0250_hp_dnn_inf_car_10_n02814533_27824.png,n02814533_27824.png,1.0,11.359487,7.946606,2.413271
alexnet_w1_mlp_simclrhn_probe1,1,251,NaN,clock,keyboard,0.7,0251_hp_dnn_0.7_keyboard_10_n03085013_24257.png,n03085013_24257.png,0.0,0.43338275,0.69252366,-0.1832403
alexnet_w1_mlp_simclrhn_probe1,1,252,NaN,elephant,elephant,3,0252_hp_dnn_3_elephant_10_n02504013_2269.png,n02504013_2269.png,1.0,1.153359,-0.77835107,1.3659253
alexnet_w1_mlp_simclrhn_probe1,1,253,NaN,clock,bear,0.45,0253_hp_dnn_0.45_bear_10_n02134418_1798.png,n02134418_1798.png,0.0,-1.4804881,-0.1747488,-0.9232971
alexnet_w1_mlp_simclrhn_probe1,1,254,NaN,clock,dog,0.45,0254_hp_dnn_0.45_dog_10_n02111129_6881.png,n02111129_6881.png,0.0,-2.4661837,0.06082051,-1.7868619
alexnet_w1_mlp_simclrhn_probe1,1,255,NaN,truck,truck,1.5,0255_hp_dnn_1.5_truck_10_n04467665_67315.png,n04467665_67315.png,1.0,0.8005539,-0.27583537,0.76112217
alexnet_w1_mlp_simclrhn_probe1,1,256,NaN,clock,elephant,0.55,0256_hp_dnn_0.55_elephant_10_n02504013_3688.png,n02504013_3688.png,0.0,-1.2148955,-0.44360518,-0.5453846
alexnet_w1_mlp_simclrhn_probe1,1,257,NaN,airplane,truck,1.5,0257_hp_dnn_1.5_truck_10_n04467665_38886.png,n04467665_38886.png,0.0,-0.67777264,-0.238363,-0.31070954
alexnet_w1_mlp_simclrhn_probe1,1,258,NaN,bottle,bottle,inf,0258_hp_dnn_inf_bottle_10_n04557648_4250.png,n04557648_4250.png,1.0,4.656442,-1.1614718,4.1138864
alexnet_w1_mlp_simclrhn_probe1,1,259,NaN,clock,chair,0.45,0259_hp_dnn_0.45_chair_10_n04099969_4053.png,n04099969_4053.png,0.0,-0.45390898,-0.25913322,-0.13772726
alexnet_w1_mlp_simclrhn_probe1,1,260,NaN,clock,knife,0.7,0260_hp_dnn_0.7_knife_10_n03041632_5727.png,n03041632_5727.png,0.0,-1.474988,-0.27945057,-0.8453727
alexnet_w1_mlp_simclrhn_probe1,1,261,NaN,chair,dog,1,0261_hp_dnn_1_dog_10_n02091134_4525.png,n02091134_4525.png,0.0,-3.8555977,-0.52661306,-2.3539476
alexnet_w1_mlp_simclrhn_probe1,1,262,NaN,keyboard,keyboard,inf,0262_hp_dnn_inf_keyboard_10_n04505470_4685.png,n04505470_4685.png,1.0,8.258377,0.564676,5.4402685
alexnet_w1_mlp_simclrhn_probe1,1,263,NaN,clock,boat,0.4,0263_hp_dnn_0.4_boat_10_n02951358_6637.png,n02951358_6637.png,0.0,-1.0169308,-0.14017047,-0.6199632
alexnet_w1_mlp_simclrhn_probe1,1,264,NaN,bicycle,dog,1.5,0264_hp_dnn_1.5_dog_10_n02093256_11232.png,n02093256_11232.png,0.0,-2.9436872,-0.6359512,-1.6318158
alexnet_w1_mlp_simclrhn_probe1,1,265,NaN,elephant,elephant,inf,0265_hp_dnn_inf_elephant_10_n02504013_816.png,n02504013_816.png,1.0,0.87510055,-1.4796766,1.6650789
alexnet_w1_mlp_simclrhn_probe1,1,266,NaN,cat,bear,1.5,0266_hp_dnn_1.5_bear_10_n02134084_1484.png,n02134084_1484.png,0.0,-2.6639318,-1.6220385,-0.73672986
alexnet_w1_mlp_simclrhn_probe1,1,267,NaN,clock,boat,0.45,0267_hp_dnn_0.45_boat_10_n04273569_15859.png,n04273569_15859.png,0.0,-1.08867,-0.17365561,-0.6470129
alexnet_w1_mlp_simclrhn_probe1,1,268,NaN,bicycle,bicycle,3,0268_hp_dnn_3_bicycle_10_n02835271_7311.png,n02835271_7311.png,1.0,0.9285432,-2.2476773,2.245927
alexnet_w1_mlp_simclrhn_probe1,1,269,NaN,clock,cat,1,0269_hp_dnn_1_cat_10_n02123045_2339.png,n02123045_2339.png,0.0,-1.7947787,-1.4283018,-0.2591383
alexnet_w1_mlp_simclrhn_probe1,1,270,NaN,elephant,elephant,0.45,0270_hp_dnn_0.45_elephant_10_n02504458_4448.png,n02504458_4448.png,1.0,-0.78629243,-0.8146467,0.020049509
alexnet_w1_mlp_simclrhn_probe1,1,271,NaN,car,car,1,0271_hp_dnn_1_car_10_n03100240_9955.png,n03100240_9955.png,1.0,2.4922516,1.238184,0.88675976
alexnet_w1_mlp_simclrhn_probe1,1,272,NaN,clock,truck,0.55,0272_hp_dnn_0.55_truck_10_n03417042_7310.png,n03417042_7310.png,0.0,-0.96722215,-0.075704016,-0.6303985
alexnet_w1_mlp_simclrhn_probe1,1,273,NaN,clock,chair,0.55,0273_hp_dnn_0.55_chair_10_n04099969_20421.png,n04099969_20421.png,0.0,-0.885857,0.22223906,-0.7835422
alexnet_w1_mlp_simclrhn_probe1,1,274,NaN,boat,boat,0.45,0274_hp_dnn_0.45_boat_10_n04612504_4581.png,n04612504_4581.png,1.0,-0.06393115,-0.4041307,0.2405574
alexnet_w1_mlp_simclrhn_probe1,1,275,NaN,clock,bear,1,0275_hp_dnn_1_bear_10_n02134418_4515.png,n02134418_4515.png,0.0,-2.9002676,-0.87427616,-1.4325923
alexnet_w1_mlp_simclrhn_probe1,1,276,NaN,clock,truck,0.7,0276_hp_dnn_0.7_truck_10_n03796401_1082.png,n03796401_1082.png,0.0,-2.0133114,0.16485757,-1.5401981
alexnet_w1_mlp_simclrhn_probe1,1,277,NaN,bicycle,bicycle,1,0277_hp_dnn_1_bicycle_10_n03792782_8176.png,n03792782_8176.png,1.0,0.031059079,-1.0390226,0.75666195
alexnet_w1_mlp_simclrhn_probe1,1,278,NaN,clock,oven,0.4,0278_hp_dnn_0.4_oven_10_n04111531_5463.png,n04111531_5463.png,0.0,-1.541033,-0.49432918,-0.7401314
alexnet_w1_mlp_simclrhn_probe1,1,279,NaN,chair,elephant,1.5,0279_hp_dnn_1.5_elephant_10_n02504013_4166.png,n02504013_4166.png,0.0,-2.3351011,-0.7018453,-1.1548862
alexnet_w1_mlp_simclrhn_probe1,1,280,NaN,airplane,airplane,0.7,0280_hp_dnn_0.7_airplane_10_n02690373_18295.png,n02690373_18295.png,1.0,1.0170727,-0.04972068,0.75433683
alexnet_w1_mlp_simclrhn_probe1,1,281,NaN,clock,cat,0.45,0281_hp_dnn_0.45_cat_10_n02124075_1460.png,n02124075_1460.png,0.0,-0.6763522,-0.4257652,-0.17719178
alexnet_w1_mlp_simclrhn_probe1,1,282,NaN,clock,bird,0.55,0282_hp_dnn_0.55_bird_10_n02028035_17759.png,n02028035_17759.png,0.0,-0.6354746,-0.4845903,-0.10669134
alexnet_w1_mlp_simclrhn_probe1,1,283,NaN,bicycle,chair,3,0283_hp_dnn_3_chair_10_n02791124_6654.png,n02791124_6654.png,0.0,-0.10723803,0.77697784,-0.6252351
alexnet_w1_mlp_simclrhn_probe1,1,284,NaN,airplane,truck,0.7,0284_hp_dnn_0.7_truck_10_n04467665_22974.png,n04467665_22974.png,0.0,-1.2996039,0.21712507,-1.0724894
alexnet_w1_mlp_simclrhn_probe1,1,285,NaN,clock,clock,0.55,0285_hp_dnn_0.55_clock_10_n03196217_2983.png,n03196217_2983.png,1.0,0.19858873,-0.1648455,0.2569868
alexnet_w1_mlp_simclrhn_probe1,1,286,NaN,oven,knife,inf,0286_hp_dnn_inf_knife_10_n03041632_23968.png,n03041632_23968.png,0.0,-0.48145682,4.835137,-3.7593994
alexnet_w1_mlp_simclrhn_probe1,1,287,NaN,keyboard,keyboard,0.4,0287_hp_dnn_0.4_keyboard_10_n03085013_23519.png,n03085013_23519.png,1.0,-0.011354297,-0.014971602,0.0025578204
alexnet_w1_mlp_simclrhn_probe1,1,288,NaN,bottle,bottle,1.5,0288_hp_dnn_1.5_bottle_10_n04591713_14895.png,n04591713_14895.png,1.0,-1.2375212,-1.3191419,0.057714548
alexnet_w1_mlp_simclrhn_probe1,1,289,NaN,clock,elephant,1,0289_hp_dnn_1_elephant_10_n02504013_3969.png,n02504013_3969.png,0.0,-2.4188776,-1.1933005,-0.8666139
alexnet_w1_mlp_simclrhn_probe1,1,290,NaN,bicycle,bear,3,0290_hp_dnn_3_bear_10_n02134418_3723.png,n02134418_3723.png,0.0,-3.327702,-0.98658645,-1.6554186
alexnet_w1_mlp_simclrhn_probe1,1,291,NaN,clock,keyboard,0.45,0291_hp_dnn_0.45_keyboard_10_n04505470_709.png,n04505470_709.png,0.0,-0.56027484,-0.2675518,-0.20698644
alexnet_w1_mlp_simclrhn_probe1,1,292,NaN,clock,knife,1.5,0292_hp_dnn_1.5_knife_10_n03041632_379.png,n03041632_379.png,0.0,-0.89764524,-0.72577435,-0.12153107
alexnet_w1_mlp_simclrhn_probe1,1,293,NaN,bird,oven,3,0293_hp_dnn_3_oven_10_n04111531_13128.png,n04111531_13128.png,0.0,-4.523788,-1.5855826,-2.0776248
alexnet_w1_mlp_simclrhn_probe1,1,294,NaN,clock,elephant,0.55,0294_hp_dnn_0.55_elephant_10_n02504013_933.png,n02504013_933.png,0.0,-0.85525143,-0.7426762,-0.07960271
alexnet_w1_mlp_simclrhn_probe1,1,295,NaN,airplane,airplane,inf,0295_hp_dnn_inf_airplane_10_n02690373_17603.png,n02690373_17603.png,1.0,2.504552,1.0601711,1.0213314
alexnet_w1_mlp_simclrhn_probe1,1,296,NaN,airplane,airplane,0.45,0296_hp_dnn_0.45_airplane_10_n02690373_5177.png,n02690373_5177.png,1.0,0.02832798,-0.13653706,0.11657719
alexnet_w1_mlp_simclrhn_probe1,1,297,NaN,chair,chair,1.5,0297_hp_dnn_1.5_chair_10_n04429376_28121.png,n04429376_28121.png,1.0,-2.1568732,-2.8771496,0.50931233
alexnet_w1_mlp_simclrhn_probe1,1,298,NaN,clock,truck,0.55,0298_hp_dnn_0.55_truck_10_n03417042_6517.png,n03417042_6517.png,0.0,-2.1762214,-0.3291522,-1.3060751
alexnet_w1_mlp_simclrhn_probe1,1,299,NaN,clock,chair,0.55,0299_hp_dnn_0.55_chair_10_n03376595_5503.png,n03376595_5503.png,0.0,-0.4748215,-0.06966103,-0.28649172
alexnet_w1_mlp_simclrhn_probe1,1,300,NaN,clock,clock,1.5,0300_hp_dnn_1.5_clock_10_n03196217_7918.png,n03196217_7918.png,1.0,0.47883597,-0.65128565,0.7991167
alexnet_w1_mlp_simclrhn_probe1,1,301,NaN,car,car,1,0301_hp_dnn_1_car_10_n04285008_7751.png,n04285008_7751.png,1.0,1.0214629,-0.21733978,0.8759658
alexnet_w1_mlp_simclrhn_probe1,1,302,NaN,clock,clock,0.4,0302_hp_dnn_0.4_clock_10_n03196217_2628.png,n03196217_2628.png,1.0,-0.30200374,-0.49119252,0.13377666
alexnet_w1_mlp_simclrhn_probe1,1,303,NaN,clock,bird,0.55,0303_hp_dnn_0.55_bird_10_n01833805_6395.png,n01833805_6395.png,0.0,-1.0002795,-0.19625331,-0.5685324
alexnet_w1_mlp_simclrhn_probe1,1,304,NaN,airplane,boat,0.4,0304_hp_dnn_0.4_boat_10_n03344393_6015.png,n03344393_6015.png,0.0,-0.55307686,-0.32569334,-0.16078444
alexnet_w1_mlp_simclrhn_probe1,1,305,NaN,chair,elephant,1.5,0305_hp_dnn_1.5_elephant_10_n02504013_2739.png,n02504013_2739.png,0.0,-3.5764413,-1.5649443,-1.4223433
alexnet_w1_mlp_simclrhn_probe1,1,306,NaN,clock,keyboard,0.45,0306_hp_dnn_0.45_keyboard_10_n03085013_23316.png,n03085013_23316.png,0.0,-0.24214551,0.14985588,-0.27718684
alexnet_w1_mlp_simclrhn_probe1,1,307,NaN,airplane,airplane,1,0307_hp_dnn_1_airplane_10_n02690373_20350.png,n02690373_20350.png,1.0,0.5644882,0.5161748,0.03416272
alexnet_w1_mlp_simclrhn_probe1,1,308,NaN,clock,clock,3,0308_hp_dnn_3_clock_10_n02708093_3484.png,n02708093_3484.png,1.0,2.760643,-2.2380946,3.534641
alexnet_w1_mlp_simclrhn_probe1,1,309,NaN,clock,bicycle,0.55,0309_hp_dnn_0.55_bicycle_10_n03792782_10185.png,n03792782_10185.png,0.0,-1.6262639,-0.35013548,-0.90235907
alexnet_w1_mlp_simclrhn_probe1,1,310,NaN,knife,knife,3,0310_hp_dnn_3_knife_10_n03041632_42196.png,n03041632_42196.png,1.0,-0.19646624,-0.20785545,0.008053388
alexnet_w1_mlp_simclrhn_probe1,1,311,NaN,bird,bird,inf,0311_hp_dnn_inf_bird_10_n01855672_6132.png,n01855672_6132.png,1.0,3.1747532,-5.496546,6.1315346
alexnet_w1_mlp_simclrhn_probe1,1,312,NaN,clock,bottle,0.4,0312_hp_dnn_0.4_bottle_10_n03983396_3047.png,n03983396_3047.png,0.0,-0.7858942,-0.17569566,-0.43147555
alexnet_w1_mlp_simclrhn_probe1,1,313,NaN,clock,bottle,0.4,0313_hp_dnn_0.4_bottle_10_n04557648_2093.png,n04557648_2093.png,0.0,-0.38308582,0.098552085,-0.34056944
alexnet_w1_mlp_simclrhn_probe1,1,314,NaN,keyboard,keyboard,0.55,0314_hp_dnn_0.55_keyboard_10_n04505470_7686.png,n04505470_7686.png,1.0,0.3972813,0.08058297,0.22393952
alexnet_w1_mlp_simclrhn_probe1,1,315,NaN,bird,bear,1.5,0315_hp_dnn_1.5_bear_10_n02132136_5051.png,n02132136_5051.png,0.0,-6.5014577,-1.0351673,-3.865251
alexnet_w1_mlp_simclrhn_probe1,1,316,NaN,clock,bear,1,0316_hp_dnn_1_bear_10_n02134418_24559.png,n02134418_24559.png,0.0,-2.5768728,-1.302559,-0.90107596
alexnet_w1_mlp_simclrhn_probe1,1,317,NaN,clock,oven,0.55,0317_hp_dnn_0.55_oven_10_n04111531_3702.png,n04111531_3702.png,0.0,-2.3799624,-0.027819285,-1.6632164
alexnet_w1_mlp_simclrhn_probe1,1,318,NaN,bicycle,bicycle,1,0318_hp_dnn_1_bicycle_10_n02835271_24230.png,n02835271_24230.png,1.0,0.14166346,-0.86863285,0.7143874
alexnet_w1_mlp_simclrhn_probe1,1,319,NaN,keyboard,keyboard,1.5,0319_hp_dnn_1.5_keyboard_10_n03085013_2272.png,n03085013_2272.png,1.0,0.829355,0.1679881,0.467657
alexnet_w1_mlp_simclrhn_probe1,1,320,NaN,clock,keyboard,0.55,0320_hp_dnn_0.55_keyboard_10_n03085013_23201.png,n03085013_23201.png,0.0,-0.50007904,0.28187653,-0.5529261
alexnet_w1_mlp_simclrhn_probe1,1,321,NaN,bicycle,boat,1.5,0321_hp_dnn_1.5_boat_10_n04273569_9803.png,n04273569_9803.png,0.0,-1.3254511,-0.96122265,-0.25754845
alexnet_w1_mlp_simclrhn_probe1,1,322,NaN,knife,boat,0.4,0322_hp_dnn_0.4_boat_10_n04612504_29813.png,n04612504_29813.png,0.0,-0.8213288,-0.44070005,-0.2691452
alexnet_w1_mlp_simclrhn_probe1,1,323,NaN,clock,clock,1,0323_hp_dnn_1_clock_10_n02708093_1291.png,n02708093_1291.png,1.0,1.3921384,-0.7611073,1.5225747
alexnet_w1_mlp_simclrhn_probe1,1,324,NaN,clock,oven,0.4,0324_hp_dnn_0.4_oven_10_n04111531_1794.png,n04111531_1794.png,0.0,-1.1048365,0.2776019,-0.9775316
alexnet_w1_mlp_simclrhn_probe1,1,325,NaN,clock,bear,0.4,0325_hp_dnn_0.4_bear_10_n02132136_5612.png,n02132136_5612.png,0.0,-1.1521568,-0.46882558,-0.48318818
alexnet_w1_mlp_simclrhn_probe1,1,326,NaN,boat,boat,1.5,0326_hp_dnn_1.5_boat_10_n04273569_3401.png,n04273569_3401.png,1.0,0.020222569,-1.4980891,1.0736085
alexnet_w1_mlp_simclrhn_probe1,1,327,NaN,bird,cat,3,0327_hp_dnn_3_cat_10_n02125311_16544.png,n02125311_16544.png,0.0,-3.0814285,-1.7724746,-0.9255702
alexnet_w1_mlp_simclrhn_probe1,1,328,NaN,keyboard,clock,1.5,0328_hp_dnn_1.5_clock_10_n03196217_10717.png,n03196217_10717.png,0.0,-0.46694645,0.2489491,-0.5062146
alexnet_w1_mlp_simclrhn_probe1,1,329,NaN,bird,bear,3,0329_hp_dnn_3_bear_10_n02134418_47.png,n02134418_47.png,0.0,-2.9357235,-2.3758607,-0.39588282
alexnet_w1_mlp_simclrhn_probe1,1,330,NaN,keyboard,bottle,3,0330_hp_dnn_3_bottle_10_n04591713_4380.png,n04591713_4380.png,0.0,-2.1578376,-0.21790224,-1.3717415
alexnet_w1_mlp_simclrhn_probe1,1,331,NaN,clock,chair,0.55,0331_hp_dnn_0.55_chair_10_n04429376_8710.png,n04429376_8710.png,0.0,-0.55604124,-0.0051387153,-0.38954693
alexnet_w1_mlp_simclrhn_probe1,1,332,NaN,bicycle,bicycle,3,0332_hp_dnn_3_bicycle_10_n02835271_781.png,n02835271_781.png,1.0,9.192333,-1.1585183,7.319157
alexnet_w1_mlp_simclrhn_probe1,1,333,NaN,cat,bear,1.5,0333_hp_dnn_1.5_bear_10_n02134418_875.png,n02134418_875.png,0.0,-2.1938758,-1.162116,-0.7295643
alexnet_w1_mlp_simclrhn_probe1,1,334,NaN,clock,dog,0.55,0334_hp_dnn_0.55_dog_10_n02094433_10343.png,n02094433_10343.png,0.0,-1.7336003,-0.3712047,-0.9633591
alexnet_w1_mlp_simclrhn_probe1,1,335,NaN,airplane,airplane,3,0335_hp_dnn_3_airplane_10_n02690373_1053.png,n02690373_1053.png,1.0,5.231057,1.7921808,2.4316528
alexnet_w1_mlp_simclrhn_probe1,1,336,NaN,airplane,airplane,3,0336_hp_dnn_3_airplane_10_n02690373_18848.png,n02690373_18848.png,1.0,4.513871,-1.1015708,3.9707174
alexnet_w1_mlp_simclrhn_probe1,1,337,NaN,keyboard,keyboard,3,0337_hp_dnn_3_keyboard_10_n03085013_18741.png,n03085013_18741.png,1.0,0.22342032,-0.8128233,0.7327349
alexnet_w1_mlp_simclrhn_probe1,1,338,NaN,bear,bear,inf,0338_hp_dnn_inf_bear_10_n02134418_3152.png,n02134418_3152.png,1.0,7.115198,1.1112854,4.2454076
alexnet_w1_mlp_simclrhn_probe1,1,339,NaN,bottle,bicycle,1.5,0339_hp_dnn_1.5_bicycle_10_n03792782_14557.png,n03792782_14557.png,0.0,-2.9459436,-2.5693316,-0.26630488
alexnet_w1_mlp_simclrhn_probe1,1,340,NaN,bottle,bird,0.7,0340_hp_dnn_0.7_bird_10_n01796340_5262.png,n01796340_5262.png,0.0,-2.6527772,-1.9088091,-0.52606493
alexnet_w1_mlp_simclrhn_probe1,1,341,NaN,clock,bicycle,1,0341_hp_dnn_1_bicycle_10_n03792782_4559.png,n03792782_4559.png,0.0,-0.2422972,0.18047245,-0.2989433
alexnet_w1_mlp_simclrhn_probe1,1,342,NaN,knife,bear,0.45,0342_hp_dnn_0.45_bear_10_n02134084_3177.png,n02134084_3177.png,0.0,-0.9085913,-0.62180257,-0.20279025
alexnet_w1_mlp_simclrhn_probe1,1,343,NaN,clock,elephant,0.4,0343_hp_dnn_0.4_elephant_10_n02504458_5008.png,n02504458_5008.png,0.0,-0.912389,-0.57655895,-0.23746769
alexnet_w1_mlp_simclrhn_probe1,1,344,NaN,keyboard,oven,3,0344_hp_dnn_3_oven_10_n04111531_7955.png,n04111531_7955.png,0.0,-1.9899552,-1.6372948,-0.24936858
alexnet_w1_mlp_simclrhn_probe1,1,345,NaN,bicycle,bicycle,inf,0345_hp_dnn_inf_bicycle_10_n02835271_13793.png,n02835271_13793.png,1.0,0.47978652,-2.9128857,2.3989816
alexnet_w1_mlp_simclrhn_probe1,1,346,NaN,clock,keyboard,0.45,0346_hp_dnn_0.45_keyboard_10_n03085013_14810.png,n03085013_14810.png,0.0,-0.4834412,0.055982944,-0.38143045
alexnet_w1_mlp_simclrhn_probe1,1,347,NaN,clock,car,0.7,0347_hp_dnn_0.7_car_10_n02814533_39933.png,n02814533_39933.png,0.0,-1.8225164,0.117185,-1.3715761
alexnet_w1_mlp_simclrhn_probe1,1,348,NaN,bird,bird,1,0348_hp_dnn_1_bird_10_n02027492_4897.png,n02027492_4897.png,1.0,0.2094052,-2.3559215,1.81396
alexnet_w1_mlp_simclrhn_probe1,1,349,NaN,bicycle,keyboard,3,0349_hp_dnn_3_keyboard_10_n03085013_23776.png,n03085013_23776.png,0.0,-1.9087527,-1.665764,-0.17181897
alexnet_w1_mlp_simclrhn_probe1,1,350,NaN,airplane,car,1.5,0350_hp_dnn_1.5_car_10_n02814533_31493.png,n02814533_31493.png,0.0,-0.1179305,0.5311502,-0.4589694
alexnet_w1_mlp_simclrhn_probe1,1,351,NaN,airplane,boat,1.5,0351_hp_dnn_1.5_boat_10_n03344393_7631.png,n03344393_7631.png,0.0,-0.8914997,-0.78581303,-0.07473176
alexnet_w1_mlp_simclrhn_probe1,1,352,NaN,clock,bicycle,0.4,0352_hp_dnn_0.4_bicycle_10_n02835271_1261.png,n02835271_1261.png,0.0,-0.5011536,-0.031210363,-0.33230004
alexnet_w1_mlp_simclrhn_probe1,1,353,NaN,clock,clock,1,0353_hp_dnn_1_clock_10_n03196217_1850.png,n03196217_1850.png,1.0,0.50842094,-0.5429848,0.74345607
alexnet_w1_mlp_simclrhn_probe1,1,354,NaN,bear,bear,inf,0354_hp_dnn_inf_bear_10_n02132136_22387.png,n02132136_22387.png,1.0,4.496788,0.59218806,2.7609692
alexnet_w1_mlp_simclrhn_probe1,1,355,NaN,airplane,airplane,1.5,0355_hp_dnn_1.5_airplane_10_n02690373_2316.png,n02690373_2316.png,1.0,0.66040474,-1.1454403,1.2769253
alexnet_w1_mlp_simclrhn_probe1,1,356,NaN,elephant,cat,0.7,0356_hp_dnn_0.7_cat_10_n02123597_3634.png,n02123597_3634.png,0.0,-1.3040191,-1.1235344,-0.12762192
alexnet_w1_mlp_simclrhn_probe1,1,357,NaN,clock,bird,0.45,0357_hp_dnn_0.45_bird_10_n02018207_4151.png,n02018207_4151.png,0.0,-0.66688174,-0.5482443,-0.08388934
alexnet_w1_mlp_simclrhn_probe1,1,358,NaN,clock,knife,0.7,0358_hp_dnn_0.7_knife_10_n03041632_94155.png,n03041632_94155.png,0.0,-1.7083979,-0.12787361,-1.1175994
alexnet_w1_mlp_simclrhn_probe1,1,359,NaN,clock,bottle,0.45,0359_hp_dnn_0.45_bottle_10_n04560804_7509.png,n04560804_7509.png,0.0,-0.7065791,0.20424221,-0.6440479
alexnet_w1_mlp_simclrhn_probe1,1,360,NaN,clock,cat,0.4,0360_hp_dnn_0.4_cat_10_n02123045_12748.png,n02123045_12748.png,0.0,-0.83110785,-0.4452705,-0.27282822
alexnet_w1_mlp_simclrhn_probe1,1,361,NaN,clock,elephant,0.7,0361_hp_dnn_0.7_elephant_10_n02504013_6.png,n02504013_6.png,0.0,-1.2015951,-0.23983999,-0.68006355
alexnet_w1_mlp_simclrhn_probe1,1,362,NaN,clock,elephant,0.4,0362_hp_dnn_0.4_elephant_10_n02504013_1492.png,n02504013_1492.png,0.0,-1.0450817,-0.037323486,-0.7125927
alexnet_w1_mlp_simclrhn_probe1,1,363,NaN,clock,dog,0.4,0363_hp_dnn_0.4_dog_10_n02107142_27162.png,n02107142_27162.png,0.0,-1.5200355,-0.54871464,-0.6868276
alexnet_w1_mlp_simclrhn_probe1,1,364,NaN,clock,bear,0.7,0364_hp_dnn_0.7_bear_10_n02134418_962.png,n02134418_962.png,0.0,-1.691879,-0.5611995,-0.79951125
alexnet_w1_mlp_simclrhn_probe1,1,365,NaN,clock,truck,0.7,0365_hp_dnn_0.7_truck_10_n03417042_9693.png,n03417042_9693.png,0.0,0.10888272,0.19823222,-0.06317964
alexnet_w1_mlp_simclrhn_probe1,1,366,NaN,clock,oven,1,0366_hp_dnn_1_oven_10_n04111531_2116.png,n04111531_2116.png,0.0,-2.0032742,-0.6222579,-0.97652596
alexnet_w1_mlp_simclrhn_probe1,1,367,NaN,keyboard,keyboard,inf,0367_hp_dnn_inf_keyboard_10_n03085013_20460.png,n03085013_20460.png,1.0,2.425308,-0.5349347,2.0932078
alexnet_w1_mlp_simclrhn_probe1,1,368,NaN,clock,bird,0.45,0368_hp_dnn_0.45_bird_10_n01796340_6191.png,n01796340_6191.png,0.0,-1.0341363,-0.43757203,-0.42183468
alexnet_w1_mlp_simclrhn_probe1,1,369,NaN,chair,oven,1.5,0369_hp_dnn_1.5_oven_10_n04111531_8046.png,n04111531_8046.png,0.0,-1.4289536,-0.9348389,-0.3493919
alexnet_w1_mlp_simclrhn_probe1,1,370,NaN,clock,boat,0.45,0370_hp_dnn_0.45_boat_10_n03344393_11788.png,n03344393_11788.png,0.0,-0.88637793,-0.10498754,-0.5525264
alexnet_w1_mlp_simclrhn_probe1,1,371,NaN,cat,cat,inf,0371_hp_dnn_inf_cat_10_n02123394_2765.png,n02123394_2765.png,1.0,2.8489227,-2.2862737,3.6311324
alexnet_w1_mlp_simclrhn_probe1,1,372,NaN,clock,bicycle,0.4,0372_hp_dnn_0.4_bicycle_10_n03792782_26834.png,n03792782_26834.png,0.0,-0.12781695,0.20466836,-0.23510262
alexnet_w1_mlp_simclrhn_probe1,1,373,NaN,clock,cat,1.5,0373_hp_dnn_1.5_cat_10_n02125311_37036.png,n02125311_37036.png,0.0,-2.7281132,-1.9300255,-0.56433326
alexnet_w1_mlp_simclrhn_probe1,1,374,NaN,bicycle,bicycle,0.7,0374_hp_dnn_0.7_bicycle_10_n03792782_4067.png,n03792782_4067.png,1.0,-0.79360235,-0.89789224,0.07374409
alexnet_w1_mlp_simclrhn_probe1,1,375,NaN,bear,bear,inf,0375_hp_dnn_inf_bear_10_n02134418_3886.png,n02134418_3886.png,1.0,4.5069847,4.185608,0.22724771
alexnet_w1_mlp_simclrhn_probe1,1,376,NaN,clock,dog,0.7,0376_hp_dnn_0.7_dog_10_n02110185_9014.png,n02110185_9014.png,0.0,-3.23939,0.4318529,-2.5959606
alexnet_w1_mlp_simclrhn_probe1,1,377,NaN,oven,bear,inf,0377_hp_dnn_inf_bear_10_n02134084_14888.png,n02134084_14888.png,0.0,-0.8292068,1.5489767,-1.6816297
alexnet_w1_mlp_simclrhn_probe1,1,378,NaN,clock,truck,1.5,0378_hp_dnn_1.5_truck_10_n03417042_5249.png,n03417042_5249.png,0.0,-3.018625,-0.22866102,-1.9728025
alexnet_w1_mlp_simclrhn_probe1,1,379,NaN,clock,oven,1,0379_hp_dnn_1_oven_10_n04111531_10711.png,n04111531_10711.png,0.0,-2.7422457,-1.5310572,-0.8564396
alexnet_w1_mlp_simclrhn_probe1,1,380,NaN,clock,car,1.5,0380_hp_dnn_1.5_car_10_n04285008_15271.png,n04285008_15271.png,0.0,-0.6414064,0.28634062,-0.65601623
alexnet_w1_mlp_simclrhn_probe1,1,381,NaN,clock,cat,0.45,0381_hp_dnn_0.45_cat_10_n02123597_12232.png,n02123597_12232.png,0.0,-0.72243994,-0.34914485,-0.2639595
alexnet_w1_mlp_simclrhn_probe1,1,382,NaN,chair,clock,3,0382_hp_dnn_3_clock_10_n04548280_8083.png,n04548280_8083.png,0.0,-1.18159,0.38915393,-1.1106837
alexnet_w1_mlp_simclrhn_probe1,1,383,NaN,clock,chair,0.45,0383_hp_dnn_0.45_chair_10_n04099969_8946.png,n04099969_8946.png,0.0,-0.27960277,-0.0063093402,-0.19324765
alexnet_w1_mlp_simclrhn_probe1,1,384,NaN,airplane,keyboard,0.7,0384_hp_dnn_0.7_keyboard_10_n03085013_21973.png,n03085013_21973.png,0.0,-0.991947,-0.3428001,-0.4590162
alexnet_w1_mlp_simclrhn_probe1,1,385,NaN,clock,bottle,0.7,0385_hp_dnn_0.7_bottle_10_n04560804_15225.png,n04560804_15225.png,0.0,-1.3776487,-0.5066797,-0.6158681
alexnet_w1_mlp_simclrhn_probe1,1,386,NaN,cat,cat,inf,0386_hp_dnn_inf_cat_10_n02123045_10395.png,n02123045_10395.png,1.0,9.75708,-3.0193403,9.034294
alexnet_w1_mlp_simclrhn_probe1,1,387,NaN,clock,truck,0.45,0387_hp_dnn_0.45_truck_10_n03417042_4188.png,n03417042_4188.png,0.0,-0.9723543,-0.14951652,-0.5818342
alexnet_w1_mlp_simclrhn_probe1,1,388,NaN,keyboard,keyboard,1.5,0388_hp_dnn_1.5_keyboard_10_n03085013_21615.png,n03085013_21615.png,1.0,5.65707,-1.7116642,5.210482
alexnet_w1_mlp_simclrhn_probe1,1,389,NaN,knife,knife,inf,0389_hp_dnn_inf_knife_10_n03041632_26989.png,n03041632_26989.png,1.0,1.4341391,-1.3860698,1.9941889
alexnet_w1_mlp_simclrhn_probe1,1,390,NaN,airplane,airplane,0.55,0390_hp_dnn_0.55_airplane_10_n02690373_16986.png,n02690373_16986.png,1.0,0.49201146,-0.017764263,0.36046585
alexnet_w1_mlp_simclrhn_probe1,1,391,NaN,bicycle,bicycle,inf,0391_hp_dnn_inf_bicycle_10_n02835271_9067.png,n02835271_9067.png,1.0,11.67916,-5.760273,12.331542
alexnet_w1_mlp_simclrhn_probe1,1,392,NaN,clock,dog,0.45,0392_hp_dnn_0.45_dog_10_n02106382_9188.png,n02106382_9188.png,0.0,-1.828543,-0.60738486,-0.86348915
alexnet_w1_mlp_simclrhn_probe1,1,393,NaN,boat,boat,inf,0393_hp_dnn_inf_boat_10_n02951358_3205.png,n02951358_3205.png,1.0,4.8576775,-3.316842,5.780258
alexnet_w1_mlp_simclrhn_probe1,1,394,NaN,clock,knife,0.4,0394_hp_dnn_0.4_knife_10_n03041632_45270.png,n03041632_45270.png,0.0,-0.9499067,-0.038308304,-0.6445974
alexnet_w1_mlp_simclrhn_probe1,1,395,NaN,car,car,inf,0395_hp_dnn_inf_car_10_n03100240_6376.png,n03100240_6376.png,1.0,4.398024,1.1757016,2.278526
alexnet_w1_mlp_simclrhn_probe1,1,396,NaN,truck,truck,1,0396_hp_dnn_1_truck_10_n03796401_430.png,n03796401_430.png,1.0,0.38180888,0.054445628,0.23148078
alexnet_w1_mlp_simclrhn_probe1,1,397,NaN,clock,knife,0.7,0397_hp_dnn_0.7_knife_10_n03041632_24181.png,n03041632_24181.png,0.0,-0.7740994,-0.5432274,-0.16325119
alexnet_w1_mlp_simclrhn_probe1,1,398,NaN,clock,bear,1,0398_hp_dnn_1_bear_10_n02134084_16190.png,n02134084_16190.png,0.0,-1.9284408,-0.919679,-0.7133024
alexnet_w1_mlp_simclrhn_probe1,1,399,NaN,clock,bear,0.55,0399_hp_dnn_0.55_bear_10_n02132136_7253.png,n02132136_7253.png,0.0,-2.2906423,-0.106437616,-1.5444659
alexnet_w1_mlp_simclrhn_probe1,1,400,NaN,clock,boat,1,0400_hp_dnn_1_boat_10_n03662601_34676.png,n03662601_34676.png,0.0,-2.0640721,-0.5183546,-1.0929873
alexnet_w1_mlp_simclrhn_probe1,1,401,NaN,clock,knife,0.55,0401_hp_dnn_0.55_knife_10_n03041632_81471.png,n03041632_81471.png,0.0,-2.3802059,0.082214005,-1.7411939
alexnet_w1_mlp_simclrhn_probe1,1,402,NaN,clock,cat,0.7,0402_hp_dnn_0.7_cat_10_n02123597_3822.png,n02123597_3822.png,0.0,-0.92523336,-0.2997699,-0.44226947
alexnet_w1_mlp_simclrhn_probe1,1,403,NaN,keyboard,keyboard,1.5,0403_hp_dnn_1.5_keyboard_10_n03085013_4823.png,n03085013_4823.png,1.0,1.7009995,-1.2870239,2.1128516
alexnet_w1_mlp_simclrhn_probe1,1,404,NaN,clock,dog,0.4,0404_hp_dnn_0.4_dog_10_n02108551_8385.png,n02108551_8385.png,0.0,-1.5335696,-0.45680895,-0.7613848
alexnet_w1_mlp_simclrhn_probe1,1,405,NaN,clock,cat,0.7,0405_hp_dnn_0.7_cat_10_n02124075_8732.png,n02124075_8732.png,0.0,-1.0576533,-0.92182523,-0.09604496
alexnet_w1_mlp_simclrhn_probe1,1,406,NaN,bicycle,dog,3,0406_hp_dnn_3_dog_10_n02093428_17625.png,n02093428_17625.png,0.0,-5.2264943,-1.9458137,-2.3197916
alexnet_w1_mlp_simclrhn_probe1,1,407,NaN,car,chair,inf,0407_hp_dnn_inf_chair_10_n02791124_6999.png,n02791124_6999.png,0.0,-0.38711262,0.740138,-0.7970866
alexnet_w1_mlp_simclrhn_probe1,1,408,NaN,bird,bird,3,0408_hp_dnn_3_bird_10_n02028035_521.png,n02028035_521.png,1.0,-1.3650818,-2.4272537,0.751069
alexnet_w1_mlp_simclrhn_probe1,1,409,NaN,clock,truck,0.4,0409_hp_dnn_0.4_truck_10_n03417042_750.png,n03417042_750.png,0.0,-1.4988661,-0.28627977,-0.857428
alexnet_w1_mlp_simclrhn_probe1,1,410,NaN,airplane,airplane,inf,0410_hp_dnn_inf_airplane_10_n02690373_5779.png,n02690373_5779.png,1.0,8.756081,2.4113393,4.4864097
alexnet_w1_mlp_simclrhn_probe1,1,411,NaN,cat,cat,1.5,0411_hp_dnn_1.5_cat_10_n02123045_7154.png,n02123045_7154.png,1.0,-2.6373556,-3.362202,0.5125438
alexnet_w1_mlp_simclrhn_probe1,1,412,NaN,bottle,bottle,1.5,0412_hp_dnn_1.5_bottle_10_n04591713_6958.png,n04591713_6958.png,1.0,1.166202,-0.7597917,1.3618832
alexnet_w1_mlp_simclrhn_probe1,1,413,NaN,bicycle,bird,1.5,0413_hp_dnn_1.5_bird_10_n01818515_42621.png,n01818515_42621.png,0.0,-1.6707238,-1.6220663,-0.034406073
alexnet_w1_mlp_simclrhn_probe1,1,414,NaN,truck,truck,inf,0414_hp_dnn_inf_truck_10_n03796401_1330.png,n03796401_1330.png,1.0,5.3293867,3.0858932,1.5863895
alexnet_w1_mlp_simclrhn_probe1,1,415,NaN,bird,bird,1.5,0415_hp_dnn_1.5_bird_10_n01843065_6365.png,n01843065_6365.png,1.0,-1.1276778,-2.4087844,0.9058792
alexnet_w1_mlp_simclrhn_probe1,1,416,NaN,bottle,bottle,1.5,0416_hp_dnn_1.5_bottle_10_n03983396_11898.png,n03983396_11898.png,1.0,-1.3707322,-1.8004051,0.30382466
alexnet_w1_mlp_simclrhn_probe1,1,417,NaN,bird,bird,3,0417_hp_dnn_3_bird_10_n01530575_3831.png,n01530575_3831.png,1.0,-0.7282517,-2.4777012,1.2370477
alexnet_w1_mlp_simclrhn_probe1,1,418,NaN,clock,bottle,0.4,0418_hp_dnn_0.4_bottle_10_n03983396_8837.png,n03983396_8837.png,0.0,-0.66273767,-0.1758432,-0.3442864
alexnet_w1_mlp_simclrhn_probe1,1,419,NaN,car,car,0.7,0419_hp_dnn_0.7_car_10_n02814533_90798.png,n02814533_90798.png,1.0,0.57435936,0.5472646,0.019158904
alexnet_w1_mlp_simclrhn_probe1,1,420,NaN,bird,bird,3,0420_hp_dnn_3_bird_10_n01819313_3440.png,n01819313_3440.png,1.0,-1.392028,-2.517944,0.79614294
alexnet_w1_mlp_simclrhn_probe1,1,421,NaN,clock,dog,0.55,0421_hp_dnn_0.55_dog_10_n02090721_4433.png,n02090721_4433.png,0.0,-2.440997,-0.7195573,-1.2172416
alexnet_w1_mlp_simclrhn_probe1,1,422,NaN,elephant,elephant,3,0422_hp_dnn_3_elephant_10_n02504013_9566.png,n02504013_9566.png,1.0,-0.8027662,-2.0882761,0.9089928
alexnet_w1_mlp_simclrhn_probe1,1,423,NaN,cat,dog,1.5,0423_hp_dnn_1.5_dog_10_n02105251_6599.png,n02105251_6599.png,0.0,-3.377411,-2.0042796,-0.9709504
alexnet_w1_mlp_simclrhn_probe1,1,424,NaN,clock,chair,0.7,0424_hp_dnn_0.7_chair_10_n02791124_5759.png,n02791124_5759.png,0.0,-0.2763873,0.32477283,-0.42508444
alexnet_w1_mlp_simclrhn_probe1,1,425,NaN,elephant,elephant,inf,0425_hp_dnn_inf_elephant_10_n02504458_150.png,n02504458_150.png,1.0,5.183951,-0.6860093,4.1506886
alexnet_w1_mlp_simclrhn_probe1,1,426,NaN,clock,clock,0.45,0426_hp_dnn_0.45_clock_10_n04548280_10040.png,n04548280_10040.png,1.0,1.5324682,-0.7482137,1.6126857
alexnet_w1_mlp_simclrhn_probe1,1,427,NaN,clock,elephant,0.7,0427_hp_dnn_0.7_elephant_10_n02504458_155.png,n02504458_155.png,0.0,-2.36913,-0.21142292,-1.5257293
alexnet_w1_mlp_simclrhn_probe1,1,428,NaN,knife,knife,1,0428_hp_dnn_1_knife_10_n03041632_48062.png,n03041632_48062.png,1.0,-0.08231141,-0.37362716,0.20599133
alexnet_w1_mlp_simclrhn_probe1,1,429,NaN,airplane,truck,1.5,0429_hp_dnn_1.5_truck_10_n04467665_40361.png,n04467665_40361.png,0.0,-0.089662224,0.13055219,-0.15571511
alexnet_w1_mlp_simclrhn_probe1,1,430,NaN,clock,bird,0.45,0430_hp_dnn_0.45_bird_10_n01614925_7608.png,n01614925_7608.png,0.0,-1.0313679,-0.06854268,-0.6808203
alexnet_w1_mlp_simclrhn_probe1,1,431,NaN,clock,bear,0.45,0431_hp_dnn_0.45_bear_10_n02133161_2749.png,n02133161_2749.png,0.0,-1.3937258,-0.4044715,-0.69950837
alexnet_w1_mlp_simclrhn_probe1,1,432,NaN,boat,boat,0.55,0432_hp_dnn_0.55_boat_10_n04612504_654.png,n04612504_654.png,1.0,-0.5600191,-0.6137603,0.03800078
alexnet_w1_mlp_simclrhn_probe1,1,433,NaN,bottle,bottle,1,0433_hp_dnn_1_bottle_10_n04579145_287.png,n04579145_287.png,1.0,1.139738,0.44360796,0.49223828
alexnet_w1_mlp_simclrhn_probe1,1,434,NaN,bird,bear,3,0434_hp_dnn_3_bear_10_n02133161_1423.png,n02133161_1423.png,0.0,-3.5808413,-1.1823303,-1.6960033
alexnet_w1_mlp_simclrhn_probe1,1,435,NaN,bicycle,bicycle,0.7,0435_hp_dnn_0.7_bicycle_10_n02835271_4656.png,n02835271_4656.png,1.0,0.6552723,0.12934585,0.3718862
alexnet_w1_mlp_simclrhn_probe1,1,436,NaN,clock,clock,0.7,0436_hp_dnn_0.7_clock_10_n02708093_3688.png,n02708093_3688.png,1.0,0.45177272,-0.87567943,0.9386504
alexnet_w1_mlp_simclrhn_probe1,1,437,NaN,airplane,airplane,inf,0437_hp_dnn_inf_airplane_10_n02690373_10278.png,n02690373_10278.png,1.0,1.3016579,-1.0398228,1.655677
alexnet_w1_mlp_simclrhn_probe1,1,438,NaN,clock,car,0.4,0438_hp_dnn_0.4_car_10_n04285008_11133.png,n04285008_11133.png,0.0,-1.2719079,-0.27163258,-0.7073015
alexnet_w1_mlp_simclrhn_probe1,1,439,NaN,clock,knife,1,0439_hp_dnn_1_knife_10_n03041632_4214.png,n03041632_4214.png,0.0,-0.56512463,-0.45324525,-0.07911067
alexnet_w1_mlp_simclrhn_probe1,1,440,NaN,knife,oven,inf,0440_hp_dnn_inf_oven_10_n04111531_7741.png,n04111531_7741.png,0.0,-2.152453,-1.6420269,-0.36092573
alexnet_w1_mlp_simclrhn_probe1,1,441,NaN,bicycle,bicycle,3,0441_hp_dnn_3_bicycle_10_n03792782_4472.png,n03792782_4472.png,1.0,3.5617583,-4.054451,5.3854733
alexnet_w1_mlp_simclrhn_probe1,1,442,NaN,clock,bird,0.7,0442_hp_dnn_0.7_bird_10_n01798484_18666.png,n01798484_18666.png,0.0,-2.7894208,-0.99384934,-1.2696608
alexnet_w1_mlp_simclrhn_probe1,1,443,NaN,keyboard,keyboard,1.5,0443_hp_dnn_1.5_keyboard_10_n04505470_5059.png,n04505470_5059.png,1.0,-0.16042203,-1.1620829,0.70828116
alexnet_w1_mlp_simclrhn_probe1,1,444,NaN,clock,elephant,0.55,0444_hp_dnn_0.55_elephant_10_n02504013_2369.png,n02504013_2369.png,0.0,-1.8496456,-0.22661026,-1.1476593
alexnet_w1_mlp_simclrhn_probe1,1,445,NaN,bottle,bottle,3,0445_hp_dnn_3_bottle_10_n02823428_10796.png,n02823428_10796.png,1.0,-1.8224956,-2.0397315,0.153609
alexnet_w1_mlp_simclrhn_probe1,1,446,NaN,bicycle,oven,3,0446_hp_dnn_3_oven_10_n04111531_4421.png,n04111531_4421.png,0.0,-2.3690414,-1.5781691,-0.5592312
alexnet_w1_mlp_simclrhn_probe1,1,447,NaN,bicycle,bicycle,inf,0447_hp_dnn_inf_bicycle_10_n02835271_7303.png,n02835271_7303.png,1.0,11.10621,-4.4024673,10.96629
alexnet_w1_mlp_simclrhn_probe1,1,448,NaN,chair,chair,inf,0448_hp_dnn_inf_chair_10_n02791124_7877.png,n02791124_7877.png,1.0,-1.1314199,-2.6562774,1.078237
alexnet_w1_mlp_simclrhn_probe1,1,449,NaN,clock,bottle,1.5,0449_hp_dnn_1.5_bottle_10_n04560804_12099.png,n04560804_12099.png,0.0,-1.2416649,-0.49197817,-0.5301086
alexnet_w1_mlp_simclrhn_probe1,1,450,NaN,airplane,boat,1,0450_hp_dnn_1_boat_10_n03662601_18924.png,n03662601_18924.png,0.0,-0.100356326,0.56010497,-0.46701667
alexnet_w1_mlp_simclrhn_probe1,1,451,NaN,clock,bottle,1,0451_hp_dnn_1_bottle_10_n04591713_4206.png,n04591713_4206.png,0.0,-0.6183829,-0.18726575,-0.30484584
alexnet_w1_mlp_simclrhn_probe1,1,452,NaN,clock,clock,0.55,0452_hp_dnn_0.55_clock_10_n04548280_6689.png,n04548280_6689.png,1.0,1.012742,-0.40446484,1.0021166
alexnet_w1_mlp_simclrhn_probe1,1,453,NaN,clock,dog,0.4,0453_hp_dnn_0.4_dog_10_n02090721_5305.png,n02090721_5305.png,0.0,-1.4498366,-0.6164729,-0.58927715
alexnet_w1_mlp_simclrhn_probe1,1,454,NaN,airplane,clock,0.7,0454_hp_dnn_0.7_clock_10_n03196217_1746.png,n03196217_1746.png,0.0,-0.33775523,-0.19668561,-0.099751286
alexnet_w1_mlp_simclrhn_probe1,1,455,NaN,keyboard,keyboard,3,0455_hp_dnn_3_keyboard_10_n04505470_7721.png,n04505470_7721.png,1.0,3.350291,-1.3523949,3.3253012
alexnet_w1_mlp_simclrhn_probe1,1,456,NaN,clock,clock,0.55,0456_hp_dnn_0.55_clock_10_n04548280_3248.png,n04548280_3248.png,1.0,0.8677893,-0.58705866,1.0287329
alexnet_w1_mlp_simclrhn_probe1,1,457,NaN,bird,bird,inf,0457_hp_dnn_inf_bird_10_n01534433_28009.png,n01534433_28009.png,1.0,3.3742902,-5.030968,5.943415
alexnet_w1_mlp_simclrhn_probe1,1,458,NaN,clock,chair,0.4,0458_hp_dnn_0.4_chair_10_n04099969_142.png,n04099969_142.png,0.0,-0.61057043,-0.48245683,-0.09058999
alexnet_w1_mlp_simclrhn_probe1,1,459,NaN,bicycle,bicycle,0.55,0459_hp_dnn_0.55_bicycle_10_n03792782_7092.png,n03792782_7092.png,1.0,0.8645947,0.65772533,0.14627874
alexnet_w1_mlp_simclrhn_probe1,1,460,NaN,clock,keyboard,0.45,0460_hp_dnn_0.45_keyboard_10_n03085013_25559.png,n03085013_25559.png,0.0,-0.893938,-0.34988394,-0.3847043
alexnet_w1_mlp_simclrhn_probe1,1,461,NaN,clock,elephant,0.7,0461_hp_dnn_0.7_elephant_10_n02504013_9144.png,n02504013_9144.png,0.0,-1.3312957,-0.58711284,-0.52621675
alexnet_w1_mlp_simclrhn_probe1,1,462,NaN,clock,clock,0.45,0462_hp_dnn_0.45_clock_10_n03196217_2003.png,n03196217_2003.png,1.0,0.19882835,0.17442776,0.017253824
alexnet_w1_mlp_simclrhn_probe1,1,463,NaN,elephant,elephant,1,0463_hp_dnn_1_elephant_10_n02504013_3169.png,n02504013_3169.png,1.0,-1.063427,-1.4712193,0.28835273
alexnet_w1_mlp_simclrhn_probe1,1,464,NaN,clock,dog,0.55,0464_hp_dnn_0.55_dog_10_n02089867_6424.png,n02089867_6424.png,0.0,-2.376043,-0.25812492,-1.4975944
alexnet_w1_mlp_simclrhn_probe1,1,465,NaN,clock,keyboard,1,0465_hp_dnn_1_keyboard_10_n03085013_22494.png,n03085013_22494.png,0.0,-1.0533029,0.4669683,-1.0749941
alexnet_w1_mlp_simclrhn_probe1,1,466,NaN,clock,dog,0.4,0466_hp_dnn_0.4_dog_10_n02106662_37555.png,n02106662_37555.png,0.0,-1.4492291,-0.5846979,-0.6113159
alexnet_w1_mlp_simclrhn_probe1,1,467,NaN,clock,car,0.55,0467_hp_dnn_0.55_car_10_n02814533_4726.png,n02814533_4726.png,0.0,-0.666327,0.37399924,-0.73562175
alexnet_w1_mlp_simclrhn_probe1,1,468,NaN,clock,elephant,0.45,0468_hp_dnn_0.45_elephant_10_n02504458_1473.png,n02504458_1473.png,0.0,-1.1255739,-0.1459316,-0.6927117
alexnet_w1_mlp_simclrhn_probe1,1,469,NaN,clock,bottle,0.55,0469_hp_dnn_0.55_bottle_10_n04557648_3350.png,n04557648_3350.png,0.0,-0.85987633,-0.32752338,-0.37643036
alexnet_w1_mlp_simclrhn_probe1,1,470,NaN,clock,knife,0.4,0470_hp_dnn_0.4_knife_10_n03041632_31909.png,n03041632_31909.png,0.0,-0.6825438,-0.09160238,-0.4178587
alexnet_w1_mlp_simclrhn_probe1,1,471,NaN,clock,truck,0.4,0471_hp_dnn_0.4_truck_10_n04467665_70880.png,n04467665_70880.png,0.0,-1.4968787,-0.35530195,-0.8072167
alexnet_w1_mlp_simclrhn_probe1,1,472,NaN,clock,dog,0.45,0472_hp_dnn_0.45_dog_10_n02097209_7557.png,n02097209_7557.png,0.0,-1.6877258,-0.3220518,-0.9656774
alexnet_w1_mlp_simclrhn_probe1,1,473,NaN,clock,oven,1,0473_hp_dnn_1_oven_10_n04111531_4438.png,n04111531_4438.png,0.0,-2.0959616,-0.7554521,-0.9478833
alexnet_w1_mlp_simclrhn_probe1,1,474,NaN,airplane,airplane,0.7,0474_hp_dnn_0.7_airplane_10_n02690373_194.png,n02690373_194.png,1.0,0.5194313,-0.49288228,0.7158138
alexnet_w1_mlp_simclrhn_probe1,1,475,NaN,bicycle,bicycle,1.5,0475_hp_dnn_1.5_bicycle_10_n02835271_6953.png,n02835271_6953.png,1.0,1.4745908,-1.2300959,1.9125023
alexnet_w1_mlp_simclrhn_probe1,1,476,NaN,clock,oven,0.45,0476_hp_dnn_0.45_oven_10_n04111531_14435.png,n04111531_14435.png,0.0,-1.7840476,0.021491,-1.2767086
alexnet_w1_mlp_simclrhn_probe1,1,477,NaN,bicycle,elephant,1.5,0477_hp_dnn_1.5_elephant_10_n02504013_5192.png,n02504013_5192.png,0.0,-2.2238736,-0.5831094,-1.1601956
alexnet_w1_mlp_simclrhn_probe1,1,478,NaN,bicycle,chair,0.7,0478_hp_dnn_0.7_chair_10_n03376595_3566.png,n03376595_3566.png,0.0,-0.74958026,-0.16541204,-0.4130693
alexnet_w1_mlp_simclrhn_probe1,1,479,NaN,clock,truck,1,0479_hp_dnn_1_truck_10_n03417042_22709.png,n03417042_22709.png,0.0,-2.0252228,-0.73247224,-0.91411275
alexnet_w1_mlp_simclrhn_probe1,1,480,NaN,keyboard,keyboard,inf,0480_hp_dnn_inf_keyboard_10_n04505470_4603.png,n04505470_4603.png,1.0,9.052505,2.5611095,4.5901093
alexnet_w1_mlp_simclrhn_probe1,1,481,NaN,clock,car,0.55,0481_hp_dnn_0.55_car_10_n03100240_1794.png,n03100240_1794.png,0.0,-0.76413256,0.22258896,-0.6977175
alexnet_w1_mlp_simclrhn_probe1,1,482,NaN,clock,elephant,0.7,0482_hp_dnn_0.7_elephant_10_n02504458_1233.png,n02504458_1233.png,0.0,-2.1193092,-0.6571427,-1.0339079
alexnet_w1_mlp_simclrhn_probe1,1,483,NaN,clock,airplane,0.45,0483_hp_dnn_0.45_airplane_10_n02690373_3047.png,n02690373_3047.png,0.0,-0.37434095,-0.36576152,-0.006066575
alexnet_w1_mlp_simclrhn_probe1,1,484,NaN,clock,elephant,0.55,0484_hp_dnn_0.55_elephant_10_n02504013_7422.png,n02504013_7422.png,0.0,-0.42397243,-0.35598668,-0.04807318
alexnet_w1_mlp_simclrhn_probe1,1,485,NaN,clock,bicycle,0.45,0485_hp_dnn_0.45_bicycle_10_n03792782_16034.png,n03792782_16034.png,0.0,-0.80320925,0.00020515919,-0.5680998
alexnet_w1_mlp_simclrhn_probe1,1,486,NaN,bicycle,bicycle,3,0486_hp_dnn_3_bicycle_10_n02835271_11922.png,n02835271_11922.png,1.0,0.994886,-0.9605191,1.3826802
alexnet_w1_mlp_simclrhn_probe1,1,487,NaN,clock,truck,0.7,0487_hp_dnn_0.7_truck_10_n03796401_6526.png,n03796401_6526.png,0.0,-0.9693918,0.25000247,-0.862242
alexnet_w1_mlp_simclrhn_probe1,1,488,NaN,boat,boat,3,0488_hp_dnn_3_boat_10_n03662601_1834.png,n03662601_1834.png,1.0,2.392306,-2.8211966,3.6865034
alexnet_w1_mlp_simclrhn_probe1,1,489,NaN,clock,dog,0.7,0489_hp_dnn_0.7_dog_10_n02100236_619.png,n02100236_619.png,0.0,-3.0142431,-1.343397,-1.1814666
alexnet_w1_mlp_simclrhn_probe1,1,490,NaN,clock,truck,0.45,0490_hp_dnn_0.45_truck_10_n04467665_21266.png,n04467665_21266.png,0.0,-1.0779834,-0.05947271,-0.72019583
alexnet_w1_mlp_simclrhn_probe1,1,491,NaN,clock,chair,0.55,0491_hp_dnn_0.55_chair_10_n04099969_18220.png,n04099969_18220.png,0.0,-0.083624214,0.123330265,-0.14633892
alexnet_w1_mlp_simclrhn_probe1,1,492,NaN,keyboard,keyboard,1.5,0492_hp_dnn_1.5_keyboard_10_n03085013_4157.png,n03085013_4157.png,1.0,0.765572,0.00064928335,0.54088205
alexnet_w1_mlp_simclrhn_probe1,1,493,NaN,clock,bicycle,0.4,0493_hp_dnn_0.4_bicycle_10_n03792782_1276.png,n03792782_1276.png,0.0,-0.9177263,-0.16280018,-0.53381336
alexnet_w1_mlp_simclrhn_probe1,1,494,NaN,boat,boat,3,0494_hp_dnn_3_boat_10_n03344393_1987.png,n03344393_1987.png,1.0,3.0669336,-0.8154559,2.745264
alexnet_w1_mlp_simclrhn_probe1,1,495,NaN,airplane,boat,0.45,0495_hp_dnn_0.45_boat_10_n03344393_381.png,n03344393_381.png,0.0,-0.46625155,0.043842524,-0.36069095
alexnet_w1_mlp_simclrhn_probe1,1,496,NaN,clock,clock,inf,0496_hp_dnn_inf_clock_10_n02708093_8390.png,n02708093_8390.png,1.0,4.2305336,0.118572384,2.9075959
alexnet_w1_mlp_simclrhn_probe1,1,497,NaN,keyboard,keyboard,0.55,0497_hp_dnn_0.55_keyboard_10_n04505470_1043.png,n04505470_1043.png,1.0,1.7573454,-0.41506934,1.5361292
alexnet_w1_mlp_simclrhn_probe1,1,498,NaN,clock,dog,0.55,0498_hp_dnn_0.55_dog_10_n02100877_1902.png,n02100877_1902.png,0.0,-2.5050743,-0.7775355,-1.2215544
alexnet_w1_mlp_simclrhn_probe1,1,499,NaN,clock,knife,1.5,0499_hp_dnn_1.5_knife_10_n03041632_55083.png,n03041632_55083.png,0.0,-0.5392394,-0.17211016,-0.2595996
alexnet_w1_mlp_simclrhn_probe1,1,500,NaN,chair,truck,1.5,0500_hp_dnn_1.5_truck_10_n04467665_45872.png,n04467665_45872.png,0.0,-2.3770776,-0.28118405,-1.4820206
alexnet_w1_mlp_simclrhn_probe1,1,501,NaN,knife,boat,0.7,0501_hp_dnn_0.7_boat_10_n04273569_3244.png,n04273569_3244.png,0.0,-2.5979438,-1.5480876,-0.7423604
alexnet_w1_mlp_simclrhn_probe1,1,502,NaN,bird,bear,0.45,0502_hp_dnn_0.45_bear_10_n02134418_2157.png,n02134418_2157.png,0.0,-0.9372025,-0.65848243,-0.19708486
alexnet_w1_mlp_simclrhn_probe1,1,503,NaN,bottle,bottle,3,0503_hp_dnn_3_bottle_10_n04591713_17618.png,n04591713_17618.png,1.0,-0.35733622,-1.1814642,0.5827465
alexnet_w1_mlp_simclrhn_probe1,1,504,NaN,clock,cat,1,0504_hp_dnn_1_cat_10_n02125311_8496.png,n02125311_8496.png,0.0,-2.3549974,-0.5974812,-1.2427516
alexnet_w1_mlp_simclrhn_probe1,1,505,NaN,car,car,inf,0505_hp_dnn_inf_car_10_n02814533_3560.png,n02814533_3560.png,1.0,14.14136,12.518799,1.1473242
alexnet_w1_mlp_simclrhn_probe1,1,506,NaN,clock,truck,0.7,0506_hp_dnn_0.7_truck_10_n03417042_751.png,n03417042_751.png,0.0,-0.98885196,-0.05479811,-0.6604758
alexnet_w1_mlp_simclrhn_probe1,1,507,NaN,chair,keyboard,inf,0507_hp_dnn_inf_keyboard_10_n03085013_23213.png,n03085013_23213.png,0.0,-1.3244388,-1.1436901,-0.12780863
alexnet_w1_mlp_simclrhn_probe1,1,508,NaN,clock,bicycle,0.4,0508_hp_dnn_0.4_bicycle_10_n03792782_19709.png,n03792782_19709.png,0.0,-1.3872974,-0.64822805,-0.52260095
alexnet_w1_mlp_simclrhn_probe1,1,509,NaN,oven,oven,inf,0509_hp_dnn_inf_oven_10_n04111531_3076.png,n04111531_3076.png,1.0,1.985035,0.36324143,1.1467812
alexnet_w1_mlp_simclrhn_probe1,1,510,NaN,knife,knife,0.4,0510_hp_dnn_0.4_knife_10_n03041632_14774.png,n03041632_14774.png,1.0,-0.4155636,-0.4593359,0.030951677
alexnet_w1_mlp_simclrhn_probe1,1,511,NaN,car,car,0.7,0511_hp_dnn_0.7_car_10_n03100240_7703.png,n03100240_7703.png,1.0,1.5435969,0.76515585,0.5504409
alexnet_w1_mlp_simclrhn_probe1,1,512,NaN,clock,bear,0.55,0512_hp_dnn_0.55_bear_10_n02134084_13434.png,n02134084_13434.png,0.0,-1.3126538,-0.4931676,-0.5794642
alexnet_w1_mlp_simclrhn_probe1,1,513,NaN,dog,dog,inf,0513_hp_dnn_inf_dog_10_n02111500_4280.png,n02111500_4280.png,1.0,-0.2850426,-0.627429,0.24210374
alexnet_w1_mlp_simclrhn_probe1,1,514,NaN,knife,bear,0.55,0514_hp_dnn_0.55_bear_10_n02132136_23853.png,n02132136_23853.png,0.0,-1.6246325,-0.83659583,-0.55722606
alexnet_w1_mlp_simclrhn_probe1,1,515,NaN,bicycle,bicycle,1.5,0515_hp_dnn_1.5_bicycle_10_n03792782_17193.png,n03792782_17193.png,1.0,-0.33622622,-1.8639293,1.0802492
alexnet_w1_mlp_simclrhn_probe1,1,516,NaN,bicycle,dog,1,0516_hp_dnn_1_dog_10_n02102177_5770.png,n02102177_5770.png,0.0,-1.8799748,-1.0123341,-0.61351466
alexnet_w1_mlp_simclrhn_probe1,1,517,NaN,elephant,bear,0.7,0517_hp_dnn_0.7_bear_10_n02132136_2279.png,n02132136_2279.png,0.0,-1.3296165,-0.43551475,-0.63222545
alexnet_w1_mlp_simclrhn_probe1,1,518,NaN,elephant,bear,inf,0518_hp_dnn_inf_bear_10_n02134084_6910.png,n02134084_6910.png,0.0,0.48332325,0.6107968,-0.09013742
alexnet_w1_mlp_simclrhn_probe1,1,519,NaN,clock,oven,0.7,0519_hp_dnn_0.7_oven_10_n04111531_9041.png,n04111531_9041.png,0.0,-0.517768,0.058646873,-0.40758687
alexnet_w1_mlp_simclrhn_probe1,1,520,NaN,chair,cat,1,0520_hp_dnn_1_cat_10_n02123159_5424.png,n02123159_5424.png,0.0,-1.2796474,-1.1614249,-0.08359592
alexnet_w1_mlp_simclrhn_probe1,1,521,NaN,clock,bicycle,0.45,0521_hp_dnn_0.45_bicycle_10_n02835271_672.png,n02835271_672.png,0.0,-1.0833714,-0.20108336,-0.62387186
alexnet_w1_mlp_simclrhn_probe1,1,522,NaN,airplane,airplane,0.45,0522_hp_dnn_0.45_airplane_10_n02690373_18111.png,n02690373_18111.png,1.0,-0.31080195,-0.43727526,0.08943014
alexnet_w1_mlp_simclrhn_probe1,1,523,NaN,clock,clock,1,0523_hp_dnn_1_clock_10_n04548280_3013.png,n04548280_3013.png,1.0,2.9615748,-0.009075786,2.1005673
alexnet_w1_mlp_simclrhn_probe1,1,524,NaN,cat,dog,0.45,0524_hp_dnn_0.45_dog_10_n02094258_4142.png,n02094258_4142.png,0.0,-1.5633373,-0.6666582,-0.63404787
alexnet_w1_mlp_simclrhn_probe1,1,525,NaN,clock,clock,3,0525_hp_dnn_3_clock_10_n04548280_6919.png,n04548280_6919.png,1.0,4.880821,-1.301453,4.371528
alexnet_w1_mlp_simclrhn_probe1,1,526,NaN,clock,cat,0.4,0526_hp_dnn_0.4_cat_10_n02124075_16814.png,n02124075_16814.png,0.0,-0.87119603,-0.58272207,-0.2039819
alexnet_w1_mlp_simclrhn_probe1,1,527,NaN,clock,clock,1,0527_hp_dnn_1_clock_10_n04548280_3342.png,n04548280_3342.png,1.0,0.01641806,-1.7874767,1.2755462
alexnet_w1_mlp_simclrhn_probe1,1,528,NaN,clock,boat,1,0528_hp_dnn_1_boat_10_n04612504_31680.png,n04612504_31680.png,0.0,-0.78151035,-0.17956369,-0.42564055
alexnet_w1_mlp_simclrhn_probe1,1,529,NaN,keyboard,keyboard,inf,0529_hp_dnn_inf_keyboard_10_n03085013_7962.png,n03085013_7962.png,1.0,9.664253,-2.969202,8.933202
alexnet_w1_mlp_simclrhn_probe1,1,530,NaN,bicycle,bicycle,3,0530_hp_dnn_3_bicycle_10_n02835271_949.png,n02835271_949.png,1.0,6.2291193,0.10850015,4.3279314
alexnet_w1_mlp_simclrhn_probe1,1,531,NaN,keyboard,keyboard,1,0531_hp_dnn_1_keyboard_10_n04505470_4228.png,n04505470_4228.png,1.0,0.39219657,-0.42041457,0.57460284
alexnet_w1_mlp_simclrhn_probe1,1,532,NaN,clock,boat,0.7,0532_hp_dnn_0.7_boat_10_n03344393_3219.png,n03344393_3219.png,0.0,-1.5655391,-0.6767457,-0.62847185
alexnet_w1_mlp_simclrhn_probe1,1,533,NaN,chair,elephant,3,0533_hp_dnn_3_elephant_10_n02504458_3399.png,n02504458_3399.png,0.0,-4.4711094,-1.3131304,-2.2330284
alexnet_w1_mlp_simclrhn_probe1,1,534,NaN,clock,bird,0.55,0534_hp_dnn_0.55_bird_10_n01616318_12459.png,n01616318_12459.png,0.0,-0.94428474,-0.21544106,-0.5153703
alexnet_w1_mlp_simclrhn_probe1,1,535,NaN,clock,elephant,0.4,0535_hp_dnn_0.4_elephant_10_n02504013_1846.png,n02504013_1846.png,0.0,-0.8432355,-0.6422978,-0.1420844
alexnet_w1_mlp_simclrhn_probe1,1,536,NaN,clock,bicycle,0.55,0536_hp_dnn_0.55_bicycle_10_n03792782_5097.png,n03792782_5097.png,0.0,-0.8738518,0.08716545,-0.6795418
alexnet_w1_mlp_simclrhn_probe1,1,537,NaN,bicycle,bottle,3,0537_hp_dnn_3_bottle_10_n02823428_5115.png,n02823428_5115.png,0.0,-2.6128595,-1.2396729,-0.9709896
alexnet_w1_mlp_simclrhn_probe1,1,538,NaN,keyboard,keyboard,inf,0538_hp_dnn_inf_keyboard_10_n03085013_21282.png,n03085013_21282.png,1.0,3.0798826,2.4540403,0.44253737
alexnet_w1_mlp_simclrhn_probe1,1,539,NaN,clock,oven,0.4,0539_hp_dnn_0.4_oven_10_n04111531_1815.png,n04111531_1815.png,0.0,-0.9720502,-0.14018185,-0.58821976
alexnet_w1_mlp_simclrhn_probe1,1,540,NaN,clock,chair,1,0540_hp_dnn_1_chair_10_n02791124_5268.png,n02791124_5268.png,0.0,-1.2063403,-0.57987833,-0.44297552
alexnet_w1_mlp_simclrhn_probe1,1,541,NaN,airplane,airplane,0.55,0541_hp_dnn_0.55_airplane_10_n02690373_3035.png,n02690373_3035.png,1.0,-0.16956449,-0.28432998,0.08115146
alexnet_w1_mlp_simclrhn_probe1,1,542,NaN,dog,dog,inf,0542_hp_dnn_inf_dog_10_n02107683_1460.png,n02107683_1460.png,1.0,2.5520308,-2.9222572,3.870906
alexnet_w1_mlp_simclrhn_probe1,1,543,NaN,boat,boat,inf,0543_hp_dnn_inf_boat_10_n02951358_31813.png,n02951358_31813.png,1.0,4.5374146,0.78885055,2.650635
alexnet_w1_mlp_simclrhn_probe1,1,544,NaN,clock,bird,0.4,0544_hp_dnn_0.4_bird_10_n01797886_16808.png,n01797886_16808.png,0.0,-1.0646147,-0.5210303,-0.38437217
alexnet_w1_mlp_simclrhn_probe1,1,545,NaN,clock,elephant,0.45,0545_hp_dnn_0.45_elephant_10_n02504458_4767.png,n02504458_4767.png,0.0,-0.75599015,-0.13199604,-0.44123048
alexnet_w1_mlp_simclrhn_probe1,1,546,NaN,chair,knife,3,0546_hp_dnn_3_knife_10_n03041632_41493.png,n03041632_41493.png,0.0,-1.5700903,-0.65644455,-0.6460451
alexnet_w1_mlp_simclrhn_probe1,1,547,NaN,elephant,elephant,3,0547_hp_dnn_3_elephant_10_n02504458_3329.png,n02504458_3329.png,1.0,0.0736438,-1.2547354,0.9393059
alexnet_w1_mlp_simclrhn_probe1,1,548,NaN,clock,cat,0.45,0548_hp_dnn_0.45_cat_10_n02124075_12467.png,n02124075_12467.png,0.0,-1.4995956,0.090575635,-1.124421
alexnet_w1_mlp_simclrhn_probe1,1,549,NaN,clock,truck,0.7,0549_hp_dnn_0.7_truck_10_n03417042_6467.png,n03417042_6467.png,0.0,-1.3851097,0.13710238,-1.0763664
alexnet_w1_mlp_simclrhn_probe1,1,550,NaN,airplane,airplane,inf,0550_hp_dnn_inf_airplane_10_n02690373_734.png,n02690373_734.png,1.0,12.347071,-1.1936663,9.574747
alexnet_w1_mlp_simclrhn_probe1,1,551,NaN,clock,car,0.4,0551_hp_dnn_0.4_car_10_n02814533_85296.png,n02814533_85296.png,0.0,-1.3187186,-0.040433936,-0.90388376
alexnet_w1_mlp_simclrhn_probe1,1,552,NaN,clock,elephant,0.7,0552_hp_dnn_0.7_elephant_10_n02504013_18005.png,n02504013_18005.png,0.0,-1.638638,-0.33410826,-0.9224419
alexnet_w1_mlp_simclrhn_probe1,1,553,NaN,clock,clock,0.45,0553_hp_dnn_0.45_clock_10_n02708093_1495.png,n02708093_1495.png,1.0,0.41887942,-0.67299134,0.7720693
alexnet_w1_mlp_simclrhn_probe1,1,554,NaN,car,car,1.5,0554_hp_dnn_1.5_car_10_n04285008_3462.png,n04285008_3462.png,1.0,0.2688068,-0.49639413,0.54107875
alexnet_w1_mlp_simclrhn_probe1,1,555,NaN,clock,truck,0.4,0555_hp_dnn_0.4_truck_10_n03417042_22297.png,n03417042_22297.png,0.0,-0.83924234,0.15222669,-0.7010745
alexnet_w1_mlp_simclrhn_probe1,1,556,NaN,bicycle,chair,3,0556_hp_dnn_3_chair_10_n04429376_7279.png,n04429376_7279.png,0.0,-0.92334914,0.7738314,-1.2000879
alexnet_w1_mlp_simclrhn_probe1,1,557,NaN,bicycle,bicycle,3,0557_hp_dnn_3_bicycle_10_n02835271_6919.png,n02835271_6919.png,1.0,5.105584,-1.1586208,4.429462
alexnet_w1_mlp_simclrhn_probe1,1,558,NaN,clock,oven,0.55,0558_hp_dnn_0.55_oven_10_n04111531_2260.png,n04111531_2260.png,0.0,-0.841846,0.5914376,-1.0134846
alexnet_w1_mlp_simclrhn_probe1,1,559,NaN,clock,bear,0.7,0559_hp_dnn_0.7_bear_10_n02134084_5794.png,n02134084_5794.png,0.0,-1.9970673,-0.31525505,-1.1892209
alexnet_w1_mlp_simclrhn_probe1,1,560,NaN,clock,airplane,0.7,0560_hp_dnn_0.7_airplane_10_n02690373_10397.png,n02690373_10397.png,0.0,-1.2370626,0.21442617,-1.0263575
alexnet_w1_mlp_simclrhn_probe1,1,561,NaN,clock,elephant,0.4,0561_hp_dnn_0.4_elephant_10_n02504458_2041.png,n02504458_2041.png,0.0,-1.405277,-0.5626994,-0.59579235
alexnet_w1_mlp_simclrhn_probe1,1,562,NaN,clock,chair,1,0562_hp_dnn_1_chair_10_n04429376_7732.png,n04429376_7732.png,0.0,-0.33839864,-0.25839004,-0.05657462
alexnet_w1_mlp_simclrhn_probe1,1,563,NaN,clock,airplane,0.4,0563_hp_dnn_0.4_airplane_10_n02690373_4788.png,n02690373_4788.png,0.0,-0.3506203,-0.3033372,-0.033434212
alexnet_w1_mlp_simclrhn_probe1,1,564,NaN,clock,dog,0.55,0564_hp_dnn_0.55_dog_10_n02097474_2799.png,n02097474_2799.png,0.0,-2.3528106,0.03557734,-1.6888453
alexnet_w1_mlp_simclrhn_probe1,1,565,NaN,knife,bear,1.5,0565_hp_dnn_1.5_bear_10_n02134084_17849.png,n02134084_17849.png,0.0,-1.5746846,-1.1919787,-0.27061397
alexnet_w1_mlp_simclrhn_probe1,1,566,NaN,dog,dog,inf,0566_hp_dnn_inf_dog_10_n02086646_7064.png,n02086646_7064.png,1.0,1.5479262,-3.521625,3.5847142
alexnet_w1_mlp_simclrhn_probe1,1,567,NaN,clock,truck,0.55,0567_hp_dnn_0.55_truck_10_n03417042_7061.png,n03417042_7061.png,0.0,-0.5518503,0.4678601,-0.7210442
alexnet_w1_mlp_simclrhn_probe1,1,568,NaN,bicycle,bird,1,0568_hp_dnn_1_bird_10_n01820546_3605.png,n01820546_3605.png,0.0,-1.8021005,-0.3234038,-1.0455965
alexnet_w1_mlp_simclrhn_probe1,1,569,NaN,clock,bear,0.4,0569_hp_dnn_0.4_bear_10_n02133161_2813.png,n02133161_2813.png,0.0,-2.3622,-0.36459932,-1.412517
alexnet_w1_mlp_simclrhn_probe1,1,570,NaN,clock,bear,0.45,0570_hp_dnn_0.45_bear_10_n02132136_16636.png,n02132136_16636.png,0.0,-1.2554483,-0.57372683,-0.4820499
alexnet_w1_mlp_simclrhn_probe1,1,571,NaN,chair,oven,1.5,0571_hp_dnn_1.5_oven_10_n04111531_14959.png,n04111531_14959.png,0.0,-2.234014,0.13850905,-1.6776272
alexnet_w1_mlp_simclrhn_probe1,1,572,NaN,clock,cat,0.45,0572_hp_dnn_0.45_cat_10_n02124075_5453.png,n02124075_5453.png,0.0,-0.90225583,-0.44954905,-0.32011205
alexnet_w1_mlp_simclrhn_probe1,1,573,NaN,bottle,cat,1,0573_hp_dnn_1_cat_10_n02124075_11528.png,n02124075_11528.png,0.0,-3.1367292,-2.4918246,-0.45601642
alexnet_w1_mlp_simclrhn_probe1,1,574,NaN,cat,cat,1,0574_hp_dnn_1_cat_10_n02123159_3454.png,n02123159_3454.png,1.0,-1.8765024,-2.231077,0.25072208
alexnet_w1_mlp_simclrhn_probe1,1,575,NaN,clock,bird,0.45,0575_hp_dnn_0.45_bird_10_n02025239_2227.png,n02025239_2227.png,0.0,-0.8301981,-0.54405826,-0.20233142
alexnet_w1_mlp_simclrhn_probe1,1,576,NaN,clock,chair,0.7,0576_hp_dnn_0.7_chair_10_n03376595_12256.png,n03376595_12256.png,0.0,-0.95986235,-0.03207864,-0.65604216
alexnet_w1_mlp_simclrhn_probe1,1,577,NaN,clock,clock,1.5,0577_hp_dnn_1.5_clock_10_n02708093_6591.png,n02708093_6591.png,1.0,0.13486533,-1.5825698,1.2144101
alexnet_w1_mlp_simclrhn_probe1,1,578,NaN,clock,chair,0.55,0578_hp_dnn_0.55_chair_10_n04099969_34144.png,n04099969_34144.png,0.0,-1.1013311,0.11657208,-0.8611876
alexnet_w1_mlp_simclrhn_probe1,1,579,NaN,cat,bear,0.55,0579_hp_dnn_0.55_bear_10_n02132136_3563.png,n02132136_3563.png,0.0,-2.3920004,-1.5578774,-0.58981407
alexnet_w1_mlp_simclrhn_probe1,1,580,NaN,elephant,elephant,1,0580_hp_dnn_1_elephant_10_n02504013_6671.png,n02504013_6671.png,1.0,0.49026513,-1.4584508,1.3779503
alexnet_w1_mlp_simclrhn_probe1,1,581,NaN,clock,keyboard,0.7,0581_hp_dnn_0.7_keyboard_10_n03085013_22067.png,n03085013_22067.png,0.0,-0.5851138,-0.049228813,-0.37892795
alexnet_w1_mlp_simclrhn_probe1,1,582,NaN,truck,truck,inf,0582_hp_dnn_inf_truck_10_n03796401_1458.png,n03796401_1458.png,1.0,0.8652463,-2.2166672,2.179242
alexnet_w1_mlp_simclrhn_probe1,1,583,NaN,clock,bottle,0.45,0583_hp_dnn_0.45_bottle_10_n04591713_807.png,n04591713_807.png,0.0,-0.9983026,-0.27293345,-0.5129134
alexnet_w1_mlp_simclrhn_probe1,1,584,NaN,clock,car,1,0584_hp_dnn_1_car_10_n02814533_22693.png,n02814533_22693.png,0.0,-3.5773284,0.91185397,-3.1743314
alexnet_w1_mlp_simclrhn_probe1,1,585,NaN,clock,car,0.7,0585_hp_dnn_0.7_car_10_n02814533_5278.png,n02814533_5278.png,0.0,-1.2327433,0.36496866,-1.129753
alexnet_w1_mlp_simclrhn_probe1,1,586,NaN,boat,boat,1.5,0586_hp_dnn_1.5_boat_10_n03662601_10240.png,n03662601_10240.png,1.0,-0.2724205,-0.3013225,0.020436797
alexnet_w1_mlp_simclrhn_probe1,1,587,NaN,airplane,airplane,inf,0587_hp_dnn_inf_airplane_10_n02690373_9673.png,n02690373_9673.png,1.0,4.6814656,-1.485917,4.360998
alexnet_w1_mlp_simclrhn_probe1,1,588,NaN,bird,bird,0.7,0588_hp_dnn_0.7_bird_10_n02009229_6029.png,n02009229_6029.png,1.0,0.17182778,-1.0934949,0.8947183
alexnet_w1_mlp_simclrhn_probe1,1,589,NaN,clock,clock,0.4,0589_hp_dnn_0.4_clock_10_n02708093_2580.png,n02708093_2580.png,1.0,1.0793818,-0.7600221,1.300655
alexnet_w1_mlp_simclrhn_probe1,1,590,NaN,clock,elephant,0.4,0590_hp_dnn_0.4_elephant_10_n02504013_295.png,n02504013_295.png,0.0,-1.2060523,-0.31940892,-0.6269516
alexnet_w1_mlp_simclrhn_probe1,1,591,NaN,clock,car,0.7,0591_hp_dnn_0.7_car_10_n04285008_9893.png,n04285008_9893.png,0.0,-0.35276857,0.49999228,-0.602993
alexnet_w1_mlp_simclrhn_probe1,1,592,NaN,bicycle,chair,1.5,0592_hp_dnn_1.5_chair_10_n03376595_6850.png,n03376595_6850.png,0.0,-1.8487129,-0.6942186,-0.81635076
alexnet_w1_mlp_simclrhn_probe1,1,593,NaN,car,boat,3,0593_hp_dnn_3_boat_10_n03662601_15713.png,n03662601_15713.png,0.0,0.24517569,0.40883943,-0.115727745
alexnet_w1_mlp_simclrhn_probe1,1,594,NaN,clock,clock,0.4,0594_hp_dnn_0.4_clock_10_n04548280_9867.png,n04548280_9867.png,1.0,-0.5984052,-0.64696705,0.03433843
alexnet_w1_mlp_simclrhn_probe1,1,595,NaN,airplane,airplane,1.5,0595_hp_dnn_1.5_airplane_10_n02690373_1450.png,n02690373_1450.png,1.0,1.6394763,-0.70038825,1.6545341
alexnet_w1_mlp_simclrhn_probe1,1,596,NaN,clock,bicycle,0.45,0596_hp_dnn_0.45_bicycle_10_n03792782_7787.png,n03792782_7787.png,0.0,-1.2997615,-0.53788584,-0.53872746
alexnet_w1_mlp_simclrhn_probe1,1,597,NaN,clock,chair,0.45,0597_hp_dnn_0.45_chair_10_n04099969_1219.png,n04099969_1219.png,0.0,-0.5038059,0.1723632,-0.47812375
alexnet_w1_mlp_simclrhn_probe1,1,598,NaN,keyboard,keyboard,0.55,0598_hp_dnn_0.55_keyboard_10_n03085013_8325.png,n03085013_8325.png,1.0,0.9831416,-0.259041,0.87835574
alexnet_w1_mlp_simclrhn_probe1,1,599,NaN,clock,bicycle,0.55,0599_hp_dnn_0.55_bicycle_10_n02835271_14732.png,n02835271_14732.png,0.0,-0.42137682,-0.16895308,-0.17849056
alexnet_w1_mlp_simclrhn_probe1,1,600,NaN,airplane,airplane,1.5,0600_hp_dnn_1.5_airplane_10_n02690373_4176.png,n02690373_4176.png,1.0,0.9741166,-1.0297104,1.4169197
alexnet_w1_mlp_simclrhn_probe1,1,601,NaN,elephant,bird,1,0601_hp_dnn_1_bird_10_n01534433_905.png,n01534433_905.png,0.0,-2.0365684,-1.5707517,-0.32938218
alexnet_w1_mlp_simclrhn_probe1,1,602,NaN,airplane,truck,1.5,0602_hp_dnn_1.5_truck_10_n04467665_45306.png,n04467665_45306.png,0.0,-1.220916,0.08097527,-0.9205762
alexnet_w1_mlp_simclrhn_probe1,1,603,NaN,elephant,elephant,3,0603_hp_dnn_3_elephant_10_n02504458_1617.png,n02504458_1617.png,1.0,-1.1285613,-2.4650083,0.9450108
alexnet_w1_mlp_simclrhn_probe1,1,604,NaN,clock,oven,0.45,0604_hp_dnn_0.45_oven_10_n04111531_4148.png,n04111531_4148.png,0.0,-1.2571433,-0.3093703,-0.6701767
alexnet_w1_mlp_simclrhn_probe1,1,605,NaN,clock,bird,0.55,0605_hp_dnn_0.55_bird_10_n02009912_91.png,n02009912_91.png,0.0,-1.748642,-0.48080394,-0.8964969
alexnet_w1_mlp_simclrhn_probe1,1,606,NaN,knife,knife,3,0606_hp_dnn_3_knife_10_n03041632_33739.png,n03041632_33739.png,1.0,0.05199168,-1.216238,0.8967739
alexnet_w1_mlp_simclrhn_probe1,1,607,NaN,airplane,airplane,1,0607_hp_dnn_1_airplane_10_n02690373_9318.png,n02690373_9318.png,1.0,2.5538406,-0.3262943,2.0365632
alexnet_w1_mlp_simclrhn_probe1,1,608,NaN,clock,bird,0.4,0608_hp_dnn_0.4_bird_10_n01828970_8669.png,n01828970_8669.png,0.0,-1.0876101,-0.04351015,-0.73829013
alexnet_w1_mlp_simclrhn_probe1,1,609,NaN,chair,truck,1.5,0609_hp_dnn_1.5_truck_10_n04467665_58762.png,n04467665_58762.png,0.0,-2.1194355,-0.41181213,-1.2074722
alexnet_w1_mlp_simclrhn_probe1,1,610,NaN,car,car,3,0610_hp_dnn_3_car_10_n03100240_11417.png,n03100240_11417.png,1.0,4.375974,1.4224304,2.0884707
alexnet_w1_mlp_simclrhn_probe1,1,611,NaN,bicycle,bicycle,inf,0611_hp_dnn_inf_bicycle_10_n03792782_16179.png,n03792782_16179.png,1.0,6.810288,-4.5267134,8.016471
alexnet_w1_mlp_simclrhn_probe1,1,612,NaN,clock,car,1,0612_hp_dnn_1_car_10_n04285008_8444.png,n04285008_8444.png,0.0,-1.3292303,0.27365258,-1.1334094
alexnet_w1_mlp_simclrhn_probe1,1,613,NaN,chair,chair,inf,0613_hp_dnn_inf_chair_10_n02791124_3240.png,n02791124_3240.png,1.0,0.32223028,-1.2151861,1.0871177
alexnet_w1_mlp_simclrhn_probe1,1,614,NaN,clock,bicycle,0.7,0614_hp_dnn_0.7_bicycle_10_n02835271_1035.png,n02835271_1035.png,0.0,-0.6865481,0.0028522809,-0.4874797
alexnet_w1_mlp_simclrhn_probe1,1,615,NaN,clock,bicycle,0.55,0615_hp_dnn_0.55_bicycle_10_n02835271_6167.png,n02835271_6167.png,0.0,-0.07008642,0.22122486,-0.20598817
alexnet_w1_mlp_simclrhn_probe1,1,616,NaN,clock,bottle,3,0616_hp_dnn_3_bottle_10_n02823428_6830.png,n02823428_6830.png,0.0,-1.1793674,1.863813,-2.1518536
alexnet_w1_mlp_simclrhn_probe1,1,617,NaN,clock,knife,0.45,0617_hp_dnn_0.45_knife_10_n03041632_17349.png,n03041632_17349.png,0.0,-0.21171726,-0.03631245,-0.124029934
alexnet_w1_mlp_simclrhn_probe1,1,618,NaN,airplane,airplane,inf,0618_hp_dnn_inf_airplane_10_n02690373_2024.png,n02690373_2024.png,1.0,8.447487,1.1855111,5.1349926
alexnet_w1_mlp_simclrhn_probe1,1,619,NaN,clock,bottle,1,0619_hp_dnn_1_bottle_10_n02823428_8034.png,n02823428_8034.png,0.0,-1.9869968,-0.39625618,-1.1248235
alexnet_w1_mlp_simclrhn_probe1,1,620,NaN,clock,chair,1,0620_hp_dnn_1_chair_10_n02791124_6786.png,n02791124_6786.png,0.0,-0.83764076,-0.26901746,-0.4020774
alexnet_w1_mlp_simclrhn_probe1,1,621,NaN,clock,chair,0.45,0621_hp_dnn_0.45_chair_10_n03376595_10689.png,n03376595_10689.png,0.0,-0.5267691,-0.34842482,-0.12610845
alexnet_w1_mlp_simclrhn_probe1,1,622,NaN,clock,knife,0.4,0622_hp_dnn_0.4_knife_10_n03041632_22734.png,n03041632_22734.png,0.0,-0.90061265,-0.09392842,-0.5704119
alexnet_w1_mlp_simclrhn_probe1,1,623,NaN,clock,oven,0.4,0623_hp_dnn_0.4_oven_10_n04111531_10521.png,n04111531_10521.png,0.0,-0.91693664,-0.4565736,-0.32552582
alexnet_w1_mlp_simclrhn_probe1,1,624,NaN,bird,bird,inf,0624_hp_dnn_inf_bird_10_n02007558_37147.png,n02007558_37147.png,1.0,0.39853308,-3.7073884,2.9033248
alexnet_w1_mlp_simclrhn_probe1,1,625,NaN,chair,oven,3,0625_hp_dnn_3_oven_10_n04111531_14753.png,n04111531_14753.png,0.0,-2.165398,0.9565824,-2.2075734
alexnet_w1_mlp_simclrhn_probe1,1,626,NaN,clock,bottle,0.7,0626_hp_dnn_0.7_bottle_10_n03983396_4990.png,n03983396_4990.png,0.0,-1.9653658,-0.44250178,-1.0768275
alexnet_w1_mlp_simclrhn_probe1,1,627,NaN,clock,cat,0.45,0627_hp_dnn_0.45_cat_10_n02125311_25104.png,n02125311_25104.png,0.0,-0.7108038,-0.47655097,-0.16564177
alexnet_w1_mlp_simclrhn_probe1,1,628,NaN,clock,truck,0.55,0628_hp_dnn_0.55_truck_10_n03417042_5600.png,n03417042_5600.png,0.0,0.027975678,0.30431306,-0.19540004
alexnet_w1_mlp_simclrhn_probe1,1,629,NaN,clock,cat,0.55,0629_hp_dnn_0.55_cat_10_n02125311_34158.png,n02125311_34158.png,0.0,-1.7110325,-0.030655691,-1.1882058
