subj,session,trial,rt,object_response,category,condition,imagename,filename,is_correct,targ_act,max_nontarg_act,decision_margin
alexnet2023_baseline_pgd,1,1,NaN,boat,boat,0.7,0001_hp_dnn_0.7_boat_10_n03662601_12531.png,n03662601_12531.png,1.0,4.1069,3.1868732,0.65055734
alexnet2023_baseline_pgd,1,2,NaN,bottle,chair,0.7,0002_hp_dnn_0.7_chair_10_n04429376_22819.png,n04429376_22819.png,0.0,1.2508945,2.5550103,-0.9221491
alexnet2023_baseline_pgd,1,3,NaN,airplane,elephant,0.45,0003_hp_dnn_0.45_elephant_10_n02504458_582.png,n02504458_582.png,0.0,1.3739169,2.5425732,-0.8263648
alexnet2023_baseline_pgd,1,4,NaN,elephant,bicycle,0.7,0004_hp_dnn_0.7_bicycle_10_n03792782_41173.png,n03792782_41173.png,0.0,0.68792367,2.755815,-1.4622201
alexnet2023_baseline_pgd,1,5,NaN,clock,cat,1.5,0005_hp_dnn_1.5_cat_10_n02123597_7071.png,n02123597_7071.png,0.0,-0.08861386,1.1832213,-0.89932334
alexnet2023_baseline_pgd,1,6,NaN,airplane,cat,0.4,0006_hp_dnn_0.4_cat_10_n02123394_2386.png,n02123394_2386.png,0.0,-1.2188196,2.6045036,-2.703498
alexnet2023_baseline_pgd,1,7,NaN,oven,oven,inf,0007_hp_dnn_inf_oven_10_n04111531_2201.png,n04111531_2201.png,1.0,8.063634,5.6820054,1.6840657
alexnet2023_baseline_pgd,1,8,NaN,airplane,cat,0.45,0008_hp_dnn_0.45_cat_10_n02125311_43276.png,n02125311_43276.png,0.0,-0.70885926,2.7314854,-2.432691
alexnet2023_baseline_pgd,1,9,NaN,airplane,dog,0.45,0009_hp_dnn_0.45_dog_10_n02111500_2439.png,n02111500_2439.png,0.0,0.29845777,3.2883723,-2.114189
alexnet2023_baseline_pgd,1,10,NaN,airplane,bicycle,0.4,0010_hp_dnn_0.4_bicycle_10_n02835271_12599.png,n02835271_12599.png,0.0,-0.9386042,3.4505486,-3.1035998
alexnet2023_baseline_pgd,1,11,NaN,airplane,dog,0.45,0011_hp_dnn_0.45_dog_10_n02096585_391.png,n02096585_391.png,0.0,0.22503385,2.4308333,-1.5597359
alexnet2023_baseline_pgd,1,12,NaN,airplane,car,0.7,0012_hp_dnn_0.7_car_10_n04285008_12138.png,n04285008_12138.png,0.0,1.9412092,2.926874,-0.6969702
alexnet2023_baseline_pgd,1,13,NaN,boat,car,0.7,0013_hp_dnn_0.7_car_10_n02814533_44083.png,n02814533_44083.png,0.0,0.82595754,3.4690423,-1.8689432
alexnet2023_baseline_pgd,1,14,NaN,oven,oven,inf,0014_hp_dnn_inf_oven_10_n04111531_2447.png,n04111531_2447.png,1.0,12.251864,0.8748576,8.044759
alexnet2023_baseline_pgd,1,15,NaN,airplane,chair,0.55,0015_hp_dnn_0.55_chair_10_n03376595_9524.png,n03376595_9524.png,0.0,-0.31204513,1.2631558,-1.1138352
alexnet2023_baseline_pgd,1,16,NaN,boat,elephant,0.55,0016_hp_dnn_0.55_elephant_10_n02504458_3092.png,n02504458_3092.png,0.0,1.5105231,3.0228124,-1.06935
alexnet2023_baseline_pgd,1,17,NaN,airplane,truck,0.4,0017_hp_dnn_0.4_truck_10_n04467665_42126.png,n04467665_42126.png,0.0,-0.40893668,2.3491514,-1.9502628
alexnet2023_baseline_pgd,1,18,NaN,elephant,elephant,inf,0018_hp_dnn_inf_elephant_10_n02504458_12303.png,n02504458_12303.png,1.0,17.813961,9.417579,5.937139
alexnet2023_baseline_pgd,1,19,NaN,clock,clock,0.4,0019_hp_dnn_0.4_clock_10_n04548280_7243.png,n04548280_7243.png,1.0,3.2429066,2.465812,0.5494889
alexnet2023_baseline_pgd,1,20,NaN,airplane,airplane,0.4,0020_hp_dnn_0.4_airplane_10_n02690373_6978.png,n02690373_6978.png,1.0,3.8183923,2.2623765,1.1002693
alexnet2023_baseline_pgd,1,21,NaN,boat,boat,3,0021_hp_dnn_3_boat_10_n04612504_4773.png,n04612504_4773.png,1.0,4.2054315,3.1655931,0.73527676
alexnet2023_baseline_pgd,1,22,NaN,bird,bottle,inf,0022_hp_dnn_inf_bottle_10_n04560804_5979.png,n04560804_5979.png,0.0,1.3697159,2.4539583,-0.7666751
alexnet2023_baseline_pgd,1,23,NaN,airplane,airplane,3,0023_hp_dnn_3_airplane_10_n02690373_21922.png,n02690373_21922.png,1.0,6.421226,5.2532277,0.82589954
alexnet2023_baseline_pgd,1,24,NaN,airplane,bird,0.4,0024_hp_dnn_0.4_bird_10_n01820546_6431.png,n01820546_6431.png,0.0,1.3115379,3.7455053,-1.721075
alexnet2023_baseline_pgd,1,25,NaN,bird,bird,inf,0025_hp_dnn_inf_bird_10_n01795545_9555.png,n01795545_9555.png,1.0,5.5991907,3.9068015,1.1967
alexnet2023_baseline_pgd,1,26,NaN,bicycle,truck,3,0026_hp_dnn_3_truck_10_n04467665_45796.png,n04467665_45796.png,0.0,2.643238,7.1222763,-3.1671584
alexnet2023_baseline_pgd,1,27,NaN,bottle,oven,1,0027_hp_dnn_1_oven_10_n04111531_5906.png,n04111531_5906.png,0.0,-0.25738645,4.5805845,-3.4209619
alexnet2023_baseline_pgd,1,28,NaN,airplane,bicycle,0.45,0028_hp_dnn_0.45_bicycle_10_n03792782_6133.png,n03792782_6133.png,0.0,-0.038011014,2.8401122,-2.0351405
alexnet2023_baseline_pgd,1,29,NaN,keyboard,keyboard,1,0029_hp_dnn_1_keyboard_10_n04505470_4741.png,n04505470_4741.png,1.0,6.300274,5.7340827,0.40035763
alexnet2023_baseline_pgd,1,30,NaN,car,car,1.5,0030_hp_dnn_1.5_car_10_n02814533_5085.png,n02814533_5085.png,1.0,4.7149286,3.7947123,0.6506912
alexnet2023_baseline_pgd,1,31,NaN,boat,chair,0.4,0031_hp_dnn_0.4_chair_10_n04429376_10628.png,n04429376_10628.png,0.0,-0.41647023,2.452872,-2.0289314
alexnet2023_baseline_pgd,1,32,NaN,airplane,clock,0.55,0032_hp_dnn_0.55_clock_10_n02708093_5311.png,n02708093_5311.png,0.0,1.6726354,2.9549384,-0.90672517
alexnet2023_baseline_pgd,1,33,NaN,airplane,chair,0.55,0033_hp_dnn_0.55_chair_10_n03376595_10460.png,n03376595_10460.png,0.0,0.19556245,4.4145155,-2.9832504
alexnet2023_baseline_pgd,1,34,NaN,elephant,bear,3,0034_hp_dnn_3_bear_10_n02133161_1118.png,n02133161_1118.png,0.0,0.4078359,2.8571796,-1.7319475
alexnet2023_baseline_pgd,1,35,NaN,keyboard,knife,3,0035_hp_dnn_3_knife_10_n03041632_11603.png,n03041632_11603.png,0.0,3.4302397,3.4635231,-0.023534968
alexnet2023_baseline_pgd,1,36,NaN,airplane,dog,0.4,0036_hp_dnn_0.4_dog_10_n02108422_7493.png,n02108422_7493.png,0.0,0.2960535,2.2384276,-1.3734659
alexnet2023_baseline_pgd,1,37,NaN,keyboard,keyboard,3,0037_hp_dnn_3_keyboard_10_n04505470_550.png,n04505470_550.png,1.0,4.717285,2.3742082,1.6568056
alexnet2023_baseline_pgd,1,38,NaN,bird,dog,1.5,0038_hp_dnn_1.5_dog_10_n02097047_1003.png,n02097047_1003.png,0.0,-1.237274,2.8590474,-2.8965368
alexnet2023_baseline_pgd,1,39,NaN,bird,bird,1.5,0039_hp_dnn_1.5_bird_10_n01616318_9819.png,n01616318_9819.png,1.0,2.8275974,2.6564336,0.12103108
alexnet2023_baseline_pgd,1,40,NaN,airplane,cat,0.55,0040_hp_dnn_0.55_cat_10_n02123597_1016.png,n02123597_1016.png,0.0,-0.61758137,2.6097214,-2.2820477
alexnet2023_baseline_pgd,1,41,NaN,elephant,bear,1,0041_hp_dnn_1_bear_10_n02134418_971.png,n02134418_971.png,0.0,0.45125532,1.8100717,-0.9608283
alexnet2023_baseline_pgd,1,42,NaN,elephant,bear,0.7,0042_hp_dnn_0.7_bear_10_n02132136_10944.png,n02132136_10944.png,0.0,-0.46233565,1.6851082,-1.5184721
alexnet2023_baseline_pgd,1,43,NaN,elephant,elephant,1,0043_hp_dnn_1_elephant_10_n02504458_4439.png,n02504458_4439.png,1.0,1.7144561,1.4221241,0.20670989
alexnet2023_baseline_pgd,1,44,NaN,knife,keyboard,0.4,0044_hp_dnn_0.4_keyboard_10_n03085013_2362.png,n03085013_2362.png,0.0,2.013445,3.053466,-0.73540604
alexnet2023_baseline_pgd,1,45,NaN,elephant,dog,1.5,0045_hp_dnn_1.5_dog_10_n02097474_9488.png,n02097474_9488.png,0.0,1.7792848,2.83036,-0.74322236
alexnet2023_baseline_pgd,1,46,NaN,clock,clock,inf,0046_hp_dnn_inf_clock_10_n04548280_3308.png,n04548280_3308.png,1.0,14.716622,4.021512,7.5625854
alexnet2023_baseline_pgd,1,47,NaN,elephant,bear,1.5,0047_hp_dnn_1.5_bear_10_n02133161_334.png,n02133161_334.png,0.0,0.23119196,1.3031182,-0.75796634
alexnet2023_baseline_pgd,1,48,NaN,airplane,knife,0.45,0048_hp_dnn_0.45_knife_10_n03041632_6708.png,n03041632_6708.png,0.0,-0.09380135,1.6504923,-1.2334019
alexnet2023_baseline_pgd,1,49,NaN,bottle,car,0.55,0049_hp_dnn_0.55_car_10_n02814533_81092.png,n02814533_81092.png,0.0,-0.3724428,1.4206804,-1.2679297
alexnet2023_baseline_pgd,1,50,NaN,knife,bottle,0.45,0050_hp_dnn_0.45_bottle_10_n03937543_11897.png,n03937543_11897.png,0.0,3.202698,3.267224,-0.04562683
alexnet2023_baseline_pgd,1,51,NaN,clock,airplane,3,0051_hp_dnn_3_airplane_10_n02690373_4429.png,n02690373_4429.png,0.0,3.9581168,5.1630044,-0.8519842
alexnet2023_baseline_pgd,1,52,NaN,airplane,knife,0.4,0052_hp_dnn_0.4_knife_10_n03041632_22964.png,n03041632_22964.png,0.0,0.39805418,1.89052,-1.0553327
alexnet2023_baseline_pgd,1,53,NaN,bird,knife,1.5,0053_hp_dnn_1.5_knife_10_n03041632_33075.png,n03041632_33075.png,0.0,0.93344504,2.2949321,-0.9627168
alexnet2023_baseline_pgd,1,54,NaN,bird,bird,0.7,0054_hp_dnn_0.7_bird_10_n02006656_1412.png,n02006656_1412.png,1.0,1.3734628,0.9379473,0.30795598
alexnet2023_baseline_pgd,1,55,NaN,clock,clock,1,0055_hp_dnn_1_clock_10_n02708093_3173.png,n02708093_3173.png,1.0,11.214039,3.5440488,5.423502
alexnet2023_baseline_pgd,1,56,NaN,airplane,keyboard,0.45,0056_hp_dnn_0.45_keyboard_10_n03085013_22016.png,n03085013_22016.png,0.0,0.99187344,3.0657668,-1.466464
alexnet2023_baseline_pgd,1,57,NaN,boat,elephant,0.55,0057_hp_dnn_0.55_elephant_10_n02504458_11214.png,n02504458_11214.png,0.0,0.39027914,2.8786254,-1.7595266
alexnet2023_baseline_pgd,1,58,NaN,airplane,chair,0.7,0058_hp_dnn_0.7_chair_10_n04099969_13775.png,n04099969_13775.png,0.0,0.4263085,4.3753777,-2.7924135
alexnet2023_baseline_pgd,1,59,NaN,boat,bicycle,0.4,0059_hp_dnn_0.4_bicycle_10_n02835271_8098.png,n02835271_8098.png,0.0,0.44256434,1.5731883,-0.79947186
alexnet2023_baseline_pgd,1,60,NaN,airplane,clock,0.4,0060_hp_dnn_0.4_clock_10_n04548280_1126.png,n04548280_1126.png,0.0,2.3625362,3.3681738,-0.7110932
alexnet2023_baseline_pgd,1,61,NaN,airplane,bicycle,0.45,0061_hp_dnn_0.45_bicycle_10_n02835271_2050.png,n02835271_2050.png,0.0,-0.8113098,3.4560149,-3.0174541
alexnet2023_baseline_pgd,1,62,NaN,airplane,oven,1,0062_hp_dnn_1_oven_10_n04111531_891.png,n04111531_891.png,0.0,1.0490534,1.4973593,-0.31700012
alexnet2023_baseline_pgd,1,63,NaN,bicycle,bottle,0.7,0063_hp_dnn_0.7_bottle_10_n02823428_6201.png,n02823428_6201.png,0.0,1.4865409,3.293292,-1.277566
alexnet2023_baseline_pgd,1,64,NaN,chair,bicycle,0.7,0064_hp_dnn_0.7_bicycle_10_n02835271_20175.png,n02835271_20175.png,0.0,1.8219383,2.268866,-0.31602567
alexnet2023_baseline_pgd,1,65,NaN,bottle,cat,3,0065_hp_dnn_3_cat_10_n02123597_13175.png,n02123597_13175.png,0.0,0.254738,1.5316181,-0.9028906
alexnet2023_baseline_pgd,1,66,NaN,airplane,dog,0.4,0066_hp_dnn_0.4_dog_10_n02085936_4391.png,n02085936_4391.png,0.0,-0.0944482,2.7298114,-1.9970531
alexnet2023_baseline_pgd,1,67,NaN,airplane,airplane,1.5,0067_hp_dnn_1.5_airplane_10_n02690373_8846.png,n02690373_8846.png,1.0,4.614869,4.2766557,0.23915303
alexnet2023_baseline_pgd,1,68,NaN,knife,cat,1.5,0068_hp_dnn_1.5_cat_10_n02123597_10301.png,n02123597_10301.png,0.0,-0.092078835,1.360929,-1.0274317
alexnet2023_baseline_pgd,1,69,NaN,elephant,elephant,0.7,0069_hp_dnn_0.7_elephant_10_n02504458_6135.png,n02504458_6135.png,1.0,4.2782683,2.0091424,1.6045144
alexnet2023_baseline_pgd,1,70,NaN,airplane,keyboard,0.45,0070_hp_dnn_0.45_keyboard_10_n03085013_22585.png,n03085013_22585.png,0.0,-0.81785166,3.794878,-3.2616923
alexnet2023_baseline_pgd,1,71,NaN,elephant,bird,1,0071_hp_dnn_1_bird_10_n02017213_1150.png,n02017213_1150.png,0.0,1.266573,1.5391555,-0.19274496
alexnet2023_baseline_pgd,1,72,NaN,chair,bottle,3,0072_hp_dnn_3_bottle_10_n04560804_30885.png,n04560804_30885.png,0.0,3.8435516,5.1873193,-0.9501872
alexnet2023_baseline_pgd,1,73,NaN,bicycle,bicycle,inf,0073_hp_dnn_inf_bicycle_10_n02835271_9191.png,n02835271_9191.png,1.0,16.169424,2.0455456,9.98709
alexnet2023_baseline_pgd,1,74,NaN,chair,truck,inf,0074_hp_dnn_inf_truck_10_n03796401_7699.png,n03796401_7699.png,0.0,4.4978337,5.3113537,-0.5752455
alexnet2023_baseline_pgd,1,75,NaN,knife,knife,1.5,0075_hp_dnn_1.5_knife_10_n03041632_50332.png,n03041632_50332.png,1.0,3.4093866,1.9357799,1.0419973
alexnet2023_baseline_pgd,1,76,NaN,bear,knife,0.55,0076_hp_dnn_0.55_knife_10_n03041632_36247.png,n03041632_36247.png,0.0,0.75174963,1.4266673,-0.4772389
alexnet2023_baseline_pgd,1,77,NaN,bottle,knife,1.5,0077_hp_dnn_1.5_knife_10_n03041632_23667.png,n03041632_23667.png,0.0,2.2987804,2.7346027,-0.30817288
alexnet2023_baseline_pgd,1,78,NaN,bird,dog,3,0078_hp_dnn_3_dog_10_n02102973_7028.png,n02102973_7028.png,0.0,0.67352664,5.283461,-3.2597158
alexnet2023_baseline_pgd,1,79,NaN,bottle,oven,0.55,0079_hp_dnn_0.55_oven_10_n04111531_9867.png,n04111531_9867.png,0.0,-0.8197975,1.1153833,-1.3683795
alexnet2023_baseline_pgd,1,80,NaN,car,car,0.55,0080_hp_dnn_0.55_car_10_n02814533_8121.png,n02814533_8121.png,1.0,2.9670308,2.8457808,0.08573664
alexnet2023_baseline_pgd,1,81,NaN,airplane,boat,0.55,0081_hp_dnn_0.55_boat_10_n03662601_5210.png,n03662601_5210.png,0.0,3.5882683,4.088965,-0.35404602
alexnet2023_baseline_pgd,1,82,NaN,car,car,1.5,0082_hp_dnn_1.5_car_10_n03100240_6192.png,n03100240_6192.png,1.0,3.531751,2.7314234,0.565917
alexnet2023_baseline_pgd,1,83,NaN,airplane,oven,0.45,0083_hp_dnn_0.45_oven_10_n04111531_9314.png,n04111531_9314.png,0.0,-0.8562843,2.3994634,-2.3021615
alexnet2023_baseline_pgd,1,84,NaN,airplane,cat,0.4,0084_hp_dnn_0.4_cat_10_n02123045_5189.png,n02123045_5189.png,0.0,-1.2129344,2.5723844,-2.6766248
alexnet2023_baseline_pgd,1,85,NaN,clock,truck,0.7,0085_hp_dnn_0.7_truck_10_n04467665_30189.png,n04467665_30189.png,0.0,1.697787,2.7113488,-0.7166964
alexnet2023_baseline_pgd,1,86,NaN,airplane,airplane,1.5,0086_hp_dnn_1.5_airplane_10_n02690373_3377.png,n02690373_3377.png,1.0,7.3452773,3.525647,2.7008865
alexnet2023_baseline_pgd,1,87,NaN,airplane,oven,0.4,0087_hp_dnn_0.4_oven_10_n04111531_1750.png,n04111531_1750.png,0.0,-1.4067645,3.1493895,-3.2216876
alexnet2023_baseline_pgd,1,88,NaN,oven,dog,inf,0088_hp_dnn_inf_dog_10_n02097047_2877.png,n02097047_2877.png,0.0,3.401742,5.5726395,-1.5350564
alexnet2023_baseline_pgd,1,89,NaN,cat,cat,inf,0089_hp_dnn_inf_cat_10_n02124075_15171.png,n02124075_15171.png,1.0,13.837014,1.8010643,8.510702
alexnet2023_baseline_pgd,1,90,NaN,airplane,car,0.4,0090_hp_dnn_0.4_car_10_n03100240_23060.png,n03100240_23060.png,0.0,-0.41953135,1.7785716,-1.5542935
alexnet2023_baseline_pgd,1,91,NaN,knife,knife,inf,0091_hp_dnn_inf_knife_10_n03041632_20595.png,n03041632_20595.png,1.0,4.718022,2.129729,1.8301995
alexnet2023_baseline_pgd,1,92,NaN,airplane,knife,0.45,0092_hp_dnn_0.45_knife_10_n03041632_2184.png,n03041632_2184.png,0.0,-0.5505426,2.8486981,-2.4036262
alexnet2023_baseline_pgd,1,93,NaN,airplane,knife,0.4,0093_hp_dnn_0.4_knife_10_n03041632_42162.png,n03041632_42162.png,0.0,1.4877901,3.007245,-1.0744169
alexnet2023_baseline_pgd,1,94,NaN,boat,elephant,1,0094_hp_dnn_1_elephant_10_n02504458_3535.png,n02504458_3535.png,0.0,-1.0242186,2.3290336,-2.3711073
alexnet2023_baseline_pgd,1,95,NaN,knife,bird,inf,0095_hp_dnn_inf_bird_10_n02056570_11311.png,n02056570_11311.png,0.0,1.6724873,4.859572,-2.2536092
alexnet2023_baseline_pgd,1,96,NaN,airplane,chair,0.4,0096_hp_dnn_0.4_chair_10_n03376595_4121.png,n03376595_4121.png,0.0,-1.2466917,4.515592,-4.07455
alexnet2023_baseline_pgd,1,97,NaN,bird,dog,1,0097_hp_dnn_1_dog_10_n02086240_3572.png,n02086240_3572.png,0.0,-0.10183938,1.1443944,-0.8812204
alexnet2023_baseline_pgd,1,98,NaN,elephant,elephant,inf,0098_hp_dnn_inf_elephant_10_n02504013_4523.png,n02504013_4523.png,1.0,24.964108,6.113562,13.3293495
alexnet2023_baseline_pgd,1,99,NaN,chair,chair,inf,0099_hp_dnn_inf_chair_10_n04429376_7902.png,n04429376_7902.png,1.0,4.6740613,2.0263212,1.8722351
alexnet2023_baseline_pgd,1,100,NaN,airplane,bird,0.45,0100_hp_dnn_0.45_bird_10_n01530575_14402.png,n01530575_14402.png,0.0,0.9673469,3.6428232,-1.8918475
alexnet2023_baseline_pgd,1,101,NaN,bottle,bottle,0.55,0101_hp_dnn_0.55_bottle_10_n02823428_11140.png,n02823428_11140.png,1.0,3.884425,3.0921638,0.5602132
alexnet2023_baseline_pgd,1,102,NaN,knife,airplane,0.55,0102_hp_dnn_0.55_airplane_10_n02690373_7685.png,n02690373_7685.png,0.0,3.2496789,5.715867,-1.7438585
alexnet2023_baseline_pgd,1,103,NaN,airplane,boat,0.45,0103_hp_dnn_0.45_boat_10_n03344393_4827.png,n03344393_4827.png,0.0,1.972163,3.5747707,-1.1332148
alexnet2023_baseline_pgd,1,104,NaN,knife,dog,0.7,0104_hp_dnn_0.7_dog_10_n02088364_8674.png,n02088364_8674.png,0.0,-1.0288119,1.7676032,-1.9773641
alexnet2023_baseline_pgd,1,105,NaN,airplane,knife,0.45,0105_hp_dnn_0.45_knife_10_n03041632_32004.png,n03041632_32004.png,0.0,0.639644,2.4929788,-1.3105056
alexnet2023_baseline_pgd,1,106,NaN,keyboard,keyboard,3,0106_hp_dnn_3_keyboard_10_n03085013_22949.png,n03085013_22949.png,1.0,12.132383,3.7480667,5.928607
alexnet2023_baseline_pgd,1,107,NaN,airplane,knife,0.7,0107_hp_dnn_0.7_knife_10_n03041632_4044.png,n03041632_4044.png,0.0,-0.57001257,2.8295298,-2.4038396
alexnet2023_baseline_pgd,1,108,NaN,airplane,airplane,1.5,0108_hp_dnn_1.5_airplane_10_n02690373_6455.png,n02690373_6455.png,1.0,6.551663,5.12404,1.0094818
alexnet2023_baseline_pgd,1,109,NaN,boat,airplane,0.55,0109_hp_dnn_0.55_airplane_10_n02690373_19646.png,n02690373_19646.png,0.0,3.5826716,3.7774692,-0.13774265
alexnet2023_baseline_pgd,1,110,NaN,boat,boat,inf,0110_hp_dnn_inf_boat_10_n04612504_1692.png,n04612504_1692.png,1.0,9.680592,4.8753333,3.3978307
alexnet2023_baseline_pgd,1,111,NaN,bear,cat,0.55,0111_hp_dnn_0.55_cat_10_n02124075_853.png,n02124075_853.png,0.0,-0.6738899,1.1577163,-1.2951411
alexnet2023_baseline_pgd,1,112,NaN,airplane,boat,1,0112_hp_dnn_1_boat_10_n04273569_6071.png,n04273569_6071.png,0.0,3.5818887,3.6305547,-0.03441206
alexnet2023_baseline_pgd,1,113,NaN,bicycle,bird,1.5,0113_hp_dnn_1.5_bird_10_n01616318_1214.png,n01616318_1214.png,0.0,1.4775101,2.2638068,-0.55599576
alexnet2023_baseline_pgd,1,114,NaN,bicycle,car,1.5,0114_hp_dnn_1.5_car_10_n02814533_14627.png,n02814533_14627.png,0.0,4.8455005,6.230319,-0.9792146
alexnet2023_baseline_pgd,1,115,NaN,airplane,keyboard,0.7,0115_hp_dnn_0.7_keyboard_10_n03085013_1483.png,n03085013_1483.png,0.0,2.6174262,2.6976066,-0.05669611
alexnet2023_baseline_pgd,1,116,NaN,airplane,airplane,0.55,0116_hp_dnn_0.55_airplane_10_n02690373_7401.png,n02690373_7401.png,1.0,4.7177196,2.9142904,1.2752169
alexnet2023_baseline_pgd,1,117,NaN,clock,keyboard,0.55,0117_hp_dnn_0.55_keyboard_10_n03085013_6963.png,n03085013_6963.png,0.0,-1.7536398,1.6084474,-2.3773546
alexnet2023_baseline_pgd,1,118,NaN,bicycle,knife,3,0118_hp_dnn_3_knife_10_n03041632_1407.png,n03041632_1407.png,0.0,1.3164074,4.9874973,-2.5958526
alexnet2023_baseline_pgd,1,119,NaN,chair,elephant,1.5,0119_hp_dnn_1.5_elephant_10_n02504458_5137.png,n02504458_5137.png,0.0,1.2482784,2.3477216,-0.77742374
alexnet2023_baseline_pgd,1,120,NaN,clock,clock,inf,0120_hp_dnn_inf_clock_10_n02708093_6635.png,n02708093_6635.png,1.0,9.76413,5.1157346,3.2869117
alexnet2023_baseline_pgd,1,121,NaN,airplane,oven,0.4,0121_hp_dnn_0.4_oven_10_n04111531_5927.png,n04111531_5927.png,0.0,-1.6098741,2.0108817,-2.560261
alexnet2023_baseline_pgd,1,122,NaN,clock,clock,inf,0122_hp_dnn_inf_clock_10_n02708093_2043.png,n02708093_2043.png,1.0,7.152992,4.672117,1.7542433
alexnet2023_baseline_pgd,1,123,NaN,airplane,airplane,0.4,0123_hp_dnn_0.4_airplane_10_n02690373_7300.png,n02690373_7300.png,1.0,4.803447,1.8414687,2.0944347
alexnet2023_baseline_pgd,1,124,NaN,airplane,oven,0.55,0124_hp_dnn_0.55_oven_10_n04111531_190.png,n04111531_190.png,0.0,-1.0170838,1.3606199,-1.6812904
alexnet2023_baseline_pgd,1,125,NaN,bird,dog,3,0125_hp_dnn_3_dog_10_n02091244_8497.png,n02091244_8497.png,0.0,-0.7106491,3.7793958,-3.1749413
alexnet2023_baseline_pgd,1,126,NaN,bicycle,bicycle,0.7,0126_hp_dnn_0.7_bicycle_10_n03792782_15932.png,n03792782_15932.png,1.0,1.2687174,1.0707644,0.1399739
alexnet2023_baseline_pgd,1,127,NaN,airplane,bear,0.4,0127_hp_dnn_0.4_bear_10_n02133161_463.png,n02133161_463.png,0.0,0.27865577,2.5586135,-1.6121737
alexnet2023_baseline_pgd,1,128,NaN,clock,cat,0.7,0128_hp_dnn_0.7_cat_10_n02123045_11126.png,n02123045_11126.png,0.0,-0.3963592,3.2027385,-2.5449464
alexnet2023_baseline_pgd,1,129,NaN,knife,clock,0.7,0129_hp_dnn_0.7_clock_10_n04548280_8646.png,n04548280_8646.png,0.0,3.3689442,3.504919,-0.09614877
alexnet2023_baseline_pgd,1,130,NaN,airplane,bottle,0.55,0130_hp_dnn_0.55_bottle_10_n03983396_11597.png,n03983396_11597.png,0.0,0.36067352,1.703035,-0.9491929
alexnet2023_baseline_pgd,1,131,NaN,chair,truck,3,0131_hp_dnn_3_truck_10_n03417042_212.png,n03417042_212.png,0.0,3.4833472,4.7965045,-0.92854244
alexnet2023_baseline_pgd,1,132,NaN,chair,keyboard,1,0132_hp_dnn_1_keyboard_10_n04505470_1724.png,n04505470_1724.png,0.0,3.3527286,4.575259,-0.8644597
alexnet2023_baseline_pgd,1,133,NaN,chair,chair,1,0133_hp_dnn_1_chair_10_n04099969_14028.png,n04099969_14028.png,1.0,4.304024,1.0743763,2.283706
alexnet2023_baseline_pgd,1,134,NaN,airplane,cat,0.45,0134_hp_dnn_0.45_cat_10_n02124075_2138.png,n02124075_2138.png,0.0,-1.1302379,2.2399528,-2.3830848
alexnet2023_baseline_pgd,1,135,NaN,airplane,boat,inf,0135_hp_dnn_inf_boat_10_n03662601_3145.png,n03662601_3145.png,0.0,7.348535,9.13945,-1.2663682
alexnet2023_baseline_pgd,1,136,NaN,bird,cat,3,0136_hp_dnn_3_cat_10_n02123045_1120.png,n02123045_1120.png,0.0,-0.28185987,3.9321618,-2.9797633
alexnet2023_baseline_pgd,1,137,NaN,boat,boat,inf,0137_hp_dnn_inf_boat_10_n04612504_31305.png,n04612504_31305.png,1.0,8.620111,6.818283,1.274085
alexnet2023_baseline_pgd,1,138,NaN,chair,chair,1,0138_hp_dnn_1_chair_10_n04099969_4275.png,n04099969_4275.png,1.0,3.5928104,3.5685728,0.017138595
alexnet2023_baseline_pgd,1,139,NaN,airplane,keyboard,0.4,0139_hp_dnn_0.4_keyboard_10_n03085013_23005.png,n03085013_23005.png,0.0,-0.8359463,2.1588707,-2.1176555
alexnet2023_baseline_pgd,1,140,NaN,airplane,airplane,1,0140_hp_dnn_1_airplane_10_n02690373_9618.png,n02690373_9618.png,1.0,4.6343126,4.31308,0.2271459
alexnet2023_baseline_pgd,1,141,NaN,knife,knife,0.55,0141_hp_dnn_0.55_knife_10_n03041632_17338.png,n03041632_17338.png,1.0,7.0408087,2.1710882,3.4434123
alexnet2023_baseline_pgd,1,142,NaN,airplane,clock,0.45,0142_hp_dnn_0.45_clock_10_n04548280_8225.png,n04548280_8225.png,0.0,0.8853125,1.6041809,-0.50831676
alexnet2023_baseline_pgd,1,143,NaN,car,car,inf,0143_hp_dnn_inf_car_10_n03100240_8907.png,n03100240_8907.png,1.0,13.638374,6.5363083,5.0219193
alexnet2023_baseline_pgd,1,144,NaN,chair,chair,1.5,0144_hp_dnn_1.5_chair_10_n03376595_6865.png,n03376595_6865.png,1.0,5.660193,3.421317,1.5831243
alexnet2023_baseline_pgd,1,145,NaN,airplane,bicycle,0.45,0145_hp_dnn_0.45_bicycle_10_n03792782_44296.png,n03792782_44296.png,0.0,-0.07834715,2.9504974,-2.1417165
alexnet2023_baseline_pgd,1,146,NaN,bird,boat,1.5,0146_hp_dnn_1.5_boat_10_n04273569_1233.png,n04273569_1233.png,0.0,1.2309669,2.369747,-0.8052391
alexnet2023_baseline_pgd,1,147,NaN,elephant,bird,1,0147_hp_dnn_1_bird_10_n01824575_12784.png,n01824575_12784.png,0.0,3.205761,3.9705572,-0.54079264
alexnet2023_baseline_pgd,1,148,NaN,boat,boat,3,0148_hp_dnn_3_boat_10_n03344393_408.png,n03344393_408.png,1.0,6.454571,4.684794,1.2514212
alexnet2023_baseline_pgd,1,149,NaN,airplane,airplane,1,0149_hp_dnn_1_airplane_10_n02690373_220.png,n02690373_220.png,1.0,6.302391,3.6002407,1.9107089
alexnet2023_baseline_pgd,1,150,NaN,chair,chair,3,0150_hp_dnn_3_chair_10_n04429376_10546.png,n04429376_10546.png,1.0,5.047859,4.361437,0.4853739
alexnet2023_baseline_pgd,1,151,NaN,bottle,oven,0.7,0151_hp_dnn_0.7_oven_10_n04111531_4749.png,n04111531_4749.png,0.0,0.10226683,1.4693956,-0.9667061
alexnet2023_baseline_pgd,1,152,NaN,airplane,truck,0.4,0152_hp_dnn_0.4_truck_10_n03417042_18124.png,n03417042_18124.png,0.0,-0.5228489,2.3922606,-2.0612936
alexnet2023_baseline_pgd,1,153,NaN,bottle,clock,3,0153_hp_dnn_3_clock_10_n03196217_7353.png,n03196217_7353.png,0.0,2.5537636,3.9940114,-1.018409
alexnet2023_baseline_pgd,1,154,NaN,elephant,dog,0.7,0154_hp_dnn_0.7_dog_10_n02098286_2699.png,n02098286_2699.png,0.0,-0.18728279,1.7715869,-1.38513
alexnet2023_baseline_pgd,1,155,NaN,airplane,truck,0.4,0155_hp_dnn_0.4_truck_10_n03796401_3651.png,n03796401_3651.png,0.0,-0.09621708,2.7402196,-2.0056636
alexnet2023_baseline_pgd,1,156,NaN,airplane,bottle,0.4,0156_hp_dnn_0.4_bottle_10_n03983396_4165.png,n03983396_4165.png,0.0,0.38346165,2.5190563,-1.5100935
alexnet2023_baseline_pgd,1,157,NaN,bicycle,knife,1,0157_hp_dnn_1_knife_10_n03041632_25257.png,n03041632_25257.png,0.0,-1.7386298,3.0956533,-3.4183543
alexnet2023_baseline_pgd,1,158,NaN,chair,chair,3,0158_hp_dnn_3_chair_10_n04099969_1229.png,n04099969_1229.png,1.0,8.269272,1.5931362,4.720741
alexnet2023_baseline_pgd,1,159,NaN,bird,bird,inf,0159_hp_dnn_inf_bird_10_n01798484_518.png,n01798484_518.png,1.0,5.27882,2.4173794,2.023344
alexnet2023_baseline_pgd,1,160,NaN,bird,bird,inf,0160_hp_dnn_inf_bird_10_n01797886_1953.png,n01797886_1953.png,1.0,6.6503253,2.911068,2.6440542
alexnet2023_baseline_pgd,1,161,NaN,bird,bird,3,0161_hp_dnn_3_bird_10_n01820546_228.png,n01820546_228.png,1.0,5.824029,1.7788135,2.8603995
alexnet2023_baseline_pgd,1,162,NaN,bear,bear,1.5,0162_hp_dnn_1.5_bear_10_n02134418_2666.png,n02134418_2666.png,1.0,2.9672585,2.4416623,0.3716526
alexnet2023_baseline_pgd,1,163,NaN,boat,boat,1.5,0163_hp_dnn_1.5_boat_10_n03344393_7659.png,n03344393_7659.png,1.0,6.8088503,5.8890343,0.65040815
alexnet2023_baseline_pgd,1,164,NaN,bicycle,oven,1.5,0164_hp_dnn_1.5_oven_10_n04111531_1752.png,n04111531_1752.png,0.0,0.84449464,3.1351118,-1.619711
alexnet2023_baseline_pgd,1,165,NaN,elephant,dog,inf,0165_hp_dnn_inf_dog_10_n02091032_8873.png,n02091032_8873.png,0.0,3.3160608,9.0826645,-4.0776043
alexnet2023_baseline_pgd,1,166,NaN,bicycle,oven,0.7,0166_hp_dnn_0.7_oven_10_n04111531_14559.png,n04111531_14559.png,0.0,-1.0639445,1.4179372,-1.7549554
alexnet2023_baseline_pgd,1,167,NaN,knife,cat,0.7,0167_hp_dnn_0.7_cat_10_n02123045_114.png,n02123045_114.png,0.0,0.13039334,1.4044384,-0.9008859
alexnet2023_baseline_pgd,1,168,NaN,bottle,cat,3,0168_hp_dnn_3_cat_10_n02123597_13865.png,n02123597_13865.png,0.0,1.7900804,2.4571965,-0.47172228
alexnet2023_baseline_pgd,1,169,NaN,knife,knife,0.55,0169_hp_dnn_0.55_knife_10_n03041632_13478.png,n03041632_13478.png,1.0,3.6787844,1.3907428,1.6178898
alexnet2023_baseline_pgd,1,170,NaN,airplane,elephant,0.55,0170_hp_dnn_0.55_elephant_10_n02504458_2618.png,n02504458_2618.png,0.0,0.49993515,2.4931006,-1.4093809
alexnet2023_baseline_pgd,1,171,NaN,airplane,truck,1,0171_hp_dnn_1_truck_10_n04467665_56954.png,n04467665_56954.png,0.0,1.167399,3.5781906,-1.704687
alexnet2023_baseline_pgd,1,172,NaN,clock,chair,1,0172_hp_dnn_1_chair_10_n04429376_1791.png,n04429376_1791.png,0.0,3.4982886,3.6265602,-0.09070171
alexnet2023_baseline_pgd,1,173,NaN,bottle,bottle,3,0173_hp_dnn_3_bottle_10_n04560804_33214.png,n04560804_33214.png,1.0,5.8698497,3.6127186,1.5960327
alexnet2023_baseline_pgd,1,174,NaN,knife,knife,inf,0174_hp_dnn_inf_knife_10_n03041632_48816.png,n03041632_48816.png,1.0,8.035252,6.7771683,0.88959926
alexnet2023_baseline_pgd,1,175,NaN,cat,cat,3,0175_hp_dnn_3_cat_10_n02123394_2274.png,n02123394_2274.png,1.0,2.2814791,1.9240327,0.2527528
alexnet2023_baseline_pgd,1,176,NaN,truck,truck,1.5,0176_hp_dnn_1.5_truck_10_n03796401_1326.png,n03796401_1326.png,1.0,7.157037,4.8012023,1.6658266
alexnet2023_baseline_pgd,1,177,NaN,knife,knife,0.55,0177_hp_dnn_0.55_knife_10_n03041632_11887.png,n03041632_11887.png,1.0,3.3052413,2.503903,0.56663185
alexnet2023_baseline_pgd,1,178,NaN,airplane,dog,0.7,0178_hp_dnn_0.7_dog_10_n02113978_8008.png,n02113978_8008.png,0.0,0.6429487,2.0483174,-0.9937458
alexnet2023_baseline_pgd,1,179,NaN,airplane,cat,0.4,0179_hp_dnn_0.4_cat_10_n02123045_4812.png,n02123045_4812.png,0.0,-1.1715826,2.971539,-2.9296296
alexnet2023_baseline_pgd,1,180,NaN,bird,bird,inf,0180_hp_dnn_inf_bird_10_n01833805_3578.png,n01833805_3578.png,1.0,5.4759135,3.1692154,1.6310819
alexnet2023_baseline_pgd,1,181,NaN,truck,truck,1,0181_hp_dnn_1_truck_10_n03417042_3398.png,n03417042_3398.png,1.0,4.420886,3.2425184,0.83323175
alexnet2023_baseline_pgd,1,182,NaN,bear,bird,0.7,0182_hp_dnn_0.7_bird_10_n02007558_4566.png,n02007558_4566.png,0.0,1.0060123,1.6642408,-0.46543786
alexnet2023_baseline_pgd,1,183,NaN,airplane,knife,0.45,0183_hp_dnn_0.45_knife_10_n03041632_3516.png,n03041632_3516.png,0.0,1.6129844,1.7726978,-0.11293442
alexnet2023_baseline_pgd,1,184,NaN,bottle,cat,1.5,0184_hp_dnn_1.5_cat_10_n02124075_14965.png,n02124075_14965.png,0.0,-0.34707737,3.2520444,-2.5449636
alexnet2023_baseline_pgd,1,185,NaN,airplane,bird,0.4,0185_hp_dnn_0.4_bird_10_n01843065_2176.png,n01843065_2176.png,0.0,1.2362369,3.3551347,-1.4982871
alexnet2023_baseline_pgd,1,186,NaN,knife,knife,3,0186_hp_dnn_3_knife_10_n03041632_21034.png,n03041632_21034.png,1.0,3.7930255,1.2492746,1.7987034
alexnet2023_baseline_pgd,1,187,NaN,knife,keyboard,1.5,0187_hp_dnn_1.5_keyboard_10_n03085013_24026.png,n03085013_24026.png,0.0,2.7552366,4.3503404,-1.1279087
alexnet2023_baseline_pgd,1,188,NaN,bottle,bottle,0.55,0188_hp_dnn_0.55_bottle_10_n04560804_14395.png,n04560804_14395.png,1.0,2.9406497,2.0910463,0.60076034
alexnet2023_baseline_pgd,1,189,NaN,boat,boat,0.45,0189_hp_dnn_0.45_boat_10_n02951358_11567.png,n02951358_11567.png,1.0,4.0577035,2.5646935,1.0557176
alexnet2023_baseline_pgd,1,190,NaN,boat,chair,0.4,0190_hp_dnn_0.4_chair_10_n03376595_17747.png,n03376595_17747.png,0.0,-0.42222032,1.788955,-1.563537
alexnet2023_baseline_pgd,1,191,NaN,bottle,bottle,inf,0191_hp_dnn_inf_bottle_10_n04591713_5563.png,n04591713_5563.png,1.0,7.98169,6.530001,1.026499
alexnet2023_baseline_pgd,1,192,NaN,airplane,airplane,3,0192_hp_dnn_3_airplane_10_n02690373_7496.png,n02690373_7496.png,1.0,10.0566025,5.6127415,3.1422844
alexnet2023_baseline_pgd,1,193,NaN,airplane,airplane,3,0193_hp_dnn_3_airplane_10_n02690373_4465.png,n02690373_4465.png,1.0,9.367683,4.6116676,3.3630111
alexnet2023_baseline_pgd,1,194,NaN,airplane,bear,0.4,0194_hp_dnn_0.4_bear_10_n02134418_119.png,n02134418_119.png,0.0,0.16380568,2.512209,-1.6605718
alexnet2023_baseline_pgd,1,195,NaN,elephant,bear,1.5,0195_hp_dnn_1.5_bear_10_n02133161_1970.png,n02133161_1970.png,0.0,0.8125253,2.4638605,-1.1676704
alexnet2023_baseline_pgd,1,196,NaN,clock,bird,1.5,0196_hp_dnn_1.5_bird_10_n02018795_5488.png,n02018795_5488.png,0.0,0.9110418,2.64087,-1.2231734
alexnet2023_baseline_pgd,1,197,NaN,airplane,bird,0.45,0197_hp_dnn_0.45_bird_10_n01796340_1877.png,n01796340_1877.png,0.0,1.2922674,3.0809693,-1.2648033
alexnet2023_baseline_pgd,1,198,NaN,airplane,airplane,0.4,0198_hp_dnn_0.4_airplane_10_n02690373_4964.png,n02690373_4964.png,1.0,3.90234,2.5286617,0.9713372
alexnet2023_baseline_pgd,1,199,NaN,knife,bottle,0.4,0199_hp_dnn_0.4_bottle_10_n04591713_1762.png,n04591713_1762.png,0.0,3.1509185,4.1309195,-0.6929653
alexnet2023_baseline_pgd,1,200,NaN,bicycle,car,1,0200_hp_dnn_1_car_10_n03100240_6059.png,n03100240_6059.png,0.0,2.6968327,2.9611354,-0.18689026
alexnet2023_baseline_pgd,1,201,NaN,knife,chair,inf,0201_hp_dnn_inf_chair_10_n03376595_10769.png,n03376595_10769.png,0.0,4.299833,5.592264,-0.91388696
alexnet2023_baseline_pgd,1,202,NaN,oven,oven,inf,0202_hp_dnn_inf_oven_10_n04111531_1723.png,n04111531_1723.png,1.0,7.118671,2.5596085,3.2237442
alexnet2023_baseline_pgd,1,203,NaN,bird,bicycle,0.45,0203_hp_dnn_0.45_bicycle_10_n02835271_3570.png,n02835271_3570.png,0.0,-2.2558627,3.5551257,-4.1089892
alexnet2023_baseline_pgd,1,204,NaN,airplane,knife,0.4,0204_hp_dnn_0.4_knife_10_n03041632_83826.png,n03041632_83826.png,0.0,0.62292534,2.066322,-1.0206357
alexnet2023_baseline_pgd,1,205,NaN,bottle,keyboard,0.7,0205_hp_dnn_0.7_keyboard_10_n03085013_20673.png,n03085013_20673.png,0.0,0.36765647,5.1807084,-3.403342
alexnet2023_baseline_pgd,1,206,NaN,knife,knife,1,0206_hp_dnn_1_knife_10_n03041632_27575.png,n03041632_27575.png,1.0,5.010666,2.7211125,1.6189587
alexnet2023_baseline_pgd,1,207,NaN,bird,bird,1.5,0207_hp_dnn_1.5_bird_10_n01558993_14305.png,n01558993_14305.png,1.0,6.451738,0.7098748,4.0601106
alexnet2023_baseline_pgd,1,208,NaN,airplane,bird,0.4,0208_hp_dnn_0.4_bird_10_n01537544_18123.png,n01537544_18123.png,0.0,0.99251014,3.542425,-1.8030621
alexnet2023_baseline_pgd,1,209,NaN,bicycle,bicycle,3,0209_hp_dnn_3_bicycle_10_n02835271_4307.png,n02835271_4307.png,1.0,14.631963,6.039306,6.0759263
alexnet2023_baseline_pgd,1,210,NaN,boat,car,0.7,0210_hp_dnn_0.7_car_10_n04285008_6320.png,n04285008_6320.png,0.0,1.1869845,3.6833236,-1.7651783
alexnet2023_baseline_pgd,1,211,NaN,clock,elephant,0.7,0211_hp_dnn_0.7_elephant_10_n02504458_1327.png,n02504458_1327.png,0.0,1.5656848,1.9480228,-0.27035382
alexnet2023_baseline_pgd,1,212,NaN,bottle,bottle,1,0212_hp_dnn_1_bottle_10_n04560804_1813.png,n04560804_1813.png,1.0,2.736483,2.0042112,0.51779443
alexnet2023_baseline_pgd,1,213,NaN,cat,cat,1,0213_hp_dnn_1_cat_10_n02124075_10085.png,n02124075_10085.png,1.0,1.4957289,1.4637477,0.02261406
alexnet2023_baseline_pgd,1,214,NaN,bottle,clock,inf,0214_hp_dnn_inf_clock_10_n03196217_2853.png,n03196217_2853.png,0.0,7.0802455,7.385654,-0.2159564
alexnet2023_baseline_pgd,1,215,NaN,boat,boat,1.5,0215_hp_dnn_1.5_boat_10_n04273569_10149.png,n04273569_10149.png,1.0,4.6865797,2.1963677,1.7608458
alexnet2023_baseline_pgd,1,216,NaN,chair,chair,3,0216_hp_dnn_3_chair_10_n03376595_17859.png,n03376595_17859.png,1.0,7.685911,2.0524886,3.9834316
alexnet2023_baseline_pgd,1,217,NaN,knife,dog,0.55,0217_hp_dnn_0.55_dog_10_n02101556_7581.png,n02101556_7581.png,0.0,-0.3302077,2.009438,-1.6543795
alexnet2023_baseline_pgd,1,218,NaN,airplane,cat,0.4,0218_hp_dnn_0.4_cat_10_n02125311_8522.png,n02125311_8522.png,0.0,-1.1616524,3.062877,-2.9871933
alexnet2023_baseline_pgd,1,219,NaN,clock,clock,0.45,0219_hp_dnn_0.45_clock_10_n04548280_4345.png,n04548280_4345.png,1.0,2.3334997,1.7079307,0.44234407
alexnet2023_baseline_pgd,1,220,NaN,truck,truck,inf,0220_hp_dnn_inf_truck_10_n04467665_4088.png,n04467665_4088.png,1.0,13.711639,9.099622,3.261189
alexnet2023_baseline_pgd,1,221,NaN,dog,dog,inf,0221_hp_dnn_inf_dog_10_n02102040_1100.png,n02102040_1100.png,1.0,7.174245,3.2731228,2.7585099
alexnet2023_baseline_pgd,1,222,NaN,airplane,bicycle,0.55,0222_hp_dnn_0.55_bicycle_10_n03792782_15557.png,n03792782_15557.png,0.0,-0.79361904,2.814364,-2.5512295
alexnet2023_baseline_pgd,1,223,NaN,chair,car,3,0223_hp_dnn_3_car_10_n04285008_12767.png,n04285008_12767.png,0.0,3.8187983,4.631021,-0.5743282
alexnet2023_baseline_pgd,1,224,NaN,airplane,boat,0.4,0224_hp_dnn_0.4_boat_10_n03662601_2438.png,n03662601_2438.png,0.0,2.211579,3.0232618,-0.57394636
alexnet2023_baseline_pgd,1,225,NaN,truck,truck,inf,0225_hp_dnn_inf_truck_10_n03417042_6419.png,n03417042_6419.png,1.0,15.312983,11.001168,3.0489132
alexnet2023_baseline_pgd,1,226,NaN,knife,chair,0.45,0226_hp_dnn_0.45_chair_10_n04099969_9891.png,n04099969_9891.png,0.0,0.09333721,2.0460324,-1.3807641
alexnet2023_baseline_pgd,1,227,NaN,cat,cat,inf,0227_hp_dnn_inf_cat_10_n02123045_8543.png,n02123045_8543.png,1.0,9.476156,1.9824328,5.298863
alexnet2023_baseline_pgd,1,228,NaN,boat,cat,0.55,0228_hp_dnn_0.55_cat_10_n02123045_7342.png,n02123045_7342.png,0.0,-0.24016745,1.5108285,-1.2381412
alexnet2023_baseline_pgd,1,229,NaN,bird,bird,0.55,0229_hp_dnn_0.55_bird_10_n02018207_10814.png,n02018207_10814.png,1.0,2.2425692,2.2030816,0.02792195
alexnet2023_baseline_pgd,1,230,NaN,airplane,airplane,3,0230_hp_dnn_3_airplane_10_n02690373_20033.png,n02690373_20033.png,1.0,9.847568,5.483449,3.085898
alexnet2023_baseline_pgd,1,231,NaN,airplane,truck,0.55,0231_hp_dnn_0.55_truck_10_n04467665_13645.png,n04467665_13645.png,0.0,1.3351666,4.082578,-1.9427135
alexnet2023_baseline_pgd,1,232,NaN,airplane,airplane,1.5,0232_hp_dnn_1.5_airplane_10_n02690373_5015.png,n02690373_5015.png,1.0,6.7380595,5.575472,0.82207364
alexnet2023_baseline_pgd,1,233,NaN,bird,chair,1.5,0233_hp_dnn_1.5_chair_10_n03376595_6173.png,n03376595_6173.png,0.0,1.0225524,2.8855407,-1.3173317
alexnet2023_baseline_pgd,1,234,NaN,chair,knife,1.5,0234_hp_dnn_1.5_knife_10_n03041632_91967.png,n03041632_91967.png,0.0,2.3667705,4.675617,-1.6326011
alexnet2023_baseline_pgd,1,235,NaN,elephant,elephant,inf,0235_hp_dnn_inf_elephant_10_n02504458_1271.png,n02504458_1271.png,1.0,13.615986,0.98385906,8.932262
alexnet2023_baseline_pgd,1,236,NaN,bird,cat,0.7,0236_hp_dnn_0.7_cat_10_n02123597_1684.png,n02123597_1684.png,0.0,0.38951364,1.4408505,-0.7434074
alexnet2023_baseline_pgd,1,237,NaN,bear,dog,0.55,0237_hp_dnn_0.55_dog_10_n02091831_3628.png,n02091831_3628.png,0.0,0.94552684,1.591644,-0.45687386
alexnet2023_baseline_pgd,1,238,NaN,bottle,truck,0.45,0238_hp_dnn_0.45_truck_10_n04467665_64540.png,n04467665_64540.png,0.0,1.0987183,1.824975,-0.51354104
alexnet2023_baseline_pgd,1,239,NaN,airplane,airplane,1,0239_hp_dnn_1_airplane_10_n02690373_3289.png,n02690373_3289.png,1.0,6.6330442,3.1018345,2.4969423
alexnet2023_baseline_pgd,1,240,NaN,boat,boat,3,0240_hp_dnn_3_boat_10_n04273569_16949.png,n04273569_16949.png,1.0,7.1073823,3.9352028,2.2430696
alexnet2023_baseline_pgd,1,241,NaN,boat,bicycle,1,0241_hp_dnn_1_bicycle_10_n03792782_15174.png,n03792782_15174.png,0.0,0.6828104,3.5931995,-2.0579557
alexnet2023_baseline_pgd,1,242,NaN,knife,bottle,1.5,0242_hp_dnn_1.5_bottle_10_n03937543_146.png,n03937543_146.png,0.0,3.1090052,3.649303,-0.38204822
alexnet2023_baseline_pgd,1,243,NaN,knife,chair,0.45,0243_hp_dnn_0.45_chair_10_n04429376_694.png,n04429376_694.png,0.0,1.0135099,1.9887254,-0.6895816
alexnet2023_baseline_pgd,1,244,NaN,knife,keyboard,0.4,0244_hp_dnn_0.4_keyboard_10_n03085013_19407.png,n03085013_19407.png,0.0,-0.85288334,3.038516,-2.7516348
alexnet2023_baseline_pgd,1,245,NaN,airplane,oven,0.45,0245_hp_dnn_0.45_oven_10_n04111531_4955.png,n04111531_4955.png,0.0,-1.9975493,2.7715204,-3.3722415
alexnet2023_baseline_pgd,1,246,NaN,chair,dog,1.5,0246_hp_dnn_1.5_dog_10_n02099712_1825.png,n02099712_1825.png,0.0,-1.779811,2.3683126,-2.9331665
alexnet2023_baseline_pgd,1,247,NaN,bear,bear,0.55,0247_hp_dnn_0.55_bear_10_n02134084_14031.png,n02134084_14031.png,1.0,2.2836475,2.0942464,0.13392684
alexnet2023_baseline_pgd,1,248,NaN,bird,car,0.45,0248_hp_dnn_0.45_car_10_n02814533_70922.png,n02814533_70922.png,0.0,0.42797175,1.8207513,-0.9848439
alexnet2023_baseline_pgd,1,249,NaN,airplane,elephant,0.45,0249_hp_dnn_0.45_elephant_10_n02504458_217.png,n02504458_217.png,0.0,0.33626607,3.2443514,-2.0563269
alexnet2023_baseline_pgd,1,250,NaN,car,car,inf,0250_hp_dnn_inf_car_10_n02814533_27824.png,n02814533_27824.png,1.0,15.885837,9.672838,4.3932533
alexnet2023_baseline_pgd,1,251,NaN,keyboard,keyboard,0.7,0251_hp_dnn_0.7_keyboard_10_n03085013_24257.png,n03085013_24257.png,1.0,8.742896,4.481807,3.0130448
alexnet2023_baseline_pgd,1,252,NaN,elephant,elephant,3,0252_hp_dnn_3_elephant_10_n02504013_2269.png,n02504013_2269.png,1.0,7.819338,2.86964,3.4999647
alexnet2023_baseline_pgd,1,253,NaN,airplane,bear,0.45,0253_hp_dnn_0.45_bear_10_n02134418_1798.png,n02134418_1798.png,0.0,0.18108669,2.6415024,-1.7397766
alexnet2023_baseline_pgd,1,254,NaN,airplane,dog,0.45,0254_hp_dnn_0.45_dog_10_n02111129_6881.png,n02111129_6881.png,0.0,0.103522636,1.4879187,-0.97891587
alexnet2023_baseline_pgd,1,255,NaN,truck,truck,1.5,0255_hp_dnn_1.5_truck_10_n04467665_67315.png,n04467665_67315.png,1.0,6.096943,5.0356846,0.75042295
alexnet2023_baseline_pgd,1,256,NaN,boat,elephant,0.55,0256_hp_dnn_0.55_elephant_10_n02504013_3688.png,n02504013_3688.png,0.0,0.8169052,2.6664667,-1.3078375
alexnet2023_baseline_pgd,1,257,NaN,airplane,truck,1.5,0257_hp_dnn_1.5_truck_10_n04467665_38886.png,n04467665_38886.png,0.0,3.0393324,3.0991514,-0.04229841
alexnet2023_baseline_pgd,1,258,NaN,bottle,bottle,inf,0258_hp_dnn_inf_bottle_10_n04557648_4250.png,n04557648_4250.png,1.0,11.212928,3.58724,5.3921757
alexnet2023_baseline_pgd,1,259,NaN,knife,chair,0.45,0259_hp_dnn_0.45_chair_10_n04099969_4053.png,n04099969_4053.png,0.0,0.6260978,3.257242,-1.8604999
alexnet2023_baseline_pgd,1,260,NaN,bottle,knife,0.7,0260_hp_dnn_0.7_knife_10_n03041632_5727.png,n03041632_5727.png,0.0,1.808795,2.028724,-0.15551327
alexnet2023_baseline_pgd,1,261,NaN,chair,dog,1,0261_hp_dnn_1_dog_10_n02091134_4525.png,n02091134_4525.png,0.0,-1.6184312,2.7084303,-3.0595531
alexnet2023_baseline_pgd,1,262,NaN,keyboard,keyboard,inf,0262_hp_dnn_inf_keyboard_10_n04505470_4685.png,n04505470_4685.png,1.0,13.482446,6.5655684,4.8909707
alexnet2023_baseline_pgd,1,263,NaN,airplane,boat,0.4,0263_hp_dnn_0.4_boat_10_n02951358_6637.png,n02951358_6637.png,0.0,2.3074338,3.2073603,-0.6363441
alexnet2023_baseline_pgd,1,264,NaN,bottle,dog,1.5,0264_hp_dnn_1.5_dog_10_n02093256_11232.png,n02093256_11232.png,0.0,-1.0618883,2.1495743,-2.2708468
alexnet2023_baseline_pgd,1,265,NaN,elephant,elephant,inf,0265_hp_dnn_inf_elephant_10_n02504013_816.png,n02504013_816.png,1.0,11.210863,5.336058,4.1541147
alexnet2023_baseline_pgd,1,266,NaN,elephant,bear,1.5,0266_hp_dnn_1.5_bear_10_n02134084_1484.png,n02134084_1484.png,0.0,1.0127062,3.2004116,-1.5469414
alexnet2023_baseline_pgd,1,267,NaN,airplane,boat,0.45,0267_hp_dnn_0.45_boat_10_n04273569_15859.png,n04273569_15859.png,0.0,-0.081231356,2.2414987,-1.6424183
alexnet2023_baseline_pgd,1,268,NaN,bird,bicycle,3,0268_hp_dnn_3_bicycle_10_n02835271_7311.png,n02835271_7311.png,0.0,3.4882455,3.6852674,-0.13931556
alexnet2023_baseline_pgd,1,269,NaN,clock,cat,1,0269_hp_dnn_1_cat_10_n02123045_2339.png,n02123045_2339.png,0.0,0.635545,1.34435,-0.5012008
alexnet2023_baseline_pgd,1,270,NaN,airplane,elephant,0.45,0270_hp_dnn_0.45_elephant_10_n02504458_4448.png,n02504458_4448.png,0.0,1.3597717,3.8808372,-1.7826625
alexnet2023_baseline_pgd,1,271,NaN,car,car,1,0271_hp_dnn_1_car_10_n03100240_9955.png,n03100240_9955.png,1.0,10.529636,5.863019,3.2997968
alexnet2023_baseline_pgd,1,272,NaN,boat,truck,0.55,0272_hp_dnn_0.55_truck_10_n03417042_7310.png,n03417042_7310.png,0.0,-0.31470123,2.8830376,-2.261143
alexnet2023_baseline_pgd,1,273,NaN,bottle,chair,0.55,0273_hp_dnn_0.55_chair_10_n04099969_20421.png,n04099969_20421.png,0.0,0.08328083,1.031505,-0.67049575
alexnet2023_baseline_pgd,1,274,NaN,airplane,boat,0.45,0274_hp_dnn_0.45_boat_10_n04612504_4581.png,n04612504_4581.png,0.0,3.5926392,3.653607,-0.043110665
alexnet2023_baseline_pgd,1,275,NaN,bird,bear,1,0275_hp_dnn_1_bear_10_n02134418_4515.png,n02134418_4515.png,0.0,0.6967168,2.3529184,-1.1711113
alexnet2023_baseline_pgd,1,276,NaN,clock,truck,0.7,0276_hp_dnn_0.7_truck_10_n03796401_1082.png,n03796401_1082.png,0.0,2.031051,3.4146702,-0.9783666
alexnet2023_baseline_pgd,1,277,NaN,bicycle,bicycle,1,0277_hp_dnn_1_bicycle_10_n03792782_8176.png,n03792782_8176.png,1.0,3.408759,1.3897774,1.4276357
alexnet2023_baseline_pgd,1,278,NaN,airplane,oven,0.4,0278_hp_dnn_0.4_oven_10_n04111531_5463.png,n04111531_5463.png,0.0,-0.76566815,2.823498,-2.5379238
alexnet2023_baseline_pgd,1,279,NaN,elephant,elephant,1.5,0279_hp_dnn_1.5_elephant_10_n02504013_4166.png,n02504013_4166.png,1.0,3.7079902,2.8703616,0.5922929
alexnet2023_baseline_pgd,1,280,NaN,airplane,airplane,0.7,0280_hp_dnn_0.7_airplane_10_n02690373_18295.png,n02690373_18295.png,1.0,6.205929,2.511991,2.6120086
alexnet2023_baseline_pgd,1,281,NaN,airplane,cat,0.45,0281_hp_dnn_0.45_cat_10_n02124075_1460.png,n02124075_1460.png,0.0,-0.8349163,1.6737546,-1.7738981
alexnet2023_baseline_pgd,1,282,NaN,bird,bird,0.55,0282_hp_dnn_0.55_bird_10_n02028035_17759.png,n02028035_17759.png,1.0,2.671028,2.2095742,0.32629701
alexnet2023_baseline_pgd,1,283,NaN,chair,chair,3,0283_hp_dnn_3_chair_10_n02791124_6654.png,n02791124_6654.png,1.0,3.9783823,0.8862793,2.1864471
alexnet2023_baseline_pgd,1,284,NaN,knife,truck,0.7,0284_hp_dnn_0.7_truck_10_n04467665_22974.png,n04467665_22974.png,0.0,1.7329742,3.126164,-0.98513395
alexnet2023_baseline_pgd,1,285,NaN,clock,clock,0.55,0285_hp_dnn_0.55_clock_10_n03196217_2983.png,n03196217_2983.png,1.0,3.8321922,3.8283935,0.002686103
alexnet2023_baseline_pgd,1,286,NaN,oven,knife,inf,0286_hp_dnn_inf_knife_10_n03041632_23968.png,n03041632_23968.png,0.0,5.639555,6.2205853,-0.41085052
alexnet2023_baseline_pgd,1,287,NaN,airplane,keyboard,0.4,0287_hp_dnn_0.4_keyboard_10_n03085013_23519.png,n03085013_23519.png,0.0,0.8039532,2.2720819,-1.0381237
alexnet2023_baseline_pgd,1,288,NaN,bottle,bottle,1.5,0288_hp_dnn_1.5_bottle_10_n04591713_14895.png,n04591713_14895.png,1.0,5.0899568,4.020247,0.75639904
alexnet2023_baseline_pgd,1,289,NaN,elephant,elephant,1,0289_hp_dnn_1_elephant_10_n02504013_3969.png,n02504013_3969.png,1.0,2.5683503,1.9803503,0.41577885
alexnet2023_baseline_pgd,1,290,NaN,bird,bear,3,0290_hp_dnn_3_bear_10_n02134418_3723.png,n02134418_3723.png,0.0,2.304519,3.318681,-0.7171209
alexnet2023_baseline_pgd,1,291,NaN,airplane,keyboard,0.45,0291_hp_dnn_0.45_keyboard_10_n04505470_709.png,n04505470_709.png,0.0,-0.086915776,2.3718219,-1.7385901
alexnet2023_baseline_pgd,1,292,NaN,bottle,knife,1.5,0292_hp_dnn_1.5_knife_10_n03041632_379.png,n03041632_379.png,0.0,2.0212495,3.5375311,-1.072173
alexnet2023_baseline_pgd,1,293,NaN,bird,oven,3,0293_hp_dnn_3_oven_10_n04111531_13128.png,n04111531_13128.png,0.0,-2.2413783,2.986406,-3.6966016
alexnet2023_baseline_pgd,1,294,NaN,elephant,elephant,0.55,0294_hp_dnn_0.55_elephant_10_n02504013_933.png,n02504013_933.png,1.0,3.9219286,2.3182898,1.1339439
alexnet2023_baseline_pgd,1,295,NaN,airplane,airplane,inf,0295_hp_dnn_inf_airplane_10_n02690373_17603.png,n02690373_17603.png,1.0,18.11147,5.105479,9.196625
alexnet2023_baseline_pgd,1,296,NaN,airplane,airplane,0.45,0296_hp_dnn_0.45_airplane_10_n02690373_5177.png,n02690373_5177.png,1.0,3.9151022,2.621584,0.91465557
alexnet2023_baseline_pgd,1,297,NaN,knife,chair,1.5,0297_hp_dnn_1.5_chair_10_n04429376_28121.png,n04429376_28121.png,0.0,1.8704014,2.5479758,-0.47911745
alexnet2023_baseline_pgd,1,298,NaN,knife,truck,0.55,0298_hp_dnn_0.55_truck_10_n03417042_6517.png,n03417042_6517.png,0.0,-0.8465213,2.4610038,-2.3387735
alexnet2023_baseline_pgd,1,299,NaN,airplane,chair,0.55,0299_hp_dnn_0.55_chair_10_n03376595_5503.png,n03376595_5503.png,0.0,-0.45460847,3.2546287,-2.6228268
alexnet2023_baseline_pgd,1,300,NaN,clock,clock,1.5,0300_hp_dnn_1.5_clock_10_n03196217_7918.png,n03196217_7918.png,1.0,4.5122824,4.3094177,0.14344697
alexnet2023_baseline_pgd,1,301,NaN,car,car,1,0301_hp_dnn_1_car_10_n04285008_7751.png,n04285008_7751.png,1.0,8.098534,4.5490813,2.509842
alexnet2023_baseline_pgd,1,302,NaN,airplane,clock,0.4,0302_hp_dnn_0.4_clock_10_n03196217_2628.png,n03196217_2628.png,0.0,0.47954103,2.3102496,-1.2945064
alexnet2023_baseline_pgd,1,303,NaN,bird,bird,0.55,0303_hp_dnn_0.55_bird_10_n01833805_6395.png,n01833805_6395.png,1.0,4.1962,3.8931084,0.21431808
alexnet2023_baseline_pgd,1,304,NaN,airplane,boat,0.4,0304_hp_dnn_0.4_boat_10_n03344393_6015.png,n03344393_6015.png,0.0,2.0791428,3.4251323,-0.95175827
alexnet2023_baseline_pgd,1,305,NaN,chair,elephant,1.5,0305_hp_dnn_1.5_elephant_10_n02504013_2739.png,n02504013_2739.png,0.0,1.796257,3.524582,-1.2221103
alexnet2023_baseline_pgd,1,306,NaN,bottle,keyboard,0.45,0306_hp_dnn_0.45_keyboard_10_n03085013_23316.png,n03085013_23316.png,0.0,1.1358141,1.1952181,-0.042004984
alexnet2023_baseline_pgd,1,307,NaN,airplane,airplane,1,0307_hp_dnn_1_airplane_10_n02690373_20350.png,n02690373_20350.png,1.0,6.079628,5.4274564,0.46115497
alexnet2023_baseline_pgd,1,308,NaN,clock,clock,3,0308_hp_dnn_3_clock_10_n02708093_3484.png,n02708093_3484.png,1.0,6.359117,3.495896,2.024603
alexnet2023_baseline_pgd,1,309,NaN,clock,bicycle,0.55,0309_hp_dnn_0.55_bicycle_10_n03792782_10185.png,n03792782_10185.png,0.0,-0.81031793,1.5223004,-1.6494102
alexnet2023_baseline_pgd,1,310,NaN,knife,knife,3,0310_hp_dnn_3_knife_10_n03041632_42196.png,n03041632_42196.png,1.0,10.165808,4.3995256,4.0773773
alexnet2023_baseline_pgd,1,311,NaN,bird,bird,inf,0311_hp_dnn_inf_bird_10_n01855672_6132.png,n01855672_6132.png,1.0,8.225117,5.350374,2.03275
alexnet2023_baseline_pgd,1,312,NaN,airplane,bottle,0.4,0312_hp_dnn_0.4_bottle_10_n03983396_3047.png,n03983396_3047.png,0.0,0.64067096,3.054925,-1.7071353
alexnet2023_baseline_pgd,1,313,NaN,knife,bottle,0.4,0313_hp_dnn_0.4_bottle_10_n04557648_2093.png,n04557648_2093.png,0.0,1.6239468,1.8398843,-0.15269087
alexnet2023_baseline_pgd,1,314,NaN,keyboard,keyboard,0.55,0314_hp_dnn_0.55_keyboard_10_n04505470_7686.png,n04505470_7686.png,1.0,4.8156967,4.0385437,0.54953015
alexnet2023_baseline_pgd,1,315,NaN,bird,bear,1.5,0315_hp_dnn_1.5_bear_10_n02132136_5051.png,n02132136_5051.png,0.0,0.8328906,4.8006186,-2.8056076
alexnet2023_baseline_pgd,1,316,NaN,knife,bear,1,0316_hp_dnn_1_bear_10_n02134418_24559.png,n02134418_24559.png,0.0,-0.32505518,1.8863215,-1.5636795
alexnet2023_baseline_pgd,1,317,NaN,airplane,oven,0.55,0317_hp_dnn_0.55_oven_10_n04111531_3702.png,n04111531_3702.png,0.0,0.004641652,1.5846604,-1.117242
alexnet2023_baseline_pgd,1,318,NaN,bicycle,bicycle,1,0318_hp_dnn_1_bicycle_10_n02835271_24230.png,n02835271_24230.png,1.0,3.0196886,1.9889896,0.7288143
alexnet2023_baseline_pgd,1,319,NaN,keyboard,keyboard,1.5,0319_hp_dnn_1.5_keyboard_10_n03085013_2272.png,n03085013_2272.png,1.0,4.740384,2.587237,1.522505
alexnet2023_baseline_pgd,1,320,NaN,clock,keyboard,0.55,0320_hp_dnn_0.55_keyboard_10_n03085013_23201.png,n03085013_23201.png,0.0,0.65310645,4.8159995,-2.9436102
alexnet2023_baseline_pgd,1,321,NaN,boat,boat,1.5,0321_hp_dnn_1.5_boat_10_n04273569_9803.png,n04273569_9803.png,1.0,3.2292316,1.6542554,1.1136764
alexnet2023_baseline_pgd,1,322,NaN,airplane,boat,0.4,0322_hp_dnn_0.4_boat_10_n04612504_29813.png,n04612504_29813.png,0.0,2.04711,2.3211918,-0.19380504
alexnet2023_baseline_pgd,1,323,NaN,clock,clock,1,0323_hp_dnn_1_clock_10_n02708093_1291.png,n02708093_1291.png,1.0,5.809625,3.915053,1.3396649
alexnet2023_baseline_pgd,1,324,NaN,knife,oven,0.4,0324_hp_dnn_0.4_oven_10_n04111531_1794.png,n04111531_1794.png,0.0,-0.6410282,2.46032,-2.1929843
alexnet2023_baseline_pgd,1,325,NaN,airplane,bear,0.4,0325_hp_dnn_0.4_bear_10_n02132136_5612.png,n02132136_5612.png,0.0,0.57176566,3.1933928,-1.8537704
alexnet2023_baseline_pgd,1,326,NaN,boat,boat,1.5,0326_hp_dnn_1.5_boat_10_n04273569_3401.png,n04273569_3401.png,1.0,4.8044877,3.972657,0.5881932
alexnet2023_baseline_pgd,1,327,NaN,bird,cat,3,0327_hp_dnn_3_cat_10_n02125311_16544.png,n02125311_16544.png,0.0,-1.4479469,3.283021,-3.3452997
alexnet2023_baseline_pgd,1,328,NaN,clock,clock,1.5,0328_hp_dnn_1.5_clock_10_n03196217_10717.png,n03196217_10717.png,1.0,4.889688,4.0063276,0.62463015
alexnet2023_baseline_pgd,1,329,NaN,bicycle,bear,3,0329_hp_dnn_3_bear_10_n02134418_47.png,n02134418_47.png,0.0,-1.9963353,1.3239726,-2.3478122
alexnet2023_baseline_pgd,1,330,NaN,keyboard,bottle,3,0330_hp_dnn_3_bottle_10_n04591713_4380.png,n04591713_4380.png,0.0,0.060378246,4.905426,-3.4259663
alexnet2023_baseline_pgd,1,331,NaN,knife,chair,0.55,0331_hp_dnn_0.55_chair_10_n04429376_8710.png,n04429376_8710.png,0.0,1.0172086,2.9756744,-1.3848444
alexnet2023_baseline_pgd,1,332,NaN,bicycle,bicycle,3,0332_hp_dnn_3_bicycle_10_n02835271_781.png,n02835271_781.png,1.0,12.831992,3.0852432,6.8919926
alexnet2023_baseline_pgd,1,333,NaN,elephant,bear,1.5,0333_hp_dnn_1.5_bear_10_n02134418_875.png,n02134418_875.png,0.0,2.5715365,4.4464207,-1.3257433
alexnet2023_baseline_pgd,1,334,NaN,airplane,dog,0.55,0334_hp_dnn_0.55_dog_10_n02094433_10343.png,n02094433_10343.png,0.0,0.7640252,2.001536,-0.8750522
alexnet2023_baseline_pgd,1,335,NaN,airplane,airplane,3,0335_hp_dnn_3_airplane_10_n02690373_1053.png,n02690373_1053.png,1.0,8.883298,5.2743177,2.5519345
alexnet2023_baseline_pgd,1,336,NaN,airplane,airplane,3,0336_hp_dnn_3_airplane_10_n02690373_18848.png,n02690373_18848.png,1.0,8.016781,5.327604,1.9015354
alexnet2023_baseline_pgd,1,337,NaN,keyboard,keyboard,3,0337_hp_dnn_3_keyboard_10_n03085013_18741.png,n03085013_18741.png,1.0,6.1592293,3.3886726,1.9590795
alexnet2023_baseline_pgd,1,338,NaN,bear,bear,inf,0338_hp_dnn_inf_bear_10_n02134418_3152.png,n02134418_3152.png,1.0,12.791003,6.59088,4.384149
alexnet2023_baseline_pgd,1,339,NaN,bicycle,bicycle,1.5,0339_hp_dnn_1.5_bicycle_10_n03792782_14557.png,n03792782_14557.png,1.0,2.1214724,1.007852,0.7874485
alexnet2023_baseline_pgd,1,340,NaN,elephant,bird,0.7,0340_hp_dnn_0.7_bird_10_n01796340_5262.png,n01796340_5262.png,0.0,0.68199915,2.8781004,-1.552878
alexnet2023_baseline_pgd,1,341,NaN,bird,bicycle,1,0341_hp_dnn_1_bicycle_10_n03792782_4559.png,n03792782_4559.png,0.0,1.0000466,2.1461363,-0.8104078
alexnet2023_baseline_pgd,1,342,NaN,boat,bear,0.45,0342_hp_dnn_0.45_bear_10_n02134084_3177.png,n02134084_3177.png,0.0,0.768318,2.9699779,-1.5568087
alexnet2023_baseline_pgd,1,343,NaN,airplane,elephant,0.4,0343_hp_dnn_0.4_elephant_10_n02504458_5008.png,n02504458_5008.png,0.0,-0.87061536,2.5167603,-2.3952365
alexnet2023_baseline_pgd,1,344,NaN,oven,oven,3,0344_hp_dnn_3_oven_10_n04111531_7955.png,n04111531_7955.png,1.0,3.4046898,2.362612,0.7368603
alexnet2023_baseline_pgd,1,345,NaN,bicycle,bicycle,inf,0345_hp_dnn_inf_bicycle_10_n02835271_13793.png,n02835271_13793.png,1.0,7.329888,3.312245,2.8409026
alexnet2023_baseline_pgd,1,346,NaN,airplane,keyboard,0.45,0346_hp_dnn_0.45_keyboard_10_n03085013_14810.png,n03085013_14810.png,0.0,0.87472194,3.3819938,-1.7729089
alexnet2023_baseline_pgd,1,347,NaN,bicycle,car,0.7,0347_hp_dnn_0.7_car_10_n02814533_39933.png,n02814533_39933.png,0.0,0.017837763,1.7283666,-1.2095265
alexnet2023_baseline_pgd,1,348,NaN,bird,bird,1,0348_hp_dnn_1_bird_10_n02027492_4897.png,n02027492_4897.png,1.0,7.684708,2.005422,4.0158615
alexnet2023_baseline_pgd,1,349,NaN,keyboard,keyboard,3,0349_hp_dnn_3_keyboard_10_n03085013_23776.png,n03085013_23776.png,1.0,4.3847475,1.8573391,1.7871476
alexnet2023_baseline_pgd,1,350,NaN,car,car,1.5,0350_hp_dnn_1.5_car_10_n02814533_31493.png,n02814533_31493.png,1.0,6.567112,4.298695,1.604013
alexnet2023_baseline_pgd,1,351,NaN,airplane,boat,1.5,0351_hp_dnn_1.5_boat_10_n03344393_7631.png,n03344393_7631.png,0.0,3.027056,4.6708984,-1.1623721
alexnet2023_baseline_pgd,1,352,NaN,airplane,bicycle,0.4,0352_hp_dnn_0.4_bicycle_10_n02835271_1261.png,n02835271_1261.png,0.0,-0.781897,3.1069083,-2.7498007
alexnet2023_baseline_pgd,1,353,NaN,truck,clock,1,0353_hp_dnn_1_clock_10_n03196217_1850.png,n03196217_1850.png,0.0,2.3427117,4.2203875,-1.3277173
alexnet2023_baseline_pgd,1,354,NaN,bear,bear,inf,0354_hp_dnn_inf_bear_10_n02132136_22387.png,n02132136_22387.png,1.0,12.10219,8.972638,2.2129273
alexnet2023_baseline_pgd,1,355,NaN,airplane,airplane,1.5,0355_hp_dnn_1.5_airplane_10_n02690373_2316.png,n02690373_2316.png,1.0,5.2926016,4.326754,0.68295735
alexnet2023_baseline_pgd,1,356,NaN,boat,cat,0.7,0356_hp_dnn_0.7_cat_10_n02123597_3634.png,n02123597_3634.png,0.0,0.52328783,2.6175656,-1.4808781
alexnet2023_baseline_pgd,1,357,NaN,boat,bird,0.45,0357_hp_dnn_0.45_bird_10_n02018207_4151.png,n02018207_4151.png,0.0,1.6418417,2.6649213,-0.7234266
alexnet2023_baseline_pgd,1,358,NaN,knife,knife,0.7,0358_hp_dnn_0.7_knife_10_n03041632_94155.png,n03041632_94155.png,1.0,1.85401,1.282216,0.40431944
alexnet2023_baseline_pgd,1,359,NaN,knife,bottle,0.45,0359_hp_dnn_0.45_bottle_10_n04560804_7509.png,n04560804_7509.png,0.0,1.4877392,1.7502803,-0.18564457
alexnet2023_baseline_pgd,1,360,NaN,airplane,cat,0.4,0360_hp_dnn_0.4_cat_10_n02123045_12748.png,n02123045_12748.png,0.0,-1.4320647,2.8949308,-3.0596478
alexnet2023_baseline_pgd,1,361,NaN,bottle,elephant,0.7,0361_hp_dnn_0.7_elephant_10_n02504013_6.png,n02504013_6.png,0.0,0.8721321,3.125822,-1.5935996
alexnet2023_baseline_pgd,1,362,NaN,airplane,elephant,0.4,0362_hp_dnn_0.4_elephant_10_n02504013_1492.png,n02504013_1492.png,0.0,0.48835436,2.1384473,-1.1667919
alexnet2023_baseline_pgd,1,363,NaN,airplane,dog,0.4,0363_hp_dnn_0.4_dog_10_n02107142_27162.png,n02107142_27162.png,0.0,0.39824438,4.330176,-2.7802954
alexnet2023_baseline_pgd,1,364,NaN,knife,bear,0.7,0364_hp_dnn_0.7_bear_10_n02134418_962.png,n02134418_962.png,0.0,1.3468623,1.9565271,-0.43109813
alexnet2023_baseline_pgd,1,365,NaN,truck,truck,0.7,0365_hp_dnn_0.7_truck_10_n03417042_9693.png,n03417042_9693.png,1.0,3.422433,3.155243,0.18893185
alexnet2023_baseline_pgd,1,366,NaN,bicycle,oven,1,0366_hp_dnn_1_oven_10_n04111531_2116.png,n04111531_2116.png,0.0,1.7521659,1.8267376,-0.052730177
alexnet2023_baseline_pgd,1,367,NaN,keyboard,keyboard,inf,0367_hp_dnn_inf_keyboard_10_n03085013_20460.png,n03085013_20460.png,1.0,13.254904,5.040728,5.8082995
alexnet2023_baseline_pgd,1,368,NaN,airplane,bird,0.45,0368_hp_dnn_0.45_bird_10_n01796340_6191.png,n01796340_6191.png,0.0,2.2127497,3.7979383,-1.1208977
alexnet2023_baseline_pgd,1,369,NaN,chair,oven,1.5,0369_hp_dnn_1.5_oven_10_n04111531_8046.png,n04111531_8046.png,0.0,0.33577693,4.34718,-2.8364904
alexnet2023_baseline_pgd,1,370,NaN,knife,boat,0.45,0370_hp_dnn_0.45_boat_10_n03344393_11788.png,n03344393_11788.png,0.0,2.415444,2.8834581,-0.33093604
alexnet2023_baseline_pgd,1,371,NaN,cat,cat,inf,0371_hp_dnn_inf_cat_10_n02123394_2765.png,n02123394_2765.png,1.0,8.350401,1.9327332,4.5379767
alexnet2023_baseline_pgd,1,372,NaN,boat,bicycle,0.4,0372_hp_dnn_0.4_bicycle_10_n03792782_26834.png,n03792782_26834.png,0.0,-0.5972151,2.9499345,-2.5082135
alexnet2023_baseline_pgd,1,373,NaN,bird,cat,1.5,0373_hp_dnn_1.5_cat_10_n02125311_37036.png,n02125311_37036.png,0.0,-0.13407262,2.9871285,-2.2070224
alexnet2023_baseline_pgd,1,374,NaN,airplane,bicycle,0.7,0374_hp_dnn_0.7_bicycle_10_n03792782_4067.png,n03792782_4067.png,0.0,0.06318653,3.4107811,-2.367107
alexnet2023_baseline_pgd,1,375,NaN,bear,bear,inf,0375_hp_dnn_inf_bear_10_n02134418_3886.png,n02134418_3886.png,1.0,15.428722,13.612324,1.2843878
alexnet2023_baseline_pgd,1,376,NaN,chair,dog,0.7,0376_hp_dnn_0.7_dog_10_n02110185_9014.png,n02110185_9014.png,0.0,-1.9647826,3.4534488,-3.8312683
alexnet2023_baseline_pgd,1,377,NaN,bear,bear,inf,0377_hp_dnn_inf_bear_10_n02134084_14888.png,n02134084_14888.png,1.0,6.3304443,3.8075805,1.7839342
alexnet2023_baseline_pgd,1,378,NaN,bird,truck,1.5,0378_hp_dnn_1.5_truck_10_n03417042_5249.png,n03417042_5249.png,0.0,-1.198331,0.8122887,-1.4217228
alexnet2023_baseline_pgd,1,379,NaN,elephant,oven,1,0379_hp_dnn_1_oven_10_n04111531_10711.png,n04111531_10711.png,0.0,-1.5557851,4.583121,-4.3408623
alexnet2023_baseline_pgd,1,380,NaN,car,car,1.5,0380_hp_dnn_1.5_car_10_n04285008_15271.png,n04285008_15271.png,1.0,3.5786965,2.648745,0.65757495
alexnet2023_baseline_pgd,1,381,NaN,airplane,cat,0.45,0381_hp_dnn_0.45_cat_10_n02123597_12232.png,n02123597_12232.png,0.0,-1.315297,3.3040624,-3.2663805
alexnet2023_baseline_pgd,1,382,NaN,chair,clock,3,0382_hp_dnn_3_clock_10_n04548280_8083.png,n04548280_8083.png,0.0,3.8200493,5.855047,-1.4389609
alexnet2023_baseline_pgd,1,383,NaN,airplane,chair,0.45,0383_hp_dnn_0.45_chair_10_n04099969_8946.png,n04099969_8946.png,0.0,-0.70332974,2.265222,-2.0990832
alexnet2023_baseline_pgd,1,384,NaN,bird,keyboard,0.7,0384_hp_dnn_0.7_keyboard_10_n03085013_21973.png,n03085013_21973.png,0.0,0.020074308,3.2306898,-2.270248
alexnet2023_baseline_pgd,1,385,NaN,bird,bottle,0.7,0385_hp_dnn_0.7_bottle_10_n04560804_15225.png,n04560804_15225.png,0.0,0.2019086,1.9927703,-1.2663305
alexnet2023_baseline_pgd,1,386,NaN,cat,cat,inf,0386_hp_dnn_inf_cat_10_n02123045_10395.png,n02123045_10395.png,1.0,14.814624,1.9563175,9.0921955
alexnet2023_baseline_pgd,1,387,NaN,knife,truck,0.45,0387_hp_dnn_0.45_truck_10_n03417042_4188.png,n03417042_4188.png,0.0,-0.05687289,3.02567,-2.179687
alexnet2023_baseline_pgd,1,388,NaN,keyboard,keyboard,1.5,0388_hp_dnn_1.5_keyboard_10_n03085013_21615.png,n03085013_21615.png,1.0,7.527839,2.200176,3.767227
alexnet2023_baseline_pgd,1,389,NaN,knife,knife,inf,0389_hp_dnn_inf_knife_10_n03041632_26989.png,n03041632_26989.png,1.0,5.8292456,3.0278018,1.98092
alexnet2023_baseline_pgd,1,390,NaN,airplane,airplane,0.55,0390_hp_dnn_0.55_airplane_10_n02690373_16986.png,n02690373_16986.png,1.0,4.3887157,3.119187,0.8976923
alexnet2023_baseline_pgd,1,391,NaN,bicycle,bicycle,inf,0391_hp_dnn_inf_bicycle_10_n02835271_9067.png,n02835271_9067.png,1.0,14.568847,5.7443995,6.2398267
alexnet2023_baseline_pgd,1,392,NaN,airplane,dog,0.45,0392_hp_dnn_0.45_dog_10_n02106382_9188.png,n02106382_9188.png,0.0,0.27962852,2.9885592,-1.9155033
alexnet2023_baseline_pgd,1,393,NaN,boat,boat,inf,0393_hp_dnn_inf_boat_10_n02951358_3205.png,n02951358_3205.png,1.0,11.960094,5.034223,4.8973308
alexnet2023_baseline_pgd,1,394,NaN,airplane,knife,0.4,0394_hp_dnn_0.4_knife_10_n03041632_45270.png,n03041632_45270.png,0.0,0.13286214,3.8450189,-2.6248913
alexnet2023_baseline_pgd,1,395,NaN,car,car,inf,0395_hp_dnn_inf_car_10_n03100240_6376.png,n03100240_6376.png,1.0,9.738744,5.068983,3.3020196
alexnet2023_baseline_pgd,1,396,NaN,truck,truck,1,0396_hp_dnn_1_truck_10_n03796401_430.png,n03796401_430.png,1.0,5.5943556,3.8701127,1.2192239
alexnet2023_baseline_pgd,1,397,NaN,boat,knife,0.7,0397_hp_dnn_0.7_knife_10_n03041632_24181.png,n03041632_24181.png,0.0,0.93561816,5.0602922,-2.916585
alexnet2023_baseline_pgd,1,398,NaN,bear,bear,1,0398_hp_dnn_1_bear_10_n02134084_16190.png,n02134084_16190.png,1.0,1.5723577,1.4207488,0.10720363
alexnet2023_baseline_pgd,1,399,NaN,bear,bear,0.55,0399_hp_dnn_0.55_bear_10_n02132136_7253.png,n02132136_7253.png,1.0,1.3226385,1.1740103,0.105096035
alexnet2023_baseline_pgd,1,400,NaN,airplane,boat,1,0400_hp_dnn_1_boat_10_n03662601_34676.png,n03662601_34676.png,0.0,0.6734962,1.8099475,-0.8035924
alexnet2023_baseline_pgd,1,401,NaN,clock,knife,0.55,0401_hp_dnn_0.55_knife_10_n03041632_81471.png,n03041632_81471.png,0.0,0.3982134,1.1973047,-0.5650429
alexnet2023_baseline_pgd,1,402,NaN,dog,cat,0.7,0402_hp_dnn_0.7_cat_10_n02123597_3822.png,n02123597_3822.png,0.0,0.1171003,1.0504202,-0.6599568
alexnet2023_baseline_pgd,1,403,NaN,keyboard,keyboard,1.5,0403_hp_dnn_1.5_keyboard_10_n03085013_4823.png,n03085013_4823.png,1.0,9.06584,2.7959847,4.433457
alexnet2023_baseline_pgd,1,404,NaN,airplane,dog,0.4,0404_hp_dnn_0.4_dog_10_n02108551_8385.png,n02108551_8385.png,0.0,0.365083,3.318555,-2.0884202
alexnet2023_baseline_pgd,1,405,NaN,bottle,cat,0.7,0405_hp_dnn_0.7_cat_10_n02124075_8732.png,n02124075_8732.png,0.0,-0.66234136,2.520634,-2.2507033
alexnet2023_baseline_pgd,1,406,NaN,bicycle,dog,3,0406_hp_dnn_3_dog_10_n02093428_17625.png,n02093428_17625.png,0.0,-3.12825,3.7994206,-4.898603
alexnet2023_baseline_pgd,1,407,NaN,car,chair,inf,0407_hp_dnn_inf_chair_10_n02791124_6999.png,n02791124_6999.png,0.0,7.236745,8.192825,-0.67605096
alexnet2023_baseline_pgd,1,408,NaN,bird,bird,3,0408_hp_dnn_3_bird_10_n02028035_521.png,n02028035_521.png,1.0,4.3901253,2.931884,1.0311322
alexnet2023_baseline_pgd,1,409,NaN,boat,truck,0.4,0409_hp_dnn_0.4_truck_10_n03417042_750.png,n03417042_750.png,0.0,-0.72175825,1.8757036,-1.8366828
alexnet2023_baseline_pgd,1,410,NaN,airplane,airplane,inf,0410_hp_dnn_inf_airplane_10_n02690373_5779.png,n02690373_5779.png,1.0,18.318464,8.504132,6.9397807
alexnet2023_baseline_pgd,1,411,NaN,elephant,cat,1.5,0411_hp_dnn_1.5_cat_10_n02123045_7154.png,n02123045_7154.png,0.0,0.5144707,3.33923,-1.9974066
alexnet2023_baseline_pgd,1,412,NaN,bottle,bottle,1.5,0412_hp_dnn_1.5_bottle_10_n04591713_6958.png,n04591713_6958.png,1.0,7.7777824,2.9439993,3.418001
alexnet2023_baseline_pgd,1,413,NaN,elephant,bird,1.5,0413_hp_dnn_1.5_bird_10_n01818515_42621.png,n01818515_42621.png,0.0,1.3263317,2.8879514,-1.1042318
alexnet2023_baseline_pgd,1,414,NaN,truck,truck,inf,0414_hp_dnn_inf_truck_10_n03796401_1330.png,n03796401_1330.png,1.0,11.648349,6.492183,3.6459596
alexnet2023_baseline_pgd,1,415,NaN,bird,bird,1.5,0415_hp_dnn_1.5_bird_10_n01843065_6365.png,n01843065_6365.png,1.0,4.855806,3.2017984,1.1695598
alexnet2023_baseline_pgd,1,416,NaN,bottle,bottle,1.5,0416_hp_dnn_1.5_bottle_10_n03983396_11898.png,n03983396_11898.png,1.0,4.292538,4.1234612,0.119555436
alexnet2023_baseline_pgd,1,417,NaN,bird,bird,3,0417_hp_dnn_3_bird_10_n01530575_3831.png,n01530575_3831.png,1.0,5.213128,2.4438474,1.9581772
alexnet2023_baseline_pgd,1,418,NaN,knife,bottle,0.4,0418_hp_dnn_0.4_bottle_10_n03983396_8837.png,n03983396_8837.png,0.0,2.2317216,3.6887608,-1.0302823
alexnet2023_baseline_pgd,1,419,NaN,car,car,0.7,0419_hp_dnn_0.7_car_10_n02814533_90798.png,n02814533_90798.png,1.0,4.2177796,3.8168893,0.2834723
alexnet2023_baseline_pgd,1,420,NaN,bird,bird,3,0420_hp_dnn_3_bird_10_n01819313_3440.png,n01819313_3440.png,1.0,3.8862598,1.3764877,1.7746769
alexnet2023_baseline_pgd,1,421,NaN,boat,dog,0.55,0421_hp_dnn_0.55_dog_10_n02090721_4433.png,n02090721_4433.png,0.0,0.814529,1.6142105,-0.5654602
alexnet2023_baseline_pgd,1,422,NaN,elephant,elephant,3,0422_hp_dnn_3_elephant_10_n02504013_9566.png,n02504013_9566.png,1.0,7.3293877,1.9351822,3.8142793
alexnet2023_baseline_pgd,1,423,NaN,elephant,dog,1.5,0423_hp_dnn_1.5_dog_10_n02105251_6599.png,n02105251_6599.png,0.0,1.217791,5.633255,-3.1222045
alexnet2023_baseline_pgd,1,424,NaN,chair,chair,0.7,0424_hp_dnn_0.7_chair_10_n02791124_5759.png,n02791124_5759.png,1.0,3.6425295,3.620879,0.015309253
alexnet2023_baseline_pgd,1,425,NaN,elephant,elephant,inf,0425_hp_dnn_inf_elephant_10_n02504458_150.png,n02504458_150.png,1.0,16.348186,4.7980843,8.167156
alexnet2023_baseline_pgd,1,426,NaN,clock,clock,0.45,0426_hp_dnn_0.45_clock_10_n04548280_10040.png,n04548280_10040.png,1.0,3.0612442,2.2752128,0.5558082
alexnet2023_baseline_pgd,1,427,NaN,clock,elephant,0.7,0427_hp_dnn_0.7_elephant_10_n02504458_155.png,n02504458_155.png,0.0,-0.07388857,1.7330998,-1.2777338
alexnet2023_baseline_pgd,1,428,NaN,airplane,knife,1,0428_hp_dnn_1_knife_10_n03041632_48062.png,n03041632_48062.png,0.0,1.5815318,3.0761979,-1.0568886
alexnet2023_baseline_pgd,1,429,NaN,truck,truck,1.5,0429_hp_dnn_1.5_truck_10_n04467665_40361.png,n04467665_40361.png,1.0,5.454608,4.369123,0.7675538
alexnet2023_baseline_pgd,1,430,NaN,bird,bird,0.45,0430_hp_dnn_0.45_bird_10_n01614925_7608.png,n01614925_7608.png,1.0,2.8750458,2.4411025,0.30684423
alexnet2023_baseline_pgd,1,431,NaN,airplane,bear,0.45,0431_hp_dnn_0.45_bear_10_n02133161_2749.png,n02133161_2749.png,0.0,0.7981114,3.7942886,-2.1186173
alexnet2023_baseline_pgd,1,432,NaN,boat,boat,0.55,0432_hp_dnn_0.55_boat_10_n04612504_654.png,n04612504_654.png,1.0,3.592437,1.6875747,1.3469411
alexnet2023_baseline_pgd,1,433,NaN,bottle,bottle,1,0433_hp_dnn_1_bottle_10_n04579145_287.png,n04579145_287.png,1.0,7.7414136,4.4286423,2.342483
alexnet2023_baseline_pgd,1,434,NaN,bird,bear,3,0434_hp_dnn_3_bear_10_n02133161_1423.png,n02133161_1423.png,0.0,-0.045975763,3.076317,-2.2077944
alexnet2023_baseline_pgd,1,435,NaN,bicycle,bicycle,0.7,0435_hp_dnn_0.7_bicycle_10_n02835271_4656.png,n02835271_4656.png,1.0,2.4708557,1.3986843,0.7581397
alexnet2023_baseline_pgd,1,436,NaN,clock,clock,0.7,0436_hp_dnn_0.7_clock_10_n02708093_3688.png,n02708093_3688.png,1.0,5.3905234,2.5916402,1.9791093
alexnet2023_baseline_pgd,1,437,NaN,airplane,airplane,inf,0437_hp_dnn_inf_airplane_10_n02690373_10278.png,n02690373_10278.png,1.0,8.408639,3.5755162,3.4175339
alexnet2023_baseline_pgd,1,438,NaN,airplane,car,0.4,0438_hp_dnn_0.4_car_10_n04285008_11133.png,n04285008_11133.png,0.0,-0.7429754,1.8623631,-1.8422526
alexnet2023_baseline_pgd,1,439,NaN,airplane,knife,1,0439_hp_dnn_1_knife_10_n03041632_4214.png,n03041632_4214.png,0.0,0.58569604,3.4780605,-2.0452106
alexnet2023_baseline_pgd,1,440,NaN,oven,oven,inf,0440_hp_dnn_inf_oven_10_n04111531_7741.png,n04111531_7741.png,1.0,4.9717135,3.9367168,0.73185325
alexnet2023_baseline_pgd,1,441,NaN,bicycle,bicycle,3,0441_hp_dnn_3_bicycle_10_n03792782_4472.png,n03792782_4472.png,1.0,7.1798697,2.530281,3.2877557
alexnet2023_baseline_pgd,1,442,NaN,elephant,bird,0.7,0442_hp_dnn_0.7_bird_10_n01798484_18666.png,n01798484_18666.png,0.0,1.4459034,3.3289728,-1.3315312
alexnet2023_baseline_pgd,1,443,NaN,keyboard,keyboard,1.5,0443_hp_dnn_1.5_keyboard_10_n04505470_5059.png,n04505470_5059.png,1.0,3.6398182,2.4314833,0.85442185
alexnet2023_baseline_pgd,1,444,NaN,knife,elephant,0.55,0444_hp_dnn_0.55_elephant_10_n02504013_2369.png,n02504013_2369.png,0.0,0.50130844,2.2818017,-1.2589989
alexnet2023_baseline_pgd,1,445,NaN,bottle,bottle,3,0445_hp_dnn_3_bottle_10_n02823428_10796.png,n02823428_10796.png,1.0,6.6693954,3.1360683,2.4984396
alexnet2023_baseline_pgd,1,446,NaN,knife,oven,3,0446_hp_dnn_3_oven_10_n04111531_4421.png,n04111531_4421.png,0.0,-2.2653441,2.10451,-3.0899534
alexnet2023_baseline_pgd,1,447,NaN,bicycle,bicycle,inf,0447_hp_dnn_inf_bicycle_10_n02835271_7303.png,n02835271_7303.png,1.0,14.997364,3.1131873,8.403381
alexnet2023_baseline_pgd,1,448,NaN,chair,chair,inf,0448_hp_dnn_inf_chair_10_n02791124_7877.png,n02791124_7877.png,1.0,3.7680705,2.7099972,0.7481708
alexnet2023_baseline_pgd,1,449,NaN,bottle,bottle,1.5,0449_hp_dnn_1.5_bottle_10_n04560804_12099.png,n04560804_12099.png,1.0,3.9333854,2.2458265,1.1932844
alexnet2023_baseline_pgd,1,450,NaN,airplane,boat,1,0450_hp_dnn_1_boat_10_n03662601_18924.png,n03662601_18924.png,0.0,3.9470832,6.3379602,-1.6906054
alexnet2023_baseline_pgd,1,451,NaN,bottle,bottle,1,0451_hp_dnn_1_bottle_10_n04591713_4206.png,n04591713_4206.png,1.0,3.6635926,3.0159652,0.4579417
alexnet2023_baseline_pgd,1,452,NaN,clock,clock,0.55,0452_hp_dnn_0.55_clock_10_n04548280_6689.png,n04548280_6689.png,1.0,3.7945023,2.3489661,1.0221484
alexnet2023_baseline_pgd,1,453,NaN,airplane,dog,0.4,0453_hp_dnn_0.4_dog_10_n02090721_5305.png,n02090721_5305.png,0.0,0.055696197,3.0741003,-2.134334
alexnet2023_baseline_pgd,1,454,NaN,knife,clock,0.7,0454_hp_dnn_0.7_clock_10_n03196217_1746.png,n03196217_1746.png,0.0,2.3617985,4.023884,-1.1752717
alexnet2023_baseline_pgd,1,455,NaN,keyboard,keyboard,3,0455_hp_dnn_3_keyboard_10_n04505470_7721.png,n04505470_7721.png,1.0,11.139332,2.8935459,5.8306513
alexnet2023_baseline_pgd,1,456,NaN,airplane,clock,0.55,0456_hp_dnn_0.55_clock_10_n04548280_3248.png,n04548280_3248.png,0.0,1.1974677,1.5226307,-0.22992498
alexnet2023_baseline_pgd,1,457,NaN,bird,bird,inf,0457_hp_dnn_inf_bird_10_n01534433_28009.png,n01534433_28009.png,1.0,10.71423,0.9166011,6.9279695
alexnet2023_baseline_pgd,1,458,NaN,knife,chair,0.4,0458_hp_dnn_0.4_chair_10_n04099969_142.png,n04099969_142.png,0.0,0.2076171,2.4668174,-1.5974959
alexnet2023_baseline_pgd,1,459,NaN,bicycle,bicycle,0.55,0459_hp_dnn_0.55_bicycle_10_n03792782_7092.png,n03792782_7092.png,1.0,2.6809635,1.1365939,1.0920342
alexnet2023_baseline_pgd,1,460,NaN,airplane,keyboard,0.45,0460_hp_dnn_0.45_keyboard_10_n03085013_25559.png,n03085013_25559.png,0.0,-0.5753432,2.747569,-2.3496537
alexnet2023_baseline_pgd,1,461,NaN,bottle,elephant,0.7,0461_hp_dnn_0.7_elephant_10_n02504013_9144.png,n02504013_9144.png,0.0,0.6498752,1.4524087,-0.56747687
alexnet2023_baseline_pgd,1,462,NaN,knife,clock,0.45,0462_hp_dnn_0.45_clock_10_n03196217_2003.png,n03196217_2003.png,0.0,1.2005671,3.6594887,-1.73872
alexnet2023_baseline_pgd,1,463,NaN,elephant,elephant,1,0463_hp_dnn_1_elephant_10_n02504013_3169.png,n02504013_3169.png,1.0,1.795502,1.337818,0.3236314
alexnet2023_baseline_pgd,1,464,NaN,airplane,dog,0.55,0464_hp_dnn_0.55_dog_10_n02089867_6424.png,n02089867_6424.png,0.0,-0.6559004,3.1894226,-2.719054
alexnet2023_baseline_pgd,1,465,NaN,clock,keyboard,1,0465_hp_dnn_1_keyboard_10_n03085013_22494.png,n03085013_22494.png,0.0,0.9622532,3.274891,-1.6352819
alexnet2023_baseline_pgd,1,466,NaN,airplane,dog,0.4,0466_hp_dnn_0.4_dog_10_n02106662_37555.png,n02106662_37555.png,0.0,0.72105736,2.3392007,-1.1442001
alexnet2023_baseline_pgd,1,467,NaN,airplane,car,0.55,0467_hp_dnn_0.55_car_10_n02814533_4726.png,n02814533_4726.png,0.0,1.8169852,2.8225121,-0.7110149
alexnet2023_baseline_pgd,1,468,NaN,airplane,elephant,0.45,0468_hp_dnn_0.45_elephant_10_n02504458_1473.png,n02504458_1473.png,0.0,0.07200064,2.046031,-1.3958503
alexnet2023_baseline_pgd,1,469,NaN,knife,bottle,0.55,0469_hp_dnn_0.55_bottle_10_n04557648_3350.png,n04557648_3350.png,0.0,0.7796181,2.6728911,-1.3387463
alexnet2023_baseline_pgd,1,470,NaN,airplane,knife,0.4,0470_hp_dnn_0.4_knife_10_n03041632_31909.png,n03041632_31909.png,0.0,1.8822869,4.2009296,-1.6395279
alexnet2023_baseline_pgd,1,471,NaN,airplane,truck,0.4,0471_hp_dnn_0.4_truck_10_n04467665_70880.png,n04467665_70880.png,0.0,-0.5497299,2.7204301,-2.3123524
alexnet2023_baseline_pgd,1,472,NaN,airplane,dog,0.45,0472_hp_dnn_0.45_dog_10_n02097209_7557.png,n02097209_7557.png,0.0,0.9943594,1.869839,-0.61905754
alexnet2023_baseline_pgd,1,473,NaN,bird,oven,1,0473_hp_dnn_1_oven_10_n04111531_4438.png,n04111531_4438.png,0.0,-0.34781796,0.9935384,-0.94848216
alexnet2023_baseline_pgd,1,474,NaN,boat,airplane,0.7,0474_hp_dnn_0.7_airplane_10_n02690373_194.png,n02690373_194.png,0.0,4.6051908,5.6330657,-0.72681737
alexnet2023_baseline_pgd,1,475,NaN,bicycle,bicycle,1.5,0475_hp_dnn_1.5_bicycle_10_n02835271_6953.png,n02835271_6953.png,1.0,3.9202938,2.5099654,0.99725276
alexnet2023_baseline_pgd,1,476,NaN,airplane,oven,0.45,0476_hp_dnn_0.45_oven_10_n04111531_14435.png,n04111531_14435.png,0.0,-1.5849779,2.759642,-3.0721102
alexnet2023_baseline_pgd,1,477,NaN,bicycle,elephant,1.5,0477_hp_dnn_1.5_elephant_10_n02504013_5192.png,n02504013_5192.png,0.0,-0.2112407,2.994399,-2.2667296
alexnet2023_baseline_pgd,1,478,NaN,chair,chair,0.7,0478_hp_dnn_0.7_chair_10_n03376595_3566.png,n03376595_3566.png,1.0,3.5866475,1.9468843,1.1594877
alexnet2023_baseline_pgd,1,479,NaN,keyboard,truck,1,0479_hp_dnn_1_truck_10_n03417042_22709.png,n03417042_22709.png,0.0,3.3493018,3.5263917,-0.12522149
alexnet2023_baseline_pgd,1,480,NaN,keyboard,keyboard,inf,0480_hp_dnn_inf_keyboard_10_n04505470_4603.png,n04505470_4603.png,1.0,18.26682,9.4783,6.2144227
alexnet2023_baseline_pgd,1,481,NaN,boat,car,0.55,0481_hp_dnn_0.55_car_10_n03100240_1794.png,n03100240_1794.png,0.0,2.0788305,2.1054654,-0.018833742
alexnet2023_baseline_pgd,1,482,NaN,knife,elephant,0.7,0482_hp_dnn_0.7_elephant_10_n02504458_1233.png,n02504458_1233.png,0.0,1.4072992,2.1062407,-0.49422634
alexnet2023_baseline_pgd,1,483,NaN,airplane,airplane,0.45,0483_hp_dnn_0.45_airplane_10_n02690373_3047.png,n02690373_3047.png,1.0,3.6156542,2.7206447,0.63286734
alexnet2023_baseline_pgd,1,484,NaN,airplane,elephant,0.55,0484_hp_dnn_0.55_elephant_10_n02504013_7422.png,n02504013_7422.png,0.0,0.98100483,2.5415432,-1.1034673
alexnet2023_baseline_pgd,1,485,NaN,airplane,bicycle,0.45,0485_hp_dnn_0.45_bicycle_10_n03792782_16034.png,n03792782_16034.png,0.0,0.4272402,1.7160385,-0.91131806
alexnet2023_baseline_pgd,1,486,NaN,bicycle,bicycle,3,0486_hp_dnn_3_bicycle_10_n02835271_11922.png,n02835271_11922.png,1.0,6.83867,2.8534043,2.8180082
alexnet2023_baseline_pgd,1,487,NaN,keyboard,truck,0.7,0487_hp_dnn_0.7_truck_10_n03796401_6526.png,n03796401_6526.png,0.0,2.6803646,3.8766196,-0.84588003
alexnet2023_baseline_pgd,1,488,NaN,boat,boat,3,0488_hp_dnn_3_boat_10_n03662601_1834.png,n03662601_1834.png,1.0,7.6204844,2.9259422,3.3195424
alexnet2023_baseline_pgd,1,489,NaN,bird,dog,0.7,0489_hp_dnn_0.7_dog_10_n02100236_619.png,n02100236_619.png,0.0,-2.1083758,2.6402326,-3.3577733
alexnet2023_baseline_pgd,1,490,NaN,bear,truck,0.45,0490_hp_dnn_0.45_truck_10_n04467665_21266.png,n04467665_21266.png,0.0,-0.94548595,2.5822513,-2.4944868
alexnet2023_baseline_pgd,1,491,NaN,airplane,chair,0.55,0491_hp_dnn_0.55_chair_10_n04099969_18220.png,n04099969_18220.png,0.0,0.62152934,3.527745,-2.0550048
alexnet2023_baseline_pgd,1,492,NaN,keyboard,keyboard,1.5,0492_hp_dnn_1.5_keyboard_10_n03085013_4157.png,n03085013_4157.png,1.0,10.309708,4.2410984,4.291155
alexnet2023_baseline_pgd,1,493,NaN,airplane,bicycle,0.4,0493_hp_dnn_0.4_bicycle_10_n03792782_1276.png,n03792782_1276.png,0.0,0.10297179,1.6606035,-1.1014119
alexnet2023_baseline_pgd,1,494,NaN,boat,boat,3,0494_hp_dnn_3_boat_10_n03344393_1987.png,n03344393_1987.png,1.0,8.219222,3.8058717,3.12071
alexnet2023_baseline_pgd,1,495,NaN,boat,boat,0.45,0495_hp_dnn_0.45_boat_10_n03344393_381.png,n03344393_381.png,1.0,2.7130575,2.6701384,0.03034843
alexnet2023_baseline_pgd,1,496,NaN,clock,clock,inf,0496_hp_dnn_inf_clock_10_n02708093_8390.png,n02708093_8390.png,1.0,11.637792,3.9631698,5.426777
alexnet2023_baseline_pgd,1,497,NaN,keyboard,keyboard,0.55,0497_hp_dnn_0.55_keyboard_10_n04505470_1043.png,n04505470_1043.png,1.0,4.9603863,1.7956841,2.2377825
alexnet2023_baseline_pgd,1,498,NaN,airplane,dog,0.55,0498_hp_dnn_0.55_dog_10_n02100877_1902.png,n02100877_1902.png,0.0,-0.5716955,1.7999543,-1.6770097
alexnet2023_baseline_pgd,1,499,NaN,knife,knife,1.5,0499_hp_dnn_1.5_knife_10_n03041632_55083.png,n03041632_55083.png,1.0,4.3025217,2.900282,0.9915333
alexnet2023_baseline_pgd,1,500,NaN,chair,truck,1.5,0500_hp_dnn_1.5_truck_10_n04467665_45872.png,n04467665_45872.png,0.0,0.18106458,3.5505676,-2.3825984
alexnet2023_baseline_pgd,1,501,NaN,boat,boat,0.7,0501_hp_dnn_0.7_boat_10_n04273569_3244.png,n04273569_3244.png,1.0,4.9964547,2.3891344,1.8436539
alexnet2023_baseline_pgd,1,502,NaN,airplane,bear,0.45,0502_hp_dnn_0.45_bear_10_n02134418_2157.png,n02134418_2157.png,0.0,1.417872,2.7510376,-0.9426905
alexnet2023_baseline_pgd,1,503,NaN,bottle,bottle,3,0503_hp_dnn_3_bottle_10_n04591713_17618.png,n04591713_17618.png,1.0,3.4596422,3.15824,0.21312347
alexnet2023_baseline_pgd,1,504,NaN,bicycle,cat,1,0504_hp_dnn_1_cat_10_n02125311_8496.png,n02125311_8496.png,0.0,0.14468879,2.399087,-1.5941002
alexnet2023_baseline_pgd,1,505,NaN,car,car,inf,0505_hp_dnn_inf_car_10_n02814533_3560.png,n02814533_3560.png,1.0,14.765536,11.103651,2.589344
alexnet2023_baseline_pgd,1,506,NaN,boat,truck,0.7,0506_hp_dnn_0.7_truck_10_n03417042_751.png,n03417042_751.png,0.0,1.519832,5.296076,-2.6702075
alexnet2023_baseline_pgd,1,507,NaN,chair,keyboard,inf,0507_hp_dnn_inf_keyboard_10_n03085013_23213.png,n03085013_23213.png,0.0,0.856637,2.5078974,-1.1676174
alexnet2023_baseline_pgd,1,508,NaN,airplane,bicycle,0.4,0508_hp_dnn_0.4_bicycle_10_n03792782_19709.png,n03792782_19709.png,0.0,-0.38450223,2.8946965,-2.3187437
alexnet2023_baseline_pgd,1,509,NaN,oven,oven,inf,0509_hp_dnn_inf_oven_10_n04111531_3076.png,n04111531_3076.png,1.0,12.873261,6.0130153,4.850927
alexnet2023_baseline_pgd,1,510,NaN,airplane,knife,0.4,0510_hp_dnn_0.4_knife_10_n03041632_14774.png,n03041632_14774.png,0.0,1.9418575,2.362899,-0.2977214
alexnet2023_baseline_pgd,1,511,NaN,car,car,0.7,0511_hp_dnn_0.7_car_10_n03100240_7703.png,n03100240_7703.png,1.0,4.5592227,3.0208182,1.0878162
alexnet2023_baseline_pgd,1,512,NaN,airplane,bear,0.55,0512_hp_dnn_0.55_bear_10_n02134084_13434.png,n02134084_13434.png,0.0,0.8480867,2.5073588,-1.1732825
alexnet2023_baseline_pgd,1,513,NaN,dog,dog,inf,0513_hp_dnn_inf_dog_10_n02111500_4280.png,n02111500_4280.png,1.0,5.9009085,4.9227443,0.69166654
alexnet2023_baseline_pgd,1,514,NaN,airplane,bear,0.55,0514_hp_dnn_0.55_bear_10_n02132136_23853.png,n02132136_23853.png,0.0,-0.23880887,3.8060994,-2.8601823
alexnet2023_baseline_pgd,1,515,NaN,bicycle,bicycle,1.5,0515_hp_dnn_1.5_bicycle_10_n03792782_17193.png,n03792782_17193.png,1.0,3.9802876,1.2469615,1.9327533
alexnet2023_baseline_pgd,1,516,NaN,bottle,dog,1,0516_hp_dnn_1_dog_10_n02102177_5770.png,n02102177_5770.png,0.0,-0.0888151,1.2128878,-0.92044294
alexnet2023_baseline_pgd,1,517,NaN,elephant,bear,0.7,0517_hp_dnn_0.7_bear_10_n02132136_2279.png,n02132136_2279.png,0.0,3.0788083,4.130056,-0.7433443
alexnet2023_baseline_pgd,1,518,NaN,bear,bear,inf,0518_hp_dnn_inf_bear_10_n02134084_6910.png,n02134084_6910.png,1.0,8.565932,6.249713,1.6378144
alexnet2023_baseline_pgd,1,519,NaN,oven,oven,0.7,0519_hp_dnn_0.7_oven_10_n04111531_9041.png,n04111531_9041.png,1.0,3.708185,2.8105767,0.6347049
alexnet2023_baseline_pgd,1,520,NaN,bird,cat,1,0520_hp_dnn_1_cat_10_n02123159_5424.png,n02123159_5424.png,0.0,1.3500236,2.757606,-0.9953111
alexnet2023_baseline_pgd,1,521,NaN,airplane,bicycle,0.45,0521_hp_dnn_0.45_bicycle_10_n02835271_672.png,n02835271_672.png,0.0,0.0831964,2.4813378,-1.695742
alexnet2023_baseline_pgd,1,522,NaN,airplane,airplane,0.45,0522_hp_dnn_0.45_airplane_10_n02690373_18111.png,n02690373_18111.png,1.0,4.0453367,3.8145514,0.1631899
alexnet2023_baseline_pgd,1,523,NaN,clock,clock,1,0523_hp_dnn_1_clock_10_n04548280_3013.png,n04548280_3013.png,1.0,5.2532473,3.2986677,1.3820965
alexnet2023_baseline_pgd,1,524,NaN,airplane,dog,0.45,0524_hp_dnn_0.45_dog_10_n02094258_4142.png,n02094258_4142.png,0.0,0.6225884,2.4426591,-1.2869844
alexnet2023_baseline_pgd,1,525,NaN,clock,clock,3,0525_hp_dnn_3_clock_10_n04548280_6919.png,n04548280_6919.png,1.0,9.657367,4.129653,3.908684
alexnet2023_baseline_pgd,1,526,NaN,airplane,cat,0.4,0526_hp_dnn_0.4_cat_10_n02124075_16814.png,n02124075_16814.png,0.0,-1.0930473,2.2872078,-2.3902013
alexnet2023_baseline_pgd,1,527,NaN,clock,clock,1,0527_hp_dnn_1_clock_10_n04548280_3342.png,n04548280_3342.png,1.0,2.7558334,1.8537102,0.63789743
alexnet2023_baseline_pgd,1,528,NaN,boat,boat,1,0528_hp_dnn_1_boat_10_n04612504_31680.png,n04612504_31680.png,1.0,6.205324,3.0962942,2.1984162
alexnet2023_baseline_pgd,1,529,NaN,keyboard,keyboard,inf,0529_hp_dnn_inf_keyboard_10_n03085013_7962.png,n03085013_7962.png,1.0,21.01828,4.094094,11.967207
alexnet2023_baseline_pgd,1,530,NaN,bicycle,bicycle,3,0530_hp_dnn_3_bicycle_10_n02835271_949.png,n02835271_949.png,1.0,9.572997,5.427129,2.9315717
alexnet2023_baseline_pgd,1,531,NaN,chair,keyboard,1,0531_hp_dnn_1_keyboard_10_n04505470_4228.png,n04505470_4228.png,0.0,1.8519027,2.2317748,-0.26861012
alexnet2023_baseline_pgd,1,532,NaN,knife,boat,0.7,0532_hp_dnn_0.7_boat_10_n03344393_3219.png,n03344393_3219.png,0.0,1.4613372,2.5440834,-0.76561713
alexnet2023_baseline_pgd,1,533,NaN,bicycle,elephant,3,0533_hp_dnn_3_elephant_10_n02504458_3399.png,n02504458_3399.png,0.0,-2.0840638,3.9388776,-4.258863
alexnet2023_baseline_pgd,1,534,NaN,airplane,bird,0.55,0534_hp_dnn_0.55_bird_10_n01616318_12459.png,n01616318_12459.png,0.0,2.8080428,3.4198878,-0.43263978
alexnet2023_baseline_pgd,1,535,NaN,airplane,elephant,0.4,0535_hp_dnn_0.4_elephant_10_n02504013_1846.png,n02504013_1846.png,0.0,-0.53934324,2.7796261,-2.3468657
alexnet2023_baseline_pgd,1,536,NaN,airplane,bicycle,0.55,0536_hp_dnn_0.55_bicycle_10_n03792782_5097.png,n03792782_5097.png,0.0,-0.89731705,1.4381231,-1.6514056
alexnet2023_baseline_pgd,1,537,NaN,keyboard,bottle,3,0537_hp_dnn_3_bottle_10_n02823428_5115.png,n02823428_5115.png,0.0,1.2501808,2.0289953,-0.55070496
alexnet2023_baseline_pgd,1,538,NaN,keyboard,keyboard,inf,0538_hp_dnn_inf_keyboard_10_n03085013_21282.png,n03085013_21282.png,1.0,9.123825,9.050335,0.05196538
alexnet2023_baseline_pgd,1,539,NaN,knife,oven,0.4,0539_hp_dnn_0.4_oven_10_n04111531_1815.png,n04111531_1815.png,0.0,-0.035802297,2.0966032,-1.5078385
alexnet2023_baseline_pgd,1,540,NaN,chair,chair,1,0540_hp_dnn_1_chair_10_n02791124_5268.png,n02791124_5268.png,1.0,2.503132,2.3007855,0.14308064
alexnet2023_baseline_pgd,1,541,NaN,airplane,airplane,0.55,0541_hp_dnn_0.55_airplane_10_n02690373_3035.png,n02690373_3035.png,1.0,3.1690705,2.1119938,0.7474661
alexnet2023_baseline_pgd,1,542,NaN,dog,dog,inf,0542_hp_dnn_inf_dog_10_n02107683_1460.png,n02107683_1460.png,1.0,6.589396,2.0888526,3.182365
alexnet2023_baseline_pgd,1,543,NaN,boat,boat,inf,0543_hp_dnn_inf_boat_10_n02951358_31813.png,n02951358_31813.png,1.0,9.354349,7.746917,1.1366264
alexnet2023_baseline_pgd,1,544,NaN,airplane,bird,0.4,0544_hp_dnn_0.4_bird_10_n01797886_16808.png,n01797886_16808.png,0.0,0.8779936,2.341283,-1.034702
alexnet2023_baseline_pgd,1,545,NaN,airplane,elephant,0.45,0545_hp_dnn_0.45_elephant_10_n02504458_4767.png,n02504458_4767.png,0.0,1.0519261,2.626761,-1.1135764
alexnet2023_baseline_pgd,1,546,NaN,chair,knife,3,0546_hp_dnn_3_knife_10_n03041632_41493.png,n03041632_41493.png,0.0,1.2478126,3.2959793,-1.4482726
alexnet2023_baseline_pgd,1,547,NaN,elephant,elephant,3,0547_hp_dnn_3_elephant_10_n02504458_3329.png,n02504458_3329.png,1.0,3.016412,2.431035,0.41392404
alexnet2023_baseline_pgd,1,548,NaN,bear,cat,0.45,0548_hp_dnn_0.45_cat_10_n02124075_12467.png,n02124075_12467.png,0.0,-1.0649507,1.3203664,-1.6866739
alexnet2023_baseline_pgd,1,549,NaN,clock,truck,0.7,0549_hp_dnn_0.7_truck_10_n03417042_6467.png,n03417042_6467.png,0.0,0.9987431,3.2528617,-1.5939026
alexnet2023_baseline_pgd,1,550,NaN,airplane,airplane,inf,0550_hp_dnn_inf_airplane_10_n02690373_734.png,n02690373_734.png,1.0,22.521763,4.652636,12.635382
alexnet2023_baseline_pgd,1,551,NaN,boat,car,0.4,0551_hp_dnn_0.4_car_10_n02814533_85296.png,n02814533_85296.png,0.0,-0.8874135,2.2579381,-2.2240996
alexnet2023_baseline_pgd,1,552,NaN,airplane,elephant,0.7,0552_hp_dnn_0.7_elephant_10_n02504013_18005.png,n02504013_18005.png,0.0,1.7555401,1.9758302,-0.1557686
alexnet2023_baseline_pgd,1,553,NaN,knife,clock,0.45,0553_hp_dnn_0.45_clock_10_n02708093_1495.png,n02708093_1495.png,0.0,0.92340535,2.2384596,-0.9298837
alexnet2023_baseline_pgd,1,554,NaN,car,car,1.5,0554_hp_dnn_1.5_car_10_n04285008_3462.png,n04285008_3462.png,1.0,6.5322156,3.001295,2.496738
alexnet2023_baseline_pgd,1,555,NaN,airplane,truck,0.4,0555_hp_dnn_0.4_truck_10_n03417042_22297.png,n03417042_22297.png,0.0,-0.018708736,2.7002525,-1.922596
alexnet2023_baseline_pgd,1,556,NaN,bicycle,chair,3,0556_hp_dnn_3_chair_10_n04429376_7279.png,n04429376_7279.png,0.0,4.05489,4.6947374,-0.45244035
alexnet2023_baseline_pgd,1,557,NaN,bicycle,bicycle,3,0557_hp_dnn_3_bicycle_10_n02835271_6919.png,n02835271_6919.png,1.0,9.273256,4.036944,3.702632
alexnet2023_baseline_pgd,1,558,NaN,clock,oven,0.55,0558_hp_dnn_0.55_oven_10_n04111531_2260.png,n04111531_2260.png,0.0,2.0169096,3.19393,-0.8322791
alexnet2023_baseline_pgd,1,559,NaN,bear,bear,0.7,0559_hp_dnn_0.7_bear_10_n02134084_5794.png,n02134084_5794.png,1.0,1.820504,1.5286453,0.20637526
alexnet2023_baseline_pgd,1,560,NaN,airplane,airplane,0.7,0560_hp_dnn_0.7_airplane_10_n02690373_10397.png,n02690373_10397.png,1.0,2.56456,2.5416179,0.01622249
alexnet2023_baseline_pgd,1,561,NaN,airplane,elephant,0.4,0561_hp_dnn_0.4_elephant_10_n02504458_2041.png,n02504458_2041.png,0.0,-0.89703774,2.9064293,-2.6894574
alexnet2023_baseline_pgd,1,562,NaN,clock,chair,1,0562_hp_dnn_1_chair_10_n04429376_7732.png,n04429376_7732.png,0.0,2.7171342,2.9448183,-0.16099691
alexnet2023_baseline_pgd,1,563,NaN,airplane,airplane,0.4,0563_hp_dnn_0.4_airplane_10_n02690373_4788.png,n02690373_4788.png,1.0,3.7385209,2.008746,1.2231356
alexnet2023_baseline_pgd,1,564,NaN,bottle,dog,0.55,0564_hp_dnn_0.55_dog_10_n02097474_2799.png,n02097474_2799.png,0.0,0.0476663,1.2114248,-0.82290155
alexnet2023_baseline_pgd,1,565,NaN,bottle,bear,1.5,0565_hp_dnn_1.5_bear_10_n02134084_17849.png,n02134084_17849.png,0.0,0.15274793,1.0734094,-0.651006
alexnet2023_baseline_pgd,1,566,NaN,dog,dog,inf,0566_hp_dnn_inf_dog_10_n02086646_7064.png,n02086646_7064.png,1.0,7.1175203,2.598506,3.1954257
alexnet2023_baseline_pgd,1,567,NaN,bottle,truck,0.55,0567_hp_dnn_0.55_truck_10_n03417042_7061.png,n03417042_7061.png,0.0,2.3919256,2.7628424,-0.2622778
alexnet2023_baseline_pgd,1,568,NaN,chair,bird,1,0568_hp_dnn_1_bird_10_n01820546_3605.png,n01820546_3605.png,0.0,0.023153013,1.3179739,-0.9155766
alexnet2023_baseline_pgd,1,569,NaN,airplane,bear,0.4,0569_hp_dnn_0.4_bear_10_n02133161_2813.png,n02133161_2813.png,0.0,0.78095967,3.1092124,-1.6463233
alexnet2023_baseline_pgd,1,570,NaN,airplane,bear,0.45,0570_hp_dnn_0.45_bear_10_n02132136_16636.png,n02132136_16636.png,0.0,-0.033270396,2.9169135,-2.086095
alexnet2023_baseline_pgd,1,571,NaN,bicycle,oven,1.5,0571_hp_dnn_1.5_oven_10_n04111531_14959.png,n04111531_14959.png,0.0,0.39587504,4.253901,-2.7280364
alexnet2023_baseline_pgd,1,572,NaN,knife,cat,0.45,0572_hp_dnn_0.45_cat_10_n02124075_5453.png,n02124075_5453.png,0.0,-1.3233485,2.3482547,-2.5962155
alexnet2023_baseline_pgd,1,573,NaN,clock,cat,1,0573_hp_dnn_1_cat_10_n02124075_11528.png,n02124075_11528.png,0.0,1.1701785,1.2059263,-0.025277488
alexnet2023_baseline_pgd,1,574,NaN,knife,cat,1,0574_hp_dnn_1_cat_10_n02123159_3454.png,n02123159_3454.png,0.0,0.17454772,1.0306535,-0.6053582
alexnet2023_baseline_pgd,1,575,NaN,airplane,bird,0.45,0575_hp_dnn_0.45_bird_10_n02025239_2227.png,n02025239_2227.png,0.0,1.6556548,3.9705043,-1.6368457
alexnet2023_baseline_pgd,1,576,NaN,chair,chair,0.7,0576_hp_dnn_0.7_chair_10_n03376595_12256.png,n03376595_12256.png,1.0,1.6003124,1.4498553,0.10638919
alexnet2023_baseline_pgd,1,577,NaN,clock,clock,1.5,0577_hp_dnn_1.5_clock_10_n02708093_6591.png,n02708093_6591.png,1.0,4.4284053,3.3817797,0.74007607
alexnet2023_baseline_pgd,1,578,NaN,chair,chair,0.55,0578_hp_dnn_0.55_chair_10_n04099969_34144.png,n04099969_34144.png,1.0,2.8131042,2.0007083,0.5744506
alexnet2023_baseline_pgd,1,579,NaN,clock,bear,0.55,0579_hp_dnn_0.55_bear_10_n02132136_3563.png,n02132136_3563.png,0.0,0.06826781,2.2209556,-1.5221802
alexnet2023_baseline_pgd,1,580,NaN,elephant,elephant,1,0580_hp_dnn_1_elephant_10_n02504013_6671.png,n02504013_6671.png,1.0,2.4953952,1.1301531,0.96537197
alexnet2023_baseline_pgd,1,581,NaN,bottle,keyboard,0.7,0581_hp_dnn_0.7_keyboard_10_n03085013_22067.png,n03085013_22067.png,0.0,0.054380417,1.8253175,-1.2522416
alexnet2023_baseline_pgd,1,582,NaN,bicycle,truck,inf,0582_hp_dnn_inf_truck_10_n03796401_1458.png,n03796401_1458.png,0.0,5.142929,6.862218,-1.2157208
alexnet2023_baseline_pgd,1,583,NaN,knife,bottle,0.45,0583_hp_dnn_0.45_bottle_10_n04591713_807.png,n04591713_807.png,0.0,0.6746265,1.5067257,-0.58838296
alexnet2023_baseline_pgd,1,584,NaN,bicycle,car,1,0584_hp_dnn_1_car_10_n02814533_22693.png,n02814533_22693.png,0.0,-0.6795681,1.0951705,-1.2549297
alexnet2023_baseline_pgd,1,585,NaN,car,car,0.7,0585_hp_dnn_0.7_car_10_n02814533_5278.png,n02814533_5278.png,1.0,2.6184208,2.470056,0.10490975
alexnet2023_baseline_pgd,1,586,NaN,chair,boat,1.5,0586_hp_dnn_1.5_boat_10_n03662601_10240.png,n03662601_10240.png,0.0,4.0125747,4.5942774,-0.41132593
alexnet2023_baseline_pgd,1,587,NaN,airplane,airplane,inf,0587_hp_dnn_inf_airplane_10_n02690373_9673.png,n02690373_9673.png,1.0,18.121365,7.1016726,7.7920985
alexnet2023_baseline_pgd,1,588,NaN,bird,bird,0.7,0588_hp_dnn_0.7_bird_10_n02009229_6029.png,n02009229_6029.png,1.0,5.3766932,0.7742557,3.2544148
alexnet2023_baseline_pgd,1,589,NaN,clock,clock,0.4,0589_hp_dnn_0.4_clock_10_n02708093_2580.png,n02708093_2580.png,1.0,3.4365833,1.8547987,1.1184907
alexnet2023_baseline_pgd,1,590,NaN,airplane,elephant,0.4,0590_hp_dnn_0.4_elephant_10_n02504013_295.png,n02504013_295.png,0.0,-0.27945969,3.1271875,-2.4088633
alexnet2023_baseline_pgd,1,591,NaN,car,car,0.7,0591_hp_dnn_0.7_car_10_n04285008_9893.png,n04285008_9893.png,1.0,3.3471203,1.9194524,1.0095136
alexnet2023_baseline_pgd,1,592,NaN,chair,chair,1.5,0592_hp_dnn_1.5_chair_10_n03376595_6850.png,n03376595_6850.png,1.0,2.7356856,2.6478698,0.06209512
alexnet2023_baseline_pgd,1,593,NaN,bicycle,boat,3,0593_hp_dnn_3_boat_10_n03662601_15713.png,n03662601_15713.png,0.0,3.8506198,6.0853267,-1.5801765
alexnet2023_baseline_pgd,1,594,NaN,airplane,clock,0.4,0594_hp_dnn_0.4_clock_10_n04548280_9867.png,n04548280_9867.png,0.0,0.34349665,2.8063266,-1.7414839
alexnet2023_baseline_pgd,1,595,NaN,bird,airplane,1.5,0595_hp_dnn_1.5_airplane_10_n02690373_1450.png,n02690373_1450.png,0.0,3.5231295,4.010051,-0.34430537
alexnet2023_baseline_pgd,1,596,NaN,airplane,bicycle,0.45,0596_hp_dnn_0.45_bicycle_10_n03792782_7787.png,n03792782_7787.png,0.0,0.19470474,4.4008565,-2.9741986
alexnet2023_baseline_pgd,1,597,NaN,airplane,chair,0.45,0597_hp_dnn_0.45_chair_10_n04099969_1219.png,n04099969_1219.png,0.0,-0.5901557,2.3653772,-2.0898774
alexnet2023_baseline_pgd,1,598,NaN,knife,keyboard,0.55,0598_hp_dnn_0.55_keyboard_10_n03085013_8325.png,n03085013_8325.png,0.0,4.384302,4.7842255,-0.2827885
alexnet2023_baseline_pgd,1,599,NaN,airplane,bicycle,0.55,0599_hp_dnn_0.55_bicycle_10_n02835271_14732.png,n02835271_14732.png,0.0,-0.46493363,2.6683624,-2.215575
alexnet2023_baseline_pgd,1,600,NaN,boat,airplane,1.5,0600_hp_dnn_1.5_airplane_10_n02690373_4176.png,n02690373_4176.png,0.0,4.5675726,4.570181,-0.0018443462
alexnet2023_baseline_pgd,1,601,NaN,elephant,bird,1,0601_hp_dnn_1_bird_10_n01534433_905.png,n01534433_905.png,0.0,1.533817,1.7458769,-0.14994897
alexnet2023_baseline_pgd,1,602,NaN,airplane,truck,1.5,0602_hp_dnn_1.5_truck_10_n04467665_45306.png,n04467665_45306.png,0.0,-0.6408125,4.3021817,-3.4952247
alexnet2023_baseline_pgd,1,603,NaN,elephant,elephant,3,0603_hp_dnn_3_elephant_10_n02504458_1617.png,n02504458_1617.png,1.0,5.196129,2.7559652,1.7254562
alexnet2023_baseline_pgd,1,604,NaN,airplane,oven,0.45,0604_hp_dnn_0.45_oven_10_n04111531_4148.png,n04111531_4148.png,0.0,-1.1205833,2.3039567,-2.4215155
alexnet2023_baseline_pgd,1,605,NaN,elephant,bird,0.55,0605_hp_dnn_0.55_bird_10_n02009912_91.png,n02009912_91.png,0.0,0.7456688,1.349859,-0.42722696
alexnet2023_baseline_pgd,1,606,NaN,knife,knife,3,0606_hp_dnn_3_knife_10_n03041632_33739.png,n03041632_33739.png,1.0,3.7611196,3.0070105,0.53323567
alexnet2023_baseline_pgd,1,607,NaN,airplane,airplane,1,0607_hp_dnn_1_airplane_10_n02690373_9318.png,n02690373_9318.png,1.0,8.547494,3.7482727,3.3935618
alexnet2023_baseline_pgd,1,608,NaN,airplane,bird,0.4,0608_hp_dnn_0.4_bird_10_n01828970_8669.png,n01828970_8669.png,0.0,1.3609926,2.4450486,-0.7665434
alexnet2023_baseline_pgd,1,609,NaN,chair,truck,1.5,0609_hp_dnn_1.5_truck_10_n04467665_58762.png,n04467665_58762.png,0.0,1.2826166,6.948471,-4.0063643
alexnet2023_baseline_pgd,1,610,NaN,car,car,3,0610_hp_dnn_3_car_10_n03100240_11417.png,n03100240_11417.png,1.0,8.234552,5.32719,2.0558157
alexnet2023_baseline_pgd,1,611,NaN,bicycle,bicycle,inf,0611_hp_dnn_inf_bicycle_10_n03792782_16179.png,n03792782_16179.png,1.0,10.529352,2.4527586,5.7110143
alexnet2023_baseline_pgd,1,612,NaN,car,car,1,0612_hp_dnn_1_car_10_n04285008_8444.png,n04285008_8444.png,1.0,4.4045963,2.1377316,1.6029155
alexnet2023_baseline_pgd,1,613,NaN,chair,chair,inf,0613_hp_dnn_inf_chair_10_n02791124_3240.png,n02791124_3240.png,1.0,5.403527,2.9000273,1.7702415
alexnet2023_baseline_pgd,1,614,NaN,bicycle,bicycle,0.7,0614_hp_dnn_0.7_bicycle_10_n02835271_1035.png,n02835271_1035.png,1.0,2.3875606,1.1263036,0.89184344
alexnet2023_baseline_pgd,1,615,NaN,bicycle,bicycle,0.55,0615_hp_dnn_0.55_bicycle_10_n02835271_6167.png,n02835271_6167.png,1.0,2.0309463,0.40253943,1.1514574
alexnet2023_baseline_pgd,1,616,NaN,bottle,bottle,3,0616_hp_dnn_3_bottle_10_n02823428_6830.png,n02823428_6830.png,1.0,5.736799,5.066772,0.47378048
alexnet2023_baseline_pgd,1,617,NaN,airplane,knife,0.45,0617_hp_dnn_0.45_knife_10_n03041632_17349.png,n03041632_17349.png,0.0,1.0586147,2.749187,-1.1954151
alexnet2023_baseline_pgd,1,618,NaN,airplane,airplane,inf,0618_hp_dnn_inf_airplane_10_n02690373_2024.png,n02690373_2024.png,1.0,14.892711,5.9473424,6.3253303
alexnet2023_baseline_pgd,1,619,NaN,bottle,bottle,1,0619_hp_dnn_1_bottle_10_n02823428_8034.png,n02823428_8034.png,1.0,1.9629163,1.8322399,0.09240216
alexnet2023_baseline_pgd,1,620,NaN,chair,chair,1,0620_hp_dnn_1_chair_10_n02791124_6786.png,n02791124_6786.png,1.0,4.845086,3.4066417,1.0171338
alexnet2023_baseline_pgd,1,621,NaN,airplane,chair,0.45,0621_hp_dnn_0.45_chair_10_n03376595_10689.png,n03376595_10689.png,0.0,-0.5154723,4.716932,-3.6998687
alexnet2023_baseline_pgd,1,622,NaN,airplane,knife,0.4,0622_hp_dnn_0.4_knife_10_n03041632_22734.png,n03041632_22734.png,0.0,1.7191154,2.749144,-0.72834027
alexnet2023_baseline_pgd,1,623,NaN,boat,oven,0.4,0623_hp_dnn_0.4_oven_10_n04111531_10521.png,n04111531_10521.png,0.0,-0.98890907,1.5970898,-1.8285773
alexnet2023_baseline_pgd,1,624,NaN,bird,bird,inf,0624_hp_dnn_inf_bird_10_n02007558_37147.png,n02007558_37147.png,1.0,6.242414,3.1312962,2.1998925
alexnet2023_baseline_pgd,1,625,NaN,chair,oven,3,0625_hp_dnn_3_oven_10_n04111531_14753.png,n04111531_14753.png,0.0,2.4993222,5.173086,-1.8906367
alexnet2023_baseline_pgd,1,626,NaN,elephant,bottle,0.7,0626_hp_dnn_0.7_bottle_10_n03983396_4990.png,n03983396_4990.png,0.0,-0.77643436,2.1490216,-2.06861
alexnet2023_baseline_pgd,1,627,NaN,airplane,cat,0.45,0627_hp_dnn_0.45_cat_10_n02125311_25104.png,n02125311_25104.png,0.0,-1.121185,2.9225016,-2.859318
alexnet2023_baseline_pgd,1,628,NaN,truck,truck,0.55,0628_hp_dnn_0.55_truck_10_n03417042_5600.png,n03417042_5600.png,1.0,2.503079,2.1926796,0.21948545
alexnet2023_baseline_pgd,1,629,NaN,knife,cat,0.55,0629_hp_dnn_0.55_cat_10_n02125311_34158.png,n02125311_34158.png,0.0,-0.90598845,1.7245762,-1.8600901
alexnet2023_baseline_pgd,1,630,NaN,knife,knife,1,0630_hp_dnn_1_knife_10_n03041632_41077.png,n03041632_41077.png,1.0,4.656903,3.2153332,1.0193436
alexnet2023_baseline_pgd,1,631,NaN,airplane,bicycle,0.45,0631_hp_dnn_0.45_bicycle_10_n03792782_19295.png,n03792782_19295.png,0.0,-1.4314793,2.4609194,-2.7523417
alexnet2023_baseline_pgd,1,632,NaN,bottle,elephant,1,0632_hp_dnn_1_elephant_10_n02504013_7500.png,n02504013_7500.png,0.0,2.0849595,2.2104585,-0.088741206
alexnet2023_baseline_pgd,1,633,NaN,airplane,chair,0.4,0633_hp_dnn_0.4_chair_10_n04429376_20837.png,n04429376_20837.png,0.0,-0.28370667,1.597716,-1.3303667
alexnet2023_baseline_pgd,1,634,NaN,clock,oven,0.55,0634_hp_dnn_0.55_oven_10_n04111531_2371.png,n04111531_2371.png,0.0,0.12504397,2.198684,-1.466285
alexnet2023_baseline_pgd,1,635,NaN,airplane,bear,0.45,0635_hp_dnn_0.45_bear_10_n02132136_2108.png,n02132136_2108.png,0.0,0.09856318,2.8707144,-1.960207
alexnet2023_baseline_pgd,1,636,NaN,boat,airplane,0.55,0636_hp_dnn_0.55_airplane_10_n02690373_7600.png,n02690373_7600.png,0.0,2.7114596,3.1530018,-0.31221744
alexnet2023_baseline_pgd,1,637,NaN,airplane,bicycle,0.4,0637_hp_dnn_0.4_bicycle_10_n03792782_8329.png,n03792782_8329.png,0.0,0.1737951,2.1004176,-1.3623278
alexnet2023_baseline_pgd,1,638,NaN,airplane,airplane,0.7,0638_hp_dnn_0.7_airplane_10_n02690373_9712.png,n02690373_9712.png,1.0,4.186269,3.3606906,0.58377194
alexnet2023_baseline_pgd,1,639,NaN,car,car,inf,0639_hp_dnn_inf_car_10_n02814533_43694.png,n02814533_43694.png,1.0,14.924029,10.562738,3.0838985
alexnet2023_baseline_pgd,1,640,NaN,airplane,bird,0.4,0640_hp_dnn_0.4_bird_10_n01828970_454.png,n01828970_454.png,0.0,1.1324599,2.5781002,-1.022222
alexnet2023_baseline_pgd,1,641,NaN,bird,bear,1,0641_hp_dnn_1_bear_10_n02132136_1141.png,n02132136_1141.png,0.0,0.21505779,1.3679755,-0.8152359
alexnet2023_baseline_pgd,1,642,NaN,truck,clock,0.7,0642_hp_dnn_0.7_clock_10_n03196217_6217.png,n03196217_6217.png,0.0,5.472655,5.9768934,-0.35655054
alexnet2023_baseline_pgd,1,643,NaN,clock,truck,1,0643_hp_dnn_1_truck_10_n03417042_4520.png,n03417042_4520.png,0.0,3.7823064,4.6470714,-0.61148113
alexnet2023_baseline_pgd,1,644,NaN,bird,dog,3,0644_hp_dnn_3_dog_10_n02093256_2633.png,n02093256_2633.png,0.0,-0.1670009,5.8034096,-4.221718
alexnet2023_baseline_pgd,1,645,NaN,airplane,dog,0.4,0645_hp_dnn_0.4_dog_10_n02108000_7066.png,n02108000_7066.png,0.0,0.3811924,2.9522219,-1.8179923
alexnet2023_baseline_pgd,1,646,NaN,bottle,dog,1.5,0646_hp_dnn_1.5_dog_10_n02099601_2805.png,n02099601_2805.png,0.0,-0.6226125,2.9418561,-2.52046
alexnet2023_baseline_pgd,1,647,NaN,chair,dog,3,0647_hp_dnn_3_dog_10_n02091244_3193.png,n02091244_3193.png,0.0,-0.71965474,4.1373177,-3.434398
alexnet2023_baseline_pgd,1,648,NaN,bicycle,bicycle,1.5,0648_hp_dnn_1.5_bicycle_10_n02835271_358.png,n02835271_358.png,1.0,1.89003,1.380114,0.36056513
alexnet2023_baseline_pgd,1,649,NaN,boat,boat,0.7,0649_hp_dnn_0.7_boat_10_n03344393_9459.png,n03344393_9459.png,1.0,6.0557165,4.2751303,1.2590647
alexnet2023_baseline_pgd,1,650,NaN,keyboard,truck,1,0650_hp_dnn_1_truck_10_n04467665_5053.png,n04467665_5053.png,0.0,2.5190773,3.1745539,-0.46349195
alexnet2023_baseline_pgd,1,651,NaN,knife,truck,0.45,0651_hp_dnn_0.45_truck_10_n04467665_36855.png,n04467665_36855.png,0.0,-0.2730167,1.5977455,-1.3228287
alexnet2023_baseline_pgd,1,652,NaN,airplane,car,0.45,0652_hp_dnn_0.45_car_10_n02814533_72255.png,n02814533_72255.png,0.0,-0.613161,1.3817477,-1.4106135
alexnet2023_baseline_pgd,1,653,NaN,airplane,airplane,1.5,0653_hp_dnn_1.5_airplane_10_n02690373_5789.png,n02690373_5789.png,1.0,4.755449,4.1393676,0.43563524
alexnet2023_baseline_pgd,1,654,NaN,airplane,oven,0.4,0654_hp_dnn_0.4_oven_10_n04111531_9224.png,n04111531_9224.png,0.0,-1.669134,3.0638888,-3.3467524
alexnet2023_baseline_pgd,1,655,NaN,cat,bird,inf,0655_hp_dnn_inf_bird_10_n01798484_4076.png,n01798484_4076.png,0.0,5.2172046,5.4631844,-0.17393398
alexnet2023_baseline_pgd,1,656,NaN,knife,boat,1,0656_hp_dnn_1_boat_10_n04612504_1869.png,n04612504_1869.png,0.0,1.0401098,3.0469759,-1.4190686
alexnet2023_baseline_pgd,1,657,NaN,airplane,cat,0.45,0657_hp_dnn_0.45_cat_10_n02123394_7335.png,n02123394_7335.png,0.0,-1.5761319,1.8251715,-2.4050846
alexnet2023_baseline_pgd,1,658,NaN,boat,boat,1,0658_hp_dnn_1_boat_10_n04612504_11379.png,n04612504_11379.png,1.0,5.1486926,2.373918,1.9620619
alexnet2023_baseline_pgd,1,659,NaN,bicycle,bicycle,1,0659_hp_dnn_1_bicycle_10_n03792782_18496.png,n03792782_18496.png,1.0,2.223452,1.3921559,0.58781517
alexnet2023_baseline_pgd,1,660,NaN,bear,bear,inf,0660_hp_dnn_inf_bear_10_n02133161_8471.png,n02133161_8471.png,1.0,4.1923876,1.8716443,1.6410134
alexnet2023_baseline_pgd,1,661,NaN,keyboard,keyboard,0.7,0661_hp_dnn_0.7_keyboard_10_n04505470_3929.png,n04505470_3929.png,1.0,6.7495713,2.8512316,2.7565424
