subj,session,trial,rt,object_response,category,condition,imagename,filename,is_correct,targ_act,max_nontarg_act,decision_margin
bagnet33,1,1,NaN,clock,boat,0.7,0001_hp_dnn_0.7_boat_10_n03662601_12531.png,n03662601_12531.png,0.0,1.4437897,3.1852143,-1.2313732
bagnet33,1,2,NaN,knife,chair,0.7,0002_hp_dnn_0.7_chair_10_n04429376_22819.png,n04429376_22819.png,0.0,3.3183823,4.5875196,-0.89741564
bagnet33,1,3,NaN,clock,elephant,0.45,0003_hp_dnn_0.45_elephant_10_n02504458_582.png,n02504458_582.png,0.0,-0.65208477,3.7151108,-3.0880737
bagnet33,1,4,NaN,clock,bicycle,0.7,0004_hp_dnn_0.7_bicycle_10_n03792782_41173.png,n03792782_41173.png,0.0,-1.368841,3.0276792,-3.1088092
bagnet33,1,5,NaN,clock,cat,1.5,0005_hp_dnn_1.5_cat_10_n02123597_7071.png,n02123597_7071.png,0.0,0.3473986,4.2023506,-2.7258627
bagnet33,1,6,NaN,clock,cat,0.4,0006_hp_dnn_0.4_cat_10_n02123394_2386.png,n02123394_2386.png,0.0,0.047175646,3.7501192,-2.6183765
bagnet33,1,7,NaN,oven,oven,inf,0007_hp_dnn_inf_oven_10_n04111531_2201.png,n04111531_2201.png,1.0,8.904138,5.4226975,2.46175
bagnet33,1,8,NaN,clock,cat,0.45,0008_hp_dnn_0.45_cat_10_n02125311_43276.png,n02125311_43276.png,0.0,0.89403266,4.4075637,-2.4844415
bagnet33,1,9,NaN,clock,dog,0.45,0009_hp_dnn_0.45_dog_10_n02111500_2439.png,n02111500_2439.png,0.0,-1.1589072,4.4110036,-3.9385219
bagnet33,1,10,NaN,clock,bicycle,0.4,0010_hp_dnn_0.4_bicycle_10_n02835271_12599.png,n02835271_12599.png,0.0,-1.1881373,4.241739,-3.8395023
bagnet33,1,11,NaN,clock,dog,0.45,0011_hp_dnn_0.45_dog_10_n02096585_391.png,n02096585_391.png,0.0,-1.1776284,3.5674229,-3.355258
bagnet33,1,12,NaN,clock,car,0.7,0012_hp_dnn_0.7_car_10_n04285008_12138.png,n04285008_12138.png,0.0,-1.6078609,2.7158124,-3.0572987
bagnet33,1,13,NaN,clock,car,0.7,0013_hp_dnn_0.7_car_10_n02814533_44083.png,n02814533_44083.png,0.0,-2.4297688,3.500819,-4.1935587
bagnet33,1,14,NaN,oven,oven,inf,0014_hp_dnn_inf_oven_10_n04111531_2447.png,n04111531_2447.png,1.0,19.312809,6.4883113,9.068289
bagnet33,1,15,NaN,clock,chair,0.55,0015_hp_dnn_0.55_chair_10_n03376595_9524.png,n03376595_9524.png,0.0,2.9050097,4.554161,-1.1661261
bagnet33,1,16,NaN,clock,elephant,0.55,0016_hp_dnn_0.55_elephant_10_n02504458_3092.png,n02504458_3092.png,0.0,-0.63370776,3.6230652,-3.009993
bagnet33,1,17,NaN,clock,truck,0.4,0017_hp_dnn_0.4_truck_10_n04467665_42126.png,n04467665_42126.png,0.0,-0.9629557,3.3065681,-3.019009
bagnet33,1,18,NaN,elephant,elephant,inf,0018_hp_dnn_inf_elephant_10_n02504458_12303.png,n02504458_12303.png,1.0,26.101452,6.274788,14.019568
bagnet33,1,19,NaN,airplane,clock,0.4,0019_hp_dnn_0.4_clock_10_n04548280_7243.png,n04548280_7243.png,0.0,5.2627416,5.424096,-0.11409489
bagnet33,1,20,NaN,clock,airplane,0.4,0020_hp_dnn_0.4_airplane_10_n02690373_6978.png,n02690373_6978.png,0.0,1.5227696,5.006451,-2.463335
bagnet33,1,21,NaN,chair,boat,3,0021_hp_dnn_3_boat_10_n04612504_4773.png,n04612504_4773.png,0.0,2.9904613,3.1760945,-0.13126248
bagnet33,1,22,NaN,knife,bottle,inf,0022_hp_dnn_inf_bottle_10_n04560804_5979.png,n04560804_5979.png,0.0,2.7102659,3.4761996,-0.54159695
bagnet33,1,23,NaN,airplane,airplane,3,0023_hp_dnn_3_airplane_10_n02690373_21922.png,n02690373_21922.png,1.0,18.10889,4.476418,9.639614
bagnet33,1,24,NaN,clock,bird,0.4,0024_hp_dnn_0.4_bird_10_n01820546_6431.png,n01820546_6431.png,0.0,0.107732624,4.760019,-3.289663
bagnet33,1,25,NaN,bear,bird,inf,0025_hp_dnn_inf_bird_10_n01795545_9555.png,n01795545_9555.png,0.0,0.7936874,2.9645562,-1.5350361
bagnet33,1,26,NaN,truck,truck,3,0026_hp_dnn_3_truck_10_n04467665_45796.png,n04467665_45796.png,1.0,5.193451,4.568449,0.4419431
bagnet33,1,27,NaN,bottle,oven,1,0027_hp_dnn_1_oven_10_n04111531_5906.png,n04111531_5906.png,0.0,-3.0405765,3.7907312,-4.830464
bagnet33,1,28,NaN,clock,bicycle,0.45,0028_hp_dnn_0.45_bicycle_10_n03792782_6133.png,n03792782_6133.png,0.0,-0.78527975,3.9025135,-3.3147705
bagnet33,1,29,NaN,keyboard,keyboard,1,0029_hp_dnn_1_keyboard_10_n04505470_4741.png,n04505470_4741.png,1.0,5.5378146,3.099761,1.7239642
bagnet33,1,30,NaN,chair,car,1.5,0030_hp_dnn_1.5_car_10_n02814533_5085.png,n02814533_5085.png,0.0,2.7702951,6.295124,-2.4924304
bagnet33,1,31,NaN,clock,chair,0.4,0031_hp_dnn_0.4_chair_10_n04429376_10628.png,n04429376_10628.png,0.0,2.1558812,4.373602,-1.5681654
bagnet33,1,32,NaN,clock,clock,0.55,0032_hp_dnn_0.55_clock_10_n02708093_5311.png,n02708093_5311.png,1.0,5.134607,3.8430789,0.91324824
bagnet33,1,33,NaN,clock,chair,0.55,0033_hp_dnn_0.55_chair_10_n03376595_10460.png,n03376595_10460.png,0.0,0.7562848,4.1612883,-2.4077013
bagnet33,1,34,NaN,knife,bear,3,0034_hp_dnn_3_bear_10_n02133161_1118.png,n02133161_1118.png,0.0,-2.2062588,3.4620945,-4.008131
bagnet33,1,35,NaN,chair,knife,3,0035_hp_dnn_3_knife_10_n03041632_11603.png,n03041632_11603.png,0.0,4.794507,4.8603797,-0.04657901
bagnet33,1,36,NaN,clock,dog,0.4,0036_hp_dnn_0.4_dog_10_n02108422_7493.png,n02108422_7493.png,0.0,-1.2737701,3.7471926,-3.5503569
bagnet33,1,37,NaN,bottle,keyboard,3,0037_hp_dnn_3_keyboard_10_n04505470_550.png,n04505470_550.png,0.0,4.0777445,4.7364707,-0.4657898
bagnet33,1,38,NaN,knife,dog,1.5,0038_hp_dnn_1.5_dog_10_n02097047_1003.png,n02097047_1003.png,0.0,-1.1081841,3.9906478,-3.605419
bagnet33,1,39,NaN,clock,bird,1.5,0039_hp_dnn_1.5_bird_10_n01616318_9819.png,n01616318_9819.png,0.0,-1.5925198,3.0587137,-3.288919
bagnet33,1,40,NaN,clock,cat,0.55,0040_hp_dnn_0.55_cat_10_n02123597_1016.png,n02123597_1016.png,0.0,1.2296629,4.7655683,-2.5002627
bagnet33,1,41,NaN,clock,bear,1,0041_hp_dnn_1_bear_10_n02134418_971.png,n02134418_971.png,0.0,-0.9172045,3.3280098,-3.00182
bagnet33,1,42,NaN,clock,bear,0.7,0042_hp_dnn_0.7_bear_10_n02132136_10944.png,n02132136_10944.png,0.0,-2.4519567,2.7151623,-3.653705
bagnet33,1,43,NaN,clock,elephant,1,0043_hp_dnn_1_elephant_10_n02504458_4439.png,n02504458_4439.png,0.0,-0.97000885,3.587025,-3.2223094
bagnet33,1,44,NaN,clock,keyboard,0.4,0044_hp_dnn_0.4_keyboard_10_n03085013_2362.png,n03085013_2362.png,0.0,0.5790273,2.9777,-1.6961176
bagnet33,1,45,NaN,knife,dog,1.5,0045_hp_dnn_1.5_dog_10_n02097474_9488.png,n02097474_9488.png,0.0,-0.7540993,4.4436784,-3.675384
bagnet33,1,46,NaN,clock,clock,inf,0046_hp_dnn_inf_clock_10_n04548280_3308.png,n04548280_3308.png,1.0,24.180334,6.7259836,12.342089
bagnet33,1,47,NaN,clock,bear,1.5,0047_hp_dnn_1.5_bear_10_n02133161_334.png,n02133161_334.png,0.0,-0.29955366,3.6097324,-2.7642827
bagnet33,1,48,NaN,clock,knife,0.45,0048_hp_dnn_0.45_knife_10_n03041632_6708.png,n03041632_6708.png,0.0,2.1668723,4.4545264,-1.6176158
bagnet33,1,49,NaN,knife,car,0.55,0049_hp_dnn_0.55_car_10_n02814533_81092.png,n02814533_81092.png,0.0,-2.1830428,3.3890018,-3.9400303
bagnet33,1,50,NaN,clock,bottle,0.45,0050_hp_dnn_0.45_bottle_10_n03937543_11897.png,n03937543_11897.png,0.0,2.4470875,4.068062,-1.146202
bagnet33,1,51,NaN,airplane,airplane,3,0051_hp_dnn_3_airplane_10_n02690373_4429.png,n02690373_4429.png,1.0,10.146785,4.9325438,3.6870253
bagnet33,1,52,NaN,clock,knife,0.4,0052_hp_dnn_0.4_knife_10_n03041632_22964.png,n03041632_22964.png,0.0,1.52557,3.9975708,-1.7479684
bagnet33,1,53,NaN,knife,knife,1.5,0053_hp_dnn_1.5_knife_10_n03041632_33075.png,n03041632_33075.png,1.0,2.2725387,1.9202468,0.24910794
bagnet33,1,54,NaN,clock,bird,0.7,0054_hp_dnn_0.7_bird_10_n02006656_1412.png,n02006656_1412.png,0.0,-0.25434792,3.4311829,-2.6060638
bagnet33,1,55,NaN,clock,clock,1,0055_hp_dnn_1_clock_10_n02708093_3173.png,n02708093_3173.png,1.0,10.47064,2.7350621,5.4698796
bagnet33,1,56,NaN,clock,keyboard,0.45,0056_hp_dnn_0.45_keyboard_10_n03085013_22016.png,n03085013_22016.png,0.0,0.1454584,3.3395488,-2.258563
bagnet33,1,57,NaN,clock,elephant,0.55,0057_hp_dnn_0.55_elephant_10_n02504458_11214.png,n02504458_11214.png,0.0,-0.7070346,3.582494,-3.033155
bagnet33,1,58,NaN,airplane,chair,0.7,0058_hp_dnn_0.7_chair_10_n04099969_13775.png,n04099969_13775.png,0.0,1.4470073,3.6392841,-1.5501739
bagnet33,1,59,NaN,clock,bicycle,0.4,0059_hp_dnn_0.4_bicycle_10_n02835271_8098.png,n02835271_8098.png,0.0,-1.0840433,5.036116,-4.327606
bagnet33,1,60,NaN,clock,clock,0.4,0060_hp_dnn_0.4_clock_10_n04548280_1126.png,n04548280_1126.png,1.0,4.9114423,3.4558766,1.0292404
bagnet33,1,61,NaN,clock,bicycle,0.45,0061_hp_dnn_0.45_bicycle_10_n02835271_2050.png,n02835271_2050.png,0.0,-0.4035476,3.786002,-2.9624588
bagnet33,1,62,NaN,clock,oven,1,0062_hp_dnn_1_oven_10_n04111531_891.png,n04111531_891.png,0.0,-2.0440383,4.9003997,-4.910459
bagnet33,1,63,NaN,clock,bottle,0.7,0063_hp_dnn_0.7_bottle_10_n02823428_6201.png,n02823428_6201.png,0.0,3.1096706,3.526864,-0.29500028
bagnet33,1,64,NaN,clock,bicycle,0.7,0064_hp_dnn_0.7_bicycle_10_n02835271_20175.png,n02835271_20175.png,0.0,-0.17530696,3.430317,-2.5495613
bagnet33,1,65,NaN,clock,cat,3,0065_hp_dnn_3_cat_10_n02123597_13175.png,n02123597_13175.png,0.0,-0.031068483,2.330559,-1.669923
bagnet33,1,66,NaN,clock,dog,0.4,0066_hp_dnn_0.4_dog_10_n02085936_4391.png,n02085936_4391.png,0.0,-1.4209661,3.8711193,-3.7420697
bagnet33,1,67,NaN,airplane,airplane,1.5,0067_hp_dnn_1.5_airplane_10_n02690373_8846.png,n02690373_8846.png,1.0,6.79734,4.6857305,1.4931334
bagnet33,1,68,NaN,clock,cat,1.5,0068_hp_dnn_1.5_cat_10_n02123597_10301.png,n02123597_10301.png,0.0,1.4531707,4.169519,-1.9207482
bagnet33,1,69,NaN,clock,elephant,0.7,0069_hp_dnn_0.7_elephant_10_n02504458_6135.png,n02504458_6135.png,0.0,0.101977825,3.1524239,-2.156991
bagnet33,1,70,NaN,clock,keyboard,0.45,0070_hp_dnn_0.45_keyboard_10_n03085013_22585.png,n03085013_22585.png,0.0,-0.015172124,4.1404157,-2.9384444
bagnet33,1,71,NaN,clock,bird,1,0071_hp_dnn_1_bird_10_n02017213_1150.png,n02017213_1150.png,0.0,-2.53539,5.3029585,-5.5425496
bagnet33,1,72,NaN,bottle,bottle,3,0072_hp_dnn_3_bottle_10_n04560804_30885.png,n04560804_30885.png,1.0,7.9889297,4.1783786,2.6944666
bagnet33,1,73,NaN,bicycle,bicycle,inf,0073_hp_dnn_inf_bicycle_10_n02835271_9191.png,n02835271_9191.png,1.0,21.394348,4.999606,11.592833
bagnet33,1,74,NaN,chair,truck,inf,0074_hp_dnn_inf_truck_10_n03796401_7699.png,n03796401_7699.png,0.0,5.6838083,5.923974,-0.16982281
bagnet33,1,75,NaN,clock,knife,1.5,0075_hp_dnn_1.5_knife_10_n03041632_50332.png,n03041632_50332.png,0.0,3.2567062,4.3073287,-0.7429023
bagnet33,1,76,NaN,clock,knife,0.55,0076_hp_dnn_0.55_knife_10_n03041632_36247.png,n03041632_36247.png,0.0,2.137312,3.9807818,-1.3035301
bagnet33,1,77,NaN,clock,knife,1.5,0077_hp_dnn_1.5_knife_10_n03041632_23667.png,n03041632_23667.png,0.0,3.574738,4.2134604,-0.45164496
bagnet33,1,78,NaN,clock,dog,3,0078_hp_dnn_3_dog_10_n02102973_7028.png,n02102973_7028.png,0.0,0.09962033,1.60293,-1.0630004
bagnet33,1,79,NaN,clock,oven,0.55,0079_hp_dnn_0.55_oven_10_n04111531_9867.png,n04111531_9867.png,0.0,-2.6079826,3.5235608,-4.3356557
bagnet33,1,80,NaN,chair,car,0.55,0080_hp_dnn_0.55_car_10_n02814533_8121.png,n02814533_8121.png,0.0,-1.4189333,3.5381737,-3.5052042
bagnet33,1,81,NaN,clock,boat,0.55,0081_hp_dnn_0.55_boat_10_n03662601_5210.png,n03662601_5210.png,0.0,1.3222046,3.4082575,-1.4750621
bagnet33,1,82,NaN,chair,car,1.5,0082_hp_dnn_1.5_car_10_n03100240_6192.png,n03100240_6192.png,0.0,0.40467954,3.2197368,-1.9905461
bagnet33,1,83,NaN,clock,oven,0.45,0083_hp_dnn_0.45_oven_10_n04111531_9314.png,n04111531_9314.png,0.0,-2.7243366,3.9708118,-4.7341847
bagnet33,1,84,NaN,clock,cat,0.4,0084_hp_dnn_0.4_cat_10_n02123045_5189.png,n02123045_5189.png,0.0,0.37914458,4.2059083,-2.7059305
bagnet33,1,85,NaN,airplane,truck,0.7,0085_hp_dnn_0.7_truck_10_n04467665_30189.png,n04467665_30189.png,0.0,1.7655729,3.8983498,-1.5081009
bagnet33,1,86,NaN,airplane,airplane,1.5,0086_hp_dnn_1.5_airplane_10_n02690373_3377.png,n02690373_3377.png,1.0,3.91734,3.6515896,0.18791392
bagnet33,1,87,NaN,clock,oven,0.4,0087_hp_dnn_0.4_oven_10_n04111531_1750.png,n04111531_1750.png,0.0,-2.6855898,3.933398,-4.680331
bagnet33,1,88,NaN,dog,dog,inf,0088_hp_dnn_inf_dog_10_n02097047_2877.png,n02097047_2877.png,1.0,4.744535,4.038405,0.49930933
bagnet33,1,89,NaN,cat,cat,inf,0089_hp_dnn_inf_cat_10_n02124075_15171.png,n02124075_15171.png,1.0,23.5814,3.9497762,13.881655
bagnet33,1,90,NaN,clock,car,0.4,0090_hp_dnn_0.4_car_10_n03100240_23060.png,n03100240_23060.png,0.0,-1.2518828,3.3631756,-3.263339
bagnet33,1,91,NaN,keyboard,knife,inf,0091_hp_dnn_inf_knife_10_n03041632_20595.png,n03041632_20595.png,0.0,4.660039,5.513942,-0.6038005
bagnet33,1,92,NaN,clock,knife,0.45,0092_hp_dnn_0.45_knife_10_n03041632_2184.png,n03041632_2184.png,0.0,2.4392672,3.4396222,-0.7073578
bagnet33,1,93,NaN,airplane,knife,0.4,0093_hp_dnn_0.4_knife_10_n03041632_42162.png,n03041632_42162.png,0.0,1.4693007,3.1458557,-1.1855034
bagnet33,1,94,NaN,clock,elephant,1,0094_hp_dnn_1_elephant_10_n02504458_3535.png,n02504458_3535.png,0.0,-1.0955747,3.7265558,-3.4097614
bagnet33,1,95,NaN,airplane,bird,inf,0095_hp_dnn_inf_bird_10_n02056570_11311.png,n02056570_11311.png,0.0,0.10728114,5.039349,-3.4874988
bagnet33,1,96,NaN,clock,chair,0.4,0096_hp_dnn_0.4_chair_10_n03376595_4121.png,n03376595_4121.png,0.0,0.78189075,4.492604,-2.6238704
bagnet33,1,97,NaN,clock,dog,1,0097_hp_dnn_1_dog_10_n02086240_3572.png,n02086240_3572.png,0.0,-1.1589746,3.5652819,-3.3405538
bagnet33,1,98,NaN,elephant,elephant,inf,0098_hp_dnn_inf_elephant_10_n02504013_4523.png,n02504013_4523.png,1.0,22.668531,3.5524175,13.517134
bagnet33,1,99,NaN,chair,chair,inf,0099_hp_dnn_inf_chair_10_n04429376_7902.png,n04429376_7902.png,1.0,8.857294,7.920879,0.66214556
bagnet33,1,100,NaN,clock,bird,0.45,0100_hp_dnn_0.45_bird_10_n01530575_14402.png,n01530575_14402.png,0.0,0.3448396,4.1922092,-2.7205012
bagnet33,1,101,NaN,clock,bottle,0.55,0101_hp_dnn_0.55_bottle_10_n02823428_11140.png,n02823428_11140.png,0.0,2.0438657,3.6058242,-1.1044714
bagnet33,1,102,NaN,airplane,airplane,0.55,0102_hp_dnn_0.55_airplane_10_n02690373_7685.png,n02690373_7685.png,1.0,3.8608775,3.364022,0.3513299
bagnet33,1,103,NaN,clock,boat,0.45,0103_hp_dnn_0.45_boat_10_n03344393_4827.png,n03344393_4827.png,0.0,-0.81572837,3.3648615,-2.9561234
bagnet33,1,104,NaN,knife,dog,0.7,0104_hp_dnn_0.7_dog_10_n02088364_8674.png,n02088364_8674.png,0.0,-1.2219449,2.6010551,-2.7032692
bagnet33,1,105,NaN,clock,knife,0.45,0105_hp_dnn_0.45_knife_10_n03041632_32004.png,n03041632_32004.png,0.0,2.106471,3.0112724,-0.6397912
bagnet33,1,106,NaN,keyboard,keyboard,3,0106_hp_dnn_3_keyboard_10_n03085013_22949.png,n03085013_22949.png,1.0,5.723016,4.8118544,0.6442884
bagnet33,1,107,NaN,clock,knife,0.7,0107_hp_dnn_0.7_knife_10_n03041632_4044.png,n03041632_4044.png,0.0,3.607369,4.8531833,-0.88092375
bagnet33,1,108,NaN,airplane,airplane,1.5,0108_hp_dnn_1.5_airplane_10_n02690373_6455.png,n02690373_6455.png,1.0,6.1309557,3.4039161,1.9283082
bagnet33,1,109,NaN,clock,airplane,0.55,0109_hp_dnn_0.55_airplane_10_n02690373_19646.png,n02690373_19646.png,0.0,2.1105542,3.4886787,-0.97448117
bagnet33,1,110,NaN,boat,boat,inf,0110_hp_dnn_inf_boat_10_n04612504_1692.png,n04612504_1692.png,1.0,7.8820496,6.82848,0.74498636
bagnet33,1,111,NaN,clock,cat,0.55,0111_hp_dnn_0.55_cat_10_n02124075_853.png,n02124075_853.png,0.0,0.49898157,3.335296,-2.0055773
bagnet33,1,112,NaN,clock,boat,1,0112_hp_dnn_1_boat_10_n04273569_6071.png,n04273569_6071.png,0.0,-0.96433467,4.2862754,-3.7127419
bagnet33,1,113,NaN,clock,bird,1.5,0113_hp_dnn_1.5_bird_10_n01616318_1214.png,n01616318_1214.png,0.0,-2.3773568,3.0803344,-3.8591704
bagnet33,1,114,NaN,chair,car,1.5,0114_hp_dnn_1.5_car_10_n02814533_14627.png,n02814533_14627.png,0.0,1.036657,3.714354,-1.8934178
bagnet33,1,115,NaN,clock,keyboard,0.7,0115_hp_dnn_0.7_keyboard_10_n03085013_1483.png,n03085013_1483.png,0.0,0.82840884,4.8419185,-2.83798
bagnet33,1,116,NaN,airplane,airplane,0.55,0116_hp_dnn_0.55_airplane_10_n02690373_7401.png,n02690373_7401.png,1.0,3.838844,3.3605735,0.33818835
bagnet33,1,117,NaN,clock,keyboard,0.55,0117_hp_dnn_0.55_keyboard_10_n03085013_6963.png,n03085013_6963.png,0.0,0.40742192,2.2967765,-1.3359754
bagnet33,1,118,NaN,knife,knife,3,0118_hp_dnn_3_knife_10_n03041632_1407.png,n03041632_1407.png,1.0,4.0799847,3.335024,0.52676666
bagnet33,1,119,NaN,clock,elephant,1.5,0119_hp_dnn_1.5_elephant_10_n02504458_5137.png,n02504458_5137.png,0.0,0.38525426,3.8819416,-2.4725313
bagnet33,1,120,NaN,clock,clock,inf,0120_hp_dnn_inf_clock_10_n02708093_6635.png,n02708093_6635.png,1.0,12.782435,8.0395355,3.3537366
bagnet33,1,121,NaN,clock,oven,0.4,0121_hp_dnn_0.4_oven_10_n04111531_5927.png,n04111531_5927.png,0.0,-2.708095,4.2446523,-4.916335
bagnet33,1,122,NaN,clock,clock,inf,0122_hp_dnn_inf_clock_10_n02708093_2043.png,n02708093_2043.png,1.0,24.196238,7.7375383,11.638058
bagnet33,1,123,NaN,clock,airplane,0.4,0123_hp_dnn_0.4_airplane_10_n02690373_7300.png,n02690373_7300.png,0.0,1.7135205,4.080709,-1.6738551
bagnet33,1,124,NaN,clock,oven,0.55,0124_hp_dnn_0.55_oven_10_n04111531_190.png,n04111531_190.png,0.0,-3.3562918,3.0573556,-4.535134
bagnet33,1,125,NaN,elephant,dog,3,0125_hp_dnn_3_dog_10_n02091244_8497.png,n02091244_8497.png,0.0,1.0805167,3.1463885,-1.460792
bagnet33,1,126,NaN,boat,bicycle,0.7,0126_hp_dnn_0.7_bicycle_10_n03792782_15932.png,n03792782_15932.png,0.0,0.533152,2.707439,-1.537453
bagnet33,1,127,NaN,clock,bear,0.4,0127_hp_dnn_0.4_bear_10_n02133161_463.png,n02133161_463.png,0.0,-1.1626809,4.2412457,-3.8211534
bagnet33,1,128,NaN,clock,cat,0.7,0128_hp_dnn_0.7_cat_10_n02123045_11126.png,n02123045_11126.png,0.0,0.27121088,3.4212368,-2.2274046
bagnet33,1,129,NaN,clock,clock,0.7,0129_hp_dnn_0.7_clock_10_n04548280_8646.png,n04548280_8646.png,1.0,5.723185,4.8887663,0.59002316
bagnet33,1,130,NaN,clock,bottle,0.55,0130_hp_dnn_0.55_bottle_10_n03983396_11597.png,n03983396_11597.png,0.0,3.3942592,5.393104,-1.4133968
bagnet33,1,131,NaN,airplane,truck,3,0131_hp_dnn_3_truck_10_n03417042_212.png,n03417042_212.png,0.0,4.4699244,5.464668,-0.70338976
bagnet33,1,132,NaN,clock,keyboard,1,0132_hp_dnn_1_keyboard_10_n04505470_1724.png,n04505470_1724.png,0.0,3.2790747,4.5968723,-0.9318237
bagnet33,1,133,NaN,clock,chair,1,0133_hp_dnn_1_chair_10_n04099969_14028.png,n04099969_14028.png,0.0,3.5138361,4.252148,-0.52206546
bagnet33,1,134,NaN,clock,cat,0.45,0134_hp_dnn_0.45_cat_10_n02124075_2138.png,n02124075_2138.png,0.0,0.41885257,3.1367648,-1.9218541
bagnet33,1,135,NaN,airplane,boat,inf,0135_hp_dnn_inf_boat_10_n03662601_3145.png,n03662601_3145.png,0.0,3.041366,10.153947,-5.029354
bagnet33,1,136,NaN,cat,cat,3,0136_hp_dnn_3_cat_10_n02123045_1120.png,n02123045_1120.png,1.0,3.060054,2.6079679,0.31967324
bagnet33,1,137,NaN,boat,boat,inf,0137_hp_dnn_inf_boat_10_n04612504_31305.png,n04612504_31305.png,1.0,13.724436,11.885156,1.3005675
bagnet33,1,138,NaN,clock,chair,1,0138_hp_dnn_1_chair_10_n04099969_4275.png,n04099969_4275.png,0.0,3.2855434,5.15618,-1.3227397
bagnet33,1,139,NaN,clock,keyboard,0.4,0139_hp_dnn_0.4_keyboard_10_n03085013_23005.png,n03085013_23005.png,0.0,-0.19691908,3.9395125,-2.9248989
bagnet33,1,140,NaN,airplane,airplane,1,0140_hp_dnn_1_airplane_10_n02690373_9618.png,n02690373_9618.png,1.0,3.6765006,3.3240821,0.24919747
bagnet33,1,141,NaN,clock,knife,0.55,0141_hp_dnn_0.55_knife_10_n03041632_17338.png,n03041632_17338.png,0.0,1.0105276,2.89843,-1.3349487
bagnet33,1,142,NaN,clock,clock,0.45,0142_hp_dnn_0.45_clock_10_n04548280_8225.png,n04548280_8225.png,1.0,4.2956734,2.2215807,1.466605
bagnet33,1,143,NaN,car,car,inf,0143_hp_dnn_inf_car_10_n03100240_8907.png,n03100240_8907.png,1.0,13.651932,6.4233966,5.1113462
bagnet33,1,144,NaN,chair,chair,1.5,0144_hp_dnn_1.5_chair_10_n03376595_6865.png,n03376595_6865.png,1.0,4.7906985,4.161983,0.44456902
bagnet33,1,145,NaN,clock,bicycle,0.45,0145_hp_dnn_0.45_bicycle_10_n03792782_44296.png,n03792782_44296.png,0.0,-0.7492217,5.5708175,-4.4689426
bagnet33,1,146,NaN,chair,boat,1.5,0146_hp_dnn_1.5_boat_10_n04273569_1233.png,n04273569_1233.png,0.0,1.2761345,3.1847115,-1.3495678
bagnet33,1,147,NaN,clock,bird,1,0147_hp_dnn_1_bird_10_n01824575_12784.png,n01824575_12784.png,0.0,-2.515417,5.144579,-5.4164352
bagnet33,1,148,NaN,airplane,boat,3,0148_hp_dnn_3_boat_10_n03344393_408.png,n03344393_408.png,0.0,1.3186052,7.445202,-4.332158
bagnet33,1,149,NaN,airplane,airplane,1,0149_hp_dnn_1_airplane_10_n02690373_220.png,n02690373_220.png,1.0,3.5013258,3.1964028,0.21561317
bagnet33,1,150,NaN,chair,chair,3,0150_hp_dnn_3_chair_10_n04429376_10546.png,n04429376_10546.png,1.0,8.0583,4.4528127,2.5494647
bagnet33,1,151,NaN,clock,oven,0.7,0151_hp_dnn_0.7_oven_10_n04111531_4749.png,n04111531_4749.png,0.0,-3.1910274,3.9862213,-5.0750813
bagnet33,1,152,NaN,clock,truck,0.4,0152_hp_dnn_0.4_truck_10_n03417042_18124.png,n03417042_18124.png,0.0,-0.51325667,3.4252968,-2.784978
bagnet33,1,153,NaN,chair,clock,3,0153_hp_dnn_3_clock_10_n03196217_7353.png,n03196217_7353.png,0.0,4.587279,5.4979706,-0.6439563
bagnet33,1,154,NaN,clock,dog,0.7,0154_hp_dnn_0.7_dog_10_n02098286_2699.png,n02098286_2699.png,0.0,-1.491177,4.5976872,-4.305477
bagnet33,1,155,NaN,clock,truck,0.4,0155_hp_dnn_0.4_truck_10_n03796401_3651.png,n03796401_3651.png,0.0,-0.46319985,3.229604,-2.6112068
bagnet33,1,156,NaN,clock,bottle,0.4,0156_hp_dnn_0.4_bottle_10_n03983396_4165.png,n03983396_4165.png,0.0,1.8161613,4.410669,-1.834594
bagnet33,1,157,NaN,clock,knife,1,0157_hp_dnn_1_knife_10_n03041632_25257.png,n03041632_25257.png,0.0,2.9034703,4.2286563,-0.937048
bagnet33,1,158,NaN,chair,chair,3,0158_hp_dnn_3_chair_10_n04099969_1229.png,n04099969_1229.png,1.0,10.919063,3.017217,5.587449
bagnet33,1,159,NaN,knife,bird,inf,0159_hp_dnn_inf_bird_10_n01798484_518.png,n01798484_518.png,0.0,0.5337565,2.0446262,-1.0683463
bagnet33,1,160,NaN,bird,bird,inf,0160_hp_dnn_inf_bird_10_n01797886_1953.png,n01797886_1953.png,1.0,3.7294319,2.1858478,1.0914788
bagnet33,1,161,NaN,knife,bird,3,0161_hp_dnn_3_bird_10_n01820546_228.png,n01820546_228.png,0.0,-1.6246321,3.0741482,-3.3225393
bagnet33,1,162,NaN,clock,bear,1.5,0162_hp_dnn_1.5_bear_10_n02134418_2666.png,n02134418_2666.png,0.0,-0.5057879,3.7933457,-3.0399468
bagnet33,1,163,NaN,clock,boat,1.5,0163_hp_dnn_1.5_boat_10_n03344393_7659.png,n03344393_7659.png,0.0,1.5377964,4.8143077,-2.3168433
bagnet33,1,164,NaN,clock,oven,1.5,0164_hp_dnn_1.5_oven_10_n04111531_1752.png,n04111531_1752.png,0.0,-2.17423,4.9180155,-5.014975
bagnet33,1,165,NaN,dog,dog,inf,0165_hp_dnn_inf_dog_10_n02091032_8873.png,n02091032_8873.png,1.0,6.877579,4.985199,1.338115
bagnet33,1,166,NaN,clock,oven,0.7,0166_hp_dnn_0.7_oven_10_n04111531_14559.png,n04111531_14559.png,0.0,-1.835227,2.910432,-3.3556876
bagnet33,1,167,NaN,clock,cat,0.7,0167_hp_dnn_0.7_cat_10_n02123045_114.png,n02123045_114.png,0.0,0.15305291,2.2466054,-1.4803653
bagnet33,1,168,NaN,cat,cat,3,0168_hp_dnn_3_cat_10_n02123597_13865.png,n02123597_13865.png,1.0,13.131909,2.6306481,7.425513
bagnet33,1,169,NaN,clock,knife,0.55,0169_hp_dnn_0.55_knife_10_n03041632_13478.png,n03041632_13478.png,0.0,1.8270836,3.2701511,-1.0204029
bagnet33,1,170,NaN,clock,elephant,0.55,0170_hp_dnn_0.55_elephant_10_n02504458_2618.png,n02504458_2618.png,0.0,-0.2754824,3.2490044,-2.4921885
bagnet33,1,171,NaN,clock,truck,1,0171_hp_dnn_1_truck_10_n04467665_56954.png,n04467665_56954.png,0.0,-1.1363115,3.4900649,-3.271342
bagnet33,1,172,NaN,clock,chair,1,0172_hp_dnn_1_chair_10_n04429376_1791.png,n04429376_1791.png,0.0,3.1366973,3.8073013,-0.47418863
bagnet33,1,173,NaN,chair,bottle,3,0173_hp_dnn_3_bottle_10_n04560804_33214.png,n04560804_33214.png,0.0,2.955154,4.346836,-0.9840679
bagnet33,1,174,NaN,knife,knife,inf,0174_hp_dnn_inf_knife_10_n03041632_48816.png,n03041632_48816.png,1.0,9.9418955,2.32759,5.384127
bagnet33,1,175,NaN,cat,cat,3,0175_hp_dnn_3_cat_10_n02123394_2274.png,n02123394_2274.png,1.0,6.453047,4.7719736,1.1886983
bagnet33,1,176,NaN,truck,truck,1.5,0176_hp_dnn_1.5_truck_10_n03796401_1326.png,n03796401_1326.png,1.0,3.5017724,2.921484,0.41032588
bagnet33,1,177,NaN,airplane,knife,0.55,0177_hp_dnn_0.55_knife_10_n03041632_11887.png,n03041632_11887.png,0.0,0.45438138,2.6718235,-1.5679684
bagnet33,1,178,NaN,clock,dog,0.7,0178_hp_dnn_0.7_dog_10_n02113978_8008.png,n02113978_8008.png,0.0,-1.2042962,3.6908474,-3.4613893
bagnet33,1,179,NaN,clock,cat,0.4,0179_hp_dnn_0.4_cat_10_n02123045_4812.png,n02123045_4812.png,0.0,1.2698838,3.7577794,-1.7592078
bagnet33,1,180,NaN,knife,bird,inf,0180_hp_dnn_inf_bird_10_n01833805_3578.png,n01833805_3578.png,0.0,0.63829875,4.0460715,-2.4096594
bagnet33,1,181,NaN,clock,truck,1,0181_hp_dnn_1_truck_10_n03417042_3398.png,n03417042_3398.png,0.0,0.38809663,4.4527035,-2.874111
bagnet33,1,182,NaN,clock,bird,0.7,0182_hp_dnn_0.7_bird_10_n02007558_4566.png,n02007558_4566.png,0.0,-2.3741665,5.4293685,-5.5179324
bagnet33,1,183,NaN,clock,knife,0.45,0183_hp_dnn_0.45_knife_10_n03041632_3516.png,n03041632_3516.png,0.0,2.6107707,4.0250416,-1.0000405
bagnet33,1,184,NaN,clock,cat,1.5,0184_hp_dnn_1.5_cat_10_n02124075_14965.png,n02124075_14965.png,0.0,0.561943,4.285883,-2.6332233
bagnet33,1,185,NaN,clock,bird,0.4,0185_hp_dnn_0.4_bird_10_n01843065_2176.png,n01843065_2176.png,0.0,0.069492504,3.8712833,-2.688272
bagnet33,1,186,NaN,chair,knife,3,0186_hp_dnn_3_knife_10_n03041632_21034.png,n03041632_21034.png,0.0,2.9151988,3.4961784,-0.4108146
bagnet33,1,187,NaN,chair,keyboard,1.5,0187_hp_dnn_1.5_keyboard_10_n03085013_24026.png,n03085013_24026.png,0.0,1.3354229,4.304888,-2.0997288
bagnet33,1,188,NaN,clock,bottle,0.55,0188_hp_dnn_0.55_bottle_10_n04560804_14395.png,n04560804_14395.png,0.0,2.3527052,4.6551366,-1.6280649
bagnet33,1,189,NaN,clock,boat,0.45,0189_hp_dnn_0.45_boat_10_n02951358_11567.png,n02951358_11567.png,0.0,0.55452156,3.8111413,-2.302778
bagnet33,1,190,NaN,clock,chair,0.4,0190_hp_dnn_0.4_chair_10_n03376595_17747.png,n03376595_17747.png,0.0,1.7923251,4.233891,-1.7264479
bagnet33,1,191,NaN,bottle,bottle,inf,0191_hp_dnn_inf_bottle_10_n04591713_5563.png,n04591713_5563.png,1.0,5.5994725,3.513823,1.4747769
bagnet33,1,192,NaN,airplane,airplane,3,0192_hp_dnn_3_airplane_10_n02690373_7496.png,n02690373_7496.png,1.0,8.454937,3.4173453,3.5621154
bagnet33,1,193,NaN,airplane,airplane,3,0193_hp_dnn_3_airplane_10_n02690373_4465.png,n02690373_4465.png,1.0,10.685591,4.392693,4.449751
bagnet33,1,194,NaN,clock,bear,0.4,0194_hp_dnn_0.4_bear_10_n02134418_119.png,n02134418_119.png,0.0,-2.0575871,3.8343315,-4.166216
bagnet33,1,195,NaN,clock,bear,1.5,0195_hp_dnn_1.5_bear_10_n02133161_1970.png,n02133161_1970.png,0.0,-2.5796614,3.8062477,-4.5155196
bagnet33,1,196,NaN,clock,bird,1.5,0196_hp_dnn_1.5_bird_10_n02018795_5488.png,n02018795_5488.png,0.0,-1.2053199,2.5760257,-2.6738153
bagnet33,1,197,NaN,clock,bird,0.45,0197_hp_dnn_0.45_bird_10_n01796340_1877.png,n01796340_1877.png,0.0,-0.0935696,3.5223386,-2.5568333
bagnet33,1,198,NaN,clock,airplane,0.4,0198_hp_dnn_0.4_airplane_10_n02690373_4964.png,n02690373_4964.png,0.0,0.46360427,4.223681,-2.6587758
bagnet33,1,199,NaN,clock,bottle,0.4,0199_hp_dnn_0.4_bottle_10_n04591713_1762.png,n04591713_1762.png,0.0,1.06238,2.7981694,-1.2273885
bagnet33,1,200,NaN,chair,car,1,0200_hp_dnn_1_car_10_n03100240_6059.png,n03100240_6059.png,0.0,-2.0438235,4.047951,-4.3075356
bagnet33,1,201,NaN,chair,chair,inf,0201_hp_dnn_inf_chair_10_n03376595_10769.png,n03376595_10769.png,1.0,7.9955683,6.029164,1.390458
bagnet33,1,202,NaN,oven,oven,inf,0202_hp_dnn_inf_oven_10_n04111531_1723.png,n04111531_1723.png,1.0,18.265942,4.7801747,9.535878
bagnet33,1,203,NaN,clock,bicycle,0.45,0203_hp_dnn_0.45_bicycle_10_n02835271_3570.png,n02835271_3570.png,0.0,-0.7876022,4.6081367,-3.8153634
bagnet33,1,204,NaN,clock,knife,0.4,0204_hp_dnn_0.4_knife_10_n03041632_83826.png,n03041632_83826.png,0.0,2.281173,4.072821,-1.2668866
bagnet33,1,205,NaN,clock,keyboard,0.7,0205_hp_dnn_0.7_keyboard_10_n03085013_20673.png,n03085013_20673.png,0.0,-0.9679192,3.2993057,-3.0173836
bagnet33,1,206,NaN,clock,knife,1,0206_hp_dnn_1_knife_10_n03041632_27575.png,n03041632_27575.png,0.0,3.217831,3.6940854,-0.33676276
bagnet33,1,207,NaN,knife,bird,1.5,0207_hp_dnn_1.5_bird_10_n01558993_14305.png,n01558993_14305.png,0.0,-0.78943354,3.5790317,-3.0889716
bagnet33,1,208,NaN,clock,bird,0.4,0208_hp_dnn_0.4_bird_10_n01537544_18123.png,n01537544_18123.png,0.0,0.74847823,4.2843018,-2.5002048
bagnet33,1,209,NaN,bicycle,bicycle,3,0209_hp_dnn_3_bicycle_10_n02835271_4307.png,n02835271_4307.png,1.0,9.078357,5.574519,2.4775875
bagnet33,1,210,NaN,clock,car,0.7,0210_hp_dnn_0.7_car_10_n04285008_6320.png,n04285008_6320.png,0.0,-1.4911746,3.8116748,-3.7496808
bagnet33,1,211,NaN,clock,elephant,0.7,0211_hp_dnn_0.7_elephant_10_n02504458_1327.png,n02504458_1327.png,0.0,-0.4545534,2.6694891,-2.2090316
bagnet33,1,212,NaN,knife,bottle,1,0212_hp_dnn_1_bottle_10_n04560804_1813.png,n04560804_1813.png,0.0,3.0375736,4.1718864,-0.80208033
bagnet33,1,213,NaN,clock,cat,1,0213_hp_dnn_1_cat_10_n02124075_10085.png,n02124075_10085.png,0.0,1.1474189,3.1377487,-1.4073758
bagnet33,1,214,NaN,clock,clock,inf,0214_hp_dnn_inf_clock_10_n03196217_2853.png,n03196217_2853.png,1.0,13.054181,4.7888303,5.8444853
bagnet33,1,215,NaN,clock,boat,1.5,0215_hp_dnn_1.5_boat_10_n04273569_10149.png,n04273569_10149.png,0.0,0.2002733,4.06815,-2.735002
bagnet33,1,216,NaN,chair,chair,3,0216_hp_dnn_3_chair_10_n03376595_17859.png,n03376595_17859.png,1.0,6.39052,3.7192733,1.8888568
bagnet33,1,217,NaN,clock,dog,0.55,0217_hp_dnn_0.55_dog_10_n02101556_7581.png,n02101556_7581.png,0.0,-1.4779719,3.4894333,-3.512486
bagnet33,1,218,NaN,clock,cat,0.4,0218_hp_dnn_0.4_cat_10_n02125311_8522.png,n02125311_8522.png,0.0,0.05095927,4.4883265,-3.1376927
bagnet33,1,219,NaN,clock,clock,0.45,0219_hp_dnn_0.45_clock_10_n04548280_4345.png,n04548280_4345.png,1.0,4.100029,2.63833,1.0335773
bagnet33,1,220,NaN,truck,truck,inf,0220_hp_dnn_inf_truck_10_n04467665_4088.png,n04467665_4088.png,1.0,8.523598,6.317375,1.560035
bagnet33,1,221,NaN,dog,dog,inf,0221_hp_dnn_inf_dog_10_n02102040_1100.png,n02102040_1100.png,1.0,9.428983,2.6989605,4.7588444
bagnet33,1,222,NaN,clock,bicycle,0.55,0222_hp_dnn_0.55_bicycle_10_n03792782_15557.png,n03792782_15557.png,0.0,-0.99628216,3.2194004,-2.9809377
bagnet33,1,223,NaN,car,car,3,0223_hp_dnn_3_car_10_n04285008_12767.png,n04285008_12767.png,1.0,5.8370223,4.835386,0.708264
bagnet33,1,224,NaN,clock,boat,0.4,0224_hp_dnn_0.4_boat_10_n03662601_2438.png,n03662601_2438.png,0.0,-0.5982971,3.5366924,-2.9238794
bagnet33,1,225,NaN,truck,truck,inf,0225_hp_dnn_inf_truck_10_n03417042_6419.png,n03417042_6419.png,1.0,17.074402,11.492233,3.9471893
bagnet33,1,226,NaN,clock,chair,0.45,0226_hp_dnn_0.45_chair_10_n04099969_9891.png,n04099969_9891.png,0.0,2.6489038,3.7166634,-0.75502
bagnet33,1,227,NaN,cat,cat,inf,0227_hp_dnn_inf_cat_10_n02123045_8543.png,n02123045_8543.png,1.0,15.043193,4.402343,7.5242176
bagnet33,1,228,NaN,clock,cat,0.55,0228_hp_dnn_0.55_cat_10_n02123045_7342.png,n02123045_7342.png,0.0,1.2236156,4.022079,-1.9788125
bagnet33,1,229,NaN,clock,bird,0.55,0229_hp_dnn_0.55_bird_10_n02018207_10814.png,n02018207_10814.png,0.0,0.1571905,3.0329342,-2.0334578
bagnet33,1,230,NaN,airplane,airplane,3,0230_hp_dnn_3_airplane_10_n02690373_20033.png,n02690373_20033.png,1.0,10.693991,3.517558,5.0745044
bagnet33,1,231,NaN,airplane,truck,0.55,0231_hp_dnn_0.55_truck_10_n04467665_13645.png,n04467665_13645.png,0.0,-0.23635842,3.461066,-2.6144738
bagnet33,1,232,NaN,airplane,airplane,1.5,0232_hp_dnn_1.5_airplane_10_n02690373_5015.png,n02690373_5015.png,1.0,4.3209763,2.3201187,1.41482
bagnet33,1,233,NaN,clock,chair,1.5,0233_hp_dnn_1.5_chair_10_n03376595_6173.png,n03376595_6173.png,0.0,2.682923,2.8090763,-0.089203805
bagnet33,1,234,NaN,bottle,knife,1.5,0234_hp_dnn_1.5_knife_10_n03041632_91967.png,n03041632_91967.png,0.0,4.0080056,4.790733,-0.55347174
bagnet33,1,235,NaN,elephant,elephant,inf,0235_hp_dnn_inf_elephant_10_n02504458_1271.png,n02504458_1271.png,1.0,35.67705,5.0875998,21.630009
bagnet33,1,236,NaN,clock,cat,0.7,0236_hp_dnn_0.7_cat_10_n02123597_1684.png,n02123597_1684.png,0.0,0.031828683,3.8505614,-2.7002518
bagnet33,1,237,NaN,clock,dog,0.55,0237_hp_dnn_0.55_dog_10_n02091831_3628.png,n02091831_3628.png,0.0,-1.0102026,4.2057004,-3.6882007
bagnet33,1,238,NaN,clock,truck,0.45,0238_hp_dnn_0.45_truck_10_n04467665_64540.png,n04467665_64540.png,0.0,-0.08632751,3.390562,-2.4585323
bagnet33,1,239,NaN,clock,airplane,1,0239_hp_dnn_1_airplane_10_n02690373_3289.png,n02690373_3289.png,0.0,2.9712868,3.096545,-0.08857093
bagnet33,1,240,NaN,boat,boat,3,0240_hp_dnn_3_boat_10_n04273569_16949.png,n04273569_16949.png,1.0,10.084926,4.7224035,3.7918758
bagnet33,1,241,NaN,clock,bicycle,1,0241_hp_dnn_1_bicycle_10_n03792782_15174.png,n03792782_15174.png,0.0,1.1943197,2.7989132,-1.134619
bagnet33,1,242,NaN,bottle,bottle,1.5,0242_hp_dnn_1.5_bottle_10_n03937543_146.png,n03937543_146.png,1.0,3.6364639,2.3727453,0.893584
bagnet33,1,243,NaN,clock,chair,0.45,0243_hp_dnn_0.45_chair_10_n04429376_694.png,n04429376_694.png,0.0,2.7470546,3.4278135,-0.4813693
bagnet33,1,244,NaN,clock,keyboard,0.4,0244_hp_dnn_0.4_keyboard_10_n03085013_19407.png,n03085013_19407.png,0.0,-0.3629083,3.2782333,-2.574676
bagnet33,1,245,NaN,clock,oven,0.45,0245_hp_dnn_0.45_oven_10_n04111531_4955.png,n04111531_4955.png,0.0,-3.1634412,4.323774,-5.2942605
bagnet33,1,246,NaN,clock,dog,1.5,0246_hp_dnn_1.5_dog_10_n02099712_1825.png,n02099712_1825.png,0.0,-0.4247191,3.3750622,-2.6868513
bagnet33,1,247,NaN,clock,bear,0.55,0247_hp_dnn_0.55_bear_10_n02134084_14031.png,n02134084_14031.png,0.0,-2.7124772,3.389553,-4.314787
bagnet33,1,248,NaN,clock,car,0.45,0248_hp_dnn_0.45_car_10_n02814533_70922.png,n02814533_70922.png,0.0,-0.7360465,3.055847,-2.6812737
bagnet33,1,249,NaN,clock,elephant,0.45,0249_hp_dnn_0.45_elephant_10_n02504458_217.png,n02504458_217.png,0.0,-0.7991576,4.1876054,-3.526174
bagnet33,1,250,NaN,car,car,inf,0250_hp_dnn_inf_car_10_n02814533_27824.png,n02814533_27824.png,1.0,10.237456,7.7729087,1.7426984
bagnet33,1,251,NaN,airplane,keyboard,0.7,0251_hp_dnn_0.7_keyboard_10_n03085013_24257.png,n03085013_24257.png,0.0,2.9472327,4.4602356,-1.0698546
bagnet33,1,252,NaN,elephant,elephant,3,0252_hp_dnn_3_elephant_10_n02504013_2269.png,n02504013_2269.png,1.0,6.2182775,3.3614998,2.020047
bagnet33,1,253,NaN,clock,bear,0.45,0253_hp_dnn_0.45_bear_10_n02134418_1798.png,n02134418_1798.png,0.0,-1.4678137,3.4133005,-3.451469
bagnet33,1,254,NaN,clock,dog,0.45,0254_hp_dnn_0.45_dog_10_n02111129_6881.png,n02111129_6881.png,0.0,-1.5324247,4.821088,-4.492612
bagnet33,1,255,NaN,truck,truck,1.5,0255_hp_dnn_1.5_truck_10_n04467665_67315.png,n04467665_67315.png,1.0,4.5371017,4.027488,0.36035118
bagnet33,1,256,NaN,clock,elephant,0.55,0256_hp_dnn_0.55_elephant_10_n02504013_3688.png,n02504013_3688.png,0.0,-0.85750496,4.224384,-3.593438
bagnet33,1,257,NaN,chair,truck,1.5,0257_hp_dnn_1.5_truck_10_n04467665_38886.png,n04467665_38886.png,0.0,2.8402185,3.1850674,-0.24384499
bagnet33,1,258,NaN,bottle,bottle,inf,0258_hp_dnn_inf_bottle_10_n04557648_4250.png,n04557648_4250.png,1.0,20.587267,3.4379866,12.126372
bagnet33,1,259,NaN,clock,chair,0.45,0259_hp_dnn_0.45_chair_10_n04099969_4053.png,n04099969_4053.png,0.0,2.2632527,3.055339,-0.56008965
bagnet33,1,260,NaN,clock,knife,0.7,0260_hp_dnn_0.7_knife_10_n03041632_5727.png,n03041632_5727.png,0.0,2.5062888,3.5489836,-0.7372966
bagnet33,1,261,NaN,clock,dog,1,0261_hp_dnn_1_dog_10_n02091134_4525.png,n02091134_4525.png,0.0,-1.3044417,4.1497703,-3.8567104
bagnet33,1,262,NaN,keyboard,keyboard,inf,0262_hp_dnn_inf_keyboard_10_n04505470_4685.png,n04505470_4685.png,1.0,38.34291,12.520671,18.25908
bagnet33,1,263,NaN,clock,boat,0.4,0263_hp_dnn_0.4_boat_10_n02951358_6637.png,n02951358_6637.png,0.0,-0.6556181,4.169811,-3.4120936
bagnet33,1,264,NaN,chair,dog,1.5,0264_hp_dnn_1.5_dog_10_n02093256_11232.png,n02093256_11232.png,0.0,-0.14465544,5.1103325,-3.7158375
bagnet33,1,265,NaN,elephant,elephant,inf,0265_hp_dnn_inf_elephant_10_n02504013_816.png,n02504013_816.png,1.0,8.469727,2.698598,4.0808043
bagnet33,1,266,NaN,clock,bear,1.5,0266_hp_dnn_1.5_bear_10_n02134084_1484.png,n02134084_1484.png,0.0,-1.6342622,3.085451,-3.3373413
bagnet33,1,267,NaN,clock,boat,0.45,0267_hp_dnn_0.45_boat_10_n04273569_15859.png,n04273569_15859.png,0.0,0.39757475,4.075965,-2.6010149
bagnet33,1,268,NaN,chair,bicycle,3,0268_hp_dnn_3_bicycle_10_n02835271_7311.png,n02835271_7311.png,0.0,3.451982,3.5190754,-0.04744218
bagnet33,1,269,NaN,clock,cat,1,0269_hp_dnn_1_cat_10_n02123045_2339.png,n02123045_2339.png,0.0,-0.3785785,4.0191674,-3.1096761
bagnet33,1,270,NaN,clock,elephant,0.45,0270_hp_dnn_0.45_elephant_10_n02504458_4448.png,n02504458_4448.png,0.0,-0.23197162,4.4285026,-3.295453
bagnet33,1,271,NaN,car,car,1,0271_hp_dnn_1_car_10_n03100240_9955.png,n03100240_9955.png,1.0,3.0056565,2.7560902,0.17647004
bagnet33,1,272,NaN,clock,truck,0.55,0272_hp_dnn_0.55_truck_10_n03417042_7310.png,n03417042_7310.png,0.0,-1.1875916,3.5894773,-3.377898
bagnet33,1,273,NaN,clock,chair,0.55,0273_hp_dnn_0.55_chair_10_n04099969_20421.png,n04099969_20421.png,0.0,2.8150806,4.8761363,-1.4573865
bagnet33,1,274,NaN,clock,boat,0.45,0274_hp_dnn_0.45_boat_10_n04612504_4581.png,n04612504_4581.png,0.0,0.22582956,3.7651856,-2.5027027
bagnet33,1,275,NaN,clock,bear,1,0275_hp_dnn_1_bear_10_n02134418_4515.png,n02134418_4515.png,0.0,-1.0191718,4.2815604,-3.7481837
bagnet33,1,276,NaN,clock,truck,0.7,0276_hp_dnn_0.7_truck_10_n03796401_1082.png,n03796401_1082.png,0.0,-0.7744401,4.2872343,-3.5791445
bagnet33,1,277,NaN,clock,bicycle,1,0277_hp_dnn_1_bicycle_10_n03792782_8176.png,n03792782_8176.png,0.0,-0.006850362,4.616822,-3.26943
bagnet33,1,278,NaN,clock,oven,0.4,0278_hp_dnn_0.4_oven_10_n04111531_5463.png,n04111531_5463.png,0.0,-3.5265818,3.5631716,-5.0132127
bagnet33,1,279,NaN,chair,elephant,1.5,0279_hp_dnn_1.5_elephant_10_n02504013_4166.png,n02504013_4166.png,0.0,0.5643786,4.494929,-2.7793186
bagnet33,1,280,NaN,clock,airplane,0.7,0280_hp_dnn_0.7_airplane_10_n02690373_18295.png,n02690373_18295.png,0.0,2.648703,3.0263195,-0.26701513
bagnet33,1,281,NaN,clock,cat,0.45,0281_hp_dnn_0.45_cat_10_n02124075_1460.png,n02124075_1460.png,0.0,0.3980517,4.475345,-2.883082
bagnet33,1,282,NaN,clock,bird,0.55,0282_hp_dnn_0.55_bird_10_n02028035_17759.png,n02028035_17759.png,0.0,-0.46501616,3.9977407,-3.1556458
bagnet33,1,283,NaN,chair,chair,3,0283_hp_dnn_3_chair_10_n02791124_6654.png,n02791124_6654.png,1.0,5.8409986,3.3144505,1.7865393
bagnet33,1,284,NaN,airplane,truck,0.7,0284_hp_dnn_0.7_truck_10_n04467665_22974.png,n04467665_22974.png,0.0,-1.2622142,3.8055944,-3.583482
bagnet33,1,285,NaN,clock,clock,0.55,0285_hp_dnn_0.55_clock_10_n03196217_2983.png,n03196217_2983.png,1.0,2.8235931,2.3614812,0.3267625
bagnet33,1,286,NaN,oven,knife,inf,0286_hp_dnn_inf_knife_10_n03041632_23968.png,n03041632_23968.png,0.0,7.6362514,8.952663,-0.93084383
bagnet33,1,287,NaN,clock,keyboard,0.4,0287_hp_dnn_0.4_keyboard_10_n03085013_23519.png,n03085013_23519.png,0.0,0.4074257,4.1632504,-2.6557693
bagnet33,1,288,NaN,clock,bottle,1.5,0288_hp_dnn_1.5_bottle_10_n04591713_14895.png,n04591713_14895.png,0.0,4.4559674,4.5230613,-0.04744252
bagnet33,1,289,NaN,clock,elephant,1,0289_hp_dnn_1_elephant_10_n02504013_3969.png,n02504013_3969.png,0.0,0.35939732,3.4715567,-2.200629
bagnet33,1,290,NaN,chair,bear,3,0290_hp_dnn_3_bear_10_n02134418_3723.png,n02134418_3723.png,0.0,-0.8563079,3.0097013,-2.7336814
bagnet33,1,291,NaN,clock,keyboard,0.45,0291_hp_dnn_0.45_keyboard_10_n04505470_709.png,n04505470_709.png,0.0,0.10430199,4.0051103,-2.7582881
bagnet33,1,292,NaN,clock,knife,1.5,0292_hp_dnn_1.5_knife_10_n03041632_379.png,n03041632_379.png,0.0,3.4646716,3.5269387,-0.044029463
bagnet33,1,293,NaN,knife,oven,3,0293_hp_dnn_3_oven_10_n04111531_13128.png,n04111531_13128.png,0.0,-2.3237057,1.92361,-3.0033057
bagnet33,1,294,NaN,clock,elephant,0.55,0294_hp_dnn_0.55_elephant_10_n02504013_933.png,n02504013_933.png,0.0,1.20837,3.629177,-1.7117691
bagnet33,1,295,NaN,airplane,airplane,inf,0295_hp_dnn_inf_airplane_10_n02690373_17603.png,n02690373_17603.png,1.0,25.078905,8.871471,11.460386
bagnet33,1,296,NaN,clock,airplane,0.45,0296_hp_dnn_0.45_airplane_10_n02690373_5177.png,n02690373_5177.png,0.0,0.86694753,4.1163735,-2.297691
bagnet33,1,297,NaN,chair,chair,1.5,0297_hp_dnn_1.5_chair_10_n04429376_28121.png,n04429376_28121.png,1.0,6.038596,4.4097776,1.1517487
bagnet33,1,298,NaN,clock,truck,0.55,0298_hp_dnn_0.55_truck_10_n03417042_6517.png,n03417042_6517.png,0.0,-1.59514,4.0525436,-3.9935155
bagnet33,1,299,NaN,airplane,chair,0.55,0299_hp_dnn_0.55_chair_10_n03376595_5503.png,n03376595_5503.png,0.0,0.90905005,3.2041557,-1.6228849
bagnet33,1,300,NaN,knife,clock,1.5,0300_hp_dnn_1.5_clock_10_n03196217_7918.png,n03196217_7918.png,0.0,4.333904,5.4730005,-0.805463
bagnet33,1,301,NaN,chair,car,1,0301_hp_dnn_1_car_10_n04285008_7751.png,n04285008_7751.png,0.0,1.2773391,3.1744664,-1.3414716
bagnet33,1,302,NaN,clock,clock,0.4,0302_hp_dnn_0.4_clock_10_n03196217_2628.png,n03196217_2628.png,1.0,3.5523074,1.9018642,1.1670396
bagnet33,1,303,NaN,clock,bird,0.55,0303_hp_dnn_0.55_bird_10_n01833805_6395.png,n01833805_6395.png,0.0,0.0590931,2.7575824,-1.9081202
bagnet33,1,304,NaN,clock,boat,0.4,0304_hp_dnn_0.4_boat_10_n03344393_6015.png,n03344393_6015.png,0.0,-0.83038026,3.678757,-3.1884415
bagnet33,1,305,NaN,elephant,elephant,1.5,0305_hp_dnn_1.5_elephant_10_n02504013_2739.png,n02504013_2739.png,1.0,3.990806,2.6945374,0.9166004
bagnet33,1,306,NaN,clock,keyboard,0.45,0306_hp_dnn_0.45_keyboard_10_n03085013_23316.png,n03085013_23316.png,0.0,0.34077206,3.9753618,-2.570043
bagnet33,1,307,NaN,clock,airplane,1,0307_hp_dnn_1_airplane_10_n02690373_20350.png,n02690373_20350.png,0.0,2.0084229,2.9723608,-0.6816071
bagnet33,1,308,NaN,clock,clock,3,0308_hp_dnn_3_clock_10_n02708093_3484.png,n02708093_3484.png,1.0,7.749326,2.847515,3.466104
bagnet33,1,309,NaN,clock,bicycle,0.55,0309_hp_dnn_0.55_bicycle_10_n03792782_10185.png,n03792782_10185.png,0.0,-0.6011102,4.675159,-3.7308855
bagnet33,1,310,NaN,truck,knife,3,0310_hp_dnn_3_knife_10_n03041632_42196.png,n03041632_42196.png,0.0,5.406604,7.6421986,-1.5808042
bagnet33,1,311,NaN,bird,bird,inf,0311_hp_dnn_inf_bird_10_n01855672_6132.png,n01855672_6132.png,1.0,7.6702347,5.17718,1.762856
bagnet33,1,312,NaN,clock,bottle,0.4,0312_hp_dnn_0.4_bottle_10_n03983396_3047.png,n03983396_3047.png,0.0,1.6453269,3.825907,-1.541903
bagnet33,1,313,NaN,clock,bottle,0.4,0313_hp_dnn_0.4_bottle_10_n04557648_2093.png,n04557648_2093.png,0.0,1.9796084,4.5446396,-1.8137509
bagnet33,1,314,NaN,knife,keyboard,0.55,0314_hp_dnn_0.55_keyboard_10_n04505470_7686.png,n04505470_7686.png,0.0,-1.6653762,7.363966,-6.3847094
bagnet33,1,315,NaN,clock,bear,1.5,0315_hp_dnn_1.5_bear_10_n02132136_5051.png,n02132136_5051.png,0.0,-0.9790419,3.3817794,-3.0835664
bagnet33,1,316,NaN,clock,bear,1,0316_hp_dnn_1_bear_10_n02134418_24559.png,n02134418_24559.png,0.0,-1.2321959,2.5020583,-2.6405165
bagnet33,1,317,NaN,clock,oven,0.55,0317_hp_dnn_0.55_oven_10_n04111531_3702.png,n04111531_3702.png,0.0,-3.1859162,4.3413596,-5.322588
bagnet33,1,318,NaN,clock,bicycle,1,0318_hp_dnn_1_bicycle_10_n02835271_24230.png,n02835271_24230.png,0.0,-0.76251924,4.6535573,-3.8297446
bagnet33,1,319,NaN,keyboard,keyboard,1.5,0319_hp_dnn_1.5_keyboard_10_n03085013_2272.png,n03085013_2272.png,1.0,6.765538,4.2991056,1.7440312
bagnet33,1,320,NaN,chair,keyboard,0.55,0320_hp_dnn_0.55_keyboard_10_n03085013_23201.png,n03085013_23201.png,0.0,-0.315606,3.5611784,-2.7413006
bagnet33,1,321,NaN,clock,boat,1.5,0321_hp_dnn_1.5_boat_10_n04273569_9803.png,n04273569_9803.png,0.0,0.36515465,4.2256584,-2.7297883
bagnet33,1,322,NaN,clock,boat,0.4,0322_hp_dnn_0.4_boat_10_n04612504_29813.png,n04612504_29813.png,0.0,-0.32161075,3.126647,-2.4382865
bagnet33,1,323,NaN,clock,clock,1,0323_hp_dnn_1_clock_10_n02708093_1291.png,n02708093_1291.png,1.0,4.553604,4.388577,0.11669181
bagnet33,1,324,NaN,clock,oven,0.4,0324_hp_dnn_0.4_oven_10_n04111531_1794.png,n04111531_1794.png,0.0,-2.4569597,3.3633308,-4.115567
bagnet33,1,325,NaN,clock,bear,0.4,0325_hp_dnn_0.4_bear_10_n02132136_5612.png,n02132136_5612.png,0.0,-2.3419209,4.276901,-4.680214
bagnet33,1,326,NaN,clock,boat,1.5,0326_hp_dnn_1.5_boat_10_n04273569_3401.png,n04273569_3401.png,0.0,2.2663283,4.5346713,-1.6039608
bagnet33,1,327,NaN,chair,cat,3,0327_hp_dnn_3_cat_10_n02125311_16544.png,n02125311_16544.png,0.0,0.37600145,2.4728813,-1.4827181
bagnet33,1,328,NaN,clock,clock,1.5,0328_hp_dnn_1.5_clock_10_n03196217_10717.png,n03196217_10717.png,1.0,3.9315083,3.1532333,0.55032355
bagnet33,1,329,NaN,knife,bear,3,0329_hp_dnn_3_bear_10_n02134418_47.png,n02134418_47.png,0.0,-0.4262172,2.4873962,-2.0602357
bagnet33,1,330,NaN,clock,bottle,3,0330_hp_dnn_3_bottle_10_n04591713_4380.png,n04591713_4380.png,0.0,4.615902,4.6562085,-0.028501049
bagnet33,1,331,NaN,clock,chair,0.55,0331_hp_dnn_0.55_chair_10_n04429376_8710.png,n04429376_8710.png,0.0,2.4035254,3.7559948,-0.9563403
bagnet33,1,332,NaN,bicycle,bicycle,3,0332_hp_dnn_3_bicycle_10_n02835271_781.png,n02835271_781.png,1.0,13.879228,4.7291875,6.470055
bagnet33,1,333,NaN,clock,bear,1.5,0333_hp_dnn_1.5_bear_10_n02134418_875.png,n02134418_875.png,0.0,-0.2445131,3.8332102,-2.883386
bagnet33,1,334,NaN,clock,dog,0.55,0334_hp_dnn_0.55_dog_10_n02094433_10343.png,n02094433_10343.png,0.0,-1.7258003,4.982905,-4.743771
bagnet33,1,335,NaN,airplane,airplane,3,0335_hp_dnn_3_airplane_10_n02690373_1053.png,n02690373_1053.png,1.0,14.850624,4.782738,7.119071
bagnet33,1,336,NaN,airplane,airplane,3,0336_hp_dnn_3_airplane_10_n02690373_18848.png,n02690373_18848.png,1.0,5.314182,3.6506054,1.1763262
bagnet33,1,337,NaN,clock,keyboard,3,0337_hp_dnn_3_keyboard_10_n03085013_18741.png,n03085013_18741.png,0.0,2.431913,5.3264327,-2.0467346
bagnet33,1,338,NaN,bear,bear,inf,0338_hp_dnn_inf_bear_10_n02134418_3152.png,n02134418_3152.png,1.0,15.591805,6.960261,6.1034236
bagnet33,1,339,NaN,bottle,bicycle,1.5,0339_hp_dnn_1.5_bicycle_10_n03792782_14557.png,n03792782_14557.png,0.0,0.9077632,1.7887299,-0.62293756
bagnet33,1,340,NaN,clock,bird,0.7,0340_hp_dnn_0.7_bird_10_n01796340_5262.png,n01796340_5262.png,0.0,-0.89807886,2.9995537,-2.7560425
bagnet33,1,341,NaN,knife,bicycle,1,0341_hp_dnn_1_bicycle_10_n03792782_4559.png,n03792782_4559.png,0.0,-1.4009122,4.185757,-3.950372
bagnet33,1,342,NaN,clock,bear,0.45,0342_hp_dnn_0.45_bear_10_n02134084_3177.png,n02134084_3177.png,0.0,-0.7072569,3.3918743,-2.8985236
bagnet33,1,343,NaN,clock,elephant,0.4,0343_hp_dnn_0.4_elephant_10_n02504458_5008.png,n02504458_5008.png,0.0,-1.1895632,3.1382248,-3.0602083
bagnet33,1,344,NaN,clock,oven,3,0344_hp_dnn_3_oven_10_n04111531_7955.png,n04111531_7955.png,0.0,3.0557358,5.172455,-1.4967464
bagnet33,1,345,NaN,bicycle,bicycle,inf,0345_hp_dnn_inf_bicycle_10_n02835271_13793.png,n02835271_13793.png,1.0,9.537688,3.7190955,4.1143665
bagnet33,1,346,NaN,clock,keyboard,0.45,0346_hp_dnn_0.45_keyboard_10_n03085013_14810.png,n03085013_14810.png,0.0,0.84448195,5.1127157,-3.0180972
bagnet33,1,347,NaN,clock,car,0.7,0347_hp_dnn_0.7_car_10_n02814533_39933.png,n02814533_39933.png,0.0,-2.4341667,4.426289,-4.8510747
bagnet33,1,348,NaN,knife,bird,1,0348_hp_dnn_1_bird_10_n02027492_4897.png,n02027492_4897.png,0.0,0.08940431,2.4167104,-1.645654
bagnet33,1,349,NaN,chair,keyboard,3,0349_hp_dnn_3_keyboard_10_n03085013_23776.png,n03085013_23776.png,0.0,2.890308,5.2094793,-1.6399019
bagnet33,1,350,NaN,car,car,1.5,0350_hp_dnn_1.5_car_10_n02814533_31493.png,n02814533_31493.png,1.0,5.5007806,4.491084,0.71396327
bagnet33,1,351,NaN,clock,boat,1.5,0351_hp_dnn_1.5_boat_10_n03344393_7631.png,n03344393_7631.png,0.0,1.709605,5.210695,-2.4756444
bagnet33,1,352,NaN,clock,bicycle,0.4,0352_hp_dnn_0.4_bicycle_10_n02835271_1261.png,n02835271_1261.png,0.0,-0.7959753,4.712755,-3.8952608
bagnet33,1,353,NaN,keyboard,clock,1,0353_hp_dnn_1_clock_10_n03196217_1850.png,n03196217_1850.png,0.0,3.2428868,4.1046734,-0.6093752
bagnet33,1,354,NaN,bear,bear,inf,0354_hp_dnn_inf_bear_10_n02132136_22387.png,n02132136_22387.png,1.0,13.470542,9.589056,2.744625
bagnet33,1,355,NaN,clock,airplane,1.5,0355_hp_dnn_1.5_airplane_10_n02690373_2316.png,n02690373_2316.png,0.0,1.2962294,3.6300647,-1.6502708
bagnet33,1,356,NaN,clock,cat,0.7,0356_hp_dnn_0.7_cat_10_n02123597_3634.png,n02123597_3634.png,0.0,0.44044903,3.6643336,-2.2796307
bagnet33,1,357,NaN,clock,bird,0.45,0357_hp_dnn_0.45_bird_10_n02018207_4151.png,n02018207_4151.png,0.0,0.6706652,3.2419217,-1.8181529
bagnet33,1,358,NaN,clock,knife,0.7,0358_hp_dnn_0.7_knife_10_n03041632_94155.png,n03041632_94155.png,0.0,2.0100915,3.8487957,-1.3001602
bagnet33,1,359,NaN,clock,bottle,0.45,0359_hp_dnn_0.45_bottle_10_n04560804_7509.png,n04560804_7509.png,0.0,1.6880845,3.6774518,-1.4066951
bagnet33,1,360,NaN,clock,cat,0.4,0360_hp_dnn_0.4_cat_10_n02123045_12748.png,n02123045_12748.png,0.0,0.5317494,4.2360015,-2.6193018
bagnet33,1,361,NaN,clock,elephant,0.7,0361_hp_dnn_0.7_elephant_10_n02504013_6.png,n02504013_6.png,0.0,-0.5797993,4.5540876,-3.6302063
bagnet33,1,362,NaN,clock,elephant,0.4,0362_hp_dnn_0.4_elephant_10_n02504013_1492.png,n02504013_1492.png,0.0,-0.87134796,4.1959214,-3.5831006
bagnet33,1,363,NaN,clock,dog,0.4,0363_hp_dnn_0.4_dog_10_n02107142_27162.png,n02107142_27162.png,0.0,-1.28296,4.447939,-4.0523577
bagnet33,1,364,NaN,clock,bear,0.7,0364_hp_dnn_0.7_bear_10_n02134418_962.png,n02134418_962.png,0.0,-0.17081723,2.7933328,-2.0959706
bagnet33,1,365,NaN,clock,truck,0.7,0365_hp_dnn_0.7_truck_10_n03417042_9693.png,n03417042_9693.png,0.0,1.1559588,4.2473025,-2.1859102
bagnet33,1,366,NaN,clock,oven,1,0366_hp_dnn_1_oven_10_n04111531_2116.png,n04111531_2116.png,0.0,-1.9549047,3.2441795,-3.676308
bagnet33,1,367,NaN,keyboard,keyboard,inf,0367_hp_dnn_inf_keyboard_10_n03085013_20460.png,n03085013_20460.png,1.0,7.639108,3.7412555,2.7561982
bagnet33,1,368,NaN,clock,bird,0.45,0368_hp_dnn_0.45_bird_10_n01796340_6191.png,n01796340_6191.png,0.0,-0.27522454,3.527314,-2.6888008
bagnet33,1,369,NaN,chair,oven,1.5,0369_hp_dnn_1.5_oven_10_n04111531_8046.png,n04111531_8046.png,0.0,-2.918976,5.074779,-5.6524386
bagnet33,1,370,NaN,clock,boat,0.45,0370_hp_dnn_0.45_boat_10_n03344393_11788.png,n03344393_11788.png,0.0,0.8543275,2.7001894,-1.3052214
bagnet33,1,371,NaN,cat,cat,inf,0371_hp_dnn_inf_cat_10_n02123394_2765.png,n02123394_2765.png,1.0,11.224235,2.8124657,5.948019
bagnet33,1,372,NaN,clock,bicycle,0.4,0372_hp_dnn_0.4_bicycle_10_n03792782_26834.png,n03792782_26834.png,0.0,-0.001681,5.451205,-3.8557725
bagnet33,1,373,NaN,clock,cat,1.5,0373_hp_dnn_1.5_cat_10_n02125311_37036.png,n02125311_37036.png,0.0,-0.34669897,2.8189347,-2.238441
bagnet33,1,374,NaN,clock,bicycle,0.7,0374_hp_dnn_0.7_bicycle_10_n03792782_4067.png,n03792782_4067.png,0.0,0.70028216,2.5688438,-1.3212727
bagnet33,1,375,NaN,elephant,bear,inf,0375_hp_dnn_inf_bear_10_n02134418_3886.png,n02134418_3886.png,0.0,3.923038,7.572708,-2.5807066
bagnet33,1,376,NaN,clock,dog,0.7,0376_hp_dnn_0.7_dog_10_n02110185_9014.png,n02110185_9014.png,0.0,-1.0688355,4.4925423,-3.9324877
bagnet33,1,377,NaN,knife,bear,inf,0377_hp_dnn_inf_bear_10_n02134084_14888.png,n02134084_14888.png,0.0,0.001157105,4.5939074,-3.2475648
bagnet33,1,378,NaN,knife,truck,1.5,0378_hp_dnn_1.5_truck_10_n03417042_5249.png,n03417042_5249.png,0.0,-0.44630003,4.314816,-3.3666174
bagnet33,1,379,NaN,bottle,oven,1,0379_hp_dnn_1_oven_10_n04111531_10711.png,n04111531_10711.png,0.0,-2.8962312,2.2992473,-3.673758
bagnet33,1,380,NaN,clock,car,1.5,0380_hp_dnn_1.5_car_10_n04285008_15271.png,n04285008_15271.png,0.0,-0.56315476,3.799743,-3.0850346
bagnet33,1,381,NaN,clock,cat,0.45,0381_hp_dnn_0.45_cat_10_n02123597_12232.png,n02123597_12232.png,0.0,0.15301363,3.7824128,-2.5663726
bagnet33,1,382,NaN,chair,clock,3,0382_hp_dnn_3_clock_10_n04548280_8083.png,n04548280_8083.png,0.0,4.794693,7.1126413,-1.639037
bagnet33,1,383,NaN,clock,chair,0.45,0383_hp_dnn_0.45_chair_10_n04099969_8946.png,n04099969_8946.png,0.0,1.832033,3.6685555,-1.2986175
bagnet33,1,384,NaN,clock,keyboard,0.7,0384_hp_dnn_0.7_keyboard_10_n03085013_21973.png,n03085013_21973.png,0.0,1.0311831,2.3736322,-0.9492549
bagnet33,1,385,NaN,clock,bottle,0.7,0385_hp_dnn_0.7_bottle_10_n04560804_15225.png,n04560804_15225.png,0.0,1.5722803,4.1940427,-1.8538659
bagnet33,1,386,NaN,cat,cat,inf,0386_hp_dnn_inf_cat_10_n02123045_10395.png,n02123045_10395.png,1.0,26.638243,7.8517838,13.284033
bagnet33,1,387,NaN,clock,truck,0.45,0387_hp_dnn_0.45_truck_10_n03417042_4188.png,n03417042_4188.png,0.0,0.031004809,2.58971,-1.8092778
bagnet33,1,388,NaN,keyboard,keyboard,1.5,0388_hp_dnn_1.5_keyboard_10_n03085013_21615.png,n03085013_21615.png,1.0,11.237325,3.5522683,5.434156
bagnet33,1,389,NaN,knife,knife,inf,0389_hp_dnn_inf_knife_10_n03041632_26989.png,n03041632_26989.png,1.0,8.664675,4.032847,3.275197
bagnet33,1,390,NaN,knife,airplane,0.55,0390_hp_dnn_0.55_airplane_10_n02690373_16986.png,n02690373_16986.png,0.0,1.1958497,3.2671223,-1.4646109
bagnet33,1,391,NaN,bicycle,bicycle,inf,0391_hp_dnn_inf_bicycle_10_n02835271_9067.png,n02835271_9067.png,1.0,24.01269,4.2184505,13.996641
bagnet33,1,392,NaN,clock,dog,0.45,0392_hp_dnn_0.45_dog_10_n02106382_9188.png,n02106382_9188.png,0.0,-1.6428391,5.711483,-5.200291
bagnet33,1,393,NaN,boat,boat,inf,0393_hp_dnn_inf_boat_10_n02951358_3205.png,n02951358_3205.png,1.0,13.181737,4.911514,5.8479314
bagnet33,1,394,NaN,airplane,knife,0.4,0394_hp_dnn_0.4_knife_10_n03041632_45270.png,n03041632_45270.png,0.0,1.4045495,5.305603,-2.7584615
bagnet33,1,395,NaN,car,car,inf,0395_hp_dnn_inf_car_10_n03100240_6376.png,n03100240_6376.png,1.0,11.666911,7.2660995,3.1118438
bagnet33,1,396,NaN,clock,truck,1,0396_hp_dnn_1_truck_10_n03796401_430.png,n03796401_430.png,0.0,0.8672802,3.097522,-1.5770191
bagnet33,1,397,NaN,clock,knife,0.7,0397_hp_dnn_0.7_knife_10_n03041632_24181.png,n03041632_24181.png,0.0,2.5943966,5.361737,-1.956805
bagnet33,1,398,NaN,clock,bear,1,0398_hp_dnn_1_bear_10_n02134084_16190.png,n02134084_16190.png,0.0,-2.176862,4.3664765,-4.626839
bagnet33,1,399,NaN,clock,bear,0.55,0399_hp_dnn_0.55_bear_10_n02132136_7253.png,n02132136_7253.png,0.0,-2.4979267,4.0243287,-4.6119313
bagnet33,1,400,NaN,clock,boat,1,0400_hp_dnn_1_boat_10_n03662601_34676.png,n03662601_34676.png,0.0,-1.9941677,5.3246865,-5.1752114
bagnet33,1,401,NaN,clock,knife,0.55,0401_hp_dnn_0.55_knife_10_n03041632_81471.png,n03041632_81471.png,0.0,2.3327978,3.915328,-1.1190178
bagnet33,1,402,NaN,clock,cat,0.7,0402_hp_dnn_0.7_cat_10_n02123597_3822.png,n02123597_3822.png,0.0,-0.009082039,4.386575,-3.108199
bagnet33,1,403,NaN,keyboard,keyboard,1.5,0403_hp_dnn_1.5_keyboard_10_n03085013_4823.png,n03085013_4823.png,1.0,14.161222,3.454921,7.5704985
bagnet33,1,404,NaN,clock,dog,0.4,0404_hp_dnn_0.4_dog_10_n02108551_8385.png,n02108551_8385.png,0.0,-1.3292189,4.0300527,-3.7895772
bagnet33,1,405,NaN,clock,cat,0.7,0405_hp_dnn_0.7_cat_10_n02124075_8732.png,n02124075_8732.png,0.0,0.53424484,5.033879,-3.1817217
bagnet33,1,406,NaN,knife,dog,3,0406_hp_dnn_3_dog_10_n02093428_17625.png,n02093428_17625.png,0.0,-0.35749418,3.8737612,-2.9919496
bagnet33,1,407,NaN,chair,chair,inf,0407_hp_dnn_inf_chair_10_n02791124_6999.png,n02791124_6999.png,1.0,13.16173,9.0882845,2.8803608
bagnet33,1,408,NaN,knife,bird,3,0408_hp_dnn_3_bird_10_n02028035_521.png,n02028035_521.png,0.0,0.7737706,3.6822815,-2.0566278
bagnet33,1,409,NaN,clock,truck,0.4,0409_hp_dnn_0.4_truck_10_n03417042_750.png,n03417042_750.png,0.0,-1.7989118,3.3488903,-3.6400461
bagnet33,1,410,NaN,airplane,airplane,inf,0410_hp_dnn_inf_airplane_10_n02690373_5779.png,n02690373_5779.png,1.0,22.454882,6.123889,11.547756
bagnet33,1,411,NaN,knife,cat,1.5,0411_hp_dnn_1.5_cat_10_n02123045_7154.png,n02123045_7154.png,0.0,0.34291825,2.2585921,-1.354586
bagnet33,1,412,NaN,clock,bottle,1.5,0412_hp_dnn_1.5_bottle_10_n04591713_6958.png,n04591713_6958.png,0.0,3.2050283,4.0467973,-0.59522057
bagnet33,1,413,NaN,chair,bird,1.5,0413_hp_dnn_1.5_bird_10_n01818515_42621.png,n01818515_42621.png,0.0,-2.7591095,4.050555,-4.8151603
bagnet33,1,414,NaN,truck,truck,inf,0414_hp_dnn_inf_truck_10_n03796401_1330.png,n03796401_1330.png,1.0,7.1634445,5.398466,1.2480283
bagnet33,1,415,NaN,knife,bird,1.5,0415_hp_dnn_1.5_bird_10_n01843065_6365.png,n01843065_6365.png,0.0,-1.5980847,3.3671546,-3.5109546
bagnet33,1,416,NaN,bottle,bottle,1.5,0416_hp_dnn_1.5_bottle_10_n03983396_11898.png,n03983396_11898.png,1.0,4.7689047,3.5109663,0.8894968
bagnet33,1,417,NaN,bear,bird,3,0417_hp_dnn_3_bird_10_n01530575_3831.png,n01530575_3831.png,0.0,1.6767195,2.1632779,-0.34404868
bagnet33,1,418,NaN,clock,bottle,0.4,0418_hp_dnn_0.4_bottle_10_n03983396_8837.png,n03983396_8837.png,0.0,2.0953429,3.2928636,-0.84677505
bagnet33,1,419,NaN,chair,car,0.7,0419_hp_dnn_0.7_car_10_n02814533_90798.png,n02814533_90798.png,0.0,-0.0036152203,3.1841142,-2.254065
bagnet33,1,420,NaN,knife,bird,3,0420_hp_dnn_3_bird_10_n01819313_3440.png,n01819313_3440.png,0.0,-1.7242192,3.8382678,-3.9332724
bagnet33,1,421,NaN,clock,dog,0.55,0421_hp_dnn_0.55_dog_10_n02090721_4433.png,n02090721_4433.png,0.0,-1.2191726,2.7225838,-2.7872427
bagnet33,1,422,NaN,elephant,elephant,3,0422_hp_dnn_3_elephant_10_n02504013_9566.png,n02504013_9566.png,1.0,11.212303,2.6254313,6.0718355
bagnet33,1,423,NaN,elephant,dog,1.5,0423_hp_dnn_1.5_dog_10_n02105251_6599.png,n02105251_6599.png,0.0,0.7539031,5.0612803,-3.045776
bagnet33,1,424,NaN,airplane,chair,0.7,0424_hp_dnn_0.7_chair_10_n02791124_5759.png,n02791124_5759.png,0.0,2.8024068,3.6014938,-0.5650399
bagnet33,1,425,NaN,elephant,elephant,inf,0425_hp_dnn_inf_elephant_10_n02504458_150.png,n02504458_150.png,1.0,19.027494,2.9131007,11.394597
bagnet33,1,426,NaN,clock,clock,0.45,0426_hp_dnn_0.45_clock_10_n04548280_10040.png,n04548280_10040.png,1.0,8.25051,3.6777453,3.233433
bagnet33,1,427,NaN,clock,elephant,0.7,0427_hp_dnn_0.7_elephant_10_n02504458_155.png,n02504458_155.png,0.0,-0.989761,4.082378,-3.5865438
bagnet33,1,428,NaN,clock,knife,1,0428_hp_dnn_1_knife_10_n03041632_48062.png,n03041632_48062.png,0.0,2.6456923,3.6093094,-0.6813802
bagnet33,1,429,NaN,airplane,truck,1.5,0429_hp_dnn_1.5_truck_10_n04467665_40361.png,n04467665_40361.png,0.0,3.5113168,6.069195,-1.8086929
bagnet33,1,430,NaN,clock,bird,0.45,0430_hp_dnn_0.45_bird_10_n01614925_7608.png,n01614925_7608.png,0.0,0.40150353,4.5364337,-2.9238372
bagnet33,1,431,NaN,clock,bear,0.45,0431_hp_dnn_0.45_bear_10_n02133161_2749.png,n02133161_2749.png,0.0,-1.8146986,3.8397496,-3.9982986
bagnet33,1,432,NaN,airplane,boat,0.55,0432_hp_dnn_0.55_boat_10_n04612504_654.png,n04612504_654.png,0.0,2.3982804,2.9574637,-0.39540234
bagnet33,1,433,NaN,bottle,bottle,1,0433_hp_dnn_1_bottle_10_n04579145_287.png,n04579145_287.png,1.0,4.326789,2.5406642,1.2629809
bagnet33,1,434,NaN,elephant,bear,3,0434_hp_dnn_3_bear_10_n02133161_1423.png,n02133161_1423.png,0.0,-0.46035653,1.3983042,-1.3142716
bagnet33,1,435,NaN,clock,bicycle,0.7,0435_hp_dnn_0.7_bicycle_10_n02835271_4656.png,n02835271_4656.png,0.0,-0.25445044,3.4832885,-2.6429808
bagnet33,1,436,NaN,clock,clock,0.7,0436_hp_dnn_0.7_clock_10_n02708093_3688.png,n02708093_3688.png,1.0,2.6489213,1.9735379,0.47756815
bagnet33,1,437,NaN,airplane,airplane,inf,0437_hp_dnn_inf_airplane_10_n02690373_10278.png,n02690373_10278.png,1.0,6.9190445,3.8792787,2.149439
bagnet33,1,438,NaN,clock,car,0.4,0438_hp_dnn_0.4_car_10_n04285008_11133.png,n04285008_11133.png,0.0,-2.0695264,4.1029143,-4.3645744
bagnet33,1,439,NaN,clock,knife,1,0439_hp_dnn_1_knife_10_n03041632_4214.png,n03041632_4214.png,0.0,2.8890147,4.279899,-0.9835038
bagnet33,1,440,NaN,oven,oven,inf,0440_hp_dnn_inf_oven_10_n04111531_7741.png,n04111531_7741.png,1.0,4.5642443,3.7686434,0.5625748
bagnet33,1,441,NaN,bicycle,bicycle,3,0441_hp_dnn_3_bicycle_10_n03792782_4472.png,n03792782_4472.png,1.0,6.5160713,3.7993708,1.9209974
bagnet33,1,442,NaN,clock,bird,0.7,0442_hp_dnn_0.7_bird_10_n01798484_18666.png,n01798484_18666.png,0.0,-1.5436167,4.1521783,-4.0275354
bagnet33,1,443,NaN,keyboard,keyboard,1.5,0443_hp_dnn_1.5_keyboard_10_n04505470_5059.png,n04505470_5059.png,1.0,5.251008,4.0808754,0.82740873
bagnet33,1,444,NaN,clock,elephant,0.55,0444_hp_dnn_0.55_elephant_10_n02504013_2369.png,n02504013_2369.png,0.0,-0.5714076,4.582974,-3.6446984
bagnet33,1,445,NaN,bottle,bottle,3,0445_hp_dnn_3_bottle_10_n02823428_10796.png,n02823428_10796.png,1.0,8.762397,5.39803,2.3789668
bagnet33,1,446,NaN,knife,oven,3,0446_hp_dnn_3_oven_10_n04111531_4421.png,n04111531_4421.png,0.0,-1.1150073,3.200296,-3.0513804
bagnet33,1,447,NaN,bicycle,bicycle,inf,0447_hp_dnn_inf_bicycle_10_n02835271_7303.png,n02835271_7303.png,1.0,19.367308,2.8183327,11.701893
bagnet33,1,448,NaN,chair,chair,inf,0448_hp_dnn_inf_chair_10_n02791124_7877.png,n02791124_7877.png,1.0,7.5677314,5.5027714,1.4601473
bagnet33,1,449,NaN,clock,bottle,1.5,0449_hp_dnn_1.5_bottle_10_n04560804_12099.png,n04560804_12099.png,0.0,2.6719882,3.3584254,-0.48538435
bagnet33,1,450,NaN,airplane,boat,1,0450_hp_dnn_1_boat_10_n03662601_18924.png,n03662601_18924.png,0.0,2.0442796,5.5607324,-2.4865077
bagnet33,1,451,NaN,clock,bottle,1,0451_hp_dnn_1_bottle_10_n04591713_4206.png,n04591713_4206.png,0.0,2.4648144,3.185891,-0.5098781
bagnet33,1,452,NaN,clock,clock,0.55,0452_hp_dnn_0.55_clock_10_n04548280_6689.png,n04548280_6689.png,1.0,5.2606006,4.0803394,0.83457065
bagnet33,1,453,NaN,clock,dog,0.4,0453_hp_dnn_0.4_dog_10_n02090721_5305.png,n02090721_5305.png,0.0,-1.0144562,3.9071283,-3.4800858
bagnet33,1,454,NaN,clock,clock,0.7,0454_hp_dnn_0.7_clock_10_n03196217_1746.png,n03196217_1746.png,1.0,2.6103418,2.376767,0.16516237
bagnet33,1,455,NaN,bottle,keyboard,3,0455_hp_dnn_3_keyboard_10_n04505470_7721.png,n04505470_7721.png,0.0,7.1824236,8.222688,-0.7355778
bagnet33,1,456,NaN,clock,clock,0.55,0456_hp_dnn_0.55_clock_10_n04548280_3248.png,n04548280_3248.png,1.0,3.9137185,3.383985,0.3745781
bagnet33,1,457,NaN,bird,bird,inf,0457_hp_dnn_inf_bird_10_n01534433_28009.png,n01534433_28009.png,1.0,4.9009132,1.6907926,2.2698982
bagnet33,1,458,NaN,clock,chair,0.4,0458_hp_dnn_0.4_chair_10_n04099969_142.png,n04099969_142.png,0.0,1.9208262,3.8790042,-1.384641
bagnet33,1,459,NaN,clock,bicycle,0.55,0459_hp_dnn_0.55_bicycle_10_n03792782_7092.png,n03792782_7092.png,0.0,-0.6438562,4.755339,-3.8178077
bagnet33,1,460,NaN,clock,keyboard,0.45,0460_hp_dnn_0.45_keyboard_10_n03085013_25559.png,n03085013_25559.png,0.0,-0.114201486,4.24031,-3.079105
bagnet33,1,461,NaN,clock,elephant,0.7,0461_hp_dnn_0.7_elephant_10_n02504013_9144.png,n02504013_9144.png,0.0,-0.6323725,2.3560445,-2.11313
bagnet33,1,462,NaN,airplane,clock,0.45,0462_hp_dnn_0.45_clock_10_n03196217_2003.png,n03196217_2003.png,0.0,4.4065156,4.8914585,-0.34290642
bagnet33,1,463,NaN,clock,elephant,1,0463_hp_dnn_1_elephant_10_n02504013_3169.png,n02504013_3169.png,0.0,-0.17507374,2.583208,-1.9503998
bagnet33,1,464,NaN,clock,dog,0.55,0464_hp_dnn_0.55_dog_10_n02089867_6424.png,n02089867_6424.png,0.0,-1.3681796,3.3569698,-3.341185
bagnet33,1,465,NaN,clock,keyboard,1,0465_hp_dnn_1_keyboard_10_n03085013_22494.png,n03085013_22494.png,0.0,0.8718241,3.4912727,-1.85223
bagnet33,1,466,NaN,clock,dog,0.4,0466_hp_dnn_0.4_dog_10_n02106662_37555.png,n02106662_37555.png,0.0,-1.3074783,3.6008117,-3.4706852
bagnet33,1,467,NaN,airplane,car,0.55,0467_hp_dnn_0.55_car_10_n02814533_4726.png,n02814533_4726.png,0.0,-1.4648752,2.6808326,-2.9314582
bagnet33,1,468,NaN,clock,elephant,0.45,0468_hp_dnn_0.45_elephant_10_n02504458_1473.png,n02504458_1473.png,0.0,-1.119271,3.9350643,-3.573955
bagnet33,1,469,NaN,clock,bottle,0.55,0469_hp_dnn_0.55_bottle_10_n04557648_3350.png,n04557648_3350.png,0.0,1.1014556,2.7050793,-1.1339332
bagnet33,1,470,NaN,clock,knife,0.4,0470_hp_dnn_0.4_knife_10_n03041632_31909.png,n03041632_31909.png,0.0,1.3220162,4.8580656,-2.5003645
bagnet33,1,471,NaN,clock,truck,0.4,0471_hp_dnn_0.4_truck_10_n04467665_70880.png,n04467665_70880.png,0.0,-1.5344349,3.3731678,-3.4701993
bagnet33,1,472,NaN,clock,dog,0.45,0472_hp_dnn_0.45_dog_10_n02097209_7557.png,n02097209_7557.png,0.0,-1.2544767,4.474653,-4.0511065
bagnet33,1,473,NaN,chair,oven,1,0473_hp_dnn_1_oven_10_n04111531_4438.png,n04111531_4438.png,0.0,-0.84026396,5.225895,-4.289422
bagnet33,1,474,NaN,airplane,airplane,0.7,0474_hp_dnn_0.7_airplane_10_n02690373_194.png,n02690373_194.png,1.0,5.5067096,4.518993,0.6984212
bagnet33,1,475,NaN,chair,bicycle,1.5,0475_hp_dnn_1.5_bicycle_10_n02835271_6953.png,n02835271_6953.png,0.0,1.2566874,4.7480755,-2.4687843
bagnet33,1,476,NaN,clock,oven,0.45,0476_hp_dnn_0.45_oven_10_n04111531_14435.png,n04111531_14435.png,0.0,-2.3849838,3.9524314,-4.4812293
bagnet33,1,477,NaN,clock,elephant,1.5,0477_hp_dnn_1.5_elephant_10_n02504013_5192.png,n02504013_5192.png,0.0,-0.6083231,4.099335,-3.3288171
bagnet33,1,478,NaN,clock,chair,0.7,0478_hp_dnn_0.7_chair_10_n03376595_3566.png,n03376595_3566.png,0.0,2.3761423,4.083937,-1.2075933
bagnet33,1,479,NaN,bottle,truck,1,0479_hp_dnn_1_truck_10_n03417042_22709.png,n03417042_22709.png,0.0,-0.57335037,3.6658902,-2.9975958
bagnet33,1,480,NaN,keyboard,keyboard,inf,0480_hp_dnn_inf_keyboard_10_n04505470_4603.png,n04505470_4603.png,1.0,39.86363,15.196882,17.442024
bagnet33,1,481,NaN,clock,car,0.55,0481_hp_dnn_0.55_car_10_n03100240_1794.png,n03100240_1794.png,0.0,-2.880841,3.5115674,-4.5201154
bagnet33,1,482,NaN,clock,elephant,0.7,0482_hp_dnn_0.7_elephant_10_n02504458_1233.png,n02504458_1233.png,0.0,-0.802758,2.9281416,-2.6381445
bagnet33,1,483,NaN,clock,airplane,0.45,0483_hp_dnn_0.45_airplane_10_n02690373_3047.png,n02690373_3047.png,0.0,1.9377344,3.2957642,-0.96027213
bagnet33,1,484,NaN,clock,elephant,0.55,0484_hp_dnn_0.55_elephant_10_n02504013_7422.png,n02504013_7422.png,0.0,-0.52095044,3.2428024,-2.6613753
bagnet33,1,485,NaN,clock,bicycle,0.45,0485_hp_dnn_0.45_bicycle_10_n03792782_16034.png,n03792782_16034.png,0.0,-0.62385774,4.449522,-3.5874212
bagnet33,1,486,NaN,bicycle,bicycle,3,0486_hp_dnn_3_bicycle_10_n02835271_11922.png,n02835271_11922.png,1.0,6.3068185,4.5239406,1.2606851
bagnet33,1,487,NaN,airplane,truck,0.7,0487_hp_dnn_0.7_truck_10_n03796401_6526.png,n03796401_6526.png,0.0,0.36584932,3.9554152,-2.5382066
bagnet33,1,488,NaN,boat,boat,3,0488_hp_dnn_3_boat_10_n03662601_1834.png,n03662601_1834.png,1.0,5.147748,4.7956915,0.24894154
bagnet33,1,489,NaN,clock,dog,0.7,0489_hp_dnn_0.7_dog_10_n02100236_619.png,n02100236_619.png,0.0,-1.5422423,2.8504314,-3.1060894
bagnet33,1,490,NaN,clock,truck,0.45,0490_hp_dnn_0.45_truck_10_n04467665_21266.png,n04467665_21266.png,0.0,-1.5912662,3.7661648,-3.7882757
bagnet33,1,491,NaN,clock,chair,0.55,0491_hp_dnn_0.55_chair_10_n04099969_18220.png,n04099969_18220.png,0.0,1.6484292,4.423849,-1.9625183
bagnet33,1,492,NaN,keyboard,keyboard,1.5,0492_hp_dnn_1.5_keyboard_10_n03085013_4157.png,n03085013_4157.png,1.0,6.6459074,4.7973137,1.3071532
bagnet33,1,493,NaN,clock,bicycle,0.4,0493_hp_dnn_0.4_bicycle_10_n03792782_1276.png,n03792782_1276.png,0.0,-0.45326382,4.7635226,-3.6888251
bagnet33,1,494,NaN,airplane,boat,3,0494_hp_dnn_3_boat_10_n03344393_1987.png,n03344393_1987.png,0.0,3.9406059,3.982564,-0.029668853
bagnet33,1,495,NaN,clock,boat,0.45,0495_hp_dnn_0.45_boat_10_n03344393_381.png,n03344393_381.png,0.0,1.3873451,3.345878,-1.3848919
bagnet33,1,496,NaN,clock,clock,inf,0496_hp_dnn_inf_clock_10_n02708093_8390.png,n02708093_8390.png,1.0,34.12357,10.694894,16.566576
bagnet33,1,497,NaN,keyboard,keyboard,0.55,0497_hp_dnn_0.55_keyboard_10_n04505470_1043.png,n04505470_1043.png,1.0,3.9545321,3.7897382,0.11652693
bagnet33,1,498,NaN,clock,dog,0.55,0498_hp_dnn_0.55_dog_10_n02100877_1902.png,n02100877_1902.png,0.0,-1.4031315,3.4011776,-3.3971593
bagnet33,1,499,NaN,clock,knife,1.5,0499_hp_dnn_1.5_knife_10_n03041632_55083.png,n03041632_55083.png,0.0,2.1675122,3.2957733,-0.7978011
bagnet33,1,500,NaN,chair,truck,1.5,0500_hp_dnn_1.5_truck_10_n04467665_45872.png,n04467665_45872.png,0.0,-0.2324334,4.4206953,-3.290259
bagnet33,1,501,NaN,boat,boat,0.7,0501_hp_dnn_0.7_boat_10_n04273569_3244.png,n04273569_3244.png,1.0,4.5821586,2.7212622,1.3158524
bagnet33,1,502,NaN,clock,bear,0.45,0502_hp_dnn_0.45_bear_10_n02134418_2157.png,n02134418_2157.png,0.0,-1.7238729,4.321144,-4.2744727
bagnet33,1,503,NaN,bottle,bottle,3,0503_hp_dnn_3_bottle_10_n04591713_17618.png,n04591713_17618.png,1.0,5.240578,4.6852446,0.39268017
bagnet33,1,504,NaN,clock,cat,1,0504_hp_dnn_1_cat_10_n02125311_8496.png,n02125311_8496.png,0.0,1.5090867,3.830532,-1.6415099
bagnet33,1,505,NaN,car,car,inf,0505_hp_dnn_inf_car_10_n02814533_3560.png,n02814533_3560.png,1.0,18.04688,16.53087,1.0719812
bagnet33,1,506,NaN,clock,truck,0.7,0506_hp_dnn_0.7_truck_10_n03417042_751.png,n03417042_751.png,0.0,0.14308605,2.6855717,-1.7978089
bagnet33,1,507,NaN,keyboard,keyboard,inf,0507_hp_dnn_inf_keyboard_10_n03085013_23213.png,n03085013_23213.png,1.0,6.1208825,5.0691175,0.74371016
bagnet33,1,508,NaN,clock,bicycle,0.4,0508_hp_dnn_0.4_bicycle_10_n03792782_19709.png,n03792782_19709.png,0.0,-1.4123335,4.158144,-3.9389224
bagnet33,1,509,NaN,oven,oven,inf,0509_hp_dnn_inf_oven_10_n04111531_3076.png,n04111531_3076.png,1.0,12.079294,7.871105,2.975639
bagnet33,1,510,NaN,clock,knife,0.4,0510_hp_dnn_0.4_knife_10_n03041632_14774.png,n03041632_14774.png,0.0,2.3295052,3.685734,-0.9589986
bagnet33,1,511,NaN,clock,car,0.7,0511_hp_dnn_0.7_car_10_n03100240_7703.png,n03100240_7703.png,0.0,-1.8053538,3.3648703,-3.6559007
bagnet33,1,512,NaN,clock,bear,0.55,0512_hp_dnn_0.55_bear_10_n02134084_13434.png,n02134084_13434.png,0.0,-1.2082099,4.6434035,-4.137716
bagnet33,1,513,NaN,dog,dog,inf,0513_hp_dnn_inf_dog_10_n02111500_4280.png,n02111500_4280.png,1.0,5.9526434,3.8784087,1.4667054
bagnet33,1,514,NaN,clock,bear,0.55,0514_hp_dnn_0.55_bear_10_n02132136_23853.png,n02132136_23853.png,0.0,-1.3831921,3.5914338,-3.5175915
bagnet33,1,515,NaN,clock,bicycle,1.5,0515_hp_dnn_1.5_bicycle_10_n03792782_17193.png,n03792782_17193.png,0.0,0.24760512,3.034647,-1.9707363
bagnet33,1,516,NaN,clock,dog,1,0516_hp_dnn_1_dog_10_n02102177_5770.png,n02102177_5770.png,0.0,-1.4274318,3.9534855,-3.8048832
bagnet33,1,517,NaN,clock,bear,0.7,0517_hp_dnn_0.7_bear_10_n02132136_2279.png,n02132136_2279.png,0.0,-2.1916795,3.5112545,-4.0325837
bagnet33,1,518,NaN,oven,bear,inf,0518_hp_dnn_inf_bear_10_n02134084_6910.png,n02134084_6910.png,0.0,2.7242174,5.5163956,-1.9743681
bagnet33,1,519,NaN,chair,oven,0.7,0519_hp_dnn_0.7_oven_10_n04111531_9041.png,n04111531_9041.png,0.0,-1.3384628,3.651067,-3.5281303
bagnet33,1,520,NaN,clock,cat,1,0520_hp_dnn_1_cat_10_n02123159_5424.png,n02123159_5424.png,0.0,0.83906364,5.135383,-3.0379567
bagnet33,1,521,NaN,clock,bicycle,0.45,0521_hp_dnn_0.45_bicycle_10_n02835271_672.png,n02835271_672.png,0.0,-0.6089195,5.238232,-4.1345606
bagnet33,1,522,NaN,clock,airplane,0.45,0522_hp_dnn_0.45_airplane_10_n02690373_18111.png,n02690373_18111.png,0.0,2.9877057,3.936878,-0.6711662
bagnet33,1,523,NaN,knife,clock,1,0523_hp_dnn_1_clock_10_n04548280_3013.png,n04548280_3013.png,0.0,3.0339305,6.0354147,-2.1223698
bagnet33,1,524,NaN,clock,dog,0.45,0524_hp_dnn_0.45_dog_10_n02094258_4142.png,n02094258_4142.png,0.0,-1.0694591,4.1839824,-3.714744
bagnet33,1,525,NaN,clock,clock,3,0525_hp_dnn_3_clock_10_n04548280_6919.png,n04548280_6919.png,1.0,8.680213,4.76097,2.7713232
bagnet33,1,526,NaN,clock,cat,0.4,0526_hp_dnn_0.4_cat_10_n02124075_16814.png,n02124075_16814.png,0.0,-0.006324013,4.215962,-2.985607
bagnet33,1,527,NaN,clock,clock,1,0527_hp_dnn_1_clock_10_n04548280_3342.png,n04548280_3342.png,1.0,5.6942496,4.2496805,1.0214646
bagnet33,1,528,NaN,cat,boat,1,0528_hp_dnn_1_boat_10_n04612504_31680.png,n04612504_31680.png,0.0,2.3715286,2.457633,-0.060885
bagnet33,1,529,NaN,keyboard,keyboard,inf,0529_hp_dnn_inf_keyboard_10_n03085013_7962.png,n03085013_7962.png,1.0,37.478127,7.392054,21.274067
bagnet33,1,530,NaN,chair,bicycle,3,0530_hp_dnn_3_bicycle_10_n02835271_949.png,n02835271_949.png,0.0,6.525054,7.3199205,-0.5620555
bagnet33,1,531,NaN,chair,keyboard,1,0531_hp_dnn_1_keyboard_10_n04505470_4228.png,n04505470_4228.png,0.0,1.0639497,4.039036,-2.1037037
bagnet33,1,532,NaN,clock,boat,0.7,0532_hp_dnn_0.7_boat_10_n03344393_3219.png,n03344393_3219.png,0.0,-0.34238306,3.8143015,-2.9392197
bagnet33,1,533,NaN,truck,elephant,3,0533_hp_dnn_3_elephant_10_n02504458_3399.png,n02504458_3399.png,0.0,0.51866865,3.5103407,-2.1154315
bagnet33,1,534,NaN,clock,bird,0.55,0534_hp_dnn_0.55_bird_10_n01616318_12459.png,n01616318_12459.png,0.0,0.0044710455,3.273557,-2.3115928
bagnet33,1,535,NaN,clock,elephant,0.4,0535_hp_dnn_0.4_elephant_10_n02504013_1846.png,n02504013_1846.png,0.0,-1.2984871,3.3585432,-3.2930176
bagnet33,1,536,NaN,clock,bicycle,0.55,0536_hp_dnn_0.55_bicycle_10_n03792782_5097.png,n03792782_5097.png,0.0,-1.1766566,4.5706496,-4.0639596
bagnet33,1,537,NaN,bottle,bottle,3,0537_hp_dnn_3_bottle_10_n02823428_5115.png,n02823428_5115.png,1.0,3.3447537,2.749866,0.42064917
bagnet33,1,538,NaN,keyboard,keyboard,inf,0538_hp_dnn_inf_keyboard_10_n03085013_21282.png,n03085013_21282.png,1.0,15.932097,15.463371,0.33143947
bagnet33,1,539,NaN,clock,oven,0.4,0539_hp_dnn_0.4_oven_10_n04111531_1815.png,n04111531_1815.png,0.0,-3.0573153,2.8688107,-4.190404
bagnet33,1,540,NaN,clock,chair,1,0540_hp_dnn_1_chair_10_n02791124_5268.png,n02791124_5268.png,0.0,2.039857,3.0815957,-0.73662055
bagnet33,1,541,NaN,clock,airplane,0.55,0541_hp_dnn_0.55_airplane_10_n02690373_3035.png,n02690373_3035.png,0.0,1.9652319,3.6752203,-1.2091444
bagnet33,1,542,NaN,dog,dog,inf,0542_hp_dnn_inf_dog_10_n02107683_1460.png,n02107683_1460.png,1.0,6.0240273,1.3630836,3.2957852
bagnet33,1,543,NaN,boat,boat,inf,0543_hp_dnn_inf_boat_10_n02951358_31813.png,n02951358_31813.png,1.0,7.469129,4.7614923,1.9145885
bagnet33,1,544,NaN,clock,bird,0.4,0544_hp_dnn_0.4_bird_10_n01797886_16808.png,n01797886_16808.png,0.0,-0.88307846,5.2268524,-4.3203735
bagnet33,1,545,NaN,clock,elephant,0.45,0545_hp_dnn_0.45_elephant_10_n02504458_4767.png,n02504458_4767.png,0.0,-0.8177265,3.3612082,-2.954953
bagnet33,1,546,NaN,chair,knife,3,0546_hp_dnn_3_knife_10_n03041632_41493.png,n03041632_41493.png,0.0,3.1867065,4.622597,-1.015328
bagnet33,1,547,NaN,elephant,elephant,3,0547_hp_dnn_3_elephant_10_n02504458_3329.png,n02504458_3329.png,1.0,10.289471,1.459708,6.243585
bagnet33,1,548,NaN,clock,cat,0.45,0548_hp_dnn_0.45_cat_10_n02124075_12467.png,n02124075_12467.png,0.0,0.5748236,4.173183,-2.5444243
bagnet33,1,549,NaN,chair,truck,0.7,0549_hp_dnn_0.7_truck_10_n03417042_6467.png,n03417042_6467.png,0.0,0.51965857,3.1512468,-1.8608139
bagnet33,1,550,NaN,airplane,airplane,inf,0550_hp_dnn_inf_airplane_10_n02690373_734.png,n02690373_734.png,1.0,25.87895,6.0696983,14.0072565
bagnet33,1,551,NaN,clock,car,0.4,0551_hp_dnn_0.4_car_10_n02814533_85296.png,n02814533_85296.png,0.0,-2.4880364,4.4112887,-4.87856
bagnet33,1,552,NaN,clock,elephant,0.7,0552_hp_dnn_0.7_elephant_10_n02504013_18005.png,n02504013_18005.png,0.0,-0.89367473,3.1770256,-2.8784196
bagnet33,1,553,NaN,clock,clock,0.45,0553_hp_dnn_0.45_clock_10_n02708093_1495.png,n02708093_1495.png,1.0,4.307588,2.971168,0.9449917
bagnet33,1,554,NaN,bottle,car,1.5,0554_hp_dnn_1.5_car_10_n04285008_3462.png,n04285008_3462.png,0.0,1.964841,3.8660164,-1.344334
bagnet33,1,555,NaN,clock,truck,0.4,0555_hp_dnn_0.4_truck_10_n03417042_22297.png,n03417042_22297.png,0.0,-1.5606598,3.6260655,-3.6675687
bagnet33,1,556,NaN,chair,chair,3,0556_hp_dnn_3_chair_10_n04429376_7279.png,n04429376_7279.png,1.0,6.4433165,3.3301244,2.2013593
bagnet33,1,557,NaN,bicycle,bicycle,3,0557_hp_dnn_3_bicycle_10_n02835271_6919.png,n02835271_6919.png,1.0,6.717485,6.535638,0.12858532
bagnet33,1,558,NaN,clock,oven,0.55,0558_hp_dnn_0.55_oven_10_n04111531_2260.png,n04111531_2260.png,0.0,-2.152936,2.9272738,-3.5922508
bagnet33,1,559,NaN,clock,bear,0.7,0559_hp_dnn_0.7_bear_10_n02134084_5794.png,n02134084_5794.png,0.0,-1.7891662,4.6927266,-4.58339
bagnet33,1,560,NaN,clock,airplane,0.7,0560_hp_dnn_0.7_airplane_10_n02690373_10397.png,n02690373_10397.png,0.0,3.1898394,3.7882884,-0.42316735
bagnet33,1,561,NaN,clock,elephant,0.4,0561_hp_dnn_0.4_elephant_10_n02504458_2041.png,n02504458_2041.png,0.0,-1.4182898,3.2708156,-3.3156984
bagnet33,1,562,NaN,clock,chair,1,0562_hp_dnn_1_chair_10_n04429376_7732.png,n04429376_7732.png,0.0,2.7546563,3.792618,-0.7339498
bagnet33,1,563,NaN,airplane,airplane,0.4,0563_hp_dnn_0.4_airplane_10_n02690373_4788.png,n02690373_4788.png,1.0,4.0293183,3.9527714,0.05412684
bagnet33,1,564,NaN,clock,dog,0.55,0564_hp_dnn_0.55_dog_10_n02097474_2799.png,n02097474_2799.png,0.0,-1.238836,4.6975765,-4.1976776
bagnet33,1,565,NaN,clock,bear,1.5,0565_hp_dnn_1.5_bear_10_n02134084_17849.png,n02134084_17849.png,0.0,-1.0738709,4.640909,-4.04096
bagnet33,1,566,NaN,dog,dog,inf,0566_hp_dnn_inf_dog_10_n02086646_7064.png,n02086646_7064.png,1.0,8.06401,3.9946506,2.8774712
bagnet33,1,567,NaN,clock,truck,0.55,0567_hp_dnn_0.55_truck_10_n03417042_7061.png,n03417042_7061.png,0.0,0.56231815,2.9706986,-1.7029822
bagnet33,1,568,NaN,clock,bird,1,0568_hp_dnn_1_bird_10_n01820546_3605.png,n01820546_3605.png,0.0,-3.0368116,5.086559,-5.74409
bagnet33,1,569,NaN,clock,bear,0.4,0569_hp_dnn_0.4_bear_10_n02133161_2813.png,n02133161_2813.png,0.0,-3.193662,2.964311,-4.3543444
bagnet33,1,570,NaN,clock,bear,0.45,0570_hp_dnn_0.45_bear_10_n02132136_16636.png,n02132136_16636.png,0.0,-0.82961726,3.1862965,-2.83968
bagnet33,1,571,NaN,chair,oven,1.5,0571_hp_dnn_1.5_oven_10_n04111531_14959.png,n04111531_14959.png,0.0,-1.7766678,4.800621,-4.6508455
bagnet33,1,572,NaN,clock,cat,0.45,0572_hp_dnn_0.45_cat_10_n02124075_5453.png,n02124075_5453.png,0.0,0.05763042,4.466994,-3.1178908
bagnet33,1,573,NaN,knife,cat,1,0573_hp_dnn_1_cat_10_n02124075_11528.png,n02124075_11528.png,0.0,1.8794621,2.7556677,-0.6195709
bagnet33,1,574,NaN,clock,cat,1,0574_hp_dnn_1_cat_10_n02123159_3454.png,n02123159_3454.png,0.0,1.0189036,3.432852,-1.7069194
bagnet33,1,575,NaN,clock,bird,0.45,0575_hp_dnn_0.45_bird_10_n02025239_2227.png,n02025239_2227.png,0.0,0.2937232,3.7071512,-2.4136581
bagnet33,1,576,NaN,clock,chair,0.7,0576_hp_dnn_0.7_chair_10_n03376595_12256.png,n03376595_12256.png,0.0,2.286046,3.3679287,-0.7650066
bagnet33,1,577,NaN,clock,clock,1.5,0577_hp_dnn_1.5_clock_10_n02708093_6591.png,n02708093_6591.png,1.0,5.330558,3.7218862,1.1375027
bagnet33,1,578,NaN,clock,chair,0.55,0578_hp_dnn_0.55_chair_10_n04099969_34144.png,n04099969_34144.png,0.0,2.1090612,3.2969418,-0.83995837
bagnet33,1,579,NaN,boat,bear,0.55,0579_hp_dnn_0.55_bear_10_n02132136_3563.png,n02132136_3563.png,0.0,-4.992699,2.5680785,-5.346277
bagnet33,1,580,NaN,clock,elephant,1,0580_hp_dnn_1_elephant_10_n02504013_6671.png,n02504013_6671.png,0.0,0.4487971,3.705438,-2.302793
bagnet33,1,581,NaN,clock,keyboard,0.7,0581_hp_dnn_0.7_keyboard_10_n03085013_22067.png,n03085013_22067.png,0.0,1.2586316,3.7653599,-1.7725245
bagnet33,1,582,NaN,truck,truck,inf,0582_hp_dnn_inf_truck_10_n03796401_1458.png,n03796401_1458.png,1.0,6.262922,4.602644,1.1739937
bagnet33,1,583,NaN,clock,bottle,0.45,0583_hp_dnn_0.45_bottle_10_n04591713_807.png,n04591713_807.png,0.0,2.0305865,4.1192546,-1.4769114
bagnet33,1,584,NaN,knife,car,1,0584_hp_dnn_1_car_10_n02814533_22693.png,n02814533_22693.png,0.0,-4.584658,5.8766546,-7.3972654
bagnet33,1,585,NaN,clock,car,0.7,0585_hp_dnn_0.7_car_10_n02814533_5278.png,n02814533_5278.png,0.0,-2.746541,3.665055,-4.5336833
bagnet33,1,586,NaN,clock,boat,1.5,0586_hp_dnn_1.5_boat_10_n03662601_10240.png,n03662601_10240.png,0.0,1.8391854,5.928655,-2.891692
bagnet33,1,587,NaN,airplane,airplane,inf,0587_hp_dnn_inf_airplane_10_n02690373_9673.png,n02690373_9673.png,1.0,16.781675,5.67575,7.8530755
bagnet33,1,588,NaN,clock,bird,0.7,0588_hp_dnn_0.7_bird_10_n02009229_6029.png,n02009229_6029.png,0.0,-0.00555639,2.6909587,-1.9067241
bagnet33,1,589,NaN,clock,clock,0.4,0589_hp_dnn_0.4_clock_10_n02708093_2580.png,n02708093_2580.png,1.0,6.333742,3.3208113,2.1304638
bagnet33,1,590,NaN,clock,elephant,0.4,0590_hp_dnn_0.4_elephant_10_n02504013_295.png,n02504013_295.png,0.0,-1.4941741,3.3235989,-3.4066799
bagnet33,1,591,NaN,clock,car,0.7,0591_hp_dnn_0.7_car_10_n04285008_9893.png,n04285008_9893.png,0.0,-1.5962437,3.6314647,-3.696548
bagnet33,1,592,NaN,chair,chair,1.5,0592_hp_dnn_1.5_chair_10_n03376595_6850.png,n03376595_6850.png,1.0,3.780336,3.7196643,0.042901278
bagnet33,1,593,NaN,car,boat,3,0593_hp_dnn_3_boat_10_n03662601_15713.png,n03662601_15713.png,0.0,1.3367832,5.3781343,-2.857667
bagnet33,1,594,NaN,clock,clock,0.4,0594_hp_dnn_0.4_clock_10_n04548280_9867.png,n04548280_9867.png,1.0,4.1671424,2.3194609,1.3065082
bagnet33,1,595,NaN,clock,airplane,1.5,0595_hp_dnn_1.5_airplane_10_n02690373_1450.png,n02690373_1450.png,0.0,4.641783,4.6838036,-0.029712854
bagnet33,1,596,NaN,clock,bicycle,0.45,0596_hp_dnn_0.45_bicycle_10_n03792782_7787.png,n03792782_7787.png,0.0,-1.1108592,3.4724014,-3.2408547
bagnet33,1,597,NaN,clock,chair,0.45,0597_hp_dnn_0.45_chair_10_n04099969_1219.png,n04099969_1219.png,0.0,1.4333475,5.072107,-2.5729914
bagnet33,1,598,NaN,clock,keyboard,0.55,0598_hp_dnn_0.55_keyboard_10_n03085013_8325.png,n03085013_8325.png,0.0,0.24850887,3.0632334,-1.9903108
bagnet33,1,599,NaN,clock,bicycle,0.55,0599_hp_dnn_0.55_bicycle_10_n02835271_14732.png,n02835271_14732.png,0.0,0.40629774,3.7757628,-2.3825717
bagnet33,1,600,NaN,airplane,airplane,1.5,0600_hp_dnn_1.5_airplane_10_n02690373_4176.png,n02690373_4176.png,1.0,5.3704357,4.1193166,0.88467485
bagnet33,1,601,NaN,clock,bird,1,0601_hp_dnn_1_bird_10_n01534433_905.png,n01534433_905.png,0.0,-1.3502117,4.8132143,-4.3582006
bagnet33,1,602,NaN,airplane,truck,1.5,0602_hp_dnn_1.5_truck_10_n04467665_45306.png,n04467665_45306.png,0.0,-0.14223692,2.471074,-1.84789
bagnet33,1,603,NaN,knife,elephant,3,0603_hp_dnn_3_elephant_10_n02504458_1617.png,n02504458_1617.png,0.0,1.2208691,2.932557,-1.2103462
bagnet33,1,604,NaN,clock,oven,0.45,0604_hp_dnn_0.45_oven_10_n04111531_4148.png,n04111531_4148.png,0.0,-2.226068,3.1840298,-3.8255172
bagnet33,1,605,NaN,clock,bird,0.55,0605_hp_dnn_0.55_bird_10_n02009912_91.png,n02009912_91.png,0.0,-2.1460645,7.201205,-6.6095176
bagnet33,1,606,NaN,knife,knife,3,0606_hp_dnn_3_knife_10_n03041632_33739.png,n03041632_33739.png,1.0,4.551195,3.6877348,0.6105586
bagnet33,1,607,NaN,airplane,airplane,1,0607_hp_dnn_1_airplane_10_n02690373_9318.png,n02690373_9318.png,1.0,3.897549,3.2191067,0.4797311
bagnet33,1,608,NaN,clock,bird,0.4,0608_hp_dnn_0.4_bird_10_n01828970_8669.png,n01828970_8669.png,0.0,-0.3372907,4.2941036,-3.2748904
bagnet33,1,609,NaN,chair,truck,1.5,0609_hp_dnn_1.5_truck_10_n04467665_58762.png,n04467665_58762.png,0.0,0.688982,6.31793,-3.9802675
bagnet33,1,610,NaN,car,car,3,0610_hp_dnn_3_car_10_n03100240_11417.png,n03100240_11417.png,1.0,8.766014,8.187802,0.4088575
bagnet33,1,611,NaN,bicycle,bicycle,inf,0611_hp_dnn_inf_bicycle_10_n03792782_16179.png,n03792782_16179.png,1.0,17.662468,2.32817,10.842986
bagnet33,1,612,NaN,knife,car,1,0612_hp_dnn_1_car_10_n04285008_8444.png,n04285008_8444.png,0.0,-0.7751305,3.3627975,-2.925957
bagnet33,1,613,NaN,chair,chair,inf,0613_hp_dnn_inf_chair_10_n02791124_3240.png,n02791124_3240.png,1.0,6.670738,6.0620046,0.4304397
bagnet33,1,614,NaN,clock,bicycle,0.7,0614_hp_dnn_0.7_bicycle_10_n02835271_1035.png,n02835271_1035.png,0.0,-0.06290898,3.6594963,-2.632138
bagnet33,1,615,NaN,clock,bicycle,0.55,0615_hp_dnn_0.55_bicycle_10_n02835271_6167.png,n02835271_6167.png,0.0,-0.39211255,4.6706367,-3.5799046
bagnet33,1,616,NaN,bottle,bottle,3,0616_hp_dnn_3_bottle_10_n02823428_6830.png,n02823428_6830.png,1.0,7.118613,5.0700254,1.44857
bagnet33,1,617,NaN,clock,knife,0.45,0617_hp_dnn_0.45_knife_10_n03041632_17349.png,n03041632_17349.png,0.0,2.5377479,4.1834693,-1.1637008
bagnet33,1,618,NaN,airplane,airplane,inf,0618_hp_dnn_inf_airplane_10_n02690373_2024.png,n02690373_2024.png,1.0,15.215753,3.6406937,8.184803
bagnet33,1,619,NaN,knife,bottle,1,0619_hp_dnn_1_bottle_10_n02823428_8034.png,n02823428_8034.png,0.0,4.281618,6.3417473,-1.4567313
bagnet33,1,620,NaN,chair,chair,1,0620_hp_dnn_1_chair_10_n02791124_6786.png,n02791124_6786.png,1.0,4.4589076,4.2225537,0.16712743
bagnet33,1,621,NaN,airplane,chair,0.45,0621_hp_dnn_0.45_chair_10_n03376595_10689.png,n03376595_10689.png,0.0,0.69153464,4.5153594,-2.7038527
bagnet33,1,622,NaN,clock,knife,0.4,0622_hp_dnn_0.4_knife_10_n03041632_22734.png,n03041632_22734.png,0.0,2.5023766,5.1836452,-1.8959433
bagnet33,1,623,NaN,clock,oven,0.4,0623_hp_dnn_0.4_oven_10_n04111531_10521.png,n04111531_10521.png,0.0,-1.6142046,3.0022373,-3.2643173
bagnet33,1,624,NaN,chair,bird,inf,0624_hp_dnn_inf_bird_10_n02007558_37147.png,n02007558_37147.png,0.0,1.090614,2.5076113,-1.0019684
bagnet33,1,625,NaN,chair,oven,3,0625_hp_dnn_3_oven_10_n04111531_14753.png,n04111531_14753.png,0.0,-1.2251418,5.835395,-4.992553
bagnet33,1,626,NaN,clock,bottle,0.7,0626_hp_dnn_0.7_bottle_10_n03983396_4990.png,n03983396_4990.png,0.0,1.8070967,5.1619563,-2.3722441
bagnet33,1,627,NaN,clock,cat,0.45,0627_hp_dnn_0.45_cat_10_n02125311_25104.png,n02125311_25104.png,0.0,1.222041,4.2416863,-2.1352117
bagnet33,1,628,NaN,clock,truck,0.55,0628_hp_dnn_0.55_truck_10_n03417042_5600.png,n03417042_5600.png,0.0,-0.4509018,3.3173172,-2.6645331
bagnet33,1,629,NaN,clock,cat,0.55,0629_hp_dnn_0.55_cat_10_n02125311_34158.png,n02125311_34158.png,0.0,-0.028907577,3.0641823,-2.1871448
bagnet33,1,630,NaN,clock,knife,1,0630_hp_dnn_1_knife_10_n03041632_41077.png,n03041632_41077.png,0.0,3.470852,4.746321,-0.901893
bagnet33,1,631,NaN,airplane,bicycle,0.45,0631_hp_dnn_0.45_bicycle_10_n03792782_19295.png,n03792782_19295.png,0.0,-0.9737228,5.247241,-4.3988857
bagnet33,1,632,NaN,clock,elephant,1,0632_hp_dnn_1_elephant_10_n02504013_7500.png,n02504013_7500.png,0.0,-0.88996655,4.4928055,-3.8061945
bagnet33,1,633,NaN,clock,chair,0.4,0633_hp_dnn_0.4_chair_10_n04429376_20837.png,n04429376_20837.png,0.0,1.6367303,3.6479523,-1.4221487
bagnet33,1,634,NaN,clock,oven,0.55,0634_hp_dnn_0.55_oven_10_n04111531_2371.png,n04111531_2371.png,0.0,-3.4556048,3.6608334,-5.0320816
bagnet33,1,635,NaN,clock,bear,0.45,0635_hp_dnn_0.45_bear_10_n02132136_2108.png,n02132136_2108.png,0.0,-0.53122497,3.727089,-3.011083
bagnet33,1,636,NaN,clock,airplane,0.55,0636_hp_dnn_0.55_airplane_10_n02690373_7600.png,n02690373_7600.png,0.0,3.5923812,4.5483804,-0.6759935
bagnet33,1,637,NaN,clock,bicycle,0.4,0637_hp_dnn_0.4_bicycle_10_n03792782_8329.png,n03792782_8329.png,0.0,-0.9117893,4.1236,-3.560558
bagnet33,1,638,NaN,knife,airplane,0.7,0638_hp_dnn_0.7_airplane_10_n02690373_9712.png,n02690373_9712.png,0.0,0.95151,4.1702566,-2.2759976
bagnet33,1,639,NaN,car,car,inf,0639_hp_dnn_inf_car_10_n02814533_43694.png,n02814533_43694.png,1.0,15.610583,12.219435,2.3979042
bagnet33,1,640,NaN,clock,bird,0.4,0640_hp_dnn_0.4_bird_10_n01828970_454.png,n01828970_454.png,0.0,0.7767369,4.282272,-2.4787874
bagnet33,1,641,NaN,bottle,bear,1,0641_hp_dnn_1_bear_10_n02132136_1141.png,n02132136_1141.png,0.0,-0.25474116,3.12245,-2.3880348
bagnet33,1,642,NaN,clock,clock,0.7,0642_hp_dnn_0.7_clock_10_n03196217_6217.png,n03196217_6217.png,1.0,3.593936,3.335358,0.1828423
bagnet33,1,643,NaN,clock,truck,1,0643_hp_dnn_1_truck_10_n03417042_4520.png,n03417042_4520.png,0.0,-0.2941648,4.924402,-3.6900842
bagnet33,1,644,NaN,knife,dog,3,0644_hp_dnn_3_dog_10_n02093256_2633.png,n02093256_2633.png,0.0,-0.43581048,2.9607441,-2.401727
bagnet33,1,645,NaN,clock,dog,0.4,0645_hp_dnn_0.4_dog_10_n02108000_7066.png,n02108000_7066.png,0.0,-1.3734361,3.9198265,-3.7429018
bagnet33,1,646,NaN,chair,dog,1.5,0646_hp_dnn_1.5_dog_10_n02099601_2805.png,n02099601_2805.png,0.0,0.002311245,4.7446856,-3.3533652
bagnet33,1,647,NaN,knife,dog,3,0647_hp_dnn_3_dog_10_n02091244_3193.png,n02091244_3193.png,0.0,-1.2783811,5.043334,-4.470128
bagnet33,1,648,NaN,chair,bicycle,1.5,0648_hp_dnn_1.5_bicycle_10_n02835271_358.png,n02835271_358.png,0.0,-0.17555693,2.6866248,-2.023868
bagnet33,1,649,NaN,clock,boat,0.7,0649_hp_dnn_0.7_boat_10_n03344393_9459.png,n03344393_9459.png,0.0,1.0714777,3.056976,-1.4039594
bagnet33,1,650,NaN,clock,truck,1,0650_hp_dnn_1_truck_10_n04467665_5053.png,n04467665_5053.png,0.0,1.4541621,2.9748905,-1.0753174
bagnet33,1,651,NaN,clock,truck,0.45,0651_hp_dnn_0.45_truck_10_n04467665_36855.png,n04467665_36855.png,0.0,-1.1425693,2.9007218,-2.8590386
bagnet33,1,652,NaN,clock,car,0.45,0652_hp_dnn_0.45_car_10_n02814533_72255.png,n02814533_72255.png,0.0,-1.8072108,3.7734165,-3.9460995
bagnet33,1,653,NaN,airplane,airplane,1.5,0653_hp_dnn_1.5_airplane_10_n02690373_5789.png,n02690373_5789.png,1.0,6.5424213,4.8491797,1.1973026
bagnet33,1,654,NaN,clock,oven,0.4,0654_hp_dnn_0.4_oven_10_n04111531_9224.png,n04111531_9224.png,0.0,-2.3304436,4.3606515,-4.731319
bagnet33,1,655,NaN,bird,bird,inf,0655_hp_dnn_inf_bird_10_n01798484_4076.png,n01798484_4076.png,1.0,6.3317056,5.2473145,0.7667803
bagnet33,1,656,NaN,clock,boat,1,0656_hp_dnn_1_boat_10_n04612504_1869.png,n04612504_1869.png,0.0,0.437532,3.7094004,-2.3135605
bagnet33,1,657,NaN,clock,cat,0.45,0657_hp_dnn_0.45_cat_10_n02123394_7335.png,n02123394_7335.png,0.0,1.5749317,3.9343731,-1.6683769
bagnet33,1,658,NaN,clock,boat,1,0658_hp_dnn_1_boat_10_n04612504_11379.png,n04612504_11379.png,0.0,0.6421791,4.950112,-3.0461686
bagnet33,1,659,NaN,clock,bicycle,1,0659_hp_dnn_1_bicycle_10_n03792782_18496.png,n03792782_18496.png,0.0,-0.39708203,3.2395165,-2.5714636
bagnet33,1,660,NaN,elephant,bear,inf,0660_hp_dnn_inf_bear_10_n02133161_8471.png,n02133161_8471.png,0.0,1.2832518,2.1367996,-0.6035495
bagnet33,1,661,NaN,chair,keyboard,0.7,0661_hp_dnn_0.7_keyboard_10_n04505470_3929.png,n04505470_3929.png,0.0,1.7872472,3.244153,-1.030188
bagnet33,1,662,NaN,clock,car,0.55,0662_hp_dnn_0.55_car_10_n03100240_6822.png,n03100240_6822.png,0.0,-2.2236207,3.5116336,-4.055437
bagnet33,1,663,NaN,clock,keyboard,0.4,0663_hp_dnn_0.4_keyboard_10_n04505470_207.png,n04505470_207.png,0.0,0.17303586,3.9862492,-2.6963491
bagnet33,1,664,NaN,clock,elephant,0.55,0664_hp_dnn_0.55_elephant_10_n02504458_7221.png,n02504458_7221.png,0.0,-0.9505589,4.7320604,-4.0182185
bagnet33,1,665,NaN,clock,bottle,1.5,0665_hp_dnn_1.5_bottle_10_n03983396_2091.png,n03983396_2091.png,0.0,4.65432,4.888763,-0.16577637
bagnet33,1,666,NaN,clock,knife,0.4,0666_hp_dnn_0.4_knife_10_n03041632_30602.png,n03041632_30602.png,0.0,2.281528,3.3842318,-0.77972937
bagnet33,1,667,NaN,clock,oven,0.45,0667_hp_dnn_0.45_oven_10_n04111531_7050.png,n04111531_7050.png,0.0,-2.4664056,4.19036,-4.7070446
bagnet33,1,668,NaN,clock,car,0.45,0668_hp_dnn_0.45_car_10_n02814533_30383.png,n02814533_30383.png,0.0,-2.0394242,3.5839107,-3.9762983
bagnet33,1,669,NaN,clock,cat,0.7,0669_hp_dnn_0.7_cat_10_n02124075_7680.png,n02124075_7680.png,0.0,0.4146371,3.7287395,-2.3434243
bagnet33,1,670,NaN,clock,oven,0.55,0670_hp_dnn_0.55_oven_10_n04111531_3265.png,n04111531_3265.png,0.0,-2.7552023,3.2341392,-4.235104
bagnet33,1,671,NaN,chair,oven,1.5,0671_hp_dnn_1.5_oven_10_n04111531_49.png,n04111531_49.png,0.0,-3.688478,4.7616653,-5.975154
bagnet33,1,672,NaN,chair,chair,inf,0672_hp_dnn_inf_chair_10_n02791124_8099.png,n02791124_8099.png,1.0,13.071103,8.761578,3.0472949
bagnet33,1,673,NaN,clock,bottle,0.7,0673_hp_dnn_0.7_bottle_10_n03937543_9606.png,n03937543_9606.png,0.0,2.6720905,4.29965,-1.1508585
bagnet33,1,674,NaN,cat,cat,inf,0674_hp_dnn_inf_cat_10_n02123045_4644.png,n02123045_4644.png,1.0,5.2085238,3.0490558,1.5269744
bagnet33,1,675,NaN,clock,chair,0.55,0675_hp_dnn_0.55_chair_10_n03376595_12251.png,n03376595_12251.png,0.0,2.0207856,3.4214618,-0.9904277
bagnet33,1,676,NaN,clock,chair,0.7,0676_hp_dnn_0.7_chair_10_n04429376_52822.png,n04429376_52822.png,0.0,3.4068692,4.8503547,-1.0206984
bagnet33,1,677,NaN,chair,chair,1.5,0677_hp_dnn_1.5_chair_10_n04429376_55898.png,n04429376_55898.png,1.0,4.8572817,4.1574616,0.4948475
bagnet33,1,678,NaN,clock,bicycle,1.5,0678_hp_dnn_1.5_bicycle_10_n03792782_5106.png,n03792782_5106.png,0.0,-0.8984417,3.404096,-3.0423534
bagnet33,1,679,NaN,clock,bear,0.4,0679_hp_dnn_0.4_bear_10_n02134418_5735.png,n02134418_5735.png,0.0,-2.246662,4.1718864,-4.5385995
bagnet33,1,680,NaN,clock,oven,0.45,0680_hp_dnn_0.45_oven_10_n04111531_3348.png,n04111531_3348.png,0.0,-3.150949,4.827863,-5.6418724
bagnet33,1,681,NaN,clock,boat,0.7,0681_hp_dnn_0.7_boat_10_n04612504_37043.png,n04612504_37043.png,0.0,0.5454443,3.32606,-1.9661924
bagnet33,1,682,NaN,truck,car,inf,0682_hp_dnn_inf_car_10_n02814533_40315.png,n02814533_40315.png,0.0,11.720349,11.759301,-0.027543135
bagnet33,1,683,NaN,clock,clock,0.45,0683_hp_dnn_0.45_clock_10_n04548280_3782.png,n04548280_3782.png,1.0,4.2499614,1.8509831,1.6963338
bagnet33,1,684,NaN,knife,knife,1.5,0684_hp_dnn_1.5_knife_10_n03041632_36907.png,n03041632_36907.png,1.0,6.7222,3.4857132,2.2885418
bagnet33,1,685,NaN,car,car,inf,0685_hp_dnn_inf_car_10_n04285008_6587.png,n04285008_6587.png,1.0,16.292364,11.166143,3.6247854
bagnet33,1,686,NaN,clock,oven,0.45,0686_hp_dnn_0.45_oven_10_n04111531_9498.png,n04111531_9498.png,0.0,-3.5470936,5.7094383,-6.5453563
bagnet33,1,687,NaN,airplane,clock,0.7,0687_hp_dnn_0.7_clock_10_n03196217_3361.png,n03196217_3361.png,0.0,2.7309895,2.9423954,-0.14948662
bagnet33,1,688,NaN,clock,truck,0.45,0688_hp_dnn_0.45_truck_10_n04467665_40002.png,n04467665_40002.png,0.0,-1.1591449,3.1151705,-3.0223975
bagnet33,1,689,NaN,clock,keyboard,0.7,0689_hp_dnn_0.7_keyboard_10_n03085013_20805.png,n03085013_20805.png,0.0,1.9462316,4.2266393,-1.6124917
bagnet33,1,690,NaN,clock,clock,3,0690_hp_dnn_3_clock_10_n04548280_9816.png,n04548280_9816.png,1.0,8.238042,4.2470226,2.8220768
bagnet33,1,691,NaN,clock,truck,0.4,0691_hp_dnn_0.4_truck_10_n03417042_2293.png,n03417042_2293.png,0.0,-1.4853895,3.7339656,-3.6906414
bagnet33,1,692,NaN,knife,dog,1.5,0692_hp_dnn_1.5_dog_10_n02086910_730.png,n02086910_730.png,0.0,-0.3071892,3.777217,-2.888111
bagnet33,1,693,NaN,chair,truck,3,0693_hp_dnn_3_truck_10_n04467665_25059.png,n04467665_25059.png,0.0,-0.07690021,3.0832202,-2.2345426
bagnet33,1,694,NaN,keyboard,keyboard,3,0694_hp_dnn_3_keyboard_10_n03085013_5738.png,n03085013_5738.png,1.0,32.483395,8.517339,16.946562
bagnet33,1,695,NaN,bottle,bottle,0.7,0695_hp_dnn_0.7_bottle_10_n04557648_3775.png,n04557648_3775.png,1.0,5.0782876,3.513833,1.1062365
bagnet33,1,696,NaN,clock,bear,0.45,0696_hp_dnn_0.45_bear_10_n02134084_22801.png,n02134084_22801.png,0.0,-1.3429626,4.4296227,-4.0818343
bagnet33,1,697,NaN,chair,airplane,3,0697_hp_dnn_3_airplane_10_n02690373_3468.png,n02690373_3468.png,0.0,6.0438128,6.7341523,-0.4881438
bagnet33,1,698,NaN,clock,clock,0.45,0698_hp_dnn_0.45_clock_10_n04548280_4713.png,n04548280_4713.png,1.0,4.9768214,3.370502,1.1358393
bagnet33,1,699,NaN,clock,bird,0.4,0699_hp_dnn_0.4_bird_10_n02051845_3351.png,n02051845_3351.png,0.0,0.7477772,4.072887,-2.3512077
bagnet33,1,700,NaN,elephant,elephant,3,0700_hp_dnn_3_elephant_10_n02504458_6762.png,n02504458_6762.png,1.0,10.537981,2.1754842,5.9131784
bagnet33,1,701,NaN,clock,bicycle,0.4,0701_hp_dnn_0.4_bicycle_10_n03792782_2327.png,n03792782_2327.png,0.0,0.12522031,4.770141,-3.284455
bagnet33,1,702,NaN,knife,bicycle,3,0702_hp_dnn_3_bicycle_10_n03792782_19985.png,n03792782_19985.png,0.0,1.1308955,2.3861668,-0.88761085
bagnet33,1,703,NaN,elephant,bear,3,0703_hp_dnn_3_bear_10_n02134084_2970.png,n02134084_2970.png,0.0,0.1855802,4.8243923,-3.2801356
bagnet33,1,704,NaN,clock,truck,0.55,0704_hp_dnn_0.55_truck_10_n03417042_10642.png,n03417042_10642.png,0.0,-1.4261768,3.5452807,-3.5153513
bagnet33,1,705,NaN,airplane,boat,3,0705_hp_dnn_3_boat_10_n03662601_3938.png,n03662601_3938.png,0.0,1.97218,5.700425,-2.6362677
bagnet33,1,706,NaN,clock,chair,0.4,0706_hp_dnn_0.4_chair_10_n02791124_9414.png,n02791124_9414.png,0.0,1.3134376,2.9160254,-1.1332008
bagnet33,1,707,NaN,clock,clock,0.55,0707_hp_dnn_0.55_clock_10_n04548280_3605.png,n04548280_3605.png,1.0,4.5940347,3.4387805,0.81688803
bagnet33,1,708,NaN,clock,bottle,0.7,0708_hp_dnn_0.7_bottle_10_n04579145_2196.png,n04579145_2196.png,0.0,2.9253147,3.117698,-0.13603553
bagnet33,1,709,NaN,clock,knife,0.7,0709_hp_dnn_0.7_knife_10_n03041632_5801.png,n03041632_5801.png,0.0,2.5270824,3.5760047,-0.7417001
bagnet33,1,710,NaN,clock,boat,0.4,0710_hp_dnn_0.4_boat_10_n02951358_11867.png,n02951358_11867.png,0.0,-0.4055222,3.3167994,-2.632079
bagnet33,1,711,NaN,clock,clock,1,0711_hp_dnn_1_clock_10_n02708093_3266.png,n02708093_3266.png,1.0,14.133353,5.111443,6.3794537
bagnet33,1,712,NaN,clock,bicycle,0.55,0712_hp_dnn_0.55_bicycle_10_n03792782_4251.png,n03792782_4251.png,0.0,-0.34431794,4.0565605,-3.111891
bagnet33,1,713,NaN,clock,bear,1,0713_hp_dnn_1_bear_10_n02132136_11125.png,n02132136_11125.png,0.0,-0.85199666,3.5064735,-3.0819037
bagnet33,1,714,NaN,elephant,elephant,3,0714_hp_dnn_3_elephant_10_n02504458_6821.png,n02504458_6821.png,1.0,5.2976403,2.4405863,2.0202422
bagnet33,1,715,NaN,airplane,truck,3,0715_hp_dnn_3_truck_10_n04467665_77214.png,n04467665_77214.png,0.0,0.20265417,3.6563525,-2.4421337
bagnet33,1,716,NaN,chair,clock,1.5,0716_hp_dnn_1.5_clock_10_n03196217_10190.png,n03196217_10190.png,0.0,2.9822571,3.5840247,-0.42551392
bagnet33,1,717,NaN,elephant,elephant,inf,0717_hp_dnn_inf_elephant_10_n02504458_1506.png,n02504458_1506.png,1.0,17.976095,4.758655,9.346142
bagnet33,1,718,NaN,bicycle,boat,inf,0718_hp_dnn_inf_boat_10_n02951358_4189.png,n02951358_4189.png,0.0,2.5483162,5.537342,-2.1135604
bagnet33,1,719,NaN,clock,bear,0.55,0719_hp_dnn_0.55_bear_10_n02132136_9311.png,n02132136_9311.png,0.0,-0.9359522,3.7252991,-3.2960024
bagnet33,1,720,NaN,airplane,airplane,inf,0720_hp_dnn_inf_airplane_10_n02690373_5564.png,n02690373_5564.png,1.0,6.5184307,5.907386,0.43207398
bagnet33,1,721,NaN,clock,airplane,0.45,0721_hp_dnn_0.45_airplane_10_n02690373_798.png,n02690373_798.png,0.0,1.8599905,4.3603463,-1.7680185
bagnet33,1,722,NaN,clock,airplane,0.7,0722_hp_dnn_0.7_airplane_10_n02690373_9642.png,n02690373_9642.png,0.0,2.0849988,4.5093694,-1.7142888
bagnet33,1,723,NaN,knife,bear,0.7,0723_hp_dnn_0.7_bear_10_n02132136_19995.png,n02132136_19995.png,0.0,-1.4856335,2.3118622,-2.685235
bagnet33,1,724,NaN,bicycle,bicycle,inf,0724_hp_dnn_inf_bicycle_10_n02835271_14914.png,n02835271_14914.png,1.0,24.667519,5.8890495,13.278383
bagnet33,1,725,NaN,clock,chair,0.55,0725_hp_dnn_0.55_chair_10_n03376595_1862.png,n03376595_1862.png,0.0,2.425806,4.521765,-1.482067
bagnet33,1,726,NaN,clock,bird,0.55,0726_hp_dnn_0.55_bird_10_n01824575_8564.png,n01824575_8564.png,0.0,-0.316113,4.373295,-3.3159122
bagnet33,1,727,NaN,knife,knife,inf,0727_hp_dnn_inf_knife_10_n03041632_40450.png,n03041632_40450.png,1.0,12.576784,6.1839843,4.5203924
bagnet33,1,728,NaN,clock,chair,0.45,0728_hp_dnn_0.45_chair_10_n03376595_8196.png,n03376595_8196.png,0.0,2.4514735,4.8157244,-1.6717778
bagnet33,1,729,NaN,truck,boat,inf,0729_hp_dnn_inf_boat_10_n03662601_5968.png,n03662601_5968.png,0.0,3.3448315,7.0625925,-2.628854
bagnet33,1,730,NaN,knife,car,0.55,0730_hp_dnn_0.55_car_10_n03100240_3241.png,n03100240_3241.png,0.0,-2.444254,3.773964,-4.396944
bagnet33,1,731,NaN,cat,cat,inf,0731_hp_dnn_inf_cat_10_n02125311_18354.png,n02125311_18354.png,1.0,4.688576,1.6764247,2.1299129
bagnet33,1,732,NaN,clock,oven,0.55,0732_hp_dnn_0.55_oven_10_n04111531_11505.png,n04111531_11505.png,0.0,-1.1225128,2.8627014,-2.817972
bagnet33,1,733,NaN,clock,clock,1,0733_hp_dnn_1_clock_10_n04548280_4229.png,n04548280_4229.png,1.0,3.3137922,3.1879396,0.08899122
bagnet33,1,734,NaN,clock,car,0.55,0734_hp_dnn_0.55_car_10_n02814533_12532.png,n02814533_12532.png,0.0,-1.9947504,3.0714266,-3.582328
bagnet33,1,735,NaN,chair,chair,1.5,0735_hp_dnn_1.5_chair_10_n03376595_99.png,n03376595_99.png,1.0,6.6773925,4.6175895,1.4565006
bagnet33,1,736,NaN,knife,keyboard,0.4,0736_hp_dnn_0.4_keyboard_10_n04505470_9762.png,n04505470_9762.png,0.0,0.109387696,6.9895296,-4.864995
bagnet33,1,737,NaN,bear,bear,3,0737_hp_dnn_3_bear_10_n02132136_7647.png,n02132136_7647.png,1.0,1.8255402,1.2237496,0.4255302
bagnet33,1,738,NaN,clock,bottle,0.45,0738_hp_dnn_0.45_bottle_10_n04560804_19619.png,n04560804_19619.png,0.0,1.6990291,4.8246055,-2.2101164
bagnet33,1,739,NaN,clock,truck,0.7,0739_hp_dnn_0.7_truck_10_n03417042_4292.png,n03417042_4292.png,0.0,-1.206897,3.7420502,-3.499434
bagnet33,1,740,NaN,clock,elephant,0.4,0740_hp_dnn_0.4_elephant_10_n02504458_3163.png,n02504458_3163.png,0.0,-0.88583267,3.8423913,-3.3433592
bagnet33,1,741,NaN,chair,elephant,1.5,0741_hp_dnn_1.5_elephant_10_n02504458_7144.png,n02504458_7144.png,0.0,0.26310697,2.551058,-1.6178257
bagnet33,1,742,NaN,clock,bear,0.55,0742_hp_dnn_0.55_bear_10_n02133161_4049.png,n02133161_4049.png,0.0,-1.369416,2.9644413,-3.0645
bagnet33,1,743,NaN,knife,bottle,0.7,0743_hp_dnn_0.7_bottle_10_n04591713_7074.png,n04591713_7074.png,0.0,1.5366476,4.0412703,-1.7710357
bagnet33,1,744,NaN,bear,bear,inf,0744_hp_dnn_inf_bear_10_n02132136_13370.png,n02132136_13370.png,1.0,7.0375957,6.772429,0.18750122
