subj,session,trial,rt,object_response,category,condition,imagename,filename,is_correct,targ_act,max_nontarg_act,decision_margin
alexnet_w1_mlp_simclrhn_probe3,1,1,NaN,knife,boat,0.7,0001_hp_dnn_0.7_boat_10_n03662601_12531.png,n03662601_12531.png,0.0,-0.09607667,0.41820934,-0.36365515
alexnet_w1_mlp_simclrhn_probe3,1,2,NaN,clock,chair,0.7,0002_hp_dnn_0.7_chair_10_n04429376_22819.png,n04429376_22819.png,0.0,0.19576877,0.5646817,-0.26086083
alexnet_w1_mlp_simclrhn_probe3,1,3,NaN,clock,elephant,0.45,0003_hp_dnn_0.45_elephant_10_n02504458_582.png,n02504458_582.png,0.0,-0.22245215,0.48201504,-0.49813354
alexnet_w1_mlp_simclrhn_probe3,1,4,NaN,clock,bicycle,0.7,0004_hp_dnn_0.7_bicycle_10_n03792782_41173.png,n03792782_41173.png,0.0,0.055167314,0.51692724,-0.3265136
alexnet_w1_mlp_simclrhn_probe3,1,5,NaN,clock,cat,1.5,0005_hp_dnn_1.5_cat_10_n02123597_7071.png,n02123597_7071.png,0.0,-0.09214076,0.54625803,-0.4514161
alexnet_w1_mlp_simclrhn_probe3,1,6,NaN,knife,cat,0.4,0006_hp_dnn_0.4_cat_10_n02123394_2386.png,n02123394_2386.png,0.0,-0.08679673,0.411188,-0.3521284
alexnet_w1_mlp_simclrhn_probe3,1,7,NaN,oven,oven,inf,0007_hp_dnn_inf_oven_10_n04111531_2201.png,n04111531_2201.png,1.0,3.2826629,1.8134985,1.0388561
alexnet_w1_mlp_simclrhn_probe3,1,8,NaN,knife,cat,0.45,0008_hp_dnn_0.45_cat_10_n02125311_43276.png,n02125311_43276.png,0.0,-0.091481626,0.51480407,-0.42870873
alexnet_w1_mlp_simclrhn_probe3,1,9,NaN,knife,dog,0.45,0009_hp_dnn_0.45_dog_10_n02111500_2439.png,n02111500_2439.png,0.0,-0.17067203,0.4627956,-0.44792926
alexnet_w1_mlp_simclrhn_probe3,1,10,NaN,knife,bicycle,0.4,0010_hp_dnn_0.4_bicycle_10_n02835271_12599.png,n02835271_12599.png,0.0,-0.15389341,0.46048927,-0.43443418
alexnet_w1_mlp_simclrhn_probe3,1,11,NaN,knife,dog,0.45,0011_hp_dnn_0.45_dog_10_n02096585_391.png,n02096585_391.png,0.0,-0.17259589,0.4964325,-0.47307453
alexnet_w1_mlp_simclrhn_probe3,1,12,NaN,clock,car,0.7,0012_hp_dnn_0.7_car_10_n04285008_12138.png,n04285008_12138.png,0.0,-0.14679213,0.91907316,-0.7536806
alexnet_w1_mlp_simclrhn_probe3,1,13,NaN,clock,car,0.7,0013_hp_dnn_0.7_car_10_n02814533_44083.png,n02814533_44083.png,0.0,-0.43678823,0.87615937,-0.9283942
alexnet_w1_mlp_simclrhn_probe3,1,14,NaN,oven,oven,inf,0014_hp_dnn_inf_oven_10_n04111531_2447.png,n04111531_2447.png,1.0,4.500987,1.1393037,2.3770692
alexnet_w1_mlp_simclrhn_probe3,1,15,NaN,clock,chair,0.55,0015_hp_dnn_0.55_chair_10_n03376595_9524.png,n03376595_9524.png,0.0,0.1539772,0.45660436,-0.2139897
alexnet_w1_mlp_simclrhn_probe3,1,16,NaN,clock,elephant,0.55,0016_hp_dnn_0.55_elephant_10_n02504458_3092.png,n02504458_3092.png,0.0,-0.240711,0.6021765,-0.5960115
alexnet_w1_mlp_simclrhn_probe3,1,17,NaN,knife,truck,0.4,0017_hp_dnn_0.4_truck_10_n04467665_42126.png,n04467665_42126.png,0.0,-0.2429327,0.5313781,-0.54752046
alexnet_w1_mlp_simclrhn_probe3,1,18,NaN,elephant,elephant,inf,0018_hp_dnn_inf_elephant_10_n02504458_12303.png,n02504458_12303.png,1.0,11.270939,5.283823,4.2335305
alexnet_w1_mlp_simclrhn_probe3,1,19,NaN,clock,clock,0.4,0019_hp_dnn_0.4_clock_10_n04548280_7243.png,n04548280_7243.png,1.0,1.1637529,0.30156597,0.60965824
alexnet_w1_mlp_simclrhn_probe3,1,20,NaN,knife,airplane,0.4,0020_hp_dnn_0.4_airplane_10_n02690373_6978.png,n02690373_6978.png,0.0,0.034169465,0.6337482,-0.4239662
alexnet_w1_mlp_simclrhn_probe3,1,21,NaN,boat,boat,3,0021_hp_dnn_3_boat_10_n04612504_4773.png,n04612504_4773.png,1.0,2.5577137,1.7083478,0.60059243
alexnet_w1_mlp_simclrhn_probe3,1,22,NaN,cat,bottle,inf,0022_hp_dnn_inf_bottle_10_n04560804_5979.png,n04560804_5979.png,0.0,0.17226863,0.6278867,-0.32217064
alexnet_w1_mlp_simclrhn_probe3,1,23,NaN,airplane,airplane,3,0023_hp_dnn_3_airplane_10_n02690373_21922.png,n02690373_21922.png,1.0,1.9909126,1.3893021,0.42540282
alexnet_w1_mlp_simclrhn_probe3,1,24,NaN,knife,bird,0.4,0024_hp_dnn_0.4_bird_10_n01820546_6431.png,n01820546_6431.png,0.0,-0.077749744,0.35494062,-0.3059583
alexnet_w1_mlp_simclrhn_probe3,1,25,NaN,bird,bird,inf,0025_hp_dnn_inf_bird_10_n01795545_9555.png,n01795545_9555.png,1.0,0.77004063,0.63564587,0.09503145
alexnet_w1_mlp_simclrhn_probe3,1,26,NaN,bicycle,truck,3,0026_hp_dnn_3_truck_10_n04467665_45796.png,n04467665_45796.png,0.0,0.90178216,1.8542354,-0.6734862
alexnet_w1_mlp_simclrhn_probe3,1,27,NaN,bottle,oven,1,0027_hp_dnn_1_oven_10_n04111531_5906.png,n04111531_5906.png,0.0,-0.26625758,0.8901114,-0.81767637
alexnet_w1_mlp_simclrhn_probe3,1,28,NaN,knife,bicycle,0.45,0028_hp_dnn_0.45_bicycle_10_n03792782_6133.png,n03792782_6133.png,0.0,-0.21447587,0.6869323,-0.63739187
alexnet_w1_mlp_simclrhn_probe3,1,29,NaN,keyboard,keyboard,1,0029_hp_dnn_1_keyboard_10_n04505470_4741.png,n04505470_4741.png,1.0,1.6880955,0.61054575,0.7619427
alexnet_w1_mlp_simclrhn_probe3,1,30,NaN,car,car,1.5,0030_hp_dnn_1.5_car_10_n02814533_5085.png,n02814533_5085.png,1.0,1.3153075,0.8628273,0.31995183
alexnet_w1_mlp_simclrhn_probe3,1,31,NaN,knife,chair,0.4,0031_hp_dnn_0.4_chair_10_n04429376_10628.png,n04429376_10628.png,0.0,0.11596295,0.45796043,-0.24182874
alexnet_w1_mlp_simclrhn_probe3,1,32,NaN,clock,clock,0.55,0032_hp_dnn_0.55_clock_10_n02708093_5311.png,n02708093_5311.png,1.0,0.97493,0.28852963,0.48535836
alexnet_w1_mlp_simclrhn_probe3,1,33,NaN,chair,chair,0.55,0033_hp_dnn_0.55_chair_10_n03376595_10460.png,n03376595_10460.png,1.0,0.6230792,0.5043063,0.0839851
alexnet_w1_mlp_simclrhn_probe3,1,34,NaN,cat,bear,3,0034_hp_dnn_3_bear_10_n02133161_1118.png,n02133161_1118.png,0.0,-0.18065724,0.45603153,-0.45020697
alexnet_w1_mlp_simclrhn_probe3,1,35,NaN,knife,knife,3,0035_hp_dnn_3_knife_10_n03041632_11603.png,n03041632_11603.png,1.0,0.8759552,0.52595484,0.24748765
alexnet_w1_mlp_simclrhn_probe3,1,36,NaN,knife,dog,0.4,0036_hp_dnn_0.4_dog_10_n02108422_7493.png,n02108422_7493.png,0.0,-0.17580247,0.44336617,-0.43781835
alexnet_w1_mlp_simclrhn_probe3,1,37,NaN,keyboard,keyboard,3,0037_hp_dnn_3_keyboard_10_n04505470_550.png,n04505470_550.png,1.0,2.0148013,0.537734,1.0444443
alexnet_w1_mlp_simclrhn_probe3,1,38,NaN,clock,dog,1.5,0038_hp_dnn_1.5_dog_10_n02097047_1003.png,n02097047_1003.png,0.0,-0.1575848,0.3182986,-0.3365004
alexnet_w1_mlp_simclrhn_probe3,1,39,NaN,bird,bird,1.5,0039_hp_dnn_1.5_bird_10_n01616318_9819.png,n01616318_9819.png,1.0,0.60235053,0.035836514,0.40058592
alexnet_w1_mlp_simclrhn_probe3,1,40,NaN,knife,cat,0.55,0040_hp_dnn_0.55_cat_10_n02123597_1016.png,n02123597_1016.png,0.0,-0.0023515492,0.34846094,-0.2480619
alexnet_w1_mlp_simclrhn_probe3,1,41,NaN,clock,bear,1,0041_hp_dnn_1_bear_10_n02134418_971.png,n02134418_971.png,0.0,-0.16493976,0.271895,-0.30888882
alexnet_w1_mlp_simclrhn_probe3,1,42,NaN,clock,bear,0.7,0042_hp_dnn_0.7_bear_10_n02132136_10944.png,n02132136_10944.png,0.0,-0.26908612,0.27453685,-0.3843995
alexnet_w1_mlp_simclrhn_probe3,1,43,NaN,clock,elephant,1,0043_hp_dnn_1_elephant_10_n02504458_4439.png,n02504458_4439.png,0.0,-0.22680168,0.39019457,-0.43628222
alexnet_w1_mlp_simclrhn_probe3,1,44,NaN,keyboard,keyboard,0.4,0044_hp_dnn_0.4_keyboard_10_n03085013_2362.png,n03085013_2362.png,1.0,0.88049716,0.38466662,0.35060513
alexnet_w1_mlp_simclrhn_probe3,1,45,NaN,clock,dog,1.5,0045_hp_dnn_1.5_dog_10_n02097474_9488.png,n02097474_9488.png,0.0,-0.2511837,0.45830402,-0.50168353
alexnet_w1_mlp_simclrhn_probe3,1,46,NaN,clock,clock,inf,0046_hp_dnn_inf_clock_10_n04548280_3308.png,n04548280_3308.png,1.0,11.223427,-0.018935096,7.9495506
alexnet_w1_mlp_simclrhn_probe3,1,47,NaN,clock,bear,1.5,0047_hp_dnn_1.5_bear_10_n02133161_334.png,n02133161_334.png,0.0,-0.16625136,0.46021387,-0.4429778
alexnet_w1_mlp_simclrhn_probe3,1,48,NaN,clock,knife,0.45,0048_hp_dnn_0.45_knife_10_n03041632_6708.png,n03041632_6708.png,0.0,0.28016296,0.70010453,-0.29694355
alexnet_w1_mlp_simclrhn_probe3,1,49,NaN,clock,car,0.55,0049_hp_dnn_0.55_car_10_n02814533_81092.png,n02814533_81092.png,0.0,-0.3170102,0.940846,-0.8894387
alexnet_w1_mlp_simclrhn_probe3,1,50,NaN,bottle,bottle,0.45,0050_hp_dnn_0.45_bottle_10_n03937543_11897.png,n03937543_11897.png,1.0,0.7748501,0.65558684,0.08433184
alexnet_w1_mlp_simclrhn_probe3,1,51,NaN,clock,airplane,3,0051_hp_dnn_3_airplane_10_n02690373_4429.png,n02690373_4429.png,0.0,1.0378581,1.7151414,-0.4789116
alexnet_w1_mlp_simclrhn_probe3,1,52,NaN,clock,knife,0.4,0052_hp_dnn_0.4_knife_10_n03041632_22964.png,n03041632_22964.png,0.0,0.34611675,0.47546458,-0.09146273
alexnet_w1_mlp_simclrhn_probe3,1,53,NaN,knife,knife,1.5,0053_hp_dnn_1.5_knife_10_n03041632_33075.png,n03041632_33075.png,1.0,0.57322276,0.28630304,0.20288287
alexnet_w1_mlp_simclrhn_probe3,1,54,NaN,clock,bird,0.7,0054_hp_dnn_0.7_bird_10_n02006656_1412.png,n02006656_1412.png,0.0,0.058137666,0.38186964,-0.22891308
alexnet_w1_mlp_simclrhn_probe3,1,55,NaN,clock,clock,1,0055_hp_dnn_1_clock_10_n02708093_3173.png,n02708093_3173.png,1.0,6.9063554,0.53803927,4.5030794
alexnet_w1_mlp_simclrhn_probe3,1,56,NaN,knife,keyboard,0.45,0056_hp_dnn_0.45_keyboard_10_n03085013_22016.png,n03085013_22016.png,0.0,0.3202907,0.55845803,-0.16840972
alexnet_w1_mlp_simclrhn_probe3,1,57,NaN,knife,elephant,0.55,0057_hp_dnn_0.55_elephant_10_n02504458_11214.png,n02504458_11214.png,0.0,-0.23872654,0.48015457,-0.50832576
alexnet_w1_mlp_simclrhn_probe3,1,58,NaN,knife,chair,0.7,0058_hp_dnn_0.7_chair_10_n04099969_13775.png,n04099969_13775.png,0.0,0.38560617,0.7053322,-0.22608046
alexnet_w1_mlp_simclrhn_probe3,1,59,NaN,clock,bicycle,0.4,0059_hp_dnn_0.4_bicycle_10_n02835271_8098.png,n02835271_8098.png,0.0,-0.08028026,0.64439315,-0.5124215
alexnet_w1_mlp_simclrhn_probe3,1,60,NaN,clock,clock,0.4,0060_hp_dnn_0.4_clock_10_n04548280_1126.png,n04548280_1126.png,1.0,0.9711192,0.3153448,0.46370253
alexnet_w1_mlp_simclrhn_probe3,1,61,NaN,clock,bicycle,0.45,0061_hp_dnn_0.45_bicycle_10_n02835271_2050.png,n02835271_2050.png,0.0,0.023578342,0.676236,-0.46149865
alexnet_w1_mlp_simclrhn_probe3,1,62,NaN,oven,oven,1,0062_hp_dnn_1_oven_10_n04111531_891.png,n04111531_891.png,1.0,0.7477983,0.59803754,0.10589687
alexnet_w1_mlp_simclrhn_probe3,1,63,NaN,clock,bottle,0.7,0063_hp_dnn_0.7_bottle_10_n02823428_6201.png,n02823428_6201.png,0.0,0.35785818,0.62946653,-0.1920561
alexnet_w1_mlp_simclrhn_probe3,1,64,NaN,clock,bicycle,0.7,0064_hp_dnn_0.7_bicycle_10_n02835271_20175.png,n02835271_20175.png,0.0,1.1711748,1.1738125,-0.0018651667
alexnet_w1_mlp_simclrhn_probe3,1,65,NaN,knife,cat,3,0065_hp_dnn_3_cat_10_n02123597_13175.png,n02123597_13175.png,0.0,0.25523856,0.41892284,-0.115742266
alexnet_w1_mlp_simclrhn_probe3,1,66,NaN,knife,dog,0.4,0066_hp_dnn_0.4_dog_10_n02085936_4391.png,n02085936_4391.png,0.0,-0.14033751,0.42429882,-0.3992582
alexnet_w1_mlp_simclrhn_probe3,1,67,NaN,airplane,airplane,1.5,0067_hp_dnn_1.5_airplane_10_n02690373_8846.png,n02690373_8846.png,1.0,1.052953,0.4682826,0.41342443
alexnet_w1_mlp_simclrhn_probe3,1,68,NaN,knife,cat,1.5,0068_hp_dnn_1.5_cat_10_n02123597_10301.png,n02123597_10301.png,0.0,-0.0008934463,0.46446645,-0.32905915
alexnet_w1_mlp_simclrhn_probe3,1,69,NaN,clock,elephant,0.7,0069_hp_dnn_0.7_elephant_10_n02504458_6135.png,n02504458_6135.png,0.0,-0.2657025,0.39482394,-0.4670627
alexnet_w1_mlp_simclrhn_probe3,1,70,NaN,knife,keyboard,0.45,0070_hp_dnn_0.45_keyboard_10_n03085013_22585.png,n03085013_22585.png,0.0,-0.21255271,0.5291638,-0.5244728
alexnet_w1_mlp_simclrhn_probe3,1,71,NaN,clock,bird,1,0071_hp_dnn_1_bird_10_n02017213_1150.png,n02017213_1150.png,0.0,-0.10310727,0.25406405,-0.25255826
alexnet_w1_mlp_simclrhn_probe3,1,72,NaN,chair,bottle,3,0072_hp_dnn_3_bottle_10_n04560804_30885.png,n04560804_30885.png,0.0,1.410341,2.1070483,-0.49264643
alexnet_w1_mlp_simclrhn_probe3,1,73,NaN,bicycle,bicycle,inf,0073_hp_dnn_inf_bicycle_10_n02835271_9191.png,n02835271_9191.png,1.0,17.197933,1.2892644,11.249127
alexnet_w1_mlp_simclrhn_probe3,1,74,NaN,chair,truck,inf,0074_hp_dnn_inf_truck_10_n03796401_7699.png,n03796401_7699.png,0.0,1.3032436,3.258492,-1.3825694
alexnet_w1_mlp_simclrhn_probe3,1,75,NaN,knife,knife,1.5,0075_hp_dnn_1.5_knife_10_n03041632_50332.png,n03041632_50332.png,1.0,1.0350263,0.44397685,0.41793507
alexnet_w1_mlp_simclrhn_probe3,1,76,NaN,knife,knife,0.55,0076_hp_dnn_0.55_knife_10_n03041632_36247.png,n03041632_36247.png,1.0,0.45062685,0.35423127,0.06816197
alexnet_w1_mlp_simclrhn_probe3,1,77,NaN,clock,knife,1.5,0077_hp_dnn_1.5_knife_10_n03041632_23667.png,n03041632_23667.png,0.0,0.25703272,1.1716243,-0.6467139
alexnet_w1_mlp_simclrhn_probe3,1,78,NaN,bird,dog,3,0078_hp_dnn_3_dog_10_n02102973_7028.png,n02102973_7028.png,0.0,0.11882034,1.9616253,-1.3030599
alexnet_w1_mlp_simclrhn_probe3,1,79,NaN,clock,oven,0.55,0079_hp_dnn_0.55_oven_10_n04111531_9867.png,n04111531_9867.png,0.0,-0.16251735,0.7226243,-0.62588966
alexnet_w1_mlp_simclrhn_probe3,1,80,NaN,clock,car,0.55,0080_hp_dnn_0.55_car_10_n02814533_8121.png,n02814533_8121.png,0.0,0.36708736,0.8843159,-0.36573583
alexnet_w1_mlp_simclrhn_probe3,1,81,NaN,knife,boat,0.55,0081_hp_dnn_0.55_boat_10_n03662601_5210.png,n03662601_5210.png,0.0,-0.0148474965,0.46755,-0.34110653
alexnet_w1_mlp_simclrhn_probe3,1,82,NaN,clock,car,1.5,0082_hp_dnn_1.5_car_10_n03100240_6192.png,n03100240_6192.png,0.0,-0.023272939,0.42410144,-0.31634146
alexnet_w1_mlp_simclrhn_probe3,1,83,NaN,clock,oven,0.45,0083_hp_dnn_0.45_oven_10_n04111531_9314.png,n04111531_9314.png,0.0,0.05071699,0.43967804,-0.275037
alexnet_w1_mlp_simclrhn_probe3,1,84,NaN,knife,cat,0.4,0084_hp_dnn_0.4_cat_10_n02123045_5189.png,n02123045_5189.png,0.0,-0.065948196,0.43739578,-0.35591796
alexnet_w1_mlp_simclrhn_probe3,1,85,NaN,clock,truck,0.7,0085_hp_dnn_0.7_truck_10_n04467665_30189.png,n04467665_30189.png,0.0,-0.0049910694,1.4869436,-1.0549572
alexnet_w1_mlp_simclrhn_probe3,1,86,NaN,clock,airplane,1.5,0086_hp_dnn_1.5_airplane_10_n02690373_3377.png,n02690373_3377.png,0.0,0.4991899,1.1041178,-0.4277486
alexnet_w1_mlp_simclrhn_probe3,1,87,NaN,knife,oven,0.4,0087_hp_dnn_0.4_oven_10_n04111531_1750.png,n04111531_1750.png,0.0,0.07093237,0.53301716,-0.32674327
alexnet_w1_mlp_simclrhn_probe3,1,88,NaN,cat,dog,inf,0088_hp_dnn_inf_dog_10_n02097047_2877.png,n02097047_2877.png,0.0,1.4993912,2.6014428,-0.7792682
alexnet_w1_mlp_simclrhn_probe3,1,89,NaN,cat,cat,inf,0089_hp_dnn_inf_cat_10_n02124075_15171.png,n02124075_15171.png,1.0,8.51806,1.1983118,5.1758437
alexnet_w1_mlp_simclrhn_probe3,1,90,NaN,knife,car,0.4,0090_hp_dnn_0.4_car_10_n03100240_23060.png,n03100240_23060.png,0.0,-0.35615864,0.54088247,-0.63430387
alexnet_w1_mlp_simclrhn_probe3,1,91,NaN,knife,knife,inf,0091_hp_dnn_inf_knife_10_n03041632_20595.png,n03041632_20595.png,1.0,2.514317,2.058197,0.32252556
alexnet_w1_mlp_simclrhn_probe3,1,92,NaN,clock,knife,0.45,0092_hp_dnn_0.45_knife_10_n03041632_2184.png,n03041632_2184.png,0.0,0.43658704,0.7972763,-0.25504583
alexnet_w1_mlp_simclrhn_probe3,1,93,NaN,knife,knife,0.4,0093_hp_dnn_0.4_knife_10_n03041632_42162.png,n03041632_42162.png,1.0,0.70832926,0.3528762,0.25134328
alexnet_w1_mlp_simclrhn_probe3,1,94,NaN,chair,elephant,1,0094_hp_dnn_1_elephant_10_n02504458_3535.png,n02504458_3535.png,0.0,-0.22043392,0.7184231,-0.66387224
alexnet_w1_mlp_simclrhn_probe3,1,95,NaN,bird,bird,inf,0095_hp_dnn_inf_bird_10_n02056570_11311.png,n02056570_11311.png,1.0,2.06069,1.0859145,0.6892703
alexnet_w1_mlp_simclrhn_probe3,1,96,NaN,knife,chair,0.4,0096_hp_dnn_0.4_chair_10_n03376595_4121.png,n03376595_4121.png,0.0,0.29873377,0.55021346,-0.17782299
alexnet_w1_mlp_simclrhn_probe3,1,97,NaN,clock,dog,1,0097_hp_dnn_1_dog_10_n02086240_3572.png,n02086240_3572.png,0.0,-0.24270186,0.34237084,-0.41370887
alexnet_w1_mlp_simclrhn_probe3,1,98,NaN,elephant,elephant,inf,0098_hp_dnn_inf_elephant_10_n02504013_4523.png,n02504013_4523.png,1.0,19.307362,5.3555603,9.865414
alexnet_w1_mlp_simclrhn_probe3,1,99,NaN,oven,chair,inf,0099_hp_dnn_inf_chair_10_n04429376_7902.png,n04429376_7902.png,0.0,1.8891734,3.8377497,-1.3778516
alexnet_w1_mlp_simclrhn_probe3,1,100,NaN,clock,bird,0.45,0100_hp_dnn_0.45_bird_10_n01530575_14402.png,n01530575_14402.png,0.0,-0.069364406,0.5527795,-0.43992218
alexnet_w1_mlp_simclrhn_probe3,1,101,NaN,clock,bottle,0.55,0101_hp_dnn_0.55_bottle_10_n02823428_11140.png,n02823428_11140.png,0.0,0.21030971,1.1340436,-0.65317845
alexnet_w1_mlp_simclrhn_probe3,1,102,NaN,clock,airplane,0.55,0102_hp_dnn_0.55_airplane_10_n02690373_7685.png,n02690373_7685.png,0.0,0.14990649,0.6069608,-0.3231862
alexnet_w1_mlp_simclrhn_probe3,1,103,NaN,knife,boat,0.45,0103_hp_dnn_0.45_boat_10_n03344393_4827.png,n03344393_4827.png,0.0,0.22100277,0.41107452,-0.13440102
alexnet_w1_mlp_simclrhn_probe3,1,104,NaN,knife,dog,0.7,0104_hp_dnn_0.7_dog_10_n02088364_8674.png,n02088364_8674.png,0.0,-0.19034323,0.34880656,-0.38123646
alexnet_w1_mlp_simclrhn_probe3,1,105,NaN,knife,knife,0.45,0105_hp_dnn_0.45_knife_10_n03041632_32004.png,n03041632_32004.png,1.0,0.48013917,0.47281173,0.005181281
alexnet_w1_mlp_simclrhn_probe3,1,106,NaN,keyboard,keyboard,3,0106_hp_dnn_3_keyboard_10_n03085013_22949.png,n03085013_22949.png,1.0,3.6717777,0.54095775,2.213824
alexnet_w1_mlp_simclrhn_probe3,1,107,NaN,knife,knife,0.7,0107_hp_dnn_0.7_knife_10_n03041632_4044.png,n03041632_4044.png,1.0,0.7390356,0.6691207,0.049437284
alexnet_w1_mlp_simclrhn_probe3,1,108,NaN,airplane,airplane,1.5,0108_hp_dnn_1.5_airplane_10_n02690373_6455.png,n02690373_6455.png,1.0,2.0146556,0.7369048,0.9035062
alexnet_w1_mlp_simclrhn_probe3,1,109,NaN,airplane,airplane,0.55,0109_hp_dnn_0.55_airplane_10_n02690373_19646.png,n02690373_19646.png,1.0,0.62698907,0.27848974,0.24642624
alexnet_w1_mlp_simclrhn_probe3,1,110,NaN,boat,boat,inf,0110_hp_dnn_inf_boat_10_n04612504_1692.png,n04612504_1692.png,1.0,8.079341,5.4217668,1.8791888
alexnet_w1_mlp_simclrhn_probe3,1,111,NaN,clock,cat,0.55,0111_hp_dnn_0.55_cat_10_n02124075_853.png,n02124075_853.png,0.0,-0.04788964,0.5613304,-0.43078363
alexnet_w1_mlp_simclrhn_probe3,1,112,NaN,knife,boat,1,0112_hp_dnn_1_boat_10_n04273569_6071.png,n04273569_6071.png,0.0,0.23728745,0.50946736,-0.19246025
alexnet_w1_mlp_simclrhn_probe3,1,113,NaN,knife,bird,1.5,0113_hp_dnn_1.5_bird_10_n01616318_1214.png,n01616318_1214.png,0.0,-0.16760267,0.5663491,-0.5189823
alexnet_w1_mlp_simclrhn_probe3,1,114,NaN,truck,car,1.5,0114_hp_dnn_1.5_car_10_n02814533_14627.png,n02814533_14627.png,0.0,1.5729412,1.854549,-0.19912684
alexnet_w1_mlp_simclrhn_probe3,1,115,NaN,knife,keyboard,0.7,0115_hp_dnn_0.7_keyboard_10_n03085013_1483.png,n03085013_1483.png,0.0,0.3191802,0.4503749,-0.09276867
alexnet_w1_mlp_simclrhn_probe3,1,116,NaN,airplane,airplane,0.55,0116_hp_dnn_0.55_airplane_10_n02690373_7401.png,n02690373_7401.png,1.0,0.75548005,0.46325037,0.20663759
alexnet_w1_mlp_simclrhn_probe3,1,117,NaN,clock,keyboard,0.55,0117_hp_dnn_0.55_keyboard_10_n03085013_6963.png,n03085013_6963.png,0.0,-0.18413767,1.1435481,-0.93881565
alexnet_w1_mlp_simclrhn_probe3,1,118,NaN,bicycle,knife,3,0118_hp_dnn_3_knife_10_n03041632_1407.png,n03041632_1407.png,0.0,0.48733464,1.4545989,-0.6839591
alexnet_w1_mlp_simclrhn_probe3,1,119,NaN,clock,elephant,1.5,0119_hp_dnn_1.5_elephant_10_n02504458_5137.png,n02504458_5137.png,0.0,0.056091994,0.49329636,-0.30915016
alexnet_w1_mlp_simclrhn_probe3,1,120,NaN,clock,clock,inf,0120_hp_dnn_inf_clock_10_n02708093_6635.png,n02708093_6635.png,1.0,5.6620865,1.6721183,2.8213336
alexnet_w1_mlp_simclrhn_probe3,1,121,NaN,knife,oven,0.4,0121_hp_dnn_0.4_oven_10_n04111531_5927.png,n04111531_5927.png,0.0,-0.08154232,0.45768994,-0.3812948
alexnet_w1_mlp_simclrhn_probe3,1,122,NaN,clock,clock,inf,0122_hp_dnn_inf_clock_10_n02708093_2043.png,n02708093_2043.png,1.0,1.1778088,0.6673207,0.36096954
alexnet_w1_mlp_simclrhn_probe3,1,123,NaN,knife,airplane,0.4,0123_hp_dnn_0.4_airplane_10_n02690373_7300.png,n02690373_7300.png,0.0,0.16311729,0.47890174,-0.22329333
alexnet_w1_mlp_simclrhn_probe3,1,124,NaN,clock,oven,0.55,0124_hp_dnn_0.55_oven_10_n04111531_190.png,n04111531_190.png,0.0,-0.15448505,0.42021862,-0.4063769
alexnet_w1_mlp_simclrhn_probe3,1,125,NaN,bird,dog,3,0125_hp_dnn_3_dog_10_n02091244_8497.png,n02091244_8497.png,0.0,-0.42981893,0.5315678,-0.6798031
alexnet_w1_mlp_simclrhn_probe3,1,126,NaN,knife,bicycle,0.7,0126_hp_dnn_0.7_bicycle_10_n03792782_15932.png,n03792782_15932.png,0.0,-0.144283,0.33049828,-0.33572108
alexnet_w1_mlp_simclrhn_probe3,1,127,NaN,knife,bear,0.4,0127_hp_dnn_0.4_bear_10_n02133161_463.png,n02133161_463.png,0.0,-0.1444145,0.51563215,-0.46672347
alexnet_w1_mlp_simclrhn_probe3,1,128,NaN,clock,cat,0.7,0128_hp_dnn_0.7_cat_10_n02123045_11126.png,n02123045_11126.png,0.0,-0.05211017,0.8310512,-0.6244894
alexnet_w1_mlp_simclrhn_probe3,1,129,NaN,knife,clock,0.7,0129_hp_dnn_0.7_clock_10_n04548280_8646.png,n04548280_8646.png,0.0,0.60587233,0.8113461,-0.14529191
alexnet_w1_mlp_simclrhn_probe3,1,130,NaN,clock,bottle,0.55,0130_hp_dnn_0.55_bottle_10_n03983396_11597.png,n03983396_11597.png,0.0,0.27509993,0.66627645,-0.27660358
alexnet_w1_mlp_simclrhn_probe3,1,131,NaN,truck,truck,3,0131_hp_dnn_3_truck_10_n03417042_212.png,n03417042_212.png,1.0,1.4759251,1.1926024,0.2003394
alexnet_w1_mlp_simclrhn_probe3,1,132,NaN,keyboard,keyboard,1,0132_hp_dnn_1_keyboard_10_n04505470_1724.png,n04505470_1724.png,1.0,0.97209984,0.62685597,0.2441243
alexnet_w1_mlp_simclrhn_probe3,1,133,NaN,chair,chair,1,0133_hp_dnn_1_chair_10_n04099969_14028.png,n04099969_14028.png,1.0,1.0546823,0.36421046,0.4882373
alexnet_w1_mlp_simclrhn_probe3,1,134,NaN,knife,cat,0.45,0134_hp_dnn_0.45_cat_10_n02124075_2138.png,n02124075_2138.png,0.0,-0.11246749,0.6249502,-0.521433
alexnet_w1_mlp_simclrhn_probe3,1,135,NaN,boat,boat,inf,0135_hp_dnn_inf_boat_10_n03662601_3145.png,n03662601_3145.png,1.0,5.315965,4.6804233,0.449396
alexnet_w1_mlp_simclrhn_probe3,1,136,NaN,cat,cat,3,0136_hp_dnn_3_cat_10_n02123045_1120.png,n02123045_1120.png,1.0,0.3327328,0.16413483,0.11921677
alexnet_w1_mlp_simclrhn_probe3,1,137,NaN,boat,boat,inf,0137_hp_dnn_inf_boat_10_n04612504_31305.png,n04612504_31305.png,1.0,9.747653,4.7380967,3.5422914
alexnet_w1_mlp_simclrhn_probe3,1,138,NaN,clock,chair,1,0138_hp_dnn_1_chair_10_n04099969_4275.png,n04099969_4275.png,0.0,0.17619318,0.95685226,-0.55200934
alexnet_w1_mlp_simclrhn_probe3,1,139,NaN,knife,keyboard,0.4,0139_hp_dnn_0.4_keyboard_10_n03085013_23005.png,n03085013_23005.png,0.0,-0.14982283,0.40803295,-0.39446363
alexnet_w1_mlp_simclrhn_probe3,1,140,NaN,airplane,airplane,1,0140_hp_dnn_1_airplane_10_n02690373_9618.png,n02690373_9618.png,1.0,0.44653803,0.3111946,0.09570226
alexnet_w1_mlp_simclrhn_probe3,1,141,NaN,knife,knife,0.55,0141_hp_dnn_0.55_knife_10_n03041632_17338.png,n03041632_17338.png,1.0,0.89797914,0.53274816,0.2582573
alexnet_w1_mlp_simclrhn_probe3,1,142,NaN,clock,clock,0.45,0142_hp_dnn_0.45_clock_10_n04548280_8225.png,n04548280_8225.png,1.0,0.58542013,0.44876492,0.09662983
alexnet_w1_mlp_simclrhn_probe3,1,143,NaN,car,car,inf,0143_hp_dnn_inf_car_10_n03100240_8907.png,n03100240_8907.png,1.0,8.709208,1.9751757,4.7616796
alexnet_w1_mlp_simclrhn_probe3,1,144,NaN,chair,chair,1.5,0144_hp_dnn_1.5_chair_10_n03376595_6865.png,n03376595_6865.png,1.0,2.4425838,1.5001237,0.6664199
alexnet_w1_mlp_simclrhn_probe3,1,145,NaN,clock,bicycle,0.45,0145_hp_dnn_0.45_bicycle_10_n03792782_44296.png,n03792782_44296.png,0.0,-0.121266186,0.39971757,-0.36839116
alexnet_w1_mlp_simclrhn_probe3,1,146,NaN,oven,boat,1.5,0146_hp_dnn_1.5_boat_10_n04273569_1233.png,n04273569_1233.png,0.0,-0.27123925,0.500417,-0.5456434
alexnet_w1_mlp_simclrhn_probe3,1,147,NaN,clock,bird,1,0147_hp_dnn_1_bird_10_n01824575_12784.png,n01824575_12784.png,0.0,-0.019215731,0.3107814,-0.23334321
alexnet_w1_mlp_simclrhn_probe3,1,148,NaN,boat,boat,3,0148_hp_dnn_3_boat_10_n03344393_408.png,n03344393_408.png,1.0,2.7739396,2.309089,0.32869905
alexnet_w1_mlp_simclrhn_probe3,1,149,NaN,airplane,airplane,1,0149_hp_dnn_1_airplane_10_n02690373_220.png,n02690373_220.png,1.0,1.2376459,0.7256406,0.3620424
alexnet_w1_mlp_simclrhn_probe3,1,150,NaN,chair,chair,3,0150_hp_dnn_3_chair_10_n04429376_10546.png,n04429376_10546.png,1.0,1.9451361,1.7234437,0.15676014
alexnet_w1_mlp_simclrhn_probe3,1,151,NaN,clock,oven,0.7,0151_hp_dnn_0.7_oven_10_n04111531_4749.png,n04111531_4749.png,0.0,0.23579171,0.62698776,-0.27661738
alexnet_w1_mlp_simclrhn_probe3,1,152,NaN,clock,truck,0.4,0152_hp_dnn_0.4_truck_10_n03417042_18124.png,n03417042_18124.png,0.0,-0.18617365,0.44877338,-0.44897538
alexnet_w1_mlp_simclrhn_probe3,1,153,NaN,clock,clock,3,0153_hp_dnn_3_clock_10_n03196217_7353.png,n03196217_7353.png,1.0,1.0361252,0.55709124,0.33872816
alexnet_w1_mlp_simclrhn_probe3,1,154,NaN,clock,dog,0.7,0154_hp_dnn_0.7_dog_10_n02098286_2699.png,n02098286_2699.png,0.0,-0.1997503,0.44760498,-0.45774934
alexnet_w1_mlp_simclrhn_probe3,1,155,NaN,knife,truck,0.4,0155_hp_dnn_0.4_truck_10_n03796401_3651.png,n03796401_3651.png,0.0,-0.21712835,0.5211312,-0.5220283
alexnet_w1_mlp_simclrhn_probe3,1,156,NaN,clock,bottle,0.4,0156_hp_dnn_0.4_bottle_10_n03983396_4165.png,n03983396_4165.png,0.0,0.165117,0.3852788,-0.1556779
alexnet_w1_mlp_simclrhn_probe3,1,157,NaN,clock,knife,1,0157_hp_dnn_1_knife_10_n03041632_25257.png,n03041632_25257.png,0.0,-0.14129812,1.0121292,-0.81559634
alexnet_w1_mlp_simclrhn_probe3,1,158,NaN,chair,chair,3,0158_hp_dnn_3_chair_10_n04099969_1229.png,n04099969_1229.png,1.0,3.0032477,0.9071399,1.4821721
alexnet_w1_mlp_simclrhn_probe3,1,159,NaN,bird,bird,inf,0159_hp_dnn_inf_bird_10_n01798484_518.png,n01798484_518.png,1.0,0.9164459,0.49894765,0.29521585
alexnet_w1_mlp_simclrhn_probe3,1,160,NaN,bird,bird,inf,0160_hp_dnn_inf_bird_10_n01797886_1953.png,n01797886_1953.png,1.0,4.461282,0.1027505,3.0819473
alexnet_w1_mlp_simclrhn_probe3,1,161,NaN,bird,bird,3,0161_hp_dnn_3_bird_10_n01820546_228.png,n01820546_228.png,1.0,1.8667952,0.23205169,1.1559381
alexnet_w1_mlp_simclrhn_probe3,1,162,NaN,clock,bear,1.5,0162_hp_dnn_1.5_bear_10_n02134418_2666.png,n02134418_2666.png,0.0,-0.08003679,0.33545482,-0.29379693
alexnet_w1_mlp_simclrhn_probe3,1,163,NaN,boat,boat,1.5,0163_hp_dnn_1.5_boat_10_n03344393_7659.png,n03344393_7659.png,1.0,3.4343839,1.5353869,1.3427936
alexnet_w1_mlp_simclrhn_probe3,1,164,NaN,chair,oven,1.5,0164_hp_dnn_1.5_oven_10_n04111531_1752.png,n04111531_1752.png,0.0,0.7066313,0.8188287,-0.07933554
alexnet_w1_mlp_simclrhn_probe3,1,165,NaN,elephant,dog,inf,0165_hp_dnn_inf_dog_10_n02091032_8873.png,n02091032_8873.png,0.0,-0.20328283,4.034928,-2.9968677
alexnet_w1_mlp_simclrhn_probe3,1,166,NaN,clock,oven,0.7,0166_hp_dnn_0.7_oven_10_n04111531_14559.png,n04111531_14559.png,0.0,0.12722771,0.5907885,-0.32778695
alexnet_w1_mlp_simclrhn_probe3,1,167,NaN,knife,cat,0.7,0167_hp_dnn_0.7_cat_10_n02123045_114.png,n02123045_114.png,0.0,-0.063401245,0.50414175,-0.40131348
alexnet_w1_mlp_simclrhn_probe3,1,168,NaN,cat,cat,3,0168_hp_dnn_3_cat_10_n02123597_13865.png,n02123597_13865.png,1.0,1.1675898,0.044440407,0.7941866
alexnet_w1_mlp_simclrhn_probe3,1,169,NaN,knife,knife,0.55,0169_hp_dnn_0.55_knife_10_n03041632_13478.png,n03041632_13478.png,1.0,0.65762115,0.35788736,0.21194379
alexnet_w1_mlp_simclrhn_probe3,1,170,NaN,clock,elephant,0.55,0170_hp_dnn_0.55_elephant_10_n02504458_2618.png,n02504458_2618.png,0.0,-0.31873506,0.4552809,-0.54731196
alexnet_w1_mlp_simclrhn_probe3,1,171,NaN,clock,truck,1,0171_hp_dnn_1_truck_10_n04467665_56954.png,n04467665_56954.png,0.0,-0.17606279,0.74199873,-0.64916754
alexnet_w1_mlp_simclrhn_probe3,1,172,NaN,clock,chair,1,0172_hp_dnn_1_chair_10_n04429376_1791.png,n04429376_1791.png,0.0,0.14368278,0.86110705,-0.50729555
alexnet_w1_mlp_simclrhn_probe3,1,173,NaN,bottle,bottle,3,0173_hp_dnn_3_bottle_10_n04560804_33214.png,n04560804_33214.png,1.0,1.5130403,1.4861618,0.019005952
alexnet_w1_mlp_simclrhn_probe3,1,174,NaN,knife,knife,inf,0174_hp_dnn_inf_knife_10_n03041632_48816.png,n03041632_48816.png,1.0,1.6895217,0.9531472,0.5206954
alexnet_w1_mlp_simclrhn_probe3,1,175,NaN,cat,cat,3,0175_hp_dnn_3_cat_10_n02123394_2274.png,n02123394_2274.png,1.0,0.30980352,0.21645312,0.0660087
alexnet_w1_mlp_simclrhn_probe3,1,176,NaN,truck,truck,1.5,0176_hp_dnn_1.5_truck_10_n03796401_1326.png,n03796401_1326.png,1.0,2.0326416,1.4265589,0.42856526
alexnet_w1_mlp_simclrhn_probe3,1,177,NaN,knife,knife,0.55,0177_hp_dnn_0.55_knife_10_n03041632_11887.png,n03041632_11887.png,1.0,0.58126193,0.43022454,0.106799565
alexnet_w1_mlp_simclrhn_probe3,1,178,NaN,knife,dog,0.7,0178_hp_dnn_0.7_dog_10_n02113978_8008.png,n02113978_8008.png,0.0,-0.12652506,0.45692828,-0.41256383
alexnet_w1_mlp_simclrhn_probe3,1,179,NaN,knife,cat,0.4,0179_hp_dnn_0.4_cat_10_n02123045_4812.png,n02123045_4812.png,0.0,-0.047441315,0.5284563,-0.40722108
alexnet_w1_mlp_simclrhn_probe3,1,180,NaN,bird,bird,inf,0180_hp_dnn_inf_bird_10_n01833805_3578.png,n01833805_3578.png,1.0,1.0608116,0.62327963,0.30938184
alexnet_w1_mlp_simclrhn_probe3,1,181,NaN,clock,truck,1,0181_hp_dnn_1_truck_10_n03417042_3398.png,n03417042_3398.png,0.0,0.4135171,0.67574185,-0.18542092
alexnet_w1_mlp_simclrhn_probe3,1,182,NaN,clock,bird,0.7,0182_hp_dnn_0.7_bird_10_n02007558_4566.png,n02007558_4566.png,0.0,-0.10727139,0.42983794,-0.37979364
alexnet_w1_mlp_simclrhn_probe3,1,183,NaN,clock,knife,0.45,0183_hp_dnn_0.45_knife_10_n03041632_3516.png,n03041632_3516.png,0.0,0.4980104,0.5432184,-0.03196687
alexnet_w1_mlp_simclrhn_probe3,1,184,NaN,clock,cat,1.5,0184_hp_dnn_1.5_cat_10_n02124075_14965.png,n02124075_14965.png,0.0,-0.026195869,0.44949695,-0.3363656
alexnet_w1_mlp_simclrhn_probe3,1,185,NaN,knife,bird,0.4,0185_hp_dnn_0.4_bird_10_n01843065_2176.png,n01843065_2176.png,0.0,-0.036454953,0.46824273,-0.35687515
alexnet_w1_mlp_simclrhn_probe3,1,186,NaN,knife,knife,3,0186_hp_dnn_3_knife_10_n03041632_21034.png,n03041632_21034.png,1.0,0.8274801,0.40794498,0.29665613
alexnet_w1_mlp_simclrhn_probe3,1,187,NaN,knife,keyboard,1.5,0187_hp_dnn_1.5_keyboard_10_n03085013_24026.png,n03085013_24026.png,0.0,-0.14146881,0.5495416,-0.48861817
alexnet_w1_mlp_simclrhn_probe3,1,188,NaN,clock,bottle,0.55,0188_hp_dnn_0.55_bottle_10_n04560804_14395.png,n04560804_14395.png,0.0,0.6459875,0.8900419,-0.17257251
alexnet_w1_mlp_simclrhn_probe3,1,189,NaN,clock,boat,0.45,0189_hp_dnn_0.45_boat_10_n02951358_11567.png,n02951358_11567.png,0.0,-0.31459576,0.80811435,-0.79387593
alexnet_w1_mlp_simclrhn_probe3,1,190,NaN,knife,chair,0.4,0190_hp_dnn_0.4_chair_10_n03376595_17747.png,n03376595_17747.png,0.0,0.10138156,0.6492468,-0.38739926
alexnet_w1_mlp_simclrhn_probe3,1,191,NaN,bottle,bottle,inf,0191_hp_dnn_inf_bottle_10_n04591713_5563.png,n04591713_5563.png,1.0,2.3272157,1.7930326,0.37772444
alexnet_w1_mlp_simclrhn_probe3,1,192,NaN,airplane,airplane,3,0192_hp_dnn_3_airplane_10_n02690373_7496.png,n02690373_7496.png,1.0,5.806284,1.6601242,2.9317777
alexnet_w1_mlp_simclrhn_probe3,1,193,NaN,airplane,airplane,3,0193_hp_dnn_3_airplane_10_n02690373_4465.png,n02690373_4465.png,1.0,6.8396854,1.7343048,3.6100492
alexnet_w1_mlp_simclrhn_probe3,1,194,NaN,knife,bear,0.4,0194_hp_dnn_0.4_bear_10_n02134418_119.png,n02134418_119.png,0.0,-0.13811636,0.42387578,-0.3973885
alexnet_w1_mlp_simclrhn_probe3,1,195,NaN,clock,bear,1.5,0195_hp_dnn_1.5_bear_10_n02133161_1970.png,n02133161_1970.png,0.0,-0.10342956,0.23492365,-0.23925185
alexnet_w1_mlp_simclrhn_probe3,1,196,NaN,knife,bird,1.5,0196_hp_dnn_1.5_bird_10_n02018795_5488.png,n02018795_5488.png,0.0,-0.17087565,0.56704116,-0.521786
alexnet_w1_mlp_simclrhn_probe3,1,197,NaN,knife,bird,0.45,0197_hp_dnn_0.45_bird_10_n01796340_1877.png,n01796340_1877.png,0.0,-0.049954783,0.52428365,-0.40604788
alexnet_w1_mlp_simclrhn_probe3,1,198,NaN,knife,airplane,0.4,0198_hp_dnn_0.4_airplane_10_n02690373_4964.png,n02690373_4964.png,0.0,0.23305845,0.52040017,-0.20318128
alexnet_w1_mlp_simclrhn_probe3,1,199,NaN,clock,bottle,0.4,0199_hp_dnn_0.4_bottle_10_n04591713_1762.png,n04591713_1762.png,0.0,0.6156097,0.711683,-0.06793406
alexnet_w1_mlp_simclrhn_probe3,1,200,NaN,clock,car,1,0200_hp_dnn_1_car_10_n03100240_6059.png,n03100240_6059.png,0.0,-0.19382842,0.56664073,-0.5377329
alexnet_w1_mlp_simclrhn_probe3,1,201,NaN,chair,chair,inf,0201_hp_dnn_inf_chair_10_n03376595_10769.png,n03376595_10769.png,1.0,2.4263127,1.7602096,0.47100604
alexnet_w1_mlp_simclrhn_probe3,1,202,NaN,oven,oven,inf,0202_hp_dnn_inf_oven_10_n04111531_1723.png,n04111531_1723.png,1.0,5.260866,1.4849464,2.6699786
alexnet_w1_mlp_simclrhn_probe3,1,203,NaN,clock,bicycle,0.45,0203_hp_dnn_0.45_bicycle_10_n02835271_3570.png,n02835271_3570.png,0.0,0.18942484,0.8385498,-0.45900068
alexnet_w1_mlp_simclrhn_probe3,1,204,NaN,clock,knife,0.4,0204_hp_dnn_0.4_knife_10_n03041632_83826.png,n03041632_83826.png,0.0,0.5310188,0.5547082,-0.016750928
alexnet_w1_mlp_simclrhn_probe3,1,205,NaN,clock,keyboard,0.7,0205_hp_dnn_0.7_keyboard_10_n03085013_20673.png,n03085013_20673.png,0.0,0.12100361,0.8212497,-0.49514878
alexnet_w1_mlp_simclrhn_probe3,1,206,NaN,knife,knife,1,0206_hp_dnn_1_knife_10_n03041632_27575.png,n03041632_27575.png,1.0,1.051168,0.4610478,0.417278
alexnet_w1_mlp_simclrhn_probe3,1,207,NaN,bird,bird,1.5,0207_hp_dnn_1.5_bird_10_n01558993_14305.png,n01558993_14305.png,1.0,1.0497361,0.40480483,0.45603532
alexnet_w1_mlp_simclrhn_probe3,1,208,NaN,knife,bird,0.4,0208_hp_dnn_0.4_bird_10_n01537544_18123.png,n01537544_18123.png,0.0,-0.06181588,0.3349558,-0.28055996
alexnet_w1_mlp_simclrhn_probe3,1,209,NaN,bicycle,bicycle,3,0209_hp_dnn_3_bicycle_10_n02835271_4307.png,n02835271_4307.png,1.0,12.209235,3.4090168,6.2226944
alexnet_w1_mlp_simclrhn_probe3,1,210,NaN,clock,car,0.7,0210_hp_dnn_0.7_car_10_n04285008_6320.png,n04285008_6320.png,0.0,-0.18524687,0.70468426,-0.62927634
alexnet_w1_mlp_simclrhn_probe3,1,211,NaN,clock,elephant,0.7,0211_hp_dnn_0.7_elephant_10_n02504458_1327.png,n02504458_1327.png,0.0,-0.23190257,0.90518355,-0.8040413
alexnet_w1_mlp_simclrhn_probe3,1,212,NaN,bottle,bottle,1,0212_hp_dnn_1_bottle_10_n04560804_1813.png,n04560804_1813.png,1.0,0.5432841,0.4895207,0.03801648
alexnet_w1_mlp_simclrhn_probe3,1,213,NaN,clock,cat,1,0213_hp_dnn_1_cat_10_n02124075_10085.png,n02124075_10085.png,0.0,0.006706521,0.63574106,-0.4447946
alexnet_w1_mlp_simclrhn_probe3,1,214,NaN,bottle,clock,inf,0214_hp_dnn_inf_clock_10_n03196217_2853.png,n03196217_2853.png,0.0,1.8244996,2.2366498,-0.29143417
alexnet_w1_mlp_simclrhn_probe3,1,215,NaN,boat,boat,1.5,0215_hp_dnn_1.5_boat_10_n04273569_10149.png,n04273569_10149.png,1.0,0.68804944,0.29313514,0.2792466
alexnet_w1_mlp_simclrhn_probe3,1,216,NaN,chair,chair,3,0216_hp_dnn_3_chair_10_n03376595_17859.png,n03376595_17859.png,1.0,3.1646497,0.7308119,1.7209833
alexnet_w1_mlp_simclrhn_probe3,1,217,NaN,clock,dog,0.55,0217_hp_dnn_0.55_dog_10_n02101556_7581.png,n02101556_7581.png,0.0,-0.19797596,0.94978887,-0.8115923
alexnet_w1_mlp_simclrhn_probe3,1,218,NaN,knife,cat,0.4,0218_hp_dnn_0.4_cat_10_n02125311_8522.png,n02125311_8522.png,0.0,-0.08471576,0.35839874,-0.31332928
alexnet_w1_mlp_simclrhn_probe3,1,219,NaN,clock,clock,0.45,0219_hp_dnn_0.45_clock_10_n04548280_4345.png,n04548280_4345.png,1.0,0.8725889,0.36036938,0.36219388
alexnet_w1_mlp_simclrhn_probe3,1,220,NaN,truck,truck,inf,0220_hp_dnn_inf_truck_10_n04467665_4088.png,n04467665_4088.png,1.0,6.5591636,2.1037538,3.1504507
alexnet_w1_mlp_simclrhn_probe3,1,221,NaN,dog,dog,inf,0221_hp_dnn_inf_dog_10_n02102040_1100.png,n02102040_1100.png,1.0,1.8447766,1.1388606,0.49915802
alexnet_w1_mlp_simclrhn_probe3,1,222,NaN,clock,bicycle,0.55,0222_hp_dnn_0.55_bicycle_10_n03792782_15557.png,n03792782_15557.png,0.0,-0.21546075,0.46831575,-0.483503
alexnet_w1_mlp_simclrhn_probe3,1,223,NaN,chair,car,3,0223_hp_dnn_3_car_10_n04285008_12767.png,n04285008_12767.png,0.0,0.94496864,1.6742213,-0.5156595
alexnet_w1_mlp_simclrhn_probe3,1,224,NaN,knife,boat,0.4,0224_hp_dnn_0.4_boat_10_n03662601_2438.png,n03662601_2438.png,0.0,-0.15893424,0.54107285,-0.49497977
alexnet_w1_mlp_simclrhn_probe3,1,225,NaN,truck,truck,inf,0225_hp_dnn_inf_truck_10_n03417042_6419.png,n03417042_6419.png,1.0,6.577179,3.868501,1.9153246
alexnet_w1_mlp_simclrhn_probe3,1,226,NaN,knife,chair,0.45,0226_hp_dnn_0.45_chair_10_n04099969_9891.png,n04099969_9891.png,0.0,0.14702286,0.49622434,-0.24692275
alexnet_w1_mlp_simclrhn_probe3,1,227,NaN,cat,cat,inf,0227_hp_dnn_inf_cat_10_n02123045_8543.png,n02123045_8543.png,1.0,9.8849,0.74153525,6.4653354
alexnet_w1_mlp_simclrhn_probe3,1,228,NaN,clock,cat,0.55,0228_hp_dnn_0.55_cat_10_n02123045_7342.png,n02123045_7342.png,0.0,0.0010929131,0.45350742,-0.31990537
alexnet_w1_mlp_simclrhn_probe3,1,229,NaN,clock,bird,0.55,0229_hp_dnn_0.55_bird_10_n02018207_10814.png,n02018207_10814.png,0.0,-0.025913151,0.52400374,-0.38885
alexnet_w1_mlp_simclrhn_probe3,1,230,NaN,airplane,airplane,3,0230_hp_dnn_3_airplane_10_n02690373_20033.png,n02690373_20033.png,1.0,2.9085705,1.5323578,0.97312933
alexnet_w1_mlp_simclrhn_probe3,1,231,NaN,knife,truck,0.55,0231_hp_dnn_0.55_truck_10_n04467665_13645.png,n04467665_13645.png,0.0,-0.18479936,0.50699216,-0.4891705
alexnet_w1_mlp_simclrhn_probe3,1,232,NaN,airplane,airplane,1.5,0232_hp_dnn_1.5_airplane_10_n02690373_5015.png,n02690373_5015.png,1.0,2.0220068,0.87258273,0.8127656
alexnet_w1_mlp_simclrhn_probe3,1,233,NaN,bicycle,chair,1.5,0233_hp_dnn_1.5_chair_10_n03376595_6173.png,n03376595_6173.png,0.0,0.58270633,0.830451,-0.17518194
alexnet_w1_mlp_simclrhn_probe3,1,234,NaN,clock,knife,1.5,0234_hp_dnn_1.5_knife_10_n03041632_91967.png,n03041632_91967.png,0.0,-0.41825426,0.91840833,-0.94516313
alexnet_w1_mlp_simclrhn_probe3,1,235,NaN,elephant,elephant,inf,0235_hp_dnn_inf_elephant_10_n02504458_1271.png,n02504458_1271.png,1.0,6.194519,1.183233,3.5435143
alexnet_w1_mlp_simclrhn_probe3,1,236,NaN,clock,cat,0.7,0236_hp_dnn_0.7_cat_10_n02123597_1684.png,n02123597_1684.png,0.0,0.036812067,0.39748833,-0.25503662
alexnet_w1_mlp_simclrhn_probe3,1,237,NaN,knife,dog,0.55,0237_hp_dnn_0.55_dog_10_n02091831_3628.png,n02091831_3628.png,0.0,-0.16925357,0.46009567,-0.44501713
alexnet_w1_mlp_simclrhn_probe3,1,238,NaN,clock,truck,0.45,0238_hp_dnn_0.45_truck_10_n04467665_64540.png,n04467665_64540.png,0.0,-0.075763285,0.9420113,-0.7196753
alexnet_w1_mlp_simclrhn_probe3,1,239,NaN,airplane,airplane,1,0239_hp_dnn_1_airplane_10_n02690373_3289.png,n02690373_3289.png,1.0,0.8135381,0.49455938,0.22555201
alexnet_w1_mlp_simclrhn_probe3,1,240,NaN,boat,boat,3,0240_hp_dnn_3_boat_10_n04273569_16949.png,n04273569_16949.png,1.0,2.7247329,0.69610566,1.434456
alexnet_w1_mlp_simclrhn_probe3,1,241,NaN,knife,bicycle,1,0241_hp_dnn_1_bicycle_10_n03792782_15174.png,n03792782_15174.png,0.0,-0.18980873,0.33458552,-0.37080276
alexnet_w1_mlp_simclrhn_probe3,1,242,NaN,knife,bottle,1.5,0242_hp_dnn_1.5_bottle_10_n03937543_146.png,n03937543_146.png,0.0,0.037641827,0.89999914,-0.6097787
alexnet_w1_mlp_simclrhn_probe3,1,243,NaN,clock,chair,0.45,0243_hp_dnn_0.45_chair_10_n04429376_694.png,n04429376_694.png,0.0,0.012755459,0.9176062,-0.6398261
alexnet_w1_mlp_simclrhn_probe3,1,244,NaN,knife,keyboard,0.4,0244_hp_dnn_0.4_keyboard_10_n03085013_19407.png,n03085013_19407.png,0.0,-0.10943348,0.56168056,-0.4745493
alexnet_w1_mlp_simclrhn_probe3,1,245,NaN,knife,oven,0.45,0245_hp_dnn_0.45_oven_10_n04111531_4955.png,n04111531_4955.png,0.0,-0.010670207,0.41898602,-0.30381283
alexnet_w1_mlp_simclrhn_probe3,1,246,NaN,clock,dog,1.5,0246_hp_dnn_1.5_dog_10_n02099712_1825.png,n02099712_1825.png,0.0,-0.28814,0.42356217,-0.50324947
alexnet_w1_mlp_simclrhn_probe3,1,247,NaN,clock,bear,0.55,0247_hp_dnn_0.55_bear_10_n02134084_14031.png,n02134084_14031.png,0.0,-0.16092291,0.45612392,-0.436318
alexnet_w1_mlp_simclrhn_probe3,1,248,NaN,clock,car,0.45,0248_hp_dnn_0.45_car_10_n02814533_70922.png,n02814533_70922.png,0.0,-0.38513875,0.65642816,-0.736499
alexnet_w1_mlp_simclrhn_probe3,1,249,NaN,clock,elephant,0.45,0249_hp_dnn_0.45_elephant_10_n02504458_217.png,n02504458_217.png,0.0,-0.27007544,0.5277913,-0.56417704
alexnet_w1_mlp_simclrhn_probe3,1,250,NaN,car,car,inf,0250_hp_dnn_inf_car_10_n02814533_27824.png,n02814533_27824.png,1.0,8.901138,6.976655,1.3608152
alexnet_w1_mlp_simclrhn_probe3,1,251,NaN,keyboard,keyboard,0.7,0251_hp_dnn_0.7_keyboard_10_n03085013_24257.png,n03085013_24257.png,1.0,1.4390589,1.0093093,0.30387887
alexnet_w1_mlp_simclrhn_probe3,1,252,NaN,elephant,elephant,3,0252_hp_dnn_3_elephant_10_n02504013_2269.png,n02504013_2269.png,1.0,2.4958138,1.7823147,0.5045201
alexnet_w1_mlp_simclrhn_probe3,1,253,NaN,knife,bear,0.45,0253_hp_dnn_0.45_bear_10_n02134418_1798.png,n02134418_1798.png,0.0,-0.16024601,0.5778362,-0.521903
alexnet_w1_mlp_simclrhn_probe3,1,254,NaN,clock,dog,0.45,0254_hp_dnn_0.45_dog_10_n02111129_6881.png,n02111129_6881.png,0.0,-0.20207855,0.59146905,-0.5611229
alexnet_w1_mlp_simclrhn_probe3,1,255,NaN,truck,truck,1.5,0255_hp_dnn_1.5_truck_10_n04467665_67315.png,n04467665_67315.png,1.0,1.914067,0.81164265,0.7795318
alexnet_w1_mlp_simclrhn_probe3,1,256,NaN,knife,elephant,0.55,0256_hp_dnn_0.55_elephant_10_n02504013_3688.png,n02504013_3688.png,0.0,-0.20840973,0.40886343,-0.43647805
alexnet_w1_mlp_simclrhn_probe3,1,257,NaN,knife,truck,1.5,0257_hp_dnn_1.5_truck_10_n04467665_38886.png,n04467665_38886.png,0.0,0.21097842,0.49632937,-0.2017736
alexnet_w1_mlp_simclrhn_probe3,1,258,NaN,bottle,bottle,inf,0258_hp_dnn_inf_bottle_10_n04557648_4250.png,n04557648_4250.png,1.0,5.471951,2.5330849,2.078092
alexnet_w1_mlp_simclrhn_probe3,1,259,NaN,knife,chair,0.45,0259_hp_dnn_0.45_chair_10_n04099969_4053.png,n04099969_4053.png,0.0,0.14461121,0.47585356,-0.23422372
alexnet_w1_mlp_simclrhn_probe3,1,260,NaN,clock,knife,0.7,0260_hp_dnn_0.7_knife_10_n03041632_5727.png,n03041632_5727.png,0.0,0.11029179,0.6155111,-0.357244
alexnet_w1_mlp_simclrhn_probe3,1,261,NaN,clock,dog,1,0261_hp_dnn_1_dog_10_n02091134_4525.png,n02091134_4525.png,0.0,-0.31731552,0.8066647,-0.7947741
alexnet_w1_mlp_simclrhn_probe3,1,262,NaN,keyboard,keyboard,inf,0262_hp_dnn_inf_keyboard_10_n04505470_4685.png,n04505470_4685.png,1.0,8.897544,3.4033704,3.8849673
alexnet_w1_mlp_simclrhn_probe3,1,263,NaN,knife,boat,0.4,0263_hp_dnn_0.4_boat_10_n02951358_6637.png,n02951358_6637.png,0.0,-0.1485065,0.5067272,-0.46332023
alexnet_w1_mlp_simclrhn_probe3,1,264,NaN,clock,dog,1.5,0264_hp_dnn_1.5_dog_10_n02093256_11232.png,n02093256_11232.png,0.0,-0.2847947,0.47660565,-0.53839135
alexnet_w1_mlp_simclrhn_probe3,1,265,NaN,elephant,elephant,inf,0265_hp_dnn_inf_elephant_10_n02504013_816.png,n02504013_816.png,1.0,2.9871285,1.8235587,0.8227681
alexnet_w1_mlp_simclrhn_probe3,1,266,NaN,knife,bear,1.5,0266_hp_dnn_1.5_bear_10_n02134084_1484.png,n02134084_1484.png,0.0,-0.21853162,0.21692586,-0.30791494
alexnet_w1_mlp_simclrhn_probe3,1,267,NaN,knife,boat,0.45,0267_hp_dnn_0.45_boat_10_n04273569_15859.png,n04273569_15859.png,0.0,-0.18613464,0.49397564,-0.4809106
alexnet_w1_mlp_simclrhn_probe3,1,268,NaN,bicycle,bicycle,3,0268_hp_dnn_3_bicycle_10_n02835271_7311.png,n02835271_7311.png,1.0,1.1766472,0.33979493,0.5917439
alexnet_w1_mlp_simclrhn_probe3,1,269,NaN,clock,cat,1,0269_hp_dnn_1_cat_10_n02123045_2339.png,n02123045_2339.png,0.0,0.009876865,0.3005018,-0.20550285
alexnet_w1_mlp_simclrhn_probe3,1,270,NaN,clock,elephant,0.45,0270_hp_dnn_0.45_elephant_10_n02504458_4448.png,n02504458_4448.png,0.0,-0.14299706,0.33336183,-0.3368366
alexnet_w1_mlp_simclrhn_probe3,1,271,NaN,car,car,1,0271_hp_dnn_1_car_10_n03100240_9955.png,n03100240_9955.png,1.0,2.782507,1.6499276,0.80085456
alexnet_w1_mlp_simclrhn_probe3,1,272,NaN,clock,truck,0.55,0272_hp_dnn_0.55_truck_10_n03417042_7310.png,n03417042_7310.png,0.0,-0.18532269,0.3889087,-0.4060429
alexnet_w1_mlp_simclrhn_probe3,1,273,NaN,clock,chair,0.55,0273_hp_dnn_0.55_chair_10_n04099969_20421.png,n04099969_20421.png,0.0,0.3603023,0.59210783,-0.16391127
alexnet_w1_mlp_simclrhn_probe3,1,274,NaN,boat,boat,0.45,0274_hp_dnn_0.45_boat_10_n04612504_4581.png,n04612504_4581.png,1.0,0.4238742,0.35691896,0.047344506
alexnet_w1_mlp_simclrhn_probe3,1,275,NaN,clock,bear,1,0275_hp_dnn_1_bear_10_n02134418_4515.png,n02134418_4515.png,0.0,-0.18320554,0.59428567,-0.54976934
alexnet_w1_mlp_simclrhn_probe3,1,276,NaN,clock,truck,0.7,0276_hp_dnn_0.7_truck_10_n03796401_1082.png,n03796401_1082.png,0.0,-0.245549,0.7502708,-0.704151
alexnet_w1_mlp_simclrhn_probe3,1,277,NaN,clock,bicycle,1,0277_hp_dnn_1_bicycle_10_n03792782_8176.png,n03792782_8176.png,0.0,0.29358077,0.6235434,-0.2333188
alexnet_w1_mlp_simclrhn_probe3,1,278,NaN,knife,oven,0.4,0278_hp_dnn_0.4_oven_10_n04111531_5463.png,n04111531_5463.png,0.0,0.016760398,0.33161834,-0.22263817
alexnet_w1_mlp_simclrhn_probe3,1,279,NaN,chair,elephant,1.5,0279_hp_dnn_1.5_elephant_10_n02504013_4166.png,n02504013_4166.png,0.0,-0.38800937,0.5976772,-0.69698566
alexnet_w1_mlp_simclrhn_probe3,1,280,NaN,airplane,airplane,0.7,0280_hp_dnn_0.7_airplane_10_n02690373_18295.png,n02690373_18295.png,1.0,1.1723411,0.677458,0.3499352
alexnet_w1_mlp_simclrhn_probe3,1,281,NaN,knife,cat,0.45,0281_hp_dnn_0.45_cat_10_n02124075_1460.png,n02124075_1460.png,0.0,-0.038979646,0.40032417,-0.3106347
alexnet_w1_mlp_simclrhn_probe3,1,282,NaN,clock,bird,0.55,0282_hp_dnn_0.55_bird_10_n02028035_17759.png,n02028035_17759.png,0.0,0.16199332,0.2957413,-0.094574094
alexnet_w1_mlp_simclrhn_probe3,1,283,NaN,bicycle,chair,3,0283_hp_dnn_3_chair_10_n02791124_6654.png,n02791124_6654.png,0.0,1.4536848,2.1397977,-0.48515508
alexnet_w1_mlp_simclrhn_probe3,1,284,NaN,knife,truck,0.7,0284_hp_dnn_0.7_truck_10_n04467665_22974.png,n04467665_22974.png,0.0,-0.12414302,0.45932162,-0.4125718
alexnet_w1_mlp_simclrhn_probe3,1,285,NaN,clock,clock,0.55,0285_hp_dnn_0.55_clock_10_n03196217_2983.png,n03196217_2983.png,1.0,0.5539798,0.36462942,0.13389096
alexnet_w1_mlp_simclrhn_probe3,1,286,NaN,oven,knife,inf,0286_hp_dnn_inf_knife_10_n03041632_23968.png,n03041632_23968.png,0.0,1.003398,3.849214,-2.012296
alexnet_w1_mlp_simclrhn_probe3,1,287,NaN,clock,keyboard,0.4,0287_hp_dnn_0.4_keyboard_10_n03085013_23519.png,n03085013_23519.png,0.0,0.31957737,0.47747442,-0.11165008
alexnet_w1_mlp_simclrhn_probe3,1,288,NaN,clock,bottle,1.5,0288_hp_dnn_1.5_bottle_10_n04591713_14895.png,n04591713_14895.png,0.0,0.1963357,0.42006007,-0.15819702
alexnet_w1_mlp_simclrhn_probe3,1,289,NaN,clock,elephant,1,0289_hp_dnn_1_elephant_10_n02504013_3969.png,n02504013_3969.png,0.0,-0.19228485,0.5888108,-0.55231804
alexnet_w1_mlp_simclrhn_probe3,1,290,NaN,knife,bear,3,0290_hp_dnn_3_bear_10_n02134418_3723.png,n02134418_3723.png,0.0,-0.2538222,0.21814066,-0.33372816
alexnet_w1_mlp_simclrhn_probe3,1,291,NaN,knife,keyboard,0.45,0291_hp_dnn_0.45_keyboard_10_n04505470_709.png,n04505470_709.png,0.0,-0.058254156,0.42403257,-0.3410282
alexnet_w1_mlp_simclrhn_probe3,1,292,NaN,clock,knife,1.5,0292_hp_dnn_1.5_knife_10_n03041632_379.png,n03041632_379.png,0.0,0.2712679,0.68716854,-0.2940862
alexnet_w1_mlp_simclrhn_probe3,1,293,NaN,bird,oven,3,0293_hp_dnn_3_oven_10_n04111531_13128.png,n04111531_13128.png,0.0,-0.14493951,0.33314642,-0.33805782
alexnet_w1_mlp_simclrhn_probe3,1,294,NaN,clock,elephant,0.55,0294_hp_dnn_0.55_elephant_10_n02504013_933.png,n02504013_933.png,0.0,-0.0112261195,0.44133565,-0.3200095
alexnet_w1_mlp_simclrhn_probe3,1,295,NaN,airplane,airplane,inf,0295_hp_dnn_inf_airplane_10_n02690373_17603.png,n02690373_17603.png,1.0,5.2326684,3.840913,0.98411965
alexnet_w1_mlp_simclrhn_probe3,1,296,NaN,knife,airplane,0.45,0296_hp_dnn_0.45_airplane_10_n02690373_5177.png,n02690373_5177.png,0.0,0.23770365,0.524123,-0.20252907
alexnet_w1_mlp_simclrhn_probe3,1,297,NaN,chair,chair,1.5,0297_hp_dnn_1.5_chair_10_n04429376_28121.png,n04429376_28121.png,1.0,0.8307396,0.40412953,0.3016589
alexnet_w1_mlp_simclrhn_probe3,1,298,NaN,clock,truck,0.55,0298_hp_dnn_0.55_truck_10_n03417042_6517.png,n03417042_6517.png,0.0,-0.28210655,0.541677,-0.5825029
alexnet_w1_mlp_simclrhn_probe3,1,299,NaN,knife,chair,0.55,0299_hp_dnn_0.55_chair_10_n03376595_5503.png,n03376595_5503.png,0.0,0.27646333,0.63428783,-0.25302014
alexnet_w1_mlp_simclrhn_probe3,1,300,NaN,clock,clock,1.5,0300_hp_dnn_1.5_clock_10_n03196217_7918.png,n03196217_7918.png,1.0,1.2500829,0.6960155,0.39178482
alexnet_w1_mlp_simclrhn_probe3,1,301,NaN,car,car,1,0301_hp_dnn_1_car_10_n04285008_7751.png,n04285008_7751.png,1.0,1.8118334,0.8049934,0.7119434
alexnet_w1_mlp_simclrhn_probe3,1,302,NaN,knife,clock,0.4,0302_hp_dnn_0.4_clock_10_n03196217_2628.png,n03196217_2628.png,0.0,0.32238978,0.4310425,-0.07682907
alexnet_w1_mlp_simclrhn_probe3,1,303,NaN,clock,bird,0.55,0303_hp_dnn_0.55_bird_10_n01833805_6395.png,n01833805_6395.png,0.0,0.040658917,0.5654798,-0.37110445
alexnet_w1_mlp_simclrhn_probe3,1,304,NaN,knife,boat,0.4,0304_hp_dnn_0.4_boat_10_n03344393_6015.png,n03344393_6015.png,0.0,0.008453104,0.39972138,-0.27666846
alexnet_w1_mlp_simclrhn_probe3,1,305,NaN,chair,elephant,1.5,0305_hp_dnn_1.5_elephant_10_n02504013_2739.png,n02504013_2739.png,0.0,-0.15306813,0.45462155,-0.4297015
alexnet_w1_mlp_simclrhn_probe3,1,306,NaN,clock,keyboard,0.45,0306_hp_dnn_0.45_keyboard_10_n03085013_23316.png,n03085013_23316.png,0.0,0.022820882,0.6294486,-0.42895058
alexnet_w1_mlp_simclrhn_probe3,1,307,NaN,clock,airplane,1,0307_hp_dnn_1_airplane_10_n02690373_20350.png,n02690373_20350.png,0.0,0.5506308,0.8501272,-0.21177594
alexnet_w1_mlp_simclrhn_probe3,1,308,NaN,clock,clock,3,0308_hp_dnn_3_clock_10_n02708093_3484.png,n02708093_3484.png,1.0,3.9515276,0.8161282,2.2170622
alexnet_w1_mlp_simclrhn_probe3,1,309,NaN,clock,bicycle,0.55,0309_hp_dnn_0.55_bicycle_10_n03792782_10185.png,n03792782_10185.png,0.0,-0.14627977,0.3916975,-0.3804074
alexnet_w1_mlp_simclrhn_probe3,1,310,NaN,oven,knife,3,0310_hp_dnn_3_knife_10_n03041632_42196.png,n03041632_42196.png,0.0,1.1582955,1.3286321,-0.12044617
alexnet_w1_mlp_simclrhn_probe3,1,311,NaN,bird,bird,inf,0311_hp_dnn_inf_bird_10_n01855672_6132.png,n01855672_6132.png,1.0,4.795849,0.61146355,2.9588072
alexnet_w1_mlp_simclrhn_probe3,1,312,NaN,knife,bottle,0.4,0312_hp_dnn_0.4_bottle_10_n03983396_3047.png,n03983396_3047.png,0.0,0.23527555,0.4780749,-0.17168507
alexnet_w1_mlp_simclrhn_probe3,1,313,NaN,clock,bottle,0.4,0313_hp_dnn_0.4_bottle_10_n04557648_2093.png,n04557648_2093.png,0.0,0.3630491,0.629052,-0.18809246
alexnet_w1_mlp_simclrhn_probe3,1,314,NaN,keyboard,keyboard,0.55,0314_hp_dnn_0.55_keyboard_10_n04505470_7686.png,n04505470_7686.png,1.0,0.9969381,0.5866055,0.29014897
alexnet_w1_mlp_simclrhn_probe3,1,315,NaN,bird,bear,1.5,0315_hp_dnn_1.5_bear_10_n02132136_5051.png,n02132136_5051.png,0.0,-0.60218304,1.1674534,-1.2513219
alexnet_w1_mlp_simclrhn_probe3,1,316,NaN,knife,bear,1,0316_hp_dnn_1_bear_10_n02134418_24559.png,n02134418_24559.png,0.0,-0.18110836,0.3479789,-0.3741212
alexnet_w1_mlp_simclrhn_probe3,1,317,NaN,clock,oven,0.55,0317_hp_dnn_0.55_oven_10_n04111531_3702.png,n04111531_3702.png,0.0,-0.165959,0.63006836,-0.56287634
alexnet_w1_mlp_simclrhn_probe3,1,318,NaN,bicycle,bicycle,1,0318_hp_dnn_1_bicycle_10_n02835271_24230.png,n02835271_24230.png,1.0,0.4498263,0.40527216,0.031504538
alexnet_w1_mlp_simclrhn_probe3,1,319,NaN,keyboard,keyboard,1.5,0319_hp_dnn_1.5_keyboard_10_n03085013_2272.png,n03085013_2272.png,1.0,2.1149282,1.7399265,0.2651663
alexnet_w1_mlp_simclrhn_probe3,1,320,NaN,clock,keyboard,0.55,0320_hp_dnn_0.55_keyboard_10_n03085013_23201.png,n03085013_23201.png,0.0,0.21300638,0.7796053,-0.40064597
alexnet_w1_mlp_simclrhn_probe3,1,321,NaN,bicycle,boat,1.5,0321_hp_dnn_1.5_boat_10_n04273569_9803.png,n04273569_9803.png,0.0,0.43325597,0.7195251,-0.20242284
alexnet_w1_mlp_simclrhn_probe3,1,322,NaN,knife,boat,0.4,0322_hp_dnn_0.4_boat_10_n04612504_29813.png,n04612504_29813.png,0.0,-0.04700937,0.50946116,-0.3934841
alexnet_w1_mlp_simclrhn_probe3,1,323,NaN,clock,clock,1,0323_hp_dnn_1_clock_10_n02708093_1291.png,n02708093_1291.png,1.0,1.6692902,0.7287129,0.6650886
alexnet_w1_mlp_simclrhn_probe3,1,324,NaN,clock,oven,0.4,0324_hp_dnn_0.4_oven_10_n04111531_1794.png,n04111531_1794.png,0.0,0.30118522,0.72276264,-0.29810026
alexnet_w1_mlp_simclrhn_probe3,1,325,NaN,knife,bear,0.4,0325_hp_dnn_0.4_bear_10_n02132136_5612.png,n02132136_5612.png,0.0,-0.15066017,0.37416348,-0.3711064
alexnet_w1_mlp_simclrhn_probe3,1,326,NaN,boat,boat,1.5,0326_hp_dnn_1.5_boat_10_n04273569_3401.png,n04273569_3401.png,1.0,1.5696478,0.5190118,0.7429119
alexnet_w1_mlp_simclrhn_probe3,1,327,NaN,bird,cat,3,0327_hp_dnn_3_cat_10_n02125311_16544.png,n02125311_16544.png,0.0,0.085537285,0.39872727,-0.22145876
alexnet_w1_mlp_simclrhn_probe3,1,328,NaN,keyboard,clock,1.5,0328_hp_dnn_1.5_clock_10_n03196217_10717.png,n03196217_10717.png,0.0,0.95839757,2.4711187,-1.0696553
alexnet_w1_mlp_simclrhn_probe3,1,329,NaN,clock,bear,3,0329_hp_dnn_3_bear_10_n02134418_47.png,n02134418_47.png,0.0,-0.36754617,0.14866106,-0.36501363
alexnet_w1_mlp_simclrhn_probe3,1,330,NaN,keyboard,bottle,3,0330_hp_dnn_3_bottle_10_n04591713_4380.png,n04591713_4380.png,0.0,0.14730985,1.2711527,-0.7946769
alexnet_w1_mlp_simclrhn_probe3,1,331,NaN,clock,chair,0.55,0331_hp_dnn_0.55_chair_10_n04429376_8710.png,n04429376_8710.png,0.0,-0.021480251,0.39078298,-0.29151413
alexnet_w1_mlp_simclrhn_probe3,1,332,NaN,bicycle,bicycle,3,0332_hp_dnn_3_bicycle_10_n02835271_781.png,n02835271_781.png,1.0,9.572943,2.659767,4.8883533
alexnet_w1_mlp_simclrhn_probe3,1,333,NaN,cat,bear,1.5,0333_hp_dnn_1.5_bear_10_n02134418_875.png,n02134418_875.png,0.0,-0.045782916,0.1106489,-0.110614
alexnet_w1_mlp_simclrhn_probe3,1,334,NaN,knife,dog,0.55,0334_hp_dnn_0.55_dog_10_n02094433_10343.png,n02094433_10343.png,0.0,-0.13966791,0.41335624,-0.39104715
alexnet_w1_mlp_simclrhn_probe3,1,335,NaN,airplane,airplane,3,0335_hp_dnn_3_airplane_10_n02690373_1053.png,n02690373_1053.png,1.0,4.3248453,3.8824418,0.31282657
alexnet_w1_mlp_simclrhn_probe3,1,336,NaN,airplane,airplane,3,0336_hp_dnn_3_airplane_10_n02690373_18848.png,n02690373_18848.png,1.0,3.5858383,0.55747044,2.1413796
alexnet_w1_mlp_simclrhn_probe3,1,337,NaN,keyboard,keyboard,3,0337_hp_dnn_3_keyboard_10_n03085013_18741.png,n03085013_18741.png,1.0,1.0906067,0.8348243,0.18086545
alexnet_w1_mlp_simclrhn_probe3,1,338,NaN,bear,bear,inf,0338_hp_dnn_inf_bear_10_n02134418_3152.png,n02134418_3152.png,1.0,7.7038827,2.857761,3.4267256
alexnet_w1_mlp_simclrhn_probe3,1,339,NaN,chair,bicycle,1.5,0339_hp_dnn_1.5_bicycle_10_n03792782_14557.png,n03792782_14557.png,0.0,0.061227247,0.1513303,-0.063712485
alexnet_w1_mlp_simclrhn_probe3,1,340,NaN,knife,bird,0.7,0340_hp_dnn_0.7_bird_10_n01796340_5262.png,n01796340_5262.png,0.0,-0.13332602,0.2028629,-0.23772146
alexnet_w1_mlp_simclrhn_probe3,1,341,NaN,clock,bicycle,1,0341_hp_dnn_1_bicycle_10_n03792782_4559.png,n03792782_4559.png,0.0,0.5692735,1.2354755,-0.471076
alexnet_w1_mlp_simclrhn_probe3,1,342,NaN,knife,bear,0.45,0342_hp_dnn_0.45_bear_10_n02134084_3177.png,n02134084_3177.png,0.0,-0.11088692,0.34899804,-0.32518777
alexnet_w1_mlp_simclrhn_probe3,1,343,NaN,knife,elephant,0.4,0343_hp_dnn_0.4_elephant_10_n02504458_5008.png,n02504458_5008.png,0.0,-0.21954343,0.4662694,-0.4849429
alexnet_w1_mlp_simclrhn_probe3,1,344,NaN,oven,oven,3,0344_hp_dnn_3_oven_10_n04111531_7955.png,n04111531_7955.png,1.0,1.7615831,1.5012472,0.1840853
alexnet_w1_mlp_simclrhn_probe3,1,345,NaN,bicycle,bicycle,inf,0345_hp_dnn_inf_bicycle_10_n02835271_13793.png,n02835271_13793.png,1.0,2.3878894,0.99720824,0.9833601
alexnet_w1_mlp_simclrhn_probe3,1,346,NaN,knife,keyboard,0.45,0346_hp_dnn_0.45_keyboard_10_n03085013_14810.png,n03085013_14810.png,0.0,0.17062938,0.70696735,-0.37924823
alexnet_w1_mlp_simclrhn_probe3,1,347,NaN,clock,car,0.7,0347_hp_dnn_0.7_car_10_n02814533_39933.png,n02814533_39933.png,0.0,-0.40305153,0.7184338,-0.79300994
alexnet_w1_mlp_simclrhn_probe3,1,348,NaN,bird,bird,1,0348_hp_dnn_1_bird_10_n02027492_4897.png,n02027492_4897.png,1.0,0.8393143,0.4453565,0.27857023
alexnet_w1_mlp_simclrhn_probe3,1,349,NaN,bicycle,keyboard,3,0349_hp_dnn_3_keyboard_10_n03085013_23776.png,n03085013_23776.png,0.0,1.0166864,1.7244949,-0.5004962
alexnet_w1_mlp_simclrhn_probe3,1,350,NaN,clock,car,1.5,0350_hp_dnn_1.5_car_10_n02814533_31493.png,n02814533_31493.png,0.0,0.46820286,1.284861,-0.5774645
alexnet_w1_mlp_simclrhn_probe3,1,351,NaN,boat,boat,1.5,0351_hp_dnn_1.5_boat_10_n03344393_7631.png,n03344393_7631.png,1.0,1.0706062,0.6022814,0.3311557
alexnet_w1_mlp_simclrhn_probe3,1,352,NaN,clock,bicycle,0.4,0352_hp_dnn_0.4_bicycle_10_n02835271_1261.png,n02835271_1261.png,0.0,-0.10517961,0.5364702,-0.4537149
alexnet_w1_mlp_simclrhn_probe3,1,353,NaN,clock,clock,1,0353_hp_dnn_1_clock_10_n03196217_1850.png,n03196217_1850.png,1.0,0.9082833,0.74030936,0.11877551
alexnet_w1_mlp_simclrhn_probe3,1,354,NaN,bear,bear,inf,0354_hp_dnn_inf_bear_10_n02132136_22387.png,n02132136_22387.png,1.0,4.6939383,2.3913958,1.6281434
alexnet_w1_mlp_simclrhn_probe3,1,355,NaN,knife,airplane,1.5,0355_hp_dnn_1.5_airplane_10_n02690373_2316.png,n02690373_2316.png,0.0,0.61842203,0.9035115,-0.20158872
alexnet_w1_mlp_simclrhn_probe3,1,356,NaN,knife,cat,0.7,0356_hp_dnn_0.7_cat_10_n02123597_3634.png,n02123597_3634.png,0.0,-0.06993853,0.27761358,-0.24575646
alexnet_w1_mlp_simclrhn_probe3,1,357,NaN,knife,bird,0.45,0357_hp_dnn_0.45_bird_10_n02018207_4151.png,n02018207_4151.png,0.0,0.009796751,0.49128884,-0.34046635
alexnet_w1_mlp_simclrhn_probe3,1,358,NaN,clock,knife,0.7,0358_hp_dnn_0.7_knife_10_n03041632_94155.png,n03041632_94155.png,0.0,0.11614752,0.6585908,-0.38356534
alexnet_w1_mlp_simclrhn_probe3,1,359,NaN,clock,bottle,0.45,0359_hp_dnn_0.45_bottle_10_n04560804_7509.png,n04560804_7509.png,0.0,0.1389698,0.6722873,-0.37711242
alexnet_w1_mlp_simclrhn_probe3,1,360,NaN,clock,cat,0.4,0360_hp_dnn_0.4_cat_10_n02123045_12748.png,n02123045_12748.png,0.0,-0.034585457,0.43893552,-0.3348299
alexnet_w1_mlp_simclrhn_probe3,1,361,NaN,clock,elephant,0.7,0361_hp_dnn_0.7_elephant_10_n02504013_6.png,n02504013_6.png,0.0,-0.2254159,0.71810055,-0.6671669
alexnet_w1_mlp_simclrhn_probe3,1,362,NaN,clock,elephant,0.4,0362_hp_dnn_0.4_elephant_10_n02504013_1492.png,n02504013_1492.png,0.0,-0.22204615,0.5030264,-0.5127037
alexnet_w1_mlp_simclrhn_probe3,1,363,NaN,knife,dog,0.4,0363_hp_dnn_0.4_dog_10_n02107142_27162.png,n02107142_27162.png,0.0,-0.17047597,0.4105934,-0.4108781
alexnet_w1_mlp_simclrhn_probe3,1,364,NaN,clock,bear,0.7,0364_hp_dnn_0.7_bear_10_n02134418_962.png,n02134418_962.png,0.0,-0.15612316,0.45699772,-0.43354195
alexnet_w1_mlp_simclrhn_probe3,1,365,NaN,truck,truck,0.7,0365_hp_dnn_0.7_truck_10_n03417042_9693.png,n03417042_9693.png,1.0,0.75089043,0.5433185,0.14677551
alexnet_w1_mlp_simclrhn_probe3,1,366,NaN,chair,oven,1,0366_hp_dnn_1_oven_10_n04111531_2116.png,n04111531_2116.png,0.0,0.2867119,0.44300118,-0.11051321
alexnet_w1_mlp_simclrhn_probe3,1,367,NaN,keyboard,keyboard,inf,0367_hp_dnn_inf_keyboard_10_n03085013_20460.png,n03085013_20460.png,1.0,2.4823873,0.74305755,1.2298919
alexnet_w1_mlp_simclrhn_probe3,1,368,NaN,knife,bird,0.45,0368_hp_dnn_0.45_bird_10_n01796340_6191.png,n01796340_6191.png,0.0,-0.08056857,0.43919775,-0.36753032
alexnet_w1_mlp_simclrhn_probe3,1,369,NaN,oven,oven,1.5,0369_hp_dnn_1.5_oven_10_n04111531_8046.png,n04111531_8046.png,1.0,1.2855548,0.93893147,0.2450997
alexnet_w1_mlp_simclrhn_probe3,1,370,NaN,knife,boat,0.45,0370_hp_dnn_0.45_boat_10_n03344393_11788.png,n03344393_11788.png,0.0,-0.18739808,0.58416015,-0.54557407
alexnet_w1_mlp_simclrhn_probe3,1,371,NaN,cat,cat,inf,0371_hp_dnn_inf_cat_10_n02123394_2765.png,n02123394_2765.png,1.0,2.9660404,0.38273498,1.8266728
alexnet_w1_mlp_simclrhn_probe3,1,372,NaN,clock,bicycle,0.4,0372_hp_dnn_0.4_bicycle_10_n03792782_26834.png,n03792782_26834.png,0.0,0.18966904,0.7604982,-0.40363717
alexnet_w1_mlp_simclrhn_probe3,1,373,NaN,clock,cat,1.5,0373_hp_dnn_1.5_cat_10_n02125311_37036.png,n02125311_37036.png,0.0,-0.21828198,0.2938336,-0.36212042
alexnet_w1_mlp_simclrhn_probe3,1,374,NaN,knife,bicycle,0.7,0374_hp_dnn_0.7_bicycle_10_n03792782_4067.png,n03792782_4067.png,0.0,-0.078737706,0.41639826,-0.35011402
alexnet_w1_mlp_simclrhn_probe3,1,375,NaN,bear,bear,inf,0375_hp_dnn_inf_bear_10_n02134418_3886.png,n02134418_3886.png,1.0,6.2969522,4.452,1.3045782
alexnet_w1_mlp_simclrhn_probe3,1,376,NaN,clock,dog,0.7,0376_hp_dnn_0.7_dog_10_n02110185_9014.png,n02110185_9014.png,0.0,-0.22825591,0.988367,-0.86028236
alexnet_w1_mlp_simclrhn_probe3,1,377,NaN,oven,bear,inf,0377_hp_dnn_inf_bear_10_n02134084_14888.png,n02134084_14888.png,0.0,1.5139185,2.8173828,-0.92168844
alexnet_w1_mlp_simclrhn_probe3,1,378,NaN,clock,truck,1.5,0378_hp_dnn_1.5_truck_10_n03417042_5249.png,n03417042_5249.png,0.0,-0.31114388,0.9600571,-0.89887476
alexnet_w1_mlp_simclrhn_probe3,1,379,NaN,knife,oven,1,0379_hp_dnn_1_oven_10_n04111531_10711.png,n04111531_10711.png,0.0,0.1535084,0.1845077,-0.021919817
alexnet_w1_mlp_simclrhn_probe3,1,380,NaN,clock,car,1.5,0380_hp_dnn_1.5_car_10_n04285008_15271.png,n04285008_15271.png,0.0,0.4614867,1.3102264,-0.60014963
alexnet_w1_mlp_simclrhn_probe3,1,381,NaN,knife,cat,0.45,0381_hp_dnn_0.45_cat_10_n02123597_12232.png,n02123597_12232.png,0.0,-0.062137198,0.48900062,-0.3897133
alexnet_w1_mlp_simclrhn_probe3,1,382,NaN,chair,clock,3,0382_hp_dnn_3_clock_10_n04548280_8083.png,n04548280_8083.png,0.0,0.32694843,1.3881598,-0.75038975
alexnet_w1_mlp_simclrhn_probe3,1,383,NaN,knife,chair,0.45,0383_hp_dnn_0.45_chair_10_n04099969_8946.png,n04099969_8946.png,0.0,0.38906062,0.6454364,-0.18128507
alexnet_w1_mlp_simclrhn_probe3,1,384,NaN,knife,keyboard,0.7,0384_hp_dnn_0.7_keyboard_10_n03085013_21973.png,n03085013_21973.png,0.0,-0.099920645,0.6059056,-0.49909452
alexnet_w1_mlp_simclrhn_probe3,1,385,NaN,clock,bottle,0.7,0385_hp_dnn_0.7_bottle_10_n04560804_15225.png,n04560804_15225.png,0.0,-0.037619174,0.4230484,-0.32574117
alexnet_w1_mlp_simclrhn_probe3,1,386,NaN,cat,cat,inf,0386_hp_dnn_inf_cat_10_n02123045_10395.png,n02123045_10395.png,1.0,13.334427,1.8199689,8.141952
alexnet_w1_mlp_simclrhn_probe3,1,387,NaN,knife,truck,0.45,0387_hp_dnn_0.45_truck_10_n03417042_4188.png,n03417042_4188.png,0.0,-0.22097689,0.42424595,-0.45624146
alexnet_w1_mlp_simclrhn_probe3,1,388,NaN,keyboard,keyboard,1.5,0388_hp_dnn_1.5_keyboard_10_n03085013_21615.png,n03085013_21615.png,1.0,6.348196,0.62290573,4.048392
alexnet_w1_mlp_simclrhn_probe3,1,389,NaN,knife,knife,inf,0389_hp_dnn_inf_knife_10_n03041632_26989.png,n03041632_26989.png,1.0,2.0050843,0.26343545,1.2315317
alexnet_w1_mlp_simclrhn_probe3,1,390,NaN,clock,airplane,0.55,0390_hp_dnn_0.55_airplane_10_n02690373_16986.png,n02690373_16986.png,0.0,0.39735806,0.5485744,-0.10692609
alexnet_w1_mlp_simclrhn_probe3,1,391,NaN,bicycle,bicycle,inf,0391_hp_dnn_inf_bicycle_10_n02835271_9067.png,n02835271_9067.png,1.0,17.43344,1.1611589,11.50624
alexnet_w1_mlp_simclrhn_probe3,1,392,NaN,clock,dog,0.45,0392_hp_dnn_0.45_dog_10_n02106382_9188.png,n02106382_9188.png,0.0,-0.17227212,0.3683978,-0.38231137
alexnet_w1_mlp_simclrhn_probe3,1,393,NaN,boat,boat,inf,0393_hp_dnn_inf_boat_10_n02951358_3205.png,n02951358_3205.png,1.0,9.684816,2.4638028,5.1060276
alexnet_w1_mlp_simclrhn_probe3,1,394,NaN,clock,knife,0.4,0394_hp_dnn_0.4_knife_10_n03041632_45270.png,n03041632_45270.png,0.0,0.35215086,0.41729072,-0.046060838
alexnet_w1_mlp_simclrhn_probe3,1,395,NaN,car,car,inf,0395_hp_dnn_inf_car_10_n03100240_6376.png,n03100240_6376.png,1.0,4.5798817,2.0611813,1.7809901
alexnet_w1_mlp_simclrhn_probe3,1,396,NaN,truck,truck,1,0396_hp_dnn_1_truck_10_n03796401_430.png,n03796401_430.png,1.0,1.0437957,0.64835864,0.27961624
alexnet_w1_mlp_simclrhn_probe3,1,397,NaN,clock,knife,0.7,0397_hp_dnn_0.7_knife_10_n03041632_24181.png,n03041632_24181.png,0.0,0.40718403,0.46207106,-0.03881099
alexnet_w1_mlp_simclrhn_probe3,1,398,NaN,knife,bear,1,0398_hp_dnn_1_bear_10_n02134084_16190.png,n02134084_16190.png,0.0,-0.22340699,0.30567127,-0.3741148
alexnet_w1_mlp_simclrhn_probe3,1,399,NaN,clock,bear,0.55,0399_hp_dnn_0.55_bear_10_n02132136_7253.png,n02132136_7253.png,0.0,-0.113119885,0.68150264,-0.561883
alexnet_w1_mlp_simclrhn_probe3,1,400,NaN,chair,boat,1,0400_hp_dnn_1_boat_10_n03662601_34676.png,n03662601_34676.png,0.0,-0.22620356,0.47684538,-0.4971307
alexnet_w1_mlp_simclrhn_probe3,1,401,NaN,clock,knife,0.55,0401_hp_dnn_0.55_knife_10_n03041632_81471.png,n03041632_81471.png,0.0,0.0219246,0.9245491,-0.6382519
alexnet_w1_mlp_simclrhn_probe3,1,402,NaN,clock,cat,0.7,0402_hp_dnn_0.7_cat_10_n02123597_3822.png,n02123597_3822.png,0.0,-0.07397994,0.5059456,-0.4100693
alexnet_w1_mlp_simclrhn_probe3,1,403,NaN,keyboard,keyboard,1.5,0403_hp_dnn_1.5_keyboard_10_n03085013_4823.png,n03085013_4823.png,1.0,3.0043325,0.9140255,1.4780703
alexnet_w1_mlp_simclrhn_probe3,1,404,NaN,knife,dog,0.4,0404_hp_dnn_0.4_dog_10_n02108551_8385.png,n02108551_8385.png,0.0,-0.14049207,0.4481821,-0.4162555
alexnet_w1_mlp_simclrhn_probe3,1,405,NaN,clock,cat,0.7,0405_hp_dnn_0.7_cat_10_n02124075_8732.png,n02124075_8732.png,0.0,0.08385551,0.41311982,-0.23282503
alexnet_w1_mlp_simclrhn_probe3,1,406,NaN,bicycle,dog,3,0406_hp_dnn_3_dog_10_n02093428_17625.png,n02093428_17625.png,0.0,-0.20398615,0.56680804,-0.5450338
alexnet_w1_mlp_simclrhn_probe3,1,407,NaN,chair,chair,inf,0407_hp_dnn_inf_chair_10_n02791124_6999.png,n02791124_6999.png,1.0,2.1894674,2.0298736,0.11284988
alexnet_w1_mlp_simclrhn_probe3,1,408,NaN,bird,bird,3,0408_hp_dnn_3_bird_10_n02028035_521.png,n02028035_521.png,1.0,0.5860623,0.5496812,0.02572534
alexnet_w1_mlp_simclrhn_probe3,1,409,NaN,knife,truck,0.4,0409_hp_dnn_0.4_truck_10_n03417042_750.png,n03417042_750.png,0.0,-0.26742947,0.5395649,-0.5706312
alexnet_w1_mlp_simclrhn_probe3,1,410,NaN,airplane,airplane,inf,0410_hp_dnn_inf_airplane_10_n02690373_5779.png,n02690373_5779.png,1.0,9.331145,2.8199768,4.6040916
alexnet_w1_mlp_simclrhn_probe3,1,411,NaN,clock,cat,1.5,0411_hp_dnn_1.5_cat_10_n02123045_7154.png,n02123045_7154.png,0.0,-0.19803323,0.1230287,-0.22702508
alexnet_w1_mlp_simclrhn_probe3,1,412,NaN,bottle,bottle,1.5,0412_hp_dnn_1.5_bottle_10_n04591713_6958.png,n04591713_6958.png,1.0,2.2639594,0.41175756,1.3097045
alexnet_w1_mlp_simclrhn_probe3,1,413,NaN,bicycle,bird,1.5,0413_hp_dnn_1.5_bird_10_n01818515_42621.png,n01818515_42621.png,0.0,0.0067421403,0.039499924,-0.02316325
alexnet_w1_mlp_simclrhn_probe3,1,414,NaN,truck,truck,inf,0414_hp_dnn_inf_truck_10_n03796401_1330.png,n03796401_1330.png,1.0,5.671692,3.1789045,1.7626668
alexnet_w1_mlp_simclrhn_probe3,1,415,NaN,bird,bird,1.5,0415_hp_dnn_1.5_bird_10_n01843065_6365.png,n01843065_6365.png,1.0,0.42722574,0.1744774,0.17872007
alexnet_w1_mlp_simclrhn_probe3,1,416,NaN,bottle,bottle,1.5,0416_hp_dnn_1.5_bottle_10_n03983396_11898.png,n03983396_11898.png,1.0,0.43490982,0.29636326,0.09796721
alexnet_w1_mlp_simclrhn_probe3,1,417,NaN,bird,bird,3,0417_hp_dnn_3_bird_10_n01530575_3831.png,n01530575_3831.png,1.0,1.124791,-0.001864627,0.7966659
alexnet_w1_mlp_simclrhn_probe3,1,418,NaN,clock,bottle,0.4,0418_hp_dnn_0.4_bottle_10_n03983396_8837.png,n03983396_8837.png,0.0,0.30384943,0.5523466,-0.17571403
alexnet_w1_mlp_simclrhn_probe3,1,419,NaN,truck,car,0.7,0419_hp_dnn_0.7_car_10_n02814533_90798.png,n02814533_90798.png,0.0,0.77578396,1.2795534,-0.3562188
alexnet_w1_mlp_simclrhn_probe3,1,420,NaN,bird,bird,3,0420_hp_dnn_3_bird_10_n01819313_3440.png,n01819313_3440.png,1.0,0.3690453,0.030860048,0.23913309
alexnet_w1_mlp_simclrhn_probe3,1,421,NaN,knife,dog,0.55,0421_hp_dnn_0.55_dog_10_n02090721_4433.png,n02090721_4433.png,0.0,-0.1768414,0.423306,-0.4243683
alexnet_w1_mlp_simclrhn_probe3,1,422,NaN,elephant,elephant,3,0422_hp_dnn_3_elephant_10_n02504013_9566.png,n02504013_9566.png,1.0,0.39719683,0.32603297,0.05032045
alexnet_w1_mlp_simclrhn_probe3,1,423,NaN,cat,dog,1.5,0423_hp_dnn_1.5_dog_10_n02105251_6599.png,n02105251_6599.png,0.0,-0.27295727,0.03536229,-0.21801487
alexnet_w1_mlp_simclrhn_probe3,1,424,NaN,clock,chair,0.7,0424_hp_dnn_0.7_chair_10_n02791124_5759.png,n02791124_5759.png,0.0,0.43245688,0.5953625,-0.11519166
alexnet_w1_mlp_simclrhn_probe3,1,425,NaN,elephant,elephant,inf,0425_hp_dnn_inf_elephant_10_n02504458_150.png,n02504458_150.png,1.0,7.614045,2.042429,3.9397275
alexnet_w1_mlp_simclrhn_probe3,1,426,NaN,clock,clock,0.45,0426_hp_dnn_0.45_clock_10_n04548280_10040.png,n04548280_10040.png,1.0,1.3784899,0.2763105,0.77935845
alexnet_w1_mlp_simclrhn_probe3,1,427,NaN,clock,elephant,0.7,0427_hp_dnn_0.7_elephant_10_n02504458_155.png,n02504458_155.png,0.0,-0.30095518,0.47670165,-0.5498864
alexnet_w1_mlp_simclrhn_probe3,1,428,NaN,knife,knife,1,0428_hp_dnn_1_knife_10_n03041632_48062.png,n03041632_48062.png,1.0,0.9488152,0.66168195,0.2030339
alexnet_w1_mlp_simclrhn_probe3,1,429,NaN,airplane,truck,1.5,0429_hp_dnn_1.5_truck_10_n04467665_40361.png,n04467665_40361.png,0.0,0.99718356,1.5259387,-0.37388638
alexnet_w1_mlp_simclrhn_probe3,1,430,NaN,clock,bird,0.45,0430_hp_dnn_0.45_bird_10_n01614925_7608.png,n01614925_7608.png,0.0,-0.08156132,0.5748605,-0.46416035
alexnet_w1_mlp_simclrhn_probe3,1,431,NaN,clock,bear,0.45,0431_hp_dnn_0.45_bear_10_n02133161_2749.png,n02133161_2749.png,0.0,-0.15774849,0.45041963,-0.43003982
alexnet_w1_mlp_simclrhn_probe3,1,432,NaN,chair,boat,0.55,0432_hp_dnn_0.55_boat_10_n04612504_654.png,n04612504_654.png,0.0,0.28870004,0.67715406,-0.27467847
alexnet_w1_mlp_simclrhn_probe3,1,433,NaN,bottle,bottle,1,0433_hp_dnn_1_bottle_10_n04579145_287.png,n04579145_287.png,1.0,1.8491042,0.9448634,0.6393948
alexnet_w1_mlp_simclrhn_probe3,1,434,NaN,bird,bear,3,0434_hp_dnn_3_bear_10_n02133161_1423.png,n02133161_1423.png,0.0,-0.39450306,0.30357507,-0.4936158
alexnet_w1_mlp_simclrhn_probe3,1,435,NaN,clock,bicycle,0.7,0435_hp_dnn_0.7_bicycle_10_n02835271_4656.png,n02835271_4656.png,0.0,0.46288148,0.6064705,-0.101532795
alexnet_w1_mlp_simclrhn_probe3,1,436,NaN,clock,clock,0.7,0436_hp_dnn_0.7_clock_10_n02708093_3688.png,n02708093_3688.png,1.0,1.0419544,0.39037022,0.46073958
alexnet_w1_mlp_simclrhn_probe3,1,437,NaN,airplane,airplane,inf,0437_hp_dnn_inf_airplane_10_n02690373_10278.png,n02690373_10278.png,1.0,1.8466387,0.7675764,0.76301223
alexnet_w1_mlp_simclrhn_probe3,1,438,NaN,knife,car,0.4,0438_hp_dnn_0.4_car_10_n04285008_11133.png,n04285008_11133.png,0.0,-0.3930714,0.45483175,-0.59955806
alexnet_w1_mlp_simclrhn_probe3,1,439,NaN,knife,knife,1,0439_hp_dnn_1_knife_10_n03041632_4214.png,n03041632_4214.png,1.0,0.5903349,0.45722818,0.09412066
alexnet_w1_mlp_simclrhn_probe3,1,440,NaN,knife,oven,inf,0440_hp_dnn_inf_oven_10_n04111531_7741.png,n04111531_7741.png,0.0,1.6273053,1.7298174,-0.07248702
alexnet_w1_mlp_simclrhn_probe3,1,441,NaN,bicycle,bicycle,3,0441_hp_dnn_3_bicycle_10_n03792782_4472.png,n03792782_4472.png,1.0,3.0196257,0.7690892,1.5913696
alexnet_w1_mlp_simclrhn_probe3,1,442,NaN,clock,bird,0.7,0442_hp_dnn_0.7_bird_10_n01798484_18666.png,n01798484_18666.png,0.0,-0.14334585,0.5471959,-0.48828676
alexnet_w1_mlp_simclrhn_probe3,1,443,NaN,keyboard,keyboard,1.5,0443_hp_dnn_1.5_keyboard_10_n04505470_5059.png,n04505470_5059.png,1.0,0.9987893,0.67070955,0.23198743
alexnet_w1_mlp_simclrhn_probe3,1,444,NaN,clock,elephant,0.55,0444_hp_dnn_0.55_elephant_10_n02504013_2369.png,n02504013_2369.png,0.0,-0.29859364,0.5062081,-0.56908077
alexnet_w1_mlp_simclrhn_probe3,1,445,NaN,chair,bottle,3,0445_hp_dnn_3_bottle_10_n02823428_10796.png,n02823428_10796.png,0.0,0.17687519,0.9140172,-0.52123815
alexnet_w1_mlp_simclrhn_probe3,1,446,NaN,oven,oven,3,0446_hp_dnn_3_oven_10_n04111531_4421.png,n04111531_4421.png,1.0,0.40238848,0.17690688,0.15943956
alexnet_w1_mlp_simclrhn_probe3,1,447,NaN,bicycle,bicycle,inf,0447_hp_dnn_inf_bicycle_10_n02835271_7303.png,n02835271_7303.png,1.0,14.400023,1.6351719,9.0261135
alexnet_w1_mlp_simclrhn_probe3,1,448,NaN,chair,chair,inf,0448_hp_dnn_inf_chair_10_n02791124_7877.png,n02791124_7877.png,1.0,1.7975144,0.8267041,0.6864666
alexnet_w1_mlp_simclrhn_probe3,1,449,NaN,clock,bottle,1.5,0449_hp_dnn_1.5_bottle_10_n04560804_12099.png,n04560804_12099.png,0.0,-0.06989199,0.75353765,-0.5822527
alexnet_w1_mlp_simclrhn_probe3,1,450,NaN,airplane,boat,1,0450_hp_dnn_1_boat_10_n03662601_18924.png,n03662601_18924.png,0.0,0.7007489,0.750364,-0.035083164
alexnet_w1_mlp_simclrhn_probe3,1,451,NaN,clock,bottle,1,0451_hp_dnn_1_bottle_10_n04591713_4206.png,n04591713_4206.png,0.0,0.2716727,0.6548446,-0.27094343
alexnet_w1_mlp_simclrhn_probe3,1,452,NaN,clock,clock,0.55,0452_hp_dnn_0.55_clock_10_n04548280_6689.png,n04548280_6689.png,1.0,1.1031021,0.47165132,0.44650313
alexnet_w1_mlp_simclrhn_probe3,1,453,NaN,knife,dog,0.4,0453_hp_dnn_0.4_dog_10_n02090721_5305.png,n02090721_5305.png,0.0,-0.15138246,0.45946634,-0.4319353
alexnet_w1_mlp_simclrhn_probe3,1,454,NaN,knife,clock,0.7,0454_hp_dnn_0.7_clock_10_n03196217_1746.png,n03196217_1746.png,0.0,0.34857213,0.41738108,-0.04865527
alexnet_w1_mlp_simclrhn_probe3,1,455,NaN,keyboard,keyboard,3,0455_hp_dnn_3_keyboard_10_n04505470_7721.png,n04505470_7721.png,1.0,4.3949547,0.69665974,2.6150894
alexnet_w1_mlp_simclrhn_probe3,1,456,NaN,clock,clock,0.55,0456_hp_dnn_0.55_clock_10_n04548280_3248.png,n04548280_3248.png,1.0,1.1462063,0.44353512,0.49686354
alexnet_w1_mlp_simclrhn_probe3,1,457,NaN,bird,bird,inf,0457_hp_dnn_inf_bird_10_n01534433_28009.png,n01534433_28009.png,1.0,2.4951618,0.30327237,1.5498998
alexnet_w1_mlp_simclrhn_probe3,1,458,NaN,knife,chair,0.4,0458_hp_dnn_0.4_chair_10_n04099969_142.png,n04099969_142.png,0.0,0.16950843,0.4182059,-0.17585567
alexnet_w1_mlp_simclrhn_probe3,1,459,NaN,clock,bicycle,0.55,0459_hp_dnn_0.55_bicycle_10_n03792782_7092.png,n03792782_7092.png,0.0,0.71597576,0.91397935,-0.14000969
alexnet_w1_mlp_simclrhn_probe3,1,460,NaN,knife,keyboard,0.45,0460_hp_dnn_0.45_keyboard_10_n03085013_25559.png,n03085013_25559.png,0.0,-0.013541408,0.5062053,-0.36751643
alexnet_w1_mlp_simclrhn_probe3,1,461,NaN,clock,elephant,0.7,0461_hp_dnn_0.7_elephant_10_n02504013_9144.png,n02504013_9144.png,0.0,-0.17011338,0.44064832,-0.43187374
alexnet_w1_mlp_simclrhn_probe3,1,462,NaN,clock,clock,0.45,0462_hp_dnn_0.45_clock_10_n03196217_2003.png,n03196217_2003.png,1.0,0.5701439,0.3883346,0.12855858
alexnet_w1_mlp_simclrhn_probe3,1,463,NaN,knife,elephant,1,0463_hp_dnn_1_elephant_10_n02504013_3169.png,n02504013_3169.png,0.0,-0.10384533,0.28944173,-0.27809596
alexnet_w1_mlp_simclrhn_probe3,1,464,NaN,clock,dog,0.55,0464_hp_dnn_0.55_dog_10_n02089867_6424.png,n02089867_6424.png,0.0,-0.20017517,0.5341691,-0.5192598
alexnet_w1_mlp_simclrhn_probe3,1,465,NaN,clock,keyboard,1,0465_hp_dnn_1_keyboard_10_n03085013_22494.png,n03085013_22494.png,0.0,0.08520562,0.9414468,-0.60545397
alexnet_w1_mlp_simclrhn_probe3,1,466,NaN,knife,dog,0.4,0466_hp_dnn_0.4_dog_10_n02106662_37555.png,n02106662_37555.png,0.0,-0.13239972,0.46682507,-0.42371592
alexnet_w1_mlp_simclrhn_probe3,1,467,NaN,clock,car,0.55,0467_hp_dnn_0.55_car_10_n02814533_4726.png,n02814533_4726.png,0.0,-0.0421112,0.95040065,-0.7018119
alexnet_w1_mlp_simclrhn_probe3,1,468,NaN,clock,elephant,0.45,0468_hp_dnn_0.45_elephant_10_n02504458_1473.png,n02504458_1473.png,0.0,-0.19779296,0.4815116,-0.48034087
alexnet_w1_mlp_simclrhn_probe3,1,469,NaN,knife,bottle,0.55,0469_hp_dnn_0.55_bottle_10_n04557648_3350.png,n04557648_3350.png,0.0,0.18481587,0.48273352,-0.21065961
alexnet_w1_mlp_simclrhn_probe3,1,470,NaN,knife,knife,0.4,0470_hp_dnn_0.4_knife_10_n03041632_31909.png,n03041632_31909.png,1.0,0.57348603,0.55363077,0.01403979
alexnet_w1_mlp_simclrhn_probe3,1,471,NaN,knife,truck,0.4,0471_hp_dnn_0.4_truck_10_n04467665_70880.png,n04467665_70880.png,0.0,-0.2794482,0.4883352,-0.54290485
alexnet_w1_mlp_simclrhn_probe3,1,472,NaN,clock,dog,0.45,0472_hp_dnn_0.45_dog_10_n02097209_7557.png,n02097209_7557.png,0.0,-0.14637373,0.3751733,-0.36878943
alexnet_w1_mlp_simclrhn_probe3,1,473,NaN,oven,oven,1,0473_hp_dnn_1_oven_10_n04111531_4438.png,n04111531_4438.png,1.0,1.0343415,0.3822953,0.46106625
alexnet_w1_mlp_simclrhn_probe3,1,474,NaN,knife,airplane,0.7,0474_hp_dnn_0.7_airplane_10_n02690373_194.png,n02690373_194.png,0.0,0.26418465,0.44529456,-0.12806405
alexnet_w1_mlp_simclrhn_probe3,1,475,NaN,bicycle,bicycle,1.5,0475_hp_dnn_1.5_bicycle_10_n02835271_6953.png,n02835271_6953.png,1.0,1.0315248,0.6191032,0.2916261
alexnet_w1_mlp_simclrhn_probe3,1,476,NaN,clock,oven,0.45,0476_hp_dnn_0.45_oven_10_n04111531_14435.png,n04111531_14435.png,0.0,-0.030135684,0.5228743,-0.3910371
alexnet_w1_mlp_simclrhn_probe3,1,477,NaN,clock,elephant,1.5,0477_hp_dnn_1.5_elephant_10_n02504013_5192.png,n02504013_5192.png,0.0,-0.33495128,0.3993131,-0.5192033
alexnet_w1_mlp_simclrhn_probe3,1,478,NaN,clock,chair,0.7,0478_hp_dnn_0.7_chair_10_n03376595_3566.png,n03376595_3566.png,0.0,0.63209534,0.67485446,-0.030235264
alexnet_w1_mlp_simclrhn_probe3,1,479,NaN,bottle,truck,1,0479_hp_dnn_1_truck_10_n03417042_22709.png,n03417042_22709.png,0.0,-0.22746341,0.3777148,-0.42792565
alexnet_w1_mlp_simclrhn_probe3,1,480,NaN,keyboard,keyboard,inf,0480_hp_dnn_inf_keyboard_10_n04505470_4603.png,n04505470_4603.png,1.0,9.478639,5.1226587,3.080143
alexnet_w1_mlp_simclrhn_probe3,1,481,NaN,clock,car,0.55,0481_hp_dnn_0.55_car_10_n03100240_1794.png,n03100240_1794.png,0.0,0.020134412,0.71953917,-0.49455386
alexnet_w1_mlp_simclrhn_probe3,1,482,NaN,clock,elephant,0.7,0482_hp_dnn_0.7_elephant_10_n02504458_1233.png,n02504458_1233.png,0.0,-0.25963756,0.576003,-0.5908871
alexnet_w1_mlp_simclrhn_probe3,1,483,NaN,knife,airplane,0.45,0483_hp_dnn_0.45_airplane_10_n02690373_3047.png,n02690373_3047.png,0.0,0.15226087,0.5979171,-0.31512654
alexnet_w1_mlp_simclrhn_probe3,1,484,NaN,knife,elephant,0.55,0484_hp_dnn_0.55_elephant_10_n02504013_7422.png,n02504013_7422.png,0.0,-0.18042584,0.46170074,-0.45405206
alexnet_w1_mlp_simclrhn_probe3,1,485,NaN,clock,bicycle,0.45,0485_hp_dnn_0.45_bicycle_10_n03792782_16034.png,n03792782_16034.png,0.0,0.12580028,0.5450756,-0.29647243
alexnet_w1_mlp_simclrhn_probe3,1,486,NaN,bicycle,bicycle,3,0486_hp_dnn_3_bicycle_10_n02835271_11922.png,n02835271_11922.png,1.0,1.6291642,1.3561054,0.1930817
alexnet_w1_mlp_simclrhn_probe3,1,487,NaN,clock,truck,0.7,0487_hp_dnn_0.7_truck_10_n03796401_6526.png,n03796401_6526.png,0.0,0.39583313,1.049104,-0.46193224
alexnet_w1_mlp_simclrhn_probe3,1,488,NaN,boat,boat,3,0488_hp_dnn_3_boat_10_n03662601_1834.png,n03662601_1834.png,1.0,4.595467,0.52596104,2.8775754
alexnet_w1_mlp_simclrhn_probe3,1,489,NaN,clock,dog,0.7,0489_hp_dnn_0.7_dog_10_n02100236_619.png,n02100236_619.png,0.0,-0.24447429,0.25247154,-0.35139376
alexnet_w1_mlp_simclrhn_probe3,1,490,NaN,knife,truck,0.45,0490_hp_dnn_0.45_truck_10_n04467665_21266.png,n04467665_21266.png,0.0,-0.23501462,0.48601413,-0.5098443
alexnet_w1_mlp_simclrhn_probe3,1,491,NaN,clock,chair,0.55,0491_hp_dnn_0.55_chair_10_n04099969_18220.png,n04099969_18220.png,0.0,0.50024414,0.5393888,-0.027679438
alexnet_w1_mlp_simclrhn_probe3,1,492,NaN,keyboard,keyboard,1.5,0492_hp_dnn_1.5_keyboard_10_n03085013_4157.png,n03085013_4157.png,1.0,2.177992,1.0402813,0.80448306
alexnet_w1_mlp_simclrhn_probe3,1,493,NaN,clock,bicycle,0.4,0493_hp_dnn_0.4_bicycle_10_n03792782_1276.png,n03792782_1276.png,0.0,-0.18886486,0.4186081,-0.42954826
alexnet_w1_mlp_simclrhn_probe3,1,494,NaN,boat,boat,3,0494_hp_dnn_3_boat_10_n03344393_1987.png,n03344393_1987.png,1.0,4.410723,2.54112,1.3220091
alexnet_w1_mlp_simclrhn_probe3,1,495,NaN,clock,boat,0.45,0495_hp_dnn_0.45_boat_10_n03344393_381.png,n03344393_381.png,0.0,-0.032251395,0.31932887,-0.24860479
alexnet_w1_mlp_simclrhn_probe3,1,496,NaN,clock,clock,inf,0496_hp_dnn_inf_clock_10_n02708093_8390.png,n02708093_8390.png,1.0,4.886399,4.690385,0.13860278
alexnet_w1_mlp_simclrhn_probe3,1,497,NaN,keyboard,keyboard,0.55,0497_hp_dnn_0.55_keyboard_10_n04505470_1043.png,n04505470_1043.png,1.0,1.5288147,0.6317561,0.6343162
alexnet_w1_mlp_simclrhn_probe3,1,498,NaN,clock,dog,0.55,0498_hp_dnn_0.55_dog_10_n02100877_1902.png,n02100877_1902.png,0.0,-0.19368361,0.29317677,-0.3442623
alexnet_w1_mlp_simclrhn_probe3,1,499,NaN,knife,knife,1.5,0499_hp_dnn_1.5_knife_10_n03041632_55083.png,n03041632_55083.png,1.0,0.66083056,0.64587295,0.010576625
alexnet_w1_mlp_simclrhn_probe3,1,500,NaN,chair,truck,1.5,0500_hp_dnn_1.5_truck_10_n04467665_45872.png,n04467665_45872.png,0.0,-0.200751,0.77973783,-0.6933103
alexnet_w1_mlp_simclrhn_probe3,1,501,NaN,knife,boat,0.7,0501_hp_dnn_0.7_boat_10_n04273569_3244.png,n04273569_3244.png,0.0,-0.18271837,0.4877899,-0.47412094
alexnet_w1_mlp_simclrhn_probe3,1,502,NaN,knife,bear,0.45,0502_hp_dnn_0.45_bear_10_n02134418_2157.png,n02134418_2157.png,0.0,-0.11169055,0.32222298,-0.3068232
alexnet_w1_mlp_simclrhn_probe3,1,503,NaN,bottle,bottle,3,0503_hp_dnn_3_bottle_10_n04591713_17618.png,n04591713_17618.png,1.0,1.9337445,1.2129023,0.50971246
alexnet_w1_mlp_simclrhn_probe3,1,504,NaN,knife,cat,1,0504_hp_dnn_1_cat_10_n02125311_8496.png,n02125311_8496.png,0.0,-0.09185421,0.59397554,-0.4849549
alexnet_w1_mlp_simclrhn_probe3,1,505,NaN,car,car,inf,0505_hp_dnn_inf_car_10_n02814533_3560.png,n02814533_3560.png,1.0,12.24688,11.260701,0.69733346
alexnet_w1_mlp_simclrhn_probe3,1,506,NaN,clock,truck,0.7,0506_hp_dnn_0.7_truck_10_n03417042_751.png,n03417042_751.png,0.0,-0.08484158,0.49494544,-0.40997133
alexnet_w1_mlp_simclrhn_probe3,1,507,NaN,chair,keyboard,inf,0507_hp_dnn_inf_keyboard_10_n03085013_23213.png,n03085013_23213.png,0.0,1.8620336,3.2917056,-1.0109308
alexnet_w1_mlp_simclrhn_probe3,1,508,NaN,knife,bicycle,0.4,0508_hp_dnn_0.4_bicycle_10_n03792782_19709.png,n03792782_19709.png,0.0,-0.26984072,0.38635466,-0.46400023
alexnet_w1_mlp_simclrhn_probe3,1,509,NaN,oven,oven,inf,0509_hp_dnn_inf_oven_10_n04111531_3076.png,n04111531_3076.png,1.0,2.1743164,1.8467069,0.23165493
alexnet_w1_mlp_simclrhn_probe3,1,510,NaN,knife,knife,0.4,0510_hp_dnn_0.4_knife_10_n03041632_14774.png,n03041632_14774.png,1.0,0.5057435,0.36980343,0.09612415
alexnet_w1_mlp_simclrhn_probe3,1,511,NaN,car,car,0.7,0511_hp_dnn_0.7_car_10_n03100240_7703.png,n03100240_7703.png,1.0,1.7252442,0.81358445,0.6446408
alexnet_w1_mlp_simclrhn_probe3,1,512,NaN,knife,bear,0.55,0512_hp_dnn_0.55_bear_10_n02134084_13434.png,n02134084_13434.png,0.0,-0.15301651,0.43027177,-0.41244712
alexnet_w1_mlp_simclrhn_probe3,1,513,NaN,cat,dog,inf,0513_hp_dnn_inf_dog_10_n02111500_4280.png,n02111500_4280.png,0.0,0.67636883,2.8652031,-1.5477395
alexnet_w1_mlp_simclrhn_probe3,1,514,NaN,knife,bear,0.55,0514_hp_dnn_0.55_bear_10_n02132136_23853.png,n02132136_23853.png,0.0,-0.14078197,0.3951614,-0.37896922
alexnet_w1_mlp_simclrhn_probe3,1,515,NaN,bicycle,bicycle,1.5,0515_hp_dnn_1.5_bicycle_10_n03792782_17193.png,n03792782_17193.png,1.0,0.5101951,0.43525806,0.052988473
alexnet_w1_mlp_simclrhn_probe3,1,516,NaN,clock,dog,1,0516_hp_dnn_1_dog_10_n02102177_5770.png,n02102177_5770.png,0.0,-0.16380167,0.3131338,-0.3372443
alexnet_w1_mlp_simclrhn_probe3,1,517,NaN,clock,bear,0.7,0517_hp_dnn_0.7_bear_10_n02132136_2279.png,n02132136_2279.png,0.0,-0.11526619,0.35865733,-0.33511454
alexnet_w1_mlp_simclrhn_probe3,1,518,NaN,bear,bear,inf,0518_hp_dnn_inf_bear_10_n02134084_6910.png,n02134084_6910.png,1.0,2.6841002,2.4313996,0.17868629
alexnet_w1_mlp_simclrhn_probe3,1,519,NaN,oven,oven,0.7,0519_hp_dnn_0.7_oven_10_n04111531_9041.png,n04111531_9041.png,1.0,0.80628043,0.80442905,0.0013091232
alexnet_w1_mlp_simclrhn_probe3,1,520,NaN,knife,cat,1,0520_hp_dnn_1_cat_10_n02123159_5424.png,n02123159_5424.png,0.0,0.08172395,0.5046894,-0.29908174
alexnet_w1_mlp_simclrhn_probe3,1,521,NaN,clock,bicycle,0.45,0521_hp_dnn_0.45_bicycle_10_n02835271_672.png,n02835271_672.png,0.0,-0.075145096,0.37333366,-0.31712237
alexnet_w1_mlp_simclrhn_probe3,1,522,NaN,knife,airplane,0.45,0522_hp_dnn_0.45_airplane_10_n02690373_18111.png,n02690373_18111.png,0.0,0.09173878,0.44527465,-0.2499876
alexnet_w1_mlp_simclrhn_probe3,1,523,NaN,clock,clock,1,0523_hp_dnn_1_clock_10_n04548280_3013.png,n04548280_3013.png,1.0,2.3163729,0.5347925,1.2597677
alexnet_w1_mlp_simclrhn_probe3,1,524,NaN,knife,dog,0.45,0524_hp_dnn_0.45_dog_10_n02094258_4142.png,n02094258_4142.png,0.0,-0.13525003,0.4751122,-0.43159127
alexnet_w1_mlp_simclrhn_probe3,1,525,NaN,clock,clock,3,0525_hp_dnn_3_clock_10_n04548280_6919.png,n04548280_6919.png,1.0,3.655531,0.122044146,2.4985526
alexnet_w1_mlp_simclrhn_probe3,1,526,NaN,knife,cat,0.4,0526_hp_dnn_0.4_cat_10_n02124075_16814.png,n02124075_16814.png,0.0,-0.06434805,0.3830426,-0.31635296
alexnet_w1_mlp_simclrhn_probe3,1,527,NaN,clock,clock,1,0527_hp_dnn_1_clock_10_n04548280_3342.png,n04548280_3342.png,1.0,0.6692467,0.33643752,0.23533161
alexnet_w1_mlp_simclrhn_probe3,1,528,NaN,chair,boat,1,0528_hp_dnn_1_boat_10_n04612504_31680.png,n04612504_31680.png,0.0,0.31232634,0.7192144,-0.2877133
alexnet_w1_mlp_simclrhn_probe3,1,529,NaN,keyboard,keyboard,inf,0529_hp_dnn_inf_keyboard_10_n03085013_7962.png,n03085013_7962.png,1.0,9.902691,1.5169947,5.929583
alexnet_w1_mlp_simclrhn_probe3,1,530,NaN,bicycle,bicycle,3,0530_hp_dnn_3_bicycle_10_n02835271_949.png,n02835271_949.png,1.0,7.1199827,2.9833539,2.9250386
alexnet_w1_mlp_simclrhn_probe3,1,531,NaN,keyboard,keyboard,1,0531_hp_dnn_1_keyboard_10_n04505470_4228.png,n04505470_4228.png,1.0,1.1418093,0.69780445,0.31395888
alexnet_w1_mlp_simclrhn_probe3,1,532,NaN,knife,boat,0.7,0532_hp_dnn_0.7_boat_10_n03344393_3219.png,n03344393_3219.png,0.0,-0.15324564,0.47147492,-0.44174415
alexnet_w1_mlp_simclrhn_probe3,1,533,NaN,chair,elephant,3,0533_hp_dnn_3_elephant_10_n02504458_3399.png,n02504458_3399.png,0.0,0.017980497,0.97316754,-0.6754192
alexnet_w1_mlp_simclrhn_probe3,1,534,NaN,clock,bird,0.55,0534_hp_dnn_0.55_bird_10_n01616318_12459.png,n01616318_12459.png,0.0,-0.0075032553,0.4791093,-0.34408703
alexnet_w1_mlp_simclrhn_probe3,1,535,NaN,knife,elephant,0.4,0535_hp_dnn_0.4_elephant_10_n02504013_1846.png,n02504013_1846.png,0.0,-0.22661561,0.43364584,-0.46687534
alexnet_w1_mlp_simclrhn_probe3,1,536,NaN,clock,bicycle,0.55,0536_hp_dnn_0.55_bicycle_10_n03792782_5097.png,n03792782_5097.png,0.0,0.017223783,0.683881,-0.47139785
alexnet_w1_mlp_simclrhn_probe3,1,537,NaN,keyboard,bottle,3,0537_hp_dnn_3_bottle_10_n02823428_5115.png,n02823428_5115.png,0.0,0.35756883,1.3880436,-0.7286557
alexnet_w1_mlp_simclrhn_probe3,1,538,NaN,keyboard,keyboard,inf,0538_hp_dnn_inf_keyboard_10_n03085013_21282.png,n03085013_21282.png,1.0,4.907782,3.9806886,0.6555541
alexnet_w1_mlp_simclrhn_probe3,1,539,NaN,knife,oven,0.4,0539_hp_dnn_0.4_oven_10_n04111531_1815.png,n04111531_1815.png,0.0,0.15065224,0.553176,-0.2846273
alexnet_w1_mlp_simclrhn_probe3,1,540,NaN,clock,chair,1,0540_hp_dnn_1_chair_10_n02791124_5268.png,n02791124_5268.png,0.0,0.21031937,0.4537712,-0.17214644
alexnet_w1_mlp_simclrhn_probe3,1,541,NaN,knife,airplane,0.55,0541_hp_dnn_0.55_airplane_10_n02690373_3035.png,n02690373_3035.png,0.0,0.21806821,0.27334067,-0.039083533
alexnet_w1_mlp_simclrhn_probe3,1,542,NaN,dog,dog,inf,0542_hp_dnn_inf_dog_10_n02107683_1460.png,n02107683_1460.png,1.0,2.652023,0.75209075,1.3434551
alexnet_w1_mlp_simclrhn_probe3,1,543,NaN,boat,boat,inf,0543_hp_dnn_inf_boat_10_n02951358_31813.png,n02951358_31813.png,1.0,9.634878,3.7119224,4.188162
alexnet_w1_mlp_simclrhn_probe3,1,544,NaN,knife,bird,0.4,0544_hp_dnn_0.4_bird_10_n01797886_16808.png,n01797886_16808.png,0.0,-0.09076111,0.41804275,-0.35977864
alexnet_w1_mlp_simclrhn_probe3,1,545,NaN,clock,elephant,0.45,0545_hp_dnn_0.45_elephant_10_n02504458_4767.png,n02504458_4767.png,0.0,-0.25839022,0.57029605,-0.5859697
alexnet_w1_mlp_simclrhn_probe3,1,546,NaN,chair,knife,3,0546_hp_dnn_3_knife_10_n03041632_41493.png,n03041632_41493.png,0.0,0.06180671,1.0286906,-0.6836902
alexnet_w1_mlp_simclrhn_probe3,1,547,NaN,elephant,elephant,3,0547_hp_dnn_3_elephant_10_n02504458_3329.png,n02504458_3329.png,1.0,0.3234753,0.26997682,0.037829135
alexnet_w1_mlp_simclrhn_probe3,1,548,NaN,clock,cat,0.45,0548_hp_dnn_0.45_cat_10_n02124075_12467.png,n02124075_12467.png,0.0,-0.11381734,0.6846152,-0.56457704
alexnet_w1_mlp_simclrhn_probe3,1,549,NaN,clock,truck,0.7,0549_hp_dnn_0.7_truck_10_n03417042_6467.png,n03417042_6467.png,0.0,-0.1737837,0.7759707,-0.6715778
alexnet_w1_mlp_simclrhn_probe3,1,550,NaN,airplane,airplane,inf,0550_hp_dnn_inf_airplane_10_n02690373_734.png,n02690373_734.png,1.0,13.2830305,0.52621406,9.0204315
alexnet_w1_mlp_simclrhn_probe3,1,551,NaN,clock,car,0.4,0551_hp_dnn_0.4_car_10_n02814533_85296.png,n02814533_85296.png,0.0,-0.38214365,0.47918162,-0.60904896
alexnet_w1_mlp_simclrhn_probe3,1,552,NaN,clock,elephant,0.7,0552_hp_dnn_0.7_elephant_10_n02504013_18005.png,n02504013_18005.png,0.0,-0.22244024,0.56532115,-0.55703145
alexnet_w1_mlp_simclrhn_probe3,1,553,NaN,clock,clock,0.45,0553_hp_dnn_0.45_clock_10_n02708093_1495.png,n02708093_1495.png,1.0,0.68006283,0.31225047,0.26008263
alexnet_w1_mlp_simclrhn_probe3,1,554,NaN,car,car,1.5,0554_hp_dnn_1.5_car_10_n04285008_3462.png,n04285008_3462.png,1.0,0.75272006,0.5245339,0.16135196
alexnet_w1_mlp_simclrhn_probe3,1,555,NaN,clock,truck,0.4,0555_hp_dnn_0.4_truck_10_n03417042_22297.png,n03417042_22297.png,0.0,-0.20344989,0.53484076,-0.5220503
alexnet_w1_mlp_simclrhn_probe3,1,556,NaN,bicycle,chair,3,0556_hp_dnn_3_chair_10_n04429376_7279.png,n04429376_7279.png,0.0,0.680042,1.2786821,-0.42330247
alexnet_w1_mlp_simclrhn_probe3,1,557,NaN,bicycle,bicycle,3,0557_hp_dnn_3_bicycle_10_n02835271_6919.png,n02835271_6919.png,1.0,4.2586217,1.1747975,2.180593
alexnet_w1_mlp_simclrhn_probe3,1,558,NaN,clock,oven,0.55,0558_hp_dnn_0.55_oven_10_n04111531_2260.png,n04111531_2260.png,0.0,0.72463465,1.1079704,-0.27105927
alexnet_w1_mlp_simclrhn_probe3,1,559,NaN,clock,bear,0.7,0559_hp_dnn_0.7_bear_10_n02134084_5794.png,n02134084_5794.png,0.0,-0.19307205,0.5126814,-0.49904305
alexnet_w1_mlp_simclrhn_probe3,1,560,NaN,clock,airplane,0.7,0560_hp_dnn_0.7_airplane_10_n02690373_10397.png,n02690373_10397.png,0.0,-0.2442143,0.8401553,-0.7667652
alexnet_w1_mlp_simclrhn_probe3,1,561,NaN,knife,elephant,0.4,0561_hp_dnn_0.4_elephant_10_n02504458_2041.png,n02504458_2041.png,0.0,-0.2792012,0.47635916,-0.5342619
alexnet_w1_mlp_simclrhn_probe3,1,562,NaN,clock,chair,1,0562_hp_dnn_1_chair_10_n04429376_7732.png,n04429376_7732.png,0.0,0.54916394,0.5988628,-0.03514242
alexnet_w1_mlp_simclrhn_probe3,1,563,NaN,knife,airplane,0.4,0563_hp_dnn_0.4_airplane_10_n02690373_4788.png,n02690373_4788.png,0.0,0.0805682,0.53667474,-0.32251602
alexnet_w1_mlp_simclrhn_probe3,1,564,NaN,clock,dog,0.55,0564_hp_dnn_0.55_dog_10_n02097474_2799.png,n02097474_2799.png,0.0,-0.18967167,0.61947733,-0.57215476
alexnet_w1_mlp_simclrhn_probe3,1,565,NaN,knife,bear,1.5,0565_hp_dnn_1.5_bear_10_n02134084_17849.png,n02134084_17849.png,0.0,-0.08516368,0.3429177,-0.30269927
alexnet_w1_mlp_simclrhn_probe3,1,566,NaN,dog,dog,inf,0566_hp_dnn_inf_dog_10_n02086646_7064.png,n02086646_7064.png,1.0,1.7026097,0.23271546,1.0393722
alexnet_w1_mlp_simclrhn_probe3,1,567,NaN,clock,truck,0.55,0567_hp_dnn_0.55_truck_10_n03417042_7061.png,n03417042_7061.png,0.0,-0.015311796,0.661694,-0.4787154
alexnet_w1_mlp_simclrhn_probe3,1,568,NaN,clock,bird,1,0568_hp_dnn_1_bird_10_n01820546_3605.png,n01820546_3605.png,0.0,-0.1241537,0.64730453,-0.5455034
alexnet_w1_mlp_simclrhn_probe3,1,569,NaN,clock,bear,0.4,0569_hp_dnn_0.4_bear_10_n02133161_2813.png,n02133161_2813.png,0.0,-0.117694065,0.35064375,-0.33116487
alexnet_w1_mlp_simclrhn_probe3,1,570,NaN,knife,bear,0.45,0570_hp_dnn_0.45_bear_10_n02132136_16636.png,n02132136_16636.png,0.0,-0.14825675,0.52233464,-0.47417971
alexnet_w1_mlp_simclrhn_probe3,1,571,NaN,chair,oven,1.5,0571_hp_dnn_1.5_oven_10_n04111531_14959.png,n04111531_14959.png,0.0,0.34796154,1.1477655,-0.5655468
alexnet_w1_mlp_simclrhn_probe3,1,572,NaN,clock,cat,0.45,0572_hp_dnn_0.45_cat_10_n02124075_5453.png,n02124075_5453.png,0.0,-0.013330981,0.39368632,-0.2878047
alexnet_w1_mlp_simclrhn_probe3,1,573,NaN,clock,cat,1,0573_hp_dnn_1_cat_10_n02124075_11528.png,n02124075_11528.png,0.0,-0.1741668,0.12311637,-0.21021095
alexnet_w1_mlp_simclrhn_probe3,1,574,NaN,knife,cat,1,0574_hp_dnn_1_cat_10_n02123159_3454.png,n02123159_3454.png,0.0,-0.11497584,0.1734018,-0.2039138
alexnet_w1_mlp_simclrhn_probe3,1,575,NaN,knife,bird,0.45,0575_hp_dnn_0.45_bird_10_n02025239_2227.png,n02025239_2227.png,0.0,-0.085111596,0.40034932,-0.34327272
alexnet_w1_mlp_simclrhn_probe3,1,576,NaN,clock,chair,0.7,0576_hp_dnn_0.7_chair_10_n03376595_12256.png,n03376595_12256.png,0.0,0.13251445,0.60028344,-0.33076262
alexnet_w1_mlp_simclrhn_probe3,1,577,NaN,bicycle,clock,1.5,0577_hp_dnn_1.5_clock_10_n02708093_6591.png,n02708093_6591.png,0.0,0.93924004,1.2046988,-0.18770769
alexnet_w1_mlp_simclrhn_probe3,1,578,NaN,clock,chair,0.55,0578_hp_dnn_0.55_chair_10_n04099969_34144.png,n04099969_34144.png,0.0,0.11852505,0.77641684,-0.46519977
alexnet_w1_mlp_simclrhn_probe3,1,579,NaN,knife,bear,0.55,0579_hp_dnn_0.55_bear_10_n02132136_3563.png,n02132136_3563.png,0.0,-0.1453143,0.31262138,-0.32380944
alexnet_w1_mlp_simclrhn_probe3,1,580,NaN,elephant,elephant,1,0580_hp_dnn_1_elephant_10_n02504013_6671.png,n02504013_6671.png,1.0,0.4395923,0.19455457,0.17326784
alexnet_w1_mlp_simclrhn_probe3,1,581,NaN,clock,keyboard,0.7,0581_hp_dnn_0.7_keyboard_10_n03085013_22067.png,n03085013_22067.png,0.0,0.004735023,0.8306882,-0.58403707
alexnet_w1_mlp_simclrhn_probe3,1,582,NaN,truck,truck,inf,0582_hp_dnn_inf_truck_10_n03796401_1458.png,n03796401_1458.png,1.0,3.5554955,2.8925588,0.46876705
alexnet_w1_mlp_simclrhn_probe3,1,583,NaN,clock,bottle,0.45,0583_hp_dnn_0.45_bottle_10_n04591713_807.png,n04591713_807.png,0.0,0.25462577,0.43634728,-0.12849651
alexnet_w1_mlp_simclrhn_probe3,1,584,NaN,clock,car,1,0584_hp_dnn_1_car_10_n02814533_22693.png,n02814533_22693.png,0.0,-0.43740883,1.162715,-1.1314584
alexnet_w1_mlp_simclrhn_probe3,1,585,NaN,clock,car,0.7,0585_hp_dnn_0.7_car_10_n02814533_5278.png,n02814533_5278.png,0.0,-0.05635871,0.8336269,-0.6293149
alexnet_w1_mlp_simclrhn_probe3,1,586,NaN,boat,boat,1.5,0586_hp_dnn_1.5_boat_10_n03662601_10240.png,n03662601_10240.png,1.0,1.159821,1.1169927,0.030284196
alexnet_w1_mlp_simclrhn_probe3,1,587,NaN,airplane,airplane,inf,0587_hp_dnn_inf_airplane_10_n02690373_9673.png,n02690373_9673.png,1.0,4.373067,1.3056936,2.1689606
alexnet_w1_mlp_simclrhn_probe3,1,588,NaN,bird,bird,0.7,0588_hp_dnn_0.7_bird_10_n02009229_6029.png,n02009229_6029.png,1.0,0.83017576,0.3238168,0.35804987
alexnet_w1_mlp_simclrhn_probe3,1,589,NaN,clock,clock,0.4,0589_hp_dnn_0.4_clock_10_n02708093_2580.png,n02708093_2580.png,1.0,1.2489532,0.34067285,0.6422512
alexnet_w1_mlp_simclrhn_probe3,1,590,NaN,knife,elephant,0.4,0590_hp_dnn_0.4_elephant_10_n02504013_295.png,n02504013_295.png,0.0,-0.29040748,0.4485763,-0.52254045
alexnet_w1_mlp_simclrhn_probe3,1,591,NaN,clock,car,0.7,0591_hp_dnn_0.7_car_10_n04285008_9893.png,n04285008_9893.png,0.0,0.1327547,0.9244736,-0.55982983
alexnet_w1_mlp_simclrhn_probe3,1,592,NaN,chair,chair,1.5,0592_hp_dnn_1.5_chair_10_n03376595_6850.png,n03376595_6850.png,1.0,1.0116519,0.69187343,0.2261175
alexnet_w1_mlp_simclrhn_probe3,1,593,NaN,car,boat,3,0593_hp_dnn_3_boat_10_n03662601_15713.png,n03662601_15713.png,0.0,1.3710625,1.4851984,-0.080706246
alexnet_w1_mlp_simclrhn_probe3,1,594,NaN,knife,clock,0.4,0594_hp_dnn_0.4_clock_10_n04548280_9867.png,n04548280_9867.png,0.0,0.27873853,0.35017577,-0.05051376
alexnet_w1_mlp_simclrhn_probe3,1,595,NaN,airplane,airplane,1.5,0595_hp_dnn_1.5_airplane_10_n02690373_1450.png,n02690373_1450.png,1.0,1.679512,0.7618672,0.64887285
alexnet_w1_mlp_simclrhn_probe3,1,596,NaN,knife,bicycle,0.45,0596_hp_dnn_0.45_bicycle_10_n03792782_7787.png,n03792782_7787.png,0.0,-0.24650164,0.48131514,-0.51464415
alexnet_w1_mlp_simclrhn_probe3,1,597,NaN,clock,chair,0.45,0597_hp_dnn_0.45_chair_10_n04099969_1219.png,n04099969_1219.png,0.0,0.25330567,0.70546216,-0.31972292
alexnet_w1_mlp_simclrhn_probe3,1,598,NaN,keyboard,keyboard,0.55,0598_hp_dnn_0.55_keyboard_10_n03085013_8325.png,n03085013_8325.png,1.0,1.3388014,0.6111379,0.5145358
alexnet_w1_mlp_simclrhn_probe3,1,599,NaN,chair,bicycle,0.55,0599_hp_dnn_0.55_bicycle_10_n02835271_14732.png,n02835271_14732.png,0.0,0.20155416,0.585597,-0.27155927
alexnet_w1_mlp_simclrhn_probe3,1,600,NaN,oven,airplane,1.5,0600_hp_dnn_1.5_airplane_10_n02690373_4176.png,n02690373_4176.png,0.0,0.5104108,0.7664741,-0.18106413
alexnet_w1_mlp_simclrhn_probe3,1,601,NaN,knife,bird,1,0601_hp_dnn_1_bird_10_n01534433_905.png,n01534433_905.png,0.0,-0.14873798,0.18352246,-0.23494361
alexnet_w1_mlp_simclrhn_probe3,1,602,NaN,airplane,truck,1.5,0602_hp_dnn_1.5_truck_10_n04467665_45306.png,n04467665_45306.png,0.0,-0.12781274,0.5378343,-0.47068354
alexnet_w1_mlp_simclrhn_probe3,1,603,NaN,elephant,elephant,3,0603_hp_dnn_3_elephant_10_n02504458_1617.png,n02504458_1617.png,1.0,0.9439746,0.14067169,0.56802094
alexnet_w1_mlp_simclrhn_probe3,1,604,NaN,knife,oven,0.45,0604_hp_dnn_0.45_oven_10_n04111531_4148.png,n04111531_4148.png,0.0,0.019522883,0.5153046,-0.35057065
alexnet_w1_mlp_simclrhn_probe3,1,605,NaN,clock,bird,0.55,0605_hp_dnn_0.55_bird_10_n02009912_91.png,n02009912_91.png,0.0,-0.051261634,0.53394026,-0.4138002
alexnet_w1_mlp_simclrhn_probe3,1,606,NaN,knife,knife,3,0606_hp_dnn_3_knife_10_n03041632_33739.png,n03041632_33739.png,1.0,1.1382347,0.65154827,0.3441393
alexnet_w1_mlp_simclrhn_probe3,1,607,NaN,airplane,airplane,1,0607_hp_dnn_1_airplane_10_n02690373_9318.png,n02690373_9318.png,1.0,2.6390212,0.82011396,1.2861617
alexnet_w1_mlp_simclrhn_probe3,1,608,NaN,clock,bird,0.4,0608_hp_dnn_0.4_bird_10_n01828970_8669.png,n01828970_8669.png,0.0,-0.06470319,0.51298857,-0.40848976
alexnet_w1_mlp_simclrhn_probe3,1,609,NaN,chair,truck,1.5,0609_hp_dnn_1.5_truck_10_n04467665_58762.png,n04467665_58762.png,0.0,-0.102642015,1.2568516,-0.96130717
alexnet_w1_mlp_simclrhn_probe3,1,610,NaN,car,car,3,0610_hp_dnn_3_car_10_n03100240_11417.png,n03100240_11417.png,1.0,4.563688,1.8741242,1.9018089
alexnet_w1_mlp_simclrhn_probe3,1,611,NaN,bicycle,bicycle,inf,0611_hp_dnn_inf_bicycle_10_n03792782_16179.png,n03792782_16179.png,1.0,8.652281,0.9448507,5.449976
alexnet_w1_mlp_simclrhn_probe3,1,612,NaN,clock,car,1,0612_hp_dnn_1_car_10_n04285008_8444.png,n04285008_8444.png,0.0,0.08006282,1.0428389,-0.68078554
alexnet_w1_mlp_simclrhn_probe3,1,613,NaN,chair,chair,inf,0613_hp_dnn_inf_chair_10_n02791124_3240.png,n02791124_3240.png,1.0,1.875695,0.70670813,0.8265985
alexnet_w1_mlp_simclrhn_probe3,1,614,NaN,clock,bicycle,0.7,0614_hp_dnn_0.7_bicycle_10_n02835271_1035.png,n02835271_1035.png,0.0,0.21637653,0.8446911,-0.44428548
alexnet_w1_mlp_simclrhn_probe3,1,615,NaN,clock,bicycle,0.55,0615_hp_dnn_0.55_bicycle_10_n02835271_6167.png,n02835271_6167.png,0.0,0.3426472,0.85639334,-0.36327338
alexnet_w1_mlp_simclrhn_probe3,1,616,NaN,keyboard,bottle,3,0616_hp_dnn_3_bottle_10_n02823428_6830.png,n02823428_6830.png,0.0,0.68297845,3.1262658,-1.7276651
alexnet_w1_mlp_simclrhn_probe3,1,617,NaN,knife,knife,0.45,0617_hp_dnn_0.45_knife_10_n03041632_17349.png,n03041632_17349.png,1.0,0.75860095,0.51931894,0.16919793
alexnet_w1_mlp_simclrhn_probe3,1,618,NaN,airplane,airplane,inf,0618_hp_dnn_inf_airplane_10_n02690373_2024.png,n02690373_2024.png,1.0,8.152012,1.8291105,4.4709663
alexnet_w1_mlp_simclrhn_probe3,1,619,NaN,clock,bottle,1,0619_hp_dnn_1_bottle_10_n02823428_8034.png,n02823428_8034.png,0.0,0.14209309,0.58226705,-0.31125
alexnet_w1_mlp_simclrhn_probe3,1,620,NaN,bottle,chair,1,0620_hp_dnn_1_chair_10_n02791124_6786.png,n02791124_6786.png,0.0,0.45370057,0.56322706,-0.07744692
alexnet_w1_mlp_simclrhn_probe3,1,621,NaN,knife,chair,0.45,0621_hp_dnn_0.45_chair_10_n03376595_10689.png,n03376595_10689.png,0.0,0.44994068,0.6694302,-0.15520252
alexnet_w1_mlp_simclrhn_probe3,1,622,NaN,clock,knife,0.4,0622_hp_dnn_0.4_knife_10_n03041632_22734.png,n03041632_22734.png,0.0,0.29843676,0.44908106,-0.10652161
alexnet_w1_mlp_simclrhn_probe3,1,623,NaN,knife,oven,0.4,0623_hp_dnn_0.4_oven_10_n04111531_10521.png,n04111531_10521.png,0.0,0.175025,0.47829503,-0.21444431
alexnet_w1_mlp_simclrhn_probe3,1,624,NaN,bird,bird,inf,0624_hp_dnn_inf_bird_10_n02007558_37147.png,n02007558_37147.png,1.0,4.2236423,0.50264937,2.6311395
alexnet_w1_mlp_simclrhn_probe3,1,625,NaN,chair,oven,3,0625_hp_dnn_3_oven_10_n04111531_14753.png,n04111531_14753.png,0.0,1.4184698,1.8098335,-0.27673596
alexnet_w1_mlp_simclrhn_probe3,1,626,NaN,clock,bottle,0.7,0626_hp_dnn_0.7_bottle_10_n03983396_4990.png,n03983396_4990.png,0.0,-0.07587113,0.45855427,-0.3778958
alexnet_w1_mlp_simclrhn_probe3,1,627,NaN,knife,cat,0.45,0627_hp_dnn_0.45_cat_10_n02125311_25104.png,n02125311_25104.png,0.0,-0.051294357,0.4396779,-0.34716982
alexnet_w1_mlp_simclrhn_probe3,1,628,NaN,clock,truck,0.55,0628_hp_dnn_0.55_truck_10_n03417042_5600.png,n03417042_5600.png,0.0,0.5500823,0.5607126,-0.007516722
alexnet_w1_mlp_simclrhn_probe3,1,629,NaN,clock,cat,0.55,0629_hp_dnn_0.55_cat_10_n02125311_34158.png,n02125311_34158.png,0.0,-0.1495695,0.42108557,-0.40351406
alexnet_w1_mlp_simclrhn_probe3,1,630,NaN,clock,knife,1,0630_hp_dnn_1_knife_10_n03041632_41077.png,n03041632_41077.png,0.0,0.84974724,0.87599975,-0.018563326
alexnet_w1_mlp_simclrhn_probe3,1,631,NaN,clock,bicycle,0.45,0631_hp_dnn_0.45_bicycle_10_n03792782_19295.png,n03792782_19295.png,0.0,-0.14234115,0.5745926,-0.5069487
