subj,session,trial,rt,object_response,category,condition,imagename,filename,is_correct,targ_act,max_nontarg_act,decision_margin
convnext_large,1,1,NaN,chair,chair,0,0001_rot_dnn_0_chair_20_n03376595_3070.png,n03376595_3070.png,1.0,2.56144,0.4980245,1.4590552
convnext_large,1,2,NaN,car,car,180,0002_rot_dnn_180_car_20_n02814533_29367.png,n02814533_29367.png,1.0,5.3575635,1.4750798,2.7453306
convnext_large,1,3,NaN,car,car,270,0003_rot_dnn_270_car_20_n02814533_31083.png,n02814533_31083.png,1.0,4.9609895,2.1086805,2.016887
convnext_large,1,4,NaN,airplane,car,180,0004_rot_dnn_180_car_20_n03100240_1703.png,n03100240_1703.png,0.0,3.4976885,5.558274,-1.4570538
convnext_large,1,5,NaN,bottle,bottle,180,0005_rot_dnn_180_bottle_20_n04591713_2359.png,n04591713_2359.png,1.0,1.8813139,0.25571722,1.1494706
convnext_large,1,6,NaN,dog,dog,90,0006_rot_dnn_90_dog_20_n02111500_8796.png,n02111500_8796.png,1.0,1.5584794,0.19249825,0.9658946
convnext_large,1,7,NaN,bicycle,bear,180,0007_rot_dnn_180_bear_20_n02132136_4512.png,n02132136_4512.png,0.0,-0.08592703,2.4135075,-1.7673671
convnext_large,1,8,NaN,chair,chair,90,0008_rot_dnn_90_chair_20_n03376595_4820.png,n03376595_4820.png,1.0,4.3931804,0.5094371,2.7462213
convnext_large,1,9,NaN,bottle,bottle,270,0009_rot_dnn_270_bottle_20_n04591713_6111.png,n04591713_6111.png,1.0,2.2927296,0.36959654,1.3598605
convnext_large,1,10,NaN,chair,bottle,270,0010_rot_dnn_270_bottle_20_n04560804_14111.png,n04560804_14111.png,0.0,0.42293358,1.2776046,-0.60434365
convnext_large,1,11,NaN,dog,dog,0,0011_rot_dnn_0_dog_20_n02099601_8656.png,n02099601_8656.png,1.0,1.1915821,1.0425929,0.10535128
convnext_large,1,12,NaN,cat,cat,0,0012_rot_dnn_0_cat_20_n02125311_14054.png,n02125311_14054.png,1.0,1.8030008,0.39487857,0.99569285
convnext_large,1,13,NaN,bear,bear,0,0013_rot_dnn_0_bear_20_n02132136_10385.png,n02132136_10385.png,1.0,3.4997933,0.9994824,1.7679868
convnext_large,1,14,NaN,bottle,bottle,90,0014_rot_dnn_90_bottle_20_n02823428_10417.png,n02823428_10417.png,1.0,2.5515058,0.65846926,1.338579
convnext_large,1,15,NaN,keyboard,keyboard,0,0015_rot_dnn_0_keyboard_20_n03085013_23566.png,n03085013_23566.png,1.0,6.386714,0.19473806,4.3783884
convnext_large,1,16,NaN,truck,truck,90,0016_rot_dnn_90_truck_20_n03417042_12560.png,n03417042_12560.png,1.0,1.9645216,0.9005228,0.7523608
convnext_large,1,17,NaN,airplane,truck,180,0017_rot_dnn_180_truck_20_n04467665_69063.png,n04467665_69063.png,0.0,0.5366806,3.9100542,-2.3853352
convnext_large,1,18,NaN,oven,oven,180,0018_rot_dnn_180_oven_20_n04111531_9712.png,n04111531_9712.png,1.0,8.15621,3.2131505,3.495271
convnext_large,1,19,NaN,oven,oven,180,0019_rot_dnn_180_oven_20_n04111531_10375.png,n04111531_10375.png,1.0,8.627619,0.8897796,5.4714785
convnext_large,1,20,NaN,keyboard,keyboard,0,0020_rot_dnn_0_keyboard_20_n04505470_1744.png,n04505470_1744.png,1.0,4.7711725,0.6563207,2.9096398
convnext_large,1,21,NaN,boat,boat,90,0021_rot_dnn_90_boat_20_n04273569_7296.png,n04273569_7296.png,1.0,3.259507,0.17333117,2.1822557
convnext_large,1,22,NaN,dog,dog,0,0022_rot_dnn_0_dog_20_n02101006_4807.png,n02101006_4807.png,1.0,0.27444044,0.20780483,0.047118492
convnext_large,1,23,NaN,clock,clock,90,0023_rot_dnn_90_clock_20_n02708093_1986.png,n02708093_1986.png,1.0,5.5040793,0.6261414,3.449223
convnext_large,1,24,NaN,bottle,bottle,0,0024_rot_dnn_0_bottle_20_n04560804_15562.png,n04560804_15562.png,1.0,3.4525313,0.5272962,2.0684538
convnext_large,1,25,NaN,cat,cat,0,0025_rot_dnn_0_cat_20_n02124075_13594.png,n02124075_13594.png,1.0,4.554209,0.17496404,3.096594
convnext_large,1,26,NaN,bear,bear,90,0026_rot_dnn_90_bear_20_n02134418_4365.png,n02134418_4365.png,1.0,2.8160505,1.3271431,1.0528166
convnext_large,1,27,NaN,boat,bear,180,0027_rot_dnn_180_bear_20_n02132136_8650.png,n02132136_8650.png,0.0,0.9353756,1.9425843,-0.7122041
convnext_large,1,28,NaN,bird,bird,90,0028_rot_dnn_90_bird_20_n02009912_12219.png,n02009912_12219.png,1.0,0.6673515,0.22555621,0.31239644
convnext_large,1,29,NaN,chair,dog,90,0029_rot_dnn_90_dog_20_n02100236_1662.png,n02100236_1662.png,0.0,0.2506989,0.36804911,-0.082979135
convnext_large,1,30,NaN,clock,clock,90,0030_rot_dnn_90_clock_20_n04548280_1947.png,n04548280_1947.png,1.0,5.273831,0.3450821,3.4851515
convnext_large,1,31,NaN,bear,dog,270,0031_rot_dnn_270_dog_20_n02109047_66167.png,n02109047_66167.png,0.0,0.6499602,1.4177501,-0.54290944
convnext_large,1,32,NaN,oven,oven,90,0032_rot_dnn_90_oven_20_n04111531_21055.png,n04111531_21055.png,1.0,8.2338295,0.62239283,5.3820987
convnext_large,1,33,NaN,clock,clock,0,0033_rot_dnn_0_clock_20_n02708093_2012.png,n02708093_2012.png,1.0,2.9104416,1.5241816,0.9802339
convnext_large,1,34,NaN,elephant,elephant,0,0034_rot_dnn_0_elephant_20_n02504458_6119.png,n02504458_6119.png,1.0,7.3289146,0.5591888,4.786919
convnext_large,1,35,NaN,chair,chair,0,0035_rot_dnn_0_chair_20_n04099969_12707.png,n04099969_12707.png,1.0,3.1095886,0.47155133,1.865374
convnext_large,1,36,NaN,keyboard,keyboard,270,0036_rot_dnn_270_keyboard_20_n03085013_19054.png,n03085013_19054.png,1.0,6.224965,0.9132451,3.7559533
convnext_large,1,37,NaN,chair,chair,0,0037_rot_dnn_0_chair_20_n02791124_422.png,n02791124_422.png,1.0,4.7189827,0.4424293,3.02398
convnext_large,1,38,NaN,bicycle,bicycle,0,0038_rot_dnn_0_bicycle_20_n02835271_23830.png,n02835271_23830.png,1.0,6.1415124,0.48054475,4.0029087
convnext_large,1,39,NaN,bird,bird,90,0039_rot_dnn_90_bird_20_n01534433_14735.png,n01534433_14735.png,1.0,1.2181405,0.8910553,0.23128417
convnext_large,1,40,NaN,bird,bird,90,0040_rot_dnn_90_bird_20_n02011460_13994.png,n02011460_13994.png,1.0,0.42915964,0.14319922,0.20220457
convnext_large,1,41,NaN,boat,boat,270,0041_rot_dnn_270_boat_20_n04273569_17522.png,n04273569_17522.png,1.0,2.8519275,2.3956363,0.32264662
convnext_large,1,42,NaN,bear,bear,180,0042_rot_dnn_180_bear_20_n02132136_5537.png,n02132136_5537.png,1.0,3.5435348,2.0689151,1.0427135
convnext_large,1,43,NaN,bear,bear,90,0043_rot_dnn_90_bear_20_n02132136_19248.png,n02132136_19248.png,1.0,4.4573526,1.0498081,2.409498
convnext_large,1,44,NaN,bird,bird,270,0044_rot_dnn_270_bird_20_n01537544_1886.png,n01537544_1886.png,1.0,0.9354831,0.7989774,0.09652413
convnext_large,1,45,NaN,clock,clock,180,0045_rot_dnn_180_clock_20_n03196217_4776.png,n03196217_4776.png,1.0,5.0398097,0.51017106,3.2029383
convnext_large,1,46,NaN,boat,boat,270,0046_rot_dnn_270_boat_20_n04612504_17610.png,n04612504_17610.png,1.0,2.2921576,0.5706998,1.2172545
convnext_large,1,47,NaN,bear,bear,90,0047_rot_dnn_90_bear_20_n02134418_1814.png,n02134418_1814.png,1.0,2.7447054,0.61103004,1.5087364
convnext_large,1,48,NaN,keyboard,keyboard,180,0048_rot_dnn_180_keyboard_20_n03085013_20330.png,n03085013_20330.png,1.0,6.6655397,1.4773083,3.6686337
convnext_large,1,49,NaN,bottle,bottle,180,0049_rot_dnn_180_bottle_20_n02823428_14574.png,n02823428_14574.png,1.0,2.7658036,0.5092795,1.5956035
convnext_large,1,50,NaN,bicycle,bicycle,0,0050_rot_dnn_0_bicycle_20_n03792782_7105.png,n03792782_7105.png,1.0,5.3585005,0.37790132,3.5218158
convnext_large,1,51,NaN,elephant,elephant,0,0051_rot_dnn_0_elephant_20_n02504458_1302.png,n02504458_1302.png,1.0,7.0673943,0.46771058,4.6666813
convnext_large,1,52,NaN,airplane,airplane,90,0052_rot_dnn_90_airplane_20_n02690373_3877.png,n02690373_3877.png,1.0,5.6939263,0.85281163,3.4231849
convnext_large,1,53,NaN,car,boat,90,0053_rot_dnn_90_boat_20_n02951358_15422.png,n02951358_15422.png,0.0,1.7634891,3.3571966,-1.1269214
convnext_large,1,54,NaN,car,car,270,0054_rot_dnn_270_car_20_n02814533_46458.png,n02814533_46458.png,1.0,4.171466,1.9135813,1.5965655
convnext_large,1,55,NaN,car,car,0,0055_rot_dnn_0_car_20_n02814533_39547.png,n02814533_39547.png,1.0,3.051279,0.61107427,1.7254854
convnext_large,1,56,NaN,boat,boat,180,0056_rot_dnn_180_boat_20_n04273569_6586.png,n04273569_6586.png,1.0,2.3111103,1.9250891,0.27295816
convnext_large,1,57,NaN,clock,clock,90,0057_rot_dnn_90_clock_20_n02708093_3394.png,n02708093_3394.png,1.0,2.8981893,2.168999,0.51561546
convnext_large,1,58,NaN,keyboard,keyboard,180,0058_rot_dnn_180_keyboard_20_n03085013_25419.png,n03085013_25419.png,1.0,4.0886707,1.0974913,2.1150832
convnext_large,1,59,NaN,bottle,bottle,180,0059_rot_dnn_180_bottle_20_n04557648_1871.png,n04557648_1871.png,1.0,2.3149426,0.15207729,1.5293769
convnext_large,1,60,NaN,chair,chair,90,0060_rot_dnn_90_chair_20_n04099969_6944.png,n04099969_6944.png,1.0,3.2150066,0.418252,1.9776042
convnext_large,1,61,NaN,boat,boat,270,0061_rot_dnn_270_boat_20_n04273569_1495.png,n04273569_1495.png,1.0,4.704225,0.69040275,2.8382013
convnext_large,1,62,NaN,keyboard,keyboard,90,0062_rot_dnn_90_keyboard_20_n03085013_7317.png,n03085013_7317.png,1.0,7.476331,0.68449897,4.802551
convnext_large,1,63,NaN,knife,knife,90,0063_rot_dnn_90_knife_20_n03041632_7448.png,n03041632_7448.png,1.0,8.442046,0.7829994,5.415764
convnext_large,1,64,NaN,truck,truck,0,0064_rot_dnn_0_truck_20_n03417042_11000.png,n03417042_11000.png,1.0,2.3942122,0.51839864,1.3264005
convnext_large,1,65,NaN,bird,bird,0,0065_rot_dnn_0_bird_20_n01582220_8827.png,n01582220_8827.png,1.0,0.50893307,0.45472485,0.038331
convnext_large,1,66,NaN,airplane,airplane,270,0066_rot_dnn_270_airplane_20_n02690373_9247.png,n02690373_9247.png,1.0,8.888088,0.78058493,5.7328706
convnext_large,1,67,NaN,bear,bear,270,0067_rot_dnn_270_bear_20_n02133161_14397.png,n02133161_14397.png,1.0,4.7276187,0.16150911,3.228727
convnext_large,1,68,NaN,oven,oven,270,0068_rot_dnn_270_oven_20_n04111531_13560.png,n04111531_13560.png,1.0,8.29525,1.1306756,5.066119
convnext_large,1,69,NaN,airplane,bear,180,0069_rot_dnn_180_bear_20_n02132136_545.png,n02132136_545.png,0.0,2.3126976,2.6420066,-0.23285662
convnext_large,1,70,NaN,cat,cat,90,0070_rot_dnn_90_cat_20_n02125311_73072.png,n02125311_73072.png,1.0,1.6119452,1.4319268,0.12729217
convnext_large,1,71,NaN,bicycle,bicycle,0,0071_rot_dnn_0_bicycle_20_n03792782_30530.png,n03792782_30530.png,1.0,6.3619623,1.0520831,3.7546518
convnext_large,1,72,NaN,knife,knife,90,0072_rot_dnn_90_knife_20_n03041632_4975.png,n03041632_4975.png,1.0,6.1200256,2.0780938,2.8580778
convnext_large,1,73,NaN,dog,dog,90,0073_rot_dnn_90_dog_20_n02107683_3120.png,n02107683_3120.png,1.0,1.6118362,0.62608874,0.6970287
convnext_large,1,74,NaN,elephant,elephant,90,0074_rot_dnn_90_elephant_20_n02504013_7316.png,n02504013_7316.png,1.0,3.9498115,1.5823523,1.6740465
convnext_large,1,75,NaN,truck,truck,90,0075_rot_dnn_90_truck_20_n03796401_7284.png,n03796401_7284.png,1.0,2.166484,2.1265116,0.028264858
convnext_large,1,76,NaN,bicycle,chair,270,0076_rot_dnn_270_chair_20_n03376595_497.png,n03376595_497.png,0.0,1.6427702,1.7621986,-0.08444863
convnext_large,1,77,NaN,truck,truck,270,0077_rot_dnn_270_truck_20_n03796401_19845.png,n03796401_19845.png,1.0,4.308371,1.3756074,2.073777
convnext_large,1,78,NaN,chair,chair,90,0078_rot_dnn_90_chair_20_n04099969_1941.png,n04099969_1941.png,1.0,3.4934797,0.6162712,2.0344937
convnext_large,1,79,NaN,truck,truck,90,0079_rot_dnn_90_truck_20_n03417042_28886.png,n03417042_28886.png,1.0,3.459746,0.41109234,2.1557236
convnext_large,1,80,NaN,car,car,0,0080_rot_dnn_0_car_20_n02814533_12185.png,n02814533_12185.png,1.0,6.2200828,1.6082269,3.2610748
convnext_large,1,81,NaN,bicycle,bicycle,90,0081_rot_dnn_90_bicycle_20_n02835271_1621.png,n02835271_1621.png,1.0,5.5095844,1.3865502,2.9154258
convnext_large,1,82,NaN,cat,cat,0,0082_rot_dnn_0_cat_20_n02123597_32226.png,n02123597_32226.png,1.0,2.9579022,0.56092167,1.6949213
convnext_large,1,83,NaN,bicycle,bicycle,90,0083_rot_dnn_90_bicycle_20_n03792782_5048.png,n03792782_5048.png,1.0,6.571893,0.5662773,4.2466116
convnext_large,1,84,NaN,airplane,airplane,0,0084_rot_dnn_0_airplane_20_n02690373_10044.png,n02690373_10044.png,1.0,8.346466,0.47453377,5.566297
convnext_large,1,85,NaN,car,car,180,0085_rot_dnn_180_car_20_n03100240_5752.png,n03100240_5752.png,1.0,5.785867,3.5744991,1.5636734
convnext_large,1,86,NaN,car,car,90,0086_rot_dnn_90_car_20_n02814533_68219.png,n02814533_68219.png,1.0,4.31747,1.514852,1.9817502
convnext_large,1,87,NaN,airplane,airplane,0,0087_rot_dnn_0_airplane_20_n02690373_1171.png,n02690373_1171.png,1.0,8.592869,0.7251807,5.563296
convnext_large,1,88,NaN,oven,bird,90,0088_rot_dnn_90_bird_20_n01817953_6970.png,n01817953_6970.png,0.0,-0.27580944,2.177419,-1.7346945
convnext_large,1,89,NaN,car,car,90,0089_rot_dnn_90_car_20_n04285008_15503.png,n04285008_15503.png,1.0,5.8015075,2.5861897,2.273573
convnext_large,1,90,NaN,boat,boat,270,0090_rot_dnn_270_boat_20_n03344393_11886.png,n03344393_11886.png,1.0,2.2767055,0.66436785,1.1400949
convnext_large,1,91,NaN,boat,boat,0,0091_rot_dnn_0_boat_20_n04273569_30203.png,n04273569_30203.png,1.0,4.424834,1.9025909,1.7834952
convnext_large,1,92,NaN,keyboard,keyboard,180,0092_rot_dnn_180_keyboard_20_n03085013_22069.png,n03085013_22069.png,1.0,7.6243525,1.4539286,4.3631487
convnext_large,1,93,NaN,knife,knife,0,0093_rot_dnn_0_knife_20_n03041632_26314.png,n03041632_26314.png,1.0,8.283748,0.3246809,5.62791
convnext_large,1,94,NaN,bicycle,bicycle,270,0094_rot_dnn_270_bicycle_20_n03792782_18308.png,n03792782_18308.png,1.0,5.5293837,0.6893655,3.4224098
convnext_large,1,95,NaN,airplane,car,180,0095_rot_dnn_180_car_20_n04285008_8396.png,n04285008_8396.png,0.0,3.6308792,4.971066,-0.9476552
convnext_large,1,96,NaN,elephant,bear,90,0096_rot_dnn_90_bear_20_n02133161_12349.png,n02133161_12349.png,0.0,0.17910734,1.7593203,-1.1173793
convnext_large,1,97,NaN,bear,bear,270,0097_rot_dnn_270_bear_20_n02132136_18303.png,n02132136_18303.png,1.0,4.234832,1.9382185,1.6239508
convnext_large,1,98,NaN,cat,cat,180,0098_rot_dnn_180_cat_20_n02123394_6853.png,n02123394_6853.png,1.0,3.647958,0.17289719,2.4572392
convnext_large,1,99,NaN,chair,cat,180,0099_rot_dnn_180_cat_20_n02123597_4805.png,n02123597_4805.png,0.0,1.7064558,2.122048,-0.29386798
convnext_large,1,100,NaN,car,car,0,0100_rot_dnn_0_car_20_n03100240_17587.png,n03100240_17587.png,1.0,3.3633335,3.15873,0.14467648
convnext_large,1,101,NaN,oven,bird,180,0101_rot_dnn_180_bird_20_n01601694_19236.png,n01601694_19236.png,0.0,0.0655979,0.7261981,-0.46711487
convnext_large,1,102,NaN,cat,cat,0,0102_rot_dnn_0_cat_20_n02123597_2341.png,n02123597_2341.png,1.0,2.499361,0.68022037,1.2863268
convnext_large,1,103,NaN,elephant,elephant,270,0103_rot_dnn_270_elephant_20_n02504013_7883.png,n02504013_7883.png,1.0,6.676405,0.84114146,4.1261544
convnext_large,1,104,NaN,chair,chair,270,0104_rot_dnn_270_chair_20_n03376595_14240.png,n03376595_14240.png,1.0,1.7002684,0.7320194,0.6846554
convnext_large,1,105,NaN,airplane,airplane,0,0105_rot_dnn_0_airplane_20_n02690373_10188.png,n02690373_10188.png,1.0,8.786584,0.4193968,5.9164953
convnext_large,1,106,NaN,truck,truck,90,0106_rot_dnn_90_truck_20_n03417042_8634.png,n03417042_8634.png,1.0,4.029254,0.6210607,2.4099565
convnext_large,1,107,NaN,knife,knife,90,0107_rot_dnn_90_knife_20_n03041632_32774.png,n03041632_32774.png,1.0,7.046112,0.5526543,4.591568
convnext_large,1,108,NaN,bottle,bottle,90,0108_rot_dnn_90_bottle_20_n03983396_4115.png,n03983396_4115.png,1.0,3.478873,0.3404715,2.219185
convnext_large,1,109,NaN,clock,clock,270,0109_rot_dnn_270_clock_20_n04548280_8552.png,n04548280_8552.png,1.0,3.7149715,1.4771404,1.5823855
convnext_large,1,110,NaN,car,car,0,0110_rot_dnn_0_car_20_n02814533_6233.png,n02814533_6233.png,1.0,4.6592503,1.1334387,2.4931254
convnext_large,1,111,NaN,elephant,elephant,0,0111_rot_dnn_0_elephant_20_n02504458_9870.png,n02504458_9870.png,1.0,6.4422207,0.2285491,4.3937297
convnext_large,1,112,NaN,bicycle,bicycle,270,0112_rot_dnn_270_bicycle_20_n02835271_3956.png,n02835271_3956.png,1.0,5.215503,0.36890844,3.4270601
convnext_large,1,113,NaN,knife,knife,90,0113_rot_dnn_90_knife_20_n03041632_14817.png,n03041632_14817.png,1.0,5.0981684,4.247756,0.60133237
convnext_large,1,114,NaN,chair,chair,90,0114_rot_dnn_90_chair_20_n04099969_8642.png,n04099969_8642.png,1.0,3.299514,0.7460704,1.8055574
convnext_large,1,115,NaN,clock,clock,0,0115_rot_dnn_0_clock_20_n02708093_240.png,n02708093_240.png,1.0,5.227374,0.46644413,3.366486
convnext_large,1,116,NaN,bear,bear,180,0116_rot_dnn_180_bear_20_n02133161_3896.png,n02133161_3896.png,1.0,4.039748,0.74200165,2.331859
convnext_large,1,117,NaN,bottle,bottle,270,0117_rot_dnn_270_bottle_20_n04557648_11000.png,n04557648_11000.png,1.0,2.8817003,0.25890088,1.8545992
convnext_large,1,118,NaN,keyboard,keyboard,90,0118_rot_dnn_90_keyboard_20_n03085013_2853.png,n03085013_2853.png,1.0,7.125488,1.303598,4.116698
convnext_large,1,119,NaN,airplane,boat,90,0119_rot_dnn_90_boat_20_n04273569_7097.png,n04273569_7097.png,0.0,2.597323,2.7819452,-0.13054767
convnext_large,1,120,NaN,bicycle,bicycle,270,0120_rot_dnn_270_bicycle_20_n03792782_40932.png,n03792782_40932.png,1.0,6.197525,0.27009723,4.191324
convnext_large,1,121,NaN,oven,chair,270,0121_rot_dnn_270_chair_20_n04429376_44914.png,n04429376_44914.png,0.0,2.8392417,3.0290158,-0.13419051
convnext_large,1,122,NaN,bear,bear,180,0122_rot_dnn_180_bear_20_n02134418_2122.png,n02134418_2122.png,1.0,1.9247633,0.5210355,0.9925854
convnext_large,1,123,NaN,keyboard,keyboard,90,0123_rot_dnn_90_keyboard_20_n03085013_22704.png,n03085013_22704.png,1.0,6.037759,0.6351918,3.8201919
convnext_large,1,124,NaN,truck,truck,0,0124_rot_dnn_0_truck_20_n03417042_6838.png,n03417042_6838.png,1.0,3.6099887,1.0740193,1.7932011
convnext_large,1,125,NaN,elephant,elephant,0,0125_rot_dnn_0_elephant_20_n02504458_3628.png,n02504458_3628.png,1.0,7.164113,0.3079305,4.8480535
convnext_large,1,126,NaN,cat,cat,90,0126_rot_dnn_90_cat_20_n02123597_10141.png,n02123597_10141.png,1.0,2.4125187,0.3758522,1.4401408
convnext_large,1,127,NaN,bicycle,bicycle,0,0127_rot_dnn_0_bicycle_20_n02835271_6383.png,n02835271_6383.png,1.0,6.2551603,0.3891698,4.147882
convnext_large,1,128,NaN,car,car,180,0128_rot_dnn_180_car_20_n04285008_7154.png,n04285008_7154.png,1.0,5.6947684,1.136741,3.223012
convnext_large,1,129,NaN,airplane,bird,0,0129_rot_dnn_0_bird_20_n02007558_1068.png,n02007558_1068.png,0.0,0.764793,2.6382153,-1.3247097
convnext_large,1,130,NaN,cat,cat,90,0130_rot_dnn_90_cat_20_n02125311_1896.png,n02125311_1896.png,1.0,2.5719926,0.76525277,1.277558
convnext_large,1,131,NaN,keyboard,keyboard,0,0131_rot_dnn_0_keyboard_20_n04505470_1903.png,n04505470_1903.png,1.0,5.7881184,0.838536,3.4998832
convnext_large,1,132,NaN,bicycle,bicycle,90,0132_rot_dnn_90_bicycle_20_n03792782_66159.png,n03792782_66159.png,1.0,6.8678007,0.38082978,4.5869813
convnext_large,1,133,NaN,bear,bear,90,0133_rot_dnn_90_bear_20_n02134418_5219.png,n02134418_5219.png,1.0,3.6394858,0.32472306,2.3438914
convnext_large,1,134,NaN,oven,car,90,0134_rot_dnn_90_car_20_n02814533_92229.png,n02814533_92229.png,0.0,2.6754944,3.3323998,-0.46450227
convnext_large,1,135,NaN,dog,dog,90,0135_rot_dnn_90_dog_20_n02090721_1002.png,n02090721_1002.png,1.0,1.2134593,0.33339724,0.6222978
convnext_large,1,136,NaN,truck,truck,270,0136_rot_dnn_270_truck_20_n04467665_46263.png,n04467665_46263.png,1.0,3.083498,1.0503738,1.4376359
convnext_large,1,137,NaN,bottle,bottle,180,0137_rot_dnn_180_bottle_20_n03983396_704.png,n03983396_704.png,1.0,2.9938684,0.84732294,1.5178368
convnext_large,1,138,NaN,airplane,truck,180,0138_rot_dnn_180_truck_20_n03796401_4149.png,n03796401_4149.png,0.0,2.940876,4.1310835,-0.8416038
convnext_large,1,139,NaN,bird,bird,0,0139_rot_dnn_0_bird_20_n02006656_2030.png,n02006656_2030.png,1.0,0.45704612,0.22003242,0.167594
convnext_large,1,140,NaN,cat,cat,90,0140_rot_dnn_90_cat_20_n02123394_234.png,n02123394_234.png,1.0,1.683931,0.49467072,0.840934
convnext_large,1,141,NaN,clock,chair,90,0141_rot_dnn_90_chair_20_n04429376_19916.png,n04429376_19916.png,0.0,1.9807291,3.7008693,-1.2163228
convnext_large,1,142,NaN,truck,truck,270,0142_rot_dnn_270_truck_20_n04467665_14024.png,n04467665_14024.png,1.0,3.982368,1.0201283,2.0946198
convnext_large,1,143,NaN,chair,chair,90,0143_rot_dnn_90_chair_20_n04429376_14729.png,n04429376_14729.png,1.0,2.4354744,1.5875105,0.59960103
convnext_large,1,144,NaN,car,car,270,0144_rot_dnn_270_car_20_n02814533_82321.png,n02814533_82321.png,1.0,5.287988,2.2017186,2.1823223
convnext_large,1,145,NaN,clock,clock,180,0145_rot_dnn_180_clock_20_n04548280_3701.png,n04548280_3701.png,1.0,4.8771453,0.18526283,3.317662
convnext_large,1,146,NaN,boat,boat,270,0146_rot_dnn_270_boat_20_n02951358_11442.png,n02951358_11442.png,1.0,4.5515733,1.1744618,2.3879786
convnext_large,1,147,NaN,bear,bear,90,0147_rot_dnn_90_bear_20_n02132136_17349.png,n02132136_17349.png,1.0,6.0579486,0.93894905,3.6196792
convnext_large,1,148,NaN,airplane,airplane,90,0148_rot_dnn_90_airplane_20_n02690373_4982.png,n02690373_4982.png,1.0,7.434155,1.685062,4.0652227
convnext_large,1,149,NaN,airplane,airplane,0,0149_rot_dnn_0_airplane_20_n02690373_2232.png,n02690373_2232.png,1.0,9.254086,0.702423,6.0469384
convnext_large,1,150,NaN,cat,cat,180,0150_rot_dnn_180_cat_20_n02123045_909.png,n02123045_909.png,1.0,3.0272052,0.23315835,1.9756895
convnext_large,1,151,NaN,clock,clock,180,0151_rot_dnn_180_clock_20_n04548280_1190.png,n04548280_1190.png,1.0,1.3057336,0.3187963,0.6978701
convnext_large,1,152,NaN,chair,oven,90,0152_rot_dnn_90_oven_20_n04111531_1855.png,n04111531_1855.png,0.0,0.8239125,2.1664314,-0.9493042
convnext_large,1,153,NaN,boat,boat,270,0153_rot_dnn_270_boat_20_n03662601_21408.png,n03662601_21408.png,1.0,3.6672578,1.0909078,1.8217546
convnext_large,1,154,NaN,dog,dog,90,0154_rot_dnn_90_dog_20_n02088364_15877.png,n02088364_15877.png,1.0,0.72603804,0.256437,0.33205807
convnext_large,1,155,NaN,knife,knife,90,0155_rot_dnn_90_knife_20_n03041632_15250.png,n03041632_15250.png,1.0,7.3213625,0.61087376,4.7450323
convnext_large,1,156,NaN,oven,oven,0,0156_rot_dnn_0_oven_20_n04111531_17006.png,n04111531_17006.png,1.0,8.424616,0.27986088,5.759212
convnext_large,1,157,NaN,clock,clock,90,0157_rot_dnn_90_clock_20_n04548280_11763.png,n04548280_11763.png,1.0,4.895169,0.8862186,2.834756
convnext_large,1,158,NaN,bird,bird,270,0158_rot_dnn_270_bird_20_n02028035_8327.png,n02028035_8327.png,1.0,0.48619172,0.37926564,0.07560816
convnext_large,1,159,NaN,car,car,90,0159_rot_dnn_90_car_20_n04285008_5641.png,n04285008_5641.png,1.0,5.517433,1.8509389,2.592603
convnext_large,1,160,NaN,oven,oven,90,0160_rot_dnn_90_oven_20_n04111531_10727.png,n04111531_10727.png,1.0,3.4176502,2.576799,0.59457165
convnext_large,1,161,NaN,elephant,elephant,270,0161_rot_dnn_270_elephant_20_n02504458_1971.png,n02504458_1971.png,1.0,6.02859,0.17452973,4.1394463
convnext_large,1,162,NaN,bottle,bottle,180,0162_rot_dnn_180_bottle_20_n04560804_15941.png,n04560804_15941.png,1.0,4.0568657,1.2617767,1.9764265
convnext_large,1,163,NaN,elephant,elephant,0,0163_rot_dnn_0_elephant_20_n02504458_151.png,n02504458_151.png,1.0,6.9848733,0.30104837,4.726178
convnext_large,1,164,NaN,bear,bear,180,0164_rot_dnn_180_bear_20_n02133161_15427.png,n02133161_15427.png,1.0,5.116023,0.5964859,3.1957953
convnext_large,1,165,NaN,bear,bear,180,0165_rot_dnn_180_bear_20_n02134084_20605.png,n02134084_20605.png,1.0,3.221119,0.7714899,1.7321494
convnext_large,1,166,NaN,bottle,bottle,90,0166_rot_dnn_90_bottle_20_n04560804_2693.png,n04560804_2693.png,1.0,0.9421563,0.83312756,0.07709497
convnext_large,1,167,NaN,airplane,airplane,270,0167_rot_dnn_270_airplane_20_n02690373_8214.png,n02690373_8214.png,1.0,5.258535,1.1278784,2.920815
convnext_large,1,168,NaN,boat,boat,0,0168_rot_dnn_0_boat_20_n02951358_14966.png,n02951358_14966.png,1.0,2.375844,0.5427668,1.2961813
convnext_large,1,169,NaN,knife,knife,90,0169_rot_dnn_90_knife_20_n03041632_14801.png,n03041632_14801.png,1.0,1.9569398,0.9492909,0.7125154
convnext_large,1,170,NaN,oven,dog,90,0170_rot_dnn_90_dog_20_n02110063_8776.png,n02110063_8776.png,0.0,0.3779161,0.49698132,-0.08419183
convnext_large,1,171,NaN,dog,dog,180,0171_rot_dnn_180_dog_20_n02100236_7671.png,n02100236_7671.png,1.0,0.78929806,0.12233364,0.47161508
convnext_large,1,172,NaN,oven,oven,0,0172_rot_dnn_0_oven_20_n04111531_21248.png,n04111531_21248.png,1.0,8.191113,0.8155441,5.2153153
convnext_large,1,173,NaN,chair,knife,270,0173_rot_dnn_270_knife_20_n03041632_17100.png,n03041632_17100.png,0.0,1.5081664,2.7270699,-0.8618949
convnext_large,1,174,NaN,knife,knife,0,0174_rot_dnn_0_knife_20_n03041632_3781.png,n03041632_3781.png,1.0,7.434786,1.0119108,4.5416584
convnext_large,1,175,NaN,oven,oven,270,0175_rot_dnn_270_oven_20_n04111531_46651.png,n04111531_46651.png,1.0,2.2540202,2.044183,0.14837731
convnext_large,1,176,NaN,clock,clock,0,0176_rot_dnn_0_clock_20_n04548280_8303.png,n04548280_8303.png,1.0,4.0258927,0.41526553,2.553099
convnext_large,1,177,NaN,airplane,airplane,0,0177_rot_dnn_0_airplane_20_n02690373_2070.png,n02690373_2070.png,1.0,8.227927,0.26007313,5.634124
convnext_large,1,178,NaN,car,car,180,0178_rot_dnn_180_car_20_n03100240_574.png,n03100240_574.png,1.0,3.425314,2.1591485,0.8953142
convnext_large,1,179,NaN,cat,dog,90,0179_rot_dnn_90_dog_20_n02095570_11263.png,n02095570_11263.png,0.0,0.4683457,1.0984981,-0.44558504
convnext_large,1,180,NaN,bottle,bottle,180,0180_rot_dnn_180_bottle_20_n03983396_9667.png,n03983396_9667.png,1.0,1.0697242,0.77893645,0.205618
convnext_large,1,181,NaN,clock,clock,0,0181_rot_dnn_0_clock_20_n02708093_3535.png,n02708093_3535.png,1.0,5.684326,0.2597224,3.8357742
convnext_large,1,182,NaN,knife,bird,180,0182_rot_dnn_180_bird_20_n01531178_17239.png,n01531178_17239.png,0.0,0.015289314,0.7719505,-0.53504026
convnext_large,1,183,NaN,elephant,elephant,180,0183_rot_dnn_180_elephant_20_n02504458_2272.png,n02504458_2272.png,1.0,7.1080427,0.5022138,4.671026
convnext_large,1,184,NaN,knife,knife,90,0184_rot_dnn_90_knife_20_n03041632_50648.png,n03041632_50648.png,1.0,8.551619,0.1936302,5.9099903
convnext_large,1,185,NaN,knife,knife,0,0185_rot_dnn_0_knife_20_n03041632_33225.png,n03041632_33225.png,1.0,7.837063,0.5413395,5.1588554
convnext_large,1,186,NaN,airplane,airplane,0,0186_rot_dnn_0_airplane_20_n02690373_736.png,n02690373_736.png,1.0,8.302661,0.7859895,5.315089
convnext_large,1,187,NaN,knife,knife,270,0187_rot_dnn_270_knife_20_n03041632_2546.png,n03041632_2546.png,1.0,8.136746,1.7032074,4.549199
convnext_large,1,188,NaN,boat,boat,180,0188_rot_dnn_180_boat_20_n04273569_13053.png,n04273569_13053.png,1.0,2.7938495,2.5859,0.14704244
convnext_large,1,189,NaN,airplane,airplane,180,0189_rot_dnn_180_airplane_20_n02690373_3588.png,n02690373_3588.png,1.0,3.3642135,0.9412126,1.7133204
convnext_large,1,190,NaN,keyboard,keyboard,0,0190_rot_dnn_0_keyboard_20_n03085013_21004.png,n03085013_21004.png,1.0,5.532681,3.2530491,1.6119431
convnext_large,1,191,NaN,boat,boat,180,0191_rot_dnn_180_boat_20_n03662601_16627.png,n03662601_16627.png,1.0,3.4764323,0.8215724,1.8772695
convnext_large,1,192,NaN,bird,bird,180,0192_rot_dnn_180_bird_20_n02017213_6478.png,n02017213_6478.png,1.0,1.0438552,0.9053699,0.097923905
convnext_large,1,193,NaN,bear,bear,90,0193_rot_dnn_90_bear_20_n02134418_998.png,n02134418_998.png,1.0,3.2481613,0.2783832,2.0999503
convnext_large,1,194,NaN,truck,truck,90,0194_rot_dnn_90_truck_20_n04467665_71055.png,n04467665_71055.png,1.0,3.5235372,0.39492914,2.21226
convnext_large,1,195,NaN,car,car,90,0195_rot_dnn_90_car_20_n02814533_23979.png,n02814533_23979.png,1.0,4.884767,2.0842032,1.9802977
convnext_large,1,196,NaN,elephant,elephant,180,0196_rot_dnn_180_elephant_20_n02504458_6805.png,n02504458_6805.png,1.0,5.3390765,1.7746325,2.5204427
convnext_large,1,197,NaN,clock,clock,90,0197_rot_dnn_90_clock_20_n04548280_4841.png,n04548280_4841.png,1.0,3.582173,1.3271408,1.5945487
convnext_large,1,198,NaN,boat,boat,90,0198_rot_dnn_90_boat_20_n03662601_6832.png,n03662601_6832.png,1.0,2.7670865,0.48592085,1.6130277
convnext_large,1,199,NaN,oven,oven,270,0199_rot_dnn_270_oven_20_n04111531_766.png,n04111531_766.png,1.0,8.771088,0.64000076,5.749547
convnext_large,1,200,NaN,clock,clock,0,0200_rot_dnn_0_clock_20_n04548280_1305.png,n04548280_1305.png,1.0,4.062115,0.27530226,2.6776812
convnext_large,1,201,NaN,bicycle,bicycle,0,0201_rot_dnn_0_bicycle_20_n03792782_19083.png,n03792782_19083.png,1.0,6.3376765,0.20068367,4.3395095
convnext_large,1,202,NaN,bird,bird,90,0202_rot_dnn_90_bird_20_n01860187_20081.png,n01860187_20081.png,1.0,1.0591315,0.5528112,0.3580225
convnext_large,1,203,NaN,oven,oven,0,0203_rot_dnn_0_oven_20_n04111531_4817.png,n04111531_4817.png,1.0,8.428076,1.0512046,5.2162356
convnext_large,1,204,NaN,car,car,180,0204_rot_dnn_180_car_20_n02814533_33360.png,n02814533_33360.png,1.0,6.6339626,3.0860243,2.5087714
convnext_large,1,205,NaN,clock,clock,270,0205_rot_dnn_270_clock_20_n04548280_4035.png,n04548280_4035.png,1.0,5.418574,1.5281391,2.7509527
convnext_large,1,206,NaN,keyboard,keyboard,270,0206_rot_dnn_270_keyboard_20_n03085013_7879.png,n03085013_7879.png,1.0,6.50491,1.731966,3.3749812
convnext_large,1,207,NaN,airplane,airplane,0,0207_rot_dnn_0_airplane_20_n02690373_2598.png,n02690373_2598.png,1.0,8.735951,0.3683585,5.916782
convnext_large,1,208,NaN,cat,cat,180,0208_rot_dnn_180_cat_20_n02123045_436.png,n02123045_436.png,1.0,4.5786986,1.0436249,2.4996746
convnext_large,1,209,NaN,airplane,airplane,270,0209_rot_dnn_270_airplane_20_n02690373_813.png,n02690373_813.png,1.0,8.80241,0.37058765,5.962199
convnext_large,1,210,NaN,cat,cat,0,0210_rot_dnn_0_cat_20_n02123159_1008.png,n02123159_1008.png,1.0,4.25405,0.4558317,2.6857457
convnext_large,1,211,NaN,bottle,bottle,90,0211_rot_dnn_90_bottle_20_n03983396_5452.png,n03983396_5452.png,1.0,3.6288764,0.30711162,2.3488426
convnext_large,1,212,NaN,knife,dog,90,0212_rot_dnn_90_dog_20_n02090379_13010.png,n02090379_13010.png,0.0,-0.015468165,0.87852335,-0.6321475
convnext_large,1,213,NaN,chair,chair,180,0213_rot_dnn_180_chair_20_n04099969_4162.png,n04099969_4162.png,1.0,3.0235353,2.924666,0.06991117
convnext_large,1,214,NaN,keyboard,keyboard,270,0214_rot_dnn_270_keyboard_20_n04505470_206.png,n04505470_206.png,1.0,6.4379563,0.6996873,4.057569
convnext_large,1,215,NaN,cat,cat,0,0215_rot_dnn_0_cat_20_n02123045_5290.png,n02123045_5290.png,1.0,2.8417282,0.6591649,1.5433054
convnext_large,1,216,NaN,bear,bird,180,0216_rot_dnn_180_bird_20_n01843383_6001.png,n01843383_6001.png,0.0,0.0033841254,0.6036842,-0.42447627
convnext_large,1,217,NaN,knife,knife,0,0217_rot_dnn_0_knife_20_n03041632_24376.png,n03041632_24376.png,1.0,7.9242,0.4674928,5.2726884
convnext_large,1,218,NaN,bicycle,bicycle,90,0218_rot_dnn_90_bicycle_20_n02835271_2915.png,n02835271_2915.png,1.0,6.036353,0.6024808,3.842328
convnext_large,1,219,NaN,bicycle,bicycle,0,0219_rot_dnn_0_bicycle_20_n03792782_5517.png,n03792782_5517.png,1.0,6.1940155,0.7730128,3.8332279
convnext_large,1,220,NaN,bicycle,bicycle,90,0220_rot_dnn_90_bicycle_20_n02835271_7053.png,n02835271_7053.png,1.0,7.6675363,0.15110104,5.3149223
convnext_large,1,221,NaN,clock,clock,180,0221_rot_dnn_180_clock_20_n04548280_7115.png,n04548280_7115.png,1.0,5.21198,0.5431969,3.3013284
convnext_large,1,222,NaN,boat,boat,270,0222_rot_dnn_270_boat_20_n04273569_29866.png,n04273569_29866.png,1.0,3.0000522,0.8816101,1.4979647
convnext_large,1,223,NaN,clock,clock,90,0223_rot_dnn_90_clock_20_n02708093_3623.png,n02708093_3623.png,1.0,5.416681,3.3229966,1.4804583
convnext_large,1,224,NaN,bear,bear,180,0224_rot_dnn_180_bear_20_n02132136_7468.png,n02132136_7468.png,1.0,4.7469244,2.5037322,1.5861764
convnext_large,1,225,NaN,cat,cat,0,0225_rot_dnn_0_cat_20_n02123159_2137.png,n02123159_2137.png,1.0,4.282819,0.18582547,2.897012
convnext_large,1,226,NaN,keyboard,bottle,90,0226_rot_dnn_90_bottle_20_n03937543_5257.png,n03937543_5257.png,0.0,1.4171927,1.5426756,-0.08872982
convnext_large,1,227,NaN,cat,cat,0,0227_rot_dnn_0_cat_20_n02123394_937.png,n02123394_937.png,1.0,2.2119696,0.42067558,1.2666363
convnext_large,1,228,NaN,boat,boat,0,0228_rot_dnn_0_boat_20_n03662601_11764.png,n03662601_11764.png,1.0,2.9041455,0.61464906,1.6189184
convnext_large,1,229,NaN,bear,bear,0,0229_rot_dnn_0_bear_20_n02132136_10412.png,n02132136_10412.png,1.0,4.804031,0.7445843,2.8704622
convnext_large,1,230,NaN,clock,clock,270,0230_rot_dnn_270_clock_20_n03196217_3600.png,n03196217_3600.png,1.0,4.9098277,0.42666036,3.170078
convnext_large,1,231,NaN,dog,dog,270,0231_rot_dnn_270_dog_20_n02102177_255.png,n02102177_255.png,1.0,0.9999395,0.35458684,0.45633325
convnext_large,1,232,NaN,bird,bird,270,0232_rot_dnn_270_bird_20_n01614925_1860.png,n01614925_1860.png,1.0,0.73383766,0.31248367,0.29794228
convnext_large,1,233,NaN,airplane,airplane,180,0233_rot_dnn_180_airplane_20_n02690373_1021.png,n02690373_1021.png,1.0,7.766306,0.6520926,5.0305085
convnext_large,1,234,NaN,chair,chair,180,0234_rot_dnn_180_chair_20_n03376595_9079.png,n03376595_9079.png,1.0,3.679523,1.9836051,1.199195
convnext_large,1,235,NaN,chair,chair,90,0235_rot_dnn_90_chair_20_n02791124_5199.png,n02791124_5199.png,1.0,3.2264395,0.40481067,1.9951929
convnext_large,1,236,NaN,keyboard,keyboard,90,0236_rot_dnn_90_keyboard_20_n03085013_24294.png,n03085013_24294.png,1.0,6.6675644,1.5150201,3.6433988
convnext_large,1,237,NaN,cat,cat,0,0237_rot_dnn_0_cat_20_n02123597_13286.png,n02123597_13286.png,1.0,2.4583876,0.45360407,1.4175961
convnext_large,1,238,NaN,bird,bird,180,0238_rot_dnn_180_bird_20_n01560419_17392.png,n01560419_17392.png,1.0,1.4296141,0.80475926,0.44183907
convnext_large,1,239,NaN,oven,oven,270,0239_rot_dnn_270_oven_20_n04111531_6934.png,n04111531_6934.png,1.0,8.6129265,0.9125501,5.4449887
convnext_large,1,240,NaN,clock,clock,90,0240_rot_dnn_90_clock_20_n03196217_6707.png,n03196217_6707.png,1.0,3.7752836,1.3652301,1.7041652
convnext_large,1,241,NaN,knife,knife,180,0241_rot_dnn_180_knife_20_n03041632_15174.png,n03041632_15174.png,1.0,2.4090238,0.7537054,1.1704869
convnext_large,1,242,NaN,oven,oven,180,0242_rot_dnn_180_oven_20_n04111531_13644.png,n04111531_13644.png,1.0,9.308134,0.23216477,6.41768
convnext_large,1,243,NaN,elephant,elephant,0,0243_rot_dnn_0_elephant_20_n02504458_3458.png,n02504458_3458.png,1.0,6.8723974,0.28831258,4.655651
convnext_large,1,244,NaN,clock,clock,90,0244_rot_dnn_90_clock_20_n04548280_18914.png,n04548280_18914.png,1.0,4.7916894,0.32601792,3.1577067
convnext_large,1,245,NaN,bear,dog,180,0245_rot_dnn_180_dog_20_n02107908_2754.png,n02107908_2754.png,0.0,0.80727786,1.9615506,-0.8161941
convnext_large,1,246,NaN,airplane,airplane,0,0246_rot_dnn_0_airplane_20_n02690373_1306.png,n02690373_1306.png,1.0,8.417465,0.38210672,5.6818566
convnext_large,1,247,NaN,chair,chair,90,0247_rot_dnn_90_chair_20_n03376595_10266.png,n03376595_10266.png,1.0,4.1614704,0.5654868,2.5427444
convnext_large,1,248,NaN,keyboard,keyboard,270,0248_rot_dnn_270_keyboard_20_n04505470_1416.png,n04505470_1416.png,1.0,7.3554726,0.3390173,4.9613833
convnext_large,1,249,NaN,clock,clock,180,0249_rot_dnn_180_clock_20_n04548280_4686.png,n04548280_4686.png,1.0,5.263734,0.2079403,3.5749862
convnext_large,1,250,NaN,truck,truck,270,0250_rot_dnn_270_truck_20_n04467665_69882.png,n04467665_69882.png,1.0,2.1128485,1.2953249,0.5780765
convnext_large,1,251,NaN,bottle,bottle,270,0251_rot_dnn_270_bottle_20_n04591713_2123.png,n04591713_2123.png,1.0,2.3047047,0.7979773,1.0654172
convnext_large,1,252,NaN,oven,oven,90,0252_rot_dnn_90_oven_20_n04111531_6933.png,n04111531_6933.png,1.0,3.12747,1.2651336,1.3168707
convnext_large,1,253,NaN,car,car,270,0253_rot_dnn_270_car_20_n03100240_8898.png,n03100240_8898.png,1.0,4.899643,1.5828269,2.345343
convnext_large,1,254,NaN,elephant,elephant,180,0254_rot_dnn_180_elephant_20_n02504458_5277.png,n02504458_5277.png,1.0,8.442392,0.5868869,5.5546813
convnext_large,1,255,NaN,oven,truck,270,0255_rot_dnn_270_truck_20_n03417042_9967.png,n03417042_9967.png,0.0,1.2495587,7.0174847,-4.07854
convnext_large,1,256,NaN,bear,bear,0,0256_rot_dnn_0_bear_20_n02134418_1017.png,n02134418_1017.png,1.0,3.174772,0.38835758,1.9702926
convnext_large,1,257,NaN,airplane,airplane,90,0257_rot_dnn_90_airplane_20_n02690373_1909.png,n02690373_1909.png,1.0,8.11678,1.0676467,4.98449
convnext_large,1,258,NaN,airplane,airplane,0,0258_rot_dnn_0_airplane_20_n02690373_6753.png,n02690373_6753.png,1.0,8.544429,0.35023466,5.79417
convnext_large,1,259,NaN,airplane,airplane,0,0259_rot_dnn_0_airplane_20_n02690373_1972.png,n02690373_1972.png,1.0,8.771712,0.66366065,5.7332582
convnext_large,1,260,NaN,oven,oven,90,0260_rot_dnn_90_oven_20_n04111531_9915.png,n04111531_9915.png,1.0,8.337588,0.9597006,5.2169547
convnext_large,1,261,NaN,elephant,elephant,270,0261_rot_dnn_270_elephant_20_n02504458_485.png,n02504458_485.png,1.0,6.816796,0.14830357,4.7153363
convnext_large,1,262,NaN,elephant,elephant,180,0262_rot_dnn_180_elephant_20_n02504013_2431.png,n02504013_2431.png,1.0,7.442733,0.45457557,4.9413733
convnext_large,1,263,NaN,clock,clock,180,0263_rot_dnn_180_clock_20_n02708093_1038.png,n02708093_1038.png,1.0,4.9299664,0.5530123,3.094974
convnext_large,1,264,NaN,cat,cat,270,0264_rot_dnn_270_cat_20_n02123597_5927.png,n02123597_5927.png,1.0,2.6113837,0.68129253,1.3647805
convnext_large,1,265,NaN,bicycle,bicycle,90,0265_rot_dnn_90_bicycle_20_n03792782_3202.png,n03792782_3202.png,1.0,6.273101,1.6454518,3.2722423
convnext_large,1,266,NaN,car,car,270,0266_rot_dnn_270_car_20_n02814533_45480.png,n02814533_45480.png,1.0,3.6241302,2.2652922,0.9608436
convnext_large,1,267,NaN,truck,truck,90,0267_rot_dnn_90_truck_20_n03796401_4571.png,n03796401_4571.png,1.0,3.920998,1.3144044,1.84314
convnext_large,1,268,NaN,oven,oven,90,0268_rot_dnn_90_oven_20_n04111531_21011.png,n04111531_21011.png,1.0,9.446368,0.9828125,5.9846373
convnext_large,1,269,NaN,airplane,airplane,0,0269_rot_dnn_0_airplane_20_n02690373_4310.png,n02690373_4310.png,1.0,8.084566,0.51391333,5.35326
convnext_large,1,270,NaN,oven,oven,0,0270_rot_dnn_0_oven_20_n04111531_7134.png,n04111531_7134.png,1.0,7.549041,1.3835862,4.359635
convnext_large,1,271,NaN,dog,dog,270,0271_rot_dnn_270_dog_20_n02105251_1092.png,n02105251_1092.png,1.0,0.57109237,0.13415924,0.30895838
convnext_large,1,272,NaN,knife,knife,180,0272_rot_dnn_180_knife_20_n03041632_34505.png,n03041632_34505.png,1.0,2.036785,1.6702185,0.25920162
convnext_large,1,273,NaN,keyboard,keyboard,90,0273_rot_dnn_90_keyboard_20_n04505470_4520.png,n04505470_4520.png,1.0,5.9867373,2.1457903,2.7159595
convnext_large,1,274,NaN,boat,boat,180,0274_rot_dnn_180_boat_20_n03344393_1519.png,n03344393_1519.png,1.0,2.8660376,2.6211338,0.17317314
convnext_large,1,275,NaN,chair,chair,270,0275_rot_dnn_270_chair_20_n03376595_9535.png,n03376595_9535.png,1.0,2.9585195,1.6731681,0.9088807
convnext_large,1,276,NaN,cat,cat,270,0276_rot_dnn_270_cat_20_n02125311_1326.png,n02125311_1326.png,1.0,0.53592026,0.41349986,0.086564295
convnext_large,1,277,NaN,cat,cat,90,0277_rot_dnn_90_cat_20_n02123394_2948.png,n02123394_2948.png,1.0,2.6224105,0.2914886,1.6482106
convnext_large,1,278,NaN,oven,oven,270,0278_rot_dnn_270_oven_20_n04111531_5429.png,n04111531_5429.png,1.0,6.981547,1.1633599,4.1140795
convnext_large,1,279,NaN,elephant,elephant,0,0279_rot_dnn_0_elephant_20_n02504013_6645.png,n02504013_6645.png,1.0,5.9558992,0.73458946,3.6920235
convnext_large,1,280,NaN,keyboard,keyboard,90,0280_rot_dnn_90_keyboard_20_n04505470_4159.png,n04505470_4159.png,1.0,5.4249134,2.565511,2.0219028
convnext_large,1,281,NaN,knife,bottle,90,0281_rot_dnn_90_bottle_20_n02823428_6252.png,n02823428_6252.png,0.0,1.1094505,1.5629463,-0.32067
convnext_large,1,282,NaN,airplane,airplane,180,0282_rot_dnn_180_airplane_20_n02690373_15097.png,n02690373_15097.png,1.0,7.6948657,1.1645647,4.6176205
convnext_large,1,283,NaN,cat,cat,0,0283_rot_dnn_0_cat_20_n02123159_3420.png,n02123159_3420.png,1.0,1.7502872,1.6945686,0.03939896
convnext_large,1,284,NaN,cat,cat,0,0284_rot_dnn_0_cat_20_n02124075_7835.png,n02124075_7835.png,1.0,4.0471196,0.29634675,2.6521971
convnext_large,1,285,NaN,cat,cat,90,0285_rot_dnn_90_cat_20_n02123045_6696.png,n02123045_6696.png,1.0,4.074475,1.5253336,1.802515
convnext_large,1,286,NaN,boat,boat,180,0286_rot_dnn_180_boat_20_n02951358_34766.png,n02951358_34766.png,1.0,3.3951328,0.60330045,1.9741237
convnext_large,1,287,NaN,boat,bird,0,0287_rot_dnn_0_bird_20_n01855672_8191.png,n01855672_8191.png,0.0,0.021732451,0.22981715,-0.1471381
convnext_large,1,288,NaN,truck,truck,180,0288_rot_dnn_180_truck_20_n03796401_1150.png,n03796401_1150.png,1.0,3.051775,2.9196305,0.09344024
convnext_large,1,289,NaN,bicycle,bicycle,270,0289_rot_dnn_270_bicycle_20_n03792782_9782.png,n03792782_9782.png,1.0,7.334826,0.3037844,4.9716973
convnext_large,1,290,NaN,boat,boat,270,0290_rot_dnn_270_boat_20_n03662601_12969.png,n03662601_12969.png,1.0,1.5916717,1.4030297,0.13339005
convnext_large,1,291,NaN,bottle,bottle,180,0291_rot_dnn_180_bottle_20_n02823428_4530.png,n02823428_4530.png,1.0,2.6363423,1.6790123,0.67693454
convnext_large,1,292,NaN,chair,chair,0,0292_rot_dnn_0_chair_20_n02791124_2898.png,n02791124_2898.png,1.0,2.4835856,0.6176391,1.3194234
convnext_large,1,293,NaN,cat,cat,270,0293_rot_dnn_270_cat_20_n02123394_686.png,n02123394_686.png,1.0,2.3840454,0.5550684,1.293282
convnext_large,1,294,NaN,cat,dog,180,0294_rot_dnn_180_dog_20_n02100735_4364.png,n02100735_4364.png,0.0,0.40487,1.1918766,-0.55649775
convnext_large,1,295,NaN,elephant,dog,0,0295_rot_dnn_0_dog_20_n02102177_7968.png,n02102177_7968.png,0.0,0.51293695,0.53246975,-0.0138117755
convnext_large,1,296,NaN,knife,knife,270,0296_rot_dnn_270_knife_20_n03041632_15099.png,n03041632_15099.png,1.0,6.6935835,1.5161687,3.6609852
convnext_large,1,297,NaN,oven,oven,180,0297_rot_dnn_180_oven_20_n04111531_2937.png,n04111531_2937.png,1.0,8.16396,0.27821016,5.5760674
convnext_large,1,298,NaN,cat,cat,0,0298_rot_dnn_0_cat_20_n02123394_3695.png,n02123394_3695.png,1.0,2.1935894,0.6082762,1.1209859
convnext_large,1,299,NaN,bear,bear,180,0299_rot_dnn_180_bear_20_n02134084_3696.png,n02134084_3696.png,1.0,2.412071,1.2838267,0.7977892
convnext_large,1,300,NaN,oven,oven,270,0300_rot_dnn_270_oven_20_n04111531_4671.png,n04111531_4671.png,1.0,5.1555614,1.5610995,2.5416684
convnext_large,1,301,NaN,bear,bear,180,0301_rot_dnn_180_bear_20_n02133161_2741.png,n02133161_2741.png,1.0,4.6418614,1.695254,2.0835662
convnext_large,1,302,NaN,boat,boat,90,0302_rot_dnn_90_boat_20_n03662601_3893.png,n03662601_3893.png,1.0,3.388499,0.7879312,1.8388792
convnext_large,1,303,NaN,boat,boat,90,0303_rot_dnn_90_boat_20_n03344393_2790.png,n03344393_2790.png,1.0,1.5512406,0.7528974,0.56451386
convnext_large,1,304,NaN,keyboard,keyboard,180,0304_rot_dnn_180_keyboard_20_n03085013_3920.png,n03085013_3920.png,1.0,5.032103,1.8055129,2.2815437
convnext_large,1,305,NaN,chair,chair,90,0305_rot_dnn_90_chair_20_n04099969_1962.png,n04099969_1962.png,1.0,4.3001156,2.3608294,1.3712825
convnext_large,1,306,NaN,knife,knife,0,0306_rot_dnn_0_knife_20_n03041632_13846.png,n03041632_13846.png,1.0,8.329548,0.923484,5.2368784
convnext_large,1,307,NaN,boat,boat,0,0307_rot_dnn_0_boat_20_n02951358_30117.png,n02951358_30117.png,1.0,3.0042343,0.8966508,1.4902866
convnext_large,1,308,NaN,elephant,elephant,270,0308_rot_dnn_270_elephant_20_n02504458_9922.png,n02504458_9922.png,1.0,6.150633,0.27684772,4.1533933
convnext_large,1,309,NaN,boat,boat,180,0309_rot_dnn_180_boat_20_n03344393_5609.png,n03344393_5609.png,1.0,2.5135844,1.2119929,0.9203642
convnext_large,1,310,NaN,chair,chair,0,0310_rot_dnn_0_chair_20_n02791124_3180.png,n02791124_3180.png,1.0,3.150486,0.10009028,2.1569555
convnext_large,1,311,NaN,boat,boat,90,0311_rot_dnn_90_boat_20_n02951358_12532.png,n02951358_12532.png,1.0,2.3810709,0.3449335,1.4397665
convnext_large,1,312,NaN,cat,cat,180,0312_rot_dnn_180_cat_20_n02123597_1901.png,n02123597_1901.png,1.0,2.8917472,0.46840802,1.7135595
convnext_large,1,313,NaN,elephant,elephant,270,0313_rot_dnn_270_elephant_20_n02504013_5173.png,n02504013_5173.png,1.0,6.7069664,0.26230982,4.5570602
convnext_large,1,314,NaN,car,car,180,0314_rot_dnn_180_car_20_n04285008_4834.png,n04285008_4834.png,1.0,4.4751573,3.6526737,0.5815837
convnext_large,1,315,NaN,truck,truck,270,0315_rot_dnn_270_truck_20_n03417042_28584.png,n03417042_28584.png,1.0,3.9783964,0.9053342,2.1729832
convnext_large,1,316,NaN,dog,dog,180,0316_rot_dnn_180_dog_20_n02093428_11151.png,n02093428_11151.png,1.0,0.41249365,0.26413333,0.10490658
convnext_large,1,317,NaN,bicycle,bicycle,90,0317_rot_dnn_90_bicycle_20_n03792782_1475.png,n03792782_1475.png,1.0,6.5868034,0.16920273,4.537929
convnext_large,1,318,NaN,knife,knife,0,0318_rot_dnn_0_knife_20_n03041632_8666.png,n03041632_8666.png,1.0,8.170931,0.29211518,5.571164
convnext_large,1,319,NaN,clock,clock,0,0319_rot_dnn_0_clock_20_n04548280_253.png,n04548280_253.png,1.0,3.8647606,0.43881017,2.422513
convnext_large,1,320,NaN,airplane,airplane,180,0320_rot_dnn_180_airplane_20_n02690373_9441.png,n02690373_9441.png,1.0,8.22523,0.6033317,5.3894963
convnext_large,1,321,NaN,airplane,airplane,270,0321_rot_dnn_270_airplane_20_n02690373_1946.png,n02690373_1946.png,1.0,7.826661,1.1636361,4.71147
convnext_large,1,322,NaN,car,car,90,0322_rot_dnn_90_car_20_n03100240_5044.png,n03100240_5044.png,1.0,6.188053,0.7264129,3.861963
convnext_large,1,323,NaN,dog,dog,270,0323_rot_dnn_270_dog_20_n02111500_6559.png,n02111500_6559.png,1.0,0.9699486,0.20674622,0.5396656
convnext_large,1,324,NaN,dog,dog,270,0324_rot_dnn_270_dog_20_n02096051_1852.png,n02096051_1852.png,1.0,0.6095516,0.1424474,0.33029255
convnext_large,1,325,NaN,elephant,bear,270,0325_rot_dnn_270_bear_20_n02133161_5020.png,n02133161_5020.png,0.0,1.6275887,2.3456745,-0.5077633
convnext_large,1,326,NaN,chair,chair,90,0326_rot_dnn_90_chair_20_n02791124_2034.png,n02791124_2034.png,1.0,2.0302758,1.3356326,0.49118698
convnext_large,1,327,NaN,clock,clock,180,0327_rot_dnn_180_clock_20_n03196217_6526.png,n03196217_6526.png,1.0,4.898568,0.15825406,3.3519082
convnext_large,1,328,NaN,oven,oven,180,0328_rot_dnn_180_oven_20_n04111531_9779.png,n04111531_9779.png,1.0,3.3198512,1.3747461,1.375397
convnext_large,1,329,NaN,boat,boat,0,0329_rot_dnn_0_boat_20_n03662601_28640.png,n03662601_28640.png,1.0,2.7205234,0.4727056,1.5894473
convnext_large,1,330,NaN,knife,knife,90,0330_rot_dnn_90_knife_20_n03041632_31301.png,n03041632_31301.png,1.0,8.117642,0.35546735,5.4886866
convnext_large,1,331,NaN,keyboard,keyboard,90,0331_rot_dnn_90_keyboard_20_n03085013_9209.png,n03085013_9209.png,1.0,6.449933,0.9560313,3.8847752
convnext_large,1,332,NaN,elephant,elephant,90,0332_rot_dnn_90_elephant_20_n02504458_113.png,n02504458_113.png,1.0,5.131056,0.49256158,3.279911
convnext_large,1,333,NaN,bicycle,bicycle,180,0333_rot_dnn_180_bicycle_20_n03792782_6058.png,n03792782_6058.png,1.0,4.2870665,1.3794708,2.0559807
convnext_large,1,334,NaN,keyboard,keyboard,0,0334_rot_dnn_0_keyboard_20_n04505470_4651.png,n04505470_4651.png,1.0,5.5077753,0.37311485,3.630753
convnext_large,1,335,NaN,keyboard,keyboard,180,0335_rot_dnn_180_keyboard_20_n03085013_7009.png,n03085013_7009.png,1.0,5.836958,1.4806429,3.08038
convnext_large,1,336,NaN,truck,truck,270,0336_rot_dnn_270_truck_20_n04467665_44390.png,n04467665_44390.png,1.0,4.1829243,0.72546273,2.4447947
convnext_large,1,337,NaN,boat,boat,90,0337_rot_dnn_90_boat_20_n04273569_17340.png,n04273569_17340.png,1.0,3.0448525,0.81712806,1.5752392
convnext_large,1,338,NaN,elephant,elephant,0,0338_rot_dnn_0_elephant_20_n02504013_1333.png,n02504013_1333.png,1.0,6.744563,0.20637178,4.6231995
convnext_large,1,339,NaN,knife,knife,270,0339_rot_dnn_270_knife_20_n03041632_50034.png,n03041632_50034.png,1.0,7.902009,0.13282457,5.4936433
convnext_large,1,340,NaN,clock,clock,90,0340_rot_dnn_90_clock_20_n02708093_2740.png,n02708093_2740.png,1.0,3.997633,1.6554712,1.6561584
convnext_large,1,341,NaN,bear,bear,0,0341_rot_dnn_0_bear_20_n02132136_13975.png,n02132136_13975.png,1.0,4.6371,0.769668,2.7346876
convnext_large,1,342,NaN,elephant,elephant,90,0342_rot_dnn_90_elephant_20_n02504013_256.png,n02504013_256.png,1.0,7.0681415,0.30260745,4.783955
convnext_large,1,343,NaN,boat,boat,90,0343_rot_dnn_90_boat_20_n03344393_6588.png,n03344393_6588.png,1.0,1.880872,1.5296818,0.24832898
convnext_large,1,344,NaN,knife,knife,270,0344_rot_dnn_270_knife_20_n03041632_7173.png,n03041632_7173.png,1.0,7.3094726,0.8554173,4.5637064
convnext_large,1,345,NaN,boat,elephant,180,0345_rot_dnn_180_elephant_20_n02504458_1041.png,n02504458_1041.png,0.0,-0.078905016,2.2701612,-1.6610407
convnext_large,1,346,NaN,chair,chair,180,0346_rot_dnn_180_chair_20_n04099969_8021.png,n04099969_8021.png,1.0,3.1941764,0.43786827,1.9490042
convnext_large,1,347,NaN,truck,truck,0,0347_rot_dnn_0_truck_20_n03796401_1791.png,n03796401_1791.png,1.0,1.8316293,0.43234092,0.98944634
convnext_large,1,348,NaN,keyboard,keyboard,90,0348_rot_dnn_90_keyboard_20_n04505470_5007.png,n04505470_5007.png,1.0,5.082302,0.5852028,3.1799295
convnext_large,1,349,NaN,truck,truck,180,0349_rot_dnn_180_truck_20_n03417042_29384.png,n03417042_29384.png,1.0,3.9147332,2.1882148,1.2208328
convnext_large,1,350,NaN,bird,bird,90,0350_rot_dnn_90_bird_20_n01534433_1271.png,n01534433_1271.png,1.0,0.9558271,0.5388031,0.2948805
convnext_large,1,351,NaN,keyboard,dog,270,0351_rot_dnn_270_dog_20_n02113624_393.png,n02113624_393.png,0.0,0.31543908,0.43967012,-0.08784461
convnext_large,1,352,NaN,cat,cat,90,0352_rot_dnn_90_cat_20_n02123159_5461.png,n02123159_5461.png,1.0,2.0917943,0.5946625,1.0586321
convnext_large,1,353,NaN,knife,knife,270,0353_rot_dnn_270_knife_20_n03041632_9759.png,n03041632_9759.png,1.0,8.008411,0.60423267,5.235545
convnext_large,1,354,NaN,chair,chair,90,0354_rot_dnn_90_chair_20_n04429376_1754.png,n04429376_1754.png,1.0,2.8674085,1.8142616,0.7446874
convnext_large,1,355,NaN,oven,oven,90,0355_rot_dnn_90_oven_20_n04111531_1818.png,n04111531_1818.png,1.0,4.826354,1.1841033,2.5754602
convnext_large,1,356,NaN,clock,clock,0,0356_rot_dnn_0_clock_20_n04548280_5798.png,n04548280_5798.png,1.0,5.1734986,0.61589867,3.22271
convnext_large,1,357,NaN,oven,oven,90,0357_rot_dnn_90_oven_20_n04111531_3099.png,n04111531_3099.png,1.0,6.5426583,1.0505958,3.8834748
convnext_large,1,358,NaN,bottle,bottle,270,0358_rot_dnn_270_bottle_20_n04557648_581.png,n04557648_581.png,1.0,2.8955095,0.53419614,1.6697007
convnext_large,1,359,NaN,bird,bird,0,0359_rot_dnn_0_bird_20_n01531178_3183.png,n01531178_3183.png,1.0,0.690927,0.6887387,0.0015473794
convnext_large,1,360,NaN,airplane,airplane,90,0360_rot_dnn_90_airplane_20_n02690373_8872.png,n02690373_8872.png,1.0,8.306011,0.5633526,5.4748864
convnext_large,1,361,NaN,cat,cat,0,0361_rot_dnn_0_cat_20_n02123394_5301.png,n02123394_5301.png,1.0,1.4136919,0.55192995,0.6093577
convnext_large,1,362,NaN,bicycle,bicycle,270,0362_rot_dnn_270_bicycle_20_n03792782_12844.png,n03792782_12844.png,1.0,6.5422173,0.8021057,4.0588717
convnext_large,1,363,NaN,bear,bear,90,0363_rot_dnn_90_bear_20_n02132136_2691.png,n02132136_2691.png,1.0,4.495371,0.4848158,2.8358908
convnext_large,1,364,NaN,car,car,0,0364_rot_dnn_0_car_20_n02814533_27327.png,n02814533_27327.png,1.0,4.6162195,2.0354564,1.8248751
convnext_large,1,365,NaN,bird,bird,0,0365_rot_dnn_0_bird_20_n02027492_7653.png,n02027492_7653.png,1.0,1.0423402,0.46166867,0.41059676
convnext_large,1,366,NaN,bear,bear,0,0366_rot_dnn_0_bear_20_n02133161_62.png,n02133161_62.png,1.0,4.695477,0.48402935,2.9779432
convnext_large,1,367,NaN,bottle,bottle,0,0367_rot_dnn_0_bottle_20_n04560804_9710.png,n04560804_9710.png,1.0,1.266133,0.25269142,0.7166114
convnext_large,1,368,NaN,clock,clock,180,0368_rot_dnn_180_clock_20_n04548280_15154.png,n04548280_15154.png,1.0,4.2406793,0.33905643,2.758864
convnext_large,1,369,NaN,oven,oven,180,0369_rot_dnn_180_oven_20_n04111531_114.png,n04111531_114.png,1.0,9.013487,1.4423758,5.3535843
convnext_large,1,370,NaN,cat,cat,180,0370_rot_dnn_180_cat_20_n02125311_24813.png,n02125311_24813.png,1.0,2.820135,0.6274823,1.5504396
convnext_large,1,371,NaN,airplane,airplane,90,0371_rot_dnn_90_airplane_20_n02690373_7647.png,n02690373_7647.png,1.0,8.972972,0.5828969,5.9326787
convnext_large,1,372,NaN,bottle,bottle,0,0372_rot_dnn_0_bottle_20_n03983396_9823.png,n03983396_9823.png,1.0,3.317829,0.38052845,2.0769851
convnext_large,1,373,NaN,bear,bear,0,0373_rot_dnn_0_bear_20_n02134418_2398.png,n02134418_2398.png,1.0,3.0526936,0.4349535,1.8510219
convnext_large,1,374,NaN,keyboard,keyboard,90,0374_rot_dnn_90_keyboard_20_n04505470_4584.png,n04505470_4584.png,1.0,6.8762255,0.5414157,4.479387
convnext_large,1,375,NaN,keyboard,keyboard,0,0375_rot_dnn_0_keyboard_20_n04505470_10055.png,n04505470_10055.png,1.0,5.000556,0.77217674,2.9899156
convnext_large,1,376,NaN,boat,boat,270,0376_rot_dnn_270_boat_20_n04273569_10980.png,n04273569_10980.png,1.0,2.578515,1.7066991,0.61646694
convnext_large,1,377,NaN,car,car,180,0377_rot_dnn_180_car_20_n03100240_16210.png,n03100240_16210.png,1.0,6.0039077,3.5976787,1.7014608
convnext_large,1,378,NaN,keyboard,keyboard,0,0378_rot_dnn_0_keyboard_20_n04505470_1067.png,n04505470_1067.png,1.0,5.447152,0.4010552,3.5681293
convnext_large,1,379,NaN,elephant,elephant,0,0379_rot_dnn_0_elephant_20_n02504458_7867.png,n02504458_7867.png,1.0,6.5072336,0.40365687,4.3158803
convnext_large,1,380,NaN,keyboard,keyboard,180,0380_rot_dnn_180_keyboard_20_n04505470_807.png,n04505470_807.png,1.0,5.203223,0.9110959,3.0349922
convnext_large,1,381,NaN,bicycle,bicycle,270,0381_rot_dnn_270_bicycle_20_n02835271_24104.png,n02835271_24104.png,1.0,4.8322988,0.5848204,3.0034208
convnext_large,1,382,NaN,bottle,bottle,0,0382_rot_dnn_0_bottle_20_n03937543_6698.png,n03937543_6698.png,1.0,1.7813565,0.6520129,0.79856646
convnext_large,1,383,NaN,oven,oven,0,0383_rot_dnn_0_oven_20_n04111531_10403.png,n04111531_10403.png,1.0,4.286373,2.029157,1.5960929
convnext_large,1,384,NaN,truck,truck,0,0384_rot_dnn_0_truck_20_n03796401_8463.png,n03796401_8463.png,1.0,3.422513,0.40507805,2.1336489
convnext_large,1,385,NaN,truck,truck,0,0385_rot_dnn_0_truck_20_n03796401_8176.png,n03796401_8176.png,1.0,3.244008,0.7168672,1.7869585
convnext_large,1,386,NaN,bottle,bottle,90,0386_rot_dnn_90_bottle_20_n03937543_984.png,n03937543_984.png,1.0,1.251939,0.58674794,0.47036114
convnext_large,1,387,NaN,bicycle,bicycle,90,0387_rot_dnn_90_bicycle_20_n02835271_11697.png,n02835271_11697.png,1.0,6.2192545,3.2751775,2.0817769
convnext_large,1,388,NaN,keyboard,keyboard,270,0388_rot_dnn_270_keyboard_20_n03085013_22417.png,n03085013_22417.png,1.0,7.113871,0.9485205,4.359561
convnext_large,1,389,NaN,car,car,270,0389_rot_dnn_270_car_20_n03100240_7602.png,n03100240_7602.png,1.0,5.8868294,3.4137015,1.7487655
convnext_large,1,390,NaN,clock,bird,90,0390_rot_dnn_90_bird_20_n01534433_14389.png,n01534433_14389.png,0.0,0.0925264,1.1513841,-0.7487255
convnext_large,1,391,NaN,bear,bear,0,0391_rot_dnn_0_bear_20_n02134084_2598.png,n02134084_2598.png,1.0,2.9063518,0.47973675,1.715876
convnext_large,1,392,NaN,bird,bird,180,0392_rot_dnn_180_bird_20_n01560419_19599.png,n01560419_19599.png,1.0,1.2095971,0.43082038,0.5506783
convnext_large,1,393,NaN,bicycle,bicycle,90,0393_rot_dnn_90_bicycle_20_n02835271_8747.png,n02835271_8747.png,1.0,6.575523,0.22016053,4.49392
convnext_large,1,394,NaN,knife,knife,180,0394_rot_dnn_180_knife_20_n03041632_30821.png,n03041632_30821.png,1.0,6.7687764,0.39469922,4.5071535
convnext_large,1,395,NaN,chair,chair,270,0395_rot_dnn_270_chair_20_n03376595_209.png,n03376595_209.png,1.0,2.9952743,0.9300786,1.4603138
convnext_large,1,396,NaN,boat,boat,180,0396_rot_dnn_180_boat_20_n04273569_29113.png,n04273569_29113.png,1.0,4.244921,1.6718589,1.8194299
convnext_large,1,397,NaN,bicycle,bird,270,0397_rot_dnn_270_bird_20_n02006656_6435.png,n02006656_6435.png,0.0,0.23721537,0.63826156,-0.28358248
convnext_large,1,398,NaN,airplane,airplane,90,0398_rot_dnn_90_airplane_20_n02690373_3492.png,n02690373_3492.png,1.0,7.6026525,1.5029789,4.313121
convnext_large,1,399,NaN,oven,oven,270,0399_rot_dnn_270_oven_20_n04111531_9380.png,n04111531_9380.png,1.0,8.830165,0.92397565,5.5905204
convnext_large,1,400,NaN,keyboard,keyboard,270,0400_rot_dnn_270_keyboard_20_n04505470_510.png,n04505470_510.png,1.0,5.2313604,1.1954336,2.8538313
convnext_large,1,401,NaN,boat,bird,180,0401_rot_dnn_180_bird_20_n02027492_20576.png,n02027492_20576.png,0.0,0.54605895,2.3342175,-1.2644191
convnext_large,1,402,NaN,airplane,bird,90,0402_rot_dnn_90_bird_20_n01855032_1920.png,n01855032_1920.png,0.0,0.12246511,0.49670118,-0.26462486
convnext_large,1,403,NaN,boat,boat,180,0403_rot_dnn_180_boat_20_n04273569_15761.png,n04273569_15761.png,1.0,3.2722008,2.2798753,0.7016801
convnext_large,1,404,NaN,oven,oven,180,0404_rot_dnn_180_oven_20_n04111531_10667.png,n04111531_10667.png,1.0,8.523272,0.5440762,5.6421432
convnext_large,1,405,NaN,knife,knife,270,0405_rot_dnn_270_knife_20_n03041632_36215.png,n03041632_36215.png,1.0,7.0657377,0.5640835,4.597364
convnext_large,1,406,NaN,bicycle,bicycle,180,0406_rot_dnn_180_bicycle_20_n02835271_2625.png,n02835271_2625.png,1.0,6.681819,0.66691864,4.2531767
convnext_large,1,407,NaN,car,bird,270,0407_rot_dnn_270_bird_20_n02028035_20411.png,n02028035_20411.png,0.0,0.3940556,0.47526178,-0.057421435
convnext_large,1,408,NaN,knife,knife,0,0408_rot_dnn_0_knife_20_n03041632_25656.png,n03041632_25656.png,1.0,9.02951,4.3853693,3.2839031
convnext_large,1,409,NaN,oven,oven,270,0409_rot_dnn_270_oven_20_n04111531_4332.png,n04111531_4332.png,1.0,8.491816,0.5723802,5.5998864
convnext_large,1,410,NaN,keyboard,keyboard,180,0410_rot_dnn_180_keyboard_20_n04505470_3553.png,n04505470_3553.png,1.0,6.754978,0.34109285,4.5353017
convnext_large,1,411,NaN,bicycle,bicycle,180,0411_rot_dnn_180_bicycle_20_n02835271_18706.png,n02835271_18706.png,1.0,6.201487,0.6486045,3.926481
convnext_large,1,412,NaN,truck,truck,270,0412_rot_dnn_270_truck_20_n03417042_10744.png,n03417042_10744.png,1.0,4.2020526,1.194639,2.1265626
convnext_large,1,413,NaN,clock,clock,0,0413_rot_dnn_0_clock_20_n03196217_11724.png,n03196217_11724.png,1.0,4.979467,0.6591342,3.0549364
convnext_large,1,414,NaN,bicycle,bicycle,270,0414_rot_dnn_270_bicycle_20_n02835271_14123.png,n02835271_14123.png,1.0,7.1797724,0.89852625,4.4415116
convnext_large,1,415,NaN,bicycle,bicycle,270,0415_rot_dnn_270_bicycle_20_n02835271_7900.png,n02835271_7900.png,1.0,7.170129,0.6243854,4.6285396
convnext_large,1,416,NaN,truck,truck,270,0416_rot_dnn_270_truck_20_n03417042_2153.png,n03417042_2153.png,1.0,4.1604204,0.5532645,2.5506444
convnext_large,1,417,NaN,bicycle,bicycle,270,0417_rot_dnn_270_bicycle_20_n03792782_10129.png,n03792782_10129.png,1.0,5.0360503,0.4143025,3.2680695
convnext_large,1,418,NaN,bird,bird,180,0418_rot_dnn_180_bird_20_n01514859_18430.png,n01514859_18430.png,1.0,0.8032507,0.18297136,0.43860373
convnext_large,1,419,NaN,chair,chair,0,0419_rot_dnn_0_chair_20_n04099969_5010.png,n04099969_5010.png,1.0,2.603229,0.36062065,1.5857636
convnext_large,1,420,NaN,truck,truck,0,0420_rot_dnn_0_truck_20_n03796401_588.png,n03796401_588.png,1.0,1.5985699,1.2234238,0.2652683
convnext_large,1,421,NaN,car,car,0,0421_rot_dnn_0_car_20_n02814533_486.png,n02814533_486.png,1.0,4.8696923,1.3171113,2.5120542
convnext_large,1,422,NaN,elephant,elephant,90,0422_rot_dnn_90_elephant_20_n02504013_3540.png,n02504013_3540.png,1.0,6.9498734,0.18317477,4.7847786
convnext_large,1,423,NaN,car,car,180,0423_rot_dnn_180_car_20_n02814533_55715.png,n02814533_55715.png,1.0,3.2650692,1.9163332,0.9537004
convnext_large,1,424,NaN,bottle,bottle,180,0424_rot_dnn_180_bottle_20_n03983396_10896.png,n03983396_10896.png,1.0,1.9184568,1.0903927,0.58552974
convnext_large,1,425,NaN,bottle,bottle,90,0425_rot_dnn_90_bottle_20_n04557648_15053.png,n04557648_15053.png,1.0,3.0469868,1.2756764,1.2525057
convnext_large,1,426,NaN,car,car,0,0426_rot_dnn_0_car_20_n04285008_8281.png,n04285008_8281.png,1.0,4.789755,0.23040237,3.223949
convnext_large,1,427,NaN,car,car,270,0427_rot_dnn_270_car_20_n02814533_38596.png,n02814533_38596.png,1.0,5.5944767,1.4036064,2.9633927
convnext_large,1,428,NaN,elephant,elephant,270,0428_rot_dnn_270_elephant_20_n02504013_15219.png,n02504013_15219.png,1.0,6.950008,0.26515055,4.726908
convnext_large,1,429,NaN,elephant,elephant,180,0429_rot_dnn_180_elephant_20_n02504013_828.png,n02504013_828.png,1.0,8.067422,0.90944326,5.0614552
convnext_large,1,430,NaN,oven,oven,180,0430_rot_dnn_180_oven_20_n04111531_1439.png,n04111531_1439.png,1.0,8.382803,0.7167566,5.4207134
convnext_large,1,431,NaN,bottle,bottle,90,0431_rot_dnn_90_bottle_20_n03983396_3315.png,n03983396_3315.png,1.0,3.3177795,0.6969859,1.853181
convnext_large,1,432,NaN,airplane,airplane,90,0432_rot_dnn_90_airplane_20_n02690373_4024.png,n02690373_4024.png,1.0,7.4674597,0.47250617,4.9461794
convnext_large,1,433,NaN,elephant,elephant,270,0433_rot_dnn_270_elephant_20_n02504013_10301.png,n02504013_10301.png,1.0,6.143862,0.40693265,4.0566216
convnext_large,1,434,NaN,oven,oven,180,0434_rot_dnn_180_oven_20_n04111531_7067.png,n04111531_7067.png,1.0,9.190353,0.22303972,6.3408484
convnext_large,1,435,NaN,knife,knife,90,0435_rot_dnn_90_knife_20_n03041632_36834.png,n03041632_36834.png,1.0,9.392303,0.48771682,6.296494
convnext_large,1,436,NaN,car,car,90,0436_rot_dnn_90_car_20_n02814533_18148.png,n02814533_18148.png,1.0,4.5435953,0.86470616,2.6013677
convnext_large,1,437,NaN,cat,cat,90,0437_rot_dnn_90_cat_20_n02125311_41284.png,n02125311_41284.png,1.0,2.5410323,0.6417858,1.34297
convnext_large,1,438,NaN,bicycle,bicycle,0,0438_rot_dnn_0_bicycle_20_n02835271_18188.png,n02835271_18188.png,1.0,5.9166994,0.66052496,3.7166767
convnext_large,1,439,NaN,bottle,bottle,0,0439_rot_dnn_0_bottle_20_n04591713_2903.png,n04591713_2903.png,1.0,2.0452163,0.62143856,1.006763
convnext_large,1,440,NaN,knife,knife,0,0440_rot_dnn_0_knife_20_n03041632_54191.png,n03041632_54191.png,1.0,8.93035,0.7004971,5.8193855
convnext_large,1,441,NaN,truck,truck,180,0441_rot_dnn_180_truck_20_n03417042_8867.png,n03417042_8867.png,1.0,4.820137,2.180437,1.8665497
convnext_large,1,442,NaN,oven,oven,270,0442_rot_dnn_270_oven_20_n04111531_8421.png,n04111531_8421.png,1.0,6.5469923,2.571353,2.8112016
convnext_large,1,443,NaN,elephant,elephant,270,0443_rot_dnn_270_elephant_20_n02504013_4062.png,n02504013_4062.png,1.0,7.053062,0.28725663,4.784147
convnext_large,1,444,NaN,keyboard,keyboard,270,0444_rot_dnn_270_keyboard_20_n04505470_1649.png,n04505470_1649.png,1.0,4.6554613,0.31443867,3.0695665
convnext_large,1,445,NaN,airplane,boat,180,0445_rot_dnn_180_boat_20_n03344393_7967.png,n03344393_7967.png,0.0,2.2988744,4.0414786,-1.2322073
convnext_large,1,446,NaN,bicycle,bicycle,0,0446_rot_dnn_0_bicycle_20_n02835271_10265.png,n02835271_10265.png,1.0,4.8199897,0.62288195,2.9678035
convnext_large,1,447,NaN,bicycle,bicycle,180,0447_rot_dnn_180_bicycle_20_n02835271_6742.png,n02835271_6742.png,1.0,4.1194167,3.3306253,0.55775976
convnext_large,1,448,NaN,cat,cat,180,0448_rot_dnn_180_cat_20_n02123045_3168.png,n02123045_3168.png,1.0,4.069311,0.5290608,2.503335
convnext_large,1,449,NaN,car,car,180,0449_rot_dnn_180_car_20_n03100240_8489.png,n03100240_8489.png,1.0,4.7710686,2.6690612,1.4863437
convnext_large,1,450,NaN,oven,oven,270,0450_rot_dnn_270_oven_20_n04111531_1826.png,n04111531_1826.png,1.0,7.840418,1.4605646,4.5112376
convnext_large,1,451,NaN,dog,dog,180,0451_rot_dnn_180_dog_20_n02104365_1592.png,n02104365_1592.png,1.0,0.94450927,0.3242446,0.43859336
convnext_large,1,452,NaN,boat,boat,90,0452_rot_dnn_90_boat_20_n02951358_4343.png,n02951358_4343.png,1.0,1.932423,0.9685447,0.68156487
convnext_large,1,453,NaN,bottle,bottle,0,0453_rot_dnn_0_bottle_20_n02823428_4282.png,n02823428_4282.png,1.0,2.3858867,0.18543074,1.5559573
convnext_large,1,454,NaN,knife,bird,0,0454_rot_dnn_0_bird_20_n01817953_2043.png,n01817953_2043.png,0.0,0.19711271,0.3203741,-0.08715897
convnext_large,1,455,NaN,airplane,dog,0,0455_rot_dnn_0_dog_20_n02110958_14369.png,n02110958_14369.png,0.0,0.0466558,0.44684067,-0.28297344
convnext_large,1,456,NaN,knife,dog,270,0456_rot_dnn_270_dog_20_n02108000_1044.png,n02108000_1044.png,0.0,0.7067646,0.79950297,-0.06557594
convnext_large,1,457,NaN,dog,dog,270,0457_rot_dnn_270_dog_20_n02087394_1428.png,n02087394_1428.png,1.0,0.6937272,0.37074196,0.22838505
convnext_large,1,458,NaN,airplane,airplane,90,0458_rot_dnn_90_airplane_20_n02690373_2856.png,n02690373_2856.png,1.0,8.6409025,0.67310774,5.634082
convnext_large,1,459,NaN,chair,chair,0,0459_rot_dnn_0_chair_20_n03376595_19165.png,n03376595_19165.png,1.0,2.525788,0.51052547,1.4250059
convnext_large,1,460,NaN,chair,chair,270,0460_rot_dnn_270_chair_20_n04099969_42125.png,n04099969_42125.png,1.0,2.7107568,1.4033396,0.92448354
convnext_large,1,461,NaN,bottle,bottle,270,0461_rot_dnn_270_bottle_20_n02823428_12656.png,n02823428_12656.png,1.0,2.969606,0.6627598,1.6311866
convnext_large,1,462,NaN,bicycle,bicycle,180,0462_rot_dnn_180_bicycle_20_n02835271_5861.png,n02835271_5861.png,1.0,5.515774,1.1722363,3.0713449
convnext_large,1,463,NaN,airplane,airplane,90,0463_rot_dnn_90_airplane_20_n02690373_19345.png,n02690373_19345.png,1.0,7.3260355,0.7914222,4.6206694
convnext_large,1,464,NaN,clock,clock,90,0464_rot_dnn_90_clock_20_n02708093_8069.png,n02708093_8069.png,1.0,5.326756,0.25993612,3.5827825
convnext_large,1,465,NaN,chair,chair,270,0465_rot_dnn_270_chair_20_n04099969_16.png,n04099969_16.png,1.0,3.1349916,0.72672504,1.7029016
convnext_large,1,466,NaN,chair,dog,270,0466_rot_dnn_270_dog_20_n02104365_1756.png,n02104365_1756.png,0.0,0.4950223,0.8116057,-0.22385827
convnext_large,1,467,NaN,elephant,bird,270,0467_rot_dnn_270_bird_20_n01819313_17231.png,n01819313_17231.png,0.0,0.5787198,1.3587191,-0.5515428
convnext_large,1,468,NaN,car,car,90,0468_rot_dnn_90_car_20_n02814533_34149.png,n02814533_34149.png,1.0,5.63528,2.672316,2.095132
convnext_large,1,469,NaN,knife,knife,0,0469_rot_dnn_0_knife_20_n03041632_26053.png,n03041632_26053.png,1.0,8.765649,0.67118967,5.723647
convnext_large,1,470,NaN,oven,oven,0,0470_rot_dnn_0_oven_20_n04111531_11287.png,n04111531_11287.png,1.0,8.525358,0.6268041,5.585121
convnext_large,1,471,NaN,bottle,bottle,0,0471_rot_dnn_0_bottle_20_n03937543_11959.png,n03937543_11959.png,1.0,1.1103529,0.24229544,0.6138093
convnext_large,1,472,NaN,airplane,airplane,270,0472_rot_dnn_270_airplane_20_n02690373_1348.png,n02690373_1348.png,1.0,8.575227,0.42007908,5.76656
convnext_large,1,473,NaN,bear,bear,0,0473_rot_dnn_0_bear_20_n02132136_5175.png,n02132136_5175.png,1.0,4.26115,0.69143325,2.5241709
convnext_large,1,474,NaN,keyboard,keyboard,270,0474_rot_dnn_270_keyboard_20_n03085013_7382.png,n03085013_7382.png,1.0,7.0928655,0.53275204,4.638701
convnext_large,1,475,NaN,dog,dog,270,0475_rot_dnn_270_dog_20_n02109961_4280.png,n02109961_4280.png,1.0,1.4496293,0.17533782,0.90106016
convnext_large,1,476,NaN,truck,truck,90,0476_rot_dnn_90_truck_20_n03417042_1344.png,n03417042_1344.png,1.0,2.5633798,1.9181085,0.45627573
convnext_large,1,477,NaN,elephant,elephant,0,0477_rot_dnn_0_elephant_20_n02504013_9299.png,n02504013_9299.png,1.0,6.6604586,0.1986605,4.5691814
convnext_large,1,478,NaN,bear,bear,0,0478_rot_dnn_0_bear_20_n02134418_5527.png,n02134418_5527.png,1.0,3.667777,0.44688445,2.2775152
convnext_large,1,479,NaN,keyboard,keyboard,270,0479_rot_dnn_270_keyboard_20_n03085013_23109.png,n03085013_23109.png,1.0,4.5661826,0.41744125,2.933603
convnext_large,1,480,NaN,bear,bear,180,0480_rot_dnn_180_bear_20_n02133161_4393.png,n02133161_4393.png,1.0,3.1818252,0.6822082,1.7674962
convnext_large,1,481,NaN,oven,oven,0,0481_rot_dnn_0_oven_20_n04111531_73.png,n04111531_73.png,1.0,8.811647,1.1416887,5.42348
convnext_large,1,482,NaN,keyboard,keyboard,0,0482_rot_dnn_0_keyboard_20_n03085013_7613.png,n03085013_7613.png,1.0,5.1770477,0.902872,3.0222986
convnext_large,1,483,NaN,oven,oven,180,0483_rot_dnn_180_oven_20_n04111531_2795.png,n04111531_2795.png,1.0,8.876702,1.1877351,5.436921
convnext_large,1,484,NaN,oven,oven,0,0484_rot_dnn_0_oven_20_n04111531_22517.png,n04111531_22517.png,1.0,8.47938,0.540803,5.6134214
convnext_large,1,485,NaN,elephant,elephant,90,0485_rot_dnn_90_elephant_20_n02504458_2613.png,n02504458_2613.png,1.0,7.401162,0.3158486,5.0100737
convnext_large,1,486,NaN,oven,oven,180,0486_rot_dnn_180_oven_20_n04111531_9176.png,n04111531_9176.png,1.0,8.467891,2.1697636,4.4534483
convnext_large,1,487,NaN,bottle,bottle,180,0487_rot_dnn_180_bottle_20_n04557648_5790.png,n04557648_5790.png,1.0,3.0446227,0.36413702,1.8953897
convnext_large,1,488,NaN,truck,truck,90,0488_rot_dnn_90_truck_20_n04467665_9812.png,n04467665_9812.png,1.0,3.2660067,1.4906224,1.2553864
convnext_large,1,489,NaN,bottle,bottle,0,0489_rot_dnn_0_bottle_20_n04591713_7476.png,n04591713_7476.png,1.0,5.1282077,0.09505285,3.558978
convnext_large,1,490,NaN,elephant,elephant,90,0490_rot_dnn_90_elephant_20_n02504458_1567.png,n02504458_1567.png,1.0,6.1786914,0.22693245,4.208529
convnext_large,1,491,NaN,clock,clock,90,0491_rot_dnn_90_clock_20_n04548280_6865.png,n04548280_6865.png,1.0,5.4737153,1.8806738,2.540664
convnext_large,1,492,NaN,bottle,bottle,180,0492_rot_dnn_180_bottle_20_n02823428_3.png,n02823428_3.png,1.0,3.3812904,0.5196086,2.0235147
convnext_large,1,493,NaN,boat,boat,90,0493_rot_dnn_90_boat_20_n04273569_8951.png,n04273569_8951.png,1.0,3.5382342,0.6099299,2.0706239
convnext_large,1,494,NaN,knife,knife,180,0494_rot_dnn_180_knife_20_n03041632_53874.png,n03041632_53874.png,1.0,8.372392,0.0797652,5.8637724
convnext_large,1,495,NaN,clock,clock,0,0495_rot_dnn_0_clock_20_n04548280_6126.png,n04548280_6126.png,1.0,5.044891,0.12689026,3.4775517
convnext_large,1,496,NaN,cat,cat,180,0496_rot_dnn_180_cat_20_n02123597_6186.png,n02123597_6186.png,1.0,2.9057,0.91511524,1.4075559
convnext_large,1,497,NaN,cat,cat,270,0497_rot_dnn_270_cat_20_n02124075_14662.png,n02124075_14662.png,1.0,4.0833554,0.96773124,2.203079
convnext_large,1,498,NaN,car,car,90,0498_rot_dnn_90_car_20_n04285008_8677.png,n04285008_8677.png,1.0,5.2096786,0.8283234,3.098086
convnext_large,1,499,NaN,bird,bird,90,0499_rot_dnn_90_bird_20_n01820546_2568.png,n01820546_2568.png,1.0,1.7856964,1.3012187,0.34257743
convnext_large,1,500,NaN,clock,clock,90,0500_rot_dnn_90_clock_20_n04548280_7354.png,n04548280_7354.png,1.0,4.7557836,2.514566,1.5847802
convnext_large,1,501,NaN,bicycle,bicycle,270,0501_rot_dnn_270_bicycle_20_n03792782_586.png,n03792782_586.png,1.0,6.5315022,0.51092786,4.2571893
convnext_large,1,502,NaN,bear,bear,0,0502_rot_dnn_0_bear_20_n02134084_572.png,n02134084_572.png,1.0,3.6096418,0.6570481,2.087799
convnext_large,1,503,NaN,bicycle,bicycle,270,0503_rot_dnn_270_bicycle_20_n03792782_3388.png,n03792782_3388.png,1.0,6.8545246,1.4540013,3.8187466
convnext_large,1,504,NaN,bicycle,bicycle,270,0504_rot_dnn_270_bicycle_20_n03792782_28970.png,n03792782_28970.png,1.0,6.6385603,0.50075704,4.340082
convnext_large,1,505,NaN,bottle,bottle,270,0505_rot_dnn_270_bottle_20_n04560804_11386.png,n04560804_11386.png,1.0,3.2634199,2.4453106,0.5784906
convnext_large,1,506,NaN,chair,chair,180,0506_rot_dnn_180_chair_20_n03376595_6799.png,n03376595_6799.png,1.0,3.138797,0.6235136,1.7785741
convnext_large,1,507,NaN,cat,dog,270,0507_rot_dnn_270_dog_20_n02094258_6398.png,n02094258_6398.png,0.0,0.6145164,1.1407088,-0.37207425
convnext_large,1,508,NaN,airplane,bird,0,0508_rot_dnn_0_bird_20_n01592084_2639.png,n01592084_2639.png,0.0,0.36654925,0.5168751,-0.10629642
convnext_large,1,509,NaN,bird,bird,180,0509_rot_dnn_180_bird_20_n02017213_4781.png,n02017213_4781.png,1.0,1.3605031,1.0075816,0.24955317
convnext_large,1,510,NaN,airplane,airplane,270,0510_rot_dnn_270_airplane_20_n02690373_3818.png,n02690373_3818.png,1.0,4.274485,4.0504813,0.1583946
convnext_large,1,511,NaN,bicycle,bicycle,90,0511_rot_dnn_90_bicycle_20_n03792782_26383.png,n03792782_26383.png,1.0,6.911862,1.0269638,4.1612515
convnext_large,1,512,NaN,oven,oven,90,0512_rot_dnn_90_oven_20_n04111531_5216.png,n04111531_5216.png,1.0,8.412487,0.5891353,5.531945
convnext_large,1,513,NaN,airplane,airplane,180,0513_rot_dnn_180_airplane_20_n02690373_20331.png,n02690373_20331.png,1.0,9.035552,0.35555565,6.1376843
convnext_large,1,514,NaN,truck,truck,180,0514_rot_dnn_180_truck_20_n04467665_23691.png,n04467665_23691.png,1.0,2.5437632,1.9888145,0.39240798
convnext_large,1,515,NaN,boat,bird,0,0515_rot_dnn_0_bird_20_n02009229_492.png,n02009229_492.png,0.0,0.3621914,0.94927156,-0.41512835
convnext_large,1,516,NaN,chair,bird,90,0516_rot_dnn_90_bird_20_n02002556_5890.png,n02002556_5890.png,0.0,0.17989305,0.35390648,-0.123046085
convnext_large,1,517,NaN,elephant,bird,270,0517_rot_dnn_270_bird_20_n01855032_5358.png,n01855032_5358.png,0.0,0.71061003,0.7322018,-0.015267696
convnext_large,1,518,NaN,cat,dog,180,0518_rot_dnn_180_dog_20_n02112350_10026.png,n02112350_10026.png,0.0,0.121987656,1.2493114,-0.7971383
convnext_large,1,519,NaN,knife,knife,90,0519_rot_dnn_90_knife_20_n03041632_11773.png,n03041632_11773.png,1.0,9.114565,0.68662506,5.959453
convnext_large,1,520,NaN,elephant,elephant,0,0520_rot_dnn_0_elephant_20_n02504013_20486.png,n02504013_20486.png,1.0,6.519949,0.44662195,4.294491
convnext_large,1,521,NaN,oven,oven,0,0521_rot_dnn_0_oven_20_n04111531_27.png,n04111531_27.png,1.0,8.326259,0.904197,5.2481904
convnext_large,1,522,NaN,boat,bird,180,0522_rot_dnn_180_bird_20_n01855672_15421.png,n01855672_15421.png,0.0,1.2877245,1.3028458,-0.010692403
convnext_large,1,523,NaN,bear,bear,270,0523_rot_dnn_270_bear_20_n02132136_239.png,n02132136_239.png,1.0,3.9154289,0.30676267,2.5517123
convnext_large,1,524,NaN,keyboard,keyboard,90,0524_rot_dnn_90_keyboard_20_n03085013_25924.png,n03085013_25924.png,1.0,6.820596,0.57214504,4.418322
convnext_large,1,525,NaN,bicycle,bicycle,180,0525_rot_dnn_180_bicycle_20_n03792782_6030.png,n03792782_6030.png,1.0,6.0314083,0.2918924,4.0584507
convnext_large,1,526,NaN,bottle,bottle,270,0526_rot_dnn_270_bottle_20_n03983396_5497.png,n03983396_5497.png,1.0,4.033371,2.5346465,1.0597583
convnext_large,1,527,NaN,chair,chair,180,0527_rot_dnn_180_chair_20_n04429376_6390.png,n04429376_6390.png,1.0,2.4633205,0.70795035,1.2412342
convnext_large,1,528,NaN,dog,dog,90,0528_rot_dnn_90_dog_20_n02100877_11159.png,n02100877_11159.png,1.0,0.6708307,0.32395166,0.24528055
convnext_large,1,529,NaN,bottle,bottle,180,0529_rot_dnn_180_bottle_20_n04579145_579.png,n04579145_579.png,1.0,2.1647525,0.654603,1.067837
convnext_large,1,530,NaN,cat,cat,90,0530_rot_dnn_90_cat_20_n02123159_5678.png,n02123159_5678.png,1.0,2.0662885,0.4643044,1.1327738
convnext_large,1,531,NaN,elephant,elephant,180,0531_rot_dnn_180_elephant_20_n02504013_13283.png,n02504013_13283.png,1.0,5.3112354,1.655848,2.5847492
convnext_large,1,532,NaN,bear,dog,90,0532_rot_dnn_90_dog_20_n02095570_7633.png,n02095570_7633.png,0.0,0.6579727,1.7021558,-0.73834896
convnext_large,1,533,NaN,clock,clock,180,0533_rot_dnn_180_clock_20_n02708093_8311.png,n02708093_8311.png,1.0,5.2152195,0.7582854,3.1515284
convnext_large,1,534,NaN,chair,chair,270,0534_rot_dnn_270_chair_20_n03376595_426.png,n03376595_426.png,1.0,3.3674405,0.61491174,1.9463317
convnext_large,1,535,NaN,bicycle,dog,180,0535_rot_dnn_180_dog_20_n02100877_3112.png,n02100877_3112.png,0.0,1.2325654,3.5668306,-1.6505748
convnext_large,1,536,NaN,car,car,270,0536_rot_dnn_270_car_20_n02814533_458.png,n02814533_458.png,1.0,6.6657214,2.0660567,3.252454
convnext_large,1,537,NaN,airplane,bird,0,0537_rot_dnn_0_bird_20_n02006656_5079.png,n02006656_5079.png,0.0,0.40411007,0.49407244,-0.063613
convnext_large,1,538,NaN,boat,boat,90,0538_rot_dnn_90_boat_20_n04273569_12725.png,n04273569_12725.png,1.0,4.02446,2.0380943,1.4045726
convnext_large,1,539,NaN,cat,cat,270,0539_rot_dnn_270_cat_20_n02123045_6677.png,n02123045_6677.png,1.0,4.3001947,0.43175668,2.7353988
convnext_large,1,540,NaN,bicycle,bicycle,270,0540_rot_dnn_270_bicycle_20_n02835271_4440.png,n02835271_4440.png,1.0,6.808813,0.33542594,4.577376
convnext_large,1,541,NaN,keyboard,keyboard,270,0541_rot_dnn_270_keyboard_20_n03085013_21444.png,n03085013_21444.png,1.0,6.6057234,0.4929796,4.322363
convnext_large,1,542,NaN,clock,clock,180,0542_rot_dnn_180_clock_20_n02708093_8255.png,n02708093_8255.png,1.0,4.1215854,1.0101461,2.2001197
convnext_large,1,543,NaN,bicycle,bicycle,0,0543_rot_dnn_0_bicycle_20_n02835271_30318.png,n02835271_30318.png,1.0,6.5245724,0.57460517,4.2072625
convnext_large,1,544,NaN,cat,cat,180,0544_rot_dnn_180_cat_20_n02123394_2059.png,n02123394_2059.png,1.0,2.4517028,0.82780486,1.1482693
convnext_large,1,545,NaN,elephant,elephant,180,0545_rot_dnn_180_elephant_20_n02504013_6618.png,n02504013_6618.png,1.0,6.6287785,1.0250721,3.9624188
convnext_large,1,546,NaN,cat,cat,270,0546_rot_dnn_270_cat_20_n02124075_8889.png,n02124075_8889.png,1.0,4.3563766,0.81455964,2.504443
convnext_large,1,547,NaN,cat,dog,90,0547_rot_dnn_90_dog_20_n02100877_7302.png,n02100877_7302.png,0.0,1.0278847,1.9375678,-0.64324313
convnext_large,1,548,NaN,car,car,180,0548_rot_dnn_180_car_20_n02814533_85971.png,n02814533_85971.png,1.0,5.3781657,1.8287746,2.5097988
convnext_large,1,549,NaN,chair,chair,0,0549_rot_dnn_0_chair_20_n03376595_5909.png,n03376595_5909.png,1.0,2.5840337,0.90544546,1.1869411
convnext_large,1,550,NaN,keyboard,keyboard,270,0550_rot_dnn_270_keyboard_20_n03085013_13083.png,n03085013_13083.png,1.0,7.5384097,0.53845435,4.949716
convnext_large,1,551,NaN,oven,oven,90,0551_rot_dnn_90_oven_20_n04111531_9611.png,n04111531_9611.png,1.0,8.370853,1.1629028,5.096791
convnext_large,1,552,NaN,boat,boat,0,0552_rot_dnn_0_boat_20_n02951358_13996.png,n02951358_13996.png,1.0,1.8191862,0.2612673,1.1016151
convnext_large,1,553,NaN,boat,boat,0,0553_rot_dnn_0_boat_20_n03344393_9251.png,n03344393_9251.png,1.0,3.0485694,0.40742528,1.8675711
convnext_large,1,554,NaN,airplane,airplane,180,0554_rot_dnn_180_airplane_20_n02690373_9175.png,n02690373_9175.png,1.0,4.7746916,1.2901378,2.4639516
convnext_large,1,555,NaN,bear,bear,0,0555_rot_dnn_0_bear_20_n02132136_2791.png,n02132136_2791.png,1.0,5.783779,0.86018425,3.4815075
convnext_large,1,556,NaN,elephant,elephant,180,0556_rot_dnn_180_elephant_20_n02504458_193.png,n02504458_193.png,1.0,5.8810086,0.66746,3.6865356
convnext_large,1,557,NaN,knife,bird,270,0557_rot_dnn_270_bird_20_n01843383_9985.png,n01843383_9985.png,0.0,0.41337335,1.0277469,-0.4344277
convnext_large,1,558,NaN,bird,bird,270,0558_rot_dnn_270_bird_20_n02028035_10744.png,n02028035_10744.png,1.0,0.7951675,0.79141766,0.0026515427
convnext_large,1,559,NaN,truck,truck,270,0559_rot_dnn_270_truck_20_n04467665_3720.png,n04467665_3720.png,1.0,3.856047,1.0544091,1.981057
convnext_large,1,560,NaN,car,car,0,0560_rot_dnn_0_car_20_n02814533_52605.png,n02814533_52605.png,1.0,3.8657334,3.4193466,0.31564316
convnext_large,1,561,NaN,clock,clock,90,0561_rot_dnn_90_clock_20_n04548280_5631.png,n04548280_5631.png,1.0,5.502384,0.1987064,3.7502663
convnext_large,1,562,NaN,oven,oven,0,0562_rot_dnn_0_oven_20_n04111531_1922.png,n04111531_1922.png,1.0,8.502538,1.1036865,5.231778
convnext_large,1,563,NaN,airplane,boat,180,0563_rot_dnn_180_boat_20_n03662601_1197.png,n03662601_1197.png,0.0,0.9178864,1.0451266,-0.0899724
convnext_large,1,564,NaN,clock,clock,270,0564_rot_dnn_270_clock_20_n02708093_1862.png,n02708093_1862.png,1.0,5.5270677,1.0083951,3.195184
convnext_large,1,565,NaN,truck,truck,180,0565_rot_dnn_180_truck_20_n03796401_4582.png,n03796401_4582.png,1.0,2.9098282,0.25476253,1.8774148
convnext_large,1,566,NaN,elephant,elephant,90,0566_rot_dnn_90_elephant_20_n02504013_565.png,n02504013_565.png,1.0,6.606732,0.7314831,4.1544285
convnext_large,1,567,NaN,truck,truck,180,0567_rot_dnn_180_truck_20_n04467665_49826.png,n04467665_49826.png,1.0,3.6722775,2.7310305,0.66556215
convnext_large,1,568,NaN,bottle,bear,270,0568_rot_dnn_270_bear_20_n02134418_5067.png,n02134418_5067.png,0.0,1.772563,2.036169,-0.18639764
convnext_large,1,569,NaN,knife,chair,90,0569_rot_dnn_90_chair_20_n04429376_29223.png,n04429376_29223.png,0.0,1.7688031,2.8268924,-0.7481821
convnext_large,1,570,NaN,airplane,airplane,270,0570_rot_dnn_270_airplane_20_n02690373_5909.png,n02690373_5909.png,1.0,8.203981,0.42909184,5.4976773
convnext_large,1,571,NaN,truck,dog,270,0571_rot_dnn_270_dog_20_n02097658_722.png,n02097658_722.png,0.0,0.84757364,2.6410875,-1.2682059
convnext_large,1,572,NaN,oven,oven,0,0572_rot_dnn_0_oven_20_n04111531_10339.png,n04111531_10339.png,1.0,8.786095,0.5677352,5.8112574
convnext_large,1,573,NaN,truck,truck,90,0573_rot_dnn_90_truck_20_n03417042_28078.png,n03417042_28078.png,1.0,3.4686902,0.7549771,1.918885
convnext_large,1,574,NaN,chair,chair,180,0574_rot_dnn_180_chair_20_n04099969_22118.png,n04099969_22118.png,1.0,2.5944703,1.3010334,0.914598
convnext_large,1,575,NaN,clock,clock,270,0575_rot_dnn_270_clock_20_n04548280_7978.png,n04548280_7978.png,1.0,4.6655774,0.33722964,3.060604
convnext_large,1,576,NaN,bear,bear,180,0576_rot_dnn_180_bear_20_n02133161_1962.png,n02133161_1962.png,1.0,4.029165,2.0053744,1.4310359
convnext_large,1,577,NaN,knife,clock,180,0577_rot_dnn_180_clock_20_n04548280_13750.png,n04548280_13750.png,0.0,0.2717551,0.8826621,-0.4319765
convnext_large,1,578,NaN,keyboard,keyboard,0,0578_rot_dnn_0_keyboard_20_n03085013_15249.png,n03085013_15249.png,1.0,7.2442603,0.67890304,4.642409
convnext_large,1,579,NaN,car,car,90,0579_rot_dnn_90_car_20_n02814533_479.png,n02814533_479.png,1.0,5.4857903,2.3868752,2.191264
convnext_large,1,580,NaN,keyboard,keyboard,270,0580_rot_dnn_270_keyboard_20_n03085013_20716.png,n03085013_20716.png,1.0,6.6811047,1.2210528,3.8608398
convnext_large,1,581,NaN,airplane,bird,180,0581_rot_dnn_180_bird_20_n01530575_7990.png,n01530575_7990.png,0.0,0.41011834,0.7026659,-0.20686239
convnext_large,1,582,NaN,chair,chair,0,0582_rot_dnn_0_chair_20_n04429376_17343.png,n04429376_17343.png,1.0,2.4622498,0.4733313,1.4063777
convnext_large,1,583,NaN,chair,chair,90,0583_rot_dnn_90_chair_20_n02791124_8775.png,n02791124_8775.png,1.0,3.0197902,0.52627045,1.7631848
convnext_large,1,584,NaN,cat,cat,90,0584_rot_dnn_90_cat_20_n02125311_2959.png,n02125311_2959.png,1.0,1.7501206,0.32331127,1.0089066
convnext_large,1,585,NaN,oven,oven,180,0585_rot_dnn_180_oven_20_n04111531_13906.png,n04111531_13906.png,1.0,7.164731,1.1177238,4.27588
convnext_large,1,586,NaN,airplane,airplane,90,0586_rot_dnn_90_airplane_20_n02690373_7293.png,n02690373_7293.png,1.0,7.596487,0.76001334,4.834117
convnext_large,1,587,NaN,chair,chair,180,0587_rot_dnn_180_chair_20_n04099969_10825.png,n04099969_10825.png,1.0,3.4963098,0.5488991,2.084134
convnext_large,1,588,NaN,airplane,airplane,180,0588_rot_dnn_180_airplane_20_n02690373_17044.png,n02690373_17044.png,1.0,8.774731,0.4489491,5.887217
convnext_large,1,589,NaN,clock,bird,0,0589_rot_dnn_0_bird_20_n01797886_6169.png,n01797886_6169.png,0.0,0.2078097,0.37500525,-0.118225105
convnext_large,1,590,NaN,airplane,oven,0,0590_rot_dnn_0_oven_20_n04111531_13255.png,n04111531_13255.png,0.0,2.6983044,2.976099,-0.19643044
convnext_large,1,591,NaN,knife,knife,270,0591_rot_dnn_270_knife_20_n03041632_17820.png,n03041632_17820.png,1.0,8.13336,1.1362449,4.9477077
convnext_large,1,592,NaN,bicycle,bicycle,270,0592_rot_dnn_270_bicycle_20_n02835271_21640.png,n02835271_21640.png,1.0,6.6837034,0.17738225,4.6006637
convnext_large,1,593,NaN,bear,bear,0,0593_rot_dnn_0_bear_20_n02134418_517.png,n02134418_517.png,1.0,3.351193,0.40117347,2.0859787
convnext_large,1,594,NaN,airplane,airplane,180,0594_rot_dnn_180_airplane_20_n02690373_4588.png,n02690373_4588.png,1.0,8.649376,0.35327917,5.866226
convnext_large,1,595,NaN,bottle,bottle,270,0595_rot_dnn_270_bottle_20_n02823428_12190.png,n02823428_12190.png,1.0,2.5909145,1.4097432,0.83521426
convnext_large,1,596,NaN,bottle,bottle,0,0596_rot_dnn_0_bottle_20_n04591713_1717.png,n04591713_1717.png,1.0,3.1666827,0.44759604,1.9226847
convnext_large,1,597,NaN,knife,knife,0,0597_rot_dnn_0_knife_20_n03041632_9488.png,n03041632_9488.png,1.0,8.931863,0.2552916,6.135262
convnext_large,1,598,NaN,truck,truck,90,0598_rot_dnn_90_truck_20_n03417042_11166.png,n03417042_11166.png,1.0,2.343323,1.1548651,0.8403666
convnext_large,1,599,NaN,elephant,elephant,90,0599_rot_dnn_90_elephant_20_n02504458_585.png,n02504458_585.png,1.0,6.135896,0.46519798,4.009789
convnext_large,1,600,NaN,keyboard,keyboard,0,0600_rot_dnn_0_keyboard_20_n04505470_5046.png,n04505470_5046.png,1.0,5.2296906,2.933885,1.6233796
convnext_large,1,601,NaN,chair,chair,180,0601_rot_dnn_180_chair_20_n03376595_4937.png,n03376595_4937.png,1.0,1.3654395,1.1998264,0.1171062
convnext_large,1,602,NaN,airplane,boat,180,0602_rot_dnn_180_boat_20_n03662601_1740.png,n03662601_1740.png,0.0,0.7073845,2.6586957,-1.3797853
convnext_large,1,603,NaN,knife,knife,0,0603_rot_dnn_0_knife_20_n03041632_4037.png,n03041632_4037.png,1.0,8.925408,0.37685403,6.0447407
convnext_large,1,604,NaN,car,boat,0,0604_rot_dnn_0_boat_20_n04273569_1538.png,n04273569_1538.png,0.0,1.7943804,3.072376,-0.9036794
convnext_large,1,605,NaN,bird,bird,0,0605_rot_dnn_0_bird_20_n02017213_15918.png,n02017213_15918.png,1.0,0.84596205,0.3947947,0.3190235
convnext_large,1,606,NaN,keyboard,keyboard,0,0606_rot_dnn_0_keyboard_20_n03085013_10463.png,n03085013_10463.png,1.0,7.4263296,0.43147755,4.9461074
convnext_large,1,607,NaN,bear,bear,270,0607_rot_dnn_270_bear_20_n02133161_7939.png,n02133161_7939.png,1.0,3.5150764,0.56425345,2.086547
convnext_large,1,608,NaN,car,car,270,0608_rot_dnn_270_car_20_n04285008_11704.png,n04285008_11704.png,1.0,5.7376094,1.3832172,3.0790203
convnext_large,1,609,NaN,truck,truck,90,0609_rot_dnn_90_truck_20_n03796401_16046.png,n03796401_16046.png,1.0,3.6675715,2.432686,0.8731959
convnext_large,1,610,NaN,chair,chair,270,0610_rot_dnn_270_chair_20_n02791124_3710.png,n02791124_3710.png,1.0,2.6502793,0.6102507,1.4425181
convnext_large,1,611,NaN,keyboard,keyboard,180,0611_rot_dnn_180_keyboard_20_n04505470_3566.png,n04505470_3566.png,1.0,5.42689,0.6826488,3.3546853
convnext_large,1,612,NaN,boat,bird,90,0612_rot_dnn_90_bird_20_n02037110_8716.png,n02037110_8716.png,0.0,0.6477396,1.924642,-0.90290636
convnext_large,1,613,NaN,car,car,0,0613_rot_dnn_0_car_20_n03100240_19550.png,n03100240_19550.png,1.0,4.872574,1.1198419,2.653582
convnext_large,1,614,NaN,airplane,airplane,270,0614_rot_dnn_270_airplane_20_n02690373_10769.png,n02690373_10769.png,1.0,7.9445596,0.19203691,5.481861
convnext_large,1,615,NaN,bicycle,bicycle,0,0615_rot_dnn_0_bicycle_20_n03792782_3456.png,n03792782_3456.png,1.0,6.6004333,0.6169638,4.230952
convnext_large,1,616,NaN,chair,chair,0,0616_rot_dnn_0_chair_20_n03376595_2368.png,n03376595_2368.png,1.0,3.4738526,1.0674089,1.7016126
convnext_large,1,617,NaN,car,dog,0,0617_rot_dnn_0_dog_20_n02091467_2974.png,n02091467_2974.png,0.0,0.026141658,0.36360613,-0.23862341
convnext_large,1,618,NaN,knife,knife,180,0618_rot_dnn_180_knife_20_n03041632_43634.png,n03041632_43634.png,1.0,7.873512,0.80761063,4.996347
convnext_large,1,619,NaN,keyboard,keyboard,180,0619_rot_dnn_180_keyboard_20_n04505470_4477.png,n04505470_4477.png,1.0,5.8410544,2.316159,2.4924774
convnext_large,1,620,NaN,boat,boat,90,0620_rot_dnn_90_boat_20_n03344393_4773.png,n03344393_4773.png,1.0,3.4394364,0.45467362,2.110546
convnext_large,1,621,NaN,airplane,airplane,180,0621_rot_dnn_180_airplane_20_n02690373_139.png,n02690373_139.png,1.0,7.9056215,1.1732287,4.7605205
convnext_large,1,622,NaN,knife,knife,270,0622_rot_dnn_270_knife_20_n03041632_737.png,n03041632_737.png,1.0,6.7518167,1.574992,3.6605678
convnext_large,1,623,NaN,chair,chair,270,0623_rot_dnn_270_chair_20_n02791124_2698.png,n02791124_2698.png,1.0,3.6333385,1.0128046,1.8529973
convnext_large,1,624,NaN,truck,truck,270,0624_rot_dnn_270_truck_20_n03417042_5301.png,n03417042_5301.png,1.0,3.6934872,1.4659668,1.5750948
convnext_large,1,625,NaN,bird,bird,0,0625_rot_dnn_0_bird_20_n02006656_5757.png,n02006656_5757.png,1.0,0.41863704,0.09932029,0.22579104
convnext_large,1,626,NaN,bear,bear,270,0626_rot_dnn_270_bear_20_n02132136_15174.png,n02132136_15174.png,1.0,3.2103505,3.179862,0.02155862
convnext_large,1,627,NaN,bottle,bottle,270,0627_rot_dnn_270_bottle_20_n04560804_6329.png,n04560804_6329.png,1.0,1.6676134,1.2113552,0.32262325
convnext_large,1,628,NaN,truck,truck,0,0628_rot_dnn_0_truck_20_n03417042_22196.png,n03417042_22196.png,1.0,3.1370006,0.62573844,1.7757305
convnext_large,1,629,NaN,cat,cat,0,0629_rot_dnn_0_cat_20_n02125311_18366.png,n02125311_18366.png,1.0,2.1459024,0.26542506,1.3296983
convnext_large,1,630,NaN,chair,chair,0,0630_rot_dnn_0_chair_20_n02791124_12707.png,n02791124_12707.png,1.0,2.8750908,0.110351846,1.9549657
convnext_large,1,631,NaN,oven,oven,180,0631_rot_dnn_180_oven_20_n04111531_1938.png,n04111531_1938.png,1.0,9.439894,0.7817672,6.1222205
convnext_large,1,632,NaN,airplane,airplane,270,0632_rot_dnn_270_airplane_20_n02690373_9346.png,n02690373_9346.png,1.0,6.881299,1.6956489,3.6668084
convnext_large,1,633,NaN,cat,cat,0,0633_rot_dnn_0_cat_20_n02123045_10433.png,n02123045_10433.png,1.0,2.9875717,1.0531048,1.3678747
convnext_large,1,634,NaN,airplane,airplane,180,0634_rot_dnn_180_airplane_20_n02690373_5055.png,n02690373_5055.png,1.0,8.133095,0.5538585,5.359329
convnext_large,1,635,NaN,clock,clock,270,0635_rot_dnn_270_clock_20_n04548280_4198.png,n04548280_4198.png,1.0,4.5926957,0.8223174,2.6660602
convnext_large,1,636,NaN,bicycle,bicycle,90,0636_rot_dnn_90_bicycle_20_n03792782_12010.png,n03792782_12010.png,1.0,6.595727,0.118951984,4.5797715
convnext_large,1,637,NaN,cat,cat,180,0637_rot_dnn_180_cat_20_n02125311_24586.png,n02125311_24586.png,1.0,3.713124,1.6310036,1.4722815
convnext_large,1,638,NaN,chair,chair,0,0638_rot_dnn_0_chair_20_n02791124_3220.png,n02791124_3220.png,1.0,2.8164725,0.30807853,1.7737024
convnext_large,1,639,NaN,car,car,90,0639_rot_dnn_90_car_20_n04285008_12737.png,n04285008_12737.png,1.0,6.250632,1.663214,3.2437942
convnext_large,1,640,NaN,chair,chair,180,0640_rot_dnn_180_chair_20_n04429376_4296.png,n04429376_4296.png,1.0,1.5885023,1.4810877,0.075953595
convnext_large,1,641,NaN,airplane,airplane,90,0641_rot_dnn_90_airplane_20_n02690373_5534.png,n02690373_5534.png,1.0,8.776709,0.31753516,5.981539
convnext_large,1,642,NaN,cat,dog,180,0642_rot_dnn_180_dog_20_n02113978_2286.png,n02113978_2286.png,0.0,0.28884768,0.6834979,-0.27905986
convnext_large,1,643,NaN,dog,dog,0,0643_rot_dnn_0_dog_20_n02087394_3354.png,n02087394_3354.png,1.0,0.43876985,0.29659137,0.10053536
convnext_large,1,644,NaN,chair,chair,180,0644_rot_dnn_180_chair_20_n03376595_2103.png,n03376595_2103.png,1.0,2.1730263,1.3324354,0.5943876
convnext_large,1,645,NaN,elephant,elephant,0,0645_rot_dnn_0_elephant_20_n02504458_5181.png,n02504458_5181.png,1.0,6.910104,0.46451026,4.557723
convnext_large,1,646,NaN,oven,chair,270,0646_rot_dnn_270_chair_20_n02791124_10287.png,n02791124_10287.png,0.0,0.56610125,0.8856057,-0.22592376
convnext_large,1,647,NaN,oven,oven,90,0647_rot_dnn_90_oven_20_n04111531_22291.png,n04111531_22291.png,1.0,3.486063,0.88248366,1.8410085
convnext_large,1,648,NaN,bottle,bottle,90,0648_rot_dnn_90_bottle_20_n03937543_4399.png,n03937543_4399.png,1.0,2.4357612,0.23994195,1.5526788
convnext_large,1,649,NaN,chair,truck,90,0649_rot_dnn_90_truck_20_n03796401_13226.png,n03796401_13226.png,0.0,1.3850602,1.5215487,-0.09651198
convnext_large,1,650,NaN,airplane,airplane,270,0650_rot_dnn_270_airplane_20_n02690373_5430.png,n02690373_5430.png,1.0,8.711164,0.4631233,5.832246
convnext_large,1,651,NaN,cat,cat,90,0651_rot_dnn_90_cat_20_n02124075_20.png,n02124075_20.png,1.0,4.0156503,0.27058285,2.6481626
convnext_large,1,652,NaN,keyboard,keyboard,90,0652_rot_dnn_90_keyboard_20_n04505470_4943.png,n04505470_4943.png,1.0,5.305525,0.48027897,3.4119642
convnext_large,1,653,NaN,car,car,180,0653_rot_dnn_180_car_20_n03100240_4288.png,n03100240_4288.png,1.0,4.9258513,1.5586224,2.3809905
convnext_large,1,654,NaN,keyboard,dog,0,0654_rot_dnn_0_dog_20_n02109525_7478.png,n02109525_7478.png,0.0,0.16552801,0.78675467,-0.4392736
convnext_large,1,655,NaN,bicycle,bicycle,0,0655_rot_dnn_0_bicycle_20_n03792782_4895.png,n03792782_4895.png,1.0,5.8735185,0.56218636,3.7556791
convnext_large,1,656,NaN,oven,oven,0,0656_rot_dnn_0_oven_20_n04111531_8077.png,n04111531_8077.png,1.0,8.8327675,1.6726665,5.062956
convnext_large,1,657,NaN,airplane,airplane,90,0657_rot_dnn_90_airplane_20_n02690373_4845.png,n02690373_4845.png,1.0,7.993246,0.21357557,5.501058
convnext_large,1,658,NaN,cat,cat,90,0658_rot_dnn_90_cat_20_n02125311_59332.png,n02125311_59332.png,1.0,2.6147156,0.68229,1.3664312
convnext_large,1,659,NaN,bicycle,bicycle,180,0659_rot_dnn_180_bicycle_20_n02835271_24.png,n02835271_24.png,1.0,6.6191525,0.56121844,4.2836065
convnext_large,1,660,NaN,truck,truck,180,0660_rot_dnn_180_truck_20_n04467665_22637.png,n04467665_22637.png,1.0,1.4538568,1.2479537,0.14559554
convnext_large,1,661,NaN,elephant,dog,180,0661_rot_dnn_180_dog_20_n02101006_6694.png,n02101006_6694.png,0.0,0.87923616,1.5393353,-0.46676055
convnext_large,1,662,NaN,truck,car,0,0662_rot_dnn_0_car_20_n02814533_37256.png,n02814533_37256.png,0.0,2.4906807,2.5885727,-0.06922013
convnext_large,1,663,NaN,bear,bear,0,0663_rot_dnn_0_bear_20_n02134418_132.png,n02134418_132.png,1.0,2.721966,0.46679324,1.594648
convnext_large,1,664,NaN,knife,knife,180,0664_rot_dnn_180_knife_20_n03041632_41310.png,n03041632_41310.png,1.0,8.93248,0.67863494,5.83635
convnext_large,1,665,NaN,bird,bird,0,0665_rot_dnn_0_bird_20_n01530575_3198.png,n01530575_3198.png,1.0,0.595352,0.2849961,0.21945477
convnext_large,1,666,NaN,bicycle,bicycle,180,0666_rot_dnn_180_bicycle_20_n02835271_3643.png,n02835271_3643.png,1.0,7.260943,0.58342177,4.7217207
convnext_large,1,667,NaN,oven,chair,180,0667_rot_dnn_180_chair_20_n02791124_3186.png,n02791124_3186.png,0.0,1.243294,2.8896127,-1.1641232
convnext_large,1,668,NaN,chair,chair,270,0668_rot_dnn_270_chair_20_n04099969_5396.png,n04099969_5396.png,1.0,3.1576269,1.8876926,0.89797914
convnext_large,1,669,NaN,dog,dog,0,0669_rot_dnn_0_dog_20_n02110806_749.png,n02110806_749.png,1.0,0.57065815,0.41820458,0.10780095
convnext_large,1,670,NaN,car,car,180,0670_rot_dnn_180_car_20_n04285008_7155.png,n04285008_7155.png,1.0,4.3618646,1.6393223,1.9251281
convnext_large,1,671,NaN,airplane,airplane,270,0671_rot_dnn_270_airplane_20_n02690373_6621.png,n02690373_6621.png,1.0,8.153508,0.5432213,5.3812857
convnext_large,1,672,NaN,cat,cat,270,0672_rot_dnn_270_cat_20_n02124075_11727.png,n02124075_11727.png,1.0,3.7538426,0.72560614,2.1412866
convnext_large,1,673,NaN,elephant,elephant,180,0673_rot_dnn_180_elephant_20_n02504013_1078.png,n02504013_1078.png,1.0,6.8851824,0.28703362,4.665596
convnext_large,1,674,NaN,knife,knife,180,0674_rot_dnn_180_knife_20_n03041632_21017.png,n03041632_21017.png,1.0,7.4869514,0.87793213,4.6732826
convnext_large,1,675,NaN,knife,knife,180,0675_rot_dnn_180_knife_20_n03041632_22330.png,n03041632_22330.png,1.0,6.0379305,0.95522416,3.5940163
convnext_large,1,676,NaN,clock,clock,270,0676_rot_dnn_270_clock_20_n03196217_368.png,n03196217_368.png,1.0,4.8453526,0.39573103,3.1463578
convnext_large,1,677,NaN,knife,knife,0,0677_rot_dnn_0_knife_20_n03041632_99912.png,n03041632_99912.png,1.0,8.102652,0.41334322,5.437162
convnext_large,1,678,NaN,clock,boat,180,0678_rot_dnn_180_boat_20_n03344393_7705.png,n03344393_7705.png,0.0,0.79155535,1.6471711,-0.60501176
convnext_large,1,679,NaN,bear,bear,180,0679_rot_dnn_180_bear_20_n02134084_41588.png,n02134084_41588.png,1.0,2.8604267,0.83907455,1.4293118
convnext_large,1,680,NaN,knife,knife,0,0680_rot_dnn_0_knife_20_n03041632_45775.png,n03041632_45775.png,1.0,8.143977,0.5224972,5.3892
convnext_large,1,681,NaN,bicycle,bicycle,180,0681_rot_dnn_180_bicycle_20_n02835271_24630.png,n02835271_24630.png,1.0,7.0142527,1.1061662,4.177648
convnext_large,1,682,NaN,boat,boat,270,0682_rot_dnn_270_boat_20_n03662601_22973.png,n03662601_22973.png,1.0,4.2087564,2.2856038,1.3598744
convnext_large,1,683,NaN,car,car,270,0683_rot_dnn_270_car_20_n02814533_8042.png,n02814533_8042.png,1.0,3.6787717,0.8297886,2.0145352
convnext_large,1,684,NaN,boat,boat,0,0684_rot_dnn_0_boat_20_n03662601_17483.png,n03662601_17483.png,1.0,2.5297852,0.49714583,1.437293
convnext_large,1,685,NaN,bicycle,bicycle,180,0685_rot_dnn_180_bicycle_20_n03792782_13680.png,n03792782_13680.png,1.0,7.721158,0.5687321,5.057529
convnext_large,1,686,NaN,chair,chair,180,0686_rot_dnn_180_chair_20_n03376595_15468.png,n03376595_15468.png,1.0,3.341303,1.8207699,1.0751793
convnext_large,1,687,NaN,knife,knife,270,0687_rot_dnn_270_knife_20_n03041632_26236.png,n03041632_26236.png,1.0,8.411598,2.0404074,4.5051126
convnext_large,1,688,NaN,cat,cat,180,0688_rot_dnn_180_cat_20_n02125311_41650.png,n02125311_41650.png,1.0,1.8269943,1.1372623,0.48771414
convnext_large,1,689,NaN,car,car,90,0689_rot_dnn_90_car_20_n02814533_5916.png,n02814533_5916.png,1.0,4.3584204,2.5967698,1.2456751
convnext_large,1,690,NaN,knife,knife,180,0690_rot_dnn_180_knife_20_n03041632_7116.png,n03041632_7116.png,1.0,5.5062733,0.4951229,3.5434184
convnext_large,1,691,NaN,knife,bottle,90,0691_rot_dnn_90_bottle_20_n04560804_13583.png,n04560804_13583.png,0.0,0.49157307,1.782026,-0.91248804
convnext_large,1,692,NaN,bicycle,bicycle,180,0692_rot_dnn_180_bicycle_20_n02835271_10933.png,n02835271_10933.png,1.0,5.1100388,1.1654655,2.7892346
convnext_large,1,693,NaN,clock,truck,180,0693_rot_dnn_180_truck_20_n04467665_9589.png,n04467665_9589.png,0.0,1.6079805,3.3910847,-1.2608451
convnext_large,1,694,NaN,car,car,180,0694_rot_dnn_180_car_20_n03100240_1750.png,n03100240_1750.png,1.0,3.4874222,2.4225135,0.7530042
convnext_large,1,695,NaN,bear,bear,270,0695_rot_dnn_270_bear_20_n02134418_1094.png,n02134418_1094.png,1.0,2.998089,0.23256062,1.955524
convnext_large,1,696,NaN,clock,clock,0,0696_rot_dnn_0_clock_20_n04548280_7792.png,n04548280_7792.png,1.0,5.471325,0.5616857,3.4716394
convnext_large,1,697,NaN,airplane,airplane,0,0697_rot_dnn_0_airplane_20_n02690373_7142.png,n02690373_7142.png,1.0,8.418288,0.85255575,5.349781
convnext_large,1,698,NaN,keyboard,keyboard,0,0698_rot_dnn_0_keyboard_20_n04505470_7312.png,n04505470_7312.png,1.0,5.6182246,0.5291814,3.598497
convnext_large,1,699,NaN,bear,bear,90,0699_rot_dnn_90_bear_20_n02132136_18953.png,n02132136_18953.png,1.0,5.160398,0.4670459,3.3187013
convnext_large,1,700,NaN,elephant,bird,270,0700_rot_dnn_270_bird_20_n02056570_9303.png,n02056570_9303.png,0.0,0.20789084,1.2699727,-0.7510053
convnext_large,1,701,NaN,chair,chair,0,0701_rot_dnn_0_chair_20_n02791124_4956.png,n02791124_4956.png,1.0,3.2551672,0.24947837,2.125343
convnext_large,1,702,NaN,dog,dog,0,0702_rot_dnn_0_dog_20_n02087394_9061.png,n02087394_9061.png,1.0,0.5384185,0.5295672,0.006258807
convnext_large,1,703,NaN,bird,bird,270,0703_rot_dnn_270_bird_20_n02025239_13707.png,n02025239_13707.png,1.0,1.2671317,0.37395543,0.631571
convnext_large,1,704,NaN,knife,knife,270,0704_rot_dnn_270_knife_20_n03041632_14916.png,n03041632_14916.png,1.0,8.343683,0.23844676,5.7312675
convnext_large,1,705,NaN,chair,chair,180,0705_rot_dnn_180_chair_20_n02791124_1287.png,n02791124_1287.png,1.0,2.3358932,0.29195464,1.4452829
convnext_large,1,706,NaN,bear,bear,180,0706_rot_dnn_180_bear_20_n02134418_1825.png,n02134418_1825.png,1.0,2.5668738,0.78075004,1.2629802
convnext_large,1,707,NaN,elephant,elephant,0,0707_rot_dnn_0_elephant_20_n02504013_6999.png,n02504013_6999.png,1.0,6.1129956,0.82905626,3.7363095
convnext_large,1,708,NaN,clock,clock,270,0708_rot_dnn_270_clock_20_n04548280_7050.png,n04548280_7050.png,1.0,5.1002417,0.2387134,3.4376197
convnext_large,1,709,NaN,cat,cat,180,0709_rot_dnn_180_cat_20_n02123394_8100.png,n02123394_8100.png,1.0,2.3731449,0.8228887,1.0961968
convnext_large,1,710,NaN,chair,oven,180,0710_rot_dnn_180_oven_20_n04111531_11026.png,n04111531_11026.png,0.0,2.2222564,2.3425019,-0.085026376
convnext_large,1,711,NaN,car,car,0,0711_rot_dnn_0_car_20_n02814533_79974.png,n02814533_79974.png,1.0,2.946946,1.219517,1.2214767
convnext_large,1,712,NaN,chair,chair,0,0712_rot_dnn_0_chair_20_n04429376_10994.png,n04429376_10994.png,1.0,3.7576823,1.5463724,1.5636322
convnext_large,1,713,NaN,boat,boat,90,0713_rot_dnn_90_boat_20_n02951358_582.png,n02951358_582.png,1.0,4.3653803,0.64497805,2.6307218
convnext_large,1,714,NaN,keyboard,keyboard,270,0714_rot_dnn_270_keyboard_20_n03085013_24385.png,n03085013_24385.png,1.0,7.2008553,0.42081156,4.7942147
convnext_large,1,715,NaN,bear,bear,0,0715_rot_dnn_0_bear_20_n02133161_4218.png,n02133161_4218.png,1.0,4.3897943,0.33142883,2.8696978
convnext_large,1,716,NaN,keyboard,keyboard,270,0716_rot_dnn_270_keyboard_20_n03085013_1070.png,n03085013_1070.png,1.0,6.3960776,0.5039356,4.1663737
