subj,session,trial,rt,object_response,category,condition,imagename,filename,is_correct,targ_act,max_nontarg_act,decision_margin
bagnet33,1,1,NaN,bicycle,chair,0,0001_rot_dnn_0_chair_20_n03376595_3070.png,n03376595_3070.png,0.0,4.8491187,6.545045,-1.199201
bagnet33,1,2,NaN,car,car,180,0002_rot_dnn_180_car_20_n02814533_29367.png,n02814533_29367.png,1.0,6.590265,5.2845554,0.92327595
bagnet33,1,3,NaN,chair,car,270,0003_rot_dnn_270_car_20_n02814533_31083.png,n02814533_31083.png,0.0,0.4811388,3.6107018,-2.2129352
bagnet33,1,4,NaN,airplane,car,180,0004_rot_dnn_180_car_20_n03100240_1703.png,n03100240_1703.png,0.0,6.869282,9.524955,-1.8778445
bagnet33,1,5,NaN,bottle,bottle,180,0005_rot_dnn_180_bottle_20_n04591713_2359.png,n04591713_2359.png,1.0,10.23656,5.965233,3.0202844
bagnet33,1,6,NaN,oven,dog,90,0006_rot_dnn_90_dog_20_n02111500_8796.png,n02111500_8796.png,0.0,-0.6039691,3.408947,-2.8375602
bagnet33,1,7,NaN,elephant,bear,180,0007_rot_dnn_180_bear_20_n02132136_4512.png,n02132136_4512.png,0.0,2.274113,3.4612694,-0.83944637
bagnet33,1,8,NaN,chair,chair,90,0008_rot_dnn_90_chair_20_n03376595_4820.png,n03376595_4820.png,1.0,8.558807,5.539156,2.135216
bagnet33,1,9,NaN,bottle,bottle,270,0009_rot_dnn_270_bottle_20_n04591713_6111.png,n04591713_6111.png,1.0,20.214518,8.496049,8.286209
bagnet33,1,10,NaN,clock,bottle,270,0010_rot_dnn_270_bottle_20_n04560804_14111.png,n04560804_14111.png,0.0,2.0576608,5.752516,-2.612657
bagnet33,1,11,NaN,elephant,dog,0,0011_rot_dnn_0_dog_20_n02099601_8656.png,n02099601_8656.png,0.0,7.496492,9.88719,-1.6904788
bagnet33,1,12,NaN,cat,cat,0,0012_rot_dnn_0_cat_20_n02125311_14054.png,n02125311_14054.png,1.0,9.566016,3.0743952,4.590269
bagnet33,1,13,NaN,elephant,bear,0,0013_rot_dnn_0_bear_20_n02132136_10385.png,n02132136_10385.png,0.0,2.8323085,4.0094094,-0.83233607
bagnet33,1,14,NaN,bottle,bottle,90,0014_rot_dnn_90_bottle_20_n02823428_10417.png,n02823428_10417.png,1.0,8.125678,6.497201,1.1515073
bagnet33,1,15,NaN,knife,keyboard,0,0015_rot_dnn_0_keyboard_20_n03085013_23566.png,n03085013_23566.png,0.0,2.6934485,3.7988126,-0.7816104
bagnet33,1,16,NaN,oven,truck,90,0016_rot_dnn_90_truck_20_n03417042_12560.png,n03417042_12560.png,0.0,4.422699,6.3963747,-1.3955995
bagnet33,1,17,NaN,knife,truck,180,0017_rot_dnn_180_truck_20_n04467665_69063.png,n04467665_69063.png,0.0,1.7867625,2.5468035,-0.53743017
bagnet33,1,18,NaN,oven,oven,180,0018_rot_dnn_180_oven_20_n04111531_9712.png,n04111531_9712.png,1.0,5.482902,5.038698,0.31409955
bagnet33,1,19,NaN,oven,oven,180,0019_rot_dnn_180_oven_20_n04111531_10375.png,n04111531_10375.png,1.0,9.735781,5.7597265,2.8114948
bagnet33,1,20,NaN,keyboard,keyboard,0,0020_rot_dnn_0_keyboard_20_n04505470_1744.png,n04505470_1744.png,1.0,9.712709,6.3182783,2.4002254
bagnet33,1,21,NaN,knife,boat,90,0021_rot_dnn_90_boat_20_n04273569_7296.png,n04273569_7296.png,0.0,-0.5530739,3.049739,-2.5475733
bagnet33,1,22,NaN,dog,dog,0,0022_rot_dnn_0_dog_20_n02101006_4807.png,n02101006_4807.png,1.0,5.9125996,5.8670936,0.0321776
bagnet33,1,23,NaN,clock,clock,90,0023_rot_dnn_90_clock_20_n02708093_1986.png,n02708093_1986.png,1.0,29.862549,8.780033,14.90759
bagnet33,1,24,NaN,bottle,bottle,0,0024_rot_dnn_0_bottle_20_n04560804_15562.png,n04560804_15562.png,1.0,16.151697,2.5679557,9.605156
bagnet33,1,25,NaN,cat,cat,0,0025_rot_dnn_0_cat_20_n02124075_13594.png,n02124075_13594.png,1.0,9.587445,5.5701656,2.8406458
bagnet33,1,26,NaN,oven,bear,90,0026_rot_dnn_90_bear_20_n02134418_4365.png,n02134418_4365.png,0.0,2.4403067,4.7310376,-1.6197914
bagnet33,1,27,NaN,elephant,bear,180,0027_rot_dnn_180_bear_20_n02132136_8650.png,n02132136_8650.png,0.0,4.0043674,4.12803,-0.08744258
bagnet33,1,28,NaN,bird,bird,90,0028_rot_dnn_90_bird_20_n02009912_12219.png,n02009912_12219.png,1.0,3.6021361,3.3430512,0.18320072
bagnet33,1,29,NaN,knife,dog,90,0029_rot_dnn_90_dog_20_n02100236_1662.png,n02100236_1662.png,0.0,-0.006581862,2.8091774,-1.9910425
bagnet33,1,30,NaN,clock,clock,90,0030_rot_dnn_90_clock_20_n04548280_1947.png,n04548280_1947.png,1.0,15.852948,10.187209,4.006283
bagnet33,1,31,NaN,dog,dog,270,0031_rot_dnn_270_dog_20_n02109047_66167.png,n02109047_66167.png,1.0,3.8501184,3.5402608,0.21910241
bagnet33,1,32,NaN,oven,oven,90,0032_rot_dnn_90_oven_20_n04111531_21055.png,n04111531_21055.png,1.0,14.784487,7.152471,5.3966503
bagnet33,1,33,NaN,clock,clock,0,0033_rot_dnn_0_clock_20_n02708093_2012.png,n02708093_2012.png,1.0,6.8457475,3.862182,2.1096995
bagnet33,1,34,NaN,elephant,elephant,0,0034_rot_dnn_0_elephant_20_n02504458_6119.png,n02504458_6119.png,1.0,22.187916,2.9942937,13.571941
bagnet33,1,35,NaN,chair,chair,0,0035_rot_dnn_0_chair_20_n04099969_12707.png,n04099969_12707.png,1.0,16.260118,5.727443,7.447726
bagnet33,1,36,NaN,keyboard,keyboard,270,0036_rot_dnn_270_keyboard_20_n03085013_19054.png,n03085013_19054.png,1.0,22.728468,8.114231,10.333826
bagnet33,1,37,NaN,chair,chair,0,0037_rot_dnn_0_chair_20_n02791124_422.png,n02791124_422.png,1.0,6.5358152,2.4157383,2.9133346
bagnet33,1,38,NaN,bicycle,bicycle,0,0038_rot_dnn_0_bicycle_20_n02835271_23830.png,n02835271_23830.png,1.0,24.389008,4.3351583,14.180212
bagnet33,1,39,NaN,knife,bird,90,0039_rot_dnn_90_bird_20_n01534433_14735.png,n01534433_14735.png,0.0,0.8274717,1.326147,-0.3526167
bagnet33,1,40,NaN,bicycle,bird,90,0040_rot_dnn_90_bird_20_n02011460_13994.png,n02011460_13994.png,0.0,-0.7606075,2.2941885,-2.160067
bagnet33,1,41,NaN,knife,boat,270,0041_rot_dnn_270_boat_20_n04273569_17522.png,n04273569_17522.png,0.0,0.97553813,4.641696,-2.592365
bagnet33,1,42,NaN,cat,bear,180,0042_rot_dnn_180_bear_20_n02132136_5537.png,n02132136_5537.png,0.0,7.060304,8.09331,-0.7304457
bagnet33,1,43,NaN,bear,bear,90,0043_rot_dnn_90_bear_20_n02132136_19248.png,n02132136_19248.png,1.0,10.828762,8.244926,1.8270477
bagnet33,1,44,NaN,airplane,bird,270,0044_rot_dnn_270_bird_20_n01537544_1886.png,n01537544_1886.png,0.0,-1.0519031,2.3683524,-2.418486
bagnet33,1,45,NaN,clock,clock,180,0045_rot_dnn_180_clock_20_n03196217_4776.png,n03196217_4776.png,1.0,6.8559647,4.101815,1.9474778
bagnet33,1,46,NaN,airplane,boat,270,0046_rot_dnn_270_boat_20_n04612504_17610.png,n04612504_17610.png,0.0,2.6869025,6.5493393,-2.7311554
bagnet33,1,47,NaN,elephant,bear,90,0047_rot_dnn_90_bear_20_n02134418_1814.png,n02134418_1814.png,0.0,2.1153908,7.393011,-3.731841
bagnet33,1,48,NaN,keyboard,keyboard,180,0048_rot_dnn_180_keyboard_20_n03085013_20330.png,n03085013_20330.png,1.0,18.12363,5.4793663,8.9408455
bagnet33,1,49,NaN,bottle,bottle,180,0049_rot_dnn_180_bottle_20_n02823428_14574.png,n02823428_14574.png,1.0,9.348616,3.738964,3.9666228
bagnet33,1,50,NaN,bicycle,bicycle,0,0050_rot_dnn_0_bicycle_20_n03792782_7105.png,n03792782_7105.png,1.0,7.868938,1.1771866,4.731783
bagnet33,1,51,NaN,elephant,elephant,0,0051_rot_dnn_0_elephant_20_n02504458_1302.png,n02504458_1302.png,1.0,14.902568,3.1645465,8.3000345
bagnet33,1,52,NaN,knife,airplane,90,0052_rot_dnn_90_airplane_20_n02690373_3877.png,n02690373_3877.png,0.0,2.3508897,3.5888832,-0.87539357
bagnet33,1,53,NaN,oven,boat,90,0053_rot_dnn_90_boat_20_n02951358_15422.png,n02951358_15422.png,0.0,1.1106979,7.487789,-4.5092845
bagnet33,1,54,NaN,oven,car,270,0054_rot_dnn_270_car_20_n02814533_46458.png,n02814533_46458.png,0.0,1.1819525,5.0610604,-2.7429435
bagnet33,1,55,NaN,car,car,0,0055_rot_dnn_0_car_20_n02814533_39547.png,n02814533_39547.png,1.0,17.269957,9.60957,5.416712
bagnet33,1,56,NaN,airplane,boat,180,0056_rot_dnn_180_boat_20_n04273569_6586.png,n04273569_6586.png,0.0,2.3284743,3.228639,-0.6365125
bagnet33,1,57,NaN,clock,clock,90,0057_rot_dnn_90_clock_20_n02708093_3394.png,n02708093_3394.png,1.0,7.23432,6.9443336,0.2050515
bagnet33,1,58,NaN,keyboard,keyboard,180,0058_rot_dnn_180_keyboard_20_n03085013_25419.png,n03085013_25419.png,1.0,21.755379,6.3368926,10.902516
bagnet33,1,59,NaN,knife,bottle,180,0059_rot_dnn_180_bottle_20_n04557648_1871.png,n04557648_1871.png,0.0,2.8587773,5.462371,-1.8410187
bagnet33,1,60,NaN,oven,chair,90,0060_rot_dnn_90_chair_20_n04099969_6944.png,n04099969_6944.png,0.0,3.9857259,4.0522223,-0.047020037
bagnet33,1,61,NaN,chair,boat,270,0061_rot_dnn_270_boat_20_n04273569_1495.png,n04273569_1495.png,0.0,1.236613,5.464423,-2.9895132
bagnet33,1,62,NaN,keyboard,keyboard,90,0062_rot_dnn_90_keyboard_20_n03085013_7317.png,n03085013_7317.png,1.0,19.67078,12.4140625,5.131274
bagnet33,1,63,NaN,knife,knife,90,0063_rot_dnn_90_knife_20_n03041632_7448.png,n03041632_7448.png,1.0,6.3486896,3.7779543,1.8177843
bagnet33,1,64,NaN,truck,truck,0,0064_rot_dnn_0_truck_20_n03417042_11000.png,n03417042_11000.png,1.0,5.045727,5.0178275,0.01972776
bagnet33,1,65,NaN,bird,bird,0,0065_rot_dnn_0_bird_20_n01582220_8827.png,n01582220_8827.png,1.0,7.5315423,3.1323996,3.1106637
bagnet33,1,66,NaN,airplane,airplane,270,0066_rot_dnn_270_airplane_20_n02690373_9247.png,n02690373_9247.png,1.0,5.8060822,5.07333,0.5181341
bagnet33,1,67,NaN,cat,bear,270,0067_rot_dnn_270_bear_20_n02133161_14397.png,n02133161_14397.png,0.0,4.6412907,7.3920608,-1.9450883
bagnet33,1,68,NaN,oven,oven,270,0068_rot_dnn_270_oven_20_n04111531_13560.png,n04111531_13560.png,1.0,10.006535,5.86928,2.9254808
bagnet33,1,69,NaN,airplane,bear,180,0069_rot_dnn_180_bear_20_n02132136_545.png,n02132136_545.png,0.0,1.3293102,3.1064954,-1.2566597
bagnet33,1,70,NaN,elephant,cat,90,0070_rot_dnn_90_cat_20_n02125311_73072.png,n02125311_73072.png,0.0,-0.4597913,13.397541,-9.798614
bagnet33,1,71,NaN,bicycle,bicycle,0,0071_rot_dnn_0_bicycle_20_n03792782_30530.png,n03792782_30530.png,1.0,16.760084,5.6269403,7.872322
bagnet33,1,72,NaN,knife,knife,90,0072_rot_dnn_90_knife_20_n03041632_4975.png,n03041632_4975.png,1.0,4.480693,3.0137818,1.0372628
bagnet33,1,73,NaN,oven,dog,90,0073_rot_dnn_90_dog_20_n02107683_3120.png,n02107683_3120.png,0.0,-0.948638,8.882476,-6.9516473
bagnet33,1,74,NaN,knife,elephant,90,0074_rot_dnn_90_elephant_20_n02504013_7316.png,n02504013_7316.png,0.0,-0.92394006,4.1719255,-3.6033213
bagnet33,1,75,NaN,clock,truck,90,0075_rot_dnn_90_truck_20_n03796401_7284.png,n03796401_7284.png,0.0,2.0103793,4.76462,-1.9475422
bagnet33,1,76,NaN,chair,chair,270,0076_rot_dnn_270_chair_20_n03376595_497.png,n03376595_497.png,1.0,5.714874,3.711102,1.4168806
bagnet33,1,77,NaN,truck,truck,270,0077_rot_dnn_270_truck_20_n03796401_19845.png,n03796401_19845.png,1.0,14.022318,10.455206,2.522329
bagnet33,1,78,NaN,chair,chair,90,0078_rot_dnn_90_chair_20_n04099969_1941.png,n04099969_1941.png,1.0,5.860698,5.719513,0.09983307
bagnet33,1,79,NaN,truck,truck,90,0079_rot_dnn_90_truck_20_n03417042_28886.png,n03417042_28886.png,1.0,6.531911,5.091927,1.0182223
bagnet33,1,80,NaN,car,car,0,0080_rot_dnn_0_car_20_n02814533_12185.png,n02814533_12185.png,1.0,10.819131,5.5387425,3.7337985
bagnet33,1,81,NaN,bicycle,bicycle,90,0081_rot_dnn_90_bicycle_20_n02835271_1621.png,n02835271_1621.png,1.0,11.259424,6.4507594,3.4002395
bagnet33,1,82,NaN,cat,cat,0,0082_rot_dnn_0_cat_20_n02123597_32226.png,n02123597_32226.png,1.0,24.463669,5.4048686,13.476606
bagnet33,1,83,NaN,bicycle,bicycle,90,0083_rot_dnn_90_bicycle_20_n03792782_5048.png,n03792782_5048.png,1.0,6.1571145,2.710116,2.437396
bagnet33,1,84,NaN,airplane,airplane,0,0084_rot_dnn_0_airplane_20_n02690373_10044.png,n02690373_10044.png,1.0,18.954407,5.553935,9.475565
bagnet33,1,85,NaN,car,car,180,0085_rot_dnn_180_car_20_n03100240_5752.png,n03100240_5752.png,1.0,17.929935,12.524505,3.8222167
bagnet33,1,86,NaN,truck,car,90,0086_rot_dnn_90_car_20_n02814533_68219.png,n02814533_68219.png,0.0,1.1489246,4.769058,-2.5598211
bagnet33,1,87,NaN,airplane,airplane,0,0087_rot_dnn_0_airplane_20_n02690373_1171.png,n02690373_1171.png,1.0,19.60299,5.87693,9.70579
bagnet33,1,88,NaN,oven,bird,90,0088_rot_dnn_90_bird_20_n01817953_6970.png,n01817953_6970.png,0.0,-2.4516125,6.808404,-6.5478206
bagnet33,1,89,NaN,oven,car,90,0089_rot_dnn_90_car_20_n04285008_15503.png,n04285008_15503.png,0.0,3.526571,6.2208853,-1.9051679
bagnet33,1,90,NaN,airplane,boat,270,0090_rot_dnn_270_boat_20_n03344393_11886.png,n03344393_11886.png,0.0,3.4210498,3.5876093,-0.11777532
bagnet33,1,91,NaN,boat,boat,0,0091_rot_dnn_0_boat_20_n04273569_30203.png,n04273569_30203.png,1.0,8.131979,7.040713,0.77164173
bagnet33,1,92,NaN,keyboard,keyboard,180,0092_rot_dnn_180_keyboard_20_n03085013_22069.png,n03085013_22069.png,1.0,33.579697,6.221661,19.345053
bagnet33,1,93,NaN,knife,knife,0,0093_rot_dnn_0_knife_20_n03041632_26314.png,n03041632_26314.png,1.0,7.126239,4.3984118,1.9288651
bagnet33,1,94,NaN,bicycle,bicycle,270,0094_rot_dnn_270_bicycle_20_n03792782_18308.png,n03792782_18308.png,1.0,3.915638,1.3978064,1.7803758
bagnet33,1,95,NaN,car,car,180,0095_rot_dnn_180_car_20_n04285008_8396.png,n04285008_8396.png,1.0,10.713429,10.089122,0.44145218
bagnet33,1,96,NaN,oven,bear,90,0096_rot_dnn_90_bear_20_n02133161_12349.png,n02133161_12349.png,0.0,-0.39641035,3.5394006,-2.7830386
bagnet33,1,97,NaN,elephant,bear,270,0097_rot_dnn_270_bear_20_n02132136_18303.png,n02132136_18303.png,0.0,7.113161,9.339792,-1.574466
bagnet33,1,98,NaN,cat,cat,180,0098_rot_dnn_180_cat_20_n02123394_6853.png,n02123394_6853.png,1.0,12.079597,2.8071404,6.5566173
bagnet33,1,99,NaN,chair,cat,180,0099_rot_dnn_180_cat_20_n02123597_4805.png,n02123597_4805.png,0.0,0.13349633,5.5723333,-3.8458385
bagnet33,1,100,NaN,truck,car,0,0100_rot_dnn_0_car_20_n03100240_17587.png,n03100240_17587.png,0.0,5.830199,7.499338,-1.1802598
bagnet33,1,101,NaN,oven,bird,180,0101_rot_dnn_180_bird_20_n01601694_19236.png,n01601694_19236.png,0.0,0.15031643,1.659874,-1.0674183
bagnet33,1,102,NaN,cat,cat,0,0102_rot_dnn_0_cat_20_n02123597_2341.png,n02123597_2341.png,1.0,12.261739,3.4106188,6.258687
bagnet33,1,103,NaN,cat,elephant,270,0103_rot_dnn_270_elephant_20_n02504013_7883.png,n02504013_7883.png,0.0,3.2545648,4.2492313,-0.70333546
bagnet33,1,104,NaN,oven,chair,270,0104_rot_dnn_270_chair_20_n03376595_14240.png,n03376595_14240.png,0.0,1.3215797,7.224475,-4.173977
bagnet33,1,105,NaN,airplane,airplane,0,0105_rot_dnn_0_airplane_20_n02690373_10188.png,n02690373_10188.png,1.0,20.622635,6.5202723,9.971876
bagnet33,1,106,NaN,truck,truck,90,0106_rot_dnn_90_truck_20_n03417042_8634.png,n03417042_8634.png,1.0,5.202981,4.980293,0.15746434
bagnet33,1,107,NaN,knife,knife,90,0107_rot_dnn_90_knife_20_n03041632_32774.png,n03041632_32774.png,1.0,6.92021,4.0901227,2.001174
bagnet33,1,108,NaN,knife,bottle,90,0108_rot_dnn_90_bottle_20_n03983396_4115.png,n03983396_4115.png,0.0,5.945888,6.4780946,-0.37632686
bagnet33,1,109,NaN,clock,clock,270,0109_rot_dnn_270_clock_20_n04548280_8552.png,n04548280_8552.png,1.0,12.460022,5.7067566,4.77528
bagnet33,1,110,NaN,car,car,0,0110_rot_dnn_0_car_20_n02814533_6233.png,n02814533_6233.png,1.0,24.022146,13.583376,7.3813252
bagnet33,1,111,NaN,elephant,elephant,0,0111_rot_dnn_0_elephant_20_n02504458_9870.png,n02504458_9870.png,1.0,10.2620325,3.8951266,4.502083
bagnet33,1,112,NaN,bicycle,bicycle,270,0112_rot_dnn_270_bicycle_20_n02835271_3956.png,n02835271_3956.png,1.0,12.30452,4.916985,5.223776
bagnet33,1,113,NaN,knife,knife,90,0113_rot_dnn_90_knife_20_n03041632_14817.png,n03041632_14817.png,1.0,6.0419245,5.472582,0.40258604
bagnet33,1,114,NaN,clock,chair,90,0114_rot_dnn_90_chair_20_n04099969_8642.png,n04099969_8642.png,0.0,1.9428291,2.6154912,-0.47564387
bagnet33,1,115,NaN,clock,clock,0,0115_rot_dnn_0_clock_20_n02708093_240.png,n02708093_240.png,1.0,18.365232,5.095152,9.383364
bagnet33,1,116,NaN,elephant,bear,180,0116_rot_dnn_180_bear_20_n02133161_3896.png,n02133161_3896.png,0.0,2.4762917,5.7196608,-2.2934084
bagnet33,1,117,NaN,bottle,bottle,270,0117_rot_dnn_270_bottle_20_n04557648_11000.png,n04557648_11000.png,1.0,10.226502,6.6884317,2.5017939
bagnet33,1,118,NaN,keyboard,keyboard,90,0118_rot_dnn_90_keyboard_20_n03085013_2853.png,n03085013_2853.png,1.0,13.580729,9.858651,2.6319063
bagnet33,1,119,NaN,chair,boat,90,0119_rot_dnn_90_boat_20_n04273569_7097.png,n04273569_7097.png,0.0,-0.7832298,4.10067,-3.4534388
bagnet33,1,120,NaN,bicycle,bicycle,270,0120_rot_dnn_270_bicycle_20_n03792782_40932.png,n03792782_40932.png,1.0,12.335523,3.2555456,6.4205136
bagnet33,1,121,NaN,oven,chair,270,0121_rot_dnn_270_chair_20_n04429376_44914.png,n04429376_44914.png,0.0,3.1746957,4.809764,-1.1561679
bagnet33,1,122,NaN,knife,bear,180,0122_rot_dnn_180_bear_20_n02134418_2122.png,n02134418_2122.png,0.0,-0.7188622,2.593399,-2.3421223
bagnet33,1,123,NaN,keyboard,keyboard,90,0123_rot_dnn_90_keyboard_20_n03085013_22704.png,n03085013_22704.png,1.0,14.835048,3.5593138,7.973148
bagnet33,1,124,NaN,truck,truck,0,0124_rot_dnn_0_truck_20_n03417042_6838.png,n03417042_6838.png,1.0,6.6412716,6.0263205,0.43483612
bagnet33,1,125,NaN,elephant,elephant,0,0125_rot_dnn_0_elephant_20_n02504458_3628.png,n02504458_3628.png,1.0,15.730244,3.0789335,8.9458275
bagnet33,1,126,NaN,cat,cat,90,0126_rot_dnn_90_cat_20_n02123597_10141.png,n02123597_10141.png,1.0,5.0288906,4.2039337,0.5833326
bagnet33,1,127,NaN,bicycle,bicycle,0,0127_rot_dnn_0_bicycle_20_n02835271_6383.png,n02835271_6383.png,1.0,15.627866,2.1596756,9.523449
bagnet33,1,128,NaN,car,car,180,0128_rot_dnn_180_car_20_n04285008_7154.png,n04285008_7154.png,1.0,7.0615826,6.187216,0.6182707
bagnet33,1,129,NaN,airplane,bird,0,0129_rot_dnn_0_bird_20_n02007558_1068.png,n02007558_1068.png,0.0,2.7008219,7.3020153,-3.253535
bagnet33,1,130,NaN,bottle,cat,90,0130_rot_dnn_90_cat_20_n02125311_1896.png,n02125311_1896.png,0.0,1.2290306,2.1839025,-0.6751964
bagnet33,1,131,NaN,keyboard,keyboard,0,0131_rot_dnn_0_keyboard_20_n04505470_1903.png,n04505470_1903.png,1.0,40.341995,10.030866,21.433207
bagnet33,1,132,NaN,bicycle,bicycle,90,0132_rot_dnn_90_bicycle_20_n03792782_66159.png,n03792782_66159.png,1.0,5.2477674,3.9435678,0.9222085
bagnet33,1,133,NaN,bear,bear,90,0133_rot_dnn_90_bear_20_n02134418_5219.png,n02134418_5219.png,1.0,9.292999,6.313021,2.1071627
bagnet33,1,134,NaN,oven,car,90,0134_rot_dnn_90_car_20_n02814533_92229.png,n02814533_92229.png,0.0,2.3955579,7.6207767,-3.6947877
bagnet33,1,135,NaN,cat,dog,90,0135_rot_dnn_90_dog_20_n02090721_1002.png,n02090721_1002.png,0.0,1.9055794,3.2280219,-0.935108
bagnet33,1,136,NaN,knife,truck,270,0136_rot_dnn_270_truck_20_n04467665_46263.png,n04467665_46263.png,0.0,2.1893997,5.781187,-2.5397773
bagnet33,1,137,NaN,bottle,bottle,180,0137_rot_dnn_180_bottle_20_n03983396_704.png,n03983396_704.png,1.0,8.030443,5.2984567,1.9318062
bagnet33,1,138,NaN,truck,truck,180,0138_rot_dnn_180_truck_20_n03796401_4149.png,n03796401_4149.png,1.0,5.3801403,4.1852922,0.8448852
bagnet33,1,139,NaN,oven,bird,0,0139_rot_dnn_0_bird_20_n02006656_2030.png,n02006656_2030.png,0.0,3.9700253,4.215652,-0.1736843
bagnet33,1,140,NaN,cat,cat,90,0140_rot_dnn_90_cat_20_n02123394_234.png,n02123394_234.png,1.0,5.2408667,2.8667583,1.6787481
bagnet33,1,141,NaN,clock,chair,90,0141_rot_dnn_90_chair_20_n04429376_19916.png,n04429376_19916.png,0.0,3.051315,6.767054,-2.6274242
bagnet33,1,142,NaN,truck,truck,270,0142_rot_dnn_270_truck_20_n04467665_14024.png,n04467665_14024.png,1.0,8.33469,6.4792495,1.3119947
bagnet33,1,143,NaN,chair,chair,90,0143_rot_dnn_90_chair_20_n04429376_14729.png,n04429376_14729.png,1.0,6.45451,4.3162827,1.5119551
bagnet33,1,144,NaN,car,car,270,0144_rot_dnn_270_car_20_n02814533_82321.png,n02814533_82321.png,1.0,8.706853,7.6926165,0.71717346
bagnet33,1,145,NaN,clock,clock,180,0145_rot_dnn_180_clock_20_n04548280_3701.png,n04548280_3701.png,1.0,6.3453293,2.4497252,2.7546082
bagnet33,1,146,NaN,knife,boat,270,0146_rot_dnn_270_boat_20_n02951358_11442.png,n02951358_11442.png,0.0,-1.2305396,5.213195,-4.5564084
bagnet33,1,147,NaN,bear,bear,90,0147_rot_dnn_90_bear_20_n02132136_17349.png,n02132136_17349.png,1.0,5.357214,3.7671578,1.1243396
bagnet33,1,148,NaN,clock,airplane,90,0148_rot_dnn_90_airplane_20_n02690373_4982.png,n02690373_4982.png,0.0,4.199486,5.760763,-1.1039898
bagnet33,1,149,NaN,airplane,airplane,0,0149_rot_dnn_0_airplane_20_n02690373_2232.png,n02690373_2232.png,1.0,16.581781,4.6025724,8.47058
bagnet33,1,150,NaN,cat,cat,180,0150_rot_dnn_180_cat_20_n02123045_909.png,n02123045_909.png,1.0,4.8828206,2.5790553,1.629008
bagnet33,1,151,NaN,clock,clock,180,0151_rot_dnn_180_clock_20_n04548280_1190.png,n04548280_1190.png,1.0,20.055908,19.656654,0.2823151
bagnet33,1,152,NaN,oven,oven,90,0152_rot_dnn_90_oven_20_n04111531_1855.png,n04111531_1855.png,1.0,4.6424665,4.0080433,0.448605
bagnet33,1,153,NaN,clock,boat,270,0153_rot_dnn_270_boat_20_n03662601_21408.png,n03662601_21408.png,0.0,4.877673,6.3904877,-1.0697215
bagnet33,1,154,NaN,knife,dog,90,0154_rot_dnn_90_dog_20_n02088364_15877.png,n02088364_15877.png,0.0,0.14396822,4.5553665,-3.1193297
bagnet33,1,155,NaN,knife,knife,90,0155_rot_dnn_90_knife_20_n03041632_15250.png,n03041632_15250.png,1.0,4.172598,2.9166224,0.8881088
bagnet33,1,156,NaN,oven,oven,0,0156_rot_dnn_0_oven_20_n04111531_17006.png,n04111531_17006.png,1.0,13.840632,3.7538939,7.1324015
bagnet33,1,157,NaN,clock,clock,90,0157_rot_dnn_90_clock_20_n04548280_11763.png,n04548280_11763.png,1.0,19.683159,3.287925,11.593181
bagnet33,1,158,NaN,elephant,bird,270,0158_rot_dnn_270_bird_20_n02028035_8327.png,n02028035_8327.png,0.0,1.6745411,3.9786105,-1.6292232
bagnet33,1,159,NaN,bicycle,car,90,0159_rot_dnn_90_car_20_n04285008_5641.png,n04285008_5641.png,0.0,1.4166555,4.5810995,-2.2375998
bagnet33,1,160,NaN,oven,oven,90,0160_rot_dnn_90_oven_20_n04111531_10727.png,n04111531_10727.png,1.0,7.9416437,7.235234,0.49950725
bagnet33,1,161,NaN,elephant,elephant,270,0161_rot_dnn_270_elephant_20_n02504458_1971.png,n02504458_1971.png,1.0,6.4356375,3.9320343,1.7703148
bagnet33,1,162,NaN,bottle,bottle,180,0162_rot_dnn_180_bottle_20_n04560804_15941.png,n04560804_15941.png,1.0,14.165068,4.011333,7.1797743
bagnet33,1,163,NaN,elephant,elephant,0,0163_rot_dnn_0_elephant_20_n02504458_151.png,n02504458_151.png,1.0,20.53314,2.866173,12.492433
bagnet33,1,164,NaN,bear,bear,180,0164_rot_dnn_180_bear_20_n02133161_15427.png,n02133161_15427.png,1.0,10.768084,6.3379316,3.1325905
bagnet33,1,165,NaN,elephant,bear,180,0165_rot_dnn_180_bear_20_n02134084_20605.png,n02134084_20605.png,0.0,1.2483177,6.359467,-3.6141284
bagnet33,1,166,NaN,bottle,bottle,90,0166_rot_dnn_90_bottle_20_n04560804_2693.png,n04560804_2693.png,1.0,3.9466176,1.9967976,1.378731
bagnet33,1,167,NaN,oven,airplane,270,0167_rot_dnn_270_airplane_20_n02690373_8214.png,n02690373_8214.png,0.0,-0.39539593,7.206497,-5.37535
bagnet33,1,168,NaN,boat,boat,0,0168_rot_dnn_0_boat_20_n02951358_14966.png,n02951358_14966.png,1.0,6.3227744,6.2866244,0.025561895
bagnet33,1,169,NaN,bottle,knife,90,0169_rot_dnn_90_knife_20_n03041632_14801.png,n03041632_14801.png,0.0,1.9086108,2.123164,-0.15171197
bagnet33,1,170,NaN,knife,dog,90,0170_rot_dnn_90_dog_20_n02110063_8776.png,n02110063_8776.png,0.0,0.48713535,2.7996461,-1.635192
bagnet33,1,171,NaN,bicycle,dog,180,0171_rot_dnn_180_dog_20_n02100236_7671.png,n02100236_7671.png,0.0,0.87127286,3.196815,-1.6444067
bagnet33,1,172,NaN,oven,oven,0,0172_rot_dnn_0_oven_20_n04111531_21248.png,n04111531_21248.png,1.0,12.185884,2.723041,6.6912403
bagnet33,1,173,NaN,knife,knife,270,0173_rot_dnn_270_knife_20_n03041632_17100.png,n03041632_17100.png,1.0,5.7435102,4.7513885,0.701536
bagnet33,1,174,NaN,knife,knife,0,0174_rot_dnn_0_knife_20_n03041632_3781.png,n03041632_3781.png,1.0,5.749174,3.2621524,1.75859
bagnet33,1,175,NaN,chair,oven,270,0175_rot_dnn_270_oven_20_n04111531_46651.png,n04111531_46651.png,0.0,6.153296,6.349297,-0.13859367
bagnet33,1,176,NaN,clock,clock,0,0176_rot_dnn_0_clock_20_n04548280_8303.png,n04548280_8303.png,1.0,5.3918405,3.661099,1.223819
bagnet33,1,177,NaN,airplane,airplane,0,0177_rot_dnn_0_airplane_20_n02690373_2070.png,n02690373_2070.png,1.0,12.435919,4.8886113,5.3367524
bagnet33,1,178,NaN,car,car,180,0178_rot_dnn_180_car_20_n03100240_574.png,n03100240_574.png,1.0,8.953837,8.808491,0.102775596
bagnet33,1,179,NaN,elephant,dog,90,0179_rot_dnn_90_dog_20_n02095570_11263.png,n02095570_11263.png,0.0,2.7648747,4.459662,-1.1983956
bagnet33,1,180,NaN,bottle,bottle,180,0180_rot_dnn_180_bottle_20_n03983396_9667.png,n03983396_9667.png,1.0,7.7400117,5.9202156,1.2867901
bagnet33,1,181,NaN,clock,clock,0,0181_rot_dnn_0_clock_20_n02708093_3535.png,n02708093_3535.png,1.0,19.816992,16.63751,2.248233
bagnet33,1,182,NaN,clock,bird,180,0182_rot_dnn_180_bird_20_n01531178_17239.png,n01531178_17239.png,0.0,0.8233955,1.5742213,-0.530914
bagnet33,1,183,NaN,elephant,elephant,180,0183_rot_dnn_180_elephant_20_n02504458_2272.png,n02504458_2272.png,1.0,13.577978,2.5704184,7.78352
bagnet33,1,184,NaN,knife,knife,90,0184_rot_dnn_90_knife_20_n03041632_50648.png,n03041632_50648.png,1.0,14.356641,4.3899426,7.0475197
bagnet33,1,185,NaN,knife,knife,0,0185_rot_dnn_0_knife_20_n03041632_33225.png,n03041632_33225.png,1.0,5.944927,5.491448,0.3206583
bagnet33,1,186,NaN,airplane,airplane,0,0186_rot_dnn_0_airplane_20_n02690373_736.png,n02690373_736.png,1.0,27.403257,5.9420033,15.175399
bagnet33,1,187,NaN,knife,knife,270,0187_rot_dnn_270_knife_20_n03041632_2546.png,n03041632_2546.png,1.0,6.1859026,3.7222755,1.7420474
bagnet33,1,188,NaN,airplane,boat,180,0188_rot_dnn_180_boat_20_n04273569_13053.png,n04273569_13053.png,0.0,4.7305446,7.359963,-1.8592796
bagnet33,1,189,NaN,airplane,airplane,180,0189_rot_dnn_180_airplane_20_n02690373_3588.png,n02690373_3588.png,1.0,8.75609,5.209333,2.5079362
bagnet33,1,190,NaN,cat,keyboard,0,0190_rot_dnn_0_keyboard_20_n03085013_21004.png,n03085013_21004.png,0.0,5.358699,9.96981,-3.2605476
bagnet33,1,191,NaN,airplane,boat,180,0191_rot_dnn_180_boat_20_n03662601_16627.png,n03662601_16627.png,0.0,2.9672606,5.2446413,-1.6103513
bagnet33,1,192,NaN,elephant,bird,180,0192_rot_dnn_180_bird_20_n02017213_6478.png,n02017213_6478.png,0.0,-0.009911505,7.6165833,-5.3927464
bagnet33,1,193,NaN,bear,bear,90,0193_rot_dnn_90_bear_20_n02134418_998.png,n02134418_998.png,1.0,5.3518305,3.3759522,1.397157
bagnet33,1,194,NaN,oven,truck,90,0194_rot_dnn_90_truck_20_n04467665_71055.png,n04467665_71055.png,0.0,4.810296,9.41335,-3.2548509
bagnet33,1,195,NaN,knife,car,90,0195_rot_dnn_90_car_20_n02814533_23979.png,n02814533_23979.png,0.0,-0.6502748,4.398197,-3.5698087
bagnet33,1,196,NaN,elephant,elephant,180,0196_rot_dnn_180_elephant_20_n02504458_6805.png,n02504458_6805.png,1.0,4.313456,1.8571928,1.7368405
bagnet33,1,197,NaN,clock,clock,90,0197_rot_dnn_90_clock_20_n04548280_4841.png,n04548280_4841.png,1.0,4.930348,3.381371,1.0952921
bagnet33,1,198,NaN,clock,boat,90,0198_rot_dnn_90_boat_20_n03662601_6832.png,n03662601_6832.png,0.0,2.5276158,4.2751837,-1.2357172
bagnet33,1,199,NaN,oven,oven,270,0199_rot_dnn_270_oven_20_n04111531_766.png,n04111531_766.png,1.0,11.494362,5.554049,4.2004356
bagnet33,1,200,NaN,clock,clock,0,0200_rot_dnn_0_clock_20_n04548280_1305.png,n04548280_1305.png,1.0,6.7127004,5.0317783,1.1885914
bagnet33,1,201,NaN,bicycle,bicycle,0,0201_rot_dnn_0_bicycle_20_n03792782_19083.png,n03792782_19083.png,1.0,14.216798,3.8795335,7.30955
bagnet33,1,202,NaN,elephant,bird,90,0202_rot_dnn_90_bird_20_n01860187_20081.png,n01860187_20081.png,0.0,2.148276,3.6299357,-1.0476916
bagnet33,1,203,NaN,oven,oven,0,0203_rot_dnn_0_oven_20_n04111531_4817.png,n04111531_4817.png,1.0,12.928304,4.622044,5.873412
bagnet33,1,204,NaN,car,car,180,0204_rot_dnn_180_car_20_n02814533_33360.png,n02814533_33360.png,1.0,8.268103,4.689269,2.5306175
bagnet33,1,205,NaN,clock,clock,270,0205_rot_dnn_270_clock_20_n04548280_4035.png,n04548280_4035.png,1.0,21.510084,5.8099513,11.10167
bagnet33,1,206,NaN,keyboard,keyboard,270,0206_rot_dnn_270_keyboard_20_n03085013_7879.png,n03085013_7879.png,1.0,13.835912,7.117702,4.7504916
bagnet33,1,207,NaN,airplane,airplane,0,0207_rot_dnn_0_airplane_20_n02690373_2598.png,n02690373_2598.png,1.0,16.450232,6.5695915,6.9866676
bagnet33,1,208,NaN,cat,cat,180,0208_rot_dnn_180_cat_20_n02123045_436.png,n02123045_436.png,1.0,11.984828,3.8284564,5.767426
bagnet33,1,209,NaN,knife,airplane,270,0209_rot_dnn_270_airplane_20_n02690373_813.png,n02690373_813.png,0.0,2.9064245,4.407824,-1.0616498
bagnet33,1,210,NaN,cat,cat,0,0210_rot_dnn_0_cat_20_n02123159_1008.png,n02123159_1008.png,1.0,36.00409,10.013234,18.378311
bagnet33,1,211,NaN,bottle,bottle,90,0211_rot_dnn_90_bottle_20_n03983396_5452.png,n03983396_5452.png,1.0,9.323732,4.1970286,3.625127
bagnet33,1,212,NaN,knife,dog,90,0212_rot_dnn_90_dog_20_n02090379_13010.png,n02090379_13010.png,0.0,1.673118,4.423345,-1.9447042
bagnet33,1,213,NaN,airplane,chair,180,0213_rot_dnn_180_chair_20_n04099969_4162.png,n04099969_4162.png,0.0,4.1804175,5.997958,-1.2851954
bagnet33,1,214,NaN,keyboard,keyboard,270,0214_rot_dnn_270_keyboard_20_n04505470_206.png,n04505470_206.png,1.0,10.848782,4.425934,4.5416393
bagnet33,1,215,NaN,cat,cat,0,0215_rot_dnn_0_cat_20_n02123045_5290.png,n02123045_5290.png,1.0,8.3844595,7.4720764,0.6451523
bagnet33,1,216,NaN,oven,bird,180,0216_rot_dnn_180_bird_20_n01843383_6001.png,n01843383_6001.png,0.0,-1.6458521,6.286623,-5.609107
bagnet33,1,217,NaN,knife,knife,0,0217_rot_dnn_0_knife_20_n03041632_24376.png,n03041632_24376.png,1.0,4.3771105,3.2462955,0.799607
bagnet33,1,218,NaN,bicycle,bicycle,90,0218_rot_dnn_90_bicycle_20_n02835271_2915.png,n02835271_2915.png,1.0,8.28607,3.820468,3.1576574
bagnet33,1,219,NaN,bicycle,bicycle,0,0219_rot_dnn_0_bicycle_20_n03792782_5517.png,n03792782_5517.png,1.0,33.627113,8.571477,17.71701
bagnet33,1,220,NaN,bicycle,bicycle,90,0220_rot_dnn_90_bicycle_20_n02835271_7053.png,n02835271_7053.png,1.0,16.576382,4.3224597,8.664831
bagnet33,1,221,NaN,clock,clock,180,0221_rot_dnn_180_clock_20_n04548280_7115.png,n04548280_7115.png,1.0,8.788692,3.819187,3.5139709
bagnet33,1,222,NaN,knife,boat,270,0222_rot_dnn_270_boat_20_n04273569_29866.png,n04273569_29866.png,0.0,3.1493986,4.4348664,-0.9089631
bagnet33,1,223,NaN,clock,clock,90,0223_rot_dnn_90_clock_20_n02708093_3623.png,n02708093_3623.png,1.0,33.806473,14.220179,13.849602
bagnet33,1,224,NaN,cat,bear,180,0224_rot_dnn_180_bear_20_n02132136_7468.png,n02132136_7468.png,0.0,2.928355,5.1951156,-1.6028419
bagnet33,1,225,NaN,cat,cat,0,0225_rot_dnn_0_cat_20_n02123159_2137.png,n02123159_2137.png,1.0,13.64513,3.212879,7.3767157
bagnet33,1,226,NaN,knife,bottle,90,0226_rot_dnn_90_bottle_20_n03937543_5257.png,n03937543_5257.png,0.0,5.314196,7.3355446,-1.4293092
bagnet33,1,227,NaN,cat,cat,0,0227_rot_dnn_0_cat_20_n02123394_937.png,n02123394_937.png,1.0,6.2463174,2.8299174,2.4157596
bagnet33,1,228,NaN,airplane,boat,0,0228_rot_dnn_0_boat_20_n03662601_11764.png,n03662601_11764.png,0.0,8.299235,8.944376,-0.45618334
bagnet33,1,229,NaN,bear,bear,0,0229_rot_dnn_0_bear_20_n02132136_10412.png,n02132136_10412.png,1.0,10.893587,7.7236824,2.241461
bagnet33,1,230,NaN,clock,clock,270,0230_rot_dnn_270_clock_20_n03196217_3600.png,n03196217_3600.png,1.0,22.702156,8.527039,10.023322
bagnet33,1,231,NaN,knife,dog,270,0231_rot_dnn_270_dog_20_n02102177_255.png,n02102177_255.png,0.0,0.4034113,2.5501602,-1.5179807
bagnet33,1,232,NaN,bird,bird,270,0232_rot_dnn_270_bird_20_n01614925_1860.png,n01614925_1860.png,1.0,3.3760672,1.7166902,1.1733568
bagnet33,1,233,NaN,airplane,airplane,180,0233_rot_dnn_180_airplane_20_n02690373_1021.png,n02690373_1021.png,1.0,9.077479,3.8911865,3.6672628
bagnet33,1,234,NaN,chair,chair,180,0234_rot_dnn_180_chair_20_n03376595_9079.png,n03376595_9079.png,1.0,7.087747,5.9214177,0.8247194
bagnet33,1,235,NaN,chair,chair,90,0235_rot_dnn_90_chair_20_n02791124_5199.png,n02791124_5199.png,1.0,7.4063277,5.7363963,1.1808199
bagnet33,1,236,NaN,keyboard,keyboard,90,0236_rot_dnn_90_keyboard_20_n03085013_24294.png,n03085013_24294.png,1.0,9.620115,6.68959,2.0721943
bagnet33,1,237,NaN,cat,cat,0,0237_rot_dnn_0_cat_20_n02123597_13286.png,n02123597_13286.png,1.0,6.8239274,4.082325,1.9386057
bagnet33,1,238,NaN,knife,bird,180,0238_rot_dnn_180_bird_20_n01560419_17392.png,n01560419_17392.png,0.0,1.2299806,3.2184117,-1.4060332
bagnet33,1,239,NaN,oven,oven,270,0239_rot_dnn_270_oven_20_n04111531_6934.png,n04111531_6934.png,1.0,11.054784,7.1503515,2.7608507
bagnet33,1,240,NaN,bottle,clock,90,0240_rot_dnn_90_clock_20_n03196217_6707.png,n03196217_6707.png,0.0,7.8082623,7.9578104,-0.10574645
bagnet33,1,241,NaN,knife,knife,180,0241_rot_dnn_180_knife_20_n03041632_15174.png,n03041632_15174.png,1.0,8.109457,5.5496416,1.8100629
bagnet33,1,242,NaN,oven,oven,180,0242_rot_dnn_180_oven_20_n04111531_13644.png,n04111531_13644.png,1.0,13.926009,5.9454484,5.643109
bagnet33,1,243,NaN,elephant,elephant,0,0243_rot_dnn_0_elephant_20_n02504458_3458.png,n02504458_3458.png,1.0,23.716972,2.2600255,15.172353
bagnet33,1,244,NaN,clock,clock,90,0244_rot_dnn_90_clock_20_n04548280_18914.png,n04548280_18914.png,1.0,16.75184,5.641644,7.856096
bagnet33,1,245,NaN,bicycle,dog,180,0245_rot_dnn_180_dog_20_n02107908_2754.png,n02107908_2754.png,0.0,0.063924514,2.5657606,-1.7690653
bagnet33,1,246,NaN,airplane,airplane,0,0246_rot_dnn_0_airplane_20_n02690373_1306.png,n02690373_1306.png,1.0,20.662197,4.344227,11.5385475
bagnet33,1,247,NaN,chair,chair,90,0247_rot_dnn_90_chair_20_n03376595_10266.png,n03376595_10266.png,1.0,6.760169,4.2635274,1.7653923
bagnet33,1,248,NaN,keyboard,keyboard,270,0248_rot_dnn_270_keyboard_20_n04505470_1416.png,n04505470_1416.png,1.0,16.635305,7.066946,6.765852
bagnet33,1,249,NaN,clock,clock,180,0249_rot_dnn_180_clock_20_n04548280_4686.png,n04548280_4686.png,1.0,30.665955,6.4101524,17.151442
bagnet33,1,250,NaN,bottle,truck,270,0250_rot_dnn_270_truck_20_n04467665_69882.png,n04467665_69882.png,0.0,0.9244797,3.0800955,-1.5242506
bagnet33,1,251,NaN,knife,bottle,270,0251_rot_dnn_270_bottle_20_n04591713_2123.png,n04591713_2123.png,0.0,5.6392074,7.3238025,-1.1911887
bagnet33,1,252,NaN,oven,oven,90,0252_rot_dnn_90_oven_20_n04111531_6933.png,n04111531_6933.png,1.0,7.758497,4.248658,2.481831
bagnet33,1,253,NaN,knife,car,270,0253_rot_dnn_270_car_20_n03100240_8898.png,n03100240_8898.png,0.0,-2.23753,3.9419775,-4.3695717
bagnet33,1,254,NaN,elephant,elephant,180,0254_rot_dnn_180_elephant_20_n02504458_5277.png,n02504458_5277.png,1.0,16.068405,2.491491,9.600328
bagnet33,1,255,NaN,oven,truck,270,0255_rot_dnn_270_truck_20_n03417042_9967.png,n03417042_9967.png,0.0,5.213449,10.631375,-3.8310525
bagnet33,1,256,NaN,bear,bear,0,0256_rot_dnn_0_bear_20_n02134418_1017.png,n02134418_1017.png,1.0,6.4226513,4.9161873,1.065231
bagnet33,1,257,NaN,truck,airplane,90,0257_rot_dnn_90_airplane_20_n02690373_1909.png,n02690373_1909.png,0.0,3.38377,4.268054,-0.62528324
bagnet33,1,258,NaN,airplane,airplane,0,0258_rot_dnn_0_airplane_20_n02690373_6753.png,n02690373_6753.png,1.0,23.430193,7.2840624,11.417038
bagnet33,1,259,NaN,airplane,airplane,0,0259_rot_dnn_0_airplane_20_n02690373_1972.png,n02690373_1972.png,1.0,22.186764,7.1092544,10.661409
bagnet33,1,260,NaN,oven,oven,90,0260_rot_dnn_90_oven_20_n04111531_9915.png,n04111531_9915.png,1.0,6.0022335,3.6568387,1.6584446
bagnet33,1,261,NaN,elephant,elephant,270,0261_rot_dnn_270_elephant_20_n02504458_485.png,n02504458_485.png,1.0,9.524132,6.771263,1.9465722
bagnet33,1,262,NaN,elephant,elephant,180,0262_rot_dnn_180_elephant_20_n02504013_2431.png,n02504013_2431.png,1.0,19.77464,4.34793,10.908331
bagnet33,1,263,NaN,clock,clock,180,0263_rot_dnn_180_clock_20_n02708093_1038.png,n02708093_1038.png,1.0,20.006895,6.7420406,9.379668
bagnet33,1,264,NaN,cat,cat,270,0264_rot_dnn_270_cat_20_n02123597_5927.png,n02123597_5927.png,1.0,8.268766,4.4794416,2.6794572
bagnet33,1,265,NaN,bicycle,bicycle,90,0265_rot_dnn_90_bicycle_20_n03792782_3202.png,n03792782_3202.png,1.0,6.464899,3.693736,1.9595082
bagnet33,1,266,NaN,chair,car,270,0266_rot_dnn_270_car_20_n02814533_45480.png,n02814533_45480.png,0.0,3.3085258,6.4660606,-2.2327144
bagnet33,1,267,NaN,truck,truck,90,0267_rot_dnn_90_truck_20_n03796401_4571.png,n03796401_4571.png,1.0,8.024746,5.7529335,1.606414
bagnet33,1,268,NaN,oven,oven,90,0268_rot_dnn_90_oven_20_n04111531_21011.png,n04111531_21011.png,1.0,12.769227,8.346694,3.1272032
bagnet33,1,269,NaN,airplane,airplane,0,0269_rot_dnn_0_airplane_20_n02690373_4310.png,n02690373_4310.png,1.0,23.005651,4.6791997,12.958759
bagnet33,1,270,NaN,oven,oven,0,0270_rot_dnn_0_oven_20_n04111531_7134.png,n04111531_7134.png,1.0,9.436261,5.642329,2.6827152
bagnet33,1,271,NaN,cat,dog,270,0271_rot_dnn_270_dog_20_n02105251_1092.png,n02105251_1092.png,0.0,3.7150288,6.2572246,-1.797604
bagnet33,1,272,NaN,knife,knife,180,0272_rot_dnn_180_knife_20_n03041632_34505.png,n03041632_34505.png,1.0,4.54537,2.8168595,1.2222416
bagnet33,1,273,NaN,keyboard,keyboard,90,0273_rot_dnn_90_keyboard_20_n04505470_4520.png,n04505470_4520.png,1.0,10.683552,5.5220494,3.6497333
bagnet33,1,274,NaN,airplane,boat,180,0274_rot_dnn_180_boat_20_n03344393_1519.png,n03344393_1519.png,0.0,2.0448403,5.2948823,-2.2981267
bagnet33,1,275,NaN,chair,chair,270,0275_rot_dnn_270_chair_20_n03376595_9535.png,n03376595_9535.png,1.0,5.333702,4.895009,0.31020284
bagnet33,1,276,NaN,oven,cat,270,0276_rot_dnn_270_cat_20_n02125311_1326.png,n02125311_1326.png,0.0,1.2330561,3.4880362,-1.5945117
bagnet33,1,277,NaN,cat,cat,90,0277_rot_dnn_90_cat_20_n02123394_2948.png,n02123394_2948.png,1.0,5.583287,3.0257885,1.8084244
bagnet33,1,278,NaN,oven,oven,270,0278_rot_dnn_270_oven_20_n04111531_5429.png,n04111531_5429.png,1.0,9.318857,4.3809085,3.491657
bagnet33,1,279,NaN,elephant,elephant,0,0279_rot_dnn_0_elephant_20_n02504013_6645.png,n02504013_6645.png,1.0,4.2831554,3.7716112,0.3617164
bagnet33,1,280,NaN,oven,keyboard,90,0280_rot_dnn_90_keyboard_20_n04505470_4159.png,n04505470_4159.png,0.0,3.465702,7.284871,-2.7005603
bagnet33,1,281,NaN,knife,bottle,90,0281_rot_dnn_90_bottle_20_n02823428_6252.png,n02823428_6252.png,0.0,5.0796666,6.1715283,-0.77206284
bagnet33,1,282,NaN,airplane,airplane,180,0282_rot_dnn_180_airplane_20_n02690373_15097.png,n02690373_15097.png,1.0,9.443067,3.5692139,4.153441
bagnet33,1,283,NaN,clock,cat,0,0283_rot_dnn_0_cat_20_n02123159_3420.png,n02123159_3420.png,0.0,-1.1501998,6.4740157,-5.3911347
bagnet33,1,284,NaN,elephant,cat,0,0284_rot_dnn_0_cat_20_n02124075_7835.png,n02124075_7835.png,0.0,4.2331614,4.4407306,-0.14677353
bagnet33,1,285,NaN,cat,cat,90,0285_rot_dnn_90_cat_20_n02123045_6696.png,n02123045_6696.png,1.0,4.1374526,2.9060514,0.8707321
bagnet33,1,286,NaN,bicycle,boat,180,0286_rot_dnn_180_boat_20_n02951358_34766.png,n02951358_34766.png,0.0,0.9108734,4.6479325,-2.6425
bagnet33,1,287,NaN,airplane,bird,0,0287_rot_dnn_0_bird_20_n01855672_8191.png,n01855672_8191.png,0.0,-0.3580519,4.4748907,-3.4174066
bagnet33,1,288,NaN,airplane,truck,180,0288_rot_dnn_180_truck_20_n03796401_1150.png,n03796401_1150.png,0.0,5.2198153,11.2843485,-4.288273
bagnet33,1,289,NaN,bicycle,bicycle,270,0289_rot_dnn_270_bicycle_20_n03792782_9782.png,n03792782_9782.png,1.0,5.1951714,3.270665,1.3608316
bagnet33,1,290,NaN,knife,boat,270,0290_rot_dnn_270_boat_20_n03662601_12969.png,n03662601_12969.png,0.0,-0.3325389,3.348905,-2.603174
bagnet33,1,291,NaN,clock,bottle,180,0291_rot_dnn_180_bottle_20_n02823428_4530.png,n02823428_4530.png,0.0,4.811553,7.3388047,-1.7870369
bagnet33,1,292,NaN,car,chair,0,0292_rot_dnn_0_chair_20_n02791124_2898.png,n02791124_2898.png,0.0,6.6629868,9.884641,-2.2780533
bagnet33,1,293,NaN,cat,cat,270,0293_rot_dnn_270_cat_20_n02123394_686.png,n02123394_686.png,1.0,6.9716163,4.4215817,1.8031467
bagnet33,1,294,NaN,cat,dog,180,0294_rot_dnn_180_dog_20_n02100735_4364.png,n02100735_4364.png,0.0,4.0091867,4.4030366,-0.2784939
bagnet33,1,295,NaN,dog,dog,0,0295_rot_dnn_0_dog_20_n02102177_7968.png,n02102177_7968.png,1.0,10.733789,7.113653,2.559823
bagnet33,1,296,NaN,knife,knife,270,0296_rot_dnn_270_knife_20_n03041632_15099.png,n03041632_15099.png,1.0,3.7329454,3.6283224,0.07397969
bagnet33,1,297,NaN,oven,oven,180,0297_rot_dnn_180_oven_20_n04111531_2937.png,n04111531_2937.png,1.0,13.997563,6.401556,5.371188
bagnet33,1,298,NaN,cat,cat,0,0298_rot_dnn_0_cat_20_n02123394_3695.png,n02123394_3695.png,1.0,8.411103,2.9148364,3.8864477
bagnet33,1,299,NaN,knife,bear,180,0299_rot_dnn_180_bear_20_n02134084_3696.png,n02134084_3696.png,0.0,-2.3373873,2.3929083,-3.344824
bagnet33,1,300,NaN,oven,oven,270,0300_rot_dnn_270_oven_20_n04111531_4671.png,n04111531_4671.png,1.0,3.250381,3.0850363,0.11691637
bagnet33,1,301,NaN,elephant,bear,180,0301_rot_dnn_180_bear_20_n02133161_2741.png,n02133161_2741.png,0.0,2.8907793,3.84963,-0.67801
bagnet33,1,302,NaN,clock,boat,90,0302_rot_dnn_90_boat_20_n03662601_3893.png,n03662601_3893.png,0.0,2.5225854,5.4908524,-2.0988817
bagnet33,1,303,NaN,bicycle,boat,90,0303_rot_dnn_90_boat_20_n03344393_2790.png,n03344393_2790.png,0.0,2.9092088,4.7213936,-1.2814082
bagnet33,1,304,NaN,keyboard,keyboard,180,0304_rot_dnn_180_keyboard_20_n03085013_3920.png,n03085013_3920.png,1.0,15.998493,7.811318,5.7892075
bagnet33,1,305,NaN,knife,chair,90,0305_rot_dnn_90_chair_20_n04099969_1962.png,n04099969_1962.png,0.0,4.875637,5.502678,-0.44338486
bagnet33,1,306,NaN,knife,knife,0,0306_rot_dnn_0_knife_20_n03041632_13846.png,n03041632_13846.png,1.0,7.711897,5.0241027,1.9005575
bagnet33,1,307,NaN,airplane,boat,0,0307_rot_dnn_0_boat_20_n02951358_30117.png,n02951358_30117.png,0.0,3.4331226,5.9960747,-1.8122808
bagnet33,1,308,NaN,elephant,elephant,270,0308_rot_dnn_270_elephant_20_n02504458_9922.png,n02504458_9922.png,1.0,6.8087025,3.470352,2.3605704
bagnet33,1,309,NaN,airplane,boat,180,0309_rot_dnn_180_boat_20_n03344393_5609.png,n03344393_5609.png,0.0,3.9803863,8.167759,-2.9609196
bagnet33,1,310,NaN,chair,chair,0,0310_rot_dnn_0_chair_20_n02791124_3180.png,n02791124_3180.png,1.0,6.6034365,4.836791,1.249207
bagnet33,1,311,NaN,knife,boat,90,0311_rot_dnn_90_boat_20_n02951358_12532.png,n02951358_12532.png,0.0,0.36961895,4.6525073,-3.0284595
bagnet33,1,312,NaN,cat,cat,180,0312_rot_dnn_180_cat_20_n02123597_1901.png,n02123597_1901.png,1.0,8.180291,2.354014,4.1198
bagnet33,1,313,NaN,oven,elephant,270,0313_rot_dnn_270_elephant_20_n02504013_5173.png,n02504013_5173.png,0.0,2.6369147,4.061888,-1.0076084
bagnet33,1,314,NaN,airplane,car,180,0314_rot_dnn_180_car_20_n04285008_4834.png,n04285008_4834.png,0.0,12.885007,12.92521,-0.028427882
bagnet33,1,315,NaN,truck,truck,270,0315_rot_dnn_270_truck_20_n03417042_28584.png,n03417042_28584.png,1.0,12.562881,8.228627,3.0647807
bagnet33,1,316,NaN,elephant,dog,180,0316_rot_dnn_180_dog_20_n02093428_11151.png,n02093428_11151.png,0.0,4.0985947,4.835887,-0.52134436
bagnet33,1,317,NaN,airplane,bicycle,90,0317_rot_dnn_90_bicycle_20_n03792782_1475.png,n03792782_1475.png,0.0,2.948331,3.8084927,-0.60822606
bagnet33,1,318,NaN,knife,knife,0,0318_rot_dnn_0_knife_20_n03041632_8666.png,n03041632_8666.png,1.0,8.173758,6.1180716,1.4535896
bagnet33,1,319,NaN,clock,clock,0,0319_rot_dnn_0_clock_20_n04548280_253.png,n04548280_253.png,1.0,6.179259,4.5329323,1.1641287
bagnet33,1,320,NaN,airplane,airplane,180,0320_rot_dnn_180_airplane_20_n02690373_9441.png,n02690373_9441.png,1.0,18.59209,5.8210735,9.030473
bagnet33,1,321,NaN,airplane,airplane,270,0321_rot_dnn_270_airplane_20_n02690373_1946.png,n02690373_1946.png,1.0,5.355598,4.298335,0.74759775
bagnet33,1,322,NaN,car,car,90,0322_rot_dnn_90_car_20_n03100240_5044.png,n03100240_5044.png,1.0,7.5173454,4.9963427,1.7826182
bagnet33,1,323,NaN,cat,dog,270,0323_rot_dnn_270_dog_20_n02111500_6559.png,n02111500_6559.png,0.0,3.5655677,4.536918,-0.68684846
bagnet33,1,324,NaN,bear,dog,270,0324_rot_dnn_270_dog_20_n02096051_1852.png,n02096051_1852.png,0.0,0.19527991,3.4253051,-2.2839727
bagnet33,1,325,NaN,elephant,bear,270,0325_rot_dnn_270_bear_20_n02133161_5020.png,n02133161_5020.png,0.0,1.2310303,3.0283499,-1.2708968
bagnet33,1,326,NaN,oven,chair,90,0326_rot_dnn_90_chair_20_n02791124_2034.png,n02791124_2034.png,0.0,6.5459175,7.927327,-0.97680414
bagnet33,1,327,NaN,clock,clock,180,0327_rot_dnn_180_clock_20_n03196217_6526.png,n03196217_6526.png,1.0,18.336035,9.163191,6.4861803
bagnet33,1,328,NaN,airplane,oven,180,0328_rot_dnn_180_oven_20_n04111531_9779.png,n04111531_9779.png,0.0,7.7617435,10.618269,-2.0198686
bagnet33,1,329,NaN,boat,boat,0,0329_rot_dnn_0_boat_20_n03662601_28640.png,n03662601_28640.png,1.0,5.763424,4.345766,1.0024354
bagnet33,1,330,NaN,knife,knife,90,0330_rot_dnn_90_knife_20_n03041632_31301.png,n03041632_31301.png,1.0,10.398529,3.08661,5.1703076
bagnet33,1,331,NaN,keyboard,keyboard,90,0331_rot_dnn_90_keyboard_20_n03085013_9209.png,n03085013_9209.png,1.0,31.681528,6.2654557,17.971878
bagnet33,1,332,NaN,elephant,elephant,90,0332_rot_dnn_90_elephant_20_n02504458_113.png,n02504458_113.png,1.0,2.264217,1.4649355,0.56517726
bagnet33,1,333,NaN,bicycle,bicycle,180,0333_rot_dnn_180_bicycle_20_n03792782_6058.png,n03792782_6058.png,1.0,4.3875723,1.6395751,1.9431275
bagnet33,1,334,NaN,keyboard,keyboard,0,0334_rot_dnn_0_keyboard_20_n04505470_4651.png,n04505470_4651.png,1.0,31.242184,14.477713,11.854271
bagnet33,1,335,NaN,keyboard,keyboard,180,0335_rot_dnn_180_keyboard_20_n03085013_7009.png,n03085013_7009.png,1.0,4.8050346,3.9242997,0.62277365
bagnet33,1,336,NaN,truck,truck,270,0336_rot_dnn_270_truck_20_n04467665_44390.png,n04467665_44390.png,1.0,6.656391,5.55717,0.7772668
bagnet33,1,337,NaN,knife,boat,90,0337_rot_dnn_90_boat_20_n04273569_17340.png,n04273569_17340.png,0.0,2.0460775,3.8560858,-1.2798692
bagnet33,1,338,NaN,elephant,elephant,0,0338_rot_dnn_0_elephant_20_n02504013_1333.png,n02504013_1333.png,1.0,17.756485,4.4045324,9.4412565
bagnet33,1,339,NaN,knife,knife,270,0339_rot_dnn_270_knife_20_n03041632_50034.png,n03041632_50034.png,1.0,10.16481,4.444614,4.04479
bagnet33,1,340,NaN,clock,clock,90,0340_rot_dnn_90_clock_20_n02708093_2740.png,n02708093_2740.png,1.0,10.452588,5.1638174,3.7397256
bagnet33,1,341,NaN,bear,bear,0,0341_rot_dnn_0_bear_20_n02132136_13975.png,n02132136_13975.png,1.0,13.150246,7.933141,3.68905
bagnet33,1,342,NaN,elephant,elephant,90,0342_rot_dnn_90_elephant_20_n02504013_256.png,n02504013_256.png,1.0,4.2457314,2.8667667,0.9750753
bagnet33,1,343,NaN,airplane,boat,90,0343_rot_dnn_90_boat_20_n03344393_6588.png,n03344393_6588.png,0.0,2.9151292,5.995344,-2.178041
bagnet33,1,344,NaN,knife,knife,270,0344_rot_dnn_270_knife_20_n03041632_7173.png,n03041632_7173.png,1.0,3.0134363,2.6967824,0.22390817
bagnet33,1,345,NaN,boat,elephant,180,0345_rot_dnn_180_elephant_20_n02504458_1041.png,n02504458_1041.png,0.0,2.0578508,4.8335357,-1.9627056
bagnet33,1,346,NaN,chair,chair,180,0346_rot_dnn_180_chair_20_n04099969_8021.png,n04099969_8021.png,1.0,7.9910808,4.044496,2.7906568
bagnet33,1,347,NaN,truck,truck,0,0347_rot_dnn_0_truck_20_n03796401_1791.png,n03796401_1791.png,1.0,11.697426,7.8801093,2.6992505
bagnet33,1,348,NaN,keyboard,keyboard,90,0348_rot_dnn_90_keyboard_20_n04505470_5007.png,n04505470_5007.png,1.0,10.774992,8.455821,1.6399015
bagnet33,1,349,NaN,keyboard,truck,180,0349_rot_dnn_180_truck_20_n03417042_29384.png,n03417042_29384.png,0.0,5.562485,5.628691,-0.0468147
bagnet33,1,350,NaN,oven,bird,90,0350_rot_dnn_90_bird_20_n01534433_1271.png,n01534433_1271.png,0.0,0.1777668,4.7764807,-3.251782
bagnet33,1,351,NaN,dog,dog,270,0351_rot_dnn_270_dog_20_n02113624_393.png,n02113624_393.png,1.0,8.094911,5.284517,1.9872485
bagnet33,1,352,NaN,cat,cat,90,0352_rot_dnn_90_cat_20_n02123159_5461.png,n02123159_5461.png,1.0,5.7851577,3.0512393,1.9331723
bagnet33,1,353,NaN,knife,knife,270,0353_rot_dnn_270_knife_20_n03041632_9759.png,n03041632_9759.png,1.0,4.962941,3.0680742,1.3398733
bagnet33,1,354,NaN,clock,chair,90,0354_rot_dnn_90_chair_20_n04429376_1754.png,n04429376_1754.png,0.0,3.0336142,5.542088,-1.7737589
bagnet33,1,355,NaN,chair,oven,90,0355_rot_dnn_90_oven_20_n04111531_1818.png,n04111531_1818.png,0.0,3.515275,5.2347198,-1.215831
bagnet33,1,356,NaN,clock,clock,0,0356_rot_dnn_0_clock_20_n04548280_5798.png,n04548280_5798.png,1.0,10.98253,3.2287335,5.482762
bagnet33,1,357,NaN,airplane,oven,90,0357_rot_dnn_90_oven_20_n04111531_3099.png,n04111531_3099.png,0.0,6.5291433,9.427247,-2.0492687
bagnet33,1,358,NaN,bottle,bottle,270,0358_rot_dnn_270_bottle_20_n04557648_581.png,n04557648_581.png,1.0,10.505655,5.7360864,3.3725946
bagnet33,1,359,NaN,bicycle,bird,0,0359_rot_dnn_0_bird_20_n01531178_3183.png,n01531178_3183.png,0.0,2.4509296,2.4609873,-0.0071118595
bagnet33,1,360,NaN,airplane,airplane,90,0360_rot_dnn_90_airplane_20_n02690373_8872.png,n02690373_8872.png,1.0,7.1402483,6.141083,0.70651674
bagnet33,1,361,NaN,dog,cat,0,0361_rot_dnn_0_cat_20_n02123394_5301.png,n02123394_5301.png,0.0,3.0504644,4.255152,-0.85184294
bagnet33,1,362,NaN,bicycle,bicycle,270,0362_rot_dnn_270_bicycle_20_n03792782_12844.png,n03792782_12844.png,1.0,6.9335117,2.3664815,3.229378
bagnet33,1,363,NaN,bear,bear,90,0363_rot_dnn_90_bear_20_n02132136_2691.png,n02132136_2691.png,1.0,6.6965933,6.6918497,0.0033542148
bagnet33,1,364,NaN,car,car,0,0364_rot_dnn_0_car_20_n02814533_27327.png,n02814533_27327.png,1.0,10.465382,10.25366,0.14970966
bagnet33,1,365,NaN,bicycle,bird,0,0365_rot_dnn_0_bird_20_n02027492_7653.png,n02027492_7653.png,0.0,1.9938664,2.8173542,-0.5822938
bagnet33,1,366,NaN,elephant,bear,0,0366_rot_dnn_0_bear_20_n02133161_62.png,n02133161_62.png,0.0,6.534584,7.0217705,-0.34449282
bagnet33,1,367,NaN,bottle,bottle,0,0367_rot_dnn_0_bottle_20_n04560804_9710.png,n04560804_9710.png,1.0,7.7079396,3.703671,2.8314455
bagnet33,1,368,NaN,clock,clock,180,0368_rot_dnn_180_clock_20_n04548280_15154.png,n04548280_15154.png,1.0,11.776283,4.274555,5.304523
bagnet33,1,369,NaN,oven,oven,180,0369_rot_dnn_180_oven_20_n04111531_114.png,n04111531_114.png,1.0,8.482661,4.037885,3.1429315
bagnet33,1,370,NaN,cat,cat,180,0370_rot_dnn_180_cat_20_n02125311_24813.png,n02125311_24813.png,1.0,9.052297,3.818917,3.7005582
bagnet33,1,371,NaN,airplane,airplane,90,0371_rot_dnn_90_airplane_20_n02690373_7647.png,n02690373_7647.png,1.0,6.5325174,4.9962645,1.0862949
bagnet33,1,372,NaN,bottle,bottle,0,0372_rot_dnn_0_bottle_20_n03983396_9823.png,n03983396_9823.png,1.0,14.733583,5.08704,6.8211365
bagnet33,1,373,NaN,elephant,bear,0,0373_rot_dnn_0_bear_20_n02134418_2398.png,n02134418_2398.png,0.0,2.9820087,4.559768,-1.1156445
bagnet33,1,374,NaN,clock,keyboard,90,0374_rot_dnn_90_keyboard_20_n04505470_4584.png,n04505470_4584.png,0.0,5.9293227,11.500453,-3.939384
bagnet33,1,375,NaN,keyboard,keyboard,0,0375_rot_dnn_0_keyboard_20_n04505470_10055.png,n04505470_10055.png,1.0,11.114825,5.956632,3.6473935
bagnet33,1,376,NaN,bear,boat,270,0376_rot_dnn_270_boat_20_n04273569_10980.png,n04273569_10980.png,0.0,1.0219077,4.350959,-2.3539946
bagnet33,1,377,NaN,car,car,180,0377_rot_dnn_180_car_20_n03100240_16210.png,n03100240_16210.png,1.0,15.278277,11.291857,2.818825
bagnet33,1,378,NaN,keyboard,keyboard,0,0378_rot_dnn_0_keyboard_20_n04505470_1067.png,n04505470_1067.png,1.0,60.741062,20.362505,28.55195
bagnet33,1,379,NaN,elephant,elephant,0,0379_rot_dnn_0_elephant_20_n02504458_7867.png,n02504458_7867.png,1.0,16.299664,2.5003777,9.757568
bagnet33,1,380,NaN,clock,keyboard,180,0380_rot_dnn_180_keyboard_20_n04505470_807.png,n04505470_807.png,0.0,35.434063,43.213043,-5.50057
bagnet33,1,381,NaN,bicycle,bicycle,270,0381_rot_dnn_270_bicycle_20_n02835271_24104.png,n02835271_24104.png,1.0,10.279249,4.025165,4.4223056
bagnet33,1,382,NaN,bottle,bottle,0,0382_rot_dnn_0_bottle_20_n03937543_6698.png,n03937543_6698.png,1.0,5.246262,2.6898313,1.8076696
bagnet33,1,383,NaN,bicycle,oven,0,0383_rot_dnn_0_oven_20_n04111531_10403.png,n04111531_10403.png,0.0,4.3513756,6.7219334,-1.6762375
bagnet33,1,384,NaN,truck,truck,0,0384_rot_dnn_0_truck_20_n03796401_8463.png,n03796401_8463.png,1.0,21.249332,12.063517,6.4953527
bagnet33,1,385,NaN,truck,truck,0,0385_rot_dnn_0_truck_20_n03796401_8176.png,n03796401_8176.png,1.0,9.91354,5.701419,2.9784193
bagnet33,1,386,NaN,knife,bottle,90,0386_rot_dnn_90_bottle_20_n03937543_984.png,n03937543_984.png,0.0,4.2111306,7.441964,-2.2845442
bagnet33,1,387,NaN,bicycle,bicycle,90,0387_rot_dnn_90_bicycle_20_n02835271_11697.png,n02835271_11697.png,1.0,7.322506,4.0624514,2.3052068
bagnet33,1,388,NaN,keyboard,keyboard,270,0388_rot_dnn_270_keyboard_20_n03085013_22417.png,n03085013_22417.png,1.0,9.563115,8.437934,0.79562324
bagnet33,1,389,NaN,truck,car,270,0389_rot_dnn_270_car_20_n03100240_7602.png,n03100240_7602.png,0.0,9.365366,9.449843,-0.05973456
bagnet33,1,390,NaN,bird,bird,90,0390_rot_dnn_90_bird_20_n01534433_14389.png,n01534433_14389.png,1.0,2.6548226,1.66624,0.6990335
bagnet33,1,391,NaN,cat,bear,0,0391_rot_dnn_0_bear_20_n02134084_2598.png,n02134084_2598.png,0.0,5.4711485,7.5434737,-1.4653553
bagnet33,1,392,NaN,bicycle,bird,180,0392_rot_dnn_180_bird_20_n01560419_19599.png,n01560419_19599.png,0.0,1.3094778,2.7541919,-1.0215671
bagnet33,1,393,NaN,bicycle,bicycle,90,0393_rot_dnn_90_bicycle_20_n02835271_8747.png,n02835271_8747.png,1.0,8.201696,4.5883517,2.5550206
bagnet33,1,394,NaN,knife,knife,180,0394_rot_dnn_180_knife_20_n03041632_30821.png,n03041632_30821.png,1.0,6.083829,4.671026,0.9990024
bagnet33,1,395,NaN,chair,chair,270,0395_rot_dnn_270_chair_20_n03376595_209.png,n03376595_209.png,1.0,4.908249,3.7574277,0.8137535
bagnet33,1,396,NaN,airplane,boat,180,0396_rot_dnn_180_boat_20_n04273569_29113.png,n04273569_29113.png,0.0,2.3890781,4.5582385,-1.533828
bagnet33,1,397,NaN,chair,bird,270,0397_rot_dnn_270_bird_20_n02006656_6435.png,n02006656_6435.png,0.0,1.0458652,3.533835,-1.7592604
bagnet33,1,398,NaN,chair,airplane,90,0398_rot_dnn_90_airplane_20_n02690373_3492.png,n02690373_3492.png,0.0,1.4376531,5.1042366,-2.5926661
bagnet33,1,399,NaN,oven,oven,270,0399_rot_dnn_270_oven_20_n04111531_9380.png,n04111531_9380.png,1.0,10.560201,2.380493,5.783927
bagnet33,1,400,NaN,oven,keyboard,270,0400_rot_dnn_270_keyboard_20_n04505470_510.png,n04505470_510.png,0.0,8.112888,8.952963,-0.5940224
bagnet33,1,401,NaN,bicycle,bird,180,0401_rot_dnn_180_bird_20_n02027492_20576.png,n02027492_20576.png,0.0,0.32155368,1.7253227,-0.9926146
bagnet33,1,402,NaN,knife,bird,90,0402_rot_dnn_90_bird_20_n01855032_1920.png,n01855032_1920.png,0.0,-1.9188241,5.2122583,-5.042437
bagnet33,1,403,NaN,airplane,boat,180,0403_rot_dnn_180_boat_20_n04273569_15761.png,n04273569_15761.png,0.0,3.348431,5.3576775,-1.4207517
bagnet33,1,404,NaN,oven,oven,180,0404_rot_dnn_180_oven_20_n04111531_10667.png,n04111531_10667.png,1.0,14.682491,3.7885194,7.703202
bagnet33,1,405,NaN,knife,knife,270,0405_rot_dnn_270_knife_20_n03041632_36215.png,n03041632_36215.png,1.0,9.869055,4.370647,3.8879616
bagnet33,1,406,NaN,bicycle,bicycle,180,0406_rot_dnn_180_bicycle_20_n02835271_2625.png,n02835271_2625.png,1.0,12.31879,4.6243014,5.4408255
bagnet33,1,407,NaN,elephant,bird,270,0407_rot_dnn_270_bird_20_n02028035_20411.png,n02028035_20411.png,0.0,0.71614456,2.1226082,-0.99452
bagnet33,1,408,NaN,oven,knife,0,0408_rot_dnn_0_knife_20_n03041632_25656.png,n03041632_25656.png,0.0,6.1323833,6.5564117,-0.29983336
bagnet33,1,409,NaN,oven,oven,270,0409_rot_dnn_270_oven_20_n04111531_4332.png,n04111531_4332.png,1.0,6.5688295,3.3753757,2.258113
bagnet33,1,410,NaN,keyboard,keyboard,180,0410_rot_dnn_180_keyboard_20_n04505470_3553.png,n04505470_3553.png,1.0,12.970114,9.174765,2.6837173
bagnet33,1,411,NaN,bicycle,bicycle,180,0411_rot_dnn_180_bicycle_20_n02835271_18706.png,n02835271_18706.png,1.0,9.5876255,7.2013235,1.6873703
bagnet33,1,412,NaN,oven,truck,270,0412_rot_dnn_270_truck_20_n03417042_10744.png,n03417042_10744.png,0.0,7.1015415,7.1675844,-0.046699382
bagnet33,1,413,NaN,clock,clock,0,0413_rot_dnn_0_clock_20_n03196217_11724.png,n03196217_11724.png,1.0,20.73208,7.139401,9.611476
bagnet33,1,414,NaN,bicycle,bicycle,270,0414_rot_dnn_270_bicycle_20_n02835271_14123.png,n02835271_14123.png,1.0,8.342848,5.9238005,1.7105248
bagnet33,1,415,NaN,bicycle,bicycle,270,0415_rot_dnn_270_bicycle_20_n02835271_7900.png,n02835271_7900.png,1.0,3.9057703,3.3318624,0.40581414
bagnet33,1,416,NaN,truck,truck,270,0416_rot_dnn_270_truck_20_n03417042_2153.png,n03417042_2153.png,1.0,5.975691,5.0504103,0.6542722
bagnet33,1,417,NaN,bear,bicycle,270,0417_rot_dnn_270_bicycle_20_n03792782_10129.png,n03792782_10129.png,0.0,1.2967279,3.054013,-1.2425883
bagnet33,1,418,NaN,cat,bird,180,0418_rot_dnn_180_bird_20_n01514859_18430.png,n01514859_18430.png,0.0,2.714034,2.9741056,-0.18389833
bagnet33,1,419,NaN,chair,chair,0,0419_rot_dnn_0_chair_20_n04099969_5010.png,n04099969_5010.png,1.0,10.135593,7.367093,1.9576254
bagnet33,1,420,NaN,chair,truck,0,0420_rot_dnn_0_truck_20_n03796401_588.png,n03796401_588.png,0.0,6.146795,6.590327,-0.31362447
bagnet33,1,421,NaN,car,car,0,0421_rot_dnn_0_car_20_n02814533_486.png,n02814533_486.png,1.0,21.09131,14.580118,4.6041083
bagnet33,1,422,NaN,elephant,elephant,90,0422_rot_dnn_90_elephant_20_n02504013_3540.png,n02504013_3540.png,1.0,4.4766245,1.7859366,1.9026037
bagnet33,1,423,NaN,car,car,180,0423_rot_dnn_180_car_20_n02814533_55715.png,n02814533_55715.png,1.0,9.006192,6.5914326,1.707493
bagnet33,1,424,NaN,bicycle,bottle,180,0424_rot_dnn_180_bottle_20_n03983396_10896.png,n03983396_10896.png,0.0,4.732097,5.8410387,-0.7841401
bagnet33,1,425,NaN,bottle,bottle,90,0425_rot_dnn_90_bottle_20_n04557648_15053.png,n04557648_15053.png,1.0,5.229009,4.8115044,0.29522046
bagnet33,1,426,NaN,car,car,0,0426_rot_dnn_0_car_20_n04285008_8281.png,n04285008_8281.png,1.0,23.900675,13.376265,7.441882
bagnet33,1,427,NaN,bottle,car,270,0427_rot_dnn_270_car_20_n02814533_38596.png,n02814533_38596.png,0.0,3.8751028,7.1194034,-2.294067
bagnet33,1,428,NaN,oven,elephant,270,0428_rot_dnn_270_elephant_20_n02504013_15219.png,n02504013_15219.png,0.0,3.5269554,3.6408057,-0.08050436
bagnet33,1,429,NaN,elephant,elephant,180,0429_rot_dnn_180_elephant_20_n02504013_828.png,n02504013_828.png,1.0,21.747938,3.4259067,12.955632
bagnet33,1,430,NaN,oven,oven,180,0430_rot_dnn_180_oven_20_n04111531_1439.png,n04111531_1439.png,1.0,11.747788,4.148701,5.3733664
bagnet33,1,431,NaN,clock,bottle,90,0431_rot_dnn_90_bottle_20_n03983396_3315.png,n03983396_3315.png,0.0,4.227771,4.2916102,-0.0451413
bagnet33,1,432,NaN,knife,airplane,90,0432_rot_dnn_90_airplane_20_n02690373_4024.png,n02690373_4024.png,0.0,4.054472,5.2119226,-0.8184412
bagnet33,1,433,NaN,oven,elephant,270,0433_rot_dnn_270_elephant_20_n02504013_10301.png,n02504013_10301.png,0.0,2.6769114,4.0155683,-0.9465734
bagnet33,1,434,NaN,oven,oven,180,0434_rot_dnn_180_oven_20_n04111531_7067.png,n04111531_7067.png,1.0,10.602713,3.6260412,4.9332514
bagnet33,1,435,NaN,knife,knife,90,0435_rot_dnn_90_knife_20_n03041632_36834.png,n03041632_36834.png,1.0,6.3613076,2.3145313,2.8615031
bagnet33,1,436,NaN,car,car,90,0436_rot_dnn_90_car_20_n02814533_18148.png,n02814533_18148.png,1.0,8.205818,7.9427423,0.1860227
bagnet33,1,437,NaN,oven,cat,90,0437_rot_dnn_90_cat_20_n02125311_41284.png,n02125311_41284.png,0.0,2.5805025,6.41984,-2.7148216
bagnet33,1,438,NaN,bicycle,bicycle,0,0438_rot_dnn_0_bicycle_20_n02835271_18188.png,n02835271_18188.png,1.0,18.010902,7.284786,7.58451
bagnet33,1,439,NaN,bottle,bottle,0,0439_rot_dnn_0_bottle_20_n04591713_2903.png,n04591713_2903.png,1.0,19.899689,6.185483,9.697408
bagnet33,1,440,NaN,knife,knife,0,0440_rot_dnn_0_knife_20_n03041632_54191.png,n03041632_54191.png,1.0,8.124177,5.155286,2.099323
bagnet33,1,441,NaN,airplane,truck,180,0441_rot_dnn_180_truck_20_n03417042_8867.png,n03417042_8867.png,0.0,5.8511024,7.577545,-1.2207794
bagnet33,1,442,NaN,oven,oven,270,0442_rot_dnn_270_oven_20_n04111531_8421.png,n04111531_8421.png,1.0,8.270254,7.3012004,0.6852245
bagnet33,1,443,NaN,elephant,elephant,270,0443_rot_dnn_270_elephant_20_n02504013_4062.png,n02504013_4062.png,1.0,7.192071,3.4053776,2.6775966
bagnet33,1,444,NaN,keyboard,keyboard,270,0444_rot_dnn_270_keyboard_20_n04505470_1649.png,n04505470_1649.png,1.0,47.492264,16.133299,22.174137
bagnet33,1,445,NaN,airplane,boat,180,0445_rot_dnn_180_boat_20_n03344393_7967.png,n03344393_7967.png,0.0,3.7481987,8.438144,-3.316292
bagnet33,1,446,NaN,bicycle,bicycle,0,0446_rot_dnn_0_bicycle_20_n02835271_10265.png,n02835271_10265.png,1.0,18.318848,6.1557446,8.600613
bagnet33,1,447,NaN,truck,bicycle,180,0447_rot_dnn_180_bicycle_20_n02835271_6742.png,n02835271_6742.png,0.0,4.0545917,5.0153027,-0.6793253
bagnet33,1,448,NaN,cat,cat,180,0448_rot_dnn_180_cat_20_n02123045_3168.png,n02123045_3168.png,1.0,6.256909,3.1981688,2.1628559
bagnet33,1,449,NaN,car,car,180,0449_rot_dnn_180_car_20_n03100240_8489.png,n03100240_8489.png,1.0,11.080541,8.509431,1.8180492
bagnet33,1,450,NaN,oven,oven,270,0450_rot_dnn_270_oven_20_n04111531_1826.png,n04111531_1826.png,1.0,7.5014315,4.903557,1.8369749
bagnet33,1,451,NaN,bear,dog,180,0451_rot_dnn_180_dog_20_n02104365_1592.png,n02104365_1592.png,0.0,5.858536,6.2773156,-0.29612207
bagnet33,1,452,NaN,clock,boat,90,0452_rot_dnn_90_boat_20_n02951358_4343.png,n02951358_4343.png,0.0,1.303257,4.202382,-2.0499911
bagnet33,1,453,NaN,bottle,bottle,0,0453_rot_dnn_0_bottle_20_n02823428_4282.png,n02823428_4282.png,1.0,16.461979,6.4639034,7.069707
bagnet33,1,454,NaN,knife,bird,0,0454_rot_dnn_0_bird_20_n01817953_2043.png,n01817953_2043.png,0.0,1.5631682,3.4450092,-1.3306626
bagnet33,1,455,NaN,clock,dog,0,0455_rot_dnn_0_dog_20_n02110958_14369.png,n02110958_14369.png,0.0,1.8047194,4.1047177,-1.6263444
bagnet33,1,456,NaN,dog,dog,270,0456_rot_dnn_270_dog_20_n02108000_1044.png,n02108000_1044.png,1.0,3.86858,3.7072208,0.114098266
bagnet33,1,457,NaN,knife,dog,270,0457_rot_dnn_270_dog_20_n02087394_1428.png,n02087394_1428.png,0.0,0.8865348,4.841812,-2.7968035
bagnet33,1,458,NaN,clock,airplane,90,0458_rot_dnn_90_airplane_20_n02690373_2856.png,n02690373_2856.png,0.0,1.124389,4.772757,-2.5797858
bagnet33,1,459,NaN,oven,chair,0,0459_rot_dnn_0_chair_20_n03376595_19165.png,n03376595_19165.png,0.0,6.660355,7.223442,-0.39816263
bagnet33,1,460,NaN,chair,chair,270,0460_rot_dnn_270_chair_20_n04099969_42125.png,n04099969_42125.png,1.0,7.432745,4.285757,2.2252564
bagnet33,1,461,NaN,bottle,bottle,270,0461_rot_dnn_270_bottle_20_n02823428_12656.png,n02823428_12656.png,1.0,11.501283,6.8845024,3.2645566
bagnet33,1,462,NaN,bicycle,bicycle,180,0462_rot_dnn_180_bicycle_20_n02835271_5861.png,n02835271_5861.png,1.0,13.370241,5.248157,5.7431808
bagnet33,1,463,NaN,airplane,airplane,90,0463_rot_dnn_90_airplane_20_n02690373_19345.png,n02690373_19345.png,1.0,10.091391,6.5544305,2.5010085
bagnet33,1,464,NaN,clock,clock,90,0464_rot_dnn_90_clock_20_n02708093_8069.png,n02708093_8069.png,1.0,27.477516,9.998756,12.35935
bagnet33,1,465,NaN,chair,chair,270,0465_rot_dnn_270_chair_20_n04099969_16.png,n04099969_16.png,1.0,3.4779751,2.4160202,0.7509156
bagnet33,1,466,NaN,dog,dog,270,0466_rot_dnn_270_dog_20_n02104365_1756.png,n02104365_1756.png,1.0,3.9968166,2.9393766,0.74772304
bagnet33,1,467,NaN,bicycle,bird,270,0467_rot_dnn_270_bird_20_n01819313_17231.png,n01819313_17231.png,0.0,0.4147315,1.6884806,-0.90067667
bagnet33,1,468,NaN,car,car,90,0468_rot_dnn_90_car_20_n02814533_34149.png,n02814533_34149.png,1.0,4.998281,4.857289,0.09969652
bagnet33,1,469,NaN,knife,knife,0,0469_rot_dnn_0_knife_20_n03041632_26053.png,n03041632_26053.png,1.0,10.161745,4.4727325,4.0227394
bagnet33,1,470,NaN,oven,oven,0,0470_rot_dnn_0_oven_20_n04111531_11287.png,n04111531_11287.png,1.0,15.6143875,6.320181,6.5719967
bagnet33,1,471,NaN,bottle,bottle,0,0471_rot_dnn_0_bottle_20_n03937543_11959.png,n03937543_11959.png,1.0,7.2817316,6.411647,0.61524284
bagnet33,1,472,NaN,airplane,airplane,270,0472_rot_dnn_270_airplane_20_n02690373_1348.png,n02690373_1348.png,1.0,5.925468,4.976251,0.67119765
bagnet33,1,473,NaN,bear,bear,0,0473_rot_dnn_0_bear_20_n02132136_5175.png,n02132136_5175.png,1.0,11.969276,10.276985,1.1966306
bagnet33,1,474,NaN,keyboard,keyboard,270,0474_rot_dnn_270_keyboard_20_n03085013_7382.png,n03085013_7382.png,1.0,5.5728064,4.749034,0.5824951
bagnet33,1,475,NaN,knife,dog,270,0475_rot_dnn_270_dog_20_n02109961_4280.png,n02109961_4280.png,0.0,2.0162816,2.23054,-0.1515036
bagnet33,1,476,NaN,oven,truck,90,0476_rot_dnn_90_truck_20_n03417042_1344.png,n03417042_1344.png,0.0,3.5199318,4.9425325,-1.0059307
bagnet33,1,477,NaN,elephant,elephant,0,0477_rot_dnn_0_elephant_20_n02504013_9299.png,n02504013_9299.png,1.0,19.410872,4.4949136,10.547175
bagnet33,1,478,NaN,bear,bear,0,0478_rot_dnn_0_bear_20_n02134418_5527.png,n02134418_5527.png,1.0,8.2250185,4.06244,2.9433875
bagnet33,1,479,NaN,keyboard,keyboard,270,0479_rot_dnn_270_keyboard_20_n03085013_23109.png,n03085013_23109.png,1.0,6.882742,6.8471975,0.025133684
bagnet33,1,480,NaN,elephant,bear,180,0480_rot_dnn_180_bear_20_n02133161_4393.png,n02133161_4393.png,0.0,4.2422194,5.5680914,-0.9375331
bagnet33,1,481,NaN,oven,oven,0,0481_rot_dnn_0_oven_20_n04111531_73.png,n04111531_73.png,1.0,9.690512,4.453296,3.7032707
bagnet33,1,482,NaN,keyboard,keyboard,0,0482_rot_dnn_0_keyboard_20_n03085013_7613.png,n03085013_7613.png,1.0,8.189533,5.7804775,1.7034596
bagnet33,1,483,NaN,oven,oven,180,0483_rot_dnn_180_oven_20_n04111531_2795.png,n04111531_2795.png,1.0,14.04479,1.7117792,8.720756
bagnet33,1,484,NaN,oven,oven,0,0484_rot_dnn_0_oven_20_n04111531_22517.png,n04111531_22517.png,1.0,13.471053,3.8133397,6.8290343
bagnet33,1,485,NaN,elephant,elephant,90,0485_rot_dnn_90_elephant_20_n02504458_2613.png,n02504458_2613.png,1.0,9.410969,7.5062695,1.3468258
bagnet33,1,486,NaN,oven,oven,180,0486_rot_dnn_180_oven_20_n04111531_9176.png,n04111531_9176.png,1.0,13.103722,5.927041,5.0746794
bagnet33,1,487,NaN,bottle,bottle,180,0487_rot_dnn_180_bottle_20_n04557648_5790.png,n04557648_5790.png,1.0,10.364214,4.0108314,4.49252
bagnet33,1,488,NaN,clock,truck,90,0488_rot_dnn_90_truck_20_n04467665_9812.png,n04467665_9812.png,0.0,5.241296,6.717381,-1.0437498
bagnet33,1,489,NaN,bottle,bottle,0,0489_rot_dnn_0_bottle_20_n04591713_7476.png,n04591713_7476.png,1.0,11.1575985,1.7871215,6.625928
bagnet33,1,490,NaN,elephant,elephant,90,0490_rot_dnn_90_elephant_20_n02504458_1567.png,n02504458_1567.png,1.0,5.0045753,3.8962963,0.7836716
bagnet33,1,491,NaN,clock,clock,90,0491_rot_dnn_90_clock_20_n04548280_6865.png,n04548280_6865.png,1.0,16.541073,8.819963,5.459649
bagnet33,1,492,NaN,bottle,bottle,180,0492_rot_dnn_180_bottle_20_n02823428_3.png,n02823428_3.png,1.0,10.749778,5.10027,3.9948056
bagnet33,1,493,NaN,knife,boat,90,0493_rot_dnn_90_boat_20_n04273569_8951.png,n04273569_8951.png,0.0,0.017532539,3.595903,-2.53029
bagnet33,1,494,NaN,knife,knife,180,0494_rot_dnn_180_knife_20_n03041632_53874.png,n03041632_53874.png,1.0,9.177589,3.4309025,4.0635214
bagnet33,1,495,NaN,clock,clock,0,0495_rot_dnn_0_clock_20_n04548280_6126.png,n04548280_6126.png,1.0,13.168502,7.819561,3.7822723
bagnet33,1,496,NaN,cat,cat,180,0496_rot_dnn_180_cat_20_n02123597_6186.png,n02123597_6186.png,1.0,10.555575,4.8190236,4.0563545
bagnet33,1,497,NaN,cat,cat,270,0497_rot_dnn_270_cat_20_n02124075_14662.png,n02124075_14662.png,1.0,6.6643715,1.9608805,3.3258705
bagnet33,1,498,NaN,car,car,90,0498_rot_dnn_90_car_20_n04285008_8677.png,n04285008_8677.png,1.0,5.2860255,4.9426985,0.24276888
bagnet33,1,499,NaN,bird,bird,90,0499_rot_dnn_90_bird_20_n01820546_2568.png,n01820546_2568.png,1.0,1.8395817,0.984794,0.6044262
bagnet33,1,500,NaN,keyboard,clock,90,0500_rot_dnn_90_clock_20_n04548280_7354.png,n04548280_7354.png,0.0,4.4211287,5.9796057,-1.1020097
bagnet33,1,501,NaN,bicycle,bicycle,270,0501_rot_dnn_270_bicycle_20_n03792782_586.png,n03792782_586.png,1.0,27.64208,10.662118,12.006646
bagnet33,1,502,NaN,cat,bear,0,0502_rot_dnn_0_bear_20_n02134084_572.png,n02134084_572.png,0.0,3.4056528,5.1303725,-1.2195611
bagnet33,1,503,NaN,clock,bicycle,270,0503_rot_dnn_270_bicycle_20_n03792782_3388.png,n03792782_3388.png,0.0,2.853427,3.8720267,-0.7202588
bagnet33,1,504,NaN,bicycle,bicycle,270,0504_rot_dnn_270_bicycle_20_n03792782_28970.png,n03792782_28970.png,1.0,27.65502,6.4117675,15.021248
bagnet33,1,505,NaN,oven,bottle,270,0505_rot_dnn_270_bottle_20_n04560804_11386.png,n04560804_11386.png,0.0,7.7119784,8.039588,-0.23165493
bagnet33,1,506,NaN,chair,chair,180,0506_rot_dnn_180_chair_20_n03376595_6799.png,n03376595_6799.png,1.0,10.124508,4.026191,4.312161
bagnet33,1,507,NaN,cat,dog,270,0507_rot_dnn_270_dog_20_n02094258_6398.png,n02094258_6398.png,0.0,5.988294,6.1697426,-0.12830344
bagnet33,1,508,NaN,bicycle,bird,0,0508_rot_dnn_0_bird_20_n01592084_2639.png,n01592084_2639.png,0.0,2.4134266,3.5793574,-0.82443756
bagnet33,1,509,NaN,bicycle,bird,180,0509_rot_dnn_180_bird_20_n02017213_4781.png,n02017213_4781.png,0.0,0.3063741,2.3422596,-1.4395885
bagnet33,1,510,NaN,chair,airplane,270,0510_rot_dnn_270_airplane_20_n02690373_3818.png,n02690373_3818.png,0.0,1.1927264,3.340186,-1.5184834
bagnet33,1,511,NaN,bicycle,bicycle,90,0511_rot_dnn_90_bicycle_20_n03792782_26383.png,n03792782_26383.png,1.0,16.025948,5.5391345,7.4152966
bagnet33,1,512,NaN,oven,oven,90,0512_rot_dnn_90_oven_20_n04111531_5216.png,n04111531_5216.png,1.0,11.306616,7.376074,2.7793128
bagnet33,1,513,NaN,airplane,airplane,180,0513_rot_dnn_180_airplane_20_n02690373_20331.png,n02690373_20331.png,1.0,11.540924,4.455019,5.010492
bagnet33,1,514,NaN,truck,truck,180,0514_rot_dnn_180_truck_20_n04467665_23691.png,n04467665_23691.png,1.0,8.480663,6.1235657,1.6667198
bagnet33,1,515,NaN,bird,bird,0,0515_rot_dnn_0_bird_20_n02009229_492.png,n02009229_492.png,1.0,7.458105,5.7119403,1.234725
bagnet33,1,516,NaN,bird,bird,90,0516_rot_dnn_90_bird_20_n02002556_5890.png,n02002556_5890.png,1.0,3.481521,2.5811722,0.63664263
bagnet33,1,517,NaN,elephant,bird,270,0517_rot_dnn_270_bird_20_n01855032_5358.png,n01855032_5358.png,0.0,-0.678071,3.5900364,-3.0180078
bagnet33,1,518,NaN,knife,dog,180,0518_rot_dnn_180_dog_20_n02112350_10026.png,n02112350_10026.png,0.0,2.3961868,5.4140835,-2.1339753
bagnet33,1,519,NaN,bottle,knife,90,0519_rot_dnn_90_knife_20_n03041632_11773.png,n03041632_11773.png,0.0,5.2305956,6.623858,-0.9851853
bagnet33,1,520,NaN,elephant,elephant,0,0520_rot_dnn_0_elephant_20_n02504013_20486.png,n02504013_20486.png,1.0,25.45617,4.5789633,14.762413
bagnet33,1,521,NaN,oven,oven,0,0521_rot_dnn_0_oven_20_n04111531_27.png,n04111531_27.png,1.0,11.270645,10.100343,0.8275288
bagnet33,1,522,NaN,bottle,bird,180,0522_rot_dnn_180_bird_20_n01855672_15421.png,n01855672_15421.png,0.0,-0.68446875,2.794721,-2.4601586
bagnet33,1,523,NaN,bear,bear,270,0523_rot_dnn_270_bear_20_n02132136_239.png,n02132136_239.png,1.0,7.0191984,5.504972,1.0707198
bagnet33,1,524,NaN,keyboard,keyboard,90,0524_rot_dnn_90_keyboard_20_n03085013_25924.png,n03085013_25924.png,1.0,15.8756895,1.9578099,9.841427
bagnet33,1,525,NaN,bicycle,bicycle,180,0525_rot_dnn_180_bicycle_20_n03792782_6030.png,n03792782_6030.png,1.0,5.361413,2.6557076,1.9132227
bagnet33,1,526,NaN,oven,bottle,270,0526_rot_dnn_270_bottle_20_n03983396_5497.png,n03983396_5497.png,0.0,3.132712,12.716248,-6.7765837
bagnet33,1,527,NaN,clock,chair,180,0527_rot_dnn_180_chair_20_n04429376_6390.png,n04429376_6390.png,0.0,5.5622373,6.6897945,-0.79730344
bagnet33,1,528,NaN,dog,dog,90,0528_rot_dnn_90_dog_20_n02100877_11159.png,n02100877_11159.png,1.0,3.8439703,2.120902,1.2183932
bagnet33,1,529,NaN,bottle,bottle,180,0529_rot_dnn_180_bottle_20_n04579145_579.png,n04579145_579.png,1.0,8.724994,5.5275984,2.2609
bagnet33,1,530,NaN,cat,cat,90,0530_rot_dnn_90_cat_20_n02123159_5678.png,n02123159_5678.png,1.0,17.343836,6.852902,7.418211
bagnet33,1,531,NaN,elephant,elephant,180,0531_rot_dnn_180_elephant_20_n02504013_13283.png,n02504013_13283.png,1.0,2.7309017,1.9576684,0.54675853
bagnet33,1,532,NaN,elephant,dog,90,0532_rot_dnn_90_dog_20_n02095570_7633.png,n02095570_7633.png,0.0,3.1901097,5.7880507,-1.8370217
bagnet33,1,533,NaN,clock,clock,180,0533_rot_dnn_180_clock_20_n02708093_8311.png,n02708093_8311.png,1.0,16.12182,8.477335,5.4054675
bagnet33,1,534,NaN,knife,chair,270,0534_rot_dnn_270_chair_20_n03376595_426.png,n03376595_426.png,0.0,4.442098,4.6039586,-0.11445264
bagnet33,1,535,NaN,boat,dog,180,0535_rot_dnn_180_dog_20_n02100877_3112.png,n02100877_3112.png,0.0,-0.51451766,4.652108,-3.6533563
bagnet33,1,536,NaN,car,car,270,0536_rot_dnn_270_car_20_n02814533_458.png,n02814533_458.png,1.0,11.902486,9.611958,1.6196481
bagnet33,1,537,NaN,boat,bird,0,0537_rot_dnn_0_bird_20_n02006656_5079.png,n02006656_5079.png,0.0,2.4741762,2.8695636,-0.27958113
bagnet33,1,538,NaN,airplane,boat,90,0538_rot_dnn_90_boat_20_n04273569_12725.png,n04273569_12725.png,0.0,1.652154,4.252976,-1.8390589
bagnet33,1,539,NaN,cat,cat,270,0539_rot_dnn_270_cat_20_n02123045_6677.png,n02123045_6677.png,1.0,15.098737,5.3076525,6.923342
bagnet33,1,540,NaN,bicycle,bicycle,270,0540_rot_dnn_270_bicycle_20_n02835271_4440.png,n02835271_4440.png,1.0,9.672234,2.775432,4.8767753
bagnet33,1,541,NaN,keyboard,keyboard,270,0541_rot_dnn_270_keyboard_20_n03085013_21444.png,n03085013_21444.png,1.0,43.438416,7.255913,25.584894
bagnet33,1,542,NaN,clock,clock,180,0542_rot_dnn_180_clock_20_n02708093_8255.png,n02708093_8255.png,1.0,8.746162,2.5269682,4.3976345
bagnet33,1,543,NaN,bicycle,bicycle,0,0543_rot_dnn_0_bicycle_20_n02835271_30318.png,n02835271_30318.png,1.0,8.263169,2.4341784,4.121719
bagnet33,1,544,NaN,chair,cat,180,0544_rot_dnn_180_cat_20_n02123394_2059.png,n02123394_2059.png,0.0,4.8422728,5.527547,-0.48456198
bagnet33,1,545,NaN,elephant,elephant,180,0545_rot_dnn_180_elephant_20_n02504013_6618.png,n02504013_6618.png,1.0,11.607542,4.8301854,4.792315
bagnet33,1,546,NaN,cat,cat,270,0546_rot_dnn_270_cat_20_n02124075_8889.png,n02124075_8889.png,1.0,7.2520804,3.5203314,2.638745
bagnet33,1,547,NaN,cat,dog,90,0547_rot_dnn_90_dog_20_n02100877_7302.png,n02100877_7302.png,0.0,3.9790394,6.098791,-1.4988909
bagnet33,1,548,NaN,chair,car,180,0548_rot_dnn_180_car_20_n02814533_85971.png,n02814533_85971.png,0.0,4.748359,5.4599504,-0.503171
bagnet33,1,549,NaN,chair,chair,0,0549_rot_dnn_0_chair_20_n03376595_5909.png,n03376595_5909.png,1.0,20.170525,14.540676,3.980904
bagnet33,1,550,NaN,keyboard,keyboard,270,0550_rot_dnn_270_keyboard_20_n03085013_13083.png,n03085013_13083.png,1.0,14.372667,8.414507,4.2130556
bagnet33,1,551,NaN,oven,oven,90,0551_rot_dnn_90_oven_20_n04111531_9611.png,n04111531_9611.png,1.0,19.874218,7.1250463,9.015026
bagnet33,1,552,NaN,boat,boat,0,0552_rot_dnn_0_boat_20_n02951358_13996.png,n02951358_13996.png,1.0,4.9506326,3.5217721,1.0103569
bagnet33,1,553,NaN,boat,boat,0,0553_rot_dnn_0_boat_20_n03344393_9251.png,n03344393_9251.png,1.0,9.509305,6.7774754,1.9316953
bagnet33,1,554,NaN,airplane,airplane,180,0554_rot_dnn_180_airplane_20_n02690373_9175.png,n02690373_9175.png,1.0,5.827404,4.9095407,0.6490274
bagnet33,1,555,NaN,bear,bear,0,0555_rot_dnn_0_bear_20_n02132136_2791.png,n02132136_2791.png,1.0,9.598965,9.287445,0.22027764
bagnet33,1,556,NaN,elephant,elephant,180,0556_rot_dnn_180_elephant_20_n02504458_193.png,n02504458_193.png,1.0,5.8926625,2.7241302,2.2404907
bagnet33,1,557,NaN,knife,bird,270,0557_rot_dnn_270_bird_20_n01843383_9985.png,n01843383_9985.png,0.0,-0.67811054,4.659114,-3.7739878
bagnet33,1,558,NaN,knife,bird,270,0558_rot_dnn_270_bird_20_n02028035_10744.png,n02028035_10744.png,0.0,1.2777267,1.9360286,-0.46548977
bagnet33,1,559,NaN,chair,truck,270,0559_rot_dnn_270_truck_20_n04467665_3720.png,n04467665_3720.png,0.0,7.4956093,8.373676,-0.62088716
bagnet33,1,560,NaN,airplane,car,0,0560_rot_dnn_0_car_20_n02814533_52605.png,n02814533_52605.png,0.0,12.342732,18.8678,-4.6139193
bagnet33,1,561,NaN,clock,clock,90,0561_rot_dnn_90_clock_20_n04548280_5631.png,n04548280_5631.png,1.0,29.702423,8.554787,14.953637
bagnet33,1,562,NaN,oven,oven,0,0562_rot_dnn_0_oven_20_n04111531_1922.png,n04111531_1922.png,1.0,14.217663,6.2405987,5.6406364
bagnet33,1,563,NaN,airplane,boat,180,0563_rot_dnn_180_boat_20_n03662601_1197.png,n03662601_1197.png,0.0,1.3390572,4.2542706,-2.0613673
bagnet33,1,564,NaN,clock,clock,270,0564_rot_dnn_270_clock_20_n02708093_1862.png,n02708093_1862.png,1.0,12.108661,3.7018845,5.9444885
bagnet33,1,565,NaN,truck,truck,180,0565_rot_dnn_180_truck_20_n03796401_4582.png,n03796401_4582.png,1.0,7.4477572,7.124389,0.22865576
bagnet33,1,566,NaN,elephant,elephant,90,0566_rot_dnn_90_elephant_20_n02504013_565.png,n02504013_565.png,1.0,4.2560773,2.5126894,1.2327615
bagnet33,1,567,NaN,truck,truck,180,0567_rot_dnn_180_truck_20_n04467665_49826.png,n04467665_49826.png,1.0,7.9748597,6.400794,1.1130326
bagnet33,1,568,NaN,knife,bear,270,0568_rot_dnn_270_bear_20_n02134418_5067.png,n02134418_5067.png,0.0,0.7510656,3.0925474,-1.6556776
bagnet33,1,569,NaN,chair,chair,90,0569_rot_dnn_90_chair_20_n04429376_29223.png,n04429376_29223.png,1.0,5.2330914,5.210897,0.0156938
bagnet33,1,570,NaN,clock,airplane,270,0570_rot_dnn_270_airplane_20_n02690373_5909.png,n02690373_5909.png,0.0,3.2391639,3.8618062,-0.4402746
bagnet33,1,571,NaN,knife,dog,270,0571_rot_dnn_270_dog_20_n02097658_722.png,n02097658_722.png,0.0,-0.7938077,3.4543486,-3.0039
bagnet33,1,572,NaN,oven,oven,0,0572_rot_dnn_0_oven_20_n04111531_10339.png,n04111531_10339.png,1.0,11.189232,7.812025,2.3880458
bagnet33,1,573,NaN,chair,truck,90,0573_rot_dnn_90_truck_20_n03417042_28078.png,n03417042_28078.png,0.0,2.750949,3.7844763,-0.7308142
bagnet33,1,574,NaN,chair,chair,180,0574_rot_dnn_180_chair_20_n04099969_22118.png,n04099969_22118.png,1.0,5.8106003,4.4959064,0.929629
bagnet33,1,575,NaN,oven,clock,270,0575_rot_dnn_270_clock_20_n04548280_7978.png,n04548280_7978.png,0.0,8.22812,10.713803,-1.7576437
bagnet33,1,576,NaN,elephant,bear,180,0576_rot_dnn_180_bear_20_n02133161_1962.png,n02133161_1962.png,0.0,1.8406062,2.6819117,-0.59489286
bagnet33,1,577,NaN,oven,clock,180,0577_rot_dnn_180_clock_20_n04548280_13750.png,n04548280_13750.png,0.0,3.1299608,5.784831,-1.8772768
bagnet33,1,578,NaN,oven,keyboard,0,0578_rot_dnn_0_keyboard_20_n03085013_15249.png,n03085013_15249.png,0.0,4.4405665,6.780715,-1.6547348
bagnet33,1,579,NaN,clock,car,90,0579_rot_dnn_90_car_20_n02814533_479.png,n02814533_479.png,0.0,2.426501,6.5358377,-2.90574
bagnet33,1,580,NaN,chair,keyboard,270,0580_rot_dnn_270_keyboard_20_n03085013_20716.png,n03085013_20716.png,0.0,3.6239724,4.555442,-0.6586484
bagnet33,1,581,NaN,bottle,bird,180,0581_rot_dnn_180_bird_20_n01530575_7990.png,n01530575_7990.png,0.0,0.077690884,3.4034162,-2.3516428
bagnet33,1,582,NaN,clock,chair,0,0582_rot_dnn_0_chair_20_n04429376_17343.png,n04429376_17343.png,0.0,5.0117955,7.4918723,-1.7536792
bagnet33,1,583,NaN,chair,chair,90,0583_rot_dnn_90_chair_20_n02791124_8775.png,n02791124_8775.png,1.0,7.4028077,5.751354,1.1677539
bagnet33,1,584,NaN,cat,cat,90,0584_rot_dnn_90_cat_20_n02125311_2959.png,n02125311_2959.png,1.0,9.577213,3.8333614,4.061517
bagnet33,1,585,NaN,oven,oven,180,0585_rot_dnn_180_oven_20_n04111531_13906.png,n04111531_13906.png,1.0,10.272669,6.0511208,2.9850852
bagnet33,1,586,NaN,airplane,airplane,90,0586_rot_dnn_90_airplane_20_n02690373_7293.png,n02690373_7293.png,1.0,7.808681,6.250826,1.1015699
bagnet33,1,587,NaN,chair,chair,180,0587_rot_dnn_180_chair_20_n04099969_10825.png,n04099969_10825.png,1.0,10.4806,3.4132516,4.9973702
bagnet33,1,588,NaN,airplane,airplane,180,0588_rot_dnn_180_airplane_20_n02690373_17044.png,n02690373_17044.png,1.0,11.48592,4.946862,4.623812
bagnet33,1,589,NaN,bottle,bird,0,0589_rot_dnn_0_bird_20_n01797886_6169.png,n01797886_6169.png,0.0,2.2244287,2.6596835,-0.30777162
bagnet33,1,590,NaN,chair,oven,0,0590_rot_dnn_0_oven_20_n04111531_13255.png,n04111531_13255.png,0.0,4.0296454,4.2877502,-0.18250766
bagnet33,1,591,NaN,keyboard,knife,270,0591_rot_dnn_270_knife_20_n03041632_17820.png,n03041632_17820.png,0.0,1.945015,5.707878,-2.660746
bagnet33,1,592,NaN,bicycle,bicycle,270,0592_rot_dnn_270_bicycle_20_n02835271_21640.png,n02835271_21640.png,1.0,9.424921,4.5519753,3.445693
bagnet33,1,593,NaN,bear,bear,0,0593_rot_dnn_0_bear_20_n02134418_517.png,n02134418_517.png,1.0,4.421661,3.3664074,0.7461769
bagnet33,1,594,NaN,airplane,airplane,180,0594_rot_dnn_180_airplane_20_n02690373_4588.png,n02690373_4588.png,1.0,12.36982,6.094502,4.4373198
bagnet33,1,595,NaN,knife,bottle,270,0595_rot_dnn_270_bottle_20_n02823428_12190.png,n02823428_12190.png,0.0,1.851989,8.285229,-4.548988
bagnet33,1,596,NaN,bottle,bottle,0,0596_rot_dnn_0_bottle_20_n04591713_1717.png,n04591713_1717.png,1.0,6.357158,4.8161097,1.0896859
bagnet33,1,597,NaN,knife,knife,0,0597_rot_dnn_0_knife_20_n03041632_9488.png,n03041632_9488.png,1.0,7.029913,2.0799253,3.5001698
bagnet33,1,598,NaN,chair,truck,90,0598_rot_dnn_90_truck_20_n03417042_11166.png,n03417042_11166.png,0.0,1.1992189,3.8784866,-1.8945285
bagnet33,1,599,NaN,elephant,elephant,90,0599_rot_dnn_90_elephant_20_n02504458_585.png,n02504458_585.png,1.0,13.204713,3.897167,6.581429
bagnet33,1,600,NaN,oven,keyboard,0,0600_rot_dnn_0_keyboard_20_n04505470_5046.png,n04505470_5046.png,0.0,6.5546026,9.375849,-1.9949223
bagnet33,1,601,NaN,chair,chair,180,0601_rot_dnn_180_chair_20_n03376595_4937.png,n03376595_4937.png,1.0,6.7633157,4.1830473,1.8245254
bagnet33,1,602,NaN,airplane,boat,180,0602_rot_dnn_180_boat_20_n03662601_1740.png,n03662601_1740.png,0.0,6.347052,11.76494,-3.8310256
bagnet33,1,603,NaN,knife,knife,0,0603_rot_dnn_0_knife_20_n03041632_4037.png,n03041632_4037.png,1.0,11.221676,7.2553988,2.8045814
bagnet33,1,604,NaN,car,boat,0,0604_rot_dnn_0_boat_20_n04273569_1538.png,n04273569_1538.png,0.0,3.0793376,6.7020106,-2.5616167
bagnet33,1,605,NaN,bottle,bird,0,0605_rot_dnn_0_bird_20_n02017213_15918.png,n02017213_15918.png,0.0,-0.21218663,3.66464,-2.7413304
bagnet33,1,606,NaN,keyboard,keyboard,0,0606_rot_dnn_0_keyboard_20_n03085013_10463.png,n03085013_10463.png,1.0,25.261574,9.227432,11.337851
bagnet33,1,607,NaN,elephant,bear,270,0607_rot_dnn_270_bear_20_n02133161_7939.png,n02133161_7939.png,0.0,1.2154675,3.7769313,-1.8112285
bagnet33,1,608,NaN,truck,car,270,0608_rot_dnn_270_car_20_n04285008_11704.png,n04285008_11704.png,0.0,6.5405145,7.0820465,-0.38292098
bagnet33,1,609,NaN,truck,truck,90,0609_rot_dnn_90_truck_20_n03796401_16046.png,n03796401_16046.png,1.0,11.291159,9.672579,1.1445088
bagnet33,1,610,NaN,chair,chair,270,0610_rot_dnn_270_chair_20_n02791124_3710.png,n02791124_3710.png,1.0,6.4505353,4.7408996,1.2088951
bagnet33,1,611,NaN,keyboard,keyboard,180,0611_rot_dnn_180_keyboard_20_n04505470_3566.png,n04505470_3566.png,1.0,26.987017,8.986887,12.728014
bagnet33,1,612,NaN,chair,bird,90,0612_rot_dnn_90_bird_20_n02037110_8716.png,n02037110_8716.png,0.0,-2.138501,4.578949,-4.7499547
bagnet33,1,613,NaN,car,car,0,0613_rot_dnn_0_car_20_n03100240_19550.png,n03100240_19550.png,1.0,10.1432495,9.72403,0.2964333
bagnet33,1,614,NaN,airplane,airplane,270,0614_rot_dnn_270_airplane_20_n02690373_10769.png,n02690373_10769.png,1.0,7.080082,3.9339993,2.2246163
bagnet33,1,615,NaN,bicycle,bicycle,0,0615_rot_dnn_0_bicycle_20_n03792782_3456.png,n03792782_3456.png,1.0,7.571594,3.7378693,2.7108529
bagnet33,1,616,NaN,chair,chair,0,0616_rot_dnn_0_chair_20_n03376595_2368.png,n03376595_2368.png,1.0,4.4115977,2.6199274,1.2669022
bagnet33,1,617,NaN,cat,dog,0,0617_rot_dnn_0_dog_20_n02091467_2974.png,n02091467_2974.png,0.0,4.621456,6.3988457,-1.2568042
bagnet33,1,618,NaN,knife,knife,180,0618_rot_dnn_180_knife_20_n03041632_43634.png,n03041632_43634.png,1.0,7.2722607,4.5297856,1.9392227
bagnet33,1,619,NaN,keyboard,keyboard,180,0619_rot_dnn_180_keyboard_20_n04505470_4477.png,n04505470_4477.png,1.0,15.205905,6.8923416,5.878577
bagnet33,1,620,NaN,clock,boat,90,0620_rot_dnn_90_boat_20_n03344393_4773.png,n03344393_4773.png,0.0,-0.66545624,3.7935288,-3.1529784
bagnet33,1,621,NaN,airplane,airplane,180,0621_rot_dnn_180_airplane_20_n02690373_139.png,n02690373_139.png,1.0,12.501049,4.2462616,5.837016
bagnet33,1,622,NaN,chair,knife,270,0622_rot_dnn_270_knife_20_n03041632_737.png,n03041632_737.png,0.0,4.812497,6.1718802,-0.961229
bagnet33,1,623,NaN,chair,chair,270,0623_rot_dnn_270_chair_20_n02791124_2698.png,n02791124_2698.png,1.0,5.901662,5.1073055,0.56169474
bagnet33,1,624,NaN,oven,truck,270,0624_rot_dnn_270_truck_20_n03417042_5301.png,n03417042_5301.png,0.0,3.098785,8.909047,-4.1084757
bagnet33,1,625,NaN,bird,bird,0,0625_rot_dnn_0_bird_20_n02006656_5757.png,n02006656_5757.png,1.0,6.462101,0.6461922,4.1124687
bagnet33,1,626,NaN,elephant,bear,270,0626_rot_dnn_270_bear_20_n02132136_15174.png,n02132136_15174.png,0.0,2.2018423,3.4596376,-0.88939565
bagnet33,1,627,NaN,airplane,bottle,270,0627_rot_dnn_270_bottle_20_n04560804_6329.png,n04560804_6329.png,0.0,6.2552533,8.446885,-1.5497178
bagnet33,1,628,NaN,truck,truck,0,0628_rot_dnn_0_truck_20_n03417042_22196.png,n03417042_22196.png,1.0,16.152664,7.3017554,6.2585373
bagnet33,1,629,NaN,cat,cat,0,0629_rot_dnn_0_cat_20_n02125311_18366.png,n02125311_18366.png,1.0,8.707177,4.689701,2.8407845
bagnet33,1,630,NaN,oven,chair,0,0630_rot_dnn_0_chair_20_n02791124_12707.png,n02791124_12707.png,0.0,5.225419,5.8033533,-0.40866125
bagnet33,1,631,NaN,oven,oven,180,0631_rot_dnn_180_oven_20_n04111531_1938.png,n04111531_1938.png,1.0,7.9334793,7.630031,0.21457028
bagnet33,1,632,NaN,knife,airplane,270,0632_rot_dnn_270_airplane_20_n02690373_9346.png,n02690373_9346.png,0.0,-0.16629678,3.821012,-2.819453
bagnet33,1,633,NaN,elephant,cat,0,0633_rot_dnn_0_cat_20_n02123045_10433.png,n02123045_10433.png,0.0,0.57821494,4.314593,-2.6420183
bagnet33,1,634,NaN,airplane,airplane,180,0634_rot_dnn_180_airplane_20_n02690373_5055.png,n02690373_5055.png,1.0,11.297867,3.7331707,5.349048
bagnet33,1,635,NaN,clock,clock,270,0635_rot_dnn_270_clock_20_n04548280_4198.png,n04548280_4198.png,1.0,12.652947,3.3741713,6.5610857
bagnet33,1,636,NaN,bicycle,bicycle,90,0636_rot_dnn_90_bicycle_20_n03792782_12010.png,n03792782_12010.png,1.0,15.165546,4.946007,7.226306
bagnet33,1,637,NaN,cat,cat,180,0637_rot_dnn_180_cat_20_n02125311_24586.png,n02125311_24586.png,1.0,7.285128,3.2225182,2.8726988
bagnet33,1,638,NaN,chair,chair,0,0638_rot_dnn_0_chair_20_n02791124_3220.png,n02791124_3220.png,1.0,10.336416,5.769465,3.2293222
bagnet33,1,639,NaN,truck,car,90,0639_rot_dnn_90_car_20_n04285008_12737.png,n04285008_12737.png,0.0,4.7429805,5.4933257,-0.5305742
bagnet33,1,640,NaN,clock,chair,180,0640_rot_dnn_180_chair_20_n04429376_4296.png,n04429376_4296.png,0.0,3.4170344,6.1084237,-1.9030997
bagnet33,1,641,NaN,knife,airplane,90,0641_rot_dnn_90_airplane_20_n02690373_5534.png,n02690373_5534.png,0.0,1.6595144,4.872361,-2.2718258
bagnet33,1,642,NaN,elephant,dog,180,0642_rot_dnn_180_dog_20_n02113978_2286.png,n02113978_2286.png,0.0,1.474434,4.7884235,-2.3433447
bagnet33,1,643,NaN,knife,dog,0,0643_rot_dnn_0_dog_20_n02087394_3354.png,n02087394_3354.png,0.0,0.61889654,4.4659176,-2.7202547
bagnet33,1,644,NaN,oven,chair,180,0644_rot_dnn_180_chair_20_n03376595_2103.png,n03376595_2103.png,0.0,3.8077717,5.3041763,-1.0581179
bagnet33,1,645,NaN,elephant,elephant,0,0645_rot_dnn_0_elephant_20_n02504458_5181.png,n02504458_5181.png,1.0,13.336531,3.6325746,6.8617334
bagnet33,1,646,NaN,bottle,chair,270,0646_rot_dnn_270_chair_20_n02791124_10287.png,n02791124_10287.png,0.0,5.938216,6.8157477,-0.6205085
bagnet33,1,647,NaN,oven,oven,90,0647_rot_dnn_90_oven_20_n04111531_22291.png,n04111531_22291.png,1.0,6.575157,6.087839,0.3445859
bagnet33,1,648,NaN,bottle,bottle,90,0648_rot_dnn_90_bottle_20_n03937543_4399.png,n03937543_4399.png,1.0,12.839762,3.9442654,6.290066
bagnet33,1,649,NaN,truck,truck,90,0649_rot_dnn_90_truck_20_n03796401_13226.png,n03796401_13226.png,1.0,6.8322277,5.7357864,0.7753011
bagnet33,1,650,NaN,bicycle,airplane,270,0650_rot_dnn_270_airplane_20_n02690373_5430.png,n02690373_5430.png,0.0,3.797704,4.105922,-0.2179432
bagnet33,1,651,NaN,cat,cat,90,0651_rot_dnn_90_cat_20_n02124075_20.png,n02124075_20.png,1.0,21.628912,5.155717,11.648308
bagnet33,1,652,NaN,keyboard,keyboard,90,0652_rot_dnn_90_keyboard_20_n04505470_4943.png,n04505470_4943.png,1.0,23.689152,9.843265,9.790521
bagnet33,1,653,NaN,car,car,180,0653_rot_dnn_180_car_20_n03100240_4288.png,n03100240_4288.png,1.0,11.671302,9.468649,1.5575109
bagnet33,1,654,NaN,dog,dog,0,0654_rot_dnn_0_dog_20_n02109525_7478.png,n02109525_7478.png,1.0,6.4230785,5.5984178,0.58312327
bagnet33,1,655,NaN,bicycle,bicycle,0,0655_rot_dnn_0_bicycle_20_n03792782_4895.png,n03792782_4895.png,1.0,17.864256,6.136503,8.292773
bagnet33,1,656,NaN,oven,oven,0,0656_rot_dnn_0_oven_20_n04111531_8077.png,n04111531_8077.png,1.0,17.10077,7.9126916,6.4969535
bagnet33,1,657,NaN,airplane,airplane,90,0657_rot_dnn_90_airplane_20_n02690373_4845.png,n02690373_4845.png,1.0,6.735983,4.081746,1.8768289
bagnet33,1,658,NaN,cat,cat,90,0658_rot_dnn_90_cat_20_n02125311_59332.png,n02125311_59332.png,1.0,5.4740906,1.7205808,2.6541324
bagnet33,1,659,NaN,bicycle,bicycle,180,0659_rot_dnn_180_bicycle_20_n02835271_24.png,n02835271_24.png,1.0,15.669451,6.079593,6.781053
bagnet33,1,660,NaN,airplane,truck,180,0660_rot_dnn_180_truck_20_n04467665_22637.png,n04467665_22637.png,0.0,8.980669,10.355188,-0.971932
bagnet33,1,661,NaN,elephant,dog,180,0661_rot_dnn_180_dog_20_n02101006_6694.png,n02101006_6694.png,0.0,4.6676993,7.2144117,-1.8007976
bagnet33,1,662,NaN,truck,car,0,0662_rot_dnn_0_car_20_n02814533_37256.png,n02814533_37256.png,0.0,9.323963,10.564252,-0.8770166
bagnet33,1,663,NaN,bear,bear,0,0663_rot_dnn_0_bear_20_n02134418_132.png,n02134418_132.png,1.0,12.869409,9.907531,2.094364
bagnet33,1,664,NaN,knife,knife,180,0664_rot_dnn_180_knife_20_n03041632_41310.png,n03041632_41310.png,1.0,9.242121,6.924761,1.638621
bagnet33,1,665,NaN,bird,bird,0,0665_rot_dnn_0_bird_20_n01530575_3198.png,n01530575_3198.png,1.0,8.018062,6.5143805,1.0632632
bagnet33,1,666,NaN,bicycle,bicycle,180,0666_rot_dnn_180_bicycle_20_n02835271_3643.png,n02835271_3643.png,1.0,10.509859,2.0637379,5.9723096
bagnet33,1,667,NaN,chair,chair,180,0667_rot_dnn_180_chair_20_n02791124_3186.png,n02791124_3186.png,1.0,6.648377,4.837046,1.2808043
bagnet33,1,668,NaN,oven,chair,270,0668_rot_dnn_270_chair_20_n04099969_5396.png,n04099969_5396.png,0.0,4.839913,5.202596,-0.2564558
bagnet33,1,669,NaN,dog,dog,0,0669_rot_dnn_0_dog_20_n02110806_749.png,n02110806_749.png,1.0,4.979234,4.0324845,0.66945314
bagnet33,1,670,NaN,airplane,car,180,0670_rot_dnn_180_car_20_n04285008_7155.png,n04285008_7155.png,0.0,7.0122504,8.419193,-0.99485886
bagnet33,1,671,NaN,airplane,airplane,270,0671_rot_dnn_270_airplane_20_n02690373_6621.png,n02690373_6621.png,1.0,6.8168564,5.334329,1.048305
bagnet33,1,672,NaN,clock,cat,270,0672_rot_dnn_270_cat_20_n02124075_11727.png,n02124075_11727.png,0.0,2.2284582,5.3863854,-2.232992
bagnet33,1,673,NaN,elephant,elephant,180,0673_rot_dnn_180_elephant_20_n02504013_1078.png,n02504013_1078.png,1.0,2.2444012,1.8469493,0.28104094
bagnet33,1,674,NaN,clock,knife,180,0674_rot_dnn_180_knife_20_n03041632_21017.png,n03041632_21017.png,0.0,3.371142,4.070128,-0.49425778
bagnet33,1,675,NaN,chair,knife,180,0675_rot_dnn_180_knife_20_n03041632_22330.png,n03041632_22330.png,0.0,3.1642637,4.350972,-0.8391296
bagnet33,1,676,NaN,clock,clock,270,0676_rot_dnn_270_clock_20_n03196217_368.png,n03196217_368.png,1.0,14.044037,4.690879,6.613682
bagnet33,1,677,NaN,knife,knife,0,0677_rot_dnn_0_knife_20_n03041632_99912.png,n03041632_99912.png,1.0,10.738469,3.9736333,4.7834616
bagnet33,1,678,NaN,airplane,boat,180,0678_rot_dnn_180_boat_20_n03344393_7705.png,n03344393_7705.png,0.0,2.301564,5.7363806,-2.4287822
bagnet33,1,679,NaN,bear,bear,180,0679_rot_dnn_180_bear_20_n02134084_41588.png,n02134084_41588.png,1.0,4.884586,3.7072902,0.83247375
bagnet33,1,680,NaN,knife,knife,0,0680_rot_dnn_0_knife_20_n03041632_45775.png,n03041632_45775.png,1.0,8.415329,4.365604,2.863588
bagnet33,1,681,NaN,bicycle,bicycle,180,0681_rot_dnn_180_bicycle_20_n02835271_24630.png,n02835271_24630.png,1.0,9.794881,6.88912,2.0546832
bagnet33,1,682,NaN,bicycle,boat,270,0682_rot_dnn_270_boat_20_n03662601_22973.png,n03662601_22973.png,0.0,-0.54898643,5.806443,-4.4939675
bagnet33,1,683,NaN,truck,car,270,0683_rot_dnn_270_car_20_n02814533_8042.png,n02814533_8042.png,0.0,3.4641125,5.3278837,-1.3178853
bagnet33,1,684,NaN,boat,boat,0,0684_rot_dnn_0_boat_20_n03662601_17483.png,n03662601_17483.png,1.0,11.830167,6.284607,3.921303
bagnet33,1,685,NaN,bicycle,bicycle,180,0685_rot_dnn_180_bicycle_20_n03792782_13680.png,n03792782_13680.png,1.0,14.012259,3.2306862,7.623723
bagnet33,1,686,NaN,chair,chair,180,0686_rot_dnn_180_chair_20_n03376595_15468.png,n03376595_15468.png,1.0,8.625256,5.459527,2.2385082
bagnet33,1,687,NaN,knife,knife,270,0687_rot_dnn_270_knife_20_n03041632_26236.png,n03041632_26236.png,1.0,10.800133,7.333904,2.450994
bagnet33,1,688,NaN,oven,cat,180,0688_rot_dnn_180_cat_20_n02125311_41650.png,n02125311_41650.png,0.0,-1.3272538,3.954816,-3.7349877
bagnet33,1,689,NaN,oven,car,90,0689_rot_dnn_90_car_20_n02814533_5916.png,n02814533_5916.png,0.0,3.8511562,5.1223025,-0.8988362
bagnet33,1,690,NaN,knife,knife,180,0690_rot_dnn_180_knife_20_n03041632_7116.png,n03041632_7116.png,1.0,8.055281,2.724985,3.7690883
bagnet33,1,691,NaN,knife,bottle,90,0691_rot_dnn_90_bottle_20_n04560804_13583.png,n04560804_13583.png,0.0,1.7611551,3.9154983,-1.5233507
bagnet33,1,692,NaN,clock,bicycle,180,0692_rot_dnn_180_bicycle_20_n02835271_10933.png,n02835271_10933.png,0.0,3.04596,3.6166341,-0.4035276
bagnet33,1,693,NaN,airplane,truck,180,0693_rot_dnn_180_truck_20_n04467665_9589.png,n04467665_9589.png,0.0,6.197907,10.438078,-2.9982536
bagnet33,1,694,NaN,car,car,180,0694_rot_dnn_180_car_20_n03100240_1750.png,n03100240_1750.png,1.0,13.741025,11.917807,1.2892101
bagnet33,1,695,NaN,bear,bear,270,0695_rot_dnn_270_bear_20_n02134418_1094.png,n02134418_1094.png,1.0,11.991778,5.942567,4.2774386
bagnet33,1,696,NaN,clock,clock,0,0696_rot_dnn_0_clock_20_n04548280_7792.png,n04548280_7792.png,1.0,17.723927,4.966711,9.020714
bagnet33,1,697,NaN,airplane,airplane,0,0697_rot_dnn_0_airplane_20_n02690373_7142.png,n02690373_7142.png,1.0,15.477175,7.483354,5.652485
bagnet33,1,698,NaN,keyboard,keyboard,0,0698_rot_dnn_0_keyboard_20_n04505470_7312.png,n04505470_7312.png,1.0,20.235046,7.7084117,8.857668
bagnet33,1,699,NaN,elephant,bear,90,0699_rot_dnn_90_bear_20_n02132136_18953.png,n02132136_18953.png,0.0,2.4858663,4.64505,-1.5267735
bagnet33,1,700,NaN,knife,bird,270,0700_rot_dnn_270_bird_20_n02056570_9303.png,n02056570_9303.png,0.0,-1.5708016,7.382099,-6.330657
bagnet33,1,701,NaN,chair,chair,0,0701_rot_dnn_0_chair_20_n02791124_4956.png,n02791124_4956.png,1.0,9.89994,8.439742,1.0325155
bagnet33,1,702,NaN,elephant,dog,0,0702_rot_dnn_0_dog_20_n02087394_9061.png,n02087394_9061.png,0.0,3.41131,4.402093,-0.70058936
bagnet33,1,703,NaN,bird,bird,270,0703_rot_dnn_270_bird_20_n02025239_13707.png,n02025239_13707.png,1.0,3.4858255,1.7212085,1.2477727
bagnet33,1,704,NaN,knife,knife,270,0704_rot_dnn_270_knife_20_n03041632_14916.png,n03041632_14916.png,1.0,7.7416153,5.638085,1.4874207
bagnet33,1,705,NaN,chair,chair,180,0705_rot_dnn_180_chair_20_n02791124_1287.png,n02791124_1287.png,1.0,9.673625,4.815258,3.4353843
bagnet33,1,706,NaN,bear,bear,180,0706_rot_dnn_180_bear_20_n02134418_1825.png,n02134418_1825.png,1.0,4.5320506,4.0235524,0.35956252
bagnet33,1,707,NaN,elephant,elephant,0,0707_rot_dnn_0_elephant_20_n02504013_6999.png,n02504013_6999.png,1.0,14.982339,4.5206275,7.3975477
bagnet33,1,708,NaN,clock,clock,270,0708_rot_dnn_270_clock_20_n04548280_7050.png,n04548280_7050.png,1.0,48.803913,10.199775,27.297247
bagnet33,1,709,NaN,elephant,cat,180,0709_rot_dnn_180_cat_20_n02123394_8100.png,n02123394_8100.png,0.0,3.7905571,5.8211813,-1.4358681
bagnet33,1,710,NaN,oven,oven,180,0710_rot_dnn_180_oven_20_n04111531_11026.png,n04111531_11026.png,1.0,6.658975,5.795433,0.61061645
bagnet33,1,711,NaN,car,car,0,0711_rot_dnn_0_car_20_n02814533_79974.png,n02814533_79974.png,1.0,12.655777,11.891029,0.54075825
bagnet33,1,712,NaN,chair,chair,0,0712_rot_dnn_0_chair_20_n04429376_10994.png,n04429376_10994.png,1.0,5.3995943,3.4703224,1.3642013
bagnet33,1,713,NaN,bicycle,boat,90,0713_rot_dnn_90_boat_20_n02951358_582.png,n02951358_582.png,0.0,1.345363,3.0300326,-1.1912414
bagnet33,1,714,NaN,keyboard,keyboard,270,0714_rot_dnn_270_keyboard_20_n03085013_24385.png,n03085013_24385.png,1.0,17.622337,13.492315,2.9203668
bagnet33,1,715,NaN,bear,bear,0,0715_rot_dnn_0_bear_20_n02133161_4218.png,n02133161_4218.png,1.0,8.071772,7.99223,0.056244463
bagnet33,1,716,NaN,keyboard,keyboard,270,0716_rot_dnn_270_keyboard_20_n03085013_1070.png,n03085013_1070.png,1.0,4.7390776,3.9049606,0.5898098
bagnet33,1,717,NaN,bicycle,bicycle,180,0717_rot_dnn_180_bicycle_20_n02835271_2131.png,n02835271_2131.png,1.0,24.6743,5.3541102,13.661436
bagnet33,1,718,NaN,bicycle,oven,90,0718_rot_dnn_90_oven_20_n04111531_8988.png,n04111531_8988.png,0.0,2.5788887,4.4817796,-1.3455471
bagnet33,1,719,NaN,elephant,elephant,90,0719_rot_dnn_90_elephant_20_n02504458_3608.png,n02504458_3608.png,1.0,10.784465,3.3641772,5.246936
bagnet33,1,720,NaN,clock,boat,270,0720_rot_dnn_270_boat_20_n03344393_2961.png,n03344393_2961.png,0.0,1.8940933,3.5971444,-1.204239
bagnet33,1,721,NaN,oven,oven,90,0721_rot_dnn_90_oven_20_n04111531_12980.png,n04111531_12980.png,1.0,11.067909,4.5735354,4.592216
bagnet33,1,722,NaN,airplane,airplane,180,0722_rot_dnn_180_airplane_20_n02690373_7046.png,n02690373_7046.png,1.0,12.853967,5.054403,5.515125
bagnet33,1,723,NaN,bottle,bottle,0,0723_rot_dnn_0_bottle_20_n03937543_1929.png,n03937543_1929.png,1.0,10.32221,4.5255785,4.098838
bagnet33,1,724,NaN,keyboard,dog,90,0724_rot_dnn_90_dog_20_n02087394_7707.png,n02087394_7707.png,0.0,-0.4838772,2.9196396,-2.4066498
bagnet33,1,725,NaN,chair,chair,180,0725_rot_dnn_180_chair_20_n03376595_9219.png,n03376595_9219.png,1.0,9.416109,5.9875727,2.4243414
bagnet33,1,726,NaN,airplane,airplane,180,0726_rot_dnn_180_airplane_20_n02690373_5838.png,n02690373_5838.png,1.0,12.515696,4.984287,5.3255105
bagnet33,1,727,NaN,chair,chair,0,0727_rot_dnn_0_chair_20_n04099969_16669.png,n04099969_16669.png,1.0,15.3960085,7.3220134,5.709177
bagnet33,1,728,NaN,bear,bird,180,0728_rot_dnn_180_bird_20_n01532829_37796.png,n01532829_37796.png,0.0,2.633357,3.9667435,-0.9428466
bagnet33,1,729,NaN,airplane,airplane,180,0729_rot_dnn_180_airplane_20_n02690373_6602.png,n02690373_6602.png,1.0,14.136958,4.827214,6.582983
bagnet33,1,730,NaN,knife,bear,180,0730_rot_dnn_180_bear_20_n02134418_200.png,n02134418_200.png,0.0,1.220408,2.4800537,-0.89070404
bagnet33,1,731,NaN,car,car,0,0731_rot_dnn_0_car_20_n03100240_16084.png,n03100240_16084.png,1.0,21.548605,11.635438,7.009668
bagnet33,1,732,NaN,elephant,bear,270,0732_rot_dnn_270_bear_20_n02134084_18952.png,n02134084_18952.png,0.0,0.11447474,2.3862505,-1.6063881
bagnet33,1,733,NaN,elephant,boat,90,0733_rot_dnn_90_boat_20_n04273569_1050.png,n04273569_1050.png,0.0,0.23598509,3.5491617,-2.3427696
bagnet33,1,734,NaN,elephant,dog,0,0734_rot_dnn_0_dog_20_n02092339_659.png,n02092339_659.png,0.0,2.776433,11.039661,-5.842985
bagnet33,1,735,NaN,elephant,elephant,0,0735_rot_dnn_0_elephant_20_n02504458_493.png,n02504458_493.png,1.0,18.767014,5.5798244,9.324751
bagnet33,1,736,NaN,truck,truck,90,0736_rot_dnn_90_truck_20_n03417042_9238.png,n03417042_9238.png,1.0,7.9515705,6.8115354,0.8061266
bagnet33,1,737,NaN,clock,truck,90,0737_rot_dnn_90_truck_20_n04467665_8303.png,n04467665_8303.png,0.0,1.3212996,3.0203202,-1.2013891
bagnet33,1,738,NaN,cat,cat,270,0738_rot_dnn_270_cat_20_n02123394_6969.png,n02123394_6969.png,1.0,5.9320183,3.8148472,1.497066
bagnet33,1,739,NaN,bottle,bottle,90,0739_rot_dnn_90_bottle_20_n03983396_618.png,n03983396_618.png,1.0,5.3741107,3.6666896,1.207329
bagnet33,1,740,NaN,elephant,elephant,0,0740_rot_dnn_0_elephant_20_n02504458_8621.png,n02504458_8621.png,1.0,29.139158,2.7837775,18.636068
bagnet33,1,741,NaN,bicycle,bicycle,90,0741_rot_dnn_90_bicycle_20_n02835271_3308.png,n02835271_3308.png,1.0,9.336241,1.7106855,5.3920817
bagnet33,1,742,NaN,knife,bird,90,0742_rot_dnn_90_bird_20_n02025239_17065.png,n02025239_17065.png,0.0,0.48940477,3.0207574,-1.7899368
bagnet33,1,743,NaN,clock,clock,0,0743_rot_dnn_0_clock_20_n04548280_4582.png,n04548280_4582.png,1.0,5.1906104,3.8592873,0.94138765
bagnet33,1,744,NaN,keyboard,keyboard,180,0744_rot_dnn_180_keyboard_20_n04505470_933.png,n04505470_933.png,1.0,65.313965,12.626037,37.255993
bagnet33,1,745,NaN,cat,cat,270,0745_rot_dnn_270_cat_20_n02123597_2549.png,n02123597_2549.png,1.0,9.51677,4.762619,3.3616927
bagnet33,1,746,NaN,chair,boat,90,0746_rot_dnn_90_boat_20_n04612504_30766.png,n04612504_30766.png,0.0,2.7440484,4.0186543,-0.90128255
bagnet33,1,747,NaN,knife,airplane,90,0747_rot_dnn_90_airplane_20_n02690373_4695.png,n02690373_4695.png,0.0,5.4063754,6.336879,-0.65796524
bagnet33,1,748,NaN,oven,oven,0,0748_rot_dnn_0_oven_20_n04111531_18648.png,n04111531_18648.png,1.0,6.9010234,2.5749125,3.0590224
bagnet33,1,749,NaN,bicycle,bicycle,180,0749_rot_dnn_180_bicycle_20_n02835271_14862.png,n02835271_14862.png,1.0,10.682701,5.640111,3.5656497
