subj,session,trial,rt,object_response,category,condition,imagename,filename,is_correct,targ_act,max_nontarg_act,decision_margin
alexnet_w1_mlp_simclrhn_probe2,1,1,NaN,bicycle,chair,0,0001_rot_dnn_0_chair_20_n03376595_3070.png,n03376595_3070.png,0.0,-1.337618,3.1347084,-3.1624124
alexnet_w1_mlp_simclrhn_probe2,1,2,NaN,car,car,180,0002_rot_dnn_180_car_20_n02814533_29367.png,n02814533_29367.png,1.0,0.12150097,-0.2923295,0.29262233
alexnet_w1_mlp_simclrhn_probe2,1,3,NaN,elephant,car,270,0003_rot_dnn_270_car_20_n02814533_31083.png,n02814533_31083.png,0.0,-7.236258,-0.63227034,-4.6697245
alexnet_w1_mlp_simclrhn_probe2,1,4,NaN,truck,car,180,0004_rot_dnn_180_car_20_n03100240_1703.png,n03100240_1703.png,0.0,0.6023782,1.8298705,-0.86796814
alexnet_w1_mlp_simclrhn_probe2,1,5,NaN,clock,bottle,180,0005_rot_dnn_180_bottle_20_n04591713_2359.png,n04591713_2359.png,0.0,-0.9975255,-0.6635028,-0.23618972
alexnet_w1_mlp_simclrhn_probe2,1,6,NaN,dog,dog,90,0006_rot_dnn_90_dog_20_n02111500_8796.png,n02111500_8796.png,1.0,-1.9626117,-2.2250693,0.18558556
alexnet_w1_mlp_simclrhn_probe2,1,7,NaN,oven,bear,180,0007_rot_dnn_180_bear_20_n02132136_4512.png,n02132136_4512.png,0.0,-0.42356575,0.07335122,-0.35137334
alexnet_w1_mlp_simclrhn_probe2,1,8,NaN,chair,chair,90,0008_rot_dnn_90_chair_20_n03376595_4820.png,n03376595_4820.png,1.0,1.036703,-0.68284106,1.2159013
alexnet_w1_mlp_simclrhn_probe2,1,9,NaN,keyboard,bottle,270,0009_rot_dnn_270_bottle_20_n04591713_6111.png,n04591713_6111.png,0.0,-1.3343525,4.4039245,-4.0575747
alexnet_w1_mlp_simclrhn_probe2,1,10,NaN,chair,bottle,270,0010_rot_dnn_270_bottle_20_n04560804_14111.png,n04560804_14111.png,0.0,-0.9764609,0.3657565,-0.9490911
alexnet_w1_mlp_simclrhn_probe2,1,11,NaN,elephant,dog,0,0011_rot_dnn_0_dog_20_n02099601_8656.png,n02099601_8656.png,0.0,0.7810854,1.7759216,-0.70345545
alexnet_w1_mlp_simclrhn_probe2,1,12,NaN,cat,cat,0,0012_rot_dnn_0_cat_20_n02125311_14054.png,n02125311_14054.png,1.0,-0.68964696,-0.9195358,0.16255598
alexnet_w1_mlp_simclrhn_probe2,1,13,NaN,oven,bear,0,0013_rot_dnn_0_bear_20_n02132136_10385.png,n02132136_10385.png,0.0,-0.53890395,-0.23749249,-0.21313009
alexnet_w1_mlp_simclrhn_probe2,1,14,NaN,clock,bottle,90,0014_rot_dnn_90_bottle_20_n02823428_10417.png,n02823428_10417.png,0.0,-0.90653515,0.67338103,-1.1171695
alexnet_w1_mlp_simclrhn_probe2,1,15,NaN,knife,keyboard,0,0015_rot_dnn_0_keyboard_20_n03085013_23566.png,n03085013_23566.png,0.0,-5.0441346,-0.6857513,-3.0818424
alexnet_w1_mlp_simclrhn_probe2,1,16,NaN,bottle,truck,90,0016_rot_dnn_90_truck_20_n03417042_12560.png,n03417042_12560.png,0.0,-1.5476345,0.6568669,-1.5588179
alexnet_w1_mlp_simclrhn_probe2,1,17,NaN,boat,truck,180,0017_rot_dnn_180_truck_20_n04467665_69063.png,n04467665_69063.png,0.0,-0.59551406,1.1600735,-1.2413878
alexnet_w1_mlp_simclrhn_probe2,1,18,NaN,oven,oven,180,0018_rot_dnn_180_oven_20_n04111531_9712.png,n04111531_9712.png,1.0,1.7806239,-0.4122309,1.5505825
alexnet_w1_mlp_simclrhn_probe2,1,19,NaN,oven,oven,180,0019_rot_dnn_180_oven_20_n04111531_10375.png,n04111531_10375.png,1.0,5.340675,0.1674707,3.658008
alexnet_w1_mlp_simclrhn_probe2,1,20,NaN,oven,keyboard,0,0020_rot_dnn_0_keyboard_20_n04505470_1744.png,n04505470_1744.png,0.0,1.7740254,1.8911052,-0.08278788
alexnet_w1_mlp_simclrhn_probe2,1,21,NaN,elephant,boat,90,0021_rot_dnn_90_boat_20_n04273569_7296.png,n04273569_7296.png,0.0,-5.9092703,-0.97550327,-3.4887002
alexnet_w1_mlp_simclrhn_probe2,1,22,NaN,bear,dog,0,0022_rot_dnn_0_dog_20_n02101006_4807.png,n02101006_4807.png,0.0,1.1287732,2.304804,-0.83157945
alexnet_w1_mlp_simclrhn_probe2,1,23,NaN,clock,clock,90,0023_rot_dnn_90_clock_20_n02708093_1986.png,n02708093_1986.png,1.0,7.0427685,-0.6859942,5.4650607
alexnet_w1_mlp_simclrhn_probe2,1,24,NaN,bottle,bottle,0,0024_rot_dnn_0_bottle_20_n04560804_15562.png,n04560804_15562.png,1.0,4.7653227,-1.6533657,4.538698
alexnet_w1_mlp_simclrhn_probe2,1,25,NaN,cat,cat,0,0025_rot_dnn_0_cat_20_n02124075_13594.png,n02124075_13594.png,1.0,0.8448518,-2.675449,2.4892285
alexnet_w1_mlp_simclrhn_probe2,1,26,NaN,bear,bear,90,0026_rot_dnn_90_bear_20_n02134418_4365.png,n02134418_4365.png,1.0,-0.922408,-1.114505,0.13583314
alexnet_w1_mlp_simclrhn_probe2,1,27,NaN,bear,bear,180,0027_rot_dnn_180_bear_20_n02132136_8650.png,n02132136_8650.png,1.0,0.9045672,-1.3959875,1.626738
alexnet_w1_mlp_simclrhn_probe2,1,28,NaN,bird,bird,90,0028_rot_dnn_90_bird_20_n02009912_12219.png,n02009912_12219.png,1.0,-0.3061202,-1.317594,0.71522003
alexnet_w1_mlp_simclrhn_probe2,1,29,NaN,bicycle,dog,90,0029_rot_dnn_90_dog_20_n02100236_1662.png,n02100236_1662.png,0.0,-2.683729,-1.3870242,-0.91690874
alexnet_w1_mlp_simclrhn_probe2,1,30,NaN,clock,clock,90,0030_rot_dnn_90_clock_20_n04548280_1947.png,n04548280_1947.png,1.0,6.2983203,-0.16702172,4.571687
alexnet_w1_mlp_simclrhn_probe2,1,31,NaN,bird,dog,270,0031_rot_dnn_270_dog_20_n02109047_66167.png,n02109047_66167.png,0.0,-2.3957107,-0.39322117,-1.415974
alexnet_w1_mlp_simclrhn_probe2,1,32,NaN,oven,oven,90,0032_rot_dnn_90_oven_20_n04111531_21055.png,n04111531_21055.png,1.0,5.2520285,1.6389896,2.5548043
alexnet_w1_mlp_simclrhn_probe2,1,33,NaN,truck,clock,0,0033_rot_dnn_0_clock_20_n02708093_2012.png,n02708093_2012.png,0.0,-1.494772,-0.027367651,-1.0376116
alexnet_w1_mlp_simclrhn_probe2,1,34,NaN,elephant,elephant,0,0034_rot_dnn_0_elephant_20_n02504458_6119.png,n02504458_6119.png,1.0,4.4764566,0.89258254,2.5341818
alexnet_w1_mlp_simclrhn_probe2,1,35,NaN,chair,chair,0,0035_rot_dnn_0_chair_20_n04099969_12707.png,n04099969_12707.png,1.0,5.5198965,-0.076355755,3.957148
alexnet_w1_mlp_simclrhn_probe2,1,36,NaN,clock,keyboard,270,0036_rot_dnn_270_keyboard_20_n03085013_19054.png,n03085013_19054.png,0.0,-5.751848e-06,0.116752945,-0.08256087
alexnet_w1_mlp_simclrhn_probe2,1,37,NaN,chair,chair,0,0037_rot_dnn_0_chair_20_n02791124_422.png,n02791124_422.png,1.0,0.6715474,-0.5495138,0.86342067
alexnet_w1_mlp_simclrhn_probe2,1,38,NaN,bicycle,bicycle,0,0038_rot_dnn_0_bicycle_20_n02835271_23830.png,n02835271_23830.png,1.0,9.806541,-2.1220646,8.434798
alexnet_w1_mlp_simclrhn_probe2,1,39,NaN,bird,bird,90,0039_rot_dnn_90_bird_20_n01534433_14735.png,n01534433_14735.png,1.0,-1.2136254,-1.5801148,0.25914714
alexnet_w1_mlp_simclrhn_probe2,1,40,NaN,bird,bird,90,0040_rot_dnn_90_bird_20_n02011460_13994.png,n02011460_13994.png,1.0,0.20405962,-3.6057253,2.6939247
alexnet_w1_mlp_simclrhn_probe2,1,41,NaN,elephant,boat,270,0041_rot_dnn_270_boat_20_n04273569_17522.png,n04273569_17522.png,0.0,-3.748549,-1.7108055,-1.4409024
alexnet_w1_mlp_simclrhn_probe2,1,42,NaN,cat,bear,180,0042_rot_dnn_180_bear_20_n02132136_5537.png,n02132136_5537.png,0.0,0.9970341,3.1373656,-1.513443
alexnet_w1_mlp_simclrhn_probe2,1,43,NaN,bear,bear,90,0043_rot_dnn_90_bear_20_n02132136_19248.png,n02132136_19248.png,1.0,3.2916117,1.2728755,1.427462
alexnet_w1_mlp_simclrhn_probe2,1,44,NaN,knife,bird,270,0044_rot_dnn_270_bird_20_n01537544_1886.png,n01537544_1886.png,0.0,-1.6721694,-0.9133339,-0.53657776
alexnet_w1_mlp_simclrhn_probe2,1,45,NaN,oven,clock,180,0045_rot_dnn_180_clock_20_n03196217_4776.png,n03196217_4776.png,0.0,1.4068888,1.4291914,-0.015770255
alexnet_w1_mlp_simclrhn_probe2,1,46,NaN,chair,boat,270,0046_rot_dnn_270_boat_20_n04612504_17610.png,n04612504_17610.png,0.0,-3.8897274,1.4604756,-3.783165
alexnet_w1_mlp_simclrhn_probe2,1,47,NaN,elephant,bear,90,0047_rot_dnn_90_bear_20_n02134418_1814.png,n02134418_1814.png,0.0,0.4108405,1.1282692,-0.5072987
alexnet_w1_mlp_simclrhn_probe2,1,48,NaN,keyboard,keyboard,180,0048_rot_dnn_180_keyboard_20_n03085013_20330.png,n03085013_20330.png,1.0,4.3119955,0.7676074,2.5062609
alexnet_w1_mlp_simclrhn_probe2,1,49,NaN,bottle,bottle,180,0049_rot_dnn_180_bottle_20_n02823428_14574.png,n02823428_14574.png,1.0,2.7600727,0.03083241,1.9298644
alexnet_w1_mlp_simclrhn_probe2,1,50,NaN,bicycle,bicycle,0,0050_rot_dnn_0_bicycle_20_n03792782_7105.png,n03792782_7105.png,1.0,1.79655,-0.8429605,1.8664159
alexnet_w1_mlp_simclrhn_probe2,1,51,NaN,elephant,elephant,0,0051_rot_dnn_0_elephant_20_n02504458_1302.png,n02504458_1302.png,1.0,10.561137,2.5601568,5.6575475
alexnet_w1_mlp_simclrhn_probe2,1,52,NaN,bottle,airplane,90,0052_rot_dnn_90_airplane_20_n02690373_3877.png,n02690373_3877.png,0.0,-5.1833973,-0.63883394,-3.2134917
alexnet_w1_mlp_simclrhn_probe2,1,53,NaN,chair,boat,90,0053_rot_dnn_90_boat_20_n02951358_15422.png,n02951358_15422.png,0.0,-2.6171055,-0.07983065,-1.7941242
alexnet_w1_mlp_simclrhn_probe2,1,54,NaN,oven,car,270,0054_rot_dnn_270_car_20_n02814533_46458.png,n02814533_46458.png,0.0,-3.9928672,0.8517729,-3.425678
alexnet_w1_mlp_simclrhn_probe2,1,55,NaN,car,car,0,0055_rot_dnn_0_car_20_n02814533_39547.png,n02814533_39547.png,1.0,10.557269,7.404788,2.2291408
alexnet_w1_mlp_simclrhn_probe2,1,56,NaN,airplane,boat,180,0056_rot_dnn_180_boat_20_n04273569_6586.png,n04273569_6586.png,0.0,1.006978,1.3533404,-0.24491517
alexnet_w1_mlp_simclrhn_probe2,1,57,NaN,clock,clock,90,0057_rot_dnn_90_clock_20_n02708093_3394.png,n02708093_3394.png,1.0,0.7671053,0.11638172,0.46013105
alexnet_w1_mlp_simclrhn_probe2,1,58,NaN,keyboard,keyboard,180,0058_rot_dnn_180_keyboard_20_n03085013_25419.png,n03085013_25419.png,1.0,4.0775733,1.79965,1.610735
alexnet_w1_mlp_simclrhn_probe2,1,59,NaN,knife,bottle,180,0059_rot_dnn_180_bottle_20_n04557648_1871.png,n04557648_1871.png,0.0,-2.309059,-0.4006049,-1.3494807
alexnet_w1_mlp_simclrhn_probe2,1,60,NaN,oven,chair,90,0060_rot_dnn_90_chair_20_n04099969_6944.png,n04099969_6944.png,0.0,-0.06746061,2.2842867,-1.6629364
alexnet_w1_mlp_simclrhn_probe2,1,61,NaN,chair,boat,270,0061_rot_dnn_270_boat_20_n04273569_1495.png,n04273569_1495.png,0.0,-2.6079147,-0.7860705,-1.2882383
alexnet_w1_mlp_simclrhn_probe2,1,62,NaN,keyboard,keyboard,90,0062_rot_dnn_90_keyboard_20_n03085013_7317.png,n03085013_7317.png,1.0,2.1526883,-0.2926769,1.7291343
alexnet_w1_mlp_simclrhn_probe2,1,63,NaN,knife,knife,90,0063_rot_dnn_90_knife_20_n03041632_7448.png,n03041632_7448.png,1.0,0.43731064,-0.07030802,0.3589406
alexnet_w1_mlp_simclrhn_probe2,1,64,NaN,truck,truck,0,0064_rot_dnn_0_truck_20_n03417042_11000.png,n03417042_11000.png,1.0,3.1269565,1.6491265,1.0449836
alexnet_w1_mlp_simclrhn_probe2,1,65,NaN,bird,bird,0,0065_rot_dnn_0_bird_20_n01582220_8827.png,n01582220_8827.png,1.0,1.3542576,-2.2940114,2.5797157
alexnet_w1_mlp_simclrhn_probe2,1,66,NaN,chair,airplane,270,0066_rot_dnn_270_airplane_20_n02690373_9247.png,n02690373_9247.png,0.0,-7.2484694,-1.1083021,-4.341754
alexnet_w1_mlp_simclrhn_probe2,1,67,NaN,cat,bear,270,0067_rot_dnn_270_bear_20_n02133161_14397.png,n02133161_14397.png,0.0,2.163252,2.5518053,-0.27474856
alexnet_w1_mlp_simclrhn_probe2,1,68,NaN,oven,oven,270,0068_rot_dnn_270_oven_20_n04111531_13560.png,n04111531_13560.png,1.0,2.5217135,0.2915161,1.5769877
alexnet_w1_mlp_simclrhn_probe2,1,69,NaN,bear,bear,180,0069_rot_dnn_180_bear_20_n02132136_545.png,n02132136_545.png,1.0,-0.24166851,-0.9011493,0.46632332
alexnet_w1_mlp_simclrhn_probe2,1,70,NaN,elephant,cat,90,0070_rot_dnn_90_cat_20_n02125311_73072.png,n02125311_73072.png,0.0,-1.8048149,3.369122,-3.658526
alexnet_w1_mlp_simclrhn_probe2,1,71,NaN,bicycle,bicycle,0,0071_rot_dnn_0_bicycle_20_n03792782_30530.png,n03792782_30530.png,1.0,3.7623644,2.188758,1.1127079
alexnet_w1_mlp_simclrhn_probe2,1,72,NaN,knife,knife,90,0072_rot_dnn_90_knife_20_n03041632_4975.png,n03041632_4975.png,1.0,-0.58112806,-1.8654705,0.9081673
alexnet_w1_mlp_simclrhn_probe2,1,73,NaN,knife,dog,90,0073_rot_dnn_90_dog_20_n02107683_3120.png,n02107683_3120.png,0.0,-3.2857203,-0.98995197,-1.6233534
alexnet_w1_mlp_simclrhn_probe2,1,74,NaN,bear,elephant,90,0074_rot_dnn_90_elephant_20_n02504013_7316.png,n02504013_7316.png,0.0,-1.8164783,-0.89134645,-0.654167
alexnet_w1_mlp_simclrhn_probe2,1,75,NaN,knife,truck,90,0075_rot_dnn_90_truck_20_n03796401_7284.png,n03796401_7284.png,0.0,-3.7428079,0.4925109,-2.9948225
alexnet_w1_mlp_simclrhn_probe2,1,76,NaN,oven,chair,270,0076_rot_dnn_270_chair_20_n03376595_497.png,n03376595_497.png,0.0,0.7150039,0.7994497,-0.05971218
alexnet_w1_mlp_simclrhn_probe2,1,77,NaN,chair,truck,270,0077_rot_dnn_270_truck_20_n03796401_19845.png,n03796401_19845.png,0.0,-0.24158883,0.63078314,-0.61686015
alexnet_w1_mlp_simclrhn_probe2,1,78,NaN,knife,chair,90,0078_rot_dnn_90_chair_20_n04099969_1941.png,n04099969_1941.png,0.0,-1.4944569,-0.55269796,-0.66592413
alexnet_w1_mlp_simclrhn_probe2,1,79,NaN,chair,truck,90,0079_rot_dnn_90_truck_20_n03417042_28886.png,n03417042_28886.png,0.0,-0.39531994,-0.09065759,-0.21542881
alexnet_w1_mlp_simclrhn_probe2,1,80,NaN,car,car,0,0080_rot_dnn_0_car_20_n02814533_12185.png,n02814533_12185.png,1.0,2.718877,-0.9245673,2.5763042
alexnet_w1_mlp_simclrhn_probe2,1,81,NaN,bicycle,bicycle,90,0081_rot_dnn_90_bicycle_20_n02835271_1621.png,n02835271_1621.png,1.0,1.4541223,0.21453309,0.87652194
alexnet_w1_mlp_simclrhn_probe2,1,82,NaN,cat,cat,0,0082_rot_dnn_0_cat_20_n02123597_32226.png,n02123597_32226.png,1.0,3.4650571,1.0679708,1.6949961
alexnet_w1_mlp_simclrhn_probe2,1,83,NaN,bicycle,bicycle,90,0083_rot_dnn_90_bicycle_20_n03792782_5048.png,n03792782_5048.png,1.0,0.36130986,-1.3044579,1.1778758
alexnet_w1_mlp_simclrhn_probe2,1,84,NaN,airplane,airplane,0,0084_rot_dnn_0_airplane_20_n02690373_10044.png,n02690373_10044.png,1.0,9.1866255,4.1756687,3.5432816
alexnet_w1_mlp_simclrhn_probe2,1,85,NaN,car,car,180,0085_rot_dnn_180_car_20_n03100240_5752.png,n03100240_5752.png,1.0,1.0302392,0.301813,0.51507515
alexnet_w1_mlp_simclrhn_probe2,1,86,NaN,bottle,car,90,0086_rot_dnn_90_car_20_n02814533_68219.png,n02814533_68219.png,0.0,-2.7993128,0.42769924,-2.2818422
alexnet_w1_mlp_simclrhn_probe2,1,87,NaN,airplane,airplane,0,0087_rot_dnn_0_airplane_20_n02690373_1171.png,n02690373_1171.png,1.0,3.4394226,1.0530671,1.6874081
alexnet_w1_mlp_simclrhn_probe2,1,88,NaN,chair,bird,90,0088_rot_dnn_90_bird_20_n01817953_6970.png,n01817953_6970.png,0.0,-5.362763,0.40217182,-4.0764246
alexnet_w1_mlp_simclrhn_probe2,1,89,NaN,chair,car,90,0089_rot_dnn_90_car_20_n04285008_15503.png,n04285008_15503.png,0.0,-1.4334483,0.56112003,-1.4103729
alexnet_w1_mlp_simclrhn_probe2,1,90,NaN,chair,boat,270,0090_rot_dnn_270_boat_20_n03344393_11886.png,n03344393_11886.png,0.0,-0.47083062,-0.10521372,-0.2585302
alexnet_w1_mlp_simclrhn_probe2,1,91,NaN,boat,boat,0,0091_rot_dnn_0_boat_20_n04273569_30203.png,n04273569_30203.png,1.0,2.4015694,1.3077244,0.7734652
alexnet_w1_mlp_simclrhn_probe2,1,92,NaN,keyboard,keyboard,180,0092_rot_dnn_180_keyboard_20_n03085013_22069.png,n03085013_22069.png,1.0,4.8087907,0.3472608,3.154778
alexnet_w1_mlp_simclrhn_probe2,1,93,NaN,airplane,knife,0,0093_rot_dnn_0_knife_20_n03041632_26314.png,n03041632_26314.png,0.0,0.20143513,0.35624474,-0.109466925
alexnet_w1_mlp_simclrhn_probe2,1,94,NaN,bicycle,bicycle,270,0094_rot_dnn_270_bicycle_20_n03792782_18308.png,n03792782_18308.png,1.0,-0.8613967,-0.88719666,0.018243348
alexnet_w1_mlp_simclrhn_probe2,1,95,NaN,airplane,car,180,0095_rot_dnn_180_car_20_n04285008_8396.png,n04285008_8396.png,0.0,1.208572,1.2758329,-0.047560614
alexnet_w1_mlp_simclrhn_probe2,1,96,NaN,oven,bear,90,0096_rot_dnn_90_bear_20_n02133161_12349.png,n02133161_12349.png,0.0,-2.0165067,0.5212316,-1.794452
alexnet_w1_mlp_simclrhn_probe2,1,97,NaN,bear,bear,270,0097_rot_dnn_270_bear_20_n02132136_18303.png,n02132136_18303.png,1.0,2.8759937,2.79896,0.054471094
alexnet_w1_mlp_simclrhn_probe2,1,98,NaN,cat,cat,180,0098_rot_dnn_180_cat_20_n02123394_6853.png,n02123394_6853.png,1.0,2.486374,-0.31634218,1.9818195
alexnet_w1_mlp_simclrhn_probe2,1,99,NaN,knife,cat,180,0099_rot_dnn_180_cat_20_n02123597_4805.png,n02123597_4805.png,0.0,-3.3625526,0.80454296,-2.9465816
alexnet_w1_mlp_simclrhn_probe2,1,100,NaN,clock,car,0,0100_rot_dnn_0_car_20_n03100240_17587.png,n03100240_17587.png,0.0,-4.559699,0.023475528,-3.240794
alexnet_w1_mlp_simclrhn_probe2,1,101,NaN,bird,bird,180,0101_rot_dnn_180_bird_20_n01601694_19236.png,n01601694_19236.png,1.0,-1.9904125,-2.0778909,0.06185657
alexnet_w1_mlp_simclrhn_probe2,1,102,NaN,cat,cat,0,0102_rot_dnn_0_cat_20_n02123597_2341.png,n02123597_2341.png,1.0,5.3357697,0.6577177,3.3078823
alexnet_w1_mlp_simclrhn_probe2,1,103,NaN,bear,elephant,270,0103_rot_dnn_270_elephant_20_n02504013_7883.png,n02504013_7883.png,0.0,0.6907192,0.88919246,-0.1403418
alexnet_w1_mlp_simclrhn_probe2,1,104,NaN,bicycle,chair,270,0104_rot_dnn_270_chair_20_n03376595_14240.png,n03376595_14240.png,0.0,-3.9027715,0.52903783,-3.1337626
alexnet_w1_mlp_simclrhn_probe2,1,105,NaN,airplane,airplane,0,0105_rot_dnn_0_airplane_20_n02690373_10188.png,n02690373_10188.png,1.0,5.0387025,2.0801153,2.0920372
alexnet_w1_mlp_simclrhn_probe2,1,106,NaN,chair,truck,90,0106_rot_dnn_90_truck_20_n03417042_8634.png,n03417042_8634.png,0.0,-0.67699087,1.5351148,-1.564195
alexnet_w1_mlp_simclrhn_probe2,1,107,NaN,knife,knife,90,0107_rot_dnn_90_knife_20_n03041632_32774.png,n03041632_32774.png,1.0,0.11194495,-0.34515765,0.32322034
alexnet_w1_mlp_simclrhn_probe2,1,108,NaN,knife,bottle,90,0108_rot_dnn_90_bottle_20_n03983396_4115.png,n03983396_4115.png,0.0,0.031832814,0.6504445,-0.43742454
alexnet_w1_mlp_simclrhn_probe2,1,109,NaN,clock,clock,270,0109_rot_dnn_270_clock_20_n04548280_8552.png,n04548280_8552.png,1.0,2.1223118,1.0893432,0.73041916
alexnet_w1_mlp_simclrhn_probe2,1,110,NaN,car,car,0,0110_rot_dnn_0_car_20_n02814533_6233.png,n02814533_6233.png,1.0,12.034309,5.7087345,4.472857
alexnet_w1_mlp_simclrhn_probe2,1,111,NaN,elephant,elephant,0,0111_rot_dnn_0_elephant_20_n02504458_9870.png,n02504458_9870.png,1.0,5.227252,0.6119545,3.263508
alexnet_w1_mlp_simclrhn_probe2,1,112,NaN,bicycle,bicycle,270,0112_rot_dnn_270_bicycle_20_n02835271_3956.png,n02835271_3956.png,1.0,2.171152,-0.10911256,1.6123906
alexnet_w1_mlp_simclrhn_probe2,1,113,NaN,chair,knife,90,0113_rot_dnn_90_knife_20_n03041632_14817.png,n03041632_14817.png,0.0,-0.9436517,1.1923182,-1.5103588
alexnet_w1_mlp_simclrhn_probe2,1,114,NaN,oven,chair,90,0114_rot_dnn_90_chair_20_n04099969_8642.png,n04099969_8642.png,0.0,-3.211455,1.9953306,-3.6817536
alexnet_w1_mlp_simclrhn_probe2,1,115,NaN,clock,clock,0,0115_rot_dnn_0_clock_20_n02708093_240.png,n02708093_240.png,1.0,2.7841463,1.8607436,0.6529443
alexnet_w1_mlp_simclrhn_probe2,1,116,NaN,bear,bear,180,0116_rot_dnn_180_bear_20_n02133161_3896.png,n02133161_3896.png,1.0,1.3882964,0.19899508,0.840963
alexnet_w1_mlp_simclrhn_probe2,1,117,NaN,bicycle,bottle,270,0117_rot_dnn_270_bottle_20_n04557648_11000.png,n04557648_11000.png,0.0,-1.2271593,-0.47308838,-0.53320867
alexnet_w1_mlp_simclrhn_probe2,1,118,NaN,clock,keyboard,90,0118_rot_dnn_90_keyboard_20_n03085013_2853.png,n03085013_2853.png,0.0,0.6635365,3.5363436,-2.0313814
alexnet_w1_mlp_simclrhn_probe2,1,119,NaN,bottle,boat,90,0119_rot_dnn_90_boat_20_n04273569_7097.png,n04273569_7097.png,0.0,-3.614045,-0.64355916,-2.1004505
alexnet_w1_mlp_simclrhn_probe2,1,120,NaN,bicycle,bicycle,270,0120_rot_dnn_270_bicycle_20_n03792782_40932.png,n03792782_40932.png,1.0,1.7919443,-2.3695226,2.9426012
alexnet_w1_mlp_simclrhn_probe2,1,121,NaN,oven,chair,270,0121_rot_dnn_270_chair_20_n04429376_44914.png,n04429376_44914.png,0.0,2.0807962,2.624854,-0.384707
alexnet_w1_mlp_simclrhn_probe2,1,122,NaN,knife,bear,180,0122_rot_dnn_180_bear_20_n02134418_2122.png,n02134418_2122.png,0.0,-4.081928,-1.2762425,-1.9839191
alexnet_w1_mlp_simclrhn_probe2,1,123,NaN,knife,keyboard,90,0123_rot_dnn_90_keyboard_20_n03085013_22704.png,n03085013_22704.png,0.0,-0.40767395,0.41748825,-0.5834778
alexnet_w1_mlp_simclrhn_probe2,1,124,NaN,truck,truck,0,0124_rot_dnn_0_truck_20_n03417042_6838.png,n03417042_6838.png,1.0,1.6651454,0.57785684,0.76882917
alexnet_w1_mlp_simclrhn_probe2,1,125,NaN,elephant,elephant,0,0125_rot_dnn_0_elephant_20_n02504458_3628.png,n02504458_3628.png,1.0,8.422891,1.1286569,5.157802
alexnet_w1_mlp_simclrhn_probe2,1,126,NaN,cat,cat,90,0126_rot_dnn_90_cat_20_n02123597_10141.png,n02123597_10141.png,1.0,1.8345876,0.13456814,1.2020953
alexnet_w1_mlp_simclrhn_probe2,1,127,NaN,bicycle,bicycle,0,0127_rot_dnn_0_bicycle_20_n02835271_6383.png,n02835271_6383.png,1.0,5.1275196,-1.643799,4.7880454
alexnet_w1_mlp_simclrhn_probe2,1,128,NaN,oven,car,180,0128_rot_dnn_180_car_20_n04285008_7154.png,n04285008_7154.png,0.0,-1.6240164,-0.30581057,-0.9321123
alexnet_w1_mlp_simclrhn_probe2,1,129,NaN,airplane,bird,0,0129_rot_dnn_0_bird_20_n02007558_1068.png,n02007558_1068.png,0.0,-1.9308536,2.8346026,-3.3696864
alexnet_w1_mlp_simclrhn_probe2,1,130,NaN,bird,cat,90,0130_rot_dnn_90_cat_20_n02125311_1896.png,n02125311_1896.png,0.0,-1.6313866,-0.9769485,-0.46275765
alexnet_w1_mlp_simclrhn_probe2,1,131,NaN,keyboard,keyboard,0,0131_rot_dnn_0_keyboard_20_n04505470_1903.png,n04505470_1903.png,1.0,14.501276,1.1313703,9.453951
alexnet_w1_mlp_simclrhn_probe2,1,132,NaN,knife,bicycle,90,0132_rot_dnn_90_bicycle_20_n03792782_66159.png,n03792782_66159.png,0.0,-1.852984,-1.3035195,-0.38853005
alexnet_w1_mlp_simclrhn_probe2,1,133,NaN,bear,bear,90,0133_rot_dnn_90_bear_20_n02134418_5219.png,n02134418_5219.png,1.0,4.1517653,1.6949812,1.7372088
alexnet_w1_mlp_simclrhn_probe2,1,134,NaN,chair,car,90,0134_rot_dnn_90_car_20_n02814533_92229.png,n02814533_92229.png,0.0,-0.34723023,0.73403746,-0.7645717
alexnet_w1_mlp_simclrhn_probe2,1,135,NaN,cat,dog,90,0135_rot_dnn_90_dog_20_n02090721_1002.png,n02090721_1002.png,0.0,-2.1759784,0.9375289,-2.2015822
alexnet_w1_mlp_simclrhn_probe2,1,136,NaN,chair,truck,270,0136_rot_dnn_270_truck_20_n04467665_46263.png,n04467665_46263.png,0.0,-2.7645903,-1.1535212,-1.139198
alexnet_w1_mlp_simclrhn_probe2,1,137,NaN,bottle,bottle,180,0137_rot_dnn_180_bottle_20_n03983396_704.png,n03983396_704.png,1.0,0.47689176,-0.017893866,0.34986627
alexnet_w1_mlp_simclrhn_probe2,1,138,NaN,oven,truck,180,0138_rot_dnn_180_truck_20_n03796401_4149.png,n03796401_4149.png,0.0,-2.3028717,0.744012,-2.154472
alexnet_w1_mlp_simclrhn_probe2,1,139,NaN,bird,bird,0,0139_rot_dnn_0_bird_20_n02006656_2030.png,n02006656_2030.png,1.0,2.6117084,-4.6895323,5.162757
alexnet_w1_mlp_simclrhn_probe2,1,140,NaN,cat,cat,90,0140_rot_dnn_90_cat_20_n02123394_234.png,n02123394_234.png,1.0,2.1998484,-0.0010029901,1.556237
alexnet_w1_mlp_simclrhn_probe2,1,141,NaN,oven,chair,90,0141_rot_dnn_90_chair_20_n04429376_19916.png,n04429376_19916.png,0.0,-0.78326124,6.1381025,-4.8941436
alexnet_w1_mlp_simclrhn_probe2,1,142,NaN,bottle,truck,270,0142_rot_dnn_270_truck_20_n04467665_14024.png,n04467665_14024.png,0.0,-0.6932397,1.2659948,-1.385388
alexnet_w1_mlp_simclrhn_probe2,1,143,NaN,keyboard,chair,90,0143_rot_dnn_90_chair_20_n04429376_14729.png,n04429376_14729.png,0.0,-2.969302,7.739852,-7.5725155
alexnet_w1_mlp_simclrhn_probe2,1,144,NaN,knife,car,270,0144_rot_dnn_270_car_20_n02814533_82321.png,n02814533_82321.png,0.0,-0.5054979,-0.49007395,-0.010906361
alexnet_w1_mlp_simclrhn_probe2,1,145,NaN,clock,clock,180,0145_rot_dnn_180_clock_20_n04548280_3701.png,n04548280_3701.png,1.0,0.45345914,-0.27913588,0.5180229
alexnet_w1_mlp_simclrhn_probe2,1,146,NaN,knife,boat,270,0146_rot_dnn_270_boat_20_n02951358_11442.png,n02951358_11442.png,0.0,-3.7816186,-1.4209508,-1.6692442
alexnet_w1_mlp_simclrhn_probe2,1,147,NaN,bear,bear,90,0147_rot_dnn_90_bear_20_n02132136_17349.png,n02132136_17349.png,1.0,2.7159925,0.64408404,1.4650606
alexnet_w1_mlp_simclrhn_probe2,1,148,NaN,oven,airplane,90,0148_rot_dnn_90_airplane_20_n02690373_4982.png,n02690373_4982.png,0.0,-7.1686234,1.7263279,-6.28968
alexnet_w1_mlp_simclrhn_probe2,1,149,NaN,boat,airplane,0,0149_rot_dnn_0_airplane_20_n02690373_2232.png,n02690373_2232.png,0.0,1.1301614,1.4147874,-0.20126098
alexnet_w1_mlp_simclrhn_probe2,1,150,NaN,cat,cat,180,0150_rot_dnn_180_cat_20_n02123045_909.png,n02123045_909.png,1.0,-0.36501276,-1.3775587,0.7159781
alexnet_w1_mlp_simclrhn_probe2,1,151,NaN,keyboard,clock,180,0151_rot_dnn_180_clock_20_n04548280_1190.png,n04548280_1190.png,0.0,3.609721,4.2436113,-0.4482282
alexnet_w1_mlp_simclrhn_probe2,1,152,NaN,oven,oven,90,0152_rot_dnn_90_oven_20_n04111531_1855.png,n04111531_1855.png,1.0,2.1799426,-0.64344203,1.9964346
alexnet_w1_mlp_simclrhn_probe2,1,153,NaN,chair,boat,270,0153_rot_dnn_270_boat_20_n03662601_21408.png,n03662601_21408.png,0.0,-1.4125001,0.6207044,-1.4376928
alexnet_w1_mlp_simclrhn_probe2,1,154,NaN,bottle,dog,90,0154_rot_dnn_90_dog_20_n02088364_15877.png,n02088364_15877.png,0.0,-2.2454722,-0.76408863,-1.0474964
alexnet_w1_mlp_simclrhn_probe2,1,155,NaN,airplane,knife,90,0155_rot_dnn_90_knife_20_n03041632_15250.png,n03041632_15250.png,0.0,-0.3695291,-0.27716944,-0.065308146
alexnet_w1_mlp_simclrhn_probe2,1,156,NaN,oven,oven,0,0156_rot_dnn_0_oven_20_n04111531_17006.png,n04111531_17006.png,1.0,3.7653432,-0.30759472,2.880002
alexnet_w1_mlp_simclrhn_probe2,1,157,NaN,clock,clock,90,0157_rot_dnn_90_clock_20_n04548280_11763.png,n04548280_11763.png,1.0,1.8160683,-0.2078118,1.4310993
alexnet_w1_mlp_simclrhn_probe2,1,158,NaN,bird,bird,270,0158_rot_dnn_270_bird_20_n02028035_8327.png,n02028035_8327.png,1.0,-0.23304638,-2.127752,1.3397592
alexnet_w1_mlp_simclrhn_probe2,1,159,NaN,bottle,car,90,0159_rot_dnn_90_car_20_n04285008_5641.png,n04285008_5641.png,0.0,-2.7264261,-1.1096524,-1.1432316
alexnet_w1_mlp_simclrhn_probe2,1,160,NaN,clock,oven,90,0160_rot_dnn_90_oven_20_n04111531_10727.png,n04111531_10727.png,0.0,-1.2404763,0.64663786,-1.3343911
alexnet_w1_mlp_simclrhn_probe2,1,161,NaN,oven,elephant,270,0161_rot_dnn_270_elephant_20_n02504458_1971.png,n02504458_1971.png,0.0,-0.47705853,-0.20892793,-0.18959697
alexnet_w1_mlp_simclrhn_probe2,1,162,NaN,bottle,bottle,180,0162_rot_dnn_180_bottle_20_n04560804_15941.png,n04560804_15941.png,1.0,1.606119,-1.5680414,2.2444704
alexnet_w1_mlp_simclrhn_probe2,1,163,NaN,elephant,elephant,0,0163_rot_dnn_0_elephant_20_n02504458_151.png,n02504458_151.png,1.0,14.092659,6.134741,5.627098
alexnet_w1_mlp_simclrhn_probe2,1,164,NaN,bear,bear,180,0164_rot_dnn_180_bear_20_n02133161_15427.png,n02133161_15427.png,1.0,2.4091887,1.00425,0.9934417
alexnet_w1_mlp_simclrhn_probe2,1,165,NaN,elephant,bear,180,0165_rot_dnn_180_bear_20_n02134084_20605.png,n02134084_20605.png,0.0,-1.156789,1.6311309,-1.9713572
alexnet_w1_mlp_simclrhn_probe2,1,166,NaN,bottle,bottle,90,0166_rot_dnn_90_bottle_20_n04560804_2693.png,n04560804_2693.png,1.0,-1.6227055,-2.431378,0.57181776
alexnet_w1_mlp_simclrhn_probe2,1,167,NaN,clock,airplane,270,0167_rot_dnn_270_airplane_20_n02690373_8214.png,n02690373_8214.png,0.0,-8.193281,0.54486877,-6.178805
alexnet_w1_mlp_simclrhn_probe2,1,168,NaN,boat,boat,0,0168_rot_dnn_0_boat_20_n02951358_14966.png,n02951358_14966.png,1.0,0.7175727,-0.23839132,0.67596865
alexnet_w1_mlp_simclrhn_probe2,1,169,NaN,knife,knife,90,0169_rot_dnn_90_knife_20_n03041632_14801.png,n03041632_14801.png,1.0,-1.7444443,-2.1051822,0.25508022
alexnet_w1_mlp_simclrhn_probe2,1,170,NaN,dog,dog,90,0170_rot_dnn_90_dog_20_n02110063_8776.png,n02110063_8776.png,1.0,-1.039427,-1.4029695,0.25706333
alexnet_w1_mlp_simclrhn_probe2,1,171,NaN,bicycle,dog,180,0171_rot_dnn_180_dog_20_n02100236_7671.png,n02100236_7671.png,0.0,-3.4508245,-0.084827065,-2.3801196
alexnet_w1_mlp_simclrhn_probe2,1,172,NaN,oven,oven,0,0172_rot_dnn_0_oven_20_n04111531_21248.png,n04111531_21248.png,1.0,3.05203,-2.2414665,3.7430675
alexnet_w1_mlp_simclrhn_probe2,1,173,NaN,oven,knife,270,0173_rot_dnn_270_knife_20_n03041632_17100.png,n03041632_17100.png,0.0,-1.1332281,2.1978836,-2.3554516
alexnet_w1_mlp_simclrhn_probe2,1,174,NaN,oven,knife,0,0174_rot_dnn_0_knife_20_n03041632_3781.png,n03041632_3781.png,0.0,-0.84820455,1.0221431,-1.3225356
alexnet_w1_mlp_simclrhn_probe2,1,175,NaN,chair,oven,270,0175_rot_dnn_270_oven_20_n04111531_46651.png,n04111531_46651.png,0.0,-0.5974554,1.7529559,-1.6619918
alexnet_w1_mlp_simclrhn_probe2,1,176,NaN,clock,clock,0,0176_rot_dnn_0_clock_20_n04548280_8303.png,n04548280_8303.png,1.0,0.7430292,0.5334526,0.14819305
alexnet_w1_mlp_simclrhn_probe2,1,177,NaN,airplane,airplane,0,0177_rot_dnn_0_airplane_20_n02690373_2070.png,n02690373_2070.png,1.0,6.8611956,-1.042176,5.5885277
alexnet_w1_mlp_simclrhn_probe2,1,178,NaN,airplane,car,180,0178_rot_dnn_180_car_20_n03100240_574.png,n03100240_574.png,0.0,-0.7535946,-0.035848036,-0.5075235
alexnet_w1_mlp_simclrhn_probe2,1,179,NaN,bear,dog,90,0179_rot_dnn_90_dog_20_n02095570_11263.png,n02095570_11263.png,0.0,-1.4547769,0.021693304,-1.0440221
alexnet_w1_mlp_simclrhn_probe2,1,180,NaN,oven,bottle,180,0180_rot_dnn_180_bottle_20_n03983396_9667.png,n03983396_9667.png,0.0,0.26325083,0.40039498,-0.09697556
alexnet_w1_mlp_simclrhn_probe2,1,181,NaN,clock,clock,0,0181_rot_dnn_0_clock_20_n02708093_3535.png,n02708093_3535.png,1.0,8.925909,4.203211,3.339452
alexnet_w1_mlp_simclrhn_probe2,1,182,NaN,bird,bird,180,0182_rot_dnn_180_bird_20_n01531178_17239.png,n01531178_17239.png,1.0,-0.26107875,-2.7336814,1.7483941
alexnet_w1_mlp_simclrhn_probe2,1,183,NaN,elephant,elephant,180,0183_rot_dnn_180_elephant_20_n02504458_2272.png,n02504458_2272.png,1.0,2.0503886,-1.1261886,2.2461793
alexnet_w1_mlp_simclrhn_probe2,1,184,NaN,knife,knife,90,0184_rot_dnn_90_knife_20_n03041632_50648.png,n03041632_50648.png,1.0,2.9773912,-0.9319638,2.7643316
alexnet_w1_mlp_simclrhn_probe2,1,185,NaN,knife,knife,0,0185_rot_dnn_0_knife_20_n03041632_33225.png,n03041632_33225.png,1.0,0.17766023,-2.6925063,2.0295143
alexnet_w1_mlp_simclrhn_probe2,1,186,NaN,airplane,airplane,0,0186_rot_dnn_0_airplane_20_n02690373_736.png,n02690373_736.png,1.0,8.263298,3.248825,3.5457678
alexnet_w1_mlp_simclrhn_probe2,1,187,NaN,bottle,knife,270,0187_rot_dnn_270_knife_20_n03041632_2546.png,n03041632_2546.png,0.0,-0.76275176,-0.25685477,-0.3577232
alexnet_w1_mlp_simclrhn_probe2,1,188,NaN,boat,boat,180,0188_rot_dnn_180_boat_20_n04273569_13053.png,n04273569_13053.png,1.0,2.7176414,1.2890183,1.010189
alexnet_w1_mlp_simclrhn_probe2,1,189,NaN,airplane,airplane,180,0189_rot_dnn_180_airplane_20_n02690373_3588.png,n02690373_3588.png,1.0,2.0997987,0.7270405,0.9706866
alexnet_w1_mlp_simclrhn_probe2,1,190,NaN,cat,keyboard,0,0190_rot_dnn_0_keyboard_20_n03085013_21004.png,n03085013_21004.png,0.0,-6.8912983,2.388066,-6.5615015
alexnet_w1_mlp_simclrhn_probe2,1,191,NaN,boat,boat,180,0191_rot_dnn_180_boat_20_n03662601_16627.png,n03662601_16627.png,1.0,-0.10922015,-0.35527074,0.17398405
alexnet_w1_mlp_simclrhn_probe2,1,192,NaN,bird,bird,180,0192_rot_dnn_180_bird_20_n02017213_6478.png,n02017213_6478.png,1.0,-0.4903444,-1.944601,1.0283147
alexnet_w1_mlp_simclrhn_probe2,1,193,NaN,bear,bear,90,0193_rot_dnn_90_bear_20_n02134418_998.png,n02134418_998.png,1.0,1.0734801,-0.9295694,1.41637
alexnet_w1_mlp_simclrhn_probe2,1,194,NaN,bicycle,truck,90,0194_rot_dnn_90_truck_20_n04467665_71055.png,n04467665_71055.png,0.0,-2.137927,0.6536331,-1.9739312
alexnet_w1_mlp_simclrhn_probe2,1,195,NaN,knife,car,90,0195_rot_dnn_90_car_20_n02814533_23979.png,n02814533_23979.png,0.0,-1.223833,0.5976922,-1.2880127
alexnet_w1_mlp_simclrhn_probe2,1,196,NaN,elephant,elephant,180,0196_rot_dnn_180_elephant_20_n02504458_6805.png,n02504458_6805.png,1.0,0.1980834,0.13132796,0.047203228
alexnet_w1_mlp_simclrhn_probe2,1,197,NaN,clock,clock,90,0197_rot_dnn_90_clock_20_n04548280_4841.png,n04548280_4841.png,1.0,1.2526454,0.12749286,0.795603
alexnet_w1_mlp_simclrhn_probe2,1,198,NaN,chair,boat,90,0198_rot_dnn_90_boat_20_n03662601_6832.png,n03662601_6832.png,0.0,-2.1431112,-0.121326916,-1.4296174
alexnet_w1_mlp_simclrhn_probe2,1,199,NaN,oven,oven,270,0199_rot_dnn_270_oven_20_n04111531_766.png,n04111531_766.png,1.0,3.5808647,-0.69098455,3.0206535
alexnet_w1_mlp_simclrhn_probe2,1,200,NaN,bicycle,clock,0,0200_rot_dnn_0_clock_20_n04548280_1305.png,n04548280_1305.png,0.0,-4.3943,-2.2965825,-1.4833103
alexnet_w1_mlp_simclrhn_probe2,1,201,NaN,bicycle,bicycle,0,0201_rot_dnn_0_bicycle_20_n03792782_19083.png,n03792782_19083.png,1.0,4.535149,-0.45782933,3.530569
alexnet_w1_mlp_simclrhn_probe2,1,202,NaN,oven,bird,90,0202_rot_dnn_90_bird_20_n01860187_20081.png,n01860187_20081.png,0.0,-2.8149698,-0.49462754,-1.6407298
alexnet_w1_mlp_simclrhn_probe2,1,203,NaN,oven,oven,0,0203_rot_dnn_0_oven_20_n04111531_4817.png,n04111531_4817.png,1.0,1.178406,-0.92434,1.486866
alexnet_w1_mlp_simclrhn_probe2,1,204,NaN,car,car,180,0204_rot_dnn_180_car_20_n02814533_33360.png,n02814533_33360.png,1.0,0.09469259,-0.98124045,0.7607995
alexnet_w1_mlp_simclrhn_probe2,1,205,NaN,clock,clock,270,0205_rot_dnn_270_clock_20_n04548280_4035.png,n04548280_4035.png,1.0,1.8736877,1.4168868,0.32300705
alexnet_w1_mlp_simclrhn_probe2,1,206,NaN,keyboard,keyboard,270,0206_rot_dnn_270_keyboard_20_n03085013_7879.png,n03085013_7879.png,1.0,1.271866,0.25255787,0.7207597
alexnet_w1_mlp_simclrhn_probe2,1,207,NaN,airplane,airplane,0,0207_rot_dnn_0_airplane_20_n02690373_2598.png,n02690373_2598.png,1.0,6.919488,1.7521584,3.653854
alexnet_w1_mlp_simclrhn_probe2,1,208,NaN,cat,cat,180,0208_rot_dnn_180_cat_20_n02123045_436.png,n02123045_436.png,1.0,2.6174312,0.04555492,1.8185912
alexnet_w1_mlp_simclrhn_probe2,1,209,NaN,chair,airplane,270,0209_rot_dnn_270_airplane_20_n02690373_813.png,n02690373_813.png,0.0,-5.191209,-0.74065214,-3.147019
alexnet_w1_mlp_simclrhn_probe2,1,210,NaN,cat,cat,0,0210_rot_dnn_0_cat_20_n02123159_1008.png,n02123159_1008.png,1.0,11.916214,-4.670605,11.728652
alexnet_w1_mlp_simclrhn_probe2,1,211,NaN,bottle,bottle,90,0211_rot_dnn_90_bottle_20_n03983396_5452.png,n03983396_5452.png,1.0,0.0050016725,-0.84919703,0.6040097
alexnet_w1_mlp_simclrhn_probe2,1,212,NaN,knife,dog,90,0212_rot_dnn_90_dog_20_n02090379_13010.png,n02090379_13010.png,0.0,-2.6288817,-1.5352929,-0.7732841
alexnet_w1_mlp_simclrhn_probe2,1,213,NaN,airplane,chair,180,0213_rot_dnn_180_chair_20_n04099969_4162.png,n04099969_4162.png,0.0,-1.615571,0.38473845,-1.4144324
alexnet_w1_mlp_simclrhn_probe2,1,214,NaN,oven,keyboard,270,0214_rot_dnn_270_keyboard_20_n04505470_206.png,n04505470_206.png,0.0,-0.88426113,1.2713597,-1.5242541
alexnet_w1_mlp_simclrhn_probe2,1,215,NaN,oven,cat,0,0215_rot_dnn_0_cat_20_n02123045_5290.png,n02123045_5290.png,0.0,-2.7517588,-0.9922473,-1.2441626
alexnet_w1_mlp_simclrhn_probe2,1,216,NaN,oven,bird,180,0216_rot_dnn_180_bird_20_n01843383_6001.png,n01843383_6001.png,0.0,-3.7246253,-2.177703,-1.0938394
alexnet_w1_mlp_simclrhn_probe2,1,217,NaN,knife,knife,0,0217_rot_dnn_0_knife_20_n03041632_24376.png,n03041632_24376.png,1.0,0.21116027,-1.0619802,0.9002463
alexnet_w1_mlp_simclrhn_probe2,1,218,NaN,bicycle,bicycle,90,0218_rot_dnn_90_bicycle_20_n02835271_2915.png,n02835271_2915.png,1.0,0.55626464,-1.6164916,1.5363706
alexnet_w1_mlp_simclrhn_probe2,1,219,NaN,bicycle,bicycle,0,0219_rot_dnn_0_bicycle_20_n03792782_5517.png,n03792782_5517.png,1.0,10.228958,0.41787475,6.937484
alexnet_w1_mlp_simclrhn_probe2,1,220,NaN,bicycle,bicycle,90,0220_rot_dnn_90_bicycle_20_n02835271_7053.png,n02835271_7053.png,1.0,1.5979135,-2.6589284,3.0100417
alexnet_w1_mlp_simclrhn_probe2,1,221,NaN,clock,clock,180,0221_rot_dnn_180_clock_20_n04548280_7115.png,n04548280_7115.png,1.0,0.45203128,-1.5516642,1.4168267
alexnet_w1_mlp_simclrhn_probe2,1,222,NaN,bottle,boat,270,0222_rot_dnn_270_boat_20_n04273569_29866.png,n04273569_29866.png,0.0,-5.1214013,-2.731467,-1.6899388
alexnet_w1_mlp_simclrhn_probe2,1,223,NaN,bicycle,clock,90,0223_rot_dnn_90_clock_20_n02708093_3623.png,n02708093_3623.png,0.0,0.23897107,1.65497,-1.0012624
alexnet_w1_mlp_simclrhn_probe2,1,224,NaN,bear,bear,180,0224_rot_dnn_180_bear_20_n02132136_7468.png,n02132136_7468.png,1.0,1.128569,0.9325247,0.13862428
alexnet_w1_mlp_simclrhn_probe2,1,225,NaN,cat,cat,0,0225_rot_dnn_0_cat_20_n02123159_2137.png,n02123159_2137.png,1.0,1.0989605,-1.5257319,1.8559378
alexnet_w1_mlp_simclrhn_probe2,1,226,NaN,bottle,bottle,90,0226_rot_dnn_90_bottle_20_n03937543_5257.png,n03937543_5257.png,1.0,-0.87563485,-1.1250944,0.17639455
alexnet_w1_mlp_simclrhn_probe2,1,227,NaN,cat,cat,0,0227_rot_dnn_0_cat_20_n02123394_937.png,n02123394_937.png,1.0,1.1608737,-0.23402439,0.9863419
alexnet_w1_mlp_simclrhn_probe2,1,228,NaN,boat,boat,0,0228_rot_dnn_0_boat_20_n03662601_11764.png,n03662601_11764.png,1.0,4.047464,1.5780803,1.746118
alexnet_w1_mlp_simclrhn_probe2,1,229,NaN,bear,bear,0,0229_rot_dnn_0_bear_20_n02132136_10412.png,n02132136_10412.png,1.0,3.092907,0.2504215,2.0099409
alexnet_w1_mlp_simclrhn_probe2,1,230,NaN,oven,clock,270,0230_rot_dnn_270_clock_20_n03196217_3600.png,n03196217_3600.png,0.0,1.253472,2.4045627,-0.8139441
alexnet_w1_mlp_simclrhn_probe2,1,231,NaN,oven,dog,270,0231_rot_dnn_270_dog_20_n02102177_255.png,n02102177_255.png,0.0,-2.36808,0.8078098,-2.2456932
alexnet_w1_mlp_simclrhn_probe2,1,232,NaN,bird,bird,270,0232_rot_dnn_270_bird_20_n01614925_1860.png,n01614925_1860.png,1.0,0.3624973,-1.4552333,1.2853297
alexnet_w1_mlp_simclrhn_probe2,1,233,NaN,airplane,airplane,180,0233_rot_dnn_180_airplane_20_n02690373_1021.png,n02690373_1021.png,1.0,-0.10637334,-0.15280874,0.032834787
alexnet_w1_mlp_simclrhn_probe2,1,234,NaN,knife,chair,180,0234_rot_dnn_180_chair_20_n03376595_9079.png,n03376595_9079.png,0.0,1.5904058,1.7539207,-0.11562246
alexnet_w1_mlp_simclrhn_probe2,1,235,NaN,clock,chair,90,0235_rot_dnn_90_chair_20_n02791124_5199.png,n02791124_5199.png,0.0,0.057219505,0.41774654,-0.25493112
alexnet_w1_mlp_simclrhn_probe2,1,236,NaN,bottle,keyboard,90,0236_rot_dnn_90_keyboard_20_n03085013_24294.png,n03085013_24294.png,0.0,-1.3665404,0.12888673,-1.0574267
alexnet_w1_mlp_simclrhn_probe2,1,237,NaN,cat,cat,0,0237_rot_dnn_0_cat_20_n02123597_13286.png,n02123597_13286.png,1.0,1.7754651,-0.100584015,1.326567
alexnet_w1_mlp_simclrhn_probe2,1,238,NaN,bird,bird,180,0238_rot_dnn_180_bird_20_n01560419_17392.png,n01560419_17392.png,1.0,1.713796,-4.963678,4.7216873
alexnet_w1_mlp_simclrhn_probe2,1,239,NaN,elephant,oven,270,0239_rot_dnn_270_oven_20_n04111531_6934.png,n04111531_6934.png,0.0,0.40534806,0.7586515,-0.24982326
alexnet_w1_mlp_simclrhn_probe2,1,240,NaN,bottle,clock,90,0240_rot_dnn_90_clock_20_n03196217_6707.png,n03196217_6707.png,0.0,-0.42644903,-0.36502376,-0.043434225
alexnet_w1_mlp_simclrhn_probe2,1,241,NaN,knife,knife,180,0241_rot_dnn_180_knife_20_n03041632_15174.png,n03041632_15174.png,1.0,-0.40681735,-1.3723767,0.68275356
alexnet_w1_mlp_simclrhn_probe2,1,242,NaN,oven,oven,180,0242_rot_dnn_180_oven_20_n04111531_13644.png,n04111531_13644.png,1.0,3.2939808,-2.089346,3.8065867
alexnet_w1_mlp_simclrhn_probe2,1,243,NaN,elephant,elephant,0,0243_rot_dnn_0_elephant_20_n02504458_3458.png,n02504458_3458.png,1.0,13.526508,2.84282,7.5545087
alexnet_w1_mlp_simclrhn_probe2,1,244,NaN,clock,clock,90,0244_rot_dnn_90_clock_20_n04548280_18914.png,n04548280_18914.png,1.0,3.53563,-0.31191084,2.7206223
alexnet_w1_mlp_simclrhn_probe2,1,245,NaN,dog,dog,180,0245_rot_dnn_180_dog_20_n02107908_2754.png,n02107908_2754.png,1.0,-0.60119003,-1.0143918,0.29217777
alexnet_w1_mlp_simclrhn_probe2,1,246,NaN,airplane,airplane,0,0246_rot_dnn_0_airplane_20_n02690373_1306.png,n02690373_1306.png,1.0,6.6799884,2.3521066,3.0602746
alexnet_w1_mlp_simclrhn_probe2,1,247,NaN,chair,chair,90,0247_rot_dnn_90_chair_20_n03376595_10266.png,n03376595_10266.png,1.0,1.6043053,0.6932848,0.64418876
alexnet_w1_mlp_simclrhn_probe2,1,248,NaN,keyboard,keyboard,270,0248_rot_dnn_270_keyboard_20_n04505470_1416.png,n04505470_1416.png,1.0,2.6343203,1.0581698,1.1145067
alexnet_w1_mlp_simclrhn_probe2,1,249,NaN,clock,clock,180,0249_rot_dnn_180_clock_20_n04548280_4686.png,n04548280_4686.png,1.0,6.8750024,-1.1428105,5.66945
alexnet_w1_mlp_simclrhn_probe2,1,250,NaN,oven,truck,270,0250_rot_dnn_270_truck_20_n04467665_69882.png,n04467665_69882.png,0.0,-3.6431189,1.3416054,-3.5247324
alexnet_w1_mlp_simclrhn_probe2,1,251,NaN,knife,bottle,270,0251_rot_dnn_270_bottle_20_n04591713_2123.png,n04591713_2123.png,0.0,-2.886764,3.2443755,-4.3353705
alexnet_w1_mlp_simclrhn_probe2,1,252,NaN,oven,oven,90,0252_rot_dnn_90_oven_20_n04111531_6933.png,n04111531_6933.png,1.0,1.9486568,-2.2943523,3.0002606
alexnet_w1_mlp_simclrhn_probe2,1,253,NaN,knife,car,270,0253_rot_dnn_270_car_20_n03100240_8898.png,n03100240_8898.png,0.0,-6.1452637,-0.7547902,-3.8116403
alexnet_w1_mlp_simclrhn_probe2,1,254,NaN,cat,elephant,180,0254_rot_dnn_180_elephant_20_n02504458_5277.png,n02504458_5277.png,0.0,-1.3412403,1.7769121,-2.2048666
alexnet_w1_mlp_simclrhn_probe2,1,255,NaN,oven,truck,270,0255_rot_dnn_270_truck_20_n03417042_9967.png,n03417042_9967.png,0.0,0.41155565,2.8731413,-1.7406038
alexnet_w1_mlp_simclrhn_probe2,1,256,NaN,bear,bear,0,0256_rot_dnn_0_bear_20_n02134418_1017.png,n02134418_1017.png,1.0,2.043429,-1.3809363,2.4213917
alexnet_w1_mlp_simclrhn_probe2,1,257,NaN,bottle,airplane,90,0257_rot_dnn_90_airplane_20_n02690373_1909.png,n02690373_1909.png,0.0,-3.7322598,0.3452458,-2.8832319
alexnet_w1_mlp_simclrhn_probe2,1,258,NaN,airplane,airplane,0,0258_rot_dnn_0_airplane_20_n02690373_6753.png,n02690373_6753.png,1.0,5.9882207,-0.13997008,4.3332853
alexnet_w1_mlp_simclrhn_probe2,1,259,NaN,airplane,airplane,0,0259_rot_dnn_0_airplane_20_n02690373_1972.png,n02690373_1972.png,1.0,4.0385513,2.4562728,1.1188399
alexnet_w1_mlp_simclrhn_probe2,1,260,NaN,oven,oven,90,0260_rot_dnn_90_oven_20_n04111531_9915.png,n04111531_9915.png,1.0,1.9251366,-1.3243868,2.29776
alexnet_w1_mlp_simclrhn_probe2,1,261,NaN,elephant,elephant,270,0261_rot_dnn_270_elephant_20_n02504458_485.png,n02504458_485.png,1.0,1.4332304,-0.8374679,1.6056262
alexnet_w1_mlp_simclrhn_probe2,1,262,NaN,cat,elephant,180,0262_rot_dnn_180_elephant_20_n02504013_2431.png,n02504013_2431.png,0.0,0.1550509,0.7503423,-0.4209346
alexnet_w1_mlp_simclrhn_probe2,1,263,NaN,bicycle,clock,180,0263_rot_dnn_180_clock_20_n02708093_1038.png,n02708093_1038.png,0.0,-1.7633209,2.2935514,-2.868642
alexnet_w1_mlp_simclrhn_probe2,1,264,NaN,cat,cat,270,0264_rot_dnn_270_cat_20_n02123597_5927.png,n02123597_5927.png,1.0,1.2815361,0.42859548,0.6031201
alexnet_w1_mlp_simclrhn_probe2,1,265,NaN,bicycle,bicycle,90,0265_rot_dnn_90_bicycle_20_n03792782_3202.png,n03792782_3202.png,1.0,0.41100138,-2.0140154,1.7147459
alexnet_w1_mlp_simclrhn_probe2,1,266,NaN,knife,car,270,0266_rot_dnn_270_car_20_n02814533_45480.png,n02814533_45480.png,0.0,-3.646785,1.059524,-3.3278632
alexnet_w1_mlp_simclrhn_probe2,1,267,NaN,clock,truck,90,0267_rot_dnn_90_truck_20_n03796401_4571.png,n03796401_4571.png,0.0,-0.9881444,0.6189982,-1.1364216
alexnet_w1_mlp_simclrhn_probe2,1,268,NaN,oven,oven,90,0268_rot_dnn_90_oven_20_n04111531_21011.png,n04111531_21011.png,1.0,-0.8325854,-1.4265429,0.41999137
alexnet_w1_mlp_simclrhn_probe2,1,269,NaN,airplane,airplane,0,0269_rot_dnn_0_airplane_20_n02690373_4310.png,n02690373_4310.png,1.0,6.7391033,-0.12417391,4.8530703
alexnet_w1_mlp_simclrhn_probe2,1,270,NaN,oven,oven,0,0270_rot_dnn_0_oven_20_n04111531_7134.png,n04111531_7134.png,1.0,2.4302523,2.0428388,0.2739427
alexnet_w1_mlp_simclrhn_probe2,1,271,NaN,cat,dog,270,0271_rot_dnn_270_dog_20_n02105251_1092.png,n02105251_1092.png,0.0,0.41592836,1.2728873,-0.6059615
alexnet_w1_mlp_simclrhn_probe2,1,272,NaN,knife,knife,180,0272_rot_dnn_180_knife_20_n03041632_34505.png,n03041632_34505.png,1.0,0.5274733,-1.5282693,1.4536295
alexnet_w1_mlp_simclrhn_probe2,1,273,NaN,keyboard,keyboard,90,0273_rot_dnn_90_keyboard_20_n04505470_4520.png,n04505470_4520.png,1.0,1.752072,-0.14305185,1.340055
alexnet_w1_mlp_simclrhn_probe2,1,274,NaN,airplane,boat,180,0274_rot_dnn_180_boat_20_n03344393_1519.png,n03344393_1519.png,0.0,-0.505542,0.32143614,-0.5847618
alexnet_w1_mlp_simclrhn_probe2,1,275,NaN,chair,chair,270,0275_rot_dnn_270_chair_20_n03376595_9535.png,n03376595_9535.png,1.0,-0.046510935,-0.12801239,0.057630233
alexnet_w1_mlp_simclrhn_probe2,1,276,NaN,oven,cat,270,0276_rot_dnn_270_cat_20_n02125311_1326.png,n02125311_1326.png,0.0,-2.5511951,-0.0035206825,-1.8014779
alexnet_w1_mlp_simclrhn_probe2,1,277,NaN,cat,cat,90,0277_rot_dnn_90_cat_20_n02123394_2948.png,n02123394_2948.png,1.0,0.9116759,-1.0104609,1.359156
alexnet_w1_mlp_simclrhn_probe2,1,278,NaN,oven,oven,270,0278_rot_dnn_270_oven_20_n04111531_5429.png,n04111531_5429.png,1.0,2.2399106,1.0890366,0.81379086
alexnet_w1_mlp_simclrhn_probe2,1,279,NaN,elephant,elephant,0,0279_rot_dnn_0_elephant_20_n02504013_6645.png,n02504013_6645.png,1.0,1.8386681,1.3802729,0.32413438
alexnet_w1_mlp_simclrhn_probe2,1,280,NaN,oven,keyboard,90,0280_rot_dnn_90_keyboard_20_n04505470_4159.png,n04505470_4159.png,0.0,-1.8913984,2.2041202,-2.895969
alexnet_w1_mlp_simclrhn_probe2,1,281,NaN,bottle,bottle,90,0281_rot_dnn_90_bottle_20_n02823428_6252.png,n02823428_6252.png,1.0,-0.06902355,-0.36132628,0.20668924
alexnet_w1_mlp_simclrhn_probe2,1,282,NaN,airplane,airplane,180,0282_rot_dnn_180_airplane_20_n02690373_15097.png,n02690373_15097.png,1.0,2.4145272,1.0233848,0.9836862
alexnet_w1_mlp_simclrhn_probe2,1,283,NaN,oven,cat,0,0283_rot_dnn_0_cat_20_n02123159_3420.png,n02123159_3420.png,0.0,-5.443381,1.1494999,-4.661871
alexnet_w1_mlp_simclrhn_probe2,1,284,NaN,oven,cat,0,0284_rot_dnn_0_cat_20_n02124075_7835.png,n02124075_7835.png,0.0,-2.4070034,-1.0576332,-0.9541489
alexnet_w1_mlp_simclrhn_probe2,1,285,NaN,cat,cat,90,0285_rot_dnn_90_cat_20_n02123045_6696.png,n02123045_6696.png,1.0,-0.45094165,-1.5001788,0.7419227
alexnet_w1_mlp_simclrhn_probe2,1,286,NaN,bicycle,boat,180,0286_rot_dnn_180_boat_20_n02951358_34766.png,n02951358_34766.png,0.0,-0.8318852,2.4751706,-2.3384416
alexnet_w1_mlp_simclrhn_probe2,1,287,NaN,elephant,bird,0,0287_rot_dnn_0_bird_20_n01855672_8191.png,n01855672_8191.png,0.0,-3.6542528,-0.16834542,-2.4649088
alexnet_w1_mlp_simclrhn_probe2,1,288,NaN,airplane,truck,180,0288_rot_dnn_180_truck_20_n03796401_1150.png,n03796401_1150.png,0.0,0.72087216,0.99930006,-0.19687825
alexnet_w1_mlp_simclrhn_probe2,1,289,NaN,bicycle,bicycle,270,0289_rot_dnn_270_bicycle_20_n03792782_9782.png,n03792782_9782.png,1.0,-1.8081578,-2.4325655,0.4415229
alexnet_w1_mlp_simclrhn_probe2,1,290,NaN,bottle,boat,270,0290_rot_dnn_270_boat_20_n03662601_12969.png,n03662601_12969.png,0.0,-3.9110208,-0.19132419,-2.6302228
alexnet_w1_mlp_simclrhn_probe2,1,291,NaN,clock,bottle,180,0291_rot_dnn_180_bottle_20_n02823428_4530.png,n02823428_4530.png,0.0,-1.0241137,-0.17945434,-0.59726435
alexnet_w1_mlp_simclrhn_probe2,1,292,NaN,chair,chair,0,0292_rot_dnn_0_chair_20_n02791124_2898.png,n02791124_2898.png,1.0,1.5011957,-0.2807945,1.2600573
alexnet_w1_mlp_simclrhn_probe2,1,293,NaN,cat,cat,270,0293_rot_dnn_270_cat_20_n02123394_686.png,n02123394_686.png,1.0,1.5336576,0.24008392,0.91469467
alexnet_w1_mlp_simclrhn_probe2,1,294,NaN,cat,dog,180,0294_rot_dnn_180_dog_20_n02100735_4364.png,n02100735_4364.png,0.0,-1.42482,-1.1607329,-0.18673778
alexnet_w1_mlp_simclrhn_probe2,1,295,NaN,bear,dog,0,0295_rot_dnn_0_dog_20_n02102177_7968.png,n02102177_7968.png,0.0,1.1272261,2.0658364,-0.6636977
alexnet_w1_mlp_simclrhn_probe2,1,296,NaN,knife,knife,270,0296_rot_dnn_270_knife_20_n03041632_15099.png,n03041632_15099.png,1.0,-1.735561,-1.8699167,0.095003806
alexnet_w1_mlp_simclrhn_probe2,1,297,NaN,oven,oven,180,0297_rot_dnn_180_oven_20_n04111531_2937.png,n04111531_2937.png,1.0,3.1921132,1.140922,1.4504113
alexnet_w1_mlp_simclrhn_probe2,1,298,NaN,cat,cat,0,0298_rot_dnn_0_cat_20_n02123394_3695.png,n02123394_3695.png,1.0,2.0789294,0.8379176,0.8775279
alexnet_w1_mlp_simclrhn_probe2,1,299,NaN,bottle,bear,180,0299_rot_dnn_180_bear_20_n02134084_3696.png,n02134084_3696.png,0.0,-2.9124932,-0.94857395,-1.3887007
alexnet_w1_mlp_simclrhn_probe2,1,300,NaN,knife,oven,270,0300_rot_dnn_270_oven_20_n04111531_4671.png,n04111531_4671.png,0.0,-1.7689563,-1.5816679,-0.13243291
alexnet_w1_mlp_simclrhn_probe2,1,301,NaN,bear,bear,180,0301_rot_dnn_180_bear_20_n02133161_2741.png,n02133161_2741.png,1.0,0.24140954,0.20282519,0.027283257
alexnet_w1_mlp_simclrhn_probe2,1,302,NaN,clock,boat,90,0302_rot_dnn_90_boat_20_n03662601_3893.png,n03662601_3893.png,0.0,-3.6812427,-0.37694994,-2.3364878
alexnet_w1_mlp_simclrhn_probe2,1,303,NaN,clock,boat,90,0303_rot_dnn_90_boat_20_n03344393_2790.png,n03344393_2790.png,0.0,-2.7548337,-0.9459538,-1.2790712
alexnet_w1_mlp_simclrhn_probe2,1,304,NaN,keyboard,keyboard,180,0304_rot_dnn_180_keyboard_20_n03085013_3920.png,n03085013_3920.png,1.0,2.125488,1.0185225,0.78274286
alexnet_w1_mlp_simclrhn_probe2,1,305,NaN,oven,chair,90,0305_rot_dnn_90_chair_20_n04099969_1962.png,n04099969_1962.png,0.0,0.8815901,1.5130337,-0.44649807
alexnet_w1_mlp_simclrhn_probe2,1,306,NaN,oven,knife,0,0306_rot_dnn_0_knife_20_n03041632_13846.png,n03041632_13846.png,0.0,-1.0152175,-0.73607945,-0.19738044
alexnet_w1_mlp_simclrhn_probe2,1,307,NaN,bicycle,boat,0,0307_rot_dnn_0_boat_20_n02951358_30117.png,n02951358_30117.png,0.0,0.84361565,2.968559,-1.5025618
alexnet_w1_mlp_simclrhn_probe2,1,308,NaN,oven,elephant,270,0308_rot_dnn_270_elephant_20_n02504458_9922.png,n02504458_9922.png,0.0,-1.5613363,-1.4037626,-0.111421436
alexnet_w1_mlp_simclrhn_probe2,1,309,NaN,boat,boat,180,0309_rot_dnn_180_boat_20_n03344393_5609.png,n03344393_5609.png,1.0,0.5744332,-0.05715449,0.44659993
alexnet_w1_mlp_simclrhn_probe2,1,310,NaN,bottle,chair,0,0310_rot_dnn_0_chair_20_n02791124_3180.png,n02791124_3180.png,0.0,1.2767583,2.6248126,-0.95321834
alexnet_w1_mlp_simclrhn_probe2,1,311,NaN,elephant,boat,90,0311_rot_dnn_90_boat_20_n02951358_12532.png,n02951358_12532.png,0.0,-2.6902483,0.2971105,-2.1123817
alexnet_w1_mlp_simclrhn_probe2,1,312,NaN,cat,cat,180,0312_rot_dnn_180_cat_20_n02123597_1901.png,n02123597_1901.png,1.0,0.79936093,0.083441414,0.50623155
alexnet_w1_mlp_simclrhn_probe2,1,313,NaN,elephant,elephant,270,0313_rot_dnn_270_elephant_20_n02504013_5173.png,n02504013_5173.png,1.0,-0.17806803,-1.0501624,0.6166639
alexnet_w1_mlp_simclrhn_probe2,1,314,NaN,clock,car,180,0314_rot_dnn_180_car_20_n04285008_4834.png,n04285008_4834.png,0.0,-0.66242224,1.2320795,-1.339615
alexnet_w1_mlp_simclrhn_probe2,1,315,NaN,chair,truck,270,0315_rot_dnn_270_truck_20_n03417042_28584.png,n03417042_28584.png,0.0,-0.8628908,0.76192814,-1.1489205
alexnet_w1_mlp_simclrhn_probe2,1,316,NaN,cat,dog,180,0316_rot_dnn_180_dog_20_n02093428_11151.png,n02093428_11151.png,0.0,-1.5814079,0.108036935,-1.1946179
alexnet_w1_mlp_simclrhn_probe2,1,317,NaN,oven,bicycle,90,0317_rot_dnn_90_bicycle_20_n03792782_1475.png,n03792782_1475.png,0.0,-3.6368291,0.27882558,-2.768786
alexnet_w1_mlp_simclrhn_probe2,1,318,NaN,oven,knife,0,0318_rot_dnn_0_knife_20_n03041632_8666.png,n03041632_8666.png,0.0,-0.6386639,0.3233714,-0.6802617
alexnet_w1_mlp_simclrhn_probe2,1,319,NaN,clock,clock,0,0319_rot_dnn_0_clock_20_n04548280_253.png,n04548280_253.png,1.0,1.3808297,0.8662504,0.3638625
alexnet_w1_mlp_simclrhn_probe2,1,320,NaN,airplane,airplane,180,0320_rot_dnn_180_airplane_20_n02690373_9441.png,n02690373_9441.png,1.0,4.272434,1.0572692,2.2734652
alexnet_w1_mlp_simclrhn_probe2,1,321,NaN,bicycle,airplane,270,0321_rot_dnn_270_airplane_20_n02690373_1946.png,n02690373_1946.png,0.0,-7.5683317,-1.7645063,-4.1039243
alexnet_w1_mlp_simclrhn_probe2,1,322,NaN,car,car,90,0322_rot_dnn_90_car_20_n03100240_5044.png,n03100240_5044.png,1.0,-0.05368833,-0.43976697,0.27299884
alexnet_w1_mlp_simclrhn_probe2,1,323,NaN,cat,dog,270,0323_rot_dnn_270_dog_20_n02111500_6559.png,n02111500_6559.png,0.0,0.058679473,0.81716996,-0.5363338
alexnet_w1_mlp_simclrhn_probe2,1,324,NaN,bear,dog,270,0324_rot_dnn_270_dog_20_n02096051_1852.png,n02096051_1852.png,0.0,-2.9283252,-1.5531751,-0.97237796
alexnet_w1_mlp_simclrhn_probe2,1,325,NaN,elephant,bear,270,0325_rot_dnn_270_bear_20_n02133161_5020.png,n02133161_5020.png,0.0,0.27279222,0.27548966,-0.0019073767
alexnet_w1_mlp_simclrhn_probe2,1,326,NaN,chair,chair,90,0326_rot_dnn_90_chair_20_n02791124_2034.png,n02791124_2034.png,1.0,1.0042331,0.5974508,0.28763855
alexnet_w1_mlp_simclrhn_probe2,1,327,NaN,clock,clock,180,0327_rot_dnn_180_clock_20_n03196217_6526.png,n03196217_6526.png,1.0,1.9718581,-0.13008834,1.4863007
alexnet_w1_mlp_simclrhn_probe2,1,328,NaN,truck,oven,180,0328_rot_dnn_180_oven_20_n04111531_9779.png,n04111531_9779.png,0.0,0.7385521,1.1344094,-0.2799134
alexnet_w1_mlp_simclrhn_probe2,1,329,NaN,boat,boat,0,0329_rot_dnn_0_boat_20_n03662601_28640.png,n03662601_28640.png,1.0,4.9088697,-0.05726154,3.511585
alexnet_w1_mlp_simclrhn_probe2,1,330,NaN,knife,knife,90,0330_rot_dnn_90_knife_20_n03041632_31301.png,n03041632_31301.png,1.0,1.959029,-0.21059495,1.5341557
alexnet_w1_mlp_simclrhn_probe2,1,331,NaN,keyboard,keyboard,90,0331_rot_dnn_90_keyboard_20_n03085013_9209.png,n03085013_9209.png,1.0,4.4799166,2.4713006,1.420306
alexnet_w1_mlp_simclrhn_probe2,1,332,NaN,oven,elephant,90,0332_rot_dnn_90_elephant_20_n02504458_113.png,n02504458_113.png,0.0,-1.0378468,-0.655466,-0.27038404
alexnet_w1_mlp_simclrhn_probe2,1,333,NaN,bicycle,bicycle,180,0333_rot_dnn_180_bicycle_20_n03792782_6058.png,n03792782_6058.png,1.0,1.0939447,-1.5050269,1.8377504
alexnet_w1_mlp_simclrhn_probe2,1,334,NaN,keyboard,keyboard,0,0334_rot_dnn_0_keyboard_20_n04505470_4651.png,n04505470_4651.png,1.0,7.5500755,0.6013128,4.9135175
alexnet_w1_mlp_simclrhn_probe2,1,335,NaN,keyboard,keyboard,180,0335_rot_dnn_180_keyboard_20_n03085013_7009.png,n03085013_7009.png,1.0,-0.09045881,-0.4087679,0.22507852
alexnet_w1_mlp_simclrhn_probe2,1,336,NaN,bottle,truck,270,0336_rot_dnn_270_truck_20_n04467665_44390.png,n04467665_44390.png,0.0,-1.568301,0.82042074,-1.6890813
alexnet_w1_mlp_simclrhn_probe2,1,337,NaN,elephant,boat,90,0337_rot_dnn_90_boat_20_n04273569_17340.png,n04273569_17340.png,0.0,-10.816951,-5.7213407,-3.6031406
alexnet_w1_mlp_simclrhn_probe2,1,338,NaN,elephant,elephant,0,0338_rot_dnn_0_elephant_20_n02504013_1333.png,n02504013_1333.png,1.0,3.6802826,0.7962345,2.03933
alexnet_w1_mlp_simclrhn_probe2,1,339,NaN,knife,knife,270,0339_rot_dnn_270_knife_20_n03041632_50034.png,n03041632_50034.png,1.0,1.1159551,-0.23842688,0.95769274
alexnet_w1_mlp_simclrhn_probe2,1,340,NaN,clock,clock,90,0340_rot_dnn_90_clock_20_n02708093_2740.png,n02708093_2740.png,1.0,0.45127392,0.37125063,0.05658501
alexnet_w1_mlp_simclrhn_probe2,1,341,NaN,bear,bear,0,0341_rot_dnn_0_bear_20_n02132136_13975.png,n02132136_13975.png,1.0,7.0947695,4.084094,2.128869
alexnet_w1_mlp_simclrhn_probe2,1,342,NaN,elephant,elephant,90,0342_rot_dnn_90_elephant_20_n02504013_256.png,n02504013_256.png,1.0,0.42532027,-0.15457359,0.41004688
alexnet_w1_mlp_simclrhn_probe2,1,343,NaN,bicycle,boat,90,0343_rot_dnn_90_boat_20_n03344393_6588.png,n03344393_6588.png,0.0,-2.0326393,-0.0009979978,-1.4365873
alexnet_w1_mlp_simclrhn_probe2,1,344,NaN,knife,knife,270,0344_rot_dnn_270_knife_20_n03041632_7173.png,n03041632_7173.png,1.0,0.7796455,-0.53704923,0.9310438
alexnet_w1_mlp_simclrhn_probe2,1,345,NaN,boat,elephant,180,0345_rot_dnn_180_elephant_20_n02504458_1041.png,n02504458_1041.png,0.0,-0.7835812,-0.2509634,-0.37661767
alexnet_w1_mlp_simclrhn_probe2,1,346,NaN,keyboard,chair,180,0346_rot_dnn_180_chair_20_n04099969_8021.png,n04099969_8021.png,0.0,-0.14665926,0.0906758,-0.16782123
alexnet_w1_mlp_simclrhn_probe2,1,347,NaN,truck,truck,0,0347_rot_dnn_0_truck_20_n03796401_1791.png,n03796401_1791.png,1.0,5.2625704,0.63130146,3.2748017
alexnet_w1_mlp_simclrhn_probe2,1,348,NaN,keyboard,keyboard,90,0348_rot_dnn_90_keyboard_20_n04505470_5007.png,n04505470_5007.png,1.0,1.9202843,0.49176,1.0101192
alexnet_w1_mlp_simclrhn_probe2,1,349,NaN,oven,truck,180,0349_rot_dnn_180_truck_20_n03417042_29384.png,n03417042_29384.png,0.0,0.08527905,0.71228695,-0.44336155
alexnet_w1_mlp_simclrhn_probe2,1,350,NaN,elephant,bird,90,0350_rot_dnn_90_bird_20_n01534433_1271.png,n01534433_1271.png,0.0,-0.64199287,1.4764557,-1.4979693
alexnet_w1_mlp_simclrhn_probe2,1,351,NaN,cat,dog,270,0351_rot_dnn_270_dog_20_n02113624_393.png,n02113624_393.png,0.0,0.1062487,3.3264751,-2.277044
alexnet_w1_mlp_simclrhn_probe2,1,352,NaN,cat,cat,90,0352_rot_dnn_90_cat_20_n02123159_5461.png,n02123159_5461.png,1.0,-1.5150086,-2.0919154,0.40793473
alexnet_w1_mlp_simclrhn_probe2,1,353,NaN,oven,knife,270,0353_rot_dnn_270_knife_20_n03041632_9759.png,n03041632_9759.png,0.0,-0.8328131,-0.15392339,-0.48004752
alexnet_w1_mlp_simclrhn_probe2,1,354,NaN,bicycle,chair,90,0354_rot_dnn_90_chair_20_n04429376_1754.png,n04429376_1754.png,0.0,-2.19052,-0.43552992,-1.2409654
alexnet_w1_mlp_simclrhn_probe2,1,355,NaN,knife,oven,90,0355_rot_dnn_90_oven_20_n04111531_1818.png,n04111531_1818.png,0.0,-2.9870596,0.12750886,-2.2023325
alexnet_w1_mlp_simclrhn_probe2,1,356,NaN,clock,clock,0,0356_rot_dnn_0_clock_20_n04548280_5798.png,n04548280_5798.png,1.0,3.2474139,0.65026104,1.8364643
alexnet_w1_mlp_simclrhn_probe2,1,357,NaN,truck,oven,90,0357_rot_dnn_90_oven_20_n04111531_3099.png,n04111531_3099.png,0.0,-0.35567147,0.44044274,-0.56293774
alexnet_w1_mlp_simclrhn_probe2,1,358,NaN,clock,bottle,270,0358_rot_dnn_270_bottle_20_n04557648_581.png,n04557648_581.png,0.0,-0.45717648,1.3179833,-1.2552274
alexnet_w1_mlp_simclrhn_probe2,1,359,NaN,bird,bird,0,0359_rot_dnn_0_bird_20_n01531178_3183.png,n01531178_3183.png,1.0,0.13044687,-1.5677383,1.2007983
alexnet_w1_mlp_simclrhn_probe2,1,360,NaN,clock,airplane,90,0360_rot_dnn_90_airplane_20_n02690373_8872.png,n02690373_8872.png,0.0,-3.5235982,-0.28748515,-2.2882776
alexnet_w1_mlp_simclrhn_probe2,1,361,NaN,dog,cat,0,0361_rot_dnn_0_cat_20_n02123394_5301.png,n02123394_5301.png,0.0,0.4893442,0.72114766,-0.1639098
alexnet_w1_mlp_simclrhn_probe2,1,362,NaN,bicycle,bicycle,270,0362_rot_dnn_270_bicycle_20_n03792782_12844.png,n03792782_12844.png,1.0,-0.029702783,-1.7360158,1.2065455
alexnet_w1_mlp_simclrhn_probe2,1,363,NaN,cat,bear,90,0363_rot_dnn_90_bear_20_n02132136_2691.png,n02132136_2691.png,0.0,1.4851229,1.7400874,-0.18028711
alexnet_w1_mlp_simclrhn_probe2,1,364,NaN,truck,car,0,0364_rot_dnn_0_car_20_n02814533_27327.png,n02814533_27327.png,0.0,4.1384864,4.352202,-0.15111972
alexnet_w1_mlp_simclrhn_probe2,1,365,NaN,bicycle,bird,0,0365_rot_dnn_0_bird_20_n02027492_7653.png,n02027492_7653.png,0.0,-0.382839,0.7365198,-0.7915062
alexnet_w1_mlp_simclrhn_probe2,1,366,NaN,bear,bear,0,0366_rot_dnn_0_bear_20_n02133161_62.png,n02133161_62.png,1.0,4.128682,3.446518,0.48236293
alexnet_w1_mlp_simclrhn_probe2,1,367,NaN,bottle,bottle,0,0367_rot_dnn_0_bottle_20_n04560804_9710.png,n04560804_9710.png,1.0,1.2883503,-2.3324528,2.5602944
alexnet_w1_mlp_simclrhn_probe2,1,368,NaN,bottle,clock,180,0368_rot_dnn_180_clock_20_n04548280_15154.png,n04548280_15154.png,0.0,-0.19526489,0.52922755,-0.5122935
alexnet_w1_mlp_simclrhn_probe2,1,369,NaN,oven,oven,180,0369_rot_dnn_180_oven_20_n04111531_114.png,n04111531_114.png,1.0,0.80925876,-0.77336276,1.1190825
alexnet_w1_mlp_simclrhn_probe2,1,370,NaN,cat,cat,180,0370_rot_dnn_180_cat_20_n02125311_24813.png,n02125311_24813.png,1.0,-0.76583904,-1.0088726,0.1718507
alexnet_w1_mlp_simclrhn_probe2,1,371,NaN,bottle,airplane,90,0371_rot_dnn_90_airplane_20_n02690373_7647.png,n02690373_7647.png,0.0,-4.7452965,-0.761858,-2.8167164
alexnet_w1_mlp_simclrhn_probe2,1,372,NaN,bottle,bottle,0,0372_rot_dnn_0_bottle_20_n03983396_9823.png,n03983396_9823.png,1.0,0.86157876,0.45941693,0.28437138
alexnet_w1_mlp_simclrhn_probe2,1,373,NaN,oven,bear,0,0373_rot_dnn_0_bear_20_n02134418_2398.png,n02134418_2398.png,0.0,0.19708866,0.8052817,-0.43005744
alexnet_w1_mlp_simclrhn_probe2,1,374,NaN,keyboard,keyboard,90,0374_rot_dnn_90_keyboard_20_n04505470_4584.png,n04505470_4584.png,1.0,0.49091947,-0.12177434,0.43323994
alexnet_w1_mlp_simclrhn_probe2,1,375,NaN,keyboard,keyboard,0,0375_rot_dnn_0_keyboard_20_n04505470_10055.png,n04505470_10055.png,1.0,0.91868085,0.15777558,0.5380413
alexnet_w1_mlp_simclrhn_probe2,1,376,NaN,knife,boat,270,0376_rot_dnn_270_boat_20_n04273569_10980.png,n04273569_10980.png,0.0,-2.7028522,-0.6752067,-1.433762
alexnet_w1_mlp_simclrhn_probe2,1,377,NaN,car,car,180,0377_rot_dnn_180_car_20_n03100240_16210.png,n03100240_16210.png,1.0,2.0147572,0.595876,1.0033005
alexnet_w1_mlp_simclrhn_probe2,1,378,NaN,keyboard,keyboard,0,0378_rot_dnn_0_keyboard_20_n04505470_1067.png,n04505470_1067.png,1.0,10.358101,0.6540003,6.8618355
alexnet_w1_mlp_simclrhn_probe2,1,379,NaN,elephant,elephant,0,0379_rot_dnn_0_elephant_20_n02504458_7867.png,n02504458_7867.png,1.0,8.454512,2.247923,4.388721
alexnet_w1_mlp_simclrhn_probe2,1,380,NaN,keyboard,keyboard,180,0380_rot_dnn_180_keyboard_20_n04505470_807.png,n04505470_807.png,1.0,5.238617,2.2211063,2.1337023
alexnet_w1_mlp_simclrhn_probe2,1,381,NaN,bicycle,bicycle,270,0381_rot_dnn_270_bicycle_20_n02835271_24104.png,n02835271_24104.png,1.0,2.2352533,-0.97558874,2.2704084
alexnet_w1_mlp_simclrhn_probe2,1,382,NaN,clock,bottle,0,0382_rot_dnn_0_bottle_20_n03937543_6698.png,n03937543_6698.png,0.0,-0.5145587,-0.41775623,-0.06844967
alexnet_w1_mlp_simclrhn_probe2,1,383,NaN,bicycle,oven,0,0383_rot_dnn_0_oven_20_n04111531_10403.png,n04111531_10403.png,0.0,-2.9122744,1.6447428,-3.222298
alexnet_w1_mlp_simclrhn_probe2,1,384,NaN,truck,truck,0,0384_rot_dnn_0_truck_20_n03796401_8463.png,n03796401_8463.png,1.0,8.433626,3.0042431,3.8391538
alexnet_w1_mlp_simclrhn_probe2,1,385,NaN,truck,truck,0,0385_rot_dnn_0_truck_20_n03796401_8176.png,n03796401_8176.png,1.0,2.183417,1.3022443,0.62308323
alexnet_w1_mlp_simclrhn_probe2,1,386,NaN,bottle,bottle,90,0386_rot_dnn_90_bottle_20_n03937543_984.png,n03937543_984.png,1.0,-0.08706255,-0.13252354,0.032145772
alexnet_w1_mlp_simclrhn_probe2,1,387,NaN,chair,bicycle,90,0387_rot_dnn_90_bicycle_20_n02835271_11697.png,n02835271_11697.png,0.0,-1.3061749,-0.1531578,-0.8153062
alexnet_w1_mlp_simclrhn_probe2,1,388,NaN,clock,keyboard,270,0388_rot_dnn_270_keyboard_20_n03085013_22417.png,n03085013_22417.png,0.0,0.3383702,1.2678779,-0.65726125
alexnet_w1_mlp_simclrhn_probe2,1,389,NaN,chair,car,270,0389_rot_dnn_270_car_20_n03100240_7602.png,n03100240_7602.png,0.0,-0.6330595,0.5147591,-0.8116303
alexnet_w1_mlp_simclrhn_probe2,1,390,NaN,bird,bird,90,0390_rot_dnn_90_bird_20_n01534433_14389.png,n01534433_14389.png,1.0,0.5123819,-1.7051234,1.5680132
alexnet_w1_mlp_simclrhn_probe2,1,391,NaN,cat,bear,0,0391_rot_dnn_0_bear_20_n02134084_2598.png,n02134084_2598.png,0.0,1.3904257,2.7896843,-0.98942524
alexnet_w1_mlp_simclrhn_probe2,1,392,NaN,bird,bird,180,0392_rot_dnn_180_bird_20_n01560419_19599.png,n01560419_19599.png,1.0,-0.9787237,-6.068315,3.5988848
alexnet_w1_mlp_simclrhn_probe2,1,393,NaN,knife,bicycle,90,0393_rot_dnn_90_bicycle_20_n02835271_8747.png,n02835271_8747.png,0.0,-1.499902,-1.2931349,-0.14620641
alexnet_w1_mlp_simclrhn_probe2,1,394,NaN,oven,knife,180,0394_rot_dnn_180_knife_20_n03041632_30821.png,n03041632_30821.png,0.0,-0.73616374,0.1701776,-0.6408801
alexnet_w1_mlp_simclrhn_probe2,1,395,NaN,bicycle,chair,270,0395_rot_dnn_270_chair_20_n03376595_209.png,n03376595_209.png,0.0,-2.9509315,-0.6733364,-1.610503
alexnet_w1_mlp_simclrhn_probe2,1,396,NaN,bicycle,boat,180,0396_rot_dnn_180_boat_20_n04273569_29113.png,n04273569_29113.png,0.0,-1.1669865,0.84667474,-1.4238734
alexnet_w1_mlp_simclrhn_probe2,1,397,NaN,bird,bird,270,0397_rot_dnn_270_bird_20_n02006656_6435.png,n02006656_6435.png,1.0,0.40573096,-3.8698485,3.0232913
alexnet_w1_mlp_simclrhn_probe2,1,398,NaN,oven,airplane,90,0398_rot_dnn_90_airplane_20_n02690373_3492.png,n02690373_3492.png,0.0,-8.321145,0.6710088,-6.358413
alexnet_w1_mlp_simclrhn_probe2,1,399,NaN,oven,oven,270,0399_rot_dnn_270_oven_20_n04111531_9380.png,n04111531_9380.png,1.0,1.3318205,-3.3050337,3.2787511
alexnet_w1_mlp_simclrhn_probe2,1,400,NaN,bottle,keyboard,270,0400_rot_dnn_270_keyboard_20_n04505470_510.png,n04505470_510.png,0.0,-0.19215249,0.28363627,-0.33643347
alexnet_w1_mlp_simclrhn_probe2,1,401,NaN,bird,bird,180,0401_rot_dnn_180_bird_20_n02027492_20576.png,n02027492_20576.png,1.0,-0.83299696,-1.3721648,0.38124928
alexnet_w1_mlp_simclrhn_probe2,1,402,NaN,knife,bird,90,0402_rot_dnn_90_bird_20_n01855032_1920.png,n01855032_1920.png,0.0,-6.3599954,-3.4813604,-2.0355022
alexnet_w1_mlp_simclrhn_probe2,1,403,NaN,airplane,boat,180,0403_rot_dnn_180_boat_20_n04273569_15761.png,n04273569_15761.png,0.0,0.59779197,1.6310952,-0.7306557
alexnet_w1_mlp_simclrhn_probe2,1,404,NaN,oven,oven,180,0404_rot_dnn_180_oven_20_n04111531_10667.png,n04111531_10667.png,1.0,4.5975885,-3.1432178,5.473577
alexnet_w1_mlp_simclrhn_probe2,1,405,NaN,knife,knife,270,0405_rot_dnn_270_knife_20_n03041632_36215.png,n03041632_36215.png,1.0,1.7479533,-0.25328243,1.4150873
alexnet_w1_mlp_simclrhn_probe2,1,406,NaN,bicycle,bicycle,180,0406_rot_dnn_180_bicycle_20_n02835271_2625.png,n02835271_2625.png,1.0,3.394381,-1.4501507,3.4256015
alexnet_w1_mlp_simclrhn_probe2,1,407,NaN,bicycle,bird,270,0407_rot_dnn_270_bird_20_n02028035_20411.png,n02028035_20411.png,0.0,-1.4371221,-0.32001635,-0.78991306
alexnet_w1_mlp_simclrhn_probe2,1,408,NaN,knife,knife,0,0408_rot_dnn_0_knife_20_n03041632_25656.png,n03041632_25656.png,1.0,0.20082408,-0.6901442,0.6300097
alexnet_w1_mlp_simclrhn_probe2,1,409,NaN,elephant,oven,270,0409_rot_dnn_270_oven_20_n04111531_4332.png,n04111531_4332.png,0.0,-1.2849028,0.2682358,-1.0982349
alexnet_w1_mlp_simclrhn_probe2,1,410,NaN,keyboard,keyboard,180,0410_rot_dnn_180_keyboard_20_n04505470_3553.png,n04505470_3553.png,1.0,1.698599,0.08222854,1.1429465
alexnet_w1_mlp_simclrhn_probe2,1,411,NaN,bicycle,bicycle,180,0411_rot_dnn_180_bicycle_20_n02835271_18706.png,n02835271_18706.png,1.0,2.3046927,-0.47711217,1.9670333
alexnet_w1_mlp_simclrhn_probe2,1,412,NaN,chair,truck,270,0412_rot_dnn_270_truck_20_n03417042_10744.png,n03417042_10744.png,0.0,-1.3521914,1.3825135,-1.9337285
alexnet_w1_mlp_simclrhn_probe2,1,413,NaN,clock,clock,0,0413_rot_dnn_0_clock_20_n03196217_11724.png,n03196217_11724.png,1.0,2.9917338,1.3082949,1.190371
alexnet_w1_mlp_simclrhn_probe2,1,414,NaN,bicycle,bicycle,270,0414_rot_dnn_270_bicycle_20_n02835271_14123.png,n02835271_14123.png,1.0,1.1537676,0.033805937,0.79193246
alexnet_w1_mlp_simclrhn_probe2,1,415,NaN,oven,bicycle,270,0415_rot_dnn_270_bicycle_20_n02835271_7900.png,n02835271_7900.png,0.0,-1.0966783,0.74872726,-1.3048989
alexnet_w1_mlp_simclrhn_probe2,1,416,NaN,truck,truck,270,0416_rot_dnn_270_truck_20_n03417042_2153.png,n03417042_2153.png,1.0,0.40761942,0.13883063,0.19006237
alexnet_w1_mlp_simclrhn_probe2,1,417,NaN,bear,bicycle,270,0417_rot_dnn_270_bicycle_20_n03792782_10129.png,n03792782_10129.png,0.0,-4.146629,0.72961396,-3.4480243
alexnet_w1_mlp_simclrhn_probe2,1,418,NaN,bird,bird,180,0418_rot_dnn_180_bird_20_n01514859_18430.png,n01514859_18430.png,1.0,0.06910409,-1.1516773,0.8632228
alexnet_w1_mlp_simclrhn_probe2,1,419,NaN,chair,chair,0,0419_rot_dnn_0_chair_20_n04099969_5010.png,n04099969_5010.png,1.0,2.0795195,-0.10510914,1.5447658
alexnet_w1_mlp_simclrhn_probe2,1,420,NaN,chair,truck,0,0420_rot_dnn_0_truck_20_n03796401_588.png,n03796401_588.png,0.0,0.81540215,2.1526906,-0.94560575
alexnet_w1_mlp_simclrhn_probe2,1,421,NaN,car,car,0,0421_rot_dnn_0_car_20_n02814533_486.png,n02814533_486.png,1.0,10.730178,6.964031,2.6630678
alexnet_w1_mlp_simclrhn_probe2,1,422,NaN,oven,elephant,90,0422_rot_dnn_90_elephant_20_n02504013_3540.png,n02504013_3540.png,0.0,-2.157094,0.40490332,-1.8116058
alexnet_w1_mlp_simclrhn_probe2,1,423,NaN,bicycle,car,180,0423_rot_dnn_180_car_20_n02814533_55715.png,n02814533_55715.png,0.0,-4.2967257,-0.2287522,-2.8764918
alexnet_w1_mlp_simclrhn_probe2,1,424,NaN,knife,bottle,180,0424_rot_dnn_180_bottle_20_n03983396_10896.png,n03983396_10896.png,0.0,-0.8628925,-0.3025595,-0.3962153
alexnet_w1_mlp_simclrhn_probe2,1,425,NaN,bottle,bottle,90,0425_rot_dnn_90_bottle_20_n04557648_15053.png,n04557648_15053.png,1.0,1.7169393,-0.068537466,1.2625228
alexnet_w1_mlp_simclrhn_probe2,1,426,NaN,car,car,0,0426_rot_dnn_0_car_20_n04285008_8281.png,n04285008_8281.png,1.0,11.888921,5.3274994,4.6396255
alexnet_w1_mlp_simclrhn_probe2,1,427,NaN,bottle,car,270,0427_rot_dnn_270_car_20_n02814533_38596.png,n02814533_38596.png,0.0,-3.7564604,1.5704986,-3.7667289
alexnet_w1_mlp_simclrhn_probe2,1,428,NaN,elephant,elephant,270,0428_rot_dnn_270_elephant_20_n02504013_15219.png,n02504013_15219.png,1.0,0.64198214,-0.26740265,0.64303213
alexnet_w1_mlp_simclrhn_probe2,1,429,NaN,elephant,elephant,180,0429_rot_dnn_180_elephant_20_n02504013_828.png,n02504013_828.png,1.0,1.963626,-0.27815247,1.5851767
alexnet_w1_mlp_simclrhn_probe2,1,430,NaN,oven,oven,180,0430_rot_dnn_180_oven_20_n04111531_1439.png,n04111531_1439.png,1.0,6.307168,-1.2312009,5.330432
alexnet_w1_mlp_simclrhn_probe2,1,431,NaN,bottle,bottle,90,0431_rot_dnn_90_bottle_20_n03983396_3315.png,n03983396_3315.png,1.0,-0.5071216,-0.7318945,0.15893842
alexnet_w1_mlp_simclrhn_probe2,1,432,NaN,clock,airplane,90,0432_rot_dnn_90_airplane_20_n02690373_4024.png,n02690373_4024.png,0.0,-1.6094292,-0.62502784,-0.6960769
alexnet_w1_mlp_simclrhn_probe2,1,433,NaN,oven,elephant,270,0433_rot_dnn_270_elephant_20_n02504013_10301.png,n02504013_10301.png,0.0,-2.180316,-0.44457713,-1.2273527
alexnet_w1_mlp_simclrhn_probe2,1,434,NaN,oven,oven,180,0434_rot_dnn_180_oven_20_n04111531_7067.png,n04111531_7067.png,1.0,2.7943375,-0.4667108,2.3059094
alexnet_w1_mlp_simclrhn_probe2,1,435,NaN,knife,knife,90,0435_rot_dnn_90_knife_20_n03041632_36834.png,n03041632_36834.png,1.0,0.4216261,-0.7897019,0.8565383
alexnet_w1_mlp_simclrhn_probe2,1,436,NaN,chair,car,90,0436_rot_dnn_90_car_20_n02814533_18148.png,n02814533_18148.png,0.0,-0.09464852,0.57772994,-0.4754434
alexnet_w1_mlp_simclrhn_probe2,1,437,NaN,elephant,cat,90,0437_rot_dnn_90_cat_20_n02125311_41284.png,n02125311_41284.png,0.0,-0.46791267,1.3133887,-1.2595704
alexnet_w1_mlp_simclrhn_probe2,1,438,NaN,bicycle,bicycle,0,0438_rot_dnn_0_bicycle_20_n02835271_18188.png,n02835271_18188.png,1.0,5.4167576,-2.1504278,5.350808
alexnet_w1_mlp_simclrhn_probe2,1,439,NaN,bottle,bottle,0,0439_rot_dnn_0_bottle_20_n04591713_2903.png,n04591713_2903.png,1.0,2.8385196,1.159817,1.187022
alexnet_w1_mlp_simclrhn_probe2,1,440,NaN,bottle,knife,0,0440_rot_dnn_0_knife_20_n03041632_54191.png,n03041632_54191.png,0.0,0.41906917,0.99403137,-0.40655968
alexnet_w1_mlp_simclrhn_probe2,1,441,NaN,truck,truck,180,0441_rot_dnn_180_truck_20_n03417042_8867.png,n03417042_8867.png,1.0,1.4918587,0.35414782,0.8044831
alexnet_w1_mlp_simclrhn_probe2,1,442,NaN,oven,oven,270,0442_rot_dnn_270_oven_20_n04111531_8421.png,n04111531_8421.png,1.0,0.0007777363,-0.4941537,0.3499694
alexnet_w1_mlp_simclrhn_probe2,1,443,NaN,oven,elephant,270,0443_rot_dnn_270_elephant_20_n02504013_4062.png,n02504013_4062.png,0.0,-0.49074504,1.7048217,-1.5525001
alexnet_w1_mlp_simclrhn_probe2,1,444,NaN,keyboard,keyboard,270,0444_rot_dnn_270_keyboard_20_n04505470_1649.png,n04505470_1649.png,1.0,4.1708803,-0.0046423823,2.9525406
alexnet_w1_mlp_simclrhn_probe2,1,445,NaN,airplane,boat,180,0445_rot_dnn_180_boat_20_n03344393_7967.png,n03344393_7967.png,0.0,-0.00605402,1.1757524,-0.8356634
alexnet_w1_mlp_simclrhn_probe2,1,446,NaN,bicycle,bicycle,0,0446_rot_dnn_0_bicycle_20_n02835271_10265.png,n02835271_10265.png,1.0,8.180736,-0.49613753,6.135476
alexnet_w1_mlp_simclrhn_probe2,1,447,NaN,chair,bicycle,180,0447_rot_dnn_180_bicycle_20_n02835271_6742.png,n02835271_6742.png,0.0,-0.8737837,-0.4224985,-0.31910685
alexnet_w1_mlp_simclrhn_probe2,1,448,NaN,cat,cat,180,0448_rot_dnn_180_cat_20_n02123045_3168.png,n02123045_3168.png,1.0,0.1316191,-0.8983308,0.7282846
alexnet_w1_mlp_simclrhn_probe2,1,449,NaN,airplane,car,180,0449_rot_dnn_180_car_20_n03100240_8489.png,n03100240_8489.png,0.0,-0.5597881,1.039335,-1.1307508
alexnet_w1_mlp_simclrhn_probe2,1,450,NaN,oven,oven,270,0450_rot_dnn_270_oven_20_n04111531_1826.png,n04111531_1826.png,1.0,0.83463836,0.016265705,0.5786769
alexnet_w1_mlp_simclrhn_probe2,1,451,NaN,bear,dog,180,0451_rot_dnn_180_dog_20_n02104365_1592.png,n02104365_1592.png,0.0,0.8599705,1.1647232,-0.21549267
alexnet_w1_mlp_simclrhn_probe2,1,452,NaN,bicycle,boat,90,0452_rot_dnn_90_boat_20_n02951358_4343.png,n02951358_4343.png,0.0,-5.6518903,-1.8357136,-2.6984444
alexnet_w1_mlp_simclrhn_probe2,1,453,NaN,bottle,bottle,0,0453_rot_dnn_0_bottle_20_n02823428_4282.png,n02823428_4282.png,1.0,8.360419,2.6524658,4.036133
alexnet_w1_mlp_simclrhn_probe2,1,454,NaN,bird,bird,0,0454_rot_dnn_0_bird_20_n01817953_2043.png,n01817953_2043.png,1.0,-0.22548518,-2.2517135,1.4327599
alexnet_w1_mlp_simclrhn_probe2,1,455,NaN,dog,dog,0,0455_rot_dnn_0_dog_20_n02110958_14369.png,n02110958_14369.png,1.0,-0.815169,-2.1002927,0.9087197
alexnet_w1_mlp_simclrhn_probe2,1,456,NaN,dog,dog,270,0456_rot_dnn_270_dog_20_n02108000_1044.png,n02108000_1044.png,1.0,-0.4865002,-0.9955848,0.35997716
alexnet_w1_mlp_simclrhn_probe2,1,457,NaN,elephant,dog,270,0457_rot_dnn_270_dog_20_n02087394_1428.png,n02087394_1428.png,0.0,-2.410436,-0.22552858,-1.5449629
alexnet_w1_mlp_simclrhn_probe2,1,458,NaN,bottle,airplane,90,0458_rot_dnn_90_airplane_20_n02690373_2856.png,n02690373_2856.png,0.0,-11.447584,-0.89288366,-7.4633007
alexnet_w1_mlp_simclrhn_probe2,1,459,NaN,chair,chair,0,0459_rot_dnn_0_chair_20_n03376595_19165.png,n03376595_19165.png,1.0,2.1115947,2.0689967,0.030121341
alexnet_w1_mlp_simclrhn_probe2,1,460,NaN,chair,chair,270,0460_rot_dnn_270_chair_20_n04099969_42125.png,n04099969_42125.png,1.0,2.283289,1.5539584,0.5157146
alexnet_w1_mlp_simclrhn_probe2,1,461,NaN,bottle,bottle,270,0461_rot_dnn_270_bottle_20_n02823428_12656.png,n02823428_12656.png,1.0,2.583495,1.0577784,1.0788445
alexnet_w1_mlp_simclrhn_probe2,1,462,NaN,bicycle,bicycle,180,0462_rot_dnn_180_bicycle_20_n02835271_5861.png,n02835271_5861.png,1.0,4.722003,-0.63073504,3.7849574
alexnet_w1_mlp_simclrhn_probe2,1,463,NaN,airplane,airplane,90,0463_rot_dnn_90_airplane_20_n02690373_19345.png,n02690373_19345.png,1.0,-0.4492309,-0.5276567,0.05545539
alexnet_w1_mlp_simclrhn_probe2,1,464,NaN,clock,clock,90,0464_rot_dnn_90_clock_20_n02708093_8069.png,n02708093_8069.png,1.0,6.248422,0.89608955,3.7846708
alexnet_w1_mlp_simclrhn_probe2,1,465,NaN,chair,chair,270,0465_rot_dnn_270_chair_20_n04099969_16.png,n04099969_16.png,1.0,-0.8445531,-0.98409534,0.09867125
alexnet_w1_mlp_simclrhn_probe2,1,466,NaN,dog,dog,270,0466_rot_dnn_270_dog_20_n02104365_1756.png,n02104365_1756.png,1.0,0.1799955,-0.4941051,0.47666115
alexnet_w1_mlp_simclrhn_probe2,1,467,NaN,bird,bird,270,0467_rot_dnn_270_bird_20_n01819313_17231.png,n01819313_17231.png,1.0,-0.5287946,-1.946553,1.0025066
alexnet_w1_mlp_simclrhn_probe2,1,468,NaN,clock,car,90,0468_rot_dnn_90_car_20_n02814533_34149.png,n02814533_34149.png,0.0,-3.1923392,0.28365716,-2.4579005
alexnet_w1_mlp_simclrhn_probe2,1,469,NaN,knife,knife,0,0469_rot_dnn_0_knife_20_n03041632_26053.png,n03041632_26053.png,1.0,0.8907784,-1.0349284,1.3616804
alexnet_w1_mlp_simclrhn_probe2,1,470,NaN,oven,oven,0,0470_rot_dnn_0_oven_20_n04111531_11287.png,n04111531_11287.png,1.0,3.3226066,1.3100227,1.4231117
alexnet_w1_mlp_simclrhn_probe2,1,471,NaN,keyboard,bottle,0,0471_rot_dnn_0_bottle_20_n03937543_11959.png,n03937543_11959.png,0.0,-0.9597231,0.5086241,-1.0382782
alexnet_w1_mlp_simclrhn_probe2,1,472,NaN,knife,airplane,270,0472_rot_dnn_270_airplane_20_n02690373_1348.png,n02690373_1348.png,0.0,-6.687842,-0.7748923,-4.181087
alexnet_w1_mlp_simclrhn_probe2,1,473,NaN,bear,bear,0,0473_rot_dnn_0_bear_20_n02132136_5175.png,n02132136_5175.png,1.0,4.180818,3.7929218,0.2742841
alexnet_w1_mlp_simclrhn_probe2,1,474,NaN,knife,keyboard,270,0474_rot_dnn_270_keyboard_20_n03085013_7382.png,n03085013_7382.png,0.0,-3.8773472,0.17063719,-2.8623574
alexnet_w1_mlp_simclrhn_probe2,1,475,NaN,oven,dog,270,0475_rot_dnn_270_dog_20_n02109961_4280.png,n02109961_4280.png,0.0,-1.3964971,-0.6738249,-0.5110064
alexnet_w1_mlp_simclrhn_probe2,1,476,NaN,bicycle,truck,90,0476_rot_dnn_90_truck_20_n03417042_1344.png,n03417042_1344.png,0.0,-1.9514766,0.735077,-1.8996803
alexnet_w1_mlp_simclrhn_probe2,1,477,NaN,elephant,elephant,0,0477_rot_dnn_0_elephant_20_n02504013_9299.png,n02504013_9299.png,1.0,13.992531,3.4221473,7.4743896
alexnet_w1_mlp_simclrhn_probe2,1,478,NaN,bear,bear,0,0478_rot_dnn_0_bear_20_n02134418_5527.png,n02134418_5527.png,1.0,2.7668087,0.4881366,1.6112646
alexnet_w1_mlp_simclrhn_probe2,1,479,NaN,keyboard,keyboard,270,0479_rot_dnn_270_keyboard_20_n03085013_23109.png,n03085013_23109.png,1.0,0.17912593,-0.21104854,0.27589503
alexnet_w1_mlp_simclrhn_probe2,1,480,NaN,bear,bear,180,0480_rot_dnn_180_bear_20_n02133161_4393.png,n02133161_4393.png,1.0,1.7699285,-0.1553717,1.3613927
alexnet_w1_mlp_simclrhn_probe2,1,481,NaN,oven,oven,0,0481_rot_dnn_0_oven_20_n04111531_73.png,n04111531_73.png,1.0,3.5167255,1.5483811,1.3918297
alexnet_w1_mlp_simclrhn_probe2,1,482,NaN,keyboard,keyboard,0,0482_rot_dnn_0_keyboard_20_n03085013_7613.png,n03085013_7613.png,1.0,1.1268847,0.639483,0.34464508
alexnet_w1_mlp_simclrhn_probe2,1,483,NaN,oven,oven,180,0483_rot_dnn_180_oven_20_n04111531_2795.png,n04111531_2795.png,1.0,3.5257983,-1.7435672,3.7260041
alexnet_w1_mlp_simclrhn_probe2,1,484,NaN,oven,oven,0,0484_rot_dnn_0_oven_20_n04111531_22517.png,n04111531_22517.png,1.0,4.8277354,-1.2414695,4.291576
alexnet_w1_mlp_simclrhn_probe2,1,485,NaN,oven,elephant,90,0485_rot_dnn_90_elephant_20_n02504458_2613.png,n02504458_2613.png,0.0,-2.4714396,-1.5099536,-0.6798733
alexnet_w1_mlp_simclrhn_probe2,1,486,NaN,oven,oven,180,0486_rot_dnn_180_oven_20_n04111531_9176.png,n04111531_9176.png,1.0,3.759456,-2.497885,4.424608
alexnet_w1_mlp_simclrhn_probe2,1,487,NaN,bottle,bottle,180,0487_rot_dnn_180_bottle_20_n04557648_5790.png,n04557648_5790.png,1.0,4.302667,2.320057,1.4019171
alexnet_w1_mlp_simclrhn_probe2,1,488,NaN,bottle,truck,90,0488_rot_dnn_90_truck_20_n04467665_9812.png,n04467665_9812.png,0.0,-2.5052886,0.929737,-2.42893
alexnet_w1_mlp_simclrhn_probe2,1,489,NaN,bottle,bottle,0,0489_rot_dnn_0_bottle_20_n04591713_7476.png,n04591713_7476.png,1.0,-0.071399815,-2.0336685,1.3875335
alexnet_w1_mlp_simclrhn_probe2,1,490,NaN,elephant,elephant,90,0490_rot_dnn_90_elephant_20_n02504458_1567.png,n02504458_1567.png,1.0,1.0825737,-0.40376097,1.0509973
alexnet_w1_mlp_simclrhn_probe2,1,491,NaN,clock,clock,90,0491_rot_dnn_90_clock_20_n04548280_6865.png,n04548280_6865.png,1.0,3.3601997,-1.0883617,3.1456082
alexnet_w1_mlp_simclrhn_probe2,1,492,NaN,bottle,bottle,180,0492_rot_dnn_180_bottle_20_n02823428_3.png,n02823428_3.png,1.0,2.1503143,-1.0427647,2.2578478
alexnet_w1_mlp_simclrhn_probe2,1,493,NaN,elephant,boat,90,0493_rot_dnn_90_boat_20_n04273569_8951.png,n04273569_8951.png,0.0,-4.3209515,-0.44463927,-2.7409668
alexnet_w1_mlp_simclrhn_probe2,1,494,NaN,knife,knife,180,0494_rot_dnn_180_knife_20_n03041632_53874.png,n03041632_53874.png,1.0,0.76879215,-1.9305339,1.9087118
alexnet_w1_mlp_simclrhn_probe2,1,495,NaN,clock,clock,0,0495_rot_dnn_0_clock_20_n04548280_6126.png,n04548280_6126.png,1.0,-0.11898311,-0.16843238,0.034965917
alexnet_w1_mlp_simclrhn_probe2,1,496,NaN,cat,cat,180,0496_rot_dnn_180_cat_20_n02123597_6186.png,n02123597_6186.png,1.0,2.2472417,-0.8836509,2.2138755
alexnet_w1_mlp_simclrhn_probe2,1,497,NaN,oven,cat,270,0497_rot_dnn_270_cat_20_n02124075_14662.png,n02124075_14662.png,0.0,-1.8862222,-0.9792438,-0.6413306
alexnet_w1_mlp_simclrhn_probe2,1,498,NaN,clock,car,90,0498_rot_dnn_90_car_20_n04285008_8677.png,n04285008_8677.png,0.0,-10.1794815,-1.2010671,-6.348698
alexnet_w1_mlp_simclrhn_probe2,1,499,NaN,bird,bird,90,0499_rot_dnn_90_bird_20_n01820546_2568.png,n01820546_2568.png,1.0,-1.3487581,-3.4576387,1.4912038
alexnet_w1_mlp_simclrhn_probe2,1,500,NaN,clock,clock,90,0500_rot_dnn_90_clock_20_n04548280_7354.png,n04548280_7354.png,1.0,0.44425586,-0.3126107,0.5351855
alexnet_w1_mlp_simclrhn_probe2,1,501,NaN,clock,bicycle,270,0501_rot_dnn_270_bicycle_20_n03792782_586.png,n03792782_586.png,0.0,2.8929896,3.2661788,-0.26388463
alexnet_w1_mlp_simclrhn_probe2,1,502,NaN,elephant,bear,0,0502_rot_dnn_0_bear_20_n02134084_572.png,n02134084_572.png,0.0,2.072157,3.1072664,-0.731933
alexnet_w1_mlp_simclrhn_probe2,1,503,NaN,bicycle,bicycle,270,0503_rot_dnn_270_bicycle_20_n03792782_3388.png,n03792782_3388.png,1.0,-0.47498572,-1.0497915,0.40644905
alexnet_w1_mlp_simclrhn_probe2,1,504,NaN,bicycle,bicycle,270,0504_rot_dnn_270_bicycle_20_n03792782_28970.png,n03792782_28970.png,1.0,9.101152,1.0582632,5.687182
alexnet_w1_mlp_simclrhn_probe2,1,505,NaN,oven,bottle,270,0505_rot_dnn_270_bottle_20_n04560804_11386.png,n04560804_11386.png,0.0,-0.45416984,1.6662719,-1.4993787
alexnet_w1_mlp_simclrhn_probe2,1,506,NaN,chair,chair,180,0506_rot_dnn_180_chair_20_n03376595_6799.png,n03376595_6799.png,1.0,1.9591727,0.95235157,0.7119301
alexnet_w1_mlp_simclrhn_probe2,1,507,NaN,cat,dog,270,0507_rot_dnn_270_dog_20_n02094258_6398.png,n02094258_6398.png,0.0,-0.046542738,2.293732,-1.654824
alexnet_w1_mlp_simclrhn_probe2,1,508,NaN,bird,bird,0,0508_rot_dnn_0_bird_20_n01592084_2639.png,n01592084_2639.png,1.0,0.654543,-5.361455,4.253953
alexnet_w1_mlp_simclrhn_probe2,1,509,NaN,bird,bird,180,0509_rot_dnn_180_bird_20_n02017213_4781.png,n02017213_4781.png,1.0,-1.220546,-1.4029322,0.1289665
alexnet_w1_mlp_simclrhn_probe2,1,510,NaN,bottle,airplane,270,0510_rot_dnn_270_airplane_20_n02690373_3818.png,n02690373_3818.png,0.0,-4.5027742,-0.15213434,-3.076367
alexnet_w1_mlp_simclrhn_probe2,1,511,NaN,bicycle,bicycle,90,0511_rot_dnn_90_bicycle_20_n03792782_26383.png,n03792782_26383.png,1.0,3.2149682,-0.06577334,2.3198345
alexnet_w1_mlp_simclrhn_probe2,1,512,NaN,oven,oven,90,0512_rot_dnn_90_oven_20_n04111531_5216.png,n04111531_5216.png,1.0,6.758175,0.25064844,4.6015162
alexnet_w1_mlp_simclrhn_probe2,1,513,NaN,airplane,airplane,180,0513_rot_dnn_180_airplane_20_n02690373_20331.png,n02690373_20331.png,1.0,0.7432828,0.32375443,0.29665136
alexnet_w1_mlp_simclrhn_probe2,1,514,NaN,clock,truck,180,0514_rot_dnn_180_truck_20_n04467665_23691.png,n04467665_23691.png,0.0,-0.9742678,0.47458813,-1.0244958
alexnet_w1_mlp_simclrhn_probe2,1,515,NaN,bird,bird,0,0515_rot_dnn_0_bird_20_n02009229_492.png,n02009229_492.png,1.0,1.8219919,-1.8007305,2.5616517
alexnet_w1_mlp_simclrhn_probe2,1,516,NaN,bird,bird,90,0516_rot_dnn_90_bird_20_n02002556_5890.png,n02002556_5890.png,1.0,1.8848069,-0.81101143,1.9062315
alexnet_w1_mlp_simclrhn_probe2,1,517,NaN,bird,bird,270,0517_rot_dnn_270_bird_20_n01855032_5358.png,n01855032_5358.png,1.0,-2.4848475,-2.6716018,0.13205518
alexnet_w1_mlp_simclrhn_probe2,1,518,NaN,cat,dog,180,0518_rot_dnn_180_dog_20_n02112350_10026.png,n02112350_10026.png,0.0,-0.02856489,0.6376267,-0.4710686
alexnet_w1_mlp_simclrhn_probe2,1,519,NaN,bottle,knife,90,0519_rot_dnn_90_knife_20_n03041632_11773.png,n03041632_11773.png,0.0,-1.3751081,-1.0676019,-0.21743973
alexnet_w1_mlp_simclrhn_probe2,1,520,NaN,elephant,elephant,0,0520_rot_dnn_0_elephant_20_n02504013_20486.png,n02504013_20486.png,1.0,10.152554,3.132735,4.9637613
alexnet_w1_mlp_simclrhn_probe2,1,521,NaN,oven,oven,0,0521_rot_dnn_0_oven_20_n04111531_27.png,n04111531_27.png,1.0,5.73615,2.5619504,2.244498
alexnet_w1_mlp_simclrhn_probe2,1,522,NaN,cat,bird,180,0522_rot_dnn_180_bird_20_n01855672_15421.png,n01855672_15421.png,0.0,-3.4132688,-1.2767601,-1.5107398
alexnet_w1_mlp_simclrhn_probe2,1,523,NaN,bear,bear,270,0523_rot_dnn_270_bear_20_n02132136_239.png,n02132136_239.png,1.0,0.8967355,-0.32226226,0.86196154
alexnet_w1_mlp_simclrhn_probe2,1,524,NaN,keyboard,keyboard,90,0524_rot_dnn_90_keyboard_20_n03085013_25924.png,n03085013_25924.png,1.0,3.6801178,0.8312996,2.0144188
alexnet_w1_mlp_simclrhn_probe2,1,525,NaN,bicycle,bicycle,180,0525_rot_dnn_180_bicycle_20_n03792782_6030.png,n03792782_6030.png,1.0,2.4327154,-1.5749493,2.8338468
alexnet_w1_mlp_simclrhn_probe2,1,526,NaN,oven,bottle,270,0526_rot_dnn_270_bottle_20_n03983396_5497.png,n03983396_5497.png,0.0,-1.6628377,2.4661713,-2.9196506
alexnet_w1_mlp_simclrhn_probe2,1,527,NaN,oven,chair,180,0527_rot_dnn_180_chair_20_n04429376_6390.png,n04429376_6390.png,0.0,1.033069,3.3766584,-1.6571679
alexnet_w1_mlp_simclrhn_probe2,1,528,NaN,cat,dog,90,0528_rot_dnn_90_dog_20_n02100877_11159.png,n02100877_11159.png,0.0,-1.8374019,-0.8498996,-0.69826955
alexnet_w1_mlp_simclrhn_probe2,1,529,NaN,bottle,bottle,180,0529_rot_dnn_180_bottle_20_n04579145_579.png,n04579145_579.png,1.0,1.2023021,0.5810382,0.43929994
alexnet_w1_mlp_simclrhn_probe2,1,530,NaN,cat,cat,90,0530_rot_dnn_90_cat_20_n02123159_5678.png,n02123159_5678.png,1.0,1.0821891,-3.9520152,3.5597203
alexnet_w1_mlp_simclrhn_probe2,1,531,NaN,elephant,elephant,180,0531_rot_dnn_180_elephant_20_n02504013_13283.png,n02504013_13283.png,1.0,-0.221853,-0.904786,0.48290655
alexnet_w1_mlp_simclrhn_probe2,1,532,NaN,bear,dog,90,0532_rot_dnn_90_dog_20_n02095570_7633.png,n02095570_7633.png,0.0,-1.2805307,0.36644864,-1.1645902
alexnet_w1_mlp_simclrhn_probe2,1,533,NaN,chair,clock,180,0533_rot_dnn_180_clock_20_n02708093_8311.png,n02708093_8311.png,0.0,-0.18171287,0.020704508,-0.1431307
alexnet_w1_mlp_simclrhn_probe2,1,534,NaN,chair,chair,270,0534_rot_dnn_270_chair_20_n03376595_426.png,n03376595_426.png,1.0,0.6317283,-0.5711322,0.85055083
alexnet_w1_mlp_simclrhn_probe2,1,535,NaN,boat,dog,180,0535_rot_dnn_180_dog_20_n02100877_3112.png,n02100877_3112.png,0.0,-2.3121166,-0.9733431,-0.9466558
alexnet_w1_mlp_simclrhn_probe2,1,536,NaN,chair,car,270,0536_rot_dnn_270_car_20_n02814533_458.png,n02814533_458.png,0.0,-1.374915,-0.07165505,-0.92154396
alexnet_w1_mlp_simclrhn_probe2,1,537,NaN,bird,bird,0,0537_rot_dnn_0_bird_20_n02006656_5079.png,n02006656_5079.png,1.0,1.6024532,-4.0121408,3.9701176
alexnet_w1_mlp_simclrhn_probe2,1,538,NaN,bicycle,boat,90,0538_rot_dnn_90_boat_20_n04273569_12725.png,n04273569_12725.png,0.0,-4.658568,-2.3829083,-1.6091343
alexnet_w1_mlp_simclrhn_probe2,1,539,NaN,cat,cat,270,0539_rot_dnn_270_cat_20_n02123045_6677.png,n02123045_6677.png,1.0,1.8772923,-3.5489082,3.836903
alexnet_w1_mlp_simclrhn_probe2,1,540,NaN,bicycle,bicycle,270,0540_rot_dnn_270_bicycle_20_n02835271_4440.png,n02835271_4440.png,1.0,1.7664452,-2.223997,2.8216689
alexnet_w1_mlp_simclrhn_probe2,1,541,NaN,keyboard,keyboard,270,0541_rot_dnn_270_keyboard_20_n03085013_21444.png,n03085013_21444.png,1.0,2.7257671,0.24155277,1.7566048
alexnet_w1_mlp_simclrhn_probe2,1,542,NaN,clock,clock,180,0542_rot_dnn_180_clock_20_n02708093_8255.png,n02708093_8255.png,1.0,0.61156034,0.49496886,0.08244263
alexnet_w1_mlp_simclrhn_probe2,1,543,NaN,bicycle,bicycle,0,0543_rot_dnn_0_bicycle_20_n02835271_30318.png,n02835271_30318.png,1.0,0.27492565,-0.83292663,0.78336984
alexnet_w1_mlp_simclrhn_probe2,1,544,NaN,cat,cat,180,0544_rot_dnn_180_cat_20_n02123394_2059.png,n02123394_2059.png,1.0,-0.33562335,-2.1888826,1.3104522
alexnet_w1_mlp_simclrhn_probe2,1,545,NaN,elephant,elephant,180,0545_rot_dnn_180_elephant_20_n02504013_6618.png,n02504013_6618.png,1.0,2.8412247,0.80884,1.4371129
alexnet_w1_mlp_simclrhn_probe2,1,546,NaN,cat,cat,270,0546_rot_dnn_270_cat_20_n02124075_8889.png,n02124075_8889.png,1.0,-0.0049679675,-0.5308683,0.3718677
alexnet_w1_mlp_simclrhn_probe2,1,547,NaN,bird,dog,90,0547_rot_dnn_90_dog_20_n02100877_7302.png,n02100877_7302.png,0.0,-3.2691896,-1.1986661,-1.4640813
alexnet_w1_mlp_simclrhn_probe2,1,548,NaN,knife,car,180,0548_rot_dnn_180_car_20_n02814533_85971.png,n02814533_85971.png,0.0,-1.5967685,0.2969743,-1.3390784
alexnet_w1_mlp_simclrhn_probe2,1,549,NaN,chair,chair,0,0549_rot_dnn_0_chair_20_n03376595_5909.png,n03376595_5909.png,1.0,2.646823,0.69386685,1.3809485
alexnet_w1_mlp_simclrhn_probe2,1,550,NaN,clock,keyboard,270,0550_rot_dnn_270_keyboard_20_n03085013_13083.png,n03085013_13083.png,0.0,-1.1186075,-0.02526168,-0.7731123
alexnet_w1_mlp_simclrhn_probe2,1,551,NaN,chair,oven,90,0551_rot_dnn_90_oven_20_n04111531_9611.png,n04111531_9611.png,0.0,-0.46756577,0.33459145,-0.5672108
alexnet_w1_mlp_simclrhn_probe2,1,552,NaN,bicycle,boat,0,0552_rot_dnn_0_boat_20_n02951358_13996.png,n02951358_13996.png,0.0,-1.9631016,-1.0781765,-0.6257366
alexnet_w1_mlp_simclrhn_probe2,1,553,NaN,boat,boat,0,0553_rot_dnn_0_boat_20_n03344393_9251.png,n03344393_9251.png,1.0,3.2823005,1.8844273,0.98844564
alexnet_w1_mlp_simclrhn_probe2,1,554,NaN,chair,airplane,180,0554_rot_dnn_180_airplane_20_n02690373_9175.png,n02690373_9175.png,0.0,-3.5926886,1.476281,-3.584303
alexnet_w1_mlp_simclrhn_probe2,1,555,NaN,elephant,bear,0,0555_rot_dnn_0_bear_20_n02132136_2791.png,n02132136_2791.png,0.0,2.6016889,3.055232,-0.32070348
alexnet_w1_mlp_simclrhn_probe2,1,556,NaN,cat,elephant,180,0556_rot_dnn_180_elephant_20_n02504458_193.png,n02504458_193.png,0.0,-1.7438122,-1.4684405,-0.19471718
alexnet_w1_mlp_simclrhn_probe2,1,557,NaN,bird,bird,270,0557_rot_dnn_270_bird_20_n01843383_9985.png,n01843383_9985.png,1.0,-0.64461255,-3.266181,1.8537289
alexnet_w1_mlp_simclrhn_probe2,1,558,NaN,bird,bird,270,0558_rot_dnn_270_bird_20_n02028035_10744.png,n02028035_10744.png,1.0,-0.052870054,-2.1277118,1.4671347
alexnet_w1_mlp_simclrhn_probe2,1,559,NaN,chair,truck,270,0559_rot_dnn_270_truck_20_n04467665_3720.png,n04467665_3720.png,0.0,-0.7276427,2.2096605,-2.076987
alexnet_w1_mlp_simclrhn_probe2,1,560,NaN,car,car,0,0560_rot_dnn_0_car_20_n02814533_52605.png,n02814533_52605.png,1.0,3.5731752,2.1903942,0.97777385
alexnet_w1_mlp_simclrhn_probe2,1,561,NaN,clock,clock,90,0561_rot_dnn_90_clock_20_n04548280_5631.png,n04548280_5631.png,1.0,7.6655693,-1.9700347,6.8134007
alexnet_w1_mlp_simclrhn_probe2,1,562,NaN,oven,oven,0,0562_rot_dnn_0_oven_20_n04111531_1922.png,n04111531_1922.png,1.0,5.344921,-1.9155016,5.1338944
alexnet_w1_mlp_simclrhn_probe2,1,563,NaN,airplane,boat,180,0563_rot_dnn_180_boat_20_n03662601_1197.png,n03662601_1197.png,0.0,-0.17737877,2.7263837,-2.05327
alexnet_w1_mlp_simclrhn_probe2,1,564,NaN,clock,clock,270,0564_rot_dnn_270_clock_20_n02708093_1862.png,n02708093_1862.png,1.0,1.1878568,-1.5498233,1.9358321
alexnet_w1_mlp_simclrhn_probe2,1,565,NaN,truck,truck,180,0565_rot_dnn_180_truck_20_n03796401_4582.png,n03796401_4582.png,1.0,1.8328314,1.2142167,0.43742663
alexnet_w1_mlp_simclrhn_probe2,1,566,NaN,chair,elephant,90,0566_rot_dnn_90_elephant_20_n02504013_565.png,n02504013_565.png,0.0,-0.40707415,-0.07681775,-0.23352654
alexnet_w1_mlp_simclrhn_probe2,1,567,NaN,chair,truck,180,0567_rot_dnn_180_truck_20_n04467665_49826.png,n04467665_49826.png,0.0,-0.09057465,1.5782442,-1.1800331
alexnet_w1_mlp_simclrhn_probe2,1,568,NaN,bear,bear,270,0568_rot_dnn_270_bear_20_n02134418_5067.png,n02134418_5067.png,1.0,0.59694433,0.35461438,0.17135316
alexnet_w1_mlp_simclrhn_probe2,1,569,NaN,oven,chair,90,0569_rot_dnn_90_chair_20_n04429376_29223.png,n04429376_29223.png,0.0,0.4254073,1.1443466,-0.5083669
alexnet_w1_mlp_simclrhn_probe2,1,570,NaN,knife,airplane,270,0570_rot_dnn_270_airplane_20_n02690373_5909.png,n02690373_5909.png,0.0,-4.8030496,-0.81459564,-2.820263
alexnet_w1_mlp_simclrhn_probe2,1,571,NaN,knife,dog,270,0571_rot_dnn_270_dog_20_n02097658_722.png,n02097658_722.png,0.0,-4.0483723,-0.034701593,-2.8380935
alexnet_w1_mlp_simclrhn_probe2,1,572,NaN,oven,oven,0,0572_rot_dnn_0_oven_20_n04111531_10339.png,n04111531_10339.png,1.0,2.5910363,1.2230308,0.967326
alexnet_w1_mlp_simclrhn_probe2,1,573,NaN,bottle,truck,90,0573_rot_dnn_90_truck_20_n03417042_28078.png,n03417042_28078.png,0.0,-2.6600556,1.846668,-3.1867347
alexnet_w1_mlp_simclrhn_probe2,1,574,NaN,oven,chair,180,0574_rot_dnn_180_chair_20_n04099969_22118.png,n04099969_22118.png,0.0,0.5970864,1.6125271,-0.718025
alexnet_w1_mlp_simclrhn_probe2,1,575,NaN,oven,clock,270,0575_rot_dnn_270_clock_20_n04548280_7978.png,n04548280_7978.png,0.0,-4.1343446,0.32198977,-3.1511042
alexnet_w1_mlp_simclrhn_probe2,1,576,NaN,elephant,bear,180,0576_rot_dnn_180_bear_20_n02133161_1962.png,n02133161_1962.png,0.0,0.96620774,1.2151706,-0.17604335
alexnet_w1_mlp_simclrhn_probe2,1,577,NaN,knife,clock,180,0577_rot_dnn_180_clock_20_n04548280_13750.png,n04548280_13750.png,0.0,-3.0116413,-0.8625216,-1.5196571
alexnet_w1_mlp_simclrhn_probe2,1,578,NaN,knife,keyboard,0,0578_rot_dnn_0_keyboard_20_n03085013_15249.png,n03085013_15249.png,0.0,-0.85440314,0.69611347,-1.0963808
alexnet_w1_mlp_simclrhn_probe2,1,579,NaN,oven,car,90,0579_rot_dnn_90_car_20_n02814533_479.png,n02814533_479.png,0.0,-3.0264695,0.797398,-2.7038825
alexnet_w1_mlp_simclrhn_probe2,1,580,NaN,knife,keyboard,270,0580_rot_dnn_270_keyboard_20_n03085013_20716.png,n03085013_20716.png,0.0,-1.0627024,-0.5088783,-0.3916128
alexnet_w1_mlp_simclrhn_probe2,1,581,NaN,bird,bird,180,0581_rot_dnn_180_bird_20_n01530575_7990.png,n01530575_7990.png,1.0,-1.6344664,-3.4896133,1.311787
alexnet_w1_mlp_simclrhn_probe2,1,582,NaN,chair,chair,0,0582_rot_dnn_0_chair_20_n04429376_17343.png,n04429376_17343.png,1.0,-0.54724926,-0.5711225,0.016880952
alexnet_w1_mlp_simclrhn_probe2,1,583,NaN,chair,chair,90,0583_rot_dnn_90_chair_20_n02791124_8775.png,n02791124_8775.png,1.0,0.64193237,-0.565402,0.8537143
alexnet_w1_mlp_simclrhn_probe2,1,584,NaN,cat,cat,90,0584_rot_dnn_90_cat_20_n02125311_2959.png,n02125311_2959.png,1.0,1.1333566,-1.1786935,1.6348664
alexnet_w1_mlp_simclrhn_probe2,1,585,NaN,oven,oven,180,0585_rot_dnn_180_oven_20_n04111531_13906.png,n04111531_13906.png,1.0,1.6182644,0.264644,0.9571542
alexnet_w1_mlp_simclrhn_probe2,1,586,NaN,chair,airplane,90,0586_rot_dnn_90_airplane_20_n02690373_7293.png,n02690373_7293.png,0.0,-1.468002,-0.36666012,-0.7787663
alexnet_w1_mlp_simclrhn_probe2,1,587,NaN,chair,chair,180,0587_rot_dnn_180_chair_20_n04099969_10825.png,n04099969_10825.png,1.0,1.7032982,1.0053949,0.49349216
alexnet_w1_mlp_simclrhn_probe2,1,588,NaN,airplane,airplane,180,0588_rot_dnn_180_airplane_20_n02690373_17044.png,n02690373_17044.png,1.0,4.617099,0.4679148,2.9339163
alexnet_w1_mlp_simclrhn_probe2,1,589,NaN,bird,bird,0,0589_rot_dnn_0_bird_20_n01797886_6169.png,n01797886_6169.png,1.0,0.41504553,-1.193399,1.137342
alexnet_w1_mlp_simclrhn_probe2,1,590,NaN,truck,oven,0,0590_rot_dnn_0_oven_20_n04111531_13255.png,n04111531_13255.png,0.0,-2.6684623,0.83509016,-2.4773858
alexnet_w1_mlp_simclrhn_probe2,1,591,NaN,oven,knife,270,0591_rot_dnn_270_knife_20_n03041632_17820.png,n03041632_17820.png,0.0,-2.361149,-0.5685121,-1.2675858
alexnet_w1_mlp_simclrhn_probe2,1,592,NaN,knife,bicycle,270,0592_rot_dnn_270_bicycle_20_n02835271_21640.png,n02835271_21640.png,0.0,-2.2423115,-1.8652703,-0.26660842
alexnet_w1_mlp_simclrhn_probe2,1,593,NaN,bear,bear,0,0593_rot_dnn_0_bear_20_n02134418_517.png,n02134418_517.png,1.0,2.5995984,2.596918,0.0018952595
alexnet_w1_mlp_simclrhn_probe2,1,594,NaN,chair,airplane,180,0594_rot_dnn_180_airplane_20_n02690373_4588.png,n02690373_4588.png,0.0,-4.441327,0.43974465,-3.451439
alexnet_w1_mlp_simclrhn_probe2,1,595,NaN,chair,bottle,270,0595_rot_dnn_270_bottle_20_n02823428_12190.png,n02823428_12190.png,0.0,-1.1107036,0.04259248,-0.81550354
alexnet_w1_mlp_simclrhn_probe2,1,596,NaN,bottle,bottle,0,0596_rot_dnn_0_bottle_20_n04591713_1717.png,n04591713_1717.png,1.0,2.1863787,1.0690612,0.79006284
alexnet_w1_mlp_simclrhn_probe2,1,597,NaN,knife,knife,0,0597_rot_dnn_0_knife_20_n03041632_9488.png,n03041632_9488.png,1.0,2.5407748,-2.2977054,3.421322
alexnet_w1_mlp_simclrhn_probe2,1,598,NaN,chair,truck,90,0598_rot_dnn_90_truck_20_n03417042_11166.png,n03417042_11166.png,0.0,-1.2828279,0.44706964,-1.2232223
alexnet_w1_mlp_simclrhn_probe2,1,599,NaN,elephant,elephant,90,0599_rot_dnn_90_elephant_20_n02504458_585.png,n02504458_585.png,1.0,-0.4203671,-1.8889437,1.0384405
alexnet_w1_mlp_simclrhn_probe2,1,600,NaN,oven,keyboard,0,0600_rot_dnn_0_keyboard_20_n04505470_5046.png,n04505470_5046.png,0.0,0.3290053,1.7079494,-0.97506076
alexnet_w1_mlp_simclrhn_probe2,1,601,NaN,chair,chair,180,0601_rot_dnn_180_chair_20_n03376595_4937.png,n03376595_4937.png,1.0,1.6481317,-0.9111791,1.8097061
alexnet_w1_mlp_simclrhn_probe2,1,602,NaN,oven,boat,180,0602_rot_dnn_180_boat_20_n03662601_1740.png,n03662601_1740.png,0.0,-2.596006,0.23106912,-1.999044
alexnet_w1_mlp_simclrhn_probe2,1,603,NaN,knife,knife,0,0603_rot_dnn_0_knife_20_n03041632_4037.png,n03041632_4037.png,1.0,-0.16271712,-0.53488255,0.2631607
alexnet_w1_mlp_simclrhn_probe2,1,604,NaN,bicycle,boat,0,0604_rot_dnn_0_boat_20_n04273569_1538.png,n04273569_1538.png,0.0,-2.8763213,1.0098819,-2.7479608
alexnet_w1_mlp_simclrhn_probe2,1,605,NaN,knife,bird,0,0605_rot_dnn_0_bird_20_n02017213_15918.png,n02017213_15918.png,0.0,-2.5631056,-1.6274649,-0.6615979
alexnet_w1_mlp_simclrhn_probe2,1,606,NaN,keyboard,keyboard,0,0606_rot_dnn_0_keyboard_20_n03085013_10463.png,n03085013_10463.png,1.0,4.6461415,1.5512316,2.1884317
alexnet_w1_mlp_simclrhn_probe2,1,607,NaN,elephant,bear,270,0607_rot_dnn_270_bear_20_n02133161_7939.png,n02133161_7939.png,0.0,0.6604938,0.89552236,-0.1661903
alexnet_w1_mlp_simclrhn_probe2,1,608,NaN,chair,car,270,0608_rot_dnn_270_car_20_n04285008_11704.png,n04285008_11704.png,0.0,-0.71861964,-0.53360444,-0.1308255
alexnet_w1_mlp_simclrhn_probe2,1,609,NaN,clock,truck,90,0609_rot_dnn_90_truck_20_n03796401_16046.png,n03796401_16046.png,0.0,-2.7071204,1.4059467,-2.9083776
alexnet_w1_mlp_simclrhn_probe2,1,610,NaN,clock,chair,270,0610_rot_dnn_270_chair_20_n02791124_3710.png,n02791124_3710.png,0.0,-0.31911778,0.37666702,-0.49199417
alexnet_w1_mlp_simclrhn_probe2,1,611,NaN,keyboard,keyboard,180,0611_rot_dnn_180_keyboard_20_n04505470_3566.png,n04505470_3566.png,1.0,3.7760413,2.145279,1.1531231
alexnet_w1_mlp_simclrhn_probe2,1,612,NaN,chair,bird,90,0612_rot_dnn_90_bird_20_n02037110_8716.png,n02037110_8716.png,0.0,-4.668916,-0.96887314,-2.6163256
alexnet_w1_mlp_simclrhn_probe2,1,613,NaN,car,car,0,0613_rot_dnn_0_car_20_n03100240_19550.png,n03100240_19550.png,1.0,6.243756,3.9719238,1.6064278
alexnet_w1_mlp_simclrhn_probe2,1,614,NaN,airplane,airplane,270,0614_rot_dnn_270_airplane_20_n02690373_10769.png,n02690373_10769.png,1.0,0.38875267,-0.15607949,0.38525453
alexnet_w1_mlp_simclrhn_probe2,1,615,NaN,bicycle,bicycle,0,0615_rot_dnn_0_bicycle_20_n03792782_3456.png,n03792782_3456.png,1.0,2.3318207,-1.1569273,2.4669175
alexnet_w1_mlp_simclrhn_probe2,1,616,NaN,airplane,chair,0,0616_rot_dnn_0_chair_20_n03376595_2368.png,n03376595_2368.png,0.0,-0.9064786,-0.35677534,-0.3886989
alexnet_w1_mlp_simclrhn_probe2,1,617,NaN,dog,dog,0,0617_rot_dnn_0_dog_20_n02091467_2974.png,n02091467_2974.png,1.0,-1.3612216,-1.6557215,0.20824295
alexnet_w1_mlp_simclrhn_probe2,1,618,NaN,knife,knife,180,0618_rot_dnn_180_knife_20_n03041632_43634.png,n03041632_43634.png,1.0,2.4018161,-0.8588009,2.3056045
alexnet_w1_mlp_simclrhn_probe2,1,619,NaN,keyboard,keyboard,180,0619_rot_dnn_180_keyboard_20_n04505470_4477.png,n04505470_4477.png,1.0,3.6366162,0.29188767,2.36508
alexnet_w1_mlp_simclrhn_probe2,1,620,NaN,clock,boat,90,0620_rot_dnn_90_boat_20_n03344393_4773.png,n03344393_4773.png,0.0,-4.289684,-1.0745449,-2.2734466
alexnet_w1_mlp_simclrhn_probe2,1,621,NaN,airplane,airplane,180,0621_rot_dnn_180_airplane_20_n02690373_139.png,n02690373_139.png,1.0,2.1543388,0.3270532,1.2920861
alexnet_w1_mlp_simclrhn_probe2,1,622,NaN,oven,knife,270,0622_rot_dnn_270_knife_20_n03041632_737.png,n03041632_737.png,0.0,-0.20257056,0.7102647,-0.645472
alexnet_w1_mlp_simclrhn_probe2,1,623,NaN,oven,chair,270,0623_rot_dnn_270_chair_20_n02791124_2698.png,n02791124_2698.png,0.0,0.4161986,2.4761734,-1.4566221
alexnet_w1_mlp_simclrhn_probe2,1,624,NaN,bottle,truck,270,0624_rot_dnn_270_truck_20_n03417042_5301.png,n03417042_5301.png,0.0,-2.09079,1.3188146,-2.4109545
alexnet_w1_mlp_simclrhn_probe2,1,625,NaN,bird,bird,0,0625_rot_dnn_0_bird_20_n02006656_5757.png,n02006656_5757.png,1.0,1.4807155,-3.0582604,3.2095406
alexnet_w1_mlp_simclrhn_probe2,1,626,NaN,bear,bear,270,0626_rot_dnn_270_bear_20_n02132136_15174.png,n02132136_15174.png,1.0,0.7831729,0.6717841,0.078763776
alexnet_w1_mlp_simclrhn_probe2,1,627,NaN,oven,bottle,270,0627_rot_dnn_270_bottle_20_n04560804_6329.png,n04560804_6329.png,0.0,-1.1107385,0.5372599,-1.1653109
alexnet_w1_mlp_simclrhn_probe2,1,628,NaN,truck,truck,0,0628_rot_dnn_0_truck_20_n03417042_22196.png,n03417042_22196.png,1.0,1.9726677,0.6463453,0.93785155
alexnet_w1_mlp_simclrhn_probe2,1,629,NaN,bear,cat,0,0629_rot_dnn_0_cat_20_n02125311_18366.png,n02125311_18366.png,0.0,-0.22859566,-0.05714351,-0.12123498
alexnet_w1_mlp_simclrhn_probe2,1,630,NaN,chair,chair,0,0630_rot_dnn_0_chair_20_n02791124_12707.png,n02791124_12707.png,1.0,1.0360616,0.9015573,0.09510892
alexnet_w1_mlp_simclrhn_probe2,1,631,NaN,oven,oven,180,0631_rot_dnn_180_oven_20_n04111531_1938.png,n04111531_1938.png,1.0,0.71871024,-1.3392067,1.455167
alexnet_w1_mlp_simclrhn_probe2,1,632,NaN,oven,airplane,270,0632_rot_dnn_270_airplane_20_n02690373_9346.png,n02690373_9346.png,0.0,-7.8355026,-0.31385264,-5.3186097
alexnet_w1_mlp_simclrhn_probe2,1,633,NaN,oven,cat,0,0633_rot_dnn_0_cat_20_n02123045_10433.png,n02123045_10433.png,0.0,-2.4924173,-0.39819792,-1.4808367
alexnet_w1_mlp_simclrhn_probe2,1,634,NaN,airplane,airplane,180,0634_rot_dnn_180_airplane_20_n02690373_5055.png,n02690373_5055.png,1.0,3.394485,0.69644433,1.9078029
alexnet_w1_mlp_simclrhn_probe2,1,635,NaN,clock,clock,270,0635_rot_dnn_270_clock_20_n04548280_4198.png,n04548280_4198.png,1.0,-0.11520871,-0.49218172,0.26656017
