subj,session,trial,rt,object_response,category,condition,imagename,filename,is_correct,targ_act,max_nontarg_act,decision_margin
alexnet_w1_mlp_simclrhn_probe3,1,1,NaN,bicycle,chair,0,0001_rot_dnn_0_chair_20_n03376595_3070.png,n03376595_3070.png,0.0,1.5921712,5.2628136,-2.5955362
alexnet_w1_mlp_simclrhn_probe3,1,2,NaN,car,car,180,0002_rot_dnn_180_car_20_n02814533_29367.png,n02814533_29367.png,1.0,1.4666091,0.99444747,0.3338687
alexnet_w1_mlp_simclrhn_probe3,1,3,NaN,elephant,car,270,0003_rot_dnn_270_car_20_n02814533_31083.png,n02814533_31083.png,0.0,-1.4697795,2.10987,-2.5311944
alexnet_w1_mlp_simclrhn_probe3,1,4,NaN,airplane,car,180,0004_rot_dnn_180_car_20_n03100240_1703.png,n03100240_1703.png,0.0,2.756652,3.8358817,-0.7631306
alexnet_w1_mlp_simclrhn_probe3,1,5,NaN,knife,bottle,180,0005_rot_dnn_180_bottle_20_n04591713_2359.png,n04591713_2359.png,0.0,0.7000355,1.5045135,-0.5688518
alexnet_w1_mlp_simclrhn_probe3,1,6,NaN,dog,dog,90,0006_rot_dnn_90_dog_20_n02111500_8796.png,n02111500_8796.png,1.0,0.75911266,0.7173953,0.029498622
alexnet_w1_mlp_simclrhn_probe3,1,7,NaN,bicycle,bear,180,0007_rot_dnn_180_bear_20_n02132136_4512.png,n02132136_4512.png,0.0,1.3469601,1.4085517,-0.043551855
alexnet_w1_mlp_simclrhn_probe3,1,8,NaN,chair,chair,90,0008_rot_dnn_90_chair_20_n03376595_4820.png,n03376595_4820.png,1.0,2.5482113,0.9269233,1.1464238
alexnet_w1_mlp_simclrhn_probe3,1,9,NaN,keyboard,bottle,270,0009_rot_dnn_270_bottle_20_n04591713_6111.png,n04591713_6111.png,0.0,1.4206334,4.2376523,-1.9919332
alexnet_w1_mlp_simclrhn_probe3,1,10,NaN,chair,bottle,270,0010_rot_dnn_270_bottle_20_n04560804_14111.png,n04560804_14111.png,0.0,0.9054378,2.3663604,-1.0330282
alexnet_w1_mlp_simclrhn_probe3,1,11,NaN,elephant,dog,0,0011_rot_dnn_0_dog_20_n02099601_8656.png,n02099601_8656.png,0.0,1.9979086,3.3995028,-0.99107677
alexnet_w1_mlp_simclrhn_probe3,1,12,NaN,cat,cat,0,0012_rot_dnn_0_cat_20_n02125311_14054.png,n02125311_14054.png,1.0,1.2684387,0.9596486,0.21834756
alexnet_w1_mlp_simclrhn_probe3,1,13,NaN,bear,bear,0,0013_rot_dnn_0_bear_20_n02132136_10385.png,n02132136_10385.png,1.0,2.099307,1.0911492,0.71287525
alexnet_w1_mlp_simclrhn_probe3,1,14,NaN,knife,bottle,90,0014_rot_dnn_90_bottle_20_n02823428_10417.png,n02823428_10417.png,0.0,0.51821065,2.187272,-1.1802046
alexnet_w1_mlp_simclrhn_probe3,1,15,NaN,knife,keyboard,0,0015_rot_dnn_0_keyboard_20_n03085013_23566.png,n03085013_23566.png,0.0,-0.049271166,1.4991134,-1.0948733
alexnet_w1_mlp_simclrhn_probe3,1,16,NaN,bottle,truck,90,0016_rot_dnn_90_truck_20_n03417042_12560.png,n03417042_12560.png,0.0,1.528773,2.6964176,-0.82564944
alexnet_w1_mlp_simclrhn_probe3,1,17,NaN,boat,truck,180,0017_rot_dnn_180_truck_20_n04467665_69063.png,n04467665_69063.png,0.0,0.65886724,2.4956543,-1.2988046
alexnet_w1_mlp_simclrhn_probe3,1,18,NaN,oven,oven,180,0018_rot_dnn_180_oven_20_n04111531_9712.png,n04111531_9712.png,1.0,2.1404262,1.1119577,0.72723705
alexnet_w1_mlp_simclrhn_probe3,1,19,NaN,oven,oven,180,0019_rot_dnn_180_oven_20_n04111531_10375.png,n04111531_10375.png,1.0,6.6304054,1.9261378,3.3264196
alexnet_w1_mlp_simclrhn_probe3,1,20,NaN,oven,keyboard,0,0020_rot_dnn_0_keyboard_20_n04505470_1744.png,n04505470_1744.png,0.0,4.18128,4.8720393,-0.4884405
alexnet_w1_mlp_simclrhn_probe3,1,21,NaN,bear,boat,90,0021_rot_dnn_90_boat_20_n04273569_7296.png,n04273569_7296.png,0.0,-1.3400921,1.2707133,-1.8461183
alexnet_w1_mlp_simclrhn_probe3,1,22,NaN,bear,dog,0,0022_rot_dnn_0_dog_20_n02101006_4807.png,n02101006_4807.png,0.0,1.9335206,4.4535403,-1.781923
alexnet_w1_mlp_simclrhn_probe3,1,23,NaN,clock,clock,90,0023_rot_dnn_90_clock_20_n02708093_1986.png,n02708093_1986.png,1.0,9.91052,1.3266201,6.0697336
alexnet_w1_mlp_simclrhn_probe3,1,24,NaN,bottle,bottle,0,0024_rot_dnn_0_bottle_20_n04560804_15562.png,n04560804_15562.png,1.0,6.2358785,1.0250875,3.6845858
alexnet_w1_mlp_simclrhn_probe3,1,25,NaN,cat,cat,0,0025_rot_dnn_0_cat_20_n02124075_13594.png,n02124075_13594.png,1.0,3.136893,1.1425353,1.4102238
alexnet_w1_mlp_simclrhn_probe3,1,26,NaN,bear,bear,90,0026_rot_dnn_90_bear_20_n02134418_4365.png,n02134418_4365.png,1.0,1.9422089,1.2876182,0.46286556
alexnet_w1_mlp_simclrhn_probe3,1,27,NaN,bear,bear,180,0027_rot_dnn_180_bear_20_n02132136_8650.png,n02132136_8650.png,1.0,2.7383828,0.8417943,1.3410907
alexnet_w1_mlp_simclrhn_probe3,1,28,NaN,airplane,bird,90,0028_rot_dnn_90_bird_20_n02009912_12219.png,n02009912_12219.png,0.0,1.3162594,1.3803024,-0.045285273
alexnet_w1_mlp_simclrhn_probe3,1,29,NaN,bicycle,dog,90,0029_rot_dnn_90_dog_20_n02100236_1662.png,n02100236_1662.png,0.0,0.07008026,0.9022089,-0.5884038
alexnet_w1_mlp_simclrhn_probe3,1,30,NaN,clock,clock,90,0030_rot_dnn_90_clock_20_n04548280_1947.png,n04548280_1947.png,1.0,7.669269,1.3878679,4.4416213
alexnet_w1_mlp_simclrhn_probe3,1,31,NaN,bird,dog,270,0031_rot_dnn_270_dog_20_n02109047_66167.png,n02109047_66167.png,0.0,0.59386855,1.4173234,-0.5822705
alexnet_w1_mlp_simclrhn_probe3,1,32,NaN,oven,oven,90,0032_rot_dnn_90_oven_20_n04111531_21055.png,n04111531_21055.png,1.0,6.7486115,3.6746786,2.1735988
alexnet_w1_mlp_simclrhn_probe3,1,33,NaN,clock,clock,0,0033_rot_dnn_0_clock_20_n02708093_2012.png,n02708093_2012.png,1.0,1.9252428,0.9649757,0.67901134
alexnet_w1_mlp_simclrhn_probe3,1,34,NaN,elephant,elephant,0,0034_rot_dnn_0_elephant_20_n02504458_6119.png,n02504458_6119.png,1.0,6.3294525,3.9572377,1.6774092
alexnet_w1_mlp_simclrhn_probe3,1,35,NaN,chair,chair,0,0035_rot_dnn_0_chair_20_n04099969_12707.png,n04099969_12707.png,1.0,6.1853585,2.28973,2.7546253
alexnet_w1_mlp_simclrhn_probe3,1,36,NaN,keyboard,keyboard,270,0036_rot_dnn_270_keyboard_20_n03085013_19054.png,n03085013_19054.png,1.0,0.7963202,0.648098,0.10480893
alexnet_w1_mlp_simclrhn_probe3,1,37,NaN,chair,chair,0,0037_rot_dnn_0_chair_20_n02791124_422.png,n02791124_422.png,1.0,1.5228202,0.7602087,0.53924775
alexnet_w1_mlp_simclrhn_probe3,1,38,NaN,bicycle,bicycle,0,0038_rot_dnn_0_bicycle_20_n02835271_23830.png,n02835271_23830.png,1.0,13.593647,1.6501747,8.445311
alexnet_w1_mlp_simclrhn_probe3,1,39,NaN,airplane,bird,90,0039_rot_dnn_90_bird_20_n01534433_14735.png,n01534433_14735.png,0.0,0.66891944,1.3596094,-0.48839155
alexnet_w1_mlp_simclrhn_probe3,1,40,NaN,bird,bird,90,0040_rot_dnn_90_bird_20_n02011460_13994.png,n02011460_13994.png,1.0,2.3498778,0.19327816,1.5249463
alexnet_w1_mlp_simclrhn_probe3,1,41,NaN,dog,boat,270,0041_rot_dnn_270_boat_20_n04273569_17522.png,n04273569_17522.png,0.0,-1.361366,0.19483836,-1.1004027
alexnet_w1_mlp_simclrhn_probe3,1,42,NaN,cat,bear,180,0042_rot_dnn_180_bear_20_n02132136_5537.png,n02132136_5537.png,0.0,1.8416083,3.986976,-1.517004
alexnet_w1_mlp_simclrhn_probe3,1,43,NaN,bear,bear,90,0043_rot_dnn_90_bear_20_n02132136_19248.png,n02132136_19248.png,1.0,4.6698146,2.9494514,1.2164805
alexnet_w1_mlp_simclrhn_probe3,1,44,NaN,bicycle,bird,270,0044_rot_dnn_270_bird_20_n01537544_1886.png,n01537544_1886.png,0.0,0.32763496,0.8943696,-0.40074193
alexnet_w1_mlp_simclrhn_probe3,1,45,NaN,oven,clock,180,0045_rot_dnn_180_clock_20_n03196217_4776.png,n03196217_4776.png,0.0,1.7252659,1.7626253,-0.02641714
alexnet_w1_mlp_simclrhn_probe3,1,46,NaN,chair,boat,270,0046_rot_dnn_270_boat_20_n04612504_17610.png,n04612504_17610.png,0.0,-0.8265375,2.1000392,-2.0694022
alexnet_w1_mlp_simclrhn_probe3,1,47,NaN,cat,bear,90,0047_rot_dnn_90_bear_20_n02134418_1814.png,n02134418_1814.png,0.0,2.0080853,2.2241151,-0.1527562
alexnet_w1_mlp_simclrhn_probe3,1,48,NaN,keyboard,keyboard,180,0048_rot_dnn_180_keyboard_20_n03085013_20330.png,n03085013_20330.png,1.0,5.086482,1.711547,2.3864396
alexnet_w1_mlp_simclrhn_probe3,1,49,NaN,bottle,bottle,180,0049_rot_dnn_180_bottle_20_n02823428_14574.png,n02823428_14574.png,1.0,5.2885118,2.833827,1.7357242
alexnet_w1_mlp_simclrhn_probe3,1,50,NaN,bicycle,bicycle,0,0050_rot_dnn_0_bicycle_20_n03792782_7105.png,n03792782_7105.png,1.0,3.1054435,1.0681508,1.4405835
alexnet_w1_mlp_simclrhn_probe3,1,51,NaN,elephant,elephant,0,0051_rot_dnn_0_elephant_20_n02504458_1302.png,n02504458_1302.png,1.0,13.873184,4.9262395,6.3264456
alexnet_w1_mlp_simclrhn_probe3,1,52,NaN,bottle,airplane,90,0052_rot_dnn_90_airplane_20_n02690373_3877.png,n02690373_3877.png,0.0,-1.249779,0.97819406,-1.5754148
alexnet_w1_mlp_simclrhn_probe3,1,53,NaN,chair,boat,90,0053_rot_dnn_90_boat_20_n02951358_15422.png,n02951358_15422.png,0.0,0.32984444,2.4711344,-1.5141207
alexnet_w1_mlp_simclrhn_probe3,1,54,NaN,oven,car,270,0054_rot_dnn_270_car_20_n02814533_46458.png,n02814533_46458.png,0.0,0.18241565,3.5503135,-2.3814633
alexnet_w1_mlp_simclrhn_probe3,1,55,NaN,car,car,0,0055_rot_dnn_0_car_20_n02814533_39547.png,n02814533_39547.png,1.0,13.7022295,8.8100815,3.4592712
alexnet_w1_mlp_simclrhn_probe3,1,56,NaN,boat,boat,180,0056_rot_dnn_180_boat_20_n04273569_6586.png,n04273569_6586.png,1.0,2.122165,2.0319915,0.063762285
alexnet_w1_mlp_simclrhn_probe3,1,57,NaN,clock,clock,90,0057_rot_dnn_90_clock_20_n02708093_3394.png,n02708093_3394.png,1.0,2.298443,1.4144235,0.62509626
alexnet_w1_mlp_simclrhn_probe3,1,58,NaN,keyboard,keyboard,180,0058_rot_dnn_180_keyboard_20_n03085013_25419.png,n03085013_25419.png,1.0,4.291295,2.3993297,1.3378216
alexnet_w1_mlp_simclrhn_probe3,1,59,NaN,knife,bottle,180,0059_rot_dnn_180_bottle_20_n04557648_1871.png,n04557648_1871.png,0.0,0.8513832,1.9084634,-0.74746853
alexnet_w1_mlp_simclrhn_probe3,1,60,NaN,oven,chair,90,0060_rot_dnn_90_chair_20_n04099969_6944.png,n04099969_6944.png,0.0,1.4717554,3.6639867,-1.5501416
alexnet_w1_mlp_simclrhn_probe3,1,61,NaN,bicycle,boat,270,0061_rot_dnn_270_boat_20_n04273569_1495.png,n04273569_1495.png,0.0,0.28186,1.9124863,-1.1530269
alexnet_w1_mlp_simclrhn_probe3,1,62,NaN,keyboard,keyboard,90,0062_rot_dnn_90_keyboard_20_n03085013_7317.png,n03085013_7317.png,1.0,2.6994917,0.99368817,1.2061853
alexnet_w1_mlp_simclrhn_probe3,1,63,NaN,knife,knife,90,0063_rot_dnn_90_knife_20_n03041632_7448.png,n03041632_7448.png,1.0,1.5016996,1.0074162,0.3495111
alexnet_w1_mlp_simclrhn_probe3,1,64,NaN,truck,truck,0,0064_rot_dnn_0_truck_20_n03417042_11000.png,n03417042_11000.png,1.0,3.3696039,2.5098894,0.60791
alexnet_w1_mlp_simclrhn_probe3,1,65,NaN,bird,bird,0,0065_rot_dnn_0_bird_20_n01582220_8827.png,n01582220_8827.png,1.0,2.421679,0.75114423,1.1812465
alexnet_w1_mlp_simclrhn_probe3,1,66,NaN,chair,airplane,270,0066_rot_dnn_270_airplane_20_n02690373_9247.png,n02690373_9247.png,0.0,-1.4706172,1.354667,-1.9977775
alexnet_w1_mlp_simclrhn_probe3,1,67,NaN,cat,bear,270,0067_rot_dnn_270_bear_20_n02133161_14397.png,n02133161_14397.png,0.0,2.8742461,3.582281,-0.50065637
alexnet_w1_mlp_simclrhn_probe3,1,68,NaN,oven,oven,270,0068_rot_dnn_270_oven_20_n04111531_13560.png,n04111531_13560.png,1.0,4.30038,1.7500789,1.8033354
alexnet_w1_mlp_simclrhn_probe3,1,69,NaN,bear,bear,180,0069_rot_dnn_180_bear_20_n02132136_545.png,n02132136_545.png,1.0,0.8901143,0.4161074,0.33517352
alexnet_w1_mlp_simclrhn_probe3,1,70,NaN,elephant,cat,90,0070_rot_dnn_90_cat_20_n02125311_73072.png,n02125311_73072.png,0.0,1.0034798,5.6238155,-3.2670708
alexnet_w1_mlp_simclrhn_probe3,1,71,NaN,bicycle,bicycle,0,0071_rot_dnn_0_bicycle_20_n03792782_30530.png,n03792782_30530.png,1.0,6.2975492,4.247161,1.4498435
alexnet_w1_mlp_simclrhn_probe3,1,72,NaN,knife,knife,90,0072_rot_dnn_90_knife_20_n03041632_4975.png,n03041632_4975.png,1.0,1.3103147,0.8924664,0.29546332
alexnet_w1_mlp_simclrhn_probe3,1,73,NaN,chair,dog,90,0073_rot_dnn_90_dog_20_n02107683_3120.png,n02107683_3120.png,0.0,-0.12250098,0.998012,-0.79232234
alexnet_w1_mlp_simclrhn_probe3,1,74,NaN,bear,elephant,90,0074_rot_dnn_90_elephant_20_n02504013_7316.png,n02504013_7316.png,0.0,0.9220166,1.6393768,-0.50725025
alexnet_w1_mlp_simclrhn_probe3,1,75,NaN,knife,truck,90,0075_rot_dnn_90_truck_20_n03796401_7284.png,n03796401_7284.png,0.0,-0.26350155,1.9041308,-1.5327475
alexnet_w1_mlp_simclrhn_probe3,1,76,NaN,oven,chair,270,0076_rot_dnn_270_chair_20_n03376595_497.png,n03376595_497.png,0.0,2.8607492,2.8713932,-0.007526416
alexnet_w1_mlp_simclrhn_probe3,1,77,NaN,chair,truck,270,0077_rot_dnn_270_truck_20_n03796401_19845.png,n03796401_19845.png,0.0,2.0044305,3.0660505,-0.7506787
alexnet_w1_mlp_simclrhn_probe3,1,78,NaN,knife,chair,90,0078_rot_dnn_90_chair_20_n04099969_1941.png,n04099969_1941.png,0.0,1.0978333,1.4330623,-0.23704273
alexnet_w1_mlp_simclrhn_probe3,1,79,NaN,oven,truck,90,0079_rot_dnn_90_truck_20_n03417042_28886.png,n03417042_28886.png,0.0,1.4554136,1.8148069,-0.2541295
alexnet_w1_mlp_simclrhn_probe3,1,80,NaN,car,car,0,0080_rot_dnn_0_car_20_n02814533_12185.png,n02814533_12185.png,1.0,3.4160948,1.3918242,1.4313755
alexnet_w1_mlp_simclrhn_probe3,1,81,NaN,bicycle,bicycle,90,0081_rot_dnn_90_bicycle_20_n02835271_1621.png,n02835271_1621.png,1.0,2.9980807,2.2915287,0.49960774
alexnet_w1_mlp_simclrhn_probe3,1,82,NaN,cat,cat,0,0082_rot_dnn_0_cat_20_n02123597_32226.png,n02123597_32226.png,1.0,3.981981,2.6724763,0.9259597
alexnet_w1_mlp_simclrhn_probe3,1,83,NaN,bicycle,bicycle,90,0083_rot_dnn_90_bicycle_20_n03792782_5048.png,n03792782_5048.png,1.0,1.6115817,1.1087584,0.35554972
alexnet_w1_mlp_simclrhn_probe3,1,84,NaN,airplane,airplane,0,0084_rot_dnn_0_airplane_20_n02690373_10044.png,n02690373_10044.png,1.0,11.198999,5.6009994,3.9583838
alexnet_w1_mlp_simclrhn_probe3,1,85,NaN,car,car,180,0085_rot_dnn_180_car_20_n03100240_5752.png,n03100240_5752.png,1.0,3.4504883,2.7112143,0.52274567
alexnet_w1_mlp_simclrhn_probe3,1,86,NaN,bottle,car,90,0086_rot_dnn_90_car_20_n02814533_68219.png,n02814533_68219.png,0.0,0.0286048,1.7924125,-1.2472005
alexnet_w1_mlp_simclrhn_probe3,1,87,NaN,airplane,airplane,0,0087_rot_dnn_0_airplane_20_n02690373_1171.png,n02690373_1171.png,1.0,3.856878,2.4450037,0.9983459
alexnet_w1_mlp_simclrhn_probe3,1,88,NaN,chair,bird,90,0088_rot_dnn_90_bird_20_n01817953_6970.png,n01817953_6970.png,0.0,-0.3041119,1.4715227,-1.2555633
alexnet_w1_mlp_simclrhn_probe3,1,89,NaN,chair,car,90,0089_rot_dnn_90_car_20_n04285008_15503.png,n04285008_15503.png,0.0,0.1284898,2.4420698,-1.6359482
alexnet_w1_mlp_simclrhn_probe3,1,90,NaN,chair,boat,270,0090_rot_dnn_270_boat_20_n03344393_11886.png,n03344393_11886.png,0.0,0.5093285,0.9748874,-0.32919985
alexnet_w1_mlp_simclrhn_probe3,1,91,NaN,boat,boat,0,0091_rot_dnn_0_boat_20_n04273569_30203.png,n04273569_30203.png,1.0,4.625494,2.990779,1.1559181
alexnet_w1_mlp_simclrhn_probe3,1,92,NaN,keyboard,keyboard,180,0092_rot_dnn_180_keyboard_20_n03085013_22069.png,n03085013_22069.png,1.0,5.3224344,1.007118,3.0513895
alexnet_w1_mlp_simclrhn_probe3,1,93,NaN,airplane,knife,0,0093_rot_dnn_0_knife_20_n03041632_26314.png,n03041632_26314.png,0.0,1.4435397,3.191217,-1.2357944
alexnet_w1_mlp_simclrhn_probe3,1,94,NaN,oven,bicycle,270,0094_rot_dnn_270_bicycle_20_n03792782_18308.png,n03792782_18308.png,0.0,0.8349027,1.0834525,-0.17575122
alexnet_w1_mlp_simclrhn_probe3,1,95,NaN,airplane,car,180,0095_rot_dnn_180_car_20_n04285008_8396.png,n04285008_8396.png,0.0,3.2423716,3.5075862,-0.1875351
alexnet_w1_mlp_simclrhn_probe3,1,96,NaN,oven,bear,90,0096_rot_dnn_90_bear_20_n02133161_12349.png,n02133161_12349.png,0.0,0.9365588,1.8419147,-0.64018327
alexnet_w1_mlp_simclrhn_probe3,1,97,NaN,bear,bear,270,0097_rot_dnn_270_bear_20_n02132136_18303.png,n02132136_18303.png,1.0,4.3031063,3.7748482,0.3735349
alexnet_w1_mlp_simclrhn_probe3,1,98,NaN,cat,cat,180,0098_rot_dnn_180_cat_20_n02123394_6853.png,n02123394_6853.png,1.0,4.507612,2.4404893,1.4616767
alexnet_w1_mlp_simclrhn_probe3,1,99,NaN,knife,cat,180,0099_rot_dnn_180_cat_20_n02123597_4805.png,n02123597_4805.png,0.0,0.17893146,2.1378255,-1.3851472
alexnet_w1_mlp_simclrhn_probe3,1,100,NaN,clock,car,0,0100_rot_dnn_0_car_20_n03100240_17587.png,n03100240_17587.png,0.0,-0.23465271,1.0455931,-0.9052706
alexnet_w1_mlp_simclrhn_probe3,1,101,NaN,oven,bird,180,0101_rot_dnn_180_bird_20_n01601694_19236.png,n01601694_19236.png,0.0,0.16263616,1.4858596,-0.9356603
alexnet_w1_mlp_simclrhn_probe3,1,102,NaN,cat,cat,0,0102_rot_dnn_0_cat_20_n02123597_2341.png,n02123597_2341.png,1.0,5.3461833,1.6868048,2.5875714
alexnet_w1_mlp_simclrhn_probe3,1,103,NaN,bear,elephant,270,0103_rot_dnn_270_elephant_20_n02504013_7883.png,n02504013_7883.png,0.0,1.3588114,2.283228,-0.6536612
alexnet_w1_mlp_simclrhn_probe3,1,104,NaN,bicycle,chair,270,0104_rot_dnn_270_chair_20_n03376595_14240.png,n03376595_14240.png,0.0,-0.866448,2.5103796,-2.3877776
alexnet_w1_mlp_simclrhn_probe3,1,105,NaN,airplane,airplane,0,0105_rot_dnn_0_airplane_20_n02690373_10188.png,n02690373_10188.png,1.0,5.303786,3.1599002,1.515956
alexnet_w1_mlp_simclrhn_probe3,1,106,NaN,chair,truck,90,0106_rot_dnn_90_truck_20_n03417042_8634.png,n03417042_8634.png,0.0,1.4851512,3.5102625,-1.4319699
alexnet_w1_mlp_simclrhn_probe3,1,107,NaN,knife,knife,90,0107_rot_dnn_90_knife_20_n03041632_32774.png,n03041632_32774.png,1.0,1.0841665,0.8104906,0.1935181
alexnet_w1_mlp_simclrhn_probe3,1,108,NaN,clock,bottle,90,0108_rot_dnn_90_bottle_20_n03983396_4115.png,n03983396_4115.png,0.0,2.0310097,2.3922024,-0.25540182
alexnet_w1_mlp_simclrhn_probe3,1,109,NaN,clock,clock,270,0109_rot_dnn_270_clock_20_n04548280_8552.png,n04548280_8552.png,1.0,3.5500908,2.4060075,0.80898905
alexnet_w1_mlp_simclrhn_probe3,1,110,NaN,car,car,0,0110_rot_dnn_0_car_20_n02814533_6233.png,n02814533_6233.png,1.0,14.633541,4.447721,7.202462
alexnet_w1_mlp_simclrhn_probe3,1,111,NaN,elephant,elephant,0,0111_rot_dnn_0_elephant_20_n02504458_9870.png,n02504458_9870.png,1.0,7.281336,3.2970614,2.8173075
alexnet_w1_mlp_simclrhn_probe3,1,112,NaN,bicycle,bicycle,270,0112_rot_dnn_270_bicycle_20_n02835271_3956.png,n02835271_3956.png,1.0,4.0328503,1.6003902,1.7200091
alexnet_w1_mlp_simclrhn_probe3,1,113,NaN,chair,knife,90,0113_rot_dnn_90_knife_20_n03041632_14817.png,n03041632_14817.png,0.0,0.8753629,2.807016,-1.365885
alexnet_w1_mlp_simclrhn_probe3,1,114,NaN,oven,chair,90,0114_rot_dnn_90_chair_20_n04099969_8642.png,n04099969_8642.png,0.0,0.25094727,2.9580352,-1.9142003
alexnet_w1_mlp_simclrhn_probe3,1,115,NaN,clock,clock,0,0115_rot_dnn_0_clock_20_n02708093_240.png,n02708093_240.png,1.0,3.6996975,2.5593917,0.8063179
alexnet_w1_mlp_simclrhn_probe3,1,116,NaN,bear,bear,180,0116_rot_dnn_180_bear_20_n02133161_3896.png,n02133161_3896.png,1.0,2.6349354,1.712532,0.65223765
alexnet_w1_mlp_simclrhn_probe3,1,117,NaN,bicycle,bottle,270,0117_rot_dnn_270_bottle_20_n04557648_11000.png,n04557648_11000.png,0.0,0.6535922,1.5984879,-0.66814214
alexnet_w1_mlp_simclrhn_probe3,1,118,NaN,clock,keyboard,90,0118_rot_dnn_90_keyboard_20_n03085013_2853.png,n03085013_2853.png,0.0,1.7102146,4.9515624,-2.291979
alexnet_w1_mlp_simclrhn_probe3,1,119,NaN,oven,boat,90,0119_rot_dnn_90_boat_20_n04273569_7097.png,n04273569_7097.png,0.0,-0.39885634,0.9987705,-0.9882715
alexnet_w1_mlp_simclrhn_probe3,1,120,NaN,bicycle,bicycle,270,0120_rot_dnn_270_bicycle_20_n03792782_40932.png,n03792782_40932.png,1.0,3.645587,0.9362166,1.9158142
alexnet_w1_mlp_simclrhn_probe3,1,121,NaN,oven,chair,270,0121_rot_dnn_270_chair_20_n04429376_44914.png,n04429376_44914.png,0.0,4.7284384,4.9597325,-0.16354966
alexnet_w1_mlp_simclrhn_probe3,1,122,NaN,elephant,bear,180,0122_rot_dnn_180_bear_20_n02134418_2122.png,n02134418_2122.png,0.0,0.5705137,1.1622415,-0.4184147
alexnet_w1_mlp_simclrhn_probe3,1,123,NaN,knife,keyboard,90,0123_rot_dnn_90_keyboard_20_n03085013_22704.png,n03085013_22704.png,0.0,1.8355787,2.181446,-0.24456519
alexnet_w1_mlp_simclrhn_probe3,1,124,NaN,truck,truck,0,0124_rot_dnn_0_truck_20_n03417042_6838.png,n03417042_6838.png,1.0,3.379335,2.0438094,0.9443592
alexnet_w1_mlp_simclrhn_probe3,1,125,NaN,elephant,elephant,0,0125_rot_dnn_0_elephant_20_n02504458_3628.png,n02504458_3628.png,1.0,9.654534,3.8129418,4.13063
alexnet_w1_mlp_simclrhn_probe3,1,126,NaN,cat,cat,90,0126_rot_dnn_90_cat_20_n02123597_10141.png,n02123597_10141.png,1.0,3.2983463,1.5909615,1.2073034
alexnet_w1_mlp_simclrhn_probe3,1,127,NaN,bicycle,bicycle,0,0127_rot_dnn_0_bicycle_20_n02835271_6383.png,n02835271_6383.png,1.0,6.240232,0.9919966,3.7110627
alexnet_w1_mlp_simclrhn_probe3,1,128,NaN,oven,car,180,0128_rot_dnn_180_car_20_n04285008_7154.png,n04285008_7154.png,0.0,1.5299597,2.0703928,-0.38214397
alexnet_w1_mlp_simclrhn_probe3,1,129,NaN,airplane,bird,0,0129_rot_dnn_0_bird_20_n02007558_1068.png,n02007558_1068.png,0.0,0.3007801,3.5963001,-2.3302846
alexnet_w1_mlp_simclrhn_probe3,1,130,NaN,bird,cat,90,0130_rot_dnn_90_cat_20_n02125311_1896.png,n02125311_1896.png,0.0,0.23983927,0.39248565,-0.10793729
alexnet_w1_mlp_simclrhn_probe3,1,131,NaN,keyboard,keyboard,0,0131_rot_dnn_0_keyboard_20_n04505470_1903.png,n04505470_1903.png,1.0,16.170729,1.8243606,10.144414
alexnet_w1_mlp_simclrhn_probe3,1,132,NaN,bicycle,bicycle,90,0132_rot_dnn_90_bicycle_20_n03792782_66159.png,n03792782_66159.png,1.0,0.9744502,0.6785166,0.20925662
alexnet_w1_mlp_simclrhn_probe3,1,133,NaN,bear,bear,90,0133_rot_dnn_90_bear_20_n02134418_5219.png,n02134418_5219.png,1.0,5.8954315,3.1863985,1.9155756
alexnet_w1_mlp_simclrhn_probe3,1,134,NaN,chair,car,90,0134_rot_dnn_90_car_20_n02814533_92229.png,n02814533_92229.png,0.0,1.1478189,2.5637734,-1.0012311
alexnet_w1_mlp_simclrhn_probe3,1,135,NaN,cat,dog,90,0135_rot_dnn_90_dog_20_n02090721_1002.png,n02090721_1002.png,0.0,0.2427064,2.5398457,-1.6243229
alexnet_w1_mlp_simclrhn_probe3,1,136,NaN,chair,truck,270,0136_rot_dnn_270_truck_20_n04467665_46263.png,n04467665_46263.png,0.0,-0.05042337,0.95422393,-0.7103929
alexnet_w1_mlp_simclrhn_probe3,1,137,NaN,chair,bottle,180,0137_rot_dnn_180_bottle_20_n03983396_704.png,n03983396_704.png,0.0,1.7642796,1.799047,-0.024584258
alexnet_w1_mlp_simclrhn_probe3,1,138,NaN,oven,truck,180,0138_rot_dnn_180_truck_20_n03796401_4149.png,n03796401_4149.png,0.0,0.38329336,2.429083,-1.4465919
alexnet_w1_mlp_simclrhn_probe3,1,139,NaN,bird,bird,0,0139_rot_dnn_0_bird_20_n02006656_2030.png,n02006656_2030.png,1.0,6.139539,0.6363334,3.8913538
alexnet_w1_mlp_simclrhn_probe3,1,140,NaN,cat,cat,90,0140_rot_dnn_90_cat_20_n02123394_234.png,n02123394_234.png,1.0,2.763135,0.86902946,1.3393348
alexnet_w1_mlp_simclrhn_probe3,1,141,NaN,oven,chair,90,0141_rot_dnn_90_chair_20_n04429376_19916.png,n04429376_19916.png,0.0,2.1447577,7.989897,-4.1331377
alexnet_w1_mlp_simclrhn_probe3,1,142,NaN,bottle,truck,270,0142_rot_dnn_270_truck_20_n04467665_14024.png,n04467665_14024.png,0.0,1.4119527,3.6723557,-1.5983462
alexnet_w1_mlp_simclrhn_probe3,1,143,NaN,keyboard,chair,90,0143_rot_dnn_90_chair_20_n04429376_14729.png,n04429376_14729.png,0.0,0.41738313,9.725486,-6.5818224
alexnet_w1_mlp_simclrhn_probe3,1,144,NaN,clock,car,270,0144_rot_dnn_270_car_20_n02814533_82321.png,n02814533_82321.png,0.0,0.7897897,1.3200058,-0.3749194
alexnet_w1_mlp_simclrhn_probe3,1,145,NaN,clock,clock,180,0145_rot_dnn_180_clock_20_n04548280_3701.png,n04548280_3701.png,1.0,1.0146817,0.42221805,0.41893503
alexnet_w1_mlp_simclrhn_probe3,1,146,NaN,cat,boat,270,0146_rot_dnn_270_boat_20_n02951358_11442.png,n02951358_11442.png,0.0,-1.2680631,0.30226064,-1.1103866
alexnet_w1_mlp_simclrhn_probe3,1,147,NaN,bear,bear,90,0147_rot_dnn_90_bear_20_n02132136_17349.png,n02132136_17349.png,1.0,4.89408,2.4005651,1.7631814
alexnet_w1_mlp_simclrhn_probe3,1,148,NaN,oven,airplane,90,0148_rot_dnn_90_airplane_20_n02690373_4982.png,n02690373_4982.png,0.0,0.037743635,3.2001204,-2.236138
alexnet_w1_mlp_simclrhn_probe3,1,149,NaN,boat,airplane,0,0149_rot_dnn_0_airplane_20_n02690373_2232.png,n02690373_2232.png,0.0,0.9214731,2.1424139,-0.86333555
alexnet_w1_mlp_simclrhn_probe3,1,150,NaN,cat,cat,180,0150_rot_dnn_180_cat_20_n02123045_909.png,n02123045_909.png,1.0,1.404623,0.07035312,0.9434713
alexnet_w1_mlp_simclrhn_probe3,1,151,NaN,keyboard,clock,180,0151_rot_dnn_180_clock_20_n04548280_1190.png,n04548280_1190.png,0.0,3.579942,5.399194,-1.2864053
alexnet_w1_mlp_simclrhn_probe3,1,152,NaN,oven,oven,90,0152_rot_dnn_90_oven_20_n04111531_1855.png,n04111531_1855.png,1.0,3.582315,0.8875698,1.9054725
alexnet_w1_mlp_simclrhn_probe3,1,153,NaN,chair,boat,270,0153_rot_dnn_270_boat_20_n03662601_21408.png,n03662601_21408.png,0.0,0.7407161,2.9160013,-1.538159
alexnet_w1_mlp_simclrhn_probe3,1,154,NaN,bottle,dog,90,0154_rot_dnn_90_dog_20_n02088364_15877.png,n02088364_15877.png,0.0,0.060630504,0.41080162,-0.24760838
alexnet_w1_mlp_simclrhn_probe3,1,155,NaN,airplane,knife,90,0155_rot_dnn_90_knife_20_n03041632_15250.png,n03041632_15250.png,0.0,0.77880836,1.2092638,-0.30437797
alexnet_w1_mlp_simclrhn_probe3,1,156,NaN,oven,oven,0,0156_rot_dnn_0_oven_20_n04111531_17006.png,n04111531_17006.png,1.0,4.208748,2.2289834,1.3999048
alexnet_w1_mlp_simclrhn_probe3,1,157,NaN,clock,clock,90,0157_rot_dnn_90_clock_20_n04548280_11763.png,n04548280_11763.png,1.0,2.9453552,0.88539326,1.456613
alexnet_w1_mlp_simclrhn_probe3,1,158,NaN,bird,bird,270,0158_rot_dnn_270_bird_20_n02028035_8327.png,n02028035_8327.png,1.0,1.2846569,0.8696976,0.29342055
alexnet_w1_mlp_simclrhn_probe3,1,159,NaN,bicycle,car,90,0159_rot_dnn_90_car_20_n04285008_5641.png,n04285008_5641.png,0.0,0.21260722,1.0050185,-0.56031936
alexnet_w1_mlp_simclrhn_probe3,1,160,NaN,clock,oven,90,0160_rot_dnn_90_oven_20_n04111531_10727.png,n04111531_10727.png,0.0,0.93429416,2.9318702,-1.4124995
alexnet_w1_mlp_simclrhn_probe3,1,161,NaN,bear,elephant,270,0161_rot_dnn_270_elephant_20_n02504458_1971.png,n02504458_1971.png,0.0,1.2159346,1.933376,-0.50730765
alexnet_w1_mlp_simclrhn_probe3,1,162,NaN,bottle,bottle,180,0162_rot_dnn_180_bottle_20_n04560804_15941.png,n04560804_15941.png,1.0,4.1732917,0.72748923,2.4365504
alexnet_w1_mlp_simclrhn_probe3,1,163,NaN,elephant,elephant,0,0163_rot_dnn_0_elephant_20_n02504458_151.png,n02504458_151.png,1.0,18.90361,9.449808,6.684848
alexnet_w1_mlp_simclrhn_probe3,1,164,NaN,bear,bear,180,0164_rot_dnn_180_bear_20_n02133161_15427.png,n02133161_15427.png,1.0,3.577642,2.0494506,1.0805944
alexnet_w1_mlp_simclrhn_probe3,1,165,NaN,elephant,bear,180,0165_rot_dnn_180_bear_20_n02134084_20605.png,n02134084_20605.png,0.0,1.426055,3.0511954,-1.1491479
alexnet_w1_mlp_simclrhn_probe3,1,166,NaN,cat,bottle,90,0166_rot_dnn_90_bottle_20_n04560804_2693.png,n04560804_2693.png,0.0,0.43137628,0.8968363,-0.32912993
alexnet_w1_mlp_simclrhn_probe3,1,167,NaN,clock,airplane,270,0167_rot_dnn_270_airplane_20_n02690373_8214.png,n02690373_8214.png,0.0,-1.4904059,2.1915386,-2.6035278
alexnet_w1_mlp_simclrhn_probe3,1,168,NaN,boat,boat,0,0168_rot_dnn_0_boat_20_n02951358_14966.png,n02951358_14966.png,1.0,3.6032352,2.0887198,1.0709242
alexnet_w1_mlp_simclrhn_probe3,1,169,NaN,bird,knife,90,0169_rot_dnn_90_knife_20_n03041632_14801.png,n03041632_14801.png,0.0,0.2663964,0.36717337,-0.07126008
alexnet_w1_mlp_simclrhn_probe3,1,170,NaN,knife,dog,90,0170_rot_dnn_90_dog_20_n02110063_8776.png,n02110063_8776.png,0.0,0.60683906,0.6828143,-0.05372261
alexnet_w1_mlp_simclrhn_probe3,1,171,NaN,bicycle,dog,180,0171_rot_dnn_180_dog_20_n02100236_7671.png,n02100236_7671.png,0.0,-0.32768378,1.8360026,-1.5299573
alexnet_w1_mlp_simclrhn_probe3,1,172,NaN,oven,oven,0,0172_rot_dnn_0_oven_20_n04111531_21248.png,n04111531_21248.png,1.0,2.9382513,0.6668854,1.6060983
alexnet_w1_mlp_simclrhn_probe3,1,173,NaN,oven,knife,270,0173_rot_dnn_270_knife_20_n03041632_17100.png,n03041632_17100.png,0.0,0.46819153,3.184336,-1.9206041
alexnet_w1_mlp_simclrhn_probe3,1,174,NaN,oven,knife,0,0174_rot_dnn_0_knife_20_n03041632_3781.png,n03041632_3781.png,0.0,1.1646217,3.0637922,-1.3429164
alexnet_w1_mlp_simclrhn_probe3,1,175,NaN,chair,oven,270,0175_rot_dnn_270_oven_20_n04111531_46651.png,n04111531_46651.png,0.0,1.766037,4.4362574,-1.888131
alexnet_w1_mlp_simclrhn_probe3,1,176,NaN,clock,clock,0,0176_rot_dnn_0_clock_20_n04548280_8303.png,n04548280_8303.png,1.0,0.9959424,0.87180233,0.0877803
alexnet_w1_mlp_simclrhn_probe3,1,177,NaN,airplane,airplane,0,0177_rot_dnn_0_airplane_20_n02690373_2070.png,n02690373_2070.png,1.0,7.869385,1.1423796,4.756711
alexnet_w1_mlp_simclrhn_probe3,1,178,NaN,airplane,car,180,0178_rot_dnn_180_car_20_n03100240_574.png,n03100240_574.png,0.0,1.8757988,2.8695903,-0.7027167
alexnet_w1_mlp_simclrhn_probe3,1,179,NaN,bear,dog,90,0179_rot_dnn_90_dog_20_n02095570_11263.png,n02095570_11263.png,0.0,0.05887327,1.2018447,-0.80820286
alexnet_w1_mlp_simclrhn_probe3,1,180,NaN,chair,bottle,180,0180_rot_dnn_180_bottle_20_n03983396_9667.png,n03983396_9667.png,0.0,1.4544476,1.5629214,-0.07670254
alexnet_w1_mlp_simclrhn_probe3,1,181,NaN,clock,clock,0,0181_rot_dnn_0_clock_20_n02708093_3535.png,n02708093_3535.png,1.0,11.672351,9.756498,1.3547124
alexnet_w1_mlp_simclrhn_probe3,1,182,NaN,bird,bird,180,0182_rot_dnn_180_bird_20_n01531178_17239.png,n01531178_17239.png,1.0,1.6895695,0.14685272,1.0908655
alexnet_w1_mlp_simclrhn_probe3,1,183,NaN,elephant,elephant,180,0183_rot_dnn_180_elephant_20_n02504458_2272.png,n02504458_2272.png,1.0,3.8437657,1.0265352,1.992083
alexnet_w1_mlp_simclrhn_probe3,1,184,NaN,knife,knife,90,0184_rot_dnn_90_knife_20_n03041632_50648.png,n03041632_50648.png,1.0,2.815176,0.82781804,1.4052743
alexnet_w1_mlp_simclrhn_probe3,1,185,NaN,knife,knife,0,0185_rot_dnn_0_knife_20_n03041632_33225.png,n03041632_33225.png,1.0,1.5272629,0.47629392,0.7431473
alexnet_w1_mlp_simclrhn_probe3,1,186,NaN,airplane,airplane,0,0186_rot_dnn_0_airplane_20_n02690373_736.png,n02690373_736.png,1.0,10.659591,4.9251747,4.0548444
alexnet_w1_mlp_simclrhn_probe3,1,187,NaN,bottle,knife,270,0187_rot_dnn_270_knife_20_n03041632_2546.png,n03041632_2546.png,0.0,0.7953254,1.5493315,-0.5331629
alexnet_w1_mlp_simclrhn_probe3,1,188,NaN,boat,boat,180,0188_rot_dnn_180_boat_20_n04273569_13053.png,n04273569_13053.png,1.0,5.660558,3.0317583,1.8588423
alexnet_w1_mlp_simclrhn_probe3,1,189,NaN,airplane,airplane,180,0189_rot_dnn_180_airplane_20_n02690373_3588.png,n02690373_3588.png,1.0,2.2921004,1.4984376,0.5612044
alexnet_w1_mlp_simclrhn_probe3,1,190,NaN,cat,keyboard,0,0190_rot_dnn_0_keyboard_20_n03085013_21004.png,n03085013_21004.png,0.0,-0.0033766031,3.5920506,-2.5423508
alexnet_w1_mlp_simclrhn_probe3,1,191,NaN,boat,boat,180,0191_rot_dnn_180_boat_20_n03662601_16627.png,n03662601_16627.png,1.0,1.2270652,1.1902702,0.026018009
alexnet_w1_mlp_simclrhn_probe3,1,192,NaN,bird,bird,180,0192_rot_dnn_180_bird_20_n02017213_6478.png,n02017213_6478.png,1.0,2.4722226,1.4487498,0.7237046
alexnet_w1_mlp_simclrhn_probe3,1,193,NaN,bear,bear,90,0193_rot_dnn_90_bear_20_n02134418_998.png,n02134418_998.png,1.0,2.8245072,1.0386391,1.2627995
alexnet_w1_mlp_simclrhn_probe3,1,194,NaN,bicycle,truck,90,0194_rot_dnn_90_truck_20_n04467665_71055.png,n04467665_71055.png,0.0,0.40662855,2.8509102,-1.7283682
alexnet_w1_mlp_simclrhn_probe3,1,195,NaN,knife,car,90,0195_rot_dnn_90_car_20_n02814533_23979.png,n02814533_23979.png,0.0,0.050097574,1.5018718,-1.0265595
alexnet_w1_mlp_simclrhn_probe3,1,196,NaN,bear,elephant,180,0196_rot_dnn_180_elephant_20_n02504458_6805.png,n02504458_6805.png,0.0,1.6423422,2.0183477,-0.26587605
alexnet_w1_mlp_simclrhn_probe3,1,197,NaN,clock,clock,90,0197_rot_dnn_90_clock_20_n04548280_4841.png,n04548280_4841.png,1.0,2.306125,1.2242919,0.7649715
alexnet_w1_mlp_simclrhn_probe3,1,198,NaN,chair,boat,90,0198_rot_dnn_90_boat_20_n03662601_6832.png,n03662601_6832.png,0.0,-0.09628177,1.6887643,-1.2622182
alexnet_w1_mlp_simclrhn_probe3,1,199,NaN,oven,oven,270,0199_rot_dnn_270_oven_20_n04111531_766.png,n04111531_766.png,1.0,4.9675503,1.0877349,2.7434437
alexnet_w1_mlp_simclrhn_probe3,1,200,NaN,bird,clock,0,0200_rot_dnn_0_clock_20_n04548280_1305.png,n04548280_1305.png,0.0,-0.3775247,0.38824275,-0.54147935
alexnet_w1_mlp_simclrhn_probe3,1,201,NaN,bicycle,bicycle,0,0201_rot_dnn_0_bicycle_20_n03792782_19083.png,n03792782_19083.png,1.0,6.970557,2.69141,3.025814
alexnet_w1_mlp_simclrhn_probe3,1,202,NaN,oven,bird,90,0202_rot_dnn_90_bird_20_n01860187_20081.png,n01860187_20081.png,0.0,0.019452935,0.9194729,-0.63641024
alexnet_w1_mlp_simclrhn_probe3,1,203,NaN,oven,oven,0,0203_rot_dnn_0_oven_20_n04111531_4817.png,n04111531_4817.png,1.0,1.5415932,1.4339354,0.076125555
alexnet_w1_mlp_simclrhn_probe3,1,204,NaN,car,car,180,0204_rot_dnn_180_car_20_n02814533_33360.png,n02814533_33360.png,1.0,2.2004101,0.94138336,0.89026636
alexnet_w1_mlp_simclrhn_probe3,1,205,NaN,clock,clock,270,0205_rot_dnn_270_clock_20_n04548280_4035.png,n04548280_4035.png,1.0,3.3092601,2.796833,0.3623407
alexnet_w1_mlp_simclrhn_probe3,1,206,NaN,keyboard,keyboard,270,0206_rot_dnn_270_keyboard_20_n03085013_7879.png,n03085013_7879.png,1.0,2.4962502,1.8511606,0.45614716
alexnet_w1_mlp_simclrhn_probe3,1,207,NaN,airplane,airplane,0,0207_rot_dnn_0_airplane_20_n02690373_2598.png,n02690373_2598.png,1.0,8.596331,3.6637833,3.4878378
alexnet_w1_mlp_simclrhn_probe3,1,208,NaN,cat,cat,180,0208_rot_dnn_180_cat_20_n02123045_436.png,n02123045_436.png,1.0,4.3286242,1.6565688,1.8894286
alexnet_w1_mlp_simclrhn_probe3,1,209,NaN,chair,airplane,270,0209_rot_dnn_270_airplane_20_n02690373_813.png,n02690373_813.png,0.0,-0.6759204,0.90806794,-1.120049
alexnet_w1_mlp_simclrhn_probe3,1,210,NaN,cat,cat,0,0210_rot_dnn_0_cat_20_n02123159_1008.png,n02123159_1008.png,1.0,18.932226,0.24337643,13.2150135
alexnet_w1_mlp_simclrhn_probe3,1,211,NaN,bottle,bottle,90,0211_rot_dnn_90_bottle_20_n03983396_5452.png,n03983396_5452.png,1.0,2.0910149,1.4015175,0.48754826
alexnet_w1_mlp_simclrhn_probe3,1,212,NaN,knife,dog,90,0212_rot_dnn_90_dog_20_n02090379_13010.png,n02090379_13010.png,0.0,0.9288536,1.8032392,-0.61828405
alexnet_w1_mlp_simclrhn_probe3,1,213,NaN,airplane,chair,180,0213_rot_dnn_180_chair_20_n04099969_4162.png,n04099969_4162.png,0.0,0.7058438,1.9164944,-0.85605925
alexnet_w1_mlp_simclrhn_probe3,1,214,NaN,oven,keyboard,270,0214_rot_dnn_270_keyboard_20_n04505470_206.png,n04505470_206.png,0.0,0.95386714,2.714127,-1.2446917
alexnet_w1_mlp_simclrhn_probe3,1,215,NaN,oven,cat,0,0215_rot_dnn_0_cat_20_n02123045_5290.png,n02123045_5290.png,0.0,1.7963728,2.4352841,-0.45177856
alexnet_w1_mlp_simclrhn_probe3,1,216,NaN,keyboard,bird,180,0216_rot_dnn_180_bird_20_n01843383_6001.png,n01843383_6001.png,0.0,-0.48257384,0.94374156,-1.0085573
alexnet_w1_mlp_simclrhn_probe3,1,217,NaN,knife,knife,0,0217_rot_dnn_0_knife_20_n03041632_24376.png,n03041632_24376.png,1.0,2.0455945,1.781429,0.18679315
alexnet_w1_mlp_simclrhn_probe3,1,218,NaN,bicycle,bicycle,90,0218_rot_dnn_90_bicycle_20_n02835271_2915.png,n02835271_2915.png,1.0,2.5221994,0.5746216,1.3771454
alexnet_w1_mlp_simclrhn_probe3,1,219,NaN,bicycle,bicycle,0,0219_rot_dnn_0_bicycle_20_n03792782_5517.png,n03792782_5517.png,1.0,13.45442,4.897019,6.050997
alexnet_w1_mlp_simclrhn_probe3,1,220,NaN,bicycle,bicycle,90,0220_rot_dnn_90_bicycle_20_n02835271_7053.png,n02835271_7053.png,1.0,3.190927,0.59009844,1.8390636
alexnet_w1_mlp_simclrhn_probe3,1,221,NaN,clock,clock,180,0221_rot_dnn_180_clock_20_n04548280_7115.png,n04548280_7115.png,1.0,2.1590855,1.2612569,0.6348607
alexnet_w1_mlp_simclrhn_probe3,1,222,NaN,bicycle,boat,270,0222_rot_dnn_270_boat_20_n04273569_29866.png,n04273569_29866.png,0.0,-0.989849,0.64552796,-1.1563861
alexnet_w1_mlp_simclrhn_probe3,1,223,NaN,bicycle,clock,90,0223_rot_dnn_90_clock_20_n02708093_3623.png,n02708093_3623.png,0.0,3.378245,4.417311,-0.73473066
alexnet_w1_mlp_simclrhn_probe3,1,224,NaN,cat,bear,180,0224_rot_dnn_180_bear_20_n02132136_7468.png,n02132136_7468.png,0.0,2.3941302,2.553918,-0.11298694
alexnet_w1_mlp_simclrhn_probe3,1,225,NaN,cat,cat,0,0225_rot_dnn_0_cat_20_n02123159_2137.png,n02123159_2137.png,1.0,4.305448,1.0444086,2.3059032
alexnet_w1_mlp_simclrhn_probe3,1,226,NaN,bottle,bottle,90,0226_rot_dnn_90_bottle_20_n03937543_5257.png,n03937543_5257.png,1.0,1.5629694,1.3409168,0.15701497
alexnet_w1_mlp_simclrhn_probe3,1,227,NaN,cat,cat,0,0227_rot_dnn_0_cat_20_n02123394_937.png,n02123394_937.png,1.0,2.437641,1.3665617,0.75736743
alexnet_w1_mlp_simclrhn_probe3,1,228,NaN,boat,boat,0,0228_rot_dnn_0_boat_20_n03662601_11764.png,n03662601_11764.png,1.0,5.210761,1.6638708,2.5080302
alexnet_w1_mlp_simclrhn_probe3,1,229,NaN,bear,bear,0,0229_rot_dnn_0_bear_20_n02132136_10412.png,n02132136_10412.png,1.0,5.0174065,2.2132883,1.982811
alexnet_w1_mlp_simclrhn_probe3,1,230,NaN,oven,clock,270,0230_rot_dnn_270_clock_20_n03196217_3600.png,n03196217_3600.png,0.0,1.9087187,3.277259,-0.96770424
alexnet_w1_mlp_simclrhn_probe3,1,231,NaN,oven,dog,270,0231_rot_dnn_270_dog_20_n02102177_255.png,n02102177_255.png,0.0,0.5939553,2.4106567,-1.2846019
alexnet_w1_mlp_simclrhn_probe3,1,232,NaN,bird,bird,270,0232_rot_dnn_270_bird_20_n01614925_1860.png,n01614925_1860.png,1.0,3.4411337,2.1239529,0.93138754
alexnet_w1_mlp_simclrhn_probe3,1,233,NaN,knife,airplane,180,0233_rot_dnn_180_airplane_20_n02690373_1021.png,n02690373_1021.png,0.0,0.7150448,0.76347405,-0.034244653
alexnet_w1_mlp_simclrhn_probe3,1,234,NaN,chair,chair,180,0234_rot_dnn_180_chair_20_n03376595_9079.png,n03376595_9079.png,1.0,2.9365892,2.9169393,0.013894636
alexnet_w1_mlp_simclrhn_probe3,1,235,NaN,chair,chair,90,0235_rot_dnn_90_chair_20_n02791124_5199.png,n02791124_5199.png,1.0,2.9360929,2.2031953,0.5182368
alexnet_w1_mlp_simclrhn_probe3,1,236,NaN,bottle,keyboard,90,0236_rot_dnn_90_keyboard_20_n03085013_24294.png,n03085013_24294.png,0.0,0.9988068,2.3326392,-0.943162
alexnet_w1_mlp_simclrhn_probe3,1,237,NaN,cat,cat,0,0237_rot_dnn_0_cat_20_n02123597_13286.png,n02123597_13286.png,1.0,3.015043,1.350112,1.1772841
alexnet_w1_mlp_simclrhn_probe3,1,238,NaN,bird,bird,180,0238_rot_dnn_180_bird_20_n01560419_17392.png,n01560419_17392.png,1.0,4.0355153,0.45615077,2.530993
alexnet_w1_mlp_simclrhn_probe3,1,239,NaN,elephant,oven,270,0239_rot_dnn_270_oven_20_n04111531_6934.png,n04111531_6934.png,0.0,1.9738277,3.193261,-0.8622695
alexnet_w1_mlp_simclrhn_probe3,1,240,NaN,clock,clock,90,0240_rot_dnn_90_clock_20_n03196217_6707.png,n03196217_6707.png,1.0,3.0512908,2.2064095,0.5974213
alexnet_w1_mlp_simclrhn_probe3,1,241,NaN,knife,knife,180,0241_rot_dnn_180_knife_20_n03041632_15174.png,n03041632_15174.png,1.0,1.2317873,0.50016147,0.5173376
alexnet_w1_mlp_simclrhn_probe3,1,242,NaN,oven,oven,180,0242_rot_dnn_180_oven_20_n04111531_13644.png,n04111531_13644.png,1.0,4.0937557,0.5733297,2.4893172
alexnet_w1_mlp_simclrhn_probe3,1,243,NaN,elephant,elephant,0,0243_rot_dnn_0_elephant_20_n02504458_3458.png,n02504458_3458.png,1.0,18.505898,6.79703,8.27942
alexnet_w1_mlp_simclrhn_probe3,1,244,NaN,clock,clock,90,0244_rot_dnn_90_clock_20_n04548280_18914.png,n04548280_18914.png,1.0,4.473703,0.24883658,2.9874318
alexnet_w1_mlp_simclrhn_probe3,1,245,NaN,bicycle,dog,180,0245_rot_dnn_180_dog_20_n02107908_2754.png,n02107908_2754.png,0.0,1.5187403,1.8001306,-0.198973
alexnet_w1_mlp_simclrhn_probe3,1,246,NaN,airplane,airplane,0,0246_rot_dnn_0_airplane_20_n02690373_1306.png,n02690373_1306.png,1.0,7.6849174,2.9970405,3.3148293
alexnet_w1_mlp_simclrhn_probe3,1,247,NaN,chair,chair,90,0247_rot_dnn_90_chair_20_n03376595_10266.png,n03376595_10266.png,1.0,3.3755503,2.988652,0.2735784
alexnet_w1_mlp_simclrhn_probe3,1,248,NaN,keyboard,keyboard,270,0248_rot_dnn_270_keyboard_20_n04505470_1416.png,n04505470_1416.png,1.0,3.3423274,2.0236714,0.93243057
alexnet_w1_mlp_simclrhn_probe3,1,249,NaN,clock,clock,180,0249_rot_dnn_180_clock_20_n04548280_4686.png,n04548280_4686.png,1.0,9.19155,1.1567054,5.6814938
alexnet_w1_mlp_simclrhn_probe3,1,250,NaN,oven,truck,270,0250_rot_dnn_270_truck_20_n04467665_69882.png,n04467665_69882.png,0.0,0.74395406,3.5303135,-1.9702536
alexnet_w1_mlp_simclrhn_probe3,1,251,NaN,knife,bottle,270,0251_rot_dnn_270_bottle_20_n04591713_2123.png,n04591713_2123.png,0.0,-0.7064427,5.120885,-4.120543
alexnet_w1_mlp_simclrhn_probe3,1,252,NaN,oven,oven,90,0252_rot_dnn_90_oven_20_n04111531_6933.png,n04111531_6933.png,1.0,2.2427084,0.48261788,1.244572
alexnet_w1_mlp_simclrhn_probe3,1,253,NaN,knife,car,270,0253_rot_dnn_270_car_20_n03100240_8898.png,n03100240_8898.png,0.0,-1.0747777,0.64426655,-1.2155478
alexnet_w1_mlp_simclrhn_probe3,1,254,NaN,cat,elephant,180,0254_rot_dnn_180_elephant_20_n02504458_5277.png,n02504458_5277.png,0.0,1.156375,3.8971279,-1.9380049
alexnet_w1_mlp_simclrhn_probe3,1,255,NaN,oven,truck,270,0255_rot_dnn_270_truck_20_n03417042_9967.png,n03417042_9967.png,0.0,2.479637,4.91156,-1.7196294
alexnet_w1_mlp_simclrhn_probe3,1,256,NaN,bear,bear,0,0256_rot_dnn_0_bear_20_n02134418_1017.png,n02134418_1017.png,1.0,4.334115,1.4860566,2.0138814
alexnet_w1_mlp_simclrhn_probe3,1,257,NaN,bottle,airplane,90,0257_rot_dnn_90_airplane_20_n02690373_1909.png,n02690373_1909.png,0.0,0.11667374,2.0840123,-1.3911184
alexnet_w1_mlp_simclrhn_probe3,1,258,NaN,airplane,airplane,0,0258_rot_dnn_0_airplane_20_n02690373_6753.png,n02690373_6753.png,1.0,6.5063353,1.9953562,3.189744
alexnet_w1_mlp_simclrhn_probe3,1,259,NaN,airplane,airplane,0,0259_rot_dnn_0_airplane_20_n02690373_1972.png,n02690373_1972.png,1.0,3.7260058,3.3928304,0.2355906
alexnet_w1_mlp_simclrhn_probe3,1,260,NaN,oven,oven,90,0260_rot_dnn_90_oven_20_n04111531_9915.png,n04111531_9915.png,1.0,3.0820618,1.8580717,0.8654917
alexnet_w1_mlp_simclrhn_probe3,1,261,NaN,elephant,elephant,270,0261_rot_dnn_270_elephant_20_n02504458_485.png,n02504458_485.png,1.0,3.044741,2.235098,0.5725041
alexnet_w1_mlp_simclrhn_probe3,1,262,NaN,cat,elephant,180,0262_rot_dnn_180_elephant_20_n02504013_2431.png,n02504013_2431.png,0.0,2.403836,2.8617105,-0.3237662
alexnet_w1_mlp_simclrhn_probe3,1,263,NaN,bicycle,clock,180,0263_rot_dnn_180_clock_20_n02708093_1038.png,n02708093_1038.png,0.0,1.8434492,4.648433,-1.9834234
alexnet_w1_mlp_simclrhn_probe3,1,264,NaN,cat,cat,270,0264_rot_dnn_270_cat_20_n02123597_5927.png,n02123597_5927.png,1.0,2.857639,2.0162196,0.5949734
alexnet_w1_mlp_simclrhn_probe3,1,265,NaN,bicycle,bicycle,90,0265_rot_dnn_90_bicycle_20_n03792782_3202.png,n03792782_3202.png,1.0,1.8666,0.677365,0.84091616
alexnet_w1_mlp_simclrhn_probe3,1,266,NaN,chair,car,270,0266_rot_dnn_270_car_20_n02814533_45480.png,n02814533_45480.png,0.0,0.3137918,2.9233837,-1.8452603
alexnet_w1_mlp_simclrhn_probe3,1,267,NaN,clock,truck,90,0267_rot_dnn_90_truck_20_n03796401_4571.png,n03796401_4571.png,0.0,0.77239627,2.6675131,-1.34005
alexnet_w1_mlp_simclrhn_probe3,1,268,NaN,bicycle,oven,90,0268_rot_dnn_90_oven_20_n04111531_21011.png,n04111531_21011.png,0.0,0.36965775,1.81445,-1.0216224
alexnet_w1_mlp_simclrhn_probe3,1,269,NaN,airplane,airplane,0,0269_rot_dnn_0_airplane_20_n02690373_4310.png,n02690373_4310.png,1.0,8.021069,2.0910153,4.193181
alexnet_w1_mlp_simclrhn_probe3,1,270,NaN,chair,oven,0,0270_rot_dnn_0_oven_20_n04111531_7134.png,n04111531_7134.png,0.0,2.870427,3.4070063,-0.3794189
alexnet_w1_mlp_simclrhn_probe3,1,271,NaN,cat,dog,270,0271_rot_dnn_270_dog_20_n02105251_1092.png,n02105251_1092.png,0.0,2.1765401,3.2010305,-0.72442406
alexnet_w1_mlp_simclrhn_probe3,1,272,NaN,knife,knife,180,0272_rot_dnn_180_knife_20_n03041632_34505.png,n03041632_34505.png,1.0,1.51738,0.53680354,0.69337225
alexnet_w1_mlp_simclrhn_probe3,1,273,NaN,keyboard,keyboard,90,0273_rot_dnn_90_keyboard_20_n04505470_4520.png,n04505470_4520.png,1.0,2.721666,0.91714865,1.2759866
alexnet_w1_mlp_simclrhn_probe3,1,274,NaN,oven,boat,180,0274_rot_dnn_180_boat_20_n03344393_1519.png,n03344393_1519.png,0.0,0.8386504,2.5227118,-1.1908112
alexnet_w1_mlp_simclrhn_probe3,1,275,NaN,chair,chair,270,0275_rot_dnn_270_chair_20_n03376595_9535.png,n03376595_9535.png,1.0,2.0244231,1.7086844,0.22326097
alexnet_w1_mlp_simclrhn_probe3,1,276,NaN,cat,cat,270,0276_rot_dnn_270_cat_20_n02125311_1326.png,n02125311_1326.png,1.0,1.4799623,1.4446824,0.02494672
alexnet_w1_mlp_simclrhn_probe3,1,277,NaN,cat,cat,90,0277_rot_dnn_90_cat_20_n02123394_2948.png,n02123394_2948.png,1.0,1.7178115,0.7197857,0.7057108
alexnet_w1_mlp_simclrhn_probe3,1,278,NaN,oven,oven,270,0278_rot_dnn_270_oven_20_n04111531_5429.png,n04111531_5429.png,1.0,3.533162,3.0788615,0.32123908
alexnet_w1_mlp_simclrhn_probe3,1,279,NaN,boat,elephant,0,0279_rot_dnn_0_elephant_20_n02504013_6645.png,n02504013_6645.png,0.0,2.597056,3.338316,-0.52415
alexnet_w1_mlp_simclrhn_probe3,1,280,NaN,oven,keyboard,90,0280_rot_dnn_90_keyboard_20_n04505470_4159.png,n04505470_4159.png,0.0,0.031521052,4.0871944,-2.8677943
alexnet_w1_mlp_simclrhn_probe3,1,281,NaN,bottle,bottle,90,0281_rot_dnn_90_bottle_20_n02823428_6252.png,n02823428_6252.png,1.0,1.9079396,1.6569402,0.17748334
alexnet_w1_mlp_simclrhn_probe3,1,282,NaN,airplane,airplane,180,0282_rot_dnn_180_airplane_20_n02690373_15097.png,n02690373_15097.png,1.0,4.067484,2.6575851,0.996949
alexnet_w1_mlp_simclrhn_probe3,1,283,NaN,oven,cat,0,0283_rot_dnn_0_cat_20_n02123159_3420.png,n02123159_3420.png,0.0,0.062423926,3.378145,-2.344569
alexnet_w1_mlp_simclrhn_probe3,1,284,NaN,bicycle,cat,0,0284_rot_dnn_0_cat_20_n02124075_7835.png,n02124075_7835.png,0.0,0.09564725,1.196919,-0.77871674
alexnet_w1_mlp_simclrhn_probe3,1,285,NaN,cat,cat,90,0285_rot_dnn_90_cat_20_n02123045_6696.png,n02123045_6696.png,1.0,2.1589637,1.1344644,0.72443044
alexnet_w1_mlp_simclrhn_probe3,1,286,NaN,bicycle,boat,180,0286_rot_dnn_180_boat_20_n02951358_34766.png,n02951358_34766.png,0.0,1.3990399,3.8066187,-1.7024155
alexnet_w1_mlp_simclrhn_probe3,1,287,NaN,oven,bird,0,0287_rot_dnn_0_bird_20_n01855672_8191.png,n01855672_8191.png,0.0,0.31183967,2.0567625,-1.2338468
alexnet_w1_mlp_simclrhn_probe3,1,288,NaN,airplane,truck,180,0288_rot_dnn_180_truck_20_n03796401_1150.png,n03796401_1150.png,0.0,2.229866,2.986763,-0.535207
alexnet_w1_mlp_simclrhn_probe3,1,289,NaN,bicycle,bicycle,270,0289_rot_dnn_270_bicycle_20_n03792782_9782.png,n03792782_9782.png,1.0,1.2816037,1.2701744,0.008081743
alexnet_w1_mlp_simclrhn_probe3,1,290,NaN,bottle,boat,270,0290_rot_dnn_270_boat_20_n03662601_12969.png,n03662601_12969.png,0.0,-0.8613688,1.2176102,-1.4700602
alexnet_w1_mlp_simclrhn_probe3,1,291,NaN,oven,bottle,180,0291_rot_dnn_180_bottle_20_n02823428_4530.png,n02823428_4530.png,0.0,1.1863497,2.470033,-0.9077011
alexnet_w1_mlp_simclrhn_probe3,1,292,NaN,chair,chair,0,0292_rot_dnn_0_chair_20_n02791124_2898.png,n02791124_2898.png,1.0,3.3215122,2.4497275,0.6164449
alexnet_w1_mlp_simclrhn_probe3,1,293,NaN,cat,cat,270,0293_rot_dnn_270_cat_20_n02123394_686.png,n02123394_686.png,1.0,2.1618693,0.9760602,0.8384937
alexnet_w1_mlp_simclrhn_probe3,1,294,NaN,cat,dog,180,0294_rot_dnn_180_dog_20_n02100735_4364.png,n02100735_4364.png,0.0,0.44810122,0.99308056,-0.3853586
alexnet_w1_mlp_simclrhn_probe3,1,295,NaN,elephant,dog,0,0295_rot_dnn_0_dog_20_n02102177_7968.png,n02102177_7968.png,0.0,2.1348944,3.3043928,-0.82696027
alexnet_w1_mlp_simclrhn_probe3,1,296,NaN,keyboard,knife,270,0296_rot_dnn_270_knife_20_n03041632_15099.png,n03041632_15099.png,0.0,0.46856916,1.4571797,-0.6990532
alexnet_w1_mlp_simclrhn_probe3,1,297,NaN,oven,oven,180,0297_rot_dnn_180_oven_20_n04111531_2937.png,n04111531_2937.png,1.0,4.5015087,2.4309163,1.4641299
alexnet_w1_mlp_simclrhn_probe3,1,298,NaN,cat,cat,0,0298_rot_dnn_0_cat_20_n02123394_3695.png,n02123394_3695.png,1.0,3.122636,2.179367,0.66699195
alexnet_w1_mlp_simclrhn_probe3,1,299,NaN,bottle,bear,180,0299_rot_dnn_180_bear_20_n02134084_3696.png,n02134084_3696.png,0.0,-0.16708422,0.5094229,-0.47836277
alexnet_w1_mlp_simclrhn_probe3,1,300,NaN,airplane,oven,270,0300_rot_dnn_270_oven_20_n04111531_4671.png,n04111531_4671.png,0.0,0.3498917,0.51576596,-0.117290825
alexnet_w1_mlp_simclrhn_probe3,1,301,NaN,cat,bear,180,0301_rot_dnn_180_bear_20_n02133161_2741.png,n02133161_2741.png,0.0,2.4011474,2.429705,-0.02019323
alexnet_w1_mlp_simclrhn_probe3,1,302,NaN,clock,boat,90,0302_rot_dnn_90_boat_20_n03662601_3893.png,n03662601_3893.png,0.0,-0.2980989,2.656451,-2.0891821
alexnet_w1_mlp_simclrhn_probe3,1,303,NaN,airplane,boat,90,0303_rot_dnn_90_boat_20_n03344393_2790.png,n03344393_2790.png,0.0,-0.17677243,1.2731199,-1.0252287
alexnet_w1_mlp_simclrhn_probe3,1,304,NaN,keyboard,keyboard,180,0304_rot_dnn_180_keyboard_20_n03085013_3920.png,n03085013_3920.png,1.0,4.1850476,2.6661906,1.0739942
alexnet_w1_mlp_simclrhn_probe3,1,305,NaN,oven,chair,90,0305_rot_dnn_90_chair_20_n04099969_1962.png,n04099969_1962.png,0.0,1.9818476,2.3702579,-0.2746475
alexnet_w1_mlp_simclrhn_probe3,1,306,NaN,airplane,knife,0,0306_rot_dnn_0_knife_20_n03041632_13846.png,n03041632_13846.png,0.0,0.79834914,1.112037,-0.22181077
alexnet_w1_mlp_simclrhn_probe3,1,307,NaN,bicycle,boat,0,0307_rot_dnn_0_boat_20_n02951358_30117.png,n02951358_30117.png,0.0,3.383821,4.7025795,-0.9325031
alexnet_w1_mlp_simclrhn_probe3,1,308,NaN,elephant,elephant,270,0308_rot_dnn_270_elephant_20_n02504458_9922.png,n02504458_9922.png,1.0,0.8645947,0.6649733,0.14115363
alexnet_w1_mlp_simclrhn_probe3,1,309,NaN,airplane,boat,180,0309_rot_dnn_180_boat_20_n03344393_5609.png,n03344393_5609.png,0.0,2.2179918,2.2593687,-0.029257838
alexnet_w1_mlp_simclrhn_probe3,1,310,NaN,bottle,chair,0,0310_rot_dnn_0_chair_20_n02791124_3180.png,n02791124_3180.png,0.0,3.6047757,4.217113,-0.4329879
alexnet_w1_mlp_simclrhn_probe3,1,311,NaN,elephant,boat,90,0311_rot_dnn_90_boat_20_n02951358_12532.png,n02951358_12532.png,0.0,-0.62236387,1.4530326,-1.467527
alexnet_w1_mlp_simclrhn_probe3,1,312,NaN,cat,cat,180,0312_rot_dnn_180_cat_20_n02123597_1901.png,n02123597_1901.png,1.0,1.9614891,1.4610212,0.35388425
alexnet_w1_mlp_simclrhn_probe3,1,313,NaN,elephant,elephant,270,0313_rot_dnn_270_elephant_20_n02504013_5173.png,n02504013_5173.png,1.0,1.1008816,0.98647475,0.080897845
alexnet_w1_mlp_simclrhn_probe3,1,314,NaN,clock,car,180,0314_rot_dnn_180_car_20_n04285008_4834.png,n04285008_4834.png,0.0,0.83102196,2.5491114,-1.2148726
alexnet_w1_mlp_simclrhn_probe3,1,315,NaN,chair,truck,270,0315_rot_dnn_270_truck_20_n03417042_28584.png,n03417042_28584.png,0.0,1.7301103,3.406142,-1.1851335
alexnet_w1_mlp_simclrhn_probe3,1,316,NaN,cat,dog,180,0316_rot_dnn_180_dog_20_n02093428_11151.png,n02093428_11151.png,0.0,0.91630167,2.361602,-1.0219817
alexnet_w1_mlp_simclrhn_probe3,1,317,NaN,oven,bicycle,90,0317_rot_dnn_90_bicycle_20_n03792782_1475.png,n03792782_1475.png,0.0,-0.9449857,1.5751195,-1.7819835
alexnet_w1_mlp_simclrhn_probe3,1,318,NaN,oven,knife,0,0318_rot_dnn_0_knife_20_n03041632_8666.png,n03041632_8666.png,0.0,0.72267544,1.9934523,-0.89857495
alexnet_w1_mlp_simclrhn_probe3,1,319,NaN,clock,clock,0,0319_rot_dnn_0_clock_20_n04548280_253.png,n04548280_253.png,1.0,2.383303,1.8866719,0.35117117
alexnet_w1_mlp_simclrhn_probe3,1,320,NaN,airplane,airplane,180,0320_rot_dnn_180_airplane_20_n02690373_9441.png,n02690373_9441.png,1.0,5.1046953,2.8474274,1.5961295
alexnet_w1_mlp_simclrhn_probe3,1,321,NaN,bicycle,airplane,270,0321_rot_dnn_270_airplane_20_n02690373_1946.png,n02690373_1946.png,0.0,-2.3449795,0.30276343,-1.8722371
alexnet_w1_mlp_simclrhn_probe3,1,322,NaN,bottle,car,90,0322_rot_dnn_90_car_20_n03100240_5044.png,n03100240_5044.png,0.0,1.0012007,1.2036209,-0.14313272
alexnet_w1_mlp_simclrhn_probe3,1,323,NaN,cat,dog,270,0323_rot_dnn_270_dog_20_n02111500_6559.png,n02111500_6559.png,0.0,0.8095126,1.5531374,-0.52582216
alexnet_w1_mlp_simclrhn_probe3,1,324,NaN,bear,dog,270,0324_rot_dnn_270_dog_20_n02096051_1852.png,n02096051_1852.png,0.0,-0.08376928,0.8813363,-0.68243265
alexnet_w1_mlp_simclrhn_probe3,1,325,NaN,bear,bear,270,0325_rot_dnn_270_bear_20_n02133161_5020.png,n02133161_5020.png,1.0,1.5764048,1.2092069,0.2596481
alexnet_w1_mlp_simclrhn_probe3,1,326,NaN,chair,chair,90,0326_rot_dnn_90_chair_20_n02791124_2034.png,n02791124_2034.png,1.0,2.9034026,2.3513877,0.39033344
alexnet_w1_mlp_simclrhn_probe3,1,327,NaN,clock,clock,180,0327_rot_dnn_180_clock_20_n03196217_6526.png,n03196217_6526.png,1.0,2.7425153,1.1357324,1.1361672
alexnet_w1_mlp_simclrhn_probe3,1,328,NaN,oven,oven,180,0328_rot_dnn_180_oven_20_n04111531_9779.png,n04111531_9779.png,1.0,2.7699895,2.6352472,0.09527717
alexnet_w1_mlp_simclrhn_probe3,1,329,NaN,boat,boat,0,0329_rot_dnn_0_boat_20_n03662601_28640.png,n03662601_28640.png,1.0,6.9252462,1.6418949,3.7358937
alexnet_w1_mlp_simclrhn_probe3,1,330,NaN,knife,knife,90,0330_rot_dnn_90_knife_20_n03041632_31301.png,n03041632_31301.png,1.0,2.254221,0.9433108,0.92695355
alexnet_w1_mlp_simclrhn_probe3,1,331,NaN,keyboard,keyboard,90,0331_rot_dnn_90_keyboard_20_n03085013_9209.png,n03085013_9209.png,1.0,4.5420356,3.380186,0.8215517
alexnet_w1_mlp_simclrhn_probe3,1,332,NaN,oven,elephant,90,0332_rot_dnn_90_elephant_20_n02504458_113.png,n02504458_113.png,0.0,1.7754099,2.0346808,-0.18333222
alexnet_w1_mlp_simclrhn_probe3,1,333,NaN,bicycle,bicycle,180,0333_rot_dnn_180_bicycle_20_n03792782_6058.png,n03792782_6058.png,1.0,3.0475466,1.1757174,1.3235832
alexnet_w1_mlp_simclrhn_probe3,1,334,NaN,keyboard,keyboard,0,0334_rot_dnn_0_keyboard_20_n04505470_4651.png,n04505470_4651.png,1.0,8.668199,1.8763107,4.80259
alexnet_w1_mlp_simclrhn_probe3,1,335,NaN,oven,keyboard,180,0335_rot_dnn_180_keyboard_20_n03085013_7009.png,n03085013_7009.png,0.0,0.9977715,1.4737926,-0.3365977
alexnet_w1_mlp_simclrhn_probe3,1,336,NaN,bottle,truck,270,0336_rot_dnn_270_truck_20_n04467665_44390.png,n04467665_44390.png,0.0,1.037731,2.8594987,-1.2881843
alexnet_w1_mlp_simclrhn_probe3,1,337,NaN,dog,boat,90,0337_rot_dnn_90_boat_20_n04273569_17340.png,n04273569_17340.png,0.0,-2.8075466,0.7589143,-2.5218687
alexnet_w1_mlp_simclrhn_probe3,1,338,NaN,elephant,elephant,0,0338_rot_dnn_0_elephant_20_n02504013_1333.png,n02504013_1333.png,1.0,5.411308,2.313428,2.190532
alexnet_w1_mlp_simclrhn_probe3,1,339,NaN,knife,knife,270,0339_rot_dnn_270_knife_20_n03041632_50034.png,n03041632_50034.png,1.0,2.3987448,1.5903677,0.57160896
alexnet_w1_mlp_simclrhn_probe3,1,340,NaN,clock,clock,90,0340_rot_dnn_90_clock_20_n02708093_2740.png,n02708093_2740.png,1.0,2.0167282,1.732676,0.2008552
alexnet_w1_mlp_simclrhn_probe3,1,341,NaN,bear,bear,0,0341_rot_dnn_0_bear_20_n02132136_13975.png,n02132136_13975.png,1.0,10.3648405,8.412369,1.380606
alexnet_w1_mlp_simclrhn_probe3,1,342,NaN,elephant,elephant,90,0342_rot_dnn_90_elephant_20_n02504013_256.png,n02504013_256.png,1.0,1.8046763,1.5514402,0.17906493
alexnet_w1_mlp_simclrhn_probe3,1,343,NaN,bicycle,boat,90,0343_rot_dnn_90_boat_20_n03344393_6588.png,n03344393_6588.png,0.0,0.94119585,1.8546348,-0.6458989
alexnet_w1_mlp_simclrhn_probe3,1,344,NaN,knife,knife,270,0344_rot_dnn_270_knife_20_n03041632_7173.png,n03041632_7173.png,1.0,1.2471498,0.46057168,0.5561948
alexnet_w1_mlp_simclrhn_probe3,1,345,NaN,boat,elephant,180,0345_rot_dnn_180_elephant_20_n02504458_1041.png,n02504458_1041.png,0.0,0.30511105,0.96708566,-0.46808675
alexnet_w1_mlp_simclrhn_probe3,1,346,NaN,keyboard,chair,180,0346_rot_dnn_180_chair_20_n04099969_8021.png,n04099969_8021.png,0.0,1.2821428,1.7162514,-0.30696115
alexnet_w1_mlp_simclrhn_probe3,1,347,NaN,truck,truck,0,0347_rot_dnn_0_truck_20_n03796401_1791.png,n03796401_1791.png,1.0,8.202826,1.5364165,4.713863
alexnet_w1_mlp_simclrhn_probe3,1,348,NaN,keyboard,keyboard,90,0348_rot_dnn_90_keyboard_20_n04505470_5007.png,n04505470_5007.png,1.0,2.434846,1.8098123,0.44196552
alexnet_w1_mlp_simclrhn_probe3,1,349,NaN,oven,truck,180,0349_rot_dnn_180_truck_20_n03417042_29384.png,n03417042_29384.png,0.0,1.5332242,2.625279,-0.77219933
alexnet_w1_mlp_simclrhn_probe3,1,350,NaN,elephant,bird,90,0350_rot_dnn_90_bird_20_n01534433_1271.png,n01534433_1271.png,0.0,1.4282773,2.7956743,-0.96689576
alexnet_w1_mlp_simclrhn_probe3,1,351,NaN,cat,dog,270,0351_rot_dnn_270_dog_20_n02113624_393.png,n02113624_393.png,0.0,0.77466327,3.6451466,-2.0297384
alexnet_w1_mlp_simclrhn_probe3,1,352,NaN,cat,cat,90,0352_rot_dnn_90_cat_20_n02123159_5461.png,n02123159_5461.png,1.0,1.585431,0.87153584,0.5048001
alexnet_w1_mlp_simclrhn_probe3,1,353,NaN,oven,knife,270,0353_rot_dnn_270_knife_20_n03041632_9759.png,n03041632_9759.png,0.0,0.7697823,1.138636,-0.26081896
alexnet_w1_mlp_simclrhn_probe3,1,354,NaN,bicycle,chair,90,0354_rot_dnn_90_chair_20_n04429376_1754.png,n04429376_1754.png,0.0,1.0251676,1.9754252,-0.67193365
alexnet_w1_mlp_simclrhn_probe3,1,355,NaN,chair,oven,90,0355_rot_dnn_90_oven_20_n04111531_1818.png,n04111531_1818.png,0.0,-0.34094268,1.704097,-1.4460614
alexnet_w1_mlp_simclrhn_probe3,1,356,NaN,clock,clock,0,0356_rot_dnn_0_clock_20_n04548280_5798.png,n04548280_5798.png,1.0,4.7171354,3.1304107,1.1219839
alexnet_w1_mlp_simclrhn_probe3,1,357,NaN,truck,oven,90,0357_rot_dnn_90_oven_20_n04111531_3099.png,n04111531_3099.png,0.0,1.7962489,1.9459165,-0.10583099
alexnet_w1_mlp_simclrhn_probe3,1,358,NaN,clock,bottle,270,0358_rot_dnn_270_bottle_20_n04557648_581.png,n04557648_581.png,0.0,0.17339472,1.7264875,-1.0982025
alexnet_w1_mlp_simclrhn_probe3,1,359,NaN,bird,bird,0,0359_rot_dnn_0_bird_20_n01531178_3183.png,n01531178_3183.png,1.0,2.6823628,1.316915,0.9655174
alexnet_w1_mlp_simclrhn_probe3,1,360,NaN,clock,airplane,90,0360_rot_dnn_90_airplane_20_n02690373_8872.png,n02690373_8872.png,0.0,-0.79248124,1.8249129,-1.8507773
alexnet_w1_mlp_simclrhn_probe3,1,361,NaN,cat,cat,0,0361_rot_dnn_0_cat_20_n02123394_5301.png,n02123394_5301.png,1.0,1.8084956,1.4903545,0.22495973
alexnet_w1_mlp_simclrhn_probe3,1,362,NaN,bicycle,bicycle,270,0362_rot_dnn_270_bicycle_20_n03792782_12844.png,n03792782_12844.png,1.0,2.0673077,0.81619924,0.8846673
alexnet_w1_mlp_simclrhn_probe3,1,363,NaN,cat,bear,90,0363_rot_dnn_90_bear_20_n02132136_2691.png,n02132136_2691.png,0.0,3.1420817,3.3061726,-0.11602977
alexnet_w1_mlp_simclrhn_probe3,1,364,NaN,truck,car,0,0364_rot_dnn_0_car_20_n02814533_27327.png,n02814533_27327.png,0.0,6.633497,8.076328,-1.0202357
alexnet_w1_mlp_simclrhn_probe3,1,365,NaN,bird,bird,0,0365_rot_dnn_0_bird_20_n02027492_7653.png,n02027492_7653.png,1.0,2.4022846,2.16528,0.1675875
alexnet_w1_mlp_simclrhn_probe3,1,366,NaN,bear,bear,0,0366_rot_dnn_0_bear_20_n02133161_62.png,n02133161_62.png,1.0,5.6964493,4.7001953,0.70445794
alexnet_w1_mlp_simclrhn_probe3,1,367,NaN,bottle,bottle,0,0367_rot_dnn_0_bottle_20_n04560804_9710.png,n04560804_9710.png,1.0,3.9696443,1.8942597,1.4675186
alexnet_w1_mlp_simclrhn_probe3,1,368,NaN,bottle,clock,180,0368_rot_dnn_180_clock_20_n04548280_15154.png,n04548280_15154.png,0.0,1.323038,2.432526,-0.7845266
alexnet_w1_mlp_simclrhn_probe3,1,369,NaN,oven,oven,180,0369_rot_dnn_180_oven_20_n04111531_114.png,n04111531_114.png,1.0,1.2643151,1.0725415,0.13560446
alexnet_w1_mlp_simclrhn_probe3,1,370,NaN,cat,cat,180,0370_rot_dnn_180_cat_20_n02125311_24813.png,n02125311_24813.png,1.0,2.215376,0.9671056,0.8826604
alexnet_w1_mlp_simclrhn_probe3,1,371,NaN,clock,airplane,90,0371_rot_dnn_90_airplane_20_n02690373_7647.png,n02690373_7647.png,0.0,-1.303707,0.9316061,-1.5806051
alexnet_w1_mlp_simclrhn_probe3,1,372,NaN,bottle,bottle,0,0372_rot_dnn_0_bottle_20_n03983396_9823.png,n03983396_9823.png,1.0,2.5468946,1.7907482,0.5346762
alexnet_w1_mlp_simclrhn_probe3,1,373,NaN,bear,bear,0,0373_rot_dnn_0_bear_20_n02134418_2398.png,n02134418_2398.png,1.0,2.541579,2.504354,0.026322056
alexnet_w1_mlp_simclrhn_probe3,1,374,NaN,clock,keyboard,90,0374_rot_dnn_90_keyboard_20_n04505470_4584.png,n04505470_4584.png,0.0,0.45863125,0.87026185,-0.2910668
alexnet_w1_mlp_simclrhn_probe3,1,375,NaN,keyboard,keyboard,0,0375_rot_dnn_0_keyboard_20_n04505470_10055.png,n04505470_10055.png,1.0,2.6669724,2.157621,0.3601659
alexnet_w1_mlp_simclrhn_probe3,1,376,NaN,bird,boat,270,0376_rot_dnn_270_boat_20_n04273569_10980.png,n04273569_10980.png,0.0,-0.87205493,0.41577744,-0.910635
alexnet_w1_mlp_simclrhn_probe3,1,377,NaN,car,car,180,0377_rot_dnn_180_car_20_n03100240_16210.png,n03100240_16210.png,1.0,4.385448,2.9126267,1.0414419
alexnet_w1_mlp_simclrhn_probe3,1,378,NaN,keyboard,keyboard,0,0378_rot_dnn_0_keyboard_20_n04505470_1067.png,n04505470_1067.png,1.0,10.870839,2.2828085,6.0726547
alexnet_w1_mlp_simclrhn_probe3,1,379,NaN,elephant,elephant,0,0379_rot_dnn_0_elephant_20_n02504458_7867.png,n02504458_7867.png,1.0,12.388266,5.350687,4.97632
alexnet_w1_mlp_simclrhn_probe3,1,380,NaN,keyboard,keyboard,180,0380_rot_dnn_180_keyboard_20_n04505470_807.png,n04505470_807.png,1.0,6.62175,1.839588,3.381499
alexnet_w1_mlp_simclrhn_probe3,1,381,NaN,bicycle,bicycle,270,0381_rot_dnn_270_bicycle_20_n02835271_24104.png,n02835271_24104.png,1.0,3.5989044,0.79854405,1.9801537
alexnet_w1_mlp_simclrhn_probe3,1,382,NaN,clock,bottle,0,0382_rot_dnn_0_bottle_20_n03937543_6698.png,n03937543_6698.png,0.0,0.4791309,0.6141116,-0.095445774
alexnet_w1_mlp_simclrhn_probe3,1,383,NaN,bicycle,oven,0,0383_rot_dnn_0_oven_20_n04111531_10403.png,n04111531_10403.png,0.0,-0.568134,2.6274183,-2.2595968
alexnet_w1_mlp_simclrhn_probe3,1,384,NaN,truck,truck,0,0384_rot_dnn_0_truck_20_n03796401_8463.png,n03796401_8463.png,1.0,9.674186,2.0362618,5.400828
alexnet_w1_mlp_simclrhn_probe3,1,385,NaN,truck,truck,0,0385_rot_dnn_0_truck_20_n03796401_8176.png,n03796401_8176.png,1.0,3.1738243,1.8691708,0.9225294
alexnet_w1_mlp_simclrhn_probe3,1,386,NaN,bottle,bottle,90,0386_rot_dnn_90_bottle_20_n03937543_984.png,n03937543_984.png,1.0,2.4128063,2.0701137,0.24232027
alexnet_w1_mlp_simclrhn_probe3,1,387,NaN,chair,bicycle,90,0387_rot_dnn_90_bicycle_20_n02835271_11697.png,n02835271_11697.png,0.0,1.7706449,2.175841,-0.28651696
alexnet_w1_mlp_simclrhn_probe3,1,388,NaN,clock,keyboard,270,0388_rot_dnn_270_keyboard_20_n03085013_22417.png,n03085013_22417.png,0.0,0.7551161,1.9086715,-0.8156869
alexnet_w1_mlp_simclrhn_probe3,1,389,NaN,chair,car,270,0389_rot_dnn_270_car_20_n03100240_7602.png,n03100240_7602.png,0.0,1.1488687,3.006711,-1.3136929
alexnet_w1_mlp_simclrhn_probe3,1,390,NaN,bird,bird,90,0390_rot_dnn_90_bird_20_n01534433_14389.png,n01534433_14389.png,1.0,1.4798573,0.5418925,0.66324127
alexnet_w1_mlp_simclrhn_probe3,1,391,NaN,cat,bear,0,0391_rot_dnn_0_bear_20_n02134084_2598.png,n02134084_2598.png,0.0,2.8377585,3.6632855,-0.5837357
alexnet_w1_mlp_simclrhn_probe3,1,392,NaN,bird,bird,180,0392_rot_dnn_180_bird_20_n01560419_19599.png,n01560419_19599.png,1.0,1.1354828,0.08057408,0.7459331
alexnet_w1_mlp_simclrhn_probe3,1,393,NaN,knife,bicycle,90,0393_rot_dnn_90_bicycle_20_n02835271_8747.png,n02835271_8747.png,0.0,1.0781751,1.3125056,-0.16569671
alexnet_w1_mlp_simclrhn_probe3,1,394,NaN,knife,knife,180,0394_rot_dnn_180_knife_20_n03041632_30821.png,n03041632_30821.png,1.0,1.0645442,0.83710515,0.16082369
alexnet_w1_mlp_simclrhn_probe3,1,395,NaN,bicycle,chair,270,0395_rot_dnn_270_chair_20_n03376595_209.png,n03376595_209.png,0.0,-0.09576973,1.860564,-1.3833369
alexnet_w1_mlp_simclrhn_probe3,1,396,NaN,bicycle,boat,180,0396_rot_dnn_180_boat_20_n04273569_29113.png,n04273569_29113.png,0.0,1.4152955,3.0488367,-1.1550881
alexnet_w1_mlp_simclrhn_probe3,1,397,NaN,bird,bird,270,0397_rot_dnn_270_bird_20_n02006656_6435.png,n02006656_6435.png,1.0,2.6919427,-0.09091706,1.967779
alexnet_w1_mlp_simclrhn_probe3,1,398,NaN,oven,airplane,90,0398_rot_dnn_90_airplane_20_n02690373_3492.png,n02690373_3492.png,0.0,-1.1672506,2.7254868,-2.7525811
alexnet_w1_mlp_simclrhn_probe3,1,399,NaN,oven,oven,270,0399_rot_dnn_270_oven_20_n04111531_9380.png,n04111531_9380.png,1.0,2.035962,0.23877785,1.2708012
alexnet_w1_mlp_simclrhn_probe3,1,400,NaN,bottle,keyboard,270,0400_rot_dnn_270_keyboard_20_n04505470_510.png,n04505470_510.png,0.0,2.2518487,2.3325298,-0.057050142
alexnet_w1_mlp_simclrhn_probe3,1,401,NaN,bicycle,bird,180,0401_rot_dnn_180_bird_20_n02027492_20576.png,n02027492_20576.png,0.0,1.3560238,1.3606462,-0.0032685725
alexnet_w1_mlp_simclrhn_probe3,1,402,NaN,dog,bird,90,0402_rot_dnn_90_bird_20_n01855032_1920.png,n01855032_1920.png,0.0,-0.30852404,0.8336695,-0.80765283
alexnet_w1_mlp_simclrhn_probe3,1,403,NaN,airplane,boat,180,0403_rot_dnn_180_boat_20_n04273569_15761.png,n04273569_15761.png,0.0,2.2356703,2.9688196,-0.51841486
alexnet_w1_mlp_simclrhn_probe3,1,404,NaN,oven,oven,180,0404_rot_dnn_180_oven_20_n04111531_10667.png,n04111531_10667.png,1.0,4.466047,1.2589797,2.2677388
alexnet_w1_mlp_simclrhn_probe3,1,405,NaN,knife,knife,270,0405_rot_dnn_270_knife_20_n03041632_36215.png,n03041632_36215.png,1.0,2.3819985,0.47255063,1.3501836
alexnet_w1_mlp_simclrhn_probe3,1,406,NaN,bicycle,bicycle,180,0406_rot_dnn_180_bicycle_20_n02835271_2625.png,n02835271_2625.png,1.0,5.183081,0.9513595,2.9922793
alexnet_w1_mlp_simclrhn_probe3,1,407,NaN,bicycle,bird,270,0407_rot_dnn_270_bird_20_n02028035_20411.png,n02028035_20411.png,0.0,0.4349272,1.2378936,-0.56778294
alexnet_w1_mlp_simclrhn_probe3,1,408,NaN,oven,knife,0,0408_rot_dnn_0_knife_20_n03041632_25656.png,n03041632_25656.png,0.0,2.0427608,2.1389375,-0.06800714
alexnet_w1_mlp_simclrhn_probe3,1,409,NaN,elephant,oven,270,0409_rot_dnn_270_oven_20_n04111531_4332.png,n04111531_4332.png,0.0,0.7213154,2.7539878,-1.4373164
alexnet_w1_mlp_simclrhn_probe3,1,410,NaN,keyboard,keyboard,180,0410_rot_dnn_180_keyboard_20_n04505470_3553.png,n04505470_3553.png,1.0,2.3150065,1.101119,0.8583481
alexnet_w1_mlp_simclrhn_probe3,1,411,NaN,bicycle,bicycle,180,0411_rot_dnn_180_bicycle_20_n02835271_18706.png,n02835271_18706.png,1.0,5.4376345,2.8588235,1.8234947
alexnet_w1_mlp_simclrhn_probe3,1,412,NaN,chair,truck,270,0412_rot_dnn_270_truck_20_n03417042_10744.png,n03417042_10744.png,0.0,0.9020972,2.994532,-1.4795749
alexnet_w1_mlp_simclrhn_probe3,1,413,NaN,clock,clock,0,0413_rot_dnn_0_clock_20_n03196217_11724.png,n03196217_11724.png,1.0,4.135839,2.5207095,1.142069
alexnet_w1_mlp_simclrhn_probe3,1,414,NaN,bicycle,bicycle,270,0414_rot_dnn_270_bicycle_20_n02835271_14123.png,n02835271_14123.png,1.0,3.3143277,2.015843,0.9181674
alexnet_w1_mlp_simclrhn_probe3,1,415,NaN,oven,bicycle,270,0415_rot_dnn_270_bicycle_20_n02835271_7900.png,n02835271_7900.png,0.0,0.6707797,2.4154246,-1.2336502
alexnet_w1_mlp_simclrhn_probe3,1,416,NaN,chair,truck,270,0416_rot_dnn_270_truck_20_n03417042_2153.png,n03417042_2153.png,0.0,1.7511699,2.2229445,-0.333595
alexnet_w1_mlp_simclrhn_probe3,1,417,NaN,bear,bicycle,270,0417_rot_dnn_270_bicycle_20_n03792782_10129.png,n03792782_10129.png,0.0,-0.3691673,1.9010351,-1.6052755
alexnet_w1_mlp_simclrhn_probe3,1,418,NaN,bird,bird,180,0418_rot_dnn_180_bird_20_n01514859_18430.png,n01514859_18430.png,1.0,2.0874553,1.0151037,0.7582671
alexnet_w1_mlp_simclrhn_probe3,1,419,NaN,chair,chair,0,0419_rot_dnn_0_chair_20_n04099969_5010.png,n04099969_5010.png,1.0,2.9472964,1.3645636,1.1191611
alexnet_w1_mlp_simclrhn_probe3,1,420,NaN,chair,truck,0,0420_rot_dnn_0_truck_20_n03796401_588.png,n03796401_588.png,0.0,2.6586823,4.3013988,-1.1615759
alexnet_w1_mlp_simclrhn_probe3,1,421,NaN,car,car,0,0421_rot_dnn_0_car_20_n02814533_486.png,n02814533_486.png,1.0,13.530496,6.881249,4.7017274
alexnet_w1_mlp_simclrhn_probe3,1,422,NaN,oven,elephant,90,0422_rot_dnn_90_elephant_20_n02504013_3540.png,n02504013_3540.png,0.0,0.23268875,1.942297,-1.2088755
alexnet_w1_mlp_simclrhn_probe3,1,423,NaN,bicycle,car,180,0423_rot_dnn_180_car_20_n02814533_55715.png,n02814533_55715.png,0.0,-0.16214775,1.9727094,-1.509572
alexnet_w1_mlp_simclrhn_probe3,1,424,NaN,keyboard,bottle,180,0424_rot_dnn_180_bottle_20_n03983396_10896.png,n03983396_10896.png,0.0,1.190987,1.6519332,-0.3259382
alexnet_w1_mlp_simclrhn_probe3,1,425,NaN,bottle,bottle,90,0425_rot_dnn_90_bottle_20_n04557648_15053.png,n04557648_15053.png,1.0,3.0407987,1.1233644,1.3558308
alexnet_w1_mlp_simclrhn_probe3,1,426,NaN,car,car,0,0426_rot_dnn_0_car_20_n04285008_8281.png,n04285008_8281.png,1.0,14.516942,4.77156,6.891026
alexnet_w1_mlp_simclrhn_probe3,1,427,NaN,bottle,car,270,0427_rot_dnn_270_car_20_n02814533_38596.png,n02814533_38596.png,0.0,-0.26175553,3.7589657,-2.8430793
alexnet_w1_mlp_simclrhn_probe3,1,428,NaN,elephant,elephant,270,0428_rot_dnn_270_elephant_20_n02504013_15219.png,n02504013_15219.png,1.0,2.0780447,1.8148174,0.18612976
alexnet_w1_mlp_simclrhn_probe3,1,429,NaN,elephant,elephant,180,0429_rot_dnn_180_elephant_20_n02504013_828.png,n02504013_828.png,1.0,2.6028206,1.375658,0.867735
alexnet_w1_mlp_simclrhn_probe3,1,430,NaN,oven,oven,180,0430_rot_dnn_180_oven_20_n04111531_1439.png,n04111531_1439.png,1.0,7.7407775,1.0799794,4.7098956
alexnet_w1_mlp_simclrhn_probe3,1,431,NaN,chair,bottle,90,0431_rot_dnn_90_bottle_20_n03983396_3315.png,n03983396_3315.png,0.0,1.8883269,1.9420242,-0.03796976
alexnet_w1_mlp_simclrhn_probe3,1,432,NaN,clock,airplane,90,0432_rot_dnn_90_airplane_20_n02690373_4024.png,n02690373_4024.png,0.0,-0.35564107,1.1375557,-1.0558496
alexnet_w1_mlp_simclrhn_probe3,1,433,NaN,oven,elephant,270,0433_rot_dnn_270_elephant_20_n02504013_10301.png,n02504013_10301.png,0.0,-0.06974784,1.593083,-1.175799
alexnet_w1_mlp_simclrhn_probe3,1,434,NaN,oven,oven,180,0434_rot_dnn_180_oven_20_n04111531_7067.png,n04111531_7067.png,1.0,3.8260796,0.67736,2.226481
alexnet_w1_mlp_simclrhn_probe3,1,435,NaN,knife,knife,90,0435_rot_dnn_90_knife_20_n03041632_36834.png,n03041632_36834.png,1.0,2.2517934,1.9177372,0.23621337
alexnet_w1_mlp_simclrhn_probe3,1,436,NaN,chair,car,90,0436_rot_dnn_90_car_20_n02814533_18148.png,n02814533_18148.png,0.0,0.8235409,2.8699613,-1.4470377
alexnet_w1_mlp_simclrhn_probe3,1,437,NaN,elephant,cat,90,0437_rot_dnn_90_cat_20_n02125311_41284.png,n02125311_41284.png,0.0,0.8343649,2.3705757,-1.0862651
alexnet_w1_mlp_simclrhn_probe3,1,438,NaN,bicycle,bicycle,0,0438_rot_dnn_0_bicycle_20_n02835271_18188.png,n02835271_18188.png,1.0,6.175453,2.0476284,2.918813
alexnet_w1_mlp_simclrhn_probe3,1,439,NaN,bottle,bottle,0,0439_rot_dnn_0_bottle_20_n04591713_2903.png,n04591713_2903.png,1.0,4.2707515,3.0919967,0.8335055
alexnet_w1_mlp_simclrhn_probe3,1,440,NaN,bottle,knife,0,0440_rot_dnn_0_knife_20_n03041632_54191.png,n03041632_54191.png,0.0,1.2721384,2.3458095,-0.75920016
alexnet_w1_mlp_simclrhn_probe3,1,441,NaN,chair,truck,180,0441_rot_dnn_180_truck_20_n03417042_8867.png,n03417042_8867.png,0.0,2.934333,3.0837672,-0.10566586
alexnet_w1_mlp_simclrhn_probe3,1,442,NaN,oven,oven,270,0442_rot_dnn_270_oven_20_n04111531_8421.png,n04111531_8421.png,1.0,1.7100123,1.3754404,0.2365781
alexnet_w1_mlp_simclrhn_probe3,1,443,NaN,oven,elephant,270,0443_rot_dnn_270_elephant_20_n02504013_4062.png,n02504013_4062.png,0.0,1.7766259,3.5597572,-1.2608643
alexnet_w1_mlp_simclrhn_probe3,1,444,NaN,keyboard,keyboard,270,0444_rot_dnn_270_keyboard_20_n04505470_1649.png,n04505470_1649.png,1.0,4.390299,1.7449636,1.8705345
alexnet_w1_mlp_simclrhn_probe3,1,445,NaN,airplane,boat,180,0445_rot_dnn_180_boat_20_n03344393_7967.png,n03344393_7967.png,0.0,1.2238595,1.6475027,-0.29956093
alexnet_w1_mlp_simclrhn_probe3,1,446,NaN,bicycle,bicycle,0,0446_rot_dnn_0_bicycle_20_n02835271_10265.png,n02835271_10265.png,1.0,10.841323,2.669888,5.7780766
alexnet_w1_mlp_simclrhn_probe3,1,447,NaN,chair,bicycle,180,0447_rot_dnn_180_bicycle_20_n02835271_6742.png,n02835271_6742.png,0.0,1.0891654,1.785265,-0.4922167
alexnet_w1_mlp_simclrhn_probe3,1,448,NaN,cat,cat,180,0448_rot_dnn_180_cat_20_n02123045_3168.png,n02123045_3168.png,1.0,2.424763,1.2522988,0.82905734
alexnet_w1_mlp_simclrhn_probe3,1,449,NaN,airplane,car,180,0449_rot_dnn_180_car_20_n03100240_8489.png,n03100240_8489.png,0.0,1.4553119,2.6490784,-0.8441204
alexnet_w1_mlp_simclrhn_probe3,1,450,NaN,chair,oven,270,0450_rot_dnn_270_oven_20_n04111531_1826.png,n04111531_1826.png,0.0,2.1580153,2.341406,-0.12967692
alexnet_w1_mlp_simclrhn_probe3,1,451,NaN,bear,dog,180,0451_rot_dnn_180_dog_20_n02104365_1592.png,n02104365_1592.png,0.0,1.328126,2.2305999,-0.63814545
alexnet_w1_mlp_simclrhn_probe3,1,452,NaN,cat,boat,90,0452_rot_dnn_90_boat_20_n02951358_4343.png,n02951358_4343.png,0.0,-0.72589964,0.56430525,-0.9123126
alexnet_w1_mlp_simclrhn_probe3,1,453,NaN,bottle,bottle,0,0453_rot_dnn_0_bottle_20_n02823428_4282.png,n02823428_4282.png,1.0,8.670495,5.197696,2.4556396
alexnet_w1_mlp_simclrhn_probe3,1,454,NaN,bird,bird,0,0454_rot_dnn_0_bird_20_n01817953_2043.png,n01817953_2043.png,1.0,2.1613579,0.9314608,0.86966854
alexnet_w1_mlp_simclrhn_probe3,1,455,NaN,dog,dog,0,0455_rot_dnn_0_dog_20_n02110958_14369.png,n02110958_14369.png,1.0,1.4533283,1.0045955,0.31730196
alexnet_w1_mlp_simclrhn_probe3,1,456,NaN,dog,dog,270,0456_rot_dnn_270_dog_20_n02108000_1044.png,n02108000_1044.png,1.0,0.9131031,0.57058984,0.24219346
alexnet_w1_mlp_simclrhn_probe3,1,457,NaN,elephant,dog,270,0457_rot_dnn_270_dog_20_n02087394_1428.png,n02087394_1428.png,0.0,0.26210853,1.8385543,-1.1147155
alexnet_w1_mlp_simclrhn_probe3,1,458,NaN,elephant,airplane,90,0458_rot_dnn_90_airplane_20_n02690373_2856.png,n02690373_2856.png,0.0,-1.7324905,1.0482793,-1.9663012
alexnet_w1_mlp_simclrhn_probe3,1,459,NaN,chair,chair,0,0459_rot_dnn_0_chair_20_n03376595_19165.png,n03376595_19165.png,1.0,5.061109,4.515504,0.38580114
alexnet_w1_mlp_simclrhn_probe3,1,460,NaN,chair,chair,270,0460_rot_dnn_270_chair_20_n04099969_42125.png,n04099969_42125.png,1.0,3.9045062,3.4973593,0.28789636
alexnet_w1_mlp_simclrhn_probe3,1,461,NaN,bottle,bottle,270,0461_rot_dnn_270_bottle_20_n02823428_12656.png,n02823428_12656.png,1.0,4.416865,3.231505,0.8381761
alexnet_w1_mlp_simclrhn_probe3,1,462,NaN,bicycle,bicycle,180,0462_rot_dnn_180_bicycle_20_n02835271_5861.png,n02835271_5861.png,1.0,6.5313087,2.4351745,2.8964043
alexnet_w1_mlp_simclrhn_probe3,1,463,NaN,clock,airplane,90,0463_rot_dnn_90_airplane_20_n02690373_19345.png,n02690373_19345.png,0.0,0.41738173,1.1413563,-0.51192737
alexnet_w1_mlp_simclrhn_probe3,1,464,NaN,clock,clock,90,0464_rot_dnn_90_clock_20_n02708093_8069.png,n02708093_8069.png,1.0,8.804931,1.9339136,4.858543
alexnet_w1_mlp_simclrhn_probe3,1,465,NaN,chair,chair,270,0465_rot_dnn_270_chair_20_n04099969_16.png,n04099969_16.png,1.0,1.2685266,1.2233944,0.031913258
alexnet_w1_mlp_simclrhn_probe3,1,466,NaN,dog,dog,270,0466_rot_dnn_270_dog_20_n02104365_1756.png,n02104365_1756.png,1.0,1.7147669,1.6359787,0.055711646
alexnet_w1_mlp_simclrhn_probe3,1,467,NaN,bird,bird,270,0467_rot_dnn_270_bird_20_n01819313_17231.png,n01819313_17231.png,1.0,1.5264165,0.606826,0.6502487
alexnet_w1_mlp_simclrhn_probe3,1,468,NaN,clock,car,90,0468_rot_dnn_90_car_20_n02814533_34149.png,n02814533_34149.png,0.0,-0.26267233,2.4138403,-1.8925803
alexnet_w1_mlp_simclrhn_probe3,1,469,NaN,knife,knife,0,0469_rot_dnn_0_knife_20_n03041632_26053.png,n03041632_26053.png,1.0,2.216154,1.6519397,0.3989598
alexnet_w1_mlp_simclrhn_probe3,1,470,NaN,oven,oven,0,0470_rot_dnn_0_oven_20_n04111531_11287.png,n04111531_11287.png,1.0,5.200775,2.8677518,1.6496966
alexnet_w1_mlp_simclrhn_probe3,1,471,NaN,keyboard,bottle,0,0471_rot_dnn_0_bottle_20_n03937543_11959.png,n03937543_11959.png,0.0,0.77037925,1.9234915,-0.8153735
alexnet_w1_mlp_simclrhn_probe3,1,472,NaN,clock,airplane,270,0472_rot_dnn_270_airplane_20_n02690373_1348.png,n02690373_1348.png,0.0,-1.6629109,1.8829199,-2.507281
alexnet_w1_mlp_simclrhn_probe3,1,473,NaN,elephant,bear,0,0473_rot_dnn_0_bear_20_n02132136_5175.png,n02132136_5175.png,0.0,5.8069205,6.0366154,-0.16241878
alexnet_w1_mlp_simclrhn_probe3,1,474,NaN,knife,keyboard,270,0474_rot_dnn_270_keyboard_20_n03085013_7382.png,n03085013_7382.png,0.0,-0.123330295,2.0548458,-1.5402032
alexnet_w1_mlp_simclrhn_probe3,1,475,NaN,oven,dog,270,0475_rot_dnn_270_dog_20_n02109961_4280.png,n02109961_4280.png,0.0,0.49551937,0.8927916,-0.28091392
alexnet_w1_mlp_simclrhn_probe3,1,476,NaN,bicycle,truck,90,0476_rot_dnn_90_truck_20_n03417042_1344.png,n03417042_1344.png,0.0,0.3643254,1.9370003,-1.1120491
alexnet_w1_mlp_simclrhn_probe3,1,477,NaN,elephant,elephant,0,0477_rot_dnn_0_elephant_20_n02504013_9299.png,n02504013_9299.png,1.0,19.723282,6.648409,9.245332
alexnet_w1_mlp_simclrhn_probe3,1,478,NaN,bear,bear,0,0478_rot_dnn_0_bear_20_n02134418_5527.png,n02134418_5527.png,1.0,3.8322494,1.0455312,1.9705075
alexnet_w1_mlp_simclrhn_probe3,1,479,NaN,keyboard,keyboard,270,0479_rot_dnn_270_keyboard_20_n03085013_23109.png,n03085013_23109.png,1.0,2.1906345,2.0723033,0.08367279
alexnet_w1_mlp_simclrhn_probe3,1,480,NaN,bear,bear,180,0480_rot_dnn_180_bear_20_n02133161_4393.png,n02133161_4393.png,1.0,3.6558468,1.2566986,1.696454
alexnet_w1_mlp_simclrhn_probe3,1,481,NaN,oven,oven,0,0481_rot_dnn_0_oven_20_n04111531_73.png,n04111531_73.png,1.0,4.776541,2.9081223,1.3211718
alexnet_w1_mlp_simclrhn_probe3,1,482,NaN,keyboard,keyboard,0,0482_rot_dnn_0_keyboard_20_n03085013_7613.png,n03085013_7613.png,1.0,2.7067409,2.5181074,0.13338399
alexnet_w1_mlp_simclrhn_probe3,1,483,NaN,oven,oven,180,0483_rot_dnn_180_oven_20_n04111531_2795.png,n04111531_2795.png,1.0,4.150141,0.64111376,2.4812567
alexnet_w1_mlp_simclrhn_probe3,1,484,NaN,oven,oven,0,0484_rot_dnn_0_oven_20_n04111531_22517.png,n04111531_22517.png,1.0,5.7219286,1.1211305,3.2532556
alexnet_w1_mlp_simclrhn_probe3,1,485,NaN,cat,elephant,90,0485_rot_dnn_90_elephant_20_n02504458_2613.png,n02504458_2613.png,0.0,0.54817307,1.1196803,-0.40411663
alexnet_w1_mlp_simclrhn_probe3,1,486,NaN,oven,oven,180,0486_rot_dnn_180_oven_20_n04111531_9176.png,n04111531_9176.png,1.0,3.1529999,0.45899108,1.9049519
alexnet_w1_mlp_simclrhn_probe3,1,487,NaN,bottle,bottle,180,0487_rot_dnn_180_bottle_20_n04557648_5790.png,n04557648_5790.png,1.0,5.4646773,3.594662,1.3223006
alexnet_w1_mlp_simclrhn_probe3,1,488,NaN,bottle,truck,90,0488_rot_dnn_90_truck_20_n04467665_9812.png,n04467665_9812.png,0.0,0.45528266,2.4485037,-1.4094201
alexnet_w1_mlp_simclrhn_probe3,1,489,NaN,bottle,bottle,0,0489_rot_dnn_0_bottle_20_n04591713_7476.png,n04591713_7476.png,1.0,1.6083523,0.26058027,0.9530187
alexnet_w1_mlp_simclrhn_probe3,1,490,NaN,elephant,elephant,90,0490_rot_dnn_90_elephant_20_n02504458_1567.png,n02504458_1567.png,1.0,2.6537051,1.6565553,0.7050914
alexnet_w1_mlp_simclrhn_probe3,1,491,NaN,clock,clock,90,0491_rot_dnn_90_clock_20_n04548280_6865.png,n04548280_6865.png,1.0,5.760485,0.9665824,3.3898013
alexnet_w1_mlp_simclrhn_probe3,1,492,NaN,bottle,bottle,180,0492_rot_dnn_180_bottle_20_n02823428_3.png,n02823428_3.png,1.0,3.4516127,1.0334097,1.7099277
alexnet_w1_mlp_simclrhn_probe3,1,493,NaN,elephant,boat,90,0493_rot_dnn_90_boat_20_n04273569_8951.png,n04273569_8951.png,0.0,-0.99467963,1.6838381,-1.8939981
alexnet_w1_mlp_simclrhn_probe3,1,494,NaN,knife,knife,180,0494_rot_dnn_180_knife_20_n03041632_53874.png,n03041632_53874.png,1.0,1.6791209,0.5668302,0.78650826
alexnet_w1_mlp_simclrhn_probe3,1,495,NaN,clock,clock,0,0495_rot_dnn_0_clock_20_n04548280_6126.png,n04548280_6126.png,1.0,1.1205312,0.99425215,0.08929278
alexnet_w1_mlp_simclrhn_probe3,1,496,NaN,cat,cat,180,0496_rot_dnn_180_cat_20_n02123597_6186.png,n02123597_6186.png,1.0,2.4169865,0.9266957,1.0537947
alexnet_w1_mlp_simclrhn_probe3,1,497,NaN,oven,cat,270,0497_rot_dnn_270_cat_20_n02124075_14662.png,n02124075_14662.png,0.0,1.6597605,1.7951517,-0.095736064
alexnet_w1_mlp_simclrhn_probe3,1,498,NaN,clock,car,90,0498_rot_dnn_90_car_20_n04285008_8677.png,n04285008_8677.png,0.0,-1.3390993,3.4554226,-3.390239
alexnet_w1_mlp_simclrhn_probe3,1,499,NaN,oven,bird,90,0499_rot_dnn_90_bird_20_n01820546_2568.png,n01820546_2568.png,0.0,0.27518642,0.31618053,-0.028987212
alexnet_w1_mlp_simclrhn_probe3,1,500,NaN,keyboard,clock,90,0500_rot_dnn_90_clock_20_n04548280_7354.png,n04548280_7354.png,0.0,1.5396534,1.9277604,-0.27443305
alexnet_w1_mlp_simclrhn_probe3,1,501,NaN,clock,bicycle,270,0501_rot_dnn_270_bicycle_20_n03792782_586.png,n03792782_586.png,0.0,4.766539,5.0982456,-0.23455194
alexnet_w1_mlp_simclrhn_probe3,1,502,NaN,elephant,bear,0,0502_rot_dnn_0_bear_20_n02134084_572.png,n02134084_572.png,0.0,3.5029593,4.833532,-0.94085693
alexnet_w1_mlp_simclrhn_probe3,1,503,NaN,bicycle,bicycle,270,0503_rot_dnn_270_bicycle_20_n03792782_3388.png,n03792782_3388.png,1.0,2.0052707,0.9506648,0.745719
alexnet_w1_mlp_simclrhn_probe3,1,504,NaN,bicycle,bicycle,270,0504_rot_dnn_270_bicycle_20_n03792782_28970.png,n03792782_28970.png,1.0,11.20886,4.4052644,4.8108687
alexnet_w1_mlp_simclrhn_probe3,1,505,NaN,oven,bottle,270,0505_rot_dnn_270_bottle_20_n04560804_11386.png,n04560804_11386.png,0.0,1.2672845,3.5905354,-1.6427864
alexnet_w1_mlp_simclrhn_probe3,1,506,NaN,chair,chair,180,0506_rot_dnn_180_chair_20_n03376595_6799.png,n03376595_6799.png,1.0,3.8941903,3.195024,0.49438524
alexnet_w1_mlp_simclrhn_probe3,1,507,NaN,cat,dog,270,0507_rot_dnn_270_dog_20_n02094258_6398.png,n02094258_6398.png,0.0,0.46792302,2.2261412,-1.243248
alexnet_w1_mlp_simclrhn_probe3,1,508,NaN,bird,bird,0,0508_rot_dnn_0_bird_20_n01592084_2639.png,n01592084_2639.png,1.0,4.4183273,1.1188083,2.3331122
alexnet_w1_mlp_simclrhn_probe3,1,509,NaN,bird,bird,180,0509_rot_dnn_180_bird_20_n02017213_4781.png,n02017213_4781.png,1.0,1.2519537,0.9907366,0.1847084
alexnet_w1_mlp_simclrhn_probe3,1,510,NaN,bottle,airplane,270,0510_rot_dnn_270_airplane_20_n02690373_3818.png,n02690373_3818.png,0.0,-1.0598656,1.2386914,-1.6253253
alexnet_w1_mlp_simclrhn_probe3,1,511,NaN,bicycle,bicycle,90,0511_rot_dnn_90_bicycle_20_n03792782_26383.png,n03792782_26383.png,1.0,5.252989,2.1862638,2.168502
alexnet_w1_mlp_simclrhn_probe3,1,512,NaN,oven,oven,90,0512_rot_dnn_90_oven_20_n04111531_5216.png,n04111531_5216.png,1.0,8.892354,2.89157,4.243195
alexnet_w1_mlp_simclrhn_probe3,1,513,NaN,airplane,airplane,180,0513_rot_dnn_180_airplane_20_n02690373_20331.png,n02690373_20331.png,1.0,2.6864998,1.6100513,0.76116407
alexnet_w1_mlp_simclrhn_probe3,1,514,NaN,clock,truck,180,0514_rot_dnn_180_truck_20_n04467665_23691.png,n04467665_23691.png,0.0,0.5481936,1.7152748,-0.82525104
alexnet_w1_mlp_simclrhn_probe3,1,515,NaN,bird,bird,0,0515_rot_dnn_0_bird_20_n02009229_492.png,n02009229_492.png,1.0,4.1146836,2.2318692,1.3313508
alexnet_w1_mlp_simclrhn_probe3,1,516,NaN,bird,bird,90,0516_rot_dnn_90_bird_20_n02002556_5890.png,n02002556_5890.png,1.0,3.2378883,1.3804041,1.3134397
alexnet_w1_mlp_simclrhn_probe3,1,517,NaN,dog,bird,270,0517_rot_dnn_270_bird_20_n01855032_5358.png,n01855032_5358.png,0.0,0.33179182,0.85499,-0.369957
alexnet_w1_mlp_simclrhn_probe3,1,518,NaN,cat,dog,180,0518_rot_dnn_180_dog_20_n02112350_10026.png,n02112350_10026.png,0.0,1.9894756,1.9915439,-0.0014624957
alexnet_w1_mlp_simclrhn_probe3,1,519,NaN,clock,knife,90,0519_rot_dnn_90_knife_20_n03041632_11773.png,n03041632_11773.png,0.0,0.52647746,0.7619117,-0.16647714
alexnet_w1_mlp_simclrhn_probe3,1,520,NaN,elephant,elephant,0,0520_rot_dnn_0_elephant_20_n02504013_20486.png,n02504013_20486.png,1.0,14.063734,6.421972,5.403542
alexnet_w1_mlp_simclrhn_probe3,1,521,NaN,oven,oven,0,0521_rot_dnn_0_oven_20_n04111531_27.png,n04111531_27.png,1.0,6.133285,3.4940894,1.8661932
alexnet_w1_mlp_simclrhn_probe3,1,522,NaN,cat,bird,180,0522_rot_dnn_180_bird_20_n01855672_15421.png,n01855672_15421.png,0.0,0.62207156,1.7532749,-0.79988164
alexnet_w1_mlp_simclrhn_probe3,1,523,NaN,bear,bear,270,0523_rot_dnn_270_bear_20_n02132136_239.png,n02132136_239.png,1.0,1.7763937,0.94913584,0.5849596
alexnet_w1_mlp_simclrhn_probe3,1,524,NaN,keyboard,keyboard,90,0524_rot_dnn_90_keyboard_20_n03085013_25924.png,n03085013_25924.png,1.0,4.083465,1.8183241,1.6016966
alexnet_w1_mlp_simclrhn_probe3,1,525,NaN,bicycle,bicycle,180,0525_rot_dnn_180_bicycle_20_n03792782_6030.png,n03792782_6030.png,1.0,4.2348423,0.88629645,2.3677795
alexnet_w1_mlp_simclrhn_probe3,1,526,NaN,oven,bottle,270,0526_rot_dnn_270_bottle_20_n03983396_5497.png,n03983396_5497.png,0.0,-0.11611327,3.881092,-2.826451
alexnet_w1_mlp_simclrhn_probe3,1,527,NaN,oven,chair,180,0527_rot_dnn_180_chair_20_n04429376_6390.png,n04429376_6390.png,0.0,2.577452,4.06988,-1.0553061
alexnet_w1_mlp_simclrhn_probe3,1,528,NaN,cat,dog,90,0528_rot_dnn_90_dog_20_n02100877_11159.png,n02100877_11159.png,0.0,0.8666445,1.8732029,-0.7117443
alexnet_w1_mlp_simclrhn_probe3,1,529,NaN,bottle,bottle,180,0529_rot_dnn_180_bottle_20_n04579145_579.png,n04579145_579.png,1.0,2.1105602,1.8821787,0.16149013
alexnet_w1_mlp_simclrhn_probe3,1,530,NaN,cat,cat,90,0530_rot_dnn_90_cat_20_n02123159_5678.png,n02123159_5678.png,1.0,6.218597,0.42071116,4.0997243
alexnet_w1_mlp_simclrhn_probe3,1,531,NaN,elephant,elephant,180,0531_rot_dnn_180_elephant_20_n02504013_13283.png,n02504013_13283.png,1.0,1.545145,0.949506,0.42118043
alexnet_w1_mlp_simclrhn_probe3,1,532,NaN,oven,dog,90,0532_rot_dnn_90_dog_20_n02095570_7633.png,n02095570_7633.png,0.0,0.08567535,1.3284378,-0.87876576
alexnet_w1_mlp_simclrhn_probe3,1,533,NaN,chair,clock,180,0533_rot_dnn_180_clock_20_n02708093_8311.png,n02708093_8311.png,0.0,1.6248916,2.8763812,-0.88493675
alexnet_w1_mlp_simclrhn_probe3,1,534,NaN,chair,chair,270,0534_rot_dnn_270_chair_20_n03376595_426.png,n03376595_426.png,1.0,2.4550495,1.2611072,0.8442447
alexnet_w1_mlp_simclrhn_probe3,1,535,NaN,oven,dog,180,0535_rot_dnn_180_dog_20_n02100877_3112.png,n02100877_3112.png,0.0,0.1005195,1.5564203,-1.0294774
alexnet_w1_mlp_simclrhn_probe3,1,536,NaN,chair,car,270,0536_rot_dnn_270_car_20_n02814533_458.png,n02814533_458.png,0.0,0.94809484,2.22671,-0.9041175
alexnet_w1_mlp_simclrhn_probe3,1,537,NaN,bird,bird,0,0537_rot_dnn_0_bird_20_n02006656_5079.png,n02006656_5079.png,1.0,4.3021946,0.43443584,2.7349186
alexnet_w1_mlp_simclrhn_probe3,1,538,NaN,clock,boat,90,0538_rot_dnn_90_boat_20_n04273569_12725.png,n04273569_12725.png,0.0,-0.66982794,1.2837591,-1.3813946
alexnet_w1_mlp_simclrhn_probe3,1,539,NaN,cat,cat,270,0539_rot_dnn_270_cat_20_n02123045_6677.png,n02123045_6677.png,1.0,5.9619956,1.1846607,3.378086
alexnet_w1_mlp_simclrhn_probe3,1,540,NaN,bicycle,bicycle,270,0540_rot_dnn_270_bicycle_20_n02835271_4440.png,n02835271_4440.png,1.0,3.1456888,0.32246867,1.9963181
alexnet_w1_mlp_simclrhn_probe3,1,541,NaN,keyboard,keyboard,270,0541_rot_dnn_270_keyboard_20_n03085013_21444.png,n03085013_21444.png,1.0,2.8496685,1.4551921,0.98604375
alexnet_w1_mlp_simclrhn_probe3,1,542,NaN,chair,clock,180,0542_rot_dnn_180_clock_20_n02708093_8255.png,n02708093_8255.png,0.0,2.0836127,2.2984276,-0.15189707
alexnet_w1_mlp_simclrhn_probe3,1,543,NaN,bicycle,bicycle,0,0543_rot_dnn_0_bicycle_20_n02835271_30318.png,n02835271_30318.png,1.0,2.258084,1.0706583,0.8396368
alexnet_w1_mlp_simclrhn_probe3,1,544,NaN,cat,cat,180,0544_rot_dnn_180_cat_20_n02123394_2059.png,n02123394_2059.png,1.0,3.3099592,1.734298,1.1141608
alexnet_w1_mlp_simclrhn_probe3,1,545,NaN,elephant,elephant,180,0545_rot_dnn_180_elephant_20_n02504013_6618.png,n02504013_6618.png,1.0,3.7025065,2.3444908,0.9602622
alexnet_w1_mlp_simclrhn_probe3,1,546,NaN,oven,cat,270,0546_rot_dnn_270_cat_20_n02124075_8889.png,n02124075_8889.png,0.0,1.4976405,1.7365448,-0.16893089
alexnet_w1_mlp_simclrhn_probe3,1,547,NaN,bird,dog,90,0547_rot_dnn_90_dog_20_n02100877_7302.png,n02100877_7302.png,0.0,-0.21256705,1.0017128,-0.85862553
alexnet_w1_mlp_simclrhn_probe3,1,548,NaN,chair,car,180,0548_rot_dnn_180_car_20_n02814533_85971.png,n02814533_85971.png,0.0,0.86119103,2.3361437,-1.0429491
alexnet_w1_mlp_simclrhn_probe3,1,549,NaN,chair,chair,0,0549_rot_dnn_0_chair_20_n03376595_5909.png,n03376595_5909.png,1.0,3.3734303,2.3845627,0.69923496
alexnet_w1_mlp_simclrhn_probe3,1,550,NaN,clock,keyboard,270,0550_rot_dnn_270_keyboard_20_n03085013_13083.png,n03085013_13083.png,0.0,-0.18091935,1.3269198,-1.0662034
alexnet_w1_mlp_simclrhn_probe3,1,551,NaN,chair,oven,90,0551_rot_dnn_90_oven_20_n04111531_9611.png,n04111531_9611.png,0.0,0.6293563,1.9518987,-0.93517876
alexnet_w1_mlp_simclrhn_probe3,1,552,NaN,boat,boat,0,0552_rot_dnn_0_boat_20_n02951358_13996.png,n02951358_13996.png,1.0,1.2322189,1.2171577,0.010649835
alexnet_w1_mlp_simclrhn_probe3,1,553,NaN,boat,boat,0,0553_rot_dnn_0_boat_20_n03344393_9251.png,n03344393_9251.png,1.0,6.315988,3.6112778,1.912519
alexnet_w1_mlp_simclrhn_probe3,1,554,NaN,chair,airplane,180,0554_rot_dnn_180_airplane_20_n02690373_9175.png,n02690373_9175.png,0.0,0.8081169,3.851159,-2.1517558
alexnet_w1_mlp_simclrhn_probe3,1,555,NaN,elephant,bear,0,0555_rot_dnn_0_bear_20_n02132136_2791.png,n02132136_2791.png,0.0,3.2354138,4.7766333,-1.0898068
alexnet_w1_mlp_simclrhn_probe3,1,556,NaN,elephant,elephant,180,0556_rot_dnn_180_elephant_20_n02504458_193.png,n02504458_193.png,1.0,1.224643,1.0357071,0.13359784
alexnet_w1_mlp_simclrhn_probe3,1,557,NaN,bird,bird,270,0557_rot_dnn_270_bird_20_n01843383_9985.png,n01843383_9985.png,1.0,1.9159921,0.14352041,1.2533268
alexnet_w1_mlp_simclrhn_probe3,1,558,NaN,bird,bird,270,0558_rot_dnn_270_bird_20_n02028035_10744.png,n02028035_10744.png,1.0,1.020215,0.24352916,0.5491999
alexnet_w1_mlp_simclrhn_probe3,1,559,NaN,chair,truck,270,0559_rot_dnn_270_truck_20_n04467665_3720.png,n04467665_3720.png,0.0,1.1058893,4.4543834,-2.3677428
alexnet_w1_mlp_simclrhn_probe3,1,560,NaN,car,car,0,0560_rot_dnn_0_car_20_n02814533_52605.png,n02814533_52605.png,1.0,4.74722,3.3206036,1.0087702
alexnet_w1_mlp_simclrhn_probe3,1,561,NaN,clock,clock,90,0561_rot_dnn_90_clock_20_n04548280_5631.png,n04548280_5631.png,1.0,10.464248,2.045434,5.9530005
alexnet_w1_mlp_simclrhn_probe3,1,562,NaN,oven,oven,0,0562_rot_dnn_0_oven_20_n04111531_1922.png,n04111531_1922.png,1.0,5.2934246,0.5351824,3.3645854
alexnet_w1_mlp_simclrhn_probe3,1,563,NaN,airplane,boat,180,0563_rot_dnn_180_boat_20_n03662601_1197.png,n03662601_1197.png,0.0,0.8315021,3.9357054,-2.1950033
alexnet_w1_mlp_simclrhn_probe3,1,564,NaN,clock,clock,270,0564_rot_dnn_270_clock_20_n02708093_1862.png,n02708093_1862.png,1.0,2.6654232,1.1583619,1.0656532
alexnet_w1_mlp_simclrhn_probe3,1,565,NaN,truck,truck,180,0565_rot_dnn_180_truck_20_n03796401_4582.png,n03796401_4582.png,1.0,3.1000028,2.5886152,0.36160564
alexnet_w1_mlp_simclrhn_probe3,1,566,NaN,bicycle,elephant,90,0566_rot_dnn_90_elephant_20_n02504013_565.png,n02504013_565.png,0.0,1.4292593,1.485851,-0.04001641
alexnet_w1_mlp_simclrhn_probe3,1,567,NaN,chair,truck,180,0567_rot_dnn_180_truck_20_n04467665_49826.png,n04467665_49826.png,0.0,1.838007,3.1654704,-0.93865836
alexnet_w1_mlp_simclrhn_probe3,1,568,NaN,bear,bear,270,0568_rot_dnn_270_bear_20_n02134418_5067.png,n02134418_5067.png,1.0,0.96024823,0.6512438,0.21849912
alexnet_w1_mlp_simclrhn_probe3,1,569,NaN,oven,chair,90,0569_rot_dnn_90_chair_20_n04429376_29223.png,n04429376_29223.png,0.0,2.0919592,2.8258739,-0.518956
alexnet_w1_mlp_simclrhn_probe3,1,570,NaN,clock,airplane,270,0570_rot_dnn_270_airplane_20_n02690373_5909.png,n02690373_5909.png,0.0,-1.2000489,0.904098,-1.4878566
alexnet_w1_mlp_simclrhn_probe3,1,571,NaN,knife,dog,270,0571_rot_dnn_270_dog_20_n02097658_722.png,n02097658_722.png,0.0,-0.5257521,0.80536115,-0.9412393
alexnet_w1_mlp_simclrhn_probe3,1,572,NaN,oven,oven,0,0572_rot_dnn_0_oven_20_n04111531_10339.png,n04111531_10339.png,1.0,4.341164,3.171195,0.8272931
alexnet_w1_mlp_simclrhn_probe3,1,573,NaN,bottle,truck,90,0573_rot_dnn_90_truck_20_n03417042_28078.png,n03417042_28078.png,0.0,0.33532494,3.5322464,-2.2605648
alexnet_w1_mlp_simclrhn_probe3,1,574,NaN,oven,chair,180,0574_rot_dnn_180_chair_20_n04099969_22118.png,n04099969_22118.png,0.0,2.7159765,3.832943,-0.7898146
alexnet_w1_mlp_simclrhn_probe3,1,575,NaN,oven,clock,270,0575_rot_dnn_270_clock_20_n04548280_7978.png,n04548280_7978.png,0.0,-0.39123845,3.6216826,-2.837564
alexnet_w1_mlp_simclrhn_probe3,1,576,NaN,bear,bear,180,0576_rot_dnn_180_bear_20_n02133161_1962.png,n02133161_1962.png,1.0,2.7482667,1.9248159,0.58226764
alexnet_w1_mlp_simclrhn_probe3,1,577,NaN,knife,clock,180,0577_rot_dnn_180_clock_20_n04548280_13750.png,n04548280_13750.png,0.0,-0.009837429,0.9116355,-0.6515798
alexnet_w1_mlp_simclrhn_probe3,1,578,NaN,keyboard,keyboard,0,0578_rot_dnn_0_keyboard_20_n03085013_15249.png,n03085013_15249.png,1.0,2.174998,1.9627172,0.15010524
alexnet_w1_mlp_simclrhn_probe3,1,579,NaN,chair,car,90,0579_rot_dnn_90_car_20_n02814533_479.png,n02814533_479.png,0.0,-0.06324185,3.0791855,-2.2220318
alexnet_w1_mlp_simclrhn_probe3,1,580,NaN,knife,keyboard,270,0580_rot_dnn_270_keyboard_20_n03085013_20716.png,n03085013_20716.png,0.0,0.15556997,0.4963073,-0.2409377
alexnet_w1_mlp_simclrhn_probe3,1,581,NaN,bird,bird,180,0581_rot_dnn_180_bird_20_n01530575_7990.png,n01530575_7990.png,1.0,1.5364096,0.3067493,0.8695011
alexnet_w1_mlp_simclrhn_probe3,1,582,NaN,chair,chair,0,0582_rot_dnn_0_chair_20_n04429376_17343.png,n04429376_17343.png,1.0,1.5527714,1.2219207,0.23394679
alexnet_w1_mlp_simclrhn_probe3,1,583,NaN,chair,chair,90,0583_rot_dnn_90_chair_20_n02791124_8775.png,n02791124_8775.png,1.0,2.9204702,1.4681991,1.0269108
alexnet_w1_mlp_simclrhn_probe3,1,584,NaN,cat,cat,90,0584_rot_dnn_90_cat_20_n02125311_2959.png,n02125311_2959.png,1.0,2.8657017,0.9575604,1.3492596
alexnet_w1_mlp_simclrhn_probe3,1,585,NaN,oven,oven,180,0585_rot_dnn_180_oven_20_n04111531_13906.png,n04111531_13906.png,1.0,3.063675,1.6427152,1.0047703
alexnet_w1_mlp_simclrhn_probe3,1,586,NaN,chair,airplane,90,0586_rot_dnn_90_airplane_20_n02690373_7293.png,n02690373_7293.png,0.0,-0.042640314,1.6770366,-1.2159953
alexnet_w1_mlp_simclrhn_probe3,1,587,NaN,chair,chair,180,0587_rot_dnn_180_chair_20_n04099969_10825.png,n04099969_10825.png,1.0,2.672218,1.5959373,0.7610455
alexnet_w1_mlp_simclrhn_probe3,1,588,NaN,airplane,airplane,180,0588_rot_dnn_180_airplane_20_n02690373_17044.png,n02690373_17044.png,1.0,5.888666,1.8026043,2.8892822
alexnet_w1_mlp_simclrhn_probe3,1,589,NaN,bird,bird,0,0589_rot_dnn_0_bird_20_n01797886_6169.png,n01797886_6169.png,1.0,1.9891998,1.1944649,0.5619624
alexnet_w1_mlp_simclrhn_probe3,1,590,NaN,truck,oven,0,0590_rot_dnn_0_oven_20_n04111531_13255.png,n04111531_13255.png,0.0,-0.3699252,2.5935185,-2.0954711
alexnet_w1_mlp_simclrhn_probe3,1,591,NaN,cat,knife,270,0591_rot_dnn_270_knife_20_n03041632_17820.png,n03041632_17820.png,0.0,-0.09117176,0.7864714,-0.62058747
alexnet_w1_mlp_simclrhn_probe3,1,592,NaN,bicycle,bicycle,270,0592_rot_dnn_270_bicycle_20_n02835271_21640.png,n02835271_21640.png,1.0,1.2359731,0.80212563,0.3067765
alexnet_w1_mlp_simclrhn_probe3,1,593,NaN,bear,bear,0,0593_rot_dnn_0_bear_20_n02134418_517.png,n02134418_517.png,1.0,4.061289,3.2528841,0.57162845
alexnet_w1_mlp_simclrhn_probe3,1,594,NaN,chair,airplane,180,0594_rot_dnn_180_airplane_20_n02690373_4588.png,n02690373_4588.png,0.0,-0.020630695,2.9613771,-2.108598
alexnet_w1_mlp_simclrhn_probe3,1,595,NaN,chair,bottle,270,0595_rot_dnn_270_bottle_20_n02823428_12190.png,n02823428_12190.png,0.0,0.7606069,2.1597786,-0.98936385
alexnet_w1_mlp_simclrhn_probe3,1,596,NaN,bottle,bottle,0,0596_rot_dnn_0_bottle_20_n04591713_1717.png,n04591713_1717.png,1.0,2.8329377,2.008563,0.5829209
alexnet_w1_mlp_simclrhn_probe3,1,597,NaN,knife,knife,0,0597_rot_dnn_0_knife_20_n03041632_9488.png,n03041632_9488.png,1.0,2.5036633,0.4687228,1.4389203
alexnet_w1_mlp_simclrhn_probe3,1,598,NaN,chair,truck,90,0598_rot_dnn_90_truck_20_n03417042_11166.png,n03417042_11166.png,0.0,0.57954955,1.7615457,-0.8357975
alexnet_w1_mlp_simclrhn_probe3,1,599,NaN,elephant,elephant,90,0599_rot_dnn_90_elephant_20_n02504458_585.png,n02504458_585.png,1.0,1.3270228,1.0538064,0.19319315
alexnet_w1_mlp_simclrhn_probe3,1,600,NaN,oven,keyboard,0,0600_rot_dnn_0_keyboard_20_n04505470_5046.png,n04505470_5046.png,0.0,2.152394,2.7623012,-0.4312695
alexnet_w1_mlp_simclrhn_probe3,1,601,NaN,chair,chair,180,0601_rot_dnn_180_chair_20_n03376595_4937.png,n03376595_4937.png,1.0,4.1126976,2.1322806,1.4003663
alexnet_w1_mlp_simclrhn_probe3,1,602,NaN,oven,boat,180,0602_rot_dnn_180_boat_20_n03662601_1740.png,n03662601_1740.png,0.0,0.4250041,2.3901772,-1.3895873
alexnet_w1_mlp_simclrhn_probe3,1,603,NaN,knife,knife,0,0603_rot_dnn_0_knife_20_n03041632_4037.png,n03041632_4037.png,1.0,1.227828,1.203853,0.016952896
alexnet_w1_mlp_simclrhn_probe3,1,604,NaN,bicycle,boat,0,0604_rot_dnn_0_boat_20_n04273569_1538.png,n04273569_1538.png,0.0,0.4184032,3.8215556,-2.4063923
alexnet_w1_mlp_simclrhn_probe3,1,605,NaN,bird,bird,0,0605_rot_dnn_0_bird_20_n02017213_15918.png,n02017213_15918.png,1.0,1.1943239,0.725666,0.3313912
alexnet_w1_mlp_simclrhn_probe3,1,606,NaN,keyboard,keyboard,0,0606_rot_dnn_0_keyboard_20_n03085013_10463.png,n03085013_10463.png,1.0,6.1106806,2.6257067,2.4642487
alexnet_w1_mlp_simclrhn_probe3,1,607,NaN,bear,bear,270,0607_rot_dnn_270_bear_20_n02133161_7939.png,n02133161_7939.png,1.0,2.9892945,2.7317188,0.18213356
alexnet_w1_mlp_simclrhn_probe3,1,608,NaN,chair,car,270,0608_rot_dnn_270_car_20_n04285008_11704.png,n04285008_11704.png,0.0,0.26640633,1.7629625,-1.058225
alexnet_w1_mlp_simclrhn_probe3,1,609,NaN,clock,truck,90,0609_rot_dnn_90_truck_20_n03796401_16046.png,n03796401_16046.png,0.0,-0.023547137,3.0333488,-2.161552
alexnet_w1_mlp_simclrhn_probe3,1,610,NaN,clock,chair,270,0610_rot_dnn_270_chair_20_n02791124_3710.png,n02791124_3710.png,0.0,2.370828,2.8136895,-0.3131504
alexnet_w1_mlp_simclrhn_probe3,1,611,NaN,keyboard,keyboard,180,0611_rot_dnn_180_keyboard_20_n04505470_3566.png,n04505470_3566.png,1.0,5.690383,3.786645,1.3461461
alexnet_w1_mlp_simclrhn_probe3,1,612,NaN,oven,bird,90,0612_rot_dnn_90_bird_20_n02037110_8716.png,n02037110_8716.png,0.0,-0.74058247,0.908219,-1.1658787
alexnet_w1_mlp_simclrhn_probe3,1,613,NaN,car,car,0,0613_rot_dnn_0_car_20_n03100240_19550.png,n03100240_19550.png,1.0,7.528418,5.3984156,1.5061393
alexnet_w1_mlp_simclrhn_probe3,1,614,NaN,airplane,airplane,270,0614_rot_dnn_270_airplane_20_n02690373_10769.png,n02690373_10769.png,1.0,2.134566,1.3071254,0.5850889
alexnet_w1_mlp_simclrhn_probe3,1,615,NaN,bicycle,bicycle,0,0615_rot_dnn_0_bicycle_20_n03792782_3456.png,n03792782_3456.png,1.0,3.2341073,0.8370181,1.6949981
alexnet_w1_mlp_simclrhn_probe3,1,616,NaN,airplane,chair,0,0616_rot_dnn_0_chair_20_n03376595_2368.png,n03376595_2368.png,0.0,0.61885583,1.7200041,-0.7786294
alexnet_w1_mlp_simclrhn_probe3,1,617,NaN,cat,dog,0,0617_rot_dnn_0_dog_20_n02091467_2974.png,n02091467_2974.png,0.0,0.90246826,1.4719304,-0.40267053
alexnet_w1_mlp_simclrhn_probe3,1,618,NaN,knife,knife,180,0618_rot_dnn_180_knife_20_n03041632_43634.png,n03041632_43634.png,1.0,3.3001442,1.1486497,1.5213364
alexnet_w1_mlp_simclrhn_probe3,1,619,NaN,keyboard,keyboard,180,0619_rot_dnn_180_keyboard_20_n04505470_4477.png,n04505470_4477.png,1.0,5.144264,1.9788554,2.2382822
alexnet_w1_mlp_simclrhn_probe3,1,620,NaN,clock,boat,90,0620_rot_dnn_90_boat_20_n03344393_4773.png,n03344393_4773.png,0.0,-1.052589,1.1062526,-1.5265316
alexnet_w1_mlp_simclrhn_probe3,1,621,NaN,airplane,airplane,180,0621_rot_dnn_180_airplane_20_n02690373_139.png,n02690373_139.png,1.0,3.1063087,2.4920511,0.4343457
alexnet_w1_mlp_simclrhn_probe3,1,622,NaN,chair,knife,270,0622_rot_dnn_270_knife_20_n03041632_737.png,n03041632_737.png,0.0,1.4319901,2.9597645,-1.0802996
alexnet_w1_mlp_simclrhn_probe3,1,623,NaN,oven,chair,270,0623_rot_dnn_270_chair_20_n02791124_2698.png,n02791124_2698.png,0.0,1.9444137,4.470392,-1.7861366
alexnet_w1_mlp_simclrhn_probe3,1,624,NaN,bottle,truck,270,0624_rot_dnn_270_truck_20_n03417042_5301.png,n03417042_5301.png,0.0,1.8442515,3.3027728,-1.0313302
alexnet_w1_mlp_simclrhn_probe3,1,625,NaN,bird,bird,0,0625_rot_dnn_0_bird_20_n02006656_5757.png,n02006656_5757.png,1.0,3.1761892,0.084499665,2.1861546
alexnet_w1_mlp_simclrhn_probe3,1,626,NaN,bear,bear,270,0626_rot_dnn_270_bear_20_n02132136_15174.png,n02132136_15174.png,1.0,1.8961763,1.3383039,0.39447537
alexnet_w1_mlp_simclrhn_probe3,1,627,NaN,clock,bottle,270,0627_rot_dnn_270_bottle_20_n04560804_6329.png,n04560804_6329.png,0.0,0.9654994,1.7555432,-0.55864537
alexnet_w1_mlp_simclrhn_probe3,1,628,NaN,truck,truck,0,0628_rot_dnn_0_truck_20_n03417042_22196.png,n03417042_22196.png,1.0,3.6497931,2.7094815,0.6649008
alexnet_w1_mlp_simclrhn_probe3,1,629,NaN,cat,cat,0,0629_rot_dnn_0_cat_20_n02125311_18366.png,n02125311_18366.png,1.0,3.63245,2.8574686,0.5479947
alexnet_w1_mlp_simclrhn_probe3,1,630,NaN,chair,chair,0,0630_rot_dnn_0_chair_20_n02791124_12707.png,n02791124_12707.png,1.0,3.1427937,2.5752554,0.40131015
alexnet_w1_mlp_simclrhn_probe3,1,631,NaN,oven,oven,180,0631_rot_dnn_180_oven_20_n04111531_1938.png,n04111531_1938.png,1.0,2.9585154,1.5210452,1.0164449
alexnet_w1_mlp_simclrhn_probe3,1,632,NaN,oven,airplane,270,0632_rot_dnn_270_airplane_20_n02690373_9346.png,n02690373_9346.png,0.0,-1.2051034,1.7902565,-2.1180394
alexnet_w1_mlp_simclrhn_probe3,1,633,NaN,bear,cat,0,0633_rot_dnn_0_cat_20_n02123045_10433.png,n02123045_10433.png,0.0,0.114144176,1.6566736,-1.0907329
alexnet_w1_mlp_simclrhn_probe3,1,634,NaN,airplane,airplane,180,0634_rot_dnn_180_airplane_20_n02690373_5055.png,n02690373_5055.png,1.0,4.0375814,1.8440613,1.5510529
alexnet_w1_mlp_simclrhn_probe3,1,635,NaN,clock,clock,270,0635_rot_dnn_270_clock_20_n04548280_4198.png,n04548280_4198.png,1.0,0.67161036,0.36659577,0.21567789
alexnet_w1_mlp_simclrhn_probe3,1,636,NaN,bicycle,bicycle,90,0636_rot_dnn_90_bicycle_20_n03792782_12010.png,n03792782_12010.png,1.0,2.986598,2.1511238,0.5907695
alexnet_w1_mlp_simclrhn_probe3,1,637,NaN,cat,cat,180,0637_rot_dnn_180_cat_20_n02125311_24586.png,n02125311_24586.png,1.0,2.6828773,1.6375312,0.7391714
alexnet_w1_mlp_simclrhn_probe3,1,638,NaN,oven,chair,0,0638_rot_dnn_0_chair_20_n02791124_3220.png,n02791124_3220.png,0.0,1.7227001,2.5756311,-0.6031133
alexnet_w1_mlp_simclrhn_probe3,1,639,NaN,bottle,car,90,0639_rot_dnn_90_car_20_n04285008_12737.png,n04285008_12737.png,0.0,0.4655446,3.5698109,-2.1950476
alexnet_w1_mlp_simclrhn_probe3,1,640,NaN,bottle,chair,180,0640_rot_dnn_180_chair_20_n04429376_4296.png,n04429376_4296.png,0.0,1.8704904,3.4510224,-1.1176049
