subj,session,trial,rt,object_response,category,condition,imagename,filename,is_correct,targ_act,max_nontarg_act,decision_margin
alexnet_w1_mlp_simclrhn_probe1,1,1,NaN,bicycle,chair,0,0001_rot_dnn_0_chair_20_n03376595_3070.png,n03376595_3070.png,0.0,-2.1515274,2.2706046,-3.1269195
alexnet_w1_mlp_simclrhn_probe1,1,2,NaN,car,car,180,0002_rot_dnn_180_car_20_n02814533_29367.png,n02814533_29367.png,1.0,1.652626,-1.1489943,1.9810449
alexnet_w1_mlp_simclrhn_probe1,1,3,NaN,knife,car,270,0003_rot_dnn_270_car_20_n02814533_31083.png,n02814533_31083.png,0.0,-7.14357,-1.4165417,-4.0496206
alexnet_w1_mlp_simclrhn_probe1,1,4,NaN,airplane,car,180,0004_rot_dnn_180_car_20_n03100240_1703.png,n03100240_1703.png,0.0,1.0605786,2.5149841,-1.0284201
alexnet_w1_mlp_simclrhn_probe1,1,5,NaN,bottle,bottle,180,0005_rot_dnn_180_bottle_20_n04591713_2359.png,n04591713_2359.png,1.0,-1.4091012,-1.9017593,0.34836182
alexnet_w1_mlp_simclrhn_probe1,1,6,NaN,dog,dog,90,0006_rot_dnn_90_dog_20_n02111500_8796.png,n02111500_8796.png,1.0,-1.9931688,-2.9069564,0.6461454
alexnet_w1_mlp_simclrhn_probe1,1,7,NaN,oven,bear,180,0007_rot_dnn_180_bear_20_n02132136_4512.png,n02132136_4512.png,0.0,-1.1418662,-1.0276172,-0.080786236
alexnet_w1_mlp_simclrhn_probe1,1,8,NaN,chair,chair,90,0008_rot_dnn_90_chair_20_n03376595_4820.png,n03376595_4820.png,1.0,0.2129178,-1.8914258,1.4879957
alexnet_w1_mlp_simclrhn_probe1,1,9,NaN,keyboard,bottle,270,0009_rot_dnn_270_bottle_20_n04591713_6111.png,n04591713_6111.png,0.0,-1.8713084,2.0298157,-2.7585113
alexnet_w1_mlp_simclrhn_probe1,1,10,NaN,oven,bottle,270,0010_rot_dnn_270_bottle_20_n04560804_14111.png,n04560804_14111.png,0.0,-1.922764,-1.0178547,-0.6398675
alexnet_w1_mlp_simclrhn_probe1,1,11,NaN,elephant,dog,0,0011_rot_dnn_0_dog_20_n02099601_8656.png,n02099601_8656.png,0.0,0.65797293,3.2911925,-1.8619676
alexnet_w1_mlp_simclrhn_probe1,1,12,NaN,cat,cat,0,0012_rot_dnn_0_cat_20_n02125311_14054.png,n02125311_14054.png,1.0,-1.6124816,-1.9839681,0.26268065
alexnet_w1_mlp_simclrhn_probe1,1,13,NaN,bear,bear,0,0013_rot_dnn_0_bear_20_n02132136_10385.png,n02132136_10385.png,1.0,-3.1678488,-3.425609,0.18226404
alexnet_w1_mlp_simclrhn_probe1,1,14,NaN,clock,bottle,90,0014_rot_dnn_90_bottle_20_n02823428_10417.png,n02823428_10417.png,0.0,-0.9733814,0.36548558,-0.9467219
alexnet_w1_mlp_simclrhn_probe1,1,15,NaN,knife,keyboard,0,0015_rot_dnn_0_keyboard_20_n03085013_23566.png,n03085013_23566.png,0.0,-5.196433,-2.025096,-2.242474
alexnet_w1_mlp_simclrhn_probe1,1,16,NaN,bottle,truck,90,0016_rot_dnn_90_truck_20_n03417042_12560.png,n03417042_12560.png,0.0,-3.1503468,0.335577,-2.4649203
alexnet_w1_mlp_simclrhn_probe1,1,17,NaN,airplane,truck,180,0017_rot_dnn_180_truck_20_n04467665_69063.png,n04467665_69063.png,0.0,-1.7907203,1.7509491,-2.5043385
alexnet_w1_mlp_simclrhn_probe1,1,18,NaN,oven,oven,180,0018_rot_dnn_180_oven_20_n04111531_9712.png,n04111531_9712.png,1.0,1.470762,-0.27191973,1.2322621
alexnet_w1_mlp_simclrhn_probe1,1,19,NaN,oven,oven,180,0019_rot_dnn_180_oven_20_n04111531_10375.png,n04111531_10375.png,1.0,5.652139,-0.226405,4.156759
alexnet_w1_mlp_simclrhn_probe1,1,20,NaN,oven,keyboard,0,0020_rot_dnn_0_keyboard_20_n04505470_1744.png,n04505470_1744.png,0.0,1.7349049,2.4393878,-0.49814466
alexnet_w1_mlp_simclrhn_probe1,1,21,NaN,elephant,boat,90,0021_rot_dnn_90_boat_20_n04273569_7296.png,n04273569_7296.png,0.0,-6.6164412,-1.1455992,-3.8684695
alexnet_w1_mlp_simclrhn_probe1,1,22,NaN,bear,dog,0,0022_rot_dnn_0_dog_20_n02101006_4807.png,n02101006_4807.png,0.0,1.0565203,2.3193774,-0.8929748
alexnet_w1_mlp_simclrhn_probe1,1,23,NaN,clock,clock,90,0023_rot_dnn_90_clock_20_n02708093_1986.png,n02708093_1986.png,1.0,7.052447,-0.5453114,5.3724265
alexnet_w1_mlp_simclrhn_probe1,1,24,NaN,bottle,bottle,0,0024_rot_dnn_0_bottle_20_n04560804_15562.png,n04560804_15562.png,1.0,3.8516233,-1.5068859,3.7890382
alexnet_w1_mlp_simclrhn_probe1,1,25,NaN,cat,cat,0,0025_rot_dnn_0_cat_20_n02124075_13594.png,n02124075_13594.png,1.0,0.4296054,-3.5277948,2.7983046
alexnet_w1_mlp_simclrhn_probe1,1,26,NaN,elephant,bear,90,0026_rot_dnn_90_bear_20_n02134418_4365.png,n02134418_4365.png,0.0,-1.5782331,-1.5573137,-0.014792279
alexnet_w1_mlp_simclrhn_probe1,1,27,NaN,bear,bear,180,0027_rot_dnn_180_bear_20_n02132136_8650.png,n02132136_8650.png,1.0,0.07156047,-2.6210828,1.9039862
alexnet_w1_mlp_simclrhn_probe1,1,28,NaN,bird,bird,90,0028_rot_dnn_90_bird_20_n02009912_12219.png,n02009912_12219.png,1.0,-2.1178584,-2.1448402,0.019079035
alexnet_w1_mlp_simclrhn_probe1,1,29,NaN,bicycle,dog,90,0029_rot_dnn_90_dog_20_n02100236_1662.png,n02100236_1662.png,0.0,-4.8941045,-3.1902194,-1.2048287
alexnet_w1_mlp_simclrhn_probe1,1,30,NaN,clock,clock,90,0030_rot_dnn_90_clock_20_n04548280_1947.png,n04548280_1947.png,1.0,6.8616614,0.7604774,4.3141885
alexnet_w1_mlp_simclrhn_probe1,1,31,NaN,bird,dog,270,0031_rot_dnn_270_dog_20_n02109047_66167.png,n02109047_66167.png,0.0,-4.5892363,-1.0623327,-2.4938974
alexnet_w1_mlp_simclrhn_probe1,1,32,NaN,oven,oven,90,0032_rot_dnn_90_oven_20_n04111531_21055.png,n04111531_21055.png,1.0,6.319578,1.0048537,3.7580779
alexnet_w1_mlp_simclrhn_probe1,1,33,NaN,truck,clock,0,0033_rot_dnn_0_clock_20_n02708093_2012.png,n02708093_2012.png,0.0,-1.9265698,-0.1080035,-1.2859206
alexnet_w1_mlp_simclrhn_probe1,1,34,NaN,elephant,elephant,0,0034_rot_dnn_0_elephant_20_n02504458_6119.png,n02504458_6119.png,1.0,4.105649,0.015037671,2.8924992
alexnet_w1_mlp_simclrhn_probe1,1,35,NaN,chair,chair,0,0035_rot_dnn_0_chair_20_n04099969_12707.png,n04099969_12707.png,1.0,5.0178566,-1.7128904,4.759357
alexnet_w1_mlp_simclrhn_probe1,1,36,NaN,clock,keyboard,270,0036_rot_dnn_270_keyboard_20_n03085013_19054.png,n03085013_19054.png,0.0,-1.9965475,-0.9790599,-0.71947235
alexnet_w1_mlp_simclrhn_probe1,1,37,NaN,chair,chair,0,0037_rot_dnn_0_chair_20_n02791124_422.png,n02791124_422.png,1.0,-0.6870249,-1.5084064,0.58080447
alexnet_w1_mlp_simclrhn_probe1,1,38,NaN,bicycle,bicycle,0,0038_rot_dnn_0_bicycle_20_n02835271_23830.png,n02835271_23830.png,1.0,9.30588,-2.5581234,8.389117
alexnet_w1_mlp_simclrhn_probe1,1,39,NaN,bird,bird,90,0039_rot_dnn_90_bird_20_n01534433_14735.png,n01534433_14735.png,1.0,-2.7390273,-3.6756084,0.66226286
alexnet_w1_mlp_simclrhn_probe1,1,40,NaN,bird,bird,90,0040_rot_dnn_90_bird_20_n02011460_13994.png,n02011460_13994.png,1.0,-0.54687697,-4.964471,3.1237106
alexnet_w1_mlp_simclrhn_probe1,1,41,NaN,knife,boat,270,0041_rot_dnn_270_boat_20_n04273569_17522.png,n04273569_17522.png,0.0,-4.0210524,-2.240117,-1.2593114
alexnet_w1_mlp_simclrhn_probe1,1,42,NaN,cat,bear,180,0042_rot_dnn_180_bear_20_n02132136_5537.png,n02132136_5537.png,0.0,1.0881133,3.531782,-1.7279347
alexnet_w1_mlp_simclrhn_probe1,1,43,NaN,bear,bear,90,0043_rot_dnn_90_bear_20_n02132136_19248.png,n02132136_19248.png,1.0,3.9791927,2.3076823,1.1819364
alexnet_w1_mlp_simclrhn_probe1,1,44,NaN,airplane,bird,270,0044_rot_dnn_270_bird_20_n01537544_1886.png,n01537544_1886.png,0.0,-2.2318337,-0.66716224,-1.1063899
alexnet_w1_mlp_simclrhn_probe1,1,45,NaN,clock,clock,180,0045_rot_dnn_180_clock_20_n03196217_4776.png,n03196217_4776.png,1.0,2.0448334,0.14565462,1.3429222
alexnet_w1_mlp_simclrhn_probe1,1,46,NaN,chair,boat,270,0046_rot_dnn_270_boat_20_n04612504_17610.png,n04612504_17610.png,0.0,-5.610662,1.2672708,-4.863433
alexnet_w1_mlp_simclrhn_probe1,1,47,NaN,elephant,bear,90,0047_rot_dnn_90_bear_20_n02134418_1814.png,n02134418_1814.png,0.0,-0.5063251,0.6240245,-0.7992779
alexnet_w1_mlp_simclrhn_probe1,1,48,NaN,keyboard,keyboard,180,0048_rot_dnn_180_keyboard_20_n03085013_20330.png,n03085013_20330.png,1.0,3.2530603,-0.5072746,2.6589584
alexnet_w1_mlp_simclrhn_probe1,1,49,NaN,bottle,bottle,180,0049_rot_dnn_180_bottle_20_n02823428_14574.png,n02823428_14574.png,1.0,2.00588,-0.24677864,1.5928704
alexnet_w1_mlp_simclrhn_probe1,1,50,NaN,bicycle,bicycle,0,0050_rot_dnn_0_bicycle_20_n03792782_7105.png,n03792782_7105.png,1.0,0.66971314,-2.779734,2.4391274
alexnet_w1_mlp_simclrhn_probe1,1,51,NaN,elephant,elephant,0,0051_rot_dnn_0_elephant_20_n02504458_1302.png,n02504458_1302.png,1.0,9.592737,2.3127465,5.147731
alexnet_w1_mlp_simclrhn_probe1,1,52,NaN,bottle,airplane,90,0052_rot_dnn_90_airplane_20_n02690373_3877.png,n02690373_3877.png,0.0,-8.398582,-1.6219736,-4.791786
alexnet_w1_mlp_simclrhn_probe1,1,53,NaN,truck,boat,90,0053_rot_dnn_90_boat_20_n02951358_15422.png,n02951358_15422.png,0.0,-4.336192,-1.5993725,-1.9352238
alexnet_w1_mlp_simclrhn_probe1,1,54,NaN,oven,car,270,0054_rot_dnn_270_car_20_n02814533_46458.png,n02814533_46458.png,0.0,-3.399328,-0.27305806,-2.2106066
alexnet_w1_mlp_simclrhn_probe1,1,55,NaN,car,car,0,0055_rot_dnn_0_car_20_n02814533_39547.png,n02814533_39547.png,1.0,13.001472,8.22178,3.379753
alexnet_w1_mlp_simclrhn_probe1,1,56,NaN,airplane,boat,180,0056_rot_dnn_180_boat_20_n04273569_6586.png,n04273569_6586.png,0.0,-0.008556604,0.5454945,-0.39177328
alexnet_w1_mlp_simclrhn_probe1,1,57,NaN,clock,clock,90,0057_rot_dnn_90_clock_20_n02708093_3394.png,n02708093_3394.png,1.0,-0.07089432,-0.98887,0.64910686
alexnet_w1_mlp_simclrhn_probe1,1,58,NaN,keyboard,keyboard,180,0058_rot_dnn_180_keyboard_20_n03085013_25419.png,n03085013_25419.png,1.0,3.1293178,1.502723,1.1501762
alexnet_w1_mlp_simclrhn_probe1,1,59,NaN,knife,bottle,180,0059_rot_dnn_180_bottle_20_n04557648_1871.png,n04557648_1871.png,0.0,-1.5104113,-1.2677616,-0.17157923
alexnet_w1_mlp_simclrhn_probe1,1,60,NaN,oven,chair,90,0060_rot_dnn_90_chair_20_n04099969_6944.png,n04099969_6944.png,0.0,-1.3221834,1.7156911,-2.1481016
alexnet_w1_mlp_simclrhn_probe1,1,61,NaN,bicycle,boat,270,0061_rot_dnn_270_boat_20_n04273569_1495.png,n04273569_1495.png,0.0,-3.6100216,-2.2766438,-0.9428405
alexnet_w1_mlp_simclrhn_probe1,1,62,NaN,keyboard,keyboard,90,0062_rot_dnn_90_keyboard_20_n03085013_7317.png,n03085013_7317.png,1.0,1.8031914,-0.88764423,1.9027082
alexnet_w1_mlp_simclrhn_probe1,1,63,NaN,knife,knife,90,0063_rot_dnn_90_knife_20_n03041632_7448.png,n03041632_7448.png,1.0,-0.4145483,-0.5496077,0.09550141
alexnet_w1_mlp_simclrhn_probe1,1,64,NaN,truck,truck,0,0064_rot_dnn_0_truck_20_n03417042_11000.png,n03417042_11000.png,1.0,2.3063219,0.3765582,1.364549
alexnet_w1_mlp_simclrhn_probe1,1,65,NaN,bird,bird,0,0065_rot_dnn_0_bird_20_n01582220_8827.png,n01582220_8827.png,1.0,0.77401793,-3.297474,2.8789794
alexnet_w1_mlp_simclrhn_probe1,1,66,NaN,bicycle,airplane,270,0066_rot_dnn_270_airplane_20_n02690373_9247.png,n02690373_9247.png,0.0,-10.993344,-1.0952629,-6.999001
alexnet_w1_mlp_simclrhn_probe1,1,67,NaN,bear,bear,270,0067_rot_dnn_270_bear_20_n02133161_14397.png,n02133161_14397.png,1.0,1.626652,0.5467164,0.76362973
alexnet_w1_mlp_simclrhn_probe1,1,68,NaN,oven,oven,270,0068_rot_dnn_270_oven_20_n04111531_13560.png,n04111531_13560.png,1.0,2.4519858,-0.80343217,2.3019283
alexnet_w1_mlp_simclrhn_probe1,1,69,NaN,bear,bear,180,0069_rot_dnn_180_bear_20_n02132136_545.png,n02132136_545.png,1.0,-1.3540657,-1.3999326,0.032432843
alexnet_w1_mlp_simclrhn_probe1,1,70,NaN,elephant,cat,90,0070_rot_dnn_90_cat_20_n02125311_73072.png,n02125311_73072.png,0.0,-2.3655612,2.7139294,-3.5917423
alexnet_w1_mlp_simclrhn_probe1,1,71,NaN,bicycle,bicycle,0,0071_rot_dnn_0_bicycle_20_n03792782_30530.png,n03792782_30530.png,1.0,3.687657,1.6259751,1.4578294
alexnet_w1_mlp_simclrhn_probe1,1,72,NaN,knife,knife,90,0072_rot_dnn_90_knife_20_n03041632_4975.png,n03041632_4975.png,1.0,-0.5192597,-2.1747234,1.1705896
alexnet_w1_mlp_simclrhn_probe1,1,73,NaN,knife,dog,90,0073_rot_dnn_90_dog_20_n02107683_3120.png,n02107683_3120.png,0.0,-4.4106236,-1.1197232,-2.327018
alexnet_w1_mlp_simclrhn_probe1,1,74,NaN,bear,elephant,90,0074_rot_dnn_90_elephant_20_n02504013_7316.png,n02504013_7316.png,0.0,-3.5934887,-2.2445695,-0.9538299
alexnet_w1_mlp_simclrhn_probe1,1,75,NaN,knife,truck,90,0075_rot_dnn_90_truck_20_n03796401_7284.png,n03796401_7284.png,0.0,-4.1721663,-0.19333997,-2.813455
alexnet_w1_mlp_simclrhn_probe1,1,76,NaN,chair,chair,270,0076_rot_dnn_270_chair_20_n03376595_497.png,n03376595_497.png,1.0,-0.17539732,-0.18243217,0.0049743922
alexnet_w1_mlp_simclrhn_probe1,1,77,NaN,truck,truck,270,0077_rot_dnn_270_truck_20_n03796401_19845.png,n03796401_19845.png,1.0,-0.66392195,-1.160738,0.351302
alexnet_w1_mlp_simclrhn_probe1,1,78,NaN,knife,chair,90,0078_rot_dnn_90_chair_20_n04099969_1941.png,n04099969_1941.png,0.0,-2.606707,-0.90798277,-1.2011795
alexnet_w1_mlp_simclrhn_probe1,1,79,NaN,bottle,truck,90,0079_rot_dnn_90_truck_20_n03417042_28886.png,n03417042_28886.png,0.0,-2.0799408,-0.11816134,-1.3871876
alexnet_w1_mlp_simclrhn_probe1,1,80,NaN,car,car,0,0080_rot_dnn_0_car_20_n02814533_12185.png,n02814533_12185.png,1.0,3.723643,-0.6925926,3.1227505
alexnet_w1_mlp_simclrhn_probe1,1,81,NaN,bicycle,bicycle,90,0081_rot_dnn_90_bicycle_20_n02835271_1621.png,n02835271_1621.png,1.0,3.584578,-0.42639098,2.8361835
alexnet_w1_mlp_simclrhn_probe1,1,82,NaN,cat,cat,0,0082_rot_dnn_0_cat_20_n02123597_32226.png,n02123597_32226.png,1.0,3.4590638,-0.84003675,3.0399232
alexnet_w1_mlp_simclrhn_probe1,1,83,NaN,bicycle,bicycle,90,0083_rot_dnn_90_bicycle_20_n03792782_5048.png,n03792782_5048.png,1.0,-0.62475055,-2.4711893,1.3056293
alexnet_w1_mlp_simclrhn_probe1,1,84,NaN,airplane,airplane,0,0084_rot_dnn_0_airplane_20_n02690373_10044.png,n02690373_10044.png,1.0,10.223985,4.9932556,3.698684
alexnet_w1_mlp_simclrhn_probe1,1,85,NaN,car,car,180,0085_rot_dnn_180_car_20_n03100240_5752.png,n03100240_5752.png,1.0,1.7324656,0.4794603,0.88600856
alexnet_w1_mlp_simclrhn_probe1,1,86,NaN,bottle,car,90,0086_rot_dnn_90_car_20_n02814533_68219.png,n02814533_68219.png,0.0,-3.5191739,0.42102876,-2.786144
alexnet_w1_mlp_simclrhn_probe1,1,87,NaN,airplane,airplane,0,0087_rot_dnn_0_airplane_20_n02690373_1171.png,n02690373_1171.png,1.0,4.538863,0.6593135,2.743256
alexnet_w1_mlp_simclrhn_probe1,1,88,NaN,oven,bird,90,0088_rot_dnn_90_bird_20_n01817953_6970.png,n01817953_6970.png,0.0,-6.304427,-0.46529996,-4.128886
alexnet_w1_mlp_simclrhn_probe1,1,89,NaN,knife,car,90,0089_rot_dnn_90_car_20_n04285008_15503.png,n04285008_15503.png,0.0,-3.1010692,-0.46181664,-1.8662335
alexnet_w1_mlp_simclrhn_probe1,1,90,NaN,chair,boat,270,0090_rot_dnn_270_boat_20_n03344393_11886.png,n03344393_11886.png,0.0,-0.8463461,-0.5275571,-0.22541787
alexnet_w1_mlp_simclrhn_probe1,1,91,NaN,boat,boat,0,0091_rot_dnn_0_boat_20_n04273569_30203.png,n04273569_30203.png,1.0,1.5121081,0.360034,0.81463945
alexnet_w1_mlp_simclrhn_probe1,1,92,NaN,keyboard,keyboard,180,0092_rot_dnn_180_keyboard_20_n03085013_22069.png,n03085013_22069.png,1.0,5.517283,0.42594567,3.600119
alexnet_w1_mlp_simclrhn_probe1,1,93,NaN,airplane,knife,0,0093_rot_dnn_0_knife_20_n03041632_26314.png,n03041632_26314.png,0.0,-1.3398395,-0.7800596,-0.39582416
alexnet_w1_mlp_simclrhn_probe1,1,94,NaN,bicycle,bicycle,270,0094_rot_dnn_270_bicycle_20_n03792782_18308.png,n03792782_18308.png,1.0,-2.5002308,-2.8643649,0.25748166
alexnet_w1_mlp_simclrhn_probe1,1,95,NaN,airplane,car,180,0095_rot_dnn_180_car_20_n04285008_8396.png,n04285008_8396.png,0.0,1.2201554,2.1886792,-0.6848498
alexnet_w1_mlp_simclrhn_probe1,1,96,NaN,oven,bear,90,0096_rot_dnn_90_bear_20_n02133161_12349.png,n02133161_12349.png,0.0,-2.2747917,-0.101831675,-1.5365148
alexnet_w1_mlp_simclrhn_probe1,1,97,NaN,bear,bear,270,0097_rot_dnn_270_bear_20_n02132136_18303.png,n02132136_18303.png,1.0,2.6326168,2.5225177,0.0778518
alexnet_w1_mlp_simclrhn_probe1,1,98,NaN,cat,cat,180,0098_rot_dnn_180_cat_20_n02123394_6853.png,n02123394_6853.png,1.0,2.1125581,0.08940709,1.4305837
alexnet_w1_mlp_simclrhn_probe1,1,99,NaN,knife,cat,180,0099_rot_dnn_180_cat_20_n02123597_4805.png,n02123597_4805.png,0.0,-4.6900635,-1.012563,-2.6003857
alexnet_w1_mlp_simclrhn_probe1,1,100,NaN,clock,car,0,0100_rot_dnn_0_car_20_n03100240_17587.png,n03100240_17587.png,0.0,-6.8827744,-0.4535122,-4.546175
alexnet_w1_mlp_simclrhn_probe1,1,101,NaN,bird,bird,180,0101_rot_dnn_180_bird_20_n01601694_19236.png,n01601694_19236.png,1.0,-1.8170851,-4.707238,2.0436468
alexnet_w1_mlp_simclrhn_probe1,1,102,NaN,cat,cat,0,0102_rot_dnn_0_cat_20_n02123597_2341.png,n02123597_2341.png,1.0,5.673388,-0.5451598,4.397177
alexnet_w1_mlp_simclrhn_probe1,1,103,NaN,bear,elephant,270,0103_rot_dnn_270_elephant_20_n02504013_7883.png,n02504013_7883.png,0.0,-0.030423686,0.4757488,-0.357918
alexnet_w1_mlp_simclrhn_probe1,1,104,NaN,bicycle,chair,270,0104_rot_dnn_270_chair_20_n03376595_14240.png,n03376595_14240.png,0.0,-5.6900353,-1.9633937,-2.6351337
alexnet_w1_mlp_simclrhn_probe1,1,105,NaN,airplane,airplane,0,0105_rot_dnn_0_airplane_20_n02690373_10188.png,n02690373_10188.png,1.0,6.437338,1.5575813,3.4505088
alexnet_w1_mlp_simclrhn_probe1,1,106,NaN,chair,truck,90,0106_rot_dnn_90_truck_20_n03417042_8634.png,n03417042_8634.png,0.0,-2.7376556,1.072847,-2.6944323
alexnet_w1_mlp_simclrhn_probe1,1,107,NaN,knife,knife,90,0107_rot_dnn_90_knife_20_n03041632_32774.png,n03041632_32774.png,1.0,0.028598178,-0.20818184,0.16742876
alexnet_w1_mlp_simclrhn_probe1,1,108,NaN,clock,bottle,90,0108_rot_dnn_90_bottle_20_n03983396_4115.png,n03983396_4115.png,0.0,-0.62993926,0.15890627,-0.557798
alexnet_w1_mlp_simclrhn_probe1,1,109,NaN,clock,clock,270,0109_rot_dnn_270_clock_20_n04548280_8552.png,n04548280_8552.png,1.0,1.7978834,0.45397893,0.950284
alexnet_w1_mlp_simclrhn_probe1,1,110,NaN,car,car,0,0110_rot_dnn_0_car_20_n02814533_6233.png,n02814533_6233.png,1.0,12.838756,6.1787477,4.7093368
alexnet_w1_mlp_simclrhn_probe1,1,111,NaN,elephant,elephant,0,0111_rot_dnn_0_elephant_20_n02504458_9870.png,n02504458_9870.png,1.0,4.846325,-1.081541,4.191634
alexnet_w1_mlp_simclrhn_probe1,1,112,NaN,bicycle,bicycle,270,0112_rot_dnn_270_bicycle_20_n02835271_3956.png,n02835271_3956.png,1.0,2.693843,-1.1752717,2.7358773
alexnet_w1_mlp_simclrhn_probe1,1,113,NaN,chair,knife,90,0113_rot_dnn_90_knife_20_n03041632_14817.png,n03041632_14817.png,0.0,-0.73726624,0.54983604,-0.9101187
alexnet_w1_mlp_simclrhn_probe1,1,114,NaN,oven,chair,90,0114_rot_dnn_90_chair_20_n04099969_8642.png,n04099969_8642.png,0.0,-4.359139,0.7408476,-3.606235
alexnet_w1_mlp_simclrhn_probe1,1,115,NaN,clock,clock,0,0115_rot_dnn_0_clock_20_n02708093_240.png,n02708093_240.png,1.0,5.3586726,2.3353627,2.137803
alexnet_w1_mlp_simclrhn_probe1,1,116,NaN,bear,bear,180,0116_rot_dnn_180_bear_20_n02133161_3896.png,n02133161_3896.png,1.0,0.62613213,-0.23498833,0.6089041
alexnet_w1_mlp_simclrhn_probe1,1,117,NaN,bicycle,bottle,270,0117_rot_dnn_270_bottle_20_n04557648_11000.png,n04557648_11000.png,0.0,-3.6124218,-2.7220626,-0.629579
alexnet_w1_mlp_simclrhn_probe1,1,118,NaN,clock,keyboard,90,0118_rot_dnn_90_keyboard_20_n03085013_2853.png,n03085013_2853.png,0.0,1.3987911,4.011763,-1.8476503
alexnet_w1_mlp_simclrhn_probe1,1,119,NaN,bicycle,boat,90,0119_rot_dnn_90_boat_20_n04273569_7097.png,n04273569_7097.png,0.0,-4.1870217,-1.8170729,-1.675807
alexnet_w1_mlp_simclrhn_probe1,1,120,NaN,bicycle,bicycle,270,0120_rot_dnn_270_bicycle_20_n03792782_40932.png,n03792782_40932.png,1.0,1.452551,-2.9907613,3.1418962
alexnet_w1_mlp_simclrhn_probe1,1,121,NaN,oven,chair,270,0121_rot_dnn_270_chair_20_n04429376_44914.png,n04429376_44914.png,0.0,0.5198212,2.7010655,-1.5423727
alexnet_w1_mlp_simclrhn_probe1,1,122,NaN,knife,bear,180,0122_rot_dnn_180_bear_20_n02134418_2122.png,n02134418_2122.png,0.0,-3.8629344,-1.5491433,-1.6360973
alexnet_w1_mlp_simclrhn_probe1,1,123,NaN,knife,keyboard,90,0123_rot_dnn_90_keyboard_20_n03085013_22704.png,n03085013_22704.png,0.0,-1.170419,0.0025090575,-0.8293854
alexnet_w1_mlp_simclrhn_probe1,1,124,NaN,truck,truck,0,0124_rot_dnn_0_truck_20_n03417042_6838.png,n03417042_6838.png,1.0,0.11574352,-0.24841408,0.25749832
alexnet_w1_mlp_simclrhn_probe1,1,125,NaN,elephant,elephant,0,0125_rot_dnn_0_elephant_20_n02504458_3628.png,n02504458_3628.png,1.0,7.4391937,-0.11352885,5.3405814
alexnet_w1_mlp_simclrhn_probe1,1,126,NaN,cat,cat,90,0126_rot_dnn_90_cat_20_n02123597_10141.png,n02123597_10141.png,1.0,1.4853379,-0.20660186,1.196382
alexnet_w1_mlp_simclrhn_probe1,1,127,NaN,bicycle,bicycle,0,0127_rot_dnn_0_bicycle_20_n02835271_6383.png,n02835271_6383.png,1.0,5.442069,-2.759291,5.7992373
alexnet_w1_mlp_simclrhn_probe1,1,128,NaN,keyboard,car,180,0128_rot_dnn_180_car_20_n04285008_7154.png,n04285008_7154.png,0.0,-3.0445683,0.10069457,-2.2240367
alexnet_w1_mlp_simclrhn_probe1,1,129,NaN,airplane,bird,0,0129_rot_dnn_0_bird_20_n02007558_1068.png,n02007558_1068.png,0.0,-3.1906238,4.0013413,-5.0854874
alexnet_w1_mlp_simclrhn_probe1,1,130,NaN,bottle,cat,90,0130_rot_dnn_90_cat_20_n02125311_1896.png,n02125311_1896.png,0.0,-3.044157,-2.420439,-0.44103524
alexnet_w1_mlp_simclrhn_probe1,1,131,NaN,keyboard,keyboard,0,0131_rot_dnn_0_keyboard_20_n04505470_1903.png,n04505470_1903.png,1.0,15.453652,-0.6968283,11.4201145
alexnet_w1_mlp_simclrhn_probe1,1,132,NaN,bicycle,bicycle,90,0132_rot_dnn_90_bicycle_20_n03792782_66159.png,n03792782_66159.png,1.0,-0.91281605,-1.3656347,0.32019114
alexnet_w1_mlp_simclrhn_probe1,1,133,NaN,bear,bear,90,0133_rot_dnn_90_bear_20_n02134418_5219.png,n02134418_5219.png,1.0,4.2394285,1.211668,2.14095
alexnet_w1_mlp_simclrhn_probe1,1,134,NaN,chair,car,90,0134_rot_dnn_90_car_20_n02814533_92229.png,n02814533_92229.png,0.0,-1.6283107,0.25216872,-1.3296998
alexnet_w1_mlp_simclrhn_probe1,1,135,NaN,cat,dog,90,0135_rot_dnn_90_dog_20_n02090721_1002.png,n02090721_1002.png,0.0,-2.891224,0.7593005,-2.5813105
alexnet_w1_mlp_simclrhn_probe1,1,136,NaN,bottle,truck,270,0136_rot_dnn_270_truck_20_n04467665_46263.png,n04467665_46263.png,0.0,-3.9605517,-1.2956079,-1.8843998
alexnet_w1_mlp_simclrhn_probe1,1,137,NaN,bottle,bottle,180,0137_rot_dnn_180_bottle_20_n03983396_704.png,n03983396_704.png,1.0,0.41172078,-0.046600692,0.32408223
alexnet_w1_mlp_simclrhn_probe1,1,138,NaN,oven,truck,180,0138_rot_dnn_180_truck_20_n03796401_4149.png,n03796401_4149.png,0.0,-2.7783813,0.22694331,-2.1250854
alexnet_w1_mlp_simclrhn_probe1,1,139,NaN,bird,bird,0,0139_rot_dnn_0_bird_20_n02006656_2030.png,n02006656_2030.png,1.0,-0.00034623,-5.5451546,3.9207716
alexnet_w1_mlp_simclrhn_probe1,1,140,NaN,cat,cat,90,0140_rot_dnn_90_cat_20_n02123394_234.png,n02123394_234.png,1.0,2.9702415,0.4304711,1.7958889
alexnet_w1_mlp_simclrhn_probe1,1,141,NaN,oven,chair,90,0141_rot_dnn_90_chair_20_n04429376_19916.png,n04429376_19916.png,0.0,-1.3588669,6.05437,-5.24195
alexnet_w1_mlp_simclrhn_probe1,1,142,NaN,bottle,truck,270,0142_rot_dnn_270_truck_20_n04467665_14024.png,n04467665_14024.png,0.0,-1.1587157,0.10586306,-0.8941923
alexnet_w1_mlp_simclrhn_probe1,1,143,NaN,keyboard,chair,90,0143_rot_dnn_90_chair_20_n04429376_14729.png,n04429376_14729.png,0.0,-3.8606422,6.1952167,-7.110566
alexnet_w1_mlp_simclrhn_probe1,1,144,NaN,knife,car,270,0144_rot_dnn_270_car_20_n02814533_82321.png,n02814533_82321.png,0.0,-2.3749173,-0.67391163,-1.2027926
alexnet_w1_mlp_simclrhn_probe1,1,145,NaN,clock,clock,180,0145_rot_dnn_180_clock_20_n04548280_3701.png,n04548280_3701.png,1.0,-0.108036436,-0.93502754,0.58477104
alexnet_w1_mlp_simclrhn_probe1,1,146,NaN,knife,boat,270,0146_rot_dnn_270_boat_20_n02951358_11442.png,n02951358_11442.png,0.0,-3.8359993,-1.8446437,-1.4081011
alexnet_w1_mlp_simclrhn_probe1,1,147,NaN,bear,bear,90,0147_rot_dnn_90_bear_20_n02132136_17349.png,n02132136_17349.png,1.0,1.8651172,-0.079925954,1.3753532
alexnet_w1_mlp_simclrhn_probe1,1,148,NaN,oven,airplane,90,0148_rot_dnn_90_airplane_20_n02690373_4982.png,n02690373_4982.png,0.0,-12.235063,0.48378062,-8.993581
alexnet_w1_mlp_simclrhn_probe1,1,149,NaN,airplane,airplane,0,0149_rot_dnn_0_airplane_20_n02690373_2232.png,n02690373_2232.png,1.0,2.251583,1.0084267,0.87904435
alexnet_w1_mlp_simclrhn_probe1,1,150,NaN,cat,cat,180,0150_rot_dnn_180_cat_20_n02123045_909.png,n02123045_909.png,1.0,-0.56975424,-1.6962438,0.79654837
alexnet_w1_mlp_simclrhn_probe1,1,151,NaN,clock,clock,180,0151_rot_dnn_180_clock_20_n04548280_1190.png,n04548280_1190.png,1.0,3.1960497,3.1807146,0.0108435415
alexnet_w1_mlp_simclrhn_probe1,1,152,NaN,oven,oven,90,0152_rot_dnn_90_oven_20_n04111531_1855.png,n04111531_1855.png,1.0,1.7598233,-1.6429929,2.4061546
alexnet_w1_mlp_simclrhn_probe1,1,153,NaN,chair,boat,270,0153_rot_dnn_270_boat_20_n03662601_21408.png,n03662601_21408.png,0.0,-3.0331318,-1.5336306,-1.0603075
alexnet_w1_mlp_simclrhn_probe1,1,154,NaN,bottle,dog,90,0154_rot_dnn_90_dog_20_n02088364_15877.png,n02088364_15877.png,0.0,-2.9627738,-1.4629307,-1.0605493
alexnet_w1_mlp_simclrhn_probe1,1,155,NaN,knife,knife,90,0155_rot_dnn_90_knife_20_n03041632_15250.png,n03041632_15250.png,1.0,-0.605551,-1.4374464,0.58823884
alexnet_w1_mlp_simclrhn_probe1,1,156,NaN,oven,oven,0,0156_rot_dnn_0_oven_20_n04111531_17006.png,n04111531_17006.png,1.0,3.7487593,-2.2301223,4.227708
alexnet_w1_mlp_simclrhn_probe1,1,157,NaN,clock,clock,90,0157_rot_dnn_90_clock_20_n04548280_11763.png,n04548280_11763.png,1.0,1.5830169,-0.505813,1.4770259
alexnet_w1_mlp_simclrhn_probe1,1,158,NaN,bird,bird,270,0158_rot_dnn_270_bird_20_n02028035_8327.png,n02028035_8327.png,1.0,-0.8947278,-2.6674092,1.2534751
alexnet_w1_mlp_simclrhn_probe1,1,159,NaN,bicycle,car,90,0159_rot_dnn_90_car_20_n04285008_5641.png,n04285008_5641.png,0.0,-4.0173554,-1.4203058,-1.8363914
alexnet_w1_mlp_simclrhn_probe1,1,160,NaN,clock,oven,90,0160_rot_dnn_90_oven_20_n04111531_10727.png,n04111531_10727.png,0.0,-1.768986,-0.41944194,-0.9542718
alexnet_w1_mlp_simclrhn_probe1,1,161,NaN,oven,elephant,270,0161_rot_dnn_270_elephant_20_n02504458_1971.png,n02504458_1971.png,0.0,-2.6929898,-2.1976292,-0.35027286
alexnet_w1_mlp_simclrhn_probe1,1,162,NaN,bottle,bottle,180,0162_rot_dnn_180_bottle_20_n04560804_15941.png,n04560804_15941.png,1.0,1.5622774,-2.0895076,2.582202
alexnet_w1_mlp_simclrhn_probe1,1,163,NaN,elephant,elephant,0,0163_rot_dnn_0_elephant_20_n02504458_151.png,n02504458_151.png,1.0,14.1499195,5.5085897,6.110343
alexnet_w1_mlp_simclrhn_probe1,1,164,NaN,bear,bear,180,0164_rot_dnn_180_bear_20_n02133161_15427.png,n02133161_15427.png,1.0,2.0077946,1.473621,0.3777178
alexnet_w1_mlp_simclrhn_probe1,1,165,NaN,elephant,bear,180,0165_rot_dnn_180_bear_20_n02134084_20605.png,n02134084_20605.png,0.0,-2.6866958,0.30696315,-2.1168365
alexnet_w1_mlp_simclrhn_probe1,1,166,NaN,bottle,bottle,90,0166_rot_dnn_90_bottle_20_n04560804_2693.png,n04560804_2693.png,1.0,-2.2374048,-2.8860927,0.45869157
alexnet_w1_mlp_simclrhn_probe1,1,167,NaN,clock,airplane,270,0167_rot_dnn_270_airplane_20_n02690373_8214.png,n02690373_8214.png,0.0,-12.42424,-0.08707956,-8.72369
alexnet_w1_mlp_simclrhn_probe1,1,168,NaN,boat,boat,0,0168_rot_dnn_0_boat_20_n02951358_14966.png,n02951358_14966.png,1.0,0.10980463,-0.91718704,0.7261927
alexnet_w1_mlp_simclrhn_probe1,1,169,NaN,knife,knife,90,0169_rot_dnn_90_knife_20_n03041632_14801.png,n03041632_14801.png,1.0,-3.351974,-3.565264,0.1508188
alexnet_w1_mlp_simclrhn_probe1,1,170,NaN,cat,dog,90,0170_rot_dnn_90_dog_20_n02110063_8776.png,n02110063_8776.png,0.0,-2.7940252,-1.8889837,-0.63996094
alexnet_w1_mlp_simclrhn_probe1,1,171,NaN,bicycle,dog,180,0171_rot_dnn_180_dog_20_n02100236_7671.png,n02100236_7671.png,0.0,-3.6677907,-0.90942854,-1.9504565
alexnet_w1_mlp_simclrhn_probe1,1,172,NaN,oven,oven,0,0172_rot_dnn_0_oven_20_n04111531_21248.png,n04111531_21248.png,1.0,2.895122,-3.3775349,4.435438
alexnet_w1_mlp_simclrhn_probe1,1,173,NaN,oven,knife,270,0173_rot_dnn_270_knife_20_n03041632_17100.png,n03041632_17100.png,0.0,-2.0186954,1.5839516,-2.547456
alexnet_w1_mlp_simclrhn_probe1,1,174,NaN,oven,knife,0,0174_rot_dnn_0_knife_20_n03041632_3781.png,n03041632_3781.png,0.0,-0.5295998,-0.20922416,-0.22653978
alexnet_w1_mlp_simclrhn_probe1,1,175,NaN,chair,oven,270,0175_rot_dnn_270_oven_20_n04111531_46651.png,n04111531_46651.png,0.0,-1.8928885,0.053861946,-1.3765606
alexnet_w1_mlp_simclrhn_probe1,1,176,NaN,clock,clock,0,0176_rot_dnn_0_clock_20_n04548280_8303.png,n04548280_8303.png,1.0,0.66682464,-0.027850658,0.49120966
alexnet_w1_mlp_simclrhn_probe1,1,177,NaN,airplane,airplane,0,0177_rot_dnn_0_airplane_20_n02690373_2070.png,n02690373_2070.png,1.0,6.6759872,-2.1680071,6.2536483
alexnet_w1_mlp_simclrhn_probe1,1,178,NaN,car,car,180,0178_rot_dnn_180_car_20_n03100240_574.png,n03100240_574.png,1.0,-1.4180832,-2.0606084,0.45433393
alexnet_w1_mlp_simclrhn_probe1,1,179,NaN,bear,dog,90,0179_rot_dnn_90_dog_20_n02095570_11263.png,n02095570_11263.png,0.0,-1.9815229,-0.954902,-0.7259306
alexnet_w1_mlp_simclrhn_probe1,1,180,NaN,bottle,bottle,180,0180_rot_dnn_180_bottle_20_n03983396_9667.png,n03983396_9667.png,1.0,-0.14612184,-1.0366457,0.6296954
alexnet_w1_mlp_simclrhn_probe1,1,181,NaN,clock,clock,0,0181_rot_dnn_0_clock_20_n02708093_3535.png,n02708093_3535.png,1.0,9.139812,4.8654013,3.0224652
alexnet_w1_mlp_simclrhn_probe1,1,182,NaN,bird,bird,180,0182_rot_dnn_180_bird_20_n01531178_17239.png,n01531178_17239.png,1.0,-1.4246509,-3.7577667,1.649762
alexnet_w1_mlp_simclrhn_probe1,1,183,NaN,elephant,elephant,180,0183_rot_dnn_180_elephant_20_n02504458_2272.png,n02504458_2272.png,1.0,-0.279391,-1.9665525,1.1930033
alexnet_w1_mlp_simclrhn_probe1,1,184,NaN,knife,knife,90,0184_rot_dnn_90_knife_20_n03041632_50648.png,n03041632_50648.png,1.0,1.9536625,-3.6811984,3.9844484
alexnet_w1_mlp_simclrhn_probe1,1,185,NaN,knife,knife,0,0185_rot_dnn_0_knife_20_n03041632_33225.png,n03041632_33225.png,1.0,-0.25645643,-3.2052307,2.0850983
alexnet_w1_mlp_simclrhn_probe1,1,186,NaN,airplane,airplane,0,0186_rot_dnn_0_airplane_20_n02690373_736.png,n02690373_736.png,1.0,7.338518,2.2642512,3.5880487
alexnet_w1_mlp_simclrhn_probe1,1,187,NaN,bottle,knife,270,0187_rot_dnn_270_knife_20_n03041632_2546.png,n03041632_2546.png,0.0,-1.3777561,-1.1564506,-0.15648662
alexnet_w1_mlp_simclrhn_probe1,1,188,NaN,boat,boat,180,0188_rot_dnn_180_boat_20_n04273569_13053.png,n04273569_13053.png,1.0,1.1966053,0.52523136,0.47473308
alexnet_w1_mlp_simclrhn_probe1,1,189,NaN,airplane,airplane,180,0189_rot_dnn_180_airplane_20_n02690373_3588.png,n02690373_3588.png,1.0,1.7294513,-0.014460301,1.2331318
alexnet_w1_mlp_simclrhn_probe1,1,190,NaN,cat,keyboard,0,0190_rot_dnn_0_keyboard_20_n03085013_21004.png,n03085013_21004.png,0.0,-4.898197,3.1656067,-5.7019706
alexnet_w1_mlp_simclrhn_probe1,1,191,NaN,boat,boat,180,0191_rot_dnn_180_boat_20_n03662601_16627.png,n03662601_16627.png,1.0,-1.7822788,-2.2145696,0.30567575
alexnet_w1_mlp_simclrhn_probe1,1,192,NaN,elephant,bird,180,0192_rot_dnn_180_bird_20_n02017213_6478.png,n02017213_6478.png,0.0,-1.9067724,-1.7454774,-0.11405274
alexnet_w1_mlp_simclrhn_probe1,1,193,NaN,bear,bear,90,0193_rot_dnn_90_bear_20_n02134418_998.png,n02134418_998.png,1.0,0.82846326,-2.0346227,2.0245075
alexnet_w1_mlp_simclrhn_probe1,1,194,NaN,bicycle,truck,90,0194_rot_dnn_90_truck_20_n04467665_71055.png,n04467665_71055.png,0.0,-3.7489161,0.9943251,-3.3539782
alexnet_w1_mlp_simclrhn_probe1,1,195,NaN,knife,car,90,0195_rot_dnn_90_car_20_n02814533_23979.png,n02814533_23979.png,0.0,-2.5703099,-0.21584138,-1.6648607
alexnet_w1_mlp_simclrhn_probe1,1,196,NaN,bear,elephant,180,0196_rot_dnn_180_elephant_20_n02504458_6805.png,n02504458_6805.png,0.0,-1.6203222,-1.3352304,-0.2015904
alexnet_w1_mlp_simclrhn_probe1,1,197,NaN,clock,clock,90,0197_rot_dnn_90_clock_20_n04548280_4841.png,n04548280_4841.png,1.0,0.82575107,-0.39376926,0.8623311
alexnet_w1_mlp_simclrhn_probe1,1,198,NaN,knife,boat,90,0198_rot_dnn_90_boat_20_n03662601_6832.png,n03662601_6832.png,0.0,-3.433225,-1.0855747,-1.6600393
alexnet_w1_mlp_simclrhn_probe1,1,199,NaN,oven,oven,270,0199_rot_dnn_270_oven_20_n04111531_766.png,n04111531_766.png,1.0,3.6555572,-1.3563105,3.5439255
alexnet_w1_mlp_simclrhn_probe1,1,200,NaN,bicycle,clock,0,0200_rot_dnn_0_clock_20_n04548280_1305.png,n04548280_1305.png,0.0,-5.1600003,-3.898934,-0.8917087
alexnet_w1_mlp_simclrhn_probe1,1,201,NaN,bicycle,bicycle,0,0201_rot_dnn_0_bicycle_20_n03792782_19083.png,n03792782_19083.png,1.0,3.9515805,-0.5546706,3.186401
alexnet_w1_mlp_simclrhn_probe1,1,202,NaN,knife,bird,90,0202_rot_dnn_90_bird_20_n01860187_20081.png,n01860187_20081.png,0.0,-2.7022316,-2.2778578,-0.30007765
alexnet_w1_mlp_simclrhn_probe1,1,203,NaN,oven,oven,0,0203_rot_dnn_0_oven_20_n04111531_4817.png,n04111531_4817.png,1.0,0.7252745,-4.0723367,3.3924234
alexnet_w1_mlp_simclrhn_probe1,1,204,NaN,car,car,180,0204_rot_dnn_180_car_20_n02814533_33360.png,n02814533_33360.png,1.0,0.3042661,-1.5351483,1.3006624
alexnet_w1_mlp_simclrhn_probe1,1,205,NaN,clock,clock,270,0205_rot_dnn_270_clock_20_n04548280_4035.png,n04548280_4035.png,1.0,2.1645882,0.10535392,1.4560987
alexnet_w1_mlp_simclrhn_probe1,1,206,NaN,keyboard,keyboard,270,0206_rot_dnn_270_keyboard_20_n03085013_7879.png,n03085013_7879.png,1.0,0.9874115,-0.5643523,1.0972627
alexnet_w1_mlp_simclrhn_probe1,1,207,NaN,airplane,airplane,0,0207_rot_dnn_0_airplane_20_n02690373_2598.png,n02690373_2598.png,1.0,6.7934823,1.1380852,3.9989696
alexnet_w1_mlp_simclrhn_probe1,1,208,NaN,cat,cat,180,0208_rot_dnn_180_cat_20_n02123045_436.png,n02123045_436.png,1.0,2.0469635,-1.3400189,2.3949583
alexnet_w1_mlp_simclrhn_probe1,1,209,NaN,knife,airplane,270,0209_rot_dnn_270_airplane_20_n02690373_813.png,n02690373_813.png,0.0,-6.1786118,-1.4154713,-3.3680491
alexnet_w1_mlp_simclrhn_probe1,1,210,NaN,cat,cat,0,0210_rot_dnn_0_cat_20_n02123159_1008.png,n02123159_1008.png,1.0,11.9704485,-4.4690666,11.624492
alexnet_w1_mlp_simclrhn_probe1,1,211,NaN,bottle,bottle,90,0211_rot_dnn_90_bottle_20_n03983396_5452.png,n03983396_5452.png,1.0,-0.42003527,-2.047373,1.1507016
alexnet_w1_mlp_simclrhn_probe1,1,212,NaN,knife,dog,90,0212_rot_dnn_90_dog_20_n02090379_13010.png,n02090379_13010.png,0.0,-2.5664916,-1.7030475,-0.6105472
alexnet_w1_mlp_simclrhn_probe1,1,213,NaN,bicycle,chair,180,0213_rot_dnn_180_chair_20_n04099969_4162.png,n04099969_4162.png,0.0,-1.4909159,-0.467588,-0.72360206
alexnet_w1_mlp_simclrhn_probe1,1,214,NaN,oven,keyboard,270,0214_rot_dnn_270_keyboard_20_n04505470_206.png,n04505470_206.png,0.0,-3.9033382,-0.7990672,-2.195051
alexnet_w1_mlp_simclrhn_probe1,1,215,NaN,oven,cat,0,0215_rot_dnn_0_cat_20_n02123045_5290.png,n02123045_5290.png,0.0,-3.4800808,-1.4675004,-1.4231093
alexnet_w1_mlp_simclrhn_probe1,1,216,NaN,knife,bird,180,0216_rot_dnn_180_bird_20_n01843383_6001.png,n01843383_6001.png,0.0,-4.99289,-1.8990424,-2.1876805
alexnet_w1_mlp_simclrhn_probe1,1,217,NaN,knife,knife,0,0217_rot_dnn_0_knife_20_n03041632_24376.png,n03041632_24376.png,1.0,-0.6967218,-1.1271329,0.30434662
alexnet_w1_mlp_simclrhn_probe1,1,218,NaN,bicycle,bicycle,90,0218_rot_dnn_90_bicycle_20_n02835271_2915.png,n02835271_2915.png,1.0,-0.7181486,-2.8103955,1.4794421
alexnet_w1_mlp_simclrhn_probe1,1,219,NaN,bicycle,bicycle,0,0219_rot_dnn_0_bicycle_20_n03792782_5517.png,n03792782_5517.png,1.0,9.219204,-1.115726,7.3078995
alexnet_w1_mlp_simclrhn_probe1,1,220,NaN,bicycle,bicycle,90,0220_rot_dnn_90_bicycle_20_n02835271_7053.png,n02835271_7053.png,1.0,0.7724983,-3.9596334,3.3461223
alexnet_w1_mlp_simclrhn_probe1,1,221,NaN,clock,clock,180,0221_rot_dnn_180_clock_20_n04548280_7115.png,n04548280_7115.png,1.0,0.0034804344,-2.7490182,1.9463105
alexnet_w1_mlp_simclrhn_probe1,1,222,NaN,bicycle,boat,270,0222_rot_dnn_270_boat_20_n04273569_29866.png,n04273569_29866.png,0.0,-3.4662259,-1.9325893,-1.0844449
alexnet_w1_mlp_simclrhn_probe1,1,223,NaN,bicycle,clock,90,0223_rot_dnn_90_clock_20_n02708093_3623.png,n02708093_3623.png,0.0,0.7796569,1.1665473,-0.27357283
alexnet_w1_mlp_simclrhn_probe1,1,224,NaN,bear,bear,180,0224_rot_dnn_180_bear_20_n02132136_7468.png,n02132136_7468.png,1.0,1.0223509,0.3865989,0.44954452
alexnet_w1_mlp_simclrhn_probe1,1,225,NaN,cat,cat,0,0225_rot_dnn_0_cat_20_n02123159_2137.png,n02123159_2137.png,1.0,0.5572131,-0.9971405,1.099094
alexnet_w1_mlp_simclrhn_probe1,1,226,NaN,knife,bottle,90,0226_rot_dnn_90_bottle_20_n03937543_5257.png,n03937543_5257.png,0.0,-1.3769639,-0.67613053,-0.495564
alexnet_w1_mlp_simclrhn_probe1,1,227,NaN,cat,cat,0,0227_rot_dnn_0_cat_20_n02123394_937.png,n02123394_937.png,1.0,1.0205091,-1.2918928,1.635115
alexnet_w1_mlp_simclrhn_probe1,1,228,NaN,boat,boat,0,0228_rot_dnn_0_boat_20_n03662601_11764.png,n03662601_11764.png,1.0,4.1819897,2.6610126,1.0754932
alexnet_w1_mlp_simclrhn_probe1,1,229,NaN,bear,bear,0,0229_rot_dnn_0_bear_20_n02132136_10412.png,n02132136_10412.png,1.0,3.0658855,0.31859294,1.9426292
alexnet_w1_mlp_simclrhn_probe1,1,230,NaN,clock,clock,270,0230_rot_dnn_270_clock_20_n03196217_3600.png,n03196217_3600.png,1.0,1.7493887,1.6906023,0.041568257
alexnet_w1_mlp_simclrhn_probe1,1,231,NaN,oven,dog,270,0231_rot_dnn_270_dog_20_n02102177_255.png,n02102177_255.png,0.0,-3.1395216,-0.97577965,-1.5299968
alexnet_w1_mlp_simclrhn_probe1,1,232,NaN,bird,bird,270,0232_rot_dnn_270_bird_20_n01614925_1860.png,n01614925_1860.png,1.0,-0.4972524,-2.6118174,1.4952232
alexnet_w1_mlp_simclrhn_probe1,1,233,NaN,knife,airplane,180,0233_rot_dnn_180_airplane_20_n02690373_1021.png,n02690373_1021.png,0.0,-0.97028667,-0.3725349,-0.42267433
alexnet_w1_mlp_simclrhn_probe1,1,234,NaN,knife,chair,180,0234_rot_dnn_180_chair_20_n03376595_9079.png,n03376595_9079.png,0.0,0.59317935,0.7614216,-0.11896525
alexnet_w1_mlp_simclrhn_probe1,1,235,NaN,car,chair,90,0235_rot_dnn_90_chair_20_n02791124_5199.png,n02791124_5199.png,0.0,-1.6209497,-0.073069125,-1.0945169
alexnet_w1_mlp_simclrhn_probe1,1,236,NaN,bottle,keyboard,90,0236_rot_dnn_90_keyboard_20_n03085013_24294.png,n03085013_24294.png,0.0,-3.4067044,-0.90994847,-1.7654731
alexnet_w1_mlp_simclrhn_probe1,1,237,NaN,cat,cat,0,0237_rot_dnn_0_cat_20_n02123597_13286.png,n02123597_13286.png,1.0,2.2320437,-0.80754095,2.1493108
alexnet_w1_mlp_simclrhn_probe1,1,238,NaN,bird,bird,180,0238_rot_dnn_180_bird_20_n01560419_17392.png,n01560419_17392.png,1.0,-0.98030597,-5.6087785,3.2728243
alexnet_w1_mlp_simclrhn_probe1,1,239,NaN,oven,oven,270,0239_rot_dnn_270_oven_20_n04111531_6934.png,n04111531_6934.png,1.0,1.3362023,-0.49198496,1.2927237
alexnet_w1_mlp_simclrhn_probe1,1,240,NaN,clock,clock,90,0240_rot_dnn_90_clock_20_n03196217_6707.png,n03196217_6707.png,1.0,-0.5254913,-0.5620769,0.025869947
alexnet_w1_mlp_simclrhn_probe1,1,241,NaN,knife,knife,180,0241_rot_dnn_180_knife_20_n03041632_15174.png,n03041632_15174.png,1.0,-1.0493182,-2.3700674,0.9339107
alexnet_w1_mlp_simclrhn_probe1,1,242,NaN,oven,oven,180,0242_rot_dnn_180_oven_20_n04111531_13644.png,n04111531_13644.png,1.0,2.7437375,-3.3335648,4.2973013
alexnet_w1_mlp_simclrhn_probe1,1,243,NaN,elephant,elephant,0,0243_rot_dnn_0_elephant_20_n02504458_3458.png,n02504458_3458.png,1.0,11.062048,0.5447185,7.436875
alexnet_w1_mlp_simclrhn_probe1,1,244,NaN,clock,clock,90,0244_rot_dnn_90_clock_20_n04548280_18914.png,n04548280_18914.png,1.0,4.636624,-0.04041562,3.3071666
alexnet_w1_mlp_simclrhn_probe1,1,245,NaN,dog,dog,180,0245_rot_dnn_180_dog_20_n02107908_2754.png,n02107908_2754.png,1.0,-1.5792307,-2.581912,0.7090028
alexnet_w1_mlp_simclrhn_probe1,1,246,NaN,airplane,airplane,0,0246_rot_dnn_0_airplane_20_n02690373_1306.png,n02690373_1306.png,1.0,7.1331606,1.7961273,3.7738526
alexnet_w1_mlp_simclrhn_probe1,1,247,NaN,chair,chair,90,0247_rot_dnn_90_chair_20_n03376595_10266.png,n03376595_10266.png,1.0,0.9459905,-0.7289789,1.1843823
alexnet_w1_mlp_simclrhn_probe1,1,248,NaN,keyboard,keyboard,270,0248_rot_dnn_270_keyboard_20_n04505470_1416.png,n04505470_1416.png,1.0,2.7030122,0.3844342,1.6394823
alexnet_w1_mlp_simclrhn_probe1,1,249,NaN,clock,clock,180,0249_rot_dnn_180_clock_20_n04548280_4686.png,n04548280_4686.png,1.0,7.5973945,-0.71640235,5.878742
alexnet_w1_mlp_simclrhn_probe1,1,250,NaN,oven,truck,270,0250_rot_dnn_270_truck_20_n04467665_69882.png,n04467665_69882.png,0.0,-8.046744,0.2125051,-5.8401713
alexnet_w1_mlp_simclrhn_probe1,1,251,NaN,knife,bottle,270,0251_rot_dnn_270_bottle_20_n04591713_2123.png,n04591713_2123.png,0.0,-3.2714403,3.1606514,-4.548176
alexnet_w1_mlp_simclrhn_probe1,1,252,NaN,oven,oven,90,0252_rot_dnn_90_oven_20_n04111531_6933.png,n04111531_6933.png,1.0,2.0462854,-2.744741,3.387767
alexnet_w1_mlp_simclrhn_probe1,1,253,NaN,knife,car,270,0253_rot_dnn_270_car_20_n03100240_8898.png,n03100240_8898.png,0.0,-5.74024,-0.6370187,-3.6085224
alexnet_w1_mlp_simclrhn_probe1,1,254,NaN,cat,elephant,180,0254_rot_dnn_180_elephant_20_n02504458_5277.png,n02504458_5277.png,0.0,-2.6152806,1.6171923,-2.9928102
alexnet_w1_mlp_simclrhn_probe1,1,255,NaN,oven,truck,270,0255_rot_dnn_270_truck_20_n03417042_9967.png,n03417042_9967.png,0.0,-0.6911269,1.0629221,-1.2403
alexnet_w1_mlp_simclrhn_probe1,1,256,NaN,bear,bear,0,0256_rot_dnn_0_bear_20_n02134418_1017.png,n02134418_1017.png,1.0,1.1931164,-1.8038136,2.1191497
alexnet_w1_mlp_simclrhn_probe1,1,257,NaN,bottle,airplane,90,0257_rot_dnn_90_airplane_20_n02690373_1909.png,n02690373_1909.png,0.0,-4.666283,-0.8160985,-2.7224917
alexnet_w1_mlp_simclrhn_probe1,1,258,NaN,airplane,airplane,0,0258_rot_dnn_0_airplane_20_n02690373_6753.png,n02690373_6753.png,1.0,7.150888,-1.7380471,6.2854266
alexnet_w1_mlp_simclrhn_probe1,1,259,NaN,airplane,airplane,0,0259_rot_dnn_0_airplane_20_n02690373_1972.png,n02690373_1972.png,1.0,6.177394,2.7149637,2.448308
alexnet_w1_mlp_simclrhn_probe1,1,260,NaN,oven,oven,90,0260_rot_dnn_90_oven_20_n04111531_9915.png,n04111531_9915.png,1.0,2.0157886,-2.2833788,3.0399706
alexnet_w1_mlp_simclrhn_probe1,1,261,NaN,elephant,elephant,270,0261_rot_dnn_270_elephant_20_n02504458_485.png,n02504458_485.png,1.0,1.8579433,-3.0403972,3.4636497
alexnet_w1_mlp_simclrhn_probe1,1,262,NaN,cat,elephant,180,0262_rot_dnn_180_elephant_20_n02504013_2431.png,n02504013_2431.png,0.0,0.1943761,1.8670491,-1.1827585
alexnet_w1_mlp_simclrhn_probe1,1,263,NaN,bicycle,clock,180,0263_rot_dnn_180_clock_20_n02708093_1038.png,n02708093_1038.png,0.0,-0.76804227,1.8809347,-1.8731097
alexnet_w1_mlp_simclrhn_probe1,1,264,NaN,cat,cat,270,0264_rot_dnn_270_cat_20_n02123597_5927.png,n02123597_5927.png,1.0,1.1938246,0.41197097,0.55285406
alexnet_w1_mlp_simclrhn_probe1,1,265,NaN,bicycle,bicycle,90,0265_rot_dnn_90_bicycle_20_n03792782_3202.png,n03792782_3202.png,1.0,0.8449523,-3.3880398,2.9931774
alexnet_w1_mlp_simclrhn_probe1,1,266,NaN,chair,car,270,0266_rot_dnn_270_car_20_n02814533_45480.png,n02814533_45480.png,0.0,-4.921507,0.9476064,-4.15009
alexnet_w1_mlp_simclrhn_probe1,1,267,NaN,clock,truck,90,0267_rot_dnn_90_truck_20_n03796401_4571.png,n03796401_4571.png,0.0,0.20139271,0.66630316,-0.32874134
alexnet_w1_mlp_simclrhn_probe1,1,268,NaN,oven,oven,90,0268_rot_dnn_90_oven_20_n04111531_21011.png,n04111531_21011.png,1.0,-2.5921762,-2.9697814,0.2670072
alexnet_w1_mlp_simclrhn_probe1,1,269,NaN,airplane,airplane,0,0269_rot_dnn_0_airplane_20_n02690373_4310.png,n02690373_4310.png,1.0,7.7403755,-1.6327212,6.62778
alexnet_w1_mlp_simclrhn_probe1,1,270,NaN,oven,oven,0,0270_rot_dnn_0_oven_20_n04111531_7134.png,n04111531_7134.png,1.0,0.60049057,0.069999814,0.3751136
alexnet_w1_mlp_simclrhn_probe1,1,271,NaN,cat,dog,270,0271_rot_dnn_270_dog_20_n02105251_1092.png,n02105251_1092.png,0.0,-0.51824784,0.8207237,-0.94679594
alexnet_w1_mlp_simclrhn_probe1,1,272,NaN,knife,knife,180,0272_rot_dnn_180_knife_20_n03041632_34505.png,n03041632_34505.png,1.0,0.60480505,-1.773731,1.6818789
alexnet_w1_mlp_simclrhn_probe1,1,273,NaN,keyboard,keyboard,90,0273_rot_dnn_90_keyboard_20_n04505470_4520.png,n04505470_4520.png,1.0,0.5788193,-1.8698968,1.7315038
alexnet_w1_mlp_simclrhn_probe1,1,274,NaN,oven,boat,180,0274_rot_dnn_180_boat_20_n03344393_1519.png,n03344393_1519.png,0.0,-2.3438926,-0.5709478,-1.2536613
alexnet_w1_mlp_simclrhn_probe1,1,275,NaN,knife,chair,270,0275_rot_dnn_270_chair_20_n03376595_9535.png,n03376595_9535.png,0.0,-1.3878999,-0.5616919,-0.5842173
alexnet_w1_mlp_simclrhn_probe1,1,276,NaN,oven,cat,270,0276_rot_dnn_270_cat_20_n02125311_1326.png,n02125311_1326.png,0.0,-7.8950577,-3.1481838,-3.3565466
alexnet_w1_mlp_simclrhn_probe1,1,277,NaN,cat,cat,90,0277_rot_dnn_90_cat_20_n02123394_2948.png,n02123394_2948.png,1.0,1.4428669,-1.5677929,2.1288579
alexnet_w1_mlp_simclrhn_probe1,1,278,NaN,oven,oven,270,0278_rot_dnn_270_oven_20_n04111531_5429.png,n04111531_5429.png,1.0,3.4003265,0.9710458,1.7177609
alexnet_w1_mlp_simclrhn_probe1,1,279,NaN,elephant,elephant,0,0279_rot_dnn_0_elephant_20_n02504013_6645.png,n02504013_6645.png,1.0,1.8179116,0.28845635,1.0814883
alexnet_w1_mlp_simclrhn_probe1,1,280,NaN,oven,keyboard,90,0280_rot_dnn_90_keyboard_20_n04505470_4159.png,n04505470_4159.png,0.0,-3.1887589,1.9230323,-3.6145823
alexnet_w1_mlp_simclrhn_probe1,1,281,NaN,bottle,bottle,90,0281_rot_dnn_90_bottle_20_n02823428_6252.png,n02823428_6252.png,1.0,-0.5527937,-1.7784064,0.866639
alexnet_w1_mlp_simclrhn_probe1,1,282,NaN,airplane,airplane,180,0282_rot_dnn_180_airplane_20_n02690373_15097.png,n02690373_15097.png,1.0,1.875828,-1.3413161,2.2748644
alexnet_w1_mlp_simclrhn_probe1,1,283,NaN,chair,cat,0,0283_rot_dnn_0_cat_20_n02123159_3420.png,n02123159_3420.png,0.0,-6.440254,0.08374381,-4.6131635
alexnet_w1_mlp_simclrhn_probe1,1,284,NaN,oven,cat,0,0284_rot_dnn_0_cat_20_n02124075_7835.png,n02124075_7835.png,0.0,-3.13215,-2.0319538,-0.7779561
alexnet_w1_mlp_simclrhn_probe1,1,285,NaN,oven,cat,90,0285_rot_dnn_90_cat_20_n02123045_6696.png,n02123045_6696.png,0.0,-1.8140945,-1.5869038,-0.16064811
alexnet_w1_mlp_simclrhn_probe1,1,286,NaN,bicycle,boat,180,0286_rot_dnn_180_boat_20_n02951358_34766.png,n02951358_34766.png,0.0,-2.9249992,0.20644791,-2.2142675
alexnet_w1_mlp_simclrhn_probe1,1,287,NaN,elephant,bird,0,0287_rot_dnn_0_bird_20_n01855672_8191.png,n01855672_8191.png,0.0,-5.0350323,-0.94300383,-2.8935013
alexnet_w1_mlp_simclrhn_probe1,1,288,NaN,clock,truck,180,0288_rot_dnn_180_truck_20_n03796401_1150.png,n03796401_1150.png,0.0,-0.97965103,0.56845015,-1.0946729
alexnet_w1_mlp_simclrhn_probe1,1,289,NaN,bicycle,bicycle,270,0289_rot_dnn_270_bicycle_20_n03792782_9782.png,n03792782_9782.png,1.0,-2.365213,-3.4919136,0.7966977
alexnet_w1_mlp_simclrhn_probe1,1,290,NaN,knife,boat,270,0290_rot_dnn_270_boat_20_n03662601_12969.png,n03662601_12969.png,0.0,-5.48111,-0.8258927,-3.2917356
alexnet_w1_mlp_simclrhn_probe1,1,291,NaN,clock,bottle,180,0291_rot_dnn_180_bottle_20_n02823428_4530.png,n02823428_4530.png,0.0,-1.8535595,-1.2134455,-0.4526289
alexnet_w1_mlp_simclrhn_probe1,1,292,NaN,chair,chair,0,0292_rot_dnn_0_chair_20_n02791124_2898.png,n02791124_2898.png,1.0,1.02117,-0.9712722,1.4088694
alexnet_w1_mlp_simclrhn_probe1,1,293,NaN,cat,cat,270,0293_rot_dnn_270_cat_20_n02123394_686.png,n02123394_686.png,1.0,1.4139014,0.05219747,0.9628701
alexnet_w1_mlp_simclrhn_probe1,1,294,NaN,cat,dog,180,0294_rot_dnn_180_dog_20_n02100735_4364.png,n02100735_4364.png,0.0,-1.8802097,-1.6100444,-0.19103573
alexnet_w1_mlp_simclrhn_probe1,1,295,NaN,bear,dog,0,0295_rot_dnn_0_dog_20_n02102177_7968.png,n02102177_7968.png,0.0,0.6760451,3.8596947,-2.2511802
alexnet_w1_mlp_simclrhn_probe1,1,296,NaN,knife,knife,270,0296_rot_dnn_270_knife_20_n03041632_15099.png,n03041632_15099.png,1.0,-2.6381867,-3.12781,0.34621596
alexnet_w1_mlp_simclrhn_probe1,1,297,NaN,oven,oven,180,0297_rot_dnn_180_oven_20_n04111531_2937.png,n04111531_2937.png,1.0,3.5807724,-0.03630859,2.5576625
alexnet_w1_mlp_simclrhn_probe1,1,298,NaN,cat,cat,0,0298_rot_dnn_0_cat_20_n02123394_3695.png,n02123394_3695.png,1.0,1.3107952,-0.6582339,1.3923138
alexnet_w1_mlp_simclrhn_probe1,1,299,NaN,airplane,bear,180,0299_rot_dnn_180_bear_20_n02134084_3696.png,n02134084_3696.png,0.0,-3.9316125,-1.267382,-1.8838954
alexnet_w1_mlp_simclrhn_probe1,1,300,NaN,knife,oven,270,0300_rot_dnn_270_oven_20_n04111531_4671.png,n04111531_4671.png,0.0,-2.0800674,-1.8084466,-0.19206488
alexnet_w1_mlp_simclrhn_probe1,1,301,NaN,bear,bear,180,0301_rot_dnn_180_bear_20_n02133161_2741.png,n02133161_2741.png,1.0,0.81597966,-0.5967828,0.9989739
alexnet_w1_mlp_simclrhn_probe1,1,302,NaN,clock,boat,90,0302_rot_dnn_90_boat_20_n03662601_3893.png,n03662601_3893.png,0.0,-4.6091795,-1.589028,-2.1355698
alexnet_w1_mlp_simclrhn_probe1,1,303,NaN,clock,boat,90,0303_rot_dnn_90_boat_20_n03344393_2790.png,n03344393_2790.png,0.0,-3.5694954,-1.4645926,-1.488391
alexnet_w1_mlp_simclrhn_probe1,1,304,NaN,airplane,keyboard,180,0304_rot_dnn_180_keyboard_20_n03085013_3920.png,n03085013_3920.png,0.0,0.7002363,1.8943186,-0.84434366
alexnet_w1_mlp_simclrhn_probe1,1,305,NaN,oven,chair,90,0305_rot_dnn_90_chair_20_n04099969_1962.png,n04099969_1962.png,0.0,0.24339983,2.2489445,-1.4181342
alexnet_w1_mlp_simclrhn_probe1,1,306,NaN,airplane,knife,0,0306_rot_dnn_0_knife_20_n03041632_13846.png,n03041632_13846.png,0.0,-1.1449014,-0.09531432,-0.7421702
alexnet_w1_mlp_simclrhn_probe1,1,307,NaN,bicycle,boat,0,0307_rot_dnn_0_boat_20_n02951358_30117.png,n02951358_30117.png,0.0,-1.2210743,1.6802429,-2.051541
alexnet_w1_mlp_simclrhn_probe1,1,308,NaN,elephant,elephant,270,0308_rot_dnn_270_elephant_20_n02504458_9922.png,n02504458_9922.png,1.0,-3.1850052,-3.2231019,0.026938412
alexnet_w1_mlp_simclrhn_probe1,1,309,NaN,airplane,boat,180,0309_rot_dnn_180_boat_20_n03344393_5609.png,n03344393_5609.png,0.0,-0.3109947,0.5180584,-0.58622915
alexnet_w1_mlp_simclrhn_probe1,1,310,NaN,chair,chair,0,0310_rot_dnn_0_chair_20_n02791124_3180.png,n02791124_3180.png,1.0,1.5954173,1.4229467,0.12195511
alexnet_w1_mlp_simclrhn_probe1,1,311,NaN,elephant,boat,90,0311_rot_dnn_90_boat_20_n02951358_12532.png,n02951358_12532.png,0.0,-3.1517625,-0.50091016,-1.8744355
alexnet_w1_mlp_simclrhn_probe1,1,312,NaN,cat,cat,180,0312_rot_dnn_180_cat_20_n02123597_1901.png,n02123597_1901.png,1.0,0.121253036,-0.48673025,0.4299091
alexnet_w1_mlp_simclrhn_probe1,1,313,NaN,cat,elephant,270,0313_rot_dnn_270_elephant_20_n02504013_5173.png,n02504013_5173.png,0.0,-1.4429133,-0.9923803,-0.31857494
alexnet_w1_mlp_simclrhn_probe1,1,314,NaN,clock,car,180,0314_rot_dnn_180_car_20_n04285008_4834.png,n04285008_4834.png,0.0,-1.5010809,1.1176288,-1.8517073
alexnet_w1_mlp_simclrhn_probe1,1,315,NaN,chair,truck,270,0315_rot_dnn_270_truck_20_n03417042_28584.png,n03417042_28584.png,0.0,-0.2951408,1.0963944,-0.983964
alexnet_w1_mlp_simclrhn_probe1,1,316,NaN,cat,dog,180,0316_rot_dnn_180_dog_20_n02093428_11151.png,n02093428_11151.png,0.0,-3.4345324,-1.186336,-1.5897149
alexnet_w1_mlp_simclrhn_probe1,1,317,NaN,oven,bicycle,90,0317_rot_dnn_90_bicycle_20_n03792782_1475.png,n03792782_1475.png,0.0,-3.81858,-1.8536489,-1.3894161
alexnet_w1_mlp_simclrhn_probe1,1,318,NaN,oven,knife,0,0318_rot_dnn_0_knife_20_n03041632_8666.png,n03041632_8666.png,0.0,-2.014277,-1.396041,-0.43715882
alexnet_w1_mlp_simclrhn_probe1,1,319,NaN,clock,clock,0,0319_rot_dnn_0_clock_20_n04548280_253.png,n04548280_253.png,1.0,0.87654907,-0.030032234,0.6410498
alexnet_w1_mlp_simclrhn_probe1,1,320,NaN,airplane,airplane,180,0320_rot_dnn_180_airplane_20_n02690373_9441.png,n02690373_9441.png,1.0,5.3713303,0.45589173,3.47574
alexnet_w1_mlp_simclrhn_probe1,1,321,NaN,bicycle,airplane,270,0321_rot_dnn_270_airplane_20_n02690373_1946.png,n02690373_1946.png,0.0,-7.6785603,-2.0371604,-3.989072
alexnet_w1_mlp_simclrhn_probe1,1,322,NaN,bottle,car,90,0322_rot_dnn_90_car_20_n03100240_5044.png,n03100240_5044.png,0.0,-1.6497496,-0.5943664,-0.74626863
alexnet_w1_mlp_simclrhn_probe1,1,323,NaN,cat,dog,270,0323_rot_dnn_270_dog_20_n02111500_6559.png,n02111500_6559.png,0.0,-0.23242667,0.6125868,-0.5975148
alexnet_w1_mlp_simclrhn_probe1,1,324,NaN,bear,dog,270,0324_rot_dnn_270_dog_20_n02096051_1852.png,n02096051_1852.png,0.0,-3.690306,-2.6539044,-0.73284656
alexnet_w1_mlp_simclrhn_probe1,1,325,NaN,elephant,bear,270,0325_rot_dnn_270_bear_20_n02133161_5020.png,n02133161_5020.png,0.0,-0.29021114,0.75240445,-0.7372406
alexnet_w1_mlp_simclrhn_probe1,1,326,NaN,chair,chair,90,0326_rot_dnn_90_chair_20_n02791124_2034.png,n02791124_2034.png,1.0,-0.27029747,-0.60504353,0.23670122
alexnet_w1_mlp_simclrhn_probe1,1,327,NaN,clock,clock,180,0327_rot_dnn_180_clock_20_n03196217_6526.png,n03196217_6526.png,1.0,2.2929046,0.2097225,1.4730322
alexnet_w1_mlp_simclrhn_probe1,1,328,NaN,oven,oven,180,0328_rot_dnn_180_oven_20_n04111531_9779.png,n04111531_9779.png,1.0,0.9589999,-0.039101064,0.70576394
alexnet_w1_mlp_simclrhn_probe1,1,329,NaN,boat,boat,0,0329_rot_dnn_0_boat_20_n03662601_28640.png,n03662601_28640.png,1.0,4.6455398,-0.8549351,3.8894231
alexnet_w1_mlp_simclrhn_probe1,1,330,NaN,knife,knife,90,0330_rot_dnn_90_knife_20_n03041632_31301.png,n03041632_31301.png,1.0,0.81046826,-2.6545258,2.4501207
alexnet_w1_mlp_simclrhn_probe1,1,331,NaN,keyboard,keyboard,90,0331_rot_dnn_90_keyboard_20_n03085013_9209.png,n03085013_9209.png,1.0,3.956605,1.7038858,1.592913
alexnet_w1_mlp_simclrhn_probe1,1,332,NaN,oven,elephant,90,0332_rot_dnn_90_elephant_20_n02504458_113.png,n02504458_113.png,0.0,-2.938569,-2.215598,-0.51121765
alexnet_w1_mlp_simclrhn_probe1,1,333,NaN,bicycle,bicycle,180,0333_rot_dnn_180_bicycle_20_n03792782_6058.png,n03792782_6058.png,1.0,0.49347496,-2.5451813,2.1486545
alexnet_w1_mlp_simclrhn_probe1,1,334,NaN,keyboard,keyboard,0,0334_rot_dnn_0_keyboard_20_n04505470_4651.png,n04505470_4651.png,1.0,8.34352,-0.70191467,6.3960886
alexnet_w1_mlp_simclrhn_probe1,1,335,NaN,oven,keyboard,180,0335_rot_dnn_180_keyboard_20_n03085013_7009.png,n03085013_7009.png,0.0,-1.6629539,-1.6269462,-0.025461249
alexnet_w1_mlp_simclrhn_probe1,1,336,NaN,bottle,truck,270,0336_rot_dnn_270_truck_20_n04467665_44390.png,n04467665_44390.png,0.0,-1.6202643,-0.009457605,-1.1390123
alexnet_w1_mlp_simclrhn_probe1,1,337,NaN,elephant,boat,90,0337_rot_dnn_90_boat_20_n04273569_17340.png,n04273569_17340.png,0.0,-5.306443,-2.371954,-2.0749972
alexnet_w1_mlp_simclrhn_probe1,1,338,NaN,elephant,elephant,0,0338_rot_dnn_0_elephant_20_n02504013_1333.png,n02504013_1333.png,1.0,3.7798042,0.28399563,2.47191
alexnet_w1_mlp_simclrhn_probe1,1,339,NaN,knife,knife,270,0339_rot_dnn_270_knife_20_n03041632_50034.png,n03041632_50034.png,1.0,0.5172833,-1.1933533,1.2096027
alexnet_w1_mlp_simclrhn_probe1,1,340,NaN,bottle,clock,90,0340_rot_dnn_90_clock_20_n02708093_2740.png,n02708093_2740.png,0.0,0.4530157,0.9035,-0.3185405
alexnet_w1_mlp_simclrhn_probe1,1,341,NaN,bear,bear,0,0341_rot_dnn_0_bear_20_n02132136_13975.png,n02132136_13975.png,1.0,5.6448193,1.1855628,3.1531703
alexnet_w1_mlp_simclrhn_probe1,1,342,NaN,elephant,elephant,90,0342_rot_dnn_90_elephant_20_n02504013_256.png,n02504013_256.png,1.0,0.07259405,-1.012613,0.7673573
alexnet_w1_mlp_simclrhn_probe1,1,343,NaN,bicycle,boat,90,0343_rot_dnn_90_boat_20_n03344393_6588.png,n03344393_6588.png,0.0,-4.7810636,-1.003447,-2.6711783
alexnet_w1_mlp_simclrhn_probe1,1,344,NaN,knife,knife,270,0344_rot_dnn_270_knife_20_n03041632_7173.png,n03041632_7173.png,1.0,0.52317685,-1.1761991,1.2016402
alexnet_w1_mlp_simclrhn_probe1,1,345,NaN,airplane,elephant,180,0345_rot_dnn_180_elephant_20_n02504458_1041.png,n02504458_1041.png,0.0,-1.9418304,-1.0482323,-0.63186926
alexnet_w1_mlp_simclrhn_probe1,1,346,NaN,knife,chair,180,0346_rot_dnn_180_chair_20_n04099969_8021.png,n04099969_8021.png,0.0,-1.5091403,0.031107545,-1.0891197
alexnet_w1_mlp_simclrhn_probe1,1,347,NaN,truck,truck,0,0347_rot_dnn_0_truck_20_n03796401_1791.png,n03796401_1791.png,1.0,4.5646877,0.009501874,3.2210028
alexnet_w1_mlp_simclrhn_probe1,1,348,NaN,keyboard,keyboard,90,0348_rot_dnn_90_keyboard_20_n04505470_5007.png,n04505470_5007.png,1.0,0.7186884,-0.26607126,0.69633025
alexnet_w1_mlp_simclrhn_probe1,1,349,NaN,oven,truck,180,0349_rot_dnn_180_truck_20_n03417042_29384.png,n03417042_29384.png,0.0,-1.266108,-0.21970831,-0.7399163
alexnet_w1_mlp_simclrhn_probe1,1,350,NaN,elephant,bird,90,0350_rot_dnn_90_bird_20_n01534433_1271.png,n01534433_1271.png,0.0,-0.9313409,0.6961258,-1.1507927
alexnet_w1_mlp_simclrhn_probe1,1,351,NaN,cat,dog,270,0351_rot_dnn_270_dog_20_n02113624_393.png,n02113624_393.png,0.0,0.48499203,3.0867288,-1.8397057
alexnet_w1_mlp_simclrhn_probe1,1,352,NaN,cat,cat,90,0352_rot_dnn_90_cat_20_n02123159_5461.png,n02123159_5461.png,1.0,-2.2999766,-2.5669522,0.1887803
alexnet_w1_mlp_simclrhn_probe1,1,353,NaN,knife,knife,270,0353_rot_dnn_270_knife_20_n03041632_9759.png,n03041632_9759.png,1.0,-0.9251355,-1.1616251,0.16722344
alexnet_w1_mlp_simclrhn_probe1,1,354,NaN,bicycle,chair,90,0354_rot_dnn_90_chair_20_n04429376_1754.png,n04429376_1754.png,0.0,-2.2047517,-1.116102,-0.76979166
alexnet_w1_mlp_simclrhn_probe1,1,355,NaN,knife,oven,90,0355_rot_dnn_90_oven_20_n04111531_1818.png,n04111531_1818.png,0.0,-3.644577,-0.071252674,-2.526722
alexnet_w1_mlp_simclrhn_probe1,1,356,NaN,clock,clock,0,0356_rot_dnn_0_clock_20_n04548280_5798.png,n04548280_5798.png,1.0,2.3204117,-0.51619947,2.0057871
alexnet_w1_mlp_simclrhn_probe1,1,357,NaN,truck,oven,90,0357_rot_dnn_90_oven_20_n04111531_3099.png,n04111531_3099.png,0.0,-1.3549955,-0.45679462,-0.6351239
alexnet_w1_mlp_simclrhn_probe1,1,358,NaN,clock,bottle,270,0358_rot_dnn_270_bottle_20_n04557648_581.png,n04557648_581.png,0.0,-0.9670275,0.40390345,-0.96939456
alexnet_w1_mlp_simclrhn_probe1,1,359,NaN,bicycle,bird,0,0359_rot_dnn_0_bird_20_n01531178_3183.png,n01531178_3183.png,0.0,-1.746148,-0.5940731,-0.8146399
alexnet_w1_mlp_simclrhn_probe1,1,360,NaN,clock,airplane,90,0360_rot_dnn_90_airplane_20_n02690373_8872.png,n02690373_8872.png,0.0,-4.372221,-1.6880049,-1.8980274
alexnet_w1_mlp_simclrhn_probe1,1,361,NaN,dog,cat,0,0361_rot_dnn_0_cat_20_n02123394_5301.png,n02123394_5301.png,0.0,-0.3854011,0.16991949,-0.392671
alexnet_w1_mlp_simclrhn_probe1,1,362,NaN,bicycle,bicycle,270,0362_rot_dnn_270_bicycle_20_n03792782_12844.png,n03792782_12844.png,1.0,-0.6738458,-2.4739237,1.2728473
alexnet_w1_mlp_simclrhn_probe1,1,363,NaN,bear,bear,90,0363_rot_dnn_90_bear_20_n02132136_2691.png,n02132136_2691.png,1.0,1.1249573,1.0761482,0.034513295
alexnet_w1_mlp_simclrhn_probe1,1,364,NaN,car,car,0,0364_rot_dnn_0_car_20_n02814533_27327.png,n02814533_27327.png,1.0,4.2813487,3.674801,0.42889392
alexnet_w1_mlp_simclrhn_probe1,1,365,NaN,bicycle,bird,0,0365_rot_dnn_0_bird_20_n02027492_7653.png,n02027492_7653.png,0.0,-1.8488488,0.9161118,-1.9551226
alexnet_w1_mlp_simclrhn_probe1,1,366,NaN,bear,bear,0,0366_rot_dnn_0_bear_20_n02133161_62.png,n02133161_62.png,1.0,3.9036908,2.9507926,0.6738008
alexnet_w1_mlp_simclrhn_probe1,1,367,NaN,bottle,bottle,0,0367_rot_dnn_0_bottle_20_n04560804_9710.png,n04560804_9710.png,1.0,0.18860714,-2.8759494,2.1669688
alexnet_w1_mlp_simclrhn_probe1,1,368,NaN,bottle,clock,180,0368_rot_dnn_180_clock_20_n04548280_15154.png,n04548280_15154.png,0.0,-0.8682458,0.14784408,-0.7184841
alexnet_w1_mlp_simclrhn_probe1,1,369,NaN,oven,oven,180,0369_rot_dnn_180_oven_20_n04111531_114.png,n04111531_114.png,1.0,-1.4476092,-2.9885364,1.0896001
alexnet_w1_mlp_simclrhn_probe1,1,370,NaN,bird,cat,180,0370_rot_dnn_180_cat_20_n02125311_24813.png,n02125311_24813.png,0.0,-0.93684316,-0.767484,-0.11975501
alexnet_w1_mlp_simclrhn_probe1,1,371,NaN,bottle,airplane,90,0371_rot_dnn_90_airplane_20_n02690373_7647.png,n02690373_7647.png,0.0,-9.520742,-2.215946,-5.165271
alexnet_w1_mlp_simclrhn_probe1,1,372,NaN,bottle,bottle,0,0372_rot_dnn_0_bottle_20_n03983396_9823.png,n03983396_9823.png,1.0,0.40842846,0.026442654,0.27010477
alexnet_w1_mlp_simclrhn_probe1,1,373,NaN,elephant,bear,0,0373_rot_dnn_0_bear_20_n02134418_2398.png,n02134418_2398.png,0.0,-1.8469747,-0.62284166,-0.8655928
alexnet_w1_mlp_simclrhn_probe1,1,374,NaN,keyboard,keyboard,90,0374_rot_dnn_90_keyboard_20_n04505470_4584.png,n04505470_4584.png,1.0,-0.56025225,-1.6448345,0.76691556
alexnet_w1_mlp_simclrhn_probe1,1,375,NaN,truck,keyboard,0,0375_rot_dnn_0_keyboard_20_n04505470_10055.png,n04505470_10055.png,0.0,0.793172,0.80725944,-0.009961324
alexnet_w1_mlp_simclrhn_probe1,1,376,NaN,bear,boat,270,0376_rot_dnn_270_boat_20_n04273569_10980.png,n04273569_10980.png,0.0,-5.2229066,-2.3677118,-2.0189276
alexnet_w1_mlp_simclrhn_probe1,1,377,NaN,car,car,180,0377_rot_dnn_180_car_20_n03100240_16210.png,n03100240_16210.png,1.0,1.9758283,0.13527274,1.3014693
alexnet_w1_mlp_simclrhn_probe1,1,378,NaN,keyboard,keyboard,0,0378_rot_dnn_0_keyboard_20_n04505470_1067.png,n04505470_1067.png,1.0,9.92948,-1.2543011,7.9081273
alexnet_w1_mlp_simclrhn_probe1,1,379,NaN,elephant,elephant,0,0379_rot_dnn_0_elephant_20_n02504458_7867.png,n02504458_7867.png,1.0,7.481463,1.4696543,4.2509904
alexnet_w1_mlp_simclrhn_probe1,1,380,NaN,keyboard,keyboard,180,0380_rot_dnn_180_keyboard_20_n04505470_807.png,n04505470_807.png,1.0,5.14128,2.0187123,2.207989
alexnet_w1_mlp_simclrhn_probe1,1,381,NaN,bicycle,bicycle,270,0381_rot_dnn_270_bicycle_20_n02835271_24104.png,n02835271_24104.png,1.0,2.2323616,-2.0906541,3.0568337
alexnet_w1_mlp_simclrhn_probe1,1,382,NaN,clock,bottle,0,0382_rot_dnn_0_bottle_20_n03937543_6698.png,n03937543_6698.png,0.0,-1.3841553,-1.1063635,-0.19642842
alexnet_w1_mlp_simclrhn_probe1,1,383,NaN,bicycle,oven,0,0383_rot_dnn_0_oven_20_n04111531_10403.png,n04111531_10403.png,0.0,-5.31235,0.981178,-4.4501963
alexnet_w1_mlp_simclrhn_probe1,1,384,NaN,truck,truck,0,0384_rot_dnn_0_truck_20_n03796401_8463.png,n03796401_8463.png,1.0,9.159649,2.9344862,4.4018545
alexnet_w1_mlp_simclrhn_probe1,1,385,NaN,truck,truck,0,0385_rot_dnn_0_truck_20_n03796401_8176.png,n03796401_8176.png,1.0,3.048727,2.2589002,0.55849195
alexnet_w1_mlp_simclrhn_probe1,1,386,NaN,keyboard,bottle,90,0386_rot_dnn_90_bottle_20_n03937543_984.png,n03937543_984.png,0.0,-0.39528605,-0.057442546,-0.23889144
alexnet_w1_mlp_simclrhn_probe1,1,387,NaN,bicycle,bicycle,90,0387_rot_dnn_90_bicycle_20_n02835271_11697.png,n02835271_11697.png,1.0,-1.0311852,-1.7467451,0.50597733
alexnet_w1_mlp_simclrhn_probe1,1,388,NaN,clock,keyboard,270,0388_rot_dnn_270_keyboard_20_n03085013_22417.png,n03085013_22417.png,0.0,-1.1735493,1.336713,-1.7750235
alexnet_w1_mlp_simclrhn_probe1,1,389,NaN,chair,car,270,0389_rot_dnn_270_car_20_n03100240_7602.png,n03100240_7602.png,0.0,-1.7702032,-0.23775923,-1.0836016
alexnet_w1_mlp_simclrhn_probe1,1,390,NaN,bird,bird,90,0390_rot_dnn_90_bird_20_n01534433_14389.png,n01534433_14389.png,1.0,-0.9126631,-2.8401077,1.3629092
alexnet_w1_mlp_simclrhn_probe1,1,391,NaN,cat,bear,0,0391_rot_dnn_0_bear_20_n02134084_2598.png,n02134084_2598.png,0.0,2.451263,3.2734358,-0.58136404
alexnet_w1_mlp_simclrhn_probe1,1,392,NaN,bird,bird,180,0392_rot_dnn_180_bird_20_n01560419_19599.png,n01560419_19599.png,1.0,-1.8952316,-5.553851,2.5870347
alexnet_w1_mlp_simclrhn_probe1,1,393,NaN,bicycle,bicycle,90,0393_rot_dnn_90_bicycle_20_n02835271_8747.png,n02835271_8747.png,1.0,-1.6057655,-1.7621986,0.11061491
alexnet_w1_mlp_simclrhn_probe1,1,394,NaN,knife,knife,180,0394_rot_dnn_180_knife_20_n03041632_30821.png,n03041632_30821.png,1.0,-1.5876067,-2.1458333,0.3947258
alexnet_w1_mlp_simclrhn_probe1,1,395,NaN,bicycle,chair,270,0395_rot_dnn_270_chair_20_n03376595_209.png,n03376595_209.png,0.0,-3.5879846,-1.4959624,-1.4792831
alexnet_w1_mlp_simclrhn_probe1,1,396,NaN,bicycle,boat,180,0396_rot_dnn_180_boat_20_n04273569_29113.png,n04273569_29113.png,0.0,-2.0088224,0.3286414,-1.6528366
alexnet_w1_mlp_simclrhn_probe1,1,397,NaN,bird,bird,270,0397_rot_dnn_270_bird_20_n02006656_6435.png,n02006656_6435.png,1.0,-0.9133697,-2.8362136,1.359656
alexnet_w1_mlp_simclrhn_probe1,1,398,NaN,chair,airplane,90,0398_rot_dnn_90_airplane_20_n02690373_3492.png,n02690373_3492.png,0.0,-13.020004,-0.552669,-8.815738
alexnet_w1_mlp_simclrhn_probe1,1,399,NaN,oven,oven,270,0399_rot_dnn_270_oven_20_n04111531_9380.png,n04111531_9380.png,1.0,2.4636571,-3.365868,4.1220965
alexnet_w1_mlp_simclrhn_probe1,1,400,NaN,bottle,keyboard,270,0400_rot_dnn_270_keyboard_20_n04505470_510.png,n04505470_510.png,0.0,-1.4104185,0.30355093,-1.2119595
alexnet_w1_mlp_simclrhn_probe1,1,401,NaN,bicycle,bird,180,0401_rot_dnn_180_bird_20_n02027492_20576.png,n02027492_20576.png,0.0,-1.5262526,-1.2769855,-0.17625846
alexnet_w1_mlp_simclrhn_probe1,1,402,NaN,knife,bird,90,0402_rot_dnn_90_bird_20_n01855032_1920.png,n01855032_1920.png,0.0,-4.3129153,-2.5885043,-1.2193427
alexnet_w1_mlp_simclrhn_probe1,1,403,NaN,airplane,boat,180,0403_rot_dnn_180_boat_20_n04273569_15761.png,n04273569_15761.png,0.0,-0.8690939,2.3843732,-2.3005488
alexnet_w1_mlp_simclrhn_probe1,1,404,NaN,oven,oven,180,0404_rot_dnn_180_oven_20_n04111531_10667.png,n04111531_10667.png,1.0,3.0597515,-3.3547323,4.535725
alexnet_w1_mlp_simclrhn_probe1,1,405,NaN,knife,knife,270,0405_rot_dnn_270_knife_20_n03041632_36215.png,n03041632_36215.png,1.0,1.0261991,-2.5927298,2.5589693
alexnet_w1_mlp_simclrhn_probe1,1,406,NaN,bicycle,bicycle,180,0406_rot_dnn_180_bicycle_20_n02835271_2625.png,n02835271_2625.png,1.0,1.5580871,-2.8483186,3.1157992
alexnet_w1_mlp_simclrhn_probe1,1,407,NaN,bicycle,bird,270,0407_rot_dnn_270_bird_20_n02028035_20411.png,n02028035_20411.png,0.0,-1.9473726,-1.4152852,-0.37624255
alexnet_w1_mlp_simclrhn_probe1,1,408,NaN,knife,knife,0,0408_rot_dnn_0_knife_20_n03041632_25656.png,n03041632_25656.png,1.0,-0.97894025,-1.3007616,0.22756205
alexnet_w1_mlp_simclrhn_probe1,1,409,NaN,elephant,oven,270,0409_rot_dnn_270_oven_20_n04111531_4332.png,n04111531_4332.png,0.0,-1.6833912,-1.037537,-0.45668793
alexnet_w1_mlp_simclrhn_probe1,1,410,NaN,keyboard,keyboard,180,0410_rot_dnn_180_keyboard_20_n04505470_3553.png,n04505470_3553.png,1.0,1.7224424,-0.18542306,1.3490646
alexnet_w1_mlp_simclrhn_probe1,1,411,NaN,bicycle,bicycle,180,0411_rot_dnn_180_bicycle_20_n02835271_18706.png,n02835271_18706.png,1.0,1.9560277,-1.8511835,2.692105
alexnet_w1_mlp_simclrhn_probe1,1,412,NaN,chair,truck,270,0412_rot_dnn_270_truck_20_n03417042_10744.png,n03417042_10744.png,0.0,-2.966659,0.85572183,-2.7028315
alexnet_w1_mlp_simclrhn_probe1,1,413,NaN,clock,clock,0,0413_rot_dnn_0_clock_20_n03196217_11724.png,n03196217_11724.png,1.0,3.5993168,0.12898533,2.4538949
alexnet_w1_mlp_simclrhn_probe1,1,414,NaN,bicycle,bicycle,270,0414_rot_dnn_270_bicycle_20_n02835271_14123.png,n02835271_14123.png,1.0,-0.57095075,-1.8386697,0.8964127
alexnet_w1_mlp_simclrhn_probe1,1,415,NaN,oven,bicycle,270,0415_rot_dnn_270_bicycle_20_n02835271_7900.png,n02835271_7900.png,0.0,-2.2016168,-0.79171246,-0.9969529
alexnet_w1_mlp_simclrhn_probe1,1,416,NaN,truck,truck,270,0416_rot_dnn_270_truck_20_n03417042_2153.png,n03417042_2153.png,1.0,-0.36627388,-0.86264575,0.3509879
alexnet_w1_mlp_simclrhn_probe1,1,417,NaN,bear,bicycle,270,0417_rot_dnn_270_bicycle_20_n03792782_10129.png,n03792782_10129.png,0.0,-4.9421163,0.9583607,-4.1722674
alexnet_w1_mlp_simclrhn_probe1,1,418,NaN,bird,bird,180,0418_rot_dnn_180_bird_20_n01514859_18430.png,n01514859_18430.png,1.0,-0.2303047,-1.8305573,1.1315495
alexnet_w1_mlp_simclrhn_probe1,1,419,NaN,chair,chair,0,0419_rot_dnn_0_chair_20_n04099969_5010.png,n04099969_5010.png,1.0,2.0026257,0.31228343,1.1952525
alexnet_w1_mlp_simclrhn_probe1,1,420,NaN,chair,truck,0,0420_rot_dnn_0_truck_20_n03796401_588.png,n03796401_588.png,0.0,-0.2849091,1.8074015,-1.4794871
alexnet_w1_mlp_simclrhn_probe1,1,421,NaN,car,car,0,0421_rot_dnn_0_car_20_n02814533_486.png,n02814533_486.png,1.0,11.540504,8.219391,2.348382
alexnet_w1_mlp_simclrhn_probe1,1,422,NaN,oven,elephant,90,0422_rot_dnn_90_elephant_20_n02504013_3540.png,n02504013_3540.png,0.0,-2.368666,-0.74082947,-1.1510543
alexnet_w1_mlp_simclrhn_probe1,1,423,NaN,bicycle,car,180,0423_rot_dnn_180_car_20_n02814533_55715.png,n02814533_55715.png,0.0,-5.071976,-1.0483029,-2.8451664
alexnet_w1_mlp_simclrhn_probe1,1,424,NaN,knife,bottle,180,0424_rot_dnn_180_bottle_20_n03983396_10896.png,n03983396_10896.png,0.0,-1.3965911,-1.3227136,-0.05223925
alexnet_w1_mlp_simclrhn_probe1,1,425,NaN,bottle,bottle,90,0425_rot_dnn_90_bottle_20_n04557648_15053.png,n04557648_15053.png,1.0,1.3059847,-0.37821984,1.1909125
alexnet_w1_mlp_simclrhn_probe1,1,426,NaN,car,car,0,0426_rot_dnn_0_car_20_n04285008_8281.png,n04285008_8281.png,1.0,13.045368,6.010935,4.974096
alexnet_w1_mlp_simclrhn_probe1,1,427,NaN,bottle,car,270,0427_rot_dnn_270_car_20_n02814533_38596.png,n02814533_38596.png,0.0,-3.0064638,0.928497,-2.7824376
alexnet_w1_mlp_simclrhn_probe1,1,428,NaN,elephant,elephant,270,0428_rot_dnn_270_elephant_20_n02504013_15219.png,n02504013_15219.png,1.0,0.34447137,-0.39688584,0.52421874
alexnet_w1_mlp_simclrhn_probe1,1,429,NaN,elephant,elephant,180,0429_rot_dnn_180_elephant_20_n02504013_828.png,n02504013_828.png,1.0,2.7934299,-0.9500966,2.647073
alexnet_w1_mlp_simclrhn_probe1,1,430,NaN,oven,oven,180,0430_rot_dnn_180_oven_20_n04111531_1439.png,n04111531_1439.png,1.0,6.513834,-1.9461064,5.982081
alexnet_w1_mlp_simclrhn_probe1,1,431,NaN,oven,bottle,90,0431_rot_dnn_90_bottle_20_n03983396_3315.png,n03983396_3315.png,0.0,-1.6997778,-1.2313874,-0.3312021
alexnet_w1_mlp_simclrhn_probe1,1,432,NaN,clock,airplane,90,0432_rot_dnn_90_airplane_20_n02690373_4024.png,n02690373_4024.png,0.0,-2.4083712,-2.1769142,-0.16366482
alexnet_w1_mlp_simclrhn_probe1,1,433,NaN,knife,elephant,270,0433_rot_dnn_270_elephant_20_n02504013_10301.png,n02504013_10301.png,0.0,-2.0948644,-1.3939046,-0.49565345
alexnet_w1_mlp_simclrhn_probe1,1,434,NaN,oven,oven,180,0434_rot_dnn_180_oven_20_n04111531_7067.png,n04111531_7067.png,1.0,4.317123,-1.2833489,3.960132
alexnet_w1_mlp_simclrhn_probe1,1,435,NaN,knife,knife,90,0435_rot_dnn_90_knife_20_n03041632_36834.png,n03041632_36834.png,1.0,0.13711266,-3.297539,2.4286654
alexnet_w1_mlp_simclrhn_probe1,1,436,NaN,car,car,90,0436_rot_dnn_90_car_20_n02814533_18148.png,n02814533_18148.png,1.0,-0.419127,-0.9736101,0.3920788
alexnet_w1_mlp_simclrhn_probe1,1,437,NaN,elephant,cat,90,0437_rot_dnn_90_cat_20_n02125311_41284.png,n02125311_41284.png,0.0,-1.2151631,0.033458948,-0.8829091
alexnet_w1_mlp_simclrhn_probe1,1,438,NaN,bicycle,bicycle,0,0438_rot_dnn_0_bicycle_20_n02835271_18188.png,n02835271_18188.png,1.0,5.3709373,-2.2917082,5.4183087
alexnet_w1_mlp_simclrhn_probe1,1,439,NaN,bottle,bottle,0,0439_rot_dnn_0_bottle_20_n04591713_2903.png,n04591713_2903.png,1.0,2.6777813,0.07302415,1.8418416
alexnet_w1_mlp_simclrhn_probe1,1,440,NaN,bottle,knife,0,0440_rot_dnn_0_knife_20_n03041632_54191.png,n03041632_54191.png,0.0,0.64068717,0.7160823,-0.05331239
alexnet_w1_mlp_simclrhn_probe1,1,441,NaN,truck,truck,180,0441_rot_dnn_180_truck_20_n03417042_8867.png,n03417042_8867.png,1.0,1.2754743,-0.042134345,0.93169
alexnet_w1_mlp_simclrhn_probe1,1,442,NaN,knife,oven,270,0442_rot_dnn_270_oven_20_n04111531_8421.png,n04111531_8421.png,0.0,-1.0612906,-0.774707,-0.20264521
alexnet_w1_mlp_simclrhn_probe1,1,443,NaN,oven,elephant,270,0443_rot_dnn_270_elephant_20_n02504013_4062.png,n02504013_4062.png,0.0,-2.8201265,0.81137574,-2.56786
alexnet_w1_mlp_simclrhn_probe1,1,444,NaN,keyboard,keyboard,270,0444_rot_dnn_270_keyboard_20_n04505470_1649.png,n04505470_1649.png,1.0,4.376135,-0.8267299,3.6789808
alexnet_w1_mlp_simclrhn_probe1,1,445,NaN,airplane,boat,180,0445_rot_dnn_180_boat_20_n03344393_7967.png,n03344393_7967.png,0.0,-1.2384648,1.065701,-1.6292913
alexnet_w1_mlp_simclrhn_probe1,1,446,NaN,bicycle,bicycle,0,0446_rot_dnn_0_bicycle_20_n02835271_10265.png,n02835271_10265.png,1.0,7.840553,-2.221351,7.1148405
alexnet_w1_mlp_simclrhn_probe1,1,447,NaN,oven,bicycle,180,0447_rot_dnn_180_bicycle_20_n02835271_6742.png,n02835271_6742.png,0.0,-1.4897232,-1.4208677,-0.04868821
alexnet_w1_mlp_simclrhn_probe1,1,448,NaN,cat,cat,180,0448_rot_dnn_180_cat_20_n02123045_3168.png,n02123045_3168.png,1.0,0.1791331,-0.5446679,0.51180464
alexnet_w1_mlp_simclrhn_probe1,1,449,NaN,airplane,car,180,0449_rot_dnn_180_car_20_n03100240_8489.png,n03100240_8489.png,0.0,-1.109211,0.089702725,-0.84776
alexnet_w1_mlp_simclrhn_probe1,1,450,NaN,oven,oven,270,0450_rot_dnn_270_oven_20_n04111531_1826.png,n04111531_1826.png,1.0,1.4935495,-0.7020651,1.552534
alexnet_w1_mlp_simclrhn_probe1,1,451,NaN,dog,dog,180,0451_rot_dnn_180_dog_20_n02104365_1592.png,n02104365_1592.png,1.0,0.3180456,-0.071995094,0.27580044
alexnet_w1_mlp_simclrhn_probe1,1,452,NaN,bicycle,boat,90,0452_rot_dnn_90_boat_20_n02951358_4343.png,n02951358_4343.png,0.0,-7.6091866,-3.1149583,-3.1778994
alexnet_w1_mlp_simclrhn_probe1,1,453,NaN,bottle,bottle,0,0453_rot_dnn_0_bottle_20_n02823428_4282.png,n02823428_4282.png,1.0,10.9644985,1.0718207,6.995179
alexnet_w1_mlp_simclrhn_probe1,1,454,NaN,bird,bird,0,0454_rot_dnn_0_bird_20_n01817953_2043.png,n01817953_2043.png,1.0,-0.9305717,-2.1808538,0.88408303
alexnet_w1_mlp_simclrhn_probe1,1,455,NaN,dog,dog,0,0455_rot_dnn_0_dog_20_n02110958_14369.png,n02110958_14369.png,1.0,-2.48376,-3.114391,0.44592345
alexnet_w1_mlp_simclrhn_probe1,1,456,NaN,dog,dog,270,0456_rot_dnn_270_dog_20_n02108000_1044.png,n02108000_1044.png,1.0,-1.7906537,-1.8362546,0.0322447
alexnet_w1_mlp_simclrhn_probe1,1,457,NaN,knife,dog,270,0457_rot_dnn_270_dog_20_n02087394_1428.png,n02087394_1428.png,0.0,-3.422255,-1.1375959,-1.615498
alexnet_w1_mlp_simclrhn_probe1,1,458,NaN,bottle,airplane,90,0458_rot_dnn_90_airplane_20_n02690373_2856.png,n02690373_2856.png,0.0,-16.190907,-2.6969638,-9.541658
alexnet_w1_mlp_simclrhn_probe1,1,459,NaN,chair,chair,0,0459_rot_dnn_0_chair_20_n03376595_19165.png,n03376595_19165.png,1.0,0.7876628,0.1690321,0.43743798
alexnet_w1_mlp_simclrhn_probe1,1,460,NaN,chair,chair,270,0460_rot_dnn_270_chair_20_n04099969_42125.png,n04099969_42125.png,1.0,1.9935838,0.18674749,1.2776263
alexnet_w1_mlp_simclrhn_probe1,1,461,NaN,bottle,bottle,270,0461_rot_dnn_270_bottle_20_n02823428_12656.png,n02823428_12656.png,1.0,2.3047888,0.037196696,1.6034298
alexnet_w1_mlp_simclrhn_probe1,1,462,NaN,bicycle,bicycle,180,0462_rot_dnn_180_bicycle_20_n02835271_5861.png,n02835271_5861.png,1.0,4.0610743,-2.4626403,4.6129627
alexnet_w1_mlp_simclrhn_probe1,1,463,NaN,airplane,airplane,90,0463_rot_dnn_90_airplane_20_n02690373_19345.png,n02690373_19345.png,1.0,-1.2796289,-1.9891226,0.5016879
alexnet_w1_mlp_simclrhn_probe1,1,464,NaN,clock,clock,90,0464_rot_dnn_90_clock_20_n02708093_8069.png,n02708093_8069.png,1.0,5.4072337,1.8906536,2.4865978
alexnet_w1_mlp_simclrhn_probe1,1,465,NaN,clock,chair,270,0465_rot_dnn_270_chair_20_n04099969_16.png,n04099969_16.png,0.0,-2.5763085,-2.0733073,-0.35567558
alexnet_w1_mlp_simclrhn_probe1,1,466,NaN,dog,dog,270,0466_rot_dnn_270_dog_20_n02104365_1756.png,n02104365_1756.png,1.0,-0.99617934,-1.5277461,0.37587446
alexnet_w1_mlp_simclrhn_probe1,1,467,NaN,bird,bird,270,0467_rot_dnn_270_bird_20_n01819313_17231.png,n01819313_17231.png,1.0,-1.2055655,-2.2641544,0.74853545
alexnet_w1_mlp_simclrhn_probe1,1,468,NaN,bottle,car,90,0468_rot_dnn_90_car_20_n02814533_34149.png,n02814533_34149.png,0.0,-3.0932455,0.49638048,-2.538249
alexnet_w1_mlp_simclrhn_probe1,1,469,NaN,knife,knife,0,0469_rot_dnn_0_knife_20_n03041632_26053.png,n03041632_26053.png,1.0,-0.15913199,-0.3558795,0.13912149
alexnet_w1_mlp_simclrhn_probe1,1,470,NaN,oven,oven,0,0470_rot_dnn_0_oven_20_n04111531_11287.png,n04111531_11287.png,1.0,2.5108216,0.11013885,1.6975391
alexnet_w1_mlp_simclrhn_probe1,1,471,NaN,airplane,bottle,0,0471_rot_dnn_0_bottle_20_n03937543_11959.png,n03937543_11959.png,0.0,-2.2610204,0.112195626,-1.6781173
alexnet_w1_mlp_simclrhn_probe1,1,472,NaN,knife,airplane,270,0472_rot_dnn_270_airplane_20_n02690373_1348.png,n02690373_1348.png,0.0,-6.7941523,-1.3724765,-3.8337038
alexnet_w1_mlp_simclrhn_probe1,1,473,NaN,elephant,bear,0,0473_rot_dnn_0_bear_20_n02132136_5175.png,n02132136_5175.png,0.0,4.2116055,5.0642824,-0.6029336
alexnet_w1_mlp_simclrhn_probe1,1,474,NaN,knife,keyboard,270,0474_rot_dnn_270_keyboard_20_n03085013_7382.png,n03085013_7382.png,0.0,-5.0863795,-0.7333571,-3.0780518
alexnet_w1_mlp_simclrhn_probe1,1,475,NaN,oven,dog,270,0475_rot_dnn_270_dog_20_n02109961_4280.png,n02109961_4280.png,0.0,-2.064766,-1.0151144,-0.7422157
alexnet_w1_mlp_simclrhn_probe1,1,476,NaN,bicycle,truck,90,0476_rot_dnn_90_truck_20_n03417042_1344.png,n03417042_1344.png,0.0,-2.5182934,0.77078503,-2.3257298
alexnet_w1_mlp_simclrhn_probe1,1,477,NaN,elephant,elephant,0,0477_rot_dnn_0_elephant_20_n02504013_9299.png,n02504013_9299.png,1.0,11.889166,2.194305,6.855302
alexnet_w1_mlp_simclrhn_probe1,1,478,NaN,bear,bear,0,0478_rot_dnn_0_bear_20_n02134418_5527.png,n02134418_5527.png,1.0,2.937692,-0.45561725,2.399432
alexnet_w1_mlp_simclrhn_probe1,1,479,NaN,keyboard,keyboard,270,0479_rot_dnn_270_keyboard_20_n03085013_23109.png,n03085013_23109.png,1.0,-0.5921092,-0.84496987,0.1787995
alexnet_w1_mlp_simclrhn_probe1,1,480,NaN,bear,bear,180,0480_rot_dnn_180_bear_20_n02133161_4393.png,n02133161_4393.png,1.0,1.3267775,-1.1288234,1.736372
alexnet_w1_mlp_simclrhn_probe1,1,481,NaN,oven,oven,0,0481_rot_dnn_0_oven_20_n04111531_73.png,n04111531_73.png,1.0,3.8169758,1.1987512,1.8513644
alexnet_w1_mlp_simclrhn_probe1,1,482,NaN,oven,keyboard,0,0482_rot_dnn_0_keyboard_20_n03085013_7613.png,n03085013_7613.png,0.0,-0.2685661,-0.17069596,-0.06920464
alexnet_w1_mlp_simclrhn_probe1,1,483,NaN,oven,oven,180,0483_rot_dnn_180_oven_20_n04111531_2795.png,n04111531_2795.png,1.0,3.359806,-2.9694576,4.4754653
alexnet_w1_mlp_simclrhn_probe1,1,484,NaN,oven,oven,0,0484_rot_dnn_0_oven_20_n04111531_22517.png,n04111531_22517.png,1.0,5.364091,-2.0380292,5.2340894
alexnet_w1_mlp_simclrhn_probe1,1,485,NaN,oven,elephant,90,0485_rot_dnn_90_elephant_20_n02504458_2613.png,n02504458_2613.png,0.0,-2.7584217,-2.4680376,-0.20533253
alexnet_w1_mlp_simclrhn_probe1,1,486,NaN,oven,oven,180,0486_rot_dnn_180_oven_20_n04111531_9176.png,n04111531_9176.png,1.0,3.9884381,-4.7806473,6.2006793
alexnet_w1_mlp_simclrhn_probe1,1,487,NaN,bottle,bottle,180,0487_rot_dnn_180_bottle_20_n04557648_5790.png,n04557648_5790.png,1.0,3.751637,2.435218,0.9308487
alexnet_w1_mlp_simclrhn_probe1,1,488,NaN,bottle,truck,90,0488_rot_dnn_90_truck_20_n04467665_9812.png,n04467665_9812.png,0.0,-3.4020276,0.009267828,-2.4121501
alexnet_w1_mlp_simclrhn_probe1,1,489,NaN,bottle,bottle,0,0489_rot_dnn_0_bottle_20_n04591713_7476.png,n04591713_7476.png,1.0,0.4342229,-3.1400526,2.5273945
alexnet_w1_mlp_simclrhn_probe1,1,490,NaN,elephant,elephant,90,0490_rot_dnn_90_elephant_20_n02504458_1567.png,n02504458_1567.png,1.0,0.8084521,-1.0425401,1.3088492
alexnet_w1_mlp_simclrhn_probe1,1,491,NaN,clock,clock,90,0491_rot_dnn_90_clock_20_n04548280_6865.png,n04548280_6865.png,1.0,3.1700466,-0.18679169,2.3736432
alexnet_w1_mlp_simclrhn_probe1,1,492,NaN,bottle,bottle,180,0492_rot_dnn_180_bottle_20_n02823428_3.png,n02823428_3.png,1.0,1.6521205,-1.4496752,2.1933007
alexnet_w1_mlp_simclrhn_probe1,1,493,NaN,elephant,boat,90,0493_rot_dnn_90_boat_20_n04273569_8951.png,n04273569_8951.png,0.0,-7.2147126,-1.1685357,-4.275293
alexnet_w1_mlp_simclrhn_probe1,1,494,NaN,knife,knife,180,0494_rot_dnn_180_knife_20_n03041632_53874.png,n03041632_53874.png,1.0,-0.017396204,-3.394339,2.3878593
alexnet_w1_mlp_simclrhn_probe1,1,495,NaN,chair,clock,0,0495_rot_dnn_0_clock_20_n04548280_6126.png,n04548280_6126.png,0.0,-1.077401,-0.7771118,-0.21233654
alexnet_w1_mlp_simclrhn_probe1,1,496,NaN,cat,cat,180,0496_rot_dnn_180_cat_20_n02123597_6186.png,n02123597_6186.png,1.0,2.4188273,-0.86066836,2.3189538
alexnet_w1_mlp_simclrhn_probe1,1,497,NaN,oven,cat,270,0497_rot_dnn_270_cat_20_n02124075_14662.png,n02124075_14662.png,0.0,-2.2257152,-1.50091,-0.51251465
alexnet_w1_mlp_simclrhn_probe1,1,498,NaN,clock,car,90,0498_rot_dnn_90_car_20_n04285008_8677.png,n04285008_8677.png,0.0,-5.320203,-0.49849233,-3.4094644
alexnet_w1_mlp_simclrhn_probe1,1,499,NaN,bird,bird,90,0499_rot_dnn_90_bird_20_n01820546_2568.png,n01820546_2568.png,1.0,-1.8331151,-2.7388413,0.6404452
alexnet_w1_mlp_simclrhn_probe1,1,500,NaN,clock,clock,90,0500_rot_dnn_90_clock_20_n04548280_7354.png,n04548280_7354.png,1.0,0.29363337,-1.3998339,1.1974622
alexnet_w1_mlp_simclrhn_probe1,1,501,NaN,clock,bicycle,270,0501_rot_dnn_270_bicycle_20_n03792782_586.png,n03792782_586.png,0.0,0.27983427,1.3375878,-0.7479447
alexnet_w1_mlp_simclrhn_probe1,1,502,NaN,elephant,bear,0,0502_rot_dnn_0_bear_20_n02134084_572.png,n02134084_572.png,0.0,2.0505517,2.9335208,-0.62435347
alexnet_w1_mlp_simclrhn_probe1,1,503,NaN,bicycle,bicycle,270,0503_rot_dnn_270_bicycle_20_n03792782_3388.png,n03792782_3388.png,1.0,-1.4210225,-2.3339863,0.6455629
alexnet_w1_mlp_simclrhn_probe1,1,504,NaN,bicycle,bicycle,270,0504_rot_dnn_270_bicycle_20_n03792782_28970.png,n03792782_28970.png,1.0,8.68229,0.4514221,5.8201027
alexnet_w1_mlp_simclrhn_probe1,1,505,NaN,oven,bottle,270,0505_rot_dnn_270_bottle_20_n04560804_11386.png,n04560804_11386.png,0.0,-1.3269217,1.4910634,-1.9926164
alexnet_w1_mlp_simclrhn_probe1,1,506,NaN,chair,chair,180,0506_rot_dnn_180_chair_20_n03376595_6799.png,n03376595_6799.png,1.0,0.41934168,-0.8891033,0.92521036
alexnet_w1_mlp_simclrhn_probe1,1,507,NaN,cat,dog,270,0507_rot_dnn_270_dog_20_n02094258_6398.png,n02094258_6398.png,0.0,-0.5968231,2.921448,-2.4877932
alexnet_w1_mlp_simclrhn_probe1,1,508,NaN,bird,bird,0,0508_rot_dnn_0_bird_20_n01592084_2639.png,n01592084_2639.png,1.0,-1.4939386,-4.511161,2.1334984
alexnet_w1_mlp_simclrhn_probe1,1,509,NaN,bicycle,bird,180,0509_rot_dnn_180_bird_20_n02017213_4781.png,n02017213_4781.png,0.0,-2.0293515,-0.6825351,-0.9523429
alexnet_w1_mlp_simclrhn_probe1,1,510,NaN,knife,airplane,270,0510_rot_dnn_270_airplane_20_n02690373_3818.png,n02690373_3818.png,0.0,-7.0187593,-0.64831185,-4.5045867
alexnet_w1_mlp_simclrhn_probe1,1,511,NaN,bicycle,bicycle,90,0511_rot_dnn_90_bicycle_20_n03792782_26383.png,n03792782_26383.png,1.0,2.9272163,-0.47861397,2.4082859
alexnet_w1_mlp_simclrhn_probe1,1,512,NaN,oven,oven,90,0512_rot_dnn_90_oven_20_n04111531_5216.png,n04111531_5216.png,1.0,7.359118,-0.7945446,5.76551
alexnet_w1_mlp_simclrhn_probe1,1,513,NaN,airplane,airplane,180,0513_rot_dnn_180_airplane_20_n02690373_20331.png,n02690373_20331.png,1.0,-0.5681763,-1.1780777,0.4312654
alexnet_w1_mlp_simclrhn_probe1,1,514,NaN,clock,truck,180,0514_rot_dnn_180_truck_20_n04467665_23691.png,n04467665_23691.png,0.0,-1.1100103,0.3954216,-1.0645012
alexnet_w1_mlp_simclrhn_probe1,1,515,NaN,bird,bird,0,0515_rot_dnn_0_bird_20_n02009229_492.png,n02009229_492.png,1.0,1.1000909,-2.3302956,2.4256496
alexnet_w1_mlp_simclrhn_probe1,1,516,NaN,bird,bird,90,0516_rot_dnn_90_bird_20_n02002556_5890.png,n02002556_5890.png,1.0,1.0046697,-0.99487925,1.4138947
alexnet_w1_mlp_simclrhn_probe1,1,517,NaN,bird,bird,270,0517_rot_dnn_270_bird_20_n01855032_5358.png,n01855032_5358.png,1.0,-2.1443055,-2.5240688,0.26853326
alexnet_w1_mlp_simclrhn_probe1,1,518,NaN,cat,dog,180,0518_rot_dnn_180_dog_20_n02112350_10026.png,n02112350_10026.png,0.0,-0.5551531,-0.13914208,-0.29416418
alexnet_w1_mlp_simclrhn_probe1,1,519,NaN,knife,knife,90,0519_rot_dnn_90_knife_20_n03041632_11773.png,n03041632_11773.png,1.0,-1.1138998,-1.4600886,0.24479245
alexnet_w1_mlp_simclrhn_probe1,1,520,NaN,elephant,elephant,0,0520_rot_dnn_0_elephant_20_n02504013_20486.png,n02504013_20486.png,1.0,8.835643,1.7487261,5.011207
alexnet_w1_mlp_simclrhn_probe1,1,521,NaN,oven,oven,0,0521_rot_dnn_0_oven_20_n04111531_27.png,n04111531_27.png,1.0,5.75051,2.3302288,2.4185042
alexnet_w1_mlp_simclrhn_probe1,1,522,NaN,cat,bird,180,0522_rot_dnn_180_bird_20_n01855672_15421.png,n01855672_15421.png,0.0,-3.5438643,-1.2739428,-1.6050768
alexnet_w1_mlp_simclrhn_probe1,1,523,NaN,bear,bear,270,0523_rot_dnn_270_bear_20_n02132136_239.png,n02132136_239.png,1.0,1.9934905,-0.9841365,2.1055002
alexnet_w1_mlp_simclrhn_probe1,1,524,NaN,keyboard,keyboard,90,0524_rot_dnn_90_keyboard_20_n03085013_25924.png,n03085013_25924.png,1.0,3.3042774,0.3145808,2.1140347
alexnet_w1_mlp_simclrhn_probe1,1,525,NaN,bicycle,bicycle,180,0525_rot_dnn_180_bicycle_20_n03792782_6030.png,n03792782_6030.png,1.0,2.1945093,-3.1452992,3.7758148
alexnet_w1_mlp_simclrhn_probe1,1,526,NaN,oven,bottle,270,0526_rot_dnn_270_bottle_20_n03983396_5497.png,n03983396_5497.png,0.0,-3.6589658,1.3222722,-3.522267
alexnet_w1_mlp_simclrhn_probe1,1,527,NaN,oven,chair,180,0527_rot_dnn_180_chair_20_n04429376_6390.png,n04429376_6390.png,0.0,0.6361037,2.8706846,-1.5800874
alexnet_w1_mlp_simclrhn_probe1,1,528,NaN,cat,dog,90,0528_rot_dnn_90_dog_20_n02100877_11159.png,n02100877_11159.png,0.0,-2.3422937,-1.5037562,-0.5929356
alexnet_w1_mlp_simclrhn_probe1,1,529,NaN,bottle,bottle,180,0529_rot_dnn_180_bottle_20_n04579145_579.png,n04579145_579.png,1.0,0.9461554,-0.3464294,0.91399556
alexnet_w1_mlp_simclrhn_probe1,1,530,NaN,cat,cat,90,0530_rot_dnn_90_cat_20_n02123159_5678.png,n02123159_5678.png,1.0,0.22929983,-5.649418,4.1568813
alexnet_w1_mlp_simclrhn_probe1,1,531,NaN,elephant,elephant,180,0531_rot_dnn_180_elephant_20_n02504013_13283.png,n02504013_13283.png,1.0,-1.0180068,-1.2135476,0.13826822
alexnet_w1_mlp_simclrhn_probe1,1,532,NaN,bear,dog,90,0532_rot_dnn_90_dog_20_n02095570_7633.png,n02095570_7633.png,0.0,-1.430906,0.9921323,-1.713347
alexnet_w1_mlp_simclrhn_probe1,1,533,NaN,chair,clock,180,0533_rot_dnn_180_clock_20_n02708093_8311.png,n02708093_8311.png,0.0,-3.4979098,0.077488035,-2.528188
alexnet_w1_mlp_simclrhn_probe1,1,534,NaN,knife,chair,270,0534_rot_dnn_270_chair_20_n03376595_426.png,n03376595_426.png,0.0,-1.2947861,-1.0301673,-0.18711372
alexnet_w1_mlp_simclrhn_probe1,1,535,NaN,elephant,dog,180,0535_rot_dnn_180_dog_20_n02100877_3112.png,n02100877_3112.png,0.0,-3.0506651,-1.3135614,-1.2283179
alexnet_w1_mlp_simclrhn_probe1,1,536,NaN,bottle,car,270,0536_rot_dnn_270_car_20_n02814533_458.png,n02814533_458.png,0.0,-1.6202809,-0.66698694,-0.6740806
alexnet_w1_mlp_simclrhn_probe1,1,537,NaN,bird,bird,0,0537_rot_dnn_0_bird_20_n02006656_5079.png,n02006656_5079.png,1.0,0.95155996,-2.9696836,2.772738
alexnet_w1_mlp_simclrhn_probe1,1,538,NaN,clock,boat,90,0538_rot_dnn_90_boat_20_n04273569_12725.png,n04273569_12725.png,0.0,-4.2475157,-3.4007053,-0.59878534
alexnet_w1_mlp_simclrhn_probe1,1,539,NaN,cat,cat,270,0539_rot_dnn_270_cat_20_n02123045_6677.png,n02123045_6677.png,1.0,0.80801517,-1.508854,1.638274
alexnet_w1_mlp_simclrhn_probe1,1,540,NaN,bicycle,bicycle,270,0540_rot_dnn_270_bicycle_20_n02835271_4440.png,n02835271_4440.png,1.0,2.0828404,-3.1999938,3.7355278
alexnet_w1_mlp_simclrhn_probe1,1,541,NaN,keyboard,keyboard,270,0541_rot_dnn_270_keyboard_20_n03085013_21444.png,n03085013_21444.png,1.0,1.9193199,-0.9576546,2.0343282
alexnet_w1_mlp_simclrhn_probe1,1,542,NaN,clock,clock,180,0542_rot_dnn_180_clock_20_n02708093_8255.png,n02708093_8255.png,1.0,0.23082495,-0.14363171,0.26478085
alexnet_w1_mlp_simclrhn_probe1,1,543,NaN,bicycle,bicycle,0,0543_rot_dnn_0_bicycle_20_n02835271_30318.png,n02835271_30318.png,1.0,-1.4750178,-1.9709784,0.3506971
alexnet_w1_mlp_simclrhn_probe1,1,544,NaN,cat,cat,180,0544_rot_dnn_180_cat_20_n02123394_2059.png,n02123394_2059.png,1.0,-1.2715696,-2.6188633,0.9526805
alexnet_w1_mlp_simclrhn_probe1,1,545,NaN,elephant,elephant,180,0545_rot_dnn_180_elephant_20_n02504013_6618.png,n02504013_6618.png,1.0,1.1498525,0.42772794,0.5106192
alexnet_w1_mlp_simclrhn_probe1,1,546,NaN,cat,cat,270,0546_rot_dnn_270_cat_20_n02124075_8889.png,n02124075_8889.png,1.0,-0.5136375,-1.0327703,0.36708233
alexnet_w1_mlp_simclrhn_probe1,1,547,NaN,oven,dog,90,0547_rot_dnn_90_dog_20_n02100877_7302.png,n02100877_7302.png,0.0,-2.9992306,-0.9915253,-1.419662
alexnet_w1_mlp_simclrhn_probe1,1,548,NaN,chair,car,180,0548_rot_dnn_180_car_20_n02814533_85971.png,n02814533_85971.png,0.0,-0.9401696,0.24974024,-0.8413933
alexnet_w1_mlp_simclrhn_probe1,1,549,NaN,chair,chair,0,0549_rot_dnn_0_chair_20_n03376595_5909.png,n03376595_5909.png,1.0,3.0814078,-0.54013675,2.5608187
alexnet_w1_mlp_simclrhn_probe1,1,550,NaN,knife,keyboard,270,0550_rot_dnn_270_keyboard_20_n03085013_13083.png,n03085013_13083.png,0.0,-0.87635756,-0.24394532,-0.447183
alexnet_w1_mlp_simclrhn_probe1,1,551,NaN,oven,oven,90,0551_rot_dnn_90_oven_20_n04111531_9611.png,n04111531_9611.png,1.0,-0.59373766,-1.2065821,0.43334645
alexnet_w1_mlp_simclrhn_probe1,1,552,NaN,boat,boat,0,0552_rot_dnn_0_boat_20_n02951358_13996.png,n02951358_13996.png,1.0,-2.1942763,-2.7374914,0.38411105
alexnet_w1_mlp_simclrhn_probe1,1,553,NaN,boat,boat,0,0553_rot_dnn_0_boat_20_n03344393_9251.png,n03344393_9251.png,1.0,3.227143,1.780029,1.0232642
alexnet_w1_mlp_simclrhn_probe1,1,554,NaN,chair,airplane,180,0554_rot_dnn_180_airplane_20_n02690373_9175.png,n02690373_9175.png,0.0,-2.5999308,-0.06961179,-1.7892058
alexnet_w1_mlp_simclrhn_probe1,1,555,NaN,elephant,bear,0,0555_rot_dnn_0_bear_20_n02132136_2791.png,n02132136_2791.png,0.0,2.9058485,3.273741,-0.2601393
alexnet_w1_mlp_simclrhn_probe1,1,556,NaN,elephant,elephant,180,0556_rot_dnn_180_elephant_20_n02504458_193.png,n02504458_193.png,1.0,-1.746973,-2.0529888,0.2163858
alexnet_w1_mlp_simclrhn_probe1,1,557,NaN,bird,bird,270,0557_rot_dnn_270_bird_20_n01843383_9985.png,n01843383_9985.png,1.0,-1.9219466,-3.4542875,1.0835286
alexnet_w1_mlp_simclrhn_probe1,1,558,NaN,bird,bird,270,0558_rot_dnn_270_bird_20_n02028035_10744.png,n02028035_10744.png,1.0,-0.55827963,-2.7300138,1.5356481
alexnet_w1_mlp_simclrhn_probe1,1,559,NaN,chair,truck,270,0559_rot_dnn_270_truck_20_n04467665_3720.png,n04467665_3720.png,0.0,-1.959992,1.6296996,-2.5382953
alexnet_w1_mlp_simclrhn_probe1,1,560,NaN,car,car,0,0560_rot_dnn_0_car_20_n02814533_52605.png,n02814533_52605.png,1.0,5.3810678,4.0997505,0.9060281
alexnet_w1_mlp_simclrhn_probe1,1,561,NaN,clock,clock,90,0561_rot_dnn_90_clock_20_n04548280_5631.png,n04548280_5631.png,1.0,7.6289077,0.06315384,5.349796
alexnet_w1_mlp_simclrhn_probe1,1,562,NaN,oven,oven,0,0562_rot_dnn_0_oven_20_n04111531_1922.png,n04111531_1922.png,1.0,7.257082,-3.3587394,7.50652
alexnet_w1_mlp_simclrhn_probe1,1,563,NaN,airplane,boat,180,0563_rot_dnn_180_boat_20_n03662601_1197.png,n03662601_1197.png,0.0,-1.0546408,2.2207625,-2.3160598
alexnet_w1_mlp_simclrhn_probe1,1,564,NaN,clock,clock,270,0564_rot_dnn_270_clock_20_n02708093_1862.png,n02708093_1862.png,1.0,1.5451216,-2.3962717,2.786986
alexnet_w1_mlp_simclrhn_probe1,1,565,NaN,truck,truck,180,0565_rot_dnn_180_truck_20_n03796401_4582.png,n03796401_4582.png,1.0,2.041339,1.961921,0.056156967
alexnet_w1_mlp_simclrhn_probe1,1,566,NaN,elephant,elephant,90,0566_rot_dnn_90_elephant_20_n02504013_565.png,n02504013_565.png,1.0,-0.8580075,-1.3298594,0.33364967
alexnet_w1_mlp_simclrhn_probe1,1,567,NaN,chair,truck,180,0567_rot_dnn_180_truck_20_n04467665_49826.png,n04467665_49826.png,0.0,-1.3404737,-0.074885786,-0.89490575
alexnet_w1_mlp_simclrhn_probe1,1,568,NaN,bear,bear,270,0568_rot_dnn_270_bear_20_n02134418_5067.png,n02134418_5067.png,1.0,0.8152567,0.16774264,0.45786163
alexnet_w1_mlp_simclrhn_probe1,1,569,NaN,oven,chair,90,0569_rot_dnn_90_chair_20_n04429376_29223.png,n04429376_29223.png,0.0,-1.162813,-0.4816316,-0.48166794
alexnet_w1_mlp_simclrhn_probe1,1,570,NaN,knife,airplane,270,0570_rot_dnn_270_airplane_20_n02690373_5909.png,n02690373_5909.png,0.0,-6.525405,-1.8634799,-3.296479
alexnet_w1_mlp_simclrhn_probe1,1,571,NaN,knife,dog,270,0571_rot_dnn_270_dog_20_n02097658_722.png,n02097658_722.png,0.0,-4.3699107,-0.95429134,-2.4152076
alexnet_w1_mlp_simclrhn_probe1,1,572,NaN,oven,oven,0,0572_rot_dnn_0_oven_20_n04111531_10339.png,n04111531_10339.png,1.0,1.6749485,-0.4119879,1.4756869
alexnet_w1_mlp_simclrhn_probe1,1,573,NaN,bottle,truck,90,0573_rot_dnn_90_truck_20_n03417042_28078.png,n03417042_28078.png,0.0,-3.6573908,1.6670295,-3.7649338
alexnet_w1_mlp_simclrhn_probe1,1,574,NaN,oven,chair,180,0574_rot_dnn_180_chair_20_n04099969_22118.png,n04099969_22118.png,0.0,-1.6322949,-0.18558004,-1.0229819
alexnet_w1_mlp_simclrhn_probe1,1,575,NaN,oven,clock,270,0575_rot_dnn_270_clock_20_n04548280_7978.png,n04548280_7978.png,0.0,-3.693681,-0.91205275,-1.9669081
alexnet_w1_mlp_simclrhn_probe1,1,576,NaN,elephant,bear,180,0576_rot_dnn_180_bear_20_n02133161_1962.png,n02133161_1962.png,0.0,-0.700812,-0.68707323,-0.009714765
alexnet_w1_mlp_simclrhn_probe1,1,577,NaN,knife,clock,180,0577_rot_dnn_180_clock_20_n04548280_13750.png,n04548280_13750.png,0.0,-3.3254251,-1.0525651,-1.6071547
alexnet_w1_mlp_simclrhn_probe1,1,578,NaN,knife,keyboard,0,0578_rot_dnn_0_keyboard_20_n03085013_15249.png,n03085013_15249.png,0.0,-3.1444063,-0.77612185,-1.67463
alexnet_w1_mlp_simclrhn_probe1,1,579,NaN,oven,car,90,0579_rot_dnn_90_car_20_n02814533_479.png,n02814533_479.png,0.0,-4.868605,-0.7261721,-2.9291427
alexnet_w1_mlp_simclrhn_probe1,1,580,NaN,knife,keyboard,270,0580_rot_dnn_270_keyboard_20_n03085013_20716.png,n03085013_20716.png,0.0,-2.1953187,-1.1897333,-0.7110563
alexnet_w1_mlp_simclrhn_probe1,1,581,NaN,bicycle,bird,180,0581_rot_dnn_180_bird_20_n01530575_7990.png,n01530575_7990.png,0.0,-3.0876617,-3.0568376,-0.02179599
alexnet_w1_mlp_simclrhn_probe1,1,582,NaN,chair,chair,0,0582_rot_dnn_0_chair_20_n04429376_17343.png,n04429376_17343.png,1.0,-0.93511724,-1.9564782,0.7222113
alexnet_w1_mlp_simclrhn_probe1,1,583,NaN,chair,chair,90,0583_rot_dnn_90_chair_20_n02791124_8775.png,n02791124_8775.png,1.0,-0.21366116,-1.3487682,0.8026419
alexnet_w1_mlp_simclrhn_probe1,1,584,NaN,cat,cat,90,0584_rot_dnn_90_cat_20_n02125311_2959.png,n02125311_2959.png,1.0,0.5197548,-1.5802169,1.4849043
alexnet_w1_mlp_simclrhn_probe1,1,585,NaN,oven,oven,180,0585_rot_dnn_180_oven_20_n04111531_13906.png,n04111531_13906.png,1.0,0.31142032,-0.4176345,0.5155196
alexnet_w1_mlp_simclrhn_probe1,1,586,NaN,knife,airplane,90,0586_rot_dnn_90_airplane_20_n02690373_7293.png,n02690373_7293.png,0.0,-3.2026772,-1.5591714,-1.1621342
alexnet_w1_mlp_simclrhn_probe1,1,587,NaN,chair,chair,180,0587_rot_dnn_180_chair_20_n04099969_10825.png,n04099969_10825.png,1.0,1.2249485,-0.080093,0.92280376
alexnet_w1_mlp_simclrhn_probe1,1,588,NaN,airplane,airplane,180,0588_rot_dnn_180_airplane_20_n02690373_17044.png,n02690373_17044.png,1.0,3.7853785,0.5291064,2.3025322
alexnet_w1_mlp_simclrhn_probe1,1,589,NaN,bird,bird,0,0589_rot_dnn_0_bird_20_n01797886_6169.png,n01797886_6169.png,1.0,-0.47762036,-1.7426121,0.8944843
alexnet_w1_mlp_simclrhn_probe1,1,590,NaN,truck,oven,0,0590_rot_dnn_0_oven_20_n04111531_13255.png,n04111531_13255.png,0.0,-2.5936418,0.4838496,-2.176115
alexnet_w1_mlp_simclrhn_probe1,1,591,NaN,clock,knife,270,0591_rot_dnn_270_knife_20_n03041632_17820.png,n03041632_17820.png,0.0,-3.9802032,-2.7570498,-0.86490005
alexnet_w1_mlp_simclrhn_probe1,1,592,NaN,knife,bicycle,270,0592_rot_dnn_270_bicycle_20_n02835271_21640.png,n02835271_21640.png,0.0,-2.8144612,-2.427289,-0.27377212
alexnet_w1_mlp_simclrhn_probe1,1,593,NaN,bear,bear,0,0593_rot_dnn_0_bear_20_n02134418_517.png,n02134418_517.png,1.0,2.4331787,2.2675974,0.11708361
alexnet_w1_mlp_simclrhn_probe1,1,594,NaN,chair,airplane,180,0594_rot_dnn_180_airplane_20_n02690373_4588.png,n02690373_4588.png,0.0,-2.9232442,-0.52898824,-1.6929947
alexnet_w1_mlp_simclrhn_probe1,1,595,NaN,oven,bottle,270,0595_rot_dnn_270_bottle_20_n02823428_12190.png,n02823428_12190.png,0.0,-2.7429216,-0.72778744,-1.424915
alexnet_w1_mlp_simclrhn_probe1,1,596,NaN,bottle,bottle,0,0596_rot_dnn_0_bottle_20_n04591713_1717.png,n04591713_1717.png,1.0,1.4860233,1.2168297,0.19034865
alexnet_w1_mlp_simclrhn_probe1,1,597,NaN,knife,knife,0,0597_rot_dnn_0_knife_20_n03041632_9488.png,n03041632_9488.png,1.0,1.9562831,-3.1587605,3.616882
alexnet_w1_mlp_simclrhn_probe1,1,598,NaN,chair,truck,90,0598_rot_dnn_90_truck_20_n03417042_11166.png,n03417042_11166.png,0.0,-3.3326583,-0.6576464,-1.8915191
alexnet_w1_mlp_simclrhn_probe1,1,599,NaN,elephant,elephant,90,0599_rot_dnn_90_elephant_20_n02504458_585.png,n02504458_585.png,1.0,0.10362244,-2.0650182,1.5334605
alexnet_w1_mlp_simclrhn_probe1,1,600,NaN,oven,keyboard,0,0600_rot_dnn_0_keyboard_20_n04505470_5046.png,n04505470_5046.png,0.0,-1.7183923,-0.25401765,-1.0354692
alexnet_w1_mlp_simclrhn_probe1,1,601,NaN,chair,chair,180,0601_rot_dnn_180_chair_20_n03376595_4937.png,n03376595_4937.png,1.0,0.6213697,-1.5642022,1.5454327
alexnet_w1_mlp_simclrhn_probe1,1,602,NaN,oven,boat,180,0602_rot_dnn_180_boat_20_n03662601_1740.png,n03662601_1740.png,0.0,-5.925946,-0.9508431,-3.5179293
alexnet_w1_mlp_simclrhn_probe1,1,603,NaN,knife,knife,0,0603_rot_dnn_0_knife_20_n03041632_4037.png,n03041632_4037.png,1.0,-1.2571708,-1.9161838,0.4659926
alexnet_w1_mlp_simclrhn_probe1,1,604,NaN,bicycle,boat,0,0604_rot_dnn_0_boat_20_n04273569_1538.png,n04273569_1538.png,0.0,-5.0807724,-1.9570804,-2.2087839
alexnet_w1_mlp_simclrhn_probe1,1,605,NaN,knife,bird,0,0605_rot_dnn_0_bird_20_n02017213_15918.png,n02017213_15918.png,0.0,-4.5706167,-2.9539337,-1.1431675
alexnet_w1_mlp_simclrhn_probe1,1,606,NaN,keyboard,keyboard,0,0606_rot_dnn_0_keyboard_20_n03085013_10463.png,n03085013_10463.png,1.0,2.8599606,1.6940792,0.82440263
alexnet_w1_mlp_simclrhn_probe1,1,607,NaN,elephant,bear,270,0607_rot_dnn_270_bear_20_n02133161_7939.png,n02133161_7939.png,0.0,-0.26978335,0.8034563,-0.7588951
alexnet_w1_mlp_simclrhn_probe1,1,608,NaN,truck,car,270,0608_rot_dnn_270_car_20_n04285008_11704.png,n04285008_11704.png,0.0,-2.1181614,-1.5576102,-0.39636964
alexnet_w1_mlp_simclrhn_probe1,1,609,NaN,clock,truck,90,0609_rot_dnn_90_truck_20_n03796401_16046.png,n03796401_16046.png,0.0,-1.873819,1.4109749,-2.3227
alexnet_w1_mlp_simclrhn_probe1,1,610,NaN,clock,chair,270,0610_rot_dnn_270_chair_20_n02791124_3710.png,n02791124_3710.png,0.0,-2.705578,-0.79598516,-1.3502861
alexnet_w1_mlp_simclrhn_probe1,1,611,NaN,keyboard,keyboard,180,0611_rot_dnn_180_keyboard_20_n04505470_3566.png,n04505470_3566.png,1.0,2.8684368,1.985192,0.62454844
alexnet_w1_mlp_simclrhn_probe1,1,612,NaN,knife,bird,90,0612_rot_dnn_90_bird_20_n02037110_8716.png,n02037110_8716.png,0.0,-6.6357903,-1.9119464,-3.3402622
alexnet_w1_mlp_simclrhn_probe1,1,613,NaN,car,car,0,0613_rot_dnn_0_car_20_n03100240_19550.png,n03100240_19550.png,1.0,6.004597,3.2919858,1.918106
alexnet_w1_mlp_simclrhn_probe1,1,614,NaN,airplane,airplane,270,0614_rot_dnn_270_airplane_20_n02690373_10769.png,n02690373_10769.png,1.0,0.6581257,-1.0944461,1.2392554
alexnet_w1_mlp_simclrhn_probe1,1,615,NaN,bicycle,bicycle,0,0615_rot_dnn_0_bicycle_20_n03792782_3456.png,n03792782_3456.png,1.0,1.650548,-2.1084962,2.6580458
alexnet_w1_mlp_simclrhn_probe1,1,616,NaN,airplane,chair,0,0616_rot_dnn_0_chair_20_n03376595_2368.png,n03376595_2368.png,0.0,-1.6678529,-0.114156276,-1.0986295
alexnet_w1_mlp_simclrhn_probe1,1,617,NaN,dog,dog,0,0617_rot_dnn_0_dog_20_n02091467_2974.png,n02091467_2974.png,1.0,-1.9926586,-2.9818885,0.6994912
alexnet_w1_mlp_simclrhn_probe1,1,618,NaN,knife,knife,180,0618_rot_dnn_180_knife_20_n03041632_43634.png,n03041632_43634.png,1.0,2.083839,-1.2032562,2.3243272
alexnet_w1_mlp_simclrhn_probe1,1,619,NaN,keyboard,keyboard,180,0619_rot_dnn_180_keyboard_20_n04505470_4477.png,n04505470_4477.png,1.0,2.1979136,-0.5427319,1.937929
alexnet_w1_mlp_simclrhn_probe1,1,620,NaN,clock,boat,90,0620_rot_dnn_90_boat_20_n03344393_4773.png,n03344393_4773.png,0.0,-5.0495663,-2.8237102,-1.573918
alexnet_w1_mlp_simclrhn_probe1,1,621,NaN,airplane,airplane,180,0621_rot_dnn_180_airplane_20_n02690373_139.png,n02690373_139.png,1.0,3.2359262,-0.938805,2.9519808
alexnet_w1_mlp_simclrhn_probe1,1,622,NaN,oven,knife,270,0622_rot_dnn_270_knife_20_n03041632_737.png,n03041632_737.png,0.0,-0.94029367,-0.21281025,-0.51440847
alexnet_w1_mlp_simclrhn_probe1,1,623,NaN,oven,chair,270,0623_rot_dnn_270_chair_20_n02791124_2698.png,n02791124_2698.png,0.0,-0.65419805,0.52708566,-0.8352937
alexnet_w1_mlp_simclrhn_probe1,1,624,NaN,bottle,truck,270,0624_rot_dnn_270_truck_20_n03417042_5301.png,n03417042_5301.png,0.0,-3.7982981,0.9078068,-3.3277187
alexnet_w1_mlp_simclrhn_probe1,1,625,NaN,bird,bird,0,0625_rot_dnn_0_bird_20_n02006656_5757.png,n02006656_5757.png,1.0,0.2600131,-3.6701806,2.7790666
alexnet_w1_mlp_simclrhn_probe1,1,626,NaN,bear,bear,270,0626_rot_dnn_270_bear_20_n02132136_15174.png,n02132136_15174.png,1.0,0.2442634,0.113888055,0.09218929
alexnet_w1_mlp_simclrhn_probe1,1,627,NaN,clock,bottle,270,0627_rot_dnn_270_bottle_20_n04560804_6329.png,n04560804_6329.png,0.0,-0.5245398,0.5855594,-0.7849588
alexnet_w1_mlp_simclrhn_probe1,1,628,NaN,truck,truck,0,0628_rot_dnn_0_truck_20_n03417042_22196.png,n03417042_22196.png,1.0,1.2288674,0.5993717,0.44512072
alexnet_w1_mlp_simclrhn_probe1,1,629,NaN,bird,cat,0,0629_rot_dnn_0_cat_20_n02125311_18366.png,n02125311_18366.png,0.0,-1.6111547,-0.90618765,-0.49848697
alexnet_w1_mlp_simclrhn_probe1,1,630,NaN,chair,chair,0,0630_rot_dnn_0_chair_20_n02791124_12707.png,n02791124_12707.png,1.0,0.76546514,0.38974705,0.2656728
alexnet_w1_mlp_simclrhn_probe1,1,631,NaN,oven,oven,180,0631_rot_dnn_180_oven_20_n04111531_1938.png,n04111531_1938.png,1.0,-1.5675769,-2.3511024,0.5540362
alexnet_w1_mlp_simclrhn_probe1,1,632,NaN,oven,airplane,270,0632_rot_dnn_270_airplane_20_n02690373_9346.png,n02690373_9346.png,0.0,-11.02895,-1.1219362,-7.0053167
alexnet_w1_mlp_simclrhn_probe1,1,633,NaN,bear,cat,0,0633_rot_dnn_0_cat_20_n02123045_10433.png,n02123045_10433.png,0.0,-3.802705,-0.9752537,-1.99931
alexnet_w1_mlp_simclrhn_probe1,1,634,NaN,airplane,airplane,180,0634_rot_dnn_180_airplane_20_n02690373_5055.png,n02690373_5055.png,1.0,2.8346038,-0.7800075,2.555916
alexnet_w1_mlp_simclrhn_probe1,1,635,NaN,clock,clock,270,0635_rot_dnn_270_clock_20_n04548280_4198.png,n04548280_4198.png,1.0,-0.740999,-1.3304478,0.41680327
