subj,session,trial,rt,object_response,category,condition,imagename,filename,is_correct,targ_act,max_nontarg_act,decision_margin
alexnet_w3_mlp_simclrhn_probe1,1,1,NaN,bicycle,chair,0,0001_rot_dnn_0_chair_20_n03376595_3070.png,n03376595_3070.png,0.0,-1.4129174,0.96429193,-1.6809407
alexnet_w3_mlp_simclrhn_probe1,1,2,NaN,car,car,180,0002_rot_dnn_180_car_20_n02814533_29367.png,n02814533_29367.png,1.0,1.4405036,-1.9930096,2.4278605
alexnet_w3_mlp_simclrhn_probe1,1,3,NaN,knife,car,270,0003_rot_dnn_270_car_20_n02814533_31083.png,n02814533_31083.png,0.0,-7.355137,-1.0606155,-4.4508986
alexnet_w3_mlp_simclrhn_probe1,1,4,NaN,airplane,car,180,0004_rot_dnn_180_car_20_n03100240_1703.png,n03100240_1703.png,0.0,1.620835,2.8273249,-0.8531172
alexnet_w3_mlp_simclrhn_probe1,1,5,NaN,bottle,bottle,180,0005_rot_dnn_180_bottle_20_n04591713_2359.png,n04591713_2359.png,1.0,-1.6337636,-2.7716508,0.8046078
alexnet_w3_mlp_simclrhn_probe1,1,6,NaN,cat,dog,90,0006_rot_dnn_90_dog_20_n02111500_8796.png,n02111500_8796.png,0.0,-2.8044424,-2.4785116,-0.2304679
alexnet_w3_mlp_simclrhn_probe1,1,7,NaN,oven,bear,180,0007_rot_dnn_180_bear_20_n02132136_4512.png,n02132136_4512.png,0.0,-1.8179396,-0.8054458,-0.71594125
alexnet_w3_mlp_simclrhn_probe1,1,8,NaN,chair,chair,90,0008_rot_dnn_90_chair_20_n03376595_4820.png,n03376595_4820.png,1.0,0.49172843,-2.1423151,1.8625501
alexnet_w3_mlp_simclrhn_probe1,1,9,NaN,keyboard,bottle,270,0009_rot_dnn_270_bottle_20_n04591713_6111.png,n04591713_6111.png,0.0,-1.7970849,0.9948905,-1.9742248
alexnet_w3_mlp_simclrhn_probe1,1,10,NaN,oven,bottle,270,0010_rot_dnn_270_bottle_20_n04560804_14111.png,n04560804_14111.png,0.0,-2.741655,-0.35724694,-1.6860312
alexnet_w3_mlp_simclrhn_probe1,1,11,NaN,dog,dog,0,0011_rot_dnn_0_dog_20_n02099601_8656.png,n02099601_8656.png,1.0,0.581347,0.34332833,0.1683046
alexnet_w3_mlp_simclrhn_probe1,1,12,NaN,cat,cat,0,0012_rot_dnn_0_cat_20_n02125311_14054.png,n02125311_14054.png,1.0,-0.65459156,-2.131669,1.0444515
alexnet_w3_mlp_simclrhn_probe1,1,13,NaN,bear,bear,0,0013_rot_dnn_0_bear_20_n02132136_10385.png,n02132136_10385.png,1.0,-2.6590605,-2.9801774,0.22706395
alexnet_w3_mlp_simclrhn_probe1,1,14,NaN,clock,bottle,90,0014_rot_dnn_90_bottle_20_n02823428_10417.png,n02823428_10417.png,0.0,-1.5586212,0.032178137,-1.124865
alexnet_w3_mlp_simclrhn_probe1,1,15,NaN,knife,keyboard,0,0015_rot_dnn_0_keyboard_20_n03085013_23566.png,n03085013_23566.png,0.0,-4.9851127,-2.0048227,-2.1073833
alexnet_w3_mlp_simclrhn_probe1,1,16,NaN,chair,truck,90,0016_rot_dnn_90_truck_20_n03417042_12560.png,n03417042_12560.png,0.0,-3.536295,-0.552155,-2.1101055
alexnet_w3_mlp_simclrhn_probe1,1,17,NaN,airplane,truck,180,0017_rot_dnn_180_truck_20_n04467665_69063.png,n04467665_69063.png,0.0,-1.8857062,1.1369438,-2.1373363
alexnet_w3_mlp_simclrhn_probe1,1,18,NaN,oven,oven,180,0018_rot_dnn_180_oven_20_n04111531_9712.png,n04111531_9712.png,1.0,1.8285446,-0.98477,1.989314
alexnet_w3_mlp_simclrhn_probe1,1,19,NaN,oven,oven,180,0019_rot_dnn_180_oven_20_n04111531_10375.png,n04111531_10375.png,1.0,5.9800997,-0.5262501,4.600684
alexnet_w3_mlp_simclrhn_probe1,1,20,NaN,keyboard,keyboard,0,0020_rot_dnn_0_keyboard_20_n04505470_1744.png,n04505470_1744.png,1.0,3.515573,2.0338287,1.0477514
alexnet_w3_mlp_simclrhn_probe1,1,21,NaN,elephant,boat,90,0021_rot_dnn_90_boat_20_n04273569_7296.png,n04273569_7296.png,0.0,-6.7902193,-2.6297445,-2.9419
alexnet_w3_mlp_simclrhn_probe1,1,22,NaN,dog,dog,0,0022_rot_dnn_0_dog_20_n02101006_4807.png,n02101006_4807.png,1.0,1.6859498,0.98977506,0.4922699
alexnet_w3_mlp_simclrhn_probe1,1,23,NaN,clock,clock,90,0023_rot_dnn_90_clock_20_n02708093_1986.png,n02708093_1986.png,1.0,7.8642387,-2.0638263,7.0202026
alexnet_w3_mlp_simclrhn_probe1,1,24,NaN,bottle,bottle,0,0024_rot_dnn_0_bottle_20_n04560804_15562.png,n04560804_15562.png,1.0,4.1555057,-2.878278,4.973636
alexnet_w3_mlp_simclrhn_probe1,1,25,NaN,cat,cat,0,0025_rot_dnn_0_cat_20_n02124075_13594.png,n02124075_13594.png,1.0,1.481798,-4.2688813,4.0663447
alexnet_w3_mlp_simclrhn_probe1,1,26,NaN,elephant,bear,90,0026_rot_dnn_90_bear_20_n02134418_4365.png,n02134418_4365.png,0.0,-1.5879643,-1.1079088,-0.33945048
alexnet_w3_mlp_simclrhn_probe1,1,27,NaN,bear,bear,180,0027_rot_dnn_180_bear_20_n02132136_8650.png,n02132136_8650.png,1.0,0.077411845,-2.9678051,2.1532936
alexnet_w3_mlp_simclrhn_probe1,1,28,NaN,airplane,bird,90,0028_rot_dnn_90_bird_20_n02009912_12219.png,n02009912_12219.png,0.0,-2.0852618,-1.3889661,-0.49235544
alexnet_w3_mlp_simclrhn_probe1,1,29,NaN,bicycle,dog,90,0029_rot_dnn_90_dog_20_n02100236_1662.png,n02100236_1662.png,0.0,-4.9374995,-3.7111545,-0.8671569
alexnet_w3_mlp_simclrhn_probe1,1,30,NaN,clock,clock,90,0030_rot_dnn_90_clock_20_n04548280_1947.png,n04548280_1947.png,1.0,5.7173386,-1.4769528,5.087132
alexnet_w3_mlp_simclrhn_probe1,1,31,NaN,bird,dog,270,0031_rot_dnn_270_dog_20_n02109047_66167.png,n02109047_66167.png,0.0,-3.4125087,-3.1478589,-0.18713573
alexnet_w3_mlp_simclrhn_probe1,1,32,NaN,oven,oven,90,0032_rot_dnn_90_oven_20_n04111531_21055.png,n04111531_21055.png,1.0,6.5016193,-0.23370838,4.762596
alexnet_w3_mlp_simclrhn_probe1,1,33,NaN,clock,clock,0,0033_rot_dnn_0_clock_20_n02708093_2012.png,n02708093_2012.png,1.0,-2.058442,-2.0681062,0.0068335216
alexnet_w3_mlp_simclrhn_probe1,1,34,NaN,elephant,elephant,0,0034_rot_dnn_0_elephant_20_n02504458_6119.png,n02504458_6119.png,1.0,5.1192913,-0.25549284,3.8005462
alexnet_w3_mlp_simclrhn_probe1,1,35,NaN,chair,chair,0,0035_rot_dnn_0_chair_20_n04099969_12707.png,n04099969_12707.png,1.0,5.161639,-3.5599804,6.1671166
alexnet_w3_mlp_simclrhn_probe1,1,36,NaN,clock,keyboard,270,0036_rot_dnn_270_keyboard_20_n03085013_19054.png,n03085013_19054.png,0.0,-1.218523,-1.1204917,-0.069318585
alexnet_w3_mlp_simclrhn_probe1,1,37,NaN,chair,chair,0,0037_rot_dnn_0_chair_20_n02791124_422.png,n02791124_422.png,1.0,0.05376482,-1.4299233,1.0491259
alexnet_w3_mlp_simclrhn_probe1,1,38,NaN,bicycle,bicycle,0,0038_rot_dnn_0_bicycle_20_n02835271_23830.png,n02835271_23830.png,1.0,12.595943,-4.5626225,12.132938
alexnet_w3_mlp_simclrhn_probe1,1,39,NaN,bird,bird,90,0039_rot_dnn_90_bird_20_n01534433_14735.png,n01534433_14735.png,1.0,-2.4832308,-3.6377323,0.8163558
alexnet_w3_mlp_simclrhn_probe1,1,40,NaN,bird,bird,90,0040_rot_dnn_90_bird_20_n02011460_13994.png,n02011460_13994.png,1.0,-1.4833312,-4.5446854,2.1647043
alexnet_w3_mlp_simclrhn_probe1,1,41,NaN,knife,boat,270,0041_rot_dnn_270_boat_20_n04273569_17522.png,n04273569_17522.png,0.0,-4.4941573,-1.9805045,-1.777421
alexnet_w3_mlp_simclrhn_probe1,1,42,NaN,cat,bear,180,0042_rot_dnn_180_bear_20_n02132136_5537.png,n02132136_5537.png,0.0,0.4431427,2.900258,-1.737443
alexnet_w3_mlp_simclrhn_probe1,1,43,NaN,bear,bear,90,0043_rot_dnn_90_bear_20_n02132136_19248.png,n02132136_19248.png,1.0,3.5399823,1.6031307,1.369561
alexnet_w3_mlp_simclrhn_probe1,1,44,NaN,airplane,bird,270,0044_rot_dnn_270_bird_20_n01537544_1886.png,n01537544_1886.png,0.0,-2.3181765,-1.63786,-0.48105645
alexnet_w3_mlp_simclrhn_probe1,1,45,NaN,clock,clock,180,0045_rot_dnn_180_clock_20_n03196217_4776.png,n03196217_4776.png,1.0,2.0863535,0.17813832,1.349312
alexnet_w3_mlp_simclrhn_probe1,1,46,NaN,chair,boat,270,0046_rot_dnn_270_boat_20_n04612504_17610.png,n04612504_17610.png,0.0,-6.545817,-0.8485304,-4.02859
alexnet_w3_mlp_simclrhn_probe1,1,47,NaN,elephant,bear,90,0047_rot_dnn_90_bear_20_n02134418_1814.png,n02134418_1814.png,0.0,0.26359946,0.72501254,-0.32626832
alexnet_w3_mlp_simclrhn_probe1,1,48,NaN,keyboard,keyboard,180,0048_rot_dnn_180_keyboard_20_n03085013_20330.png,n03085013_20330.png,1.0,4.706545,-1.3288393,4.267661
alexnet_w3_mlp_simclrhn_probe1,1,49,NaN,bottle,bottle,180,0049_rot_dnn_180_bottle_20_n02823428_14574.png,n02823428_14574.png,1.0,3.6234436,-0.72435665,3.0743592
alexnet_w3_mlp_simclrhn_probe1,1,50,NaN,bicycle,bicycle,0,0050_rot_dnn_0_bicycle_20_n03792782_7105.png,n03792782_7105.png,1.0,3.4305468,-3.5430644,4.9310875
alexnet_w3_mlp_simclrhn_probe1,1,51,NaN,elephant,elephant,0,0051_rot_dnn_0_elephant_20_n02504458_1302.png,n02504458_1302.png,1.0,10.504703,1.6613705,6.2531805
alexnet_w3_mlp_simclrhn_probe1,1,52,NaN,bottle,airplane,90,0052_rot_dnn_90_airplane_20_n02690373_3877.png,n02690373_3877.png,0.0,-7.4478807,-2.1733193,-3.7296782
alexnet_w3_mlp_simclrhn_probe1,1,53,NaN,chair,boat,90,0053_rot_dnn_90_boat_20_n02951358_15422.png,n02951358_15422.png,0.0,-4.558572,-1.4619051,-2.1896741
alexnet_w3_mlp_simclrhn_probe1,1,54,NaN,oven,car,270,0054_rot_dnn_270_car_20_n02814533_46458.png,n02814533_46458.png,0.0,-5.1657376,0.40211093,-3.9370637
alexnet_w3_mlp_simclrhn_probe1,1,55,NaN,car,car,0,0055_rot_dnn_0_car_20_n02814533_39547.png,n02814533_39547.png,1.0,14.797616,8.018427,4.7936106
alexnet_w3_mlp_simclrhn_probe1,1,56,NaN,airplane,boat,180,0056_rot_dnn_180_boat_20_n04273569_6586.png,n04273569_6586.png,0.0,-0.008043671,0.47179106,-0.3392944
alexnet_w3_mlp_simclrhn_probe1,1,57,NaN,clock,clock,90,0057_rot_dnn_90_clock_20_n02708093_3394.png,n02708093_3394.png,1.0,-0.76343536,-0.9207438,0.11123388
alexnet_w3_mlp_simclrhn_probe1,1,58,NaN,keyboard,keyboard,180,0058_rot_dnn_180_keyboard_20_n03085013_25419.png,n03085013_25419.png,1.0,3.1308968,1.5896771,1.0898069
alexnet_w3_mlp_simclrhn_probe1,1,59,NaN,bottle,bottle,180,0059_rot_dnn_180_bottle_20_n04557648_1871.png,n04557648_1871.png,1.0,-1.8854024,-1.9616437,0.05391071
alexnet_w3_mlp_simclrhn_probe1,1,60,NaN,oven,chair,90,0060_rot_dnn_90_chair_20_n04099969_6944.png,n04099969_6944.png,0.0,-1.5491792,1.8426787,-2.3984058
alexnet_w3_mlp_simclrhn_probe1,1,61,NaN,chair,boat,270,0061_rot_dnn_270_boat_20_n04273569_1495.png,n04273569_1495.png,0.0,-4.2863026,-1.3669174,-2.064317
alexnet_w3_mlp_simclrhn_probe1,1,62,NaN,keyboard,keyboard,90,0062_rot_dnn_90_keyboard_20_n03085013_7317.png,n03085013_7317.png,1.0,2.8005366,-1.990911,3.388065
alexnet_w3_mlp_simclrhn_probe1,1,63,NaN,knife,knife,90,0063_rot_dnn_90_knife_20_n03041632_7448.png,n03041632_7448.png,1.0,-0.41005126,-0.42798644,0.012682092
alexnet_w3_mlp_simclrhn_probe1,1,64,NaN,truck,truck,0,0064_rot_dnn_0_truck_20_n03417042_11000.png,n03417042_11000.png,1.0,2.148961,0.10446987,1.4456737
alexnet_w3_mlp_simclrhn_probe1,1,65,NaN,bird,bird,0,0065_rot_dnn_0_bird_20_n01582220_8827.png,n01582220_8827.png,1.0,2.4010203,-5.112405,5.3127937
alexnet_w3_mlp_simclrhn_probe1,1,66,NaN,knife,airplane,270,0066_rot_dnn_270_airplane_20_n02690373_9247.png,n02690373_9247.png,0.0,-8.956468,-2.292592,-4.712072
alexnet_w3_mlp_simclrhn_probe1,1,67,NaN,bear,bear,270,0067_rot_dnn_270_bear_20_n02133161_14397.png,n02133161_14397.png,1.0,1.474093,0.783012,0.48866805
alexnet_w3_mlp_simclrhn_probe1,1,68,NaN,oven,oven,270,0068_rot_dnn_270_oven_20_n04111531_13560.png,n04111531_13560.png,1.0,2.301879,-0.68667084,2.1132238
alexnet_w3_mlp_simclrhn_probe1,1,69,NaN,bear,bear,180,0069_rot_dnn_180_bear_20_n02132136_545.png,n02132136_545.png,1.0,-1.5185883,-1.8599318,0.24136633
alexnet_w3_mlp_simclrhn_probe1,1,70,NaN,elephant,cat,90,0070_rot_dnn_90_cat_20_n02125311_73072.png,n02125311_73072.png,0.0,-2.7028549,3.4122577,-4.3240376
alexnet_w3_mlp_simclrhn_probe1,1,71,NaN,bicycle,bicycle,0,0071_rot_dnn_0_bicycle_20_n03792782_30530.png,n03792782_30530.png,1.0,4.8494325,0.9320925,2.7699778
alexnet_w3_mlp_simclrhn_probe1,1,72,NaN,knife,knife,90,0072_rot_dnn_90_knife_20_n03041632_4975.png,n03041632_4975.png,1.0,-0.09922644,-1.7474895,1.1654979
alexnet_w3_mlp_simclrhn_probe1,1,73,NaN,knife,dog,90,0073_rot_dnn_90_dog_20_n02107683_3120.png,n02107683_3120.png,0.0,-4.0026026,-1.3036981,-1.9084138
alexnet_w3_mlp_simclrhn_probe1,1,74,NaN,knife,elephant,90,0074_rot_dnn_90_elephant_20_n02504013_7316.png,n02504013_7316.png,0.0,-5.9310837,-3.1037576,-1.9992214
alexnet_w3_mlp_simclrhn_probe1,1,75,NaN,knife,truck,90,0075_rot_dnn_90_truck_20_n03796401_7284.png,n03796401_7284.png,0.0,-3.8403563,-0.18495804,-2.584757
alexnet_w3_mlp_simclrhn_probe1,1,76,NaN,oven,chair,270,0076_rot_dnn_270_chair_20_n03376595_497.png,n03376595_497.png,0.0,-0.71943104,-0.17385297,-0.38578194
alexnet_w3_mlp_simclrhn_probe1,1,77,NaN,truck,truck,270,0077_rot_dnn_270_truck_20_n03796401_19845.png,n03796401_19845.png,1.0,-0.22044046,-0.76331663,0.38387144
alexnet_w3_mlp_simclrhn_probe1,1,78,NaN,knife,chair,90,0078_rot_dnn_90_chair_20_n04099969_1941.png,n04099969_1941.png,0.0,-2.1523209,-1.1941794,-0.67750835
alexnet_w3_mlp_simclrhn_probe1,1,79,NaN,chair,truck,90,0079_rot_dnn_90_truck_20_n03417042_28886.png,n03417042_28886.png,0.0,-1.3114662,-0.7836207,-0.37324315
alexnet_w3_mlp_simclrhn_probe1,1,80,NaN,car,car,0,0080_rot_dnn_0_car_20_n02814533_12185.png,n02814533_12185.png,1.0,4.7503014,0.26409635,3.1722262
alexnet_w3_mlp_simclrhn_probe1,1,81,NaN,bicycle,bicycle,90,0081_rot_dnn_90_bicycle_20_n02835271_1621.png,n02835271_1621.png,1.0,2.4985385,-0.15946706,1.8794937
alexnet_w3_mlp_simclrhn_probe1,1,82,NaN,cat,cat,0,0082_rot_dnn_0_cat_20_n02123597_32226.png,n02123597_32226.png,1.0,3.9893134,-1.5377607,3.9082315
alexnet_w3_mlp_simclrhn_probe1,1,83,NaN,bicycle,bicycle,90,0083_rot_dnn_90_bicycle_20_n03792782_5048.png,n03792782_5048.png,1.0,-1.5593158,-3.4623117,1.3456213
alexnet_w3_mlp_simclrhn_probe1,1,84,NaN,airplane,airplane,0,0084_rot_dnn_0_airplane_20_n02690373_10044.png,n02690373_10044.png,1.0,12.295352,5.006907,5.153709
alexnet_w3_mlp_simclrhn_probe1,1,85,NaN,car,car,180,0085_rot_dnn_180_car_20_n03100240_5752.png,n03100240_5752.png,1.0,1.6656786,0.22971694,1.0153782
alexnet_w3_mlp_simclrhn_probe1,1,86,NaN,bottle,car,90,0086_rot_dnn_90_car_20_n02814533_68219.png,n02814533_68219.png,0.0,-3.1585324,-0.3847609,-1.9613527
alexnet_w3_mlp_simclrhn_probe1,1,87,NaN,airplane,airplane,0,0087_rot_dnn_0_airplane_20_n02690373_1171.png,n02690373_1171.png,1.0,5.453315,1.4919618,2.8010995
alexnet_w3_mlp_simclrhn_probe1,1,88,NaN,oven,bird,90,0088_rot_dnn_90_bird_20_n01817953_6970.png,n01817953_6970.png,0.0,-4.4484572,-0.88889045,-2.5169938
alexnet_w3_mlp_simclrhn_probe1,1,89,NaN,chair,car,90,0089_rot_dnn_90_car_20_n04285008_15503.png,n04285008_15503.png,0.0,-2.9900315,-0.5823431,-1.7024928
alexnet_w3_mlp_simclrhn_probe1,1,90,NaN,clock,boat,270,0090_rot_dnn_270_boat_20_n03344393_11886.png,n03344393_11886.png,0.0,-1.5664494,-0.56106097,-0.71091706
alexnet_w3_mlp_simclrhn_probe1,1,91,NaN,boat,boat,0,0091_rot_dnn_0_boat_20_n04273569_30203.png,n04273569_30203.png,1.0,1.9218832,0.27652937,1.1634408
alexnet_w3_mlp_simclrhn_probe1,1,92,NaN,keyboard,keyboard,180,0092_rot_dnn_180_keyboard_20_n03085013_22069.png,n03085013_22069.png,1.0,5.9283104,-0.967716,4.8762274
alexnet_w3_mlp_simclrhn_probe1,1,93,NaN,knife,knife,0,0093_rot_dnn_0_knife_20_n03041632_26314.png,n03041632_26314.png,1.0,0.025566608,-0.43862066,0.32822996
alexnet_w3_mlp_simclrhn_probe1,1,94,NaN,bicycle,bicycle,270,0094_rot_dnn_270_bicycle_20_n03792782_18308.png,n03792782_18308.png,1.0,-2.2223744,-3.237751,0.71797967
alexnet_w3_mlp_simclrhn_probe1,1,95,NaN,airplane,car,180,0095_rot_dnn_180_car_20_n04285008_8396.png,n04285008_8396.png,0.0,0.85795957,3.343192,-1.7573248
alexnet_w3_mlp_simclrhn_probe1,1,96,NaN,oven,bear,90,0096_rot_dnn_90_bear_20_n02133161_12349.png,n02133161_12349.png,0.0,-2.7310746,-0.0100681335,-1.9240421
alexnet_w3_mlp_simclrhn_probe1,1,97,NaN,bear,bear,270,0097_rot_dnn_270_bear_20_n02132136_18303.png,n02132136_18303.png,1.0,2.7796888,1.8312988,0.670613
alexnet_w3_mlp_simclrhn_probe1,1,98,NaN,cat,cat,180,0098_rot_dnn_180_cat_20_n02123394_6853.png,n02123394_6853.png,1.0,1.4579662,-2.0733624,2.4970264
alexnet_w3_mlp_simclrhn_probe1,1,99,NaN,knife,cat,180,0099_rot_dnn_180_cat_20_n02123597_4805.png,n02123597_4805.png,0.0,-5.6033044,-0.4078267,-3.6737573
alexnet_w3_mlp_simclrhn_probe1,1,100,NaN,clock,car,0,0100_rot_dnn_0_car_20_n03100240_17587.png,n03100240_17587.png,0.0,-7.4803505,-1.1327512,-4.4884305
alexnet_w3_mlp_simclrhn_probe1,1,101,NaN,bird,bird,180,0101_rot_dnn_180_bird_20_n01601694_19236.png,n01601694_19236.png,1.0,-1.9240661,-5.8841305,2.8001885
alexnet_w3_mlp_simclrhn_probe1,1,102,NaN,cat,cat,0,0102_rot_dnn_0_cat_20_n02123597_2341.png,n02123597_2341.png,1.0,5.613949,-1.7845657,5.23154
alexnet_w3_mlp_simclrhn_probe1,1,103,NaN,elephant,elephant,270,0103_rot_dnn_270_elephant_20_n02504013_7883.png,n02504013_7883.png,1.0,0.0011387616,-0.18661277,0.13276039
alexnet_w3_mlp_simclrhn_probe1,1,104,NaN,bicycle,chair,270,0104_rot_dnn_270_chair_20_n03376595_14240.png,n03376595_14240.png,0.0,-5.3054786,-2.7112508,-1.8343961
alexnet_w3_mlp_simclrhn_probe1,1,105,NaN,airplane,airplane,0,0105_rot_dnn_0_airplane_20_n02690373_10188.png,n02690373_10188.png,1.0,7.9327097,2.1179428,4.111661
alexnet_w3_mlp_simclrhn_probe1,1,106,NaN,chair,truck,90,0106_rot_dnn_90_truck_20_n03417042_8634.png,n03417042_8634.png,0.0,-2.2297554,0.51099086,-1.9380003
alexnet_w3_mlp_simclrhn_probe1,1,107,NaN,knife,knife,90,0107_rot_dnn_90_knife_20_n03041632_32774.png,n03041632_32774.png,1.0,-0.010912061,-1.0123365,0.708114
alexnet_w3_mlp_simclrhn_probe1,1,108,NaN,knife,bottle,90,0108_rot_dnn_90_bottle_20_n03983396_4115.png,n03983396_4115.png,0.0,-1.2437807,0.8640881,-1.4904884
alexnet_w3_mlp_simclrhn_probe1,1,109,NaN,clock,clock,270,0109_rot_dnn_270_clock_20_n04548280_8552.png,n04548280_8552.png,1.0,1.2697966,-0.3145729,1.1203184
alexnet_w3_mlp_simclrhn_probe1,1,110,NaN,car,car,0,0110_rot_dnn_0_car_20_n02814533_6233.png,n02814533_6233.png,1.0,15.993831,8.352414,5.4032974
alexnet_w3_mlp_simclrhn_probe1,1,111,NaN,elephant,elephant,0,0111_rot_dnn_0_elephant_20_n02504458_9870.png,n02504458_9870.png,1.0,6.2463384,-2.0856907,5.8916345
alexnet_w3_mlp_simclrhn_probe1,1,112,NaN,bicycle,bicycle,270,0112_rot_dnn_270_bicycle_20_n02835271_3956.png,n02835271_3956.png,1.0,3.960061,-0.7612743,3.3384883
alexnet_w3_mlp_simclrhn_probe1,1,113,NaN,chair,knife,90,0113_rot_dnn_90_knife_20_n03041632_14817.png,n03041632_14817.png,0.0,-0.39010596,0.12707338,-0.36570105
alexnet_w3_mlp_simclrhn_probe1,1,114,NaN,oven,chair,90,0114_rot_dnn_90_chair_20_n04099969_8642.png,n04099969_8642.png,0.0,-3.6308208,-0.39448294,-2.2884364
alexnet_w3_mlp_simclrhn_probe1,1,115,NaN,clock,clock,0,0115_rot_dnn_0_clock_20_n02708093_240.png,n02708093_240.png,1.0,3.934122,-0.15675953,2.8926904
alexnet_w3_mlp_simclrhn_probe1,1,116,NaN,bear,bear,180,0116_rot_dnn_180_bear_20_n02133161_3896.png,n02133161_3896.png,1.0,0.28937775,-0.8256443,0.7884397
alexnet_w3_mlp_simclrhn_probe1,1,117,NaN,bottle,bottle,270,0117_rot_dnn_270_bottle_20_n04557648_11000.png,n04557648_11000.png,1.0,-2.7973568,-4.53778,1.2306648
alexnet_w3_mlp_simclrhn_probe1,1,118,NaN,clock,keyboard,90,0118_rot_dnn_90_keyboard_20_n03085013_2853.png,n03085013_2853.png,0.0,0.61246604,3.6162455,-2.123993
alexnet_w3_mlp_simclrhn_probe1,1,119,NaN,clock,boat,90,0119_rot_dnn_90_boat_20_n04273569_7097.png,n04273569_7097.png,0.0,-4.957981,-2.2263439,-1.9315592
alexnet_w3_mlp_simclrhn_probe1,1,120,NaN,bicycle,bicycle,270,0120_rot_dnn_270_bicycle_20_n03792782_40932.png,n03792782_40932.png,1.0,1.704556,-2.565195,3.01917
alexnet_w3_mlp_simclrhn_probe1,1,121,NaN,oven,chair,270,0121_rot_dnn_270_chair_20_n04429376_44914.png,n04429376_44914.png,0.0,0.06798169,1.2419084,-0.83009154
alexnet_w3_mlp_simclrhn_probe1,1,122,NaN,knife,bear,180,0122_rot_dnn_180_bear_20_n02134418_2122.png,n02134418_2122.png,0.0,-6.0929112,-1.1983118,-3.4610045
alexnet_w3_mlp_simclrhn_probe1,1,123,NaN,knife,keyboard,90,0123_rot_dnn_90_keyboard_20_n03085013_22704.png,n03085013_22704.png,0.0,-1.5274549,-0.35984215,-0.82562685
alexnet_w3_mlp_simclrhn_probe1,1,124,NaN,truck,truck,0,0124_rot_dnn_0_truck_20_n03417042_6838.png,n03417042_6838.png,1.0,1.6364187,0.40899888,0.86791694
alexnet_w3_mlp_simclrhn_probe1,1,125,NaN,elephant,elephant,0,0125_rot_dnn_0_elephant_20_n02504458_3628.png,n02504458_3628.png,1.0,7.7939353,-0.9360674,6.173044
alexnet_w3_mlp_simclrhn_probe1,1,126,NaN,cat,cat,90,0126_rot_dnn_90_cat_20_n02123597_10141.png,n02123597_10141.png,1.0,1.4919466,-1.2678032,1.951438
alexnet_w3_mlp_simclrhn_probe1,1,127,NaN,bicycle,bicycle,0,0127_rot_dnn_0_bicycle_20_n02835271_6383.png,n02835271_6383.png,1.0,7.4218736,-3.3058102,7.585618
alexnet_w3_mlp_simclrhn_probe1,1,128,NaN,keyboard,car,180,0128_rot_dnn_180_car_20_n04285008_7154.png,n04285008_7154.png,0.0,-1.4939184,-0.19817817,-0.91622674
alexnet_w3_mlp_simclrhn_probe1,1,129,NaN,airplane,bird,0,0129_rot_dnn_0_bird_20_n02007558_1068.png,n02007558_1068.png,0.0,-2.1911347,1.6418742,-2.7103465
alexnet_w3_mlp_simclrhn_probe1,1,130,NaN,bird,cat,90,0130_rot_dnn_90_cat_20_n02125311_1896.png,n02125311_1896.png,0.0,-2.180394,-1.6352748,-0.38545746
alexnet_w3_mlp_simclrhn_probe1,1,131,NaN,keyboard,keyboard,0,0131_rot_dnn_0_keyboard_20_n04505470_1903.png,n04505470_1903.png,1.0,16.532284,-1.8906217,13.026961
alexnet_w3_mlp_simclrhn_probe1,1,132,NaN,knife,bicycle,90,0132_rot_dnn_90_bicycle_20_n03792782_66159.png,n03792782_66159.png,0.0,-0.88956493,-0.6640763,-0.15944453
alexnet_w3_mlp_simclrhn_probe1,1,133,NaN,bear,bear,90,0133_rot_dnn_90_bear_20_n02134418_5219.png,n02134418_5219.png,1.0,3.8282533,1.3638483,1.7425976
alexnet_w3_mlp_simclrhn_probe1,1,134,NaN,chair,car,90,0134_rot_dnn_90_car_20_n02814533_92229.png,n02814533_92229.png,0.0,-2.9433753,0.04223138,-2.1111429
alexnet_w3_mlp_simclrhn_probe1,1,135,NaN,cat,dog,90,0135_rot_dnn_90_dog_20_n02090721_1002.png,n02090721_1002.png,0.0,-3.6952903,-0.8286309,-2.0270343
alexnet_w3_mlp_simclrhn_probe1,1,136,NaN,bottle,truck,270,0136_rot_dnn_270_truck_20_n04467665_46263.png,n04467665_46263.png,0.0,-5.868537,-2.2620466,-2.5501738
alexnet_w3_mlp_simclrhn_probe1,1,137,NaN,bottle,bottle,180,0137_rot_dnn_180_bottle_20_n03983396_704.png,n03983396_704.png,1.0,0.48358884,-0.7840431,0.8963511
alexnet_w3_mlp_simclrhn_probe1,1,138,NaN,oven,truck,180,0138_rot_dnn_180_truck_20_n03796401_4149.png,n03796401_4149.png,0.0,-2.4180365,0.44472814,-2.0242803
alexnet_w3_mlp_simclrhn_probe1,1,139,NaN,bird,bird,0,0139_rot_dnn_0_bird_20_n02006656_2030.png,n02006656_2030.png,1.0,2.086333,-7.7534914,6.957807
alexnet_w3_mlp_simclrhn_probe1,1,140,NaN,cat,cat,90,0140_rot_dnn_90_cat_20_n02123394_234.png,n02123394_234.png,1.0,1.3948606,-0.5389747,1.3674281
alexnet_w3_mlp_simclrhn_probe1,1,141,NaN,oven,chair,90,0141_rot_dnn_90_chair_20_n04429376_19916.png,n04429376_19916.png,0.0,-1.8756411,4.471327,-4.487984
alexnet_w3_mlp_simclrhn_probe1,1,142,NaN,bottle,truck,270,0142_rot_dnn_270_truck_20_n04467665_14024.png,n04467665_14024.png,0.0,-1.3221596,0.14692867,-1.0388024
alexnet_w3_mlp_simclrhn_probe1,1,143,NaN,keyboard,chair,90,0143_rot_dnn_90_chair_20_n04429376_14729.png,n04429376_14729.png,0.0,-3.8486645,6.6083794,-7.3942466
alexnet_w3_mlp_simclrhn_probe1,1,144,NaN,knife,car,270,0144_rot_dnn_270_car_20_n02814533_82321.png,n02814533_82321.png,0.0,-2.4371166,-1.1214983,-0.9302826
alexnet_w3_mlp_simclrhn_probe1,1,145,NaN,clock,clock,180,0145_rot_dnn_180_clock_20_n04548280_3701.png,n04548280_3701.png,1.0,0.76046824,-1.1110015,1.323329
alexnet_w3_mlp_simclrhn_probe1,1,146,NaN,knife,boat,270,0146_rot_dnn_270_boat_20_n02951358_11442.png,n02951358_11442.png,0.0,-3.9221191,-1.082868,-2.0076537
alexnet_w3_mlp_simclrhn_probe1,1,147,NaN,bear,bear,90,0147_rot_dnn_90_bear_20_n02132136_17349.png,n02132136_17349.png,1.0,1.4058777,-1.1010619,1.7726741
alexnet_w3_mlp_simclrhn_probe1,1,148,NaN,oven,airplane,90,0148_rot_dnn_90_airplane_20_n02690373_4982.png,n02690373_4982.png,0.0,-10.989571,-0.16866164,-7.651538
alexnet_w3_mlp_simclrhn_probe1,1,149,NaN,airplane,airplane,0,0149_rot_dnn_0_airplane_20_n02690373_2232.png,n02690373_2232.png,1.0,2.6421387,1.4237344,0.8615419
alexnet_w3_mlp_simclrhn_probe1,1,150,NaN,cat,cat,180,0150_rot_dnn_180_cat_20_n02123045_909.png,n02123045_909.png,1.0,-0.881741,-2.1047938,0.8648289
alexnet_w3_mlp_simclrhn_probe1,1,151,NaN,clock,clock,180,0151_rot_dnn_180_clock_20_n04548280_1190.png,n04548280_1190.png,1.0,2.3119068,0.73107564,1.1178164
alexnet_w3_mlp_simclrhn_probe1,1,152,NaN,oven,oven,90,0152_rot_dnn_90_oven_20_n04111531_1855.png,n04111531_1855.png,1.0,1.70437,-1.3238065,2.1412442
alexnet_w3_mlp_simclrhn_probe1,1,153,NaN,chair,boat,270,0153_rot_dnn_270_boat_20_n03662601_21408.png,n03662601_21408.png,0.0,-2.684317,-1.568008,-0.7893498
alexnet_w3_mlp_simclrhn_probe1,1,154,NaN,knife,dog,90,0154_rot_dnn_90_dog_20_n02088364_15877.png,n02088364_15877.png,0.0,-1.9948553,-1.1012611,-0.6318665
alexnet_w3_mlp_simclrhn_probe1,1,155,NaN,knife,knife,90,0155_rot_dnn_90_knife_20_n03041632_15250.png,n03041632_15250.png,1.0,-0.116911516,-1.3824724,0.8948867
alexnet_w3_mlp_simclrhn_probe1,1,156,NaN,oven,oven,0,0156_rot_dnn_0_oven_20_n04111531_17006.png,n04111531_17006.png,1.0,4.2443705,-2.4098036,4.7052116
alexnet_w3_mlp_simclrhn_probe1,1,157,NaN,clock,clock,90,0157_rot_dnn_90_clock_20_n04548280_11763.png,n04548280_11763.png,1.0,2.3924544,-0.9581386,2.3692272
alexnet_w3_mlp_simclrhn_probe1,1,158,NaN,bird,bird,270,0158_rot_dnn_270_bird_20_n02028035_8327.png,n02028035_8327.png,1.0,-1.0754126,-3.4089952,1.650092
alexnet_w3_mlp_simclrhn_probe1,1,159,NaN,bottle,car,90,0159_rot_dnn_90_car_20_n04285008_5641.png,n04285008_5641.png,0.0,-3.3351686,-1.8888836,-1.0226779
alexnet_w3_mlp_simclrhn_probe1,1,160,NaN,clock,oven,90,0160_rot_dnn_90_oven_20_n04111531_10727.png,n04111531_10727.png,0.0,-2.332191,0.8043255,-2.217852
alexnet_w3_mlp_simclrhn_probe1,1,161,NaN,elephant,elephant,270,0161_rot_dnn_270_elephant_20_n02504458_1971.png,n02504458_1971.png,1.0,-1.8412385,-2.2242818,0.2708525
alexnet_w3_mlp_simclrhn_probe1,1,162,NaN,bottle,bottle,180,0162_rot_dnn_180_bottle_20_n04560804_15941.png,n04560804_15941.png,1.0,1.9444649,-3.3135066,3.7179475
alexnet_w3_mlp_simclrhn_probe1,1,163,NaN,elephant,elephant,0,0163_rot_dnn_0_elephant_20_n02504458_151.png,n02504458_151.png,1.0,16.317514,4.609942,8.278504
alexnet_w3_mlp_simclrhn_probe1,1,164,NaN,bear,bear,180,0164_rot_dnn_180_bear_20_n02133161_15427.png,n02133161_15427.png,1.0,1.2021918,0.14595425,0.7468728
alexnet_w3_mlp_simclrhn_probe1,1,165,NaN,elephant,bear,180,0165_rot_dnn_180_bear_20_n02134084_20605.png,n02134084_20605.png,0.0,-2.853065,-0.47329885,-1.6827489
alexnet_w3_mlp_simclrhn_probe1,1,166,NaN,bottle,bottle,90,0166_rot_dnn_90_bottle_20_n04560804_2693.png,n04560804_2693.png,1.0,-1.9867973,-3.426547,1.0180568
alexnet_w3_mlp_simclrhn_probe1,1,167,NaN,clock,airplane,270,0167_rot_dnn_270_airplane_20_n02690373_8214.png,n02690373_8214.png,0.0,-9.132939,-0.32080758,-6.231118
alexnet_w3_mlp_simclrhn_probe1,1,168,NaN,boat,boat,0,0168_rot_dnn_0_boat_20_n02951358_14966.png,n02951358_14966.png,1.0,1.3206818,-1.390821,1.917322
alexnet_w3_mlp_simclrhn_probe1,1,169,NaN,knife,knife,90,0169_rot_dnn_90_knife_20_n03041632_14801.png,n03041632_14801.png,1.0,-2.9176543,-3.253357,0.23737763
alexnet_w3_mlp_simclrhn_probe1,1,170,NaN,cat,dog,90,0170_rot_dnn_90_dog_20_n02110063_8776.png,n02110063_8776.png,0.0,-2.7861598,-2.1548822,-0.44638065
alexnet_w3_mlp_simclrhn_probe1,1,171,NaN,bicycle,dog,180,0171_rot_dnn_180_dog_20_n02100236_7671.png,n02100236_7671.png,0.0,-3.415833,-1.5562081,-1.3149533
alexnet_w3_mlp_simclrhn_probe1,1,172,NaN,oven,oven,0,0172_rot_dnn_0_oven_20_n04111531_21248.png,n04111531_21248.png,1.0,3.2236311,-3.297214,4.6109343
alexnet_w3_mlp_simclrhn_probe1,1,173,NaN,oven,knife,270,0173_rot_dnn_270_knife_20_n03041632_17100.png,n03041632_17100.png,0.0,-1.8444198,1.5205398,-2.379386
alexnet_w3_mlp_simclrhn_probe1,1,174,NaN,oven,knife,0,0174_rot_dnn_0_knife_20_n03041632_3781.png,n03041632_3781.png,0.0,-0.8394848,-0.5375651,-0.21348947
alexnet_w3_mlp_simclrhn_probe1,1,175,NaN,chair,oven,270,0175_rot_dnn_270_oven_20_n04111531_46651.png,n04111531_46651.png,0.0,-2.0856566,0.23431653,-1.6404688
alexnet_w3_mlp_simclrhn_probe1,1,176,NaN,clock,clock,0,0176_rot_dnn_0_clock_20_n04548280_8303.png,n04548280_8303.png,1.0,0.53149784,-0.17077716,0.4965834
alexnet_w3_mlp_simclrhn_probe1,1,177,NaN,airplane,airplane,0,0177_rot_dnn_0_airplane_20_n02690373_2070.png,n02690373_2070.png,1.0,8.069685,-2.2860856,7.322635
alexnet_w3_mlp_simclrhn_probe1,1,178,NaN,airplane,car,180,0178_rot_dnn_180_car_20_n03100240_574.png,n03100240_574.png,0.0,-0.57980806,0.1500599,-0.51609457
alexnet_w3_mlp_simclrhn_probe1,1,179,NaN,bear,dog,90,0179_rot_dnn_90_dog_20_n02095570_11263.png,n02095570_11263.png,0.0,-1.9197966,-0.93247247,-0.6981436
alexnet_w3_mlp_simclrhn_probe1,1,180,NaN,bottle,bottle,180,0180_rot_dnn_180_bottle_20_n03983396_9667.png,n03983396_9667.png,1.0,-0.264109,-0.7450616,0.34008485
alexnet_w3_mlp_simclrhn_probe1,1,181,NaN,clock,clock,0,0181_rot_dnn_0_clock_20_n02708093_3535.png,n02708093_3535.png,1.0,7.179067,2.3619437,3.4062207
alexnet_w3_mlp_simclrhn_probe1,1,182,NaN,bird,bird,180,0182_rot_dnn_180_bird_20_n01531178_17239.png,n01531178_17239.png,1.0,-2.006518,-4.9390836,2.073637
alexnet_w3_mlp_simclrhn_probe1,1,183,NaN,elephant,elephant,180,0183_rot_dnn_180_elephant_20_n02504458_2272.png,n02504458_2272.png,1.0,0.45197836,-1.8931042,1.6582237
alexnet_w3_mlp_simclrhn_probe1,1,184,NaN,knife,knife,90,0184_rot_dnn_90_knife_20_n03041632_50648.png,n03041632_50648.png,1.0,2.406435,-3.0610585,3.8661017
alexnet_w3_mlp_simclrhn_probe1,1,185,NaN,knife,knife,0,0185_rot_dnn_0_knife_20_n03041632_33225.png,n03041632_33225.png,1.0,-0.6367525,-4.513036,2.740946
alexnet_w3_mlp_simclrhn_probe1,1,186,NaN,airplane,airplane,0,0186_rot_dnn_0_airplane_20_n02690373_736.png,n02690373_736.png,1.0,11.459202,1.7003444,6.9005547
alexnet_w3_mlp_simclrhn_probe1,1,187,NaN,knife,knife,270,0187_rot_dnn_270_knife_20_n03041632_2546.png,n03041632_2546.png,1.0,-0.23480022,-1.0914755,0.6057609
alexnet_w3_mlp_simclrhn_probe1,1,188,NaN,boat,boat,180,0188_rot_dnn_180_boat_20_n04273569_13053.png,n04273569_13053.png,1.0,2.606895,2.4690685,0.09745801
alexnet_w3_mlp_simclrhn_probe1,1,189,NaN,airplane,airplane,180,0189_rot_dnn_180_airplane_20_n02690373_3588.png,n02690373_3588.png,1.0,1.2544198,-0.12357771,0.9743914
alexnet_w3_mlp_simclrhn_probe1,1,190,NaN,cat,keyboard,0,0190_rot_dnn_0_keyboard_20_n03085013_21004.png,n03085013_21004.png,0.0,-5.8444824,3.8018875,-6.821014
alexnet_w3_mlp_simclrhn_probe1,1,191,NaN,boat,boat,180,0191_rot_dnn_180_boat_20_n03662601_16627.png,n03662601_16627.png,1.0,-1.7927675,-1.9345458,0.10025235
alexnet_w3_mlp_simclrhn_probe1,1,192,NaN,elephant,bird,180,0192_rot_dnn_180_bird_20_n02017213_6478.png,n02017213_6478.png,0.0,-2.1634407,-1.1344405,-0.72761303
alexnet_w3_mlp_simclrhn_probe1,1,193,NaN,bear,bear,90,0193_rot_dnn_90_bear_20_n02134418_998.png,n02134418_998.png,1.0,-0.7257724,-3.3783858,1.8756809
alexnet_w3_mlp_simclrhn_probe1,1,194,NaN,bicycle,truck,90,0194_rot_dnn_90_truck_20_n04467665_71055.png,n04467665_71055.png,0.0,-3.4944992,0.7009841,-2.9666548
alexnet_w3_mlp_simclrhn_probe1,1,195,NaN,knife,car,90,0195_rot_dnn_90_car_20_n02814533_23979.png,n02814533_23979.png,0.0,-3.5217447,-0.28556466,-2.2883248
alexnet_w3_mlp_simclrhn_probe1,1,196,NaN,bear,elephant,180,0196_rot_dnn_180_elephant_20_n02504458_6805.png,n02504458_6805.png,0.0,-1.4907143,-0.97338045,-0.3658103
alexnet_w3_mlp_simclrhn_probe1,1,197,NaN,clock,clock,90,0197_rot_dnn_90_clock_20_n04548280_4841.png,n04548280_4841.png,1.0,0.66801834,-0.89224863,1.1032754
alexnet_w3_mlp_simclrhn_probe1,1,198,NaN,clock,boat,90,0198_rot_dnn_90_boat_20_n03662601_6832.png,n03662601_6832.png,0.0,-2.943581,-1.1075759,-1.2982517
alexnet_w3_mlp_simclrhn_probe1,1,199,NaN,oven,oven,270,0199_rot_dnn_270_oven_20_n04111531_766.png,n04111531_766.png,1.0,4.721405,-1.3362254,4.2833915
alexnet_w3_mlp_simclrhn_probe1,1,200,NaN,bottle,clock,0,0200_rot_dnn_0_clock_20_n04548280_1305.png,n04548280_1305.png,0.0,-4.5821605,-4.14318,-0.31040615
alexnet_w3_mlp_simclrhn_probe1,1,201,NaN,bicycle,bicycle,0,0201_rot_dnn_0_bicycle_20_n03792782_19083.png,n03792782_19083.png,1.0,6.1779943,-5.323848,8.133031
alexnet_w3_mlp_simclrhn_probe1,1,202,NaN,knife,bird,90,0202_rot_dnn_90_bird_20_n01860187_20081.png,n01860187_20081.png,0.0,-3.1415536,-2.3210125,-0.5802102
alexnet_w3_mlp_simclrhn_probe1,1,203,NaN,oven,oven,0,0203_rot_dnn_0_oven_20_n04111531_4817.png,n04111531_4817.png,1.0,1.5839938,-4.7351933,4.4683404
alexnet_w3_mlp_simclrhn_probe1,1,204,NaN,car,car,180,0204_rot_dnn_180_car_20_n02814533_33360.png,n02814533_33360.png,1.0,0.63893205,-1.5746254,1.5652215
alexnet_w3_mlp_simclrhn_probe1,1,205,NaN,clock,clock,270,0205_rot_dnn_270_clock_20_n04548280_4035.png,n04548280_4035.png,1.0,2.5656207,-0.8235478,2.3965042
alexnet_w3_mlp_simclrhn_probe1,1,206,NaN,keyboard,keyboard,270,0206_rot_dnn_270_keyboard_20_n03085013_7879.png,n03085013_7879.png,1.0,1.2331793,-0.8784845,1.4931718
alexnet_w3_mlp_simclrhn_probe1,1,207,NaN,airplane,airplane,0,0207_rot_dnn_0_airplane_20_n02690373_2598.png,n02690373_2598.png,1.0,6.3248615,1.1412324,3.6653793
alexnet_w3_mlp_simclrhn_probe1,1,208,NaN,cat,cat,180,0208_rot_dnn_180_cat_20_n02123045_436.png,n02123045_436.png,1.0,2.1272435,-1.6809872,2.692826
alexnet_w3_mlp_simclrhn_probe1,1,209,NaN,knife,airplane,270,0209_rot_dnn_270_airplane_20_n02690373_813.png,n02690373_813.png,0.0,-5.808668,-1.0039918,-3.397419
alexnet_w3_mlp_simclrhn_probe1,1,210,NaN,cat,cat,0,0210_rot_dnn_0_cat_20_n02123159_1008.png,n02123159_1008.png,1.0,18.41376,-7.8876333,18.597893
alexnet_w3_mlp_simclrhn_probe1,1,211,NaN,bottle,bottle,90,0211_rot_dnn_90_bottle_20_n03983396_5452.png,n03983396_5452.png,1.0,0.93314856,-1.929737,2.0243657
alexnet_w3_mlp_simclrhn_probe1,1,212,NaN,knife,dog,90,0212_rot_dnn_90_dog_20_n02090379_13010.png,n02090379_13010.png,0.0,-3.6640143,-1.352962,-1.6341608
alexnet_w3_mlp_simclrhn_probe1,1,213,NaN,bicycle,chair,180,0213_rot_dnn_180_chair_20_n04099969_4162.png,n04099969_4162.png,0.0,-1.1573753,-0.94717634,-0.14863314
alexnet_w3_mlp_simclrhn_probe1,1,214,NaN,oven,keyboard,270,0214_rot_dnn_270_keyboard_20_n04505470_206.png,n04505470_206.png,0.0,-2.4391007,-1.9345603,-0.356764
alexnet_w3_mlp_simclrhn_probe1,1,215,NaN,cat,cat,0,0215_rot_dnn_0_cat_20_n02123045_5290.png,n02123045_5290.png,1.0,-1.5670371,-2.0622756,0.35018653
alexnet_w3_mlp_simclrhn_probe1,1,216,NaN,knife,bird,180,0216_rot_dnn_180_bird_20_n01843383_6001.png,n01843383_6001.png,0.0,-5.0892797,-3.190404,-1.3427079
alexnet_w3_mlp_simclrhn_probe1,1,217,NaN,knife,knife,0,0217_rot_dnn_0_knife_20_n03041632_24376.png,n03041632_24376.png,1.0,-0.89375925,-2.4417377,1.094586
alexnet_w3_mlp_simclrhn_probe1,1,218,NaN,bicycle,bicycle,90,0218_rot_dnn_90_bicycle_20_n02835271_2915.png,n02835271_2915.png,1.0,-0.42370206,-3.0825672,1.8801017
alexnet_w3_mlp_simclrhn_probe1,1,219,NaN,bicycle,bicycle,0,0219_rot_dnn_0_bicycle_20_n03792782_5517.png,n03792782_5517.png,1.0,13.035957,-0.5069782,9.576302
alexnet_w3_mlp_simclrhn_probe1,1,220,NaN,bicycle,bicycle,90,0220_rot_dnn_90_bicycle_20_n02835271_7053.png,n02835271_7053.png,1.0,1.4485439,-4.1119475,3.9318614
alexnet_w3_mlp_simclrhn_probe1,1,221,NaN,clock,clock,180,0221_rot_dnn_180_clock_20_n04548280_7115.png,n04548280_7115.png,1.0,1.4081188,-3.2464795,3.2912982
alexnet_w3_mlp_simclrhn_probe1,1,222,NaN,bottle,boat,270,0222_rot_dnn_270_boat_20_n04273569_29866.png,n04273569_29866.png,0.0,-3.5260396,-2.433844,-0.7722989
alexnet_w3_mlp_simclrhn_probe1,1,223,NaN,clock,clock,90,0223_rot_dnn_90_clock_20_n02708093_3623.png,n02708093_3623.png,1.0,1.5133108,-0.038947105,1.0976121
alexnet_w3_mlp_simclrhn_probe1,1,224,NaN,bear,bear,180,0224_rot_dnn_180_bear_20_n02132136_7468.png,n02132136_7468.png,1.0,1.0926998,0.6617928,0.30469725
alexnet_w3_mlp_simclrhn_probe1,1,225,NaN,cat,cat,0,0225_rot_dnn_0_cat_20_n02123159_2137.png,n02123159_2137.png,1.0,1.9966172,-2.899531,3.4620996
alexnet_w3_mlp_simclrhn_probe1,1,226,NaN,knife,bottle,90,0226_rot_dnn_90_bottle_20_n03937543_5257.png,n03937543_5257.png,0.0,-2.1743681,-0.67830604,-1.0578756
alexnet_w3_mlp_simclrhn_probe1,1,227,NaN,cat,cat,0,0227_rot_dnn_0_cat_20_n02123394_937.png,n02123394_937.png,1.0,1.7431713,-1.6696279,2.4132135
alexnet_w3_mlp_simclrhn_probe1,1,228,NaN,boat,boat,0,0228_rot_dnn_0_boat_20_n03662601_11764.png,n03662601_11764.png,1.0,4.461549,0.74158865,2.6304092
alexnet_w3_mlp_simclrhn_probe1,1,229,NaN,bear,bear,0,0229_rot_dnn_0_bear_20_n02132136_10412.png,n02132136_10412.png,1.0,4.595817,-0.58686465,3.6647093
alexnet_w3_mlp_simclrhn_probe1,1,230,NaN,clock,clock,270,0230_rot_dnn_270_clock_20_n03196217_3600.png,n03196217_3600.png,1.0,1.8565665,-0.40622306,1.600034
alexnet_w3_mlp_simclrhn_probe1,1,231,NaN,oven,dog,270,0231_rot_dnn_270_dog_20_n02102177_255.png,n02102177_255.png,0.0,-3.134747,-1.709526,-1.0077835
alexnet_w3_mlp_simclrhn_probe1,1,232,NaN,bird,bird,270,0232_rot_dnn_270_bird_20_n01614925_1860.png,n01614925_1860.png,1.0,0.5560367,-2.986289,2.5048027
alexnet_w3_mlp_simclrhn_probe1,1,233,NaN,airplane,airplane,180,0233_rot_dnn_180_airplane_20_n02690373_1021.png,n02690373_1021.png,1.0,-0.45482066,-0.62589705,0.12096927
alexnet_w3_mlp_simclrhn_probe1,1,234,NaN,chair,chair,180,0234_rot_dnn_180_chair_20_n03376595_9079.png,n03376595_9079.png,1.0,0.91854984,0.8766719,0.029612165
alexnet_w3_mlp_simclrhn_probe1,1,235,NaN,chair,chair,90,0235_rot_dnn_90_chair_20_n02791124_5199.png,n02791124_5199.png,1.0,-1.9089673,-1.9688673,0.042355727
alexnet_w3_mlp_simclrhn_probe1,1,236,NaN,keyboard,keyboard,90,0236_rot_dnn_90_keyboard_20_n03085013_24294.png,n03085013_24294.png,1.0,-1.4348233,-1.4534014,0.013136751
alexnet_w3_mlp_simclrhn_probe1,1,237,NaN,cat,cat,0,0237_rot_dnn_0_cat_20_n02123597_13286.png,n02123597_13286.png,1.0,2.6183536,-0.1404254,1.9507514
alexnet_w3_mlp_simclrhn_probe1,1,238,NaN,bird,bird,180,0238_rot_dnn_180_bird_20_n01560419_17392.png,n01560419_17392.png,1.0,-0.5208405,-6.893014,4.505807
alexnet_w3_mlp_simclrhn_probe1,1,239,NaN,oven,oven,270,0239_rot_dnn_270_oven_20_n04111531_6934.png,n04111531_6934.png,1.0,1.9400607,-1.8837154,2.703818
alexnet_w3_mlp_simclrhn_probe1,1,240,NaN,bottle,clock,90,0240_rot_dnn_90_clock_20_n03196217_6707.png,n03196217_6707.png,0.0,-1.7011346,-0.5765871,-0.79517514
alexnet_w3_mlp_simclrhn_probe1,1,241,NaN,knife,knife,180,0241_rot_dnn_180_knife_20_n03041632_15174.png,n03041632_15174.png,1.0,-0.89616513,-2.2145393,0.9322313
alexnet_w3_mlp_simclrhn_probe1,1,242,NaN,oven,oven,180,0242_rot_dnn_180_oven_20_n04111531_13644.png,n04111531_13644.png,1.0,3.4869351,-4.2614007,5.478901
alexnet_w3_mlp_simclrhn_probe1,1,243,NaN,elephant,elephant,0,0243_rot_dnn_0_elephant_20_n02504458_3458.png,n02504458_3458.png,1.0,15.199074,0.6327495,10.299947
alexnet_w3_mlp_simclrhn_probe1,1,244,NaN,clock,clock,90,0244_rot_dnn_90_clock_20_n04548280_18914.png,n04548280_18914.png,1.0,6.079843,-1.294547,5.2144814
alexnet_w3_mlp_simclrhn_probe1,1,245,NaN,bicycle,dog,180,0245_rot_dnn_180_dog_20_n02107908_2754.png,n02107908_2754.png,0.0,-3.2918036,-2.95512,-0.2380712
alexnet_w3_mlp_simclrhn_probe1,1,246,NaN,airplane,airplane,0,0246_rot_dnn_0_airplane_20_n02690373_1306.png,n02690373_1306.png,1.0,11.641466,1.9426035,6.858132
alexnet_w3_mlp_simclrhn_probe1,1,247,NaN,chair,chair,90,0247_rot_dnn_90_chair_20_n03376595_10266.png,n03376595_10266.png,1.0,-0.079558164,-1.603703,1.0777332
alexnet_w3_mlp_simclrhn_probe1,1,248,NaN,keyboard,keyboard,270,0248_rot_dnn_270_keyboard_20_n04505470_1416.png,n04505470_1416.png,1.0,2.430994,0.26830378,1.5292529
alexnet_w3_mlp_simclrhn_probe1,1,249,NaN,clock,clock,180,0249_rot_dnn_180_clock_20_n04548280_4686.png,n04548280_4686.png,1.0,8.883377,-1.7538471,7.5216537
alexnet_w3_mlp_simclrhn_probe1,1,250,NaN,oven,truck,270,0250_rot_dnn_270_truck_20_n04467665_69882.png,n04467665_69882.png,0.0,-8.3841305,-1.6375327,-4.770565
alexnet_w3_mlp_simclrhn_probe1,1,251,NaN,knife,bottle,270,0251_rot_dnn_270_bottle_20_n04591713_2123.png,n04591713_2123.png,0.0,-4.5877166,3.0524807,-5.4024353
alexnet_w3_mlp_simclrhn_probe1,1,252,NaN,oven,oven,90,0252_rot_dnn_90_oven_20_n04111531_6933.png,n04111531_6933.png,1.0,2.1185436,-3.596128,4.040883
alexnet_w3_mlp_simclrhn_probe1,1,253,NaN,knife,car,270,0253_rot_dnn_270_car_20_n03100240_8898.png,n03100240_8898.png,0.0,-7.4579773,-0.10952447,-5.1961412
alexnet_w3_mlp_simclrhn_probe1,1,254,NaN,cat,elephant,180,0254_rot_dnn_180_elephant_20_n02504458_5277.png,n02504458_5277.png,0.0,-1.7853341,0.3685952,-1.5230579
alexnet_w3_mlp_simclrhn_probe1,1,255,NaN,oven,truck,270,0255_rot_dnn_270_truck_20_n03417042_9967.png,n03417042_9967.png,0.0,-0.2317034,0.4452964,-0.47871116
alexnet_w3_mlp_simclrhn_probe1,1,256,NaN,bear,bear,0,0256_rot_dnn_0_bear_20_n02134418_1017.png,n02134418_1017.png,1.0,3.6080616,-1.648118,3.7166805
alexnet_w3_mlp_simclrhn_probe1,1,257,NaN,bottle,airplane,90,0257_rot_dnn_90_airplane_20_n02690373_1909.png,n02690373_1909.png,0.0,-4.6226172,-1.4659536,-2.2320983
alexnet_w3_mlp_simclrhn_probe1,1,258,NaN,airplane,airplane,0,0258_rot_dnn_0_airplane_20_n02690373_6753.png,n02690373_6753.png,1.0,8.702615,-2.4466655,7.883732
alexnet_w3_mlp_simclrhn_probe1,1,259,NaN,airplane,airplane,0,0259_rot_dnn_0_airplane_20_n02690373_1972.png,n02690373_1972.png,1.0,7.332553,2.454006,3.4496536
alexnet_w3_mlp_simclrhn_probe1,1,260,NaN,oven,oven,90,0260_rot_dnn_90_oven_20_n04111531_9915.png,n04111531_9915.png,1.0,1.9329776,-1.5143433,2.437624
alexnet_w3_mlp_simclrhn_probe1,1,261,NaN,elephant,elephant,270,0261_rot_dnn_270_elephant_20_n02504458_485.png,n02504458_485.png,1.0,1.2954049,-2.8807168,2.952964
alexnet_w3_mlp_simclrhn_probe1,1,262,NaN,elephant,elephant,180,0262_rot_dnn_180_elephant_20_n02504013_2431.png,n02504013_2431.png,1.0,0.5534678,0.5319029,0.015248688
alexnet_w3_mlp_simclrhn_probe1,1,263,NaN,bicycle,clock,180,0263_rot_dnn_180_clock_20_n02708093_1038.png,n02708093_1038.png,0.0,-0.4576137,0.59789014,-0.7463539
alexnet_w3_mlp_simclrhn_probe1,1,264,NaN,cat,cat,270,0264_rot_dnn_270_cat_20_n02123597_5927.png,n02123597_5927.png,1.0,1.6003214,-0.16337503,1.2471217
alexnet_w3_mlp_simclrhn_probe1,1,265,NaN,bicycle,bicycle,90,0265_rot_dnn_90_bicycle_20_n03792782_3202.png,n03792782_3202.png,1.0,-0.5201533,-3.3337193,1.9894916
alexnet_w3_mlp_simclrhn_probe1,1,266,NaN,chair,car,270,0266_rot_dnn_270_car_20_n02814533_45480.png,n02814533_45480.png,0.0,-4.7478423,0.5520538,-3.7475927
alexnet_w3_mlp_simclrhn_probe1,1,267,NaN,clock,truck,90,0267_rot_dnn_90_truck_20_n03796401_4571.png,n03796401_4571.png,0.0,-0.7420202,0.83454615,-1.1148008
alexnet_w3_mlp_simclrhn_probe1,1,268,NaN,oven,oven,90,0268_rot_dnn_90_oven_20_n04111531_21011.png,n04111531_21011.png,1.0,-2.7268085,-3.3700738,0.45485723
alexnet_w3_mlp_simclrhn_probe1,1,269,NaN,airplane,airplane,0,0269_rot_dnn_0_airplane_20_n02690373_4310.png,n02690373_4310.png,1.0,10.080938,-1.6517318,8.29625
alexnet_w3_mlp_simclrhn_probe1,1,270,NaN,oven,oven,0,0270_rot_dnn_0_oven_20_n04111531_7134.png,n04111531_7134.png,1.0,0.8684794,0.3353507,0.3769789
alexnet_w3_mlp_simclrhn_probe1,1,271,NaN,cat,dog,270,0271_rot_dnn_270_dog_20_n02105251_1092.png,n02105251_1092.png,0.0,-0.306226,0.66923195,-0.68975294
alexnet_w3_mlp_simclrhn_probe1,1,272,NaN,knife,knife,180,0272_rot_dnn_180_knife_20_n03041632_34505.png,n03041632_34505.png,1.0,0.5282902,-2.1353443,1.8834741
alexnet_w3_mlp_simclrhn_probe1,1,273,NaN,keyboard,keyboard,90,0273_rot_dnn_90_keyboard_20_n04505470_4520.png,n04505470_4520.png,1.0,-0.42385906,-2.1480482,1.2191858
alexnet_w3_mlp_simclrhn_probe1,1,274,NaN,oven,boat,180,0274_rot_dnn_180_boat_20_n03344393_1519.png,n03344393_1519.png,0.0,-1.6533293,-0.020122617,-1.1548514
alexnet_w3_mlp_simclrhn_probe1,1,275,NaN,knife,chair,270,0275_rot_dnn_270_chair_20_n03376595_9535.png,n03376595_9535.png,0.0,-0.629666,-0.55861485,-0.05024073
alexnet_w3_mlp_simclrhn_probe1,1,276,NaN,bear,cat,270,0276_rot_dnn_270_cat_20_n02125311_1326.png,n02125311_1326.png,0.0,-3.6585305,-1.5166081,-1.514568
alexnet_w3_mlp_simclrhn_probe1,1,277,NaN,cat,cat,90,0277_rot_dnn_90_cat_20_n02123394_2948.png,n02123394_2948.png,1.0,1.241921,-1.8000447,2.1509945
alexnet_w3_mlp_simclrhn_probe1,1,278,NaN,oven,oven,270,0278_rot_dnn_270_oven_20_n04111531_5429.png,n04111531_5429.png,1.0,2.05032,-0.6842741,1.9336499
alexnet_w3_mlp_simclrhn_probe1,1,279,NaN,elephant,elephant,0,0279_rot_dnn_0_elephant_20_n02504013_6645.png,n02504013_6645.png,1.0,0.7218162,0.005682421,0.50638306
alexnet_w3_mlp_simclrhn_probe1,1,280,NaN,oven,keyboard,90,0280_rot_dnn_90_keyboard_20_n04505470_4159.png,n04505470_4159.png,0.0,-2.7205462,2.312252,-3.5587258
alexnet_w3_mlp_simclrhn_probe1,1,281,NaN,bottle,bottle,90,0281_rot_dnn_90_bottle_20_n02823428_6252.png,n02823428_6252.png,1.0,-0.37085718,-1.4875255,0.7896037
alexnet_w3_mlp_simclrhn_probe1,1,282,NaN,airplane,airplane,180,0282_rot_dnn_180_airplane_20_n02690373_15097.png,n02690373_15097.png,1.0,2.5034957,-0.87821066,2.3912275
alexnet_w3_mlp_simclrhn_probe1,1,283,NaN,oven,cat,0,0283_rot_dnn_0_cat_20_n02123159_3420.png,n02123159_3420.png,0.0,-7.618252,-0.7013881,-4.890961
alexnet_w3_mlp_simclrhn_probe1,1,284,NaN,cat,cat,0,0284_rot_dnn_0_cat_20_n02124075_7835.png,n02124075_7835.png,1.0,-1.5433944,-2.5858583,0.7371333
alexnet_w3_mlp_simclrhn_probe1,1,285,NaN,cat,cat,90,0285_rot_dnn_90_cat_20_n02123045_6696.png,n02123045_6696.png,1.0,-0.5833614,-3.2420385,1.8799686
alexnet_w3_mlp_simclrhn_probe1,1,286,NaN,bicycle,boat,180,0286_rot_dnn_180_boat_20_n02951358_34766.png,n02951358_34766.png,0.0,-2.069392,-0.40033603,-1.1802008
alexnet_w3_mlp_simclrhn_probe1,1,287,NaN,elephant,bird,0,0287_rot_dnn_0_bird_20_n01855672_8191.png,n01855672_8191.png,0.0,-4.323193,-1.6562542,-1.8858105
alexnet_w3_mlp_simclrhn_probe1,1,288,NaN,clock,truck,180,0288_rot_dnn_180_truck_20_n03796401_1150.png,n03796401_1150.png,0.0,-1.7599279,-0.014524877,-1.2341864
alexnet_w3_mlp_simclrhn_probe1,1,289,NaN,bicycle,bicycle,270,0289_rot_dnn_270_bicycle_20_n03792782_9782.png,n03792782_9782.png,1.0,-2.4340289,-3.5953605,0.8211855
alexnet_w3_mlp_simclrhn_probe1,1,290,NaN,knife,boat,270,0290_rot_dnn_270_boat_20_n03662601_12969.png,n03662601_12969.png,0.0,-6.467939,-1.0979766,-3.7971368
alexnet_w3_mlp_simclrhn_probe1,1,291,NaN,clock,bottle,180,0291_rot_dnn_180_bottle_20_n02823428_4530.png,n02823428_4530.png,0.0,-3.1192563,-1.4321588,-1.192958
alexnet_w3_mlp_simclrhn_probe1,1,292,NaN,chair,chair,0,0292_rot_dnn_0_chair_20_n02791124_2898.png,n02791124_2898.png,1.0,1.1557469,-0.7927943,1.3778267
alexnet_w3_mlp_simclrhn_probe1,1,293,NaN,cat,cat,270,0293_rot_dnn_270_cat_20_n02123394_686.png,n02123394_686.png,1.0,1.3298331,-0.08834402,1.0028027
alexnet_w3_mlp_simclrhn_probe1,1,294,NaN,dog,dog,180,0294_rot_dnn_180_dog_20_n02100735_4364.png,n02100735_4364.png,1.0,-2.414374,-2.4335341,0.013548189
alexnet_w3_mlp_simclrhn_probe1,1,295,NaN,bear,dog,0,0295_rot_dnn_0_dog_20_n02102177_7968.png,n02102177_7968.png,0.0,1.0013165,2.3936267,-0.984512
alexnet_w3_mlp_simclrhn_probe1,1,296,NaN,knife,knife,270,0296_rot_dnn_270_knife_20_n03041632_15099.png,n03041632_15099.png,1.0,-3.2112498,-3.8133054,0.42571756
alexnet_w3_mlp_simclrhn_probe1,1,297,NaN,oven,oven,180,0297_rot_dnn_180_oven_20_n04111531_2937.png,n04111531_2937.png,1.0,3.1729984,-0.40580657,2.5305972
alexnet_w3_mlp_simclrhn_probe1,1,298,NaN,cat,cat,0,0298_rot_dnn_0_cat_20_n02123394_3695.png,n02123394_3695.png,1.0,2.2777984,0.44391814,1.2967492
alexnet_w3_mlp_simclrhn_probe1,1,299,NaN,bottle,bear,180,0299_rot_dnn_180_bear_20_n02134084_3696.png,n02134084_3696.png,0.0,-3.9643943,-1.7420775,-1.5714153
alexnet_w3_mlp_simclrhn_probe1,1,300,NaN,knife,oven,270,0300_rot_dnn_270_oven_20_n04111531_4671.png,n04111531_4671.png,0.0,-2.3127422,-1.082525,-0.869895
alexnet_w3_mlp_simclrhn_probe1,1,301,NaN,bear,bear,180,0301_rot_dnn_180_bear_20_n02133161_2741.png,n02133161_2741.png,1.0,-0.51886106,-1.4384781,0.6502675
alexnet_w3_mlp_simclrhn_probe1,1,302,NaN,clock,boat,90,0302_rot_dnn_90_boat_20_n03662601_3893.png,n03662601_3893.png,0.0,-5.060797,-1.8243728,-2.2884977
alexnet_w3_mlp_simclrhn_probe1,1,303,NaN,clock,boat,90,0303_rot_dnn_90_boat_20_n03344393_2790.png,n03344393_2790.png,0.0,-3.4058094,-0.6236573,-1.9672787
alexnet_w3_mlp_simclrhn_probe1,1,304,NaN,keyboard,keyboard,180,0304_rot_dnn_180_keyboard_20_n03085013_3920.png,n03085013_3920.png,1.0,1.3551174,-0.05412233,0.996483
alexnet_w3_mlp_simclrhn_probe1,1,305,NaN,oven,chair,90,0305_rot_dnn_90_chair_20_n04099969_1962.png,n04099969_1962.png,0.0,0.35944027,1.3317628,-0.6875359
alexnet_w3_mlp_simclrhn_probe1,1,306,NaN,knife,knife,0,0306_rot_dnn_0_knife_20_n03041632_13846.png,n03041632_13846.png,1.0,-0.46540478,-0.5724802,0.07571376
alexnet_w3_mlp_simclrhn_probe1,1,307,NaN,bicycle,boat,0,0307_rot_dnn_0_boat_20_n02951358_30117.png,n02951358_30117.png,0.0,-0.2534142,1.6831677,-1.3693702
alexnet_w3_mlp_simclrhn_probe1,1,308,NaN,elephant,elephant,270,0308_rot_dnn_270_elephant_20_n02504458_9922.png,n02504458_9922.png,1.0,-2.7009008,-2.7567632,0.039500702
alexnet_w3_mlp_simclrhn_probe1,1,309,NaN,airplane,boat,180,0309_rot_dnn_180_boat_20_n03344393_5609.png,n03344393_5609.png,0.0,-1.2780653,-0.8781338,-0.28279433
alexnet_w3_mlp_simclrhn_probe1,1,310,NaN,chair,chair,0,0310_rot_dnn_0_chair_20_n02791124_3180.png,n02791124_3180.png,1.0,1.2205892,0.55472183,0.47083932
alexnet_w3_mlp_simclrhn_probe1,1,311,NaN,elephant,boat,90,0311_rot_dnn_90_boat_20_n02951358_12532.png,n02951358_12532.png,0.0,-4.541722,-0.084002376,-3.1520836
alexnet_w3_mlp_simclrhn_probe1,1,312,NaN,cat,cat,180,0312_rot_dnn_180_cat_20_n02123597_1901.png,n02123597_1901.png,1.0,0.16055723,-2.222637,1.6851728
alexnet_w3_mlp_simclrhn_probe1,1,313,NaN,oven,elephant,270,0313_rot_dnn_270_elephant_20_n02504013_5173.png,n02504013_5173.png,0.0,-2.382894,-0.94756097,-1.0149337
alexnet_w3_mlp_simclrhn_probe1,1,314,NaN,clock,car,180,0314_rot_dnn_180_car_20_n04285008_4834.png,n04285008_4834.png,0.0,-0.88451284,0.9156855,-1.2729324
alexnet_w3_mlp_simclrhn_probe1,1,315,NaN,chair,truck,270,0315_rot_dnn_270_truck_20_n03417042_28584.png,n03417042_28584.png,0.0,-1.812387,-0.13458988,-1.1863817
alexnet_w3_mlp_simclrhn_probe1,1,316,NaN,oven,dog,180,0316_rot_dnn_180_dog_20_n02093428_11151.png,n02093428_11151.png,0.0,-4.165817,-2.074645,-1.4786818
alexnet_w3_mlp_simclrhn_probe1,1,317,NaN,knife,bicycle,90,0317_rot_dnn_90_bicycle_20_n03792782_1475.png,n03792782_1475.png,0.0,-4.240209,-1.1563797,-2.1805968
alexnet_w3_mlp_simclrhn_probe1,1,318,NaN,oven,knife,0,0318_rot_dnn_0_knife_20_n03041632_8666.png,n03041632_8666.png,0.0,-1.261347,-0.1520577,-0.7843861
alexnet_w3_mlp_simclrhn_probe1,1,319,NaN,clock,clock,0,0319_rot_dnn_0_clock_20_n04548280_253.png,n04548280_253.png,1.0,0.90338796,-0.4249298,0.9392625
alexnet_w3_mlp_simclrhn_probe1,1,320,NaN,airplane,airplane,180,0320_rot_dnn_180_airplane_20_n02690373_9441.png,n02690373_9441.png,1.0,6.034119,0.20748444,4.1200533
alexnet_w3_mlp_simclrhn_probe1,1,321,NaN,knife,airplane,270,0321_rot_dnn_270_airplane_20_n02690373_1946.png,n02690373_1946.png,0.0,-5.873683,-2.2368007,-2.571664
alexnet_w3_mlp_simclrhn_probe1,1,322,NaN,bottle,car,90,0322_rot_dnn_90_car_20_n03100240_5044.png,n03100240_5044.png,0.0,-1.7916023,-0.993147,-0.56459314
alexnet_w3_mlp_simclrhn_probe1,1,323,NaN,cat,dog,270,0323_rot_dnn_270_dog_20_n02111500_6559.png,n02111500_6559.png,0.0,-0.43356326,1.0196427,-1.0275718
alexnet_w3_mlp_simclrhn_probe1,1,324,NaN,bear,dog,270,0324_rot_dnn_270_dog_20_n02096051_1852.png,n02096051_1852.png,0.0,-4.423782,-2.6947184,-1.2226325
alexnet_w3_mlp_simclrhn_probe1,1,325,NaN,elephant,bear,270,0325_rot_dnn_270_bear_20_n02133161_5020.png,n02133161_5020.png,0.0,-0.7633719,-0.29033652,-0.3344865
alexnet_w3_mlp_simclrhn_probe1,1,326,NaN,oven,chair,90,0326_rot_dnn_90_chair_20_n02791124_2034.png,n02791124_2034.png,0.0,-0.5616625,-0.06714767,-0.3496748
alexnet_w3_mlp_simclrhn_probe1,1,327,NaN,clock,clock,180,0327_rot_dnn_180_clock_20_n03196217_6526.png,n03196217_6526.png,1.0,1.7658558,-0.7274948,1.7630651
alexnet_w3_mlp_simclrhn_probe1,1,328,NaN,oven,oven,180,0328_rot_dnn_180_oven_20_n04111531_9779.png,n04111531_9779.png,1.0,0.9315381,0.10234156,0.58633053
alexnet_w3_mlp_simclrhn_probe1,1,329,NaN,boat,boat,0,0329_rot_dnn_0_boat_20_n03662601_28640.png,n03662601_28640.png,1.0,5.302027,-2.019711,5.177251
alexnet_w3_mlp_simclrhn_probe1,1,330,NaN,knife,knife,90,0330_rot_dnn_90_knife_20_n03041632_31301.png,n03041632_31301.png,1.0,0.8679472,-2.8901877,2.6574028
alexnet_w3_mlp_simclrhn_probe1,1,331,NaN,keyboard,keyboard,90,0331_rot_dnn_90_keyboard_20_n03085013_9209.png,n03085013_9209.png,1.0,1.5081131,0.30490053,0.8507998
alexnet_w3_mlp_simclrhn_probe1,1,332,NaN,bicycle,elephant,90,0332_rot_dnn_90_elephant_20_n02504458_113.png,n02504458_113.png,0.0,-4.4007053,-2.8656235,-1.0854669
alexnet_w3_mlp_simclrhn_probe1,1,333,NaN,bicycle,bicycle,180,0333_rot_dnn_180_bicycle_20_n03792782_6058.png,n03792782_6058.png,1.0,-0.35492426,-2.719843,1.67225
alexnet_w3_mlp_simclrhn_probe1,1,334,NaN,keyboard,keyboard,0,0334_rot_dnn_0_keyboard_20_n04505470_4651.png,n04505470_4651.png,1.0,10.8303795,-1.299895,8.577399
alexnet_w3_mlp_simclrhn_probe1,1,335,NaN,keyboard,keyboard,180,0335_rot_dnn_180_keyboard_20_n03085013_7009.png,n03085013_7009.png,1.0,-0.43138453,-1.2798637,0.5999654
alexnet_w3_mlp_simclrhn_probe1,1,336,NaN,bottle,truck,270,0336_rot_dnn_270_truck_20_n04467665_44390.png,n04467665_44390.png,0.0,-2.3727431,0.31742117,-1.9022335
alexnet_w3_mlp_simclrhn_probe1,1,337,NaN,knife,boat,90,0337_rot_dnn_90_boat_20_n04273569_17340.png,n04273569_17340.png,0.0,-6.753501,-2.597867,-2.938477
alexnet_w3_mlp_simclrhn_probe1,1,338,NaN,elephant,elephant,0,0338_rot_dnn_0_elephant_20_n02504013_1333.png,n02504013_1333.png,1.0,3.8336153,-0.35237807,2.9599442
alexnet_w3_mlp_simclrhn_probe1,1,339,NaN,knife,knife,270,0339_rot_dnn_270_knife_20_n03041632_50034.png,n03041632_50034.png,1.0,0.6080575,-1.4130137,1.4291131
alexnet_w3_mlp_simclrhn_probe1,1,340,NaN,clock,clock,90,0340_rot_dnn_90_clock_20_n02708093_2740.png,n02708093_2740.png,1.0,0.13810079,-0.20561495,0.24304372
alexnet_w3_mlp_simclrhn_probe1,1,341,NaN,bear,bear,0,0341_rot_dnn_0_bear_20_n02132136_13975.png,n02132136_13975.png,1.0,8.223484,1.7043359,4.6097336
alexnet_w3_mlp_simclrhn_probe1,1,342,NaN,elephant,elephant,90,0342_rot_dnn_90_elephant_20_n02504013_256.png,n02504013_256.png,1.0,-1.0376992,-1.5390995,0.3545435
alexnet_w3_mlp_simclrhn_probe1,1,343,NaN,bicycle,boat,90,0343_rot_dnn_90_boat_20_n03344393_6588.png,n03344393_6588.png,0.0,-5.2079864,-0.8536939,-3.0789497
alexnet_w3_mlp_simclrhn_probe1,1,344,NaN,knife,knife,270,0344_rot_dnn_270_knife_20_n03041632_7173.png,n03041632_7173.png,1.0,0.7310116,-1.2951854,1.4327376
alexnet_w3_mlp_simclrhn_probe1,1,345,NaN,airplane,elephant,180,0345_rot_dnn_180_elephant_20_n02504458_1041.png,n02504458_1041.png,0.0,-1.4508269,-1.1112869,-0.24009104
alexnet_w3_mlp_simclrhn_probe1,1,346,NaN,keyboard,chair,180,0346_rot_dnn_180_chair_20_n04099969_8021.png,n04099969_8021.png,0.0,-1.4410536,-0.56365496,-0.62041456
alexnet_w3_mlp_simclrhn_probe1,1,347,NaN,truck,truck,0,0347_rot_dnn_0_truck_20_n03796401_1791.png,n03796401_1791.png,1.0,6.2789965,0.65690845,3.9754167
alexnet_w3_mlp_simclrhn_probe1,1,348,NaN,keyboard,keyboard,90,0348_rot_dnn_90_keyboard_20_n04505470_5007.png,n04505470_5007.png,1.0,1.2420795,-0.8531403,1.4815441
alexnet_w3_mlp_simclrhn_probe1,1,349,NaN,truck,truck,180,0349_rot_dnn_180_truck_20_n03417042_29384.png,n03417042_29384.png,1.0,-0.39036238,-0.7512382,0.25517777
alexnet_w3_mlp_simclrhn_probe1,1,350,NaN,bird,bird,90,0350_rot_dnn_90_bird_20_n01534433_1271.png,n01534433_1271.png,1.0,0.15505575,-0.18333761,0.23928024
alexnet_w3_mlp_simclrhn_probe1,1,351,NaN,cat,dog,270,0351_rot_dnn_270_dog_20_n02113624_393.png,n02113624_393.png,0.0,-0.84261316,1.6920391,-1.7922698
alexnet_w3_mlp_simclrhn_probe1,1,352,NaN,cat,cat,90,0352_rot_dnn_90_cat_20_n02123159_5461.png,n02123159_5461.png,1.0,-2.1555574,-2.5077052,0.2490061
alexnet_w3_mlp_simclrhn_probe1,1,353,NaN,knife,knife,270,0353_rot_dnn_270_knife_20_n03041632_9759.png,n03041632_9759.png,1.0,-1.0038353,-2.166936,0.82243633
alexnet_w3_mlp_simclrhn_probe1,1,354,NaN,bicycle,chair,90,0354_rot_dnn_90_chair_20_n04429376_1754.png,n04429376_1754.png,0.0,-2.2160213,-1.3297279,-0.6267041
alexnet_w3_mlp_simclrhn_probe1,1,355,NaN,knife,oven,90,0355_rot_dnn_90_oven_20_n04111531_1818.png,n04111531_1818.png,0.0,-3.5614681,-0.13660116,-2.4217467
alexnet_w3_mlp_simclrhn_probe1,1,356,NaN,clock,clock,0,0356_rot_dnn_0_clock_20_n04548280_5798.png,n04548280_5798.png,1.0,3.5871327,-1.5906937,3.6612763
alexnet_w3_mlp_simclrhn_probe1,1,357,NaN,truck,oven,90,0357_rot_dnn_90_oven_20_n04111531_3099.png,n04111531_3099.png,0.0,-1.0843685,-0.6827779,-0.28396744
alexnet_w3_mlp_simclrhn_probe1,1,358,NaN,clock,bottle,270,0358_rot_dnn_270_bottle_20_n04557648_581.png,n04557648_581.png,0.0,-1.9722952,-0.66074866,-0.9274035
alexnet_w3_mlp_simclrhn_probe1,1,359,NaN,bird,bird,0,0359_rot_dnn_0_bird_20_n01531178_3183.png,n01531178_3183.png,1.0,-1.3246368,-1.5665355,0.17104818
alexnet_w3_mlp_simclrhn_probe1,1,360,NaN,clock,airplane,90,0360_rot_dnn_90_airplane_20_n02690373_8872.png,n02690373_8872.png,0.0,-3.1748405,-1.4920133,-1.1899384
alexnet_w3_mlp_simclrhn_probe1,1,361,NaN,dog,cat,0,0361_rot_dnn_0_cat_20_n02123394_5301.png,n02123394_5301.png,0.0,-0.79001874,-0.60715216,-0.1293062
alexnet_w3_mlp_simclrhn_probe1,1,362,NaN,bicycle,bicycle,270,0362_rot_dnn_270_bicycle_20_n03792782_12844.png,n03792782_12844.png,1.0,0.6085398,-2.993215,2.5468254
alexnet_w3_mlp_simclrhn_probe1,1,363,NaN,bear,bear,90,0363_rot_dnn_90_bear_20_n02132136_2691.png,n02132136_2691.png,1.0,1.6246605,0.96110874,0.46920195
alexnet_w3_mlp_simclrhn_probe1,1,364,NaN,car,car,0,0364_rot_dnn_0_car_20_n02814533_27327.png,n02814533_27327.png,1.0,5.050465,3.0158567,1.4386854
alexnet_w3_mlp_simclrhn_probe1,1,365,NaN,bicycle,bird,0,0365_rot_dnn_0_bird_20_n02027492_7653.png,n02027492_7653.png,0.0,-0.9453041,-0.52614677,-0.29638898
alexnet_w3_mlp_simclrhn_probe1,1,366,NaN,bear,bear,0,0366_rot_dnn_0_bear_20_n02133161_62.png,n02133161_62.png,1.0,5.226859,2.5324,1.9052705
alexnet_w3_mlp_simclrhn_probe1,1,367,NaN,bottle,bottle,0,0367_rot_dnn_0_bottle_20_n04560804_9710.png,n04560804_9710.png,1.0,1.8976833,-3.9435716,4.130391
alexnet_w3_mlp_simclrhn_probe1,1,368,NaN,clock,clock,180,0368_rot_dnn_180_clock_20_n04548280_15154.png,n04548280_15154.png,1.0,0.10604843,-0.30468997,0.2904359
alexnet_w3_mlp_simclrhn_probe1,1,369,NaN,oven,oven,180,0369_rot_dnn_180_oven_20_n04111531_114.png,n04111531_114.png,1.0,-0.21503568,-2.2595544,1.445693
alexnet_w3_mlp_simclrhn_probe1,1,370,NaN,bird,cat,180,0370_rot_dnn_180_cat_20_n02125311_24813.png,n02125311_24813.png,0.0,-2.1317341,-1.3796159,-0.5318279
alexnet_w3_mlp_simclrhn_probe1,1,371,NaN,bicycle,airplane,90,0371_rot_dnn_90_airplane_20_n02690373_7647.png,n02690373_7647.png,0.0,-7.5445085,-1.821272,-4.0469394
alexnet_w3_mlp_simclrhn_probe1,1,372,NaN,bottle,bottle,0,0372_rot_dnn_0_bottle_20_n03983396_9823.png,n03983396_9823.png,1.0,0.99667513,-2.735705,2.6391912
alexnet_w3_mlp_simclrhn_probe1,1,373,NaN,bear,bear,0,0373_rot_dnn_0_bear_20_n02134418_2398.png,n02134418_2398.png,1.0,-0.3955983,-1.2565295,0.60877025
alexnet_w3_mlp_simclrhn_probe1,1,374,NaN,clock,keyboard,90,0374_rot_dnn_90_keyboard_20_n04505470_4584.png,n04505470_4584.png,0.0,-0.7056959,-0.6507384,-0.038860828
alexnet_w3_mlp_simclrhn_probe1,1,375,NaN,keyboard,keyboard,0,0375_rot_dnn_0_keyboard_20_n04505470_10055.png,n04505470_10055.png,1.0,3.2184696,-1.3739811,3.247353
alexnet_w3_mlp_simclrhn_probe1,1,376,NaN,knife,boat,270,0376_rot_dnn_270_boat_20_n04273569_10980.png,n04273569_10980.png,0.0,-4.7753205,-2.2906232,-1.7569463
alexnet_w3_mlp_simclrhn_probe1,1,377,NaN,car,car,180,0377_rot_dnn_180_car_20_n03100240_16210.png,n03100240_16210.png,1.0,2.818969,1.4527916,0.96603334
alexnet_w3_mlp_simclrhn_probe1,1,378,NaN,keyboard,keyboard,0,0378_rot_dnn_0_keyboard_20_n04505470_1067.png,n04505470_1067.png,1.0,11.863987,-1.7580166,9.632212
alexnet_w3_mlp_simclrhn_probe1,1,379,NaN,elephant,elephant,0,0379_rot_dnn_0_elephant_20_n02504458_7867.png,n02504458_7867.png,1.0,8.0034075,0.0010987371,5.658487
alexnet_w3_mlp_simclrhn_probe1,1,380,NaN,keyboard,keyboard,180,0380_rot_dnn_180_keyboard_20_n04505470_807.png,n04505470_807.png,1.0,4.8288493,0.75188875,2.8828466
alexnet_w3_mlp_simclrhn_probe1,1,381,NaN,bicycle,bicycle,270,0381_rot_dnn_270_bicycle_20_n02835271_24104.png,n02835271_24104.png,1.0,1.099607,-1.6059091,1.9130888
alexnet_w3_mlp_simclrhn_probe1,1,382,NaN,knife,bottle,0,0382_rot_dnn_0_bottle_20_n03937543_6698.png,n03937543_6698.png,0.0,-1.4713274,-0.221427,-0.8838131
alexnet_w3_mlp_simclrhn_probe1,1,383,NaN,bicycle,oven,0,0383_rot_dnn_0_oven_20_n04111531_10403.png,n04111531_10403.png,0.0,-3.8878582,1.4210591,-3.7539713
alexnet_w3_mlp_simclrhn_probe1,1,384,NaN,truck,truck,0,0384_rot_dnn_0_truck_20_n03796401_8463.png,n03796401_8463.png,1.0,10.518801,2.9284315,5.367202
alexnet_w3_mlp_simclrhn_probe1,1,385,NaN,truck,truck,0,0385_rot_dnn_0_truck_20_n03796401_8176.png,n03796401_8176.png,1.0,3.980462,2.152309,1.2926995
alexnet_w3_mlp_simclrhn_probe1,1,386,NaN,knife,bottle,90,0386_rot_dnn_90_bottle_20_n03937543_984.png,n03937543_984.png,0.0,-1.5860142,-0.08327848,-1.0625945
alexnet_w3_mlp_simclrhn_probe1,1,387,NaN,bicycle,bicycle,90,0387_rot_dnn_90_bicycle_20_n02835271_11697.png,n02835271_11697.png,1.0,-0.636287,-1.8908358,0.8871
alexnet_w3_mlp_simclrhn_probe1,1,388,NaN,clock,keyboard,270,0388_rot_dnn_270_keyboard_20_n03085013_22417.png,n03085013_22417.png,0.0,-1.6915122,-0.6801388,-0.715149
alexnet_w3_mlp_simclrhn_probe1,1,389,NaN,chair,car,270,0389_rot_dnn_270_car_20_n03100240_7602.png,n03100240_7602.png,0.0,-1.7066585,-0.8478203,-0.6072903
alexnet_w3_mlp_simclrhn_probe1,1,390,NaN,bird,bird,90,0390_rot_dnn_90_bird_20_n01534433_14389.png,n01534433_14389.png,1.0,-0.41209733,-3.8032808,2.3979287
alexnet_w3_mlp_simclrhn_probe1,1,391,NaN,cat,bear,0,0391_rot_dnn_0_bear_20_n02134084_2598.png,n02134084_2598.png,0.0,2.2325141,3.996995,-1.2476764
alexnet_w3_mlp_simclrhn_probe1,1,392,NaN,bird,bird,180,0392_rot_dnn_180_bird_20_n01560419_19599.png,n01560419_19599.png,1.0,-1.813361,-6.1739745,3.0834193
alexnet_w3_mlp_simclrhn_probe1,1,393,NaN,bicycle,bicycle,90,0393_rot_dnn_90_bicycle_20_n02835271_8747.png,n02835271_8747.png,1.0,-1.0438035,-2.6018834,1.1017289
alexnet_w3_mlp_simclrhn_probe1,1,394,NaN,oven,knife,180,0394_rot_dnn_180_knife_20_n03041632_30821.png,n03041632_30821.png,0.0,-1.6998465,-0.6289574,-0.75723296
alexnet_w3_mlp_simclrhn_probe1,1,395,NaN,bicycle,chair,270,0395_rot_dnn_270_chair_20_n03376595_209.png,n03376595_209.png,0.0,-4.351443,-2.9598086,-0.984034
alexnet_w3_mlp_simclrhn_probe1,1,396,NaN,bicycle,boat,180,0396_rot_dnn_180_boat_20_n04273569_29113.png,n04273569_29113.png,0.0,-1.1560892,-0.14152315,-0.7174066
alexnet_w3_mlp_simclrhn_probe1,1,397,NaN,bird,bird,270,0397_rot_dnn_270_bird_20_n02006656_6435.png,n02006656_6435.png,1.0,-0.6967585,-2.8858848,1.5479461
alexnet_w3_mlp_simclrhn_probe1,1,398,NaN,chair,airplane,90,0398_rot_dnn_90_airplane_20_n02690373_3492.png,n02690373_3492.png,0.0,-11.685034,-0.6482024,-7.8042183
alexnet_w3_mlp_simclrhn_probe1,1,399,NaN,oven,oven,270,0399_rot_dnn_270_oven_20_n04111531_9380.png,n04111531_9380.png,1.0,2.4400039,-3.0812066,3.9040856
alexnet_w3_mlp_simclrhn_probe1,1,400,NaN,bottle,keyboard,270,0400_rot_dnn_270_keyboard_20_n04505470_510.png,n04505470_510.png,0.0,-0.9818657,-0.8315969,-0.10625608
alexnet_w3_mlp_simclrhn_probe1,1,401,NaN,bird,bird,180,0401_rot_dnn_180_bird_20_n02027492_20576.png,n02027492_20576.png,1.0,-1.1604264,-3.4060984,1.58793
alexnet_w3_mlp_simclrhn_probe1,1,402,NaN,knife,bird,90,0402_rot_dnn_90_bird_20_n01855032_1920.png,n01855032_1920.png,0.0,-3.8356943,-2.089313,-1.2348781
alexnet_w3_mlp_simclrhn_probe1,1,403,NaN,airplane,boat,180,0403_rot_dnn_180_boat_20_n04273569_15761.png,n04273569_15761.png,0.0,-0.7588471,2.29179,-2.1571264
alexnet_w3_mlp_simclrhn_probe1,1,404,NaN,oven,oven,180,0404_rot_dnn_180_oven_20_n04111531_10667.png,n04111531_10667.png,1.0,3.3251588,-5.5649676,6.2862687
alexnet_w3_mlp_simclrhn_probe1,1,405,NaN,knife,knife,270,0405_rot_dnn_270_knife_20_n03041632_36215.png,n03041632_36215.png,1.0,1.1504619,-3.5971391,3.357061
alexnet_w3_mlp_simclrhn_probe1,1,406,NaN,bicycle,bicycle,180,0406_rot_dnn_180_bicycle_20_n02835271_2625.png,n02835271_2625.png,1.0,1.9756522,-3.2115886,3.667933
alexnet_w3_mlp_simclrhn_probe1,1,407,NaN,bird,bird,270,0407_rot_dnn_270_bird_20_n02028035_20411.png,n02028035_20411.png,1.0,-1.6277581,-3.1033688,1.0434142
alexnet_w3_mlp_simclrhn_probe1,1,408,NaN,knife,knife,0,0408_rot_dnn_0_knife_20_n03041632_25656.png,n03041632_25656.png,1.0,-0.46364093,-1.4204662,0.6765776
alexnet_w3_mlp_simclrhn_probe1,1,409,NaN,knife,oven,270,0409_rot_dnn_270_oven_20_n04111531_4332.png,n04111531_4332.png,0.0,-0.87415105,-0.8449726,-0.020632274
alexnet_w3_mlp_simclrhn_probe1,1,410,NaN,keyboard,keyboard,180,0410_rot_dnn_180_keyboard_20_n04505470_3553.png,n04505470_3553.png,1.0,2.343389,-0.24716905,1.8318012
alexnet_w3_mlp_simclrhn_probe1,1,411,NaN,bicycle,bicycle,180,0411_rot_dnn_180_bicycle_20_n02835271_18706.png,n02835271_18706.png,1.0,0.43271595,-1.976464,1.7035475
alexnet_w3_mlp_simclrhn_probe1,1,412,NaN,chair,truck,270,0412_rot_dnn_270_truck_20_n03417042_10744.png,n03417042_10744.png,0.0,-2.108067,0.1495197,-1.596355
alexnet_w3_mlp_simclrhn_probe1,1,413,NaN,clock,clock,0,0413_rot_dnn_0_clock_20_n03196217_11724.png,n03196217_11724.png,1.0,3.742685,0.22510554,2.4873044
alexnet_w3_mlp_simclrhn_probe1,1,414,NaN,bicycle,bicycle,270,0414_rot_dnn_270_bicycle_20_n02835271_14123.png,n02835271_14123.png,1.0,-0.28448975,-2.2296233,1.3754171
alexnet_w3_mlp_simclrhn_probe1,1,415,NaN,oven,bicycle,270,0415_rot_dnn_270_bicycle_20_n02835271_7900.png,n02835271_7900.png,0.0,-3.6124325,-0.65703344,-2.0897827
alexnet_w3_mlp_simclrhn_probe1,1,416,NaN,truck,truck,270,0416_rot_dnn_270_truck_20_n03417042_2153.png,n03417042_2153.png,1.0,0.09660739,-1.0128777,0.7845245
alexnet_w3_mlp_simclrhn_probe1,1,417,NaN,bear,bicycle,270,0417_rot_dnn_270_bicycle_20_n03792782_10129.png,n03792782_10129.png,0.0,-5.0767965,0.360102,-3.844468
alexnet_w3_mlp_simclrhn_probe1,1,418,NaN,bird,bird,180,0418_rot_dnn_180_bird_20_n01514859_18430.png,n01514859_18430.png,1.0,-0.75584894,-3.3689053,1.8477099
alexnet_w3_mlp_simclrhn_probe1,1,419,NaN,chair,chair,0,0419_rot_dnn_0_chair_20_n04099969_5010.png,n04099969_5010.png,1.0,3.312939,0.82323027,1.76049
alexnet_w3_mlp_simclrhn_probe1,1,420,NaN,chair,truck,0,0420_rot_dnn_0_truck_20_n03796401_588.png,n03796401_588.png,0.0,0.61342216,1.4779375,-0.61130464
alexnet_w3_mlp_simclrhn_probe1,1,421,NaN,car,car,0,0421_rot_dnn_0_car_20_n02814533_486.png,n02814533_486.png,1.0,13.067445,9.403142,2.5910535
alexnet_w3_mlp_simclrhn_probe1,1,422,NaN,oven,elephant,90,0422_rot_dnn_90_elephant_20_n02504013_3540.png,n02504013_3540.png,0.0,-1.7042032,-0.5811716,-0.79410326
alexnet_w3_mlp_simclrhn_probe1,1,423,NaN,bicycle,car,180,0423_rot_dnn_180_car_20_n02814533_55715.png,n02814533_55715.png,0.0,-5.2282233,-2.4391708,-1.972158
alexnet_w3_mlp_simclrhn_probe1,1,424,NaN,bottle,bottle,180,0424_rot_dnn_180_bottle_20_n03983396_10896.png,n03983396_10896.png,1.0,-0.9943533,-1.4973403,0.35566553
alexnet_w3_mlp_simclrhn_probe1,1,425,NaN,bottle,bottle,90,0425_rot_dnn_90_bottle_20_n04557648_15053.png,n04557648_15053.png,1.0,1.0171113,-0.57698554,1.1271968
alexnet_w3_mlp_simclrhn_probe1,1,426,NaN,car,car,0,0426_rot_dnn_0_car_20_n04285008_8281.png,n04285008_8281.png,1.0,13.605607,5.545718,5.699202
alexnet_w3_mlp_simclrhn_probe1,1,427,NaN,bottle,car,270,0427_rot_dnn_270_car_20_n02814533_38596.png,n02814533_38596.png,0.0,-3.051253,0.9418031,-2.8235173
alexnet_w3_mlp_simclrhn_probe1,1,428,NaN,oven,elephant,270,0428_rot_dnn_270_elephant_20_n02504013_15219.png,n02504013_15219.png,0.0,-0.15506174,0.16557792,-0.22672649
alexnet_w3_mlp_simclrhn_probe1,1,429,NaN,elephant,elephant,180,0429_rot_dnn_180_elephant_20_n02504013_828.png,n02504013_828.png,1.0,3.3299594,-0.6292619,2.7995923
alexnet_w3_mlp_simclrhn_probe1,1,430,NaN,oven,oven,180,0430_rot_dnn_180_oven_20_n04111531_1439.png,n04111531_1439.png,1.0,6.4020634,-2.502616,6.2965593
alexnet_w3_mlp_simclrhn_probe1,1,431,NaN,keyboard,bottle,90,0431_rot_dnn_90_bottle_20_n03983396_3315.png,n03983396_3315.png,0.0,-2.26802,-1.4556096,-0.57446086
alexnet_w3_mlp_simclrhn_probe1,1,432,NaN,airplane,airplane,90,0432_rot_dnn_90_airplane_20_n02690373_4024.png,n02690373_4024.png,1.0,-1.6915551,-1.9965763,0.21568254
alexnet_w3_mlp_simclrhn_probe1,1,433,NaN,knife,elephant,270,0433_rot_dnn_270_elephant_20_n02504013_10301.png,n02504013_10301.png,0.0,-2.2920241,-0.74186325,-1.0961293
alexnet_w3_mlp_simclrhn_probe1,1,434,NaN,oven,oven,180,0434_rot_dnn_180_oven_20_n04111531_7067.png,n04111531_7067.png,1.0,4.034633,-1.6736368,4.0363564
alexnet_w3_mlp_simclrhn_probe1,1,435,NaN,knife,knife,90,0435_rot_dnn_90_knife_20_n03041632_36834.png,n03041632_36834.png,1.0,0.6584555,-2.492971,2.228395
alexnet_w3_mlp_simclrhn_probe1,1,436,NaN,chair,car,90,0436_rot_dnn_90_car_20_n02814533_18148.png,n02814533_18148.png,0.0,-1.3658952,-0.56533843,-0.5660791
alexnet_w3_mlp_simclrhn_probe1,1,437,NaN,elephant,cat,90,0437_rot_dnn_90_cat_20_n02125311_41284.png,n02125311_41284.png,0.0,-0.8818266,0.2641679,-0.81034046
alexnet_w3_mlp_simclrhn_probe1,1,438,NaN,bicycle,bicycle,0,0438_rot_dnn_0_bicycle_20_n02835271_18188.png,n02835271_18188.png,1.0,9.30418,-2.9408333,8.658532
alexnet_w3_mlp_simclrhn_probe1,1,439,NaN,bottle,bottle,0,0439_rot_dnn_0_bottle_20_n04591713_2903.png,n04591713_2903.png,1.0,2.5998034,-0.40769064,2.1266193
alexnet_w3_mlp_simclrhn_probe1,1,440,NaN,knife,knife,0,0440_rot_dnn_0_knife_20_n03041632_54191.png,n03041632_54191.png,1.0,0.8426293,-0.14372809,0.69746
alexnet_w3_mlp_simclrhn_probe1,1,441,NaN,clock,truck,180,0441_rot_dnn_180_truck_20_n03417042_8867.png,n03417042_8867.png,0.0,-0.28630593,-0.14728117,-0.09830535
alexnet_w3_mlp_simclrhn_probe1,1,442,NaN,knife,oven,270,0442_rot_dnn_270_oven_20_n04111531_8421.png,n04111531_8421.png,0.0,-1.3002335,-0.9764389,-0.22895737
alexnet_w3_mlp_simclrhn_probe1,1,443,NaN,bear,elephant,270,0443_rot_dnn_270_elephant_20_n02504013_4062.png,n02504013_4062.png,0.0,-2.2984273,-0.4558522,-1.3028973
alexnet_w3_mlp_simclrhn_probe1,1,444,NaN,keyboard,keyboard,270,0444_rot_dnn_270_keyboard_20_n04505470_1649.png,n04505470_1649.png,1.0,2.623703,-2.2455335,3.4430702
alexnet_w3_mlp_simclrhn_probe1,1,445,NaN,airplane,boat,180,0445_rot_dnn_180_boat_20_n03344393_7967.png,n03344393_7967.png,0.0,-0.9909731,0.96246535,-1.3812896
alexnet_w3_mlp_simclrhn_probe1,1,446,NaN,bicycle,bicycle,0,0446_rot_dnn_0_bicycle_20_n02835271_10265.png,n02835271_10265.png,1.0,8.083977,-2.5840373,7.5434256
alexnet_w3_mlp_simclrhn_probe1,1,447,NaN,truck,bicycle,180,0447_rot_dnn_180_bicycle_20_n02835271_6742.png,n02835271_6742.png,0.0,-1.8704872,-1.7820197,-0.062555954
alexnet_w3_mlp_simclrhn_probe1,1,448,NaN,cat,cat,180,0448_rot_dnn_180_cat_20_n02123045_3168.png,n02123045_3168.png,1.0,-0.8346451,-1.8635249,0.727528
alexnet_w3_mlp_simclrhn_probe1,1,449,NaN,airplane,car,180,0449_rot_dnn_180_car_20_n03100240_8489.png,n03100240_8489.png,0.0,-0.7942737,-0.25411525,-0.38194966
alexnet_w3_mlp_simclrhn_probe1,1,450,NaN,oven,oven,270,0450_rot_dnn_270_oven_20_n04111531_1826.png,n04111531_1826.png,1.0,0.7788149,-1.3920124,1.5350068
alexnet_w3_mlp_simclrhn_probe1,1,451,NaN,dog,dog,180,0451_rot_dnn_180_dog_20_n02104365_1592.png,n02104365_1592.png,1.0,-1.1430734,-1.9492147,0.57002795
alexnet_w3_mlp_simclrhn_probe1,1,452,NaN,bicycle,boat,90,0452_rot_dnn_90_boat_20_n02951358_4343.png,n02951358_4343.png,0.0,-8.764218,-3.0084887,-4.069916
alexnet_w3_mlp_simclrhn_probe1,1,453,NaN,bottle,bottle,0,0453_rot_dnn_0_bottle_20_n02823428_4282.png,n02823428_4282.png,1.0,11.859336,-3.0981827,10.576563
alexnet_w3_mlp_simclrhn_probe1,1,454,NaN,bird,bird,0,0454_rot_dnn_0_bird_20_n01817953_2043.png,n01817953_2043.png,1.0,-0.7607105,-2.0985866,0.94602126
alexnet_w3_mlp_simclrhn_probe1,1,455,NaN,dog,dog,0,0455_rot_dnn_0_dog_20_n02110958_14369.png,n02110958_14369.png,1.0,-1.8422492,-3.377057,1.0852731
alexnet_w3_mlp_simclrhn_probe1,1,456,NaN,dog,dog,270,0456_rot_dnn_270_dog_20_n02108000_1044.png,n02108000_1044.png,1.0,-1.4116831,-1.7008228,0.20445268
alexnet_w3_mlp_simclrhn_probe1,1,457,NaN,knife,dog,270,0457_rot_dnn_270_dog_20_n02087394_1428.png,n02087394_1428.png,0.0,-4.224846,-1.675457,-1.8026901
alexnet_w3_mlp_simclrhn_probe1,1,458,NaN,knife,airplane,90,0458_rot_dnn_90_airplane_20_n02690373_2856.png,n02690373_2856.png,0.0,-14.874522,-2.9431665,-8.436743
alexnet_w3_mlp_simclrhn_probe1,1,459,NaN,chair,chair,0,0459_rot_dnn_0_chair_20_n03376595_19165.png,n03376595_19165.png,1.0,1.5533628,0.25586343,0.91747063
alexnet_w3_mlp_simclrhn_probe1,1,460,NaN,chair,chair,270,0460_rot_dnn_270_chair_20_n04099969_42125.png,n04099969_42125.png,1.0,1.7798971,0.37242928,0.9952301
alexnet_w3_mlp_simclrhn_probe1,1,461,NaN,bottle,bottle,270,0461_rot_dnn_270_bottle_20_n02823428_12656.png,n02823428_12656.png,1.0,1.8753893,0.67084146,0.851744
alexnet_w3_mlp_simclrhn_probe1,1,462,NaN,bicycle,bicycle,180,0462_rot_dnn_180_bicycle_20_n02835271_5861.png,n02835271_5861.png,1.0,3.217191,-3.1726255,4.5182824
alexnet_w3_mlp_simclrhn_probe1,1,463,NaN,airplane,airplane,90,0463_rot_dnn_90_airplane_20_n02690373_19345.png,n02690373_19345.png,1.0,-1.1396347,-1.8314158,0.48916307
alexnet_w3_mlp_simclrhn_probe1,1,464,NaN,clock,clock,90,0464_rot_dnn_90_clock_20_n02708093_8069.png,n02708093_8069.png,1.0,6.3056054,1.2939967,3.5437424
alexnet_w3_mlp_simclrhn_probe1,1,465,NaN,clock,chair,270,0465_rot_dnn_270_chair_20_n04099969_16.png,n04099969_16.png,0.0,-1.9972838,-1.9455949,-0.03654958
alexnet_w3_mlp_simclrhn_probe1,1,466,NaN,dog,dog,270,0466_rot_dnn_270_dog_20_n02104365_1756.png,n02104365_1756.png,1.0,-0.63428336,-2.2548542,1.1459167
alexnet_w3_mlp_simclrhn_probe1,1,467,NaN,bird,bird,270,0467_rot_dnn_270_bird_20_n01819313_17231.png,n01819313_17231.png,1.0,-0.7760993,-2.6768312,1.3440205
alexnet_w3_mlp_simclrhn_probe1,1,468,NaN,bottle,car,90,0468_rot_dnn_90_car_20_n02814533_34149.png,n02814533_34149.png,0.0,-2.756913,-0.057645388,-1.9086704
alexnet_w3_mlp_simclrhn_probe1,1,469,NaN,knife,knife,0,0469_rot_dnn_0_knife_20_n03041632_26053.png,n03041632_26053.png,1.0,1.9068685,-2.4532614,3.0830774
alexnet_w3_mlp_simclrhn_probe1,1,470,NaN,oven,oven,0,0470_rot_dnn_0_oven_20_n04111531_11287.png,n04111531_11287.png,1.0,3.2397742,0.12914556,2.1995466
alexnet_w3_mlp_simclrhn_probe1,1,471,NaN,knife,bottle,0,0471_rot_dnn_0_bottle_20_n03937543_11959.png,n03937543_11959.png,0.0,-2.2027369,-0.05887744,-1.5159376
alexnet_w3_mlp_simclrhn_probe1,1,472,NaN,knife,airplane,270,0472_rot_dnn_270_airplane_20_n02690373_1348.png,n02690373_1348.png,0.0,-5.690734,-1.3684268,-3.0563328
alexnet_w3_mlp_simclrhn_probe1,1,473,NaN,elephant,bear,0,0473_rot_dnn_0_bear_20_n02132136_5175.png,n02132136_5175.png,0.0,4.766923,5.3394327,-0.40482554
alexnet_w3_mlp_simclrhn_probe1,1,474,NaN,knife,keyboard,270,0474_rot_dnn_270_keyboard_20_n03085013_7382.png,n03085013_7382.png,0.0,-3.0703735,-0.8751076,-1.5522875
alexnet_w3_mlp_simclrhn_probe1,1,475,NaN,oven,dog,270,0475_rot_dnn_270_dog_20_n02109961_4280.png,n02109961_4280.png,0.0,-1.9714372,-0.5134938,-1.0309217
alexnet_w3_mlp_simclrhn_probe1,1,476,NaN,oven,truck,90,0476_rot_dnn_90_truck_20_n03417042_1344.png,n03417042_1344.png,0.0,-2.9903193,-0.18717177,-1.9821247
alexnet_w3_mlp_simclrhn_probe1,1,477,NaN,elephant,elephant,0,0477_rot_dnn_0_elephant_20_n02504013_9299.png,n02504013_9299.png,1.0,14.967244,2.8987417,8.53372
alexnet_w3_mlp_simclrhn_probe1,1,478,NaN,bear,bear,0,0478_rot_dnn_0_bear_20_n02134418_5527.png,n02134418_5527.png,1.0,3.5000534,-0.31394017,2.6969006
alexnet_w3_mlp_simclrhn_probe1,1,479,NaN,keyboard,keyboard,270,0479_rot_dnn_270_keyboard_20_n03085013_23109.png,n03085013_23109.png,1.0,0.063382685,-1.3428599,0.9943637
alexnet_w3_mlp_simclrhn_probe1,1,480,NaN,bear,bear,180,0480_rot_dnn_180_bear_20_n02133161_4393.png,n02133161_4393.png,1.0,1.6424375,-1.3029414,2.0826974
alexnet_w3_mlp_simclrhn_probe1,1,481,NaN,oven,oven,0,0481_rot_dnn_0_oven_20_n04111531_73.png,n04111531_73.png,1.0,3.3626943,0.7301158,1.8615141
alexnet_w3_mlp_simclrhn_probe1,1,482,NaN,oven,keyboard,0,0482_rot_dnn_0_keyboard_20_n03085013_7613.png,n03085013_7613.png,0.0,-0.74025977,0.32568276,-0.7537352
alexnet_w3_mlp_simclrhn_probe1,1,483,NaN,oven,oven,180,0483_rot_dnn_180_oven_20_n04111531_2795.png,n04111531_2795.png,1.0,4.6670046,-2.6542552,5.1769123
alexnet_w3_mlp_simclrhn_probe1,1,484,NaN,oven,oven,0,0484_rot_dnn_0_oven_20_n04111531_22517.png,n04111531_22517.png,1.0,5.6980267,-1.7319441,5.2537827
alexnet_w3_mlp_simclrhn_probe1,1,485,NaN,elephant,elephant,90,0485_rot_dnn_90_elephant_20_n02504458_2613.png,n02504458_2613.png,1.0,-1.9645491,-2.9023092,0.66309655
alexnet_w3_mlp_simclrhn_probe1,1,486,NaN,oven,oven,180,0486_rot_dnn_180_oven_20_n04111531_9176.png,n04111531_9176.png,1.0,4.3774853,-3.4212255,5.5145216
alexnet_w3_mlp_simclrhn_probe1,1,487,NaN,bottle,bottle,180,0487_rot_dnn_180_bottle_20_n04557648_5790.png,n04557648_5790.png,1.0,3.9155388,1.3847624,1.7895292
alexnet_w3_mlp_simclrhn_probe1,1,488,NaN,chair,truck,90,0488_rot_dnn_90_truck_20_n04467665_9812.png,n04467665_9812.png,0.0,-2.0477421,-0.43675792,-1.1391379
alexnet_w3_mlp_simclrhn_probe1,1,489,NaN,bottle,bottle,0,0489_rot_dnn_0_bottle_20_n04591713_7476.png,n04591713_7476.png,1.0,0.5175808,-3.6197262,2.925518
alexnet_w3_mlp_simclrhn_probe1,1,490,NaN,elephant,elephant,90,0490_rot_dnn_90_elephant_20_n02504458_1567.png,n02504458_1567.png,1.0,-0.37923455,-1.9084002,1.0812835
alexnet_w3_mlp_simclrhn_probe1,1,491,NaN,clock,clock,90,0491_rot_dnn_90_clock_20_n04548280_6865.png,n04548280_6865.png,1.0,3.8906968,-1.0061353,3.462583
alexnet_w3_mlp_simclrhn_probe1,1,492,NaN,bottle,bottle,180,0492_rot_dnn_180_bottle_20_n02823428_3.png,n02823428_3.png,1.0,2.6556907,-2.1437454,3.393714
alexnet_w3_mlp_simclrhn_probe1,1,493,NaN,knife,boat,90,0493_rot_dnn_90_boat_20_n04273569_8951.png,n04273569_8951.png,0.0,-7.041234,-2.9101968,-2.9210844
alexnet_w3_mlp_simclrhn_probe1,1,494,NaN,knife,knife,180,0494_rot_dnn_180_knife_20_n03041632_53874.png,n03041632_53874.png,1.0,0.88657796,-3.1312993,2.8410683
alexnet_w3_mlp_simclrhn_probe1,1,495,NaN,clock,clock,0,0495_rot_dnn_0_clock_20_n04548280_6126.png,n04548280_6126.png,1.0,-0.31637773,-1.6149831,0.91825265
alexnet_w3_mlp_simclrhn_probe1,1,496,NaN,cat,cat,180,0496_rot_dnn_180_cat_20_n02123597_6186.png,n02123597_6186.png,1.0,0.3559138,-2.6651134,2.136189
alexnet_w3_mlp_simclrhn_probe1,1,497,NaN,cat,cat,270,0497_rot_dnn_270_cat_20_n02124075_14662.png,n02124075_14662.png,1.0,-0.6084011,-2.375261,1.2493588
alexnet_w3_mlp_simclrhn_probe1,1,498,NaN,clock,car,90,0498_rot_dnn_90_car_20_n04285008_8677.png,n04285008_8677.png,0.0,-5.6515174,-0.52262235,-3.6266763
alexnet_w3_mlp_simclrhn_probe1,1,499,NaN,bird,bird,90,0499_rot_dnn_90_bird_20_n01820546_2568.png,n01820546_2568.png,1.0,-1.5339435,-4.009759,1.7506658
alexnet_w3_mlp_simclrhn_probe1,1,500,NaN,clock,clock,90,0500_rot_dnn_90_clock_20_n04548280_7354.png,n04548280_7354.png,1.0,-0.11253027,-2.13376,1.4292253
alexnet_w3_mlp_simclrhn_probe1,1,501,NaN,clock,bicycle,270,0501_rot_dnn_270_bicycle_20_n03792782_586.png,n03792782_586.png,0.0,0.2939036,1.8918233,-1.1298999
alexnet_w3_mlp_simclrhn_probe1,1,502,NaN,bear,bear,0,0502_rot_dnn_0_bear_20_n02134084_572.png,n02134084_572.png,1.0,2.8804367,1.9841166,0.633794
alexnet_w3_mlp_simclrhn_probe1,1,503,NaN,bicycle,bicycle,270,0503_rot_dnn_270_bicycle_20_n03792782_3388.png,n03792782_3388.png,1.0,-1.9566795,-3.0255477,0.755804
alexnet_w3_mlp_simclrhn_probe1,1,504,NaN,bicycle,bicycle,270,0504_rot_dnn_270_bicycle_20_n03792782_28970.png,n03792782_28970.png,1.0,11.231545,0.105762064,7.867117
alexnet_w3_mlp_simclrhn_probe1,1,505,NaN,oven,bottle,270,0505_rot_dnn_270_bottle_20_n04560804_11386.png,n04560804_11386.png,0.0,-1.9789747,1.3938072,-2.3849168
alexnet_w3_mlp_simclrhn_probe1,1,506,NaN,chair,chair,180,0506_rot_dnn_180_chair_20_n03376595_6799.png,n03376595_6799.png,1.0,1.7284598,-1.5149231,2.2934182
alexnet_w3_mlp_simclrhn_probe1,1,507,NaN,cat,dog,270,0507_rot_dnn_270_dog_20_n02094258_6398.png,n02094258_6398.png,0.0,-1.366187,1.4482719,-1.9901229
alexnet_w3_mlp_simclrhn_probe1,1,508,NaN,bird,bird,0,0508_rot_dnn_0_bird_20_n01592084_2639.png,n01592084_2639.png,1.0,1.9564855,-8.817501,7.618359
alexnet_w3_mlp_simclrhn_probe1,1,509,NaN,bicycle,bird,180,0509_rot_dnn_180_bird_20_n02017213_4781.png,n02017213_4781.png,0.0,-1.2225394,-0.9405276,-0.19941247
alexnet_w3_mlp_simclrhn_probe1,1,510,NaN,knife,airplane,270,0510_rot_dnn_270_airplane_20_n02690373_3818.png,n02690373_3818.png,0.0,-6.8951974,-0.78345656,-4.321654
alexnet_w3_mlp_simclrhn_probe1,1,511,NaN,bicycle,bicycle,90,0511_rot_dnn_90_bicycle_20_n03792782_26383.png,n03792782_26383.png,1.0,5.0777535,-1.0452274,4.3296013
alexnet_w3_mlp_simclrhn_probe1,1,512,NaN,oven,oven,90,0512_rot_dnn_90_oven_20_n04111531_5216.png,n04111531_5216.png,1.0,7.1760397,-1.5439997,6.165999
alexnet_w3_mlp_simclrhn_probe1,1,513,NaN,airplane,airplane,180,0513_rot_dnn_180_airplane_20_n02690373_20331.png,n02690373_20331.png,1.0,1.3782089,-1.1165849,1.7640857
alexnet_w3_mlp_simclrhn_probe1,1,514,NaN,clock,truck,180,0514_rot_dnn_180_truck_20_n04467665_23691.png,n04467665_23691.png,0.0,-0.64526343,-0.1908518,-0.32131755
alexnet_w3_mlp_simclrhn_probe1,1,515,NaN,bird,bird,0,0515_rot_dnn_0_bird_20_n02009229_492.png,n02009229_492.png,1.0,2.857254,-6.4441867,6.577112
alexnet_w3_mlp_simclrhn_probe1,1,516,NaN,bird,bird,90,0516_rot_dnn_90_bird_20_n02002556_5890.png,n02002556_5890.png,1.0,1.2823981,-2.5506883,2.7104015
alexnet_w3_mlp_simclrhn_probe1,1,517,NaN,bird,bird,270,0517_rot_dnn_270_bird_20_n01855032_5358.png,n01855032_5358.png,1.0,-0.9537625,-2.256749,0.92135054
alexnet_w3_mlp_simclrhn_probe1,1,518,NaN,cat,dog,180,0518_rot_dnn_180_dog_20_n02112350_10026.png,n02112350_10026.png,0.0,-2.0337162,-1.2839503,-0.53016454
alexnet_w3_mlp_simclrhn_probe1,1,519,NaN,knife,knife,90,0519_rot_dnn_90_knife_20_n03041632_11773.png,n03041632_11773.png,1.0,-1.9304986,-2.1513686,0.15617868
alexnet_w3_mlp_simclrhn_probe1,1,520,NaN,elephant,elephant,0,0520_rot_dnn_0_elephant_20_n02504013_20486.png,n02504013_20486.png,1.0,13.697099,2.7126834,7.7671547
alexnet_w3_mlp_simclrhn_probe1,1,521,NaN,oven,oven,0,0521_rot_dnn_0_oven_20_n04111531_27.png,n04111531_27.png,1.0,5.7387137,2.5002022,2.2899735
alexnet_w3_mlp_simclrhn_probe1,1,522,NaN,oven,bird,180,0522_rot_dnn_180_bird_20_n01855672_15421.png,n01855672_15421.png,0.0,-3.2947838,-1.989388,-0.9230543
alexnet_w3_mlp_simclrhn_probe1,1,523,NaN,bear,bear,270,0523_rot_dnn_270_bear_20_n02132136_239.png,n02132136_239.png,1.0,-0.27505782,-1.5824728,0.92448205
alexnet_w3_mlp_simclrhn_probe1,1,524,NaN,keyboard,keyboard,90,0524_rot_dnn_90_keyboard_20_n03085013_25924.png,n03085013_25924.png,1.0,1.3012629,-3.3987253,3.3233936
alexnet_w3_mlp_simclrhn_probe1,1,525,NaN,bicycle,bicycle,180,0525_rot_dnn_180_bicycle_20_n03792782_6030.png,n03792782_6030.png,1.0,1.6210754,-2.1600442,2.6736553
alexnet_w3_mlp_simclrhn_probe1,1,526,NaN,oven,bottle,270,0526_rot_dnn_270_bottle_20_n03983396_5497.png,n03983396_5497.png,0.0,-4.7934637,1.6564565,-4.5607824
alexnet_w3_mlp_simclrhn_probe1,1,527,NaN,oven,chair,180,0527_rot_dnn_180_chair_20_n04429376_6390.png,n04429376_6390.png,0.0,0.49691027,3.1257584,-1.8588763
alexnet_w3_mlp_simclrhn_probe1,1,528,NaN,cat,dog,90,0528_rot_dnn_90_dog_20_n02100877_11159.png,n02100877_11159.png,0.0,-1.7847706,-1.2814668,-0.3558895
alexnet_w3_mlp_simclrhn_probe1,1,529,NaN,bottle,bottle,180,0529_rot_dnn_180_bottle_20_n04579145_579.png,n04579145_579.png,1.0,0.6593712,-0.51777685,0.83236945
alexnet_w3_mlp_simclrhn_probe1,1,530,NaN,cat,cat,90,0530_rot_dnn_90_cat_20_n02123159_5678.png,n02123159_5678.png,1.0,1.7913957,-6.982338,6.203966
alexnet_w3_mlp_simclrhn_probe1,1,531,NaN,elephant,elephant,180,0531_rot_dnn_180_elephant_20_n02504013_13283.png,n02504013_13283.png,1.0,-0.086480215,-1.3732717,0.909899
alexnet_w3_mlp_simclrhn_probe1,1,532,NaN,oven,dog,90,0532_rot_dnn_90_dog_20_n02095570_7633.png,n02095570_7633.png,0.0,-2.7686915,-0.7018614,-1.4614697
alexnet_w3_mlp_simclrhn_probe1,1,533,NaN,chair,clock,180,0533_rot_dnn_180_clock_20_n02708093_8311.png,n02708093_8311.png,0.0,-2.5937276,-1.189676,-0.99281436
alexnet_w3_mlp_simclrhn_probe1,1,534,NaN,knife,chair,270,0534_rot_dnn_270_chair_20_n03376595_426.png,n03376595_426.png,0.0,-1.2925062,-1.1915867,-0.07136086
alexnet_w3_mlp_simclrhn_probe1,1,535,NaN,boat,dog,180,0535_rot_dnn_180_dog_20_n02100877_3112.png,n02100877_3112.png,0.0,-2.542644,-1.662453,-0.622389
alexnet_w3_mlp_simclrhn_probe1,1,536,NaN,car,car,270,0536_rot_dnn_270_car_20_n02814533_458.png,n02814533_458.png,1.0,-1.6985579,-1.7820933,0.05906847
alexnet_w3_mlp_simclrhn_probe1,1,537,NaN,bird,bird,0,0537_rot_dnn_0_bird_20_n02006656_5079.png,n02006656_5079.png,1.0,1.4644682,-5.651613,5.0318294
alexnet_w3_mlp_simclrhn_probe1,1,538,NaN,bicycle,boat,90,0538_rot_dnn_90_boat_20_n04273569_12725.png,n04273569_12725.png,0.0,-4.2181234,-3.3064418,-0.6446563
alexnet_w3_mlp_simclrhn_probe1,1,539,NaN,cat,cat,270,0539_rot_dnn_270_cat_20_n02123045_6677.png,n02123045_6677.png,1.0,2.3684988,-5.526312,5.582474
alexnet_w3_mlp_simclrhn_probe1,1,540,NaN,bicycle,bicycle,270,0540_rot_dnn_270_bicycle_20_n02835271_4440.png,n02835271_4440.png,1.0,0.56159574,-2.8945584,2.44387
alexnet_w3_mlp_simclrhn_probe1,1,541,NaN,keyboard,keyboard,270,0541_rot_dnn_270_keyboard_20_n03085013_21444.png,n03085013_21444.png,1.0,0.6464801,-1.2402562,1.3341241
alexnet_w3_mlp_simclrhn_probe1,1,542,NaN,chair,clock,180,0542_rot_dnn_180_clock_20_n02708093_8255.png,n02708093_8255.png,0.0,-0.3470057,0.32362342,-0.47420642
alexnet_w3_mlp_simclrhn_probe1,1,543,NaN,bicycle,bicycle,0,0543_rot_dnn_0_bicycle_20_n02835271_30318.png,n02835271_30318.png,1.0,-1.2846223,-1.5349019,0.17697437
alexnet_w3_mlp_simclrhn_probe1,1,544,NaN,cat,cat,180,0544_rot_dnn_180_cat_20_n02123394_2059.png,n02123394_2059.png,1.0,-0.6585589,-2.5372818,1.3284577
alexnet_w3_mlp_simclrhn_probe1,1,545,NaN,elephant,elephant,180,0545_rot_dnn_180_elephant_20_n02504013_6618.png,n02504013_6618.png,1.0,1.7933046,-0.44787094,1.5847504
alexnet_w3_mlp_simclrhn_probe1,1,546,NaN,cat,cat,270,0546_rot_dnn_270_cat_20_n02124075_8889.png,n02124075_8889.png,1.0,-0.5835125,-1.4564722,0.6172757
alexnet_w3_mlp_simclrhn_probe1,1,547,NaN,cat,dog,90,0547_rot_dnn_90_dog_20_n02100877_7302.png,n02100877_7302.png,0.0,-3.019633,-1.1483418,-1.3232027
alexnet_w3_mlp_simclrhn_probe1,1,548,NaN,chair,car,180,0548_rot_dnn_180_car_20_n02814533_85971.png,n02814533_85971.png,0.0,-1.0618962,0.008472979,-0.7568654
alexnet_w3_mlp_simclrhn_probe1,1,549,NaN,chair,chair,0,0549_rot_dnn_0_chair_20_n03376595_5909.png,n03376595_5909.png,1.0,3.1468585,-1.3892828,3.2075365
alexnet_w3_mlp_simclrhn_probe1,1,550,NaN,knife,keyboard,270,0550_rot_dnn_270_keyboard_20_n03085013_13083.png,n03085013_13083.png,0.0,-0.57730234,-0.30706573,-0.19108614
alexnet_w3_mlp_simclrhn_probe1,1,551,NaN,oven,oven,90,0551_rot_dnn_90_oven_20_n04111531_9611.png,n04111531_9611.png,1.0,0.8066492,-1.1902719,1.4120364
alexnet_w3_mlp_simclrhn_probe1,1,552,NaN,boat,boat,0,0552_rot_dnn_0_boat_20_n02951358_13996.png,n02951358_13996.png,1.0,-0.9788461,-2.5269084,1.0946454
alexnet_w3_mlp_simclrhn_probe1,1,553,NaN,boat,boat,0,0553_rot_dnn_0_boat_20_n03344393_9251.png,n03344393_9251.png,1.0,3.4966178,1.4245938,1.4651421
alexnet_w3_mlp_simclrhn_probe1,1,554,NaN,chair,airplane,180,0554_rot_dnn_180_airplane_20_n02690373_9175.png,n02690373_9175.png,0.0,-3.5453334,0.5912093,-2.9249775
alexnet_w3_mlp_simclrhn_probe1,1,555,NaN,elephant,bear,0,0555_rot_dnn_0_bear_20_n02132136_2791.png,n02132136_2791.png,0.0,2.4318774,2.7198505,-0.20362778
alexnet_w3_mlp_simclrhn_probe1,1,556,NaN,elephant,elephant,180,0556_rot_dnn_180_elephant_20_n02504458_193.png,n02504458_193.png,1.0,-0.9542041,-3.0596933,1.4888058
alexnet_w3_mlp_simclrhn_probe1,1,557,NaN,bird,bird,270,0557_rot_dnn_270_bird_20_n01843383_9985.png,n01843383_9985.png,1.0,-1.7111272,-3.68456,1.3954278
alexnet_w3_mlp_simclrhn_probe1,1,558,NaN,bird,bird,270,0558_rot_dnn_270_bird_20_n02028035_10744.png,n02028035_10744.png,1.0,-0.8253501,-2.7148445,1.3360744
alexnet_w3_mlp_simclrhn_probe1,1,559,NaN,chair,truck,270,0559_rot_dnn_270_truck_20_n04467665_3720.png,n04467665_3720.png,0.0,-2.3684208,1.28351,-2.5823052
alexnet_w3_mlp_simclrhn_probe1,1,560,NaN,car,car,0,0560_rot_dnn_0_car_20_n02814533_52605.png,n02814533_52605.png,1.0,4.793469,0.87387323,2.7715728
alexnet_w3_mlp_simclrhn_probe1,1,561,NaN,clock,clock,90,0561_rot_dnn_90_clock_20_n04548280_5631.png,n04548280_5631.png,1.0,7.906587,-2.4586732,7.3293457
alexnet_w3_mlp_simclrhn_probe1,1,562,NaN,oven,oven,0,0562_rot_dnn_0_oven_20_n04111531_1922.png,n04111531_1922.png,1.0,7.495679,-3.1206133,7.506852
alexnet_w3_mlp_simclrhn_probe1,1,563,NaN,airplane,boat,180,0563_rot_dnn_180_boat_20_n03662601_1197.png,n03662601_1197.png,0.0,-1.1348242,2.1747987,-2.3402567
alexnet_w3_mlp_simclrhn_probe1,1,564,NaN,clock,clock,270,0564_rot_dnn_270_clock_20_n02708093_1862.png,n02708093_1862.png,1.0,1.7966057,-2.8770218,3.3047538
alexnet_w3_mlp_simclrhn_probe1,1,565,NaN,truck,truck,180,0565_rot_dnn_180_truck_20_n03796401_4582.png,n03796401_4582.png,1.0,1.9063902,1.2938448,0.433135
alexnet_w3_mlp_simclrhn_probe1,1,566,NaN,elephant,elephant,90,0566_rot_dnn_90_elephant_20_n02504013_565.png,n02504013_565.png,1.0,-1.6459634,-1.771538,0.08879464
alexnet_w3_mlp_simclrhn_probe1,1,567,NaN,chair,truck,180,0567_rot_dnn_180_truck_20_n04467665_49826.png,n04467665_49826.png,0.0,-1.5985942,-0.4150196,-0.8369136
alexnet_w3_mlp_simclrhn_probe1,1,568,NaN,bear,bear,270,0568_rot_dnn_270_bear_20_n02134418_5067.png,n02134418_5067.png,1.0,0.16885866,0.14687325,0.015546034
alexnet_w3_mlp_simclrhn_probe1,1,569,NaN,oven,chair,90,0569_rot_dnn_90_chair_20_n04429376_29223.png,n04429376_29223.png,0.0,-0.9109168,-0.5930159,-0.22478989
alexnet_w3_mlp_simclrhn_probe1,1,570,NaN,knife,airplane,270,0570_rot_dnn_270_airplane_20_n02690373_5909.png,n02690373_5909.png,0.0,-4.7912292,-1.6503211,-2.2209575
alexnet_w3_mlp_simclrhn_probe1,1,571,NaN,knife,dog,270,0571_rot_dnn_270_dog_20_n02097658_722.png,n02097658_722.png,0.0,-5.0685186,-0.41532224,-3.2903068
alexnet_w3_mlp_simclrhn_probe1,1,572,NaN,oven,oven,0,0572_rot_dnn_0_oven_20_n04111531_10339.png,n04111531_10339.png,1.0,3.1065347,0.14232129,2.0960155
alexnet_w3_mlp_simclrhn_probe1,1,573,NaN,bottle,truck,90,0573_rot_dnn_90_truck_20_n03417042_28078.png,n03417042_28078.png,0.0,-3.6404712,0.5408532,-2.9566429
alexnet_w3_mlp_simclrhn_probe1,1,574,NaN,oven,chair,180,0574_rot_dnn_180_chair_20_n04099969_22118.png,n04099969_22118.png,0.0,-1.5760703,-1.0160223,-0.39601374
alexnet_w3_mlp_simclrhn_probe1,1,575,NaN,oven,clock,270,0575_rot_dnn_270_clock_20_n04548280_7978.png,n04548280_7978.png,0.0,-4.11129,-0.37781247,-2.6399674
alexnet_w3_mlp_simclrhn_probe1,1,576,NaN,bear,bear,180,0576_rot_dnn_180_bear_20_n02133161_1962.png,n02133161_1962.png,1.0,-0.9157638,-2.2204938,0.9225834
alexnet_w3_mlp_simclrhn_probe1,1,577,NaN,knife,clock,180,0577_rot_dnn_180_clock_20_n04548280_13750.png,n04548280_13750.png,0.0,-3.932677,-1.1758007,-1.949406
alexnet_w3_mlp_simclrhn_probe1,1,578,NaN,knife,keyboard,0,0578_rot_dnn_0_keyboard_20_n03085013_15249.png,n03085013_15249.png,0.0,-1.2465891,-0.29598933,-0.6721755
alexnet_w3_mlp_simclrhn_probe1,1,579,NaN,keyboard,car,90,0579_rot_dnn_90_car_20_n02814533_479.png,n02814533_479.png,0.0,-4.394419,-0.7700989,-2.5627816
alexnet_w3_mlp_simclrhn_probe1,1,580,NaN,knife,keyboard,270,0580_rot_dnn_270_keyboard_20_n03085013_20716.png,n03085013_20716.png,0.0,-2.2644382,-1.2227037,-0.7366175
alexnet_w3_mlp_simclrhn_probe1,1,581,NaN,bird,bird,180,0581_rot_dnn_180_bird_20_n01530575_7990.png,n01530575_7990.png,1.0,-2.8564124,-5.8813696,2.1389678
alexnet_w3_mlp_simclrhn_probe1,1,582,NaN,chair,chair,0,0582_rot_dnn_0_chair_20_n04429376_17343.png,n04429376_17343.png,1.0,-0.8430065,-1.287612,0.31438354
alexnet_w3_mlp_simclrhn_probe1,1,583,NaN,chair,chair,90,0583_rot_dnn_90_chair_20_n02791124_8775.png,n02791124_8775.png,1.0,-0.26677352,-1.8196251,1.098032
alexnet_w3_mlp_simclrhn_probe1,1,584,NaN,cat,cat,90,0584_rot_dnn_90_cat_20_n02125311_2959.png,n02125311_2959.png,1.0,0.5635727,-2.5583508,2.2075334
alexnet_w3_mlp_simclrhn_probe1,1,585,NaN,oven,oven,180,0585_rot_dnn_180_oven_20_n04111531_13906.png,n04111531_13906.png,1.0,1.3440582,-1.4996002,2.0107703
alexnet_w3_mlp_simclrhn_probe1,1,586,NaN,chair,airplane,90,0586_rot_dnn_90_airplane_20_n02690373_7293.png,n02690373_7293.png,0.0,-2.4612484,-0.7214884,-1.2301961
alexnet_w3_mlp_simclrhn_probe1,1,587,NaN,chair,chair,180,0587_rot_dnn_180_chair_20_n04099969_10825.png,n04099969_10825.png,1.0,0.015971601,-0.079480976,0.06749517
alexnet_w3_mlp_simclrhn_probe1,1,588,NaN,airplane,airplane,180,0588_rot_dnn_180_airplane_20_n02690373_17044.png,n02690373_17044.png,1.0,5.6639,-0.12177026,4.091087
alexnet_w3_mlp_simclrhn_probe1,1,589,NaN,bird,bird,0,0589_rot_dnn_0_bird_20_n01797886_6169.png,n01797886_6169.png,1.0,0.58893424,-3.948437,3.208406
alexnet_w3_mlp_simclrhn_probe1,1,590,NaN,truck,oven,0,0590_rot_dnn_0_oven_20_n04111531_13255.png,n04111531_13255.png,0.0,-3.0079808,-0.43100783,-1.822195
alexnet_w3_mlp_simclrhn_probe1,1,591,NaN,clock,knife,270,0591_rot_dnn_270_knife_20_n03041632_17820.png,n03041632_17820.png,0.0,-4.451138,-3.339514,-0.7860369
alexnet_w3_mlp_simclrhn_probe1,1,592,NaN,knife,bicycle,270,0592_rot_dnn_270_bicycle_20_n02835271_21640.png,n02835271_21640.png,0.0,-2.178594,-2.1459708,-0.02306815
alexnet_w3_mlp_simclrhn_probe1,1,593,NaN,elephant,bear,0,0593_rot_dnn_0_bear_20_n02134418_517.png,n02134418_517.png,0.0,3.37919,3.391748,-0.008879836
alexnet_w3_mlp_simclrhn_probe1,1,594,NaN,chair,airplane,180,0594_rot_dnn_180_airplane_20_n02690373_4588.png,n02690373_4588.png,0.0,-3.5116282,-0.012008518,-2.4746048
alexnet_w3_mlp_simclrhn_probe1,1,595,NaN,chair,bottle,270,0595_rot_dnn_270_bottle_20_n02823428_12190.png,n02823428_12190.png,0.0,-3.0337052,-0.8808694,-1.5222849
alexnet_w3_mlp_simclrhn_probe1,1,596,NaN,bottle,bottle,0,0596_rot_dnn_0_bottle_20_n04591713_1717.png,n04591713_1717.png,1.0,1.4244248,0.7354591,0.4871723
alexnet_w3_mlp_simclrhn_probe1,1,597,NaN,knife,knife,0,0597_rot_dnn_0_knife_20_n03041632_9488.png,n03041632_9488.png,1.0,2.704047,-3.3400705,4.2738366
alexnet_w3_mlp_simclrhn_probe1,1,598,NaN,chair,truck,90,0598_rot_dnn_90_truck_20_n03417042_11166.png,n03417042_11166.png,0.0,-3.8594723,-0.054076396,-2.6908212
alexnet_w3_mlp_simclrhn_probe1,1,599,NaN,elephant,elephant,90,0599_rot_dnn_90_elephant_20_n02504458_585.png,n02504458_585.png,1.0,0.60309756,-2.4929318,2.1892233
alexnet_w3_mlp_simclrhn_probe1,1,600,NaN,oven,keyboard,0,0600_rot_dnn_0_keyboard_20_n04505470_5046.png,n04505470_5046.png,0.0,-0.82873297,0.19965544,-0.7271804
alexnet_w3_mlp_simclrhn_probe1,1,601,NaN,chair,chair,180,0601_rot_dnn_180_chair_20_n03376595_4937.png,n03376595_4937.png,1.0,1.2737846,-2.0057685,2.3189943
alexnet_w3_mlp_simclrhn_probe1,1,602,NaN,truck,boat,180,0602_rot_dnn_180_boat_20_n03662601_1740.png,n03662601_1740.png,0.0,-4.354186,-1.6510965,-1.9113731
alexnet_w3_mlp_simclrhn_probe1,1,603,NaN,knife,knife,0,0603_rot_dnn_0_knife_20_n03041632_4037.png,n03041632_4037.png,1.0,-1.5350248,-4.061019,1.7861477
alexnet_w3_mlp_simclrhn_probe1,1,604,NaN,car,boat,0,0604_rot_dnn_0_boat_20_n04273569_1538.png,n04273569_1538.png,0.0,-4.003313,-1.6852497,-1.6391183
alexnet_w3_mlp_simclrhn_probe1,1,605,NaN,knife,bird,0,0605_rot_dnn_0_bird_20_n02017213_15918.png,n02017213_15918.png,0.0,-4.96892,-4.1925144,-0.5490018
alexnet_w3_mlp_simclrhn_probe1,1,606,NaN,keyboard,keyboard,0,0606_rot_dnn_0_keyboard_20_n03085013_10463.png,n03085013_10463.png,1.0,6.8155136,-2.870803,6.8492603
alexnet_w3_mlp_simclrhn_probe1,1,607,NaN,bear,bear,270,0607_rot_dnn_270_bear_20_n02133161_7939.png,n02133161_7939.png,1.0,0.14567521,-0.5428428,0.48685578
alexnet_w3_mlp_simclrhn_probe1,1,608,NaN,car,car,270,0608_rot_dnn_270_car_20_n04285008_11704.png,n04285008_11704.png,1.0,-1.2843872,-1.4391744,0.10945107
alexnet_w3_mlp_simclrhn_probe1,1,609,NaN,clock,truck,90,0609_rot_dnn_90_truck_20_n03796401_16046.png,n03796401_16046.png,0.0,-1.8650961,1.0983661,-2.0954843
alexnet_w3_mlp_simclrhn_probe1,1,610,NaN,clock,chair,270,0610_rot_dnn_270_chair_20_n02791124_3710.png,n02791124_3710.png,0.0,-2.1946564,-1.3156816,-0.62152904
alexnet_w3_mlp_simclrhn_probe1,1,611,NaN,keyboard,keyboard,180,0611_rot_dnn_180_keyboard_20_n04505470_3566.png,n04505470_3566.png,1.0,3.5606475,1.1571852,1.6995046
alexnet_w3_mlp_simclrhn_probe1,1,612,NaN,knife,bird,90,0612_rot_dnn_90_bird_20_n02037110_8716.png,n02037110_8716.png,0.0,-5.4206333,-2.033441,-2.3951066
alexnet_w3_mlp_simclrhn_probe1,1,613,NaN,car,car,0,0613_rot_dnn_0_car_20_n03100240_19550.png,n03100240_19550.png,1.0,7.9769363,5.275123,1.9104705
alexnet_w3_mlp_simclrhn_probe1,1,614,NaN,airplane,airplane,270,0614_rot_dnn_270_airplane_20_n02690373_10769.png,n02690373_10769.png,1.0,0.3359018,-0.58409125,0.6505333
alexnet_w3_mlp_simclrhn_probe1,1,615,NaN,bicycle,bicycle,0,0615_rot_dnn_0_bicycle_20_n03792782_3456.png,n03792782_3456.png,1.0,0.48758018,-2.3686624,2.0196686
alexnet_w3_mlp_simclrhn_probe1,1,616,NaN,knife,chair,0,0616_rot_dnn_0_chair_20_n03376595_2368.png,n03376595_2368.png,0.0,-2.111948,-1.3075017,-0.5688295
alexnet_w3_mlp_simclrhn_probe1,1,617,NaN,dog,dog,0,0617_rot_dnn_0_dog_20_n02091467_2974.png,n02091467_2974.png,1.0,0.3043323,-1.5620756,1.3197497
alexnet_w3_mlp_simclrhn_probe1,1,618,NaN,knife,knife,180,0618_rot_dnn_180_knife_20_n03041632_43634.png,n03041632_43634.png,1.0,2.2174625,-1.4429839,2.5883265
alexnet_w3_mlp_simclrhn_probe1,1,619,NaN,keyboard,keyboard,180,0619_rot_dnn_180_keyboard_20_n04505470_4477.png,n04505470_4477.png,1.0,4.0393367,-0.4772909,3.1937382
alexnet_w3_mlp_simclrhn_probe1,1,620,NaN,clock,boat,90,0620_rot_dnn_90_boat_20_n03344393_4773.png,n03344393_4773.png,0.0,-4.6197767,-2.282177,-1.6529326
alexnet_w3_mlp_simclrhn_probe1,1,621,NaN,airplane,airplane,180,0621_rot_dnn_180_airplane_20_n02690373_139.png,n02690373_139.png,1.0,4.6479506,-0.38674265,3.5600657
alexnet_w3_mlp_simclrhn_probe1,1,622,NaN,oven,knife,270,0622_rot_dnn_270_knife_20_n03041632_737.png,n03041632_737.png,0.0,-0.6777196,-0.6006794,-0.054475646
alexnet_w3_mlp_simclrhn_probe1,1,623,NaN,oven,chair,270,0623_rot_dnn_270_chair_20_n02791124_2698.png,n02791124_2698.png,0.0,-0.4953188,0.33337724,-0.5859766
alexnet_w3_mlp_simclrhn_probe1,1,624,NaN,bottle,truck,270,0624_rot_dnn_270_truck_20_n03417042_5301.png,n03417042_5301.png,0.0,-4.0008388,0.5169191,-3.1945374
alexnet_w3_mlp_simclrhn_probe1,1,625,NaN,bird,bird,0,0625_rot_dnn_0_bird_20_n02006656_5757.png,n02006656_5757.png,1.0,0.71690744,-5.355852,4.29409
alexnet_w3_mlp_simclrhn_probe1,1,626,NaN,elephant,bear,270,0626_rot_dnn_270_bear_20_n02132136_15174.png,n02132136_15174.png,0.0,0.436449,0.5257157,-0.0631211
alexnet_w3_mlp_simclrhn_probe1,1,627,NaN,clock,bottle,270,0627_rot_dnn_270_bottle_20_n04560804_6329.png,n04560804_6329.png,0.0,-1.65303,-0.35852838,-0.9153509
alexnet_w3_mlp_simclrhn_probe1,1,628,NaN,truck,truck,0,0628_rot_dnn_0_truck_20_n03417042_22196.png,n03417042_22196.png,1.0,3.6615098,0.48117793,2.2488341
alexnet_w3_mlp_simclrhn_probe1,1,629,NaN,cat,cat,0,0629_rot_dnn_0_cat_20_n02125311_18366.png,n02125311_18366.png,1.0,-1.0596485,-1.1085964,0.034611415
alexnet_w3_mlp_simclrhn_probe1,1,630,NaN,chair,chair,0,0630_rot_dnn_0_chair_20_n02791124_12707.png,n02791124_12707.png,1.0,0.9533044,-0.07156379,0.72469133
alexnet_w3_mlp_simclrhn_probe1,1,631,NaN,oven,oven,180,0631_rot_dnn_180_oven_20_n04111531_1938.png,n04111531_1938.png,1.0,-0.30250522,-2.7517061,1.7318466
alexnet_w3_mlp_simclrhn_probe1,1,632,NaN,oven,airplane,270,0632_rot_dnn_270_airplane_20_n02690373_9346.png,n02690373_9346.png,0.0,-10.121361,-1.6325531,-6.0024934
alexnet_w3_mlp_simclrhn_probe1,1,633,NaN,oven,cat,0,0633_rot_dnn_0_cat_20_n02123045_10433.png,n02123045_10433.png,0.0,-3.6317985,-2.4771419,-0.81646556
alexnet_w3_mlp_simclrhn_probe1,1,634,NaN,airplane,airplane,180,0634_rot_dnn_180_airplane_20_n02690373_5055.png,n02690373_5055.png,1.0,2.9734857,-1.2236187,2.967801
alexnet_w3_mlp_simclrhn_probe1,1,635,NaN,clock,clock,270,0635_rot_dnn_270_clock_20_n04548280_4198.png,n04548280_4198.png,1.0,-0.8996756,-1.4658517,0.40034693
