subj,session,trial,rt,object_response,category,condition,imagename,filename,is_correct,targ_act,max_nontarg_act,decision_margin
alexnet_w1_mlp_simclrhn_probe2,1,1,NaN,bicycle,chair,0,0001_rot_dnn_0_chair_20_n03376595_3070.png,n03376595_3070.png,0.0,-0.5379337,1.3729243,-1.3511807
alexnet_w1_mlp_simclrhn_probe2,1,2,NaN,car,car,180,0002_rot_dnn_180_car_20_n02814533_29367.png,n02814533_29367.png,1.0,0.20127672,-0.024776585,0.15984382
alexnet_w1_mlp_simclrhn_probe2,1,3,NaN,knife,car,270,0003_rot_dnn_270_car_20_n02814533_31083.png,n02814533_31083.png,0.0,-3.9961748,-0.30959252,-2.6068075
alexnet_w1_mlp_simclrhn_probe2,1,4,NaN,airplane,car,180,0004_rot_dnn_180_car_20_n03100240_1703.png,n03100240_1703.png,0.0,1.5344802,2.0205579,-0.3437088
alexnet_w1_mlp_simclrhn_probe2,1,5,NaN,bottle,bottle,180,0005_rot_dnn_180_bottle_20_n04591713_2359.png,n04591713_2359.png,1.0,-0.28867015,-0.45614907,0.11842548
alexnet_w1_mlp_simclrhn_probe2,1,6,NaN,dog,dog,90,0006_rot_dnn_90_dog_20_n02111500_8796.png,n02111500_8796.png,1.0,-2.247615,-2.4790378,0.16364054
alexnet_w1_mlp_simclrhn_probe2,1,7,NaN,oven,bear,180,0007_rot_dnn_180_bear_20_n02132136_4512.png,n02132136_4512.png,0.0,-0.57981884,0.5453706,-0.7956291
alexnet_w1_mlp_simclrhn_probe2,1,8,NaN,chair,chair,90,0008_rot_dnn_90_chair_20_n03376595_4820.png,n03376595_4820.png,1.0,1.583219,-0.19163308,1.25501
alexnet_w1_mlp_simclrhn_probe2,1,9,NaN,keyboard,bottle,270,0009_rot_dnn_270_bottle_20_n04591713_6111.png,n04591713_6111.png,0.0,-0.24925007,3.6385725,-2.7491057
alexnet_w1_mlp_simclrhn_probe2,1,10,NaN,chair,bottle,270,0010_rot_dnn_270_bottle_20_n04560804_14111.png,n04560804_14111.png,0.0,-1.3701142,0.41171518,-1.2599436
alexnet_w1_mlp_simclrhn_probe2,1,11,NaN,bear,dog,0,0011_rot_dnn_0_dog_20_n02099601_8656.png,n02099601_8656.png,0.0,0.601964,0.8969555,-0.2085905
alexnet_w1_mlp_simclrhn_probe2,1,12,NaN,cat,cat,0,0012_rot_dnn_0_cat_20_n02125311_14054.png,n02125311_14054.png,1.0,0.09698248,-1.4043719,1.0616179
alexnet_w1_mlp_simclrhn_probe2,1,13,NaN,oven,bear,0,0013_rot_dnn_0_bear_20_n02132136_10385.png,n02132136_10385.png,0.0,-0.6427836,-0.18266284,-0.3253545
alexnet_w1_mlp_simclrhn_probe2,1,14,NaN,knife,bottle,90,0014_rot_dnn_90_bottle_20_n02823428_10417.png,n02823428_10417.png,0.0,-0.8612744,1.0344229,-1.3404604
alexnet_w1_mlp_simclrhn_probe2,1,15,NaN,knife,keyboard,0,0015_rot_dnn_0_keyboard_20_n03085013_23566.png,n03085013_23566.png,0.0,-3.0214095,-0.2675006,-1.9473077
alexnet_w1_mlp_simclrhn_probe2,1,16,NaN,oven,truck,90,0016_rot_dnn_90_truck_20_n03417042_12560.png,n03417042_12560.png,0.0,-1.090003,1.1971403,-1.6172545
alexnet_w1_mlp_simclrhn_probe2,1,17,NaN,airplane,truck,180,0017_rot_dnn_180_truck_20_n04467665_69063.png,n04467665_69063.png,0.0,-0.4714448,1.1938703,-1.1775557
alexnet_w1_mlp_simclrhn_probe2,1,18,NaN,oven,oven,180,0018_rot_dnn_180_oven_20_n04111531_9712.png,n04111531_9712.png,1.0,2.0881665,-1.1265111,2.2731204
alexnet_w1_mlp_simclrhn_probe2,1,19,NaN,oven,oven,180,0019_rot_dnn_180_oven_20_n04111531_10375.png,n04111531_10375.png,1.0,5.5605135,0.5330211,3.554974
alexnet_w1_mlp_simclrhn_probe2,1,20,NaN,keyboard,keyboard,0,0020_rot_dnn_0_keyboard_20_n04505470_1744.png,n04505470_1744.png,1.0,3.841293,2.3589082,1.0482044
alexnet_w1_mlp_simclrhn_probe2,1,21,NaN,bicycle,boat,90,0021_rot_dnn_90_boat_20_n04273569_7296.png,n04273569_7296.png,0.0,-2.4826849,-0.8617325,-1.1461865
alexnet_w1_mlp_simclrhn_probe2,1,22,NaN,dog,dog,0,0022_rot_dnn_0_dog_20_n02101006_4807.png,n02101006_4807.png,1.0,2.3274012,0.7724092,1.0995454
alexnet_w1_mlp_simclrhn_probe2,1,23,NaN,clock,clock,90,0023_rot_dnn_90_clock_20_n02708093_1986.png,n02708093_1986.png,1.0,8.46783,-0.43656224,6.296356
alexnet_w1_mlp_simclrhn_probe2,1,24,NaN,bottle,bottle,0,0024_rot_dnn_0_bottle_20_n04560804_15562.png,n04560804_15562.png,1.0,5.9060454,-2.2659981,5.7785077
alexnet_w1_mlp_simclrhn_probe2,1,25,NaN,cat,cat,0,0025_rot_dnn_0_cat_20_n02124075_13594.png,n02124075_13594.png,1.0,1.8571416,-2.7989678,3.2923665
alexnet_w1_mlp_simclrhn_probe2,1,26,NaN,bear,bear,90,0026_rot_dnn_90_bear_20_n02134418_4365.png,n02134418_4365.png,1.0,-0.24295068,-0.6827405,0.31097838
alexnet_w1_mlp_simclrhn_probe2,1,27,NaN,bear,bear,180,0027_rot_dnn_180_bear_20_n02132136_8650.png,n02132136_8650.png,1.0,0.42990533,-1.0607666,1.0540642
alexnet_w1_mlp_simclrhn_probe2,1,28,NaN,bird,bird,90,0028_rot_dnn_90_bird_20_n02009912_12219.png,n02009912_12219.png,1.0,-0.26164675,-0.34643674,0.05995558
alexnet_w1_mlp_simclrhn_probe2,1,29,NaN,bicycle,dog,90,0029_rot_dnn_90_dog_20_n02100236_1662.png,n02100236_1662.png,0.0,-2.159793,-1.5416193,-0.43711475
alexnet_w1_mlp_simclrhn_probe2,1,30,NaN,clock,clock,90,0030_rot_dnn_90_clock_20_n04548280_1947.png,n04548280_1947.png,1.0,7.205362,-0.09812588,5.1643457
alexnet_w1_mlp_simclrhn_probe2,1,31,NaN,dog,dog,270,0031_rot_dnn_270_dog_20_n02109047_66167.png,n02109047_66167.png,1.0,-1.7020408,-1.8847362,0.12918516
alexnet_w1_mlp_simclrhn_probe2,1,32,NaN,oven,oven,90,0032_rot_dnn_90_oven_20_n04111531_21055.png,n04111531_21055.png,1.0,5.4206114,1.4264303,2.8243127
alexnet_w1_mlp_simclrhn_probe2,1,33,NaN,clock,clock,0,0033_rot_dnn_0_clock_20_n02708093_2012.png,n02708093_2012.png,1.0,0.42569873,-0.82978004,0.88775754
alexnet_w1_mlp_simclrhn_probe2,1,34,NaN,elephant,elephant,0,0034_rot_dnn_0_elephant_20_n02504458_6119.png,n02504458_6119.png,1.0,4.3224216,0.4254569,2.7555702
alexnet_w1_mlp_simclrhn_probe2,1,35,NaN,chair,chair,0,0035_rot_dnn_0_chair_20_n04099969_12707.png,n04099969_12707.png,1.0,6.5310693,0.05528128,4.579074
alexnet_w1_mlp_simclrhn_probe2,1,36,NaN,keyboard,keyboard,270,0036_rot_dnn_270_keyboard_20_n03085013_19054.png,n03085013_19054.png,1.0,1.1490276,0.2997177,0.6005528
alexnet_w1_mlp_simclrhn_probe2,1,37,NaN,chair,chair,0,0037_rot_dnn_0_chair_20_n02791124_422.png,n02791124_422.png,1.0,1.2782142,0.008893833,0.89754504
alexnet_w1_mlp_simclrhn_probe2,1,38,NaN,bicycle,bicycle,0,0038_rot_dnn_0_bicycle_20_n02835271_23830.png,n02835271_23830.png,1.0,12.707804,-2.6403797,10.852805
alexnet_w1_mlp_simclrhn_probe2,1,39,NaN,bird,bird,90,0039_rot_dnn_90_bird_20_n01534433_14735.png,n01534433_14735.png,1.0,-0.7697016,-1.5302453,0.53778565
alexnet_w1_mlp_simclrhn_probe2,1,40,NaN,bird,bird,90,0040_rot_dnn_90_bird_20_n02011460_13994.png,n02011460_13994.png,1.0,-0.25922525,-2.889615,1.8599664
alexnet_w1_mlp_simclrhn_probe2,1,41,NaN,knife,boat,270,0041_rot_dnn_270_boat_20_n04273569_17522.png,n04273569_17522.png,0.0,-1.6870153,-0.43251944,-0.88706255
alexnet_w1_mlp_simclrhn_probe2,1,42,NaN,cat,bear,180,0042_rot_dnn_180_bear_20_n02132136_5537.png,n02132136_5537.png,0.0,0.19047982,2.482227,-1.6205101
alexnet_w1_mlp_simclrhn_probe2,1,43,NaN,bear,bear,90,0043_rot_dnn_90_bear_20_n02132136_19248.png,n02132136_19248.png,1.0,2.6569881,1.0684606,1.1232586
alexnet_w1_mlp_simclrhn_probe2,1,44,NaN,bicycle,bird,270,0044_rot_dnn_270_bird_20_n01537544_1886.png,n01537544_1886.png,0.0,-1.2353618,-0.8277755,-0.28820705
alexnet_w1_mlp_simclrhn_probe2,1,45,NaN,clock,clock,180,0045_rot_dnn_180_clock_20_n03196217_4776.png,n03196217_4776.png,1.0,1.7063135,1.2677402,0.3101181
alexnet_w1_mlp_simclrhn_probe2,1,46,NaN,chair,boat,270,0046_rot_dnn_270_boat_20_n04612504_17610.png,n04612504_17610.png,0.0,-2.3642945,0.25770044,-1.8540305
alexnet_w1_mlp_simclrhn_probe2,1,47,NaN,bear,bear,90,0047_rot_dnn_90_bear_20_n02134418_1814.png,n02134418_1814.png,1.0,0.85194707,0.757475,0.06680183
alexnet_w1_mlp_simclrhn_probe2,1,48,NaN,keyboard,keyboard,180,0048_rot_dnn_180_keyboard_20_n03085013_20330.png,n03085013_20330.png,1.0,6.0237236,0.64839387,3.8009324
alexnet_w1_mlp_simclrhn_probe2,1,49,NaN,bottle,bottle,180,0049_rot_dnn_180_bottle_20_n02823428_14574.png,n02823428_14574.png,1.0,5.018177,-0.67044824,4.0224657
alexnet_w1_mlp_simclrhn_probe2,1,50,NaN,bicycle,bicycle,0,0050_rot_dnn_0_bicycle_20_n03792782_7105.png,n03792782_7105.png,1.0,4.3841,-1.385137,4.079467
alexnet_w1_mlp_simclrhn_probe2,1,51,NaN,elephant,elephant,0,0051_rot_dnn_0_elephant_20_n02504458_1302.png,n02504458_1302.png,1.0,11.498896,2.5994852,6.2928333
alexnet_w1_mlp_simclrhn_probe2,1,52,NaN,bottle,airplane,90,0052_rot_dnn_90_airplane_20_n02690373_3877.png,n02690373_3877.png,0.0,-3.7088673,-0.66450983,-2.1526859
alexnet_w1_mlp_simclrhn_probe2,1,53,NaN,chair,boat,90,0053_rot_dnn_90_boat_20_n02951358_15422.png,n02951358_15422.png,0.0,-3.0936778,-0.14546473,-2.0847015
alexnet_w1_mlp_simclrhn_probe2,1,54,NaN,oven,car,270,0054_rot_dnn_270_car_20_n02814533_46458.png,n02814533_46458.png,0.0,-2.6594353,1.9808102,-3.2811491
alexnet_w1_mlp_simclrhn_probe2,1,55,NaN,car,car,0,0055_rot_dnn_0_car_20_n02814533_39547.png,n02814533_39547.png,1.0,8.826378,6.2467914,1.8240432
alexnet_w1_mlp_simclrhn_probe2,1,56,NaN,airplane,boat,180,0056_rot_dnn_180_boat_20_n04273569_6586.png,n04273569_6586.png,0.0,1.1890209,1.4211218,-0.16412017
alexnet_w1_mlp_simclrhn_probe2,1,57,NaN,clock,clock,90,0057_rot_dnn_90_clock_20_n02708093_3394.png,n02708093_3394.png,1.0,0.5798752,0.5124566,0.047672134
alexnet_w1_mlp_simclrhn_probe2,1,58,NaN,keyboard,keyboard,180,0058_rot_dnn_180_keyboard_20_n03085013_25419.png,n03085013_25419.png,1.0,4.5333676,1.8439438,1.9017098
alexnet_w1_mlp_simclrhn_probe2,1,59,NaN,knife,bottle,180,0059_rot_dnn_180_bottle_20_n04557648_1871.png,n04557648_1871.png,0.0,-1.43421,0.11541587,-1.0957509
alexnet_w1_mlp_simclrhn_probe2,1,60,NaN,oven,chair,90,0060_rot_dnn_90_chair_20_n04099969_6944.png,n04099969_6944.png,0.0,-0.1605547,1.9404352,-1.4856242
alexnet_w1_mlp_simclrhn_probe2,1,61,NaN,chair,boat,270,0061_rot_dnn_270_boat_20_n04273569_1495.png,n04273569_1495.png,0.0,-1.3428717,0.7143489,-1.4546746
alexnet_w1_mlp_simclrhn_probe2,1,62,NaN,keyboard,keyboard,90,0062_rot_dnn_90_keyboard_20_n03085013_7317.png,n03085013_7317.png,1.0,2.7246118,-0.28098327,2.1252766
alexnet_w1_mlp_simclrhn_probe2,1,63,NaN,knife,knife,90,0063_rot_dnn_90_knife_20_n03041632_7448.png,n03041632_7448.png,1.0,0.5862995,0.17025337,0.29418904
alexnet_w1_mlp_simclrhn_probe2,1,64,NaN,truck,truck,0,0064_rot_dnn_0_truck_20_n03417042_11000.png,n03417042_11000.png,1.0,2.6693282,1.703592,0.6828787
alexnet_w1_mlp_simclrhn_probe2,1,65,NaN,bird,bird,0,0065_rot_dnn_0_bird_20_n01582220_8827.png,n01582220_8827.png,1.0,2.8283174,-2.36193,3.6700592
alexnet_w1_mlp_simclrhn_probe2,1,66,NaN,chair,airplane,270,0066_rot_dnn_270_airplane_20_n02690373_9247.png,n02690373_9247.png,0.0,-2.6531959,-0.013685051,-1.8664161
alexnet_w1_mlp_simclrhn_probe2,1,67,NaN,cat,bear,270,0067_rot_dnn_270_bear_20_n02133161_14397.png,n02133161_14397.png,0.0,1.1331005,1.189737,-0.04004802
alexnet_w1_mlp_simclrhn_probe2,1,68,NaN,oven,oven,270,0068_rot_dnn_270_oven_20_n04111531_13560.png,n04111531_13560.png,1.0,2.6651642,0.8554779,1.2796415
alexnet_w1_mlp_simclrhn_probe2,1,69,NaN,bear,bear,180,0069_rot_dnn_180_bear_20_n02132136_545.png,n02132136_545.png,1.0,-0.28974846,-0.9811231,0.48887572
alexnet_w1_mlp_simclrhn_probe2,1,70,NaN,elephant,cat,90,0070_rot_dnn_90_cat_20_n02125311_73072.png,n02125311_73072.png,0.0,-0.6103749,3.7653337,-3.0940933
alexnet_w1_mlp_simclrhn_probe2,1,71,NaN,bicycle,bicycle,0,0071_rot_dnn_0_bicycle_20_n03792782_30530.png,n03792782_30530.png,1.0,5.2232137,1.8469819,2.3873563
alexnet_w1_mlp_simclrhn_probe2,1,72,NaN,knife,knife,90,0072_rot_dnn_90_knife_20_n03041632_4975.png,n03041632_4975.png,1.0,-0.061917137,-0.60199773,0.38189468
alexnet_w1_mlp_simclrhn_probe2,1,73,NaN,knife,dog,90,0073_rot_dnn_90_dog_20_n02107683_3120.png,n02107683_3120.png,0.0,-2.7094681,-0.69573957,-1.4239212
alexnet_w1_mlp_simclrhn_probe2,1,74,NaN,bear,elephant,90,0074_rot_dnn_90_elephant_20_n02504013_7316.png,n02504013_7316.png,0.0,-1.9703531,-1.2033051,-0.54238486
alexnet_w1_mlp_simclrhn_probe2,1,75,NaN,knife,truck,90,0075_rot_dnn_90_truck_20_n03796401_7284.png,n03796401_7284.png,0.0,-1.9338987,1.0085956,-2.0806577
alexnet_w1_mlp_simclrhn_probe2,1,76,NaN,chair,chair,270,0076_rot_dnn_270_chair_20_n03376595_497.png,n03376595_497.png,1.0,0.7572932,0.59213614,0.11678369
alexnet_w1_mlp_simclrhn_probe2,1,77,NaN,chair,truck,270,0077_rot_dnn_270_truck_20_n03796401_19845.png,n03796401_19845.png,0.0,0.15345885,1.2433758,-0.7706877
alexnet_w1_mlp_simclrhn_probe2,1,78,NaN,knife,chair,90,0078_rot_dnn_90_chair_20_n04099969_1941.png,n04099969_1941.png,0.0,-0.73891145,-0.22404861,-0.364063
alexnet_w1_mlp_simclrhn_probe2,1,79,NaN,chair,truck,90,0079_rot_dnn_90_truck_20_n03417042_28886.png,n03417042_28886.png,0.0,-0.01923488,0.31920475,-0.23931298
alexnet_w1_mlp_simclrhn_probe2,1,80,NaN,car,car,0,0080_rot_dnn_0_car_20_n02814533_12185.png,n02814533_12185.png,1.0,4.743218,1.2184157,2.4924116
alexnet_w1_mlp_simclrhn_probe2,1,81,NaN,bicycle,bicycle,90,0081_rot_dnn_90_bicycle_20_n02835271_1621.png,n02835271_1621.png,1.0,1.3344123,0.58378595,0.53077304
alexnet_w1_mlp_simclrhn_probe2,1,82,NaN,cat,cat,0,0082_rot_dnn_0_cat_20_n02123597_32226.png,n02123597_32226.png,1.0,3.8236275,0.6139003,2.26962
alexnet_w1_mlp_simclrhn_probe2,1,83,NaN,bicycle,bicycle,90,0083_rot_dnn_90_bicycle_20_n03792782_5048.png,n03792782_5048.png,1.0,-0.25467187,-1.3436707,0.7700384
alexnet_w1_mlp_simclrhn_probe2,1,84,NaN,airplane,airplane,0,0084_rot_dnn_0_airplane_20_n02690373_10044.png,n02690373_10044.png,1.0,11.917445,4.8930407,4.9670043
alexnet_w1_mlp_simclrhn_probe2,1,85,NaN,car,car,180,0085_rot_dnn_180_car_20_n03100240_5752.png,n03100240_5752.png,1.0,1.4635682,0.43566942,0.72683424
alexnet_w1_mlp_simclrhn_probe2,1,86,NaN,bottle,car,90,0086_rot_dnn_90_car_20_n02814533_68219.png,n02814533_68219.png,0.0,-1.753466,0.30079144,-1.4525794
alexnet_w1_mlp_simclrhn_probe2,1,87,NaN,airplane,airplane,0,0087_rot_dnn_0_airplane_20_n02690373_1171.png,n02690373_1171.png,1.0,4.4675446,1.9698665,1.7661251
alexnet_w1_mlp_simclrhn_probe2,1,88,NaN,chair,bird,90,0088_rot_dnn_90_bird_20_n01817953_6970.png,n01817953_6970.png,0.0,-4.5558233,0.09608972,-3.2893994
alexnet_w1_mlp_simclrhn_probe2,1,89,NaN,chair,car,90,0089_rot_dnn_90_car_20_n04285008_15503.png,n04285008_15503.png,0.0,-1.5686822,1.1423233,-1.9169704
alexnet_w1_mlp_simclrhn_probe2,1,90,NaN,clock,boat,270,0090_rot_dnn_270_boat_20_n03344393_11886.png,n03344393_11886.png,0.0,-0.5362537,0.1312378,-0.47198778
alexnet_w1_mlp_simclrhn_probe2,1,91,NaN,boat,boat,0,0091_rot_dnn_0_boat_20_n04273569_30203.png,n04273569_30203.png,1.0,3.899936,1.4143451,1.7575783
alexnet_w1_mlp_simclrhn_probe2,1,92,NaN,keyboard,keyboard,180,0092_rot_dnn_180_keyboard_20_n03085013_22069.png,n03085013_22069.png,1.0,6.1138887,0.53654534,3.9437776
alexnet_w1_mlp_simclrhn_probe2,1,93,NaN,knife,knife,0,0093_rot_dnn_0_knife_20_n03041632_26314.png,n03041632_26314.png,1.0,1.1626563,0.4341388,0.5151397
alexnet_w1_mlp_simclrhn_probe2,1,94,NaN,oven,bicycle,270,0094_rot_dnn_270_bicycle_20_n03792782_18308.png,n03792782_18308.png,0.0,-1.338379,-0.3837869,-0.6749986
alexnet_w1_mlp_simclrhn_probe2,1,95,NaN,airplane,car,180,0095_rot_dnn_180_car_20_n04285008_8396.png,n04285008_8396.png,0.0,1.1404935,2.299803,-0.8197556
alexnet_w1_mlp_simclrhn_probe2,1,96,NaN,oven,bear,90,0096_rot_dnn_90_bear_20_n02133161_12349.png,n02133161_12349.png,0.0,-0.65673834,1.074952,-1.22449
alexnet_w1_mlp_simclrhn_probe2,1,97,NaN,bear,bear,270,0097_rot_dnn_270_bear_20_n02132136_18303.png,n02132136_18303.png,1.0,2.9019463,2.27414,0.4439262
alexnet_w1_mlp_simclrhn_probe2,1,98,NaN,cat,cat,180,0098_rot_dnn_180_cat_20_n02123394_6853.png,n02123394_6853.png,1.0,2.9803288,-1.2593088,2.9978764
alexnet_w1_mlp_simclrhn_probe2,1,99,NaN,knife,cat,180,0099_rot_dnn_180_cat_20_n02123597_4805.png,n02123597_4805.png,0.0,-3.3627064,1.3184378,-3.3100688
alexnet_w1_mlp_simclrhn_probe2,1,100,NaN,clock,car,0,0100_rot_dnn_0_car_20_n03100240_17587.png,n03100240_17587.png,0.0,-3.9687119,0.1817594,-2.9348264
alexnet_w1_mlp_simclrhn_probe2,1,101,NaN,oven,bird,180,0101_rot_dnn_180_bird_20_n01601694_19236.png,n01601694_19236.png,0.0,-1.8176928,-1.5892099,-0.16156177
alexnet_w1_mlp_simclrhn_probe2,1,102,NaN,cat,cat,0,0102_rot_dnn_0_cat_20_n02123597_2341.png,n02123597_2341.png,1.0,5.777327,-1.1757299,4.9165535
alexnet_w1_mlp_simclrhn_probe2,1,103,NaN,elephant,elephant,270,0103_rot_dnn_270_elephant_20_n02504013_7883.png,n02504013_7883.png,1.0,0.2430601,0.21971071,0.016510513
alexnet_w1_mlp_simclrhn_probe2,1,104,NaN,bicycle,chair,270,0104_rot_dnn_270_chair_20_n03376595_14240.png,n03376595_14240.png,0.0,-2.7888718,0.25697118,-2.153736
alexnet_w1_mlp_simclrhn_probe2,1,105,NaN,airplane,airplane,0,0105_rot_dnn_0_airplane_20_n02690373_10188.png,n02690373_10188.png,1.0,6.736496,2.8793788,2.7273939
alexnet_w1_mlp_simclrhn_probe2,1,106,NaN,chair,truck,90,0106_rot_dnn_90_truck_20_n03417042_8634.png,n03417042_8634.png,0.0,-0.6594187,1.7060328,-1.6726267
alexnet_w1_mlp_simclrhn_probe2,1,107,NaN,knife,knife,90,0107_rot_dnn_90_knife_20_n03041632_32774.png,n03041632_32774.png,1.0,0.5555779,-0.15172598,0.50013936
alexnet_w1_mlp_simclrhn_probe2,1,108,NaN,knife,bottle,90,0108_rot_dnn_90_bottle_20_n03983396_4115.png,n03983396_4115.png,0.0,-0.37412503,1.9840448,-1.6674778
alexnet_w1_mlp_simclrhn_probe2,1,109,NaN,clock,clock,270,0109_rot_dnn_270_clock_20_n04548280_8552.png,n04548280_8552.png,1.0,2.3951323,0.5574843,1.2994133
alexnet_w1_mlp_simclrhn_probe2,1,110,NaN,car,car,0,0110_rot_dnn_0_car_20_n02814533_6233.png,n02814533_6233.png,1.0,13.52932,6.7811484,4.771678
alexnet_w1_mlp_simclrhn_probe2,1,111,NaN,elephant,elephant,0,0111_rot_dnn_0_elephant_20_n02504458_9870.png,n02504458_9870.png,1.0,5.502226,1.2042499,3.039128
alexnet_w1_mlp_simclrhn_probe2,1,112,NaN,bicycle,bicycle,270,0112_rot_dnn_270_bicycle_20_n02835271_3956.png,n02835271_3956.png,1.0,2.8847651,0.09356952,1.9736733
alexnet_w1_mlp_simclrhn_probe2,1,113,NaN,chair,knife,90,0113_rot_dnn_90_knife_20_n03041632_14817.png,n03041632_14817.png,0.0,0.09054975,0.8850441,-0.5617923
alexnet_w1_mlp_simclrhn_probe2,1,114,NaN,oven,chair,90,0114_rot_dnn_90_chair_20_n04099969_8642.png,n04099969_8642.png,0.0,-2.4950354,1.1700462,-2.591604
alexnet_w1_mlp_simclrhn_probe2,1,115,NaN,clock,clock,0,0115_rot_dnn_0_clock_20_n02708093_240.png,n02708093_240.png,1.0,2.9005115,1.1996357,1.2027009
alexnet_w1_mlp_simclrhn_probe2,1,116,NaN,bear,bear,180,0116_rot_dnn_180_bear_20_n02133161_3896.png,n02133161_3896.png,1.0,1.0929381,-0.3662847,1.0318264
alexnet_w1_mlp_simclrhn_probe2,1,117,NaN,bottle,bottle,270,0117_rot_dnn_270_bottle_20_n04557648_11000.png,n04557648_11000.png,1.0,-0.2917877,-1.2086265,0.6483029
alexnet_w1_mlp_simclrhn_probe2,1,118,NaN,clock,keyboard,90,0118_rot_dnn_90_keyboard_20_n03085013_2853.png,n03085013_2853.png,0.0,1.4932054,3.370423,-1.3273934
alexnet_w1_mlp_simclrhn_probe2,1,119,NaN,clock,boat,90,0119_rot_dnn_90_boat_20_n04273569_7097.png,n04273569_7097.png,0.0,-1.608621,-0.08487149,-1.0774536
alexnet_w1_mlp_simclrhn_probe2,1,120,NaN,bicycle,bicycle,270,0120_rot_dnn_270_bicycle_20_n03792782_40932.png,n03792782_40932.png,1.0,2.632382,-0.8486074,2.4614313
alexnet_w1_mlp_simclrhn_probe2,1,121,NaN,chair,chair,270,0121_rot_dnn_270_chair_20_n04429376_44914.png,n04429376_44914.png,1.0,1.8635373,1.7480175,0.081684805
alexnet_w1_mlp_simclrhn_probe2,1,122,NaN,knife,bear,180,0122_rot_dnn_180_bear_20_n02134418_2122.png,n02134418_2122.png,0.0,-4.938039,-1.248911,-2.6086075
alexnet_w1_mlp_simclrhn_probe2,1,123,NaN,knife,keyboard,90,0123_rot_dnn_90_keyboard_20_n03085013_22704.png,n03085013_22704.png,0.0,-1.3973682,0.5357394,-1.3669136
alexnet_w1_mlp_simclrhn_probe2,1,124,NaN,truck,truck,0,0124_rot_dnn_0_truck_20_n03417042_6838.png,n03417042_6838.png,1.0,3.2198226,1.4511985,1.2506062
alexnet_w1_mlp_simclrhn_probe2,1,125,NaN,elephant,elephant,0,0125_rot_dnn_0_elephant_20_n02504458_3628.png,n02504458_3628.png,1.0,8.213715,1.2868217,4.8980527
alexnet_w1_mlp_simclrhn_probe2,1,126,NaN,cat,cat,90,0126_rot_dnn_90_cat_20_n02123597_10141.png,n02123597_10141.png,1.0,2.1980374,-0.71272117,2.058217
alexnet_w1_mlp_simclrhn_probe2,1,127,NaN,bicycle,bicycle,0,0127_rot_dnn_0_bicycle_20_n02835271_6383.png,n02835271_6383.png,1.0,7.2282434,-1.3561627,6.0700917
alexnet_w1_mlp_simclrhn_probe2,1,128,NaN,oven,car,180,0128_rot_dnn_180_car_20_n04285008_7154.png,n04285008_7154.png,0.0,-1.210524,0.04569885,-0.8882837
alexnet_w1_mlp_simclrhn_probe2,1,129,NaN,airplane,bird,0,0129_rot_dnn_0_bird_20_n02007558_1068.png,n02007558_1068.png,0.0,-0.57970005,1.3823645,-1.3873892
alexnet_w1_mlp_simclrhn_probe2,1,130,NaN,bird,cat,90,0130_rot_dnn_90_cat_20_n02125311_1896.png,n02125311_1896.png,0.0,-1.2139834,-0.38496688,-0.5862032
alexnet_w1_mlp_simclrhn_probe2,1,131,NaN,keyboard,keyboard,0,0131_rot_dnn_0_keyboard_20_n04505470_1903.png,n04505470_1903.png,1.0,14.711822,0.9644308,9.720874
alexnet_w1_mlp_simclrhn_probe2,1,132,NaN,knife,bicycle,90,0132_rot_dnn_90_bicycle_20_n03792782_66159.png,n03792782_66159.png,0.0,-1.2420615,-0.42463446,-0.57800823
alexnet_w1_mlp_simclrhn_probe2,1,133,NaN,bear,bear,90,0133_rot_dnn_90_bear_20_n02134418_5219.png,n02134418_5219.png,1.0,3.3187413,1.1657805,1.5223732
alexnet_w1_mlp_simclrhn_probe2,1,134,NaN,chair,car,90,0134_rot_dnn_90_car_20_n02814533_92229.png,n02814533_92229.png,0.0,0.12371128,1.1921515,-0.7555014
alexnet_w1_mlp_simclrhn_probe2,1,135,NaN,cat,dog,90,0135_rot_dnn_90_dog_20_n02090721_1002.png,n02090721_1002.png,0.0,-1.8861557,0.15234254,-1.4414359
alexnet_w1_mlp_simclrhn_probe2,1,136,NaN,chair,truck,270,0136_rot_dnn_270_truck_20_n04467665_46263.png,n04467665_46263.png,0.0,-1.5110059,-0.3119086,-0.84788984
alexnet_w1_mlp_simclrhn_probe2,1,137,NaN,bottle,bottle,180,0137_rot_dnn_180_bottle_20_n03983396_704.png,n03983396_704.png,1.0,0.83562994,0.044290274,0.5595616
alexnet_w1_mlp_simclrhn_probe2,1,138,NaN,oven,truck,180,0138_rot_dnn_180_truck_20_n03796401_4149.png,n03796401_4149.png,0.0,-1.3340284,1.1999385,-1.7917852
alexnet_w1_mlp_simclrhn_probe2,1,139,NaN,bird,bird,0,0139_rot_dnn_0_bird_20_n02006656_2030.png,n02006656_2030.png,1.0,4.8577104,-5.079666,7.0267863
alexnet_w1_mlp_simclrhn_probe2,1,140,NaN,cat,cat,90,0140_rot_dnn_90_cat_20_n02123394_234.png,n02123394_234.png,1.0,1.2076664,-0.38627565,1.1270872
alexnet_w1_mlp_simclrhn_probe2,1,141,NaN,oven,chair,90,0141_rot_dnn_90_chair_20_n04429376_19916.png,n04429376_19916.png,0.0,-0.19345307,4.7977786,-3.529334
alexnet_w1_mlp_simclrhn_probe2,1,142,NaN,bottle,truck,270,0142_rot_dnn_270_truck_20_n04467665_14024.png,n04467665_14024.png,0.0,-0.5162489,1.3730856,-1.3359612
alexnet_w1_mlp_simclrhn_probe2,1,143,NaN,keyboard,chair,90,0143_rot_dnn_90_chair_20_n04429376_14729.png,n04429376_14729.png,0.0,-1.5996264,7.0313897,-6.1030498
alexnet_w1_mlp_simclrhn_probe2,1,144,NaN,knife,car,270,0144_rot_dnn_270_car_20_n02814533_82321.png,n02814533_82321.png,0.0,-0.81846446,-0.09495575,-0.51159793
alexnet_w1_mlp_simclrhn_probe2,1,145,NaN,clock,clock,180,0145_rot_dnn_180_clock_20_n04548280_3701.png,n04548280_3701.png,1.0,1.338905,-0.2692036,1.1371045
alexnet_w1_mlp_simclrhn_probe2,1,146,NaN,knife,boat,270,0146_rot_dnn_270_boat_20_n02951358_11442.png,n02951358_11442.png,0.0,-1.4633247,-0.19196457,-0.8989874
alexnet_w1_mlp_simclrhn_probe2,1,147,NaN,bear,bear,90,0147_rot_dnn_90_bear_20_n02132136_17349.png,n02132136_17349.png,1.0,2.3838868,0.61656386,1.2496861
alexnet_w1_mlp_simclrhn_probe2,1,148,NaN,oven,airplane,90,0148_rot_dnn_90_airplane_20_n02690373_4982.png,n02690373_4982.png,0.0,-3.6909235,1.3707527,-3.5791454
alexnet_w1_mlp_simclrhn_probe2,1,149,NaN,boat,airplane,0,0149_rot_dnn_0_airplane_20_n02690373_2232.png,n02690373_2232.png,0.0,2.2962885,2.4294786,-0.09417966
alexnet_w1_mlp_simclrhn_probe2,1,150,NaN,cat,cat,180,0150_rot_dnn_180_cat_20_n02123045_909.png,n02123045_909.png,1.0,-0.43901047,-1.4918286,0.7444548
alexnet_w1_mlp_simclrhn_probe2,1,151,NaN,keyboard,clock,180,0151_rot_dnn_180_clock_20_n04548280_1190.png,n04548280_1190.png,0.0,3.5181274,3.5586882,-0.028680762
alexnet_w1_mlp_simclrhn_probe2,1,152,NaN,oven,oven,90,0152_rot_dnn_90_oven_20_n04111531_1855.png,n04111531_1855.png,1.0,3.0040703,0.025757415,2.1059854
alexnet_w1_mlp_simclrhn_probe2,1,153,NaN,chair,boat,270,0153_rot_dnn_270_boat_20_n03662601_21408.png,n03662601_21408.png,0.0,-0.58036673,1.1591308,-1.2300105
alexnet_w1_mlp_simclrhn_probe2,1,154,NaN,knife,dog,90,0154_rot_dnn_90_dog_20_n02088364_15877.png,n02088364_15877.png,0.0,-1.3346156,-0.5765644,-0.53602314
alexnet_w1_mlp_simclrhn_probe2,1,155,NaN,airplane,knife,90,0155_rot_dnn_90_knife_20_n03041632_15250.png,n03041632_15250.png,0.0,-0.28915235,-0.12644471,-0.11505168
alexnet_w1_mlp_simclrhn_probe2,1,156,NaN,oven,oven,0,0156_rot_dnn_0_oven_20_n04111531_17006.png,n04111531_17006.png,1.0,4.0587497,-0.23629612,3.0370562
alexnet_w1_mlp_simclrhn_probe2,1,157,NaN,clock,clock,90,0157_rot_dnn_90_clock_20_n04548280_11763.png,n04548280_11763.png,1.0,2.3137317,-0.45613065,1.9585885
alexnet_w1_mlp_simclrhn_probe2,1,158,NaN,bird,bird,270,0158_rot_dnn_270_bird_20_n02028035_8327.png,n02028035_8327.png,1.0,0.08378907,-1.668343,1.2389445
alexnet_w1_mlp_simclrhn_probe2,1,159,NaN,bottle,car,90,0159_rot_dnn_90_car_20_n04285008_5641.png,n04285008_5641.png,0.0,-1.7969308,-0.49562326,-0.9201634
alexnet_w1_mlp_simclrhn_probe2,1,160,NaN,clock,oven,90,0160_rot_dnn_90_oven_20_n04111531_10727.png,n04111531_10727.png,0.0,-0.17938334,1.690878,-1.3224746
alexnet_w1_mlp_simclrhn_probe2,1,161,NaN,elephant,elephant,270,0161_rot_dnn_270_elephant_20_n02504458_1971.png,n02504458_1971.png,1.0,-0.13412198,-0.8182302,0.4837376
alexnet_w1_mlp_simclrhn_probe2,1,162,NaN,bottle,bottle,180,0162_rot_dnn_180_bottle_20_n04560804_15941.png,n04560804_15941.png,1.0,3.2794814,-1.3805003,3.2951047
alexnet_w1_mlp_simclrhn_probe2,1,163,NaN,elephant,elephant,0,0163_rot_dnn_0_elephant_20_n02504458_151.png,n02504458_151.png,1.0,15.737003,5.585845,7.1779532
alexnet_w1_mlp_simclrhn_probe2,1,164,NaN,bear,bear,180,0164_rot_dnn_180_bear_20_n02133161_15427.png,n02133161_15427.png,1.0,1.4614493,0.49072632,0.68640476
alexnet_w1_mlp_simclrhn_probe2,1,165,NaN,elephant,bear,180,0165_rot_dnn_180_bear_20_n02134084_20605.png,n02134084_20605.png,0.0,-0.88345724,0.8820353,-1.2483917
alexnet_w1_mlp_simclrhn_probe2,1,166,NaN,bottle,bottle,90,0166_rot_dnn_90_bottle_20_n04560804_2693.png,n04560804_2693.png,1.0,-0.8418323,-1.9898582,0.8117769
alexnet_w1_mlp_simclrhn_probe2,1,167,NaN,clock,airplane,270,0167_rot_dnn_270_airplane_20_n02690373_8214.png,n02690373_8214.png,0.0,-5.438447,1.4618312,-4.8792334
alexnet_w1_mlp_simclrhn_probe2,1,168,NaN,boat,boat,0,0168_rot_dnn_0_boat_20_n02951358_14966.png,n02951358_14966.png,1.0,1.8561556,0.5762572,0.9050249
alexnet_w1_mlp_simclrhn_probe2,1,169,NaN,knife,knife,90,0169_rot_dnn_90_knife_20_n03041632_14801.png,n03041632_14801.png,1.0,-0.8418169,-1.0098746,0.11883473
alexnet_w1_mlp_simclrhn_probe2,1,170,NaN,dog,dog,90,0170_rot_dnn_90_dog_20_n02110063_8776.png,n02110063_8776.png,1.0,-1.0494031,-1.1294869,0.056627832
alexnet_w1_mlp_simclrhn_probe2,1,171,NaN,oven,dog,180,0171_rot_dnn_180_dog_20_n02100236_7671.png,n02100236_7671.png,0.0,-2.5093172,-0.9930584,-1.0721568
alexnet_w1_mlp_simclrhn_probe2,1,172,NaN,oven,oven,0,0172_rot_dnn_0_oven_20_n04111531_21248.png,n04111531_21248.png,1.0,3.225318,-1.6204942,3.4265068
alexnet_w1_mlp_simclrhn_probe2,1,173,NaN,oven,knife,270,0173_rot_dnn_270_knife_20_n03041632_17100.png,n03041632_17100.png,0.0,-1.0074553,1.9633656,-2.1006877
alexnet_w1_mlp_simclrhn_probe2,1,174,NaN,oven,knife,0,0174_rot_dnn_0_knife_20_n03041632_3781.png,n03041632_3781.png,0.0,-0.35039076,0.7503621,-0.7783498
alexnet_w1_mlp_simclrhn_probe2,1,175,NaN,chair,oven,270,0175_rot_dnn_270_oven_20_n04111531_46651.png,n04111531_46651.png,0.0,-0.3434594,2.2831018,-1.8572593
alexnet_w1_mlp_simclrhn_probe2,1,176,NaN,clock,clock,0,0176_rot_dnn_0_clock_20_n04548280_8303.png,n04548280_8303.png,1.0,0.8814971,0.67166734,0.14837204
alexnet_w1_mlp_simclrhn_probe2,1,177,NaN,airplane,airplane,0,0177_rot_dnn_0_airplane_20_n02690373_2070.png,n02690373_2070.png,1.0,8.683006,-0.9318323,6.7987175
alexnet_w1_mlp_simclrhn_probe2,1,178,NaN,airplane,car,180,0178_rot_dnn_180_car_20_n03100240_574.png,n03100240_574.png,0.0,-0.42948854,0.50439334,-0.6603542
alexnet_w1_mlp_simclrhn_probe2,1,179,NaN,bear,dog,90,0179_rot_dnn_90_dog_20_n02095570_11263.png,n02095570_11263.png,0.0,-1.4174598,-0.44548,-0.6872936
alexnet_w1_mlp_simclrhn_probe2,1,180,NaN,oven,bottle,180,0180_rot_dnn_180_bottle_20_n03983396_9667.png,n03983396_9667.png,0.0,0.56967163,0.79103124,-0.15652488
alexnet_w1_mlp_simclrhn_probe2,1,181,NaN,clock,clock,0,0181_rot_dnn_0_clock_20_n02708093_3535.png,n02708093_3535.png,1.0,7.188495,4.7797594,1.7032334
alexnet_w1_mlp_simclrhn_probe2,1,182,NaN,bird,bird,180,0182_rot_dnn_180_bird_20_n01531178_17239.png,n01531178_17239.png,1.0,0.15573005,-1.7506974,1.3480477
alexnet_w1_mlp_simclrhn_probe2,1,183,NaN,elephant,elephant,180,0183_rot_dnn_180_elephant_20_n02504458_2272.png,n02504458_2272.png,1.0,1.3824078,-0.95480305,1.6526577
alexnet_w1_mlp_simclrhn_probe2,1,184,NaN,knife,knife,90,0184_rot_dnn_90_knife_20_n03041632_50648.png,n03041632_50648.png,1.0,2.8449354,-0.66191924,2.4797206
alexnet_w1_mlp_simclrhn_probe2,1,185,NaN,knife,knife,0,0185_rot_dnn_0_knife_20_n03041632_33225.png,n03041632_33225.png,1.0,0.30337247,-2.4945946,1.9784614
alexnet_w1_mlp_simclrhn_probe2,1,186,NaN,airplane,airplane,0,0186_rot_dnn_0_airplane_20_n02690373_736.png,n02690373_736.png,1.0,11.36007,2.8367913,6.026869
alexnet_w1_mlp_simclrhn_probe2,1,187,NaN,bottle,knife,270,0187_rot_dnn_270_knife_20_n03041632_2546.png,n03041632_2546.png,0.0,-0.03378661,0.19589584,-0.16241002
alexnet_w1_mlp_simclrhn_probe2,1,188,NaN,boat,boat,180,0188_rot_dnn_180_boat_20_n04273569_13053.png,n04273569_13053.png,1.0,5.1604433,3.1602626,1.4143413
alexnet_w1_mlp_simclrhn_probe2,1,189,NaN,airplane,airplane,180,0189_rot_dnn_180_airplane_20_n02690373_3588.png,n02690373_3588.png,1.0,1.8683208,0.7323377,0.8032614
alexnet_w1_mlp_simclrhn_probe2,1,190,NaN,cat,keyboard,0,0190_rot_dnn_0_keyboard_20_n03085013_21004.png,n03085013_21004.png,0.0,-5.9392114,3.5021439,-6.676046
alexnet_w1_mlp_simclrhn_probe2,1,191,NaN,chair,boat,180,0191_rot_dnn_180_boat_20_n03662601_16627.png,n03662601_16627.png,0.0,-0.037160255,0.08319987,-0.08510747
alexnet_w1_mlp_simclrhn_probe2,1,192,NaN,bird,bird,180,0192_rot_dnn_180_bird_20_n02017213_6478.png,n02017213_6478.png,1.0,0.7350789,-0.66920656,0.99297976
alexnet_w1_mlp_simclrhn_probe2,1,193,NaN,bear,bear,90,0193_rot_dnn_90_bear_20_n02134418_998.png,n02134418_998.png,1.0,-0.299216,-1.4957334,0.8460655
alexnet_w1_mlp_simclrhn_probe2,1,194,NaN,bicycle,truck,90,0194_rot_dnn_90_truck_20_n04467665_71055.png,n04467665_71055.png,0.0,-1.6683159,0.58228546,-1.5914154
alexnet_w1_mlp_simclrhn_probe2,1,195,NaN,knife,car,90,0195_rot_dnn_90_car_20_n02814533_23979.png,n02814533_23979.png,0.0,-0.9024562,0.6059473,-1.0666023
alexnet_w1_mlp_simclrhn_probe2,1,196,NaN,bear,elephant,180,0196_rot_dnn_180_elephant_20_n02504458_6805.png,n02504458_6805.png,0.0,-0.14054956,0.04394216,-0.13045534
alexnet_w1_mlp_simclrhn_probe2,1,197,NaN,clock,clock,90,0197_rot_dnn_90_clock_20_n04548280_4841.png,n04548280_4841.png,1.0,0.93555385,-0.10974627,0.73913884
alexnet_w1_mlp_simclrhn_probe2,1,198,NaN,airplane,boat,90,0198_rot_dnn_90_boat_20_n03662601_6832.png,n03662601_6832.png,0.0,-0.6088532,-0.19505268,-0.29260117
alexnet_w1_mlp_simclrhn_probe2,1,199,NaN,oven,oven,270,0199_rot_dnn_270_oven_20_n04111531_766.png,n04111531_766.png,1.0,4.089566,-0.07504977,2.9448283
alexnet_w1_mlp_simclrhn_probe2,1,200,NaN,bottle,clock,0,0200_rot_dnn_0_clock_20_n04548280_1305.png,n04548280_1305.png,0.0,-3.7012918,-2.069106,-1.1541296
alexnet_w1_mlp_simclrhn_probe2,1,201,NaN,bicycle,bicycle,0,0201_rot_dnn_0_bicycle_20_n03792782_19083.png,n03792782_19083.png,1.0,7.467407,-2.227706,6.85548
alexnet_w1_mlp_simclrhn_probe2,1,202,NaN,oven,bird,90,0202_rot_dnn_90_bird_20_n01860187_20081.png,n01860187_20081.png,0.0,-2.3564603,-0.18437776,-1.5358944
alexnet_w1_mlp_simclrhn_probe2,1,203,NaN,oven,oven,0,0203_rot_dnn_0_oven_20_n04111531_4817.png,n04111531_4817.png,1.0,1.1284379,-1.6538258,1.9673576
alexnet_w1_mlp_simclrhn_probe2,1,204,NaN,car,car,180,0204_rot_dnn_180_car_20_n02814533_33360.png,n02814533_33360.png,1.0,0.34193453,-0.5354051,0.6203728
alexnet_w1_mlp_simclrhn_probe2,1,205,NaN,clock,clock,270,0205_rot_dnn_270_clock_20_n04548280_4035.png,n04548280_4035.png,1.0,3.005832,0.4127648,1.8335754
alexnet_w1_mlp_simclrhn_probe2,1,206,NaN,keyboard,keyboard,270,0206_rot_dnn_270_keyboard_20_n03085013_7879.png,n03085013_7879.png,1.0,2.3037457,0.95419186,0.95427865
alexnet_w1_mlp_simclrhn_probe2,1,207,NaN,airplane,airplane,0,0207_rot_dnn_0_airplane_20_n02690373_2598.png,n02690373_2598.png,1.0,7.744493,2.3323665,3.8269515
alexnet_w1_mlp_simclrhn_probe2,1,208,NaN,cat,cat,180,0208_rot_dnn_180_cat_20_n02123045_436.png,n02123045_436.png,1.0,2.3263805,-0.45970508,1.9700601
alexnet_w1_mlp_simclrhn_probe2,1,209,NaN,chair,airplane,270,0209_rot_dnn_270_airplane_20_n02690373_813.png,n02690373_813.png,0.0,-2.6672962,0.21517095,-2.038212
alexnet_w1_mlp_simclrhn_probe2,1,210,NaN,cat,cat,0,0210_rot_dnn_0_cat_20_n02123159_1008.png,n02123159_1008.png,1.0,14.428063,-4.304356,13.245821
alexnet_w1_mlp_simclrhn_probe2,1,211,NaN,bottle,bottle,90,0211_rot_dnn_90_bottle_20_n03983396_5452.png,n03983396_5452.png,1.0,1.5751988,-0.7469436,1.6420026
alexnet_w1_mlp_simclrhn_probe2,1,212,NaN,knife,dog,90,0212_rot_dnn_90_dog_20_n02090379_13010.png,n02090379_13010.png,0.0,-3.0352604,-1.0723088,-1.3880165
alexnet_w1_mlp_simclrhn_probe2,1,213,NaN,airplane,chair,180,0213_rot_dnn_180_chair_20_n04099969_4162.png,n04099969_4162.png,0.0,-0.58875746,0.5907421,-0.8340322
alexnet_w1_mlp_simclrhn_probe2,1,214,NaN,oven,keyboard,270,0214_rot_dnn_270_keyboard_20_n04505470_206.png,n04505470_206.png,0.0,0.81327176,1.0820574,-0.19006012
alexnet_w1_mlp_simclrhn_probe2,1,215,NaN,cat,cat,0,0215_rot_dnn_0_cat_20_n02123045_5290.png,n02123045_5290.png,1.0,-1.901445,-2.795527,0.63221145
alexnet_w1_mlp_simclrhn_probe2,1,216,NaN,oven,bird,180,0216_rot_dnn_180_bird_20_n01843383_6001.png,n01843383_6001.png,0.0,-2.8666935,-1.3840615,-1.0483792
alexnet_w1_mlp_simclrhn_probe2,1,217,NaN,knife,knife,0,0217_rot_dnn_0_knife_20_n03041632_24376.png,n03041632_24376.png,1.0,0.7793782,-0.7257248,1.0642686
alexnet_w1_mlp_simclrhn_probe2,1,218,NaN,bicycle,bicycle,90,0218_rot_dnn_90_bicycle_20_n02835271_2915.png,n02835271_2915.png,1.0,1.1266181,-1.1226593,1.5904795
alexnet_w1_mlp_simclrhn_probe2,1,219,NaN,bicycle,bicycle,0,0219_rot_dnn_0_bicycle_20_n03792782_5517.png,n03792782_5517.png,1.0,12.64287,1.6553445,7.7693543
alexnet_w1_mlp_simclrhn_probe2,1,220,NaN,bicycle,bicycle,90,0220_rot_dnn_90_bicycle_20_n02835271_7053.png,n02835271_7053.png,1.0,1.7024047,-2.0996046,2.6884267
alexnet_w1_mlp_simclrhn_probe2,1,221,NaN,clock,clock,180,0221_rot_dnn_180_clock_20_n04548280_7115.png,n04548280_7115.png,1.0,1.9548506,-0.60263747,1.8084171
alexnet_w1_mlp_simclrhn_probe2,1,222,NaN,chair,boat,270,0222_rot_dnn_270_boat_20_n04273569_29866.png,n04273569_29866.png,0.0,-1.6885719,-0.8218958,-0.6128326
alexnet_w1_mlp_simclrhn_probe2,1,223,NaN,clock,clock,90,0223_rot_dnn_90_clock_20_n02708093_3623.png,n02708093_3623.png,1.0,1.7981173,1.6442351,0.10881111
alexnet_w1_mlp_simclrhn_probe2,1,224,NaN,bear,bear,180,0224_rot_dnn_180_bear_20_n02132136_7468.png,n02132136_7468.png,1.0,1.2170931,0.6327173,0.41321608
alexnet_w1_mlp_simclrhn_probe2,1,225,NaN,cat,cat,0,0225_rot_dnn_0_cat_20_n02123159_2137.png,n02123159_2137.png,1.0,2.5167334,-2.5606465,3.59025
alexnet_w1_mlp_simclrhn_probe2,1,226,NaN,bottle,bottle,90,0226_rot_dnn_90_bottle_20_n03937543_5257.png,n03937543_5257.png,1.0,-0.52225333,-0.55134445,0.020570528
alexnet_w1_mlp_simclrhn_probe2,1,227,NaN,cat,cat,0,0227_rot_dnn_0_cat_20_n02123394_937.png,n02123394_937.png,1.0,2.3026948,-0.58609664,2.042684
alexnet_w1_mlp_simclrhn_probe2,1,228,NaN,boat,boat,0,0228_rot_dnn_0_boat_20_n03662601_11764.png,n03662601_11764.png,1.0,6.0352187,1.9678113,2.8760915
alexnet_w1_mlp_simclrhn_probe2,1,229,NaN,bear,bear,0,0229_rot_dnn_0_bear_20_n02132136_10412.png,n02132136_10412.png,1.0,3.845525,-0.20944679,2.8672981
alexnet_w1_mlp_simclrhn_probe2,1,230,NaN,clock,clock,270,0230_rot_dnn_270_clock_20_n03196217_3600.png,n03196217_3600.png,1.0,1.4720777,1.1921452,0.19794217
alexnet_w1_mlp_simclrhn_probe2,1,231,NaN,oven,dog,270,0231_rot_dnn_270_dog_20_n02102177_255.png,n02102177_255.png,0.0,-2.2804666,0.50828075,-1.9719422
alexnet_w1_mlp_simclrhn_probe2,1,232,NaN,bird,bird,270,0232_rot_dnn_270_bird_20_n01614925_1860.png,n01614925_1860.png,1.0,1.6542556,-1.0350478,1.9016247
alexnet_w1_mlp_simclrhn_probe2,1,233,NaN,knife,airplane,180,0233_rot_dnn_180_airplane_20_n02690373_1021.png,n02690373_1021.png,0.0,-0.39973652,0.09920113,-0.35280222
alexnet_w1_mlp_simclrhn_probe2,1,234,NaN,chair,chair,180,0234_rot_dnn_180_chair_20_n03376595_9079.png,n03376595_9079.png,1.0,1.9723839,1.625073,0.2455859
alexnet_w1_mlp_simclrhn_probe2,1,235,NaN,chair,chair,90,0235_rot_dnn_90_chair_20_n02791124_5199.png,n02791124_5199.png,1.0,0.96872663,0.18122172,0.5568501
alexnet_w1_mlp_simclrhn_probe2,1,236,NaN,bottle,keyboard,90,0236_rot_dnn_90_keyboard_20_n03085013_24294.png,n03085013_24294.png,0.0,0.14964786,0.4453687,-0.20910622
alexnet_w1_mlp_simclrhn_probe2,1,237,NaN,cat,cat,0,0237_rot_dnn_0_cat_20_n02123597_13286.png,n02123597_13286.png,1.0,1.9508568,0.31757617,1.1549039
alexnet_w1_mlp_simclrhn_probe2,1,238,NaN,bird,bird,180,0238_rot_dnn_180_bird_20_n01560419_17392.png,n01560419_17392.png,1.0,2.0859122,-4.9297233,4.9608035
alexnet_w1_mlp_simclrhn_probe2,1,239,NaN,oven,oven,270,0239_rot_dnn_270_oven_20_n04111531_6934.png,n04111531_6934.png,1.0,1.884567,-0.4930463,1.6812265
alexnet_w1_mlp_simclrhn_probe2,1,240,NaN,bottle,clock,90,0240_rot_dnn_90_clock_20_n03196217_6707.png,n03196217_6707.png,0.0,0.9105525,1.1911747,-0.1984299
alexnet_w1_mlp_simclrhn_probe2,1,241,NaN,knife,knife,180,0241_rot_dnn_180_knife_20_n03041632_15174.png,n03041632_15174.png,1.0,-0.27808577,-1.1155506,0.5921771
alexnet_w1_mlp_simclrhn_probe2,1,242,NaN,oven,oven,180,0242_rot_dnn_180_oven_20_n04111531_13644.png,n04111531_13644.png,1.0,3.0762968,-1.5174055,3.248238
alexnet_w1_mlp_simclrhn_probe2,1,243,NaN,elephant,elephant,0,0243_rot_dnn_0_elephant_20_n02504458_3458.png,n02504458_3458.png,1.0,17.84702,3.2707374,10.306988
alexnet_w1_mlp_simclrhn_probe2,1,244,NaN,clock,clock,90,0244_rot_dnn_90_clock_20_n04548280_18914.png,n04548280_18914.png,1.0,4.682284,-0.77021205,3.855497
alexnet_w1_mlp_simclrhn_probe2,1,245,NaN,elephant,dog,180,0245_rot_dnn_180_dog_20_n02107908_2754.png,n02107908_2754.png,0.0,-1.2132349,-0.49189213,-0.5100664
alexnet_w1_mlp_simclrhn_probe2,1,246,NaN,airplane,airplane,0,0246_rot_dnn_0_airplane_20_n02690373_1306.png,n02690373_1306.png,1.0,10.541365,2.53018,5.664763
alexnet_w1_mlp_simclrhn_probe2,1,247,NaN,chair,chair,90,0247_rot_dnn_90_chair_20_n03376595_10266.png,n03376595_10266.png,1.0,1.6050471,1.0369638,0.40169555
alexnet_w1_mlp_simclrhn_probe2,1,248,NaN,keyboard,keyboard,270,0248_rot_dnn_270_keyboard_20_n04505470_1416.png,n04505470_1416.png,1.0,3.1156273,1.5318909,1.1198708
alexnet_w1_mlp_simclrhn_probe2,1,249,NaN,clock,clock,180,0249_rot_dnn_180_clock_20_n04548280_4686.png,n04548280_4686.png,1.0,7.3125052,-1.018303,5.8907714
alexnet_w1_mlp_simclrhn_probe2,1,250,NaN,oven,truck,270,0250_rot_dnn_270_truck_20_n04467665_69882.png,n04467665_69882.png,0.0,-2.212758,1.5155551,-2.6363156
alexnet_w1_mlp_simclrhn_probe2,1,251,NaN,knife,bottle,270,0251_rot_dnn_270_bottle_20_n04591713_2123.png,n04591713_2123.png,0.0,-2.7858832,3.8395627,-4.684898
alexnet_w1_mlp_simclrhn_probe2,1,252,NaN,oven,oven,90,0252_rot_dnn_90_oven_20_n04111531_6933.png,n04111531_6933.png,1.0,2.2161992,-2.0470111,3.014545
alexnet_w1_mlp_simclrhn_probe2,1,253,NaN,knife,car,270,0253_rot_dnn_270_car_20_n03100240_8898.png,n03100240_8898.png,0.0,-3.5779371,0.19178075,-2.6655931
alexnet_w1_mlp_simclrhn_probe2,1,254,NaN,cat,elephant,180,0254_rot_dnn_180_elephant_20_n02504458_5277.png,n02504458_5277.png,0.0,0.1370174,0.5592312,-0.29855025
alexnet_w1_mlp_simclrhn_probe2,1,255,NaN,oven,truck,270,0255_rot_dnn_270_truck_20_n03417042_9967.png,n03417042_9967.png,0.0,0.8018386,2.7268198,-1.3611672
alexnet_w1_mlp_simclrhn_probe2,1,256,NaN,bear,bear,0,0256_rot_dnn_0_bear_20_n02134418_1017.png,n02134418_1017.png,1.0,3.8840652,-0.5949022,3.167108
alexnet_w1_mlp_simclrhn_probe2,1,257,NaN,bottle,airplane,90,0257_rot_dnn_90_airplane_20_n02690373_1909.png,n02690373_1909.png,0.0,-2.6441588,0.27828243,-2.066478
alexnet_w1_mlp_simclrhn_probe2,1,258,NaN,airplane,airplane,0,0258_rot_dnn_0_airplane_20_n02690373_6753.png,n02690373_6753.png,1.0,8.012826,-0.33167285,5.9004517
alexnet_w1_mlp_simclrhn_probe2,1,259,NaN,airplane,airplane,0,0259_rot_dnn_0_airplane_20_n02690373_1972.png,n02690373_1972.png,1.0,4.582914,2.7352538,1.3064929
alexnet_w1_mlp_simclrhn_probe2,1,260,NaN,oven,oven,90,0260_rot_dnn_90_oven_20_n04111531_9915.png,n04111531_9915.png,1.0,2.2014604,-1.3155125,2.4868755
alexnet_w1_mlp_simclrhn_probe2,1,261,NaN,elephant,elephant,270,0261_rot_dnn_270_elephant_20_n02504458_485.png,n02504458_485.png,1.0,2.3142598,0.19347328,1.4996225
alexnet_w1_mlp_simclrhn_probe2,1,262,NaN,elephant,elephant,180,0262_rot_dnn_180_elephant_20_n02504013_2431.png,n02504013_2431.png,1.0,1.587736,0.4773798,0.7851404
alexnet_w1_mlp_simclrhn_probe2,1,263,NaN,bicycle,clock,180,0263_rot_dnn_180_clock_20_n02708093_1038.png,n02708093_1038.png,0.0,-0.19564319,1.2661128,-1.0336176
alexnet_w1_mlp_simclrhn_probe2,1,264,NaN,cat,cat,270,0264_rot_dnn_270_cat_20_n02123597_5927.png,n02123597_5927.png,1.0,2.072015,-0.5162678,1.8301923
alexnet_w1_mlp_simclrhn_probe2,1,265,NaN,bicycle,bicycle,90,0265_rot_dnn_90_bicycle_20_n03792782_3202.png,n03792782_3202.png,1.0,0.01641047,-1.3570303,0.9711693
alexnet_w1_mlp_simclrhn_probe2,1,266,NaN,chair,car,270,0266_rot_dnn_270_car_20_n02814533_45480.png,n02814533_45480.png,0.0,-3.213171,0.925691,-2.9266176
alexnet_w1_mlp_simclrhn_probe2,1,267,NaN,clock,truck,90,0267_rot_dnn_90_truck_20_n03796401_4571.png,n03796401_4571.png,0.0,-0.6275476,1.1638316,-1.2666965
alexnet_w1_mlp_simclrhn_probe2,1,268,NaN,oven,oven,90,0268_rot_dnn_90_oven_20_n04111531_21011.png,n04111531_21011.png,1.0,0.13345614,-0.24268891,0.26597473
alexnet_w1_mlp_simclrhn_probe2,1,269,NaN,airplane,airplane,0,0269_rot_dnn_0_airplane_20_n02690373_4310.png,n02690373_4310.png,1.0,9.066891,-0.55154425,6.8012605
alexnet_w1_mlp_simclrhn_probe2,1,270,NaN,chair,oven,0,0270_rot_dnn_0_oven_20_n04111531_7134.png,n04111531_7134.png,0.0,2.3670392,2.9960158,-0.44475362
alexnet_w1_mlp_simclrhn_probe2,1,271,NaN,cat,dog,270,0271_rot_dnn_270_dog_20_n02105251_1092.png,n02105251_1092.png,0.0,-0.43878156,1.0128654,-1.0264695
alexnet_w1_mlp_simclrhn_probe2,1,272,NaN,knife,knife,180,0272_rot_dnn_180_knife_20_n03041632_34505.png,n03041632_34505.png,1.0,0.75212145,-0.49971128,0.8851794
alexnet_w1_mlp_simclrhn_probe2,1,273,NaN,keyboard,keyboard,90,0273_rot_dnn_90_keyboard_20_n04505470_4520.png,n04505470_4520.png,1.0,1.936964,0.62310517,0.9290385
alexnet_w1_mlp_simclrhn_probe2,1,274,NaN,oven,boat,180,0274_rot_dnn_180_boat_20_n03344393_1519.png,n03344393_1519.png,0.0,-0.05896778,0.18788458,-0.17455098
alexnet_w1_mlp_simclrhn_probe2,1,275,NaN,chair,chair,270,0275_rot_dnn_270_chair_20_n03376595_9535.png,n03376595_9535.png,1.0,0.6890012,0.30836177,0.26915273
alexnet_w1_mlp_simclrhn_probe2,1,276,NaN,bear,cat,270,0276_rot_dnn_270_cat_20_n02125311_1326.png,n02125311_1326.png,0.0,-0.9042359,0.025387645,-0.65734315
alexnet_w1_mlp_simclrhn_probe2,1,277,NaN,cat,cat,90,0277_rot_dnn_90_cat_20_n02123394_2948.png,n02123394_2948.png,1.0,0.738089,-1.01782,1.2416152
alexnet_w1_mlp_simclrhn_probe2,1,278,NaN,oven,oven,270,0278_rot_dnn_270_oven_20_n04111531_5429.png,n04111531_5429.png,1.0,2.6764545,0.7262447,1.3790066
alexnet_w1_mlp_simclrhn_probe2,1,279,NaN,elephant,elephant,0,0279_rot_dnn_0_elephant_20_n02504013_6645.png,n02504013_6645.png,1.0,1.4797513,0.7425721,0.52126443
alexnet_w1_mlp_simclrhn_probe2,1,280,NaN,oven,keyboard,90,0280_rot_dnn_90_keyboard_20_n04505470_4159.png,n04505470_4159.png,0.0,-1.4661618,2.969964,-3.1368146
alexnet_w1_mlp_simclrhn_probe2,1,281,NaN,bottle,bottle,90,0281_rot_dnn_90_bottle_20_n02823428_6252.png,n02823428_6252.png,1.0,0.4179029,0.33585578,0.058016066
alexnet_w1_mlp_simclrhn_probe2,1,282,NaN,airplane,airplane,180,0282_rot_dnn_180_airplane_20_n02690373_15097.png,n02690373_15097.png,1.0,2.0175629,0.7344893,0.90727
alexnet_w1_mlp_simclrhn_probe2,1,283,NaN,oven,cat,0,0283_rot_dnn_0_cat_20_n02123159_3420.png,n02123159_3420.png,0.0,-5.217836,1.5353832,-4.775247
alexnet_w1_mlp_simclrhn_probe2,1,284,NaN,bear,cat,0,0284_rot_dnn_0_cat_20_n02124075_7835.png,n02124075_7835.png,0.0,-0.941153,-0.8878677,-0.0376784
alexnet_w1_mlp_simclrhn_probe2,1,285,NaN,cat,cat,90,0285_rot_dnn_90_cat_20_n02123045_6696.png,n02123045_6696.png,1.0,0.5780061,-1.7471858,1.6441591
alexnet_w1_mlp_simclrhn_probe2,1,286,NaN,bicycle,boat,180,0286_rot_dnn_180_boat_20_n02951358_34766.png,n02951358_34766.png,0.0,-0.015505207,1.1514645,-0.8251722
alexnet_w1_mlp_simclrhn_probe2,1,287,NaN,elephant,bird,0,0287_rot_dnn_0_bird_20_n01855672_8191.png,n01855672_8191.png,0.0,-1.8615931,0.060601443,-1.3591969
alexnet_w1_mlp_simclrhn_probe2,1,288,NaN,clock,truck,180,0288_rot_dnn_180_truck_20_n03796401_1150.png,n03796401_1150.png,0.0,-0.20108601,0.97657067,-0.83272904
alexnet_w1_mlp_simclrhn_probe2,1,289,NaN,bicycle,bicycle,270,0289_rot_dnn_270_bicycle_20_n03792782_9782.png,n03792782_9782.png,1.0,-1.608505,-1.7193593,0.07838581
alexnet_w1_mlp_simclrhn_probe2,1,290,NaN,bottle,boat,270,0290_rot_dnn_270_boat_20_n03662601_12969.png,n03662601_12969.png,0.0,-2.0279431,0.1828777,-1.5632865
alexnet_w1_mlp_simclrhn_probe2,1,291,NaN,clock,bottle,180,0291_rot_dnn_180_bottle_20_n02823428_4530.png,n02823428_4530.png,0.0,-1.3190376,0.65351933,-1.3948083
alexnet_w1_mlp_simclrhn_probe2,1,292,NaN,chair,chair,0,0292_rot_dnn_0_chair_20_n02791124_2898.png,n02791124_2898.png,1.0,1.9644594,0.26207313,1.2037688
alexnet_w1_mlp_simclrhn_probe2,1,293,NaN,cat,cat,270,0293_rot_dnn_270_cat_20_n02123394_686.png,n02123394_686.png,1.0,1.2145241,-0.24750204,1.0338087
alexnet_w1_mlp_simclrhn_probe2,1,294,NaN,oven,dog,180,0294_rot_dnn_180_dog_20_n02100735_4364.png,n02100735_4364.png,0.0,-1.7950284,-0.7640369,-0.72902113
alexnet_w1_mlp_simclrhn_probe2,1,295,NaN,dog,dog,0,0295_rot_dnn_0_dog_20_n02102177_7968.png,n02102177_7968.png,1.0,0.8472653,0.028937027,0.57864547
alexnet_w1_mlp_simclrhn_probe2,1,296,NaN,bottle,knife,270,0296_rot_dnn_270_knife_20_n03041632_15099.png,n03041632_15099.png,0.0,-1.6837695,-1.3458635,-0.23893563
alexnet_w1_mlp_simclrhn_probe2,1,297,NaN,oven,oven,180,0297_rot_dnn_180_oven_20_n04111531_2937.png,n04111531_2937.png,1.0,3.7023592,1.1268417,1.821166
alexnet_w1_mlp_simclrhn_probe2,1,298,NaN,cat,cat,0,0298_rot_dnn_0_cat_20_n02123394_3695.png,n02123394_3695.png,1.0,2.3280559,0.86643845,1.0335196
alexnet_w1_mlp_simclrhn_probe2,1,299,NaN,bottle,bear,180,0299_rot_dnn_180_bear_20_n02134084_3696.png,n02134084_3696.png,0.0,-2.2953806,-0.9628943,-0.9422101
alexnet_w1_mlp_simclrhn_probe2,1,300,NaN,knife,oven,270,0300_rot_dnn_270_oven_20_n04111531_4671.png,n04111531_4671.png,0.0,-1.2427256,-0.950426,-0.20668705
alexnet_w1_mlp_simclrhn_probe2,1,301,NaN,bear,bear,180,0301_rot_dnn_180_bear_20_n02133161_2741.png,n02133161_2741.png,1.0,-0.09153968,-0.6873839,0.42132547
alexnet_w1_mlp_simclrhn_probe2,1,302,NaN,clock,boat,90,0302_rot_dnn_90_boat_20_n03662601_3893.png,n03662601_3893.png,0.0,-1.9745375,0.38477206,-1.6682839
alexnet_w1_mlp_simclrhn_probe2,1,303,NaN,clock,boat,90,0303_rot_dnn_90_boat_20_n03344393_2790.png,n03344393_2790.png,0.0,-2.113749,-0.22867303,-1.3329501
alexnet_w1_mlp_simclrhn_probe2,1,304,NaN,keyboard,keyboard,180,0304_rot_dnn_180_keyboard_20_n03085013_3920.png,n03085013_3920.png,1.0,3.022421,1.6900765,0.94210976
alexnet_w1_mlp_simclrhn_probe2,1,305,NaN,oven,chair,90,0305_rot_dnn_90_chair_20_n04099969_1962.png,n04099969_1962.png,0.0,1.1109657,1.369046,-0.18249029
alexnet_w1_mlp_simclrhn_probe2,1,306,NaN,knife,knife,0,0306_rot_dnn_0_knife_20_n03041632_13846.png,n03041632_13846.png,1.0,-0.10594465,-0.5226114,0.29462788
alexnet_w1_mlp_simclrhn_probe2,1,307,NaN,bicycle,boat,0,0307_rot_dnn_0_boat_20_n02951358_30117.png,n02951358_30117.png,0.0,1.2480268,2.6702046,-1.0056316
alexnet_w1_mlp_simclrhn_probe2,1,308,NaN,oven,elephant,270,0308_rot_dnn_270_elephant_20_n02504458_9922.png,n02504458_9922.png,0.0,-1.667262,-1.5800295,-0.06168267
alexnet_w1_mlp_simclrhn_probe2,1,309,NaN,bottle,boat,180,0309_rot_dnn_180_boat_20_n03344393_5609.png,n03344393_5609.png,0.0,-0.17985041,0.13232855,-0.22074386
alexnet_w1_mlp_simclrhn_probe2,1,310,NaN,bottle,chair,0,0310_rot_dnn_0_chair_20_n02791124_3180.png,n02791124_3180.png,0.0,1.7361047,1.7586119,-0.015914988
alexnet_w1_mlp_simclrhn_probe2,1,311,NaN,elephant,boat,90,0311_rot_dnn_90_boat_20_n02951358_12532.png,n02951358_12532.png,0.0,-2.0376787,0.5235243,-1.8110441
alexnet_w1_mlp_simclrhn_probe2,1,312,NaN,cat,cat,180,0312_rot_dnn_180_cat_20_n02123597_1901.png,n02123597_1901.png,1.0,1.1780658,-0.7174675,1.3403445
alexnet_w1_mlp_simclrhn_probe2,1,313,NaN,elephant,elephant,270,0313_rot_dnn_270_elephant_20_n02504013_5173.png,n02504013_5173.png,1.0,-1.1590773,-1.4477072,0.20409216
alexnet_w1_mlp_simclrhn_probe2,1,314,NaN,clock,car,180,0314_rot_dnn_180_car_20_n04285008_4834.png,n04285008_4834.png,0.0,-0.41701758,1.2271897,-1.1626301
alexnet_w1_mlp_simclrhn_probe2,1,315,NaN,keyboard,truck,270,0315_rot_dnn_270_truck_20_n03417042_28584.png,n03417042_28584.png,0.0,-1.9649231,0.77194124,-1.9352554
alexnet_w1_mlp_simclrhn_probe2,1,316,NaN,cat,dog,180,0316_rot_dnn_180_dog_20_n02093428_11151.png,n02093428_11151.png,0.0,-1.0815593,-0.07867078,-0.7091493
alexnet_w1_mlp_simclrhn_probe2,1,317,NaN,oven,bicycle,90,0317_rot_dnn_90_bicycle_20_n03792782_1475.png,n03792782_1475.png,0.0,-2.9556797,0.4389116,-2.4003386
alexnet_w1_mlp_simclrhn_probe2,1,318,NaN,oven,knife,0,0318_rot_dnn_0_knife_20_n03041632_8666.png,n03041632_8666.png,0.0,0.17630781,1.4902836,-0.9291212
alexnet_w1_mlp_simclrhn_probe2,1,319,NaN,clock,clock,0,0319_rot_dnn_0_clock_20_n04548280_253.png,n04548280_253.png,1.0,1.7806553,0.53811526,0.87860847
alexnet_w1_mlp_simclrhn_probe2,1,320,NaN,airplane,airplane,180,0320_rot_dnn_180_airplane_20_n02690373_9441.png,n02690373_9441.png,1.0,5.298088,1.4635977,2.711394
alexnet_w1_mlp_simclrhn_probe2,1,321,NaN,bicycle,airplane,270,0321_rot_dnn_270_airplane_20_n02690373_1946.png,n02690373_1946.png,0.0,-1.9590358,-0.13235182,-1.2916607
alexnet_w1_mlp_simclrhn_probe2,1,322,NaN,car,car,90,0322_rot_dnn_90_car_20_n03100240_5044.png,n03100240_5044.png,1.0,0.124589324,-0.09940333,0.15838672
alexnet_w1_mlp_simclrhn_probe2,1,323,NaN,cat,dog,270,0323_rot_dnn_270_dog_20_n02111500_6559.png,n02111500_6559.png,0.0,-0.26636627,0.99245304,-0.89011973
alexnet_w1_mlp_simclrhn_probe2,1,324,NaN,bear,dog,270,0324_rot_dnn_270_dog_20_n02096051_1852.png,n02096051_1852.png,0.0,-3.2659335,-1.8914416,-0.97191256
alexnet_w1_mlp_simclrhn_probe2,1,325,NaN,elephant,bear,270,0325_rot_dnn_270_bear_20_n02133161_5020.png,n02133161_5020.png,0.0,-0.40421554,-0.33570924,-0.048441272
alexnet_w1_mlp_simclrhn_probe2,1,326,NaN,oven,chair,90,0326_rot_dnn_90_chair_20_n02791124_2034.png,n02791124_2034.png,0.0,0.99313915,1.0904523,-0.0688108
alexnet_w1_mlp_simclrhn_probe2,1,327,NaN,clock,clock,180,0327_rot_dnn_180_clock_20_n03196217_6526.png,n03196217_6526.png,1.0,2.2680838,0.28233773,1.4041346
alexnet_w1_mlp_simclrhn_probe2,1,328,NaN,truck,oven,180,0328_rot_dnn_180_oven_20_n04111531_9779.png,n04111531_9779.png,0.0,1.1562219,1.3060822,-0.10596729
alexnet_w1_mlp_simclrhn_probe2,1,329,NaN,boat,boat,0,0329_rot_dnn_0_boat_20_n03662601_28640.png,n03662601_28640.png,1.0,5.767636,0.5175001,3.7124069
alexnet_w1_mlp_simclrhn_probe2,1,330,NaN,knife,knife,90,0330_rot_dnn_90_knife_20_n03041632_31301.png,n03041632_31301.png,1.0,1.7841839,-0.301912,1.4750925
alexnet_w1_mlp_simclrhn_probe2,1,331,NaN,keyboard,keyboard,90,0331_rot_dnn_90_keyboard_20_n03085013_9209.png,n03085013_9209.png,1.0,4.496773,3.3194244,0.832511
alexnet_w1_mlp_simclrhn_probe2,1,332,NaN,oven,elephant,90,0332_rot_dnn_90_elephant_20_n02504458_113.png,n02504458_113.png,0.0,-1.453784,-0.86113125,-0.41906878
alexnet_w1_mlp_simclrhn_probe2,1,333,NaN,bicycle,bicycle,180,0333_rot_dnn_180_bicycle_20_n03792782_6058.png,n03792782_6058.png,1.0,0.62269676,-0.8551011,1.0449609
alexnet_w1_mlp_simclrhn_probe2,1,334,NaN,keyboard,keyboard,0,0334_rot_dnn_0_keyboard_20_n04505470_4651.png,n04505470_4651.png,1.0,10.92669,1.542515,6.635614
alexnet_w1_mlp_simclrhn_probe2,1,335,NaN,keyboard,keyboard,180,0335_rot_dnn_180_keyboard_20_n03085013_7009.png,n03085013_7009.png,1.0,1.0481646,0.24709094,0.56644464
alexnet_w1_mlp_simclrhn_probe2,1,336,NaN,bottle,truck,270,0336_rot_dnn_270_truck_20_n04467665_44390.png,n04467665_44390.png,0.0,-1.3051267,1.37666,-1.8963095
alexnet_w1_mlp_simclrhn_probe2,1,337,NaN,elephant,boat,90,0337_rot_dnn_90_boat_20_n04273569_17340.png,n04273569_17340.png,0.0,-2.6029732,-0.55604875,-1.4473943
alexnet_w1_mlp_simclrhn_probe2,1,338,NaN,elephant,elephant,0,0338_rot_dnn_0_elephant_20_n02504013_1333.png,n02504013_1333.png,1.0,2.8691206,-0.062143534,2.0727167
alexnet_w1_mlp_simclrhn_probe2,1,339,NaN,knife,knife,270,0339_rot_dnn_270_knife_20_n03041632_50034.png,n03041632_50034.png,1.0,1.777852,0.29590127,1.0478975
alexnet_w1_mlp_simclrhn_probe2,1,340,NaN,bottle,clock,90,0340_rot_dnn_90_clock_20_n02708093_2740.png,n02708093_2740.png,0.0,0.26863322,0.31590816,-0.033428438
alexnet_w1_mlp_simclrhn_probe2,1,341,NaN,bear,bear,0,0341_rot_dnn_0_bear_20_n02132136_13975.png,n02132136_13975.png,1.0,9.657597,5.0596356,3.2512493
alexnet_w1_mlp_simclrhn_probe2,1,342,NaN,elephant,elephant,90,0342_rot_dnn_90_elephant_20_n02504013_256.png,n02504013_256.png,1.0,0.39443025,-0.1852782,0.40991578
alexnet_w1_mlp_simclrhn_probe2,1,343,NaN,bicycle,boat,90,0343_rot_dnn_90_boat_20_n03344393_6588.png,n03344393_6588.png,0.0,-1.7080925,0.39383897,-1.48629
alexnet_w1_mlp_simclrhn_probe2,1,344,NaN,knife,knife,270,0344_rot_dnn_270_knife_20_n03041632_7173.png,n03041632_7173.png,1.0,1.0395746,-0.3833036,1.0061269
alexnet_w1_mlp_simclrhn_probe2,1,345,NaN,boat,elephant,180,0345_rot_dnn_180_elephant_20_n02504458_1041.png,n02504458_1041.png,0.0,-0.7166231,-0.4940825,-0.15735999
alexnet_w1_mlp_simclrhn_probe2,1,346,NaN,keyboard,chair,180,0346_rot_dnn_180_chair_20_n04099969_8021.png,n04099969_8021.png,0.0,0.33606434,0.46452144,-0.09083289
alexnet_w1_mlp_simclrhn_probe2,1,347,NaN,truck,truck,0,0347_rot_dnn_0_truck_20_n03796401_1791.png,n03796401_1791.png,1.0,6.9543686,1.2268728,4.049951
alexnet_w1_mlp_simclrhn_probe2,1,348,NaN,keyboard,keyboard,90,0348_rot_dnn_90_keyboard_20_n04505470_5007.png,n04505470_5007.png,1.0,1.5955722,0.5411745,0.74557185
alexnet_w1_mlp_simclrhn_probe2,1,349,NaN,oven,truck,180,0349_rot_dnn_180_truck_20_n03417042_29384.png,n03417042_29384.png,0.0,0.32482535,0.4799915,-0.10971904
alexnet_w1_mlp_simclrhn_probe2,1,350,NaN,bird,bird,90,0350_rot_dnn_90_bird_20_n01534433_1271.png,n01534433_1271.png,1.0,0.5391605,0.45870358,0.056891628
alexnet_w1_mlp_simclrhn_probe2,1,351,NaN,cat,dog,270,0351_rot_dnn_270_dog_20_n02113624_393.png,n02113624_393.png,0.0,-0.6307888,2.2938058,-2.0680008
alexnet_w1_mlp_simclrhn_probe2,1,352,NaN,oven,cat,90,0352_rot_dnn_90_cat_20_n02123159_5461.png,n02123159_5461.png,0.0,-1.5442473,-1.434199,-0.0778159
alexnet_w1_mlp_simclrhn_probe2,1,353,NaN,oven,knife,270,0353_rot_dnn_270_knife_20_n03041632_9759.png,n03041632_9759.png,0.0,-0.6821102,-0.27014095,-0.29130626
alexnet_w1_mlp_simclrhn_probe2,1,354,NaN,clock,chair,90,0354_rot_dnn_90_chair_20_n04429376_1754.png,n04429376_1754.png,0.0,-1.5249677,-1.1948568,-0.23342367
alexnet_w1_mlp_simclrhn_probe2,1,355,NaN,knife,oven,90,0355_rot_dnn_90_oven_20_n04111531_1818.png,n04111531_1818.png,0.0,-2.0076792,0.13012362,-1.5116549
alexnet_w1_mlp_simclrhn_probe2,1,356,NaN,clock,clock,0,0356_rot_dnn_0_clock_20_n04548280_5798.png,n04548280_5798.png,1.0,4.051424,0.39733043,2.5838344
alexnet_w1_mlp_simclrhn_probe2,1,357,NaN,oven,oven,90,0357_rot_dnn_90_oven_20_n04111531_3099.png,n04111531_3099.png,1.0,0.6507644,-0.06300843,0.5047136
alexnet_w1_mlp_simclrhn_probe2,1,358,NaN,clock,bottle,270,0358_rot_dnn_270_bottle_20_n04557648_581.png,n04557648_581.png,0.0,-0.0015299724,1.5916762,-1.1265669
alexnet_w1_mlp_simclrhn_probe2,1,359,NaN,bird,bird,0,0359_rot_dnn_0_bird_20_n01531178_3183.png,n01531178_3183.png,1.0,0.27073386,-0.9601654,0.8703772
alexnet_w1_mlp_simclrhn_probe2,1,360,NaN,clock,airplane,90,0360_rot_dnn_90_airplane_20_n02690373_8872.png,n02690373_8872.png,0.0,-1.7705202,-0.31946704,-1.0260495
alexnet_w1_mlp_simclrhn_probe2,1,361,NaN,cat,cat,0,0361_rot_dnn_0_cat_20_n02123394_5301.png,n02123394_5301.png,1.0,-0.10708141,-0.12522626,0.012830344
alexnet_w1_mlp_simclrhn_probe2,1,362,NaN,bicycle,bicycle,270,0362_rot_dnn_270_bicycle_20_n03792782_12844.png,n03792782_12844.png,1.0,1.1656917,-1.0766072,1.585545
alexnet_w1_mlp_simclrhn_probe2,1,363,NaN,cat,bear,90,0363_rot_dnn_90_bear_20_n02132136_2691.png,n02132136_2691.png,0.0,1.4921597,1.6365215,-0.10207916
alexnet_w1_mlp_simclrhn_probe2,1,364,NaN,car,car,0,0364_rot_dnn_0_car_20_n02814533_27327.png,n02814533_27327.png,1.0,4.294746,3.9739997,0.22680181
alexnet_w1_mlp_simclrhn_probe2,1,365,NaN,bird,bird,0,0365_rot_dnn_0_bird_20_n02027492_7653.png,n02027492_7653.png,1.0,0.85623395,-0.28934708,0.8100481
alexnet_w1_mlp_simclrhn_probe2,1,366,NaN,bear,bear,0,0366_rot_dnn_0_bear_20_n02133161_62.png,n02133161_62.png,1.0,5.0703025,3.1634989,1.3483138
alexnet_w1_mlp_simclrhn_probe2,1,367,NaN,bottle,bottle,0,0367_rot_dnn_0_bottle_20_n04560804_9710.png,n04560804_9710.png,1.0,2.3836725,-2.1845727,3.230237
alexnet_w1_mlp_simclrhn_probe2,1,368,NaN,chair,clock,180,0368_rot_dnn_180_clock_20_n04548280_15154.png,n04548280_15154.png,0.0,0.911674,1.409195,-0.3518004
alexnet_w1_mlp_simclrhn_probe2,1,369,NaN,oven,oven,180,0369_rot_dnn_180_oven_20_n04111531_114.png,n04111531_114.png,1.0,1.3472573,-0.6180651,1.3896928
alexnet_w1_mlp_simclrhn_probe2,1,370,NaN,cat,cat,180,0370_rot_dnn_180_cat_20_n02125311_24813.png,n02125311_24813.png,1.0,-0.9066104,-1.8401418,0.66010636
alexnet_w1_mlp_simclrhn_probe2,1,371,NaN,chair,airplane,90,0371_rot_dnn_90_airplane_20_n02690373_7647.png,n02690373_7647.png,0.0,-2.0793066,-0.2102795,-1.3216017
alexnet_w1_mlp_simclrhn_probe2,1,372,NaN,bottle,bottle,0,0372_rot_dnn_0_bottle_20_n03983396_9823.png,n03983396_9823.png,1.0,2.1794996,-0.83110666,2.1288202
alexnet_w1_mlp_simclrhn_probe2,1,373,NaN,bear,bear,0,0373_rot_dnn_0_bear_20_n02134418_2398.png,n02134418_2398.png,1.0,1.0595064,0.8925873,0.11802964
alexnet_w1_mlp_simclrhn_probe2,1,374,NaN,keyboard,keyboard,90,0374_rot_dnn_90_keyboard_20_n04505470_4584.png,n04505470_4584.png,1.0,0.9744958,0.8632078,0.07869251
alexnet_w1_mlp_simclrhn_probe2,1,375,NaN,keyboard,keyboard,0,0375_rot_dnn_0_keyboard_20_n04505470_10055.png,n04505470_10055.png,1.0,2.5525026,0.6936441,1.3144115
alexnet_w1_mlp_simclrhn_probe2,1,376,NaN,knife,boat,270,0376_rot_dnn_270_boat_20_n04273569_10980.png,n04273569_10980.png,0.0,-1.7587202,0.13193175,-1.3368928
alexnet_w1_mlp_simclrhn_probe2,1,377,NaN,car,car,180,0377_rot_dnn_180_car_20_n03100240_16210.png,n03100240_16210.png,1.0,2.884403,1.3427913,1.0900841
alexnet_w1_mlp_simclrhn_probe2,1,378,NaN,keyboard,keyboard,0,0378_rot_dnn_0_keyboard_20_n04505470_1067.png,n04505470_1067.png,1.0,11.163923,1.1738595,7.064042
alexnet_w1_mlp_simclrhn_probe2,1,379,NaN,elephant,elephant,0,0379_rot_dnn_0_elephant_20_n02504458_7867.png,n02504458_7867.png,1.0,9.166405,1.8494257,5.1738853
alexnet_w1_mlp_simclrhn_probe2,1,380,NaN,keyboard,keyboard,180,0380_rot_dnn_180_keyboard_20_n04505470_807.png,n04505470_807.png,1.0,5.201375,2.1191003,2.1794975
alexnet_w1_mlp_simclrhn_probe2,1,381,NaN,bicycle,bicycle,270,0381_rot_dnn_270_bicycle_20_n02835271_24104.png,n02835271_24104.png,1.0,1.0108964,-0.6277474,1.1586962
alexnet_w1_mlp_simclrhn_probe2,1,382,NaN,knife,bottle,0,0382_rot_dnn_0_bottle_20_n03937543_6698.png,n03937543_6698.png,0.0,-0.43103033,0.32903683,-0.53744864
alexnet_w1_mlp_simclrhn_probe2,1,383,NaN,bicycle,oven,0,0383_rot_dnn_0_oven_20_n04111531_10403.png,n04111531_10403.png,0.0,-1.4139696,1.4504536,-2.025453
alexnet_w1_mlp_simclrhn_probe2,1,384,NaN,truck,truck,0,0384_rot_dnn_0_truck_20_n03796401_8463.png,n03796401_8463.png,1.0,8.993279,2.3539956,4.694683
alexnet_w1_mlp_simclrhn_probe2,1,385,NaN,truck,truck,0,0385_rot_dnn_0_truck_20_n03796401_8176.png,n03796401_8176.png,1.0,3.0246642,1.5375599,1.0515416
alexnet_w1_mlp_simclrhn_probe2,1,386,NaN,knife,bottle,90,0386_rot_dnn_90_bottle_20_n03937543_984.png,n03937543_984.png,0.0,-0.3279615,0.71431655,-0.7370019
alexnet_w1_mlp_simclrhn_probe2,1,387,NaN,chair,bicycle,90,0387_rot_dnn_90_bicycle_20_n02835271_11697.png,n02835271_11697.png,0.0,-0.59277546,-0.4923306,-0.07102524
alexnet_w1_mlp_simclrhn_probe2,1,388,NaN,keyboard,keyboard,270,0388_rot_dnn_270_keyboard_20_n03085013_22417.png,n03085013_22417.png,1.0,1.075046,0.88573223,0.13386501
alexnet_w1_mlp_simclrhn_probe2,1,389,NaN,chair,car,270,0389_rot_dnn_270_car_20_n03100240_7602.png,n03100240_7602.png,0.0,-0.43051133,0.63701886,-0.75485784
alexnet_w1_mlp_simclrhn_probe2,1,390,NaN,bird,bird,90,0390_rot_dnn_90_bird_20_n01534433_14389.png,n01534433_14389.png,1.0,0.78055394,-1.7188044,1.7673131
alexnet_w1_mlp_simclrhn_probe2,1,391,NaN,cat,bear,0,0391_rot_dnn_0_bear_20_n02134084_2598.png,n02134084_2598.png,0.0,1.6066012,2.7906563,-0.8372534
alexnet_w1_mlp_simclrhn_probe2,1,392,NaN,bird,bird,180,0392_rot_dnn_180_bird_20_n01560419_19599.png,n01560419_19599.png,1.0,0.08622424,-4.5584126,3.284254
alexnet_w1_mlp_simclrhn_probe2,1,393,NaN,knife,bicycle,90,0393_rot_dnn_90_bicycle_20_n02835271_8747.png,n02835271_8747.png,0.0,-1.1713302,-1.146727,-0.017397124
alexnet_w1_mlp_simclrhn_probe2,1,394,NaN,oven,knife,180,0394_rot_dnn_180_knife_20_n03041632_30821.png,n03041632_30821.png,0.0,-0.82780993,0.8251464,-1.1688166
alexnet_w1_mlp_simclrhn_probe2,1,395,NaN,knife,chair,270,0395_rot_dnn_270_chair_20_n03376595_209.png,n03376595_209.png,0.0,-2.263369,-1.2822018,-0.6937901
alexnet_w1_mlp_simclrhn_probe2,1,396,NaN,bicycle,boat,180,0396_rot_dnn_180_boat_20_n04273569_29113.png,n04273569_29113.png,0.0,-0.7377912,0.39183283,-0.7987648
alexnet_w1_mlp_simclrhn_probe2,1,397,NaN,bird,bird,270,0397_rot_dnn_270_bird_20_n02006656_6435.png,n02006656_6435.png,1.0,1.289872,-2.7714853,2.8718135
alexnet_w1_mlp_simclrhn_probe2,1,398,NaN,chair,airplane,90,0398_rot_dnn_90_airplane_20_n02690373_3492.png,n02690373_3492.png,0.0,-4.6819525,1.092539,-4.083182
alexnet_w1_mlp_simclrhn_probe2,1,399,NaN,oven,oven,270,0399_rot_dnn_270_oven_20_n04111531_9380.png,n04111531_9380.png,1.0,2.2564669,-2.6782303,3.489358
alexnet_w1_mlp_simclrhn_probe2,1,400,NaN,keyboard,keyboard,270,0400_rot_dnn_270_keyboard_20_n04505470_510.png,n04505470_510.png,1.0,0.95570457,0.3759064,0.40997922
alexnet_w1_mlp_simclrhn_probe2,1,401,NaN,bird,bird,180,0401_rot_dnn_180_bird_20_n02027492_20576.png,n02027492_20576.png,1.0,-0.8087258,-1.8764544,0.7549981
alexnet_w1_mlp_simclrhn_probe2,1,402,NaN,knife,bird,90,0402_rot_dnn_90_bird_20_n01855032_1920.png,n01855032_1920.png,0.0,-2.0819783,-0.47231174,-1.1382061
alexnet_w1_mlp_simclrhn_probe2,1,403,NaN,airplane,boat,180,0403_rot_dnn_180_boat_20_n04273569_15761.png,n04273569_15761.png,0.0,1.1064816,1.8062391,-0.49480334
alexnet_w1_mlp_simclrhn_probe2,1,404,NaN,oven,oven,180,0404_rot_dnn_180_oven_20_n04111531_10667.png,n04111531_10667.png,1.0,4.991827,-2.2738652,5.1376204
alexnet_w1_mlp_simclrhn_probe2,1,405,NaN,knife,knife,270,0405_rot_dnn_270_knife_20_n03041632_36215.png,n03041632_36215.png,1.0,1.9669534,-0.47998464,1.7302465
alexnet_w1_mlp_simclrhn_probe2,1,406,NaN,bicycle,bicycle,180,0406_rot_dnn_180_bicycle_20_n02835271_2625.png,n02835271_2625.png,1.0,2.7538877,-0.6949861,2.4387221
alexnet_w1_mlp_simclrhn_probe2,1,407,NaN,bicycle,bird,270,0407_rot_dnn_270_bird_20_n02028035_20411.png,n02028035_20411.png,0.0,-0.60112816,-0.4667355,-0.09502996
alexnet_w1_mlp_simclrhn_probe2,1,408,NaN,knife,knife,0,0408_rot_dnn_0_knife_20_n03041632_25656.png,n03041632_25656.png,1.0,0.5493225,-0.77345765,0.93534684
alexnet_w1_mlp_simclrhn_probe2,1,409,NaN,oven,oven,270,0409_rot_dnn_270_oven_20_n04111531_4332.png,n04111531_4332.png,1.0,0.05399742,0.021780342,0.022780914
alexnet_w1_mlp_simclrhn_probe2,1,410,NaN,keyboard,keyboard,180,0410_rot_dnn_180_keyboard_20_n04505470_3553.png,n04505470_3553.png,1.0,2.4259453,0.3133994,1.4937956
alexnet_w1_mlp_simclrhn_probe2,1,411,NaN,bicycle,bicycle,180,0411_rot_dnn_180_bicycle_20_n02835271_18706.png,n02835271_18706.png,1.0,1.2885275,0.4512095,0.59207326
alexnet_w1_mlp_simclrhn_probe2,1,412,NaN,chair,truck,270,0412_rot_dnn_270_truck_20_n03417042_10744.png,n03417042_10744.png,0.0,0.096959546,1.7455363,-1.1657199
alexnet_w1_mlp_simclrhn_probe2,1,413,NaN,clock,clock,0,0413_rot_dnn_0_clock_20_n03196217_11724.png,n03196217_11724.png,1.0,3.6999362,1.6796942,1.4285269
alexnet_w1_mlp_simclrhn_probe2,1,414,NaN,bicycle,bicycle,270,0414_rot_dnn_270_bicycle_20_n02835271_14123.png,n02835271_14123.png,1.0,1.3006034,0.08491188,0.8596238
alexnet_w1_mlp_simclrhn_probe2,1,415,NaN,oven,bicycle,270,0415_rot_dnn_270_bicycle_20_n02835271_7900.png,n02835271_7900.png,0.0,-1.8482864,0.6373208,-1.7575897
alexnet_w1_mlp_simclrhn_probe2,1,416,NaN,truck,truck,270,0416_rot_dnn_270_truck_20_n03417042_2153.png,n03417042_2153.png,1.0,1.0765665,0.45853895,0.43701145
alexnet_w1_mlp_simclrhn_probe2,1,417,NaN,bear,bicycle,270,0417_rot_dnn_270_bicycle_20_n03792782_10129.png,n03792782_10129.png,0.0,-2.7179818,0.3909511,-2.1983476
alexnet_w1_mlp_simclrhn_probe2,1,418,NaN,bird,bird,180,0418_rot_dnn_180_bird_20_n01514859_18430.png,n01514859_18430.png,1.0,-0.07819471,-1.6603464,1.1187502
alexnet_w1_mlp_simclrhn_probe2,1,419,NaN,chair,chair,0,0419_rot_dnn_0_chair_20_n04099969_5010.png,n04099969_5010.png,1.0,3.522545,1.017982,1.7709936
alexnet_w1_mlp_simclrhn_probe2,1,420,NaN,chair,truck,0,0420_rot_dnn_0_truck_20_n03796401_588.png,n03796401_588.png,0.0,1.556875,2.271847,-0.5055616
alexnet_w1_mlp_simclrhn_probe2,1,421,NaN,car,car,0,0421_rot_dnn_0_car_20_n02814533_486.png,n02814533_486.png,1.0,10.621318,6.936093,2.6058476
alexnet_w1_mlp_simclrhn_probe2,1,422,NaN,oven,elephant,90,0422_rot_dnn_90_elephant_20_n02504013_3540.png,n02504013_3540.png,0.0,-1.97528,0.23359987,-1.561914
alexnet_w1_mlp_simclrhn_probe2,1,423,NaN,bicycle,car,180,0423_rot_dnn_180_car_20_n02814533_55715.png,n02814533_55715.png,0.0,-3.6808128,-0.68851566,-2.1158736
alexnet_w1_mlp_simclrhn_probe2,1,424,NaN,knife,bottle,180,0424_rot_dnn_180_bottle_20_n03983396_10896.png,n03983396_10896.png,0.0,-0.22715595,0.024563074,-0.17799224
alexnet_w1_mlp_simclrhn_probe2,1,425,NaN,bottle,bottle,90,0425_rot_dnn_90_bottle_20_n04557648_15053.png,n04557648_15053.png,1.0,1.7689173,0.19875751,1.1102706
alexnet_w1_mlp_simclrhn_probe2,1,426,NaN,car,car,0,0426_rot_dnn_0_car_20_n04285008_8281.png,n04285008_8281.png,1.0,11.619365,5.103229,4.607604
alexnet_w1_mlp_simclrhn_probe2,1,427,NaN,bottle,car,270,0427_rot_dnn_270_car_20_n02814533_38596.png,n02814533_38596.png,0.0,-1.6627339,1.9435065,-2.549997
alexnet_w1_mlp_simclrhn_probe2,1,428,NaN,oven,elephant,270,0428_rot_dnn_270_elephant_20_n02504013_15219.png,n02504013_15219.png,0.0,-0.22090454,0.46124333,-0.4823514
alexnet_w1_mlp_simclrhn_probe2,1,429,NaN,elephant,elephant,180,0429_rot_dnn_180_elephant_20_n02504013_828.png,n02504013_828.png,1.0,2.445922,0.07790857,1.6744384
alexnet_w1_mlp_simclrhn_probe2,1,430,NaN,oven,oven,180,0430_rot_dnn_180_oven_20_n04111531_1439.png,n04111531_1439.png,1.0,6.2040424,-2.082216,5.8592696
alexnet_w1_mlp_simclrhn_probe2,1,431,NaN,bottle,bottle,90,0431_rot_dnn_90_bottle_20_n03983396_3315.png,n03983396_3315.png,1.0,-0.27820447,-0.56565523,0.20325838
alexnet_w1_mlp_simclrhn_probe2,1,432,NaN,airplane,airplane,90,0432_rot_dnn_90_airplane_20_n02690373_4024.png,n02690373_4024.png,1.0,0.09753193,-0.113740586,0.14939223
alexnet_w1_mlp_simclrhn_probe2,1,433,NaN,knife,elephant,270,0433_rot_dnn_270_elephant_20_n02504013_10301.png,n02504013_10301.png,0.0,-1.5467236,-0.03697131,-1.0675561
alexnet_w1_mlp_simclrhn_probe2,1,434,NaN,oven,oven,180,0434_rot_dnn_180_oven_20_n04111531_7067.png,n04111531_7067.png,1.0,3.539995,-0.10532321,2.5776293
alexnet_w1_mlp_simclrhn_probe2,1,435,NaN,knife,knife,90,0435_rot_dnn_90_knife_20_n03041632_36834.png,n03041632_36834.png,1.0,1.5681255,0.22008365,0.9532095
alexnet_w1_mlp_simclrhn_probe2,1,436,NaN,chair,car,90,0436_rot_dnn_90_car_20_n02814533_18148.png,n02814533_18148.png,0.0,0.22992294,1.2659727,-0.7325979
alexnet_w1_mlp_simclrhn_probe2,1,437,NaN,elephant,cat,90,0437_rot_dnn_90_cat_20_n02125311_41284.png,n02125311_41284.png,0.0,-0.21569653,0.67929196,-0.63285244
alexnet_w1_mlp_simclrhn_probe2,1,438,NaN,bicycle,bicycle,0,0438_rot_dnn_0_bicycle_20_n02835271_18188.png,n02835271_18188.png,1.0,8.963955,-0.105255604,6.4129
alexnet_w1_mlp_simclrhn_probe2,1,439,NaN,bottle,bottle,0,0439_rot_dnn_0_bottle_20_n04591713_2903.png,n04591713_2903.png,1.0,3.2340457,1.0717316,1.528987
alexnet_w1_mlp_simclrhn_probe2,1,440,NaN,knife,knife,0,0440_rot_dnn_0_knife_20_n03041632_54191.png,n03041632_54191.png,1.0,0.8846637,0.5945527,0.20513946
alexnet_w1_mlp_simclrhn_probe2,1,441,NaN,truck,truck,180,0441_rot_dnn_180_truck_20_n03417042_8867.png,n03417042_8867.png,1.0,0.96677285,0.49408185,0.33424303
alexnet_w1_mlp_simclrhn_probe2,1,442,NaN,knife,oven,270,0442_rot_dnn_270_oven_20_n04111531_8421.png,n04111531_8421.png,0.0,0.062098388,0.12281841,-0.04293554
alexnet_w1_mlp_simclrhn_probe2,1,443,NaN,bear,elephant,270,0443_rot_dnn_270_elephant_20_n02504013_4062.png,n02504013_4062.png,0.0,0.32241705,0.6643698,-0.24179713
alexnet_w1_mlp_simclrhn_probe2,1,444,NaN,keyboard,keyboard,270,0444_rot_dnn_270_keyboard_20_n04505470_1649.png,n04505470_1649.png,1.0,4.145013,0.02543051,2.9129846
alexnet_w1_mlp_simclrhn_probe2,1,445,NaN,airplane,boat,180,0445_rot_dnn_180_boat_20_n03344393_7967.png,n03344393_7967.png,0.0,0.1363452,1.20979,-0.7590401
alexnet_w1_mlp_simclrhn_probe2,1,446,NaN,bicycle,bicycle,0,0446_rot_dnn_0_bicycle_20_n02835271_10265.png,n02835271_10265.png,1.0,8.283811,0.2337988,5.692218
alexnet_w1_mlp_simclrhn_probe2,1,447,NaN,chair,bicycle,180,0447_rot_dnn_180_bicycle_20_n02835271_6742.png,n02835271_6742.png,0.0,-0.7230447,0.0614651,-0.5547322
alexnet_w1_mlp_simclrhn_probe2,1,448,NaN,oven,cat,180,0448_rot_dnn_180_cat_20_n02123045_3168.png,n02123045_3168.png,0.0,-0.8445833,-0.81847024,-0.018464703
alexnet_w1_mlp_simclrhn_probe2,1,449,NaN,airplane,car,180,0449_rot_dnn_180_car_20_n03100240_8489.png,n03100240_8489.png,0.0,-0.010751228,1.3298521,-0.9479497
alexnet_w1_mlp_simclrhn_probe2,1,450,NaN,oven,oven,270,0450_rot_dnn_270_oven_20_n04111531_1826.png,n04111531_1826.png,1.0,0.6295458,0.34717655,0.19966522
alexnet_w1_mlp_simclrhn_probe2,1,451,NaN,bear,dog,180,0451_rot_dnn_180_dog_20_n02104365_1592.png,n02104365_1592.png,0.0,0.08864101,0.38630104,-0.21047743
alexnet_w1_mlp_simclrhn_probe2,1,452,NaN,knife,boat,90,0452_rot_dnn_90_boat_20_n02951358_4343.png,n02951358_4343.png,0.0,-4.449296,-1.2569535,-2.257327
alexnet_w1_mlp_simclrhn_probe2,1,453,NaN,bottle,bottle,0,0453_rot_dnn_0_bottle_20_n02823428_4282.png,n02823428_4282.png,1.0,9.858186,0.38050842,6.7017303
alexnet_w1_mlp_simclrhn_probe2,1,454,NaN,bird,bird,0,0454_rot_dnn_0_bird_20_n01817953_2043.png,n01817953_2043.png,1.0,0.24104169,-1.2806555,1.0760024
alexnet_w1_mlp_simclrhn_probe2,1,455,NaN,dog,dog,0,0455_rot_dnn_0_dog_20_n02110958_14369.png,n02110958_14369.png,1.0,-0.8737331,-2.8378637,1.3888501
alexnet_w1_mlp_simclrhn_probe2,1,456,NaN,dog,dog,270,0456_rot_dnn_270_dog_20_n02108000_1044.png,n02108000_1044.png,1.0,-0.5260573,-0.7727084,0.17440867
alexnet_w1_mlp_simclrhn_probe2,1,457,NaN,knife,dog,270,0457_rot_dnn_270_dog_20_n02087394_1428.png,n02087394_1428.png,0.0,-2.6050308,-0.02475828,-1.8245282
alexnet_w1_mlp_simclrhn_probe2,1,458,NaN,knife,airplane,90,0458_rot_dnn_90_airplane_20_n02690373_2856.png,n02690373_2856.png,0.0,-5.6516113,0.03458751,-4.0207496
alexnet_w1_mlp_simclrhn_probe2,1,459,NaN,chair,chair,0,0459_rot_dnn_0_chair_20_n03376595_19165.png,n03376595_19165.png,1.0,3.1659865,2.712145,0.32091436
alexnet_w1_mlp_simclrhn_probe2,1,460,NaN,chair,chair,270,0460_rot_dnn_270_chair_20_n04099969_42125.png,n04099969_42125.png,1.0,3.0342302,1.9955323,0.73447037
alexnet_w1_mlp_simclrhn_probe2,1,461,NaN,bottle,bottle,270,0461_rot_dnn_270_bottle_20_n02823428_12656.png,n02823428_12656.png,1.0,2.0752664,1.5069135,0.40188614
alexnet_w1_mlp_simclrhn_probe2,1,462,NaN,bicycle,bicycle,180,0462_rot_dnn_180_bicycle_20_n02835271_5861.png,n02835271_5861.png,1.0,3.5553293,-0.34750962,2.759724
alexnet_w1_mlp_simclrhn_probe2,1,463,NaN,airplane,airplane,90,0463_rot_dnn_90_airplane_20_n02690373_19345.png,n02690373_19345.png,1.0,1.3338286,0.31295532,0.7218664
alexnet_w1_mlp_simclrhn_probe2,1,464,NaN,clock,clock,90,0464_rot_dnn_90_clock_20_n02708093_8069.png,n02708093_8069.png,1.0,6.373077,0.676375,4.028177
alexnet_w1_mlp_simclrhn_probe2,1,465,NaN,chair,chair,270,0465_rot_dnn_270_chair_20_n04099969_16.png,n04099969_16.png,1.0,0.19186556,-0.5073953,0.49445212
alexnet_w1_mlp_simclrhn_probe2,1,466,NaN,dog,dog,270,0466_rot_dnn_270_dog_20_n02104365_1756.png,n02104365_1756.png,1.0,0.66997194,-1.1466737,1.2845625
alexnet_w1_mlp_simclrhn_probe2,1,467,NaN,bird,bird,270,0467_rot_dnn_270_bird_20_n01819313_17231.png,n01819313_17231.png,1.0,0.59885234,-1.7169601,1.6375266
alexnet_w1_mlp_simclrhn_probe2,1,468,NaN,bottle,car,90,0468_rot_dnn_90_car_20_n02814533_34149.png,n02814533_34149.png,0.0,-1.0065392,0.6284066,-1.1560813
alexnet_w1_mlp_simclrhn_probe2,1,469,NaN,knife,knife,0,0469_rot_dnn_0_knife_20_n03041632_26053.png,n03041632_26053.png,1.0,2.0205963,-1.6352491,2.5850732
alexnet_w1_mlp_simclrhn_probe2,1,470,NaN,oven,oven,0,0470_rot_dnn_0_oven_20_n04111531_11287.png,n04111531_11287.png,1.0,4.006142,1.0456268,2.0934007
alexnet_w1_mlp_simclrhn_probe2,1,471,NaN,knife,bottle,0,0471_rot_dnn_0_bottle_20_n03937543_11959.png,n03937543_11959.png,0.0,-0.57555944,0.87609243,-1.0264728
alexnet_w1_mlp_simclrhn_probe2,1,472,NaN,knife,airplane,270,0472_rot_dnn_270_airplane_20_n02690373_1348.png,n02690373_1348.png,0.0,-3.7101393,-0.06187959,-2.5797093
alexnet_w1_mlp_simclrhn_probe2,1,473,NaN,bear,bear,0,0473_rot_dnn_0_bear_20_n02132136_5175.png,n02132136_5175.png,1.0,4.0707607,3.4127474,0.46528572
alexnet_w1_mlp_simclrhn_probe2,1,474,NaN,knife,keyboard,270,0474_rot_dnn_270_keyboard_20_n03085013_7382.png,n03085013_7382.png,0.0,-2.476203,0.09957455,-1.8213497
alexnet_w1_mlp_simclrhn_probe2,1,475,NaN,oven,dog,270,0475_rot_dnn_270_dog_20_n02109961_4280.png,n02109961_4280.png,0.0,-0.9071273,-0.55026156,-0.2523422
alexnet_w1_mlp_simclrhn_probe2,1,476,NaN,oven,truck,90,0476_rot_dnn_90_truck_20_n03417042_1344.png,n03417042_1344.png,0.0,-2.2235508,0.86898434,-2.1867526
alexnet_w1_mlp_simclrhn_probe2,1,477,NaN,elephant,elephant,0,0477_rot_dnn_0_elephant_20_n02504013_9299.png,n02504013_9299.png,1.0,16.782032,4.1595206,8.925464
alexnet_w1_mlp_simclrhn_probe2,1,478,NaN,bear,bear,0,0478_rot_dnn_0_bear_20_n02134418_5527.png,n02134418_5527.png,1.0,3.5313282,0.1801633,2.3696313
alexnet_w1_mlp_simclrhn_probe2,1,479,NaN,keyboard,keyboard,270,0479_rot_dnn_270_keyboard_20_n03085013_23109.png,n03085013_23109.png,1.0,1.374863,0.8688822,0.35778248
alexnet_w1_mlp_simclrhn_probe2,1,480,NaN,bear,bear,180,0480_rot_dnn_180_bear_20_n02133161_4393.png,n02133161_4393.png,1.0,1.5771289,-0.39486578,1.3944108
alexnet_w1_mlp_simclrhn_probe2,1,481,NaN,oven,oven,0,0481_rot_dnn_0_oven_20_n04111531_73.png,n04111531_73.png,1.0,3.3120575,1.8596001,1.0270425
alexnet_w1_mlp_simclrhn_probe2,1,482,NaN,oven,keyboard,0,0482_rot_dnn_0_keyboard_20_n03085013_7613.png,n03085013_7613.png,0.0,0.8365564,1.1786634,-0.24190618
alexnet_w1_mlp_simclrhn_probe2,1,483,NaN,oven,oven,180,0483_rot_dnn_180_oven_20_n04111531_2795.png,n04111531_2795.png,1.0,4.0114856,-1.5762712,3.9511406
alexnet_w1_mlp_simclrhn_probe2,1,484,NaN,oven,oven,0,0484_rot_dnn_0_oven_20_n04111531_22517.png,n04111531_22517.png,1.0,4.866911,-0.62768304,3.8852649
alexnet_w1_mlp_simclrhn_probe2,1,485,NaN,oven,elephant,90,0485_rot_dnn_90_elephant_20_n02504458_2613.png,n02504458_2613.png,0.0,-1.2526379,-0.6560283,-0.4218667
alexnet_w1_mlp_simclrhn_probe2,1,486,NaN,oven,oven,180,0486_rot_dnn_180_oven_20_n04111531_9176.png,n04111531_9176.png,1.0,3.6616714,-1.944155,3.963918
alexnet_w1_mlp_simclrhn_probe2,1,487,NaN,bottle,bottle,180,0487_rot_dnn_180_bottle_20_n04557648_5790.png,n04557648_5790.png,1.0,4.359079,1.7140107,1.8703457
alexnet_w1_mlp_simclrhn_probe2,1,488,NaN,bottle,truck,90,0488_rot_dnn_90_truck_20_n04467665_9812.png,n04467665_9812.png,0.0,-1.3731588,0.5966638,-1.392875
alexnet_w1_mlp_simclrhn_probe2,1,489,NaN,bottle,bottle,0,0489_rot_dnn_0_bottle_20_n04591713_7476.png,n04591713_7476.png,1.0,0.40325993,-1.4800329,1.3316892
alexnet_w1_mlp_simclrhn_probe2,1,490,NaN,elephant,elephant,90,0490_rot_dnn_90_elephant_20_n02504458_1567.png,n02504458_1567.png,1.0,0.7805266,-0.017708361,0.5644373
alexnet_w1_mlp_simclrhn_probe2,1,491,NaN,clock,clock,90,0491_rot_dnn_90_clock_20_n04548280_6865.png,n04548280_6865.png,1.0,3.765721,-0.8718157,3.279234
alexnet_w1_mlp_simclrhn_probe2,1,492,NaN,bottle,bottle,180,0492_rot_dnn_180_bottle_20_n02823428_3.png,n02823428_3.png,1.0,3.8606343,-1.2128448,3.5874915
alexnet_w1_mlp_simclrhn_probe2,1,493,NaN,elephant,boat,90,0493_rot_dnn_90_boat_20_n04273569_8951.png,n04273569_8951.png,0.0,-2.223339,-0.25433898,-1.3922933
alexnet_w1_mlp_simclrhn_probe2,1,494,NaN,knife,knife,180,0494_rot_dnn_180_knife_20_n03041632_53874.png,n03041632_53874.png,1.0,1.2962422,-1.7002178,2.118817
alexnet_w1_mlp_simclrhn_probe2,1,495,NaN,clock,clock,0,0495_rot_dnn_0_clock_20_n04548280_6126.png,n04548280_6126.png,1.0,0.48540476,-0.4658019,0.6726047
alexnet_w1_mlp_simclrhn_probe2,1,496,NaN,cat,cat,180,0496_rot_dnn_180_cat_20_n02123597_6186.png,n02123597_6186.png,1.0,1.2792228,-0.70779705,1.4050353
alexnet_w1_mlp_simclrhn_probe2,1,497,NaN,cat,cat,270,0497_rot_dnn_270_cat_20_n02124075_14662.png,n02124075_14662.png,1.0,-0.70082116,-2.2665088,1.1071084
alexnet_w1_mlp_simclrhn_probe2,1,498,NaN,clock,car,90,0498_rot_dnn_90_car_20_n04285008_8677.png,n04285008_8677.png,0.0,-4.224047,0.578121,-3.3956459
alexnet_w1_mlp_simclrhn_probe2,1,499,NaN,bird,bird,90,0499_rot_dnn_90_bird_20_n01820546_2568.png,n01820546_2568.png,1.0,-1.1861618,-2.3488066,0.8221141
alexnet_w1_mlp_simclrhn_probe2,1,500,NaN,clock,clock,90,0500_rot_dnn_90_clock_20_n04548280_7354.png,n04548280_7354.png,1.0,0.9783501,0.29936612,0.4801142
alexnet_w1_mlp_simclrhn_probe2,1,501,NaN,clock,bicycle,270,0501_rot_dnn_270_bicycle_20_n03792782_586.png,n03792782_586.png,0.0,3.3693101,3.7023404,-0.23548794
alexnet_w1_mlp_simclrhn_probe2,1,502,NaN,bear,bear,0,0502_rot_dnn_0_bear_20_n02134084_572.png,n02134084_572.png,1.0,2.7799203,1.6048034,0.83093315
alexnet_w1_mlp_simclrhn_probe2,1,503,NaN,bicycle,bicycle,270,0503_rot_dnn_270_bicycle_20_n03792782_3388.png,n03792782_3388.png,1.0,-0.92658854,-1.63234,0.49904162
alexnet_w1_mlp_simclrhn_probe2,1,504,NaN,bicycle,bicycle,270,0504_rot_dnn_270_bicycle_20_n03792782_28970.png,n03792782_28970.png,1.0,10.635423,1.5339328,6.435725
alexnet_w1_mlp_simclrhn_probe2,1,505,NaN,oven,bottle,270,0505_rot_dnn_270_bottle_20_n04560804_11386.png,n04560804_11386.png,0.0,-0.10473976,2.1697733,-1.6083236
alexnet_w1_mlp_simclrhn_probe2,1,506,NaN,chair,chair,180,0506_rot_dnn_180_chair_20_n03376595_6799.png,n03376595_6799.png,1.0,2.976613,0.8591309,1.4972861
alexnet_w1_mlp_simclrhn_probe2,1,507,NaN,cat,dog,270,0507_rot_dnn_270_dog_20_n02094258_6398.png,n02094258_6398.png,0.0,-0.3761432,1.3005539,-1.185604
alexnet_w1_mlp_simclrhn_probe2,1,508,NaN,bird,bird,0,0508_rot_dnn_0_bird_20_n01592084_2639.png,n01592084_2639.png,1.0,3.8455434,-7.9548554,8.344142
alexnet_w1_mlp_simclrhn_probe2,1,509,NaN,bird,bird,180,0509_rot_dnn_180_bird_20_n02017213_4781.png,n02017213_4781.png,1.0,-0.30231816,-1.5238488,0.86375266
alexnet_w1_mlp_simclrhn_probe2,1,510,NaN,knife,airplane,270,0510_rot_dnn_270_airplane_20_n02690373_3818.png,n02690373_3818.png,0.0,-2.4706757,0.32454455,-1.9765193
alexnet_w1_mlp_simclrhn_probe2,1,511,NaN,bicycle,bicycle,90,0511_rot_dnn_90_bicycle_20_n03792782_26383.png,n03792782_26383.png,1.0,4.7883167,0.44879967,3.068502
alexnet_w1_mlp_simclrhn_probe2,1,512,NaN,oven,oven,90,0512_rot_dnn_90_oven_20_n04111531_5216.png,n04111531_5216.png,1.0,7.0359416,0.5549232,4.5827723
alexnet_w1_mlp_simclrhn_probe2,1,513,NaN,airplane,airplane,180,0513_rot_dnn_180_airplane_20_n02690373_20331.png,n02690373_20331.png,1.0,1.9296446,-0.09642193,1.4326454
alexnet_w1_mlp_simclrhn_probe2,1,514,NaN,clock,truck,180,0514_rot_dnn_180_truck_20_n04467665_23691.png,n04467665_23691.png,0.0,-0.39345264,0.52554077,-0.64982647
alexnet_w1_mlp_simclrhn_probe2,1,515,NaN,bird,bird,0,0515_rot_dnn_0_bird_20_n02009229_492.png,n02009229_492.png,1.0,3.7894487,-2.916947,4.742138
alexnet_w1_mlp_simclrhn_probe2,1,516,NaN,bird,bird,90,0516_rot_dnn_90_bird_20_n02002556_5890.png,n02002556_5890.png,1.0,1.8070115,-0.610896,1.7097188
alexnet_w1_mlp_simclrhn_probe2,1,517,NaN,bird,bird,270,0517_rot_dnn_270_bird_20_n01855032_5358.png,n01855032_5358.png,1.0,0.33169603,-0.3985165,0.5163383
alexnet_w1_mlp_simclrhn_probe2,1,518,NaN,cat,dog,180,0518_rot_dnn_180_dog_20_n02112350_10026.png,n02112350_10026.png,0.0,-0.76044315,0.033417802,-0.5613445
alexnet_w1_mlp_simclrhn_probe2,1,519,NaN,bottle,knife,90,0519_rot_dnn_90_knife_20_n03041632_11773.png,n03041632_11773.png,0.0,-1.0389471,-0.5094608,-0.37440336
alexnet_w1_mlp_simclrhn_probe2,1,520,NaN,elephant,elephant,0,0520_rot_dnn_0_elephant_20_n02504013_20486.png,n02504013_20486.png,1.0,15.935429,4.6230936,7.999029
alexnet_w1_mlp_simclrhn_probe2,1,521,NaN,oven,oven,0,0521_rot_dnn_0_oven_20_n04111531_27.png,n04111531_27.png,1.0,6.349154,3.0085819,2.3621411
alexnet_w1_mlp_simclrhn_probe2,1,522,NaN,oven,bird,180,0522_rot_dnn_180_bird_20_n01855672_15421.png,n01855672_15421.png,0.0,-2.5482225,-0.5058384,-1.4441837
alexnet_w1_mlp_simclrhn_probe2,1,523,NaN,bear,bear,270,0523_rot_dnn_270_bear_20_n02132136_239.png,n02132136_239.png,1.0,-0.10187481,-1.0925212,0.7004928
alexnet_w1_mlp_simclrhn_probe2,1,524,NaN,keyboard,keyboard,90,0524_rot_dnn_90_keyboard_20_n03085013_25924.png,n03085013_25924.png,1.0,2.8786893,-0.02512595,2.0533075
alexnet_w1_mlp_simclrhn_probe2,1,525,NaN,bicycle,bicycle,180,0525_rot_dnn_180_bicycle_20_n03792782_6030.png,n03792782_6030.png,1.0,2.4131408,-1.480793,2.753427
alexnet_w1_mlp_simclrhn_probe2,1,526,NaN,oven,bottle,270,0526_rot_dnn_270_bottle_20_n03983396_5497.png,n03983396_5497.png,0.0,-1.2352581,2.4787714,-2.6262155
alexnet_w1_mlp_simclrhn_probe2,1,527,NaN,oven,chair,180,0527_rot_dnn_180_chair_20_n04429376_6390.png,n04429376_6390.png,0.0,1.6257063,3.732924,-1.490028
alexnet_w1_mlp_simclrhn_probe2,1,528,NaN,cat,dog,90,0528_rot_dnn_90_dog_20_n02100877_11159.png,n02100877_11159.png,0.0,-1.411708,-0.4360459,-0.6898973
alexnet_w1_mlp_simclrhn_probe2,1,529,NaN,bottle,bottle,180,0529_rot_dnn_180_bottle_20_n04579145_579.png,n04579145_579.png,1.0,1.4967078,0.8212416,0.4776267
alexnet_w1_mlp_simclrhn_probe2,1,530,NaN,cat,cat,90,0530_rot_dnn_90_cat_20_n02123159_5678.png,n02123159_5678.png,1.0,2.5094354,-3.8188496,4.4747734
alexnet_w1_mlp_simclrhn_probe2,1,531,NaN,elephant,elephant,180,0531_rot_dnn_180_elephant_20_n02504013_13283.png,n02504013_13283.png,1.0,-0.35523516,-0.63200796,0.19570793
alexnet_w1_mlp_simclrhn_probe2,1,532,NaN,oven,dog,90,0532_rot_dnn_90_dog_20_n02095570_7633.png,n02095570_7633.png,0.0,-2.1705549,0.25423402,-1.7145847
alexnet_w1_mlp_simclrhn_probe2,1,533,NaN,clock,clock,180,0533_rot_dnn_180_clock_20_n02708093_8311.png,n02708093_8311.png,1.0,1.3395004,-0.50761926,1.3061109
alexnet_w1_mlp_simclrhn_probe2,1,534,NaN,chair,chair,270,0534_rot_dnn_270_chair_20_n03376595_426.png,n03376595_426.png,1.0,0.63561857,0.017074551,0.4373767
alexnet_w1_mlp_simclrhn_probe2,1,535,NaN,oven,dog,180,0535_rot_dnn_180_dog_20_n02100877_3112.png,n02100877_3112.png,0.0,-1.6704904,-0.3945418,-0.9022319
alexnet_w1_mlp_simclrhn_probe2,1,536,NaN,chair,car,270,0536_rot_dnn_270_car_20_n02814533_458.png,n02814533_458.png,0.0,-0.22857393,0.8406359,-0.7560455
alexnet_w1_mlp_simclrhn_probe2,1,537,NaN,bird,bird,0,0537_rot_dnn_0_bird_20_n02006656_5079.png,n02006656_5079.png,1.0,2.9701579,-3.692153,4.710965
alexnet_w1_mlp_simclrhn_probe2,1,538,NaN,bicycle,boat,90,0538_rot_dnn_90_boat_20_n04273569_12725.png,n04273569_12725.png,0.0,-2.049193,-0.9724989,-0.76133764
alexnet_w1_mlp_simclrhn_probe2,1,539,NaN,cat,cat,270,0539_rot_dnn_270_cat_20_n02123045_6677.png,n02123045_6677.png,1.0,2.8664467,-3.8025763,4.7157116
alexnet_w1_mlp_simclrhn_probe2,1,540,NaN,bicycle,bicycle,270,0540_rot_dnn_270_bicycle_20_n02835271_4440.png,n02835271_4440.png,1.0,0.9011592,-1.3295588,1.577356
alexnet_w1_mlp_simclrhn_probe2,1,541,NaN,keyboard,keyboard,270,0541_rot_dnn_270_keyboard_20_n03085013_21444.png,n03085013_21444.png,1.0,3.7570624,1.0986733,1.879765
alexnet_w1_mlp_simclrhn_probe2,1,542,NaN,chair,clock,180,0542_rot_dnn_180_clock_20_n02708093_8255.png,n02708093_8255.png,0.0,0.88405913,1.1427479,-0.18292058
alexnet_w1_mlp_simclrhn_probe2,1,543,NaN,bicycle,bicycle,0,0543_rot_dnn_0_bicycle_20_n02835271_30318.png,n02835271_30318.png,1.0,0.034667283,-0.27665502,0.22013812
alexnet_w1_mlp_simclrhn_probe2,1,544,NaN,cat,cat,180,0544_rot_dnn_180_cat_20_n02123394_2059.png,n02123394_2059.png,1.0,0.5150334,-1.4234354,1.3707045
alexnet_w1_mlp_simclrhn_probe2,1,545,NaN,elephant,elephant,180,0545_rot_dnn_180_elephant_20_n02504013_6618.png,n02504013_6618.png,1.0,2.6522837,0.35815454,1.6221943
alexnet_w1_mlp_simclrhn_probe2,1,546,NaN,cat,cat,270,0546_rot_dnn_270_cat_20_n02124075_8889.png,n02124075_8889.png,1.0,0.15286501,-0.63210875,0.55506027
alexnet_w1_mlp_simclrhn_probe2,1,547,NaN,cat,dog,90,0547_rot_dnn_90_dog_20_n02100877_7302.png,n02100877_7302.png,0.0,-2.6981041,-0.87836736,-1.2867482
alexnet_w1_mlp_simclrhn_probe2,1,548,NaN,knife,car,180,0548_rot_dnn_180_car_20_n02814533_85971.png,n02814533_85971.png,0.0,-0.9028518,0.70535624,-1.1371748
alexnet_w1_mlp_simclrhn_probe2,1,549,NaN,chair,chair,0,0549_rot_dnn_0_chair_20_n03376595_5909.png,n03376595_5909.png,1.0,3.2234418,0.74107903,1.7552955
alexnet_w1_mlp_simclrhn_probe2,1,550,NaN,clock,keyboard,270,0550_rot_dnn_270_keyboard_20_n03085013_13083.png,n03085013_13083.png,0.0,-0.19458365,0.3784813,-0.4052181
alexnet_w1_mlp_simclrhn_probe2,1,551,NaN,oven,oven,90,0551_rot_dnn_90_oven_20_n04111531_9611.png,n04111531_9611.png,1.0,1.3028996,1.0005896,0.21376544
alexnet_w1_mlp_simclrhn_probe2,1,552,NaN,bicycle,boat,0,0552_rot_dnn_0_boat_20_n02951358_13996.png,n02951358_13996.png,0.0,-0.57780457,0.0879229,-0.47074044
alexnet_w1_mlp_simclrhn_probe2,1,553,NaN,boat,boat,0,0553_rot_dnn_0_boat_20_n03344393_9251.png,n03344393_9251.png,1.0,5.335056,3.641337,1.1976402
alexnet_w1_mlp_simclrhn_probe2,1,554,NaN,chair,airplane,180,0554_rot_dnn_180_airplane_20_n02690373_9175.png,n02690373_9175.png,0.0,-2.982964,2.2248018,-3.6824465
alexnet_w1_mlp_simclrhn_probe2,1,555,NaN,elephant,bear,0,0555_rot_dnn_0_bear_20_n02132136_2791.png,n02132136_2791.png,0.0,2.192185,2.5306606,-0.23933847
alexnet_w1_mlp_simclrhn_probe2,1,556,NaN,elephant,elephant,180,0556_rot_dnn_180_elephant_20_n02504458_193.png,n02504458_193.png,1.0,-0.60471714,-1.361424,0.53507257
alexnet_w1_mlp_simclrhn_probe2,1,557,NaN,bird,bird,270,0557_rot_dnn_270_bird_20_n01843383_9985.png,n01843383_9985.png,1.0,0.07239462,-2.9386303,2.1291163
alexnet_w1_mlp_simclrhn_probe2,1,558,NaN,bird,bird,270,0558_rot_dnn_270_bird_20_n02028035_10744.png,n02028035_10744.png,1.0,0.046067175,-1.5378767,1.1200174
alexnet_w1_mlp_simclrhn_probe2,1,559,NaN,chair,truck,270,0559_rot_dnn_270_truck_20_n04467665_3720.png,n04467665_3720.png,0.0,-0.30357894,2.4274156,-1.9311048
alexnet_w1_mlp_simclrhn_probe2,1,560,NaN,car,car,0,0560_rot_dnn_0_car_20_n02814533_52605.png,n02814533_52605.png,1.0,3.8692024,1.6213734,1.5894551
alexnet_w1_mlp_simclrhn_probe2,1,561,NaN,clock,clock,90,0561_rot_dnn_90_clock_20_n04548280_5631.png,n04548280_5631.png,1.0,8.499992,-1.9248465,7.3714743
alexnet_w1_mlp_simclrhn_probe2,1,562,NaN,oven,oven,0,0562_rot_dnn_0_oven_20_n04111531_1922.png,n04111531_1922.png,1.0,5.549232,-1.5925971,5.050036
alexnet_w1_mlp_simclrhn_probe2,1,563,NaN,airplane,boat,180,0563_rot_dnn_180_boat_20_n03662601_1197.png,n03662601_1197.png,0.0,-0.15784174,2.5704136,-1.9291679
alexnet_w1_mlp_simclrhn_probe2,1,564,NaN,clock,clock,270,0564_rot_dnn_270_clock_20_n02708093_1862.png,n02708093_1862.png,1.0,1.9256147,-1.36966,2.3301113
alexnet_w1_mlp_simclrhn_probe2,1,565,NaN,truck,truck,180,0565_rot_dnn_180_truck_20_n03796401_4582.png,n03796401_4582.png,1.0,1.9597819,0.79392505,0.8243853
alexnet_w1_mlp_simclrhn_probe2,1,566,NaN,chair,elephant,90,0566_rot_dnn_90_elephant_20_n02504013_565.png,n02504013_565.png,0.0,-0.48563242,0.07096701,-0.39357525
alexnet_w1_mlp_simclrhn_probe2,1,567,NaN,chair,truck,180,0567_rot_dnn_180_truck_20_n04467665_49826.png,n04467665_49826.png,0.0,-0.19101292,1.3325765,-1.0773404
alexnet_w1_mlp_simclrhn_probe2,1,568,NaN,elephant,bear,270,0568_rot_dnn_270_bear_20_n02134418_5067.png,n02134418_5067.png,0.0,0.1842379,0.21125498,-0.019103965
alexnet_w1_mlp_simclrhn_probe2,1,569,NaN,oven,chair,90,0569_rot_dnn_90_chair_20_n04429376_29223.png,n04429376_29223.png,0.0,1.2803733,1.4601665,-0.12713294
alexnet_w1_mlp_simclrhn_probe2,1,570,NaN,knife,airplane,270,0570_rot_dnn_270_airplane_20_n02690373_5909.png,n02690373_5909.png,0.0,-2.1469176,-0.23710483,-1.3504416
alexnet_w1_mlp_simclrhn_probe2,1,571,NaN,knife,dog,270,0571_rot_dnn_270_dog_20_n02097658_722.png,n02097658_722.png,0.0,-3.284104,0.32369682,-2.5511005
alexnet_w1_mlp_simclrhn_probe2,1,572,NaN,oven,oven,0,0572_rot_dnn_0_oven_20_n04111531_10339.png,n04111531_10339.png,1.0,3.9310334,1.5979908,1.6497103
alexnet_w1_mlp_simclrhn_probe2,1,573,NaN,bottle,truck,90,0573_rot_dnn_90_truck_20_n03417042_28078.png,n03417042_28078.png,0.0,-2.063604,1.5102686,-2.5271096
alexnet_w1_mlp_simclrhn_probe2,1,574,NaN,oven,chair,180,0574_rot_dnn_180_chair_20_n04099969_22118.png,n04099969_22118.png,0.0,0.7250174,1.9816744,-0.8885907
alexnet_w1_mlp_simclrhn_probe2,1,575,NaN,oven,clock,270,0575_rot_dnn_270_clock_20_n04548280_7978.png,n04548280_7978.png,0.0,-2.4997284,1.5968678,-2.8967311
alexnet_w1_mlp_simclrhn_probe2,1,576,NaN,bear,bear,180,0576_rot_dnn_180_bear_20_n02133161_1962.png,n02133161_1962.png,1.0,1.3794191,0.7484034,0.4461955
alexnet_w1_mlp_simclrhn_probe2,1,577,NaN,knife,clock,180,0577_rot_dnn_180_clock_20_n04548280_13750.png,n04548280_13750.png,0.0,-2.1304076,-0.32672536,-1.275396
alexnet_w1_mlp_simclrhn_probe2,1,578,NaN,knife,keyboard,0,0578_rot_dnn_0_keyboard_20_n03085013_15249.png,n03085013_15249.png,0.0,0.60109186,1.7658132,-0.8235824
alexnet_w1_mlp_simclrhn_probe2,1,579,NaN,keyboard,car,90,0579_rot_dnn_90_car_20_n02814533_479.png,n02814533_479.png,0.0,-1.4466262,0.8095404,-1.5953506
alexnet_w1_mlp_simclrhn_probe2,1,580,NaN,knife,keyboard,270,0580_rot_dnn_270_keyboard_20_n03085013_20716.png,n03085013_20716.png,0.0,-0.38923112,-0.18064529,-0.14749245
alexnet_w1_mlp_simclrhn_probe2,1,581,NaN,bird,bird,180,0581_rot_dnn_180_bird_20_n01530575_7990.png,n01530575_7990.png,1.0,-0.82425815,-4.1781363,2.37155
alexnet_w1_mlp_simclrhn_probe2,1,582,NaN,chair,chair,0,0582_rot_dnn_0_chair_20_n04429376_17343.png,n04429376_17343.png,1.0,0.05064988,-0.02651759,0.054565646
alexnet_w1_mlp_simclrhn_probe2,1,583,NaN,chair,chair,90,0583_rot_dnn_90_chair_20_n02791124_8775.png,n02791124_8775.png,1.0,0.79835135,-0.30098587,0.7773488
alexnet_w1_mlp_simclrhn_probe2,1,584,NaN,cat,cat,90,0584_rot_dnn_90_cat_20_n02125311_2959.png,n02125311_2959.png,1.0,0.94201183,-1.4690934,1.7049088
alexnet_w1_mlp_simclrhn_probe2,1,585,NaN,oven,oven,180,0585_rot_dnn_180_oven_20_n04111531_13906.png,n04111531_13906.png,1.0,2.6664631,0.5839547,1.472556
alexnet_w1_mlp_simclrhn_probe2,1,586,NaN,chair,airplane,90,0586_rot_dnn_90_airplane_20_n02690373_7293.png,n02690373_7293.png,0.0,-0.35274795,1.0129324,-0.96568185
alexnet_w1_mlp_simclrhn_probe2,1,587,NaN,oven,chair,180,0587_rot_dnn_180_chair_20_n04099969_10825.png,n04099969_10825.png,0.0,1.3606433,1.6235375,-0.18589433
alexnet_w1_mlp_simclrhn_probe2,1,588,NaN,airplane,airplane,180,0588_rot_dnn_180_airplane_20_n02690373_17044.png,n02690373_17044.png,1.0,5.6721725,0.70888025,3.5095775
alexnet_w1_mlp_simclrhn_probe2,1,589,NaN,bird,bird,0,0589_rot_dnn_0_bird_20_n01797886_6169.png,n01797886_6169.png,1.0,1.9455103,-1.5097252,2.4432204
alexnet_w1_mlp_simclrhn_probe2,1,590,NaN,truck,oven,0,0590_rot_dnn_0_oven_20_n04111531_13255.png,n04111531_13255.png,0.0,-2.1205702,0.6182183,-1.9366161
alexnet_w1_mlp_simclrhn_probe2,1,591,NaN,oven,knife,270,0591_rot_dnn_270_knife_20_n03041632_17820.png,n03041632_17820.png,0.0,-1.8664833,0.44952035,-1.637662
alexnet_w1_mlp_simclrhn_probe2,1,592,NaN,knife,bicycle,270,0592_rot_dnn_270_bicycle_20_n02835271_21640.png,n02835271_21640.png,0.0,-1.5023327,-1.2190595,-0.20030442
alexnet_w1_mlp_simclrhn_probe2,1,593,NaN,elephant,bear,0,0593_rot_dnn_0_bear_20_n02134418_517.png,n02134418_517.png,0.0,3.298861,3.5416944,-0.17170914
alexnet_w1_mlp_simclrhn_probe2,1,594,NaN,chair,airplane,180,0594_rot_dnn_180_airplane_20_n02690373_4588.png,n02690373_4588.png,0.0,-3.5938344,0.6315752,-2.9878159
alexnet_w1_mlp_simclrhn_probe2,1,595,NaN,chair,bottle,270,0595_rot_dnn_270_bottle_20_n02823428_12190.png,n02823428_12190.png,0.0,-1.7431278,0.27758005,-1.4288563
alexnet_w1_mlp_simclrhn_probe2,1,596,NaN,bottle,bottle,0,0596_rot_dnn_0_bottle_20_n04591713_1717.png,n04591713_1717.png,1.0,2.4567032,1.0435632,0.9992409
alexnet_w1_mlp_simclrhn_probe2,1,597,NaN,knife,knife,0,0597_rot_dnn_0_knife_20_n03041632_9488.png,n03041632_9488.png,1.0,2.6394804,-1.789123,3.1314955
alexnet_w1_mlp_simclrhn_probe2,1,598,NaN,chair,truck,90,0598_rot_dnn_90_truck_20_n03417042_11166.png,n03417042_11166.png,0.0,-0.6921077,1.0554435,-1.2357054
alexnet_w1_mlp_simclrhn_probe2,1,599,NaN,elephant,elephant,90,0599_rot_dnn_90_elephant_20_n02504458_585.png,n02504458_585.png,1.0,1.0883447,-1.4253001,1.7774153
alexnet_w1_mlp_simclrhn_probe2,1,600,NaN,oven,keyboard,0,0600_rot_dnn_0_keyboard_20_n04505470_5046.png,n04505470_5046.png,0.0,0.83121276,2.2935815,-1.0340508
alexnet_w1_mlp_simclrhn_probe2,1,601,NaN,chair,chair,180,0601_rot_dnn_180_chair_20_n03376595_4937.png,n03376595_4937.png,1.0,2.209083,-0.9354007,2.223486
alexnet_w1_mlp_simclrhn_probe2,1,602,NaN,truck,boat,180,0602_rot_dnn_180_boat_20_n03662601_1740.png,n03662601_1740.png,0.0,-1.3397033,-0.3674866,-0.6874611
alexnet_w1_mlp_simclrhn_probe2,1,603,NaN,knife,knife,0,0603_rot_dnn_0_knife_20_n03041632_4037.png,n03041632_4037.png,1.0,-0.21239421,-0.29423606,0.057870932
alexnet_w1_mlp_simclrhn_probe2,1,604,NaN,bicycle,boat,0,0604_rot_dnn_0_boat_20_n04273569_1538.png,n04273569_1538.png,0.0,-1.6547791,-0.056428254,-1.1302047
alexnet_w1_mlp_simclrhn_probe2,1,605,NaN,bird,bird,0,0605_rot_dnn_0_bird_20_n02017213_15918.png,n02017213_15918.png,1.0,-2.1657286,-2.2247157,0.04171021
alexnet_w1_mlp_simclrhn_probe2,1,606,NaN,keyboard,keyboard,0,0606_rot_dnn_0_keyboard_20_n03085013_10463.png,n03085013_10463.png,1.0,9.246577,0.47108245,6.2052116
alexnet_w1_mlp_simclrhn_probe2,1,607,NaN,bear,bear,270,0607_rot_dnn_270_bear_20_n02133161_7939.png,n02133161_7939.png,1.0,1.0768251,0.26812008,0.5718409
alexnet_w1_mlp_simclrhn_probe2,1,608,NaN,car,car,270,0608_rot_dnn_270_car_20_n04285008_11704.png,n04285008_11704.png,1.0,0.50329584,-0.36578622,0.61453384
alexnet_w1_mlp_simclrhn_probe2,1,609,NaN,clock,truck,90,0609_rot_dnn_90_truck_20_n03796401_16046.png,n03796401_16046.png,0.0,-1.5117421,1.1709262,-1.896933
alexnet_w1_mlp_simclrhn_probe2,1,610,NaN,clock,chair,270,0610_rot_dnn_270_chair_20_n02791124_3710.png,n02791124_3710.png,0.0,0.28479552,1.0842158,-0.5652755
alexnet_w1_mlp_simclrhn_probe2,1,611,NaN,keyboard,keyboard,180,0611_rot_dnn_180_keyboard_20_n04505470_3566.png,n04505470_3566.png,1.0,4.9697075,2.393111,1.8219289
alexnet_w1_mlp_simclrhn_probe2,1,612,NaN,chair,bird,90,0612_rot_dnn_90_bird_20_n02037110_8716.png,n02037110_8716.png,0.0,-2.1386952,-0.29596883,-1.3030044
alexnet_w1_mlp_simclrhn_probe2,1,613,NaN,car,car,0,0613_rot_dnn_0_car_20_n03100240_19550.png,n03100240_19550.png,1.0,8.696139,5.8983765,1.9783171
alexnet_w1_mlp_simclrhn_probe2,1,614,NaN,airplane,airplane,270,0614_rot_dnn_270_airplane_20_n02690373_10769.png,n02690373_10769.png,1.0,0.9525126,0.47520146,0.33750996
alexnet_w1_mlp_simclrhn_probe2,1,615,NaN,bicycle,bicycle,0,0615_rot_dnn_0_bicycle_20_n03792782_3456.png,n03792782_3456.png,1.0,2.5893447,-0.43488958,2.1384566
alexnet_w1_mlp_simclrhn_probe2,1,616,NaN,keyboard,chair,0,0616_rot_dnn_0_chair_20_n03376595_2368.png,n03376595_2368.png,0.0,0.1521602,0.4791616,-0.23122491
alexnet_w1_mlp_simclrhn_probe2,1,617,NaN,dog,dog,0,0617_rot_dnn_0_dog_20_n02091467_2974.png,n02091467_2974.png,1.0,0.53418374,-2.3907368,2.068231
alexnet_w1_mlp_simclrhn_probe2,1,618,NaN,knife,knife,180,0618_rot_dnn_180_knife_20_n03041632_43634.png,n03041632_43634.png,1.0,2.8078747,-0.78095466,2.5376856
alexnet_w1_mlp_simclrhn_probe2,1,619,NaN,keyboard,keyboard,180,0619_rot_dnn_180_keyboard_20_n04505470_4477.png,n04505470_4477.png,1.0,5.688172,1.1237874,3.2275074
alexnet_w1_mlp_simclrhn_probe2,1,620,NaN,clock,boat,90,0620_rot_dnn_90_boat_20_n03344393_4773.png,n03344393_4773.png,0.0,-2.314805,-0.67282605,-1.1610545
alexnet_w1_mlp_simclrhn_probe2,1,621,NaN,airplane,airplane,180,0621_rot_dnn_180_airplane_20_n02690373_139.png,n02690373_139.png,1.0,3.498242,0.32383984,2.2446413
alexnet_w1_mlp_simclrhn_probe2,1,622,NaN,oven,knife,270,0622_rot_dnn_270_knife_20_n03041632_737.png,n03041632_737.png,0.0,0.121291816,1.1756275,-0.74552786
alexnet_w1_mlp_simclrhn_probe2,1,623,NaN,oven,chair,270,0623_rot_dnn_270_chair_20_n02791124_2698.png,n02791124_2698.png,0.0,1.0809581,3.0264647,-1.3756809
alexnet_w1_mlp_simclrhn_probe2,1,624,NaN,bottle,truck,270,0624_rot_dnn_270_truck_20_n03417042_5301.png,n03417042_5301.png,0.0,-1.1537718,1.2672237,-1.7119024
alexnet_w1_mlp_simclrhn_probe2,1,625,NaN,bird,bird,0,0625_rot_dnn_0_bird_20_n02006656_5757.png,n02006656_5757.png,1.0,2.464025,-2.9180365,3.8056922
alexnet_w1_mlp_simclrhn_probe2,1,626,NaN,bear,bear,270,0626_rot_dnn_270_bear_20_n02132136_15174.png,n02132136_15174.png,1.0,0.749372,0.49690905,0.17851827
alexnet_w1_mlp_simclrhn_probe2,1,627,NaN,chair,bottle,270,0627_rot_dnn_270_bottle_20_n04560804_6329.png,n04560804_6329.png,0.0,-1.1654612,0.54112256,-1.2067369
alexnet_w1_mlp_simclrhn_probe2,1,628,NaN,truck,truck,0,0628_rot_dnn_0_truck_20_n03417042_22196.png,n03417042_22196.png,1.0,4.1638546,1.3072957,2.0198922
alexnet_w1_mlp_simclrhn_probe2,1,629,NaN,cat,cat,0,0629_rot_dnn_0_cat_20_n02125311_18366.png,n02125311_18366.png,1.0,0.34552777,-0.017225921,0.2565056
alexnet_w1_mlp_simclrhn_probe2,1,630,NaN,chair,chair,0,0630_rot_dnn_0_chair_20_n02791124_12707.png,n02791124_12707.png,1.0,1.6597816,0.7918399,0.61372745
alexnet_w1_mlp_simclrhn_probe2,1,631,NaN,oven,oven,180,0631_rot_dnn_180_oven_20_n04111531_1938.png,n04111531_1938.png,1.0,1.3585368,-0.40157205,1.244585
alexnet_w1_mlp_simclrhn_probe2,1,632,NaN,chair,airplane,270,0632_rot_dnn_270_airplane_20_n02690373_9346.png,n02690373_9346.png,0.0,-3.8974125,0.2697036,-2.9465961
alexnet_w1_mlp_simclrhn_probe2,1,633,NaN,oven,cat,0,0633_rot_dnn_0_cat_20_n02123045_10433.png,n02123045_10433.png,0.0,-2.373229,-0.4477504,-1.3615191
alexnet_w1_mlp_simclrhn_probe2,1,634,NaN,airplane,airplane,180,0634_rot_dnn_180_airplane_20_n02690373_5055.png,n02690373_5055.png,1.0,3.3185027,0.14580461,2.2434363
alexnet_w1_mlp_simclrhn_probe2,1,635,NaN,clock,clock,270,0635_rot_dnn_270_clock_20_n04548280_4198.png,n04548280_4198.png,1.0,0.3509613,-0.15556869,0.3581708
alexnet_w1_mlp_simclrhn_probe2,1,636,NaN,bicycle,bicycle,90,0636_rot_dnn_90_bicycle_20_n03792782_12010.png,n03792782_12010.png,1.0,3.2467415,1.0613971,1.5452719
