subj,session,trial,rt,object_response,category,condition,imagename,filename,is_correct,targ_act,max_nontarg_act,decision_margin
alexnet2023_baseline_pgd,1,1,NaN,bicycle,chair,0,0001_rot_dnn_0_chair_20_n03376595_3070.png,n03376595_3070.png,0.0,3.8938344,4.087495,-0.13693865
alexnet2023_baseline_pgd,1,2,NaN,car,car,180,0002_rot_dnn_180_car_20_n02814533_29367.png,n02814533_29367.png,1.0,6.9433494,2.9789321,2.8032663
alexnet2023_baseline_pgd,1,3,NaN,elephant,car,270,0003_rot_dnn_270_car_20_n02814533_31083.png,n02814533_31083.png,0.0,-5.7278614,3.0561492,-6.2112336
alexnet2023_baseline_pgd,1,4,NaN,oven,car,180,0004_rot_dnn_180_car_20_n03100240_1703.png,n03100240_1703.png,0.0,5.366337,7.1320662,-1.2485592
alexnet2023_baseline_pgd,1,5,NaN,bottle,bottle,180,0005_rot_dnn_180_bottle_20_n04591713_2359.png,n04591713_2359.png,1.0,4.8501577,2.0201244,2.0011358
alexnet2023_baseline_pgd,1,6,NaN,elephant,dog,90,0006_rot_dnn_90_dog_20_n02111500_8796.png,n02111500_8796.png,0.0,2.2975447,3.9112887,-1.1410893
alexnet2023_baseline_pgd,1,7,NaN,bicycle,bear,180,0007_rot_dnn_180_bear_20_n02132136_4512.png,n02132136_4512.png,0.0,1.43501,4.0679007,-1.8617349
alexnet2023_baseline_pgd,1,8,NaN,chair,chair,90,0008_rot_dnn_90_chair_20_n03376595_4820.png,n03376595_4820.png,1.0,5.6944404,3.1178,1.8219599
alexnet2023_baseline_pgd,1,9,NaN,bottle,bottle,270,0009_rot_dnn_270_bottle_20_n04591713_6111.png,n04591713_6111.png,1.0,7.884284,5.946122,1.3704875
alexnet2023_baseline_pgd,1,10,NaN,chair,bottle,270,0010_rot_dnn_270_bottle_20_n04560804_14111.png,n04560804_14111.png,0.0,1.1348332,3.5258703,-1.6907185
alexnet2023_baseline_pgd,1,11,NaN,elephant,dog,0,0011_rot_dnn_0_dog_20_n02099601_8656.png,n02099601_8656.png,0.0,7.24222,10.641306,-2.4035168
alexnet2023_baseline_pgd,1,12,NaN,cat,cat,0,0012_rot_dnn_0_cat_20_n02125311_14054.png,n02125311_14054.png,1.0,7.2662406,2.1028543,3.6510656
alexnet2023_baseline_pgd,1,13,NaN,bear,bear,0,0013_rot_dnn_0_bear_20_n02132136_10385.png,n02132136_10385.png,1.0,3.1397915,2.0352917,0.7809993
alexnet2023_baseline_pgd,1,14,NaN,bottle,bottle,90,0014_rot_dnn_90_bottle_20_n02823428_10417.png,n02823428_10417.png,1.0,7.9180136,4.805617,2.2007968
alexnet2023_baseline_pgd,1,15,NaN,knife,keyboard,0,0015_rot_dnn_0_keyboard_20_n03085013_23566.png,n03085013_23566.png,0.0,0.93456686,1.6153208,-0.48136574
alexnet2023_baseline_pgd,1,16,NaN,oven,truck,90,0016_rot_dnn_90_truck_20_n03417042_12560.png,n03417042_12560.png,0.0,-1.4378592,4.9091954,-4.488045
alexnet2023_baseline_pgd,1,17,NaN,truck,truck,180,0017_rot_dnn_180_truck_20_n04467665_69063.png,n04467665_69063.png,1.0,5.8444233,5.7572684,0.061627798
alexnet2023_baseline_pgd,1,18,NaN,oven,oven,180,0018_rot_dnn_180_oven_20_n04111531_9712.png,n04111531_9712.png,1.0,7.7346153,4.7061596,2.1414416
alexnet2023_baseline_pgd,1,19,NaN,oven,oven,180,0019_rot_dnn_180_oven_20_n04111531_10375.png,n04111531_10375.png,1.0,9.965453,4.633996,3.7699096
alexnet2023_baseline_pgd,1,20,NaN,keyboard,keyboard,0,0020_rot_dnn_0_keyboard_20_n04505470_1744.png,n04505470_1744.png,1.0,13.319624,7.1353817,4.3729196
alexnet2023_baseline_pgd,1,21,NaN,bicycle,boat,90,0021_rot_dnn_90_boat_20_n04273569_7296.png,n04273569_7296.png,0.0,-1.0946724,4.1082706,-3.6790361
alexnet2023_baseline_pgd,1,22,NaN,dog,dog,0,0022_rot_dnn_0_dog_20_n02101006_4807.png,n02101006_4807.png,1.0,7.9078903,4.9865856,2.0656743
alexnet2023_baseline_pgd,1,23,NaN,clock,clock,90,0023_rot_dnn_90_clock_20_n02708093_1986.png,n02708093_1986.png,1.0,11.01371,3.8921804,5.0356817
alexnet2023_baseline_pgd,1,24,NaN,bottle,bottle,0,0024_rot_dnn_0_bottle_20_n04560804_15562.png,n04560804_15562.png,1.0,12.11811,2.4962566,6.8036776
alexnet2023_baseline_pgd,1,25,NaN,cat,cat,0,0025_rot_dnn_0_cat_20_n02124075_13594.png,n02124075_13594.png,1.0,10.731172,4.1084633,4.682962
alexnet2023_baseline_pgd,1,26,NaN,bear,bear,90,0026_rot_dnn_90_bear_20_n02134418_4365.png,n02134418_4365.png,1.0,4.5004992,4.1814756,0.22558376
alexnet2023_baseline_pgd,1,27,NaN,bear,bear,180,0027_rot_dnn_180_bear_20_n02132136_8650.png,n02132136_8650.png,1.0,4.9976387,4.265489,0.51770794
alexnet2023_baseline_pgd,1,28,NaN,bird,bird,90,0028_rot_dnn_90_bird_20_n02009912_12219.png,n02009912_12219.png,1.0,6.56283,1.6532127,3.471624
alexnet2023_baseline_pgd,1,29,NaN,bird,dog,90,0029_rot_dnn_90_dog_20_n02100236_1662.png,n02100236_1662.png,0.0,1.4651642,1.5102657,-0.03189159
alexnet2023_baseline_pgd,1,30,NaN,clock,clock,90,0030_rot_dnn_90_clock_20_n04548280_1947.png,n04548280_1947.png,1.0,13.993266,4.4109488,6.7757215
alexnet2023_baseline_pgd,1,31,NaN,bear,dog,270,0031_rot_dnn_270_dog_20_n02109047_66167.png,n02109047_66167.png,0.0,2.8304324,3.0256155,-0.13801526
alexnet2023_baseline_pgd,1,32,NaN,oven,oven,90,0032_rot_dnn_90_oven_20_n04111531_21055.png,n04111531_21055.png,1.0,8.653601,6.507736,1.5173553
alexnet2023_baseline_pgd,1,33,NaN,clock,clock,0,0033_rot_dnn_0_clock_20_n02708093_2012.png,n02708093_2012.png,1.0,4.4955544,3.4927087,0.7091191
alexnet2023_baseline_pgd,1,34,NaN,elephant,elephant,0,0034_rot_dnn_0_elephant_20_n02504458_6119.png,n02504458_6119.png,1.0,9.327911,2.1343946,5.0865846
alexnet2023_baseline_pgd,1,35,NaN,chair,chair,0,0035_rot_dnn_0_chair_20_n04099969_12707.png,n04099969_12707.png,1.0,13.695177,1.4157524,8.682864
alexnet2023_baseline_pgd,1,36,NaN,clock,keyboard,270,0036_rot_dnn_270_keyboard_20_n03085013_19054.png,n03085013_19054.png,0.0,3.270771,4.10702,-0.59131724
alexnet2023_baseline_pgd,1,37,NaN,chair,chair,0,0037_rot_dnn_0_chair_20_n02791124_422.png,n02791124_422.png,1.0,7.0251827,1.9896003,3.5606947
alexnet2023_baseline_pgd,1,38,NaN,bicycle,bicycle,0,0038_rot_dnn_0_bicycle_20_n02835271_23830.png,n02835271_23830.png,1.0,15.80594,2.1097195,9.68469
alexnet2023_baseline_pgd,1,39,NaN,bird,bird,90,0039_rot_dnn_90_bird_20_n01534433_14735.png,n01534433_14735.png,1.0,1.8598576,0.79663604,0.7518111
alexnet2023_baseline_pgd,1,40,NaN,bird,bird,90,0040_rot_dnn_90_bird_20_n02011460_13994.png,n02011460_13994.png,1.0,2.648162,0.6089365,1.4419501
alexnet2023_baseline_pgd,1,41,NaN,knife,boat,270,0041_rot_dnn_270_boat_20_n04273569_17522.png,n04273569_17522.png,0.0,2.5656524,2.637189,-0.050583974
alexnet2023_baseline_pgd,1,42,NaN,bear,bear,180,0042_rot_dnn_180_bear_20_n02132136_5537.png,n02132136_5537.png,1.0,6.4229784,6.2950687,0.09044579
alexnet2023_baseline_pgd,1,43,NaN,bear,bear,90,0043_rot_dnn_90_bear_20_n02132136_19248.png,n02132136_19248.png,1.0,7.7633057,5.1755276,1.8298354
alexnet2023_baseline_pgd,1,44,NaN,bird,bird,270,0044_rot_dnn_270_bird_20_n01537544_1886.png,n01537544_1886.png,1.0,3.3270967,2.6352746,0.48919207
alexnet2023_baseline_pgd,1,45,NaN,clock,clock,180,0045_rot_dnn_180_clock_20_n03196217_4776.png,n03196217_4776.png,1.0,9.579155,6.425147,2.2302203
alexnet2023_baseline_pgd,1,46,NaN,chair,boat,270,0046_rot_dnn_270_boat_20_n04612504_17610.png,n04612504_17610.png,0.0,-1.0913749,4.2087717,-3.7477696
alexnet2023_baseline_pgd,1,47,NaN,cat,bear,90,0047_rot_dnn_90_bear_20_n02134418_1814.png,n02134418_1814.png,0.0,3.667149,3.8965843,-0.16223519
alexnet2023_baseline_pgd,1,48,NaN,keyboard,keyboard,180,0048_rot_dnn_180_keyboard_20_n03085013_20330.png,n03085013_20330.png,1.0,11.667814,5.8319616,4.126571
alexnet2023_baseline_pgd,1,49,NaN,bottle,bottle,180,0049_rot_dnn_180_bottle_20_n02823428_14574.png,n02823428_14574.png,1.0,7.103591,5.7615995,0.9489313
alexnet2023_baseline_pgd,1,50,NaN,bicycle,bicycle,0,0050_rot_dnn_0_bicycle_20_n03792782_7105.png,n03792782_7105.png,1.0,4.8277664,3.5880418,0.8766177
alexnet2023_baseline_pgd,1,51,NaN,elephant,elephant,0,0051_rot_dnn_0_elephant_20_n02504458_1302.png,n02504458_1302.png,1.0,18.72766,8.508259,7.2262073
alexnet2023_baseline_pgd,1,52,NaN,knife,airplane,90,0052_rot_dnn_90_airplane_20_n02690373_3877.png,n02690373_3877.png,0.0,-2.25619,2.6696646,-3.4831054
alexnet2023_baseline_pgd,1,53,NaN,elephant,boat,90,0053_rot_dnn_90_boat_20_n02951358_15422.png,n02951358_15422.png,0.0,-0.12548734,2.7456403,-2.0301938
alexnet2023_baseline_pgd,1,54,NaN,clock,car,270,0054_rot_dnn_270_car_20_n02814533_46458.png,n02814533_46458.png,0.0,0.17126721,5.5227456,-3.784067
alexnet2023_baseline_pgd,1,55,NaN,car,car,0,0055_rot_dnn_0_car_20_n02814533_39547.png,n02814533_39547.png,1.0,16.55861,9.293299,5.1373515
alexnet2023_baseline_pgd,1,56,NaN,airplane,boat,180,0056_rot_dnn_180_boat_20_n04273569_6586.png,n04273569_6586.png,0.0,5.139749,5.1707478,-0.021919396
alexnet2023_baseline_pgd,1,57,NaN,clock,clock,90,0057_rot_dnn_90_clock_20_n02708093_3394.png,n02708093_3394.png,1.0,4.192903,3.513454,0.48044306
alexnet2023_baseline_pgd,1,58,NaN,keyboard,keyboard,180,0058_rot_dnn_180_keyboard_20_n03085013_25419.png,n03085013_25419.png,1.0,12.888465,6.520335,4.502948
alexnet2023_baseline_pgd,1,59,NaN,oven,bottle,180,0059_rot_dnn_180_bottle_20_n04557648_1871.png,n04557648_1871.png,0.0,2.567416,2.96989,-0.2845922
alexnet2023_baseline_pgd,1,60,NaN,oven,chair,90,0060_rot_dnn_90_chair_20_n04099969_6944.png,n04099969_6944.png,0.0,2.7065516,3.5422015,-0.59089375
alexnet2023_baseline_pgd,1,61,NaN,bicycle,boat,270,0061_rot_dnn_270_boat_20_n04273569_1495.png,n04273569_1495.png,0.0,0.14283295,3.990808,-2.7209294
alexnet2023_baseline_pgd,1,62,NaN,keyboard,keyboard,90,0062_rot_dnn_90_keyboard_20_n03085013_7317.png,n03085013_7317.png,1.0,9.713597,3.1999803,4.605823
alexnet2023_baseline_pgd,1,63,NaN,knife,knife,90,0063_rot_dnn_90_knife_20_n03041632_7448.png,n03041632_7448.png,1.0,4.4357495,2.915734,1.0748132
alexnet2023_baseline_pgd,1,64,NaN,truck,truck,0,0064_rot_dnn_0_truck_20_n03417042_11000.png,n03417042_11000.png,1.0,9.243309,6.136509,2.1968393
alexnet2023_baseline_pgd,1,65,NaN,bird,bird,0,0065_rot_dnn_0_bird_20_n01582220_8827.png,n01582220_8827.png,1.0,9.49832,0.735107,6.196527
alexnet2023_baseline_pgd,1,66,NaN,bicycle,airplane,270,0066_rot_dnn_270_airplane_20_n02690373_9247.png,n02690373_9247.png,0.0,1.8410709,4.238016,-1.6948962
alexnet2023_baseline_pgd,1,67,NaN,bear,bear,270,0067_rot_dnn_270_bear_20_n02133161_14397.png,n02133161_14397.png,1.0,9.184092,6.9576306,1.5743457
alexnet2023_baseline_pgd,1,68,NaN,oven,oven,270,0068_rot_dnn_270_oven_20_n04111531_13560.png,n04111531_13560.png,1.0,7.6322927,5.1518397,1.7539452
alexnet2023_baseline_pgd,1,69,NaN,boat,bear,180,0069_rot_dnn_180_bear_20_n02132136_545.png,n02132136_545.png,0.0,1.4426371,3.2579238,-1.2836016
alexnet2023_baseline_pgd,1,70,NaN,elephant,cat,90,0070_rot_dnn_90_cat_20_n02125311_73072.png,n02125311_73072.png,0.0,0.8227062,8.717527,-5.582482
alexnet2023_baseline_pgd,1,71,NaN,bicycle,bicycle,0,0071_rot_dnn_0_bicycle_20_n03792782_30530.png,n03792782_30530.png,1.0,10.6346855,6.285924,3.075039
alexnet2023_baseline_pgd,1,72,NaN,knife,knife,90,0072_rot_dnn_90_knife_20_n03041632_4975.png,n03041632_4975.png,1.0,3.1214626,2.7372894,0.27165145
alexnet2023_baseline_pgd,1,73,NaN,knife,dog,90,0073_rot_dnn_90_dog_20_n02107683_3120.png,n02107683_3120.png,0.0,-0.4368033,2.5132062,-2.0859718
alexnet2023_baseline_pgd,1,74,NaN,bird,elephant,90,0074_rot_dnn_90_elephant_20_n02504013_7316.png,n02504013_7316.png,0.0,-0.2153982,3.2898383,-2.4785767
alexnet2023_baseline_pgd,1,75,NaN,knife,truck,90,0075_rot_dnn_90_truck_20_n03796401_7284.png,n03796401_7284.png,0.0,1.2225257,3.1832216,-1.3864213
alexnet2023_baseline_pgd,1,76,NaN,oven,chair,270,0076_rot_dnn_270_chair_20_n03376595_497.png,n03376595_497.png,0.0,4.4632573,4.6483183,-0.13085787
alexnet2023_baseline_pgd,1,77,NaN,oven,truck,270,0077_rot_dnn_270_truck_20_n03796401_19845.png,n03796401_19845.png,0.0,5.5449424,7.027672,-1.0484481
alexnet2023_baseline_pgd,1,78,NaN,bicycle,chair,90,0078_rot_dnn_90_chair_20_n04099969_1941.png,n04099969_1941.png,0.0,2.5541432,3.427328,-0.617435
alexnet2023_baseline_pgd,1,79,NaN,clock,truck,90,0079_rot_dnn_90_truck_20_n03417042_28886.png,n03417042_28886.png,0.0,1.8011557,5.8761864,-2.881482
alexnet2023_baseline_pgd,1,80,NaN,car,car,0,0080_rot_dnn_0_car_20_n02814533_12185.png,n02814533_12185.png,1.0,15.9244795,7.9302754,5.652756
alexnet2023_baseline_pgd,1,81,NaN,bicycle,bicycle,90,0081_rot_dnn_90_bicycle_20_n02835271_1621.png,n02835271_1621.png,1.0,5.7492523,2.6593666,2.184879
alexnet2023_baseline_pgd,1,82,NaN,cat,cat,0,0082_rot_dnn_0_cat_20_n02123597_32226.png,n02123597_32226.png,1.0,10.170643,3.998235,4.3645515
alexnet2023_baseline_pgd,1,83,NaN,bicycle,bicycle,90,0083_rot_dnn_90_bicycle_20_n03792782_5048.png,n03792782_5048.png,1.0,5.343587,1.5502415,2.6823003
alexnet2023_baseline_pgd,1,84,NaN,airplane,airplane,0,0084_rot_dnn_0_airplane_20_n02690373_10044.png,n02690373_10044.png,1.0,21.526484,7.1827254,10.142569
alexnet2023_baseline_pgd,1,85,NaN,car,car,180,0085_rot_dnn_180_car_20_n03100240_5752.png,n03100240_5752.png,1.0,9.936123,6.2384434,2.6146543
alexnet2023_baseline_pgd,1,86,NaN,clock,car,90,0086_rot_dnn_90_car_20_n02814533_68219.png,n02814533_68219.png,0.0,-1.3399858,4.994551,-4.479194
alexnet2023_baseline_pgd,1,87,NaN,airplane,airplane,0,0087_rot_dnn_0_airplane_20_n02690373_1171.png,n02690373_1171.png,1.0,15.890091,8.082954,5.520479
alexnet2023_baseline_pgd,1,88,NaN,oven,bird,90,0088_rot_dnn_90_bird_20_n01817953_6970.png,n01817953_6970.png,0.0,1.0939848,4.991945,-2.756274
alexnet2023_baseline_pgd,1,89,NaN,oven,car,90,0089_rot_dnn_90_car_20_n04285008_15503.png,n04285008_15503.png,0.0,-0.046102863,3.5050628,-2.5110533
alexnet2023_baseline_pgd,1,90,NaN,bottle,boat,270,0090_rot_dnn_270_boat_20_n03344393_11886.png,n03344393_11886.png,0.0,2.0075784,3.7851791,-1.2569536
alexnet2023_baseline_pgd,1,91,NaN,boat,boat,0,0091_rot_dnn_0_boat_20_n04273569_30203.png,n04273569_30203.png,1.0,7.5843477,6.6033144,0.6936953
alexnet2023_baseline_pgd,1,92,NaN,keyboard,keyboard,180,0092_rot_dnn_180_keyboard_20_n03085013_22069.png,n03085013_22069.png,1.0,15.120946,5.210155,7.007988
alexnet2023_baseline_pgd,1,93,NaN,knife,knife,0,0093_rot_dnn_0_knife_20_n03041632_26314.png,n03041632_26314.png,1.0,8.161067,4.665498,2.4717407
alexnet2023_baseline_pgd,1,94,NaN,bicycle,bicycle,270,0094_rot_dnn_270_bicycle_20_n03792782_18308.png,n03792782_18308.png,1.0,4.6510844,2.7958164,1.3118726
alexnet2023_baseline_pgd,1,95,NaN,car,car,180,0095_rot_dnn_180_car_20_n04285008_8396.png,n04285008_8396.png,1.0,7.2246056,6.37874,0.5981174
alexnet2023_baseline_pgd,1,96,NaN,bear,bear,90,0096_rot_dnn_90_bear_20_n02133161_12349.png,n02133161_12349.png,1.0,2.838496,2.7251906,0.08011897
alexnet2023_baseline_pgd,1,97,NaN,elephant,bear,270,0097_rot_dnn_270_bear_20_n02132136_18303.png,n02132136_18303.png,0.0,3.8234801,5.264436,-1.0189096
alexnet2023_baseline_pgd,1,98,NaN,cat,cat,180,0098_rot_dnn_180_cat_20_n02123394_6853.png,n02123394_6853.png,1.0,4.669568,2.6252906,1.4455224
alexnet2023_baseline_pgd,1,99,NaN,chair,cat,180,0099_rot_dnn_180_cat_20_n02123597_4805.png,n02123597_4805.png,0.0,-1.6748832,4.5636144,-4.411284
alexnet2023_baseline_pgd,1,100,NaN,chair,car,0,0100_rot_dnn_0_car_20_n03100240_17587.png,n03100240_17587.png,0.0,4.240219,4.3089128,-0.04857374
alexnet2023_baseline_pgd,1,101,NaN,bird,bird,180,0101_rot_dnn_180_bird_20_n01601694_19236.png,n01601694_19236.png,1.0,2.9287984,1.9640641,0.6821702
alexnet2023_baseline_pgd,1,102,NaN,cat,cat,0,0102_rot_dnn_0_cat_20_n02123597_2341.png,n02123597_2341.png,1.0,7.400267,3.4203267,2.8142428
alexnet2023_baseline_pgd,1,103,NaN,elephant,elephant,270,0103_rot_dnn_270_elephant_20_n02504013_7883.png,n02504013_7883.png,1.0,5.0893993,4.3483105,0.52402896
alexnet2023_baseline_pgd,1,104,NaN,bicycle,chair,270,0104_rot_dnn_270_chair_20_n03376595_14240.png,n03376595_14240.png,0.0,0.39455342,2.04568,-1.1675229
alexnet2023_baseline_pgd,1,105,NaN,airplane,airplane,0,0105_rot_dnn_0_airplane_20_n02690373_10188.png,n02690373_10188.png,1.0,17.312384,8.798384,6.020307
alexnet2023_baseline_pgd,1,106,NaN,bicycle,truck,90,0106_rot_dnn_90_truck_20_n03417042_8634.png,n03417042_8634.png,0.0,0.8160372,4.4067326,-2.539005
alexnet2023_baseline_pgd,1,107,NaN,knife,knife,90,0107_rot_dnn_90_knife_20_n03041632_32774.png,n03041632_32774.png,1.0,6.5693774,1.9609877,3.2586238
alexnet2023_baseline_pgd,1,108,NaN,bottle,bottle,90,0108_rot_dnn_90_bottle_20_n03983396_4115.png,n03983396_4115.png,1.0,6.4179378,6.0581546,0.2544051
alexnet2023_baseline_pgd,1,109,NaN,clock,clock,270,0109_rot_dnn_270_clock_20_n04548280_8552.png,n04548280_8552.png,1.0,7.5029254,4.9709444,1.790381
alexnet2023_baseline_pgd,1,110,NaN,car,car,0,0110_rot_dnn_0_car_20_n02814533_6233.png,n02814533_6233.png,1.0,25.05005,14.994982,7.110008
alexnet2023_baseline_pgd,1,111,NaN,elephant,elephant,0,0111_rot_dnn_0_elephant_20_n02504458_9870.png,n02504458_9870.png,1.0,14.886066,6.002734,6.2814646
alexnet2023_baseline_pgd,1,112,NaN,bicycle,bicycle,270,0112_rot_dnn_270_bicycle_20_n02835271_3956.png,n02835271_3956.png,1.0,7.741476,3.510136,2.9920096
alexnet2023_baseline_pgd,1,113,NaN,airplane,knife,90,0113_rot_dnn_90_knife_20_n03041632_14817.png,n03041632_14817.png,0.0,3.7025533,4.198529,-0.35070765
alexnet2023_baseline_pgd,1,114,NaN,knife,chair,90,0114_rot_dnn_90_chair_20_n04099969_8642.png,n04099969_8642.png,0.0,3.6678805,4.1246867,-0.32301074
alexnet2023_baseline_pgd,1,115,NaN,clock,clock,0,0115_rot_dnn_0_clock_20_n02708093_240.png,n02708093_240.png,1.0,9.6175375,5.27695,3.069259
alexnet2023_baseline_pgd,1,116,NaN,cat,bear,180,0116_rot_dnn_180_bear_20_n02133161_3896.png,n02133161_3896.png,0.0,4.9765463,5.5422406,-0.4000063
alexnet2023_baseline_pgd,1,117,NaN,clock,bottle,270,0117_rot_dnn_270_bottle_20_n04557648_11000.png,n04557648_11000.png,0.0,2.6745646,4.56677,-1.3379914
alexnet2023_baseline_pgd,1,118,NaN,clock,keyboard,90,0118_rot_dnn_90_keyboard_20_n03085013_2853.png,n03085013_2853.png,0.0,7.9300222,9.664586,-1.2265218
alexnet2023_baseline_pgd,1,119,NaN,bicycle,boat,90,0119_rot_dnn_90_boat_20_n04273569_7097.png,n04273569_7097.png,0.0,-0.69052917,2.5330944,-2.2794461
alexnet2023_baseline_pgd,1,120,NaN,bicycle,bicycle,270,0120_rot_dnn_270_bicycle_20_n03792782_40932.png,n03792782_40932.png,1.0,5.28148,2.7450218,1.7935467
alexnet2023_baseline_pgd,1,121,NaN,chair,chair,270,0121_rot_dnn_270_chair_20_n04429376_44914.png,n04429376_44914.png,1.0,6.497533,4.757049,1.2307079
alexnet2023_baseline_pgd,1,122,NaN,elephant,bear,180,0122_rot_dnn_180_bear_20_n02134418_2122.png,n02134418_2122.png,0.0,2.3142133,3.0970936,-0.55358
alexnet2023_baseline_pgd,1,123,NaN,keyboard,keyboard,90,0123_rot_dnn_90_keyboard_20_n03085013_22704.png,n03085013_22704.png,1.0,5.0550575,3.7571201,0.91778034
alexnet2023_baseline_pgd,1,124,NaN,truck,truck,0,0124_rot_dnn_0_truck_20_n03417042_6838.png,n03417042_6838.png,1.0,6.7258453,4.581269,1.5164447
alexnet2023_baseline_pgd,1,125,NaN,elephant,elephant,0,0125_rot_dnn_0_elephant_20_n02504458_3628.png,n02504458_3628.png,1.0,19.20791,7.6649003,8.162141
alexnet2023_baseline_pgd,1,126,NaN,cat,cat,90,0126_rot_dnn_90_cat_20_n02123597_10141.png,n02123597_10141.png,1.0,6.581913,2.5237448,2.8695583
alexnet2023_baseline_pgd,1,127,NaN,bicycle,bicycle,0,0127_rot_dnn_0_bicycle_20_n02835271_6383.png,n02835271_6383.png,1.0,7.9491415,2.651465,3.7460232
alexnet2023_baseline_pgd,1,128,NaN,airplane,car,180,0128_rot_dnn_180_car_20_n04285008_7154.png,n04285008_7154.png,0.0,4.8550334,6.413474,-1.101984
alexnet2023_baseline_pgd,1,129,NaN,bird,bird,0,0129_rot_dnn_0_bird_20_n02007558_1068.png,n02007558_1068.png,1.0,5.831206,5.7248507,0.07520448
alexnet2023_baseline_pgd,1,130,NaN,bottle,cat,90,0130_rot_dnn_90_cat_20_n02125311_1896.png,n02125311_1896.png,0.0,1.2277956,2.2221944,-0.70314616
alexnet2023_baseline_pgd,1,131,NaN,keyboard,keyboard,0,0131_rot_dnn_0_keyboard_20_n04505470_1903.png,n04505470_1903.png,1.0,18.269367,8.37668,6.995186
alexnet2023_baseline_pgd,1,132,NaN,knife,bicycle,90,0132_rot_dnn_90_bicycle_20_n03792782_66159.png,n03792782_66159.png,0.0,3.1184802,3.1423254,-0.0168611
alexnet2023_baseline_pgd,1,133,NaN,bear,bear,90,0133_rot_dnn_90_bear_20_n02134418_5219.png,n02134418_5219.png,1.0,10.064156,7.390794,1.8903522
alexnet2023_baseline_pgd,1,134,NaN,chair,car,90,0134_rot_dnn_90_car_20_n02814533_92229.png,n02814533_92229.png,0.0,2.1338632,4.847059,-1.918519
alexnet2023_baseline_pgd,1,135,NaN,cat,dog,90,0135_rot_dnn_90_dog_20_n02090721_1002.png,n02090721_1002.png,0.0,-0.13959917,2.7016544,-2.0090697
alexnet2023_baseline_pgd,1,136,NaN,bicycle,truck,270,0136_rot_dnn_270_truck_20_n04467665_46263.png,n04467665_46263.png,0.0,-2.6476989,3.563785,-4.3921824
alexnet2023_baseline_pgd,1,137,NaN,bottle,bottle,180,0137_rot_dnn_180_bottle_20_n03983396_704.png,n03983396_704.png,1.0,6.6478577,4.7478957,1.343476
alexnet2023_baseline_pgd,1,138,NaN,bicycle,truck,180,0138_rot_dnn_180_truck_20_n03796401_4149.png,n03796401_4149.png,0.0,3.7369611,3.7845507,-0.033650886
alexnet2023_baseline_pgd,1,139,NaN,bird,bird,0,0139_rot_dnn_0_bird_20_n02006656_2030.png,n02006656_2030.png,1.0,7.6589556,1.3805683,4.4394903
alexnet2023_baseline_pgd,1,140,NaN,cat,cat,90,0140_rot_dnn_90_cat_20_n02123394_234.png,n02123394_234.png,1.0,5.270016,2.9837904,1.6166058
alexnet2023_baseline_pgd,1,141,NaN,oven,chair,90,0141_rot_dnn_90_chair_20_n04429376_19916.png,n04429376_19916.png,0.0,2.6232388,9.397845,-4.7903705
alexnet2023_baseline_pgd,1,142,NaN,bottle,truck,270,0142_rot_dnn_270_truck_20_n04467665_14024.png,n04467665_14024.png,0.0,3.5805447,6.1729064,-1.8330766
alexnet2023_baseline_pgd,1,143,NaN,keyboard,chair,90,0143_rot_dnn_90_chair_20_n04429376_14729.png,n04429376_14729.png,0.0,3.8913822,9.329092,-3.8450415
alexnet2023_baseline_pgd,1,144,NaN,clock,car,270,0144_rot_dnn_270_car_20_n02814533_82321.png,n02814533_82321.png,0.0,3.664519,4.5988345,-0.6606608
alexnet2023_baseline_pgd,1,145,NaN,clock,clock,180,0145_rot_dnn_180_clock_20_n04548280_3701.png,n04548280_3701.png,1.0,5.1193705,3.563844,1.0999234
alexnet2023_baseline_pgd,1,146,NaN,knife,boat,270,0146_rot_dnn_270_boat_20_n02951358_11442.png,n02951358_11442.png,0.0,-1.8699923,2.235605,-2.903096
alexnet2023_baseline_pgd,1,147,NaN,oven,bear,90,0147_rot_dnn_90_bear_20_n02132136_17349.png,n02132136_17349.png,0.0,5.0873857,6.263286,-0.8314872
alexnet2023_baseline_pgd,1,148,NaN,oven,airplane,90,0148_rot_dnn_90_airplane_20_n02690373_4982.png,n02690373_4982.png,0.0,-0.39750585,5.2486563,-3.9924395
alexnet2023_baseline_pgd,1,149,NaN,airplane,airplane,0,0149_rot_dnn_0_airplane_20_n02690373_2232.png,n02690373_2232.png,1.0,14.099602,6.8947244,5.094618
alexnet2023_baseline_pgd,1,150,NaN,bicycle,cat,180,0150_rot_dnn_180_cat_20_n02123045_909.png,n02123045_909.png,0.0,3.774567,4.950769,-0.83170044
alexnet2023_baseline_pgd,1,151,NaN,bottle,clock,180,0151_rot_dnn_180_clock_20_n04548280_1190.png,n04548280_1190.png,0.0,9.227302,9.542998,-0.22323129
alexnet2023_baseline_pgd,1,152,NaN,chair,oven,90,0152_rot_dnn_90_oven_20_n04111531_1855.png,n04111531_1855.png,0.0,3.2877946,4.2905498,-0.709055
alexnet2023_baseline_pgd,1,153,NaN,bicycle,boat,270,0153_rot_dnn_270_boat_20_n03662601_21408.png,n03662601_21408.png,0.0,2.310798,4.1579185,-1.3061115
alexnet2023_baseline_pgd,1,154,NaN,bottle,dog,90,0154_rot_dnn_90_dog_20_n02088364_15877.png,n02088364_15877.png,0.0,0.7502739,1.881615,-0.7999791
alexnet2023_baseline_pgd,1,155,NaN,knife,knife,90,0155_rot_dnn_90_knife_20_n03041632_15250.png,n03041632_15250.png,1.0,4.0945745,3.0312989,0.75184935
alexnet2023_baseline_pgd,1,156,NaN,oven,oven,0,0156_rot_dnn_0_oven_20_n04111531_17006.png,n04111531_17006.png,1.0,9.093558,6.7915273,1.6277817
alexnet2023_baseline_pgd,1,157,NaN,clock,clock,90,0157_rot_dnn_90_clock_20_n04548280_11763.png,n04548280_11763.png,1.0,9.823695,6.4230347,2.4046302
alexnet2023_baseline_pgd,1,158,NaN,elephant,bird,270,0158_rot_dnn_270_bird_20_n02028035_8327.png,n02028035_8327.png,0.0,5.271369,5.4203424,-0.105340146
alexnet2023_baseline_pgd,1,159,NaN,bottle,car,90,0159_rot_dnn_90_car_20_n04285008_5641.png,n04285008_5641.png,0.0,-0.35831252,3.409769,-2.664436
alexnet2023_baseline_pgd,1,160,NaN,clock,oven,90,0160_rot_dnn_90_oven_20_n04111531_10727.png,n04111531_10727.png,0.0,4.283463,5.805252,-1.0760674
alexnet2023_baseline_pgd,1,161,NaN,oven,elephant,270,0161_rot_dnn_270_elephant_20_n02504458_1971.png,n02504458_1971.png,0.0,3.0402298,4.417404,-0.97380936
alexnet2023_baseline_pgd,1,162,NaN,bottle,bottle,180,0162_rot_dnn_180_bottle_20_n04560804_15941.png,n04560804_15941.png,1.0,11.442735,2.446385,6.3613796
alexnet2023_baseline_pgd,1,163,NaN,elephant,elephant,0,0163_rot_dnn_0_elephant_20_n02504458_151.png,n02504458_151.png,1.0,28.506134,12.5479355,11.284151
alexnet2023_baseline_pgd,1,164,NaN,bear,bear,180,0164_rot_dnn_180_bear_20_n02133161_15427.png,n02133161_15427.png,1.0,4.2942724,2.4080527,1.3337588
alexnet2023_baseline_pgd,1,165,NaN,elephant,bear,180,0165_rot_dnn_180_bear_20_n02134084_20605.png,n02134084_20605.png,0.0,2.112617,3.8036942,-1.1957722
alexnet2023_baseline_pgd,1,166,NaN,chair,bottle,90,0166_rot_dnn_90_bottle_20_n04560804_2693.png,n04560804_2693.png,0.0,2.103799,2.810337,-0.4995978
alexnet2023_baseline_pgd,1,167,NaN,knife,airplane,270,0167_rot_dnn_270_airplane_20_n02690373_8214.png,n02690373_8214.png,0.0,-0.59861594,6.0022755,-4.6675353
alexnet2023_baseline_pgd,1,168,NaN,boat,boat,0,0168_rot_dnn_0_boat_20_n02951358_14966.png,n02951358_14966.png,1.0,5.8133774,5.0417137,0.54564863
alexnet2023_baseline_pgd,1,169,NaN,bird,knife,90,0169_rot_dnn_90_knife_20_n03041632_14801.png,n03041632_14801.png,0.0,0.24557064,1.6788809,-1.0135034
alexnet2023_baseline_pgd,1,170,NaN,dog,dog,90,0170_rot_dnn_90_dog_20_n02110063_8776.png,n02110063_8776.png,1.0,2.9686167,1.2525539,1.2134397
alexnet2023_baseline_pgd,1,171,NaN,bicycle,dog,180,0171_rot_dnn_180_dog_20_n02100236_7671.png,n02100236_7671.png,0.0,0.85350794,2.9119503,-1.4555386
alexnet2023_baseline_pgd,1,172,NaN,oven,oven,0,0172_rot_dnn_0_oven_20_n04111531_21248.png,n04111531_21248.png,1.0,9.859106,2.933446,4.8971815
alexnet2023_baseline_pgd,1,173,NaN,knife,knife,270,0173_rot_dnn_270_knife_20_n03041632_17100.png,n03041632_17100.png,1.0,7.931877,3.7989721,2.9224052
alexnet2023_baseline_pgd,1,174,NaN,knife,knife,0,0174_rot_dnn_0_knife_20_n03041632_3781.png,n03041632_3781.png,1.0,6.8811564,3.6362126,2.2945218
alexnet2023_baseline_pgd,1,175,NaN,oven,oven,270,0175_rot_dnn_270_oven_20_n04111531_46651.png,n04111531_46651.png,1.0,5.1771855,3.7359529,1.0191054
alexnet2023_baseline_pgd,1,176,NaN,clock,clock,0,0176_rot_dnn_0_clock_20_n04548280_8303.png,n04548280_8303.png,1.0,5.1618185,4.8453636,0.2237674
alexnet2023_baseline_pgd,1,177,NaN,airplane,airplane,0,0177_rot_dnn_0_airplane_20_n02690373_2070.png,n02690373_2070.png,1.0,21.201038,5.17905,11.329256
alexnet2023_baseline_pgd,1,178,NaN,car,car,180,0178_rot_dnn_180_car_20_n03100240_574.png,n03100240_574.png,1.0,5.2711124,3.25146,1.4281099
alexnet2023_baseline_pgd,1,179,NaN,bear,dog,90,0179_rot_dnn_90_dog_20_n02095570_11263.png,n02095570_11263.png,0.0,3.2949536,4.490967,-0.8457091
alexnet2023_baseline_pgd,1,180,NaN,elephant,bottle,180,0180_rot_dnn_180_bottle_20_n03983396_9667.png,n03983396_9667.png,0.0,1.8711083,2.8518453,-0.6934858
alexnet2023_baseline_pgd,1,181,NaN,clock,clock,0,0181_rot_dnn_0_clock_20_n02708093_3535.png,n02708093_3535.png,1.0,14.328117,8.750047,3.9442916
alexnet2023_baseline_pgd,1,182,NaN,bird,bird,180,0182_rot_dnn_180_bird_20_n01531178_17239.png,n01531178_17239.png,1.0,4.794891,2.1839983,1.8461798
alexnet2023_baseline_pgd,1,183,NaN,elephant,elephant,180,0183_rot_dnn_180_elephant_20_n02504458_2272.png,n02504458_2272.png,1.0,4.235583,2.8029773,1.0130051
alexnet2023_baseline_pgd,1,184,NaN,knife,knife,90,0184_rot_dnn_90_knife_20_n03041632_50648.png,n03041632_50648.png,1.0,13.586907,2.950328,7.521198
alexnet2023_baseline_pgd,1,185,NaN,knife,knife,0,0185_rot_dnn_0_knife_20_n03041632_33225.png,n03041632_33225.png,1.0,5.635888,0.8567108,3.3793886
alexnet2023_baseline_pgd,1,186,NaN,airplane,airplane,0,0186_rot_dnn_0_airplane_20_n02690373_736.png,n02690373_736.png,1.0,19.709053,8.709972,7.7775245
alexnet2023_baseline_pgd,1,187,NaN,knife,knife,270,0187_rot_dnn_270_knife_20_n03041632_2546.png,n03041632_2546.png,1.0,3.6395204,1.9801493,1.1733526
alexnet2023_baseline_pgd,1,188,NaN,boat,boat,180,0188_rot_dnn_180_boat_20_n04273569_13053.png,n04273569_13053.png,1.0,6.3887434,4.8964667,1.055199
alexnet2023_baseline_pgd,1,189,NaN,airplane,airplane,180,0189_rot_dnn_180_airplane_20_n02690373_3588.png,n02690373_3588.png,1.0,4.972262,4.796343,0.12439356
alexnet2023_baseline_pgd,1,190,NaN,cat,keyboard,0,0190_rot_dnn_0_keyboard_20_n03085013_21004.png,n03085013_21004.png,0.0,3.6473217,8.935537,-3.7393332
alexnet2023_baseline_pgd,1,191,NaN,chair,boat,180,0191_rot_dnn_180_boat_20_n03662601_16627.png,n03662601_16627.png,0.0,1.1979072,3.7018337,-1.7705435
alexnet2023_baseline_pgd,1,192,NaN,elephant,bird,180,0192_rot_dnn_180_bird_20_n02017213_6478.png,n02017213_6478.png,0.0,4.162343,8.096569,-2.781918
alexnet2023_baseline_pgd,1,193,NaN,bear,bear,90,0193_rot_dnn_90_bear_20_n02134418_998.png,n02134418_998.png,1.0,5.098233,2.4632287,1.8632296
alexnet2023_baseline_pgd,1,194,NaN,oven,truck,90,0194_rot_dnn_90_truck_20_n04467665_71055.png,n04467665_71055.png,0.0,0.070264295,5.516096,-3.8507845
alexnet2023_baseline_pgd,1,195,NaN,knife,car,90,0195_rot_dnn_90_car_20_n02814533_23979.png,n02814533_23979.png,0.0,-0.0421512,1.6275468,-1.1806548
alexnet2023_baseline_pgd,1,196,NaN,bear,elephant,180,0196_rot_dnn_180_elephant_20_n02504458_6805.png,n02504458_6805.png,0.0,1.3536153,2.2243893,-0.6157302
alexnet2023_baseline_pgd,1,197,NaN,knife,clock,90,0197_rot_dnn_90_clock_20_n04548280_4841.png,n04548280_4841.png,0.0,6.221625,6.4538665,-0.16421963
alexnet2023_baseline_pgd,1,198,NaN,clock,boat,90,0198_rot_dnn_90_boat_20_n03662601_6832.png,n03662601_6832.png,0.0,1.9269537,3.4172757,-1.0538168
alexnet2023_baseline_pgd,1,199,NaN,oven,oven,270,0199_rot_dnn_270_oven_20_n04111531_766.png,n04111531_766.png,1.0,9.413037,0.87976867,6.033932
alexnet2023_baseline_pgd,1,200,NaN,clock,clock,0,0200_rot_dnn_0_clock_20_n04548280_1305.png,n04548280_1305.png,1.0,4.993307,1.9778866,2.1322243
alexnet2023_baseline_pgd,1,201,NaN,bicycle,bicycle,0,0201_rot_dnn_0_bicycle_20_n03792782_19083.png,n03792782_19083.png,1.0,12.656006,6.864499,4.095214
alexnet2023_baseline_pgd,1,202,NaN,oven,bird,90,0202_rot_dnn_90_bird_20_n01860187_20081.png,n01860187_20081.png,0.0,0.91540676,1.4779837,-0.397802
alexnet2023_baseline_pgd,1,203,NaN,oven,oven,0,0203_rot_dnn_0_oven_20_n04111531_4817.png,n04111531_4817.png,1.0,10.899313,1.5818739,6.5884247
alexnet2023_baseline_pgd,1,204,NaN,car,car,180,0204_rot_dnn_180_car_20_n02814533_33360.png,n02814533_33360.png,1.0,6.8226585,5.3633404,1.0318937
alexnet2023_baseline_pgd,1,205,NaN,clock,clock,270,0205_rot_dnn_270_clock_20_n04548280_4035.png,n04548280_4035.png,1.0,9.515664,6.628564,2.0414882
alexnet2023_baseline_pgd,1,206,NaN,keyboard,keyboard,270,0206_rot_dnn_270_keyboard_20_n03085013_7879.png,n03085013_7879.png,1.0,5.424319,3.5756042,1.3072387
alexnet2023_baseline_pgd,1,207,NaN,airplane,airplane,0,0207_rot_dnn_0_airplane_20_n02690373_2598.png,n02690373_2598.png,1.0,13.473808,5.5212803,5.6232867
alexnet2023_baseline_pgd,1,208,NaN,cat,cat,180,0208_rot_dnn_180_cat_20_n02123045_436.png,n02123045_436.png,1.0,6.1133447,3.8265386,1.6170161
alexnet2023_baseline_pgd,1,209,NaN,bicycle,airplane,270,0209_rot_dnn_270_airplane_20_n02690373_813.png,n02690373_813.png,0.0,-0.7880097,2.6781454,-2.4509418
alexnet2023_baseline_pgd,1,210,NaN,cat,cat,0,0210_rot_dnn_0_cat_20_n02123159_1008.png,n02123159_1008.png,1.0,13.828403,3.6432545,7.201988
alexnet2023_baseline_pgd,1,211,NaN,bottle,bottle,90,0211_rot_dnn_90_bottle_20_n03983396_5452.png,n03983396_5452.png,1.0,4.0717783,2.080583,1.4079876
alexnet2023_baseline_pgd,1,212,NaN,elephant,dog,90,0212_rot_dnn_90_dog_20_n02090379_13010.png,n02090379_13010.png,0.0,1.329398,2.9750633,-1.1636611
alexnet2023_baseline_pgd,1,213,NaN,boat,chair,180,0213_rot_dnn_180_chair_20_n04099969_4162.png,n04099969_4162.png,0.0,0.11337966,3.3340473,-2.277356
alexnet2023_baseline_pgd,1,214,NaN,oven,keyboard,270,0214_rot_dnn_270_keyboard_20_n04505470_206.png,n04505470_206.png,0.0,3.4661143,4.8897295,-1.006648
alexnet2023_baseline_pgd,1,215,NaN,cat,cat,0,0215_rot_dnn_0_cat_20_n02123045_5290.png,n02123045_5290.png,1.0,4.4106464,1.5667784,2.0109184
alexnet2023_baseline_pgd,1,216,NaN,bicycle,bird,180,0216_rot_dnn_180_bird_20_n01843383_6001.png,n01843383_6001.png,0.0,0.74558234,1.1900772,-0.31430534
alexnet2023_baseline_pgd,1,217,NaN,bicycle,knife,0,0217_rot_dnn_0_knife_20_n03041632_24376.png,n03041632_24376.png,0.0,1.9559975,3.996641,-1.4429529
alexnet2023_baseline_pgd,1,218,NaN,bicycle,bicycle,90,0218_rot_dnn_90_bicycle_20_n02835271_2915.png,n02835271_2915.png,1.0,8.234176,3.1028733,3.6283789
alexnet2023_baseline_pgd,1,219,NaN,bicycle,bicycle,0,0219_rot_dnn_0_bicycle_20_n03792782_5517.png,n03792782_5517.png,1.0,18.114532,1.5066731,11.743529
alexnet2023_baseline_pgd,1,220,NaN,bicycle,bicycle,90,0220_rot_dnn_90_bicycle_20_n02835271_7053.png,n02835271_7053.png,1.0,6.1592054,2.9017887,2.3033414
alexnet2023_baseline_pgd,1,221,NaN,clock,clock,180,0221_rot_dnn_180_clock_20_n04548280_7115.png,n04548280_7115.png,1.0,7.606707,5.038627,1.8159068
alexnet2023_baseline_pgd,1,222,NaN,clock,boat,270,0222_rot_dnn_270_boat_20_n04273569_29866.png,n04273569_29866.png,0.0,2.2274737,4.2901325,-1.45852
alexnet2023_baseline_pgd,1,223,NaN,clock,clock,90,0223_rot_dnn_90_clock_20_n02708093_3623.png,n02708093_3623.png,1.0,4.4710298,3.6654043,0.5696632
alexnet2023_baseline_pgd,1,224,NaN,bear,bear,180,0224_rot_dnn_180_bear_20_n02132136_7468.png,n02132136_7468.png,1.0,5.9529834,3.6187773,1.650533
alexnet2023_baseline_pgd,1,225,NaN,cat,cat,0,0225_rot_dnn_0_cat_20_n02123159_2137.png,n02123159_2137.png,1.0,9.021302,3.2497823,4.081081
alexnet2023_baseline_pgd,1,226,NaN,chair,bottle,90,0226_rot_dnn_90_bottle_20_n03937543_5257.png,n03937543_5257.png,0.0,1.4899423,2.6284556,-0.8050505
alexnet2023_baseline_pgd,1,227,NaN,cat,cat,0,0227_rot_dnn_0_cat_20_n02123394_937.png,n02123394_937.png,1.0,5.3630033,0.69327945,3.3019936
alexnet2023_baseline_pgd,1,228,NaN,boat,boat,0,0228_rot_dnn_0_boat_20_n03662601_11764.png,n03662601_11764.png,1.0,11.018757,7.2263904,2.6816082
alexnet2023_baseline_pgd,1,229,NaN,bear,bear,0,0229_rot_dnn_0_bear_20_n02132136_10412.png,n02132136_10412.png,1.0,12.305355,6.3142395,4.2363586
alexnet2023_baseline_pgd,1,230,NaN,clock,clock,270,0230_rot_dnn_270_clock_20_n03196217_3600.png,n03196217_3600.png,1.0,7.449187,4.004662,2.4356468
alexnet2023_baseline_pgd,1,231,NaN,oven,dog,270,0231_rot_dnn_270_dog_20_n02102177_255.png,n02102177_255.png,0.0,1.1862466,2.2491136,-0.75156045
alexnet2023_baseline_pgd,1,232,NaN,bird,bird,270,0232_rot_dnn_270_bird_20_n01614925_1860.png,n01614925_1860.png,1.0,4.7422934,4.287046,0.32190853
alexnet2023_baseline_pgd,1,233,NaN,airplane,airplane,180,0233_rot_dnn_180_airplane_20_n02690373_1021.png,n02690373_1021.png,1.0,4.284408,2.0567894,1.5751643
alexnet2023_baseline_pgd,1,234,NaN,chair,chair,180,0234_rot_dnn_180_chair_20_n03376595_9079.png,n03376595_9079.png,1.0,6.0564504,4.390969,1.1776733
alexnet2023_baseline_pgd,1,235,NaN,chair,chair,90,0235_rot_dnn_90_chair_20_n02791124_5199.png,n02791124_5199.png,1.0,7.5310383,4.8982196,1.861684
alexnet2023_baseline_pgd,1,236,NaN,clock,keyboard,90,0236_rot_dnn_90_keyboard_20_n03085013_24294.png,n03085013_24294.png,0.0,0.68926525,5.980583,-3.7415268
alexnet2023_baseline_pgd,1,237,NaN,cat,cat,0,0237_rot_dnn_0_cat_20_n02123597_13286.png,n02123597_13286.png,1.0,7.3777237,3.857533,2.4891508
alexnet2023_baseline_pgd,1,238,NaN,bird,bird,180,0238_rot_dnn_180_bird_20_n01560419_17392.png,n01560419_17392.png,1.0,4.142885,2.4303684,1.2109323
alexnet2023_baseline_pgd,1,239,NaN,oven,oven,270,0239_rot_dnn_270_oven_20_n04111531_6934.png,n04111531_6934.png,1.0,3.919931,2.2542565,1.1778097
alexnet2023_baseline_pgd,1,240,NaN,knife,clock,90,0240_rot_dnn_90_clock_20_n03196217_6707.png,n03196217_6707.png,0.0,2.3842583,3.2657902,-0.6233372
alexnet2023_baseline_pgd,1,241,NaN,knife,knife,180,0241_rot_dnn_180_knife_20_n03041632_15174.png,n03041632_15174.png,1.0,2.1263947,1.827036,0.2116786
alexnet2023_baseline_pgd,1,242,NaN,oven,oven,180,0242_rot_dnn_180_oven_20_n04111531_13644.png,n04111531_13644.png,1.0,12.682864,2.1432335,7.452645
alexnet2023_baseline_pgd,1,243,NaN,elephant,elephant,0,0243_rot_dnn_0_elephant_20_n02504458_3458.png,n02504458_3458.png,1.0,24.971146,7.119604,12.622947
alexnet2023_baseline_pgd,1,244,NaN,clock,clock,90,0244_rot_dnn_90_clock_20_n04548280_18914.png,n04548280_18914.png,1.0,14.487536,5.999327,6.00207
alexnet2023_baseline_pgd,1,245,NaN,dog,dog,180,0245_rot_dnn_180_dog_20_n02107908_2754.png,n02107908_2754.png,1.0,2.889758,2.7131948,0.12484908
alexnet2023_baseline_pgd,1,246,NaN,airplane,airplane,0,0246_rot_dnn_0_airplane_20_n02690373_1306.png,n02690373_1306.png,1.0,17.7176,6.1953225,8.147481
alexnet2023_baseline_pgd,1,247,NaN,chair,chair,90,0247_rot_dnn_90_chair_20_n03376595_10266.png,n03376595_10266.png,1.0,3.661568,2.1368876,1.0781119
alexnet2023_baseline_pgd,1,248,NaN,keyboard,keyboard,270,0248_rot_dnn_270_keyboard_20_n04505470_1416.png,n04505470_1416.png,1.0,8.040855,6.533586,1.0658004
alexnet2023_baseline_pgd,1,249,NaN,clock,clock,180,0249_rot_dnn_180_clock_20_n04548280_4686.png,n04548280_4686.png,1.0,10.433904,6.114006,3.054629
alexnet2023_baseline_pgd,1,250,NaN,clock,truck,270,0250_rot_dnn_270_truck_20_n04467665_69882.png,n04467665_69882.png,0.0,0.86910856,3.1167965,-1.5893553
alexnet2023_baseline_pgd,1,251,NaN,knife,bottle,270,0251_rot_dnn_270_bottle_20_n04591713_2123.png,n04591713_2123.png,0.0,3.1848223,9.086614,-4.173197
alexnet2023_baseline_pgd,1,252,NaN,oven,oven,90,0252_rot_dnn_90_oven_20_n04111531_6933.png,n04111531_6933.png,1.0,5.3154025,2.5283751,1.970726
alexnet2023_baseline_pgd,1,253,NaN,knife,car,270,0253_rot_dnn_270_car_20_n03100240_8898.png,n03100240_8898.png,0.0,-4.102115,3.7410398,-5.545948
alexnet2023_baseline_pgd,1,254,NaN,elephant,elephant,180,0254_rot_dnn_180_elephant_20_n02504458_5277.png,n02504458_5277.png,1.0,9.155338,4.1404715,3.5460465
alexnet2023_baseline_pgd,1,255,NaN,oven,truck,270,0255_rot_dnn_270_truck_20_n03417042_9967.png,n03417042_9967.png,0.0,2.6512597,9.470878,-4.8221984
alexnet2023_baseline_pgd,1,256,NaN,bear,bear,0,0256_rot_dnn_0_bear_20_n02134418_1017.png,n02134418_1017.png,1.0,6.8644047,4.807107,1.4547292
alexnet2023_baseline_pgd,1,257,NaN,bottle,airplane,90,0257_rot_dnn_90_airplane_20_n02690373_1909.png,n02690373_1909.png,0.0,2.346809,3.1583505,-0.5738465
alexnet2023_baseline_pgd,1,258,NaN,airplane,airplane,0,0258_rot_dnn_0_airplane_20_n02690373_6753.png,n02690373_6753.png,1.0,21.542955,6.9696264,10.3049
alexnet2023_baseline_pgd,1,259,NaN,airplane,airplane,0,0259_rot_dnn_0_airplane_20_n02690373_1972.png,n02690373_1972.png,1.0,16.259586,7.8207183,5.9671807
alexnet2023_baseline_pgd,1,260,NaN,bottle,oven,90,0260_rot_dnn_90_oven_20_n04111531_9915.png,n04111531_9915.png,0.0,2.2635226,5.206363,-2.0809026
alexnet2023_baseline_pgd,1,261,NaN,elephant,elephant,270,0261_rot_dnn_270_elephant_20_n02504458_485.png,n02504458_485.png,1.0,6.5559044,4.8617835,1.1979244
alexnet2023_baseline_pgd,1,262,NaN,elephant,elephant,180,0262_rot_dnn_180_elephant_20_n02504013_2431.png,n02504013_2431.png,1.0,9.3567295,2.2901723,4.9968104
alexnet2023_baseline_pgd,1,263,NaN,clock,clock,180,0263_rot_dnn_180_clock_20_n02708093_1038.png,n02708093_1038.png,1.0,7.700758,5.5220556,1.5405753
alexnet2023_baseline_pgd,1,264,NaN,cat,cat,270,0264_rot_dnn_270_cat_20_n02123597_5927.png,n02123597_5927.png,1.0,6.138103,3.9341378,1.5584388
alexnet2023_baseline_pgd,1,265,NaN,bicycle,bicycle,90,0265_rot_dnn_90_bicycle_20_n03792782_3202.png,n03792782_3202.png,1.0,10.694483,1.9556141,6.1793137
alexnet2023_baseline_pgd,1,266,NaN,knife,car,270,0266_rot_dnn_270_car_20_n02814533_45480.png,n02814533_45480.png,0.0,-0.74231845,5.160953,-4.1742435
alexnet2023_baseline_pgd,1,267,NaN,truck,truck,90,0267_rot_dnn_90_truck_20_n03796401_4571.png,n03796401_4571.png,1.0,5.053712,4.8157353,0.16827483
alexnet2023_baseline_pgd,1,268,NaN,knife,oven,90,0268_rot_dnn_90_oven_20_n04111531_21011.png,n04111531_21011.png,0.0,0.009368159,2.0087047,-1.4137444
alexnet2023_baseline_pgd,1,269,NaN,airplane,airplane,0,0269_rot_dnn_0_airplane_20_n02690373_4310.png,n02690373_4310.png,1.0,19.39902,3.6838655,11.112292
alexnet2023_baseline_pgd,1,270,NaN,oven,oven,0,0270_rot_dnn_0_oven_20_n04111531_7134.png,n04111531_7134.png,1.0,7.217454,3.5767145,2.5743916
alexnet2023_baseline_pgd,1,271,NaN,cat,dog,270,0271_rot_dnn_270_dog_20_n02105251_1092.png,n02105251_1092.png,0.0,4.1217656,7.540142,-2.4171572
alexnet2023_baseline_pgd,1,272,NaN,knife,knife,180,0272_rot_dnn_180_knife_20_n03041632_34505.png,n03041632_34505.png,1.0,5.4078283,2.6988645,1.9155267
alexnet2023_baseline_pgd,1,273,NaN,keyboard,keyboard,90,0273_rot_dnn_90_keyboard_20_n04505470_4520.png,n04505470_4520.png,1.0,4.7892623,3.067506,1.2174655
alexnet2023_baseline_pgd,1,274,NaN,boat,boat,180,0274_rot_dnn_180_boat_20_n03344393_1519.png,n03344393_1519.png,1.0,4.789295,3.747674,0.73653746
alexnet2023_baseline_pgd,1,275,NaN,knife,chair,270,0275_rot_dnn_270_chair_20_n03376595_9535.png,n03376595_9535.png,0.0,4.0497155,5.0706344,-0.7218987
alexnet2023_baseline_pgd,1,276,NaN,bear,cat,270,0276_rot_dnn_270_cat_20_n02125311_1326.png,n02125311_1326.png,0.0,2.4936273,8.177918,-4.0194006
alexnet2023_baseline_pgd,1,277,NaN,cat,cat,90,0277_rot_dnn_90_cat_20_n02123394_2948.png,n02123394_2948.png,1.0,5.470125,1.8197266,2.5812218
alexnet2023_baseline_pgd,1,278,NaN,oven,oven,270,0278_rot_dnn_270_oven_20_n04111531_5429.png,n04111531_5429.png,1.0,7.501874,4.954539,1.801238
alexnet2023_baseline_pgd,1,279,NaN,elephant,elephant,0,0279_rot_dnn_0_elephant_20_n02504013_6645.png,n02504013_6645.png,1.0,8.639217,4.2733293,3.0871491
alexnet2023_baseline_pgd,1,280,NaN,clock,keyboard,90,0280_rot_dnn_90_keyboard_20_n04505470_4159.png,n04505470_4159.png,0.0,5.767628,6.5980034,-0.5871639
alexnet2023_baseline_pgd,1,281,NaN,bottle,bottle,90,0281_rot_dnn_90_bottle_20_n02823428_6252.png,n02823428_6252.png,1.0,4.255416,3.2001648,0.7461752
alexnet2023_baseline_pgd,1,282,NaN,airplane,airplane,180,0282_rot_dnn_180_airplane_20_n02690373_15097.png,n02690373_15097.png,1.0,7.60052,5.516038,1.4739516
alexnet2023_baseline_pgd,1,283,NaN,knife,cat,0,0283_rot_dnn_0_cat_20_n02123159_3420.png,n02123159_3420.png,0.0,2.2067626,3.924546,-1.2146564
alexnet2023_baseline_pgd,1,284,NaN,cat,cat,0,0284_rot_dnn_0_cat_20_n02124075_7835.png,n02124075_7835.png,1.0,5.5593534,2.5576098,2.1225533
alexnet2023_baseline_pgd,1,285,NaN,cat,cat,90,0285_rot_dnn_90_cat_20_n02123045_6696.png,n02123045_6696.png,1.0,6.2413106,2.8429847,2.4029794
alexnet2023_baseline_pgd,1,286,NaN,boat,boat,180,0286_rot_dnn_180_boat_20_n02951358_34766.png,n02951358_34766.png,1.0,4.648276,2.7876835,1.3156375
alexnet2023_baseline_pgd,1,287,NaN,elephant,bird,0,0287_rot_dnn_0_bird_20_n01855672_8191.png,n01855672_8191.png,0.0,2.4531362,4.998743,-1.8000159
alexnet2023_baseline_pgd,1,288,NaN,oven,truck,180,0288_rot_dnn_180_truck_20_n03796401_1150.png,n03796401_1150.png,0.0,2.3036919,3.5289829,-0.8664116
alexnet2023_baseline_pgd,1,289,NaN,bicycle,bicycle,270,0289_rot_dnn_270_bicycle_20_n03792782_9782.png,n03792782_9782.png,1.0,2.9780574,2.2652476,0.5040327
alexnet2023_baseline_pgd,1,290,NaN,knife,boat,270,0290_rot_dnn_270_boat_20_n03662601_12969.png,n03662601_12969.png,0.0,-0.4392395,6.59718,-4.9755
alexnet2023_baseline_pgd,1,291,NaN,airplane,bottle,180,0291_rot_dnn_180_bottle_20_n02823428_4530.png,n02823428_4530.png,0.0,2.9966028,3.089458,-0.065658554
alexnet2023_baseline_pgd,1,292,NaN,chair,chair,0,0292_rot_dnn_0_chair_20_n02791124_2898.png,n02791124_2898.png,1.0,5.5553455,4.7744446,0.55218035
alexnet2023_baseline_pgd,1,293,NaN,cat,cat,270,0293_rot_dnn_270_cat_20_n02123394_686.png,n02123394_686.png,1.0,4.855501,3.2837813,1.1113738
alexnet2023_baseline_pgd,1,294,NaN,elephant,dog,180,0294_rot_dnn_180_dog_20_n02100735_4364.png,n02100735_4364.png,0.0,2.6234004,4.4412117,-1.2853867
alexnet2023_baseline_pgd,1,295,NaN,dog,dog,0,0295_rot_dnn_0_dog_20_n02102177_7968.png,n02102177_7968.png,1.0,6.301619,4.682559,1.1448483
alexnet2023_baseline_pgd,1,296,NaN,bird,knife,270,0296_rot_dnn_270_knife_20_n03041632_15099.png,n03041632_15099.png,0.0,0.4419386,1.987281,-1.092722
alexnet2023_baseline_pgd,1,297,NaN,oven,oven,180,0297_rot_dnn_180_oven_20_n04111531_2937.png,n04111531_2937.png,1.0,14.585057,5.60936,6.346776
alexnet2023_baseline_pgd,1,298,NaN,bear,cat,0,0298_rot_dnn_0_cat_20_n02123394_3695.png,n02123394_3695.png,0.0,4.4817157,4.762781,-0.1987433
alexnet2023_baseline_pgd,1,299,NaN,cat,bear,180,0299_rot_dnn_180_bear_20_n02134084_3696.png,n02134084_3696.png,0.0,-2.5399146,1.4413801,-2.8152006
alexnet2023_baseline_pgd,1,300,NaN,elephant,oven,270,0300_rot_dnn_270_oven_20_n04111531_4671.png,n04111531_4671.png,0.0,0.24958561,2.6187267,-1.6752357
alexnet2023_baseline_pgd,1,301,NaN,bear,bear,180,0301_rot_dnn_180_bear_20_n02133161_2741.png,n02133161_2741.png,1.0,6.34953,2.556903,2.6817925
alexnet2023_baseline_pgd,1,302,NaN,bicycle,boat,90,0302_rot_dnn_90_boat_20_n03662601_3893.png,n03662601_3893.png,0.0,2.8223977,4.0470743,-0.86597717
alexnet2023_baseline_pgd,1,303,NaN,bicycle,boat,90,0303_rot_dnn_90_boat_20_n03344393_2790.png,n03344393_2790.png,0.0,1.4207287,3.7869473,-1.6731693
alexnet2023_baseline_pgd,1,304,NaN,airplane,keyboard,180,0304_rot_dnn_180_keyboard_20_n03085013_3920.png,n03085013_3920.png,0.0,5.075756,7.3794084,-1.6289282
alexnet2023_baseline_pgd,1,305,NaN,oven,chair,90,0305_rot_dnn_90_chair_20_n04099969_1962.png,n04099969_1962.png,0.0,3.2310138,6.687936,-2.4444132
alexnet2023_baseline_pgd,1,306,NaN,oven,knife,0,0306_rot_dnn_0_knife_20_n03041632_13846.png,n03041632_13846.png,0.0,3.6989686,6.0199523,-1.6411833
alexnet2023_baseline_pgd,1,307,NaN,bicycle,boat,0,0307_rot_dnn_0_boat_20_n02951358_30117.png,n02951358_30117.png,0.0,6.7509995,6.760294,-0.006572211
alexnet2023_baseline_pgd,1,308,NaN,elephant,elephant,270,0308_rot_dnn_270_elephant_20_n02504458_9922.png,n02504458_9922.png,1.0,3.32718,3.0373158,0.20496485
alexnet2023_baseline_pgd,1,309,NaN,clock,boat,180,0309_rot_dnn_180_boat_20_n03344393_5609.png,n03344393_5609.png,0.0,4.6960144,4.820828,-0.088256516
alexnet2023_baseline_pgd,1,310,NaN,chair,chair,0,0310_rot_dnn_0_chair_20_n02791124_3180.png,n02791124_3180.png,1.0,12.021857,6.532215,3.8817632
alexnet2023_baseline_pgd,1,311,NaN,elephant,boat,90,0311_rot_dnn_90_boat_20_n02951358_12532.png,n02951358_12532.png,0.0,1.615847,3.8098843,-1.5514188
alexnet2023_baseline_pgd,1,312,NaN,cat,cat,180,0312_rot_dnn_180_cat_20_n02123597_1901.png,n02123597_1901.png,1.0,3.0276594,2.6124687,0.29358417
alexnet2023_baseline_pgd,1,313,NaN,bear,elephant,270,0313_rot_dnn_270_elephant_20_n02504013_5173.png,n02504013_5173.png,0.0,2.3847175,2.7817643,-0.2807545
alexnet2023_baseline_pgd,1,314,NaN,car,car,180,0314_rot_dnn_180_car_20_n04285008_4834.png,n04285008_4834.png,1.0,7.2085376,5.746469,1.0338386
alexnet2023_baseline_pgd,1,315,NaN,car,truck,270,0315_rot_dnn_270_truck_20_n03417042_28584.png,n03417042_28584.png,0.0,3.4082732,5.6961784,-1.6177933
alexnet2023_baseline_pgd,1,316,NaN,elephant,dog,180,0316_rot_dnn_180_dog_20_n02093428_11151.png,n02093428_11151.png,0.0,1.697869,7.8776374,-4.369756
alexnet2023_baseline_pgd,1,317,NaN,airplane,bicycle,90,0317_rot_dnn_90_bicycle_20_n03792782_1475.png,n03792782_1475.png,0.0,3.163969,4.080598,-0.6481545
alexnet2023_baseline_pgd,1,318,NaN,oven,knife,0,0318_rot_dnn_0_knife_20_n03041632_8666.png,n03041632_8666.png,0.0,4.282318,4.7020526,-0.2967971
alexnet2023_baseline_pgd,1,319,NaN,clock,clock,0,0319_rot_dnn_0_clock_20_n04548280_253.png,n04548280_253.png,1.0,8.507327,5.4518733,2.1605322
alexnet2023_baseline_pgd,1,320,NaN,airplane,airplane,180,0320_rot_dnn_180_airplane_20_n02690373_9441.png,n02690373_9441.png,1.0,11.213502,5.94782,3.7233994
alexnet2023_baseline_pgd,1,321,NaN,boat,airplane,270,0321_rot_dnn_270_airplane_20_n02690373_1946.png,n02690373_1946.png,0.0,0.63643897,2.7343802,-1.4834687
alexnet2023_baseline_pgd,1,322,NaN,bottle,car,90,0322_rot_dnn_90_car_20_n03100240_5044.png,n03100240_5044.png,0.0,2.5528398,4.366107,-1.2821736
alexnet2023_baseline_pgd,1,323,NaN,cat,dog,270,0323_rot_dnn_270_dog_20_n02111500_6559.png,n02111500_6559.png,0.0,3.423779,5.297996,-1.3252716
alexnet2023_baseline_pgd,1,324,NaN,cat,dog,270,0324_rot_dnn_270_dog_20_n02096051_1852.png,n02096051_1852.png,0.0,3.6377034,4.046032,-0.28873187
alexnet2023_baseline_pgd,1,325,NaN,bear,bear,270,0325_rot_dnn_270_bear_20_n02133161_5020.png,n02133161_5020.png,1.0,2.527297,2.283329,0.17251144
alexnet2023_baseline_pgd,1,326,NaN,knife,chair,90,0326_rot_dnn_90_chair_20_n02791124_2034.png,n02791124_2034.png,0.0,3.6349225,4.03765,-0.2847714
alexnet2023_baseline_pgd,1,327,NaN,clock,clock,180,0327_rot_dnn_180_clock_20_n03196217_6526.png,n03196217_6526.png,1.0,6.4319954,4.6614943,1.2519333
alexnet2023_baseline_pgd,1,328,NaN,oven,oven,180,0328_rot_dnn_180_oven_20_n04111531_9779.png,n04111531_9779.png,1.0,8.163763,6.5882177,1.1140788
alexnet2023_baseline_pgd,1,329,NaN,boat,boat,0,0329_rot_dnn_0_boat_20_n03662601_28640.png,n03662601_28640.png,1.0,9.7996855,4.2122126,3.9509401
alexnet2023_baseline_pgd,1,330,NaN,knife,knife,90,0330_rot_dnn_90_knife_20_n03041632_31301.png,n03041632_31301.png,1.0,9.016691,4.689748,3.059611
alexnet2023_baseline_pgd,1,331,NaN,keyboard,keyboard,90,0331_rot_dnn_90_keyboard_20_n03085013_9209.png,n03085013_9209.png,1.0,10.03051,6.9704685,2.1637762
alexnet2023_baseline_pgd,1,332,NaN,bear,elephant,90,0332_rot_dnn_90_elephant_20_n02504458_113.png,n02504458_113.png,0.0,2.290329,2.4830585,-0.13628031
alexnet2023_baseline_pgd,1,333,NaN,bicycle,bicycle,180,0333_rot_dnn_180_bicycle_20_n03792782_6058.png,n03792782_6058.png,1.0,4.342927,2.3434062,1.4138747
alexnet2023_baseline_pgd,1,334,NaN,keyboard,keyboard,0,0334_rot_dnn_0_keyboard_20_n04505470_4651.png,n04505470_4651.png,1.0,15.041416,5.4768853,6.763145
alexnet2023_baseline_pgd,1,335,NaN,keyboard,keyboard,180,0335_rot_dnn_180_keyboard_20_n03085013_7009.png,n03085013_7009.png,1.0,4.732484,2.3050373,1.716464
alexnet2023_baseline_pgd,1,336,NaN,bottle,truck,270,0336_rot_dnn_270_truck_20_n04467665_44390.png,n04467665_44390.png,0.0,0.36736882,5.688056,-3.762294
alexnet2023_baseline_pgd,1,337,NaN,knife,boat,90,0337_rot_dnn_90_boat_20_n04273569_17340.png,n04273569_17340.png,0.0,-1.3565712,1.3740282,-1.9308254
alexnet2023_baseline_pgd,1,338,NaN,elephant,elephant,0,0338_rot_dnn_0_elephant_20_n02504013_1333.png,n02504013_1333.png,1.0,13.399287,7.2834916,4.3245206
alexnet2023_baseline_pgd,1,339,NaN,bottle,knife,270,0339_rot_dnn_270_knife_20_n03041632_50034.png,n03041632_50034.png,0.0,3.5949218,3.8650353,-0.19099906
alexnet2023_baseline_pgd,1,340,NaN,clock,clock,90,0340_rot_dnn_90_clock_20_n02708093_2740.png,n02708093_2740.png,1.0,5.26993,4.0601544,0.85544044
alexnet2023_baseline_pgd,1,341,NaN,bear,bear,0,0341_rot_dnn_0_bear_20_n02132136_13975.png,n02132136_13975.png,1.0,12.8046,6.5291967,4.4373803
alexnet2023_baseline_pgd,1,342,NaN,elephant,elephant,90,0342_rot_dnn_90_elephant_20_n02504013_256.png,n02504013_256.png,1.0,5.8147407,3.9909317,1.2896277
alexnet2023_baseline_pgd,1,343,NaN,bicycle,boat,90,0343_rot_dnn_90_boat_20_n03344393_6588.png,n03344393_6588.png,0.0,0.08149457,7.196192,-5.030851
alexnet2023_baseline_pgd,1,344,NaN,knife,knife,270,0344_rot_dnn_270_knife_20_n03041632_7173.png,n03041632_7173.png,1.0,6.4783254,1.8105164,3.3006394
alexnet2023_baseline_pgd,1,345,NaN,elephant,elephant,180,0345_rot_dnn_180_elephant_20_n02504458_1041.png,n02504458_1041.png,1.0,3.299364,2.9017637,0.28114596
alexnet2023_baseline_pgd,1,346,NaN,chair,chair,180,0346_rot_dnn_180_chair_20_n04099969_8021.png,n04099969_8021.png,1.0,3.4945288,2.4484663,0.7396779
alexnet2023_baseline_pgd,1,347,NaN,truck,truck,0,0347_rot_dnn_0_truck_20_n03796401_1791.png,n03796401_1791.png,1.0,12.160672,6.5424066,3.9727137
alexnet2023_baseline_pgd,1,348,NaN,keyboard,keyboard,90,0348_rot_dnn_90_keyboard_20_n04505470_5007.png,n04505470_5007.png,1.0,4.28664,2.5146368,1.2529956
alexnet2023_baseline_pgd,1,349,NaN,truck,truck,180,0349_rot_dnn_180_truck_20_n03417042_29384.png,n03417042_29384.png,1.0,4.378427,3.3834045,0.7035872
alexnet2023_baseline_pgd,1,350,NaN,bird,bird,90,0350_rot_dnn_90_bird_20_n01534433_1271.png,n01534433_1271.png,1.0,4.401101,1.7082222,1.904153
alexnet2023_baseline_pgd,1,351,NaN,cat,dog,270,0351_rot_dnn_270_dog_20_n02113624_393.png,n02113624_393.png,0.0,4.1419415,5.1763387,-0.7314292
alexnet2023_baseline_pgd,1,352,NaN,cat,cat,90,0352_rot_dnn_90_cat_20_n02123159_5461.png,n02123159_5461.png,1.0,2.8434007,1.6236796,0.8624731
alexnet2023_baseline_pgd,1,353,NaN,oven,knife,270,0353_rot_dnn_270_knife_20_n03041632_9759.png,n03041632_9759.png,0.0,4.0242624,6.590543,-1.8146343
alexnet2023_baseline_pgd,1,354,NaN,bicycle,chair,90,0354_rot_dnn_90_chair_20_n04429376_1754.png,n04429376_1754.png,0.0,2.0914204,6.3583736,-3.017192
alexnet2023_baseline_pgd,1,355,NaN,chair,oven,90,0355_rot_dnn_90_oven_20_n04111531_1818.png,n04111531_1818.png,0.0,0.5311286,2.2881835,-1.2424254
alexnet2023_baseline_pgd,1,356,NaN,clock,clock,0,0356_rot_dnn_0_clock_20_n04548280_5798.png,n04548280_5798.png,1.0,11.994296,5.1382895,4.847929
alexnet2023_baseline_pgd,1,357,NaN,oven,oven,90,0357_rot_dnn_90_oven_20_n04111531_3099.png,n04111531_3099.png,1.0,4.9943514,4.4232607,0.40382212
alexnet2023_baseline_pgd,1,358,NaN,bottle,bottle,270,0358_rot_dnn_270_bottle_20_n04557648_581.png,n04557648_581.png,1.0,6.479179,3.7095578,1.9584179
alexnet2023_baseline_pgd,1,359,NaN,bird,bird,0,0359_rot_dnn_0_bird_20_n01531178_3183.png,n01531178_3183.png,1.0,7.035579,2.5326786,3.1840315
alexnet2023_baseline_pgd,1,360,NaN,knife,airplane,90,0360_rot_dnn_90_airplane_20_n02690373_8872.png,n02690373_8872.png,0.0,2.6175528,5.0084386,-1.6906116
alexnet2023_baseline_pgd,1,361,NaN,bear,cat,0,0361_rot_dnn_0_cat_20_n02123394_5301.png,n02123394_5301.png,0.0,3.2853508,3.6164005,-0.23408748
alexnet2023_baseline_pgd,1,362,NaN,bicycle,bicycle,270,0362_rot_dnn_270_bicycle_20_n03792782_12844.png,n03792782_12844.png,1.0,9.953867,2.892683,4.993011
alexnet2023_baseline_pgd,1,363,NaN,elephant,bear,90,0363_rot_dnn_90_bear_20_n02132136_2691.png,n02132136_2691.png,0.0,5.528679,6.3459606,-0.5779055
alexnet2023_baseline_pgd,1,364,NaN,car,car,0,0364_rot_dnn_0_car_20_n02814533_27327.png,n02814533_27327.png,1.0,13.342121,9.841829,2.47508
alexnet2023_baseline_pgd,1,365,NaN,bird,bird,0,0365_rot_dnn_0_bird_20_n02027492_7653.png,n02027492_7653.png,1.0,4.277926,3.7423265,0.37872604
alexnet2023_baseline_pgd,1,366,NaN,elephant,bear,0,0366_rot_dnn_0_bear_20_n02133161_62.png,n02133161_62.png,0.0,9.868945,11.380648,-1.0689352
alexnet2023_baseline_pgd,1,367,NaN,bottle,bottle,0,0367_rot_dnn_0_bottle_20_n04560804_9710.png,n04560804_9710.png,1.0,7.7524133,3.6299212,2.915042
alexnet2023_baseline_pgd,1,368,NaN,clock,clock,180,0368_rot_dnn_180_clock_20_n04548280_15154.png,n04548280_15154.png,1.0,9.481187,3.7237158,4.071147
alexnet2023_baseline_pgd,1,369,NaN,oven,oven,180,0369_rot_dnn_180_oven_20_n04111531_114.png,n04111531_114.png,1.0,4.7642045,2.8462164,1.3562224
alexnet2023_baseline_pgd,1,370,NaN,bird,cat,180,0370_rot_dnn_180_cat_20_n02125311_24813.png,n02125311_24813.png,0.0,4.8567367,5.779907,-0.6527802
alexnet2023_baseline_pgd,1,371,NaN,bicycle,airplane,90,0371_rot_dnn_90_airplane_20_n02690373_7647.png,n02690373_7647.png,0.0,-0.28736776,3.38475,-2.5965793
alexnet2023_baseline_pgd,1,372,NaN,bottle,bottle,0,0372_rot_dnn_0_bottle_20_n03983396_9823.png,n03983396_9823.png,1.0,6.4452705,3.1839762,2.3060834
alexnet2023_baseline_pgd,1,373,NaN,bear,bear,0,0373_rot_dnn_0_bear_20_n02134418_2398.png,n02134418_2398.png,1.0,7.362711,5.868353,1.0566708
alexnet2023_baseline_pgd,1,374,NaN,keyboard,keyboard,90,0374_rot_dnn_90_keyboard_20_n04505470_4584.png,n04505470_4584.png,1.0,3.2378142,2.5506597,0.48589164
alexnet2023_baseline_pgd,1,375,NaN,keyboard,keyboard,0,0375_rot_dnn_0_keyboard_20_n04505470_10055.png,n04505470_10055.png,1.0,8.510412,7.156779,0.9571634
alexnet2023_baseline_pgd,1,376,NaN,airplane,boat,270,0376_rot_dnn_270_boat_20_n04273569_10980.png,n04273569_10980.png,0.0,3.05217,3.1353664,-0.05882874
alexnet2023_baseline_pgd,1,377,NaN,car,car,180,0377_rot_dnn_180_car_20_n03100240_16210.png,n03100240_16210.png,1.0,11.098099,4.895879,4.385632
alexnet2023_baseline_pgd,1,378,NaN,keyboard,keyboard,0,0378_rot_dnn_0_keyboard_20_n04505470_1067.png,n04505470_1067.png,1.0,16.612423,5.8045197,7.6423416
alexnet2023_baseline_pgd,1,379,NaN,elephant,elephant,0,0379_rot_dnn_0_elephant_20_n02504458_7867.png,n02504458_7867.png,1.0,14.060738,5.857174,5.8007956
alexnet2023_baseline_pgd,1,380,NaN,keyboard,keyboard,180,0380_rot_dnn_180_keyboard_20_n04505470_807.png,n04505470_807.png,1.0,13.835229,12.187395,1.1651945
alexnet2023_baseline_pgd,1,381,NaN,bicycle,bicycle,270,0381_rot_dnn_270_bicycle_20_n02835271_24104.png,n02835271_24104.png,1.0,6.619588,2.5777671,2.8579988
alexnet2023_baseline_pgd,1,382,NaN,clock,bottle,0,0382_rot_dnn_0_bottle_20_n03937543_6698.png,n03937543_6698.png,0.0,3.7273748,4.2283435,-0.35423836
alexnet2023_baseline_pgd,1,383,NaN,oven,oven,0,0383_rot_dnn_0_oven_20_n04111531_10403.png,n04111531_10403.png,1.0,6.2202144,4.5014553,1.2153462
alexnet2023_baseline_pgd,1,384,NaN,truck,truck,0,0384_rot_dnn_0_truck_20_n03796401_8463.png,n03796401_8463.png,1.0,15.947489,8.033393,5.596111
alexnet2023_baseline_pgd,1,385,NaN,truck,truck,0,0385_rot_dnn_0_truck_20_n03796401_8176.png,n03796401_8176.png,1.0,10.468996,7.1094017,2.375592
alexnet2023_baseline_pgd,1,386,NaN,bottle,bottle,90,0386_rot_dnn_90_bottle_20_n03937543_984.png,n03937543_984.png,1.0,5.9267397,3.2160525,1.9167453
alexnet2023_baseline_pgd,1,387,NaN,bicycle,bicycle,90,0387_rot_dnn_90_bicycle_20_n02835271_11697.png,n02835271_11697.png,1.0,3.960057,3.1697276,0.5588473
alexnet2023_baseline_pgd,1,388,NaN,keyboard,keyboard,270,0388_rot_dnn_270_keyboard_20_n03085013_22417.png,n03085013_22417.png,1.0,3.8294206,2.6972551,0.80056185
alexnet2023_baseline_pgd,1,389,NaN,chair,car,270,0389_rot_dnn_270_car_20_n03100240_7602.png,n03100240_7602.png,0.0,2.9163103,4.626698,-1.2094268
alexnet2023_baseline_pgd,1,390,NaN,knife,bird,90,0390_rot_dnn_90_bird_20_n01534433_14389.png,n01534433_14389.png,0.0,3.6071033,3.759419,-0.10770341
alexnet2023_baseline_pgd,1,391,NaN,cat,bear,0,0391_rot_dnn_0_bear_20_n02134084_2598.png,n02134084_2598.png,0.0,7.9502454,8.53063,-0.41039398
alexnet2023_baseline_pgd,1,392,NaN,bird,bird,180,0392_rot_dnn_180_bird_20_n01560419_19599.png,n01560419_19599.png,1.0,5.160558,0.18102072,3.5210648
alexnet2023_baseline_pgd,1,393,NaN,bicycle,bicycle,90,0393_rot_dnn_90_bicycle_20_n02835271_8747.png,n02835271_8747.png,1.0,3.4128108,1.052964,1.6686637
alexnet2023_baseline_pgd,1,394,NaN,knife,knife,180,0394_rot_dnn_180_knife_20_n03041632_30821.png,n03041632_30821.png,1.0,5.032082,2.7050045,1.6454924
alexnet2023_baseline_pgd,1,395,NaN,elephant,chair,270,0395_rot_dnn_270_chair_20_n03376595_209.png,n03376595_209.png,0.0,-0.016766548,3.4817033,-2.4737918
alexnet2023_baseline_pgd,1,396,NaN,boat,boat,180,0396_rot_dnn_180_boat_20_n04273569_29113.png,n04273569_29113.png,1.0,4.3455305,1.8568356,1.759773
alexnet2023_baseline_pgd,1,397,NaN,bird,bird,270,0397_rot_dnn_270_bird_20_n02006656_6435.png,n02006656_6435.png,1.0,4.3861985,2.8936825,1.0553682
alexnet2023_baseline_pgd,1,398,NaN,oven,airplane,90,0398_rot_dnn_90_airplane_20_n02690373_3492.png,n02690373_3492.png,0.0,-1.2525902,5.66865,-4.894056
alexnet2023_baseline_pgd,1,399,NaN,oven,oven,270,0399_rot_dnn_270_oven_20_n04111531_9380.png,n04111531_9380.png,1.0,5.6949973,2.5115812,2.2510152
alexnet2023_baseline_pgd,1,400,NaN,oven,keyboard,270,0400_rot_dnn_270_keyboard_20_n04505470_510.png,n04505470_510.png,0.0,4.8579717,6.5937805,-1.2274022
alexnet2023_baseline_pgd,1,401,NaN,bird,bird,180,0401_rot_dnn_180_bird_20_n02027492_20576.png,n02027492_20576.png,1.0,3.4250548,2.3142605,0.7854502
alexnet2023_baseline_pgd,1,402,NaN,bird,bird,90,0402_rot_dnn_90_bird_20_n01855032_1920.png,n01855032_1920.png,1.0,3.280502,2.2058454,0.75989705
alexnet2023_baseline_pgd,1,403,NaN,airplane,boat,180,0403_rot_dnn_180_boat_20_n04273569_15761.png,n04273569_15761.png,0.0,5.757508,7.8648467,-1.4901136
alexnet2023_baseline_pgd,1,404,NaN,oven,oven,180,0404_rot_dnn_180_oven_20_n04111531_10667.png,n04111531_10667.png,1.0,12.134833,3.8305683,5.872002
alexnet2023_baseline_pgd,1,405,NaN,knife,knife,270,0405_rot_dnn_270_knife_20_n03041632_36215.png,n03041632_36215.png,1.0,5.9697113,3.493914,1.7506531
alexnet2023_baseline_pgd,1,406,NaN,bicycle,bicycle,180,0406_rot_dnn_180_bicycle_20_n02835271_2625.png,n02835271_2625.png,1.0,4.4623666,3.688332,0.5473251
alexnet2023_baseline_pgd,1,407,NaN,bird,bird,270,0407_rot_dnn_270_bird_20_n02028035_20411.png,n02028035_20411.png,1.0,5.424307,4.6375747,0.5563037
alexnet2023_baseline_pgd,1,408,NaN,knife,knife,0,0408_rot_dnn_0_knife_20_n03041632_25656.png,n03041632_25656.png,1.0,5.955993,3.9864628,1.3926682
alexnet2023_baseline_pgd,1,409,NaN,knife,oven,270,0409_rot_dnn_270_oven_20_n04111531_4332.png,n04111531_4332.png,0.0,1.2052202,4.8392777,-2.5696669
alexnet2023_baseline_pgd,1,410,NaN,keyboard,keyboard,180,0410_rot_dnn_180_keyboard_20_n04505470_3553.png,n04505470_3553.png,1.0,7.6490793,5.4312778,1.5682225
alexnet2023_baseline_pgd,1,411,NaN,bicycle,bicycle,180,0411_rot_dnn_180_bicycle_20_n02835271_18706.png,n02835271_18706.png,1.0,4.57004,4.3715134,0.1403797
alexnet2023_baseline_pgd,1,412,NaN,chair,truck,270,0412_rot_dnn_270_truck_20_n03417042_10744.png,n03417042_10744.png,0.0,0.048116177,4.7215014,-3.3045824
alexnet2023_baseline_pgd,1,413,NaN,clock,clock,0,0413_rot_dnn_0_clock_20_n03196217_11724.png,n03196217_11724.png,1.0,11.394744,6.03994,3.7864182
alexnet2023_baseline_pgd,1,414,NaN,knife,bicycle,270,0414_rot_dnn_270_bicycle_20_n02835271_14123.png,n02835271_14123.png,0.0,3.5685294,4.459545,-0.6300433
alexnet2023_baseline_pgd,1,415,NaN,bicycle,bicycle,270,0415_rot_dnn_270_bicycle_20_n02835271_7900.png,n02835271_7900.png,1.0,2.6279385,1.9814836,0.45711267
alexnet2023_baseline_pgd,1,416,NaN,clock,truck,270,0416_rot_dnn_270_truck_20_n03417042_2153.png,n03417042_2153.png,0.0,4.0585957,4.62224,-0.3985568
alexnet2023_baseline_pgd,1,417,NaN,bear,bicycle,270,0417_rot_dnn_270_bicycle_20_n03792782_10129.png,n03792782_10129.png,0.0,0.1840983,3.1082766,-2.0677063
alexnet2023_baseline_pgd,1,418,NaN,bird,bird,180,0418_rot_dnn_180_bird_20_n01514859_18430.png,n01514859_18430.png,1.0,6.244973,4.4944143,1.2378321
alexnet2023_baseline_pgd,1,419,NaN,chair,chair,0,0419_rot_dnn_0_chair_20_n04099969_5010.png,n04099969_5010.png,1.0,12.639001,2.434823,7.2154436
alexnet2023_baseline_pgd,1,420,NaN,chair,truck,0,0420_rot_dnn_0_truck_20_n03796401_588.png,n03796401_588.png,0.0,5.3533335,5.4449844,-0.06480702
alexnet2023_baseline_pgd,1,421,NaN,car,car,0,0421_rot_dnn_0_car_20_n02814533_486.png,n02814533_486.png,1.0,19.116898,12.284727,4.831074
alexnet2023_baseline_pgd,1,422,NaN,knife,elephant,90,0422_rot_dnn_90_elephant_20_n02504013_3540.png,n02504013_3540.png,0.0,2.1902514,2.830688,-0.4528571
alexnet2023_baseline_pgd,1,423,NaN,car,car,180,0423_rot_dnn_180_car_20_n02814533_55715.png,n02814533_55715.png,1.0,4.8919816,3.992962,0.63570297
alexnet2023_baseline_pgd,1,424,NaN,bottle,bottle,180,0424_rot_dnn_180_bottle_20_n03983396_10896.png,n03983396_10896.png,1.0,3.7011623,2.531723,0.8269185
alexnet2023_baseline_pgd,1,425,NaN,knife,bottle,90,0425_rot_dnn_90_bottle_20_n04557648_15053.png,n04557648_15053.png,0.0,5.0123053,5.397993,-0.27272248
alexnet2023_baseline_pgd,1,426,NaN,car,car,0,0426_rot_dnn_0_car_20_n04285008_8281.png,n04285008_8281.png,1.0,21.477583,11.662388,6.940391
alexnet2023_baseline_pgd,1,427,NaN,bottle,car,270,0427_rot_dnn_270_car_20_n02814533_38596.png,n02814533_38596.png,0.0,-0.6378651,6.46709,-5.023962
alexnet2023_baseline_pgd,1,428,NaN,bottle,elephant,270,0428_rot_dnn_270_elephant_20_n02504013_15219.png,n02504013_15219.png,0.0,3.6802578,3.7954235,-0.08143446
alexnet2023_baseline_pgd,1,429,NaN,elephant,elephant,180,0429_rot_dnn_180_elephant_20_n02504013_828.png,n02504013_828.png,1.0,10.867805,2.1702995,6.150065
alexnet2023_baseline_pgd,1,430,NaN,oven,oven,180,0430_rot_dnn_180_oven_20_n04111531_1439.png,n04111531_1439.png,1.0,8.91907,2.3727744,4.6289306
alexnet2023_baseline_pgd,1,431,NaN,oven,bottle,90,0431_rot_dnn_90_bottle_20_n03983396_3315.png,n03983396_3315.png,0.0,2.5715594,5.081728,-1.7749572
alexnet2023_baseline_pgd,1,432,NaN,airplane,airplane,90,0432_rot_dnn_90_airplane_20_n02690373_4024.png,n02690373_4024.png,1.0,4.1582594,3.6939092,0.3283452
alexnet2023_baseline_pgd,1,433,NaN,knife,elephant,270,0433_rot_dnn_270_elephant_20_n02504013_10301.png,n02504013_10301.png,0.0,2.7667012,2.90369,-0.096865766
alexnet2023_baseline_pgd,1,434,NaN,oven,oven,180,0434_rot_dnn_180_oven_20_n04111531_7067.png,n04111531_7067.png,1.0,8.220259,1.7933416,4.5445166
alexnet2023_baseline_pgd,1,435,NaN,knife,knife,90,0435_rot_dnn_90_knife_20_n03041632_36834.png,n03041632_36834.png,1.0,2.9950085,1.5964992,0.9888954
alexnet2023_baseline_pgd,1,436,NaN,chair,car,90,0436_rot_dnn_90_car_20_n02814533_18148.png,n02814533_18148.png,0.0,2.2268555,3.308104,-0.7645582
alexnet2023_baseline_pgd,1,437,NaN,cat,cat,90,0437_rot_dnn_90_cat_20_n02125311_41284.png,n02125311_41284.png,1.0,3.5234232,2.9775114,0.38601795
alexnet2023_baseline_pgd,1,438,NaN,bicycle,bicycle,0,0438_rot_dnn_0_bicycle_20_n02835271_18188.png,n02835271_18188.png,1.0,15.488306,1.6592786,9.778599
alexnet2023_baseline_pgd,1,439,NaN,keyboard,bottle,0,0439_rot_dnn_0_bottle_20_n04591713_2903.png,n04591713_2903.png,0.0,7.5095606,8.004418,-0.3499173
alexnet2023_baseline_pgd,1,440,NaN,knife,knife,0,0440_rot_dnn_0_knife_20_n03041632_54191.png,n03041632_54191.png,1.0,6.9544196,3.2934322,2.588709
alexnet2023_baseline_pgd,1,441,NaN,clock,truck,180,0441_rot_dnn_180_truck_20_n03417042_8867.png,n03417042_8867.png,0.0,4.483862,4.9599133,-0.33661914
alexnet2023_baseline_pgd,1,442,NaN,bottle,oven,270,0442_rot_dnn_270_oven_20_n04111531_8421.png,n04111531_8421.png,0.0,1.7774411,5.544209,-2.6635072
alexnet2023_baseline_pgd,1,443,NaN,bear,elephant,270,0443_rot_dnn_270_elephant_20_n02504013_4062.png,n02504013_4062.png,0.0,2.0093899,6.558095,-3.2164202
alexnet2023_baseline_pgd,1,444,NaN,keyboard,keyboard,270,0444_rot_dnn_270_keyboard_20_n04505470_1649.png,n04505470_1649.png,1.0,6.2884226,4.273357,1.4248667
alexnet2023_baseline_pgd,1,445,NaN,airplane,boat,180,0445_rot_dnn_180_boat_20_n03344393_7967.png,n03344393_7967.png,0.0,4.171056,7.626648,-2.4434726
alexnet2023_baseline_pgd,1,446,NaN,bicycle,bicycle,0,0446_rot_dnn_0_bicycle_20_n02835271_10265.png,n02835271_10265.png,1.0,15.113707,3.0452638,8.533678
alexnet2023_baseline_pgd,1,447,NaN,bicycle,bicycle,180,0447_rot_dnn_180_bicycle_20_n02835271_6742.png,n02835271_6742.png,1.0,5.382778,3.7068431,1.185065
alexnet2023_baseline_pgd,1,448,NaN,cat,cat,180,0448_rot_dnn_180_cat_20_n02123045_3168.png,n02123045_3168.png,1.0,4.0771394,3.2087722,0.61402833
alexnet2023_baseline_pgd,1,449,NaN,airplane,car,180,0449_rot_dnn_180_car_20_n03100240_8489.png,n03100240_8489.png,0.0,3.5928946,5.00939,-1.0016135
alexnet2023_baseline_pgd,1,450,NaN,oven,oven,270,0450_rot_dnn_270_oven_20_n04111531_1826.png,n04111531_1826.png,1.0,6.387265,3.595273,1.9742366
alexnet2023_baseline_pgd,1,451,NaN,bear,dog,180,0451_rot_dnn_180_dog_20_n02104365_1592.png,n02104365_1592.png,0.0,4.1219277,4.922404,-0.5660221
alexnet2023_baseline_pgd,1,452,NaN,bicycle,boat,90,0452_rot_dnn_90_boat_20_n02951358_4343.png,n02951358_4343.png,0.0,0.01352458,1.7101338,-1.1996839
alexnet2023_baseline_pgd,1,453,NaN,bottle,bottle,0,0453_rot_dnn_0_bottle_20_n02823428_4282.png,n02823428_4282.png,1.0,15.809352,8.072644,5.4706783
alexnet2023_baseline_pgd,1,454,NaN,bird,bird,0,0454_rot_dnn_0_bird_20_n01817953_2043.png,n01817953_2043.png,1.0,4.481162,2.6101236,1.323024
alexnet2023_baseline_pgd,1,455,NaN,dog,dog,0,0455_rot_dnn_0_dog_20_n02110958_14369.png,n02110958_14369.png,1.0,3.2388017,2.3129747,0.65465856
alexnet2023_baseline_pgd,1,456,NaN,dog,dog,270,0456_rot_dnn_270_dog_20_n02108000_1044.png,n02108000_1044.png,1.0,3.7218843,3.135183,0.41486037
alexnet2023_baseline_pgd,1,457,NaN,chair,dog,270,0457_rot_dnn_270_dog_20_n02087394_1428.png,n02087394_1428.png,0.0,0.011266273,2.990985,-2.1069794
alexnet2023_baseline_pgd,1,458,NaN,knife,airplane,90,0458_rot_dnn_90_airplane_20_n02690373_2856.png,n02690373_2856.png,0.0,-1.5111505,4.754015,-4.430141
alexnet2023_baseline_pgd,1,459,NaN,oven,chair,0,0459_rot_dnn_0_chair_20_n03376595_19165.png,n03376595_19165.png,0.0,6.8051224,6.9251947,-0.084903985
alexnet2023_baseline_pgd,1,460,NaN,chair,chair,270,0460_rot_dnn_270_chair_20_n04099969_42125.png,n04099969_42125.png,1.0,5.769108,5.3448334,0.30000734
alexnet2023_baseline_pgd,1,461,NaN,bottle,bottle,270,0461_rot_dnn_270_bottle_20_n02823428_12656.png,n02823428_12656.png,1.0,5.471042,5.171811,0.21158831
alexnet2023_baseline_pgd,1,462,NaN,bicycle,bicycle,180,0462_rot_dnn_180_bicycle_20_n02835271_5861.png,n02835271_5861.png,1.0,8.539671,5.2080865,2.355786
alexnet2023_baseline_pgd,1,463,NaN,airplane,airplane,90,0463_rot_dnn_90_airplane_20_n02690373_19345.png,n02690373_19345.png,1.0,6.4070888,2.8021452,2.5490801
alexnet2023_baseline_pgd,1,464,NaN,clock,clock,90,0464_rot_dnn_90_clock_20_n02708093_8069.png,n02708093_8069.png,1.0,12.877223,5.8127737,4.9953203
alexnet2023_baseline_pgd,1,465,NaN,chair,chair,270,0465_rot_dnn_270_chair_20_n04099969_16.png,n04099969_16.png,1.0,2.7257392,1.4957236,0.8697524
alexnet2023_baseline_pgd,1,466,NaN,dog,dog,270,0466_rot_dnn_270_dog_20_n02104365_1756.png,n02104365_1756.png,1.0,4.8282385,2.1423728,1.8991939
alexnet2023_baseline_pgd,1,467,NaN,bird,bird,270,0467_rot_dnn_270_bird_20_n01819313_17231.png,n01819313_17231.png,1.0,3.4041748,0.9865442,1.7095231
alexnet2023_baseline_pgd,1,468,NaN,bottle,car,90,0468_rot_dnn_90_car_20_n02814533_34149.png,n02814533_34149.png,0.0,3.3504226,5.684661,-1.6505557
alexnet2023_baseline_pgd,1,469,NaN,knife,knife,0,0469_rot_dnn_0_knife_20_n03041632_26053.png,n03041632_26053.png,1.0,9.764472,2.0740511,5.437949
alexnet2023_baseline_pgd,1,470,NaN,oven,oven,0,0470_rot_dnn_0_oven_20_n04111531_11287.png,n04111531_11287.png,1.0,8.073327,2.6162472,3.8587382
alexnet2023_baseline_pgd,1,471,NaN,knife,bottle,0,0471_rot_dnn_0_bottle_20_n03937543_11959.png,n03937543_11959.png,0.0,4.711177,4.739213,-0.019824529
alexnet2023_baseline_pgd,1,472,NaN,knife,airplane,270,0472_rot_dnn_270_airplane_20_n02690373_1348.png,n02690373_1348.png,0.0,-1.4544636,6.7252293,-5.7839165
alexnet2023_baseline_pgd,1,473,NaN,elephant,bear,0,0473_rot_dnn_0_bear_20_n02132136_5175.png,n02132136_5175.png,0.0,9.22066,11.411781,-1.5493566
alexnet2023_baseline_pgd,1,474,NaN,knife,keyboard,270,0474_rot_dnn_270_keyboard_20_n03085013_7382.png,n03085013_7382.png,0.0,-1.6309456,1.9513392,-2.533058
alexnet2023_baseline_pgd,1,475,NaN,elephant,dog,270,0475_rot_dnn_270_dog_20_n02109961_4280.png,n02109961_4280.png,0.0,2.2958994,3.281354,-0.69682163
alexnet2023_baseline_pgd,1,476,NaN,bicycle,truck,90,0476_rot_dnn_90_truck_20_n03417042_1344.png,n03417042_1344.png,0.0,0.41380465,5.2879376,-3.4465327
alexnet2023_baseline_pgd,1,477,NaN,elephant,elephant,0,0477_rot_dnn_0_elephant_20_n02504013_9299.png,n02504013_9299.png,1.0,25.000717,10.249114,10.430959
alexnet2023_baseline_pgd,1,478,NaN,bear,bear,0,0478_rot_dnn_0_bear_20_n02134418_5527.png,n02134418_5527.png,1.0,9.720442,6.576056,2.2234166
alexnet2023_baseline_pgd,1,479,NaN,truck,keyboard,270,0479_rot_dnn_270_keyboard_20_n03085013_23109.png,n03085013_23109.png,0.0,3.0526972,3.3967454,-0.24327886
alexnet2023_baseline_pgd,1,480,NaN,bear,bear,180,0480_rot_dnn_180_bear_20_n02133161_4393.png,n02133161_4393.png,1.0,4.193419,3.8743474,0.22561765
alexnet2023_baseline_pgd,1,481,NaN,oven,oven,0,0481_rot_dnn_0_oven_20_n04111531_73.png,n04111531_73.png,1.0,10.447297,5.2258205,3.6921415
alexnet2023_baseline_pgd,1,482,NaN,oven,keyboard,0,0482_rot_dnn_0_keyboard_20_n03085013_7613.png,n03085013_7613.png,0.0,3.2946792,6.4906306,-2.2598789
alexnet2023_baseline_pgd,1,483,NaN,oven,oven,180,0483_rot_dnn_180_oven_20_n04111531_2795.png,n04111531_2795.png,1.0,6.2675858,2.5606172,2.6212227
alexnet2023_baseline_pgd,1,484,NaN,oven,oven,0,0484_rot_dnn_0_oven_20_n04111531_22517.png,n04111531_22517.png,1.0,12.566077,1.4456261,7.8633466
alexnet2023_baseline_pgd,1,485,NaN,elephant,elephant,90,0485_rot_dnn_90_elephant_20_n02504458_2613.png,n02504458_2613.png,1.0,3.5721154,3.0602388,0.3619514
alexnet2023_baseline_pgd,1,486,NaN,oven,oven,180,0486_rot_dnn_180_oven_20_n04111531_9176.png,n04111531_9176.png,1.0,8.758998,1.2885666,5.282393
alexnet2023_baseline_pgd,1,487,NaN,clock,bottle,180,0487_rot_dnn_180_bottle_20_n04557648_5790.png,n04557648_5790.png,0.0,8.313636,8.323085,-0.0066814558
alexnet2023_baseline_pgd,1,488,NaN,clock,truck,90,0488_rot_dnn_90_truck_20_n04467665_9812.png,n04467665_9812.png,0.0,2.546576,7.3738055,-3.4133668
alexnet2023_baseline_pgd,1,489,NaN,bottle,bottle,0,0489_rot_dnn_0_bottle_20_n04591713_7476.png,n04591713_7476.png,1.0,4.3005905,2.069157,1.5778619
alexnet2023_baseline_pgd,1,490,NaN,bicycle,elephant,90,0490_rot_dnn_90_elephant_20_n02504458_1567.png,n02504458_1567.png,0.0,2.8868017,3.1845493,-0.21053936
alexnet2023_baseline_pgd,1,491,NaN,clock,clock,90,0491_rot_dnn_90_clock_20_n04548280_6865.png,n04548280_6865.png,1.0,10.754867,5.6873345,3.5832863
alexnet2023_baseline_pgd,1,492,NaN,bottle,bottle,180,0492_rot_dnn_180_bottle_20_n02823428_3.png,n02823428_3.png,1.0,4.9861946,2.966259,1.4283102
alexnet2023_baseline_pgd,1,493,NaN,knife,boat,90,0493_rot_dnn_90_boat_20_n04273569_8951.png,n04273569_8951.png,0.0,-1.0354931,3.7119756,-3.3569674
alexnet2023_baseline_pgd,1,494,NaN,knife,knife,180,0494_rot_dnn_180_knife_20_n03041632_53874.png,n03041632_53874.png,1.0,3.7384698,2.6264231,0.78633577
alexnet2023_baseline_pgd,1,495,NaN,clock,clock,0,0495_rot_dnn_0_clock_20_n04548280_6126.png,n04548280_6126.png,1.0,4.305134,1.4586412,2.0127745
alexnet2023_baseline_pgd,1,496,NaN,cat,cat,180,0496_rot_dnn_180_cat_20_n02123597_6186.png,n02123597_6186.png,1.0,5.743809,3.9830494,1.2450452
alexnet2023_baseline_pgd,1,497,NaN,knife,cat,270,0497_rot_dnn_270_cat_20_n02124075_14662.png,n02124075_14662.png,0.0,2.3032227,3.8336182,-1.0821531
alexnet2023_baseline_pgd,1,498,NaN,clock,car,90,0498_rot_dnn_90_car_20_n04285008_8677.png,n04285008_8677.png,0.0,-0.69247884,4.6616406,-3.7859342
alexnet2023_baseline_pgd,1,499,NaN,bird,bird,90,0499_rot_dnn_90_bird_20_n01820546_2568.png,n01820546_2568.png,1.0,6.093273,1.3744955,3.3366797
alexnet2023_baseline_pgd,1,500,NaN,clock,clock,90,0500_rot_dnn_90_clock_20_n04548280_7354.png,n04548280_7354.png,1.0,6.0602317,4.5708857,1.0531267
alexnet2023_baseline_pgd,1,501,NaN,bicycle,bicycle,270,0501_rot_dnn_270_bicycle_20_n03792782_586.png,n03792782_586.png,1.0,10.158878,4.2554784,4.174334
alexnet2023_baseline_pgd,1,502,NaN,bear,bear,0,0502_rot_dnn_0_bear_20_n02134084_572.png,n02134084_572.png,1.0,8.085504,7.259617,0.5839901
alexnet2023_baseline_pgd,1,503,NaN,bicycle,bicycle,270,0503_rot_dnn_270_bicycle_20_n03792782_3388.png,n03792782_3388.png,1.0,5.3891277,2.1885624,2.2631414
alexnet2023_baseline_pgd,1,504,NaN,bicycle,bicycle,270,0504_rot_dnn_270_bicycle_20_n03792782_28970.png,n03792782_28970.png,1.0,9.586039,4.0230556,3.933623
alexnet2023_baseline_pgd,1,505,NaN,oven,bottle,270,0505_rot_dnn_270_bottle_20_n04560804_11386.png,n04560804_11386.png,0.0,2.2581542,3.5913718,-0.9427272
alexnet2023_baseline_pgd,1,506,NaN,chair,chair,180,0506_rot_dnn_180_chair_20_n03376595_6799.png,n03376595_6799.png,1.0,5.776216,5.520506,0.18081437
alexnet2023_baseline_pgd,1,507,NaN,cat,dog,270,0507_rot_dnn_270_dog_20_n02094258_6398.png,n02094258_6398.png,0.0,5.510774,6.10389,-0.41939622
alexnet2023_baseline_pgd,1,508,NaN,bird,bird,0,0508_rot_dnn_0_bird_20_n01592084_2639.png,n01592084_2639.png,1.0,10.358609,3.1983566,5.063063
alexnet2023_baseline_pgd,1,509,NaN,bicycle,bird,180,0509_rot_dnn_180_bird_20_n02017213_4781.png,n02017213_4781.png,0.0,0.91647494,2.461937,-1.0928067
alexnet2023_baseline_pgd,1,510,NaN,knife,airplane,270,0510_rot_dnn_270_airplane_20_n02690373_3818.png,n02690373_3818.png,0.0,-2.0282636,5.9716606,-5.6568007
alexnet2023_baseline_pgd,1,511,NaN,bicycle,bicycle,90,0511_rot_dnn_90_bicycle_20_n03792782_26383.png,n03792782_26383.png,1.0,7.6644745,3.1400821,3.1992285
alexnet2023_baseline_pgd,1,512,NaN,oven,oven,90,0512_rot_dnn_90_oven_20_n04111531_5216.png,n04111531_5216.png,1.0,12.5998125,4.7838187,5.5267425
alexnet2023_baseline_pgd,1,513,NaN,airplane,airplane,180,0513_rot_dnn_180_airplane_20_n02690373_20331.png,n02690373_20331.png,1.0,3.9451199,3.5381765,0.2877524
alexnet2023_baseline_pgd,1,514,NaN,clock,truck,180,0514_rot_dnn_180_truck_20_n04467665_23691.png,n04467665_23691.png,0.0,2.81673,5.022468,-1.5596924
alexnet2023_baseline_pgd,1,515,NaN,bird,bird,0,0515_rot_dnn_0_bird_20_n02009229_492.png,n02009229_492.png,1.0,10.916051,1.4212197,6.7138596
alexnet2023_baseline_pgd,1,516,NaN,bird,bird,90,0516_rot_dnn_90_bird_20_n02002556_5890.png,n02002556_5890.png,1.0,6.158445,1.7642678,3.1071525
alexnet2023_baseline_pgd,1,517,NaN,bird,bird,270,0517_rot_dnn_270_bird_20_n01855032_5358.png,n01855032_5358.png,1.0,6.471784,1.3201919,3.642726
alexnet2023_baseline_pgd,1,518,NaN,oven,dog,180,0518_rot_dnn_180_dog_20_n02112350_10026.png,n02112350_10026.png,0.0,1.5883002,4.0338583,-1.7292707
alexnet2023_baseline_pgd,1,519,NaN,knife,knife,90,0519_rot_dnn_90_knife_20_n03041632_11773.png,n03041632_11773.png,1.0,4.299004,1.5222945,1.9634302
alexnet2023_baseline_pgd,1,520,NaN,elephant,elephant,0,0520_rot_dnn_0_elephant_20_n02504013_20486.png,n02504013_20486.png,1.0,20.981556,5.36543,11.042269
alexnet2023_baseline_pgd,1,521,NaN,oven,oven,0,0521_rot_dnn_0_oven_20_n04111531_27.png,n04111531_27.png,1.0,9.204321,6.199909,2.12444
alexnet2023_baseline_pgd,1,522,NaN,bird,bird,180,0522_rot_dnn_180_bird_20_n01855672_15421.png,n01855672_15421.png,1.0,3.2591898,1.1966083,1.4584655
alexnet2023_baseline_pgd,1,523,NaN,bear,bear,270,0523_rot_dnn_270_bear_20_n02132136_239.png,n02132136_239.png,1.0,5.688851,2.0586681,2.566927
alexnet2023_baseline_pgd,1,524,NaN,keyboard,keyboard,90,0524_rot_dnn_90_keyboard_20_n03085013_25924.png,n03085013_25924.png,1.0,5.724992,3.3656256,1.6683239
alexnet2023_baseline_pgd,1,525,NaN,bicycle,bicycle,180,0525_rot_dnn_180_bicycle_20_n03792782_6030.png,n03792782_6030.png,1.0,8.595137,3.5024343,3.6010845
alexnet2023_baseline_pgd,1,526,NaN,oven,bottle,270,0526_rot_dnn_270_bottle_20_n03983396_5497.png,n03983396_5497.png,0.0,0.087952815,6.4214916,-4.4784884
alexnet2023_baseline_pgd,1,527,NaN,chair,chair,180,0527_rot_dnn_180_chair_20_n04429376_6390.png,n04429376_6390.png,1.0,7.0527306,6.861195,0.13543603
alexnet2023_baseline_pgd,1,528,NaN,oven,dog,90,0528_rot_dnn_90_dog_20_n02100877_11159.png,n02100877_11159.png,0.0,1.1586454,3.964683,-1.9841683
alexnet2023_baseline_pgd,1,529,NaN,bottle,bottle,180,0529_rot_dnn_180_bottle_20_n04579145_579.png,n04579145_579.png,1.0,5.1068425,4.044124,0.75145537
alexnet2023_baseline_pgd,1,530,NaN,bottle,cat,90,0530_rot_dnn_90_cat_20_n02123159_5678.png,n02123159_5678.png,0.0,2.7919934,5.4160104,-1.8554603
alexnet2023_baseline_pgd,1,531,NaN,elephant,elephant,180,0531_rot_dnn_180_elephant_20_n02504013_13283.png,n02504013_13283.png,1.0,4.2968235,2.0703804,1.574333
alexnet2023_baseline_pgd,1,532,NaN,bear,dog,90,0532_rot_dnn_90_dog_20_n02095570_7633.png,n02095570_7633.png,0.0,2.4993587,4.9450545,-1.7293682
alexnet2023_baseline_pgd,1,533,NaN,clock,clock,180,0533_rot_dnn_180_clock_20_n02708093_8311.png,n02708093_8311.png,1.0,8.039177,7.3659134,0.47606924
alexnet2023_baseline_pgd,1,534,NaN,knife,chair,270,0534_rot_dnn_270_chair_20_n03376595_426.png,n03376595_426.png,0.0,4.957258,5.1747193,-0.15376823
alexnet2023_baseline_pgd,1,535,NaN,boat,dog,180,0535_rot_dnn_180_dog_20_n02100877_3112.png,n02100877_3112.png,0.0,1.4828626,3.6275108,-1.5164952
alexnet2023_baseline_pgd,1,536,NaN,bottle,car,270,0536_rot_dnn_270_car_20_n02814533_458.png,n02814533_458.png,0.0,2.0537298,3.4896595,-1.0153557
alexnet2023_baseline_pgd,1,537,NaN,bird,bird,0,0537_rot_dnn_0_bird_20_n02006656_5079.png,n02006656_5079.png,1.0,7.282121,2.720322,3.2256792
alexnet2023_baseline_pgd,1,538,NaN,boat,boat,90,0538_rot_dnn_90_boat_20_n04273569_12725.png,n04273569_12725.png,1.0,3.8679588,2.3580205,1.0676876
alexnet2023_baseline_pgd,1,539,NaN,bottle,cat,270,0539_rot_dnn_270_cat_20_n02123045_6677.png,n02123045_6677.png,0.0,2.8632247,2.9630334,-0.0705754
alexnet2023_baseline_pgd,1,540,NaN,bicycle,bicycle,270,0540_rot_dnn_270_bicycle_20_n02835271_4440.png,n02835271_4440.png,1.0,7.452527,1.4592687,4.2378736
alexnet2023_baseline_pgd,1,541,NaN,keyboard,keyboard,270,0541_rot_dnn_270_keyboard_20_n03085013_21444.png,n03085013_21444.png,1.0,7.347619,2.759435,3.2443364
alexnet2023_baseline_pgd,1,542,NaN,clock,clock,180,0542_rot_dnn_180_clock_20_n02708093_8255.png,n02708093_8255.png,1.0,5.9092746,5.143407,0.5415503
alexnet2023_baseline_pgd,1,543,NaN,bicycle,bicycle,0,0543_rot_dnn_0_bicycle_20_n02835271_30318.png,n02835271_30318.png,1.0,3.6252337,1.0305305,1.8347323
alexnet2023_baseline_pgd,1,544,NaN,cat,cat,180,0544_rot_dnn_180_cat_20_n02123394_2059.png,n02123394_2059.png,1.0,5.888918,4.1457896,1.2325779
alexnet2023_baseline_pgd,1,545,NaN,elephant,elephant,180,0545_rot_dnn_180_elephant_20_n02504013_6618.png,n02504013_6618.png,1.0,3.478201,3.3200366,0.111839026
alexnet2023_baseline_pgd,1,546,NaN,cat,cat,270,0546_rot_dnn_270_cat_20_n02124075_8889.png,n02124075_8889.png,1.0,4.798215,4.734408,0.04511837
alexnet2023_baseline_pgd,1,547,NaN,oven,dog,90,0547_rot_dnn_90_dog_20_n02100877_7302.png,n02100877_7302.png,0.0,1.2982428,3.3992145,-1.4856113
alexnet2023_baseline_pgd,1,548,NaN,bicycle,car,180,0548_rot_dnn_180_car_20_n02814533_85971.png,n02814533_85971.png,0.0,1.6383343,4.312501,-1.8909215
alexnet2023_baseline_pgd,1,549,NaN,chair,chair,0,0549_rot_dnn_0_chair_20_n03376595_5909.png,n03376595_5909.png,1.0,13.035333,6.603968,4.547662
alexnet2023_baseline_pgd,1,550,NaN,keyboard,keyboard,270,0550_rot_dnn_270_keyboard_20_n03085013_13083.png,n03085013_13083.png,1.0,8.444899,3.6325014,3.4028785
alexnet2023_baseline_pgd,1,551,NaN,oven,oven,90,0551_rot_dnn_90_oven_20_n04111531_9611.png,n04111531_9611.png,1.0,9.724419,3.4866352,4.410779
alexnet2023_baseline_pgd,1,552,NaN,boat,boat,0,0552_rot_dnn_0_boat_20_n02951358_13996.png,n02951358_13996.png,1.0,7.981073,3.0415294,3.492785
alexnet2023_baseline_pgd,1,553,NaN,boat,boat,0,0553_rot_dnn_0_boat_20_n03344393_9251.png,n03344393_9251.png,1.0,8.704247,7.044038,1.1739455
alexnet2023_baseline_pgd,1,554,NaN,boat,airplane,180,0554_rot_dnn_180_airplane_20_n02690373_9175.png,n02690373_9175.png,0.0,3.2377543,4.2938166,-0.74674875
alexnet2023_baseline_pgd,1,555,NaN,elephant,bear,0,0555_rot_dnn_0_bear_20_n02132136_2791.png,n02132136_2791.png,0.0,10.387663,10.4520645,-0.045538828
alexnet2023_baseline_pgd,1,556,NaN,elephant,elephant,180,0556_rot_dnn_180_elephant_20_n02504458_193.png,n02504458_193.png,1.0,8.176358,2.7315023,3.8500946
alexnet2023_baseline_pgd,1,557,NaN,bird,bird,270,0557_rot_dnn_270_bird_20_n01843383_9985.png,n01843383_9985.png,1.0,4.4732575,1.0144814,2.445724
alexnet2023_baseline_pgd,1,558,NaN,bird,bird,270,0558_rot_dnn_270_bird_20_n02028035_10744.png,n02028035_10744.png,1.0,5.9664383,2.3388112,2.5651197
alexnet2023_baseline_pgd,1,559,NaN,oven,truck,270,0559_rot_dnn_270_truck_20_n04467665_3720.png,n04467665_3720.png,0.0,3.5465236,5.465625,-1.3570095
alexnet2023_baseline_pgd,1,560,NaN,car,car,0,0560_rot_dnn_0_car_20_n02814533_52605.png,n02814533_52605.png,1.0,10.389709,7.4613976,2.0706291
alexnet2023_baseline_pgd,1,561,NaN,clock,clock,90,0561_rot_dnn_90_clock_20_n04548280_5631.png,n04548280_5631.png,1.0,14.895764,3.9148903,7.764651
alexnet2023_baseline_pgd,1,562,NaN,oven,oven,0,0562_rot_dnn_0_oven_20_n04111531_1922.png,n04111531_1922.png,1.0,9.7931385,2.767006,4.968226
alexnet2023_baseline_pgd,1,563,NaN,airplane,boat,180,0563_rot_dnn_180_boat_20_n03662601_1197.png,n03662601_1197.png,0.0,3.6853187,6.021557,-1.6519699
alexnet2023_baseline_pgd,1,564,NaN,clock,clock,270,0564_rot_dnn_270_clock_20_n02708093_1862.png,n02708093_1862.png,1.0,7.7642536,3.3196907,3.1427805
alexnet2023_baseline_pgd,1,565,NaN,oven,truck,180,0565_rot_dnn_180_truck_20_n03796401_4582.png,n03796401_4582.png,0.0,6.8814144,7.916598,-0.7319852
alexnet2023_baseline_pgd,1,566,NaN,elephant,elephant,90,0566_rot_dnn_90_elephant_20_n02504013_565.png,n02504013_565.png,1.0,2.82506,2.419923,0.286475
alexnet2023_baseline_pgd,1,567,NaN,car,truck,180,0567_rot_dnn_180_truck_20_n04467665_49826.png,n04467665_49826.png,0.0,5.4033766,5.5613937,-0.11173501
alexnet2023_baseline_pgd,1,568,NaN,elephant,bear,270,0568_rot_dnn_270_bear_20_n02134418_5067.png,n02134418_5067.png,0.0,1.7159903,2.9757733,-0.89080113
alexnet2023_baseline_pgd,1,569,NaN,keyboard,chair,90,0569_rot_dnn_90_chair_20_n04429376_29223.png,n04429376_29223.png,0.0,3.002739,3.9204457,-0.64891666
alexnet2023_baseline_pgd,1,570,NaN,knife,airplane,270,0570_rot_dnn_270_airplane_20_n02690373_5909.png,n02690373_5909.png,0.0,-3.2696521,2.6012442,-4.1513505
alexnet2023_baseline_pgd,1,571,NaN,bicycle,dog,270,0571_rot_dnn_270_dog_20_n02097658_722.png,n02097658_722.png,0.0,-1.4381665,3.572512,-3.5430846
alexnet2023_baseline_pgd,1,572,NaN,oven,oven,0,0572_rot_dnn_0_oven_20_n04111531_10339.png,n04111531_10339.png,1.0,9.009458,4.562484,3.1444855
alexnet2023_baseline_pgd,1,573,NaN,bottle,truck,90,0573_rot_dnn_90_truck_20_n03417042_28078.png,n03417042_28078.png,0.0,-0.79222,5.295469,-4.304646
alexnet2023_baseline_pgd,1,574,NaN,oven,chair,180,0574_rot_dnn_180_chair_20_n04099969_22118.png,n04099969_22118.png,0.0,4.0974445,4.9006605,-0.5679595
alexnet2023_baseline_pgd,1,575,NaN,truck,clock,270,0575_rot_dnn_270_clock_20_n04548280_7978.png,n04548280_7978.png,0.0,2.1185377,2.7482004,-0.4452388
alexnet2023_baseline_pgd,1,576,NaN,bear,bear,180,0576_rot_dnn_180_bear_20_n02133161_1962.png,n02133161_1962.png,1.0,5.4910264,5.1114244,0.26841912
alexnet2023_baseline_pgd,1,577,NaN,oven,clock,180,0577_rot_dnn_180_clock_20_n04548280_13750.png,n04548280_13750.png,0.0,-0.08087806,1.5891638,-1.180898
alexnet2023_baseline_pgd,1,578,NaN,keyboard,keyboard,0,0578_rot_dnn_0_keyboard_20_n03085013_15249.png,n03085013_15249.png,1.0,6.2880282,1.9107326,3.0952153
alexnet2023_baseline_pgd,1,579,NaN,bottle,car,90,0579_rot_dnn_90_car_20_n02814533_479.png,n02814533_479.png,0.0,-0.05212019,5.0790052,-3.6282537
alexnet2023_baseline_pgd,1,580,NaN,elephant,keyboard,270,0580_rot_dnn_270_keyboard_20_n03085013_20716.png,n03085013_20716.png,0.0,-0.87025195,2.7805796,-2.5815277
alexnet2023_baseline_pgd,1,581,NaN,bird,bird,180,0581_rot_dnn_180_bird_20_n01530575_7990.png,n01530575_7990.png,1.0,4.1576505,0.3120561,2.719246
alexnet2023_baseline_pgd,1,582,NaN,chair,chair,0,0582_rot_dnn_0_chair_20_n04429376_17343.png,n04429376_17343.png,1.0,7.3699403,3.7154236,2.5841336
alexnet2023_baseline_pgd,1,583,NaN,chair,chair,90,0583_rot_dnn_90_chair_20_n02791124_8775.png,n02791124_8775.png,1.0,5.9074297,4.157137,1.237644
alexnet2023_baseline_pgd,1,584,NaN,cat,cat,90,0584_rot_dnn_90_cat_20_n02125311_2959.png,n02125311_2959.png,1.0,8.902616,5.7628527,2.2201476
alexnet2023_baseline_pgd,1,585,NaN,chair,oven,180,0585_rot_dnn_180_oven_20_n04111531_13906.png,n04111531_13906.png,0.0,4.52797,4.923019,-0.2793419
alexnet2023_baseline_pgd,1,586,NaN,clock,airplane,90,0586_rot_dnn_90_airplane_20_n02690373_7293.png,n02690373_7293.png,0.0,2.4176452,5.858711,-2.4332008
alexnet2023_baseline_pgd,1,587,NaN,chair,chair,180,0587_rot_dnn_180_chair_20_n04099969_10825.png,n04099969_10825.png,1.0,6.185115,3.2742426,2.0582976
alexnet2023_baseline_pgd,1,588,NaN,airplane,airplane,180,0588_rot_dnn_180_airplane_20_n02690373_17044.png,n02690373_17044.png,1.0,7.376299,3.3779018,2.8272939
alexnet2023_baseline_pgd,1,589,NaN,bird,bird,0,0589_rot_dnn_0_bird_20_n01797886_6169.png,n01797886_6169.png,1.0,4.797381,4.313628,0.34206483
alexnet2023_baseline_pgd,1,590,NaN,oven,oven,0,0590_rot_dnn_0_oven_20_n04111531_13255.png,n04111531_13255.png,1.0,4.808169,4.2627535,0.38566694
alexnet2023_baseline_pgd,1,591,NaN,clock,knife,270,0591_rot_dnn_270_knife_20_n03041632_17820.png,n03041632_17820.png,0.0,1.7986696,2.4031596,-0.427439
alexnet2023_baseline_pgd,1,592,NaN,bicycle,bicycle,270,0592_rot_dnn_270_bicycle_20_n02835271_21640.png,n02835271_21640.png,1.0,3.3420017,2.4428566,0.6357916
alexnet2023_baseline_pgd,1,593,NaN,elephant,bear,0,0593_rot_dnn_0_bear_20_n02134418_517.png,n02134418_517.png,0.0,9.0698805,12.8325,-2.6605742
alexnet2023_baseline_pgd,1,594,NaN,car,airplane,180,0594_rot_dnn_180_airplane_20_n02690373_4588.png,n02690373_4588.png,0.0,4.362223,4.6213994,-0.18326528
alexnet2023_baseline_pgd,1,595,NaN,bicycle,bottle,270,0595_rot_dnn_270_bottle_20_n02823428_12190.png,n02823428_12190.png,0.0,1.0188627,3.6138718,-1.8349485
alexnet2023_baseline_pgd,1,596,NaN,bottle,bottle,0,0596_rot_dnn_0_bottle_20_n04591713_1717.png,n04591713_1717.png,1.0,9.370595,6.596451,1.9616162
alexnet2023_baseline_pgd,1,597,NaN,knife,knife,0,0597_rot_dnn_0_knife_20_n03041632_9488.png,n03041632_9488.png,1.0,10.395296,2.2025328,5.7931585
alexnet2023_baseline_pgd,1,598,NaN,clock,truck,90,0598_rot_dnn_90_truck_20_n03417042_11166.png,n03417042_11166.png,0.0,-0.4595069,2.9491313,-2.4102712
alexnet2023_baseline_pgd,1,599,NaN,elephant,elephant,90,0599_rot_dnn_90_elephant_20_n02504458_585.png,n02504458_585.png,1.0,6.1827106,4.256976,1.3616999
alexnet2023_baseline_pgd,1,600,NaN,oven,keyboard,0,0600_rot_dnn_0_keyboard_20_n04505470_5046.png,n04505470_5046.png,0.0,3.1829855,4.0869184,-0.639177
alexnet2023_baseline_pgd,1,601,NaN,chair,chair,180,0601_rot_dnn_180_chair_20_n03376595_4937.png,n03376595_4937.png,1.0,4.148068,3.9853716,0.1150437
alexnet2023_baseline_pgd,1,602,NaN,chair,boat,180,0602_rot_dnn_180_boat_20_n03662601_1740.png,n03662601_1740.png,0.0,0.32494015,3.2666874,-2.0801294
alexnet2023_baseline_pgd,1,603,NaN,knife,knife,0,0603_rot_dnn_0_knife_20_n03041632_4037.png,n03041632_4037.png,1.0,5.2947106,2.966899,1.6460115
alexnet2023_baseline_pgd,1,604,NaN,boat,boat,0,0604_rot_dnn_0_boat_20_n04273569_1538.png,n04273569_1538.png,1.0,3.5431569,3.5380027,0.0036445223
alexnet2023_baseline_pgd,1,605,NaN,bird,bird,0,0605_rot_dnn_0_bird_20_n02017213_15918.png,n02017213_15918.png,1.0,3.241099,1.7761437,1.03588
alexnet2023_baseline_pgd,1,606,NaN,keyboard,keyboard,0,0606_rot_dnn_0_keyboard_20_n03085013_10463.png,n03085013_10463.png,1.0,17.119154,7.3995886,6.872771
alexnet2023_baseline_pgd,1,607,NaN,bear,bear,270,0607_rot_dnn_270_bear_20_n02133161_7939.png,n02133161_7939.png,1.0,7.1757426,3.5309415,2.5772636
alexnet2023_baseline_pgd,1,608,NaN,chair,car,270,0608_rot_dnn_270_car_20_n04285008_11704.png,n04285008_11704.png,0.0,1.2370344,2.8592873,-1.1471059
alexnet2023_baseline_pgd,1,609,NaN,knife,truck,90,0609_rot_dnn_90_truck_20_n03796401_16046.png,n03796401_16046.png,0.0,1.942749,5.344057,-2.405088
alexnet2023_baseline_pgd,1,610,NaN,bottle,chair,270,0610_rot_dnn_270_chair_20_n02791124_3710.png,n02791124_3710.png,0.0,3.1001475,5.985314,-2.0401208
alexnet2023_baseline_pgd,1,611,NaN,oven,keyboard,180,0611_rot_dnn_180_keyboard_20_n04505470_3566.png,n04505470_3566.png,0.0,9.090618,9.698643,-0.42993832
alexnet2023_baseline_pgd,1,612,NaN,knife,bird,90,0612_rot_dnn_90_bird_20_n02037110_8716.png,n02037110_8716.png,0.0,1.0112951,3.261667,-1.5912533
alexnet2023_baseline_pgd,1,613,NaN,car,car,0,0613_rot_dnn_0_car_20_n03100240_19550.png,n03100240_19550.png,1.0,12.297048,7.281062,3.5468373
alexnet2023_baseline_pgd,1,614,NaN,airplane,airplane,270,0614_rot_dnn_270_airplane_20_n02690373_10769.png,n02690373_10769.png,1.0,10.093364,4.125319,4.220045
alexnet2023_baseline_pgd,1,615,NaN,bicycle,bicycle,0,0615_rot_dnn_0_bicycle_20_n03792782_3456.png,n03792782_3456.png,1.0,6.787854,3.2867014,2.475689
alexnet2023_baseline_pgd,1,616,NaN,knife,chair,0,0616_rot_dnn_0_chair_20_n03376595_2368.png,n03376595_2368.png,0.0,4.341373,4.781826,-0.31144735
alexnet2023_baseline_pgd,1,617,NaN,dog,dog,0,0617_rot_dnn_0_dog_20_n02091467_2974.png,n02091467_2974.png,1.0,8.52599,5.2488747,2.3172703
alexnet2023_baseline_pgd,1,618,NaN,knife,knife,180,0618_rot_dnn_180_knife_20_n03041632_43634.png,n03041632_43634.png,1.0,16.048515,3.981749,8.532493
alexnet2023_baseline_pgd,1,619,NaN,oven,keyboard,180,0619_rot_dnn_180_keyboard_20_n04505470_4477.png,n04505470_4477.png,0.0,3.3735867,6.694561,-2.3482835
alexnet2023_baseline_pgd,1,620,NaN,bottle,boat,90,0620_rot_dnn_90_boat_20_n03344393_4773.png,n03344393_4773.png,0.0,0.7466862,3.3862865,-1.8664793
alexnet2023_baseline_pgd,1,621,NaN,airplane,airplane,180,0621_rot_dnn_180_airplane_20_n02690373_139.png,n02690373_139.png,1.0,6.7887917,5.100293,1.1939487
alexnet2023_baseline_pgd,1,622,NaN,oven,knife,270,0622_rot_dnn_270_knife_20_n03041632_737.png,n03041632_737.png,0.0,4.743085,6.018373,-0.90176487
alexnet2023_baseline_pgd,1,623,NaN,chair,chair,270,0623_rot_dnn_270_chair_20_n02791124_2698.png,n02791124_2698.png,1.0,3.953749,2.6346734,0.9327273
alexnet2023_baseline_pgd,1,624,NaN,oven,truck,270,0624_rot_dnn_270_truck_20_n03417042_5301.png,n03417042_5301.png,0.0,0.33807576,7.296928,-4.920652
alexnet2023_baseline_pgd,1,625,NaN,bird,bird,0,0625_rot_dnn_0_bird_20_n02006656_5757.png,n02006656_5757.png,1.0,8.021858,0.7146538,5.1669736
alexnet2023_baseline_pgd,1,626,NaN,elephant,bear,270,0626_rot_dnn_270_bear_20_n02132136_15174.png,n02132136_15174.png,0.0,2.3903065,4.2337694,-1.3035252
alexnet2023_baseline_pgd,1,627,NaN,clock,bottle,270,0627_rot_dnn_270_bottle_20_n04560804_6329.png,n04560804_6329.png,0.0,5.1705375,6.6174674,-1.023134
alexnet2023_baseline_pgd,1,628,NaN,truck,truck,0,0628_rot_dnn_0_truck_20_n03417042_22196.png,n03417042_22196.png,1.0,8.763894,4.6260796,2.9258769
alexnet2023_baseline_pgd,1,629,NaN,bear,cat,0,0629_rot_dnn_0_cat_20_n02125311_18366.png,n02125311_18366.png,0.0,3.0312634,6.203903,-2.243395
alexnet2023_baseline_pgd,1,630,NaN,oven,chair,0,0630_rot_dnn_0_chair_20_n02791124_12707.png,n02791124_12707.png,0.0,3.80266,5.9969897,-1.5516255
alexnet2023_baseline_pgd,1,631,NaN,airplane,oven,180,0631_rot_dnn_180_oven_20_n04111531_1938.png,n04111531_1938.png,0.0,3.9868207,6.153086,-1.5317811
alexnet2023_baseline_pgd,1,632,NaN,clock,airplane,270,0632_rot_dnn_270_airplane_20_n02690373_9346.png,n02690373_9346.png,0.0,-2.0208256,3.0785391,-3.6057954
alexnet2023_baseline_pgd,1,633,NaN,oven,cat,0,0633_rot_dnn_0_cat_20_n02123045_10433.png,n02123045_10433.png,0.0,1.533371,2.930737,-0.988087
alexnet2023_baseline_pgd,1,634,NaN,airplane,airplane,180,0634_rot_dnn_180_airplane_20_n02690373_5055.png,n02690373_5055.png,1.0,8.303088,4.521874,2.6737223
alexnet2023_baseline_pgd,1,635,NaN,clock,clock,270,0635_rot_dnn_270_clock_20_n04548280_4198.png,n04548280_4198.png,1.0,3.4346383,2.8206787,0.43413496
alexnet2023_baseline_pgd,1,636,NaN,bicycle,bicycle,90,0636_rot_dnn_90_bicycle_20_n03792782_12010.png,n03792782_12010.png,1.0,5.118073,4.5464406,0.40420514
alexnet2023_baseline_pgd,1,637,NaN,elephant,cat,180,0637_rot_dnn_180_cat_20_n02125311_24586.png,n02125311_24586.png,0.0,2.1629226,3.2264447,-0.7520237
alexnet2023_baseline_pgd,1,638,NaN,chair,chair,0,0638_rot_dnn_0_chair_20_n02791124_3220.png,n02791124_3220.png,1.0,7.8170156,3.5930874,2.9867685
alexnet2023_baseline_pgd,1,639,NaN,clock,car,90,0639_rot_dnn_90_car_20_n04285008_12737.png,n04285008_12737.png,0.0,0.36807728,5.238173,-3.4436777
alexnet2023_baseline_pgd,1,640,NaN,bottle,chair,180,0640_rot_dnn_180_chair_20_n04429376_4296.png,n04429376_4296.png,0.0,2.8080578,5.1103473,-1.6279645
alexnet2023_baseline_pgd,1,641,NaN,clock,airplane,90,0641_rot_dnn_90_airplane_20_n02690373_5534.png,n02690373_5534.png,0.0,1.2223108,2.5163462,-0.91502124
alexnet2023_baseline_pgd,1,642,NaN,oven,dog,180,0642_rot_dnn_180_dog_20_n02113978_2286.png,n02113978_2286.png,0.0,1.641923,2.4474669,-0.5696056
alexnet2023_baseline_pgd,1,643,NaN,elephant,dog,0,0643_rot_dnn_0_dog_20_n02087394_3354.png,n02087394_3354.png,0.0,0.90895015,4.8992877,-2.8215947
alexnet2023_baseline_pgd,1,644,NaN,chair,chair,180,0644_rot_dnn_180_chair_20_n03376595_2103.png,n03376595_2103.png,1.0,3.8736432,2.230901,1.1615942
alexnet2023_baseline_pgd,1,645,NaN,elephant,elephant,0,0645_rot_dnn_0_elephant_20_n02504458_5181.png,n02504458_5181.png,1.0,13.227179,4.421074,6.226856
alexnet2023_baseline_pgd,1,646,NaN,bottle,chair,270,0646_rot_dnn_270_chair_20_n02791124_10287.png,n02791124_10287.png,0.0,2.7746015,5.58537,-1.9875135
alexnet2023_baseline_pgd,1,647,NaN,truck,oven,90,0647_rot_dnn_90_oven_20_n04111531_22291.png,n04111531_22291.png,0.0,3.7304363,5.2843113,-1.0987556
alexnet2023_baseline_pgd,1,648,NaN,bottle,bottle,90,0648_rot_dnn_90_bottle_20_n03937543_4399.png,n03937543_4399.png,1.0,5.1329336,3.8791072,0.88658917
alexnet2023_baseline_pgd,1,649,NaN,chair,truck,90,0649_rot_dnn_90_truck_20_n03796401_13226.png,n03796401_13226.png,0.0,3.823394,4.6770043,-0.60359365
alexnet2023_baseline_pgd,1,650,NaN,clock,airplane,270,0650_rot_dnn_270_airplane_20_n02690373_5430.png,n02690373_5430.png,0.0,0.591274,3.981074,-2.3969507
alexnet2023_baseline_pgd,1,651,NaN,cat,cat,90,0651_rot_dnn_90_cat_20_n02124075_20.png,n02124075_20.png,1.0,13.403363,2.8706474,7.447755
alexnet2023_baseline_pgd,1,652,NaN,bottle,keyboard,90,0652_rot_dnn_90_keyboard_20_n04505470_4943.png,n04505470_4943.png,0.0,2.2372742,2.5713139,-0.23620173
alexnet2023_baseline_pgd,1,653,NaN,car,car,180,0653_rot_dnn_180_car_20_n03100240_4288.png,n03100240_4288.png,1.0,7.4557986,5.125345,1.6478795
alexnet2023_baseline_pgd,1,654,NaN,dog,dog,0,0654_rot_dnn_0_dog_20_n02109525_7478.png,n02109525_7478.png,1.0,8.65343,-0.059815526,6.161195
alexnet2023_baseline_pgd,1,655,NaN,bicycle,bicycle,0,0655_rot_dnn_0_bicycle_20_n03792782_4895.png,n03792782_4895.png,1.0,7.1923933,2.7253277,3.1586926
alexnet2023_baseline_pgd,1,656,NaN,oven,oven,0,0656_rot_dnn_0_oven_20_n04111531_8077.png,n04111531_8077.png,1.0,12.211566,8.169695,2.8580346
alexnet2023_baseline_pgd,1,657,NaN,airplane,airplane,90,0657_rot_dnn_90_airplane_20_n02690373_4845.png,n02690373_4845.png,1.0,3.4958644,2.972078,0.37037286
alexnet2023_baseline_pgd,1,658,NaN,cat,cat,90,0658_rot_dnn_90_cat_20_n02125311_59332.png,n02125311_59332.png,1.0,3.2112548,2.986889,0.15865068
alexnet2023_baseline_pgd,1,659,NaN,bicycle,bicycle,180,0659_rot_dnn_180_bicycle_20_n02835271_24.png,n02835271_24.png,1.0,5.746402,2.768155,2.1059384
alexnet2023_baseline_pgd,1,660,NaN,truck,truck,180,0660_rot_dnn_180_truck_20_n04467665_22637.png,n04467665_22637.png,1.0,4.873452,4.525821,0.24581222
alexnet2023_baseline_pgd,1,661,NaN,elephant,dog,180,0661_rot_dnn_180_dog_20_n02101006_6694.png,n02101006_6694.png,0.0,2.1885138,6.8585405,-3.3022077
alexnet2023_baseline_pgd,1,662,NaN,car,car,0,0662_rot_dnn_0_car_20_n02814533_37256.png,n02814533_37256.png,1.0,13.100438,11.542969,1.1012971
alexnet2023_baseline_pgd,1,663,NaN,bear,bear,0,0663_rot_dnn_0_bear_20_n02134418_132.png,n02134418_132.png,1.0,10.531532,5.365468,3.652959
alexnet2023_baseline_pgd,1,664,NaN,knife,knife,180,0664_rot_dnn_180_knife_20_n03041632_41310.png,n03041632_41310.png,1.0,12.401711,5.1848054,5.103123
alexnet2023_baseline_pgd,1,665,NaN,bird,bird,0,0665_rot_dnn_0_bird_20_n01530575_3198.png,n01530575_3198.png,1.0,12.574727,2.1275265,7.3872867
alexnet2023_baseline_pgd,1,666,NaN,bicycle,bicycle,180,0666_rot_dnn_180_bicycle_20_n02835271_3643.png,n02835271_3643.png,1.0,9.636463,3.3011386,4.4797506
alexnet2023_baseline_pgd,1,667,NaN,truck,chair,180,0667_rot_dnn_180_chair_20_n02791124_3186.png,n02791124_3186.png,0.0,6.1064196,7.494212,-0.9813176
alexnet2023_baseline_pgd,1,668,NaN,oven,chair,270,0668_rot_dnn_270_chair_20_n04099969_5396.png,n04099969_5396.png,0.0,5.2855215,5.6077724,-0.22786576
alexnet2023_baseline_pgd,1,669,NaN,cat,dog,0,0669_rot_dnn_0_dog_20_n02110806_749.png,n02110806_749.png,0.0,3.9111142,4.346915,-0.30815753
