subj,session,trial,rt,object_response,category,condition,imagename,filename,is_correct,targ_act,max_nontarg_act,decision_margin
alexnet_w3_mlp_simclrhn_probe0,1,1,NaN,bicycle,chair,0,0001_rot_dnn_0_chair_20_n03376595_3070.png,n03376595_3070.png,0.0,-4.2054586,-2.7702012,-1.0148803
alexnet_w3_mlp_simclrhn_probe0,1,2,NaN,car,car,180,0002_rot_dnn_180_car_20_n02814533_29367.png,n02814533_29367.png,1.0,-1.9473819,-5.3314013,2.392863
alexnet_w3_mlp_simclrhn_probe0,1,3,NaN,knife,car,270,0003_rot_dnn_270_car_20_n02814533_31083.png,n02814533_31083.png,0.0,-9.099179,-2.9706452,-4.333528
alexnet_w3_mlp_simclrhn_probe0,1,4,NaN,airplane,car,180,0004_rot_dnn_180_car_20_n03100240_1703.png,n03100240_1703.png,0.0,0.19616024,0.6386468,-0.31288522
alexnet_w3_mlp_simclrhn_probe0,1,5,NaN,bottle,bottle,180,0005_rot_dnn_180_bottle_20_n04591713_2359.png,n04591713_2359.png,1.0,-3.155868,-3.9924324,0.5915403
alexnet_w3_mlp_simclrhn_probe0,1,6,NaN,dog,dog,90,0006_rot_dnn_90_dog_20_n02111500_8796.png,n02111500_8796.png,1.0,-5.01,-5.594378,0.41321748
alexnet_w3_mlp_simclrhn_probe0,1,7,NaN,bear,bear,180,0007_rot_dnn_180_bear_20_n02132136_4512.png,n02132136_4512.png,1.0,-2.2397585,-2.9335976,0.49061832
alexnet_w3_mlp_simclrhn_probe0,1,8,NaN,chair,chair,90,0008_rot_dnn_90_chair_20_n03376595_4820.png,n03376595_4820.png,1.0,-1.7846336,-4.3868985,1.8400792
alexnet_w3_mlp_simclrhn_probe0,1,9,NaN,keyboard,bottle,270,0009_rot_dnn_270_bottle_20_n04591713_6111.png,n04591713_6111.png,0.0,-2.40942,0.6192188,-2.141571
alexnet_w3_mlp_simclrhn_probe0,1,10,NaN,chair,bottle,270,0010_rot_dnn_270_bottle_20_n04560804_14111.png,n04560804_14111.png,0.0,-4.5165906,-2.366027,-1.520678
alexnet_w3_mlp_simclrhn_probe0,1,11,NaN,elephant,dog,0,0011_rot_dnn_0_dog_20_n02099601_8656.png,n02099601_8656.png,0.0,-0.5007423,0.54708993,-0.7409293
alexnet_w3_mlp_simclrhn_probe0,1,12,NaN,cat,cat,0,0012_rot_dnn_0_cat_20_n02125311_14054.png,n02125311_14054.png,1.0,-3.130495,-4.105067,0.68912625
alexnet_w3_mlp_simclrhn_probe0,1,13,NaN,bear,bear,0,0013_rot_dnn_0_bear_20_n02132136_10385.png,n02132136_10385.png,1.0,-3.660462,-3.7305355,0.04954952
alexnet_w3_mlp_simclrhn_probe0,1,14,NaN,car,bottle,90,0014_rot_dnn_90_bottle_20_n02823428_10417.png,n02823428_10417.png,0.0,-3.0583384,-1.1349455,-1.3600441
alexnet_w3_mlp_simclrhn_probe0,1,15,NaN,knife,keyboard,0,0015_rot_dnn_0_keyboard_20_n03085013_23566.png,n03085013_23566.png,0.0,-6.516389,-4.151846,-1.6719844
alexnet_w3_mlp_simclrhn_probe0,1,16,NaN,oven,truck,90,0016_rot_dnn_90_truck_20_n03417042_12560.png,n03417042_12560.png,0.0,-5.546089,-2.1876724,-2.3747594
alexnet_w3_mlp_simclrhn_probe0,1,17,NaN,airplane,truck,180,0017_rot_dnn_180_truck_20_n04467665_69063.png,n04467665_69063.png,0.0,-3.6231565,0.5563383,-2.9553492
alexnet_w3_mlp_simclrhn_probe0,1,18,NaN,oven,oven,180,0018_rot_dnn_180_oven_20_n04111531_9712.png,n04111531_9712.png,1.0,0.7061907,-0.86027837,1.1076609
alexnet_w3_mlp_simclrhn_probe0,1,19,NaN,oven,oven,180,0019_rot_dnn_180_oven_20_n04111531_10375.png,n04111531_10375.png,1.0,3.7198534,-1.0300543,3.358692
alexnet_w3_mlp_simclrhn_probe0,1,20,NaN,keyboard,keyboard,0,0020_rot_dnn_0_keyboard_20_n04505470_1744.png,n04505470_1744.png,1.0,1.5282512,0.07802659,1.0254637
alexnet_w3_mlp_simclrhn_probe0,1,21,NaN,elephant,boat,90,0021_rot_dnn_90_boat_20_n04273569_7296.png,n04273569_7296.png,0.0,-6.5393157,-1.8091697,-3.3447182
alexnet_w3_mlp_simclrhn_probe0,1,22,NaN,bear,dog,0,0022_rot_dnn_0_dog_20_n02101006_4807.png,n02101006_4807.png,0.0,-0.20771044,0.21436268,-0.29845077
alexnet_w3_mlp_simclrhn_probe0,1,23,NaN,clock,clock,90,0023_rot_dnn_90_clock_20_n02708093_1986.png,n02708093_1986.png,1.0,4.3456903,-3.0273445,5.213523
alexnet_w3_mlp_simclrhn_probe0,1,24,NaN,bottle,bottle,0,0024_rot_dnn_0_bottle_20_n04560804_15562.png,n04560804_15562.png,1.0,1.0775265,-3.893406,3.51498
alexnet_w3_mlp_simclrhn_probe0,1,25,NaN,cat,cat,0,0025_rot_dnn_0_cat_20_n02124075_13594.png,n02124075_13594.png,1.0,-0.8243513,-4.589855,2.6626134
alexnet_w3_mlp_simclrhn_probe0,1,26,NaN,elephant,bear,90,0026_rot_dnn_90_bear_20_n02134418_4365.png,n02134418_4365.png,0.0,-3.95422,-3.0982955,-0.6052301
alexnet_w3_mlp_simclrhn_probe0,1,27,NaN,bear,bear,180,0027_rot_dnn_180_bear_20_n02132136_8650.png,n02132136_8650.png,1.0,-0.53717625,-2.8518925,1.6367517
alexnet_w3_mlp_simclrhn_probe0,1,28,NaN,airplane,bird,90,0028_rot_dnn_90_bird_20_n02009912_12219.png,n02009912_12219.png,0.0,-3.002477,-2.2122962,-0.5587421
alexnet_w3_mlp_simclrhn_probe0,1,29,NaN,bicycle,dog,90,0029_rot_dnn_90_dog_20_n02100236_1662.png,n02100236_1662.png,0.0,-4.163111,-3.2054238,-0.67718726
alexnet_w3_mlp_simclrhn_probe0,1,30,NaN,clock,clock,90,0030_rot_dnn_90_clock_20_n04548280_1947.png,n04548280_1947.png,1.0,4.3208375,-1.6106564,4.1941996
alexnet_w3_mlp_simclrhn_probe0,1,31,NaN,bird,dog,270,0031_rot_dnn_270_dog_20_n02109047_66167.png,n02109047_66167.png,0.0,-5.318334,-4.5267053,-0.5597661
alexnet_w3_mlp_simclrhn_probe0,1,32,NaN,oven,oven,90,0032_rot_dnn_90_oven_20_n04111531_21055.png,n04111531_21055.png,1.0,5.133181,-0.9282162,4.2860556
alexnet_w3_mlp_simclrhn_probe0,1,33,NaN,truck,clock,0,0033_rot_dnn_0_clock_20_n02708093_2012.png,n02708093_2012.png,0.0,-1.9250597,-1.3809187,-0.38476574
alexnet_w3_mlp_simclrhn_probe0,1,34,NaN,elephant,elephant,0,0034_rot_dnn_0_elephant_20_n02504458_6119.png,n02504458_6119.png,1.0,2.819242,-1.3246977,2.9302082
alexnet_w3_mlp_simclrhn_probe0,1,35,NaN,chair,chair,0,0035_rot_dnn_0_chair_20_n04099969_12707.png,n04099969_12707.png,1.0,5.0811877,-2.5390038,5.3882895
alexnet_w3_mlp_simclrhn_probe0,1,36,NaN,clock,keyboard,270,0036_rot_dnn_270_keyboard_20_n03085013_19054.png,n03085013_19054.png,0.0,-0.21435416,-0.17646043,-0.026794912
alexnet_w3_mlp_simclrhn_probe0,1,37,NaN,chair,chair,0,0037_rot_dnn_0_chair_20_n02791124_422.png,n02791124_422.png,1.0,-1.8465389,-2.4260123,0.40974957
alexnet_w3_mlp_simclrhn_probe0,1,38,NaN,bicycle,bicycle,0,0038_rot_dnn_0_bicycle_20_n02835271_23830.png,n02835271_23830.png,1.0,7.2980857,-5.988058,9.394723
alexnet_w3_mlp_simclrhn_probe0,1,39,NaN,bird,bird,90,0039_rot_dnn_90_bird_20_n01534433_14735.png,n01534433_14735.png,1.0,-2.86907,-4.093357,0.8657017
alexnet_w3_mlp_simclrhn_probe0,1,40,NaN,bird,bird,90,0040_rot_dnn_90_bird_20_n02011460_13994.png,n02011460_13994.png,1.0,-3.4183612,-4.6746483,0.88832915
alexnet_w3_mlp_simclrhn_probe0,1,41,NaN,knife,boat,270,0041_rot_dnn_270_boat_20_n04273569_17522.png,n04273569_17522.png,0.0,-3.463944,-1.8725814,-1.1252633
alexnet_w3_mlp_simclrhn_probe0,1,42,NaN,cat,bear,180,0042_rot_dnn_180_bear_20_n02132136_5537.png,n02132136_5537.png,0.0,-0.8225305,1.0963781,-1.3568733
alexnet_w3_mlp_simclrhn_probe0,1,43,NaN,bear,bear,90,0043_rot_dnn_90_bear_20_n02132136_19248.png,n02132136_19248.png,1.0,1.1981759,-0.9422307,1.513496
alexnet_w3_mlp_simclrhn_probe0,1,44,NaN,bird,bird,270,0044_rot_dnn_270_bird_20_n01537544_1886.png,n01537544_1886.png,1.0,-2.3398004,-2.348207,0.0059443917
alexnet_w3_mlp_simclrhn_probe0,1,45,NaN,clock,clock,180,0045_rot_dnn_180_clock_20_n03196217_4776.png,n03196217_4776.png,1.0,2.1572392,0.7100491,1.0233179
alexnet_w3_mlp_simclrhn_probe0,1,46,NaN,chair,boat,270,0046_rot_dnn_270_boat_20_n04612504_17610.png,n04612504_17610.png,0.0,-6.246371,-1.278191,-3.5130336
alexnet_w3_mlp_simclrhn_probe0,1,47,NaN,cat,bear,90,0047_rot_dnn_90_bear_20_n02134418_1814.png,n02134418_1814.png,0.0,-1.8375319,-1.2991616,-0.38068536
alexnet_w3_mlp_simclrhn_probe0,1,48,NaN,keyboard,keyboard,180,0048_rot_dnn_180_keyboard_20_n03085013_20330.png,n03085013_20330.png,1.0,2.830766,0.7818769,1.4487834
alexnet_w3_mlp_simclrhn_probe0,1,49,NaN,bottle,bottle,180,0049_rot_dnn_180_bottle_20_n02823428_14574.png,n02823428_14574.png,1.0,0.5003536,-3.0067234,2.479878
alexnet_w3_mlp_simclrhn_probe0,1,50,NaN,bicycle,bicycle,0,0050_rot_dnn_0_bicycle_20_n03792782_7105.png,n03792782_7105.png,1.0,0.2655183,-3.258546,2.49189
alexnet_w3_mlp_simclrhn_probe0,1,51,NaN,elephant,elephant,0,0051_rot_dnn_0_elephant_20_n02504458_1302.png,n02504458_1302.png,1.0,5.2748785,-0.05009532,3.7653253
alexnet_w3_mlp_simclrhn_probe0,1,52,NaN,bottle,airplane,90,0052_rot_dnn_90_airplane_20_n02690373_3877.png,n02690373_3877.png,0.0,-9.027566,-3.0785358,-4.206599
alexnet_w3_mlp_simclrhn_probe0,1,53,NaN,chair,boat,90,0053_rot_dnn_90_boat_20_n02951358_15422.png,n02951358_15422.png,0.0,-7.088435,-3.5468028,-2.5043123
alexnet_w3_mlp_simclrhn_probe0,1,54,NaN,bottle,car,270,0054_rot_dnn_270_car_20_n02814533_46458.png,n02814533_46458.png,0.0,-8.0517235,-2.248831,-4.103265
alexnet_w3_mlp_simclrhn_probe0,1,55,NaN,car,car,0,0055_rot_dnn_0_car_20_n02814533_39547.png,n02814533_39547.png,1.0,10.431296,4.547871,4.16021
alexnet_w3_mlp_simclrhn_probe0,1,56,NaN,airplane,boat,180,0056_rot_dnn_180_boat_20_n04273569_6586.png,n04273569_6586.png,0.0,-0.033872556,0.5769925,-0.43194684
alexnet_w3_mlp_simclrhn_probe0,1,57,NaN,clock,clock,90,0057_rot_dnn_90_clock_20_n02708093_3394.png,n02708093_3394.png,1.0,-1.8089175,-2.278578,0.33210015
alexnet_w3_mlp_simclrhn_probe0,1,58,NaN,keyboard,keyboard,180,0058_rot_dnn_180_keyboard_20_n03085013_25419.png,n03085013_25419.png,1.0,2.1113868,0.33586806,1.2554814
alexnet_w3_mlp_simclrhn_probe0,1,59,NaN,bottle,bottle,180,0059_rot_dnn_180_bottle_20_n04557648_1871.png,n04557648_1871.png,1.0,-3.3004034,-4.2678847,0.68411267
alexnet_w3_mlp_simclrhn_probe0,1,60,NaN,oven,chair,90,0060_rot_dnn_90_chair_20_n04099969_6944.png,n04099969_6944.png,0.0,-3.7956405,-0.89514285,-2.0509615
alexnet_w3_mlp_simclrhn_probe0,1,61,NaN,chair,boat,270,0061_rot_dnn_270_boat_20_n04273569_1495.png,n04273569_1495.png,0.0,-6.7031875,-3.7488344,-2.0890431
alexnet_w3_mlp_simclrhn_probe0,1,62,NaN,keyboard,keyboard,90,0062_rot_dnn_90_keyboard_20_n03085013_7317.png,n03085013_7317.png,1.0,3.0784216,-1.0816444,2.941611
alexnet_w3_mlp_simclrhn_probe0,1,63,NaN,knife,knife,90,0063_rot_dnn_90_knife_20_n03041632_7448.png,n03041632_7448.png,1.0,-1.2117704,-1.8788639,0.47170636
alexnet_w3_mlp_simclrhn_probe0,1,64,NaN,truck,truck,0,0064_rot_dnn_0_truck_20_n03417042_11000.png,n03417042_11000.png,1.0,1.0382478,0.8353554,0.1434666
alexnet_w3_mlp_simclrhn_probe0,1,65,NaN,bird,bird,0,0065_rot_dnn_0_bird_20_n01582220_8827.png,n01582220_8827.png,1.0,0.29155043,-3.034721,2.352029
alexnet_w3_mlp_simclrhn_probe0,1,66,NaN,chair,airplane,270,0066_rot_dnn_270_airplane_20_n02690373_9247.png,n02690373_9247.png,0.0,-9.789183,-2.6741357,-5.031098
alexnet_w3_mlp_simclrhn_probe0,1,67,NaN,bear,bear,270,0067_rot_dnn_270_bear_20_n02133161_14397.png,n02133161_14397.png,1.0,-0.4363729,-2.216999,1.2590928
alexnet_w3_mlp_simclrhn_probe0,1,68,NaN,oven,oven,270,0068_rot_dnn_270_oven_20_n04111531_13560.png,n04111531_13560.png,1.0,2.407244,-1.3727971,2.6728928
alexnet_w3_mlp_simclrhn_probe0,1,69,NaN,airplane,bear,180,0069_rot_dnn_180_bear_20_n02132136_545.png,n02132136_545.png,0.0,-2.5030322,-2.391096,-0.07915077
alexnet_w3_mlp_simclrhn_probe0,1,70,NaN,elephant,cat,90,0070_rot_dnn_90_cat_20_n02125311_73072.png,n02125311_73072.png,0.0,-3.8925467,-0.021033257,-2.7375734
alexnet_w3_mlp_simclrhn_probe0,1,71,NaN,bicycle,bicycle,0,0071_rot_dnn_0_bicycle_20_n03792782_30530.png,n03792782_30530.png,1.0,1.0316658,-1.1625576,1.5515503
alexnet_w3_mlp_simclrhn_probe0,1,72,NaN,knife,knife,90,0072_rot_dnn_90_knife_20_n03041632_4975.png,n03041632_4975.png,1.0,-3.2066398,-4.435878,0.86920255
alexnet_w3_mlp_simclrhn_probe0,1,73,NaN,knife,dog,90,0073_rot_dnn_90_dog_20_n02107683_3120.png,n02107683_3120.png,0.0,-7.2066884,-4.4275775,-1.9651282
alexnet_w3_mlp_simclrhn_probe0,1,74,NaN,bear,elephant,90,0074_rot_dnn_90_elephant_20_n02504013_7316.png,n02504013_7316.png,0.0,-3.5832345,-2.0967932,-1.0510728
alexnet_w3_mlp_simclrhn_probe0,1,75,NaN,knife,truck,90,0075_rot_dnn_90_truck_20_n03796401_7284.png,n03796401_7284.png,0.0,-5.7835164,-1.4642643,-3.0541725
alexnet_w3_mlp_simclrhn_probe0,1,76,NaN,chair,chair,270,0076_rot_dnn_270_chair_20_n03376595_497.png,n03376595_497.png,1.0,-3.624717,-3.6902843,0.046363052
alexnet_w3_mlp_simclrhn_probe0,1,77,NaN,truck,truck,270,0077_rot_dnn_270_truck_20_n03796401_19845.png,n03796401_19845.png,1.0,-1.5122843,-1.5566711,0.031386252
alexnet_w3_mlp_simclrhn_probe0,1,78,NaN,knife,chair,90,0078_rot_dnn_90_chair_20_n04099969_1941.png,n04099969_1941.png,0.0,-3.9264479,-3.4021645,-0.37072435
alexnet_w3_mlp_simclrhn_probe0,1,79,NaN,chair,truck,90,0079_rot_dnn_90_truck_20_n03417042_28886.png,n03417042_28886.png,0.0,-4.329043,-2.9639075,-0.96529657
alexnet_w3_mlp_simclrhn_probe0,1,80,NaN,car,car,0,0080_rot_dnn_0_car_20_n02814533_12185.png,n02814533_12185.png,1.0,3.2821972,-1.3429699,3.2704868
alexnet_w3_mlp_simclrhn_probe0,1,81,NaN,bicycle,bicycle,90,0081_rot_dnn_90_bicycle_20_n02835271_1621.png,n02835271_1621.png,1.0,0.6490711,-1.5856291,1.5801717
alexnet_w3_mlp_simclrhn_probe0,1,82,NaN,cat,cat,0,0082_rot_dnn_0_cat_20_n02123597_32226.png,n02123597_32226.png,1.0,1.5537976,-2.399393,2.7953281
alexnet_w3_mlp_simclrhn_probe0,1,83,NaN,bicycle,bicycle,90,0083_rot_dnn_90_bicycle_20_n03792782_5048.png,n03792782_5048.png,1.0,-3.3150437,-4.0173073,0.49657536
alexnet_w3_mlp_simclrhn_probe0,1,84,NaN,airplane,airplane,0,0084_rot_dnn_0_airplane_20_n02690373_10044.png,n02690373_10044.png,1.0,10.380959,3.756823,4.6839714
alexnet_w3_mlp_simclrhn_probe0,1,85,NaN,car,car,180,0085_rot_dnn_180_car_20_n03100240_5752.png,n03100240_5752.png,1.0,-0.8185773,-2.7865152,1.3915423
alexnet_w3_mlp_simclrhn_probe0,1,86,NaN,bottle,car,90,0086_rot_dnn_90_car_20_n02814533_68219.png,n02814533_68219.png,0.0,-5.265919,-1.3272794,-2.785039
alexnet_w3_mlp_simclrhn_probe0,1,87,NaN,airplane,airplane,0,0087_rot_dnn_0_airplane_20_n02690373_1171.png,n02690373_1171.png,1.0,4.6738253,1.2453598,2.4242911
alexnet_w3_mlp_simclrhn_probe0,1,88,NaN,knife,bird,90,0088_rot_dnn_90_bird_20_n01817953_6970.png,n01817953_6970.png,0.0,-7.1166306,-1.8468529,-3.7262957
alexnet_w3_mlp_simclrhn_probe0,1,89,NaN,knife,car,90,0089_rot_dnn_90_car_20_n04285008_15503.png,n04285008_15503.png,0.0,-5.799929,-2.7876859,-2.1299777
alexnet_w3_mlp_simclrhn_probe0,1,90,NaN,chair,boat,270,0090_rot_dnn_270_boat_20_n03344393_11886.png,n03344393_11886.png,0.0,-1.9653332,-1.7542217,-0.1492784
alexnet_w3_mlp_simclrhn_probe0,1,91,NaN,boat,boat,0,0091_rot_dnn_0_boat_20_n04273569_30203.png,n04273569_30203.png,1.0,0.8895825,-0.12826672,0.7197281
alexnet_w3_mlp_simclrhn_probe0,1,92,NaN,keyboard,keyboard,180,0092_rot_dnn_180_keyboard_20_n03085013_22069.png,n03085013_22069.png,1.0,7.08004,-0.23113406,5.1697807
alexnet_w3_mlp_simclrhn_probe0,1,93,NaN,airplane,knife,0,0093_rot_dnn_0_knife_20_n03041632_26314.png,n03041632_26314.png,0.0,-1.2958841,-0.31359616,-0.6945825
alexnet_w3_mlp_simclrhn_probe0,1,94,NaN,bear,bicycle,270,0094_rot_dnn_270_bicycle_20_n03792782_18308.png,n03792782_18308.png,0.0,-5.356536,-5.0357275,-0.2268458
alexnet_w3_mlp_simclrhn_probe0,1,95,NaN,airplane,car,180,0095_rot_dnn_180_car_20_n04285008_8396.png,n04285008_8396.png,0.0,-1.4246782,0.9634645,-1.6886718
alexnet_w3_mlp_simclrhn_probe0,1,96,NaN,oven,bear,90,0096_rot_dnn_90_bear_20_n02133161_12349.png,n02133161_12349.png,0.0,-4.0647945,-2.6307864,-1.0139968
alexnet_w3_mlp_simclrhn_probe0,1,97,NaN,bear,bear,270,0097_rot_dnn_270_bear_20_n02132136_18303.png,n02132136_18303.png,1.0,1.1315677,0.47154927,0.46670353
alexnet_w3_mlp_simclrhn_probe0,1,98,NaN,cat,cat,180,0098_rot_dnn_180_cat_20_n02123394_6853.png,n02123394_6853.png,1.0,-2.353475,-5.4660645,2.200933
alexnet_w3_mlp_simclrhn_probe0,1,99,NaN,knife,cat,180,0099_rot_dnn_180_cat_20_n02123597_4805.png,n02123597_4805.png,0.0,-6.330225,-1.5231831,-3.3990922
alexnet_w3_mlp_simclrhn_probe0,1,100,NaN,truck,car,0,0100_rot_dnn_0_car_20_n03100240_17587.png,n03100240_17587.png,0.0,-6.9272475,-1.3299928,-3.957857
alexnet_w3_mlp_simclrhn_probe0,1,101,NaN,bird,bird,180,0101_rot_dnn_180_bird_20_n01601694_19236.png,n01601694_19236.png,1.0,-3.9197989,-6.9189725,2.1207361
alexnet_w3_mlp_simclrhn_probe0,1,102,NaN,cat,cat,0,0102_rot_dnn_0_cat_20_n02123597_2341.png,n02123597_2341.png,1.0,3.17757,-1.4803829,3.2936704
alexnet_w3_mlp_simclrhn_probe0,1,103,NaN,elephant,elephant,270,0103_rot_dnn_270_elephant_20_n02504013_7883.png,n02504013_7883.png,1.0,-1.1937186,-1.4974824,0.21479349
alexnet_w3_mlp_simclrhn_probe0,1,104,NaN,elephant,chair,270,0104_rot_dnn_270_chair_20_n03376595_14240.png,n03376595_14240.png,0.0,-5.1106844,-3.078113,-1.437245
alexnet_w3_mlp_simclrhn_probe0,1,105,NaN,airplane,airplane,0,0105_rot_dnn_0_airplane_20_n02690373_10188.png,n02690373_10188.png,1.0,7.126568,1.3312075,4.097939
alexnet_w3_mlp_simclrhn_probe0,1,106,NaN,chair,truck,90,0106_rot_dnn_90_truck_20_n03417042_8634.png,n03417042_8634.png,0.0,-4.821324,-1.5038381,-2.3458169
alexnet_w3_mlp_simclrhn_probe0,1,107,NaN,knife,knife,90,0107_rot_dnn_90_knife_20_n03041632_32774.png,n03041632_32774.png,1.0,-1.3929266,-2.2132084,0.58002687
alexnet_w3_mlp_simclrhn_probe0,1,108,NaN,knife,bottle,90,0108_rot_dnn_90_bottle_20_n03983396_4115.png,n03983396_4115.png,0.0,-2.0421543,-0.52416354,-1.0733817
alexnet_w3_mlp_simclrhn_probe0,1,109,NaN,clock,clock,270,0109_rot_dnn_270_clock_20_n04548280_8552.png,n04548280_8552.png,1.0,-0.1024122,-1.0130451,0.6439147
alexnet_w3_mlp_simclrhn_probe0,1,110,NaN,car,car,0,0110_rot_dnn_0_car_20_n02814533_6233.png,n02814533_6233.png,1.0,11.253095,4.0020504,5.1272626
alexnet_w3_mlp_simclrhn_probe0,1,111,NaN,elephant,elephant,0,0111_rot_dnn_0_elephant_20_n02504458_9870.png,n02504458_9870.png,1.0,4.3527455,-1.9105015,4.4287844
alexnet_w3_mlp_simclrhn_probe0,1,112,NaN,bicycle,bicycle,270,0112_rot_dnn_270_bicycle_20_n02835271_3956.png,n02835271_3956.png,1.0,0.7525843,-2.7898006,2.5048444
alexnet_w3_mlp_simclrhn_probe0,1,113,NaN,chair,knife,90,0113_rot_dnn_90_knife_20_n03041632_14817.png,n03041632_14817.png,0.0,-3.4359224,-3.2762017,-0.11293957
alexnet_w3_mlp_simclrhn_probe0,1,114,NaN,oven,chair,90,0114_rot_dnn_90_chair_20_n04099969_8642.png,n04099969_8642.png,0.0,-5.9127216,-3.3920712,-1.782369
alexnet_w3_mlp_simclrhn_probe0,1,115,NaN,clock,clock,0,0115_rot_dnn_0_clock_20_n02708093_240.png,n02708093_240.png,1.0,2.632786,-0.5262745,2.233793
alexnet_w3_mlp_simclrhn_probe0,1,116,NaN,bear,bear,180,0116_rot_dnn_180_bear_20_n02133161_3896.png,n02133161_3896.png,1.0,-1.5791292,-2.254019,0.47721916
alexnet_w3_mlp_simclrhn_probe0,1,117,NaN,bicycle,bottle,270,0117_rot_dnn_270_bottle_20_n04557648_11000.png,n04557648_11000.png,0.0,-5.604116,-5.531962,-0.051020615
alexnet_w3_mlp_simclrhn_probe0,1,118,NaN,clock,keyboard,90,0118_rot_dnn_90_keyboard_20_n03085013_2853.png,n03085013_2853.png,0.0,-0.5301602,2.895107,-2.4220297
alexnet_w3_mlp_simclrhn_probe0,1,119,NaN,knife,boat,90,0119_rot_dnn_90_boat_20_n04273569_7097.png,n04273569_7097.png,0.0,-4.5213275,-2.293485,-1.5753226
alexnet_w3_mlp_simclrhn_probe0,1,120,NaN,bicycle,bicycle,270,0120_rot_dnn_270_bicycle_20_n03792782_40932.png,n03792782_40932.png,1.0,-0.6108522,-4.33707,2.6348338
alexnet_w3_mlp_simclrhn_probe0,1,121,NaN,oven,chair,270,0121_rot_dnn_270_chair_20_n04429376_44914.png,n04429376_44914.png,0.0,-2.9565675,-2.0156975,-0.6652956
alexnet_w3_mlp_simclrhn_probe0,1,122,NaN,knife,bear,180,0122_rot_dnn_180_bear_20_n02134418_2122.png,n02134418_2122.png,0.0,-7.4756575,-3.8418288,-2.569505
alexnet_w3_mlp_simclrhn_probe0,1,123,NaN,knife,keyboard,90,0123_rot_dnn_90_keyboard_20_n03085013_22704.png,n03085013_22704.png,0.0,-4.4100466,-1.6263542,-1.9683678
alexnet_w3_mlp_simclrhn_probe0,1,124,NaN,truck,truck,0,0124_rot_dnn_0_truck_20_n03417042_6838.png,n03417042_6838.png,1.0,0.25661945,-0.9443679,0.8492263
alexnet_w3_mlp_simclrhn_probe0,1,125,NaN,elephant,elephant,0,0125_rot_dnn_0_elephant_20_n02504458_3628.png,n02504458_3628.png,1.0,5.388868,-1.5210891,4.8860774
alexnet_w3_mlp_simclrhn_probe0,1,126,NaN,cat,cat,90,0126_rot_dnn_90_cat_20_n02123597_10141.png,n02123597_10141.png,1.0,-2.3460624,-3.7054238,0.9612137
alexnet_w3_mlp_simclrhn_probe0,1,127,NaN,bicycle,bicycle,0,0127_rot_dnn_0_bicycle_20_n02835271_6383.png,n02835271_6383.png,1.0,4.229415,-4.2733574,6.012368
alexnet_w3_mlp_simclrhn_probe0,1,128,NaN,keyboard,car,180,0128_rot_dnn_180_car_20_n04285008_7154.png,n04285008_7154.png,0.0,-4.5139847,-1.8048835,-1.9156239
alexnet_w3_mlp_simclrhn_probe0,1,129,NaN,airplane,bird,0,0129_rot_dnn_0_bird_20_n02007558_1068.png,n02007558_1068.png,0.0,-2.2922263,2.262295,-3.2205331
alexnet_w3_mlp_simclrhn_probe0,1,130,NaN,bird,cat,90,0130_rot_dnn_90_cat_20_n02125311_1896.png,n02125311_1896.png,0.0,-3.2644129,-2.849701,-0.29324564
alexnet_w3_mlp_simclrhn_probe0,1,131,NaN,keyboard,keyboard,0,0131_rot_dnn_0_keyboard_20_n04505470_1903.png,n04505470_1903.png,1.0,15.550043,-1.4107187,11.99307
alexnet_w3_mlp_simclrhn_probe0,1,132,NaN,knife,bicycle,90,0132_rot_dnn_90_bicycle_20_n03792782_66159.png,n03792782_66159.png,0.0,-4.195049,-4.0891004,-0.07491687
alexnet_w3_mlp_simclrhn_probe0,1,133,NaN,bear,bear,90,0133_rot_dnn_90_bear_20_n02134418_5219.png,n02134418_5219.png,1.0,2.2751222,0.2681589,1.4191374
alexnet_w3_mlp_simclrhn_probe0,1,134,NaN,chair,car,90,0134_rot_dnn_90_car_20_n02814533_92229.png,n02814533_92229.png,0.0,-3.6558921,-0.42335254,-2.2857509
alexnet_w3_mlp_simclrhn_probe0,1,135,NaN,cat,dog,90,0135_rot_dnn_90_dog_20_n02090721_1002.png,n02090721_1002.png,0.0,-4.157002,-2.0418603,-1.495631
alexnet_w3_mlp_simclrhn_probe0,1,136,NaN,bottle,truck,270,0136_rot_dnn_270_truck_20_n04467665_46263.png,n04467665_46263.png,0.0,-7.608429,-2.617536,-3.5290942
alexnet_w3_mlp_simclrhn_probe0,1,137,NaN,bottle,bottle,180,0137_rot_dnn_180_bottle_20_n03983396_704.png,n03983396_704.png,1.0,-1.9733046,-3.458231,1.0500015
alexnet_w3_mlp_simclrhn_probe0,1,138,NaN,oven,truck,180,0138_rot_dnn_180_truck_20_n03796401_4149.png,n03796401_4149.png,0.0,-4.986537,-0.67128694,-3.0513425
alexnet_w3_mlp_simclrhn_probe0,1,139,NaN,bird,bird,0,0139_rot_dnn_0_bird_20_n02006656_2030.png,n02006656_2030.png,1.0,-0.7907163,-3.8930454,2.1936781
alexnet_w3_mlp_simclrhn_probe0,1,140,NaN,cat,cat,90,0140_rot_dnn_90_cat_20_n02123394_234.png,n02123394_234.png,1.0,0.5076387,-1.2888279,1.2702937
alexnet_w3_mlp_simclrhn_probe0,1,141,NaN,oven,chair,90,0141_rot_dnn_90_chair_20_n04429376_19916.png,n04429376_19916.png,0.0,-1.9721864,2.8148425,-3.3849406
alexnet_w3_mlp_simclrhn_probe0,1,142,NaN,bottle,truck,270,0142_rot_dnn_270_truck_20_n04467665_14024.png,n04467665_14024.png,0.0,-4.160043,-1.8212807,-1.6537545
alexnet_w3_mlp_simclrhn_probe0,1,143,NaN,keyboard,chair,90,0143_rot_dnn_90_chair_20_n04429376_14729.png,n04429376_14729.png,0.0,-3.864259,5.975136,-6.957503
alexnet_w3_mlp_simclrhn_probe0,1,144,NaN,knife,car,270,0144_rot_dnn_270_car_20_n02814533_82321.png,n02814533_82321.png,0.0,-4.9523683,-3.1930509,-1.2440252
alexnet_w3_mlp_simclrhn_probe0,1,145,NaN,clock,clock,180,0145_rot_dnn_180_clock_20_n04548280_3701.png,n04548280_3701.png,1.0,-0.64148986,-1.8111331,0.8270627
alexnet_w3_mlp_simclrhn_probe0,1,146,NaN,knife,boat,270,0146_rot_dnn_270_boat_20_n02951358_11442.png,n02951358_11442.png,0.0,-3.5817628,-1.1534369,-1.7170857
alexnet_w3_mlp_simclrhn_probe0,1,147,NaN,bear,bear,90,0147_rot_dnn_90_bear_20_n02132136_17349.png,n02132136_17349.png,1.0,-1.3147827,-3.2221665,1.348724
alexnet_w3_mlp_simclrhn_probe0,1,148,NaN,oven,airplane,90,0148_rot_dnn_90_airplane_20_n02690373_4982.png,n02690373_4982.png,0.0,-12.344033,-0.114401996,-8.6476555
alexnet_w3_mlp_simclrhn_probe0,1,149,NaN,airplane,airplane,0,0149_rot_dnn_0_airplane_20_n02690373_2232.png,n02690373_2232.png,1.0,1.3126751,-0.39228195,1.2055867
alexnet_w3_mlp_simclrhn_probe0,1,150,NaN,cat,cat,180,0150_rot_dnn_180_cat_20_n02123045_909.png,n02123045_909.png,1.0,-2.978079,-4.081826,0.7804671
alexnet_w3_mlp_simclrhn_probe0,1,151,NaN,clock,clock,180,0151_rot_dnn_180_clock_20_n04548280_1190.png,n04548280_1190.png,1.0,3.3181522,1.3588123,1.3854625
alexnet_w3_mlp_simclrhn_probe0,1,152,NaN,oven,oven,90,0152_rot_dnn_90_oven_20_n04111531_1855.png,n04111531_1855.png,1.0,-0.25121066,-2.3513763,1.4850414
alexnet_w3_mlp_simclrhn_probe0,1,153,NaN,chair,boat,270,0153_rot_dnn_270_boat_20_n03662601_21408.png,n03662601_21408.png,0.0,-3.4243207,-1.5255562,-1.3426293
alexnet_w3_mlp_simclrhn_probe0,1,154,NaN,knife,dog,90,0154_rot_dnn_90_dog_20_n02088364_15877.png,n02088364_15877.png,0.0,-2.8876233,-2.8763535,-0.007968958
alexnet_w3_mlp_simclrhn_probe0,1,155,NaN,knife,knife,90,0155_rot_dnn_90_knife_20_n03041632_15250.png,n03041632_15250.png,1.0,-1.4937694,-3.694843,1.5563941
alexnet_w3_mlp_simclrhn_probe0,1,156,NaN,oven,oven,0,0156_rot_dnn_0_oven_20_n04111531_17006.png,n04111531_17006.png,1.0,2.8947492,-3.2797437,4.366026
alexnet_w3_mlp_simclrhn_probe0,1,157,NaN,clock,clock,90,0157_rot_dnn_90_clock_20_n04548280_11763.png,n04548280_11763.png,1.0,0.8668926,-1.6436377,1.775213
alexnet_w3_mlp_simclrhn_probe0,1,158,NaN,bird,bird,270,0158_rot_dnn_270_bird_20_n02028035_8327.png,n02028035_8327.png,1.0,-1.8981729,-3.994612,1.4824064
alexnet_w3_mlp_simclrhn_probe0,1,159,NaN,bicycle,car,90,0159_rot_dnn_90_car_20_n04285008_5641.png,n04285008_5641.png,0.0,-6.769727,-4.3685913,-1.6978595
alexnet_w3_mlp_simclrhn_probe0,1,160,NaN,clock,oven,90,0160_rot_dnn_90_oven_20_n04111531_10727.png,n04111531_10727.png,0.0,-1.6696689,1.3107117,-2.1074474
alexnet_w3_mlp_simclrhn_probe0,1,161,NaN,elephant,elephant,270,0161_rot_dnn_270_elephant_20_n02504458_1971.png,n02504458_1971.png,1.0,-3.8138828,-4.524772,0.5026747
alexnet_w3_mlp_simclrhn_probe0,1,162,NaN,bottle,bottle,180,0162_rot_dnn_180_bottle_20_n04560804_15941.png,n04560804_15941.png,1.0,-0.7677967,-5.0124435,3.0014188
alexnet_w3_mlp_simclrhn_probe0,1,163,NaN,elephant,elephant,0,0163_rot_dnn_0_elephant_20_n02504458_151.png,n02504458_151.png,1.0,11.164664,2.1700814,6.360131
alexnet_w3_mlp_simclrhn_probe0,1,164,NaN,bear,bear,180,0164_rot_dnn_180_bear_20_n02133161_15427.png,n02133161_15427.png,1.0,-1.3943973,-1.7616454,0.25968367
alexnet_w3_mlp_simclrhn_probe0,1,165,NaN,elephant,bear,180,0165_rot_dnn_180_bear_20_n02134084_20605.png,n02134084_20605.png,0.0,-3.4208531,-1.3526835,-1.4624168
alexnet_w3_mlp_simclrhn_probe0,1,166,NaN,bottle,bottle,90,0166_rot_dnn_90_bottle_20_n04560804_2693.png,n04560804_2693.png,1.0,-3.665676,-4.8466606,0.8350822
alexnet_w3_mlp_simclrhn_probe0,1,167,NaN,clock,airplane,270,0167_rot_dnn_270_airplane_20_n02690373_8214.png,n02690373_8214.png,0.0,-7.508445,0.38845623,-5.5839524
alexnet_w3_mlp_simclrhn_probe0,1,168,NaN,boat,boat,0,0168_rot_dnn_0_boat_20_n02951358_14966.png,n02951358_14966.png,1.0,0.029321766,-2.141486,1.5349928
alexnet_w3_mlp_simclrhn_probe0,1,169,NaN,knife,knife,90,0169_rot_dnn_90_knife_20_n03041632_14801.png,n03041632_14801.png,1.0,-4.2943244,-4.4034767,0.077182345
alexnet_w3_mlp_simclrhn_probe0,1,170,NaN,cat,dog,90,0170_rot_dnn_90_dog_20_n02110063_8776.png,n02110063_8776.png,0.0,-3.8870757,-3.204807,-0.48243678
alexnet_w3_mlp_simclrhn_probe0,1,171,NaN,bicycle,dog,180,0171_rot_dnn_180_dog_20_n02100236_7671.png,n02100236_7671.png,0.0,-4.8197694,-4.333412,-0.3439065
alexnet_w3_mlp_simclrhn_probe0,1,172,NaN,oven,oven,0,0172_rot_dnn_0_oven_20_n04111531_21248.png,n04111531_21248.png,1.0,-0.15478113,-2.9434414,1.9718807
alexnet_w3_mlp_simclrhn_probe0,1,173,NaN,oven,knife,270,0173_rot_dnn_270_knife_20_n03041632_17100.png,n03041632_17100.png,0.0,-3.0365987,-0.32018864,-1.9207921
alexnet_w3_mlp_simclrhn_probe0,1,174,NaN,knife,knife,0,0174_rot_dnn_0_knife_20_n03041632_3781.png,n03041632_3781.png,1.0,-2.7476163,-3.6444273,0.63414115
alexnet_w3_mlp_simclrhn_probe0,1,175,NaN,chair,oven,270,0175_rot_dnn_270_oven_20_n04111531_46651.png,n04111531_46651.png,0.0,-4.1580443,-1.5718437,-1.8287201
alexnet_w3_mlp_simclrhn_probe0,1,176,NaN,clock,clock,0,0176_rot_dnn_0_clock_20_n04548280_8303.png,n04548280_8303.png,1.0,0.5337382,0.11982614,0.29268003
alexnet_w3_mlp_simclrhn_probe0,1,177,NaN,airplane,airplane,0,0177_rot_dnn_0_airplane_20_n02690373_2070.png,n02690373_2070.png,1.0,6.884531,-2.115192,6.3637657
alexnet_w3_mlp_simclrhn_probe0,1,178,NaN,airplane,car,180,0178_rot_dnn_180_car_20_n03100240_574.png,n03100240_574.png,0.0,-2.9192123,-1.9637651,-0.6756032
alexnet_w3_mlp_simclrhn_probe0,1,179,NaN,bear,dog,90,0179_rot_dnn_90_dog_20_n02095570_11263.png,n02095570_11263.png,0.0,-3.8359072,-2.8138094,-0.7227323
alexnet_w3_mlp_simclrhn_probe0,1,180,NaN,bottle,bottle,180,0180_rot_dnn_180_bottle_20_n03983396_9667.png,n03983396_9667.png,1.0,-1.9548233,-2.1447978,0.1343323
alexnet_w3_mlp_simclrhn_probe0,1,181,NaN,clock,clock,0,0181_rot_dnn_0_clock_20_n02708093_3535.png,n02708093_3535.png,1.0,5.5453696,3.3519578,1.5509764
alexnet_w3_mlp_simclrhn_probe0,1,182,NaN,bird,bird,180,0182_rot_dnn_180_bird_20_n01531178_17239.png,n01531178_17239.png,1.0,-3.2432787,-4.8902283,1.1645693
alexnet_w3_mlp_simclrhn_probe0,1,183,NaN,elephant,elephant,180,0183_rot_dnn_180_elephant_20_n02504458_2272.png,n02504458_2272.png,1.0,-1.665491,-4.179352,1.777568
alexnet_w3_mlp_simclrhn_probe0,1,184,NaN,knife,knife,90,0184_rot_dnn_90_knife_20_n03041632_50648.png,n03041632_50648.png,1.0,1.7954255,-3.4801872,3.7304218
alexnet_w3_mlp_simclrhn_probe0,1,185,NaN,knife,knife,0,0185_rot_dnn_0_knife_20_n03041632_33225.png,n03041632_33225.png,1.0,-4.3299313,-7.1432457,1.9893137
alexnet_w3_mlp_simclrhn_probe0,1,186,NaN,airplane,airplane,0,0186_rot_dnn_0_airplane_20_n02690373_736.png,n02690373_736.png,1.0,9.521527,1.2701263,5.8346214
alexnet_w3_mlp_simclrhn_probe0,1,187,NaN,knife,knife,270,0187_rot_dnn_270_knife_20_n03041632_2546.png,n03041632_2546.png,1.0,-2.8401225,-3.1851842,0.24399553
alexnet_w3_mlp_simclrhn_probe0,1,188,NaN,boat,boat,180,0188_rot_dnn_180_boat_20_n04273569_13053.png,n04273569_13053.png,1.0,1.6676986,0.68470186,0.6950837
alexnet_w3_mlp_simclrhn_probe0,1,189,NaN,car,airplane,180,0189_rot_dnn_180_airplane_20_n02690373_3588.png,n02690373_3588.png,0.0,-0.12333353,0.18118371,-0.2153262
alexnet_w3_mlp_simclrhn_probe0,1,190,NaN,cat,keyboard,0,0190_rot_dnn_0_keyboard_20_n03085013_21004.png,n03085013_21004.png,0.0,-6.333131,0.6394122,-4.9303327
alexnet_w3_mlp_simclrhn_probe0,1,191,NaN,chair,boat,180,0191_rot_dnn_180_boat_20_n03662601_16627.png,n03662601_16627.png,0.0,-3.2498436,-2.9165733,-0.2356577
alexnet_w3_mlp_simclrhn_probe0,1,192,NaN,elephant,bird,180,0192_rot_dnn_180_bird_20_n02017213_6478.png,n02017213_6478.png,0.0,-2.658476,-0.4077439,-1.591508
alexnet_w3_mlp_simclrhn_probe0,1,193,NaN,bear,bear,90,0193_rot_dnn_90_bear_20_n02134418_998.png,n02134418_998.png,1.0,-1.1086035,-3.1871588,1.4697607
alexnet_w3_mlp_simclrhn_probe0,1,194,NaN,bicycle,truck,90,0194_rot_dnn_90_truck_20_n04467665_71055.png,n04467665_71055.png,0.0,-7.9439435,-1.7414373,-4.385834
alexnet_w3_mlp_simclrhn_probe0,1,195,NaN,knife,car,90,0195_rot_dnn_90_car_20_n02814533_23979.png,n02814533_23979.png,0.0,-4.7812295,-0.90170324,-2.7432394
alexnet_w3_mlp_simclrhn_probe0,1,196,NaN,bear,elephant,180,0196_rot_dnn_180_elephant_20_n02504458_6805.png,n02504458_6805.png,0.0,-2.6150022,-1.7987239,-0.5771959
alexnet_w3_mlp_simclrhn_probe0,1,197,NaN,clock,clock,90,0197_rot_dnn_90_clock_20_n04548280_4841.png,n04548280_4841.png,1.0,0.34820977,-1.0422745,0.9832208
alexnet_w3_mlp_simclrhn_probe0,1,198,NaN,clock,boat,90,0198_rot_dnn_90_boat_20_n03662601_6832.png,n03662601_6832.png,0.0,-4.2669373,-1.7739953,-1.7627761
alexnet_w3_mlp_simclrhn_probe0,1,199,NaN,oven,oven,270,0199_rot_dnn_270_oven_20_n04111531_766.png,n04111531_766.png,1.0,3.0237944,-3.1446276,4.361733
alexnet_w3_mlp_simclrhn_probe0,1,200,NaN,bicycle,clock,0,0200_rot_dnn_0_clock_20_n04548280_1305.png,n04548280_1305.png,0.0,-6.6246543,-3.7290893,-2.0474737
alexnet_w3_mlp_simclrhn_probe0,1,201,NaN,bicycle,bicycle,0,0201_rot_dnn_0_bicycle_20_n03792782_19083.png,n03792782_19083.png,1.0,2.2387786,-4.6593876,4.8777404
alexnet_w3_mlp_simclrhn_probe0,1,202,NaN,cat,bird,90,0202_rot_dnn_90_bird_20_n01860187_20081.png,n01860187_20081.png,0.0,-4.3423486,-3.8121116,-0.37493417
alexnet_w3_mlp_simclrhn_probe0,1,203,NaN,oven,oven,0,0203_rot_dnn_0_oven_20_n04111531_4817.png,n04111531_4817.png,1.0,0.114254564,-3.2996652,2.4140058
alexnet_w3_mlp_simclrhn_probe0,1,204,NaN,car,car,180,0204_rot_dnn_180_car_20_n02814533_33360.png,n02814533_33360.png,1.0,-2.459305,-4.1374264,1.1866109
alexnet_w3_mlp_simclrhn_probe0,1,205,NaN,clock,clock,270,0205_rot_dnn_270_clock_20_n04548280_4035.png,n04548280_4035.png,1.0,1.4066172,-1.9886848,2.400841
alexnet_w3_mlp_simclrhn_probe0,1,206,NaN,keyboard,keyboard,270,0206_rot_dnn_270_keyboard_20_n03085013_7879.png,n03085013_7879.png,1.0,0.29004568,-1.6530161,1.3739523
alexnet_w3_mlp_simclrhn_probe0,1,207,NaN,airplane,airplane,0,0207_rot_dnn_0_airplane_20_n02690373_2598.png,n02690373_2598.png,1.0,5.0554214,-0.5983581,3.9978259
alexnet_w3_mlp_simclrhn_probe0,1,208,NaN,cat,cat,180,0208_rot_dnn_180_cat_20_n02123045_436.png,n02123045_436.png,1.0,-0.52453,-4.350829,2.7056022
alexnet_w3_mlp_simclrhn_probe0,1,209,NaN,knife,airplane,270,0209_rot_dnn_270_airplane_20_n02690373_813.png,n02690373_813.png,0.0,-6.0530066,-1.5580881,-3.1783876
alexnet_w3_mlp_simclrhn_probe0,1,210,NaN,cat,cat,0,0210_rot_dnn_0_cat_20_n02123159_1008.png,n02123159_1008.png,1.0,9.0675,-7.870633,11.977069
alexnet_w3_mlp_simclrhn_probe0,1,211,NaN,bottle,bottle,90,0211_rot_dnn_90_bottle_20_n03983396_5452.png,n03983396_5452.png,1.0,-2.8092742,-6.6872053,2.7421114
alexnet_w3_mlp_simclrhn_probe0,1,212,NaN,knife,dog,90,0212_rot_dnn_90_dog_20_n02090379_13010.png,n02090379_13010.png,0.0,-6.7037926,-4.354116,-1.6614723
alexnet_w3_mlp_simclrhn_probe0,1,213,NaN,chair,chair,180,0213_rot_dnn_180_chair_20_n04099969_4162.png,n04099969_4162.png,1.0,-1.8765552,-1.8916328,0.010661467
alexnet_w3_mlp_simclrhn_probe0,1,214,NaN,clock,keyboard,270,0214_rot_dnn_270_keyboard_20_n04505470_206.png,n04505470_206.png,0.0,-2.0770445,-0.64288366,-1.0141048
alexnet_w3_mlp_simclrhn_probe0,1,215,NaN,keyboard,cat,0,0215_rot_dnn_0_cat_20_n02123045_5290.png,n02123045_5290.png,0.0,-7.1476326,-5.562145,-1.1211089
alexnet_w3_mlp_simclrhn_probe0,1,216,NaN,bicycle,bird,180,0216_rot_dnn_180_bird_20_n01843383_6001.png,n01843383_6001.png,0.0,-5.387844,-3.8661427,-1.0760053
alexnet_w3_mlp_simclrhn_probe0,1,217,NaN,knife,knife,0,0217_rot_dnn_0_knife_20_n03041632_24376.png,n03041632_24376.png,1.0,-3.0528774,-3.9819195,0.656932
alexnet_w3_mlp_simclrhn_probe0,1,218,NaN,bicycle,bicycle,90,0218_rot_dnn_90_bicycle_20_n02835271_2915.png,n02835271_2915.png,1.0,-2.9092832,-5.2183557,1.6327609
alexnet_w3_mlp_simclrhn_probe0,1,219,NaN,bicycle,bicycle,0,0219_rot_dnn_0_bicycle_20_n03792782_5517.png,n03792782_5517.png,1.0,8.023148,-2.9028854,7.725872
alexnet_w3_mlp_simclrhn_probe0,1,220,NaN,bicycle,bicycle,90,0220_rot_dnn_90_bicycle_20_n02835271_7053.png,n02835271_7053.png,1.0,-1.0063837,-6.214817,3.6829185
alexnet_w3_mlp_simclrhn_probe0,1,221,NaN,clock,clock,180,0221_rot_dnn_180_clock_20_n04548280_7115.png,n04548280_7115.png,1.0,1.0026973,-3.7694163,3.3743942
alexnet_w3_mlp_simclrhn_probe0,1,222,NaN,knife,boat,270,0222_rot_dnn_270_boat_20_n04273569_29866.png,n04273569_29866.png,0.0,-4.6081133,-3.3842165,-0.8654257
alexnet_w3_mlp_simclrhn_probe0,1,223,NaN,clock,clock,90,0223_rot_dnn_90_clock_20_n02708093_3623.png,n02708093_3623.png,1.0,-1.4119492,-3.4721973,1.4568155
alexnet_w3_mlp_simclrhn_probe0,1,224,NaN,cat,bear,180,0224_rot_dnn_180_bear_20_n02132136_7468.png,n02132136_7468.png,0.0,-2.304079,-2.0822365,-0.15686636
alexnet_w3_mlp_simclrhn_probe0,1,225,NaN,cat,cat,0,0225_rot_dnn_0_cat_20_n02123159_2137.png,n02123159_2137.png,1.0,-1.3838501,-3.3966124,1.4232379
alexnet_w3_mlp_simclrhn_probe0,1,226,NaN,knife,bottle,90,0226_rot_dnn_90_bottle_20_n03937543_5257.png,n03937543_5257.png,0.0,-4.211889,-2.766589,-1.0219814
alexnet_w3_mlp_simclrhn_probe0,1,227,NaN,cat,cat,0,0227_rot_dnn_0_cat_20_n02123394_937.png,n02123394_937.png,1.0,-1.0052137,-3.8503656,2.0118263
alexnet_w3_mlp_simclrhn_probe0,1,228,NaN,boat,boat,0,0228_rot_dnn_0_boat_20_n03662601_11764.png,n03662601_11764.png,1.0,2.559155,0.99096334,1.108879
alexnet_w3_mlp_simclrhn_probe0,1,229,NaN,bear,bear,0,0229_rot_dnn_0_bear_20_n02132136_10412.png,n02132136_10412.png,1.0,2.0706463,-1.3117478,2.3917139
alexnet_w3_mlp_simclrhn_probe0,1,230,NaN,clock,clock,270,0230_rot_dnn_270_clock_20_n03196217_3600.png,n03196217_3600.png,1.0,2.0900478,0.6419844,1.0239354
alexnet_w3_mlp_simclrhn_probe0,1,231,NaN,cat,dog,270,0231_rot_dnn_270_dog_20_n02102177_255.png,n02102177_255.png,0.0,-4.5612197,-4.3169007,-0.17275959
alexnet_w3_mlp_simclrhn_probe0,1,232,NaN,bird,bird,270,0232_rot_dnn_270_bird_20_n01614925_1860.png,n01614925_1860.png,1.0,-2.438369,-4.3272276,1.3356247
alexnet_w3_mlp_simclrhn_probe0,1,233,NaN,knife,airplane,180,0233_rot_dnn_180_airplane_20_n02690373_1021.png,n02690373_1021.png,0.0,-2.7602925,-2.3105798,-0.31799495
alexnet_w3_mlp_simclrhn_probe0,1,234,NaN,chair,chair,180,0234_rot_dnn_180_chair_20_n03376595_9079.png,n03376595_9079.png,1.0,0.34134984,-0.11240351,0.32085207
alexnet_w3_mlp_simclrhn_probe0,1,235,NaN,car,chair,90,0235_rot_dnn_90_chair_20_n02791124_5199.png,n02791124_5199.png,0.0,-2.6940196,-1.8907541,-0.5679945
alexnet_w3_mlp_simclrhn_probe0,1,236,NaN,bottle,keyboard,90,0236_rot_dnn_90_keyboard_20_n03085013_24294.png,n03085013_24294.png,0.0,-4.6151047,-3.1447651,-1.039687
alexnet_w3_mlp_simclrhn_probe0,1,237,NaN,cat,cat,0,0237_rot_dnn_0_cat_20_n02123597_13286.png,n02123597_13286.png,1.0,0.3199441,-2.7963178,2.20353
alexnet_w3_mlp_simclrhn_probe0,1,238,NaN,bird,bird,180,0238_rot_dnn_180_bird_20_n01560419_17392.png,n01560419_17392.png,1.0,-3.8151104,-7.0639977,2.2973104
alexnet_w3_mlp_simclrhn_probe0,1,239,NaN,oven,oven,270,0239_rot_dnn_270_oven_20_n04111531_6934.png,n04111531_6934.png,1.0,0.93737644,-2.4543626,2.3983219
alexnet_w3_mlp_simclrhn_probe0,1,240,NaN,bottle,clock,90,0240_rot_dnn_90_clock_20_n03196217_6707.png,n03196217_6707.png,0.0,-2.278796,-1.1957306,-0.7658429
alexnet_w3_mlp_simclrhn_probe0,1,241,NaN,knife,knife,180,0241_rot_dnn_180_knife_20_n03041632_15174.png,n03041632_15174.png,1.0,-4.0952396,-4.9794703,0.62524545
alexnet_w3_mlp_simclrhn_probe0,1,242,NaN,oven,oven,180,0242_rot_dnn_180_oven_20_n04111531_13644.png,n04111531_13644.png,1.0,3.4143915,-3.9254117,5.190025
alexnet_w3_mlp_simclrhn_probe0,1,243,NaN,elephant,elephant,0,0243_rot_dnn_0_elephant_20_n02504458_3458.png,n02504458_3458.png,1.0,9.117007,-3.8620749,9.177597
alexnet_w3_mlp_simclrhn_probe0,1,244,NaN,clock,clock,90,0244_rot_dnn_90_clock_20_n04548280_18914.png,n04548280_18914.png,1.0,4.6212363,-0.4669239,3.5978725
alexnet_w3_mlp_simclrhn_probe0,1,245,NaN,bicycle,dog,180,0245_rot_dnn_180_dog_20_n02107908_2754.png,n02107908_2754.png,0.0,-5.0025783,-4.201917,-0.5661529
alexnet_w3_mlp_simclrhn_probe0,1,246,NaN,airplane,airplane,0,0246_rot_dnn_0_airplane_20_n02690373_1306.png,n02690373_1306.png,1.0,10.080382,1.1374769,6.3235893
alexnet_w3_mlp_simclrhn_probe0,1,247,NaN,chair,chair,90,0247_rot_dnn_90_chair_20_n03376595_10266.png,n03376595_10266.png,1.0,-1.3317724,-2.5772047,0.8806536
alexnet_w3_mlp_simclrhn_probe0,1,248,NaN,keyboard,keyboard,270,0248_rot_dnn_270_keyboard_20_n04505470_1416.png,n04505470_1416.png,1.0,2.8154335,0.19135486,1.8555039
alexnet_w3_mlp_simclrhn_probe0,1,249,NaN,clock,clock,180,0249_rot_dnn_180_clock_20_n04548280_4686.png,n04548280_4686.png,1.0,5.777862,-1.3843511,5.06445
alexnet_w3_mlp_simclrhn_probe0,1,250,NaN,bottle,truck,270,0250_rot_dnn_270_truck_20_n04467665_69882.png,n04467665_69882.png,0.0,-9.400124,-2.690079,-4.744718
alexnet_w3_mlp_simclrhn_probe0,1,251,NaN,knife,bottle,270,0251_rot_dnn_270_bottle_20_n04591713_2123.png,n04591713_2123.png,0.0,-5.378461,0.5110045,-4.164481
alexnet_w3_mlp_simclrhn_probe0,1,252,NaN,oven,oven,90,0252_rot_dnn_90_oven_20_n04111531_6933.png,n04111531_6933.png,1.0,0.043819964,-4.3910847,3.135951
alexnet_w3_mlp_simclrhn_probe0,1,253,NaN,knife,car,270,0253_rot_dnn_270_car_20_n03100240_8898.png,n03100240_8898.png,0.0,-10.155721,-2.1233296,-5.679758
alexnet_w3_mlp_simclrhn_probe0,1,254,NaN,cat,elephant,180,0254_rot_dnn_180_elephant_20_n02504458_5277.png,n02504458_5277.png,0.0,-5.6752596,-2.2631705,-2.4127114
alexnet_w3_mlp_simclrhn_probe0,1,255,NaN,oven,truck,270,0255_rot_dnn_270_truck_20_n03417042_9967.png,n03417042_9967.png,0.0,-2.3235888,-0.007910764,-1.6374317
alexnet_w3_mlp_simclrhn_probe0,1,256,NaN,bear,bear,0,0256_rot_dnn_0_bear_20_n02134418_1017.png,n02134418_1017.png,1.0,-0.5550476,-4.453023,2.756285
alexnet_w3_mlp_simclrhn_probe0,1,257,NaN,knife,airplane,90,0257_rot_dnn_90_airplane_20_n02690373_1909.png,n02690373_1909.png,0.0,-6.683037,-2.8093352,-2.7391207
alexnet_w3_mlp_simclrhn_probe0,1,258,NaN,airplane,airplane,0,0258_rot_dnn_0_airplane_20_n02690373_6753.png,n02690373_6753.png,1.0,7.4043927,-1.2352324,6.109138
alexnet_w3_mlp_simclrhn_probe0,1,259,NaN,airplane,airplane,0,0259_rot_dnn_0_airplane_20_n02690373_1972.png,n02690373_1972.png,1.0,6.294691,1.6201379,3.3054082
alexnet_w3_mlp_simclrhn_probe0,1,260,NaN,oven,oven,90,0260_rot_dnn_90_oven_20_n04111531_9915.png,n04111531_9915.png,1.0,0.016335055,-3.0841777,2.1923935
alexnet_w3_mlp_simclrhn_probe0,1,261,NaN,elephant,elephant,270,0261_rot_dnn_270_elephant_20_n02504458_485.png,n02504458_485.png,1.0,-0.058490053,-4.828042,3.3725824
alexnet_w3_mlp_simclrhn_probe0,1,262,NaN,cat,elephant,180,0262_rot_dnn_180_elephant_20_n02504013_2431.png,n02504013_2431.png,0.0,-2.8729248,-1.4225343,-1.025581
alexnet_w3_mlp_simclrhn_probe0,1,263,NaN,clock,clock,180,0263_rot_dnn_180_clock_20_n02708093_1038.png,n02708093_1038.png,1.0,-2.3602898,-2.9833863,0.44059575
alexnet_w3_mlp_simclrhn_probe0,1,264,NaN,cat,cat,270,0264_rot_dnn_270_cat_20_n02123597_5927.png,n02123597_5927.png,1.0,-1.7313318,-3.0927238,0.9626495
alexnet_w3_mlp_simclrhn_probe0,1,265,NaN,bicycle,bicycle,90,0265_rot_dnn_90_bicycle_20_n03792782_3202.png,n03792782_3202.png,1.0,-2.4341729,-4.4456067,1.4222986
alexnet_w3_mlp_simclrhn_probe0,1,266,NaN,chair,car,270,0266_rot_dnn_270_car_20_n02814533_45480.png,n02814533_45480.png,0.0,-5.6635437,-0.83407164,-3.4149525
alexnet_w3_mlp_simclrhn_probe0,1,267,NaN,clock,truck,90,0267_rot_dnn_90_truck_20_n03796401_4571.png,n03796401_4571.png,0.0,-2.6521883,-0.6726508,-1.3997444
alexnet_w3_mlp_simclrhn_probe0,1,268,NaN,oven,oven,90,0268_rot_dnn_90_oven_20_n04111531_21011.png,n04111531_21011.png,1.0,-1.4957608,-2.7393456,0.8793472
alexnet_w3_mlp_simclrhn_probe0,1,269,NaN,airplane,airplane,0,0269_rot_dnn_0_airplane_20_n02690373_4310.png,n02690373_4310.png,1.0,10.036541,-1.5882123,8.219942
alexnet_w3_mlp_simclrhn_probe0,1,270,NaN,oven,oven,0,0270_rot_dnn_0_oven_20_n04111531_7134.png,n04111531_7134.png,1.0,-1.6123781,-2.2977376,0.48462233
alexnet_w3_mlp_simclrhn_probe0,1,271,NaN,cat,dog,270,0271_rot_dnn_270_dog_20_n02105251_1092.png,n02105251_1092.png,0.0,-3.547663,-2.6149552,-0.659524
alexnet_w3_mlp_simclrhn_probe0,1,272,NaN,knife,knife,180,0272_rot_dnn_180_knife_20_n03041632_34505.png,n03041632_34505.png,1.0,-1.6547506,-2.0630076,0.2886813
alexnet_w3_mlp_simclrhn_probe0,1,273,NaN,keyboard,keyboard,90,0273_rot_dnn_90_keyboard_20_n04505470_4520.png,n04505470_4520.png,1.0,0.6654601,-1.3176194,1.402249
alexnet_w3_mlp_simclrhn_probe0,1,274,NaN,oven,boat,180,0274_rot_dnn_180_boat_20_n03344393_1519.png,n03344393_1519.png,0.0,-4.3447227,-1.960181,-1.6861256
alexnet_w3_mlp_simclrhn_probe0,1,275,NaN,knife,chair,270,0275_rot_dnn_270_chair_20_n03376595_9535.png,n03376595_9535.png,0.0,-2.050129,-1.6139463,-0.3084277
alexnet_w3_mlp_simclrhn_probe0,1,276,NaN,elephant,cat,270,0276_rot_dnn_270_cat_20_n02125311_1326.png,n02125311_1326.png,0.0,-5.2477975,-3.0413618,-1.5601857
alexnet_w3_mlp_simclrhn_probe0,1,277,NaN,cat,cat,90,0277_rot_dnn_90_cat_20_n02123394_2948.png,n02123394_2948.png,1.0,-0.20196582,-3.029213,1.9991657
alexnet_w3_mlp_simclrhn_probe0,1,278,NaN,oven,oven,270,0278_rot_dnn_270_oven_20_n04111531_5429.png,n04111531_5429.png,1.0,2.3413582,-0.9831453,2.350779
alexnet_w3_mlp_simclrhn_probe0,1,279,NaN,elephant,elephant,0,0279_rot_dnn_0_elephant_20_n02504013_6645.png,n02504013_6645.png,1.0,0.6087771,0.47879514,0.09191113
alexnet_w3_mlp_simclrhn_probe0,1,280,NaN,oven,keyboard,90,0280_rot_dnn_90_keyboard_20_n04505470_4159.png,n04505470_4159.png,0.0,-5.826346,-0.7086812,-3.6187356
alexnet_w3_mlp_simclrhn_probe0,1,281,NaN,bottle,bottle,90,0281_rot_dnn_90_bottle_20_n02823428_6252.png,n02823428_6252.png,1.0,-2.4884324,-3.292399,0.5684902
alexnet_w3_mlp_simclrhn_probe0,1,282,NaN,airplane,airplane,180,0282_rot_dnn_180_airplane_20_n02690373_15097.png,n02690373_15097.png,1.0,2.3152869,-1.4439379,2.6581736
alexnet_w3_mlp_simclrhn_probe0,1,283,NaN,chair,cat,0,0283_rot_dnn_0_cat_20_n02123159_3420.png,n02123159_3420.png,0.0,-8.421497,-3.3556263,-3.582112
alexnet_w3_mlp_simclrhn_probe0,1,284,NaN,cat,cat,0,0284_rot_dnn_0_cat_20_n02124075_7835.png,n02124075_7835.png,1.0,-4.1311173,-5.0706367,0.66434056
alexnet_w3_mlp_simclrhn_probe0,1,285,NaN,cat,cat,90,0285_rot_dnn_90_cat_20_n02123045_6696.png,n02123045_6696.png,1.0,-3.3789084,-5.4690456,1.4779502
alexnet_w3_mlp_simclrhn_probe0,1,286,NaN,bicycle,boat,180,0286_rot_dnn_180_boat_20_n02951358_34766.png,n02951358_34766.png,0.0,-4.277357,-2.4454541,-1.295351
alexnet_w3_mlp_simclrhn_probe0,1,287,NaN,elephant,bird,0,0287_rot_dnn_0_bird_20_n01855672_8191.png,n01855672_8191.png,0.0,-4.2700777,-0.7706547,-2.4744658
alexnet_w3_mlp_simclrhn_probe0,1,288,NaN,clock,truck,180,0288_rot_dnn_180_truck_20_n03796401_1150.png,n03796401_1150.png,0.0,-2.1958058,0.10788695,-1.6289568
alexnet_w3_mlp_simclrhn_probe0,1,289,NaN,bicycle,bicycle,270,0289_rot_dnn_270_bicycle_20_n03792782_9782.png,n03792782_9782.png,1.0,-3.0706954,-5.6625233,1.8326991
alexnet_w3_mlp_simclrhn_probe0,1,290,NaN,knife,boat,270,0290_rot_dnn_270_boat_20_n03662601_12969.png,n03662601_12969.png,0.0,-5.5189013,-0.6598902,-3.43584
alexnet_w3_mlp_simclrhn_probe0,1,291,NaN,clock,bottle,180,0291_rot_dnn_180_bottle_20_n02823428_4530.png,n02823428_4530.png,0.0,-2.6085877,-2.5785537,-0.021237291
alexnet_w3_mlp_simclrhn_probe0,1,292,NaN,chair,chair,0,0292_rot_dnn_0_chair_20_n02791124_2898.png,n02791124_2898.png,1.0,-2.1088576,-3.0752566,0.6833473
alexnet_w3_mlp_simclrhn_probe0,1,293,NaN,cat,cat,270,0293_rot_dnn_270_cat_20_n02123394_686.png,n02123394_686.png,1.0,-0.1664229,-1.8786354,1.2107171
alexnet_w3_mlp_simclrhn_probe0,1,294,NaN,dog,dog,180,0294_rot_dnn_180_dog_20_n02100735_4364.png,n02100735_4364.png,1.0,-4.1443567,-4.834785,0.4882065
alexnet_w3_mlp_simclrhn_probe0,1,295,NaN,bear,dog,0,0295_rot_dnn_0_dog_20_n02102177_7968.png,n02102177_7968.png,0.0,-1.8496312,1.0999103,-2.085641
alexnet_w3_mlp_simclrhn_probe0,1,296,NaN,knife,knife,270,0296_rot_dnn_270_knife_20_n03041632_15099.png,n03041632_15099.png,1.0,-4.0875077,-4.4619117,0.26474357
alexnet_w3_mlp_simclrhn_probe0,1,297,NaN,oven,oven,180,0297_rot_dnn_180_oven_20_n04111531_2937.png,n04111531_2937.png,1.0,2.3999782,-0.7924846,2.257412
alexnet_w3_mlp_simclrhn_probe0,1,298,NaN,cat,cat,0,0298_rot_dnn_0_cat_20_n02123394_3695.png,n02123394_3695.png,1.0,-0.29962593,-1.1618922,0.6097143
alexnet_w3_mlp_simclrhn_probe0,1,299,NaN,bottle,bear,180,0299_rot_dnn_180_bear_20_n02134084_3696.png,n02134084_3696.png,0.0,-6.1098123,-3.7845485,-1.6442097
alexnet_w3_mlp_simclrhn_probe0,1,300,NaN,knife,oven,270,0300_rot_dnn_270_oven_20_n04111531_4671.png,n04111531_4671.png,0.0,-4.9735913,-3.1922991,-1.2595638
alexnet_w3_mlp_simclrhn_probe0,1,301,NaN,bear,bear,180,0301_rot_dnn_180_bear_20_n02133161_2741.png,n02133161_2741.png,1.0,-2.4846144,-3.5484145,0.7522203
alexnet_w3_mlp_simclrhn_probe0,1,302,NaN,clock,boat,90,0302_rot_dnn_90_boat_20_n03662601_3893.png,n03662601_3893.png,0.0,-6.691977,-2.7794762,-2.766556
alexnet_w3_mlp_simclrhn_probe0,1,303,NaN,clock,boat,90,0303_rot_dnn_90_boat_20_n03344393_2790.png,n03344393_2790.png,0.0,-5.6354475,-2.8677022,-1.9570915
alexnet_w3_mlp_simclrhn_probe0,1,304,NaN,airplane,keyboard,180,0304_rot_dnn_180_keyboard_20_n03085013_3920.png,n03085013_3920.png,0.0,0.971946,1.6177895,-0.45668033
alexnet_w3_mlp_simclrhn_probe0,1,305,NaN,oven,chair,90,0305_rot_dnn_90_chair_20_n04099969_1962.png,n04099969_1962.png,0.0,-0.6142373,-0.033879012,-0.41037527
alexnet_w3_mlp_simclrhn_probe0,1,306,NaN,knife,knife,0,0306_rot_dnn_0_knife_20_n03041632_13846.png,n03041632_13846.png,1.0,-2.683441,-2.8272753,0.101706244
alexnet_w3_mlp_simclrhn_probe0,1,307,NaN,bicycle,boat,0,0307_rot_dnn_0_boat_20_n02951358_30117.png,n02951358_30117.png,0.0,-2.274515,0.05757594,-1.6490372
alexnet_w3_mlp_simclrhn_probe0,1,308,NaN,elephant,elephant,270,0308_rot_dnn_270_elephant_20_n02504458_9922.png,n02504458_9922.png,1.0,-3.2954535,-3.484296,0.13353184
alexnet_w3_mlp_simclrhn_probe0,1,309,NaN,airplane,boat,180,0309_rot_dnn_180_boat_20_n03344393_5609.png,n03344393_5609.png,0.0,-3.4526284,-0.3989374,-2.1592855
alexnet_w3_mlp_simclrhn_probe0,1,310,NaN,chair,chair,0,0310_rot_dnn_0_chair_20_n02791124_3180.png,n02791124_3180.png,1.0,-0.55145097,-1.8475735,0.91649705
alexnet_w3_mlp_simclrhn_probe0,1,311,NaN,elephant,boat,90,0311_rot_dnn_90_boat_20_n02951358_12532.png,n02951358_12532.png,0.0,-5.8620934,-0.34086743,-3.9040964
alexnet_w3_mlp_simclrhn_probe0,1,312,NaN,cat,cat,180,0312_rot_dnn_180_cat_20_n02123597_1901.png,n02123597_1901.png,1.0,-2.2249756,-3.937471,1.2109171
alexnet_w3_mlp_simclrhn_probe0,1,313,NaN,cat,elephant,270,0313_rot_dnn_270_elephant_20_n02504013_5173.png,n02504013_5173.png,0.0,-5.488045,-3.399765,-1.4766371
alexnet_w3_mlp_simclrhn_probe0,1,314,NaN,clock,car,180,0314_rot_dnn_180_car_20_n04285008_4834.png,n04285008_4834.png,0.0,-3.6326916,-1.0916762,-1.7967693
alexnet_w3_mlp_simclrhn_probe0,1,315,NaN,chair,truck,270,0315_rot_dnn_270_truck_20_n03417042_28584.png,n03417042_28584.png,0.0,-2.5769897,-1.8959581,-0.48156205
alexnet_w3_mlp_simclrhn_probe0,1,316,NaN,cat,dog,180,0316_rot_dnn_180_dog_20_n02093428_11151.png,n02093428_11151.png,0.0,-5.4212623,-3.5004442,-1.3582236
alexnet_w3_mlp_simclrhn_probe0,1,317,NaN,knife,bicycle,90,0317_rot_dnn_90_bicycle_20_n03792782_1475.png,n03792782_1475.png,0.0,-6.4224944,-3.1730819,-2.2976816
alexnet_w3_mlp_simclrhn_probe0,1,318,NaN,oven,knife,0,0318_rot_dnn_0_knife_20_n03041632_8666.png,n03041632_8666.png,0.0,-4.857732,-3.322859,-1.0853189
alexnet_w3_mlp_simclrhn_probe0,1,319,NaN,clock,clock,0,0319_rot_dnn_0_clock_20_n04548280_253.png,n04548280_253.png,1.0,0.93840927,-0.72200835,1.1740925
alexnet_w3_mlp_simclrhn_probe0,1,320,NaN,airplane,airplane,180,0320_rot_dnn_180_airplane_20_n02690373_9441.png,n02690373_9441.png,1.0,4.319216,-0.11746037,3.1372037
alexnet_w3_mlp_simclrhn_probe0,1,321,NaN,knife,airplane,270,0321_rot_dnn_270_airplane_20_n02690373_1946.png,n02690373_1946.png,0.0,-7.555725,-2.7135139,-3.4239604
alexnet_w3_mlp_simclrhn_probe0,1,322,NaN,bottle,car,90,0322_rot_dnn_90_car_20_n03100240_5044.png,n03100240_5044.png,0.0,-4.0182176,-2.541979,-1.0438583
alexnet_w3_mlp_simclrhn_probe0,1,323,NaN,cat,dog,270,0323_rot_dnn_270_dog_20_n02111500_6559.png,n02111500_6559.png,0.0,-1.7425464,-0.72409123,-0.7201566
alexnet_w3_mlp_simclrhn_probe0,1,324,NaN,bear,dog,270,0324_rot_dnn_270_dog_20_n02096051_1852.png,n02096051_1852.png,0.0,-4.084498,-2.7292686,-0.9582919
alexnet_w3_mlp_simclrhn_probe0,1,325,NaN,elephant,bear,270,0325_rot_dnn_270_bear_20_n02133161_5020.png,n02133161_5020.png,0.0,-1.8255877,-1.1496615,-0.477952
alexnet_w3_mlp_simclrhn_probe0,1,326,NaN,oven,chair,90,0326_rot_dnn_90_chair_20_n02791124_2034.png,n02791124_2034.png,0.0,-3.5028346,-2.3508842,-0.81455195
alexnet_w3_mlp_simclrhn_probe0,1,327,NaN,clock,clock,180,0327_rot_dnn_180_clock_20_n03196217_6526.png,n03196217_6526.png,1.0,0.69878453,-1.2606943,1.3855608
alexnet_w3_mlp_simclrhn_probe0,1,328,NaN,oven,oven,180,0328_rot_dnn_180_oven_20_n04111531_9779.png,n04111531_9779.png,1.0,-1.1826818,-1.4166205,0.16541964
alexnet_w3_mlp_simclrhn_probe0,1,329,NaN,boat,boat,0,0329_rot_dnn_0_boat_20_n03662601_28640.png,n03662601_28640.png,1.0,3.8670578,-0.94578606,3.4031944
alexnet_w3_mlp_simclrhn_probe0,1,330,NaN,knife,knife,90,0330_rot_dnn_90_knife_20_n03041632_31301.png,n03041632_31301.png,1.0,0.61838084,-2.1184602,1.9352388
alexnet_w3_mlp_simclrhn_probe0,1,331,NaN,keyboard,keyboard,90,0331_rot_dnn_90_keyboard_20_n03085013_9209.png,n03085013_9209.png,1.0,2.1779077,0.51018214,1.17926
alexnet_w3_mlp_simclrhn_probe0,1,332,NaN,oven,elephant,90,0332_rot_dnn_90_elephant_20_n02504458_113.png,n02504458_113.png,0.0,-5.3745623,-3.679887,-1.1983163
alexnet_w3_mlp_simclrhn_probe0,1,333,NaN,bicycle,bicycle,180,0333_rot_dnn_180_bicycle_20_n03792782_6058.png,n03792782_6058.png,1.0,-1.3002565,-3.8114018,1.775648
alexnet_w3_mlp_simclrhn_probe0,1,334,NaN,keyboard,keyboard,0,0334_rot_dnn_0_keyboard_20_n04505470_4651.png,n04505470_4651.png,1.0,11.456818,1.4272344,7.091986
alexnet_w3_mlp_simclrhn_probe0,1,335,NaN,keyboard,keyboard,180,0335_rot_dnn_180_keyboard_20_n03085013_7009.png,n03085013_7009.png,1.0,-1.599024,-3.0795496,1.0468897
alexnet_w3_mlp_simclrhn_probe0,1,336,NaN,bottle,truck,270,0336_rot_dnn_270_truck_20_n04467665_44390.png,n04467665_44390.png,0.0,-5.351902,-2.1886923,-2.236727
alexnet_w3_mlp_simclrhn_probe0,1,337,NaN,elephant,boat,90,0337_rot_dnn_90_boat_20_n04273569_17340.png,n04273569_17340.png,0.0,-5.935416,-1.4753741,-3.153726
alexnet_w3_mlp_simclrhn_probe0,1,338,NaN,elephant,elephant,0,0338_rot_dnn_0_elephant_20_n02504013_1333.png,n02504013_1333.png,1.0,0.9236419,-2.1477122,2.1717753
alexnet_w3_mlp_simclrhn_probe0,1,339,NaN,knife,knife,270,0339_rot_dnn_270_knife_20_n03041632_50034.png,n03041632_50034.png,1.0,-0.23301627,-1.5737668,0.94805384
alexnet_w3_mlp_simclrhn_probe0,1,340,NaN,bottle,clock,90,0340_rot_dnn_90_clock_20_n02708093_2740.png,n02708093_2740.png,0.0,-1.0225338,-0.99978155,-0.016088253
alexnet_w3_mlp_simclrhn_probe0,1,341,NaN,bear,bear,0,0341_rot_dnn_0_bear_20_n02132136_13975.png,n02132136_13975.png,1.0,2.8370924,-0.9415575,2.6719089
alexnet_w3_mlp_simclrhn_probe0,1,342,NaN,elephant,elephant,90,0342_rot_dnn_90_elephant_20_n02504013_256.png,n02504013_256.png,1.0,-2.2196279,-2.2686257,0.034646735
alexnet_w3_mlp_simclrhn_probe0,1,343,NaN,bicycle,boat,90,0343_rot_dnn_90_boat_20_n03344393_6588.png,n03344393_6588.png,0.0,-8.243132,-2.7632961,-3.8748288
alexnet_w3_mlp_simclrhn_probe0,1,344,NaN,knife,knife,270,0344_rot_dnn_270_knife_20_n03041632_7173.png,n03041632_7173.png,1.0,-0.028754093,-1.8915272,1.3171794
alexnet_w3_mlp_simclrhn_probe0,1,345,NaN,airplane,elephant,180,0345_rot_dnn_180_elephant_20_n02504458_1041.png,n02504458_1041.png,0.0,-1.8148866,-1.5127447,-0.21364659
alexnet_w3_mlp_simclrhn_probe0,1,346,NaN,keyboard,chair,180,0346_rot_dnn_180_chair_20_n04099969_8021.png,n04099969_8021.png,0.0,-2.2430592,-2.0933893,-0.10583259
alexnet_w3_mlp_simclrhn_probe0,1,347,NaN,truck,truck,0,0347_rot_dnn_0_truck_20_n03796401_1791.png,n03796401_1791.png,1.0,3.1641448,-1.5347638,3.3226304
alexnet_w3_mlp_simclrhn_probe0,1,348,NaN,keyboard,keyboard,90,0348_rot_dnn_90_keyboard_20_n04505470_5007.png,n04505470_5007.png,1.0,-1.3061194,-3.1106753,1.2760137
alexnet_w3_mlp_simclrhn_probe0,1,349,NaN,oven,truck,180,0349_rot_dnn_180_truck_20_n03417042_29384.png,n03417042_29384.png,0.0,-2.9658792,-2.3125238,-0.46199203
alexnet_w3_mlp_simclrhn_probe0,1,350,NaN,elephant,bird,90,0350_rot_dnn_90_bird_20_n01534433_1271.png,n01534433_1271.png,0.0,-3.261902,-2.0116758,-0.88404346
alexnet_w3_mlp_simclrhn_probe0,1,351,NaN,cat,dog,270,0351_rot_dnn_270_dog_20_n02113624_393.png,n02113624_393.png,0.0,-1.6105727,0.24608827,-1.3128576
alexnet_w3_mlp_simclrhn_probe0,1,352,NaN,cat,cat,90,0352_rot_dnn_90_cat_20_n02123159_5461.png,n02123159_5461.png,1.0,-4.6760564,-4.95183,0.19500133
alexnet_w3_mlp_simclrhn_probe0,1,353,NaN,knife,knife,270,0353_rot_dnn_270_knife_20_n03041632_9759.png,n03041632_9759.png,1.0,-3.2518191,-4.1869636,0.66124696
alexnet_w3_mlp_simclrhn_probe0,1,354,NaN,bicycle,chair,90,0354_rot_dnn_90_chair_20_n04429376_1754.png,n04429376_1754.png,0.0,-5.1612396,-2.6486855,-1.7766441
alexnet_w3_mlp_simclrhn_probe0,1,355,NaN,knife,oven,90,0355_rot_dnn_90_oven_20_n04111531_1818.png,n04111531_1818.png,0.0,-5.542996,-2.2771971,-2.3092685
alexnet_w3_mlp_simclrhn_probe0,1,356,NaN,clock,clock,0,0356_rot_dnn_0_clock_20_n04548280_5798.png,n04548280_5798.png,1.0,1.9691769,-2.1461866,2.9100015
alexnet_w3_mlp_simclrhn_probe0,1,357,NaN,truck,oven,90,0357_rot_dnn_90_oven_20_n04111531_3099.png,n04111531_3099.png,0.0,-4.0557036,-3.942705,-0.079902165
alexnet_w3_mlp_simclrhn_probe0,1,358,NaN,clock,bottle,270,0358_rot_dnn_270_bottle_20_n04557648_581.png,n04557648_581.png,0.0,-1.751083,-0.7325342,-0.7202227
alexnet_w3_mlp_simclrhn_probe0,1,359,NaN,bicycle,bird,0,0359_rot_dnn_0_bird_20_n01531178_3183.png,n01531178_3183.png,0.0,-2.764879,-2.151873,-0.43346062
alexnet_w3_mlp_simclrhn_probe0,1,360,NaN,clock,airplane,90,0360_rot_dnn_90_airplane_20_n02690373_8872.png,n02690373_8872.png,0.0,-3.0894866,-1.8541013,-0.87354934
alexnet_w3_mlp_simclrhn_probe0,1,361,NaN,dog,cat,0,0361_rot_dnn_0_cat_20_n02123394_5301.png,n02123394_5301.png,0.0,-3.4813397,-3.0213761,-0.32524335
alexnet_w3_mlp_simclrhn_probe0,1,362,NaN,bicycle,bicycle,270,0362_rot_dnn_270_bicycle_20_n03792782_12844.png,n03792782_12844.png,1.0,-3.2141454,-6.524672,2.340896
alexnet_w3_mlp_simclrhn_probe0,1,363,NaN,bear,bear,90,0363_rot_dnn_90_bear_20_n02132136_2691.png,n02132136_2691.png,1.0,-1.1192317,-2.5519412,1.0130786
alexnet_w3_mlp_simclrhn_probe0,1,364,NaN,car,car,0,0364_rot_dnn_0_car_20_n02814533_27327.png,n02814533_27327.png,1.0,3.8657844,2.2394316,1.1500051
alexnet_w3_mlp_simclrhn_probe0,1,365,NaN,bicycle,bird,0,0365_rot_dnn_0_bird_20_n02027492_7653.png,n02027492_7653.png,0.0,-2.8515737,-0.45194513,-1.6967937
alexnet_w3_mlp_simclrhn_probe0,1,366,NaN,bear,bear,0,0366_rot_dnn_0_bear_20_n02133161_62.png,n02133161_62.png,1.0,2.7631073,0.4716351,1.6203156
alexnet_w3_mlp_simclrhn_probe0,1,367,NaN,bottle,bottle,0,0367_rot_dnn_0_bottle_20_n04560804_9710.png,n04560804_9710.png,1.0,-1.0571797,-5.7968955,3.351485
alexnet_w3_mlp_simclrhn_probe0,1,368,NaN,bottle,clock,180,0368_rot_dnn_180_clock_20_n04548280_15154.png,n04548280_15154.png,0.0,-2.2061002,-0.9005658,-0.9231522
alexnet_w3_mlp_simclrhn_probe0,1,369,NaN,oven,oven,180,0369_rot_dnn_180_oven_20_n04111531_114.png,n04111531_114.png,1.0,-3.4044242,-4.114492,0.50209373
alexnet_w3_mlp_simclrhn_probe0,1,370,NaN,bird,cat,180,0370_rot_dnn_180_cat_20_n02125311_24813.png,n02125311_24813.png,0.0,-3.879907,-3.06646,-0.5751939
alexnet_w3_mlp_simclrhn_probe0,1,371,NaN,chair,airplane,90,0371_rot_dnn_90_airplane_20_n02690373_7647.png,n02690373_7647.png,0.0,-7.7407093,-2.2428303,-3.8875875
alexnet_w3_mlp_simclrhn_probe0,1,372,NaN,bottle,bottle,0,0372_rot_dnn_0_bottle_20_n03983396_9823.png,n03983396_9823.png,1.0,-1.7367508,-3.5072005,1.251897
alexnet_w3_mlp_simclrhn_probe0,1,373,NaN,elephant,bear,0,0373_rot_dnn_0_bear_20_n02134418_2398.png,n02134418_2398.png,0.0,-2.7938228,-2.530692,-0.18606149
alexnet_w3_mlp_simclrhn_probe0,1,374,NaN,clock,keyboard,90,0374_rot_dnn_90_keyboard_20_n04505470_4584.png,n04505470_4584.png,0.0,0.46423268,1.0584172,-0.42015192
alexnet_w3_mlp_simclrhn_probe0,1,375,NaN,keyboard,keyboard,0,0375_rot_dnn_0_keyboard_20_n04505470_10055.png,n04505470_10055.png,1.0,0.059001893,-1.5922481,1.16761
alexnet_w3_mlp_simclrhn_probe0,1,376,NaN,bear,boat,270,0376_rot_dnn_270_boat_20_n04273569_10980.png,n04273569_10980.png,0.0,-3.694263,-1.5812101,-1.494154
alexnet_w3_mlp_simclrhn_probe0,1,377,NaN,car,car,180,0377_rot_dnn_180_car_20_n03100240_16210.png,n03100240_16210.png,1.0,0.80198,-0.2467885,0.74159133
alexnet_w3_mlp_simclrhn_probe0,1,378,NaN,keyboard,keyboard,0,0378_rot_dnn_0_keyboard_20_n04505470_1067.png,n04505470_1067.png,1.0,13.998264,1.0155791,9.180145
alexnet_w3_mlp_simclrhn_probe0,1,379,NaN,elephant,elephant,0,0379_rot_dnn_0_elephant_20_n02504458_7867.png,n02504458_7867.png,1.0,3.2079785,-3.5262513,4.76182
alexnet_w3_mlp_simclrhn_probe0,1,380,NaN,keyboard,keyboard,180,0380_rot_dnn_180_keyboard_20_n04505470_807.png,n04505470_807.png,1.0,5.6579723,2.5248384,2.2154603
alexnet_w3_mlp_simclrhn_probe0,1,381,NaN,bicycle,bicycle,270,0381_rot_dnn_270_bicycle_20_n02835271_24104.png,n02835271_24104.png,1.0,-0.116159156,-3.5381317,2.4197
alexnet_w3_mlp_simclrhn_probe0,1,382,NaN,knife,bottle,0,0382_rot_dnn_0_bottle_20_n03937543_6698.png,n03937543_6698.png,0.0,-2.0089827,-1.7655616,-0.1721247
alexnet_w3_mlp_simclrhn_probe0,1,383,NaN,bicycle,oven,0,0383_rot_dnn_0_oven_20_n04111531_10403.png,n04111531_10403.png,0.0,-5.8689547,-0.03432846,-4.125704
alexnet_w3_mlp_simclrhn_probe0,1,384,NaN,truck,truck,0,0384_rot_dnn_0_truck_20_n03796401_8463.png,n03796401_8463.png,1.0,5.723849,-0.64699596,4.5048676
alexnet_w3_mlp_simclrhn_probe0,1,385,NaN,truck,truck,0,0385_rot_dnn_0_truck_20_n03796401_8176.png,n03796401_8176.png,1.0,2.7663553,1.8601463,0.6407865
alexnet_w3_mlp_simclrhn_probe0,1,386,NaN,keyboard,bottle,90,0386_rot_dnn_90_bottle_20_n03937543_984.png,n03937543_984.png,0.0,-3.1398716,-2.2140737,-0.654638
alexnet_w3_mlp_simclrhn_probe0,1,387,NaN,bicycle,bicycle,90,0387_rot_dnn_90_bicycle_20_n02835271_11697.png,n02835271_11697.png,1.0,-5.5492616,-6.0620613,0.36260417
alexnet_w3_mlp_simclrhn_probe0,1,388,NaN,clock,keyboard,270,0388_rot_dnn_270_keyboard_20_n03085013_22417.png,n03085013_22417.png,0.0,0.019370198,1.4902462,-1.0400664
alexnet_w3_mlp_simclrhn_probe0,1,389,NaN,car,car,270,0389_rot_dnn_270_car_20_n03100240_7602.png,n03100240_7602.png,1.0,-3.9045477,-3.9564679,0.03671311
alexnet_w3_mlp_simclrhn_probe0,1,390,NaN,bird,bird,90,0390_rot_dnn_90_bird_20_n01534433_14389.png,n01534433_14389.png,1.0,-2.3970432,-4.889842,1.7626749
alexnet_w3_mlp_simclrhn_probe0,1,391,NaN,cat,bear,0,0391_rot_dnn_0_bear_20_n02134084_2598.png,n02134084_2598.png,0.0,0.18085384,1.2172542,-0.7328457
alexnet_w3_mlp_simclrhn_probe0,1,392,NaN,bird,bird,180,0392_rot_dnn_180_bird_20_n01560419_19599.png,n01560419_19599.png,1.0,-4.2134833,-6.623721,1.7042955
alexnet_w3_mlp_simclrhn_probe0,1,393,NaN,bicycle,bicycle,90,0393_rot_dnn_90_bicycle_20_n02835271_8747.png,n02835271_8747.png,1.0,-3.8761048,-6.3103275,1.7212554
alexnet_w3_mlp_simclrhn_probe0,1,394,NaN,oven,knife,180,0394_rot_dnn_180_knife_20_n03041632_30821.png,n03041632_30821.png,0.0,-3.0687265,-1.2048329,-1.3179718
alexnet_w3_mlp_simclrhn_probe0,1,395,NaN,bicycle,chair,270,0395_rot_dnn_270_chair_20_n03376595_209.png,n03376595_209.png,0.0,-5.220649,-4.9314594,-0.20448774
alexnet_w3_mlp_simclrhn_probe0,1,396,NaN,bicycle,boat,180,0396_rot_dnn_180_boat_20_n04273569_29113.png,n04273569_29113.png,0.0,-3.7465858,-2.9794118,-0.542474
alexnet_w3_mlp_simclrhn_probe0,1,397,NaN,bird,bird,270,0397_rot_dnn_270_bird_20_n02006656_6435.png,n02006656_6435.png,1.0,-4.5630784,-4.930697,0.25994557
alexnet_w3_mlp_simclrhn_probe0,1,398,NaN,chair,airplane,90,0398_rot_dnn_90_airplane_20_n02690373_3492.png,n02690373_3492.png,0.0,-12.944969,-1.2847482,-8.245022
alexnet_w3_mlp_simclrhn_probe0,1,399,NaN,oven,oven,270,0399_rot_dnn_270_oven_20_n04111531_9380.png,n04111531_9380.png,1.0,-1.5610422,-5.72769,2.946265
alexnet_w3_mlp_simclrhn_probe0,1,400,NaN,chair,keyboard,270,0400_rot_dnn_270_keyboard_20_n04505470_510.png,n04505470_510.png,0.0,-2.5307178,-1.5097828,-0.7219101
alexnet_w3_mlp_simclrhn_probe0,1,401,NaN,bird,bird,180,0401_rot_dnn_180_bird_20_n02027492_20576.png,n02027492_20576.png,1.0,-3.1265035,-4.202613,0.7609243
alexnet_w3_mlp_simclrhn_probe0,1,402,NaN,knife,bird,90,0402_rot_dnn_90_bird_20_n01855032_1920.png,n01855032_1920.png,0.0,-3.33367,-2.5422313,-0.5596316
alexnet_w3_mlp_simclrhn_probe0,1,403,NaN,airplane,boat,180,0403_rot_dnn_180_boat_20_n04273569_15761.png,n04273569_15761.png,0.0,-2.1639647,1.8622829,-2.846987
alexnet_w3_mlp_simclrhn_probe0,1,404,NaN,oven,oven,180,0404_rot_dnn_180_oven_20_n04111531_10667.png,n04111531_10667.png,1.0,0.45867446,-3.905716,3.08609
alexnet_w3_mlp_simclrhn_probe0,1,405,NaN,knife,knife,270,0405_rot_dnn_270_knife_20_n03041632_36215.png,n03041632_36215.png,1.0,0.7313088,-3.4621835,2.965247
alexnet_w3_mlp_simclrhn_probe0,1,406,NaN,bicycle,bicycle,180,0406_rot_dnn_180_bicycle_20_n02835271_2625.png,n02835271_2625.png,1.0,-2.2844248,-5.6038046,2.347156
alexnet_w3_mlp_simclrhn_probe0,1,407,NaN,bird,bird,270,0407_rot_dnn_270_bird_20_n02028035_20411.png,n02028035_20411.png,1.0,-2.360445,-3.5935533,0.87193924
alexnet_w3_mlp_simclrhn_probe0,1,408,NaN,knife,knife,0,0408_rot_dnn_0_knife_20_n03041632_25656.png,n03041632_25656.png,1.0,-4.774597,-5.136244,0.2557228
alexnet_w3_mlp_simclrhn_probe0,1,409,NaN,knife,oven,270,0409_rot_dnn_270_oven_20_n04111531_4332.png,n04111531_4332.png,0.0,-3.0813649,-2.9073062,-0.12307807
alexnet_w3_mlp_simclrhn_probe0,1,410,NaN,keyboard,keyboard,180,0410_rot_dnn_180_keyboard_20_n04505470_3553.png,n04505470_3553.png,1.0,1.3708364,-0.5492755,1.3577242
alexnet_w3_mlp_simclrhn_probe0,1,411,NaN,bicycle,bicycle,180,0411_rot_dnn_180_bicycle_20_n02835271_18706.png,n02835271_18706.png,1.0,-2.3999248,-4.452462,1.4513632
alexnet_w3_mlp_simclrhn_probe0,1,412,NaN,chair,truck,270,0412_rot_dnn_270_truck_20_n03417042_10744.png,n03417042_10744.png,0.0,-4.3175554,-1.3928118,-2.0681062
alexnet_w3_mlp_simclrhn_probe0,1,413,NaN,clock,clock,0,0413_rot_dnn_0_clock_20_n03196217_11724.png,n03196217_11724.png,1.0,2.9702752,-0.44719857,2.416519
alexnet_w3_mlp_simclrhn_probe0,1,414,NaN,bicycle,bicycle,270,0414_rot_dnn_270_bicycle_20_n02835271_14123.png,n02835271_14123.png,1.0,-2.6212232,-3.1799693,0.39509317
alexnet_w3_mlp_simclrhn_probe0,1,415,NaN,oven,bicycle,270,0415_rot_dnn_270_bicycle_20_n02835271_7900.png,n02835271_7900.png,0.0,-7.117853,-3.6884935,-2.4249234
alexnet_w3_mlp_simclrhn_probe0,1,416,NaN,truck,truck,270,0416_rot_dnn_270_truck_20_n03417042_2153.png,n03417042_2153.png,1.0,-2.6680114,-2.7493105,0.057487123
alexnet_w3_mlp_simclrhn_probe0,1,417,NaN,bear,bicycle,270,0417_rot_dnn_270_bicycle_20_n03792782_10129.png,n03792782_10129.png,0.0,-6.522866,-1.3464183,-3.6603012
alexnet_w3_mlp_simclrhn_probe0,1,418,NaN,bird,bird,180,0418_rot_dnn_180_bird_20_n01514859_18430.png,n01514859_18430.png,1.0,-1.2248662,-3.316192,1.4787906
alexnet_w3_mlp_simclrhn_probe0,1,419,NaN,chair,chair,0,0419_rot_dnn_0_chair_20_n04099969_5010.png,n04099969_5010.png,1.0,1.5387236,-0.4372501,1.3972244
alexnet_w3_mlp_simclrhn_probe0,1,420,NaN,chair,truck,0,0420_rot_dnn_0_truck_20_n03796401_588.png,n03796401_588.png,0.0,-0.6625555,-0.18512405,-0.33759505
alexnet_w3_mlp_simclrhn_probe0,1,421,NaN,car,car,0,0421_rot_dnn_0_car_20_n02814533_486.png,n02814533_486.png,1.0,7.860019,5.0053396,2.0185633
alexnet_w3_mlp_simclrhn_probe0,1,422,NaN,oven,elephant,90,0422_rot_dnn_90_elephant_20_n02504013_3540.png,n02504013_3540.png,0.0,-2.9607897,-2.7588987,-0.14275846
alexnet_w3_mlp_simclrhn_probe0,1,423,NaN,oven,car,180,0423_rot_dnn_180_car_20_n02814533_55715.png,n02814533_55715.png,0.0,-6.008295,-4.1543136,-1.3109629
alexnet_w3_mlp_simclrhn_probe0,1,424,NaN,bottle,bottle,180,0424_rot_dnn_180_bottle_20_n03983396_10896.png,n03983396_10896.png,1.0,-3.9685462,-4.25567,0.20302728
alexnet_w3_mlp_simclrhn_probe0,1,425,NaN,bottle,bottle,90,0425_rot_dnn_90_bottle_20_n04557648_15053.png,n04557648_15053.png,1.0,0.4117873,-1.667144,1.4700265
alexnet_w3_mlp_simclrhn_probe0,1,426,NaN,car,car,0,0426_rot_dnn_0_car_20_n04285008_8281.png,n04285008_8281.png,1.0,9.160551,2.7655962,4.521916
alexnet_w3_mlp_simclrhn_probe0,1,427,NaN,bottle,car,270,0427_rot_dnn_270_car_20_n02814533_38596.png,n02814533_38596.png,0.0,-5.1831546,-1.1427783,-2.8569775
alexnet_w3_mlp_simclrhn_probe0,1,428,NaN,oven,elephant,270,0428_rot_dnn_270_elephant_20_n02504013_15219.png,n02504013_15219.png,0.0,-3.2479665,-2.5356324,-0.5036963
alexnet_w3_mlp_simclrhn_probe0,1,429,NaN,elephant,elephant,180,0429_rot_dnn_180_elephant_20_n02504013_828.png,n02504013_828.png,1.0,0.82956207,-1.7466439,1.8216528
alexnet_w3_mlp_simclrhn_probe0,1,430,NaN,oven,oven,180,0430_rot_dnn_180_oven_20_n04111531_1439.png,n04111531_1439.png,1.0,3.0067763,-5.4067154,5.9492373
alexnet_w3_mlp_simclrhn_probe0,1,431,NaN,keyboard,bottle,90,0431_rot_dnn_90_bottle_20_n03983396_3315.png,n03983396_3315.png,0.0,-4.453242,-3.6222057,-0.5876313
alexnet_w3_mlp_simclrhn_probe0,1,432,NaN,airplane,airplane,90,0432_rot_dnn_90_airplane_20_n02690373_4024.png,n02690373_4024.png,1.0,-0.8613324,-1.6285471,0.5425027
alexnet_w3_mlp_simclrhn_probe0,1,433,NaN,oven,elephant,270,0433_rot_dnn_270_elephant_20_n02504013_10301.png,n02504013_10301.png,0.0,-4.1881685,-3.1899083,-0.7058766
alexnet_w3_mlp_simclrhn_probe0,1,434,NaN,oven,oven,180,0434_rot_dnn_180_oven_20_n04111531_7067.png,n04111531_7067.png,1.0,4.651704,-1.6702721,4.470312
alexnet_w3_mlp_simclrhn_probe0,1,435,NaN,knife,knife,90,0435_rot_dnn_90_knife_20_n03041632_36834.png,n03041632_36834.png,1.0,0.6964984,-3.852341,3.2165153
alexnet_w3_mlp_simclrhn_probe0,1,436,NaN,chair,car,90,0436_rot_dnn_90_car_20_n02814533_18148.png,n02814533_18148.png,0.0,-2.8413193,-2.3755186,-0.3293709
alexnet_w3_mlp_simclrhn_probe0,1,437,NaN,elephant,cat,90,0437_rot_dnn_90_cat_20_n02125311_41284.png,n02125311_41284.png,0.0,-2.8944986,-1.7883186,-0.78218734
alexnet_w3_mlp_simclrhn_probe0,1,438,NaN,bicycle,bicycle,0,0438_rot_dnn_0_bicycle_20_n02835271_18188.png,n02835271_18188.png,1.0,5.2273912,-2.5948484,5.531159
alexnet_w3_mlp_simclrhn_probe0,1,439,NaN,bottle,bottle,0,0439_rot_dnn_0_bottle_20_n04591713_2903.png,n04591713_2903.png,1.0,0.042881865,-3.0194998,2.165431
alexnet_w3_mlp_simclrhn_probe0,1,440,NaN,knife,knife,0,0440_rot_dnn_0_knife_20_n03041632_54191.png,n03041632_54191.png,1.0,-0.47979343,-0.6241891,0.102103144
alexnet_w3_mlp_simclrhn_probe0,1,441,NaN,clock,truck,180,0441_rot_dnn_180_truck_20_n03417042_8867.png,n03417042_8867.png,0.0,-2.0152102,-1.397909,-0.4364978
alexnet_w3_mlp_simclrhn_probe0,1,442,NaN,knife,oven,270,0442_rot_dnn_270_oven_20_n04111531_8421.png,n04111531_8421.png,0.0,-4.942212,-3.2791402,-1.1759694
alexnet_w3_mlp_simclrhn_probe0,1,443,NaN,bear,elephant,270,0443_rot_dnn_270_elephant_20_n02504013_4062.png,n02504013_4062.png,0.0,-6.535338,-3.729778,-1.9838305
alexnet_w3_mlp_simclrhn_probe0,1,444,NaN,keyboard,keyboard,270,0444_rot_dnn_270_keyboard_20_n04505470_1649.png,n04505470_1649.png,1.0,2.42525,-1.641524,2.8756435
alexnet_w3_mlp_simclrhn_probe0,1,445,NaN,airplane,boat,180,0445_rot_dnn_180_boat_20_n03344393_7967.png,n03344393_7967.png,0.0,-2.8271384,-0.8348897,-1.4087327
alexnet_w3_mlp_simclrhn_probe0,1,446,NaN,bicycle,bicycle,0,0446_rot_dnn_0_bicycle_20_n02835271_10265.png,n02835271_10265.png,1.0,5.0805798,-3.0536199,5.7517476
alexnet_w3_mlp_simclrhn_probe0,1,447,NaN,oven,bicycle,180,0447_rot_dnn_180_bicycle_20_n02835271_6742.png,n02835271_6742.png,0.0,-4.4452677,-3.7106159,-0.5194773
alexnet_w3_mlp_simclrhn_probe0,1,448,NaN,cat,cat,180,0448_rot_dnn_180_cat_20_n02123045_3168.png,n02123045_3168.png,1.0,-2.1711893,-3.3627317,0.8425477
alexnet_w3_mlp_simclrhn_probe0,1,449,NaN,chair,car,180,0449_rot_dnn_180_car_20_n03100240_8489.png,n03100240_8489.png,0.0,-2.2461865,-1.8896106,-0.2521372
alexnet_w3_mlp_simclrhn_probe0,1,450,NaN,oven,oven,270,0450_rot_dnn_270_oven_20_n04111531_1826.png,n04111531_1826.png,1.0,-1.4018134,-3.1526217,1.2380085
alexnet_w3_mlp_simclrhn_probe0,1,451,NaN,dog,dog,180,0451_rot_dnn_180_dog_20_n02104365_1592.png,n02104365_1592.png,1.0,-1.6850597,-2.0245905,0.24008456
alexnet_w3_mlp_simclrhn_probe0,1,452,NaN,knife,boat,90,0452_rot_dnn_90_boat_20_n02951358_4343.png,n02951358_4343.png,0.0,-9.936913,-4.45772,-3.8743744
alexnet_w3_mlp_simclrhn_probe0,1,453,NaN,bottle,bottle,0,0453_rot_dnn_0_bottle_20_n02823428_4282.png,n02823428_4282.png,1.0,8.3155365,-1.5044916,6.9438086
alexnet_w3_mlp_simclrhn_probe0,1,454,NaN,bird,bird,0,0454_rot_dnn_0_bird_20_n01817953_2043.png,n01817953_2043.png,1.0,-2.8342543,-4.1917267,0.95987797
alexnet_w3_mlp_simclrhn_probe0,1,455,NaN,dog,dog,0,0455_rot_dnn_0_dog_20_n02110958_14369.png,n02110958_14369.png,1.0,-5.882449,-5.902736,0.014345102
alexnet_w3_mlp_simclrhn_probe0,1,456,NaN,knife,dog,270,0456_rot_dnn_270_dog_20_n02108000_1044.png,n02108000_1044.png,0.0,-3.7043574,-3.4594522,-0.17317416
alexnet_w3_mlp_simclrhn_probe0,1,457,NaN,knife,dog,270,0457_rot_dnn_270_dog_20_n02087394_1428.png,n02087394_1428.png,0.0,-5.073659,-3.015889,-1.4550631
alexnet_w3_mlp_simclrhn_probe0,1,458,NaN,bottle,airplane,90,0458_rot_dnn_90_airplane_20_n02690373_2856.png,n02690373_2856.png,0.0,-14.047792,-1.993316,-8.523803
alexnet_w3_mlp_simclrhn_probe0,1,459,NaN,chair,chair,0,0459_rot_dnn_0_chair_20_n03376595_19165.png,n03376595_19165.png,1.0,-0.112963796,-1.3205026,0.85385895
alexnet_w3_mlp_simclrhn_probe0,1,460,NaN,chair,chair,270,0460_rot_dnn_270_chair_20_n04099969_42125.png,n04099969_42125.png,1.0,0.10590342,-0.5636978,0.47347957
alexnet_w3_mlp_simclrhn_probe0,1,461,NaN,bottle,bottle,270,0461_rot_dnn_270_bottle_20_n02823428_12656.png,n02823428_12656.png,1.0,-0.3924407,-0.77194065,0.268347
alexnet_w3_mlp_simclrhn_probe0,1,462,NaN,bicycle,bicycle,180,0462_rot_dnn_180_bicycle_20_n02835271_5861.png,n02835271_5861.png,1.0,-0.35740724,-4.5960655,2.9971843
alexnet_w3_mlp_simclrhn_probe0,1,463,NaN,airplane,airplane,90,0463_rot_dnn_90_airplane_20_n02690373_19345.png,n02690373_19345.png,1.0,0.3739217,-1.2083818,1.1188576
alexnet_w3_mlp_simclrhn_probe0,1,464,NaN,clock,clock,90,0464_rot_dnn_90_clock_20_n02708093_8069.png,n02708093_8069.png,1.0,4.164352,-0.07765133,2.9995494
alexnet_w3_mlp_simclrhn_probe0,1,465,NaN,clock,chair,270,0465_rot_dnn_270_chair_20_n04099969_16.png,n04099969_16.png,0.0,-2.8482544,-2.0080612,-0.5941064
alexnet_w3_mlp_simclrhn_probe0,1,466,NaN,oven,dog,270,0466_rot_dnn_270_dog_20_n02104365_1756.png,n02104365_1756.png,0.0,-4.061529,-3.7675242,-0.20789288
alexnet_w3_mlp_simclrhn_probe0,1,467,NaN,bird,bird,270,0467_rot_dnn_270_bird_20_n01819313_17231.png,n01819313_17231.png,1.0,-3.8815942,-5.7022853,1.287423
alexnet_w3_mlp_simclrhn_probe0,1,468,NaN,bottle,car,90,0468_rot_dnn_90_car_20_n02814533_34149.png,n02814533_34149.png,0.0,-5.4226537,-0.58283997,-3.422265
alexnet_w3_mlp_simclrhn_probe0,1,469,NaN,knife,knife,0,0469_rot_dnn_0_knife_20_n03041632_26053.png,n03041632_26053.png,1.0,-0.6431366,-3.0320544,1.6892201
alexnet_w3_mlp_simclrhn_probe0,1,470,NaN,oven,oven,0,0470_rot_dnn_0_oven_20_n04111531_11287.png,n04111531_11287.png,1.0,2.4762363,0.12739117,1.6608844
alexnet_w3_mlp_simclrhn_probe0,1,471,NaN,knife,bottle,0,0471_rot_dnn_0_bottle_20_n03937543_11959.png,n03937543_11959.png,0.0,-3.2394736,-1.2094548,-1.4354401
alexnet_w3_mlp_simclrhn_probe0,1,472,NaN,knife,airplane,270,0472_rot_dnn_270_airplane_20_n02690373_1348.png,n02690373_1348.png,0.0,-5.9288774,-0.9646315,-3.510252
alexnet_w3_mlp_simclrhn_probe0,1,473,NaN,elephant,bear,0,0473_rot_dnn_0_bear_20_n02132136_5175.png,n02132136_5175.png,0.0,2.8773234,3.2622516,-0.27218536
alexnet_w3_mlp_simclrhn_probe0,1,474,NaN,knife,keyboard,270,0474_rot_dnn_270_keyboard_20_n03085013_7382.png,n03085013_7382.png,0.0,-5.9284716,-3.6993363,-1.5762367
alexnet_w3_mlp_simclrhn_probe0,1,475,NaN,oven,dog,270,0475_rot_dnn_270_dog_20_n02109961_4280.png,n02109961_4280.png,0.0,-4.7098527,-2.7857387,-1.3605541
alexnet_w3_mlp_simclrhn_probe0,1,476,NaN,oven,truck,90,0476_rot_dnn_90_truck_20_n03417042_1344.png,n03417042_1344.png,0.0,-5.1413326,-2.00201,-2.2198362
alexnet_w3_mlp_simclrhn_probe0,1,477,NaN,elephant,elephant,0,0477_rot_dnn_0_elephant_20_n02504013_9299.png,n02504013_9299.png,1.0,9.656347,0.1206885,6.742729
alexnet_w3_mlp_simclrhn_probe0,1,478,NaN,bear,bear,0,0478_rot_dnn_0_bear_20_n02134418_5527.png,n02134418_5527.png,1.0,1.5941398,-1.2402968,2.0042493
alexnet_w3_mlp_simclrhn_probe0,1,479,NaN,keyboard,keyboard,270,0479_rot_dnn_270_keyboard_20_n03085013_23109.png,n03085013_23109.png,1.0,-0.7595092,-1.8306442,0.7574069
alexnet_w3_mlp_simclrhn_probe0,1,480,NaN,bear,bear,180,0480_rot_dnn_180_bear_20_n02133161_4393.png,n02133161_4393.png,1.0,-0.6487511,-2.9308813,1.6137098
alexnet_w3_mlp_simclrhn_probe0,1,481,NaN,oven,oven,0,0481_rot_dnn_0_oven_20_n04111531_73.png,n04111531_73.png,1.0,2.0088043,-0.7987935,1.9852716
alexnet_w3_mlp_simclrhn_probe0,1,482,NaN,oven,keyboard,0,0482_rot_dnn_0_keyboard_20_n03085013_7613.png,n03085013_7613.png,0.0,-1.8738625,-1.7514352,-0.086569205
alexnet_w3_mlp_simclrhn_probe0,1,483,NaN,oven,oven,180,0483_rot_dnn_180_oven_20_n04111531_2795.png,n04111531_2795.png,1.0,1.4031941,-3.960216,3.7925036
alexnet_w3_mlp_simclrhn_probe0,1,484,NaN,oven,oven,0,0484_rot_dnn_0_oven_20_n04111531_22517.png,n04111531_22517.png,1.0,3.610021,-3.7364624,5.1947484
alexnet_w3_mlp_simclrhn_probe0,1,485,NaN,elephant,elephant,90,0485_rot_dnn_90_elephant_20_n02504458_2613.png,n02504458_2613.png,1.0,-2.2157655,-2.257961,0.029836766
alexnet_w3_mlp_simclrhn_probe0,1,486,NaN,oven,oven,180,0486_rot_dnn_180_oven_20_n04111531_9176.png,n04111531_9176.png,1.0,2.4936278,-4.599535,5.0156236
alexnet_w3_mlp_simclrhn_probe0,1,487,NaN,bottle,bottle,180,0487_rot_dnn_180_bottle_20_n04557648_5790.png,n04557648_5790.png,1.0,2.9680765,2.0240057,0.6675589
alexnet_w3_mlp_simclrhn_probe0,1,488,NaN,chair,truck,90,0488_rot_dnn_90_truck_20_n04467665_9812.png,n04467665_9812.png,0.0,-5.2892647,-2.1489422,-2.2205434
alexnet_w3_mlp_simclrhn_probe0,1,489,NaN,bottle,bottle,0,0489_rot_dnn_0_bottle_20_n04591713_7476.png,n04591713_7476.png,1.0,-1.8494356,-5.320129,2.454151
alexnet_w3_mlp_simclrhn_probe0,1,490,NaN,elephant,elephant,90,0490_rot_dnn_90_elephant_20_n02504458_1567.png,n02504458_1567.png,1.0,-1.2030419,-3.1743073,1.3938951
alexnet_w3_mlp_simclrhn_probe0,1,491,NaN,clock,clock,90,0491_rot_dnn_90_clock_20_n04548280_6865.png,n04548280_6865.png,1.0,2.858432,-1.145424,2.8311539
alexnet_w3_mlp_simclrhn_probe0,1,492,NaN,bottle,bottle,180,0492_rot_dnn_180_bottle_20_n02823428_3.png,n02823428_3.png,1.0,0.53393257,-2.5120196,2.1538136
alexnet_w3_mlp_simclrhn_probe0,1,493,NaN,elephant,boat,90,0493_rot_dnn_90_boat_20_n04273569_8951.png,n04273569_8951.png,0.0,-7.5422373,-2.0392785,-3.8911796
alexnet_w3_mlp_simclrhn_probe0,1,494,NaN,knife,knife,180,0494_rot_dnn_180_knife_20_n03041632_53874.png,n03041632_53874.png,1.0,-0.5892669,-4.9202514,3.0624685
alexnet_w3_mlp_simclrhn_probe0,1,495,NaN,clock,clock,0,0495_rot_dnn_0_clock_20_n04548280_6126.png,n04548280_6126.png,1.0,-1.5670499,-2.5854282,0.72010225
alexnet_w3_mlp_simclrhn_probe0,1,496,NaN,cat,cat,180,0496_rot_dnn_180_cat_20_n02123597_6186.png,n02123597_6186.png,1.0,-0.59870535,-3.1363194,1.7943642
alexnet_w3_mlp_simclrhn_probe0,1,497,NaN,cat,cat,270,0497_rot_dnn_270_cat_20_n02124075_14662.png,n02124075_14662.png,1.0,-4.4586425,-5.904922,1.0226741
alexnet_w3_mlp_simclrhn_probe0,1,498,NaN,clock,car,90,0498_rot_dnn_90_car_20_n04285008_8677.png,n04285008_8677.png,0.0,-7.1106467,-1.1164457,-4.23854
alexnet_w3_mlp_simclrhn_probe0,1,499,NaN,bird,bird,90,0499_rot_dnn_90_bird_20_n01820546_2568.png,n01820546_2568.png,1.0,-2.8555315,-4.3019357,1.0227623
alexnet_w3_mlp_simclrhn_probe0,1,500,NaN,clock,clock,90,0500_rot_dnn_90_clock_20_n04548280_7354.png,n04548280_7354.png,1.0,1.9564854,-0.9755013,2.073228
alexnet_w3_mlp_simclrhn_probe0,1,501,NaN,clock,bicycle,270,0501_rot_dnn_270_bicycle_20_n03792782_586.png,n03792782_586.png,0.0,-2.684239,-1.8257432,-0.60704815
alexnet_w3_mlp_simclrhn_probe0,1,502,NaN,elephant,bear,0,0502_rot_dnn_0_bear_20_n02134084_572.png,n02134084_572.png,0.0,-1.6735331,-0.9259268,-0.52863747
alexnet_w3_mlp_simclrhn_probe0,1,503,NaN,bicycle,bicycle,270,0503_rot_dnn_270_bicycle_20_n03792782_3388.png,n03792782_3388.png,1.0,-2.2481914,-4.655725,1.7023834
alexnet_w3_mlp_simclrhn_probe0,1,504,NaN,bicycle,bicycle,270,0504_rot_dnn_270_bicycle_20_n03792782_28970.png,n03792782_28970.png,1.0,6.210703,-1.7668767,5.6410007
alexnet_w3_mlp_simclrhn_probe0,1,505,NaN,oven,bottle,270,0505_rot_dnn_270_bottle_20_n04560804_11386.png,n04560804_11386.png,0.0,-3.89004,-1.0654705,-1.9972723
alexnet_w3_mlp_simclrhn_probe0,1,506,NaN,chair,chair,180,0506_rot_dnn_180_chair_20_n03376595_6799.png,n03376595_6799.png,1.0,-0.7977209,-2.3373547,1.0886855
alexnet_w3_mlp_simclrhn_probe0,1,507,NaN,cat,dog,270,0507_rot_dnn_270_dog_20_n02094258_6398.png,n02094258_6398.png,0.0,-1.0354469,2.708082,-2.6470747
alexnet_w3_mlp_simclrhn_probe0,1,508,NaN,bird,bird,0,0508_rot_dnn_0_bird_20_n01592084_2639.png,n01592084_2639.png,1.0,-1.9025184,-6.0931077,2.9631944
alexnet_w3_mlp_simclrhn_probe0,1,509,NaN,bicycle,bird,180,0509_rot_dnn_180_bird_20_n02017213_4781.png,n02017213_4781.png,0.0,-3.4653857,-1.9018266,-1.1056032
alexnet_w3_mlp_simclrhn_probe0,1,510,NaN,knife,airplane,270,0510_rot_dnn_270_airplane_20_n02690373_3818.png,n02690373_3818.png,0.0,-8.1257515,-1.0755934,-4.9852147
alexnet_w3_mlp_simclrhn_probe0,1,511,NaN,bicycle,bicycle,90,0511_rot_dnn_90_bicycle_20_n03792782_26383.png,n03792782_26383.png,1.0,1.3600323,-3.0312142,3.1050804
alexnet_w3_mlp_simclrhn_probe0,1,512,NaN,oven,oven,90,0512_rot_dnn_90_oven_20_n04111531_5216.png,n04111531_5216.png,1.0,4.9953017,-2.8410606,5.541145
alexnet_w3_mlp_simclrhn_probe0,1,513,NaN,airplane,airplane,180,0513_rot_dnn_180_airplane_20_n02690373_20331.png,n02690373_20331.png,1.0,-0.8928593,-2.0301313,0.8041728
alexnet_w3_mlp_simclrhn_probe0,1,514,NaN,clock,truck,180,0514_rot_dnn_180_truck_20_n04467665_23691.png,n04467665_23691.png,0.0,-3.353314,-1.388847,-1.3890879
alexnet_w3_mlp_simclrhn_probe0,1,515,NaN,bird,bird,0,0515_rot_dnn_0_bird_20_n02009229_492.png,n02009229_492.png,1.0,1.3872496,-2.6132588,2.8287866
alexnet_w3_mlp_simclrhn_probe0,1,516,NaN,bird,bird,90,0516_rot_dnn_90_bird_20_n02002556_5890.png,n02002556_5890.png,1.0,-0.13255714,-2.4554167,1.6425097
alexnet_w3_mlp_simclrhn_probe0,1,517,NaN,bird,bird,270,0517_rot_dnn_270_bird_20_n01855032_5358.png,n01855032_5358.png,1.0,-1.4369283,-1.7937562,0.2523155
alexnet_w3_mlp_simclrhn_probe0,1,518,NaN,cat,dog,180,0518_rot_dnn_180_dog_20_n02112350_10026.png,n02112350_10026.png,0.0,-3.5060463,-3.1042795,-0.284092
alexnet_w3_mlp_simclrhn_probe0,1,519,NaN,knife,knife,90,0519_rot_dnn_90_knife_20_n03041632_11773.png,n03041632_11773.png,1.0,-3.7414029,-3.8445468,0.07293377
alexnet_w3_mlp_simclrhn_probe0,1,520,NaN,elephant,elephant,0,0520_rot_dnn_0_elephant_20_n02504013_20486.png,n02504013_20486.png,1.0,8.377212,0.59711015,5.5013623
alexnet_w3_mlp_simclrhn_probe0,1,521,NaN,oven,oven,0,0521_rot_dnn_0_oven_20_n04111531_27.png,n04111531_27.png,1.0,5.245707,2.6997201,1.8002846
alexnet_w3_mlp_simclrhn_probe0,1,522,NaN,bicycle,bird,180,0522_rot_dnn_180_bird_20_n01855672_15421.png,n01855672_15421.png,0.0,-7.777049,-6.777708,-0.70664084
alexnet_w3_mlp_simclrhn_probe0,1,523,NaN,bear,bear,270,0523_rot_dnn_270_bear_20_n02132136_239.png,n02132136_239.png,1.0,-0.024404079,-2.5237072,1.7672743
alexnet_w3_mlp_simclrhn_probe0,1,524,NaN,keyboard,keyboard,90,0524_rot_dnn_90_keyboard_20_n03085013_25924.png,n03085013_25924.png,1.0,3.708466,0.33377287,2.3862684
alexnet_w3_mlp_simclrhn_probe0,1,525,NaN,bicycle,bicycle,180,0525_rot_dnn_180_bicycle_20_n03792782_6030.png,n03792782_6030.png,1.0,-1.887325,-4.9183383,2.14325
alexnet_w3_mlp_simclrhn_probe0,1,526,NaN,oven,bottle,270,0526_rot_dnn_270_bottle_20_n03983396_5497.png,n03983396_5497.png,0.0,-4.844377,0.89457214,-4.05805
alexnet_w3_mlp_simclrhn_probe0,1,527,NaN,oven,chair,180,0527_rot_dnn_180_chair_20_n04429376_6390.png,n04429376_6390.png,0.0,-0.43367875,2.0630524,-1.7654556
alexnet_w3_mlp_simclrhn_probe0,1,528,NaN,cat,dog,90,0528_rot_dnn_90_dog_20_n02100877_11159.png,n02100877_11159.png,0.0,-4.508318,-3.5766823,-0.65876585
alexnet_w3_mlp_simclrhn_probe0,1,529,NaN,bottle,bottle,180,0529_rot_dnn_180_bottle_20_n04579145_579.png,n04579145_579.png,1.0,-0.16044958,-0.8430043,0.48263907
alexnet_w3_mlp_simclrhn_probe0,1,530,NaN,cat,cat,90,0530_rot_dnn_90_cat_20_n02123159_5678.png,n02123159_5678.png,1.0,-1.8959942,-8.449143,4.633776
alexnet_w3_mlp_simclrhn_probe0,1,531,NaN,elephant,elephant,180,0531_rot_dnn_180_elephant_20_n02504013_13283.png,n02504013_13283.png,1.0,-3.9742565,-4.202356,0.1612906
alexnet_w3_mlp_simclrhn_probe0,1,532,NaN,bear,dog,90,0532_rot_dnn_90_dog_20_n02095570_7633.png,n02095570_7633.png,0.0,-3.648337,-1.9760022,-1.1825192
alexnet_w3_mlp_simclrhn_probe0,1,533,NaN,bicycle,clock,180,0533_rot_dnn_180_clock_20_n02708093_8311.png,n02708093_8311.png,0.0,-3.3758075,-1.567838,-1.2784276
alexnet_w3_mlp_simclrhn_probe0,1,534,NaN,knife,chair,270,0534_rot_dnn_270_chair_20_n03376595_426.png,n03376595_426.png,0.0,-3.3812494,-2.6523352,-0.5154202
alexnet_w3_mlp_simclrhn_probe0,1,535,NaN,elephant,dog,180,0535_rot_dnn_180_dog_20_n02100877_3112.png,n02100877_3112.png,0.0,-2.9429784,-1.4078918,-1.0854702
alexnet_w3_mlp_simclrhn_probe0,1,536,NaN,bottle,car,270,0536_rot_dnn_270_car_20_n02814533_458.png,n02814533_458.png,0.0,-4.528007,-3.4351885,-0.7727394
alexnet_w3_mlp_simclrhn_probe0,1,537,NaN,bird,bird,0,0537_rot_dnn_0_bird_20_n02006656_5079.png,n02006656_5079.png,1.0,-0.47123167,-2.9582524,1.7585893
alexnet_w3_mlp_simclrhn_probe0,1,538,NaN,knife,boat,90,0538_rot_dnn_90_boat_20_n04273569_12725.png,n04273569_12725.png,0.0,-6.0205507,-3.6520605,-1.6747755
alexnet_w3_mlp_simclrhn_probe0,1,539,NaN,cat,cat,270,0539_rot_dnn_270_cat_20_n02123045_6677.png,n02123045_6677.png,1.0,-1.9484901,-6.9563785,3.541112
alexnet_w3_mlp_simclrhn_probe0,1,540,NaN,bicycle,bicycle,270,0540_rot_dnn_270_bicycle_20_n02835271_4440.png,n02835271_4440.png,1.0,-2.3733802,-5.556964,2.2511337
alexnet_w3_mlp_simclrhn_probe0,1,541,NaN,keyboard,keyboard,270,0541_rot_dnn_270_keyboard_20_n03085013_21444.png,n03085013_21444.png,1.0,2.4981394,-0.6638345,2.2358532
alexnet_w3_mlp_simclrhn_probe0,1,542,NaN,chair,clock,180,0542_rot_dnn_180_clock_20_n02708093_8255.png,n02708093_8255.png,0.0,-2.5307944,-1.6555396,-0.6188986
alexnet_w3_mlp_simclrhn_probe0,1,543,NaN,bicycle,bicycle,0,0543_rot_dnn_0_bicycle_20_n02835271_30318.png,n02835271_30318.png,1.0,-4.4753485,-5.339531,0.6110693
alexnet_w3_mlp_simclrhn_probe0,1,544,NaN,cat,cat,180,0544_rot_dnn_180_cat_20_n02123394_2059.png,n02123394_2059.png,1.0,-3.8283017,-6.407658,1.8238804
alexnet_w3_mlp_simclrhn_probe0,1,545,NaN,elephant,elephant,180,0545_rot_dnn_180_elephant_20_n02504013_6618.png,n02504013_6618.png,1.0,-1.2900904,-1.8616371,0.40414453
alexnet_w3_mlp_simclrhn_probe0,1,546,NaN,cat,cat,270,0546_rot_dnn_270_cat_20_n02124075_8889.png,n02124075_8889.png,1.0,-2.6198313,-3.0454996,0.3009929
alexnet_w3_mlp_simclrhn_probe0,1,547,NaN,oven,dog,90,0547_rot_dnn_90_dog_20_n02100877_7302.png,n02100877_7302.png,0.0,-4.6014843,-3.2675426,-0.9432392
alexnet_w3_mlp_simclrhn_probe0,1,548,NaN,chair,car,180,0548_rot_dnn_180_car_20_n02814533_85971.png,n02814533_85971.png,0.0,-2.017463,-1.5194178,-0.35217115
alexnet_w3_mlp_simclrhn_probe0,1,549,NaN,chair,chair,0,0549_rot_dnn_0_chair_20_n03376595_5909.png,n03376595_5909.png,1.0,1.9819562,-1.3308551,2.3425114
alexnet_w3_mlp_simclrhn_probe0,1,550,NaN,knife,keyboard,270,0550_rot_dnn_270_keyboard_20_n03085013_13083.png,n03085013_13083.png,0.0,-1.7888467,-1.2097361,-0.40949306
alexnet_w3_mlp_simclrhn_probe0,1,551,NaN,oven,oven,90,0551_rot_dnn_90_oven_20_n04111531_9611.png,n04111531_9611.png,1.0,0.5450046,-1.5270463,1.4651613
alexnet_w3_mlp_simclrhn_probe0,1,552,NaN,boat,boat,0,0552_rot_dnn_0_boat_20_n02951358_13996.png,n02951358_13996.png,1.0,-3.6155682,-5.177231,1.1042622
alexnet_w3_mlp_simclrhn_probe0,1,553,NaN,boat,boat,0,0553_rot_dnn_0_boat_20_n03344393_9251.png,n03344393_9251.png,1.0,2.1534505,1.1038496,0.7421799
alexnet_w3_mlp_simclrhn_probe0,1,554,NaN,knife,airplane,180,0554_rot_dnn_180_airplane_20_n02690373_9175.png,n02690373_9175.png,0.0,-4.4887304,-2.0936491,-1.6935782
alexnet_w3_mlp_simclrhn_probe0,1,555,NaN,elephant,bear,0,0555_rot_dnn_0_bear_20_n02132136_2791.png,n02132136_2791.png,0.0,0.20347553,1.0489234,-0.5978219
alexnet_w3_mlp_simclrhn_probe0,1,556,NaN,elephant,elephant,180,0556_rot_dnn_180_elephant_20_n02504458_193.png,n02504458_193.png,1.0,-2.5299804,-5.1932955,1.8832482
alexnet_w3_mlp_simclrhn_probe0,1,557,NaN,bird,bird,270,0557_rot_dnn_270_bird_20_n01843383_9985.png,n01843383_9985.png,1.0,-3.7288523,-4.4779353,0.5296817
alexnet_w3_mlp_simclrhn_probe0,1,558,NaN,bird,bird,270,0558_rot_dnn_270_bird_20_n02028035_10744.png,n02028035_10744.png,1.0,-1.6789205,-3.0550942,0.9731018
alexnet_w3_mlp_simclrhn_probe0,1,559,NaN,chair,truck,270,0559_rot_dnn_270_truck_20_n04467665_3720.png,n04467665_3720.png,0.0,-3.8488324,-0.21536931,-2.5692465
alexnet_w3_mlp_simclrhn_probe0,1,560,NaN,car,car,0,0560_rot_dnn_0_car_20_n02814533_52605.png,n02814533_52605.png,1.0,3.3236954,-0.07206993,2.4011688
alexnet_w3_mlp_simclrhn_probe0,1,561,NaN,clock,clock,90,0561_rot_dnn_90_clock_20_n04548280_5631.png,n04548280_5631.png,1.0,4.9481597,-2.726257,5.426632
alexnet_w3_mlp_simclrhn_probe0,1,562,NaN,oven,oven,0,0562_rot_dnn_0_oven_20_n04111531_1922.png,n04111531_1922.png,1.0,6.4985895,-3.441236,7.0285177
alexnet_w3_mlp_simclrhn_probe0,1,563,NaN,airplane,boat,180,0563_rot_dnn_180_boat_20_n03662601_1197.png,n03662601_1197.png,0.0,-1.3906844,2.234004,-2.5630417
alexnet_w3_mlp_simclrhn_probe0,1,564,NaN,clock,clock,270,0564_rot_dnn_270_clock_20_n02708093_1862.png,n02708093_1862.png,1.0,-0.7494524,-3.8847067,2.2169597
alexnet_w3_mlp_simclrhn_probe0,1,565,NaN,oven,truck,180,0565_rot_dnn_180_truck_20_n03796401_4582.png,n03796401_4582.png,0.0,0.28408355,1.1622535,-0.62095994
alexnet_w3_mlp_simclrhn_probe0,1,566,NaN,elephant,elephant,90,0566_rot_dnn_90_elephant_20_n02504013_565.png,n02504013_565.png,1.0,-2.726087,-3.4316807,0.49893
alexnet_w3_mlp_simclrhn_probe0,1,567,NaN,chair,truck,180,0567_rot_dnn_180_truck_20_n04467665_49826.png,n04467665_49826.png,0.0,-4.6161704,-3.2696717,-0.9521184
alexnet_w3_mlp_simclrhn_probe0,1,568,NaN,bear,bear,270,0568_rot_dnn_270_bear_20_n02134418_5067.png,n02134418_5067.png,1.0,-0.6824434,-1.3842374,0.49624333
alexnet_w3_mlp_simclrhn_probe0,1,569,NaN,clock,chair,90,0569_rot_dnn_90_chair_20_n04429376_29223.png,n04429376_29223.png,0.0,-2.6370192,-2.2415204,-0.27965987
alexnet_w3_mlp_simclrhn_probe0,1,570,NaN,knife,airplane,270,0570_rot_dnn_270_airplane_20_n02690373_5909.png,n02690373_5909.png,0.0,-6.678946,-2.040795,-3.279668
alexnet_w3_mlp_simclrhn_probe0,1,571,NaN,knife,dog,270,0571_rot_dnn_270_dog_20_n02097658_722.png,n02097658_722.png,0.0,-6.053146,-1.63205,-3.1261868
alexnet_w3_mlp_simclrhn_probe0,1,572,NaN,oven,oven,0,0572_rot_dnn_0_oven_20_n04111531_10339.png,n04111531_10339.png,1.0,0.26066625,-2.04284,1.628825
alexnet_w3_mlp_simclrhn_probe0,1,573,NaN,bottle,truck,90,0573_rot_dnn_90_truck_20_n03417042_28078.png,n03417042_28078.png,0.0,-5.2432213,-0.78890467,-3.1496775
alexnet_w3_mlp_simclrhn_probe0,1,574,NaN,oven,chair,180,0574_rot_dnn_180_chair_20_n04099969_22118.png,n04099969_22118.png,0.0,-4.2599854,-3.6380887,-0.43974742
alexnet_w3_mlp_simclrhn_probe0,1,575,NaN,oven,clock,270,0575_rot_dnn_270_clock_20_n04548280_7978.png,n04548280_7978.png,0.0,-5.913872,-2.6507053,-2.3074071
alexnet_w3_mlp_simclrhn_probe0,1,576,NaN,bear,bear,180,0576_rot_dnn_180_bear_20_n02133161_1962.png,n02133161_1962.png,1.0,-1.290399,-2.7666943,1.0438985
alexnet_w3_mlp_simclrhn_probe0,1,577,NaN,knife,clock,180,0577_rot_dnn_180_clock_20_n04548280_13750.png,n04548280_13750.png,0.0,-5.4603887,-2.7451513,-1.9199628
alexnet_w3_mlp_simclrhn_probe0,1,578,NaN,knife,keyboard,0,0578_rot_dnn_0_keyboard_20_n03085013_15249.png,n03085013_15249.png,0.0,-2.4492083,-1.3451918,-0.78065753
alexnet_w3_mlp_simclrhn_probe0,1,579,NaN,keyboard,car,90,0579_rot_dnn_90_car_20_n02814533_479.png,n02814533_479.png,0.0,-5.42593,-1.8267913,-2.5449755
alexnet_w3_mlp_simclrhn_probe0,1,580,NaN,knife,keyboard,270,0580_rot_dnn_270_keyboard_20_n03085013_20716.png,n03085013_20716.png,0.0,-3.3479025,-2.374635,-0.6882041
alexnet_w3_mlp_simclrhn_probe0,1,581,NaN,bird,bird,180,0581_rot_dnn_180_bird_20_n01530575_7990.png,n01530575_7990.png,1.0,-4.9944572,-5.0892982,0.06706272
alexnet_w3_mlp_simclrhn_probe0,1,582,NaN,chair,chair,0,0582_rot_dnn_0_chair_20_n04429376_17343.png,n04429376_17343.png,1.0,-3.5777555,-3.6882503,0.07813166
alexnet_w3_mlp_simclrhn_probe0,1,583,NaN,chair,chair,90,0583_rot_dnn_90_chair_20_n02791124_8775.png,n02791124_8775.png,1.0,-2.5445647,-3.5853739,0.7359632
alexnet_w3_mlp_simclrhn_probe0,1,584,NaN,cat,cat,90,0584_rot_dnn_90_cat_20_n02125311_2959.png,n02125311_2959.png,1.0,-1.595832,-3.6270344,1.4362769
alexnet_w3_mlp_simclrhn_probe0,1,585,NaN,oven,oven,180,0585_rot_dnn_180_oven_20_n04111531_13906.png,n04111531_13906.png,1.0,-0.36646813,-2.4032676,1.4402347
alexnet_w3_mlp_simclrhn_probe0,1,586,NaN,chair,airplane,90,0586_rot_dnn_90_airplane_20_n02690373_7293.png,n02690373_7293.png,0.0,-1.315117,-1.1904951,-0.08812097
alexnet_w3_mlp_simclrhn_probe0,1,587,NaN,chair,chair,180,0587_rot_dnn_180_chair_20_n04099969_10825.png,n04099969_10825.png,1.0,0.13639407,-1.3092905,1.0222534
alexnet_w3_mlp_simclrhn_probe0,1,588,NaN,airplane,airplane,180,0588_rot_dnn_180_airplane_20_n02690373_17044.png,n02690373_17044.png,1.0,3.9752433,0.9150741,2.1638665
alexnet_w3_mlp_simclrhn_probe0,1,589,NaN,bird,bird,0,0589_rot_dnn_0_bird_20_n01797886_6169.png,n01797886_6169.png,1.0,-2.9005077,-4.447006,1.0935396
alexnet_w3_mlp_simclrhn_probe0,1,590,NaN,bicycle,oven,0,0590_rot_dnn_0_oven_20_n04111531_13255.png,n04111531_13255.png,0.0,-3.46914,-1.5524639,-1.3552947
alexnet_w3_mlp_simclrhn_probe0,1,591,NaN,clock,knife,270,0591_rot_dnn_270_knife_20_n03041632_17820.png,n03041632_17820.png,0.0,-4.105324,-1.6743206,-1.7189788
alexnet_w3_mlp_simclrhn_probe0,1,592,NaN,bicycle,bicycle,270,0592_rot_dnn_270_bicycle_20_n02835271_21640.png,n02835271_21640.png,1.0,-4.597939,-4.7901115,0.1358865
alexnet_w3_mlp_simclrhn_probe0,1,593,NaN,bear,bear,0,0593_rot_dnn_0_bear_20_n02134418_517.png,n02134418_517.png,1.0,2.3452919,1.5779521,0.5425911
alexnet_w3_mlp_simclrhn_probe0,1,594,NaN,chair,airplane,180,0594_rot_dnn_180_airplane_20_n02690373_4588.png,n02690373_4588.png,0.0,-5.211038,-2.6434426,-1.8155642
alexnet_w3_mlp_simclrhn_probe0,1,595,NaN,chair,bottle,270,0595_rot_dnn_270_bottle_20_n02823428_12190.png,n02823428_12190.png,0.0,-4.6272817,-1.7863314,-2.008855
alexnet_w3_mlp_simclrhn_probe0,1,596,NaN,clock,bottle,0,0596_rot_dnn_0_bottle_20_n04591713_1717.png,n04591713_1717.png,0.0,0.750354,0.8022931,-0.036726512
alexnet_w3_mlp_simclrhn_probe0,1,597,NaN,knife,knife,0,0597_rot_dnn_0_knife_20_n03041632_9488.png,n03041632_9488.png,1.0,0.6460616,-4.288158,3.48902
alexnet_w3_mlp_simclrhn_probe0,1,598,NaN,chair,truck,90,0598_rot_dnn_90_truck_20_n03417042_11166.png,n03417042_11166.png,0.0,-4.525692,-0.8058444,-2.6303296
alexnet_w3_mlp_simclrhn_probe0,1,599,NaN,elephant,elephant,90,0599_rot_dnn_90_elephant_20_n02504458_585.png,n02504458_585.png,1.0,-0.9081555,-4.92074,2.8373258
alexnet_w3_mlp_simclrhn_probe0,1,600,NaN,oven,keyboard,0,0600_rot_dnn_0_keyboard_20_n04505470_5046.png,n04505470_5046.png,0.0,-1.730554,-0.0039616227,-1.2208852
alexnet_w3_mlp_simclrhn_probe0,1,601,NaN,chair,chair,180,0601_rot_dnn_180_chair_20_n03376595_4937.png,n03376595_4937.png,1.0,-3.052425,-5.633397,1.8250229
alexnet_w3_mlp_simclrhn_probe0,1,602,NaN,oven,boat,180,0602_rot_dnn_180_boat_20_n03662601_1740.png,n03662601_1740.png,0.0,-7.5770173,-4.0913725,-2.464723
alexnet_w3_mlp_simclrhn_probe0,1,603,NaN,knife,knife,0,0603_rot_dnn_0_knife_20_n03041632_4037.png,n03041632_4037.png,1.0,-1.5277935,-2.7139058,0.83870804
alexnet_w3_mlp_simclrhn_probe0,1,604,NaN,car,boat,0,0604_rot_dnn_0_boat_20_n04273569_1538.png,n04273569_1538.png,0.0,-8.828599,-4.4984393,-3.0618854
alexnet_w3_mlp_simclrhn_probe0,1,605,NaN,knife,bird,0,0605_rot_dnn_0_bird_20_n02017213_15918.png,n02017213_15918.png,0.0,-5.980444,-4.0812883,-1.3429059
alexnet_w3_mlp_simclrhn_probe0,1,606,NaN,keyboard,keyboard,0,0606_rot_dnn_0_keyboard_20_n03085013_10463.png,n03085013_10463.png,1.0,6.7397494,1.2370323,3.8910086
alexnet_w3_mlp_simclrhn_probe0,1,607,NaN,elephant,bear,270,0607_rot_dnn_270_bear_20_n02133161_7939.png,n02133161_7939.png,0.0,-2.0843902,-1.479805,-0.42750627
alexnet_w3_mlp_simclrhn_probe0,1,608,NaN,truck,car,270,0608_rot_dnn_270_car_20_n04285008_11704.png,n04285008_11704.png,0.0,-4.614834,-3.895339,-0.5087597
alexnet_w3_mlp_simclrhn_probe0,1,609,NaN,clock,truck,90,0609_rot_dnn_90_truck_20_n03796401_16046.png,n03796401_16046.png,0.0,-2.6948729,0.26086262,-2.0900207
alexnet_w3_mlp_simclrhn_probe0,1,610,NaN,clock,chair,270,0610_rot_dnn_270_chair_20_n02791124_3710.png,n02791124_3710.png,0.0,-3.9180968,-2.3819487,-1.0862207
alexnet_w3_mlp_simclrhn_probe0,1,611,NaN,keyboard,keyboard,180,0611_rot_dnn_180_keyboard_20_n04505470_3566.png,n04505470_3566.png,1.0,1.5856912,-0.7429762,1.6466166
alexnet_w3_mlp_simclrhn_probe0,1,612,NaN,knife,bird,90,0612_rot_dnn_90_bird_20_n02037110_8716.png,n02037110_8716.png,0.0,-6.0898805,-1.8602618,-2.990792
alexnet_w3_mlp_simclrhn_probe0,1,613,NaN,car,car,0,0613_rot_dnn_0_car_20_n03100240_19550.png,n03100240_19550.png,1.0,4.008968,1.9757023,1.4377359
alexnet_w3_mlp_simclrhn_probe0,1,614,NaN,airplane,airplane,270,0614_rot_dnn_270_airplane_20_n02690373_10769.png,n02690373_10769.png,1.0,-0.087595485,-2.0975997,1.4212877
alexnet_w3_mlp_simclrhn_probe0,1,615,NaN,bicycle,bicycle,0,0615_rot_dnn_0_bicycle_20_n03792782_3456.png,n03792782_3456.png,1.0,-0.7281337,-2.70727,1.3994607
alexnet_w3_mlp_simclrhn_probe0,1,616,NaN,airplane,chair,0,0616_rot_dnn_0_chair_20_n03376595_2368.png,n03376595_2368.png,0.0,-1.8849837,-1.5430186,-0.24180584
alexnet_w3_mlp_simclrhn_probe0,1,617,NaN,dog,dog,0,0617_rot_dnn_0_dog_20_n02091467_2974.png,n02091467_2974.png,1.0,-2.4349396,-4.0107527,1.1142681
alexnet_w3_mlp_simclrhn_probe0,1,618,NaN,knife,knife,180,0618_rot_dnn_180_knife_20_n03041632_43634.png,n03041632_43634.png,1.0,-0.2693903,-2.3762507,1.4897753
alexnet_w3_mlp_simclrhn_probe0,1,619,NaN,keyboard,keyboard,180,0619_rot_dnn_180_keyboard_20_n04505470_4477.png,n04505470_4477.png,1.0,1.9487684,-0.7587205,1.9144839
alexnet_w3_mlp_simclrhn_probe0,1,620,NaN,knife,boat,90,0620_rot_dnn_90_boat_20_n03344393_4773.png,n03344393_4773.png,0.0,-3.7990365,-2.5536675,-0.88060886
alexnet_w3_mlp_simclrhn_probe0,1,621,NaN,airplane,airplane,180,0621_rot_dnn_180_airplane_20_n02690373_139.png,n02690373_139.png,1.0,4.557766,-0.67223376,3.6981683
alexnet_w3_mlp_simclrhn_probe0,1,622,NaN,knife,knife,270,0622_rot_dnn_270_knife_20_n03041632_737.png,n03041632_737.png,1.0,-3.1456594,-3.6725788,0.37258828
alexnet_w3_mlp_simclrhn_probe0,1,623,NaN,oven,chair,270,0623_rot_dnn_270_chair_20_n02791124_2698.png,n02791124_2698.png,0.0,-2.5078807,-1.4793187,-0.72730315
alexnet_w3_mlp_simclrhn_probe0,1,624,NaN,bottle,truck,270,0624_rot_dnn_270_truck_20_n03417042_5301.png,n03417042_5301.png,0.0,-6.1811786,-1.4817129,-3.3230243
alexnet_w3_mlp_simclrhn_probe0,1,625,NaN,bird,bird,0,0625_rot_dnn_0_bird_20_n02006656_5757.png,n02006656_5757.png,1.0,-0.70646286,-4.589822,2.7459495
alexnet_w3_mlp_simclrhn_probe0,1,626,NaN,elephant,bear,270,0626_rot_dnn_270_bear_20_n02132136_15174.png,n02132136_15174.png,0.0,-0.7314194,-0.5417222,-0.13413619
alexnet_w3_mlp_simclrhn_probe0,1,627,NaN,clock,bottle,270,0627_rot_dnn_270_bottle_20_n04560804_6329.png,n04560804_6329.png,0.0,-2.1979837,-1.1136826,-0.76671666
alexnet_w3_mlp_simclrhn_probe0,1,628,NaN,truck,truck,0,0628_rot_dnn_0_truck_20_n03417042_22196.png,n03417042_22196.png,1.0,-0.1162494,-2.9797225,2.0247812
alexnet_w3_mlp_simclrhn_probe0,1,629,NaN,bear,cat,0,0629_rot_dnn_0_cat_20_n02125311_18366.png,n02125311_18366.png,0.0,-2.6003973,-2.446177,-0.10905025
alexnet_w3_mlp_simclrhn_probe0,1,630,NaN,chair,chair,0,0630_rot_dnn_0_chair_20_n02791124_12707.png,n02791124_12707.png,1.0,-0.5939252,-1.6374826,0.7379065
alexnet_w3_mlp_simclrhn_probe0,1,631,NaN,oven,oven,180,0631_rot_dnn_180_oven_20_n04111531_1938.png,n04111531_1938.png,1.0,-1.3621712,-3.2734022,1.3514445
alexnet_w3_mlp_simclrhn_probe0,1,632,NaN,oven,airplane,270,0632_rot_dnn_270_airplane_20_n02690373_9346.png,n02690373_9346.png,0.0,-11.3572235,-0.47071314,-7.6979256
alexnet_w3_mlp_simclrhn_probe0,1,633,NaN,bear,cat,0,0633_rot_dnn_0_cat_20_n02123045_10433.png,n02123045_10433.png,0.0,-4.9964347,-3.7930799,-0.85090035
alexnet_w3_mlp_simclrhn_probe0,1,634,NaN,airplane,airplane,180,0634_rot_dnn_180_airplane_20_n02690373_5055.png,n02690373_5055.png,1.0,0.59946287,-2.6404483,2.2909632
alexnet_w3_mlp_simclrhn_probe0,1,635,NaN,clock,clock,270,0635_rot_dnn_270_clock_20_n04548280_4198.png,n04548280_4198.png,1.0,-0.7529536,-1.233539,0.3398252
