subj,session,trial,rt,object_response,category,condition,imagename,filename,is_correct,targ_act,max_nontarg_act,decision_margin
alexnet_w1_mlp_simclrhn_probe0,1,1,NaN,bicycle,chair,0,0001_rot_dnn_0_chair_20_n03376595_3070.png,n03376595_3070.png,0.0,-7.5862656,-3.3988738,-2.9609332
alexnet_w1_mlp_simclrhn_probe0,1,2,NaN,car,car,180,0002_rot_dnn_180_car_20_n02814533_29367.png,n02814533_29367.png,1.0,-2.8089402,-6.238723,2.4252226
alexnet_w1_mlp_simclrhn_probe0,1,3,NaN,knife,car,270,0003_rot_dnn_270_car_20_n02814533_31083.png,n02814533_31083.png,0.0,-10.660329,-4.017175,-4.697419
alexnet_w1_mlp_simclrhn_probe0,1,4,NaN,airplane,car,180,0004_rot_dnn_180_car_20_n03100240_1703.png,n03100240_1703.png,0.0,-3.1397069,-0.90322137,-1.5814341
alexnet_w1_mlp_simclrhn_probe0,1,5,NaN,bottle,bottle,180,0005_rot_dnn_180_bottle_20_n04591713_2359.png,n04591713_2359.png,1.0,-4.2181234,-5.5321937,0.92918795
alexnet_w1_mlp_simclrhn_probe0,1,6,NaN,dog,dog,90,0006_rot_dnn_90_dog_20_n02111500_8796.png,n02111500_8796.png,1.0,-5.8384585,-6.5702324,0.5174423
alexnet_w1_mlp_simclrhn_probe0,1,7,NaN,bear,bear,180,0007_rot_dnn_180_bear_20_n02132136_4512.png,n02132136_4512.png,1.0,-3.4706838,-4.5134954,0.7373792
alexnet_w1_mlp_simclrhn_probe0,1,8,NaN,chair,chair,90,0008_rot_dnn_90_chair_20_n03376595_4820.png,n03376595_4820.png,1.0,-3.5831933,-5.1553144,1.1116575
alexnet_w1_mlp_simclrhn_probe0,1,9,NaN,keyboard,bottle,270,0009_rot_dnn_270_bottle_20_n04591713_6111.png,n04591713_6111.png,0.0,-4.030386,-0.2449606,-2.6767
alexnet_w1_mlp_simclrhn_probe0,1,10,NaN,oven,bottle,270,0010_rot_dnn_270_bottle_20_n04560804_14111.png,n04560804_14111.png,0.0,-6.020402,-4.34803,-1.1825455
alexnet_w1_mlp_simclrhn_probe0,1,11,NaN,elephant,dog,0,0011_rot_dnn_0_dog_20_n02099601_8656.png,n02099601_8656.png,0.0,-1.6739309,0.38402033,-1.4551913
alexnet_w1_mlp_simclrhn_probe0,1,12,NaN,elephant,cat,0,0012_rot_dnn_0_cat_20_n02125311_14054.png,n02125311_14054.png,0.0,-4.994661,-4.965289,-0.020768955
alexnet_w1_mlp_simclrhn_probe0,1,13,NaN,bicycle,bear,0,0013_rot_dnn_0_bear_20_n02132136_10385.png,n02132136_10385.png,0.0,-5.333031,-4.660655,-0.47544175
alexnet_w1_mlp_simclrhn_probe0,1,14,NaN,car,bottle,90,0014_rot_dnn_90_bottle_20_n02823428_10417.png,n02823428_10417.png,0.0,-3.5528162,-2.4500046,-0.77980554
alexnet_w1_mlp_simclrhn_probe0,1,15,NaN,cat,keyboard,0,0015_rot_dnn_0_keyboard_20_n03085013_23566.png,n03085013_23566.png,0.0,-9.652962,-5.6402493,-2.8374162
alexnet_w1_mlp_simclrhn_probe0,1,16,NaN,bottle,truck,90,0016_rot_dnn_90_truck_20_n03417042_12560.png,n03417042_12560.png,0.0,-7.3778353,-3.534079,-2.717946
alexnet_w1_mlp_simclrhn_probe0,1,17,NaN,airplane,truck,180,0017_rot_dnn_180_truck_20_n04467665_69063.png,n04467665_69063.png,0.0,-3.9780617,0.7906896,-3.3720164
alexnet_w1_mlp_simclrhn_probe0,1,18,NaN,oven,oven,180,0018_rot_dnn_180_oven_20_n04111531_9712.png,n04111531_9712.png,1.0,-0.023575068,-1.1122357,0.7697993
alexnet_w1_mlp_simclrhn_probe0,1,19,NaN,oven,oven,180,0019_rot_dnn_180_oven_20_n04111531_10375.png,n04111531_10375.png,1.0,3.6274896,-2.685415,4.4638977
alexnet_w1_mlp_simclrhn_probe0,1,20,NaN,keyboard,keyboard,0,0020_rot_dnn_0_keyboard_20_n04505470_1744.png,n04505470_1744.png,1.0,0.41622877,-0.78448653,0.84903395
alexnet_w1_mlp_simclrhn_probe0,1,21,NaN,elephant,boat,90,0021_rot_dnn_90_boat_20_n04273569_7296.png,n04273569_7296.png,0.0,-7.4933524,-2.0875835,-3.822456
alexnet_w1_mlp_simclrhn_probe0,1,22,NaN,bear,dog,0,0022_rot_dnn_0_dog_20_n02101006_4807.png,n02101006_4807.png,0.0,-2.0681148,-1.0975224,-0.68631244
alexnet_w1_mlp_simclrhn_probe0,1,23,NaN,clock,clock,90,0023_rot_dnn_90_clock_20_n02708093_1986.png,n02708093_1986.png,1.0,1.6168575,-4.9645534,4.6537604
alexnet_w1_mlp_simclrhn_probe0,1,24,NaN,bottle,bottle,0,0024_rot_dnn_0_bottle_20_n04560804_15562.png,n04560804_15562.png,1.0,0.8578853,-4.737417,3.9564764
alexnet_w1_mlp_simclrhn_probe0,1,25,NaN,cat,cat,0,0025_rot_dnn_0_cat_20_n02124075_13594.png,n02124075_13594.png,1.0,-2.9473636,-6.8867016,2.7855327
alexnet_w1_mlp_simclrhn_probe0,1,26,NaN,elephant,bear,90,0026_rot_dnn_90_bear_20_n02134418_4365.png,n02134418_4365.png,0.0,-5.964833,-5.5566874,-0.2886024
alexnet_w1_mlp_simclrhn_probe0,1,27,NaN,bear,bear,180,0027_rot_dnn_180_bear_20_n02132136_8650.png,n02132136_8650.png,1.0,-1.8682822,-4.56931,1.9099152
alexnet_w1_mlp_simclrhn_probe0,1,28,NaN,knife,bird,90,0028_rot_dnn_90_bird_20_n02009912_12219.png,n02009912_12219.png,0.0,-4.213319,-3.9498596,-0.1862938
alexnet_w1_mlp_simclrhn_probe0,1,29,NaN,knife,dog,90,0029_rot_dnn_90_dog_20_n02100236_1662.png,n02100236_1662.png,0.0,-6.305872,-5.2572646,-0.7414774
alexnet_w1_mlp_simclrhn_probe0,1,30,NaN,clock,clock,90,0030_rot_dnn_90_clock_20_n04548280_1947.png,n04548280_1947.png,1.0,6.4913745,0.19172661,4.4545236
alexnet_w1_mlp_simclrhn_probe0,1,31,NaN,bird,dog,270,0031_rot_dnn_270_dog_20_n02109047_66167.png,n02109047_66167.png,0.0,-7.328394,-4.407307,-2.0655203
alexnet_w1_mlp_simclrhn_probe0,1,32,NaN,oven,oven,90,0032_rot_dnn_90_oven_20_n04111531_21055.png,n04111531_21055.png,1.0,4.6421227,-1.190306,4.1241503
alexnet_w1_mlp_simclrhn_probe0,1,33,NaN,truck,clock,0,0033_rot_dnn_0_clock_20_n02708093_2012.png,n02708093_2012.png,0.0,-3.5811625,-2.255717,-0.9372315
alexnet_w1_mlp_simclrhn_probe0,1,34,NaN,elephant,elephant,0,0034_rot_dnn_0_elephant_20_n02504458_6119.png,n02504458_6119.png,1.0,1.2637475,-2.4739344,2.6429403
alexnet_w1_mlp_simclrhn_probe0,1,35,NaN,chair,chair,0,0035_rot_dnn_0_chair_20_n04099969_12707.png,n04099969_12707.png,1.0,4.1131907,-1.9301633,4.273297
alexnet_w1_mlp_simclrhn_probe0,1,36,NaN,clock,keyboard,270,0036_rot_dnn_270_keyboard_20_n03085013_19054.png,n03085013_19054.png,0.0,-0.9490597,-0.09867287,-0.6013143
alexnet_w1_mlp_simclrhn_probe0,1,37,NaN,chair,chair,0,0037_rot_dnn_0_chair_20_n02791124_422.png,n02791124_422.png,1.0,-3.3724995,-3.563095,0.13477147
alexnet_w1_mlp_simclrhn_probe0,1,38,NaN,bicycle,bicycle,0,0038_rot_dnn_0_bicycle_20_n02835271_23830.png,n02835271_23830.png,1.0,4.0889397,-9.119436,9.339732
alexnet_w1_mlp_simclrhn_probe0,1,39,NaN,bird,bird,90,0039_rot_dnn_90_bird_20_n01534433_14735.png,n01534433_14735.png,1.0,-4.3746576,-5.1577754,0.5537479
alexnet_w1_mlp_simclrhn_probe0,1,40,NaN,bird,bird,90,0040_rot_dnn_90_bird_20_n02011460_13994.png,n02011460_13994.png,1.0,-5.4314637,-7.957944,1.7864913
alexnet_w1_mlp_simclrhn_probe0,1,41,NaN,knife,boat,270,0041_rot_dnn_270_boat_20_n04273569_17522.png,n04273569_17522.png,0.0,-3.7239292,-1.8739407,-1.3081394
alexnet_w1_mlp_simclrhn_probe0,1,42,NaN,cat,bear,180,0042_rot_dnn_180_bear_20_n02132136_5537.png,n02132136_5537.png,0.0,-1.7700099,1.0219091,-1.9741849
alexnet_w1_mlp_simclrhn_probe0,1,43,NaN,bear,bear,90,0043_rot_dnn_90_bear_20_n02132136_19248.png,n02132136_19248.png,1.0,-0.1386522,-1.2118716,0.75888073
alexnet_w1_mlp_simclrhn_probe0,1,44,NaN,airplane,bird,270,0044_rot_dnn_270_bird_20_n01537544_1886.png,n01537544_1886.png,0.0,-3.243043,-1.5069252,-1.2276206
alexnet_w1_mlp_simclrhn_probe0,1,45,NaN,clock,clock,180,0045_rot_dnn_180_clock_20_n03196217_4776.png,n03196217_4776.png,1.0,1.5356445,0.36208436,0.8298324
alexnet_w1_mlp_simclrhn_probe0,1,46,NaN,chair,boat,270,0046_rot_dnn_270_boat_20_n04612504_17610.png,n04612504_17610.png,0.0,-7.8554916,-1.8744359,-4.229245
alexnet_w1_mlp_simclrhn_probe0,1,47,NaN,cat,bear,90,0047_rot_dnn_90_bear_20_n02134418_1814.png,n02134418_1814.png,0.0,-4.385604,-2.645637,-1.2303424
alexnet_w1_mlp_simclrhn_probe0,1,48,NaN,keyboard,keyboard,180,0048_rot_dnn_180_keyboard_20_n03085013_20330.png,n03085013_20330.png,1.0,1.5936724,0.28312898,0.92669415
alexnet_w1_mlp_simclrhn_probe0,1,49,NaN,bottle,bottle,180,0049_rot_dnn_180_bottle_20_n02823428_14574.png,n02823428_14574.png,1.0,-1.885152,-3.7539177,1.321417
alexnet_w1_mlp_simclrhn_probe0,1,50,NaN,bicycle,bicycle,0,0050_rot_dnn_0_bicycle_20_n03792782_7105.png,n03792782_7105.png,1.0,-4.5400705,-6.0329022,1.0555915
alexnet_w1_mlp_simclrhn_probe0,1,51,NaN,elephant,elephant,0,0051_rot_dnn_0_elephant_20_n02504458_1302.png,n02504458_1302.png,1.0,3.8046885,-1.9637935,4.078933
alexnet_w1_mlp_simclrhn_probe0,1,52,NaN,bottle,airplane,90,0052_rot_dnn_90_airplane_20_n02690373_3877.png,n02690373_3877.png,0.0,-12.227844,-3.3732607,-6.2611365
alexnet_w1_mlp_simclrhn_probe0,1,53,NaN,chair,boat,90,0053_rot_dnn_90_boat_20_n02951358_15422.png,n02951358_15422.png,0.0,-8.906408,-5.1722107,-2.6404765
alexnet_w1_mlp_simclrhn_probe0,1,54,NaN,bottle,car,270,0054_rot_dnn_270_car_20_n02814533_46458.png,n02814533_46458.png,0.0,-8.191167,-3.075011,-3.6176684
alexnet_w1_mlp_simclrhn_probe0,1,55,NaN,car,car,0,0055_rot_dnn_0_car_20_n02814533_39547.png,n02814533_39547.png,1.0,10.353705,4.703839,3.995059
alexnet_w1_mlp_simclrhn_probe0,1,56,NaN,airplane,boat,180,0056_rot_dnn_180_boat_20_n04273569_6586.png,n04273569_6586.png,0.0,-0.7016176,-0.26521525,-0.30858308
alexnet_w1_mlp_simclrhn_probe0,1,57,NaN,clock,clock,90,0057_rot_dnn_90_clock_20_n02708093_3394.png,n02708093_3394.png,1.0,-2.3642867,-3.925481,1.1039312
alexnet_w1_mlp_simclrhn_probe0,1,58,NaN,keyboard,keyboard,180,0058_rot_dnn_180_keyboard_20_n03085013_25419.png,n03085013_25419.png,1.0,0.33873618,-0.026425242,0.25820813
alexnet_w1_mlp_simclrhn_probe0,1,59,NaN,knife,bottle,180,0059_rot_dnn_180_bottle_20_n04557648_1871.png,n04557648_1871.png,0.0,-6.2800875,-6.165804,-0.08081068
alexnet_w1_mlp_simclrhn_probe0,1,60,NaN,oven,chair,90,0060_rot_dnn_90_chair_20_n04099969_6944.png,n04099969_6944.png,0.0,-5.4404826,-2.0208187,-2.4180677
alexnet_w1_mlp_simclrhn_probe0,1,61,NaN,elephant,boat,270,0061_rot_dnn_270_boat_20_n04273569_1495.png,n04273569_1495.png,0.0,-7.175949,-5.79984,-0.97305614
alexnet_w1_mlp_simclrhn_probe0,1,62,NaN,keyboard,keyboard,90,0062_rot_dnn_90_keyboard_20_n03085013_7317.png,n03085013_7317.png,1.0,1.1244063,-1.2075838,1.6489662
alexnet_w1_mlp_simclrhn_probe0,1,63,NaN,knife,knife,90,0063_rot_dnn_90_knife_20_n03041632_7448.png,n03041632_7448.png,1.0,-1.8006368,-3.2264416,1.0081964
alexnet_w1_mlp_simclrhn_probe0,1,64,NaN,truck,truck,0,0064_rot_dnn_0_truck_20_n03417042_11000.png,n03417042_11000.png,1.0,0.4528808,-0.8150977,0.89659613
alexnet_w1_mlp_simclrhn_probe0,1,65,NaN,bird,bird,0,0065_rot_dnn_0_bird_20_n01582220_8827.png,n01582220_8827.png,1.0,-1.004232,-3.50709,1.769788
alexnet_w1_mlp_simclrhn_probe0,1,66,NaN,bicycle,airplane,270,0066_rot_dnn_270_airplane_20_n02690373_9247.png,n02690373_9247.png,0.0,-12.02247,-3.3648448,-6.1218657
alexnet_w1_mlp_simclrhn_probe0,1,67,NaN,bear,bear,270,0067_rot_dnn_270_bear_20_n02133161_14397.png,n02133161_14397.png,1.0,-2.7820587,-3.8236084,0.73648685
alexnet_w1_mlp_simclrhn_probe0,1,68,NaN,oven,oven,270,0068_rot_dnn_270_oven_20_n04111531_13560.png,n04111531_13560.png,1.0,2.275215,-2.2026134,3.1663027
alexnet_w1_mlp_simclrhn_probe0,1,69,NaN,knife,bear,180,0069_rot_dnn_180_bear_20_n02132136_545.png,n02132136_545.png,0.0,-4.8465767,-3.3273005,-1.0742905
alexnet_w1_mlp_simclrhn_probe0,1,70,NaN,elephant,cat,90,0070_rot_dnn_90_cat_20_n02125311_73072.png,n02125311_73072.png,0.0,-5.99661,-1.5254024,-3.1616213
alexnet_w1_mlp_simclrhn_probe0,1,71,NaN,bicycle,bicycle,0,0071_rot_dnn_0_bicycle_20_n03792782_30530.png,n03792782_30530.png,1.0,-2.5388966,-3.5882254,0.7419875
alexnet_w1_mlp_simclrhn_probe0,1,72,NaN,knife,knife,90,0072_rot_dnn_90_knife_20_n03041632_4975.png,n03041632_4975.png,1.0,-4.9094024,-6.5485544,1.1590556
alexnet_w1_mlp_simclrhn_probe0,1,73,NaN,knife,dog,90,0073_rot_dnn_90_dog_20_n02107683_3120.png,n02107683_3120.png,0.0,-10.223886,-6.489855,-2.6403584
alexnet_w1_mlp_simclrhn_probe0,1,74,NaN,bear,elephant,90,0074_rot_dnn_90_elephant_20_n02504013_7316.png,n02504013_7316.png,0.0,-3.536275,-2.2580864,-0.90381575
alexnet_w1_mlp_simclrhn_probe0,1,75,NaN,knife,truck,90,0075_rot_dnn_90_truck_20_n03796401_7284.png,n03796401_7284.png,0.0,-6.967629,-2.5180037,-3.1463602
alexnet_w1_mlp_simclrhn_probe0,1,76,NaN,oven,chair,270,0076_rot_dnn_270_chair_20_n03376595_497.png,n03376595_497.png,0.0,-5.5046144,-5.4147477,-0.06354531
alexnet_w1_mlp_simclrhn_probe0,1,77,NaN,bottle,truck,270,0077_rot_dnn_270_truck_20_n03796401_19845.png,n03796401_19845.png,0.0,-3.9453301,-3.3733559,-0.4044469
alexnet_w1_mlp_simclrhn_probe0,1,78,NaN,knife,chair,90,0078_rot_dnn_90_chair_20_n04099969_1941.png,n04099969_1941.png,0.0,-6.9386864,-5.0501847,-1.3353723
alexnet_w1_mlp_simclrhn_probe0,1,79,NaN,bottle,truck,90,0079_rot_dnn_90_truck_20_n03417042_28886.png,n03417042_28886.png,0.0,-6.295846,-3.1143482,-2.2496588
alexnet_w1_mlp_simclrhn_probe0,1,80,NaN,car,car,0,0080_rot_dnn_0_car_20_n02814533_12185.png,n02814533_12185.png,1.0,1.2170628,-3.1159647,3.063913
alexnet_w1_mlp_simclrhn_probe0,1,81,NaN,bicycle,bicycle,90,0081_rot_dnn_90_bicycle_20_n02835271_1621.png,n02835271_1621.png,1.0,-0.8930629,-3.7653847,2.0310383
alexnet_w1_mlp_simclrhn_probe0,1,82,NaN,cat,cat,0,0082_rot_dnn_0_cat_20_n02123597_32226.png,n02123597_32226.png,1.0,0.026047707,-4.29973,3.0587866
alexnet_w1_mlp_simclrhn_probe0,1,83,NaN,bicycle,bicycle,90,0083_rot_dnn_90_bicycle_20_n03792782_5048.png,n03792782_5048.png,1.0,-4.3098006,-5.3535957,0.7380746
alexnet_w1_mlp_simclrhn_probe0,1,84,NaN,airplane,airplane,0,0084_rot_dnn_0_airplane_20_n02690373_10044.png,n02690373_10044.png,1.0,9.53054,2.7251217,4.812158
alexnet_w1_mlp_simclrhn_probe0,1,85,NaN,car,car,180,0085_rot_dnn_180_car_20_n03100240_5752.png,n03100240_5752.png,1.0,-1.9084393,-4.021292,1.4940127
alexnet_w1_mlp_simclrhn_probe0,1,86,NaN,bottle,car,90,0086_rot_dnn_90_car_20_n02814533_68219.png,n02814533_68219.png,0.0,-6.4901886,-1.3274765,-3.6505888
alexnet_w1_mlp_simclrhn_probe0,1,87,NaN,airplane,airplane,0,0087_rot_dnn_0_airplane_20_n02690373_1171.png,n02690373_1171.png,1.0,3.2657866,-1.4340488,3.3232856
alexnet_w1_mlp_simclrhn_probe0,1,88,NaN,knife,bird,90,0088_rot_dnn_90_bird_20_n01817953_6970.png,n01817953_6970.png,0.0,-9.478597,-2.692881,-4.7982254
alexnet_w1_mlp_simclrhn_probe0,1,89,NaN,knife,car,90,0089_rot_dnn_90_car_20_n04285008_15503.png,n04285008_15503.png,0.0,-7.951654,-3.2144263,-3.3497257
alexnet_w1_mlp_simclrhn_probe0,1,90,NaN,boat,boat,270,0090_rot_dnn_270_boat_20_n03344393_11886.png,n03344393_11886.png,1.0,-2.3401783,-2.497851,0.1114914
alexnet_w1_mlp_simclrhn_probe0,1,91,NaN,boat,boat,0,0091_rot_dnn_0_boat_20_n04273569_30203.png,n04273569_30203.png,1.0,-1.3053507,-1.7177329,0.2915983
alexnet_w1_mlp_simclrhn_probe0,1,92,NaN,keyboard,keyboard,180,0092_rot_dnn_180_keyboard_20_n03085013_22069.png,n03085013_22069.png,1.0,6.3991036,0.26040915,4.3407125
alexnet_w1_mlp_simclrhn_probe0,1,93,NaN,airplane,knife,0,0093_rot_dnn_0_knife_20_n03041632_26314.png,n03041632_26314.png,0.0,-3.9990368,-1.202157,-1.9776927
alexnet_w1_mlp_simclrhn_probe0,1,94,NaN,elephant,bicycle,270,0094_rot_dnn_270_bicycle_20_n03792782_18308.png,n03792782_18308.png,0.0,-8.174589,-6.216533,-1.3845546
alexnet_w1_mlp_simclrhn_probe0,1,95,NaN,airplane,car,180,0095_rot_dnn_180_car_20_n04285008_8396.png,n04285008_8396.png,0.0,-3.6455605,-1.8874928,-1.2431417
alexnet_w1_mlp_simclrhn_probe0,1,96,NaN,oven,bear,90,0096_rot_dnn_90_bear_20_n02133161_12349.png,n02133161_12349.png,0.0,-6.5398364,-3.8816595,-1.879615
alexnet_w1_mlp_simclrhn_probe0,1,97,NaN,bear,bear,270,0097_rot_dnn_270_bear_20_n02132136_18303.png,n02132136_18303.png,1.0,-0.41564366,-1.2970328,0.62323624
alexnet_w1_mlp_simclrhn_probe0,1,98,NaN,cat,cat,180,0098_rot_dnn_180_cat_20_n02123394_6853.png,n02123394_6853.png,1.0,-1.971027,-4.8154964,2.0113437
alexnet_w1_mlp_simclrhn_probe0,1,99,NaN,knife,cat,180,0099_rot_dnn_180_cat_20_n02123597_4805.png,n02123597_4805.png,0.0,-8.271504,-2.2285326,-4.2730265
alexnet_w1_mlp_simclrhn_probe0,1,100,NaN,clock,car,0,0100_rot_dnn_0_car_20_n03100240_17587.png,n03100240_17587.png,0.0,-9.281017,-1.2917768,-5.649246
alexnet_w1_mlp_simclrhn_probe0,1,101,NaN,bird,bird,180,0101_rot_dnn_180_bird_20_n01601694_19236.png,n01601694_19236.png,1.0,-6.851968,-8.660715,1.2789775
alexnet_w1_mlp_simclrhn_probe0,1,102,NaN,cat,cat,0,0102_rot_dnn_0_cat_20_n02123597_2341.png,n02123597_2341.png,1.0,3.736536,-1.8803,3.971703
alexnet_w1_mlp_simclrhn_probe0,1,103,NaN,bear,elephant,270,0103_rot_dnn_270_elephant_20_n02504013_7883.png,n02504013_7883.png,0.0,-2.9456708,-2.1685953,-0.5494754
alexnet_w1_mlp_simclrhn_probe0,1,104,NaN,elephant,chair,270,0104_rot_dnn_270_chair_20_n03376595_14240.png,n03376595_14240.png,0.0,-7.9332056,-3.6513846,-3.027705
alexnet_w1_mlp_simclrhn_probe0,1,105,NaN,airplane,airplane,0,0105_rot_dnn_0_airplane_20_n02690373_10188.png,n02690373_10188.png,1.0,5.524619,0.2538775,3.726977
alexnet_w1_mlp_simclrhn_probe0,1,106,NaN,chair,truck,90,0106_rot_dnn_90_truck_20_n03417042_8634.png,n03417042_8634.png,0.0,-5.759957,-2.0321271,-2.6359737
alexnet_w1_mlp_simclrhn_probe0,1,107,NaN,knife,knife,90,0107_rot_dnn_90_knife_20_n03041632_32774.png,n03041632_32774.png,1.0,-2.1220613,-3.2666125,0.80932
alexnet_w1_mlp_simclrhn_probe0,1,108,NaN,knife,bottle,90,0108_rot_dnn_90_bottle_20_n03983396_4115.png,n03983396_4115.png,0.0,-3.547386,-3.2630801,-0.20103458
alexnet_w1_mlp_simclrhn_probe0,1,109,NaN,clock,clock,270,0109_rot_dnn_270_clock_20_n04548280_8552.png,n04548280_8552.png,1.0,-0.777595,-2.1827972,0.99362797
alexnet_w1_mlp_simclrhn_probe0,1,110,NaN,car,car,0,0110_rot_dnn_0_car_20_n02814533_6233.png,n02814533_6233.png,1.0,8.702908,1.2787845,5.2496476
alexnet_w1_mlp_simclrhn_probe0,1,111,NaN,elephant,elephant,0,0111_rot_dnn_0_elephant_20_n02504458_9870.png,n02504458_9870.png,1.0,1.2593246,-5.0294194,4.4468136
alexnet_w1_mlp_simclrhn_probe0,1,112,NaN,bicycle,bicycle,270,0112_rot_dnn_270_bicycle_20_n02835271_3956.png,n02835271_3956.png,1.0,-1.1345,-3.7609262,1.8571638
alexnet_w1_mlp_simclrhn_probe0,1,113,NaN,chair,knife,90,0113_rot_dnn_90_knife_20_n03041632_14817.png,n03041632_14817.png,0.0,-5.614024,-3.785215,-1.2931634
alexnet_w1_mlp_simclrhn_probe0,1,114,NaN,oven,chair,90,0114_rot_dnn_90_chair_20_n04099969_8642.png,n04099969_8642.png,0.0,-8.050728,-4.8980603,-2.2292726
alexnet_w1_mlp_simclrhn_probe0,1,115,NaN,clock,clock,0,0115_rot_dnn_0_clock_20_n02708093_240.png,n02708093_240.png,1.0,3.0815861,-0.019481149,2.1927857
alexnet_w1_mlp_simclrhn_probe0,1,116,NaN,bear,bear,180,0116_rot_dnn_180_bear_20_n02133161_3896.png,n02133161_3896.png,1.0,-2.8709087,-3.3595695,0.34553537
alexnet_w1_mlp_simclrhn_probe0,1,117,NaN,bicycle,bottle,270,0117_rot_dnn_270_bottle_20_n04557648_11000.png,n04557648_11000.png,0.0,-8.907186,-7.617462,-0.91197217
alexnet_w1_mlp_simclrhn_probe0,1,118,NaN,clock,keyboard,90,0118_rot_dnn_90_keyboard_20_n03085013_2853.png,n03085013_2853.png,0.0,-1.54004,2.5221035,-2.872369
alexnet_w1_mlp_simclrhn_probe0,1,119,NaN,knife,boat,90,0119_rot_dnn_90_boat_20_n04273569_7097.png,n04273569_7097.png,0.0,-5.790317,-3.5793505,-1.5633895
alexnet_w1_mlp_simclrhn_probe0,1,120,NaN,bicycle,bicycle,270,0120_rot_dnn_270_bicycle_20_n03792782_40932.png,n03792782_40932.png,1.0,-2.3988833,-7.453926,3.574455
alexnet_w1_mlp_simclrhn_probe0,1,121,NaN,oven,chair,270,0121_rot_dnn_270_chair_20_n04429376_44914.png,n04429376_44914.png,0.0,-4.597232,-3.913044,-0.4837939
alexnet_w1_mlp_simclrhn_probe0,1,122,NaN,knife,bear,180,0122_rot_dnn_180_bear_20_n02134418_2122.png,n02134418_2122.png,0.0,-9.253085,-5.887205,-2.3800366
alexnet_w1_mlp_simclrhn_probe0,1,123,NaN,knife,keyboard,90,0123_rot_dnn_90_keyboard_20_n03085013_22704.png,n03085013_22704.png,0.0,-6.4220448,-3.6980615,-1.9261471
alexnet_w1_mlp_simclrhn_probe0,1,124,NaN,truck,truck,0,0124_rot_dnn_0_truck_20_n03417042_6838.png,n03417042_6838.png,1.0,-2.0735738,-2.1371627,0.044964112
alexnet_w1_mlp_simclrhn_probe0,1,125,NaN,elephant,elephant,0,0125_rot_dnn_0_elephant_20_n02504458_3628.png,n02504458_3628.png,1.0,3.112193,-3.090544,4.3859973
alexnet_w1_mlp_simclrhn_probe0,1,126,NaN,cat,cat,90,0126_rot_dnn_90_cat_20_n02123597_10141.png,n02123597_10141.png,1.0,-3.3262799,-3.8727934,0.38644344
alexnet_w1_mlp_simclrhn_probe0,1,127,NaN,bicycle,bicycle,0,0127_rot_dnn_0_bicycle_20_n02835271_6383.png,n02835271_6383.png,1.0,1.1195532,-7.934578,6.402238
alexnet_w1_mlp_simclrhn_probe0,1,128,NaN,keyboard,car,180,0128_rot_dnn_180_car_20_n04285008_7154.png,n04285008_7154.png,0.0,-8.389974,-3.4098759,-3.521461
alexnet_w1_mlp_simclrhn_probe0,1,129,NaN,airplane,bird,0,0129_rot_dnn_0_bird_20_n02007558_1068.png,n02007558_1068.png,0.0,-4.1272497,3.5347548,-5.4178553
alexnet_w1_mlp_simclrhn_probe0,1,130,NaN,bird,cat,90,0130_rot_dnn_90_cat_20_n02125311_1896.png,n02125311_1896.png,0.0,-4.7018538,-3.8465333,-0.6048029
alexnet_w1_mlp_simclrhn_probe0,1,131,NaN,keyboard,keyboard,0,0131_rot_dnn_0_keyboard_20_n04505470_1903.png,n04505470_1903.png,1.0,14.705999,-1.7203072,11.615152
alexnet_w1_mlp_simclrhn_probe0,1,132,NaN,bicycle,bicycle,90,0132_rot_dnn_90_bicycle_20_n03792782_66159.png,n03792782_66159.png,1.0,-5.585519,-6.5783496,0.7020374
alexnet_w1_mlp_simclrhn_probe0,1,133,NaN,bear,bear,90,0133_rot_dnn_90_bear_20_n02134418_5219.png,n02134418_5219.png,1.0,1.7593299,-0.4634994,1.5717777
alexnet_w1_mlp_simclrhn_probe0,1,134,NaN,chair,car,90,0134_rot_dnn_90_car_20_n02814533_92229.png,n02814533_92229.png,0.0,-4.8688264,-3.614355,-0.8870452
alexnet_w1_mlp_simclrhn_probe0,1,135,NaN,cat,dog,90,0135_rot_dnn_90_dog_20_n02090721_1002.png,n02090721_1002.png,0.0,-4.469318,-1.150296,-2.3469028
alexnet_w1_mlp_simclrhn_probe0,1,136,NaN,bottle,truck,270,0136_rot_dnn_270_truck_20_n04467665_46263.png,n04467665_46263.png,0.0,-8.025089,-3.5114994,-3.19159
alexnet_w1_mlp_simclrhn_probe0,1,137,NaN,bottle,bottle,180,0137_rot_dnn_180_bottle_20_n03983396_704.png,n03983396_704.png,1.0,-2.6903274,-3.651329,0.6795308
alexnet_w1_mlp_simclrhn_probe0,1,138,NaN,oven,truck,180,0138_rot_dnn_180_truck_20_n03796401_4149.png,n03796401_4149.png,0.0,-8.567179,-4.5064783,-2.8713489
alexnet_w1_mlp_simclrhn_probe0,1,139,NaN,bird,bird,0,0139_rot_dnn_0_bird_20_n02006656_2030.png,n02006656_2030.png,1.0,-3.3117156,-4.9892197,1.1861745
alexnet_w1_mlp_simclrhn_probe0,1,140,NaN,cat,cat,90,0140_rot_dnn_90_cat_20_n02123394_234.png,n02123394_234.png,1.0,1.0211824,-1.64967,1.8885779
alexnet_w1_mlp_simclrhn_probe0,1,141,NaN,oven,chair,90,0141_rot_dnn_90_chair_20_n04429376_19916.png,n04429376_19916.png,0.0,-3.3910284,2.6376283,-4.262904
alexnet_w1_mlp_simclrhn_probe0,1,142,NaN,bottle,truck,270,0142_rot_dnn_270_truck_20_n04467665_14024.png,n04467665_14024.png,0.0,-5.8937044,-3.5761402,-1.6387655
alexnet_w1_mlp_simclrhn_probe0,1,143,NaN,keyboard,chair,90,0143_rot_dnn_90_chair_20_n04429376_14729.png,n04429376_14729.png,0.0,-5.067597,6.7377977,-8.347675
alexnet_w1_mlp_simclrhn_probe0,1,144,NaN,clock,car,270,0144_rot_dnn_270_car_20_n02814533_82321.png,n02814533_82321.png,0.0,-6.462525,-3.5709007,-2.044687
alexnet_w1_mlp_simclrhn_probe0,1,145,NaN,clock,clock,180,0145_rot_dnn_180_clock_20_n04548280_3701.png,n04548280_3701.png,1.0,-0.7740831,-2.203073,1.0104485
alexnet_w1_mlp_simclrhn_probe0,1,146,NaN,knife,boat,270,0146_rot_dnn_270_boat_20_n02951358_11442.png,n02951358_11442.png,0.0,-4.60608,-2.6903458,-1.3546287
alexnet_w1_mlp_simclrhn_probe0,1,147,NaN,bear,bear,90,0147_rot_dnn_90_bear_20_n02132136_17349.png,n02132136_17349.png,1.0,-1.638111,-3.762056,1.5018561
alexnet_w1_mlp_simclrhn_probe0,1,148,NaN,oven,airplane,90,0148_rot_dnn_90_airplane_20_n02690373_4982.png,n02690373_4982.png,0.0,-14.795747,-1.595046,-9.334305
alexnet_w1_mlp_simclrhn_probe0,1,149,NaN,airplane,airplane,0,0149_rot_dnn_0_airplane_20_n02690373_2232.png,n02690373_2232.png,1.0,-0.004786223,-2.5582843,1.8055958
alexnet_w1_mlp_simclrhn_probe0,1,150,NaN,cat,cat,180,0150_rot_dnn_180_cat_20_n02123045_909.png,n02123045_909.png,1.0,-3.817357,-4.195507,0.26739243
alexnet_w1_mlp_simclrhn_probe0,1,151,NaN,clock,clock,180,0151_rot_dnn_180_clock_20_n04548280_1190.png,n04548280_1190.png,1.0,4.007812,2.4603195,1.0942425
alexnet_w1_mlp_simclrhn_probe0,1,152,NaN,oven,oven,90,0152_rot_dnn_90_oven_20_n04111531_1855.png,n04111531_1855.png,1.0,-0.5056064,-3.1792889,1.890579
alexnet_w1_mlp_simclrhn_probe0,1,153,NaN,chair,boat,270,0153_rot_dnn_270_boat_20_n03662601_21408.png,n03662601_21408.png,0.0,-4.897961,-3.42484,-1.041654
alexnet_w1_mlp_simclrhn_probe0,1,154,NaN,knife,dog,90,0154_rot_dnn_90_dog_20_n02088364_15877.png,n02088364_15877.png,0.0,-4.6346016,-3.8487544,-0.5556779
alexnet_w1_mlp_simclrhn_probe0,1,155,NaN,knife,knife,90,0155_rot_dnn_90_knife_20_n03041632_15250.png,n03041632_15250.png,1.0,-2.279783,-5.190989,2.0585334
alexnet_w1_mlp_simclrhn_probe0,1,156,NaN,oven,oven,0,0156_rot_dnn_0_oven_20_n04111531_17006.png,n04111531_17006.png,1.0,0.3181528,-5.2902155,3.9657154
alexnet_w1_mlp_simclrhn_probe0,1,157,NaN,clock,clock,90,0157_rot_dnn_90_clock_20_n04548280_11763.png,n04548280_11763.png,1.0,-0.09739705,-2.105874,1.4202077
alexnet_w1_mlp_simclrhn_probe0,1,158,NaN,bird,bird,270,0158_rot_dnn_270_bird_20_n02028035_8327.png,n02028035_8327.png,1.0,-3.4360385,-4.6702785,0.87273955
alexnet_w1_mlp_simclrhn_probe0,1,159,NaN,bicycle,car,90,0159_rot_dnn_90_car_20_n04285008_5641.png,n04285008_5641.png,0.0,-9.609443,-5.6365547,-2.809256
alexnet_w1_mlp_simclrhn_probe0,1,160,NaN,clock,oven,90,0160_rot_dnn_90_oven_20_n04111531_10727.png,n04111531_10727.png,0.0,-1.1155734,-0.65644944,-0.3246497
alexnet_w1_mlp_simclrhn_probe0,1,161,NaN,oven,elephant,270,0161_rot_dnn_270_elephant_20_n02504458_1971.png,n02504458_1971.png,0.0,-7.2694817,-6.0406585,-0.86890924
alexnet_w1_mlp_simclrhn_probe0,1,162,NaN,bottle,bottle,180,0162_rot_dnn_180_bottle_20_n04560804_15941.png,n04560804_15941.png,1.0,-2.0052955,-6.4446745,3.1391149
alexnet_w1_mlp_simclrhn_probe0,1,163,NaN,elephant,elephant,0,0163_rot_dnn_0_elephant_20_n02504458_151.png,n02504458_151.png,1.0,10.537052,1.5044196,6.387036
alexnet_w1_mlp_simclrhn_probe0,1,164,NaN,bear,bear,180,0164_rot_dnn_180_bear_20_n02133161_15427.png,n02133161_15427.png,1.0,-1.4210364,-1.6909567,0.1908625
alexnet_w1_mlp_simclrhn_probe0,1,165,NaN,elephant,bear,180,0165_rot_dnn_180_bear_20_n02134084_20605.png,n02134084_20605.png,0.0,-6.7359295,-3.2753773,-2.44698
alexnet_w1_mlp_simclrhn_probe0,1,166,NaN,bottle,bottle,90,0166_rot_dnn_90_bottle_20_n04560804_2693.png,n04560804_2693.png,1.0,-4.963197,-6.532364,1.1095684
alexnet_w1_mlp_simclrhn_probe0,1,167,NaN,clock,airplane,270,0167_rot_dnn_270_airplane_20_n02690373_8214.png,n02690373_8214.png,0.0,-10.944987,-0.28128254,-7.540378
alexnet_w1_mlp_simclrhn_probe0,1,168,NaN,boat,boat,0,0168_rot_dnn_0_boat_20_n02951358_14966.png,n02951358_14966.png,1.0,-3.148351,-3.6048374,0.3227847
alexnet_w1_mlp_simclrhn_probe0,1,169,NaN,knife,knife,90,0169_rot_dnn_90_knife_20_n03041632_14801.png,n03041632_14801.png,1.0,-6.0336785,-6.2081537,0.12337259
alexnet_w1_mlp_simclrhn_probe0,1,170,NaN,cat,dog,90,0170_rot_dnn_90_dog_20_n02110063_8776.png,n02110063_8776.png,0.0,-6.1714807,-4.1874256,-1.4029388
alexnet_w1_mlp_simclrhn_probe0,1,171,NaN,bicycle,dog,180,0171_rot_dnn_180_dog_20_n02100236_7671.png,n02100236_7671.png,0.0,-6.7101145,-3.8707433,-2.0077386
alexnet_w1_mlp_simclrhn_probe0,1,172,NaN,oven,oven,0,0172_rot_dnn_0_oven_20_n04111531_21248.png,n04111531_21248.png,1.0,-1.8373859,-5.760602,2.7741327
alexnet_w1_mlp_simclrhn_probe0,1,173,NaN,oven,knife,270,0173_rot_dnn_270_knife_20_n03041632_17100.png,n03041632_17100.png,0.0,-4.497232,-1.02814,-2.4530184
alexnet_w1_mlp_simclrhn_probe0,1,174,NaN,knife,knife,0,0174_rot_dnn_0_knife_20_n03041632_3781.png,n03041632_3781.png,1.0,-4.5223274,-5.102829,0.4104766
alexnet_w1_mlp_simclrhn_probe0,1,175,NaN,chair,oven,270,0175_rot_dnn_270_oven_20_n04111531_46651.png,n04111531_46651.png,0.0,-7.2717667,-5.064928,-1.5604706
alexnet_w1_mlp_simclrhn_probe0,1,176,NaN,clock,clock,0,0176_rot_dnn_0_clock_20_n04548280_8303.png,n04548280_8303.png,1.0,0.24074747,-0.54856384,0.5581274
alexnet_w1_mlp_simclrhn_probe0,1,177,NaN,airplane,airplane,0,0177_rot_dnn_0_airplane_20_n02690373_2070.png,n02690373_2070.png,1.0,6.194359,-2.3809452,6.063656
alexnet_w1_mlp_simclrhn_probe0,1,178,NaN,car,car,180,0178_rot_dnn_180_car_20_n03100240_574.png,n03100240_574.png,1.0,-4.798649,-5.579099,0.55186176
alexnet_w1_mlp_simclrhn_probe0,1,179,NaN,cat,dog,90,0179_rot_dnn_90_dog_20_n02095570_11263.png,n02095570_11263.png,0.0,-5.2855763,-3.8619788,-1.0066355
alexnet_w1_mlp_simclrhn_probe0,1,180,NaN,bottle,bottle,180,0180_rot_dnn_180_bottle_20_n03983396_9667.png,n03983396_9667.png,1.0,-3.9757152,-4.1315875,0.11021839
alexnet_w1_mlp_simclrhn_probe0,1,181,NaN,clock,clock,0,0181_rot_dnn_0_clock_20_n02708093_3535.png,n02708093_3535.png,1.0,6.4086075,0.33104286,4.2974873
alexnet_w1_mlp_simclrhn_probe0,1,182,NaN,bird,bird,180,0182_rot_dnn_180_bird_20_n01531178_17239.png,n01531178_17239.png,1.0,-3.8241215,-5.938313,1.4949592
alexnet_w1_mlp_simclrhn_probe0,1,183,NaN,elephant,elephant,180,0183_rot_dnn_180_elephant_20_n02504458_2272.png,n02504458_2272.png,1.0,-4.0725493,-6.1360497,1.4591151
alexnet_w1_mlp_simclrhn_probe0,1,184,NaN,knife,knife,90,0184_rot_dnn_90_knife_20_n03041632_50648.png,n03041632_50648.png,1.0,1.5894014,-2.3607879,2.7932055
alexnet_w1_mlp_simclrhn_probe0,1,185,NaN,knife,knife,0,0185_rot_dnn_0_knife_20_n03041632_33225.png,n03041632_33225.png,1.0,-6.3390675,-8.829178,1.760774
alexnet_w1_mlp_simclrhn_probe0,1,186,NaN,airplane,airplane,0,0186_rot_dnn_0_airplane_20_n02690373_736.png,n02690373_736.png,1.0,6.567179,0.17685752,4.51864
alexnet_w1_mlp_simclrhn_probe0,1,187,NaN,knife,knife,270,0187_rot_dnn_270_knife_20_n03041632_2546.png,n03041632_2546.png,1.0,-4.7648754,-5.1298404,0.25806922
alexnet_w1_mlp_simclrhn_probe0,1,188,NaN,boat,boat,180,0188_rot_dnn_180_boat_20_n04273569_13053.png,n04273569_13053.png,1.0,-0.35144773,-1.7898057,1.0170727
alexnet_w1_mlp_simclrhn_probe0,1,189,NaN,car,airplane,180,0189_rot_dnn_180_airplane_20_n02690373_3588.png,n02690373_3588.png,0.0,-1.2996634,-0.51407653,-0.55549383
alexnet_w1_mlp_simclrhn_probe0,1,190,NaN,cat,keyboard,0,0190_rot_dnn_0_keyboard_20_n03085013_21004.png,n03085013_21004.png,0.0,-8.390718,-0.4607426,-5.60734
alexnet_w1_mlp_simclrhn_probe0,1,191,NaN,boat,boat,180,0191_rot_dnn_180_boat_20_n03662601_16627.png,n03662601_16627.png,1.0,-5.2601852,-5.5913334,0.2341571
alexnet_w1_mlp_simclrhn_probe0,1,192,NaN,elephant,bird,180,0192_rot_dnn_180_bird_20_n02017213_6478.png,n02017213_6478.png,0.0,-4.8483443,-2.0756183,-1.9606135
alexnet_w1_mlp_simclrhn_probe0,1,193,NaN,bear,bear,90,0193_rot_dnn_90_bear_20_n02134418_998.png,n02134418_998.png,1.0,-1.719862,-4.32873,1.8447484
alexnet_w1_mlp_simclrhn_probe0,1,194,NaN,bicycle,truck,90,0194_rot_dnn_90_truck_20_n04467665_71055.png,n04467665_71055.png,0.0,-10.275706,-3.4921484,-4.7967
alexnet_w1_mlp_simclrhn_probe0,1,195,NaN,knife,car,90,0195_rot_dnn_90_car_20_n02814533_23979.png,n02814533_23979.png,0.0,-5.979603,-1.2972126,-3.31095
alexnet_w1_mlp_simclrhn_probe0,1,196,NaN,bear,elephant,180,0196_rot_dnn_180_elephant_20_n02504458_6805.png,n02504458_6805.png,0.0,-3.8844588,-3.4191332,-0.3290349
alexnet_w1_mlp_simclrhn_probe0,1,197,NaN,clock,clock,90,0197_rot_dnn_90_clock_20_n04548280_4841.png,n04548280_4841.png,1.0,-0.06281221,-1.7278074,1.1773294
alexnet_w1_mlp_simclrhn_probe0,1,198,NaN,knife,boat,90,0198_rot_dnn_90_boat_20_n03662601_6832.png,n03662601_6832.png,0.0,-4.7998786,-2.4097703,-1.6900618
alexnet_w1_mlp_simclrhn_probe0,1,199,NaN,oven,oven,270,0199_rot_dnn_270_oven_20_n04111531_766.png,n04111531_766.png,1.0,0.26754937,-4.996356,3.7221434
alexnet_w1_mlp_simclrhn_probe0,1,200,NaN,bicycle,clock,0,0200_rot_dnn_0_clock_20_n04548280_1305.png,n04548280_1305.png,0.0,-8.985215,-5.8876715,-2.1902943
alexnet_w1_mlp_simclrhn_probe0,1,201,NaN,bicycle,bicycle,0,0201_rot_dnn_0_bicycle_20_n03792782_19083.png,n03792782_19083.png,1.0,-1.2072365,-6.287095,3.5920026
alexnet_w1_mlp_simclrhn_probe0,1,202,NaN,knife,bird,90,0202_rot_dnn_90_bird_20_n01860187_20081.png,n01860187_20081.png,0.0,-5.7494297,-5.0688386,-0.48125058
alexnet_w1_mlp_simclrhn_probe0,1,203,NaN,oven,oven,0,0203_rot_dnn_0_oven_20_n04111531_4817.png,n04111531_4817.png,1.0,-2.4867306,-4.623185,1.5107015
alexnet_w1_mlp_simclrhn_probe0,1,204,NaN,car,car,180,0204_rot_dnn_180_car_20_n02814533_33360.png,n02814533_33360.png,1.0,-3.0419233,-5.4546714,1.7060705
alexnet_w1_mlp_simclrhn_probe0,1,205,NaN,clock,clock,270,0205_rot_dnn_270_clock_20_n04548280_4035.png,n04548280_4035.png,1.0,0.018707812,-2.4977827,1.7794275
alexnet_w1_mlp_simclrhn_probe0,1,206,NaN,keyboard,keyboard,270,0206_rot_dnn_270_keyboard_20_n03085013_7879.png,n03085013_7879.png,1.0,-0.21145535,-2.491635,1.6123306
alexnet_w1_mlp_simclrhn_probe0,1,207,NaN,airplane,airplane,0,0207_rot_dnn_0_airplane_20_n02690373_2598.png,n02690373_2598.png,1.0,3.9294875,-2.2716594,4.3848734
alexnet_w1_mlp_simclrhn_probe0,1,208,NaN,cat,cat,180,0208_rot_dnn_180_cat_20_n02123045_436.png,n02123045_436.png,1.0,-2.503085,-5.9263363,2.4206042
alexnet_w1_mlp_simclrhn_probe0,1,209,NaN,knife,airplane,270,0209_rot_dnn_270_airplane_20_n02690373_813.png,n02690373_813.png,0.0,-7.1261,-2.4780104,-3.2866955
alexnet_w1_mlp_simclrhn_probe0,1,210,NaN,cat,cat,0,0210_rot_dnn_0_cat_20_n02123159_1008.png,n02123159_1008.png,1.0,6.8439727,-8.475294,10.832358
alexnet_w1_mlp_simclrhn_probe0,1,211,NaN,bottle,bottle,90,0211_rot_dnn_90_bottle_20_n03983396_5452.png,n03983396_5452.png,1.0,-6.110961,-8.054383,1.3742071
alexnet_w1_mlp_simclrhn_probe0,1,212,NaN,knife,dog,90,0212_rot_dnn_90_dog_20_n02090379_13010.png,n02090379_13010.png,0.0,-8.164811,-6.0940766,-1.4642304
alexnet_w1_mlp_simclrhn_probe0,1,213,NaN,car,chair,180,0213_rot_dnn_180_chair_20_n04099969_4162.png,n04099969_4162.png,0.0,-4.2848654,-3.316151,-0.68498456
alexnet_w1_mlp_simclrhn_probe0,1,214,NaN,oven,keyboard,270,0214_rot_dnn_270_keyboard_20_n04505470_206.png,n04505470_206.png,0.0,-3.6376953,0.7154718,-3.078154
alexnet_w1_mlp_simclrhn_probe0,1,215,NaN,keyboard,cat,0,0215_rot_dnn_0_cat_20_n02123045_5290.png,n02123045_5290.png,0.0,-11.331758,-7.6952147,-2.571424
alexnet_w1_mlp_simclrhn_probe0,1,216,NaN,knife,bird,180,0216_rot_dnn_180_bird_20_n01843383_6001.png,n01843383_6001.png,0.0,-6.9573646,-3.4210382,-2.5005605
alexnet_w1_mlp_simclrhn_probe0,1,217,NaN,knife,knife,0,0217_rot_dnn_0_knife_20_n03041632_24376.png,n03041632_24376.png,1.0,-5.6458364,-5.725035,0.056002036
alexnet_w1_mlp_simclrhn_probe0,1,218,NaN,bicycle,bicycle,90,0218_rot_dnn_90_bicycle_20_n02835271_2915.png,n02835271_2915.png,1.0,-4.98104,-6.9006386,1.3573612
alexnet_w1_mlp_simclrhn_probe0,1,219,NaN,bicycle,bicycle,0,0219_rot_dnn_0_bicycle_20_n03792782_5517.png,n03792782_5517.png,1.0,3.0939488,-6.53001,6.8051667
alexnet_w1_mlp_simclrhn_probe0,1,220,NaN,bicycle,bicycle,90,0220_rot_dnn_90_bicycle_20_n02835271_7053.png,n02835271_7053.png,1.0,-2.8703742,-9.345166,4.5783696
alexnet_w1_mlp_simclrhn_probe0,1,221,NaN,clock,clock,180,0221_rot_dnn_180_clock_20_n04548280_7115.png,n04548280_7115.png,1.0,-1.765994,-5.2906876,2.4923346
alexnet_w1_mlp_simclrhn_probe0,1,222,NaN,bicycle,boat,270,0222_rot_dnn_270_boat_20_n04273569_29866.png,n04273569_29866.png,0.0,-6.005494,-5.1843834,-0.58061296
alexnet_w1_mlp_simclrhn_probe0,1,223,NaN,clock,clock,90,0223_rot_dnn_90_clock_20_n02708093_3623.png,n02708093_3623.png,1.0,-3.2723796,-6.4548383,2.250338
alexnet_w1_mlp_simclrhn_probe0,1,224,NaN,cat,bear,180,0224_rot_dnn_180_bear_20_n02132136_7468.png,n02132136_7468.png,0.0,-4.396677,-3.6407757,-0.534503
alexnet_w1_mlp_simclrhn_probe0,1,225,NaN,cat,cat,0,0225_rot_dnn_0_cat_20_n02123159_2137.png,n02123159_2137.png,1.0,-3.3694785,-4.2162423,0.5987525
alexnet_w1_mlp_simclrhn_probe0,1,226,NaN,knife,bottle,90,0226_rot_dnn_90_bottle_20_n03937543_5257.png,n03937543_5257.png,0.0,-6.096145,-4.7015595,-0.98612094
alexnet_w1_mlp_simclrhn_probe0,1,227,NaN,cat,cat,0,0227_rot_dnn_0_cat_20_n02123394_937.png,n02123394_937.png,1.0,-2.253856,-4.885242,1.8606709
alexnet_w1_mlp_simclrhn_probe0,1,228,NaN,boat,boat,0,0228_rot_dnn_0_boat_20_n03662601_11764.png,n03662601_11764.png,1.0,2.041008,0.4138845,1.15055
alexnet_w1_mlp_simclrhn_probe0,1,229,NaN,bear,bear,0,0229_rot_dnn_0_bear_20_n02132136_10412.png,n02132136_10412.png,1.0,0.9480702,-1.4130807,1.669586
alexnet_w1_mlp_simclrhn_probe0,1,230,NaN,clock,clock,270,0230_rot_dnn_270_clock_20_n03196217_3600.png,n03196217_3600.png,1.0,1.7182341,0.45941344,0.8901206
alexnet_w1_mlp_simclrhn_probe0,1,231,NaN,oven,dog,270,0231_rot_dnn_270_dog_20_n02102177_255.png,n02102177_255.png,0.0,-7.0072336,-5.458077,-1.0954192
alexnet_w1_mlp_simclrhn_probe0,1,232,NaN,bird,bird,270,0232_rot_dnn_270_bird_20_n01614925_1860.png,n01614925_1860.png,1.0,-5.03078,-7.1034775,1.4656186
alexnet_w1_mlp_simclrhn_probe0,1,233,NaN,knife,airplane,180,0233_rot_dnn_180_airplane_20_n02690373_1021.png,n02690373_1021.png,0.0,-4.204942,-2.69498,-1.0677046
alexnet_w1_mlp_simclrhn_probe0,1,234,NaN,chair,chair,180,0234_rot_dnn_180_chair_20_n03376595_9079.png,n03376595_9079.png,1.0,-1.5272601,-1.5410895,0.009778912
alexnet_w1_mlp_simclrhn_probe0,1,235,NaN,car,chair,90,0235_rot_dnn_90_chair_20_n02791124_5199.png,n02791124_5199.png,0.0,-5.642514,-3.257656,-1.6863494
alexnet_w1_mlp_simclrhn_probe0,1,236,NaN,bottle,keyboard,90,0236_rot_dnn_90_keyboard_20_n03085013_24294.png,n03085013_24294.png,0.0,-7.415574,-4.511419,-2.0535479
alexnet_w1_mlp_simclrhn_probe0,1,237,NaN,cat,cat,0,0237_rot_dnn_0_cat_20_n02123597_13286.png,n02123597_13286.png,1.0,-1.7720413,-5.167683,2.4010813
alexnet_w1_mlp_simclrhn_probe0,1,238,NaN,bird,bird,180,0238_rot_dnn_180_bird_20_n01560419_17392.png,n01560419_17392.png,1.0,-6.161136,-8.018723,1.313512
alexnet_w1_mlp_simclrhn_probe0,1,239,NaN,oven,oven,270,0239_rot_dnn_270_oven_20_n04111531_6934.png,n04111531_6934.png,1.0,0.49598944,-1.1068604,1.133386
alexnet_w1_mlp_simclrhn_probe0,1,240,NaN,clock,clock,90,0240_rot_dnn_90_clock_20_n03196217_6707.png,n03196217_6707.png,1.0,-3.0575116,-3.2210147,0.115614206
alexnet_w1_mlp_simclrhn_probe0,1,241,NaN,knife,knife,180,0241_rot_dnn_180_knife_20_n03041632_15174.png,n03041632_15174.png,1.0,-5.429563,-6.0644813,0.44895497
alexnet_w1_mlp_simclrhn_probe0,1,242,NaN,oven,oven,180,0242_rot_dnn_180_oven_20_n04111531_13644.png,n04111531_13644.png,1.0,1.5989788,-4.746507,4.486936
alexnet_w1_mlp_simclrhn_probe0,1,243,NaN,elephant,elephant,0,0243_rot_dnn_0_elephant_20_n02504458_3458.png,n02504458_3458.png,1.0,6.3735123,-5.0853176,8.102616
alexnet_w1_mlp_simclrhn_probe0,1,244,NaN,clock,clock,90,0244_rot_dnn_90_clock_20_n04548280_18914.png,n04548280_18914.png,1.0,3.596194,-0.097398594,2.6117644
alexnet_w1_mlp_simclrhn_probe0,1,245,NaN,dog,dog,180,0245_rot_dnn_180_dog_20_n02107908_2754.png,n02107908_2754.png,1.0,-6.2972326,-7.197955,0.636907
alexnet_w1_mlp_simclrhn_probe0,1,246,NaN,airplane,airplane,0,0246_rot_dnn_0_airplane_20_n02690373_1306.png,n02690373_1306.png,1.0,6.4331064,0.011304331,4.5408998
alexnet_w1_mlp_simclrhn_probe0,1,247,NaN,chair,chair,90,0247_rot_dnn_90_chair_20_n03376595_10266.png,n03376595_10266.png,1.0,-2.6112914,-4.0870833,1.0435425
alexnet_w1_mlp_simclrhn_probe0,1,248,NaN,keyboard,keyboard,270,0248_rot_dnn_270_keyboard_20_n04505470_1416.png,n04505470_1416.png,1.0,3.245009,0.117289744,2.2116315
alexnet_w1_mlp_simclrhn_probe0,1,249,NaN,clock,clock,180,0249_rot_dnn_180_clock_20_n04548280_4686.png,n04548280_4686.png,1.0,3.8987846,-1.7290652,3.9794908
alexnet_w1_mlp_simclrhn_probe0,1,250,NaN,bottle,truck,270,0250_rot_dnn_270_truck_20_n04467665_69882.png,n04467665_69882.png,0.0,-12.414606,-3.9688148,-5.9720764
alexnet_w1_mlp_simclrhn_probe0,1,251,NaN,knife,bottle,270,0251_rot_dnn_270_bottle_20_n04591713_2123.png,n04591713_2123.png,0.0,-7.413857,-1.1642362,-4.4191494
alexnet_w1_mlp_simclrhn_probe0,1,252,NaN,oven,oven,90,0252_rot_dnn_90_oven_20_n04111531_6933.png,n04111531_6933.png,1.0,-2.0125713,-5.3066244,2.3292472
alexnet_w1_mlp_simclrhn_probe0,1,253,NaN,knife,car,270,0253_rot_dnn_270_car_20_n03100240_8898.png,n03100240_8898.png,0.0,-10.998927,-3.1355338,-5.560259
alexnet_w1_mlp_simclrhn_probe0,1,254,NaN,cat,elephant,180,0254_rot_dnn_180_elephant_20_n02504458_5277.png,n02504458_5277.png,0.0,-7.934494,-3.4806201,-3.1493642
alexnet_w1_mlp_simclrhn_probe0,1,255,NaN,oven,truck,270,0255_rot_dnn_270_truck_20_n03417042_9967.png,n03417042_9967.png,0.0,-3.8461509,-1.0812099,-1.9551085
alexnet_w1_mlp_simclrhn_probe0,1,256,NaN,bear,bear,0,0256_rot_dnn_0_bear_20_n02134418_1017.png,n02134418_1017.png,1.0,-3.448283,-6.2559013,1.985286
alexnet_w1_mlp_simclrhn_probe0,1,257,NaN,knife,airplane,90,0257_rot_dnn_90_airplane_20_n02690373_1909.png,n02690373_1909.png,0.0,-8.312798,-3.6568682,-3.2922394
alexnet_w1_mlp_simclrhn_probe0,1,258,NaN,airplane,airplane,0,0258_rot_dnn_0_airplane_20_n02690373_6753.png,n02690373_6753.png,1.0,6.5059137,-2.6803112,6.495642
alexnet_w1_mlp_simclrhn_probe0,1,259,NaN,airplane,airplane,0,0259_rot_dnn_0_airplane_20_n02690373_1972.png,n02690373_1972.png,1.0,4.8769736,0.65523577,2.9852195
alexnet_w1_mlp_simclrhn_probe0,1,260,NaN,oven,oven,90,0260_rot_dnn_90_oven_20_n04111531_9915.png,n04111531_9915.png,1.0,-0.5219848,-4.3248787,2.689052
alexnet_w1_mlp_simclrhn_probe0,1,261,NaN,elephant,elephant,270,0261_rot_dnn_270_elephant_20_n02504458_485.png,n02504458_485.png,1.0,-2.1395159,-7.1800737,3.5642128
alexnet_w1_mlp_simclrhn_probe0,1,262,NaN,cat,elephant,180,0262_rot_dnn_180_elephant_20_n02504013_2431.png,n02504013_2431.png,0.0,-5.8329234,-2.4649398,-2.381524
alexnet_w1_mlp_simclrhn_probe0,1,263,NaN,car,clock,180,0263_rot_dnn_180_clock_20_n02708093_1038.png,n02708093_1038.png,0.0,-4.302586,-3.8284466,-0.33526722
alexnet_w1_mlp_simclrhn_probe0,1,264,NaN,cat,cat,270,0264_rot_dnn_270_cat_20_n02123597_5927.png,n02123597_5927.png,1.0,-3.1106627,-4.0532026,0.66647637
alexnet_w1_mlp_simclrhn_probe0,1,265,NaN,bicycle,bicycle,90,0265_rot_dnn_90_bicycle_20_n03792782_3202.png,n03792782_3202.png,1.0,-2.8665223,-5.2150006,1.660625
alexnet_w1_mlp_simclrhn_probe0,1,266,NaN,chair,car,270,0266_rot_dnn_270_car_20_n02814533_45480.png,n02814533_45480.png,0.0,-9.281287,-2.3378937,-4.909721
alexnet_w1_mlp_simclrhn_probe0,1,267,NaN,clock,truck,90,0267_rot_dnn_90_truck_20_n03796401_4571.png,n03796401_4571.png,0.0,-3.1992164,-2.0601113,-0.8054689
alexnet_w1_mlp_simclrhn_probe0,1,268,NaN,bottle,oven,90,0268_rot_dnn_90_oven_20_n04111531_21011.png,n04111531_21011.png,0.0,-4.2069087,-3.8855577,-0.2272295
alexnet_w1_mlp_simclrhn_probe0,1,269,NaN,airplane,airplane,0,0269_rot_dnn_0_airplane_20_n02690373_4310.png,n02690373_4310.png,1.0,8.636395,-2.2212815,7.6775374
alexnet_w1_mlp_simclrhn_probe0,1,270,NaN,oven,oven,0,0270_rot_dnn_0_oven_20_n04111531_7134.png,n04111531_7134.png,1.0,-3.9820108,-4.939309,0.6769121
alexnet_w1_mlp_simclrhn_probe0,1,271,NaN,cat,dog,270,0271_rot_dnn_270_dog_20_n02105251_1092.png,n02105251_1092.png,0.0,-5.2244787,-3.8646507,-0.9615436
alexnet_w1_mlp_simclrhn_probe0,1,272,NaN,knife,knife,180,0272_rot_dnn_180_knife_20_n03041632_34505.png,n03041632_34505.png,1.0,-2.548522,-2.7129834,0.116291754
alexnet_w1_mlp_simclrhn_probe0,1,273,NaN,keyboard,keyboard,90,0273_rot_dnn_90_keyboard_20_n04505470_4520.png,n04505470_4520.png,1.0,0.3486572,-2.6963494,2.1531448
alexnet_w1_mlp_simclrhn_probe0,1,274,NaN,oven,boat,180,0274_rot_dnn_180_boat_20_n03344393_1519.png,n03344393_1519.png,0.0,-5.452176,-1.809557,-2.5757208
alexnet_w1_mlp_simclrhn_probe0,1,275,NaN,knife,chair,270,0275_rot_dnn_270_chair_20_n03376595_9535.png,n03376595_9535.png,0.0,-4.587159,-2.8050478,-1.260143
alexnet_w1_mlp_simclrhn_probe0,1,276,NaN,bicycle,cat,270,0276_rot_dnn_270_cat_20_n02125311_1326.png,n02125311_1326.png,0.0,-9.47892,-5.2154875,-3.014702
alexnet_w1_mlp_simclrhn_probe0,1,277,NaN,cat,cat,90,0277_rot_dnn_90_cat_20_n02123394_2948.png,n02123394_2948.png,1.0,-1.0117491,-4.0355587,2.1381562
alexnet_w1_mlp_simclrhn_probe0,1,278,NaN,oven,oven,270,0278_rot_dnn_270_oven_20_n04111531_5429.png,n04111531_5429.png,1.0,1.7610304,-0.8849603,1.8709981
alexnet_w1_mlp_simclrhn_probe0,1,279,NaN,elephant,elephant,0,0279_rot_dnn_0_elephant_20_n02504013_6645.png,n02504013_6645.png,1.0,-0.0015802234,-1.4953326,1.0562425
alexnet_w1_mlp_simclrhn_probe0,1,280,NaN,oven,keyboard,90,0280_rot_dnn_90_keyboard_20_n04505470_4159.png,n04505470_4159.png,0.0,-7.19362,-1.8120217,-3.8053648
alexnet_w1_mlp_simclrhn_probe0,1,281,NaN,bottle,bottle,90,0281_rot_dnn_90_bottle_20_n02823428_6252.png,n02823428_6252.png,1.0,-3.9642937,-5.0434847,0.76310325
alexnet_w1_mlp_simclrhn_probe0,1,282,NaN,airplane,airplane,180,0282_rot_dnn_180_airplane_20_n02690373_15097.png,n02690373_15097.png,1.0,0.7561897,-2.8820057,2.5725927
alexnet_w1_mlp_simclrhn_probe0,1,283,NaN,chair,cat,0,0283_rot_dnn_0_cat_20_n02123159_3420.png,n02123159_3420.png,0.0,-10.584268,-5.4386196,-3.6385226
alexnet_w1_mlp_simclrhn_probe0,1,284,NaN,elephant,cat,0,0284_rot_dnn_0_cat_20_n02124075_7835.png,n02124075_7835.png,0.0,-5.6623607,-5.2797422,-0.2705521
alexnet_w1_mlp_simclrhn_probe0,1,285,NaN,oven,cat,90,0285_rot_dnn_90_cat_20_n02123045_6696.png,n02123045_6696.png,0.0,-6.9679446,-6.5370884,-0.30466136
alexnet_w1_mlp_simclrhn_probe0,1,286,NaN,bicycle,boat,180,0286_rot_dnn_180_boat_20_n02951358_34766.png,n02951358_34766.png,0.0,-6.967505,-3.1944735,-2.667936
alexnet_w1_mlp_simclrhn_probe0,1,287,NaN,elephant,bird,0,0287_rot_dnn_0_bird_20_n01855672_8191.png,n01855672_8191.png,0.0,-7.0434313,-1.8514657,-3.6712742
alexnet_w1_mlp_simclrhn_probe0,1,288,NaN,clock,truck,180,0288_rot_dnn_180_truck_20_n03796401_1150.png,n03796401_1150.png,0.0,-3.3670168,-0.5178441,-2.0146692
alexnet_w1_mlp_simclrhn_probe0,1,289,NaN,bicycle,bicycle,270,0289_rot_dnn_270_bicycle_20_n03792782_9782.png,n03792782_9782.png,1.0,-4.9906454,-7.5042257,1.7773697
alexnet_w1_mlp_simclrhn_probe0,1,290,NaN,knife,boat,270,0290_rot_dnn_270_boat_20_n03662601_12969.png,n03662601_12969.png,0.0,-6.5101357,-0.64989555,-4.1438155
alexnet_w1_mlp_simclrhn_probe0,1,291,NaN,bottle,bottle,180,0291_rot_dnn_180_bottle_20_n02823428_4530.png,n02823428_4530.png,1.0,-3.5926106,-3.7536678,0.113884665
alexnet_w1_mlp_simclrhn_probe0,1,292,NaN,chair,chair,0,0292_rot_dnn_0_chair_20_n02791124_2898.png,n02791124_2898.png,1.0,-4.496911,-5.626959,0.79906446
alexnet_w1_mlp_simclrhn_probe0,1,293,NaN,cat,cat,270,0293_rot_dnn_270_cat_20_n02123394_686.png,n02123394_686.png,1.0,-1.3999643,-2.8471503,1.0233151
alexnet_w1_mlp_simclrhn_probe0,1,294,NaN,cat,dog,180,0294_rot_dnn_180_dog_20_n02100735_4364.png,n02100735_4364.png,0.0,-5.2281084,-5.1992717,-0.020390647
alexnet_w1_mlp_simclrhn_probe0,1,295,NaN,bear,dog,0,0295_rot_dnn_0_dog_20_n02102177_7968.png,n02102177_7968.png,0.0,-2.9115088,1.9610512,-3.4454203
alexnet_w1_mlp_simclrhn_probe0,1,296,NaN,bottle,knife,270,0296_rot_dnn_270_knife_20_n03041632_15099.png,n03041632_15099.png,0.0,-6.2812023,-6.0859947,-0.13803262
alexnet_w1_mlp_simclrhn_probe0,1,297,NaN,oven,oven,180,0297_rot_dnn_180_oven_20_n04111531_2937.png,n04111531_2937.png,1.0,1.365179,-2.043003,2.4099488
alexnet_w1_mlp_simclrhn_probe0,1,298,NaN,cat,cat,0,0298_rot_dnn_0_cat_20_n02123394_3695.png,n02123394_3695.png,1.0,-2.8315945,-4.0230527,0.8424882
alexnet_w1_mlp_simclrhn_probe0,1,299,NaN,bottle,bear,180,0299_rot_dnn_180_bear_20_n02134084_3696.png,n02134084_3696.png,0.0,-8.498173,-5.0474467,-2.4400318
alexnet_w1_mlp_simclrhn_probe0,1,300,NaN,knife,oven,270,0300_rot_dnn_270_oven_20_n04111531_4671.png,n04111531_4671.png,0.0,-6.2502956,-5.24888,-0.7081079
alexnet_w1_mlp_simclrhn_probe0,1,301,NaN,bear,bear,180,0301_rot_dnn_180_bear_20_n02133161_2741.png,n02133161_2741.png,1.0,-3.702936,-4.9374843,0.8729575
alexnet_w1_mlp_simclrhn_probe0,1,302,NaN,clock,boat,90,0302_rot_dnn_90_boat_20_n03662601_3893.png,n03662601_3893.png,0.0,-8.3983965,-4.1410866,-3.0103729
alexnet_w1_mlp_simclrhn_probe0,1,303,NaN,truck,boat,90,0303_rot_dnn_90_boat_20_n03344393_2790.png,n03344393_2790.png,0.0,-7.345002,-4.4683123,-2.034127
alexnet_w1_mlp_simclrhn_probe0,1,304,NaN,airplane,keyboard,180,0304_rot_dnn_180_keyboard_20_n03085013_3920.png,n03085013_3920.png,0.0,-1.1773418,1.0923477,-1.6049129
alexnet_w1_mlp_simclrhn_probe0,1,305,NaN,oven,chair,90,0305_rot_dnn_90_chair_20_n04099969_1962.png,n04099969_1962.png,0.0,-2.0438666,-1.4512938,-0.41901225
alexnet_w1_mlp_simclrhn_probe0,1,306,NaN,airplane,knife,0,0306_rot_dnn_0_knife_20_n03041632_13846.png,n03041632_13846.png,0.0,-4.6618686,-4.0050163,-0.4644647
alexnet_w1_mlp_simclrhn_probe0,1,307,NaN,bicycle,boat,0,0307_rot_dnn_0_boat_20_n02951358_30117.png,n02951358_30117.png,0.0,-6.005277,-2.517075,-2.4665315
alexnet_w1_mlp_simclrhn_probe0,1,308,NaN,elephant,elephant,270,0308_rot_dnn_270_elephant_20_n02504458_9922.png,n02504458_9922.png,1.0,-5.2584715,-5.7041206,0.31512153
alexnet_w1_mlp_simclrhn_probe0,1,309,NaN,airplane,boat,180,0309_rot_dnn_180_boat_20_n03344393_5609.png,n03344393_5609.png,0.0,-4.223649,-0.8522494,-2.3839395
alexnet_w1_mlp_simclrhn_probe0,1,310,NaN,chair,chair,0,0310_rot_dnn_0_chair_20_n02791124_3180.png,n02791124_3180.png,1.0,-2.8960173,-4.1230187,0.86762106
alexnet_w1_mlp_simclrhn_probe0,1,311,NaN,elephant,boat,90,0311_rot_dnn_90_boat_20_n02951358_12532.png,n02951358_12532.png,0.0,-5.725459,-1.261303,-3.156635
alexnet_w1_mlp_simclrhn_probe0,1,312,NaN,cat,cat,180,0312_rot_dnn_180_cat_20_n02123597_1901.png,n02123597_1901.png,1.0,-3.907362,-4.8270464,0.6503151
alexnet_w1_mlp_simclrhn_probe0,1,313,NaN,cat,elephant,270,0313_rot_dnn_270_elephant_20_n02504013_5173.png,n02504013_5173.png,0.0,-5.8920727,-4.805984,-0.7679807
alexnet_w1_mlp_simclrhn_probe0,1,314,NaN,clock,car,180,0314_rot_dnn_180_car_20_n04285008_4834.png,n04285008_4834.png,0.0,-5.835974,-1.7888397,-2.8617563
alexnet_w1_mlp_simclrhn_probe0,1,315,NaN,chair,truck,270,0315_rot_dnn_270_truck_20_n03417042_28584.png,n03417042_28584.png,0.0,-4.870164,-3.7473564,-0.79394484
alexnet_w1_mlp_simclrhn_probe0,1,316,NaN,cat,dog,180,0316_rot_dnn_180_dog_20_n02093428_11151.png,n02093428_11151.png,0.0,-7.7531548,-4.6414533,-2.2003052
alexnet_w1_mlp_simclrhn_probe0,1,317,NaN,bear,bicycle,90,0317_rot_dnn_90_bicycle_20_n03792782_1475.png,n03792782_1475.png,0.0,-8.134176,-5.704048,-1.7183601
alexnet_w1_mlp_simclrhn_probe0,1,318,NaN,oven,knife,0,0318_rot_dnn_0_knife_20_n03041632_8666.png,n03041632_8666.png,0.0,-6.7575088,-6.485789,-0.192135
alexnet_w1_mlp_simclrhn_probe0,1,319,NaN,clock,clock,0,0319_rot_dnn_0_clock_20_n04548280_253.png,n04548280_253.png,1.0,0.14907031,-0.42544726,0.40624526
alexnet_w1_mlp_simclrhn_probe0,1,320,NaN,airplane,airplane,180,0320_rot_dnn_180_airplane_20_n02690373_9441.png,n02690373_9441.png,1.0,3.5590992,-1.2610674,3.4083726
alexnet_w1_mlp_simclrhn_probe0,1,321,NaN,bicycle,airplane,270,0321_rot_dnn_270_airplane_20_n02690373_1946.png,n02690373_1946.png,0.0,-9.180481,-3.7790444,-3.8193927
alexnet_w1_mlp_simclrhn_probe0,1,322,NaN,bottle,car,90,0322_rot_dnn_90_car_20_n03100240_5044.png,n03100240_5044.png,0.0,-5.873647,-3.528294,-1.6584151
alexnet_w1_mlp_simclrhn_probe0,1,323,NaN,cat,dog,270,0323_rot_dnn_270_dog_20_n02111500_6559.png,n02111500_6559.png,0.0,-3.221069,-2.5804632,-0.4529768
alexnet_w1_mlp_simclrhn_probe0,1,324,NaN,bear,dog,270,0324_rot_dnn_270_dog_20_n02096051_1852.png,n02096051_1852.png,0.0,-5.3837075,-4.8563266,-0.37291464
alexnet_w1_mlp_simclrhn_probe0,1,325,NaN,elephant,bear,270,0325_rot_dnn_270_bear_20_n02133161_5020.png,n02133161_5020.png,0.0,-2.3648803,0.033616677,-1.6959935
alexnet_w1_mlp_simclrhn_probe0,1,326,NaN,oven,chair,90,0326_rot_dnn_90_chair_20_n02791124_2034.png,n02791124_2034.png,0.0,-5.242856,-4.7487297,-0.34940007
alexnet_w1_mlp_simclrhn_probe0,1,327,NaN,clock,clock,180,0327_rot_dnn_180_clock_20_n03196217_6526.png,n03196217_6526.png,1.0,-1.3708907,-2.9090168,1.0876194
alexnet_w1_mlp_simclrhn_probe0,1,328,NaN,oven,oven,180,0328_rot_dnn_180_oven_20_n04111531_9779.png,n04111531_9779.png,1.0,-3.6026947,-3.8844187,0.19920893
alexnet_w1_mlp_simclrhn_probe0,1,329,NaN,boat,boat,0,0329_rot_dnn_0_boat_20_n03662601_28640.png,n03662601_28640.png,1.0,2.3956356,-3.6549306,4.2783966
alexnet_w1_mlp_simclrhn_probe0,1,330,NaN,knife,knife,90,0330_rot_dnn_90_knife_20_n03041632_31301.png,n03041632_31301.png,1.0,-0.48001018,-2.1287353,1.1658248
alexnet_w1_mlp_simclrhn_probe0,1,331,NaN,keyboard,keyboard,90,0331_rot_dnn_90_keyboard_20_n03085013_9209.png,n03085013_9209.png,1.0,3.1518004,0.82953787,1.6420876
alexnet_w1_mlp_simclrhn_probe0,1,332,NaN,oven,elephant,90,0332_rot_dnn_90_elephant_20_n02504458_113.png,n02504458_113.png,0.0,-5.56579,-4.8824625,-0.48318565
alexnet_w1_mlp_simclrhn_probe0,1,333,NaN,bicycle,bicycle,180,0333_rot_dnn_180_bicycle_20_n03792782_6058.png,n03792782_6058.png,1.0,-2.4383206,-6.2128305,2.6689816
alexnet_w1_mlp_simclrhn_probe0,1,334,NaN,keyboard,keyboard,0,0334_rot_dnn_0_keyboard_20_n04505470_4651.png,n04505470_4651.png,1.0,9.13253,0.6238499,6.016546
alexnet_w1_mlp_simclrhn_probe0,1,335,NaN,keyboard,keyboard,180,0335_rot_dnn_180_keyboard_20_n03085013_7009.png,n03085013_7009.png,1.0,-3.8688524,-5.1000414,0.8705821
alexnet_w1_mlp_simclrhn_probe0,1,336,NaN,bottle,truck,270,0336_rot_dnn_270_truck_20_n04467665_44390.png,n04467665_44390.png,0.0,-6.8505306,-4.277682,-1.8192788
alexnet_w1_mlp_simclrhn_probe0,1,337,NaN,elephant,boat,90,0337_rot_dnn_90_boat_20_n04273569_17340.png,n04273569_17340.png,0.0,-6.011669,-1.6976595,-3.0504656
alexnet_w1_mlp_simclrhn_probe0,1,338,NaN,elephant,elephant,0,0338_rot_dnn_0_elephant_20_n02504013_1333.png,n02504013_1333.png,1.0,0.7492572,-2.4381223,2.2538176
alexnet_w1_mlp_simclrhn_probe0,1,339,NaN,knife,knife,270,0339_rot_dnn_270_knife_20_n03041632_50034.png,n03041632_50034.png,1.0,-1.8774052,-3.1714387,0.91501987
alexnet_w1_mlp_simclrhn_probe0,1,340,NaN,clock,clock,90,0340_rot_dnn_90_clock_20_n02708093_2740.png,n02708093_2740.png,1.0,-1.2033892,-2.2122686,0.7133855
alexnet_w1_mlp_simclrhn_probe0,1,341,NaN,bear,bear,0,0341_rot_dnn_0_bear_20_n02132136_13975.png,n02132136_13975.png,1.0,-0.090892375,-4.0603414,2.8068244
alexnet_w1_mlp_simclrhn_probe0,1,342,NaN,elephant,elephant,90,0342_rot_dnn_90_elephant_20_n02504013_256.png,n02504013_256.png,1.0,-2.9835167,-3.3822086,0.28191775
alexnet_w1_mlp_simclrhn_probe0,1,343,NaN,bicycle,boat,90,0343_rot_dnn_90_boat_20_n03344393_6588.png,n03344393_6588.png,0.0,-11.271991,-4.751283,-4.6108365
alexnet_w1_mlp_simclrhn_probe0,1,344,NaN,knife,knife,270,0344_rot_dnn_270_knife_20_n03041632_7173.png,n03041632_7173.png,1.0,-1.279571,-2.5808256,0.9201259
alexnet_w1_mlp_simclrhn_probe0,1,345,NaN,airplane,elephant,180,0345_rot_dnn_180_elephant_20_n02504458_1041.png,n02504458_1041.png,0.0,-2.8458378,-1.745491,-0.7780627
alexnet_w1_mlp_simclrhn_probe0,1,346,NaN,knife,chair,180,0346_rot_dnn_180_chair_20_n04099969_8021.png,n04099969_8021.png,0.0,-4.2023654,-2.706757,-1.0575548
alexnet_w1_mlp_simclrhn_probe0,1,347,NaN,truck,truck,0,0347_rot_dnn_0_truck_20_n03796401_1791.png,n03796401_1791.png,1.0,0.69511366,-3.20493,2.7577474
alexnet_w1_mlp_simclrhn_probe0,1,348,NaN,keyboard,keyboard,90,0348_rot_dnn_90_keyboard_20_n04505470_5007.png,n04505470_5007.png,1.0,-2.973148,-3.8725612,0.63598114
alexnet_w1_mlp_simclrhn_probe0,1,349,NaN,oven,truck,180,0349_rot_dnn_180_truck_20_n03417042_29384.png,n03417042_29384.png,0.0,-5.4289947,-2.9523509,-1.7512517
alexnet_w1_mlp_simclrhn_probe0,1,350,NaN,elephant,bird,90,0350_rot_dnn_90_bird_20_n01534433_1271.png,n01534433_1271.png,0.0,-5.383175,-2.8923454,-1.7612824
alexnet_w1_mlp_simclrhn_probe0,1,351,NaN,cat,dog,270,0351_rot_dnn_270_dog_20_n02113624_393.png,n02113624_393.png,0.0,-1.3943086,0.670135,-1.4597821
alexnet_w1_mlp_simclrhn_probe0,1,352,NaN,bicycle,cat,90,0352_rot_dnn_90_cat_20_n02123159_5461.png,n02123159_5461.png,0.0,-6.464542,-6.410385,-0.03829463
alexnet_w1_mlp_simclrhn_probe0,1,353,NaN,knife,knife,270,0353_rot_dnn_270_knife_20_n03041632_9759.png,n03041632_9759.png,1.0,-4.728136,-5.72443,0.70448625
alexnet_w1_mlp_simclrhn_probe0,1,354,NaN,bicycle,chair,90,0354_rot_dnn_90_chair_20_n04429376_1754.png,n04429376_1754.png,0.0,-6.362716,-3.7013063,-1.881901
alexnet_w1_mlp_simclrhn_probe0,1,355,NaN,chair,oven,90,0355_rot_dnn_90_oven_20_n04111531_1818.png,n04111531_1818.png,0.0,-8.233929,-4.3478165,-2.7478964
alexnet_w1_mlp_simclrhn_probe0,1,356,NaN,clock,clock,0,0356_rot_dnn_0_clock_20_n04548280_5798.png,n04548280_5798.png,1.0,0.12679605,-1.8332202,1.3859408
alexnet_w1_mlp_simclrhn_probe0,1,357,NaN,truck,oven,90,0357_rot_dnn_90_oven_20_n04111531_3099.png,n04111531_3099.png,0.0,-5.901222,-5.129134,-0.5459487
alexnet_w1_mlp_simclrhn_probe0,1,358,NaN,clock,bottle,270,0358_rot_dnn_270_bottle_20_n04557648_581.png,n04557648_581.png,0.0,-2.3270457,-0.19972555,-1.5042424
alexnet_w1_mlp_simclrhn_probe0,1,359,NaN,bicycle,bird,0,0359_rot_dnn_0_bird_20_n01531178_3183.png,n01531178_3183.png,0.0,-5.7974524,-3.8240552,-1.3954026
alexnet_w1_mlp_simclrhn_probe0,1,360,NaN,clock,airplane,90,0360_rot_dnn_90_airplane_20_n02690373_8872.png,n02690373_8872.png,0.0,-4.2668777,-2.382324,-1.3325807
alexnet_w1_mlp_simclrhn_probe0,1,361,NaN,dog,cat,0,0361_rot_dnn_0_cat_20_n02123394_5301.png,n02123394_5301.png,0.0,-4.4599357,-3.7874284,-0.47553447
alexnet_w1_mlp_simclrhn_probe0,1,362,NaN,bicycle,bicycle,270,0362_rot_dnn_270_bicycle_20_n03792782_12844.png,n03792782_12844.png,1.0,-5.704588,-7.476539,1.2529588
alexnet_w1_mlp_simclrhn_probe0,1,363,NaN,cat,bear,90,0363_rot_dnn_90_bear_20_n02132136_2691.png,n02132136_2691.png,0.0,-3.1518965,-2.8857946,-0.18816242
alexnet_w1_mlp_simclrhn_probe0,1,364,NaN,car,car,0,0364_rot_dnn_0_car_20_n02814533_27327.png,n02814533_27327.png,1.0,1.8289424,1.021595,0.57088083
alexnet_w1_mlp_simclrhn_probe0,1,365,NaN,bicycle,bird,0,0365_rot_dnn_0_bird_20_n02027492_7653.png,n02027492_7653.png,0.0,-5.423557,-2.4604037,-2.0952656
alexnet_w1_mlp_simclrhn_probe0,1,366,NaN,bear,bear,0,0366_rot_dnn_0_bear_20_n02133161_62.png,n02133161_62.png,1.0,0.8132916,-0.03015365,0.59640586
alexnet_w1_mlp_simclrhn_probe0,1,367,NaN,bottle,bottle,0,0367_rot_dnn_0_bottle_20_n04560804_9710.png,n04560804_9710.png,1.0,-4.026076,-8.395779,3.0898466
alexnet_w1_mlp_simclrhn_probe0,1,368,NaN,bottle,clock,180,0368_rot_dnn_180_clock_20_n04548280_15154.png,n04548280_15154.png,0.0,-3.8151438,-2.439108,-0.97300434
alexnet_w1_mlp_simclrhn_probe0,1,369,NaN,knife,oven,180,0369_rot_dnn_180_oven_20_n04111531_114.png,n04111531_114.png,0.0,-6.1562853,-4.7853622,-0.969389
alexnet_w1_mlp_simclrhn_probe0,1,370,NaN,bird,cat,180,0370_rot_dnn_180_cat_20_n02125311_24813.png,n02125311_24813.png,0.0,-4.726355,-4.5929313,-0.09434488
alexnet_w1_mlp_simclrhn_probe0,1,371,NaN,bottle,airplane,90,0371_rot_dnn_90_airplane_20_n02690373_7647.png,n02690373_7647.png,0.0,-9.912997,-3.0419633,-4.8585544
alexnet_w1_mlp_simclrhn_probe0,1,372,NaN,bottle,bottle,0,0372_rot_dnn_0_bottle_20_n03983396_9823.png,n03983396_9823.png,1.0,-2.747588,-2.7574944,0.007004975
alexnet_w1_mlp_simclrhn_probe0,1,373,NaN,elephant,bear,0,0373_rot_dnn_0_bear_20_n02134418_2398.png,n02134418_2398.png,0.0,-5.4352956,-4.1227427,-0.92811507
alexnet_w1_mlp_simclrhn_probe0,1,374,NaN,keyboard,keyboard,90,0374_rot_dnn_90_keyboard_20_n04505470_4584.png,n04505470_4584.png,1.0,-0.1390847,-1.6090415,1.0394164
alexnet_w1_mlp_simclrhn_probe0,1,375,NaN,keyboard,keyboard,0,0375_rot_dnn_0_keyboard_20_n04505470_10055.png,n04505470_10055.png,1.0,-1.8451309,-2.4032612,0.3946577
alexnet_w1_mlp_simclrhn_probe0,1,376,NaN,bear,boat,270,0376_rot_dnn_270_boat_20_n04273569_10980.png,n04273569_10980.png,0.0,-4.547473,-1.3745525,-2.2435937
alexnet_w1_mlp_simclrhn_probe0,1,377,NaN,car,car,180,0377_rot_dnn_180_car_20_n03100240_16210.png,n03100240_16210.png,1.0,-1.483829,-2.6076927,0.7946917
alexnet_w1_mlp_simclrhn_probe0,1,378,NaN,keyboard,keyboard,0,0378_rot_dnn_0_keyboard_20_n04505470_1067.png,n04505470_1067.png,1.0,13.1653,2.128286,7.8043475
alexnet_w1_mlp_simclrhn_probe0,1,379,NaN,elephant,elephant,0,0379_rot_dnn_0_elephant_20_n02504458_7867.png,n02504458_7867.png,1.0,3.1773157,-3.8881218,4.996019
alexnet_w1_mlp_simclrhn_probe0,1,380,NaN,keyboard,keyboard,180,0380_rot_dnn_180_keyboard_20_n04505470_807.png,n04505470_807.png,1.0,4.0917387,2.9892747,0.77955973
alexnet_w1_mlp_simclrhn_probe0,1,381,NaN,bicycle,bicycle,270,0381_rot_dnn_270_bicycle_20_n02835271_24104.png,n02835271_24104.png,1.0,-0.7327984,-5.7900343,3.5760057
alexnet_w1_mlp_simclrhn_probe0,1,382,NaN,airplane,bottle,0,0382_rot_dnn_0_bottle_20_n03937543_6698.png,n03937543_6698.png,0.0,-2.7598846,-2.4599936,-0.21205495
alexnet_w1_mlp_simclrhn_probe0,1,383,NaN,bicycle,oven,0,0383_rot_dnn_0_oven_20_n04111531_10403.png,n04111531_10403.png,0.0,-8.29947,-1.4624263,-4.83452
alexnet_w1_mlp_simclrhn_probe0,1,384,NaN,truck,truck,0,0384_rot_dnn_0_truck_20_n03796401_8463.png,n03796401_8463.png,1.0,5.1708384,-1.04605,4.396004
alexnet_w1_mlp_simclrhn_probe0,1,385,NaN,truck,truck,0,0385_rot_dnn_0_truck_20_n03796401_8176.png,n03796401_8176.png,1.0,1.398103,0.6168907,0.5524005
alexnet_w1_mlp_simclrhn_probe0,1,386,NaN,bottle,bottle,90,0386_rot_dnn_90_bottle_20_n03937543_984.png,n03937543_984.png,1.0,-3.4135323,-3.8732302,0.32505554
alexnet_w1_mlp_simclrhn_probe0,1,387,NaN,oven,bicycle,90,0387_rot_dnn_90_bicycle_20_n02835271_11697.png,n02835271_11697.png,0.0,-8.802659,-7.770653,-0.72973865
alexnet_w1_mlp_simclrhn_probe0,1,388,NaN,clock,keyboard,270,0388_rot_dnn_270_keyboard_20_n03085013_22417.png,n03085013_22417.png,0.0,-0.3348297,2.2816904,-1.850159
alexnet_w1_mlp_simclrhn_probe0,1,389,NaN,chair,car,270,0389_rot_dnn_270_car_20_n03100240_7602.png,n03100240_7602.png,0.0,-8.046018,-6.2285085,-1.285173
alexnet_w1_mlp_simclrhn_probe0,1,390,NaN,bird,bird,90,0390_rot_dnn_90_bird_20_n01534433_14389.png,n01534433_14389.png,1.0,-3.7482219,-5.233749,1.0504262
alexnet_w1_mlp_simclrhn_probe0,1,391,NaN,cat,bear,0,0391_rot_dnn_0_bear_20_n02134084_2598.png,n02134084_2598.png,0.0,-0.9706266,0.19428645,-0.82371795
alexnet_w1_mlp_simclrhn_probe0,1,392,NaN,bird,bird,180,0392_rot_dnn_180_bird_20_n01560419_19599.png,n01560419_19599.png,1.0,-6.5139866,-8.659514,1.5171173
alexnet_w1_mlp_simclrhn_probe0,1,393,NaN,bicycle,bicycle,90,0393_rot_dnn_90_bicycle_20_n02835271_8747.png,n02835271_8747.png,1.0,-6.431203,-7.867601,1.0156868
alexnet_w1_mlp_simclrhn_probe0,1,394,NaN,knife,knife,180,0394_rot_dnn_180_knife_20_n03041632_30821.png,n03041632_30821.png,1.0,-3.5590892,-4.0665703,0.35884333
alexnet_w1_mlp_simclrhn_probe0,1,395,NaN,bicycle,chair,270,0395_rot_dnn_270_chair_20_n03376595_209.png,n03376595_209.png,0.0,-6.871622,-5.326175,-1.092796
alexnet_w1_mlp_simclrhn_probe0,1,396,NaN,bicycle,boat,180,0396_rot_dnn_180_boat_20_n04273569_29113.png,n04273569_29113.png,0.0,-5.7155685,-3.0830317,-1.8614848
alexnet_w1_mlp_simclrhn_probe0,1,397,NaN,bird,bird,270,0397_rot_dnn_270_bird_20_n02006656_6435.png,n02006656_6435.png,1.0,-6.724017,-8.0860195,0.9630811
alexnet_w1_mlp_simclrhn_probe0,1,398,NaN,oven,airplane,90,0398_rot_dnn_90_airplane_20_n02690373_3492.png,n02690373_3492.png,0.0,-17.277697,-1.9425927,-10.843556
alexnet_w1_mlp_simclrhn_probe0,1,399,NaN,oven,oven,270,0399_rot_dnn_270_oven_20_n04111531_9380.png,n04111531_9380.png,1.0,-2.132853,-5.699959,2.5223248
alexnet_w1_mlp_simclrhn_probe0,1,400,NaN,bottle,keyboard,270,0400_rot_dnn_270_keyboard_20_n04505470_510.png,n04505470_510.png,0.0,-4.0665913,-1.5866231,-1.7536023
alexnet_w1_mlp_simclrhn_probe0,1,401,NaN,bicycle,bird,180,0401_rot_dnn_180_bird_20_n02027492_20576.png,n02027492_20576.png,0.0,-4.056991,-2.4663572,-1.124748
alexnet_w1_mlp_simclrhn_probe0,1,402,NaN,bear,bird,90,0402_rot_dnn_90_bird_20_n01855032_1920.png,n01855032_1920.png,0.0,-4.7577214,-3.923934,-0.5895768
alexnet_w1_mlp_simclrhn_probe0,1,403,NaN,airplane,boat,180,0403_rot_dnn_180_boat_20_n04273569_15761.png,n04273569_15761.png,0.0,-3.3603077,1.8275526,-3.6683714
alexnet_w1_mlp_simclrhn_probe0,1,404,NaN,oven,oven,180,0404_rot_dnn_180_oven_20_n04111531_10667.png,n04111531_10667.png,1.0,-1.6777141,-4.8628273,2.2522151
alexnet_w1_mlp_simclrhn_probe0,1,405,NaN,knife,knife,270,0405_rot_dnn_270_knife_20_n03041632_36215.png,n03041632_36215.png,1.0,-0.19253993,-3.8560388,2.5904849
alexnet_w1_mlp_simclrhn_probe0,1,406,NaN,bicycle,bicycle,180,0406_rot_dnn_180_bicycle_20_n02835271_2625.png,n02835271_2625.png,1.0,-2.9340234,-7.519412,3.2423594
alexnet_w1_mlp_simclrhn_probe0,1,407,NaN,bird,bird,270,0407_rot_dnn_270_bird_20_n02028035_20411.png,n02028035_20411.png,1.0,-4.0814176,-4.0988016,0.012292381
alexnet_w1_mlp_simclrhn_probe0,1,408,NaN,knife,knife,0,0408_rot_dnn_0_knife_20_n03041632_25656.png,n03041632_25656.png,1.0,-7.2422485,-7.612938,0.262117
alexnet_w1_mlp_simclrhn_probe0,1,409,NaN,knife,oven,270,0409_rot_dnn_270_oven_20_n04111531_4332.png,n04111531_4332.png,0.0,-4.0439177,-3.6192908,-0.30025652
alexnet_w1_mlp_simclrhn_probe0,1,410,NaN,keyboard,keyboard,180,0410_rot_dnn_180_keyboard_20_n04505470_3553.png,n04505470_3553.png,1.0,0.24931341,-1.3961926,1.1635484
alexnet_w1_mlp_simclrhn_probe0,1,411,NaN,bicycle,bicycle,180,0411_rot_dnn_180_bicycle_20_n02835271_18706.png,n02835271_18706.png,1.0,-5.1754694,-6.6928883,1.0729772
alexnet_w1_mlp_simclrhn_probe0,1,412,NaN,chair,truck,270,0412_rot_dnn_270_truck_20_n03417042_10744.png,n03417042_10744.png,0.0,-6.7436514,-2.862886,-2.7441156
alexnet_w1_mlp_simclrhn_probe0,1,413,NaN,clock,clock,0,0413_rot_dnn_0_clock_20_n03196217_11724.png,n03196217_11724.png,1.0,1.8471432,-1.6146538,2.4478602
alexnet_w1_mlp_simclrhn_probe0,1,414,NaN,bicycle,bicycle,270,0414_rot_dnn_270_bicycle_20_n02835271_14123.png,n02835271_14123.png,1.0,-5.3552074,-5.6238537,0.18996158
alexnet_w1_mlp_simclrhn_probe0,1,415,NaN,oven,bicycle,270,0415_rot_dnn_270_bicycle_20_n02835271_7900.png,n02835271_7900.png,0.0,-8.286388,-5.9946327,-1.6205161
alexnet_w1_mlp_simclrhn_probe0,1,416,NaN,knife,truck,270,0416_rot_dnn_270_truck_20_n03417042_2153.png,n03417042_2153.png,0.0,-5.291501,-4.975496,-0.22344944
alexnet_w1_mlp_simclrhn_probe0,1,417,NaN,bear,bicycle,270,0417_rot_dnn_270_bicycle_20_n03792782_10129.png,n03792782_10129.png,0.0,-7.2906547,-1.5558794,-4.0550985
alexnet_w1_mlp_simclrhn_probe0,1,418,NaN,bird,bird,180,0418_rot_dnn_180_bird_20_n01514859_18430.png,n01514859_18430.png,1.0,-3.39603,-4.644362,0.8827041
alexnet_w1_mlp_simclrhn_probe0,1,419,NaN,chair,chair,0,0419_rot_dnn_0_chair_20_n04099969_5010.png,n04099969_5010.png,1.0,-0.5493973,-1.9770503,1.0095032
alexnet_w1_mlp_simclrhn_probe0,1,420,NaN,chair,truck,0,0420_rot_dnn_0_truck_20_n03796401_588.png,n03796401_588.png,0.0,-2.760679,-2.0451999,-0.5059202
alexnet_w1_mlp_simclrhn_probe0,1,421,NaN,car,car,0,0421_rot_dnn_0_car_20_n02814533_486.png,n02814533_486.png,1.0,7.4627876,4.188509,2.3152647
alexnet_w1_mlp_simclrhn_probe0,1,422,NaN,oven,elephant,90,0422_rot_dnn_90_elephant_20_n02504013_3540.png,n02504013_3540.png,0.0,-4.6680193,-4.0406637,-0.4436074
alexnet_w1_mlp_simclrhn_probe0,1,423,NaN,clock,car,180,0423_rot_dnn_180_car_20_n02814533_55715.png,n02814533_55715.png,0.0,-11.025246,-6.524178,-3.1827354
alexnet_w1_mlp_simclrhn_probe0,1,424,NaN,knife,bottle,180,0424_rot_dnn_180_bottle_20_n03983396_10896.png,n03983396_10896.png,0.0,-6.5470138,-5.8272147,-0.5089748
alexnet_w1_mlp_simclrhn_probe0,1,425,NaN,bottle,bottle,90,0425_rot_dnn_90_bottle_20_n04557648_15053.png,n04557648_15053.png,1.0,-0.108862616,-2.1873467,1.4697102
alexnet_w1_mlp_simclrhn_probe0,1,426,NaN,car,car,0,0426_rot_dnn_0_car_20_n04285008_8281.png,n04285008_8281.png,1.0,8.764689,1.7699844,4.9460034
alexnet_w1_mlp_simclrhn_probe0,1,427,NaN,bottle,car,270,0427_rot_dnn_270_car_20_n02814533_38596.png,n02814533_38596.png,0.0,-6.247574,-2.7337232,-2.4846678
alexnet_w1_mlp_simclrhn_probe0,1,428,NaN,elephant,elephant,270,0428_rot_dnn_270_elephant_20_n02504013_15219.png,n02504013_15219.png,1.0,-4.1390524,-4.32238,0.12963225
alexnet_w1_mlp_simclrhn_probe0,1,429,NaN,elephant,elephant,180,0429_rot_dnn_180_elephant_20_n02504013_828.png,n02504013_828.png,1.0,0.41835636,-3.0500896,2.4525619
alexnet_w1_mlp_simclrhn_probe0,1,430,NaN,oven,oven,180,0430_rot_dnn_180_oven_20_n04111531_1439.png,n04111531_1439.png,1.0,3.438977,-5.279682,6.1650233
alexnet_w1_mlp_simclrhn_probe0,1,431,NaN,bottle,bottle,90,0431_rot_dnn_90_bottle_20_n03983396_3315.png,n03983396_3315.png,1.0,-4.836034,-5.8518686,0.7183037
alexnet_w1_mlp_simclrhn_probe0,1,432,NaN,bird,airplane,90,0432_rot_dnn_90_airplane_20_n02690373_4024.png,n02690373_4024.png,0.0,-2.3992856,-2.2617095,-0.097280994
alexnet_w1_mlp_simclrhn_probe0,1,433,NaN,oven,elephant,270,0433_rot_dnn_270_elephant_20_n02504013_10301.png,n02504013_10301.png,0.0,-6.2171736,-5.4561157,-0.5381492
alexnet_w1_mlp_simclrhn_probe0,1,434,NaN,oven,oven,180,0434_rot_dnn_180_oven_20_n04111531_7067.png,n04111531_7067.png,1.0,3.313724,-2.6593497,4.2236013
alexnet_w1_mlp_simclrhn_probe0,1,435,NaN,knife,knife,90,0435_rot_dnn_90_knife_20_n03041632_36834.png,n03041632_36834.png,1.0,0.1866201,-5.365833,3.9261773
alexnet_w1_mlp_simclrhn_probe0,1,436,NaN,car,car,90,0436_rot_dnn_90_car_20_n02814533_18148.png,n02814533_18148.png,1.0,-4.242132,-4.9712152,0.5155396
alexnet_w1_mlp_simclrhn_probe0,1,437,NaN,bear,cat,90,0437_rot_dnn_90_cat_20_n02125311_41284.png,n02125311_41284.png,0.0,-3.7623127,-2.7173133,-0.7389262
alexnet_w1_mlp_simclrhn_probe0,1,438,NaN,bicycle,bicycle,0,0438_rot_dnn_0_bicycle_20_n02835271_18188.png,n02835271_18188.png,1.0,-0.1481376,-6.1052628,4.2123237
alexnet_w1_mlp_simclrhn_probe0,1,439,NaN,bottle,bottle,0,0439_rot_dnn_0_bottle_20_n04591713_2903.png,n04591713_2903.png,1.0,-1.6799599,-5.6911397,2.8363326
alexnet_w1_mlp_simclrhn_probe0,1,440,NaN,bottle,knife,0,0440_rot_dnn_0_knife_20_n03041632_54191.png,n03041632_54191.png,0.0,-1.8866185,-1.2912118,-0.4210161
alexnet_w1_mlp_simclrhn_probe0,1,441,NaN,truck,truck,180,0441_rot_dnn_180_truck_20_n03417042_8867.png,n03417042_8867.png,1.0,-2.0453677,-2.2631023,0.1539616
alexnet_w1_mlp_simclrhn_probe0,1,442,NaN,knife,oven,270,0442_rot_dnn_270_oven_20_n04111531_8421.png,n04111531_8421.png,0.0,-5.7467356,-5.121319,-0.44223642
alexnet_w1_mlp_simclrhn_probe0,1,443,NaN,oven,elephant,270,0443_rot_dnn_270_elephant_20_n02504013_4062.png,n02504013_4062.png,0.0,-9.051505,-5.9394026,-2.200589
alexnet_w1_mlp_simclrhn_probe0,1,444,NaN,keyboard,keyboard,270,0444_rot_dnn_270_keyboard_20_n04505470_1649.png,n04505470_1649.png,1.0,2.1090326,-2.165604,3.0226247
alexnet_w1_mlp_simclrhn_probe0,1,445,NaN,airplane,boat,180,0445_rot_dnn_180_boat_20_n03344393_7967.png,n03344393_7967.png,0.0,-3.063785,-0.5871019,-1.7512795
alexnet_w1_mlp_simclrhn_probe0,1,446,NaN,bicycle,bicycle,0,0446_rot_dnn_0_bicycle_20_n02835271_10265.png,n02835271_10265.png,1.0,5.096552,-4.0326366,6.4553113
alexnet_w1_mlp_simclrhn_probe0,1,447,NaN,knife,bicycle,180,0447_rot_dnn_180_bicycle_20_n02835271_6742.png,n02835271_6742.png,0.0,-6.367913,-4.99672,-0.9695798
alexnet_w1_mlp_simclrhn_probe0,1,448,NaN,cat,cat,180,0448_rot_dnn_180_cat_20_n02123045_3168.png,n02123045_3168.png,1.0,-2.9261816,-4.6444006,1.2149644
alexnet_w1_mlp_simclrhn_probe0,1,449,NaN,chair,car,180,0449_rot_dnn_180_car_20_n03100240_8489.png,n03100240_8489.png,0.0,-4.4510784,-3.6311023,-0.5798107
alexnet_w1_mlp_simclrhn_probe0,1,450,NaN,oven,oven,270,0450_rot_dnn_270_oven_20_n04111531_1826.png,n04111531_1826.png,1.0,-0.79902637,-2.6026983,1.2753887
alexnet_w1_mlp_simclrhn_probe0,1,451,NaN,dog,dog,180,0451_rot_dnn_180_dog_20_n02104365_1592.png,n02104365_1592.png,1.0,-2.4052098,-3.4475522,0.73704743
alexnet_w1_mlp_simclrhn_probe0,1,452,NaN,bicycle,boat,90,0452_rot_dnn_90_boat_20_n02951358_4343.png,n02951358_4343.png,0.0,-11.046611,-6.259059,-3.3853104
alexnet_w1_mlp_simclrhn_probe0,1,453,NaN,bottle,bottle,0,0453_rot_dnn_0_bottle_20_n02823428_4282.png,n02823428_4282.png,1.0,7.4384007,-3.2155597,7.533488
alexnet_w1_mlp_simclrhn_probe0,1,454,NaN,bird,bird,0,0454_rot_dnn_0_bird_20_n01817953_2043.png,n01817953_2043.png,1.0,-4.160946,-6.0224104,1.3162541
alexnet_w1_mlp_simclrhn_probe0,1,455,NaN,knife,dog,0,0455_rot_dnn_0_dog_20_n02110958_14369.png,n02110958_14369.png,0.0,-8.361417,-7.6148148,-0.5279274
alexnet_w1_mlp_simclrhn_probe0,1,456,NaN,knife,dog,270,0456_rot_dnn_270_dog_20_n02108000_1044.png,n02108000_1044.png,0.0,-5.5646267,-5.091235,-0.33473837
alexnet_w1_mlp_simclrhn_probe0,1,457,NaN,knife,dog,270,0457_rot_dnn_270_dog_20_n02087394_1428.png,n02087394_1428.png,0.0,-6.0263395,-4.101925,-1.3607666
alexnet_w1_mlp_simclrhn_probe0,1,458,NaN,bottle,airplane,90,0458_rot_dnn_90_airplane_20_n02690373_2856.png,n02690373_2856.png,0.0,-17.10748,-2.883552,-10.057835
alexnet_w1_mlp_simclrhn_probe0,1,459,NaN,oven,chair,0,0459_rot_dnn_0_chair_20_n03376595_19165.png,n03376595_19165.png,0.0,-3.0206127,-2.2060585,-0.5759768
alexnet_w1_mlp_simclrhn_probe0,1,460,NaN,chair,chair,270,0460_rot_dnn_270_chair_20_n04099969_42125.png,n04099969_42125.png,1.0,-0.97090316,-2.158074,0.8394565
alexnet_w1_mlp_simclrhn_probe0,1,461,NaN,bottle,bottle,270,0461_rot_dnn_270_bottle_20_n02823428_12656.png,n02823428_12656.png,1.0,-0.99771744,-3.097746,1.4849445
alexnet_w1_mlp_simclrhn_probe0,1,462,NaN,bicycle,bicycle,180,0462_rot_dnn_180_bicycle_20_n02835271_5861.png,n02835271_5861.png,1.0,-1.6099616,-7.0586147,3.8527796
alexnet_w1_mlp_simclrhn_probe0,1,463,NaN,airplane,airplane,90,0463_rot_dnn_90_airplane_20_n02690373_19345.png,n02690373_19345.png,1.0,-0.27426717,-2.1562197,1.3307414
alexnet_w1_mlp_simclrhn_probe0,1,464,NaN,clock,clock,90,0464_rot_dnn_90_clock_20_n02708093_8069.png,n02708093_8069.png,1.0,1.6688107,-1.114384,1.9680159
alexnet_w1_mlp_simclrhn_probe0,1,465,NaN,bottle,chair,270,0465_rot_dnn_270_chair_20_n04099969_16.png,n04099969_16.png,0.0,-5.242539,-4.0562396,-0.8388403
alexnet_w1_mlp_simclrhn_probe0,1,466,NaN,dog,dog,270,0466_rot_dnn_270_dog_20_n02104365_1756.png,n02104365_1756.png,1.0,-6.0326114,-6.3519993,0.22584136
alexnet_w1_mlp_simclrhn_probe0,1,467,NaN,bird,bird,270,0467_rot_dnn_270_bird_20_n01819313_17231.png,n01819313_17231.png,1.0,-6.2756386,-7.0882797,0.57462406
alexnet_w1_mlp_simclrhn_probe0,1,468,NaN,bottle,car,90,0468_rot_dnn_90_car_20_n02814533_34149.png,n02814533_34149.png,0.0,-6.7664623,-1.727958,-3.5627608
alexnet_w1_mlp_simclrhn_probe0,1,469,NaN,knife,knife,0,0469_rot_dnn_0_knife_20_n03041632_26053.png,n03041632_26053.png,1.0,-2.5158682,-3.2350965,0.5085712
alexnet_w1_mlp_simclrhn_probe0,1,470,NaN,oven,oven,0,0470_rot_dnn_0_oven_20_n04111531_11287.png,n04111531_11287.png,1.0,1.7092483,-1.8042486,2.4844174
alexnet_w1_mlp_simclrhn_probe0,1,471,NaN,airplane,bottle,0,0471_rot_dnn_0_bottle_20_n03937543_11959.png,n03937543_11959.png,0.0,-5.243682,-2.209588,-2.1454284
alexnet_w1_mlp_simclrhn_probe0,1,472,NaN,knife,airplane,270,0472_rot_dnn_270_airplane_20_n02690373_1348.png,n02690373_1348.png,0.0,-7.9835715,-2.4367075,-3.9222252
alexnet_w1_mlp_simclrhn_probe0,1,473,NaN,elephant,bear,0,0473_rot_dnn_0_bear_20_n02132136_5175.png,n02132136_5175.png,0.0,1.7983636,2.927796,-0.7986293
alexnet_w1_mlp_simclrhn_probe0,1,474,NaN,knife,keyboard,270,0474_rot_dnn_270_keyboard_20_n03085013_7382.png,n03085013_7382.png,0.0,-9.5383415,-5.680168,-2.7281406
alexnet_w1_mlp_simclrhn_probe0,1,475,NaN,knife,dog,270,0475_rot_dnn_270_dog_20_n02109961_4280.png,n02109961_4280.png,0.0,-7.053155,-4.166686,-2.0410419
alexnet_w1_mlp_simclrhn_probe0,1,476,NaN,bicycle,truck,90,0476_rot_dnn_90_truck_20_n03417042_1344.png,n03417042_1344.png,0.0,-6.5963774,-2.0071821,-3.2450511
alexnet_w1_mlp_simclrhn_probe0,1,477,NaN,elephant,elephant,0,0477_rot_dnn_0_elephant_20_n02504013_9299.png,n02504013_9299.png,1.0,6.996818,-1.5987688,6.0779977
alexnet_w1_mlp_simclrhn_probe0,1,478,NaN,bear,bear,0,0478_rot_dnn_0_bear_20_n02134418_5527.png,n02134418_5527.png,1.0,-0.31633842,-3.875144,2.5164554
alexnet_w1_mlp_simclrhn_probe0,1,479,NaN,keyboard,keyboard,270,0479_rot_dnn_270_keyboard_20_n03085013_23109.png,n03085013_23109.png,1.0,-1.4330642,-2.1139536,0.4814615
alexnet_w1_mlp_simclrhn_probe0,1,480,NaN,bear,bear,180,0480_rot_dnn_180_bear_20_n02133161_4393.png,n02133161_4393.png,1.0,-1.2396266,-3.5335417,1.6220429
alexnet_w1_mlp_simclrhn_probe0,1,481,NaN,oven,oven,0,0481_rot_dnn_0_oven_20_n04111531_73.png,n04111531_73.png,1.0,1.688826,-2.475123,2.9443567
alexnet_w1_mlp_simclrhn_probe0,1,482,NaN,keyboard,keyboard,0,0482_rot_dnn_0_keyboard_20_n03085013_7613.png,n03085013_7613.png,1.0,-2.8270984,-3.4961417,0.47308508
alexnet_w1_mlp_simclrhn_probe0,1,483,NaN,oven,oven,180,0483_rot_dnn_180_oven_20_n04111531_2795.png,n04111531_2795.png,1.0,-1.0519171,-5.7486243,3.3210735
alexnet_w1_mlp_simclrhn_probe0,1,484,NaN,oven,oven,0,0484_rot_dnn_0_oven_20_n04111531_22517.png,n04111531_22517.png,1.0,2.3959615,-5.918512,5.8792205
alexnet_w1_mlp_simclrhn_probe0,1,485,NaN,elephant,elephant,90,0485_rot_dnn_90_elephant_20_n02504458_2613.png,n02504458_2613.png,1.0,-5.3102083,-5.6595197,0.24700043
alexnet_w1_mlp_simclrhn_probe0,1,486,NaN,oven,oven,180,0486_rot_dnn_180_oven_20_n04111531_9176.png,n04111531_9176.png,1.0,1.3650141,-6.4536924,5.5286603
alexnet_w1_mlp_simclrhn_probe0,1,487,NaN,bottle,bottle,180,0487_rot_dnn_180_bottle_20_n04557648_5790.png,n04557648_5790.png,1.0,2.3909094,2.0373905,0.24997567
alexnet_w1_mlp_simclrhn_probe0,1,488,NaN,bottle,truck,90,0488_rot_dnn_90_truck_20_n04467665_9812.png,n04467665_9812.png,0.0,-9.116125,-3.5298717,-3.9500775
alexnet_w1_mlp_simclrhn_probe0,1,489,NaN,bottle,bottle,0,0489_rot_dnn_0_bottle_20_n04591713_7476.png,n04591713_7476.png,1.0,-3.0671632,-6.30363,2.2885275
alexnet_w1_mlp_simclrhn_probe0,1,490,NaN,elephant,elephant,90,0490_rot_dnn_90_elephant_20_n02504458_1567.png,n02504458_1567.png,1.0,-0.78701437,-4.2676187,2.4611588
alexnet_w1_mlp_simclrhn_probe0,1,491,NaN,clock,clock,90,0491_rot_dnn_90_clock_20_n04548280_6865.png,n04548280_6865.png,1.0,1.2804261,-2.1505055,2.426035
alexnet_w1_mlp_simclrhn_probe0,1,492,NaN,bottle,bottle,180,0492_rot_dnn_180_bottle_20_n02823428_3.png,n02823428_3.png,1.0,-0.13715239,-2.8738139,1.9351119
alexnet_w1_mlp_simclrhn_probe0,1,493,NaN,elephant,boat,90,0493_rot_dnn_90_boat_20_n04273569_8951.png,n04273569_8951.png,0.0,-10.420647,-3.1493893,-5.1415553
alexnet_w1_mlp_simclrhn_probe0,1,494,NaN,knife,knife,180,0494_rot_dnn_180_knife_20_n03041632_53874.png,n03041632_53874.png,1.0,-3.3999438,-6.720376,2.3479002
alexnet_w1_mlp_simclrhn_probe0,1,495,NaN,chair,clock,0,0495_rot_dnn_0_clock_20_n04548280_6126.png,n04548280_6126.png,0.0,-3.0753157,-3.0448952,-0.021510571
alexnet_w1_mlp_simclrhn_probe0,1,496,NaN,cat,cat,180,0496_rot_dnn_180_cat_20_n02123597_6186.png,n02123597_6186.png,1.0,-1.2071986,-3.8303638,1.8548579
alexnet_w1_mlp_simclrhn_probe0,1,497,NaN,oven,cat,270,0497_rot_dnn_270_cat_20_n02124075_14662.png,n02124075_14662.png,0.0,-7.206249,-6.6141434,-0.41868207
alexnet_w1_mlp_simclrhn_probe0,1,498,NaN,clock,car,90,0498_rot_dnn_90_car_20_n04285008_8677.png,n04285008_8677.png,0.0,-7.8237205,-2.3678432,-3.857888
alexnet_w1_mlp_simclrhn_probe0,1,499,NaN,bird,bird,90,0499_rot_dnn_90_bird_20_n01820546_2568.png,n01820546_2568.png,1.0,-4.5480433,-6.172414,1.1486034
alexnet_w1_mlp_simclrhn_probe0,1,500,NaN,clock,clock,90,0500_rot_dnn_90_clock_20_n04548280_7354.png,n04548280_7354.png,1.0,1.4830847,-1.2232447,1.9136639
alexnet_w1_mlp_simclrhn_probe0,1,501,NaN,clock,bicycle,270,0501_rot_dnn_270_bicycle_20_n03792782_586.png,n03792782_586.png,0.0,-5.162151,-4.330711,-0.58791685
alexnet_w1_mlp_simclrhn_probe0,1,502,NaN,elephant,bear,0,0502_rot_dnn_0_bear_20_n02134084_572.png,n02134084_572.png,0.0,-3.7210712,-2.7710621,-0.6717579
alexnet_w1_mlp_simclrhn_probe0,1,503,NaN,bicycle,bicycle,270,0503_rot_dnn_270_bicycle_20_n03792782_3388.png,n03792782_3388.png,1.0,-4.7554517,-6.0720677,0.93098813
alexnet_w1_mlp_simclrhn_probe0,1,504,NaN,bicycle,bicycle,270,0504_rot_dnn_270_bicycle_20_n03792782_28970.png,n03792782_28970.png,1.0,2.429502,-4.0553446,4.5854793
alexnet_w1_mlp_simclrhn_probe0,1,505,NaN,oven,bottle,270,0505_rot_dnn_270_bottle_20_n04560804_11386.png,n04560804_11386.png,0.0,-5.331773,-3.158573,-1.5366844
alexnet_w1_mlp_simclrhn_probe0,1,506,NaN,keyboard,chair,180,0506_rot_dnn_180_chair_20_n03376595_6799.png,n03376595_6799.png,0.0,-3.9255886,-3.697434,-0.16132972
alexnet_w1_mlp_simclrhn_probe0,1,507,NaN,cat,dog,270,0507_rot_dnn_270_dog_20_n02094258_6398.png,n02094258_6398.png,0.0,-1.147442,2.8077905,-2.7967718
alexnet_w1_mlp_simclrhn_probe0,1,508,NaN,bird,bird,0,0508_rot_dnn_0_bird_20_n01592084_2639.png,n01592084_2639.png,1.0,-5.6992598,-6.9335403,0.87276816
alexnet_w1_mlp_simclrhn_probe0,1,509,NaN,bicycle,bird,180,0509_rot_dnn_180_bird_20_n02017213_4781.png,n02017213_4781.png,0.0,-6.2411637,-3.2741427,-2.0980008
alexnet_w1_mlp_simclrhn_probe0,1,510,NaN,knife,airplane,270,0510_rot_dnn_270_airplane_20_n02690373_3818.png,n02690373_3818.png,0.0,-9.223595,-1.353765,-5.56481
alexnet_w1_mlp_simclrhn_probe0,1,511,NaN,bicycle,bicycle,90,0511_rot_dnn_90_bicycle_20_n03792782_26383.png,n03792782_26383.png,1.0,-1.9323812,-4.5154853,1.8265305
alexnet_w1_mlp_simclrhn_probe0,1,512,NaN,oven,oven,90,0512_rot_dnn_90_oven_20_n04111531_5216.png,n04111531_5216.png,1.0,4.055227,-4.1750784,5.8197045
alexnet_w1_mlp_simclrhn_probe0,1,513,NaN,airplane,airplane,180,0513_rot_dnn_180_airplane_20_n02690373_20331.png,n02690373_20331.png,1.0,-3.0178645,-3.2084868,0.13479035
alexnet_w1_mlp_simclrhn_probe0,1,514,NaN,clock,truck,180,0514_rot_dnn_180_truck_20_n04467665_23691.png,n04467665_23691.png,0.0,-5.483462,-2.202686,-2.3198588
alexnet_w1_mlp_simclrhn_probe0,1,515,NaN,bird,bird,0,0515_rot_dnn_0_bird_20_n02009229_492.png,n02009229_492.png,1.0,0.6504049,-2.5893161,2.2908287
alexnet_w1_mlp_simclrhn_probe0,1,516,NaN,bird,bird,90,0516_rot_dnn_90_bird_20_n02002556_5890.png,n02002556_5890.png,1.0,-1.1176339,-1.7451007,0.44368604
alexnet_w1_mlp_simclrhn_probe0,1,517,NaN,knife,bird,270,0517_rot_dnn_270_bird_20_n01855032_5358.png,n01855032_5358.png,0.0,-2.4157617,-2.145221,-0.19130118
alexnet_w1_mlp_simclrhn_probe0,1,518,NaN,cat,dog,180,0518_rot_dnn_180_dog_20_n02112350_10026.png,n02112350_10026.png,0.0,-3.981894,-3.6492329,-0.23522696
alexnet_w1_mlp_simclrhn_probe0,1,519,NaN,knife,knife,90,0519_rot_dnn_90_knife_20_n03041632_11773.png,n03041632_11773.png,1.0,-4.499508,-5.347215,0.5994196
alexnet_w1_mlp_simclrhn_probe0,1,520,NaN,elephant,elephant,0,0520_rot_dnn_0_elephant_20_n02504013_20486.png,n02504013_20486.png,1.0,6.0343585,-1.6784455,5.453776
alexnet_w1_mlp_simclrhn_probe0,1,521,NaN,oven,oven,0,0521_rot_dnn_0_oven_20_n04111531_27.png,n04111531_27.png,1.0,4.526639,1.7672879,1.951156
alexnet_w1_mlp_simclrhn_probe0,1,522,NaN,cat,bird,180,0522_rot_dnn_180_bird_20_n01855672_15421.png,n01855672_15421.png,0.0,-11.127108,-8.481068,-1.8710328
alexnet_w1_mlp_simclrhn_probe0,1,523,NaN,bear,bear,270,0523_rot_dnn_270_bear_20_n02132136_239.png,n02132136_239.png,1.0,0.90472925,-2.7083862,2.5548584
alexnet_w1_mlp_simclrhn_probe0,1,524,NaN,keyboard,keyboard,90,0524_rot_dnn_90_keyboard_20_n03085013_25924.png,n03085013_25924.png,1.0,3.4307482,1.0516757,1.6822585
alexnet_w1_mlp_simclrhn_probe0,1,525,NaN,bicycle,bicycle,180,0525_rot_dnn_180_bicycle_20_n03792782_6030.png,n03792782_6030.png,1.0,-2.9683685,-7.875223,3.4696703
alexnet_w1_mlp_simclrhn_probe0,1,526,NaN,oven,bottle,270,0526_rot_dnn_270_bottle_20_n03983396_5497.png,n03983396_5497.png,0.0,-6.8458667,-0.638331,-4.3893905
alexnet_w1_mlp_simclrhn_probe0,1,527,NaN,oven,chair,180,0527_rot_dnn_180_chair_20_n04429376_6390.png,n04429376_6390.png,0.0,-2.0466485,0.35713595,-1.6997323
alexnet_w1_mlp_simclrhn_probe0,1,528,NaN,bird,dog,90,0528_rot_dnn_90_dog_20_n02100877_11159.png,n02100877_11159.png,0.0,-6.987709,-6.350632,-0.45048138
alexnet_w1_mlp_simclrhn_probe0,1,529,NaN,bottle,bottle,180,0529_rot_dnn_180_bottle_20_n04579145_579.png,n04579145_579.png,1.0,-0.9289623,-1.4653698,0.3792974
alexnet_w1_mlp_simclrhn_probe0,1,530,NaN,cat,cat,90,0530_rot_dnn_90_cat_20_n02123159_5678.png,n02123159_5678.png,1.0,-4.984359,-9.413864,3.1321332
alexnet_w1_mlp_simclrhn_probe0,1,531,NaN,knife,elephant,180,0531_rot_dnn_180_elephant_20_n02504013_13283.png,n02504013_13283.png,0.0,-7.399046,-4.8101406,-1.8306326
alexnet_w1_mlp_simclrhn_probe0,1,532,NaN,bear,dog,90,0532_rot_dnn_90_dog_20_n02095570_7633.png,n02095570_7633.png,0.0,-3.8937006,-1.609035,-1.6155026
alexnet_w1_mlp_simclrhn_probe0,1,533,NaN,bicycle,clock,180,0533_rot_dnn_180_clock_20_n02708093_8311.png,n02708093_8311.png,0.0,-6.089462,0.15216696,-4.413498
alexnet_w1_mlp_simclrhn_probe0,1,534,NaN,knife,chair,270,0534_rot_dnn_270_chair_20_n03376595_426.png,n03376595_426.png,0.0,-5.1890206,-3.6449485,-1.0918239
alexnet_w1_mlp_simclrhn_probe0,1,535,NaN,elephant,dog,180,0535_rot_dnn_180_dog_20_n02100877_3112.png,n02100877_3112.png,0.0,-4.633451,-2.255278,-1.6816221
alexnet_w1_mlp_simclrhn_probe0,1,536,NaN,bottle,car,270,0536_rot_dnn_270_car_20_n02814533_458.png,n02814533_458.png,0.0,-6.440763,-3.7092197,-1.9314928
alexnet_w1_mlp_simclrhn_probe0,1,537,NaN,bird,bird,0,0537_rot_dnn_0_bird_20_n02006656_5079.png,n02006656_5079.png,1.0,-1.2544278,-2.3767982,0.7936357
alexnet_w1_mlp_simclrhn_probe0,1,538,NaN,knife,boat,90,0538_rot_dnn_90_boat_20_n04273569_12725.png,n04273569_12725.png,0.0,-7.6631713,-5.1330533,-1.7890636
alexnet_w1_mlp_simclrhn_probe0,1,539,NaN,cat,cat,270,0539_rot_dnn_270_cat_20_n02123045_6677.png,n02123045_6677.png,1.0,-5.5080123,-6.3487906,0.5945201
alexnet_w1_mlp_simclrhn_probe0,1,540,NaN,bicycle,bicycle,270,0540_rot_dnn_270_bicycle_20_n02835271_4440.png,n02835271_4440.png,1.0,-1.9337302,-7.3848524,3.8545256
alexnet_w1_mlp_simclrhn_probe0,1,541,NaN,keyboard,keyboard,270,0541_rot_dnn_270_keyboard_20_n03085013_21444.png,n03085013_21444.png,1.0,3.678002,-0.52258146,2.970261
alexnet_w1_mlp_simclrhn_probe0,1,542,NaN,clock,clock,180,0542_rot_dnn_180_clock_20_n02708093_8255.png,n02708093_8255.png,1.0,-3.0209274,-3.3147779,0.20778362
alexnet_w1_mlp_simclrhn_probe0,1,543,NaN,bicycle,bicycle,0,0543_rot_dnn_0_bicycle_20_n02835271_30318.png,n02835271_30318.png,1.0,-7.9250374,-8.918373,0.7023944
alexnet_w1_mlp_simclrhn_probe0,1,544,NaN,knife,cat,180,0544_rot_dnn_180_cat_20_n02123394_2059.png,n02123394_2059.png,0.0,-5.12542,-4.5010157,-0.4415206
alexnet_w1_mlp_simclrhn_probe0,1,545,NaN,cat,elephant,180,0545_rot_dnn_180_elephant_20_n02504013_6618.png,n02504013_6618.png,0.0,-2.7614412,-2.7574975,-0.0027886042
alexnet_w1_mlp_simclrhn_probe0,1,546,NaN,cat,cat,270,0546_rot_dnn_270_cat_20_n02124075_8889.png,n02124075_8889.png,1.0,-3.4216805,-4.0749936,0.46196216
alexnet_w1_mlp_simclrhn_probe0,1,547,NaN,oven,dog,90,0547_rot_dnn_90_dog_20_n02100877_7302.png,n02100877_7302.png,0.0,-6.536274,-4.955714,-1.1176245
alexnet_w1_mlp_simclrhn_probe0,1,548,NaN,chair,car,180,0548_rot_dnn_180_car_20_n02814533_85971.png,n02814533_85971.png,0.0,-3.8949559,-3.336959,-0.39456347
alexnet_w1_mlp_simclrhn_probe0,1,549,NaN,chair,chair,0,0549_rot_dnn_0_chair_20_n03376595_5909.png,n03376595_5909.png,1.0,1.8530823,-2.2386305,2.8932781
alexnet_w1_mlp_simclrhn_probe0,1,550,NaN,knife,keyboard,270,0550_rot_dnn_270_keyboard_20_n03085013_13083.png,n03085013_13083.png,0.0,-2.4740934,-1.9906237,-0.34186473
alexnet_w1_mlp_simclrhn_probe0,1,551,NaN,oven,oven,90,0551_rot_dnn_90_oven_20_n04111531_9611.png,n04111531_9611.png,1.0,-0.38129142,-2.3754144,1.4100579
alexnet_w1_mlp_simclrhn_probe0,1,552,NaN,boat,boat,0,0552_rot_dnn_0_boat_20_n02951358_13996.png,n02951358_13996.png,1.0,-6.1562104,-7.649662,1.0560298
alexnet_w1_mlp_simclrhn_probe0,1,553,NaN,boat,boat,0,0553_rot_dnn_0_boat_20_n03344393_9251.png,n03344393_9251.png,1.0,0.9146922,0.2347328,0.48080394
alexnet_w1_mlp_simclrhn_probe0,1,554,NaN,knife,airplane,180,0554_rot_dnn_180_airplane_20_n02690373_9175.png,n02690373_9175.png,0.0,-5.944848,-3.072705,-2.030912
alexnet_w1_mlp_simclrhn_probe0,1,555,NaN,elephant,bear,0,0555_rot_dnn_0_bear_20_n02132136_2791.png,n02132136_2791.png,0.0,0.13549566,1.7142651,-1.1163586
alexnet_w1_mlp_simclrhn_probe0,1,556,NaN,elephant,elephant,180,0556_rot_dnn_180_elephant_20_n02504458_193.png,n02504458_193.png,1.0,-5.1855993,-6.9410276,1.2412753
alexnet_w1_mlp_simclrhn_probe0,1,557,NaN,bird,bird,270,0557_rot_dnn_270_bird_20_n01843383_9985.png,n01843383_9985.png,1.0,-6.337568,-7.64493,0.9244446
alexnet_w1_mlp_simclrhn_probe0,1,558,NaN,bird,bird,270,0558_rot_dnn_270_bird_20_n02028035_10744.png,n02028035_10744.png,1.0,-2.0763123,-3.9797256,1.3459165
alexnet_w1_mlp_simclrhn_probe0,1,559,NaN,chair,truck,270,0559_rot_dnn_270_truck_20_n04467665_3720.png,n04467665_3720.png,0.0,-6.0624237,-1.7650895,-3.038674
alexnet_w1_mlp_simclrhn_probe0,1,560,NaN,car,car,0,0560_rot_dnn_0_car_20_n02814533_52605.png,n02814533_52605.png,1.0,2.4353516,-0.5322184,2.098389
alexnet_w1_mlp_simclrhn_probe0,1,561,NaN,clock,clock,90,0561_rot_dnn_90_clock_20_n04548280_5631.png,n04548280_5631.png,1.0,5.0404544,-1.904022,4.910486
alexnet_w1_mlp_simclrhn_probe0,1,562,NaN,oven,oven,0,0562_rot_dnn_0_oven_20_n04111531_1922.png,n04111531_1922.png,1.0,5.3549185,-4.51672,6.9803023
alexnet_w1_mlp_simclrhn_probe0,1,563,NaN,airplane,boat,180,0563_rot_dnn_180_boat_20_n03662601_1197.png,n03662601_1197.png,0.0,-1.681221,1.4715512,-2.2293465
alexnet_w1_mlp_simclrhn_probe0,1,564,NaN,clock,clock,270,0564_rot_dnn_270_clock_20_n02708093_1862.png,n02708093_1862.png,1.0,-3.4613087,-5.4547515,1.4095769
alexnet_w1_mlp_simclrhn_probe0,1,565,NaN,oven,truck,180,0565_rot_dnn_180_truck_20_n03796401_4582.png,n03796401_4582.png,0.0,-0.7104989,0.62025917,-0.94098806
alexnet_w1_mlp_simclrhn_probe0,1,566,NaN,elephant,elephant,90,0566_rot_dnn_90_elephant_20_n02504013_565.png,n02504013_565.png,1.0,-3.92993,-4.252967,0.2284216
alexnet_w1_mlp_simclrhn_probe0,1,567,NaN,oven,truck,180,0567_rot_dnn_180_truck_20_n04467665_49826.png,n04467665_49826.png,0.0,-6.1752295,-4.3552895,-1.286892
alexnet_w1_mlp_simclrhn_probe0,1,568,NaN,bear,bear,270,0568_rot_dnn_270_bear_20_n02134418_5067.png,n02134418_5067.png,1.0,-0.6708963,-1.2793018,0.43020764
alexnet_w1_mlp_simclrhn_probe0,1,569,NaN,bottle,chair,90,0569_rot_dnn_90_chair_20_n04429376_29223.png,n04429376_29223.png,0.0,-3.9842956,-3.4969404,-0.34461218
alexnet_w1_mlp_simclrhn_probe0,1,570,NaN,clock,airplane,270,0570_rot_dnn_270_airplane_20_n02690373_5909.png,n02690373_5909.png,0.0,-8.224815,-2.8046696,-3.832622
alexnet_w1_mlp_simclrhn_probe0,1,571,NaN,knife,dog,270,0571_rot_dnn_270_dog_20_n02097658_722.png,n02097658_722.png,0.0,-6.698309,-2.6678925,-2.8499348
alexnet_w1_mlp_simclrhn_probe0,1,572,NaN,oven,oven,0,0572_rot_dnn_0_oven_20_n04111531_10339.png,n04111531_10339.png,1.0,-1.047591,-4.587698,2.5032337
alexnet_w1_mlp_simclrhn_probe0,1,573,NaN,bottle,truck,90,0573_rot_dnn_90_truck_20_n03417042_28078.png,n03417042_28078.png,0.0,-7.1316395,-0.8419377,-4.447491
alexnet_w1_mlp_simclrhn_probe0,1,574,NaN,oven,chair,180,0574_rot_dnn_180_chair_20_n04099969_22118.png,n04099969_22118.png,0.0,-7.226264,-5.064265,-1.5287644
alexnet_w1_mlp_simclrhn_probe0,1,575,NaN,oven,clock,270,0575_rot_dnn_270_clock_20_n04548280_7978.png,n04548280_7978.png,0.0,-8.063209,-4.8263783,-2.2887847
alexnet_w1_mlp_simclrhn_probe0,1,576,NaN,elephant,bear,180,0576_rot_dnn_180_bear_20_n02133161_1962.png,n02133161_1962.png,0.0,-3.5073888,-3.4144182,-0.06574015
alexnet_w1_mlp_simclrhn_probe0,1,577,NaN,knife,clock,180,0577_rot_dnn_180_clock_20_n04548280_13750.png,n04548280_13750.png,0.0,-7.8924637,-4.6090984,-2.3216898
alexnet_w1_mlp_simclrhn_probe0,1,578,NaN,knife,keyboard,0,0578_rot_dnn_0_keyboard_20_n03085013_15249.png,n03085013_15249.png,0.0,-5.1569166,-2.0939267,-2.165861
alexnet_w1_mlp_simclrhn_probe0,1,579,NaN,oven,car,90,0579_rot_dnn_90_car_20_n02814533_479.png,n02814533_479.png,0.0,-8.131716,-3.1933699,-3.4919379
alexnet_w1_mlp_simclrhn_probe0,1,580,NaN,knife,keyboard,270,0580_rot_dnn_270_keyboard_20_n03085013_20716.png,n03085013_20716.png,0.0,-3.8915682,-3.1234667,-0.54312974
alexnet_w1_mlp_simclrhn_probe0,1,581,NaN,bicycle,bird,180,0581_rot_dnn_180_bird_20_n01530575_7990.png,n01530575_7990.png,0.0,-6.788073,-6.150446,-0.45087048
alexnet_w1_mlp_simclrhn_probe0,1,582,NaN,chair,chair,0,0582_rot_dnn_0_chair_20_n04429376_17343.png,n04429376_17343.png,1.0,-5.2536,-6.080876,0.5849723
alexnet_w1_mlp_simclrhn_probe0,1,583,NaN,chair,chair,90,0583_rot_dnn_90_chair_20_n02791124_8775.png,n02791124_8775.png,1.0,-3.9244537,-5.326594,0.9914628
alexnet_w1_mlp_simclrhn_probe0,1,584,NaN,cat,cat,90,0584_rot_dnn_90_cat_20_n02125311_2959.png,n02125311_2959.png,1.0,-2.9777043,-4.4180546,1.0184815
alexnet_w1_mlp_simclrhn_probe0,1,585,NaN,oven,oven,180,0585_rot_dnn_180_oven_20_n04111531_13906.png,n04111531_13906.png,1.0,-2.4677784,-2.7476923,0.19792902
alexnet_w1_mlp_simclrhn_probe0,1,586,NaN,bicycle,airplane,90,0586_rot_dnn_90_airplane_20_n02690373_7293.png,n02690373_7293.png,0.0,-2.8598685,-2.084652,-0.5481609
alexnet_w1_mlp_simclrhn_probe0,1,587,NaN,chair,chair,180,0587_rot_dnn_180_chair_20_n04099969_10825.png,n04099969_10825.png,1.0,-0.8185859,-2.3304827,1.0690725
alexnet_w1_mlp_simclrhn_probe0,1,588,NaN,airplane,airplane,180,0588_rot_dnn_180_airplane_20_n02690373_17044.png,n02690373_17044.png,1.0,2.1362505,0.08866135,1.4478642
alexnet_w1_mlp_simclrhn_probe0,1,589,NaN,bird,bird,0,0589_rot_dnn_0_bird_20_n01797886_6169.png,n01797886_6169.png,1.0,-4.5807533,-5.729422,0.8122315
alexnet_w1_mlp_simclrhn_probe0,1,590,NaN,bicycle,oven,0,0590_rot_dnn_0_oven_20_n04111531_13255.png,n04111531_13255.png,0.0,-5.724019,-2.616294,-2.1974936
alexnet_w1_mlp_simclrhn_probe0,1,591,NaN,clock,knife,270,0591_rot_dnn_270_knife_20_n03041632_17820.png,n03041632_17820.png,0.0,-3.9186738,-1.9024615,-1.4256774
alexnet_w1_mlp_simclrhn_probe0,1,592,NaN,knife,bicycle,270,0592_rot_dnn_270_bicycle_20_n02835271_21640.png,n02835271_21640.png,0.0,-8.886829,-8.718634,-0.11893234
alexnet_w1_mlp_simclrhn_probe0,1,593,NaN,bear,bear,0,0593_rot_dnn_0_bear_20_n02134418_517.png,n02134418_517.png,1.0,-0.014746785,-0.12799338,0.08007743
alexnet_w1_mlp_simclrhn_probe0,1,594,NaN,chair,airplane,180,0594_rot_dnn_180_airplane_20_n02690373_4588.png,n02690373_4588.png,0.0,-9.084517,-5.439086,-2.5777087
alexnet_w1_mlp_simclrhn_probe0,1,595,NaN,oven,bottle,270,0595_rot_dnn_270_bottle_20_n02823428_12190.png,n02823428_12190.png,0.0,-5.436696,-2.7683263,-1.8868223
alexnet_w1_mlp_simclrhn_probe0,1,596,NaN,clock,bottle,0,0596_rot_dnn_0_bottle_20_n04591713_1717.png,n04591713_1717.png,0.0,0.31185988,0.36762914,-0.039434824
alexnet_w1_mlp_simclrhn_probe0,1,597,NaN,knife,knife,0,0597_rot_dnn_0_knife_20_n03041632_9488.png,n03041632_9488.png,1.0,-0.49547756,-5.215111,3.3372846
alexnet_w1_mlp_simclrhn_probe0,1,598,NaN,chair,truck,90,0598_rot_dnn_90_truck_20_n03417042_11166.png,n03417042_11166.png,0.0,-5.0581474,-1.6845009,-2.3855283
alexnet_w1_mlp_simclrhn_probe0,1,599,NaN,elephant,elephant,90,0599_rot_dnn_90_elephant_20_n02504458_585.png,n02504458_585.png,1.0,-3.2736,-6.0143604,1.9380102
alexnet_w1_mlp_simclrhn_probe0,1,600,NaN,oven,keyboard,0,0600_rot_dnn_0_keyboard_20_n04505470_5046.png,n04505470_5046.png,0.0,-3.0238962,-1.4107898,-1.1406385
alexnet_w1_mlp_simclrhn_probe0,1,601,NaN,chair,chair,180,0601_rot_dnn_180_chair_20_n03376595_4937.png,n03376595_4937.png,1.0,-5.3934717,-6.4800463,0.76832426
alexnet_w1_mlp_simclrhn_probe0,1,602,NaN,oven,boat,180,0602_rot_dnn_180_boat_20_n03662601_1740.png,n03662601_1740.png,0.0,-13.282248,-6.0264606,-5.130616
alexnet_w1_mlp_simclrhn_probe0,1,603,NaN,knife,knife,0,0603_rot_dnn_0_knife_20_n03041632_4037.png,n03041632_4037.png,1.0,-1.7917013,-2.5017788,0.50210065
alexnet_w1_mlp_simclrhn_probe0,1,604,NaN,car,boat,0,0604_rot_dnn_0_boat_20_n04273569_1538.png,n04273569_1538.png,0.0,-11.858587,-8.59445,-2.3080935
alexnet_w1_mlp_simclrhn_probe0,1,605,NaN,knife,bird,0,0605_rot_dnn_0_bird_20_n02017213_15918.png,n02017213_15918.png,0.0,-7.7446322,-4.9755664,-1.9580253
alexnet_w1_mlp_simclrhn_probe0,1,606,NaN,keyboard,keyboard,0,0606_rot_dnn_0_keyboard_20_n03085013_10463.png,n03085013_10463.png,1.0,4.4833136,2.984794,1.0596135
alexnet_w1_mlp_simclrhn_probe0,1,607,NaN,elephant,bear,270,0607_rot_dnn_270_bear_20_n02133161_7939.png,n02133161_7939.png,0.0,-3.1672232,-1.7065235,-1.0328707
alexnet_w1_mlp_simclrhn_probe0,1,608,NaN,truck,car,270,0608_rot_dnn_270_car_20_n04285008_11704.png,n04285008_11704.png,0.0,-7.3503127,-6.011449,-0.9467197
alexnet_w1_mlp_simclrhn_probe0,1,609,NaN,clock,truck,90,0609_rot_dnn_90_truck_20_n03796401_16046.png,n03796401_16046.png,0.0,-4.091631,-0.29364452,-2.6855822
alexnet_w1_mlp_simclrhn_probe0,1,610,NaN,bottle,chair,270,0610_rot_dnn_270_chair_20_n02791124_3710.png,n02791124_3710.png,0.0,-8.175447,-3.5823324,-3.2478228
alexnet_w1_mlp_simclrhn_probe0,1,611,NaN,keyboard,keyboard,180,0611_rot_dnn_180_keyboard_20_n04505470_3566.png,n04505470_3566.png,1.0,-0.070794046,-1.2276243,0.8180026
alexnet_w1_mlp_simclrhn_probe0,1,612,NaN,knife,bird,90,0612_rot_dnn_90_bird_20_n02037110_8716.png,n02037110_8716.png,0.0,-8.313234,-3.0379238,-3.730208
alexnet_w1_mlp_simclrhn_probe0,1,613,NaN,car,car,0,0613_rot_dnn_0_car_20_n03100240_19550.png,n03100240_19550.png,1.0,1.0828443,-1.2215283,1.6294374
alexnet_w1_mlp_simclrhn_probe0,1,614,NaN,airplane,airplane,270,0614_rot_dnn_270_airplane_20_n02690373_10769.png,n02690373_10769.png,1.0,-2.8427343,-4.0635424,0.8632417
alexnet_w1_mlp_simclrhn_probe0,1,615,NaN,bicycle,bicycle,0,0615_rot_dnn_0_bicycle_20_n03792782_3456.png,n03792782_3456.png,1.0,-1.9632133,-4.581827,1.8516395
alexnet_w1_mlp_simclrhn_probe0,1,616,NaN,airplane,chair,0,0616_rot_dnn_0_chair_20_n03376595_2368.png,n03376595_2368.png,0.0,-2.889152,-1.9119837,-0.6909624
alexnet_w1_mlp_simclrhn_probe0,1,617,NaN,dog,dog,0,0617_rot_dnn_0_dog_20_n02091467_2974.png,n02091467_2974.png,1.0,-4.9750915,-5.678039,0.49705905
alexnet_w1_mlp_simclrhn_probe0,1,618,NaN,knife,knife,180,0618_rot_dnn_180_knife_20_n03041632_43634.png,n03041632_43634.png,1.0,-1.2004831,-3.3115077,1.4927199
alexnet_w1_mlp_simclrhn_probe0,1,619,NaN,keyboard,keyboard,180,0619_rot_dnn_180_keyboard_20_n04505470_4477.png,n04505470_4477.png,1.0,-0.31429905,-2.4302385,1.4961951
alexnet_w1_mlp_simclrhn_probe0,1,620,NaN,clock,boat,90,0620_rot_dnn_90_boat_20_n03344393_4773.png,n03344393_4773.png,0.0,-4.2879,-3.2634485,-0.7243966
alexnet_w1_mlp_simclrhn_probe0,1,621,NaN,airplane,airplane,180,0621_rot_dnn_180_airplane_20_n02690373_139.png,n02690373_139.png,1.0,1.828127,-2.3954349,2.9865093
alexnet_w1_mlp_simclrhn_probe0,1,622,NaN,knife,knife,270,0622_rot_dnn_270_knife_20_n03041632_737.png,n03041632_737.png,1.0,-4.6068687,-5.442219,0.5906817
alexnet_w1_mlp_simclrhn_probe0,1,623,NaN,bottle,chair,270,0623_rot_dnn_270_chair_20_n02791124_2698.png,n02791124_2698.png,0.0,-5.3733864,-4.062325,-0.9270604
alexnet_w1_mlp_simclrhn_probe0,1,624,NaN,bottle,truck,270,0624_rot_dnn_270_truck_20_n03417042_5301.png,n03417042_5301.png,0.0,-7.91187,-2.5491862,-3.79199
alexnet_w1_mlp_simclrhn_probe0,1,625,NaN,bird,bird,0,0625_rot_dnn_0_bird_20_n02006656_5757.png,n02006656_5757.png,1.0,-2.4232996,-6.103811,2.6025145
alexnet_w1_mlp_simclrhn_probe0,1,626,NaN,elephant,bear,270,0626_rot_dnn_270_bear_20_n02132136_15174.png,n02132136_15174.png,0.0,-1.1000829,-0.6194297,-0.3398731
alexnet_w1_mlp_simclrhn_probe0,1,627,NaN,clock,bottle,270,0627_rot_dnn_270_bottle_20_n04560804_6329.png,n04560804_6329.png,0.0,-2.9395382,-1.430596,-1.0669833
alexnet_w1_mlp_simclrhn_probe0,1,628,NaN,truck,truck,0,0628_rot_dnn_0_truck_20_n03417042_22196.png,n03417042_22196.png,1.0,-3.0655096,-3.4968042,0.3049714
alexnet_w1_mlp_simclrhn_probe0,1,629,NaN,cat,cat,0,0629_rot_dnn_0_cat_20_n02125311_18366.png,n02125311_18366.png,1.0,-3.7849386,-3.9976835,0.1504334
alexnet_w1_mlp_simclrhn_probe0,1,630,NaN,oven,chair,0,0630_rot_dnn_0_chair_20_n02791124_12707.png,n02791124_12707.png,0.0,-1.8880322,-1.855106,-0.023282342
alexnet_w1_mlp_simclrhn_probe0,1,631,NaN,oven,oven,180,0631_rot_dnn_180_oven_20_n04111531_1938.png,n04111531_1938.png,1.0,-3.2881587,-3.518332,0.16275714
alexnet_w1_mlp_simclrhn_probe0,1,632,NaN,oven,airplane,270,0632_rot_dnn_270_airplane_20_n02690373_9346.png,n02690373_9346.png,0.0,-13.793849,-1.5938525,-8.6267
alexnet_w1_mlp_simclrhn_probe0,1,633,NaN,elephant,cat,0,0633_rot_dnn_0_cat_20_n02123045_10433.png,n02123045_10433.png,0.0,-6.76511,-3.3911185,-2.3857722
alexnet_w1_mlp_simclrhn_probe0,1,634,NaN,airplane,airplane,180,0634_rot_dnn_180_airplane_20_n02690373_5055.png,n02690373_5055.png,1.0,0.29201177,-3.038774,2.3552213
alexnet_w1_mlp_simclrhn_probe0,1,635,NaN,clock,clock,270,0635_rot_dnn_270_clock_20_n04548280_4198.png,n04548280_4198.png,1.0,-1.4439797,-1.601401,0.11131362
