subj,session,trial,rt,object_response,category,condition,imagename,filename,is_correct,targ_act,max_nontarg_act,decision_margin
vit_b_16,1,1,NaN,chair,chair,0,0001_rot_dnn_0_chair_20_n03376595_3070.png,n03376595_3070.png,1.0,1.568985,0.80280703,0.5417696
vit_b_16,1,2,NaN,airplane,car,180,0002_rot_dnn_180_car_20_n02814533_29367.png,n02814533_29367.png,0.0,2.5797367,3.3389792,-0.53686553
vit_b_16,1,3,NaN,car,car,270,0003_rot_dnn_270_car_20_n02814533_31083.png,n02814533_31083.png,1.0,0.73233837,0.58043027,0.10741525
vit_b_16,1,4,NaN,truck,car,180,0004_rot_dnn_180_car_20_n03100240_1703.png,n03100240_1703.png,0.0,1.9937693,3.143043,-0.81265926
vit_b_16,1,5,NaN,bottle,bottle,180,0005_rot_dnn_180_bottle_20_n04591713_2359.png,n04591713_2359.png,1.0,2.3834293,0.51458704,1.3214711
vit_b_16,1,6,NaN,dog,dog,90,0006_rot_dnn_90_dog_20_n02111500_8796.png,n02111500_8796.png,1.0,0.86600924,0.58908236,0.19581687
vit_b_16,1,7,NaN,bear,bear,180,0007_rot_dnn_180_bear_20_n02132136_4512.png,n02132136_4512.png,1.0,1.0643408,0.9178359,0.10359464
vit_b_16,1,8,NaN,chair,chair,90,0008_rot_dnn_90_chair_20_n03376595_4820.png,n03376595_4820.png,1.0,3.6197126,1.3278855,1.6205666
vit_b_16,1,9,NaN,bottle,bottle,270,0009_rot_dnn_270_bottle_20_n04591713_6111.png,n04591713_6111.png,1.0,2.4486136,0.5121672,1.3692744
vit_b_16,1,10,NaN,keyboard,bottle,270,0010_rot_dnn_270_bottle_20_n04560804_14111.png,n04560804_14111.png,0.0,-0.12371179,2.6145077,-1.9362136
vit_b_16,1,11,NaN,dog,dog,0,0011_rot_dnn_0_dog_20_n02099601_8656.png,n02099601_8656.png,1.0,1.268932,0.8739717,0.2792791
vit_b_16,1,12,NaN,cat,cat,0,0012_rot_dnn_0_cat_20_n02125311_14054.png,n02125311_14054.png,1.0,1.6191555,0.17200883,1.0232872
vit_b_16,1,13,NaN,elephant,bear,0,0013_rot_dnn_0_bear_20_n02132136_10385.png,n02132136_10385.png,0.0,1.3491322,1.520143,-0.12092294
vit_b_16,1,14,NaN,bottle,bottle,90,0014_rot_dnn_90_bottle_20_n02823428_10417.png,n02823428_10417.png,1.0,3.6778564,0.21462321,2.4488757
vit_b_16,1,15,NaN,keyboard,keyboard,0,0015_rot_dnn_0_keyboard_20_n03085013_23566.png,n03085013_23566.png,1.0,7.11257,0.2551131,4.848954
vit_b_16,1,16,NaN,clock,truck,90,0016_rot_dnn_90_truck_20_n03417042_12560.png,n03417042_12560.png,0.0,-0.27313903,2.3468735,-1.8526287
vit_b_16,1,17,NaN,knife,truck,180,0017_rot_dnn_180_truck_20_n04467665_69063.png,n04467665_69063.png,0.0,-0.27940995,4.0697,-3.075285
vit_b_16,1,18,NaN,oven,oven,180,0018_rot_dnn_180_oven_20_n04111531_9712.png,n04111531_9712.png,1.0,8.7154875,0.82730675,5.577786
vit_b_16,1,19,NaN,oven,oven,180,0019_rot_dnn_180_oven_20_n04111531_10375.png,n04111531_10375.png,1.0,7.139121,1.4557317,4.018763
vit_b_16,1,20,NaN,keyboard,keyboard,0,0020_rot_dnn_0_keyboard_20_n04505470_1744.png,n04505470_1744.png,1.0,4.83442,0.8335594,2.8290358
vit_b_16,1,21,NaN,bicycle,boat,90,0021_rot_dnn_90_boat_20_n04273569_7296.png,n04273569_7296.png,0.0,0.33767155,1.5153453,-0.83274114
vit_b_16,1,22,NaN,car,dog,0,0022_rot_dnn_0_dog_20_n02101006_4807.png,n02101006_4807.png,0.0,-0.16862048,0.41352317,-0.41163775
vit_b_16,1,23,NaN,clock,clock,90,0023_rot_dnn_90_clock_20_n02708093_1986.png,n02708093_1986.png,1.0,5.69365,0.16234547,3.911223
vit_b_16,1,24,NaN,bottle,bottle,0,0024_rot_dnn_0_bottle_20_n04560804_15562.png,n04560804_15562.png,1.0,3.9818993,0.05655106,2.7756405
vit_b_16,1,25,NaN,cat,cat,0,0025_rot_dnn_0_cat_20_n02124075_13594.png,n02124075_13594.png,1.0,3.912551,0.107087635,2.6908689
vit_b_16,1,26,NaN,bear,bear,90,0026_rot_dnn_90_bear_20_n02134418_4365.png,n02134418_4365.png,1.0,4.7531796,2.8919725,1.3160721
vit_b_16,1,27,NaN,bicycle,bear,180,0027_rot_dnn_180_bear_20_n02132136_8650.png,n02132136_8650.png,0.0,0.5177727,0.99441934,-0.3370401
vit_b_16,1,28,NaN,bird,bird,90,0028_rot_dnn_90_bird_20_n02009912_12219.png,n02009912_12219.png,1.0,0.8283609,0.5133635,0.22273682
vit_b_16,1,29,NaN,airplane,dog,90,0029_rot_dnn_90_dog_20_n02100236_1662.png,n02100236_1662.png,0.0,-0.30142856,1.05766,-0.96102077
vit_b_16,1,30,NaN,clock,clock,90,0030_rot_dnn_90_clock_20_n04548280_1947.png,n04548280_1947.png,1.0,5.9724846,0.35688776,3.9708266
vit_b_16,1,31,NaN,knife,dog,270,0031_rot_dnn_270_dog_20_n02109047_66167.png,n02109047_66167.png,0.0,1.1175865,1.1692619,-0.036540054
vit_b_16,1,32,NaN,oven,oven,90,0032_rot_dnn_90_oven_20_n04111531_21055.png,n04111531_21055.png,1.0,9.265785,0.8192031,5.9726353
vit_b_16,1,33,NaN,clock,clock,0,0033_rot_dnn_0_clock_20_n02708093_2012.png,n02708093_2012.png,1.0,4.9832315,0.79753155,2.9597368
vit_b_16,1,34,NaN,elephant,elephant,0,0034_rot_dnn_0_elephant_20_n02504458_6119.png,n02504458_6119.png,1.0,7.6980295,0.4505582,5.1247363
vit_b_16,1,35,NaN,chair,chair,0,0035_rot_dnn_0_chair_20_n04099969_12707.png,n04099969_12707.png,1.0,2.5176291,0.6270046,1.3368734
vit_b_16,1,36,NaN,keyboard,keyboard,270,0036_rot_dnn_270_keyboard_20_n03085013_19054.png,n03085013_19054.png,1.0,7.5614395,2.4430063,3.6192787
vit_b_16,1,37,NaN,chair,chair,0,0037_rot_dnn_0_chair_20_n02791124_422.png,n02791124_422.png,1.0,5.3986764,0.4964997,3.4663625
vit_b_16,1,38,NaN,bicycle,bicycle,0,0038_rot_dnn_0_bicycle_20_n02835271_23830.png,n02835271_23830.png,1.0,5.5535045,0.8058003,3.3571339
vit_b_16,1,39,NaN,knife,bird,90,0039_rot_dnn_90_bird_20_n01534433_14735.png,n01534433_14735.png,0.0,0.78132653,0.9085301,-0.089946516
vit_b_16,1,40,NaN,elephant,bird,90,0040_rot_dnn_90_bird_20_n02011460_13994.png,n02011460_13994.png,0.0,0.123292066,0.23638692,-0.079970144
vit_b_16,1,41,NaN,boat,boat,270,0041_rot_dnn_270_boat_20_n04273569_17522.png,n04273569_17522.png,1.0,1.6348689,1.2004303,0.30719447
vit_b_16,1,42,NaN,cat,bear,180,0042_rot_dnn_180_bear_20_n02132136_5537.png,n02132136_5537.png,0.0,1.4752387,2.7426445,-0.8961913
vit_b_16,1,43,NaN,bear,bear,90,0043_rot_dnn_90_bear_20_n02132136_19248.png,n02132136_19248.png,1.0,4.689425,0.7140609,2.811007
vit_b_16,1,44,NaN,knife,bird,270,0044_rot_dnn_270_bird_20_n01537544_1886.png,n01537544_1886.png,0.0,0.5972667,1.3207148,-0.51155514
vit_b_16,1,45,NaN,clock,clock,180,0045_rot_dnn_180_clock_20_n03196217_4776.png,n03196217_4776.png,1.0,4.6194034,0.5725063,2.8615882
vit_b_16,1,46,NaN,boat,boat,270,0046_rot_dnn_270_boat_20_n04612504_17610.png,n04612504_17610.png,1.0,2.438702,2.3310711,0.076106586
vit_b_16,1,47,NaN,cat,bear,90,0047_rot_dnn_90_bear_20_n02134418_1814.png,n02134418_1814.png,0.0,2.036628,2.4228022,-0.2730664
vit_b_16,1,48,NaN,keyboard,keyboard,180,0048_rot_dnn_180_keyboard_20_n03085013_20330.png,n03085013_20330.png,1.0,6.5049047,3.5568943,2.0845582
vit_b_16,1,49,NaN,bottle,bottle,180,0049_rot_dnn_180_bottle_20_n02823428_14574.png,n02823428_14574.png,1.0,3.5313556,0.35552904,2.2456486
vit_b_16,1,50,NaN,bicycle,bicycle,0,0050_rot_dnn_0_bicycle_20_n03792782_7105.png,n03792782_7105.png,1.0,6.256319,0.45120442,4.104836
vit_b_16,1,51,NaN,elephant,elephant,0,0051_rot_dnn_0_elephant_20_n02504458_1302.png,n02504458_1302.png,1.0,7.6341915,0.23472874,5.23221
vit_b_16,1,52,NaN,clock,airplane,90,0052_rot_dnn_90_airplane_20_n02690373_3877.png,n02690373_3877.png,0.0,-0.4076227,0.90759283,-0.92999786
vit_b_16,1,53,NaN,knife,boat,90,0053_rot_dnn_90_boat_20_n02951358_15422.png,n02951358_15422.png,0.0,-0.55710465,1.778648,-1.6516266
vit_b_16,1,54,NaN,clock,car,270,0054_rot_dnn_270_car_20_n02814533_46458.png,n02814533_46458.png,0.0,-0.26842892,1.0372825,-0.9232774
vit_b_16,1,55,NaN,car,car,0,0055_rot_dnn_0_car_20_n02814533_39547.png,n02814533_39547.png,1.0,1.7511288,0.2679755,1.0487478
vit_b_16,1,56,NaN,airplane,boat,180,0056_rot_dnn_180_boat_20_n04273569_6586.png,n04273569_6586.png,0.0,1.3300003,5.5694904,-2.9977722
vit_b_16,1,57,NaN,clock,clock,90,0057_rot_dnn_90_clock_20_n02708093_3394.png,n02708093_3394.png,1.0,4.239883,3.8455317,0.27884844
vit_b_16,1,58,NaN,keyboard,keyboard,180,0058_rot_dnn_180_keyboard_20_n03085013_25419.png,n03085013_25419.png,1.0,4.622801,1.1661485,2.4442222
vit_b_16,1,59,NaN,bottle,bottle,180,0059_rot_dnn_180_bottle_20_n04557648_1871.png,n04557648_1871.png,1.0,3.7441838,1.9603635,1.2613515
vit_b_16,1,60,NaN,chair,chair,90,0060_rot_dnn_90_chair_20_n04099969_6944.png,n04099969_6944.png,1.0,2.6636121,1.9487444,0.5054878
vit_b_16,1,61,NaN,boat,boat,270,0061_rot_dnn_270_boat_20_n04273569_1495.png,n04273569_1495.png,1.0,1.7226429,1.3638206,0.2537257
vit_b_16,1,62,NaN,keyboard,keyboard,90,0062_rot_dnn_90_keyboard_20_n03085013_7317.png,n03085013_7317.png,1.0,6.5249805,1.5834014,3.494224
vit_b_16,1,63,NaN,knife,knife,90,0063_rot_dnn_90_knife_20_n03041632_7448.png,n03041632_7448.png,1.0,3.8230762,0.8153711,2.1267688
vit_b_16,1,64,NaN,truck,truck,0,0064_rot_dnn_0_truck_20_n03417042_11000.png,n03417042_11000.png,1.0,3.178753,1.7584199,1.0043272
vit_b_16,1,65,NaN,elephant,bird,0,0065_rot_dnn_0_bird_20_n01582220_8827.png,n01582220_8827.png,0.0,0.3601824,0.55469936,-0.13754426
vit_b_16,1,66,NaN,airplane,airplane,270,0066_rot_dnn_270_airplane_20_n02690373_9247.png,n02690373_9247.png,1.0,2.5247908,1.0311563,1.056159
vit_b_16,1,67,NaN,bear,bear,270,0067_rot_dnn_270_bear_20_n02133161_14397.png,n02133161_14397.png,1.0,1.6295342,1.2499546,0.26840335
vit_b_16,1,68,NaN,oven,oven,270,0068_rot_dnn_270_oven_20_n04111531_13560.png,n04111531_13560.png,1.0,6.022555,1.6483151,3.0930548
vit_b_16,1,69,NaN,airplane,bear,180,0069_rot_dnn_180_bear_20_n02132136_545.png,n02132136_545.png,0.0,-0.048062235,2.9002943,-2.084803
vit_b_16,1,70,NaN,elephant,cat,90,0070_rot_dnn_90_cat_20_n02125311_73072.png,n02125311_73072.png,0.0,0.15155213,2.6454408,-1.7634456
vit_b_16,1,71,NaN,bicycle,bicycle,0,0071_rot_dnn_0_bicycle_20_n03792782_30530.png,n03792782_30530.png,1.0,4.9614534,0.7052642,3.0095804
vit_b_16,1,72,NaN,knife,knife,90,0072_rot_dnn_90_knife_20_n03041632_4975.png,n03041632_4975.png,1.0,4.3629794,1.5556165,1.9851055
vit_b_16,1,73,NaN,knife,dog,90,0073_rot_dnn_90_dog_20_n02107683_3120.png,n02107683_3120.png,0.0,0.5225405,2.590883,-1.462539
vit_b_16,1,74,NaN,bicycle,elephant,90,0074_rot_dnn_90_elephant_20_n02504013_7316.png,n02504013_7316.png,0.0,-0.6291921,1.2596016,-1.3355789
vit_b_16,1,75,NaN,oven,truck,90,0075_rot_dnn_90_truck_20_n03796401_7284.png,n03796401_7284.png,0.0,0.53050834,0.7820861,-0.17789233
vit_b_16,1,76,NaN,chair,chair,270,0076_rot_dnn_270_chair_20_n03376595_497.png,n03376595_497.png,1.0,3.2633379,1.2375764,1.4324298
vit_b_16,1,77,NaN,truck,truck,270,0077_rot_dnn_270_truck_20_n03796401_19845.png,n03796401_19845.png,1.0,2.667222,2.5611637,0.07499459
vit_b_16,1,78,NaN,chair,chair,90,0078_rot_dnn_90_chair_20_n04099969_1941.png,n04099969_1941.png,1.0,3.2335155,2.0969038,0.8037059
vit_b_16,1,79,NaN,clock,truck,90,0079_rot_dnn_90_truck_20_n03417042_28886.png,n03417042_28886.png,0.0,0.78406245,2.0207562,-0.87447464
vit_b_16,1,80,NaN,car,car,0,0080_rot_dnn_0_car_20_n02814533_12185.png,n02814533_12185.png,1.0,4.389973,0.454796,2.7825904
vit_b_16,1,81,NaN,bicycle,bicycle,90,0081_rot_dnn_90_bicycle_20_n02835271_1621.png,n02835271_1621.png,1.0,4.761794,1.6617042,2.1920948
vit_b_16,1,82,NaN,cat,cat,0,0082_rot_dnn_0_cat_20_n02123597_32226.png,n02123597_32226.png,1.0,2.3803098,0.49442124,1.3335246
vit_b_16,1,83,NaN,bicycle,bicycle,90,0083_rot_dnn_90_bicycle_20_n03792782_5048.png,n03792782_5048.png,1.0,5.0210896,0.77547425,3.0021036
vit_b_16,1,84,NaN,airplane,airplane,0,0084_rot_dnn_0_airplane_20_n02690373_10044.png,n02690373_10044.png,1.0,8.748932,0.13213262,6.0929976
vit_b_16,1,85,NaN,car,car,180,0085_rot_dnn_180_car_20_n03100240_5752.png,n03100240_5752.png,1.0,5.926974,2.4047313,2.4906015
vit_b_16,1,86,NaN,clock,car,90,0086_rot_dnn_90_car_20_n02814533_68219.png,n02814533_68219.png,0.0,0.19069405,1.8038181,-1.140651
vit_b_16,1,87,NaN,airplane,airplane,0,0087_rot_dnn_0_airplane_20_n02690373_1171.png,n02690373_1171.png,1.0,8.904649,0.17357361,6.173803
vit_b_16,1,88,NaN,oven,bird,90,0088_rot_dnn_90_bird_20_n01817953_6970.png,n01817953_6970.png,0.0,-0.3604279,2.5912175,-2.0871284
vit_b_16,1,89,NaN,oven,car,90,0089_rot_dnn_90_car_20_n04285008_15503.png,n04285008_15503.png,0.0,-0.056896072,2.7586641,-1.9909017
vit_b_16,1,90,NaN,clock,boat,270,0090_rot_dnn_270_boat_20_n03344393_11886.png,n03344393_11886.png,0.0,-0.47091952,2.1039479,-1.8207062
vit_b_16,1,91,NaN,boat,boat,0,0091_rot_dnn_0_boat_20_n04273569_30203.png,n04273569_30203.png,1.0,3.2003121,1.0446727,1.5242673
vit_b_16,1,92,NaN,keyboard,keyboard,180,0092_rot_dnn_180_keyboard_20_n03085013_22069.png,n03085013_22069.png,1.0,7.5498724,0.39398575,5.059976
vit_b_16,1,93,NaN,knife,knife,0,0093_rot_dnn_0_knife_20_n03041632_26314.png,n03041632_26314.png,1.0,9.90149,0.59048367,6.583876
vit_b_16,1,94,NaN,oven,bicycle,270,0094_rot_dnn_270_bicycle_20_n03792782_18308.png,n03792782_18308.png,0.0,0.51851267,3.6411524,-2.2080398
vit_b_16,1,95,NaN,airplane,car,180,0095_rot_dnn_180_car_20_n04285008_8396.png,n04285008_8396.png,0.0,0.6299507,5.3708086,-3.352293
vit_b_16,1,96,NaN,chair,bear,90,0096_rot_dnn_90_bear_20_n02133161_12349.png,n02133161_12349.png,0.0,-0.011694983,1.0980747,-0.78472567
vit_b_16,1,97,NaN,cat,bear,270,0097_rot_dnn_270_bear_20_n02132136_18303.png,n02132136_18303.png,0.0,1.370804,1.7746525,-0.28556404
vit_b_16,1,98,NaN,cat,cat,180,0098_rot_dnn_180_cat_20_n02123394_6853.png,n02123394_6853.png,1.0,5.053404,0.5384852,3.1925297
vit_b_16,1,99,NaN,knife,cat,180,0099_rot_dnn_180_cat_20_n02123597_4805.png,n02123597_4805.png,0.0,0.5368498,4.046182,-2.4814727
vit_b_16,1,100,NaN,car,car,0,0100_rot_dnn_0_car_20_n03100240_17587.png,n03100240_17587.png,1.0,5.507171,3.6705515,1.2986863
vit_b_16,1,101,NaN,oven,bird,180,0101_rot_dnn_180_bird_20_n01601694_19236.png,n01601694_19236.png,0.0,-0.18542555,0.37465885,-0.3960395
vit_b_16,1,102,NaN,cat,cat,0,0102_rot_dnn_0_cat_20_n02123597_2341.png,n02123597_2341.png,1.0,2.72598,0.6981058,1.4339236
vit_b_16,1,103,NaN,elephant,elephant,270,0103_rot_dnn_270_elephant_20_n02504013_7883.png,n02504013_7883.png,1.0,2.973425,1.5405229,1.0132147
vit_b_16,1,104,NaN,chair,chair,270,0104_rot_dnn_270_chair_20_n03376595_14240.png,n03376595_14240.png,1.0,1.9344461,1.731817,0.1432804
vit_b_16,1,105,NaN,airplane,airplane,0,0105_rot_dnn_0_airplane_20_n02690373_10188.png,n02690373_10188.png,1.0,8.840123,0.1370194,6.154024
vit_b_16,1,106,NaN,clock,truck,90,0106_rot_dnn_90_truck_20_n03417042_8634.png,n03417042_8634.png,0.0,0.8002422,2.5274837,-1.2213442
vit_b_16,1,107,NaN,knife,knife,90,0107_rot_dnn_90_knife_20_n03041632_32774.png,n03041632_32774.png,1.0,6.544306,0.6505156,4.167539
vit_b_16,1,108,NaN,bottle,bottle,90,0108_rot_dnn_90_bottle_20_n03983396_4115.png,n03983396_4115.png,1.0,3.7073796,0.5231442,2.2515945
vit_b_16,1,109,NaN,clock,clock,270,0109_rot_dnn_270_clock_20_n04548280_8552.png,n04548280_8552.png,1.0,6.008146,1.1551306,3.4315999
vit_b_16,1,110,NaN,car,car,0,0110_rot_dnn_0_car_20_n02814533_6233.png,n02814533_6233.png,1.0,5.289697,1.1316673,2.9401712
vit_b_16,1,111,NaN,elephant,elephant,0,0111_rot_dnn_0_elephant_20_n02504458_9870.png,n02504458_9870.png,1.0,8.072757,0.2680026,5.5187945
vit_b_16,1,112,NaN,bicycle,bicycle,270,0112_rot_dnn_270_bicycle_20_n02835271_3956.png,n02835271_3956.png,1.0,5.397814,1.8623804,2.499929
vit_b_16,1,113,NaN,knife,knife,90,0113_rot_dnn_90_knife_20_n03041632_14817.png,n03041632_14817.png,1.0,2.4449296,2.4394984,0.0038404209
vit_b_16,1,114,NaN,knife,chair,90,0114_rot_dnn_90_chair_20_n04099969_8642.png,n04099969_8642.png,0.0,2.7320254,3.235613,-0.3560903
vit_b_16,1,115,NaN,clock,clock,0,0115_rot_dnn_0_clock_20_n02708093_240.png,n02708093_240.png,1.0,6.610716,0.45591807,4.352099
vit_b_16,1,116,NaN,bear,bear,180,0116_rot_dnn_180_bear_20_n02133161_3896.png,n02133161_3896.png,1.0,1.1770605,0.9612106,0.15262891
vit_b_16,1,117,NaN,bottle,bottle,270,0117_rot_dnn_270_bottle_20_n04557648_11000.png,n04557648_11000.png,1.0,1.8084363,0.5979885,0.85591584
vit_b_16,1,118,NaN,keyboard,keyboard,90,0118_rot_dnn_90_keyboard_20_n03085013_2853.png,n03085013_2853.png,1.0,4.7706623,0.6645337,2.9034715
vit_b_16,1,119,NaN,oven,boat,90,0119_rot_dnn_90_boat_20_n04273569_7097.png,n04273569_7097.png,0.0,-0.561931,2.4623566,-2.1384945
vit_b_16,1,120,NaN,bicycle,bicycle,270,0120_rot_dnn_270_bicycle_20_n03792782_40932.png,n03792782_40932.png,1.0,6.431114,0.86102086,3.9386506
vit_b_16,1,121,NaN,car,chair,270,0121_rot_dnn_270_chair_20_n04429376_44914.png,n04429376_44914.png,0.0,0.8550742,1.5712713,-0.5064278
vit_b_16,1,122,NaN,bear,bear,180,0122_rot_dnn_180_bear_20_n02134418_2122.png,n02134418_2122.png,1.0,1.7190609,0.84016204,0.62147534
vit_b_16,1,123,NaN,keyboard,keyboard,90,0123_rot_dnn_90_keyboard_20_n03085013_22704.png,n03085013_22704.png,1.0,7.220398,0.5666637,4.7049007
vit_b_16,1,124,NaN,truck,truck,0,0124_rot_dnn_0_truck_20_n03417042_6838.png,n03417042_6838.png,1.0,4.2347455,0.7866158,2.438196
vit_b_16,1,125,NaN,elephant,elephant,0,0125_rot_dnn_0_elephant_20_n02504458_3628.png,n02504458_3628.png,1.0,7.3891983,0.4790933,4.886182
vit_b_16,1,126,NaN,cat,cat,90,0126_rot_dnn_90_cat_20_n02123597_10141.png,n02123597_10141.png,1.0,3.4858568,0.6927496,1.9750249
vit_b_16,1,127,NaN,bicycle,bicycle,0,0127_rot_dnn_0_bicycle_20_n02835271_6383.png,n02835271_6383.png,1.0,6.269964,0.18073566,4.305735
vit_b_16,1,128,NaN,clock,car,180,0128_rot_dnn_180_car_20_n04285008_7154.png,n04285008_7154.png,0.0,4.1979337,4.257834,-0.0423559
vit_b_16,1,129,NaN,airplane,bird,0,0129_rot_dnn_0_bird_20_n02007558_1068.png,n02007558_1068.png,0.0,1.0857847,1.9913858,-0.6403567
vit_b_16,1,130,NaN,cat,cat,90,0130_rot_dnn_90_cat_20_n02125311_1896.png,n02125311_1896.png,1.0,2.962312,1.7657945,0.84606564
vit_b_16,1,131,NaN,keyboard,keyboard,0,0131_rot_dnn_0_keyboard_20_n04505470_1903.png,n04505470_1903.png,1.0,5.411657,0.32432514,3.597287
vit_b_16,1,132,NaN,bicycle,bicycle,90,0132_rot_dnn_90_bicycle_20_n03792782_66159.png,n03792782_66159.png,1.0,5.2151647,0.99128187,2.986736
vit_b_16,1,133,NaN,bear,bear,90,0133_rot_dnn_90_bear_20_n02134418_5219.png,n02134418_5219.png,1.0,3.9340935,0.20817971,2.634619
vit_b_16,1,134,NaN,chair,car,90,0134_rot_dnn_90_car_20_n02814533_92229.png,n02814533_92229.png,0.0,1.5810822,2.1380749,-0.39385328
vit_b_16,1,135,NaN,cat,dog,90,0135_rot_dnn_90_dog_20_n02090721_1002.png,n02090721_1002.png,0.0,0.15151656,2.1851916,-1.4380256
vit_b_16,1,136,NaN,clock,truck,270,0136_rot_dnn_270_truck_20_n04467665_46263.png,n04467665_46263.png,0.0,-0.5334194,3.0439184,-2.5295599
vit_b_16,1,137,NaN,bottle,bottle,180,0137_rot_dnn_180_bottle_20_n03983396_704.png,n03983396_704.png,1.0,3.7935643,1.324906,1.7456051
vit_b_16,1,138,NaN,truck,truck,180,0138_rot_dnn_180_truck_20_n03796401_4149.png,n03796401_4149.png,1.0,2.998174,1.8987255,0.77742743
vit_b_16,1,139,NaN,knife,bird,0,0139_rot_dnn_0_bird_20_n02006656_2030.png,n02006656_2030.png,0.0,0.24215272,0.3072222,-0.04601106
vit_b_16,1,140,NaN,knife,cat,90,0140_rot_dnn_90_cat_20_n02123394_234.png,n02123394_234.png,0.0,0.9982376,2.2537315,-0.88776827
vit_b_16,1,141,NaN,oven,chair,90,0141_rot_dnn_90_chair_20_n04429376_19916.png,n04429376_19916.png,0.0,-0.07531005,2.9645143,-2.1494803
vit_b_16,1,142,NaN,truck,truck,270,0142_rot_dnn_270_truck_20_n04467665_14024.png,n04467665_14024.png,1.0,2.8192277,1.54039,0.9042748
vit_b_16,1,143,NaN,keyboard,chair,90,0143_rot_dnn_90_chair_20_n04429376_14729.png,n04429376_14729.png,0.0,1.3638275,3.6946645,-1.6481507
vit_b_16,1,144,NaN,airplane,car,270,0144_rot_dnn_270_car_20_n02814533_82321.png,n02814533_82321.png,0.0,1.8305858,2.344517,-0.3634042
vit_b_16,1,145,NaN,clock,clock,180,0145_rot_dnn_180_clock_20_n04548280_3701.png,n04548280_3701.png,1.0,5.751314,0.74927527,3.5369756
vit_b_16,1,146,NaN,clock,boat,270,0146_rot_dnn_270_boat_20_n02951358_11442.png,n02951358_11442.png,0.0,-0.5046689,1.6645273,-1.5338533
vit_b_16,1,147,NaN,bear,bear,90,0147_rot_dnn_90_bear_20_n02132136_17349.png,n02132136_17349.png,1.0,5.268284,1.5852787,2.6042778
vit_b_16,1,148,NaN,clock,airplane,90,0148_rot_dnn_90_airplane_20_n02690373_4982.png,n02690373_4982.png,0.0,-0.38797712,2.077095,-1.7430693
vit_b_16,1,149,NaN,airplane,airplane,0,0149_rot_dnn_0_airplane_20_n02690373_2232.png,n02690373_2232.png,1.0,9.006798,0.32018548,6.1423626
vit_b_16,1,150,NaN,cat,cat,180,0150_rot_dnn_180_cat_20_n02123045_909.png,n02123045_909.png,1.0,2.7834702,0.8954598,1.335025
vit_b_16,1,151,NaN,clock,clock,180,0151_rot_dnn_180_clock_20_n04548280_1190.png,n04548280_1190.png,1.0,4.822531,0.47604004,3.0734336
vit_b_16,1,152,NaN,chair,oven,90,0152_rot_dnn_90_oven_20_n04111531_1855.png,n04111531_1855.png,0.0,1.5835236,3.5630188,-1.3997145
vit_b_16,1,153,NaN,boat,boat,270,0153_rot_dnn_270_boat_20_n03662601_21408.png,n03662601_21408.png,1.0,3.7018387,3.149125,0.39082757
vit_b_16,1,154,NaN,clock,dog,90,0154_rot_dnn_90_dog_20_n02088364_15877.png,n02088364_15877.png,0.0,0.32294583,0.97101283,-0.45825258
vit_b_16,1,155,NaN,knife,knife,90,0155_rot_dnn_90_knife_20_n03041632_15250.png,n03041632_15250.png,1.0,7.7903304,0.63539296,5.0593047
vit_b_16,1,156,NaN,oven,oven,0,0156_rot_dnn_0_oven_20_n04111531_17006.png,n04111531_17006.png,1.0,8.846252,0.7950839,5.693036
vit_b_16,1,157,NaN,clock,clock,90,0157_rot_dnn_90_clock_20_n04548280_11763.png,n04548280_11763.png,1.0,5.8186097,0.52209747,3.7451997
vit_b_16,1,158,NaN,cat,bird,270,0158_rot_dnn_270_bird_20_n02028035_8327.png,n02028035_8327.png,0.0,0.08458364,0.67638034,-0.41846347
vit_b_16,1,159,NaN,keyboard,car,90,0159_rot_dnn_90_car_20_n04285008_5641.png,n04285008_5641.png,0.0,-0.8026047,3.3843794,-2.960645
vit_b_16,1,160,NaN,oven,oven,90,0160_rot_dnn_90_oven_20_n04111531_10727.png,n04111531_10727.png,1.0,2.1700244,1.7839774,0.27297646
vit_b_16,1,161,NaN,elephant,elephant,270,0161_rot_dnn_270_elephant_20_n02504458_1971.png,n02504458_1971.png,1.0,7.201954,0.67558223,4.6148415
vit_b_16,1,162,NaN,bottle,bottle,180,0162_rot_dnn_180_bottle_20_n04560804_15941.png,n04560804_15941.png,1.0,4.220794,0.62237203,2.5444686
vit_b_16,1,163,NaN,elephant,elephant,0,0163_rot_dnn_0_elephant_20_n02504458_151.png,n02504458_151.png,1.0,7.3277683,0.3008626,4.9687724
vit_b_16,1,164,NaN,bear,bear,180,0164_rot_dnn_180_bear_20_n02133161_15427.png,n02133161_15427.png,1.0,2.617703,1.78676,0.5875654
vit_b_16,1,165,NaN,bear,bear,180,0165_rot_dnn_180_bear_20_n02134084_20605.png,n02134084_20605.png,1.0,2.1519063,0.5889008,1.1052117
vit_b_16,1,166,NaN,knife,bottle,90,0166_rot_dnn_90_bottle_20_n04560804_2693.png,n04560804_2693.png,0.0,0.60082066,0.92413443,-0.22861737
vit_b_16,1,167,NaN,bottle,airplane,270,0167_rot_dnn_270_airplane_20_n02690373_8214.png,n02690373_8214.png,0.0,-0.90896976,2.5393047,-2.4382985
vit_b_16,1,168,NaN,boat,boat,0,0168_rot_dnn_0_boat_20_n02951358_14966.png,n02951358_14966.png,1.0,2.6827474,0.38685107,1.6234438
vit_b_16,1,169,NaN,knife,knife,90,0169_rot_dnn_90_knife_20_n03041632_14801.png,n03041632_14801.png,1.0,2.35182,2.1389973,0.15048836
vit_b_16,1,170,NaN,dog,dog,90,0170_rot_dnn_90_dog_20_n02110063_8776.png,n02110063_8776.png,1.0,0.59980327,0.44309023,0.11081286
vit_b_16,1,171,NaN,elephant,dog,180,0171_rot_dnn_180_dog_20_n02100236_7671.png,n02100236_7671.png,0.0,-0.15013456,2.2637768,-1.7068931
vit_b_16,1,172,NaN,oven,oven,0,0172_rot_dnn_0_oven_20_n04111531_21248.png,n04111531_21248.png,1.0,7.8818135,1.5304841,4.491068
vit_b_16,1,173,NaN,knife,knife,270,0173_rot_dnn_270_knife_20_n03041632_17100.png,n03041632_17100.png,1.0,2.252637,1.7839068,0.33144224
vit_b_16,1,174,NaN,knife,knife,0,0174_rot_dnn_0_knife_20_n03041632_3781.png,n03041632_3781.png,1.0,7.468448,2.0568724,3.826562
vit_b_16,1,175,NaN,chair,oven,270,0175_rot_dnn_270_oven_20_n04111531_46651.png,n04111531_46651.png,0.0,0.64090437,1.8911959,-0.88408965
vit_b_16,1,176,NaN,clock,clock,0,0176_rot_dnn_0_clock_20_n04548280_8303.png,n04548280_8303.png,1.0,6.3247895,1.7055814,3.2662735
vit_b_16,1,177,NaN,airplane,airplane,0,0177_rot_dnn_0_airplane_20_n02690373_2070.png,n02690373_2070.png,1.0,9.158124,0.20460172,6.3310966
vit_b_16,1,178,NaN,car,car,180,0178_rot_dnn_180_car_20_n03100240_574.png,n03100240_574.png,1.0,3.5143375,1.8036598,1.2096318
vit_b_16,1,179,NaN,cat,dog,90,0179_rot_dnn_90_dog_20_n02095570_11263.png,n02095570_11263.png,0.0,1.0271914,1.478303,-0.31898403
vit_b_16,1,180,NaN,bottle,bottle,180,0180_rot_dnn_180_bottle_20_n03983396_9667.png,n03983396_9667.png,1.0,1.5537859,1.1430447,0.2904379
vit_b_16,1,181,NaN,clock,clock,0,0181_rot_dnn_0_clock_20_n02708093_3535.png,n02708093_3535.png,1.0,6.1493664,0.18061525,4.2205443
vit_b_16,1,182,NaN,knife,bird,180,0182_rot_dnn_180_bird_20_n01531178_17239.png,n01531178_17239.png,0.0,0.22856389,1.4410923,-0.857387
vit_b_16,1,183,NaN,elephant,elephant,180,0183_rot_dnn_180_elephant_20_n02504458_2272.png,n02504458_2272.png,1.0,7.828698,0.33607796,5.2980824
vit_b_16,1,184,NaN,knife,knife,90,0184_rot_dnn_90_knife_20_n03041632_50648.png,n03041632_50648.png,1.0,8.77165,0.51598126,5.8376393
vit_b_16,1,185,NaN,knife,knife,0,0185_rot_dnn_0_knife_20_n03041632_33225.png,n03041632_33225.png,1.0,4.062878,0.78130937,2.3204195
vit_b_16,1,186,NaN,airplane,airplane,0,0186_rot_dnn_0_airplane_20_n02690373_736.png,n02690373_736.png,1.0,8.634591,0.29692918,5.8956175
vit_b_16,1,187,NaN,knife,knife,270,0187_rot_dnn_270_knife_20_n03041632_2546.png,n03041632_2546.png,1.0,6.2905893,1.6538175,3.2786927
vit_b_16,1,188,NaN,boat,boat,180,0188_rot_dnn_180_boat_20_n04273569_13053.png,n04273569_13053.png,1.0,2.2460542,0.3462124,1.3433911
vit_b_16,1,189,NaN,airplane,airplane,180,0189_rot_dnn_180_airplane_20_n02690373_3588.png,n02690373_3588.png,1.0,3.9551535,2.8799477,0.7602853
vit_b_16,1,190,NaN,keyboard,keyboard,0,0190_rot_dnn_0_keyboard_20_n03085013_21004.png,n03085013_21004.png,1.0,6.301317,2.2170784,2.887993
vit_b_16,1,191,NaN,boat,boat,180,0191_rot_dnn_180_boat_20_n03662601_16627.png,n03662601_16627.png,1.0,2.6621392,1.3532413,0.92553055
vit_b_16,1,192,NaN,elephant,bird,180,0192_rot_dnn_180_bird_20_n02017213_6478.png,n02017213_6478.png,0.0,0.76953536,1.4404396,-0.47440094
vit_b_16,1,193,NaN,bear,bear,90,0193_rot_dnn_90_bear_20_n02134418_998.png,n02134418_998.png,1.0,3.7932663,0.5942457,2.2620492
vit_b_16,1,194,NaN,clock,truck,90,0194_rot_dnn_90_truck_20_n04467665_71055.png,n04467665_71055.png,0.0,-0.77109677,1.6361165,-1.7021568
vit_b_16,1,195,NaN,clock,car,90,0195_rot_dnn_90_car_20_n02814533_23979.png,n02814533_23979.png,0.0,-0.6458351,2.1170003,-1.9536197
vit_b_16,1,196,NaN,elephant,elephant,180,0196_rot_dnn_180_elephant_20_n02504458_6805.png,n02504458_6805.png,1.0,2.1189842,0.6243151,1.0568907
vit_b_16,1,197,NaN,clock,clock,90,0197_rot_dnn_90_clock_20_n04548280_4841.png,n04548280_4841.png,1.0,3.5971735,1.5676855,1.4350648
vit_b_16,1,198,NaN,clock,boat,90,0198_rot_dnn_90_boat_20_n03662601_6832.png,n03662601_6832.png,0.0,1.739217,1.8652649,-0.08912929
vit_b_16,1,199,NaN,oven,oven,270,0199_rot_dnn_270_oven_20_n04111531_766.png,n04111531_766.png,1.0,7.879901,0.684499,5.087918
vit_b_16,1,200,NaN,clock,clock,0,0200_rot_dnn_0_clock_20_n04548280_1305.png,n04548280_1305.png,1.0,6.3628955,0.85636556,3.8937047
vit_b_16,1,201,NaN,bicycle,bicycle,0,0201_rot_dnn_0_bicycle_20_n03792782_19083.png,n03792782_19083.png,1.0,8.467087,0.3547843,5.736264
vit_b_16,1,202,NaN,bird,bird,90,0202_rot_dnn_90_bird_20_n01860187_20081.png,n01860187_20081.png,1.0,1.0583242,0.97483504,0.059035767
vit_b_16,1,203,NaN,oven,oven,0,0203_rot_dnn_0_oven_20_n04111531_4817.png,n04111531_4817.png,1.0,8.99587,0.9880755,5.662366
vit_b_16,1,204,NaN,clock,car,180,0204_rot_dnn_180_car_20_n02814533_33360.png,n02814533_33360.png,0.0,3.1140163,3.5133553,-0.2823753
vit_b_16,1,205,NaN,clock,clock,270,0205_rot_dnn_270_clock_20_n04548280_4035.png,n04548280_4035.png,1.0,5.4210796,0.8088999,3.2613037
vit_b_16,1,206,NaN,keyboard,keyboard,270,0206_rot_dnn_270_keyboard_20_n03085013_7879.png,n03085013_7879.png,1.0,7.582183,0.5073595,5.0026555
vit_b_16,1,207,NaN,airplane,airplane,0,0207_rot_dnn_0_airplane_20_n02690373_2598.png,n02690373_2598.png,1.0,8.77934,0.3011109,5.995013
vit_b_16,1,208,NaN,cat,cat,180,0208_rot_dnn_180_cat_20_n02123045_436.png,n02123045_436.png,1.0,4.691419,1.5138052,2.2469125
vit_b_16,1,209,NaN,airplane,airplane,270,0209_rot_dnn_270_airplane_20_n02690373_813.png,n02690373_813.png,1.0,5.6436634,1.7383268,2.76149
vit_b_16,1,210,NaN,cat,cat,0,0210_rot_dnn_0_cat_20_n02123159_1008.png,n02123159_1008.png,1.0,3.976227,0.35243213,2.56241
vit_b_16,1,211,NaN,bottle,bottle,90,0211_rot_dnn_90_bottle_20_n03983396_5452.png,n03983396_5452.png,1.0,4.328579,0.54814583,2.67317
vit_b_16,1,212,NaN,knife,dog,90,0212_rot_dnn_90_dog_20_n02090379_13010.png,n02090379_13010.png,0.0,-0.11169073,2.344559,-1.7368308
vit_b_16,1,213,NaN,bicycle,chair,180,0213_rot_dnn_180_chair_20_n04099969_4162.png,n04099969_4162.png,0.0,2.9027574,3.5065274,-0.4269299
vit_b_16,1,214,NaN,knife,keyboard,270,0214_rot_dnn_270_keyboard_20_n04505470_206.png,n04505470_206.png,0.0,1.9902768,3.1142154,-0.7947446
vit_b_16,1,215,NaN,cat,cat,0,0215_rot_dnn_0_cat_20_n02123045_5290.png,n02123045_5290.png,1.0,3.6709487,0.5624772,2.1980214
vit_b_16,1,216,NaN,chair,bird,180,0216_rot_dnn_180_bird_20_n01843383_6001.png,n01843383_6001.png,0.0,0.12600036,0.46654123,-0.24079877
vit_b_16,1,217,NaN,knife,knife,0,0217_rot_dnn_0_knife_20_n03041632_24376.png,n03041632_24376.png,1.0,9.995429,0.510567,6.7068105
vit_b_16,1,218,NaN,bicycle,bicycle,90,0218_rot_dnn_90_bicycle_20_n02835271_2915.png,n02835271_2915.png,1.0,6.7591457,1.1969612,3.9330583
vit_b_16,1,219,NaN,bicycle,bicycle,0,0219_rot_dnn_0_bicycle_20_n03792782_5517.png,n03792782_5517.png,1.0,7.0165405,1.066584,4.2072544
vit_b_16,1,220,NaN,bicycle,bicycle,90,0220_rot_dnn_90_bicycle_20_n02835271_7053.png,n02835271_7053.png,1.0,7.186244,1.1756798,4.250111
vit_b_16,1,221,NaN,clock,clock,180,0221_rot_dnn_180_clock_20_n04548280_7115.png,n04548280_7115.png,1.0,5.9192185,0.31668377,3.9615903
vit_b_16,1,222,NaN,boat,boat,270,0222_rot_dnn_270_boat_20_n04273569_29866.png,n04273569_29866.png,1.0,2.7854395,2.2103384,0.40665793
vit_b_16,1,223,NaN,clock,clock,90,0223_rot_dnn_90_clock_20_n02708093_3623.png,n02708093_3623.png,1.0,6.204167,0.52812123,4.0135703
vit_b_16,1,224,NaN,bear,bear,180,0224_rot_dnn_180_bear_20_n02132136_7468.png,n02132136_7468.png,1.0,2.3595614,1.2404728,0.7913152
vit_b_16,1,225,NaN,cat,cat,0,0225_rot_dnn_0_cat_20_n02123159_2137.png,n02123159_2137.png,1.0,4.4432173,0.2396785,2.9723508
vit_b_16,1,226,NaN,bottle,bottle,90,0226_rot_dnn_90_bottle_20_n03937543_5257.png,n03937543_5257.png,1.0,3.7200127,1.659516,1.4569913
vit_b_16,1,227,NaN,cat,cat,0,0227_rot_dnn_0_cat_20_n02123394_937.png,n02123394_937.png,1.0,4.0176287,0.86028916,2.2325764
vit_b_16,1,228,NaN,boat,boat,0,0228_rot_dnn_0_boat_20_n03662601_11764.png,n03662601_11764.png,1.0,3.5874085,0.67251164,2.0611434
vit_b_16,1,229,NaN,bear,bear,0,0229_rot_dnn_0_bear_20_n02132136_10412.png,n02132136_10412.png,1.0,5.2139955,0.33728293,3.4483564
vit_b_16,1,230,NaN,clock,clock,270,0230_rot_dnn_270_clock_20_n03196217_3600.png,n03196217_3600.png,1.0,5.3139873,0.31753662,3.533024
vit_b_16,1,231,NaN,cat,dog,270,0231_rot_dnn_270_dog_20_n02102177_255.png,n02102177_255.png,0.0,1.1773524,2.382148,-0.8519192
vit_b_16,1,232,NaN,bird,bird,270,0232_rot_dnn_270_bird_20_n01614925_1860.png,n01614925_1860.png,1.0,0.65561277,0.2788945,0.26638004
vit_b_16,1,233,NaN,airplane,airplane,180,0233_rot_dnn_180_airplane_20_n02690373_1021.png,n02690373_1021.png,1.0,5.342909,0.3020968,3.5643923
vit_b_16,1,234,NaN,chair,chair,180,0234_rot_dnn_180_chair_20_n03376595_9079.png,n03376595_9079.png,1.0,3.2851362,0.6659415,1.8520504
vit_b_16,1,235,NaN,chair,chair,90,0235_rot_dnn_90_chair_20_n02791124_5199.png,n02791124_5199.png,1.0,3.5823798,0.43556923,2.225131
vit_b_16,1,236,NaN,knife,keyboard,90,0236_rot_dnn_90_keyboard_20_n03085013_24294.png,n03085013_24294.png,0.0,2.0597548,2.3010395,-0.17061399
vit_b_16,1,237,NaN,cat,cat,0,0237_rot_dnn_0_cat_20_n02123597_13286.png,n02123597_13286.png,1.0,2.5856931,0.59263736,1.4093033
vit_b_16,1,238,NaN,bottle,bird,180,0238_rot_dnn_180_bird_20_n01560419_17392.png,n01560419_17392.png,0.0,0.8082942,0.8301231,-0.015435399
vit_b_16,1,239,NaN,oven,oven,270,0239_rot_dnn_270_oven_20_n04111531_6934.png,n04111531_6934.png,1.0,8.137134,1.1501017,4.940578
vit_b_16,1,240,NaN,clock,clock,90,0240_rot_dnn_90_clock_20_n03196217_6707.png,n03196217_6707.png,1.0,4.6700654,1.5148711,2.2310593
vit_b_16,1,241,NaN,knife,knife,180,0241_rot_dnn_180_knife_20_n03041632_15174.png,n03041632_15174.png,1.0,4.4371057,1.2580595,2.247925
vit_b_16,1,242,NaN,oven,oven,180,0242_rot_dnn_180_oven_20_n04111531_13644.png,n04111531_13644.png,1.0,8.668422,0.16865529,6.0102425
vit_b_16,1,243,NaN,elephant,elephant,0,0243_rot_dnn_0_elephant_20_n02504458_3458.png,n02504458_3458.png,1.0,7.170289,0.18739358,4.9376526
vit_b_16,1,244,NaN,clock,clock,90,0244_rot_dnn_90_clock_20_n04548280_18914.png,n04548280_18914.png,1.0,6.1126733,0.09776812,4.25318
vit_b_16,1,245,NaN,dog,dog,180,0245_rot_dnn_180_dog_20_n02107908_2754.png,n02107908_2754.png,1.0,1.0687255,1.0410523,0.019567855
vit_b_16,1,246,NaN,airplane,airplane,0,0246_rot_dnn_0_airplane_20_n02690373_1306.png,n02690373_1306.png,1.0,8.994224,0.30306056,6.1455803
vit_b_16,1,247,NaN,chair,chair,90,0247_rot_dnn_90_chair_20_n03376595_10266.png,n03376595_10266.png,1.0,1.782028,1.7210537,0.0431153
vit_b_16,1,248,NaN,keyboard,keyboard,270,0248_rot_dnn_270_keyboard_20_n04505470_1416.png,n04505470_1416.png,1.0,7.5326014,0.5429301,4.942444
vit_b_16,1,249,NaN,clock,clock,180,0249_rot_dnn_180_clock_20_n04548280_4686.png,n04548280_4686.png,1.0,6.085937,0.35008836,4.055857
vit_b_16,1,250,NaN,clock,truck,270,0250_rot_dnn_270_truck_20_n04467665_69882.png,n04467665_69882.png,0.0,-0.29382643,2.3854244,-1.8945163
vit_b_16,1,251,NaN,knife,bottle,270,0251_rot_dnn_270_bottle_20_n04591713_2123.png,n04591713_2123.png,0.0,1.3635718,3.5655725,-1.5570496
vit_b_16,1,252,NaN,oven,oven,90,0252_rot_dnn_90_oven_20_n04111531_6933.png,n04111531_6933.png,1.0,4.5183716,4.429304,0.062980205
vit_b_16,1,253,NaN,clock,car,270,0253_rot_dnn_270_car_20_n03100240_8898.png,n03100240_8898.png,0.0,0.43457803,2.652725,-1.5684668
vit_b_16,1,254,NaN,elephant,elephant,180,0254_rot_dnn_180_elephant_20_n02504458_5277.png,n02504458_5277.png,1.0,7.741185,0.47663575,5.136812
vit_b_16,1,255,NaN,oven,truck,270,0255_rot_dnn_270_truck_20_n03417042_9967.png,n03417042_9967.png,0.0,-0.5273465,2.890574,-2.4168348
vit_b_16,1,256,NaN,bear,bear,0,0256_rot_dnn_0_bear_20_n02134418_1017.png,n02134418_1017.png,1.0,3.1316292,0.20671247,2.0682285
vit_b_16,1,257,NaN,airplane,airplane,90,0257_rot_dnn_90_airplane_20_n02690373_1909.png,n02690373_1909.png,1.0,4.166172,0.7885856,2.3883142
vit_b_16,1,258,NaN,airplane,airplane,0,0258_rot_dnn_0_airplane_20_n02690373_6753.png,n02690373_6753.png,1.0,9.269938,0.7196579,6.0459614
vit_b_16,1,259,NaN,airplane,airplane,0,0259_rot_dnn_0_airplane_20_n02690373_1972.png,n02690373_1972.png,1.0,9.062564,0.29050332,6.2027836
vit_b_16,1,260,NaN,oven,oven,90,0260_rot_dnn_90_oven_20_n04111531_9915.png,n04111531_9915.png,1.0,5.450422,1.452494,2.8269618
vit_b_16,1,261,NaN,elephant,elephant,270,0261_rot_dnn_270_elephant_20_n02504458_485.png,n02504458_485.png,1.0,5.479498,1.6880375,2.6809676
vit_b_16,1,262,NaN,elephant,elephant,180,0262_rot_dnn_180_elephant_20_n02504013_2431.png,n02504013_2431.png,1.0,8.128138,0.36877555,5.4866977
vit_b_16,1,263,NaN,clock,clock,180,0263_rot_dnn_180_clock_20_n02708093_1038.png,n02708093_1038.png,1.0,6.171655,0.30959138,4.1451054
vit_b_16,1,264,NaN,cat,cat,270,0264_rot_dnn_270_cat_20_n02123597_5927.png,n02123597_5927.png,1.0,2.1689837,0.6321108,1.0867332
vit_b_16,1,265,NaN,bicycle,bicycle,90,0265_rot_dnn_90_bicycle_20_n03792782_3202.png,n03792782_3202.png,1.0,8.018596,0.8410506,5.0752907
vit_b_16,1,266,NaN,chair,car,270,0266_rot_dnn_270_car_20_n02814533_45480.png,n02814533_45480.png,0.0,-0.6088405,2.469294,-2.17657
vit_b_16,1,267,NaN,truck,truck,90,0267_rot_dnn_90_truck_20_n03796401_4571.png,n03796401_4571.png,1.0,3.9609733,1.6319121,1.6468949
vit_b_16,1,268,NaN,oven,oven,90,0268_rot_dnn_90_oven_20_n04111531_21011.png,n04111531_21011.png,1.0,7.9192643,1.7482877,4.3635397
vit_b_16,1,269,NaN,airplane,airplane,0,0269_rot_dnn_0_airplane_20_n02690373_4310.png,n02690373_4310.png,1.0,9.144642,0.24572559,6.2924843
vit_b_16,1,270,NaN,oven,oven,0,0270_rot_dnn_0_oven_20_n04111531_7134.png,n04111531_7134.png,1.0,5.177202,0.5460653,3.2747083
vit_b_16,1,271,NaN,cat,dog,270,0271_rot_dnn_270_dog_20_n02105251_1092.png,n02105251_1092.png,0.0,0.36022088,1.6719717,-0.9275479
vit_b_16,1,272,NaN,knife,knife,180,0272_rot_dnn_180_knife_20_n03041632_34505.png,n03041632_34505.png,1.0,3.6242409,0.3393415,2.3227746
vit_b_16,1,273,NaN,keyboard,keyboard,90,0273_rot_dnn_90_keyboard_20_n04505470_4520.png,n04505470_4520.png,1.0,6.7023115,0.904888,4.0993977
vit_b_16,1,274,NaN,airplane,boat,180,0274_rot_dnn_180_boat_20_n03344393_1519.png,n03344393_1519.png,0.0,2.5573652,3.0152938,-0.32380447
vit_b_16,1,275,NaN,chair,chair,270,0275_rot_dnn_270_chair_20_n03376595_9535.png,n03376595_9535.png,1.0,3.354335,2.1645138,0.8413307
vit_b_16,1,276,NaN,cat,cat,270,0276_rot_dnn_270_cat_20_n02125311_1326.png,n02125311_1326.png,1.0,1.6087302,0.4658983,0.8081042
vit_b_16,1,277,NaN,cat,cat,90,0277_rot_dnn_90_cat_20_n02123394_2948.png,n02123394_2948.png,1.0,3.5897086,1.3822035,1.5609419
vit_b_16,1,278,NaN,chair,oven,270,0278_rot_dnn_270_oven_20_n04111531_5429.png,n04111531_5429.png,0.0,2.1378937,2.2992969,-0.11412928
vit_b_16,1,279,NaN,elephant,elephant,0,0279_rot_dnn_0_elephant_20_n02504013_6645.png,n02504013_6645.png,1.0,7.6183653,0.06896487,5.338232
vit_b_16,1,280,NaN,keyboard,keyboard,90,0280_rot_dnn_90_keyboard_20_n04505470_4159.png,n04505470_4159.png,1.0,5.2933316,1.7155689,2.5298603
vit_b_16,1,281,NaN,bottle,bottle,90,0281_rot_dnn_90_bottle_20_n02823428_6252.png,n02823428_6252.png,1.0,2.4620516,1.5895191,0.61697364
vit_b_16,1,282,NaN,keyboard,airplane,180,0282_rot_dnn_180_airplane_20_n02690373_15097.png,n02690373_15097.png,0.0,2.5316033,3.5760431,-0.73853046
vit_b_16,1,283,NaN,knife,cat,0,0283_rot_dnn_0_cat_20_n02123159_3420.png,n02123159_3420.png,0.0,-0.04626507,2.1806612,-1.5746747
vit_b_16,1,284,NaN,cat,cat,0,0284_rot_dnn_0_cat_20_n02124075_7835.png,n02124075_7835.png,1.0,4.480831,0.025716074,3.1502419
vit_b_16,1,285,NaN,cat,cat,90,0285_rot_dnn_90_cat_20_n02123045_6696.png,n02123045_6696.png,1.0,3.5851147,1.866263,1.2154117
vit_b_16,1,286,NaN,airplane,boat,180,0286_rot_dnn_180_boat_20_n02951358_34766.png,n02951358_34766.png,0.0,1.6775234,1.9281877,-0.17724647
vit_b_16,1,287,NaN,bird,bird,0,0287_rot_dnn_0_bird_20_n01855672_8191.png,n01855672_8191.png,1.0,1.5548642,0.2862938,0.89701474
vit_b_16,1,288,NaN,truck,truck,180,0288_rot_dnn_180_truck_20_n03796401_1150.png,n03796401_1150.png,1.0,2.9456053,1.4607887,1.0499239
vit_b_16,1,289,NaN,bicycle,bicycle,270,0289_rot_dnn_270_bicycle_20_n03792782_9782.png,n03792782_9782.png,1.0,3.3169785,0.68913263,1.8581676
vit_b_16,1,290,NaN,clock,boat,270,0290_rot_dnn_270_boat_20_n03662601_12969.png,n03662601_12969.png,0.0,-0.190383,3.4838817,-2.5980976
vit_b_16,1,291,NaN,bottle,bottle,180,0291_rot_dnn_180_bottle_20_n02823428_4530.png,n02823428_4530.png,1.0,3.5307672,2.1909938,0.9473629
vit_b_16,1,292,NaN,chair,chair,0,0292_rot_dnn_0_chair_20_n02791124_2898.png,n02791124_2898.png,1.0,1.6383402,0.64311296,0.70373195
vit_b_16,1,293,NaN,cat,cat,270,0293_rot_dnn_270_cat_20_n02123394_686.png,n02123394_686.png,1.0,1.3938459,0.5277314,0.61243546
vit_b_16,1,294,NaN,cat,dog,180,0294_rot_dnn_180_dog_20_n02100735_4364.png,n02100735_4364.png,0.0,0.6252065,0.99878436,-0.26415947
vit_b_16,1,295,NaN,elephant,dog,0,0295_rot_dnn_0_dog_20_n02102177_7968.png,n02102177_7968.png,0.0,-0.026936643,0.5337857,-0.39649057
vit_b_16,1,296,NaN,knife,knife,270,0296_rot_dnn_270_knife_20_n03041632_15099.png,n03041632_15099.png,1.0,3.548777,0.5881885,2.0934522
vit_b_16,1,297,NaN,oven,oven,180,0297_rot_dnn_180_oven_20_n04111531_2937.png,n04111531_2937.png,1.0,9.030639,0.69208515,5.896248
vit_b_16,1,298,NaN,cat,cat,0,0298_rot_dnn_0_cat_20_n02123394_3695.png,n02123394_3695.png,1.0,2.194472,0.8212362,0.97102445
vit_b_16,1,299,NaN,bear,bear,180,0299_rot_dnn_180_bear_20_n02134084_3696.png,n02134084_3696.png,1.0,2.61236,1.1876984,1.0073879
vit_b_16,1,300,NaN,oven,oven,270,0300_rot_dnn_270_oven_20_n04111531_4671.png,n04111531_4671.png,1.0,7.9440784,2.1917536,4.067508
vit_b_16,1,301,NaN,oven,bear,180,0301_rot_dnn_180_bear_20_n02133161_2741.png,n02133161_2741.png,0.0,1.7964077,2.0958781,-0.21175757
vit_b_16,1,302,NaN,boat,boat,90,0302_rot_dnn_90_boat_20_n03662601_3893.png,n03662601_3893.png,1.0,3.3768075,0.628033,1.9436772
vit_b_16,1,303,NaN,clock,boat,90,0303_rot_dnn_90_boat_20_n03344393_2790.png,n03344393_2790.png,0.0,-0.27907553,2.4376066,-1.9209844
vit_b_16,1,304,NaN,keyboard,keyboard,180,0304_rot_dnn_180_keyboard_20_n03085013_3920.png,n03085013_3920.png,1.0,6.0108476,1.3325149,3.308081
vit_b_16,1,305,NaN,knife,chair,90,0305_rot_dnn_90_chair_20_n04099969_1962.png,n04099969_1962.png,0.0,1.2100426,4.1688647,-2.0922034
vit_b_16,1,306,NaN,knife,knife,0,0306_rot_dnn_0_knife_20_n03041632_13846.png,n03041632_13846.png,1.0,8.90463,1.0816042,5.5317144
vit_b_16,1,307,NaN,boat,boat,0,0307_rot_dnn_0_boat_20_n02951358_30117.png,n02951358_30117.png,1.0,2.0459044,0.2634301,1.2603997
vit_b_16,1,308,NaN,elephant,elephant,270,0308_rot_dnn_270_elephant_20_n02504458_9922.png,n02504458_9922.png,1.0,4.548847,0.42237735,2.9178548
vit_b_16,1,309,NaN,clock,boat,180,0309_rot_dnn_180_boat_20_n03344393_5609.png,n03344393_5609.png,0.0,1.2526748,1.3447337,-0.06509547
vit_b_16,1,310,NaN,chair,chair,0,0310_rot_dnn_0_chair_20_n02791124_3180.png,n02791124_3180.png,1.0,2.7108247,0.14910254,1.8114113
vit_b_16,1,311,NaN,elephant,boat,90,0311_rot_dnn_90_boat_20_n02951358_12532.png,n02951358_12532.png,0.0,0.9294988,1.3480186,-0.29593822
vit_b_16,1,312,NaN,cat,cat,180,0312_rot_dnn_180_cat_20_n02123597_1901.png,n02123597_1901.png,1.0,2.0087996,1.5135746,0.35017693
vit_b_16,1,313,NaN,bottle,elephant,270,0313_rot_dnn_270_elephant_20_n02504013_5173.png,n02504013_5173.png,0.0,0.5558614,0.9090503,-0.24974225
vit_b_16,1,314,NaN,airplane,car,180,0314_rot_dnn_180_car_20_n04285008_4834.png,n04285008_4834.png,0.0,4.881346,5.051236,-0.12013032
vit_b_16,1,315,NaN,truck,truck,270,0315_rot_dnn_270_truck_20_n03417042_28584.png,n03417042_28584.png,1.0,3.1394477,1.5752808,1.1060331
vit_b_16,1,316,NaN,keyboard,dog,180,0316_rot_dnn_180_dog_20_n02093428_11151.png,n02093428_11151.png,0.0,0.036531348,0.9754369,-0.6639065
vit_b_16,1,317,NaN,keyboard,bicycle,90,0317_rot_dnn_90_bicycle_20_n03792782_1475.png,n03792782_1475.png,0.0,0.7027489,1.5247676,-0.581255
vit_b_16,1,318,NaN,knife,knife,0,0318_rot_dnn_0_knife_20_n03041632_8666.png,n03041632_8666.png,1.0,9.188634,2.5580516,4.68853
vit_b_16,1,319,NaN,clock,clock,0,0319_rot_dnn_0_clock_20_n04548280_253.png,n04548280_253.png,1.0,5.28013,0.64164674,3.279903
vit_b_16,1,320,NaN,airplane,airplane,180,0320_rot_dnn_180_airplane_20_n02690373_9441.png,n02690373_9441.png,1.0,8.735059,0.13378675,6.0820174
vit_b_16,1,321,NaN,boat,airplane,270,0321_rot_dnn_270_airplane_20_n02690373_1946.png,n02690373_1946.png,0.0,1.086497,2.1513572,-0.7529699
vit_b_16,1,322,NaN,airplane,car,90,0322_rot_dnn_90_car_20_n03100240_5044.png,n03100240_5044.png,0.0,2.863043,2.9794066,-0.08228144
vit_b_16,1,323,NaN,cat,dog,270,0323_rot_dnn_270_dog_20_n02111500_6559.png,n02111500_6559.png,0.0,0.43862796,1.4274544,-0.6992059
vit_b_16,1,324,NaN,bear,dog,270,0324_rot_dnn_270_dog_20_n02096051_1852.png,n02096051_1852.png,0.0,-0.016971909,1.4683605,-1.0502887
vit_b_16,1,325,NaN,cat,bear,270,0325_rot_dnn_270_bear_20_n02133161_5020.png,n02133161_5020.png,0.0,0.82636964,2.0027957,-0.8318589
vit_b_16,1,326,NaN,chair,chair,90,0326_rot_dnn_90_chair_20_n02791124_2034.png,n02791124_2034.png,1.0,2.3250384,1.6062647,0.50824976
vit_b_16,1,327,NaN,clock,clock,180,0327_rot_dnn_180_clock_20_n03196217_6526.png,n03196217_6526.png,1.0,6.2664847,1.296469,3.5143318
vit_b_16,1,328,NaN,oven,oven,180,0328_rot_dnn_180_oven_20_n04111531_9779.png,n04111531_9779.png,1.0,3.9009109,1.851112,1.4494268
vit_b_16,1,329,NaN,boat,boat,0,0329_rot_dnn_0_boat_20_n03662601_28640.png,n03662601_28640.png,1.0,4.0797224,0.0946255,2.8178892
vit_b_16,1,330,NaN,knife,knife,90,0330_rot_dnn_90_knife_20_n03041632_31301.png,n03041632_31301.png,1.0,8.812985,0.57515126,5.8250284
vit_b_16,1,331,NaN,keyboard,keyboard,90,0331_rot_dnn_90_keyboard_20_n03085013_9209.png,n03085013_9209.png,1.0,7.1824913,0.9992299,4.372226
vit_b_16,1,332,NaN,bear,elephant,90,0332_rot_dnn_90_elephant_20_n02504458_113.png,n02504458_113.png,0.0,0.012008727,2.3406005,-1.646563
vit_b_16,1,333,NaN,clock,bicycle,180,0333_rot_dnn_180_bicycle_20_n03792782_6058.png,n03792782_6058.png,0.0,1.0641844,1.7140902,-0.4595528
vit_b_16,1,334,NaN,keyboard,keyboard,0,0334_rot_dnn_0_keyboard_20_n04505470_4651.png,n04505470_4651.png,1.0,5.2134185,0.76142275,3.1480365
vit_b_16,1,335,NaN,keyboard,keyboard,180,0335_rot_dnn_180_keyboard_20_n03085013_7009.png,n03085013_7009.png,1.0,1.973669,0.90384674,0.7564786
vit_b_16,1,336,NaN,keyboard,truck,270,0336_rot_dnn_270_truck_20_n04467665_44390.png,n04467665_44390.png,0.0,0.99062574,4.2892447,-2.3324757
vit_b_16,1,337,NaN,airplane,boat,90,0337_rot_dnn_90_boat_20_n04273569_17340.png,n04273569_17340.png,0.0,2.7263489,3.2010036,-0.33563155
vit_b_16,1,338,NaN,elephant,elephant,0,0338_rot_dnn_0_elephant_20_n02504013_1333.png,n02504013_1333.png,1.0,7.589412,0.18956597,5.2324815
vit_b_16,1,339,NaN,knife,knife,270,0339_rot_dnn_270_knife_20_n03041632_50034.png,n03041632_50034.png,1.0,8.129574,0.61839205,5.311208
vit_b_16,1,340,NaN,clock,clock,90,0340_rot_dnn_90_clock_20_n02708093_2740.png,n02708093_2740.png,1.0,3.6060708,1.1931566,1.7061881
vit_b_16,1,341,NaN,bear,bear,0,0341_rot_dnn_0_bear_20_n02132136_13975.png,n02132136_13975.png,1.0,4.4055924,0.34505096,2.8712366
vit_b_16,1,342,NaN,elephant,elephant,90,0342_rot_dnn_90_elephant_20_n02504013_256.png,n02504013_256.png,1.0,3.6981578,0.9797393,1.9222122
vit_b_16,1,343,NaN,airplane,boat,90,0343_rot_dnn_90_boat_20_n03344393_6588.png,n03344393_6588.png,0.0,0.17575486,2.0278833,-1.3096526
vit_b_16,1,344,NaN,knife,knife,270,0344_rot_dnn_270_knife_20_n03041632_7173.png,n03041632_7173.png,1.0,5.49159,2.1059573,2.3940039
vit_b_16,1,345,NaN,boat,elephant,180,0345_rot_dnn_180_elephant_20_n02504458_1041.png,n02504458_1041.png,0.0,0.37707114,2.2614658,-1.3324683
vit_b_16,1,346,NaN,chair,chair,180,0346_rot_dnn_180_chair_20_n04099969_8021.png,n04099969_8021.png,1.0,3.4805331,1.051783,1.7173856
vit_b_16,1,347,NaN,truck,truck,0,0347_rot_dnn_0_truck_20_n03796401_1791.png,n03796401_1791.png,1.0,1.552205,0.41553545,0.80374676
vit_b_16,1,348,NaN,keyboard,keyboard,90,0348_rot_dnn_90_keyboard_20_n04505470_5007.png,n04505470_5007.png,1.0,5.920717,1.7062529,2.9800758
vit_b_16,1,349,NaN,truck,truck,180,0349_rot_dnn_180_truck_20_n03417042_29384.png,n03417042_29384.png,1.0,3.1542363,0.97517425,1.5408297
vit_b_16,1,350,NaN,bird,bird,90,0350_rot_dnn_90_bird_20_n01534433_1271.png,n01534433_1271.png,1.0,1.0672088,0.38424137,0.4829309
vit_b_16,1,351,NaN,elephant,dog,270,0351_rot_dnn_270_dog_20_n02113624_393.png,n02113624_393.png,0.0,0.26293907,0.29158586,-0.020256344
vit_b_16,1,352,NaN,bicycle,cat,90,0352_rot_dnn_90_cat_20_n02123159_5461.png,n02123159_5461.png,0.0,0.8586147,1.1721003,-0.22166781
vit_b_16,1,353,NaN,knife,knife,270,0353_rot_dnn_270_knife_20_n03041632_9759.png,n03041632_9759.png,1.0,6.4220304,1.7642344,3.293559
vit_b_16,1,354,NaN,keyboard,chair,90,0354_rot_dnn_90_chair_20_n04429376_1754.png,n04429376_1754.png,0.0,0.696596,1.6415077,-0.6681535
vit_b_16,1,355,NaN,knife,oven,90,0355_rot_dnn_90_oven_20_n04111531_1818.png,n04111531_1818.png,0.0,0.42587477,2.1594799,-1.225844
vit_b_16,1,356,NaN,clock,clock,0,0356_rot_dnn_0_clock_20_n04548280_5798.png,n04548280_5798.png,1.0,5.2916064,0.30608281,3.5252976
vit_b_16,1,357,NaN,oven,oven,90,0357_rot_dnn_90_oven_20_n04111531_3099.png,n04111531_3099.png,1.0,8.365282,1.4371334,4.898941
vit_b_16,1,358,NaN,bottle,bottle,270,0358_rot_dnn_270_bottle_20_n04557648_581.png,n04557648_581.png,1.0,2.8741608,1.6090904,0.89453983
vit_b_16,1,359,NaN,bird,bird,0,0359_rot_dnn_0_bird_20_n01531178_3183.png,n01531178_3183.png,1.0,1.3445921,0.24733,0.7758815
vit_b_16,1,360,NaN,airplane,airplane,90,0360_rot_dnn_90_airplane_20_n02690373_8872.png,n02690373_8872.png,1.0,2.916816,2.9131804,0.0025707893
vit_b_16,1,361,NaN,cat,cat,0,0361_rot_dnn_0_cat_20_n02123394_5301.png,n02123394_5301.png,1.0,2.0877726,0.5494173,1.0877815
vit_b_16,1,362,NaN,bicycle,bicycle,270,0362_rot_dnn_270_bicycle_20_n03792782_12844.png,n03792782_12844.png,1.0,6.2527933,1.4436315,3.400591
vit_b_16,1,363,NaN,bear,bear,90,0363_rot_dnn_90_bear_20_n02132136_2691.png,n02132136_2691.png,1.0,2.2131498,1.9094473,0.21475008
vit_b_16,1,364,NaN,car,car,0,0364_rot_dnn_0_car_20_n02814533_27327.png,n02814533_27327.png,1.0,5.9766593,0.54191935,3.8429415
vit_b_16,1,365,NaN,bird,bird,0,0365_rot_dnn_0_bird_20_n02027492_7653.png,n02027492_7653.png,1.0,1.1234297,0.35396996,0.5440902
vit_b_16,1,366,NaN,bear,bear,0,0366_rot_dnn_0_bear_20_n02133161_62.png,n02133161_62.png,1.0,3.7570841,0.39508536,2.3772922
vit_b_16,1,367,NaN,bottle,bottle,0,0367_rot_dnn_0_bottle_20_n04560804_9710.png,n04560804_9710.png,1.0,1.4184669,0.26409003,0.8162677
vit_b_16,1,368,NaN,clock,clock,180,0368_rot_dnn_180_clock_20_n04548280_15154.png,n04548280_15154.png,1.0,5.3886204,0.4815851,3.469798
vit_b_16,1,369,NaN,oven,oven,180,0369_rot_dnn_180_oven_20_n04111531_114.png,n04111531_114.png,1.0,4.548189,1.7304524,1.9924407
vit_b_16,1,370,NaN,cat,cat,180,0370_rot_dnn_180_cat_20_n02125311_24813.png,n02125311_24813.png,1.0,5.4272175,0.5690055,3.4352746
vit_b_16,1,371,NaN,boat,airplane,90,0371_rot_dnn_90_airplane_20_n02690373_7647.png,n02690373_7647.png,0.0,-0.08545746,1.1081282,-0.84399253
vit_b_16,1,372,NaN,bottle,bottle,0,0372_rot_dnn_0_bottle_20_n03983396_9823.png,n03983396_9823.png,1.0,3.6028328,0.5936479,2.127815
vit_b_16,1,373,NaN,bear,bear,0,0373_rot_dnn_0_bear_20_n02134418_2398.png,n02134418_2398.png,1.0,3.9635549,0.091868185,2.737696
vit_b_16,1,374,NaN,keyboard,keyboard,90,0374_rot_dnn_90_keyboard_20_n04505470_4584.png,n04505470_4584.png,1.0,6.7077866,0.6960541,4.250937
vit_b_16,1,375,NaN,keyboard,keyboard,0,0375_rot_dnn_0_keyboard_20_n04505470_10055.png,n04505470_10055.png,1.0,5.767059,0.81542325,3.501335
vit_b_16,1,376,NaN,airplane,boat,270,0376_rot_dnn_270_boat_20_n04273569_10980.png,n04273569_10980.png,0.0,3.361588,5.0569544,-1.1988051
vit_b_16,1,377,NaN,car,car,180,0377_rot_dnn_180_car_20_n03100240_16210.png,n03100240_16210.png,1.0,5.416204,1.2681984,2.9330828
vit_b_16,1,378,NaN,keyboard,keyboard,0,0378_rot_dnn_0_keyboard_20_n04505470_1067.png,n04505470_1067.png,1.0,5.455368,0.23713697,3.6898468
vit_b_16,1,379,NaN,elephant,elephant,0,0379_rot_dnn_0_elephant_20_n02504458_7867.png,n02504458_7867.png,1.0,6.9727707,0.2520648,4.752257
vit_b_16,1,380,NaN,keyboard,keyboard,180,0380_rot_dnn_180_keyboard_20_n04505470_807.png,n04505470_807.png,1.0,5.1795115,2.3747814,1.9832437
vit_b_16,1,381,NaN,bicycle,bicycle,270,0381_rot_dnn_270_bicycle_20_n02835271_24104.png,n02835271_24104.png,1.0,4.031313,1.2547158,1.9633507
vit_b_16,1,382,NaN,bottle,bottle,0,0382_rot_dnn_0_bottle_20_n03937543_6698.png,n03937543_6698.png,1.0,1.7260481,0.7925208,0.6601035
vit_b_16,1,383,NaN,oven,oven,0,0383_rot_dnn_0_oven_20_n04111531_10403.png,n04111531_10403.png,1.0,2.7916102,1.2838291,1.0661623
vit_b_16,1,384,NaN,truck,truck,0,0384_rot_dnn_0_truck_20_n03796401_8463.png,n03796401_8463.png,1.0,3.009059,0.24097247,1.9573327
vit_b_16,1,385,NaN,truck,truck,0,0385_rot_dnn_0_truck_20_n03796401_8176.png,n03796401_8176.png,1.0,3.854234,0.8708134,2.109597
vit_b_16,1,386,NaN,bottle,bottle,90,0386_rot_dnn_90_bottle_20_n03937543_984.png,n03937543_984.png,1.0,1.003687,0.45056254,0.39111808
vit_b_16,1,387,NaN,bicycle,bicycle,90,0387_rot_dnn_90_bicycle_20_n02835271_11697.png,n02835271_11697.png,1.0,5.7811346,2.0471117,2.640353
vit_b_16,1,388,NaN,keyboard,keyboard,270,0388_rot_dnn_270_keyboard_20_n03085013_22417.png,n03085013_22417.png,1.0,6.571164,0.47547805,4.310301
vit_b_16,1,389,NaN,car,car,270,0389_rot_dnn_270_car_20_n03100240_7602.png,n03100240_7602.png,1.0,2.5282662,1.7701566,0.53606445
vit_b_16,1,390,NaN,bird,bird,90,0390_rot_dnn_90_bird_20_n01534433_14389.png,n01534433_14389.png,1.0,0.90187943,0.6192877,0.19982252
vit_b_16,1,391,NaN,bear,bear,0,0391_rot_dnn_0_bear_20_n02134084_2598.png,n02134084_2598.png,1.0,2.8229833,0.37163582,1.7333643
vit_b_16,1,392,NaN,bird,bird,180,0392_rot_dnn_180_bird_20_n01560419_19599.png,n01560419_19599.png,1.0,0.6698582,0.19400045,0.33648226
vit_b_16,1,393,NaN,bicycle,bicycle,90,0393_rot_dnn_90_bicycle_20_n02835271_8747.png,n02835271_8747.png,1.0,5.5601745,1.0766345,3.1703417
vit_b_16,1,394,NaN,knife,knife,180,0394_rot_dnn_180_knife_20_n03041632_30821.png,n03041632_30821.png,1.0,6.678142,0.45186847,4.4026403
vit_b_16,1,395,NaN,bicycle,chair,270,0395_rot_dnn_270_chair_20_n03376595_209.png,n03376595_209.png,0.0,0.9024099,1.5983464,-0.49210137
vit_b_16,1,396,NaN,boat,boat,180,0396_rot_dnn_180_boat_20_n04273569_29113.png,n04273569_29113.png,1.0,3.8635514,2.2863834,1.1152261
vit_b_16,1,397,NaN,oven,bird,270,0397_rot_dnn_270_bird_20_n02006656_6435.png,n02006656_6435.png,0.0,0.120744206,3.865587,-2.6480038
vit_b_16,1,398,NaN,clock,airplane,90,0398_rot_dnn_90_airplane_20_n02690373_3492.png,n02690373_3492.png,0.0,-1.5011545,1.0757263,-1.82213
vit_b_16,1,399,NaN,oven,oven,270,0399_rot_dnn_270_oven_20_n04111531_9380.png,n04111531_9380.png,1.0,9.626077,4.330941,3.7442262
vit_b_16,1,400,NaN,keyboard,keyboard,270,0400_rot_dnn_270_keyboard_20_n04505470_510.png,n04505470_510.png,1.0,5.3440304,0.5207343,3.4105854
vit_b_16,1,401,NaN,bird,bird,180,0401_rot_dnn_180_bird_20_n02027492_20576.png,n02027492_20576.png,1.0,1.1704656,0.36370406,0.5704665
vit_b_16,1,402,NaN,knife,bird,90,0402_rot_dnn_90_bird_20_n01855032_1920.png,n01855032_1920.png,0.0,-0.049120978,1.7599317,-1.2791934
vit_b_16,1,403,NaN,boat,boat,180,0403_rot_dnn_180_boat_20_n04273569_15761.png,n04273569_15761.png,1.0,4.831986,2.9466648,1.3331233
vit_b_16,1,404,NaN,oven,oven,180,0404_rot_dnn_180_oven_20_n04111531_10667.png,n04111531_10667.png,1.0,8.918682,0.8053423,5.7369976
vit_b_16,1,405,NaN,knife,knife,270,0405_rot_dnn_270_knife_20_n03041632_36215.png,n03041632_36215.png,1.0,7.0760565,0.79220563,4.4433537
vit_b_16,1,406,NaN,bicycle,bicycle,180,0406_rot_dnn_180_bicycle_20_n02835271_2625.png,n02835271_2625.png,1.0,3.9465399,1.6265947,1.6404492
vit_b_16,1,407,NaN,bird,bird,270,0407_rot_dnn_270_bird_20_n02028035_20411.png,n02028035_20411.png,1.0,1.2539263,0.6288253,0.44201314
vit_b_16,1,408,NaN,knife,knife,0,0408_rot_dnn_0_knife_20_n03041632_25656.png,n03041632_25656.png,1.0,8.210183,3.9478364,3.0139344
vit_b_16,1,409,NaN,oven,oven,270,0409_rot_dnn_270_oven_20_n04111531_4332.png,n04111531_4332.png,1.0,7.112326,3.8572993,2.3016515
vit_b_16,1,410,NaN,keyboard,keyboard,180,0410_rot_dnn_180_keyboard_20_n04505470_3553.png,n04505470_3553.png,1.0,6.5454907,0.7277975,4.1137304
vit_b_16,1,411,NaN,bicycle,bicycle,180,0411_rot_dnn_180_bicycle_20_n02835271_18706.png,n02835271_18706.png,1.0,6.289493,0.6972587,3.954307
vit_b_16,1,412,NaN,keyboard,truck,270,0412_rot_dnn_270_truck_20_n03417042_10744.png,n03417042_10744.png,0.0,-0.44613576,3.0363479,-2.462488
vit_b_16,1,413,NaN,clock,clock,0,0413_rot_dnn_0_clock_20_n03196217_11724.png,n03196217_11724.png,1.0,3.998408,0.5626999,2.4294126
vit_b_16,1,414,NaN,bicycle,bicycle,270,0414_rot_dnn_270_bicycle_20_n02835271_14123.png,n02835271_14123.png,1.0,6.7220225,2.428978,3.035641
vit_b_16,1,415,NaN,bottle,bicycle,270,0415_rot_dnn_270_bicycle_20_n02835271_7900.png,n02835271_7900.png,0.0,1.4292674,3.9569309,-1.787328
vit_b_16,1,416,NaN,truck,truck,270,0416_rot_dnn_270_truck_20_n03417042_2153.png,n03417042_2153.png,1.0,2.2068624,1.3461218,0.60863554
vit_b_16,1,417,NaN,bicycle,bicycle,270,0417_rot_dnn_270_bicycle_20_n03792782_10129.png,n03792782_10129.png,1.0,1.653903,0.9631265,0.48845276
vit_b_16,1,418,NaN,bird,bird,180,0418_rot_dnn_180_bird_20_n01514859_18430.png,n01514859_18430.png,1.0,0.66446745,0.0645167,0.42422923
vit_b_16,1,419,NaN,chair,chair,0,0419_rot_dnn_0_chair_20_n04099969_5010.png,n04099969_5010.png,1.0,2.737071,0.25425774,1.7556142
vit_b_16,1,420,NaN,truck,truck,0,0420_rot_dnn_0_truck_20_n03796401_588.png,n03796401_588.png,1.0,2.7150536,2.6185927,0.0682081
vit_b_16,1,421,NaN,car,car,0,0421_rot_dnn_0_car_20_n02814533_486.png,n02814533_486.png,1.0,4.8338885,0.8476894,2.8186686
vit_b_16,1,422,NaN,elephant,elephant,90,0422_rot_dnn_90_elephant_20_n02504013_3540.png,n02504013_3540.png,1.0,1.7960752,1.1855048,0.4317385
vit_b_16,1,423,NaN,car,car,180,0423_rot_dnn_180_car_20_n02814533_55715.png,n02814533_55715.png,1.0,3.1048002,1.4237027,1.1887155
vit_b_16,1,424,NaN,knife,bottle,180,0424_rot_dnn_180_bottle_20_n03983396_10896.png,n03983396_10896.png,0.0,0.8227685,1.1413673,-0.22528338
vit_b_16,1,425,NaN,bottle,bottle,90,0425_rot_dnn_90_bottle_20_n04557648_15053.png,n04557648_15053.png,1.0,3.4140794,1.7153194,1.2012048
vit_b_16,1,426,NaN,car,car,0,0426_rot_dnn_0_car_20_n04285008_8281.png,n04285008_8281.png,1.0,5.771251,0.4310876,3.776066
vit_b_16,1,427,NaN,bottle,car,270,0427_rot_dnn_270_car_20_n02814533_38596.png,n02814533_38596.png,0.0,0.81369305,1.1741375,-0.2548727
vit_b_16,1,428,NaN,elephant,elephant,270,0428_rot_dnn_270_elephant_20_n02504013_15219.png,n02504013_15219.png,1.0,3.1891747,1.3463819,1.3030512
vit_b_16,1,429,NaN,elephant,elephant,180,0429_rot_dnn_180_elephant_20_n02504013_828.png,n02504013_828.png,1.0,7.923724,0.61639905,5.1670594
vit_b_16,1,430,NaN,oven,oven,180,0430_rot_dnn_180_oven_20_n04111531_1439.png,n04111531_1439.png,1.0,9.018383,0.7972583,5.813213
vit_b_16,1,431,NaN,bottle,bottle,90,0431_rot_dnn_90_bottle_20_n03983396_3315.png,n03983396_3315.png,1.0,1.5836266,0.5513595,0.72992307
vit_b_16,1,432,NaN,airplane,airplane,90,0432_rot_dnn_90_airplane_20_n02690373_4024.png,n02690373_4024.png,1.0,6.362453,0.76732916,3.95635
vit_b_16,1,433,NaN,oven,elephant,270,0433_rot_dnn_270_elephant_20_n02504013_10301.png,n02504013_10301.png,0.0,1.4417948,2.5031986,-0.7505259
vit_b_16,1,434,NaN,oven,oven,180,0434_rot_dnn_180_oven_20_n04111531_7067.png,n04111531_7067.png,1.0,8.895984,0.73896503,5.7678833
vit_b_16,1,435,NaN,knife,knife,90,0435_rot_dnn_90_knife_20_n03041632_36834.png,n03041632_36834.png,1.0,6.3248124,2.7192974,2.5494843
vit_b_16,1,436,NaN,clock,car,90,0436_rot_dnn_90_car_20_n02814533_18148.png,n02814533_18148.png,0.0,0.45024696,1.0978309,-0.457911
vit_b_16,1,437,NaN,cat,cat,90,0437_rot_dnn_90_cat_20_n02125311_41284.png,n02125311_41284.png,1.0,1.4102268,1.035139,0.26522717
vit_b_16,1,438,NaN,bicycle,bicycle,0,0438_rot_dnn_0_bicycle_20_n02835271_18188.png,n02835271_18188.png,1.0,5.673693,0.24722518,3.8370924
vit_b_16,1,439,NaN,bottle,bottle,0,0439_rot_dnn_0_bottle_20_n04591713_2903.png,n04591713_2903.png,1.0,3.3383503,0.8764358,1.7408365
vit_b_16,1,440,NaN,knife,knife,0,0440_rot_dnn_0_knife_20_n03041632_54191.png,n03041632_54191.png,1.0,8.207149,1.1925126,4.960097
vit_b_16,1,441,NaN,clock,truck,180,0441_rot_dnn_180_truck_20_n03417042_8867.png,n03417042_8867.png,0.0,1.5303228,2.648754,-0.7908502
vit_b_16,1,442,NaN,oven,oven,270,0442_rot_dnn_270_oven_20_n04111531_8421.png,n04111531_8421.png,1.0,5.681757,4.6148214,0.7544374
vit_b_16,1,443,NaN,elephant,elephant,270,0443_rot_dnn_270_elephant_20_n02504013_4062.png,n02504013_4062.png,1.0,3.2529957,0.55585945,1.9071635
vit_b_16,1,444,NaN,keyboard,keyboard,270,0444_rot_dnn_270_keyboard_20_n04505470_1649.png,n04505470_1649.png,1.0,4.897189,0.48065445,3.1229618
vit_b_16,1,445,NaN,airplane,boat,180,0445_rot_dnn_180_boat_20_n03344393_7967.png,n03344393_7967.png,0.0,1.7554487,5.1293287,-2.3856933
vit_b_16,1,446,NaN,bicycle,bicycle,0,0446_rot_dnn_0_bicycle_20_n02835271_10265.png,n02835271_10265.png,1.0,5.5002112,0.48938325,3.5431905
vit_b_16,1,447,NaN,clock,bicycle,180,0447_rot_dnn_180_bicycle_20_n02835271_6742.png,n02835271_6742.png,0.0,0.06584829,2.6148243,-1.8023982
vit_b_16,1,448,NaN,cat,cat,180,0448_rot_dnn_180_cat_20_n02123045_3168.png,n02123045_3168.png,1.0,4.0454755,0.2762756,2.665227
vit_b_16,1,449,NaN,car,car,180,0449_rot_dnn_180_car_20_n03100240_8489.png,n03100240_8489.png,1.0,4.2269254,3.9758277,0.17755288
vit_b_16,1,450,NaN,oven,oven,270,0450_rot_dnn_270_oven_20_n04111531_1826.png,n04111531_1826.png,1.0,3.6300602,1.4391657,1.5491965
vit_b_16,1,451,NaN,keyboard,dog,180,0451_rot_dnn_180_dog_20_n02104365_1592.png,n02104365_1592.png,0.0,0.580564,0.61485004,-0.02424388
vit_b_16,1,452,NaN,clock,boat,90,0452_rot_dnn_90_boat_20_n02951358_4343.png,n02951358_4343.png,0.0,0.073047556,3.024582,-2.08705
vit_b_16,1,453,NaN,bottle,bottle,0,0453_rot_dnn_0_bottle_20_n02823428_4282.png,n02823428_4282.png,1.0,2.7979853,0.42086476,1.680878
vit_b_16,1,454,NaN,airplane,bird,0,0454_rot_dnn_0_bird_20_n01817953_2043.png,n01817953_2043.png,0.0,0.09140731,0.34872788,-0.18195313
vit_b_16,1,455,NaN,keyboard,dog,0,0455_rot_dnn_0_dog_20_n02110958_14369.png,n02110958_14369.png,0.0,0.31562066,0.90329945,-0.41555166
vit_b_16,1,456,NaN,cat,dog,270,0456_rot_dnn_270_dog_20_n02108000_1044.png,n02108000_1044.png,0.0,0.54180855,1.1408314,-0.4235731
vit_b_16,1,457,NaN,knife,dog,270,0457_rot_dnn_270_dog_20_n02087394_1428.png,n02087394_1428.png,0.0,-0.38651472,1.8362889,-1.5717595
vit_b_16,1,458,NaN,airplane,airplane,90,0458_rot_dnn_90_airplane_20_n02690373_2856.png,n02690373_2856.png,1.0,0.87478805,0.841497,0.023540322
vit_b_16,1,459,NaN,oven,chair,0,0459_rot_dnn_0_chair_20_n03376595_19165.png,n03376595_19165.png,0.0,1.8448021,2.4780483,-0.44777268
vit_b_16,1,460,NaN,chair,chair,270,0460_rot_dnn_270_chair_20_n04099969_42125.png,n04099969_42125.png,1.0,3.5034564,0.4924928,2.1290727
vit_b_16,1,461,NaN,bottle,bottle,270,0461_rot_dnn_270_bottle_20_n02823428_12656.png,n02823428_12656.png,1.0,3.1834261,2.0260048,0.8184205
vit_b_16,1,462,NaN,bicycle,bicycle,180,0462_rot_dnn_180_bicycle_20_n02835271_5861.png,n02835271_5861.png,1.0,4.5872602,1.6473895,2.0788026
vit_b_16,1,463,NaN,airplane,airplane,90,0463_rot_dnn_90_airplane_20_n02690373_19345.png,n02690373_19345.png,1.0,6.629303,0.30724746,4.4703684
vit_b_16,1,464,NaN,clock,clock,90,0464_rot_dnn_90_clock_20_n02708093_8069.png,n02708093_8069.png,1.0,6.2704167,1.4527352,3.4066153
vit_b_16,1,465,NaN,chair,chair,270,0465_rot_dnn_270_chair_20_n04099969_16.png,n04099969_16.png,1.0,3.6902766,0.93737584,1.9465948
vit_b_16,1,466,NaN,car,dog,270,0466_rot_dnn_270_dog_20_n02104365_1756.png,n02104365_1756.png,0.0,0.10133691,0.34484008,-0.17218274
vit_b_16,1,467,NaN,cat,bird,270,0467_rot_dnn_270_bird_20_n01819313_17231.png,n01819313_17231.png,0.0,-0.12433125,2.151164,-1.6090182
vit_b_16,1,468,NaN,car,car,90,0468_rot_dnn_90_car_20_n02814533_34149.png,n02814533_34149.png,1.0,1.5018634,1.1350036,0.25940904
vit_b_16,1,469,NaN,knife,knife,0,0469_rot_dnn_0_knife_20_n03041632_26053.png,n03041632_26053.png,1.0,8.682142,0.47832364,5.800976
vit_b_16,1,470,NaN,oven,oven,0,0470_rot_dnn_0_oven_20_n04111531_11287.png,n04111531_11287.png,1.0,8.848199,0.26830566,6.0669007
vit_b_16,1,471,NaN,bottle,bottle,0,0471_rot_dnn_0_bottle_20_n03937543_11959.png,n03937543_11959.png,1.0,0.3747211,0.32789698,0.033109657
vit_b_16,1,472,NaN,clock,airplane,270,0472_rot_dnn_270_airplane_20_n02690373_1348.png,n02690373_1348.png,0.0,0.5968003,2.7213678,-1.5022961
vit_b_16,1,473,NaN,bear,bear,0,0473_rot_dnn_0_bear_20_n02132136_5175.png,n02132136_5175.png,1.0,4.55963,1.1399231,2.418098
vit_b_16,1,474,NaN,keyboard,keyboard,270,0474_rot_dnn_270_keyboard_20_n03085013_7382.png,n03085013_7382.png,1.0,6.0395393,1.1651648,3.4467032
vit_b_16,1,475,NaN,cat,dog,270,0475_rot_dnn_270_dog_20_n02109961_4280.png,n02109961_4280.png,0.0,0.59656376,2.1582804,-1.1043004
vit_b_16,1,476,NaN,truck,truck,90,0476_rot_dnn_90_truck_20_n03417042_1344.png,n03417042_1344.png,1.0,3.1046052,1.7196609,0.97930354
vit_b_16,1,477,NaN,elephant,elephant,0,0477_rot_dnn_0_elephant_20_n02504013_9299.png,n02504013_9299.png,1.0,7.7106943,0.34814808,5.2061067
vit_b_16,1,478,NaN,bear,bear,0,0478_rot_dnn_0_bear_20_n02134418_5527.png,n02134418_5527.png,1.0,4.307004,0.25264108,2.8668675
vit_b_16,1,479,NaN,keyboard,keyboard,270,0479_rot_dnn_270_keyboard_20_n03085013_23109.png,n03085013_23109.png,1.0,4.948328,1.6551815,2.3286064
vit_b_16,1,480,NaN,bottle,bear,180,0480_rot_dnn_180_bear_20_n02133161_4393.png,n02133161_4393.png,0.0,0.3455908,0.6598428,-0.22220972
vit_b_16,1,481,NaN,oven,oven,0,0481_rot_dnn_0_oven_20_n04111531_73.png,n04111531_73.png,1.0,8.805158,2.8824964,4.187954
vit_b_16,1,482,NaN,keyboard,keyboard,0,0482_rot_dnn_0_keyboard_20_n03085013_7613.png,n03085013_7613.png,1.0,5.7404413,1.9880894,2.6533134
vit_b_16,1,483,NaN,oven,oven,180,0483_rot_dnn_180_oven_20_n04111531_2795.png,n04111531_2795.png,1.0,9.406272,2.3567543,4.9847617
vit_b_16,1,484,NaN,oven,oven,0,0484_rot_dnn_0_oven_20_n04111531_22517.png,n04111531_22517.png,1.0,9.217264,1.1154678,5.728835
vit_b_16,1,485,NaN,elephant,elephant,90,0485_rot_dnn_90_elephant_20_n02504458_2613.png,n02504458_2613.png,1.0,8.271889,0.38932735,5.5738125
vit_b_16,1,486,NaN,oven,oven,180,0486_rot_dnn_180_oven_20_n04111531_9176.png,n04111531_9176.png,1.0,9.720438,5.0022492,3.3362634
vit_b_16,1,487,NaN,bottle,bottle,180,0487_rot_dnn_180_bottle_20_n04557648_5790.png,n04557648_5790.png,1.0,4.247142,0.42775464,2.7007146
vit_b_16,1,488,NaN,clock,truck,90,0488_rot_dnn_90_truck_20_n04467665_9812.png,n04467665_9812.png,0.0,0.44077802,2.4779654,-1.440509
vit_b_16,1,489,NaN,bottle,bottle,0,0489_rot_dnn_0_bottle_20_n04591713_7476.png,n04591713_7476.png,1.0,5.1350336,0.2736073,3.4375477
vit_b_16,1,490,NaN,cat,elephant,90,0490_rot_dnn_90_elephant_20_n02504458_1567.png,n02504458_1567.png,0.0,0.8743424,1.5276704,-0.46197265
vit_b_16,1,491,NaN,clock,clock,90,0491_rot_dnn_90_clock_20_n04548280_6865.png,n04548280_6865.png,1.0,5.378947,0.19032106,3.6689126
vit_b_16,1,492,NaN,bottle,bottle,180,0492_rot_dnn_180_bottle_20_n02823428_3.png,n02823428_3.png,1.0,3.126634,1.4176658,1.2084229
vit_b_16,1,493,NaN,bottle,boat,90,0493_rot_dnn_90_boat_20_n04273569_8951.png,n04273569_8951.png,0.0,0.13722323,2.8586102,-1.9243112
vit_b_16,1,494,NaN,knife,knife,180,0494_rot_dnn_180_knife_20_n03041632_53874.png,n03041632_53874.png,1.0,9.386832,0.6748805,6.1602807
vit_b_16,1,495,NaN,clock,clock,0,0495_rot_dnn_0_clock_20_n04548280_6126.png,n04548280_6126.png,1.0,5.55683,0.3202148,3.702846
vit_b_16,1,496,NaN,cat,cat,180,0496_rot_dnn_180_cat_20_n02123597_6186.png,n02123597_6186.png,1.0,3.7168427,1.4950175,1.5710677
vit_b_16,1,497,NaN,cat,cat,270,0497_rot_dnn_270_cat_20_n02124075_14662.png,n02124075_14662.png,1.0,3.4373608,1.534008,1.3458736
vit_b_16,1,498,NaN,clock,car,90,0498_rot_dnn_90_car_20_n04285008_8677.png,n04285008_8677.png,0.0,2.4219458,3.2444983,-0.58163244
vit_b_16,1,499,NaN,bird,bird,90,0499_rot_dnn_90_bird_20_n01820546_2568.png,n01820546_2568.png,1.0,1.4047827,0.5235029,0.62315893
vit_b_16,1,500,NaN,clock,clock,90,0500_rot_dnn_90_clock_20_n04548280_7354.png,n04548280_7354.png,1.0,5.4814925,2.8420997,1.8663327
vit_b_16,1,501,NaN,bicycle,bicycle,270,0501_rot_dnn_270_bicycle_20_n03792782_586.png,n03792782_586.png,1.0,6.0098724,0.54688656,3.8629146
vit_b_16,1,502,NaN,bear,bear,0,0502_rot_dnn_0_bear_20_n02134084_572.png,n02134084_572.png,1.0,3.4202747,1.6683631,1.2387886
vit_b_16,1,503,NaN,bicycle,bicycle,270,0503_rot_dnn_270_bicycle_20_n03792782_3388.png,n03792782_3388.png,1.0,2.239173,1.3427811,0.6338448
vit_b_16,1,504,NaN,bicycle,bicycle,270,0504_rot_dnn_270_bicycle_20_n03792782_28970.png,n03792782_28970.png,1.0,6.795081,1.7742051,3.5502956
vit_b_16,1,505,NaN,oven,bottle,270,0505_rot_dnn_270_bottle_20_n04560804_11386.png,n04560804_11386.png,0.0,2.687537,4.4575944,-1.2516197
vit_b_16,1,506,NaN,clock,chair,180,0506_rot_dnn_180_chair_20_n03376595_6799.png,n03376595_6799.png,0.0,2.4034464,2.7881098,-0.27199808
vit_b_16,1,507,NaN,airplane,dog,270,0507_rot_dnn_270_dog_20_n02094258_6398.png,n02094258_6398.png,0.0,0.0643065,0.19573568,-0.09293447
vit_b_16,1,508,NaN,elephant,bird,0,0508_rot_dnn_0_bird_20_n01592084_2639.png,n01592084_2639.png,0.0,0.16244203,0.3330514,-0.120639056
vit_b_16,1,509,NaN,bird,bird,180,0509_rot_dnn_180_bird_20_n02017213_4781.png,n02017213_4781.png,1.0,0.37926137,0.073850624,0.21595801
vit_b_16,1,510,NaN,knife,airplane,270,0510_rot_dnn_270_airplane_20_n02690373_3818.png,n02690373_3818.png,0.0,-0.2436007,2.4868393,-1.9307126
vit_b_16,1,511,NaN,bicycle,bicycle,90,0511_rot_dnn_90_bicycle_20_n03792782_26383.png,n03792782_26383.png,1.0,6.143064,1.6520348,3.1756372
vit_b_16,1,512,NaN,oven,oven,90,0512_rot_dnn_90_oven_20_n04111531_5216.png,n04111531_5216.png,1.0,8.915556,0.64801365,5.846035
vit_b_16,1,513,NaN,airplane,airplane,180,0513_rot_dnn_180_airplane_20_n02690373_20331.png,n02690373_20331.png,1.0,9.180961,0.12838171,6.40114
vit_b_16,1,514,NaN,airplane,truck,180,0514_rot_dnn_180_truck_20_n04467665_23691.png,n04467665_23691.png,0.0,0.4242354,2.4558377,-1.4365598
vit_b_16,1,515,NaN,bird,bird,0,0515_rot_dnn_0_bird_20_n02009229_492.png,n02009229_492.png,1.0,0.34919,0.18389374,0.11688211
vit_b_16,1,516,NaN,bird,bird,90,0516_rot_dnn_90_bird_20_n02002556_5890.png,n02002556_5890.png,1.0,0.8099526,0.47513732,0.23675017
vit_b_16,1,517,NaN,bird,bird,270,0517_rot_dnn_270_bird_20_n01855032_5358.png,n01855032_5358.png,1.0,1.6995617,0.8168836,0.62414765
vit_b_16,1,518,NaN,cat,dog,180,0518_rot_dnn_180_dog_20_n02112350_10026.png,n02112350_10026.png,0.0,0.022102406,1.5289106,-1.0654744
vit_b_16,1,519,NaN,knife,knife,90,0519_rot_dnn_90_knife_20_n03041632_11773.png,n03041632_11773.png,1.0,8.671549,1.0818442,5.3667316
vit_b_16,1,520,NaN,elephant,elephant,0,0520_rot_dnn_0_elephant_20_n02504013_20486.png,n02504013_20486.png,1.0,7.2120543,0.2379952,4.9314046
vit_b_16,1,521,NaN,oven,oven,0,0521_rot_dnn_0_oven_20_n04111531_27.png,n04111531_27.png,1.0,4.6177163,2.5039847,1.494634
vit_b_16,1,522,NaN,bicycle,bird,180,0522_rot_dnn_180_bird_20_n01855672_15421.png,n01855672_15421.png,0.0,0.4978109,0.9807841,-0.34151363
vit_b_16,1,523,NaN,bear,bear,270,0523_rot_dnn_270_bear_20_n02132136_239.png,n02132136_239.png,1.0,4.6103406,0.16920185,3.1403594
vit_b_16,1,524,NaN,keyboard,keyboard,90,0524_rot_dnn_90_keyboard_20_n03085013_25924.png,n03085013_25924.png,1.0,6.883091,2.039218,3.4251356
vit_b_16,1,525,NaN,bicycle,bicycle,180,0525_rot_dnn_180_bicycle_20_n03792782_6030.png,n03792782_6030.png,1.0,7.594308,0.7604122,4.832294
vit_b_16,1,526,NaN,knife,bottle,270,0526_rot_dnn_270_bottle_20_n03983396_5497.png,n03983396_5497.png,0.0,1.8299177,2.576112,-0.5276391
vit_b_16,1,527,NaN,clock,chair,180,0527_rot_dnn_180_chair_20_n04429376_6390.png,n04429376_6390.png,0.0,2.3764002,3.4331858,-0.7472603
vit_b_16,1,528,NaN,dog,dog,90,0528_rot_dnn_90_dog_20_n02100877_11159.png,n02100877_11159.png,1.0,1.2019495,0.45948738,0.525
vit_b_16,1,529,NaN,bottle,bottle,180,0529_rot_dnn_180_bottle_20_n04579145_579.png,n04579145_579.png,1.0,2.9894404,1.596756,0.9847766
vit_b_16,1,530,NaN,cat,cat,90,0530_rot_dnn_90_cat_20_n02123159_5678.png,n02123159_5678.png,1.0,1.5052829,0.22026081,0.9086478
vit_b_16,1,531,NaN,elephant,elephant,180,0531_rot_dnn_180_elephant_20_n02504013_13283.png,n02504013_13283.png,1.0,2.073482,1.138968,0.66080123
vit_b_16,1,532,NaN,knife,dog,90,0532_rot_dnn_90_dog_20_n02095570_7633.png,n02095570_7633.png,0.0,0.32584947,0.54038936,-0.15170261
vit_b_16,1,533,NaN,clock,clock,180,0533_rot_dnn_180_clock_20_n02708093_8311.png,n02708093_8311.png,1.0,6.453297,1.7679889,3.3130136
vit_b_16,1,534,NaN,chair,chair,270,0534_rot_dnn_270_chair_20_n03376595_426.png,n03376595_426.png,1.0,2.0455742,1.3528832,0.4898065
vit_b_16,1,535,NaN,boat,dog,180,0535_rot_dnn_180_dog_20_n02100877_3112.png,n02100877_3112.png,0.0,0.15064831,1.6212499,-1.0398724
vit_b_16,1,536,NaN,car,car,270,0536_rot_dnn_270_car_20_n02814533_458.png,n02814533_458.png,1.0,5.4159775,2.9096694,1.7722275
vit_b_16,1,537,NaN,bird,bird,0,0537_rot_dnn_0_bird_20_n02006656_5079.png,n02006656_5079.png,1.0,0.43686053,0.16649707,0.19117583
vit_b_16,1,538,NaN,boat,boat,90,0538_rot_dnn_90_boat_20_n04273569_12725.png,n04273569_12725.png,1.0,2.9242268,2.2531524,0.47452125
vit_b_16,1,539,NaN,cat,cat,270,0539_rot_dnn_270_cat_20_n02123045_6677.png,n02123045_6677.png,1.0,3.7284129,0.51138186,2.2747846
vit_b_16,1,540,NaN,bicycle,bicycle,270,0540_rot_dnn_270_bicycle_20_n02835271_4440.png,n02835271_4440.png,1.0,7.3534555,0.3849136,4.9275036
vit_b_16,1,541,NaN,keyboard,keyboard,270,0541_rot_dnn_270_keyboard_20_n03085013_21444.png,n03085013_21444.png,1.0,7.1347218,1.1689874,4.2184114
vit_b_16,1,542,NaN,clock,clock,180,0542_rot_dnn_180_clock_20_n02708093_8255.png,n02708093_8255.png,1.0,5.157667,1.215,2.7878866
vit_b_16,1,543,NaN,bicycle,bicycle,0,0543_rot_dnn_0_bicycle_20_n02835271_30318.png,n02835271_30318.png,1.0,7.5217934,0.43156984,5.013545
vit_b_16,1,544,NaN,cat,cat,180,0544_rot_dnn_180_cat_20_n02123394_2059.png,n02123394_2059.png,1.0,3.4014332,1.6181566,1.260967
vit_b_16,1,545,NaN,elephant,elephant,180,0545_rot_dnn_180_elephant_20_n02504013_6618.png,n02504013_6618.png,1.0,3.9928017,0.78302467,2.269655
vit_b_16,1,546,NaN,cat,cat,270,0546_rot_dnn_270_cat_20_n02124075_8889.png,n02124075_8889.png,1.0,4.52453,0.73873955,2.676958
vit_b_16,1,547,NaN,dog,dog,90,0547_rot_dnn_90_dog_20_n02100877_7302.png,n02100877_7302.png,1.0,0.7714266,0.6883812,0.058721982
vit_b_16,1,548,NaN,car,car,180,0548_rot_dnn_180_car_20_n02814533_85971.png,n02814533_85971.png,1.0,4.62546,4.5023184,0.08707438
vit_b_16,1,549,NaN,chair,chair,0,0549_rot_dnn_0_chair_20_n03376595_5909.png,n03376595_5909.png,1.0,2.7491255,1.4947925,0.8869474
vit_b_16,1,550,NaN,keyboard,keyboard,270,0550_rot_dnn_270_keyboard_20_n03085013_13083.png,n03085013_13083.png,1.0,7.4985666,0.5470106,4.9154925
vit_b_16,1,551,NaN,oven,oven,90,0551_rot_dnn_90_oven_20_n04111531_9611.png,n04111531_9611.png,1.0,6.5203023,0.98157936,3.9164686
vit_b_16,1,552,NaN,boat,boat,0,0552_rot_dnn_0_boat_20_n02951358_13996.png,n02951358_13996.png,1.0,2.011292,0.30028364,1.2098656
vit_b_16,1,553,NaN,boat,boat,0,0553_rot_dnn_0_boat_20_n03344393_9251.png,n03344393_9251.png,1.0,3.1128812,0.14651,2.097541
vit_b_16,1,554,NaN,airplane,airplane,180,0554_rot_dnn_180_airplane_20_n02690373_9175.png,n02690373_9175.png,1.0,4.347733,1.694224,1.8763143
vit_b_16,1,555,NaN,bear,bear,0,0555_rot_dnn_0_bear_20_n02132136_2791.png,n02132136_2791.png,1.0,5.70126,1.8744236,2.7059822
vit_b_16,1,556,NaN,elephant,elephant,180,0556_rot_dnn_180_elephant_20_n02504458_193.png,n02504458_193.png,1.0,2.2638454,0.17829914,1.4747039
vit_b_16,1,557,NaN,bird,bird,270,0557_rot_dnn_270_bird_20_n01843383_9985.png,n01843383_9985.png,1.0,1.0125914,0.48213074,0.3750923
vit_b_16,1,558,NaN,oven,bird,270,0558_rot_dnn_270_bird_20_n02028035_10744.png,n02028035_10744.png,0.0,0.5468605,0.5627659,-0.011246802
vit_b_16,1,559,NaN,chair,truck,270,0559_rot_dnn_270_truck_20_n04467665_3720.png,n04467665_3720.png,0.0,2.0008337,2.051031,-0.035494898
vit_b_16,1,560,NaN,car,car,0,0560_rot_dnn_0_car_20_n02814533_52605.png,n02814533_52605.png,1.0,2.672903,1.6816009,0.70095646
vit_b_16,1,561,NaN,clock,clock,90,0561_rot_dnn_90_clock_20_n04548280_5631.png,n04548280_5631.png,1.0,6.2341194,0.15803824,4.296438
vit_b_16,1,562,NaN,oven,oven,0,0562_rot_dnn_0_oven_20_n04111531_1922.png,n04111531_1922.png,1.0,9.052472,0.9956465,5.6970363
vit_b_16,1,563,NaN,airplane,boat,180,0563_rot_dnn_180_boat_20_n03662601_1197.png,n03662601_1197.png,0.0,1.6467127,2.393189,-0.52783847
vit_b_16,1,564,NaN,clock,clock,270,0564_rot_dnn_270_clock_20_n02708093_1862.png,n02708093_1862.png,1.0,5.4707694,0.6958755,3.3763597
vit_b_16,1,565,NaN,truck,truck,180,0565_rot_dnn_180_truck_20_n03796401_4582.png,n03796401_4582.png,1.0,2.5730524,1.8084995,0.54062057
vit_b_16,1,566,NaN,elephant,elephant,90,0566_rot_dnn_90_elephant_20_n02504013_565.png,n02504013_565.png,1.0,1.1389173,0.53989226,0.4235747
vit_b_16,1,567,NaN,chair,truck,180,0567_rot_dnn_180_truck_20_n04467665_49826.png,n04467665_49826.png,0.0,0.19301566,1.0514249,-0.60698694
vit_b_16,1,568,NaN,cat,bear,270,0568_rot_dnn_270_bear_20_n02134418_5067.png,n02134418_5067.png,0.0,1.5942369,2.1963685,-0.42577136
vit_b_16,1,569,NaN,clock,chair,90,0569_rot_dnn_90_chair_20_n04429376_29223.png,n04429376_29223.png,0.0,0.84344167,1.1800283,-0.2380027
vit_b_16,1,570,NaN,clock,airplane,270,0570_rot_dnn_270_airplane_20_n02690373_5909.png,n02690373_5909.png,0.0,-0.05731587,2.9224079,-2.106983
vit_b_16,1,571,NaN,bicycle,dog,270,0571_rot_dnn_270_dog_20_n02097658_722.png,n02097658_722.png,0.0,-0.50966907,1.3894768,-1.342899
vit_b_16,1,572,NaN,oven,oven,0,0572_rot_dnn_0_oven_20_n04111531_10339.png,n04111531_10339.png,1.0,9.254219,0.89644206,5.9098406
vit_b_16,1,573,NaN,bottle,truck,90,0573_rot_dnn_90_truck_20_n03417042_28078.png,n03417042_28078.png,0.0,0.1776627,1.6893753,-1.0689422
vit_b_16,1,574,NaN,clock,chair,180,0574_rot_dnn_180_chair_20_n04099969_22118.png,n04099969_22118.png,0.0,-0.11623368,2.7054508,-1.9952322
vit_b_16,1,575,NaN,clock,clock,270,0575_rot_dnn_270_clock_20_n04548280_7978.png,n04548280_7978.png,1.0,5.533264,1.0411425,3.1764097
vit_b_16,1,576,NaN,elephant,bear,180,0576_rot_dnn_180_bear_20_n02133161_1962.png,n02133161_1962.png,0.0,2.1306286,3.192782,-0.75105584
vit_b_16,1,577,NaN,knife,clock,180,0577_rot_dnn_180_clock_20_n04548280_13750.png,n04548280_13750.png,0.0,1.2491812,1.3250016,-0.053613152
vit_b_16,1,578,NaN,keyboard,keyboard,0,0578_rot_dnn_0_keyboard_20_n03085013_15249.png,n03085013_15249.png,1.0,6.5576224,0.35962594,4.3826456
vit_b_16,1,579,NaN,clock,car,90,0579_rot_dnn_90_car_20_n02814533_479.png,n02814533_479.png,0.0,-0.21922815,3.5440838,-2.6610634
vit_b_16,1,580,NaN,keyboard,keyboard,270,0580_rot_dnn_270_keyboard_20_n03085013_20716.png,n03085013_20716.png,1.0,5.7699556,1.3090435,3.1543415
vit_b_16,1,581,NaN,bird,bird,180,0581_rot_dnn_180_bird_20_n01530575_7990.png,n01530575_7990.png,1.0,1.2586803,0.35111466,0.64174587
vit_b_16,1,582,NaN,chair,chair,0,0582_rot_dnn_0_chair_20_n04429376_17343.png,n04429376_17343.png,1.0,2.2366803,0.55366784,1.1900696
vit_b_16,1,583,NaN,chair,chair,90,0583_rot_dnn_90_chair_20_n02791124_8775.png,n02791124_8775.png,1.0,2.0349834,0.9118273,0.7941913
vit_b_16,1,584,NaN,cat,cat,90,0584_rot_dnn_90_cat_20_n02125311_2959.png,n02125311_2959.png,1.0,4.219357,0.5087146,2.6238203
vit_b_16,1,585,NaN,clock,oven,180,0585_rot_dnn_180_oven_20_n04111531_13906.png,n04111531_13906.png,0.0,1.5426835,4.4437585,-2.0513697
vit_b_16,1,586,NaN,airplane,airplane,90,0586_rot_dnn_90_airplane_20_n02690373_7293.png,n02690373_7293.png,1.0,9.24989,1.6170603,5.397226
vit_b_16,1,587,NaN,chair,chair,180,0587_rot_dnn_180_chair_20_n04099969_10825.png,n04099969_10825.png,1.0,4.1431,0.14490645,2.8271496
vit_b_16,1,588,NaN,airplane,airplane,180,0588_rot_dnn_180_airplane_20_n02690373_17044.png,n02690373_17044.png,1.0,9.175485,1.1514984,5.673815
vit_b_16,1,589,NaN,cat,bird,0,0589_rot_dnn_0_bird_20_n01797886_6169.png,n01797886_6169.png,0.0,0.23223001,0.2636962,-0.022249954
vit_b_16,1,590,NaN,clock,oven,0,0590_rot_dnn_0_oven_20_n04111531_13255.png,n04111531_13255.png,0.0,0.84543407,1.3640686,-0.36673
vit_b_16,1,591,NaN,knife,knife,270,0591_rot_dnn_270_knife_20_n03041632_17820.png,n03041632_17820.png,1.0,7.065126,0.81718266,4.417963
vit_b_16,1,592,NaN,bicycle,bicycle,270,0592_rot_dnn_270_bicycle_20_n02835271_21640.png,n02835271_21640.png,1.0,5.69788,0.6758022,3.551145
vit_b_16,1,593,NaN,bear,bear,0,0593_rot_dnn_0_bear_20_n02134418_517.png,n02134418_517.png,1.0,3.0038633,0.6362014,1.6741898
vit_b_16,1,594,NaN,airplane,airplane,180,0594_rot_dnn_180_airplane_20_n02690373_4588.png,n02690373_4588.png,1.0,7.873497,0.5505137,5.178131
vit_b_16,1,595,NaN,clock,bottle,270,0595_rot_dnn_270_bottle_20_n02823428_12190.png,n02823428_12190.png,0.0,0.78185016,3.7153442,-2.0742936
vit_b_16,1,596,NaN,bottle,bottle,0,0596_rot_dnn_0_bottle_20_n04591713_1717.png,n04591713_1717.png,1.0,3.9003968,0.6582463,2.2925467
vit_b_16,1,597,NaN,knife,knife,0,0597_rot_dnn_0_knife_20_n03041632_9488.png,n03041632_9488.png,1.0,9.773272,0.88128835,6.2875814
vit_b_16,1,598,NaN,clock,truck,90,0598_rot_dnn_90_truck_20_n03417042_11166.png,n03417042_11166.png,0.0,0.809417,2.4445877,-1.1562403
vit_b_16,1,599,NaN,elephant,elephant,90,0599_rot_dnn_90_elephant_20_n02504458_585.png,n02504458_585.png,1.0,7.5383205,0.794093,4.768889
vit_b_16,1,600,NaN,keyboard,keyboard,0,0600_rot_dnn_0_keyboard_20_n04505470_5046.png,n04505470_5046.png,1.0,6.1547165,1.3445026,3.401335
vit_b_16,1,601,NaN,chair,chair,180,0601_rot_dnn_180_chair_20_n03376595_4937.png,n03376595_4937.png,1.0,2.2411158,1.07446,0.8249502
vit_b_16,1,602,NaN,airplane,boat,180,0602_rot_dnn_180_boat_20_n03662601_1740.png,n03662601_1740.png,0.0,1.0318853,3.4567642,-1.7146485
vit_b_16,1,603,NaN,knife,knife,0,0603_rot_dnn_0_knife_20_n03041632_4037.png,n03041632_4037.png,1.0,9.210307,0.31693578,6.2885633
vit_b_16,1,604,NaN,airplane,boat,0,0604_rot_dnn_0_boat_20_n04273569_1538.png,n04273569_1538.png,0.0,2.7338123,3.2986767,-0.39941946
vit_b_16,1,605,NaN,bird,bird,0,0605_rot_dnn_0_bird_20_n02017213_15918.png,n02017213_15918.png,1.0,1.4617394,0.58377653,0.62081355
vit_b_16,1,606,NaN,keyboard,keyboard,0,0606_rot_dnn_0_keyboard_20_n03085013_10463.png,n03085013_10463.png,1.0,7.2589436,0.7194094,4.624149
vit_b_16,1,607,NaN,bear,bear,270,0607_rot_dnn_270_bear_20_n02133161_7939.png,n02133161_7939.png,1.0,3.703668,0.3620505,2.3628805
vit_b_16,1,608,NaN,truck,car,270,0608_rot_dnn_270_car_20_n04285008_11704.png,n04285008_11704.png,0.0,1.8262097,2.1577606,-0.23444194
vit_b_16,1,609,NaN,truck,truck,90,0609_rot_dnn_90_truck_20_n03796401_16046.png,n03796401_16046.png,1.0,1.9404163,1.6485449,0.20638427
vit_b_16,1,610,NaN,chair,chair,270,0610_rot_dnn_270_chair_20_n02791124_3710.png,n02791124_3710.png,1.0,2.5854554,0.4860155,1.4845282
vit_b_16,1,611,NaN,keyboard,keyboard,180,0611_rot_dnn_180_keyboard_20_n04505470_3566.png,n04505470_3566.png,1.0,5.323596,0.4534076,3.4437432
vit_b_16,1,612,NaN,clock,bird,90,0612_rot_dnn_90_bird_20_n02037110_8716.png,n02037110_8716.png,0.0,0.04844543,1.4382783,-0.98276025
vit_b_16,1,613,NaN,car,car,0,0613_rot_dnn_0_car_20_n03100240_19550.png,n03100240_19550.png,1.0,5.545874,2.1124332,2.4278095
vit_b_16,1,614,NaN,airplane,airplane,270,0614_rot_dnn_270_airplane_20_n02690373_10769.png,n02690373_10769.png,1.0,8.35003,0.32410386,5.6751866
vit_b_16,1,615,NaN,bicycle,bicycle,0,0615_rot_dnn_0_bicycle_20_n03792782_3456.png,n03792782_3456.png,1.0,7.397925,0.21960814,5.0758367
vit_b_16,1,616,NaN,chair,chair,0,0616_rot_dnn_0_chair_20_n03376595_2368.png,n03376595_2368.png,1.0,3.8575783,0.15169062,2.6204584
vit_b_16,1,617,NaN,bicycle,dog,0,0617_rot_dnn_0_dog_20_n02091467_2974.png,n02091467_2974.png,0.0,-0.1980489,0.37862593,-0.4077707
vit_b_16,1,618,NaN,knife,knife,180,0618_rot_dnn_180_knife_20_n03041632_43634.png,n03041632_43634.png,1.0,9.311438,1.1651472,5.760298
vit_b_16,1,619,NaN,keyboard,keyboard,180,0619_rot_dnn_180_keyboard_20_n04505470_4477.png,n04505470_4477.png,1.0,6.3894277,2.1869664,2.9715889
vit_b_16,1,620,NaN,clock,boat,90,0620_rot_dnn_90_boat_20_n03344393_4773.png,n03344393_4773.png,0.0,1.3181375,2.1577022,-0.5936619
vit_b_16,1,621,NaN,airplane,airplane,180,0621_rot_dnn_180_airplane_20_n02690373_139.png,n02690373_139.png,1.0,8.669211,0.6206112,5.69122
vit_b_16,1,622,NaN,knife,knife,270,0622_rot_dnn_270_knife_20_n03041632_737.png,n03041632_737.png,1.0,2.9025936,2.289456,0.43355384
vit_b_16,1,623,NaN,chair,chair,270,0623_rot_dnn_270_chair_20_n02791124_2698.png,n02791124_2698.png,1.0,3.1470947,2.2041495,0.666763
vit_b_16,1,624,NaN,keyboard,truck,270,0624_rot_dnn_270_truck_20_n03417042_5301.png,n03417042_5301.png,0.0,-0.05968316,2.4126382,-1.7481952
vit_b_16,1,625,NaN,bird,bird,0,0625_rot_dnn_0_bird_20_n02006656_5757.png,n02006656_5757.png,1.0,0.22136968,0.21112198,0.0072462233
vit_b_16,1,626,NaN,elephant,bear,270,0626_rot_dnn_270_bear_20_n02132136_15174.png,n02132136_15174.png,0.0,1.4875937,2.316468,-0.58610266
vit_b_16,1,627,NaN,bottle,bottle,270,0627_rot_dnn_270_bottle_20_n04560804_6329.png,n04560804_6329.png,1.0,2.1582255,0.9261481,0.8712103
vit_b_16,1,628,NaN,truck,truck,0,0628_rot_dnn_0_truck_20_n03417042_22196.png,n03417042_22196.png,1.0,2.3556254,0.34397677,1.4224504
vit_b_16,1,629,NaN,cat,cat,0,0629_rot_dnn_0_cat_20_n02125311_18366.png,n02125311_18366.png,1.0,1.8524017,0.45654204,0.98702186
vit_b_16,1,630,NaN,chair,chair,0,0630_rot_dnn_0_chair_20_n02791124_12707.png,n02791124_12707.png,1.0,2.7443118,0.28492665,1.739048
vit_b_16,1,631,NaN,oven,oven,180,0631_rot_dnn_180_oven_20_n04111531_1938.png,n04111531_1938.png,1.0,8.473772,1.6823095,4.802289
vit_b_16,1,632,NaN,clock,airplane,270,0632_rot_dnn_270_airplane_20_n02690373_9346.png,n02690373_9346.png,0.0,-1.3303808,2.6739037,-2.8314567
vit_b_16,1,633,NaN,cat,cat,0,0633_rot_dnn_0_cat_20_n02123045_10433.png,n02123045_10433.png,1.0,2.3156555,1.5754218,0.52342427
vit_b_16,1,634,NaN,airplane,airplane,180,0634_rot_dnn_180_airplane_20_n02690373_5055.png,n02690373_5055.png,1.0,5.047134,0.85410434,2.9649196
vit_b_16,1,635,NaN,clock,clock,270,0635_rot_dnn_270_clock_20_n04548280_4198.png,n04548280_4198.png,1.0,6.0987563,1.4588534,3.280907
vit_b_16,1,636,NaN,bicycle,bicycle,90,0636_rot_dnn_90_bicycle_20_n03792782_12010.png,n03792782_12010.png,1.0,7.370778,0.32657257,4.9810057
vit_b_16,1,637,NaN,cat,cat,180,0637_rot_dnn_180_cat_20_n02125311_24586.png,n02125311_24586.png,1.0,3.5999434,2.7129476,0.6272007
vit_b_16,1,638,NaN,chair,chair,0,0638_rot_dnn_0_chair_20_n02791124_3220.png,n02791124_3220.png,1.0,2.700704,0.17898703,1.7831233
vit_b_16,1,639,NaN,clock,car,90,0639_rot_dnn_90_car_20_n04285008_12737.png,n04285008_12737.png,0.0,0.42949927,2.876354,-1.7301875
vit_b_16,1,640,NaN,clock,chair,180,0640_rot_dnn_180_chair_20_n04429376_4296.png,n04429376_4296.png,0.0,1.2220943,4.013814,-1.974044
vit_b_16,1,641,NaN,airplane,airplane,90,0641_rot_dnn_90_airplane_20_n02690373_5534.png,n02690373_5534.png,1.0,4.767214,0.75033015,2.840366
vit_b_16,1,642,NaN,knife,dog,180,0642_rot_dnn_180_dog_20_n02113978_2286.png,n02113978_2286.png,0.0,0.06304848,1.0864621,-0.72366273
vit_b_16,1,643,NaN,dog,dog,0,0643_rot_dnn_0_dog_20_n02087394_3354.png,n02087394_3354.png,1.0,0.6940332,0.5038162,0.13450375
vit_b_16,1,644,NaN,oven,chair,180,0644_rot_dnn_180_chair_20_n03376595_2103.png,n03376595_2103.png,0.0,2.058184,4.3971214,-1.6538786
vit_b_16,1,645,NaN,elephant,elephant,0,0645_rot_dnn_0_elephant_20_n02504458_5181.png,n02504458_5181.png,1.0,7.7185373,0.5363656,5.0785623
vit_b_16,1,646,NaN,chair,chair,270,0646_rot_dnn_270_chair_20_n02791124_10287.png,n02791124_10287.png,1.0,1.961063,1.0866573,0.61829823
vit_b_16,1,647,NaN,clock,oven,90,0647_rot_dnn_90_oven_20_n04111531_22291.png,n04111531_22291.png,0.0,0.40073204,3.4588935,-2.1624467
vit_b_16,1,648,NaN,bottle,bottle,90,0648_rot_dnn_90_bottle_20_n03937543_4399.png,n03937543_4399.png,1.0,2.9144578,1.0426973,1.3235346
vit_b_16,1,649,NaN,truck,truck,90,0649_rot_dnn_90_truck_20_n03796401_13226.png,n03796401_13226.png,1.0,1.9490141,1.0020058,0.66963595
vit_b_16,1,650,NaN,keyboard,airplane,270,0650_rot_dnn_270_airplane_20_n02690373_5430.png,n02690373_5430.png,0.0,1.4065413,1.5417964,-0.0956398
vit_b_16,1,651,NaN,cat,cat,90,0651_rot_dnn_90_cat_20_n02124075_20.png,n02124075_20.png,1.0,3.7410295,0.32675904,2.4142537
vit_b_16,1,652,NaN,keyboard,keyboard,90,0652_rot_dnn_90_keyboard_20_n04505470_4943.png,n04505470_4943.png,1.0,5.9850645,0.3193871,4.006239
vit_b_16,1,653,NaN,car,car,180,0653_rot_dnn_180_car_20_n03100240_4288.png,n03100240_4288.png,1.0,5.331413,1.7014079,2.566801
vit_b_16,1,654,NaN,bear,dog,0,0654_rot_dnn_0_dog_20_n02109525_7478.png,n02109525_7478.png,0.0,-0.084430814,0.118504636,-0.14349703
vit_b_16,1,655,NaN,bicycle,bicycle,0,0655_rot_dnn_0_bicycle_20_n03792782_4895.png,n03792782_4895.png,1.0,5.0246077,0.689319,3.065512
vit_b_16,1,656,NaN,oven,oven,0,0656_rot_dnn_0_oven_20_n04111531_8077.png,n04111531_8077.png,1.0,9.549433,1.6362817,5.595443
vit_b_16,1,657,NaN,airplane,airplane,90,0657_rot_dnn_90_airplane_20_n02690373_4845.png,n02690373_4845.png,1.0,8.2056875,1.1882442,4.962082
vit_b_16,1,658,NaN,cat,cat,90,0658_rot_dnn_90_cat_20_n02125311_59332.png,n02125311_59332.png,1.0,2.8722403,0.55692697,1.6371738
vit_b_16,1,659,NaN,bicycle,bicycle,180,0659_rot_dnn_180_bicycle_20_n02835271_24.png,n02835271_24.png,1.0,6.2087603,1.5959978,3.2617157
vit_b_16,1,660,NaN,airplane,truck,180,0660_rot_dnn_180_truck_20_n04467665_22637.png,n04467665_22637.png,0.0,0.4895714,1.4291195,-0.6643608
vit_b_16,1,661,NaN,elephant,dog,180,0661_rot_dnn_180_dog_20_n02101006_6694.png,n02101006_6694.png,0.0,0.7287298,1.0645516,-0.23746188
vit_b_16,1,662,NaN,truck,car,0,0662_rot_dnn_0_car_20_n02814533_37256.png,n02814533_37256.png,0.0,0.96341866,1.8747061,-0.6443776
vit_b_16,1,663,NaN,bear,bear,0,0663_rot_dnn_0_bear_20_n02134418_132.png,n02134418_132.png,1.0,2.3958523,0.27760315,1.4978284
vit_b_16,1,664,NaN,knife,knife,180,0664_rot_dnn_180_knife_20_n03041632_41310.png,n03041632_41310.png,1.0,9.644582,0.51505905,6.4555473
vit_b_16,1,665,NaN,bird,bird,0,0665_rot_dnn_0_bird_20_n01530575_3198.png,n01530575_3198.png,1.0,0.40067124,0.30719927,0.06609467
vit_b_16,1,666,NaN,bicycle,bicycle,180,0666_rot_dnn_180_bicycle_20_n02835271_3643.png,n02835271_3643.png,1.0,2.6303897,0.013880919,1.8501511
vit_b_16,1,667,NaN,clock,chair,180,0667_rot_dnn_180_chair_20_n02791124_3186.png,n02791124_3186.png,0.0,1.4422028,2.5124867,-0.756805
vit_b_16,1,668,NaN,oven,chair,270,0668_rot_dnn_270_chair_20_n04099969_5396.png,n04099969_5396.png,0.0,1.786457,2.6348243,-0.5998863
vit_b_16,1,669,NaN,elephant,dog,0,0669_rot_dnn_0_dog_20_n02110806_749.png,n02110806_749.png,0.0,1.2000023,1.7355342,-0.37867823
vit_b_16,1,670,NaN,car,car,180,0670_rot_dnn_180_car_20_n04285008_7155.png,n04285008_7155.png,1.0,2.5170135,2.168524,0.24641931
vit_b_16,1,671,NaN,airplane,airplane,270,0671_rot_dnn_270_airplane_20_n02690373_6621.png,n02690373_6621.png,1.0,7.435609,0.38956138,4.9823084
vit_b_16,1,672,NaN,cat,cat,270,0672_rot_dnn_270_cat_20_n02124075_11727.png,n02124075_11727.png,1.0,2.3568738,1.3478845,0.7134631
vit_b_16,1,673,NaN,elephant,elephant,180,0673_rot_dnn_180_elephant_20_n02504013_1078.png,n02504013_1078.png,1.0,2.647072,1.602094,0.73891103
vit_b_16,1,674,NaN,knife,knife,180,0674_rot_dnn_180_knife_20_n03041632_21017.png,n03041632_21017.png,1.0,9.987518,0.95696276,6.385567
vit_b_16,1,675,NaN,knife,knife,180,0675_rot_dnn_180_knife_20_n03041632_22330.png,n03041632_22330.png,1.0,7.502812,1.1018116,4.5261908
vit_b_16,1,676,NaN,clock,clock,270,0676_rot_dnn_270_clock_20_n03196217_368.png,n03196217_368.png,1.0,4.3827505,1.8188059,1.8129827
vit_b_16,1,677,NaN,knife,knife,0,0677_rot_dnn_0_knife_20_n03041632_99912.png,n03041632_99912.png,1.0,9.136158,0.58165365,6.0489483
vit_b_16,1,678,NaN,clock,boat,180,0678_rot_dnn_180_boat_20_n03344393_7705.png,n03344393_7705.png,0.0,-0.51492906,1.223413,-1.2291934
vit_b_16,1,679,NaN,bear,bear,180,0679_rot_dnn_180_bear_20_n02134084_41588.png,n02134084_41588.png,1.0,3.448083,1.2185627,1.576509
vit_b_16,1,680,NaN,knife,knife,0,0680_rot_dnn_0_knife_20_n03041632_45775.png,n03041632_45775.png,1.0,9.450634,0.83293104,6.093636
vit_b_16,1,681,NaN,clock,bicycle,180,0681_rot_dnn_180_bicycle_20_n02835271_24630.png,n02835271_24630.png,0.0,0.116206765,1.9562602,-1.3011143
vit_b_16,1,682,NaN,bicycle,boat,270,0682_rot_dnn_270_boat_20_n03662601_22973.png,n03662601_22973.png,0.0,-0.34219083,2.045923,-1.6886514
vit_b_16,1,683,NaN,car,car,270,0683_rot_dnn_270_car_20_n02814533_8042.png,n02814533_8042.png,1.0,3.6091378,1.6823163,1.3624686
vit_b_16,1,684,NaN,boat,boat,0,0684_rot_dnn_0_boat_20_n03662601_17483.png,n03662601_17483.png,1.0,4.239684,1.0253571,2.2728724
vit_b_16,1,685,NaN,bicycle,bicycle,180,0685_rot_dnn_180_bicycle_20_n03792782_13680.png,n03792782_13680.png,1.0,7.3921404,0.54424715,4.8421917
vit_b_16,1,686,NaN,chair,chair,180,0686_rot_dnn_180_chair_20_n03376595_15468.png,n03376595_15468.png,1.0,4.068107,1.9267249,1.5141859
vit_b_16,1,687,NaN,knife,knife,270,0687_rot_dnn_270_knife_20_n03041632_26236.png,n03041632_26236.png,1.0,9.124749,2.5265434,4.665636
vit_b_16,1,688,NaN,elephant,cat,180,0688_rot_dnn_180_cat_20_n02125311_41650.png,n02125311_41650.png,0.0,0.677406,0.8364315,-0.11244801
vit_b_16,1,689,NaN,truck,car,90,0689_rot_dnn_90_car_20_n02814533_5916.png,n02814533_5916.png,0.0,1.8299783,1.9043322,-0.052576087
vit_b_16,1,690,NaN,knife,knife,180,0690_rot_dnn_180_knife_20_n03041632_7116.png,n03041632_7116.png,1.0,5.510925,1.7223593,2.6789205
vit_b_16,1,691,NaN,knife,bottle,90,0691_rot_dnn_90_bottle_20_n04560804_13583.png,n04560804_13583.png,0.0,1.0536315,1.0979301,-0.03132379
vit_b_16,1,692,NaN,bicycle,bicycle,180,0692_rot_dnn_180_bicycle_20_n02835271_10933.png,n02835271_10933.png,1.0,2.5188417,1.7335104,0.55531317
vit_b_16,1,693,NaN,clock,truck,180,0693_rot_dnn_180_truck_20_n04467665_9589.png,n04467665_9589.png,0.0,0.02108217,4.492175,-3.16154
vit_b_16,1,694,NaN,car,car,180,0694_rot_dnn_180_car_20_n03100240_1750.png,n03100240_1750.png,1.0,5.726855,4.2035627,1.0771302
vit_b_16,1,695,NaN,bear,bear,270,0695_rot_dnn_270_bear_20_n02134418_1094.png,n02134418_1094.png,1.0,2.913669,0.16134432,1.9461876
vit_b_16,1,696,NaN,clock,clock,0,0696_rot_dnn_0_clock_20_n04548280_7792.png,n04548280_7792.png,1.0,6.338627,0.4500725,4.163837
vit_b_16,1,697,NaN,airplane,airplane,0,0697_rot_dnn_0_airplane_20_n02690373_7142.png,n02690373_7142.png,1.0,7.8449106,0.71555066,5.041219
vit_b_16,1,698,NaN,keyboard,keyboard,0,0698_rot_dnn_0_keyboard_20_n04505470_7312.png,n04505470_7312.png,1.0,6.149276,0.2667055,4.1596055
vit_b_16,1,699,NaN,bear,bear,90,0699_rot_dnn_90_bear_20_n02132136_18953.png,n02132136_18953.png,1.0,5.6716456,1.2868755,3.1005008
vit_b_16,1,700,NaN,knife,bird,270,0700_rot_dnn_270_bird_20_n02056570_9303.png,n02056570_9303.png,0.0,-0.14100708,1.3891976,-1.0820181
vit_b_16,1,701,NaN,chair,chair,0,0701_rot_dnn_0_chair_20_n02791124_4956.png,n02791124_4956.png,1.0,2.731122,0.27786165,1.7347171
vit_b_16,1,702,NaN,elephant,dog,0,0702_rot_dnn_0_dog_20_n02087394_9061.png,n02087394_9061.png,0.0,0.322768,0.39718312,-0.052619435
vit_b_16,1,703,NaN,bird,bird,270,0703_rot_dnn_270_bird_20_n02025239_13707.png,n02025239_13707.png,1.0,1.8534937,0.33445212,1.0741246
vit_b_16,1,704,NaN,knife,knife,270,0704_rot_dnn_270_knife_20_n03041632_14916.png,n03041632_14916.png,1.0,4.6543574,0.24488594,3.1179674
vit_b_16,1,705,NaN,chair,chair,180,0705_rot_dnn_180_chair_20_n02791124_1287.png,n02791124_1287.png,1.0,1.9336671,0.723514,0.85570747
vit_b_16,1,706,NaN,bear,bear,180,0706_rot_dnn_180_bear_20_n02134418_1825.png,n02134418_1825.png,1.0,3.0080588,1.9099555,0.77647626
vit_b_16,1,707,NaN,elephant,elephant,0,0707_rot_dnn_0_elephant_20_n02504013_6999.png,n02504013_6999.png,1.0,6.725209,0.20284319,4.6120095
vit_b_16,1,708,NaN,clock,clock,270,0708_rot_dnn_270_clock_20_n04548280_7050.png,n04548280_7050.png,1.0,5.7930603,0.3833369,3.825252
vit_b_16,1,709,NaN,knife,cat,180,0709_rot_dnn_180_cat_20_n02123394_8100.png,n02123394_8100.png,0.0,2.408166,2.468858,-0.042915776
vit_b_16,1,710,NaN,oven,oven,180,0710_rot_dnn_180_oven_20_n04111531_11026.png,n04111531_11026.png,1.0,4.2634254,2.0109267,1.5927571
vit_b_16,1,711,NaN,car,car,0,0711_rot_dnn_0_car_20_n02814533_79974.png,n02814533_79974.png,1.0,2.44569,0.90995234,1.0859305
vit_b_16,1,712,NaN,chair,chair,0,0712_rot_dnn_0_chair_20_n04429376_10994.png,n04429376_10994.png,1.0,2.2731967,1.1691508,0.78067833
vit_b_16,1,713,NaN,boat,boat,90,0713_rot_dnn_90_boat_20_n02951358_582.png,n02951358_582.png,1.0,2.6620111,0.99979174,1.1753666
vit_b_16,1,714,NaN,keyboard,keyboard,270,0714_rot_dnn_270_keyboard_20_n03085013_24385.png,n03085013_24385.png,1.0,6.645297,0.802637,4.1313844
vit_b_16,1,715,NaN,bear,bear,0,0715_rot_dnn_0_bear_20_n02133161_4218.png,n02133161_4218.png,1.0,4.05013,0.47776768,2.5260415
vit_b_16,1,716,NaN,keyboard,keyboard,270,0716_rot_dnn_270_keyboard_20_n03085013_1070.png,n03085013_1070.png,1.0,6.1002293,1.2013019,3.4640646
vit_b_16,1,717,NaN,bicycle,bicycle,180,0717_rot_dnn_180_bicycle_20_n02835271_2131.png,n02835271_2131.png,1.0,7.291914,1.6130122,4.0155897
vit_b_16,1,718,NaN,bicycle,oven,90,0718_rot_dnn_90_oven_20_n04111531_8988.png,n04111531_8988.png,0.0,1.7166041,2.8164535,-0.7777109
vit_b_16,1,719,NaN,elephant,elephant,90,0719_rot_dnn_90_elephant_20_n02504458_3608.png,n02504458_3608.png,1.0,2.8085663,1.7771283,0.7293368
vit_b_16,1,720,NaN,clock,boat,270,0720_rot_dnn_270_boat_20_n03344393_2961.png,n03344393_2961.png,0.0,-0.11124603,2.3551946,-1.7440369
vit_b_16,1,721,NaN,oven,oven,90,0721_rot_dnn_90_oven_20_n04111531_12980.png,n04111531_12980.png,1.0,9.231053,2.238122,4.9447494
vit_b_16,1,722,NaN,airplane,airplane,180,0722_rot_dnn_180_airplane_20_n02690373_7046.png,n02690373_7046.png,1.0,7.6027284,0.78824955,4.8185644
vit_b_16,1,723,NaN,bottle,bottle,0,0723_rot_dnn_0_bottle_20_n03937543_1929.png,n03937543_1929.png,1.0,1.8789071,0.29854834,1.1174824
vit_b_16,1,724,NaN,bicycle,dog,90,0724_rot_dnn_90_dog_20_n02087394_7707.png,n02087394_7707.png,0.0,-0.3576011,3.609025,-2.8048284
vit_b_16,1,725,NaN,chair,chair,180,0725_rot_dnn_180_chair_20_n03376595_9219.png,n03376595_9219.png,1.0,1.5715538,1.4469551,0.08810461
vit_b_16,1,726,NaN,airplane,airplane,180,0726_rot_dnn_180_airplane_20_n02690373_5838.png,n02690373_5838.png,1.0,8.137401,0.43388328,5.4472094
vit_b_16,1,727,NaN,chair,chair,0,0727_rot_dnn_0_chair_20_n04099969_16669.png,n04099969_16669.png,1.0,2.3560236,0.43159845,1.360774
vit_b_16,1,728,NaN,cat,bird,180,0728_rot_dnn_180_bird_20_n01532829_37796.png,n01532829_37796.png,0.0,1.3034351,4.10329,-1.9797965
vit_b_16,1,729,NaN,airplane,airplane,180,0729_rot_dnn_180_airplane_20_n02690373_6602.png,n02690373_6602.png,1.0,8.302482,0.22034167,5.7149363
vit_b_16,1,730,NaN,bear,bear,180,0730_rot_dnn_180_bear_20_n02134418_200.png,n02134418_200.png,1.0,2.9925885,0.3780333,1.8487697
vit_b_16,1,731,NaN,car,car,0,0731_rot_dnn_0_car_20_n03100240_16084.png,n03100240_16084.png,1.0,5.398424,0.2715367,3.6252568
vit_b_16,1,732,NaN,cat,bear,270,0732_rot_dnn_270_bear_20_n02134084_18952.png,n02134084_18952.png,0.0,-0.08769339,1.348039,-1.0152161
vit_b_16,1,733,NaN,airplane,boat,90,0733_rot_dnn_90_boat_20_n04273569_1050.png,n04273569_1050.png,0.0,0.38101897,0.70639247,-0.23007381
vit_b_16,1,734,NaN,chair,dog,0,0734_rot_dnn_0_dog_20_n02092339_659.png,n02092339_659.png,0.0,0.1567445,1.8352693,-1.1868963
vit_b_16,1,735,NaN,elephant,elephant,0,0735_rot_dnn_0_elephant_20_n02504458_493.png,n02504458_493.png,1.0,6.9365435,0.54598147,4.51881
vit_b_16,1,736,NaN,clock,truck,90,0736_rot_dnn_90_truck_20_n03417042_9238.png,n03417042_9238.png,0.0,0.44878712,2.6034148,-1.5235518
vit_b_16,1,737,NaN,clock,truck,90,0737_rot_dnn_90_truck_20_n04467665_8303.png,n04467665_8303.png,0.0,-0.28330654,4.04013,-3.0571315
vit_b_16,1,738,NaN,cat,cat,270,0738_rot_dnn_270_cat_20_n02123394_6969.png,n02123394_6969.png,1.0,4.277848,0.4034998,2.7395778
vit_b_16,1,739,NaN,bottle,bottle,90,0739_rot_dnn_90_bottle_20_n03983396_618.png,n03983396_618.png,1.0,3.8787506,2.0698457,1.279089
vit_b_16,1,740,NaN,elephant,elephant,0,0740_rot_dnn_0_elephant_20_n02504458_8621.png,n02504458_8621.png,1.0,7.2763586,0.25977245,4.961476
vit_b_16,1,741,NaN,bicycle,bicycle,90,0741_rot_dnn_90_bicycle_20_n02835271_3308.png,n02835271_3308.png,1.0,6.1879697,0.5326242,3.998933
vit_b_16,1,742,NaN,airplane,bird,90,0742_rot_dnn_90_bird_20_n02025239_17065.png,n02025239_17065.png,0.0,0.08033669,0.32921672,-0.17598476
vit_b_16,1,743,NaN,clock,clock,0,0743_rot_dnn_0_clock_20_n04548280_4582.png,n04548280_4582.png,1.0,5.5310693,0.84025764,3.3169048
vit_b_16,1,744,NaN,keyboard,keyboard,180,0744_rot_dnn_180_keyboard_20_n04505470_933.png,n04505470_933.png,1.0,7.7975717,1.0071977,4.8015194
vit_b_16,1,745,NaN,cat,cat,270,0745_rot_dnn_270_cat_20_n02123597_2549.png,n02123597_2549.png,1.0,2.8080142,0.45393953,1.6645823
vit_b_16,1,746,NaN,bicycle,boat,90,0746_rot_dnn_90_boat_20_n04612504_30766.png,n04612504_30766.png,0.0,1.2714102,1.3612683,-0.063539244
