subj,session,trial,rt,object_response,category,condition,imagename,filename,is_correct,targ_act,max_nontarg_act,decision_margin
alexnet,1,1,NaN,chair,chair,0,0001_rot_dnn_0_chair_20_n03376595_3070.png,n03376595_3070.png,1.0,5.3841453,3.8722067,1.069102
alexnet,1,2,NaN,car,car,180,0002_rot_dnn_180_car_20_n02814533_29367.png,n02814533_29367.png,1.0,6.2870526,4.932555,0.95777434
alexnet,1,3,NaN,knife,car,270,0003_rot_dnn_270_car_20_n02814533_31083.png,n02814533_31083.png,0.0,-2.2403874,3.4103928,-3.9957051
alexnet,1,4,NaN,truck,car,180,0004_rot_dnn_180_car_20_n03100240_1703.png,n03100240_1703.png,0.0,6.640905,8.168278,-1.0800157
alexnet,1,5,NaN,bottle,bottle,180,0005_rot_dnn_180_bottle_20_n04591713_2359.png,n04591713_2359.png,1.0,6.17716,4.6942925,1.0485455
alexnet,1,6,NaN,cat,dog,90,0006_rot_dnn_90_dog_20_n02111500_8796.png,n02111500_8796.png,0.0,3.5954707,5.4398494,-1.3041728
alexnet,1,7,NaN,elephant,bear,180,0007_rot_dnn_180_bear_20_n02132136_4512.png,n02132136_4512.png,0.0,2.814864,3.621904,-0.57066345
alexnet,1,8,NaN,chair,chair,90,0008_rot_dnn_90_chair_20_n03376595_4820.png,n03376595_4820.png,1.0,8.563054,4.6335044,2.7786112
alexnet,1,9,NaN,bottle,bottle,270,0009_rot_dnn_270_bottle_20_n04591713_6111.png,n04591713_6111.png,1.0,10.793895,8.199909,1.8342248
alexnet,1,10,NaN,chair,bottle,270,0010_rot_dnn_270_bottle_20_n04560804_14111.png,n04560804_14111.png,0.0,1.9727974,5.556049,-2.5337415
alexnet,1,11,NaN,elephant,dog,0,0011_rot_dnn_0_dog_20_n02099601_8656.png,n02099601_8656.png,0.0,4.891474,5.914227,-0.7231958
alexnet,1,12,NaN,cat,cat,0,0012_rot_dnn_0_cat_20_n02125311_14054.png,n02125311_14054.png,1.0,8.362838,2.2389402,4.33025
alexnet,1,13,NaN,bear,bear,0,0013_rot_dnn_0_bear_20_n02132136_10385.png,n02132136_10385.png,1.0,5.2667613,2.9589868,1.6318431
alexnet,1,14,NaN,knife,bottle,90,0014_rot_dnn_90_bottle_20_n02823428_10417.png,n02823428_10417.png,0.0,6.2740874,7.705195,-1.0119458
alexnet,1,15,NaN,knife,keyboard,0,0015_rot_dnn_0_keyboard_20_n03085013_23566.png,n03085013_23566.png,0.0,4.084359,4.2067575,-0.08654872
alexnet,1,16,NaN,oven,truck,90,0016_rot_dnn_90_truck_20_n03417042_12560.png,n03417042_12560.png,0.0,1.8680401,5.2011466,-2.3568623
alexnet,1,17,NaN,car,truck,180,0017_rot_dnn_180_truck_20_n04467665_69063.png,n04467665_69063.png,0.0,4.3629727,4.396869,-0.023968408
alexnet,1,18,NaN,oven,oven,180,0018_rot_dnn_180_oven_20_n04111531_9712.png,n04111531_9712.png,1.0,4.4244275,2.0936573,1.6481035
alexnet,1,19,NaN,oven,oven,180,0019_rot_dnn_180_oven_20_n04111531_10375.png,n04111531_10375.png,1.0,8.342702,4.3792973,2.8025503
alexnet,1,20,NaN,keyboard,keyboard,0,0020_rot_dnn_0_keyboard_20_n04505470_1744.png,n04505470_1744.png,1.0,18.735094,7.1402864,8.198768
alexnet,1,21,NaN,bicycle,boat,90,0021_rot_dnn_90_boat_20_n04273569_7296.png,n04273569_7296.png,0.0,-2.3863304,3.8906507,-4.438496
alexnet,1,22,NaN,bear,dog,0,0022_rot_dnn_0_dog_20_n02101006_4807.png,n02101006_4807.png,0.0,7.27959,7.5404077,-0.18442585
alexnet,1,23,NaN,clock,clock,90,0023_rot_dnn_90_clock_20_n02708093_1986.png,n02708093_1986.png,1.0,13.580007,3.9572515,6.8043156
alexnet,1,24,NaN,bottle,bottle,0,0024_rot_dnn_0_bottle_20_n04560804_15562.png,n04560804_15562.png,1.0,9.317231,2.7984846,4.60945
alexnet,1,25,NaN,cat,cat,0,0025_rot_dnn_0_cat_20_n02124075_13594.png,n02124075_13594.png,1.0,9.471328,4.6337004,3.4207191
alexnet,1,26,NaN,elephant,bear,90,0026_rot_dnn_90_bear_20_n02134418_4365.png,n02134418_4365.png,0.0,4.383025,6.50753,-1.502252
alexnet,1,27,NaN,bear,bear,180,0027_rot_dnn_180_bear_20_n02132136_8650.png,n02132136_8650.png,1.0,5.2897635,4.5917163,0.4935939
alexnet,1,28,NaN,knife,bird,90,0028_rot_dnn_90_bird_20_n02009912_12219.png,n02009912_12219.png,0.0,1.2711114,4.2014136,-2.0720365
alexnet,1,29,NaN,bear,dog,90,0029_rot_dnn_90_dog_20_n02100236_1662.png,n02100236_1662.png,0.0,2.2037013,2.236466,-0.023168122
alexnet,1,30,NaN,clock,clock,90,0030_rot_dnn_90_clock_20_n04548280_1947.png,n04548280_1947.png,1.0,13.24208,6.6318135,4.6741643
alexnet,1,31,NaN,dog,dog,270,0031_rot_dnn_270_dog_20_n02109047_66167.png,n02109047_66167.png,1.0,4.3448153,3.1340384,0.8561485
alexnet,1,32,NaN,oven,oven,90,0032_rot_dnn_90_oven_20_n04111531_21055.png,n04111531_21055.png,1.0,13.195969,10.590615,1.8422631
alexnet,1,33,NaN,clock,clock,0,0033_rot_dnn_0_clock_20_n02708093_2012.png,n02708093_2012.png,1.0,4.900055,4.606378,0.2076609
alexnet,1,34,NaN,elephant,elephant,0,0034_rot_dnn_0_elephant_20_n02504458_6119.png,n02504458_6119.png,1.0,10.78553,3.1118276,5.426127
alexnet,1,35,NaN,chair,chair,0,0035_rot_dnn_0_chair_20_n04099969_12707.png,n04099969_12707.png,1.0,11.5576105,2.694298,6.2673087
alexnet,1,36,NaN,keyboard,keyboard,270,0036_rot_dnn_270_keyboard_20_n03085013_19054.png,n03085013_19054.png,1.0,3.4656093,2.9828959,0.34132996
alexnet,1,37,NaN,chair,chair,0,0037_rot_dnn_0_chair_20_n02791124_422.png,n02791124_422.png,1.0,4.9087353,3.1523998,1.2419168
alexnet,1,38,NaN,bicycle,bicycle,0,0038_rot_dnn_0_bicycle_20_n02835271_23830.png,n02835271_23830.png,1.0,13.527948,2.6256142,7.7091146
alexnet,1,39,NaN,clock,bird,90,0039_rot_dnn_90_bird_20_n01534433_14735.png,n01534433_14735.png,0.0,-0.68751746,3.3748207,-2.872507
alexnet,1,40,NaN,knife,bird,90,0040_rot_dnn_90_bird_20_n02011460_13994.png,n02011460_13994.png,0.0,0.22686744,2.5481575,-1.6414
alexnet,1,41,NaN,knife,boat,270,0041_rot_dnn_270_boat_20_n04273569_17522.png,n04273569_17522.png,0.0,1.0591103,4.164841,-2.1960835
alexnet,1,42,NaN,cat,bear,180,0042_rot_dnn_180_bear_20_n02132136_5537.png,n02132136_5537.png,0.0,5.1386194,7.7605515,-1.8539859
alexnet,1,43,NaN,bear,bear,90,0043_rot_dnn_90_bear_20_n02132136_19248.png,n02132136_19248.png,1.0,7.817836,6.096518,1.2171555
alexnet,1,44,NaN,airplane,bird,270,0044_rot_dnn_270_bird_20_n01537544_1886.png,n01537544_1886.png,0.0,-1.6639843,3.5495934,-3.6865563
alexnet,1,45,NaN,clock,clock,180,0045_rot_dnn_180_clock_20_n03196217_4776.png,n03196217_4776.png,1.0,8.901414,4.2277193,3.3048012
alexnet,1,46,NaN,oven,boat,270,0046_rot_dnn_270_boat_20_n04612504_17610.png,n04612504_17610.png,0.0,0.14604858,3.816022,-2.5950632
alexnet,1,47,NaN,elephant,bear,90,0047_rot_dnn_90_bear_20_n02134418_1814.png,n02134418_1814.png,0.0,3.146006,4.1339703,-0.6985962
alexnet,1,48,NaN,keyboard,keyboard,180,0048_rot_dnn_180_keyboard_20_n03085013_20330.png,n03085013_20330.png,1.0,15.578083,5.789112,6.921848
alexnet,1,49,NaN,bottle,bottle,180,0049_rot_dnn_180_bottle_20_n02823428_14574.png,n02823428_14574.png,1.0,8.413431,6.7736335,1.159512
alexnet,1,50,NaN,bicycle,bicycle,0,0050_rot_dnn_0_bicycle_20_n03792782_7105.png,n03792782_7105.png,1.0,6.9883695,2.796054,2.9644148
alexnet,1,51,NaN,elephant,elephant,0,0051_rot_dnn_0_elephant_20_n02504458_1302.png,n02504458_1302.png,1.0,13.455614,5.4372582,5.669834
alexnet,1,52,NaN,oven,airplane,90,0052_rot_dnn_90_airplane_20_n02690373_3877.png,n02690373_3877.png,0.0,-1.2919436,2.7802906,-2.8795044
alexnet,1,53,NaN,chair,boat,90,0053_rot_dnn_90_boat_20_n02951358_15422.png,n02951358_15422.png,0.0,-0.7951128,5.5324965,-4.474295
alexnet,1,54,NaN,clock,car,270,0054_rot_dnn_270_car_20_n02814533_46458.png,n02814533_46458.png,0.0,-0.5180735,3.961749,-3.167713
alexnet,1,55,NaN,car,car,0,0055_rot_dnn_0_car_20_n02814533_39547.png,n02814533_39547.png,1.0,15.104554,6.5699854,6.0348516
alexnet,1,56,NaN,airplane,boat,180,0056_rot_dnn_180_boat_20_n04273569_6586.png,n04273569_6586.png,0.0,5.830354,7.9961886,-1.5314763
alexnet,1,57,NaN,clock,clock,90,0057_rot_dnn_90_clock_20_n02708093_3394.png,n02708093_3394.png,1.0,6.1734033,5.208306,0.6824269
alexnet,1,58,NaN,keyboard,keyboard,180,0058_rot_dnn_180_keyboard_20_n03085013_25419.png,n03085013_25419.png,1.0,11.325487,5.2876353,4.269406
alexnet,1,59,NaN,bottle,bottle,180,0059_rot_dnn_180_bottle_20_n04557648_1871.png,n04557648_1871.png,1.0,4.190835,3.9358897,0.18027353
alexnet,1,60,NaN,chair,chair,90,0060_rot_dnn_90_chair_20_n04099969_6944.png,n04099969_6944.png,1.0,4.3130445,3.7384815,0.40627742
alexnet,1,61,NaN,chair,boat,270,0061_rot_dnn_270_boat_20_n04273569_1495.png,n04273569_1495.png,0.0,-1.0935497,3.3513274,-3.1430027
alexnet,1,62,NaN,keyboard,keyboard,90,0062_rot_dnn_90_keyboard_20_n03085013_7317.png,n03085013_7317.png,1.0,5.529456,3.9478786,1.1183442
alexnet,1,63,NaN,knife,knife,90,0063_rot_dnn_90_knife_20_n03041632_7448.png,n03041632_7448.png,1.0,5.2454996,4.798416,0.31613576
alexnet,1,64,NaN,truck,truck,0,0064_rot_dnn_0_truck_20_n03417042_11000.png,n03417042_11000.png,1.0,8.256441,6.668569,1.1227951
alexnet,1,65,NaN,bird,bird,0,0065_rot_dnn_0_bird_20_n01582220_8827.png,n01582220_8827.png,1.0,7.1046095,1.354466,4.0659657
alexnet,1,66,NaN,truck,airplane,270,0066_rot_dnn_270_airplane_20_n02690373_9247.png,n02690373_9247.png,0.0,0.2231437,2.762029,-1.7952629
alexnet,1,67,NaN,bear,bear,270,0067_rot_dnn_270_bear_20_n02133161_14397.png,n02133161_14397.png,1.0,7.061487,5.516603,1.0923982
alexnet,1,68,NaN,oven,oven,270,0068_rot_dnn_270_oven_20_n04111531_13560.png,n04111531_13560.png,1.0,8.260463,6.0736136,1.5463358
alexnet,1,69,NaN,bear,bear,180,0069_rot_dnn_180_bear_20_n02132136_545.png,n02132136_545.png,1.0,2.7852721,2.4551768,0.23341262
alexnet,1,70,NaN,elephant,cat,90,0070_rot_dnn_90_cat_20_n02125311_73072.png,n02125311_73072.png,0.0,1.473813,8.50173,-4.9694877
alexnet,1,71,NaN,bicycle,bicycle,0,0071_rot_dnn_0_bicycle_20_n03792782_30530.png,n03792782_30530.png,1.0,8.025287,4.294722,2.6379075
alexnet,1,72,NaN,bottle,knife,90,0072_rot_dnn_90_knife_20_n03041632_4975.png,n03041632_4975.png,0.0,3.9001064,6.6234894,-1.9257226
alexnet,1,73,NaN,chair,dog,90,0073_rot_dnn_90_dog_20_n02107683_3120.png,n02107683_3120.png,0.0,-0.25678995,3.9111493,-2.9471781
alexnet,1,74,NaN,bicycle,elephant,90,0074_rot_dnn_90_elephant_20_n02504013_7316.png,n02504013_7316.png,0.0,0.836612,3.698534,-2.0236845
alexnet,1,75,NaN,knife,truck,90,0075_rot_dnn_90_truck_20_n03796401_7284.png,n03796401_7284.png,0.0,1.627272,5.060815,-2.4278815
alexnet,1,76,NaN,chair,chair,270,0076_rot_dnn_270_chair_20_n03376595_497.png,n03376595_497.png,1.0,3.7540896,3.1319897,0.43989104
alexnet,1,77,NaN,oven,truck,270,0077_rot_dnn_270_truck_20_n03796401_19845.png,n03796401_19845.png,0.0,5.511178,6.022024,-0.36122277
alexnet,1,78,NaN,knife,chair,90,0078_rot_dnn_90_chair_20_n04099969_1941.png,n04099969_1941.png,0.0,2.8268352,3.846165,-0.720775
alexnet,1,79,NaN,clock,truck,90,0079_rot_dnn_90_truck_20_n03417042_28886.png,n03417042_28886.png,0.0,3.4948654,7.2227454,-2.6360092
alexnet,1,80,NaN,car,car,0,0080_rot_dnn_0_car_20_n02814533_12185.png,n02814533_12185.png,1.0,17.09111,8.417992,6.132821
alexnet,1,81,NaN,bicycle,bicycle,90,0081_rot_dnn_90_bicycle_20_n02835271_1621.png,n02835271_1621.png,1.0,8.234141,4.669382,2.5206654
alexnet,1,82,NaN,cat,cat,0,0082_rot_dnn_0_cat_20_n02123597_32226.png,n02123597_32226.png,1.0,12.51875,3.398614,6.44891
alexnet,1,83,NaN,bicycle,bicycle,90,0083_rot_dnn_90_bicycle_20_n03792782_5048.png,n03792782_5048.png,1.0,6.900773,3.1811893,2.630143
alexnet,1,84,NaN,airplane,airplane,0,0084_rot_dnn_0_airplane_20_n02690373_10044.png,n02690373_10044.png,1.0,17.209095,6.04409,7.8948507
alexnet,1,85,NaN,car,car,180,0085_rot_dnn_180_car_20_n03100240_5752.png,n03100240_5752.png,1.0,8.392495,5.9714813,1.7119154
alexnet,1,86,NaN,bottle,car,90,0086_rot_dnn_90_car_20_n02814533_68219.png,n02814533_68219.png,0.0,0.8888981,3.8615172,-2.1019592
alexnet,1,87,NaN,airplane,airplane,0,0087_rot_dnn_0_airplane_20_n02690373_1171.png,n02690373_1171.png,1.0,14.262757,6.1859417,5.711171
alexnet,1,88,NaN,oven,bird,90,0088_rot_dnn_90_bird_20_n01817953_6970.png,n01817953_6970.png,0.0,-1.7457315,5.794059,-5.3314366
alexnet,1,89,NaN,oven,car,90,0089_rot_dnn_90_car_20_n04285008_15503.png,n04285008_15503.png,0.0,2.2329845,5.232631,-2.1210706
alexnet,1,90,NaN,oven,boat,270,0090_rot_dnn_270_boat_20_n03344393_11886.png,n03344393_11886.png,0.0,2.6050794,4.804542,-1.5552549
alexnet,1,91,NaN,elephant,boat,0,0091_rot_dnn_0_boat_20_n04273569_30203.png,n04273569_30203.png,0.0,6.3632913,7.33916,-0.6900434
alexnet,1,92,NaN,keyboard,keyboard,180,0092_rot_dnn_180_keyboard_20_n03085013_22069.png,n03085013_22069.png,1.0,13.196248,6.8440804,4.491661
alexnet,1,93,NaN,airplane,knife,0,0093_rot_dnn_0_knife_20_n03041632_26314.png,n03041632_26314.png,0.0,4.056589,4.6885443,-0.44685978
alexnet,1,94,NaN,bicycle,bicycle,270,0094_rot_dnn_270_bicycle_20_n03792782_18308.png,n03792782_18308.png,1.0,5.491778,4.098419,0.9852534
alexnet,1,95,NaN,airplane,car,180,0095_rot_dnn_180_car_20_n04285008_8396.png,n04285008_8396.png,0.0,4.7262993,7.5807266,-2.018385
alexnet,1,96,NaN,bottle,bear,90,0096_rot_dnn_90_bear_20_n02133161_12349.png,n02133161_12349.png,0.0,0.6665778,4.3934526,-2.6352985
alexnet,1,97,NaN,elephant,bear,270,0097_rot_dnn_270_bear_20_n02132136_18303.png,n02132136_18303.png,0.0,5.3705826,8.629517,-2.3044143
alexnet,1,98,NaN,cat,cat,180,0098_rot_dnn_180_cat_20_n02123394_6853.png,n02123394_6853.png,1.0,7.276365,1.0718228,4.387274
alexnet,1,99,NaN,chair,cat,180,0099_rot_dnn_180_cat_20_n02123597_4805.png,n02123597_4805.png,0.0,-0.7790398,5.661371,-4.5540586
alexnet,1,100,NaN,clock,car,0,0100_rot_dnn_0_car_20_n03100240_17587.png,n03100240_17587.png,0.0,3.8021781,6.340302,-1.7947246
alexnet,1,101,NaN,knife,bird,180,0101_rot_dnn_180_bird_20_n01601694_19236.png,n01601694_19236.png,0.0,-0.30306304,1.9115791,-1.5659884
alexnet,1,102,NaN,cat,cat,0,0102_rot_dnn_0_cat_20_n02123597_2341.png,n02123597_2341.png,1.0,7.0032306,3.2550893,2.6503363
alexnet,1,103,NaN,elephant,elephant,270,0103_rot_dnn_270_elephant_20_n02504013_7883.png,n02504013_7883.png,1.0,3.5483,2.884202,0.46958822
alexnet,1,104,NaN,chair,chair,270,0104_rot_dnn_270_chair_20_n03376595_14240.png,n03376595_14240.png,1.0,3.3881392,2.3992128,0.69927657
alexnet,1,105,NaN,airplane,airplane,0,0105_rot_dnn_0_airplane_20_n02690373_10188.png,n02690373_10188.png,1.0,15.738741,5.6866393,7.107909
alexnet,1,106,NaN,chair,truck,90,0106_rot_dnn_90_truck_20_n03417042_8634.png,n03417042_8634.png,0.0,1.0792078,6.143107,-3.5807173
alexnet,1,107,NaN,knife,knife,90,0107_rot_dnn_90_knife_20_n03041632_32774.png,n03041632_32774.png,1.0,9.943878,3.974897,4.2207074
alexnet,1,108,NaN,clock,bottle,90,0108_rot_dnn_90_bottle_20_n03983396_4115.png,n03983396_4115.png,0.0,4.7671995,6.551445,-1.2616521
alexnet,1,109,NaN,clock,clock,270,0109_rot_dnn_270_clock_20_n04548280_8552.png,n04548280_8552.png,1.0,8.8360815,5.1590576,2.6000485
alexnet,1,110,NaN,car,car,0,0110_rot_dnn_0_car_20_n02814533_6233.png,n02814533_6233.png,1.0,19.487513,12.31105,5.0745254
alexnet,1,111,NaN,elephant,elephant,0,0111_rot_dnn_0_elephant_20_n02504458_9870.png,n02504458_9870.png,1.0,14.660969,6.2105913,5.9753194
alexnet,1,112,NaN,bicycle,bicycle,270,0112_rot_dnn_270_bicycle_20_n02835271_3956.png,n02835271_3956.png,1.0,10.507434,4.6051297,4.173559
alexnet,1,113,NaN,knife,knife,90,0113_rot_dnn_90_knife_20_n03041632_14817.png,n03041632_14817.png,1.0,4.4326515,4.2175217,0.15211979
alexnet,1,114,NaN,knife,chair,90,0114_rot_dnn_90_chair_20_n04099969_8642.png,n04099969_8642.png,0.0,4.7543116,5.6555104,-0.63724387
alexnet,1,115,NaN,clock,clock,0,0115_rot_dnn_0_clock_20_n02708093_240.png,n02708093_240.png,1.0,8.1568,4.5091524,2.5792766
alexnet,1,116,NaN,cat,bear,180,0116_rot_dnn_180_bear_20_n02133161_3896.png,n02133161_3896.png,0.0,4.304514,5.6141925,-0.9260826
alexnet,1,117,NaN,bottle,bottle,270,0117_rot_dnn_270_bottle_20_n04557648_11000.png,n04557648_11000.png,1.0,5.364811,4.79234,0.40479824
alexnet,1,118,NaN,keyboard,keyboard,90,0118_rot_dnn_90_keyboard_20_n03085013_2853.png,n03085013_2853.png,1.0,11.559018,8.115581,2.434878
alexnet,1,119,NaN,bicycle,boat,90,0119_rot_dnn_90_boat_20_n04273569_7097.png,n04273569_7097.png,0.0,0.04529629,4.2920647,-3.0029187
alexnet,1,120,NaN,bicycle,bicycle,270,0120_rot_dnn_270_bicycle_20_n03792782_40932.png,n03792782_40932.png,1.0,7.464859,4.0230455,2.4337296
alexnet,1,121,NaN,keyboard,chair,270,0121_rot_dnn_270_chair_20_n04429376_44914.png,n04429376_44914.png,0.0,5.6098676,5.6741667,-0.045466334
alexnet,1,122,NaN,cat,bear,180,0122_rot_dnn_180_bear_20_n02134418_2122.png,n02134418_2122.png,0.0,2.9140668,3.4413831,-0.37286896
alexnet,1,123,NaN,keyboard,keyboard,90,0123_rot_dnn_90_keyboard_20_n03085013_22704.png,n03085013_22704.png,1.0,4.8457727,4.7043915,0.09997165
alexnet,1,124,NaN,truck,truck,0,0124_rot_dnn_0_truck_20_n03417042_6838.png,n03417042_6838.png,1.0,6.7063212,6.2827044,0.29954237
alexnet,1,125,NaN,elephant,elephant,0,0125_rot_dnn_0_elephant_20_n02504458_3628.png,n02504458_3628.png,1.0,13.254066,5.6081963,5.406447
alexnet,1,126,NaN,cat,cat,90,0126_rot_dnn_90_cat_20_n02123597_10141.png,n02123597_10141.png,1.0,8.479732,3.309476,3.655923
alexnet,1,127,NaN,bicycle,bicycle,0,0127_rot_dnn_0_bicycle_20_n02835271_6383.png,n02835271_6383.png,1.0,8.2484255,1.9507976,4.4530954
alexnet,1,128,NaN,car,car,180,0128_rot_dnn_180_car_20_n04285008_7154.png,n04285008_7154.png,1.0,7.0645566,6.8789372,0.1312527
alexnet,1,129,NaN,airplane,bird,0,0129_rot_dnn_0_bird_20_n02007558_1068.png,n02007558_1068.png,0.0,4.692665,6.1433105,-1.0257612
alexnet,1,130,NaN,knife,cat,90,0130_rot_dnn_90_cat_20_n02125311_1896.png,n02125311_1896.png,0.0,0.17221385,2.4525568,-1.6124461
alexnet,1,131,NaN,keyboard,keyboard,0,0131_rot_dnn_0_keyboard_20_n04505470_1903.png,n04505470_1903.png,1.0,17.33315,8.244141,6.426901
alexnet,1,132,NaN,bottle,bicycle,90,0132_rot_dnn_90_bicycle_20_n03792782_66159.png,n03792782_66159.png,0.0,2.9989524,3.0926454,-0.06625097
alexnet,1,133,NaN,bear,bear,90,0133_rot_dnn_90_bear_20_n02134418_5219.png,n02134418_5219.png,1.0,8.194806,6.1680846,1.4331086
alexnet,1,134,NaN,chair,car,90,0134_rot_dnn_90_car_20_n02814533_92229.png,n02814533_92229.png,0.0,2.6485832,5.825555,-2.2464583
alexnet,1,135,NaN,cat,dog,90,0135_rot_dnn_90_dog_20_n02090721_1002.png,n02090721_1002.png,0.0,2.6541378,6.0833993,-2.424854
alexnet,1,136,NaN,bicycle,truck,270,0136_rot_dnn_270_truck_20_n04467665_46263.png,n04467665_46263.png,0.0,0.5424441,5.669278,-3.625219
alexnet,1,137,NaN,bottle,bottle,180,0137_rot_dnn_180_bottle_20_n03983396_704.png,n03983396_704.png,1.0,5.216628,5.13432,0.058200754
alexnet,1,138,NaN,truck,truck,180,0138_rot_dnn_180_truck_20_n03796401_4149.png,n03796401_4149.png,1.0,4.744546,4.2543373,0.34662986
alexnet,1,139,NaN,bird,bird,0,0139_rot_dnn_0_bird_20_n02006656_2030.png,n02006656_2030.png,1.0,5.738299,2.7090375,2.1420112
alexnet,1,140,NaN,cat,cat,90,0140_rot_dnn_90_cat_20_n02123394_234.png,n02123394_234.png,1.0,3.1555424,2.9263465,0.16206592
alexnet,1,141,NaN,clock,chair,90,0141_rot_dnn_90_chair_20_n04429376_19916.png,n04429376_19916.png,0.0,4.3504124,6.4835095,-1.5083275
alexnet,1,142,NaN,oven,truck,270,0142_rot_dnn_270_truck_20_n04467665_14024.png,n04467665_14024.png,0.0,0.8992142,4.3072834,-2.409869
alexnet,1,143,NaN,oven,chair,90,0143_rot_dnn_90_chair_20_n04429376_14729.png,n04429376_14729.png,0.0,3.9735372,8.560892,-3.2437496
alexnet,1,144,NaN,knife,car,270,0144_rot_dnn_270_car_20_n02814533_82321.png,n02814533_82321.png,0.0,3.813255,4.8815384,-0.7553904
alexnet,1,145,NaN,clock,clock,180,0145_rot_dnn_180_clock_20_n04548280_3701.png,n04548280_3701.png,1.0,10.827476,5.403747,3.8351552
alexnet,1,146,NaN,chair,boat,270,0146_rot_dnn_270_boat_20_n02951358_11442.png,n02951358_11442.png,0.0,-0.097983465,3.089233,-2.2537024
alexnet,1,147,NaN,oven,bear,90,0147_rot_dnn_90_bear_20_n02132136_17349.png,n02132136_17349.png,0.0,3.4768639,4.16263,-0.48490995
alexnet,1,148,NaN,clock,airplane,90,0148_rot_dnn_90_airplane_20_n02690373_4982.png,n02690373_4982.png,0.0,-0.36133313,7.1936984,-5.342214
alexnet,1,149,NaN,airplane,airplane,0,0149_rot_dnn_0_airplane_20_n02690373_2232.png,n02690373_2232.png,1.0,10.605131,5.3256006,3.733192
alexnet,1,150,NaN,bicycle,cat,180,0150_rot_dnn_180_cat_20_n02123045_909.png,n02123045_909.png,0.0,3.6704,4.269071,-0.42332447
alexnet,1,151,NaN,clock,clock,180,0151_rot_dnn_180_clock_20_n04548280_1190.png,n04548280_1190.png,1.0,6.109854,5.787303,0.22807819
alexnet,1,152,NaN,chair,oven,90,0152_rot_dnn_90_oven_20_n04111531_1855.png,n04111531_1855.png,0.0,3.9506078,4.7846375,-0.589748
alexnet,1,153,NaN,knife,boat,270,0153_rot_dnn_270_boat_20_n03662601_21408.png,n03662601_21408.png,0.0,0.58428466,2.2277875,-1.162132
alexnet,1,154,NaN,knife,dog,90,0154_rot_dnn_90_dog_20_n02088364_15877.png,n02088364_15877.png,0.0,0.74006504,3.9138937,-2.2442358
alexnet,1,155,NaN,knife,knife,90,0155_rot_dnn_90_knife_20_n03041632_15250.png,n03041632_15250.png,1.0,8.139179,4.030709,2.9051273
alexnet,1,156,NaN,oven,oven,0,0156_rot_dnn_0_oven_20_n04111531_17006.png,n04111531_17006.png,1.0,6.423252,3.8882904,1.7924887
alexnet,1,157,NaN,clock,clock,90,0157_rot_dnn_90_clock_20_n04548280_11763.png,n04548280_11763.png,1.0,12.004006,4.764173,5.119335
alexnet,1,158,NaN,elephant,bird,270,0158_rot_dnn_270_bird_20_n02028035_8327.png,n02028035_8327.png,0.0,1.5351424,5.039727,-2.4781158
alexnet,1,159,NaN,chair,car,90,0159_rot_dnn_90_car_20_n04285008_5641.png,n04285008_5641.png,0.0,-0.71798855,4.610826,-3.768041
alexnet,1,160,NaN,clock,oven,90,0160_rot_dnn_90_oven_20_n04111531_10727.png,n04111531_10727.png,0.0,6.753091,7.117062,-0.25736654
alexnet,1,161,NaN,elephant,elephant,270,0161_rot_dnn_270_elephant_20_n02504458_1971.png,n02504458_1971.png,1.0,4.584343,3.6365342,0.670202
alexnet,1,162,NaN,bottle,bottle,180,0162_rot_dnn_180_bottle_20_n04560804_15941.png,n04560804_15941.png,1.0,12.414853,4.795595,5.387629
alexnet,1,163,NaN,elephant,elephant,0,0163_rot_dnn_0_elephant_20_n02504458_151.png,n02504458_151.png,1.0,19.403488,10.128811,6.5581875
alexnet,1,164,NaN,cat,bear,180,0164_rot_dnn_180_bear_20_n02133161_15427.png,n02133161_15427.png,0.0,5.46083,5.7654037,-0.21536602
alexnet,1,165,NaN,cat,bear,180,0165_rot_dnn_180_bear_20_n02134084_20605.png,n02134084_20605.png,0.0,0.67002213,2.9843328,-1.6364647
alexnet,1,166,NaN,bottle,bottle,90,0166_rot_dnn_90_bottle_20_n04560804_2693.png,n04560804_2693.png,1.0,4.6260295,4.0348816,0.4180047
alexnet,1,167,NaN,knife,airplane,270,0167_rot_dnn_270_airplane_20_n02690373_8214.png,n02690373_8214.png,0.0,-2.4603353,5.979694,-5.968002
alexnet,1,168,NaN,boat,boat,0,0168_rot_dnn_0_boat_20_n02951358_14966.png,n02951358_14966.png,1.0,9.016058,3.8641045,3.6429815
alexnet,1,169,NaN,bottle,knife,90,0169_rot_dnn_90_knife_20_n03041632_14801.png,n03041632_14801.png,0.0,2.7391622,5.005719,-1.6026978
alexnet,1,170,NaN,chair,dog,90,0170_rot_dnn_90_dog_20_n02110063_8776.png,n02110063_8776.png,0.0,2.2866762,3.150857,-0.6110681
alexnet,1,171,NaN,bicycle,dog,180,0171_rot_dnn_180_dog_20_n02100236_7671.png,n02100236_7671.png,0.0,0.6024906,3.1158075,-1.7771834
alexnet,1,172,NaN,oven,oven,0,0172_rot_dnn_0_oven_20_n04111531_21248.png,n04111531_21248.png,1.0,4.911602,2.2488155,1.8828744
alexnet,1,173,NaN,knife,knife,270,0173_rot_dnn_270_knife_20_n03041632_17100.png,n03041632_17100.png,1.0,5.800298,4.556753,0.87931913
alexnet,1,174,NaN,knife,knife,0,0174_rot_dnn_0_knife_20_n03041632_3781.png,n03041632_3781.png,1.0,6.547351,5.427368,0.79194736
alexnet,1,175,NaN,chair,oven,270,0175_rot_dnn_270_oven_20_n04111531_46651.png,n04111531_46651.png,0.0,3.8212028,4.9279637,-0.7825982
alexnet,1,176,NaN,clock,clock,0,0176_rot_dnn_0_clock_20_n04548280_8303.png,n04548280_8303.png,1.0,8.511903,4.429655,2.886585
alexnet,1,177,NaN,airplane,airplane,0,0177_rot_dnn_0_airplane_20_n02690373_2070.png,n02690373_2070.png,1.0,17.208,5.5554624,8.239589
alexnet,1,178,NaN,car,car,180,0178_rot_dnn_180_car_20_n03100240_574.png,n03100240_574.png,1.0,5.3675714,3.670144,1.2002623
alexnet,1,179,NaN,cat,dog,90,0179_rot_dnn_90_dog_20_n02095570_11263.png,n02095570_11263.png,0.0,3.1836176,4.4553747,-0.8992681
alexnet,1,180,NaN,clock,bottle,180,0180_rot_dnn_180_bottle_20_n03983396_9667.png,n03983396_9667.png,0.0,4.455031,6.204136,-1.236804
alexnet,1,181,NaN,clock,clock,0,0181_rot_dnn_0_clock_20_n02708093_3535.png,n02708093_3535.png,1.0,14.528877,9.872501,3.292555
alexnet,1,182,NaN,bottle,bird,180,0182_rot_dnn_180_bird_20_n01531178_17239.png,n01531178_17239.png,0.0,1.073667,2.9903119,-1.3552725
alexnet,1,183,NaN,elephant,elephant,180,0183_rot_dnn_180_elephant_20_n02504458_2272.png,n02504458_2272.png,1.0,7.6433363,2.904304,3.351002
alexnet,1,184,NaN,knife,knife,90,0184_rot_dnn_90_knife_20_n03041632_50648.png,n03041632_50648.png,1.0,14.854869,3.821128,7.8020334
alexnet,1,185,NaN,knife,knife,0,0185_rot_dnn_0_knife_20_n03041632_33225.png,n03041632_33225.png,1.0,5.5584674,2.5514207,2.1263032
alexnet,1,186,NaN,airplane,airplane,0,0186_rot_dnn_0_airplane_20_n02690373_736.png,n02690373_736.png,1.0,17.829056,6.163845,8.248549
alexnet,1,187,NaN,knife,knife,270,0187_rot_dnn_270_knife_20_n03041632_2546.png,n03041632_2546.png,1.0,6.680518,3.2304502,2.4395666
alexnet,1,188,NaN,airplane,boat,180,0188_rot_dnn_180_boat_20_n04273569_13053.png,n04273569_13053.png,0.0,5.3847723,5.463419,-0.055611588
alexnet,1,189,NaN,airplane,airplane,180,0189_rot_dnn_180_airplane_20_n02690373_3588.png,n02690373_3588.png,1.0,6.2464476,4.0683026,1.540181
alexnet,1,190,NaN,cat,keyboard,0,0190_rot_dnn_0_keyboard_20_n03085013_21004.png,n03085013_21004.png,0.0,6.921318,10.454945,-2.4986513
alexnet,1,191,NaN,chair,boat,180,0191_rot_dnn_180_boat_20_n03662601_16627.png,n03662601_16627.png,0.0,3.0367427,5.696293,-1.880586
alexnet,1,192,NaN,elephant,bird,180,0192_rot_dnn_180_bird_20_n02017213_6478.png,n02017213_6478.png,0.0,1.1093061,6.417014,-3.7531161
alexnet,1,193,NaN,bear,bear,90,0193_rot_dnn_90_bear_20_n02134418_998.png,n02134418_998.png,1.0,6.2926793,2.7210095,2.525552
alexnet,1,194,NaN,bicycle,truck,90,0194_rot_dnn_90_truck_20_n04467665_71055.png,n04467665_71055.png,0.0,1.6670263,5.810092,-2.9295897
alexnet,1,195,NaN,knife,car,90,0195_rot_dnn_90_car_20_n02814533_23979.png,n02814533_23979.png,0.0,1.7278332,5.6851473,-2.7982435
alexnet,1,196,NaN,elephant,elephant,180,0196_rot_dnn_180_elephant_20_n02504458_6805.png,n02504458_6805.png,1.0,3.011756,2.762685,0.17611971
alexnet,1,197,NaN,clock,clock,90,0197_rot_dnn_90_clock_20_n04548280_4841.png,n04548280_4841.png,1.0,6.3457313,4.9804544,0.9653965
alexnet,1,198,NaN,oven,boat,90,0198_rot_dnn_90_boat_20_n03662601_6832.png,n03662601_6832.png,0.0,2.5186102,5.590694,-2.1722913
alexnet,1,199,NaN,oven,oven,270,0199_rot_dnn_270_oven_20_n04111531_766.png,n04111531_766.png,1.0,10.136321,3.620945,4.6070666
alexnet,1,200,NaN,clock,clock,0,0200_rot_dnn_0_clock_20_n04548280_1305.png,n04548280_1305.png,1.0,8.350676,2.7250407,3.9779248
alexnet,1,201,NaN,bicycle,bicycle,0,0201_rot_dnn_0_bicycle_20_n03792782_19083.png,n03792782_19083.png,1.0,7.020396,4.3569756,1.8833228
alexnet,1,202,NaN,knife,bird,90,0202_rot_dnn_90_bird_20_n01860187_20081.png,n01860187_20081.png,0.0,-2.918459,2.5623388,-3.8755093
alexnet,1,203,NaN,oven,oven,0,0203_rot_dnn_0_oven_20_n04111531_4817.png,n04111531_4817.png,1.0,5.5778866,3.8009508,1.2564834
alexnet,1,204,NaN,car,car,180,0204_rot_dnn_180_car_20_n02814533_33360.png,n02814533_33360.png,1.0,6.414362,4.6657114,1.2364827
alexnet,1,205,NaN,clock,clock,270,0205_rot_dnn_270_clock_20_n04548280_4035.png,n04548280_4035.png,1.0,13.512614,3.7803037,6.8817825
alexnet,1,206,NaN,keyboard,keyboard,270,0206_rot_dnn_270_keyboard_20_n03085013_7879.png,n03085013_7879.png,1.0,5.795477,4.296299,1.0600789
alexnet,1,207,NaN,airplane,airplane,0,0207_rot_dnn_0_airplane_20_n02690373_2598.png,n02690373_2598.png,1.0,12.73052,6.008965,4.752857
alexnet,1,208,NaN,cat,cat,180,0208_rot_dnn_180_cat_20_n02123045_436.png,n02123045_436.png,1.0,7.11232,2.1735632,3.4922285
alexnet,1,209,NaN,knife,airplane,270,0209_rot_dnn_270_airplane_20_n02690373_813.png,n02690373_813.png,0.0,-2.7703023,5.512256,-5.856653
alexnet,1,210,NaN,cat,cat,0,0210_rot_dnn_0_cat_20_n02123159_1008.png,n02123159_1008.png,1.0,12.658504,3.7905145,6.270615
alexnet,1,211,NaN,bottle,bottle,90,0211_rot_dnn_90_bottle_20_n03983396_5452.png,n03983396_5452.png,1.0,3.5373666,2.8474045,0.48787692
alexnet,1,212,NaN,knife,dog,90,0212_rot_dnn_90_dog_20_n02090379_13010.png,n02090379_13010.png,0.0,2.5162742,5.6868963,-2.2419684
alexnet,1,213,NaN,bicycle,chair,180,0213_rot_dnn_180_chair_20_n04099969_4162.png,n04099969_4162.png,0.0,3.119186,5.1933527,-1.4666574
alexnet,1,214,NaN,keyboard,keyboard,270,0214_rot_dnn_270_keyboard_20_n04505470_206.png,n04505470_206.png,1.0,5.7838063,5.778271,0.003913925
alexnet,1,215,NaN,keyboard,cat,0,0215_rot_dnn_0_cat_20_n02123045_5290.png,n02123045_5290.png,0.0,2.3637478,4.029389,-1.1777861
alexnet,1,216,NaN,bicycle,bird,180,0216_rot_dnn_180_bird_20_n01843383_6001.png,n01843383_6001.png,0.0,-1.0651449,2.5349202,-2.5456307
alexnet,1,217,NaN,chair,knife,0,0217_rot_dnn_0_knife_20_n03041632_24376.png,n03041632_24376.png,0.0,3.8219109,5.7667785,-1.3752291
alexnet,1,218,NaN,bicycle,bicycle,90,0218_rot_dnn_90_bicycle_20_n02835271_2915.png,n02835271_2915.png,1.0,8.18818,3.5898466,3.2515128
alexnet,1,219,NaN,bicycle,bicycle,0,0219_rot_dnn_0_bicycle_20_n03792782_5517.png,n03792782_5517.png,1.0,16.548882,3.4606597,9.25477
alexnet,1,220,NaN,bicycle,bicycle,90,0220_rot_dnn_90_bicycle_20_n02835271_7053.png,n02835271_7053.png,1.0,6.2440133,3.646941,1.8364075
alexnet,1,221,NaN,clock,clock,180,0221_rot_dnn_180_clock_20_n04548280_7115.png,n04548280_7115.png,1.0,7.767409,4.2117686,2.5142174
alexnet,1,222,NaN,chair,boat,270,0222_rot_dnn_270_boat_20_n04273569_29866.png,n04273569_29866.png,0.0,2.6331108,3.6289,-0.7041294
alexnet,1,223,NaN,clock,clock,90,0223_rot_dnn_90_clock_20_n02708093_3623.png,n02708093_3623.png,1.0,9.922259,4.439961,3.8765705
alexnet,1,224,NaN,cat,bear,180,0224_rot_dnn_180_bear_20_n02132136_7468.png,n02132136_7468.png,0.0,3.776164,3.9838476,-0.14685446
alexnet,1,225,NaN,cat,cat,0,0225_rot_dnn_0_cat_20_n02123159_2137.png,n02123159_2137.png,1.0,10.661377,0.7512785,7.007498
alexnet,1,226,NaN,clock,bottle,90,0226_rot_dnn_90_bottle_20_n03937543_5257.png,n03937543_5257.png,0.0,2.5521643,5.334322,-1.9672825
alexnet,1,227,NaN,cat,cat,0,0227_rot_dnn_0_cat_20_n02123394_937.png,n02123394_937.png,1.0,6.328537,1.845898,3.1697044
alexnet,1,228,NaN,boat,boat,0,0228_rot_dnn_0_boat_20_n03662601_11764.png,n03662601_11764.png,1.0,8.907936,6.109658,1.9786816
alexnet,1,229,NaN,bear,bear,0,0229_rot_dnn_0_bear_20_n02132136_10412.png,n02132136_10412.png,1.0,11.692656,5.0665727,4.685348
alexnet,1,230,NaN,clock,clock,270,0230_rot_dnn_270_clock_20_n03196217_3600.png,n03196217_3600.png,1.0,9.305675,4.424748,3.4513364
alexnet,1,231,NaN,chair,dog,270,0231_rot_dnn_270_dog_20_n02102177_255.png,n02102177_255.png,0.0,0.29437417,3.0628278,-1.9575924
alexnet,1,232,NaN,elephant,bird,270,0232_rot_dnn_270_bird_20_n01614925_1860.png,n01614925_1860.png,0.0,1.4052446,3.864221,-1.738759
alexnet,1,233,NaN,airplane,airplane,180,0233_rot_dnn_180_airplane_20_n02690373_1021.png,n02690373_1021.png,1.0,6.5966444,3.500102,2.1895862
alexnet,1,234,NaN,chair,chair,180,0234_rot_dnn_180_chair_20_n03376595_9079.png,n03376595_9079.png,1.0,6.5017667,4.3354855,1.5317922
alexnet,1,235,NaN,knife,chair,90,0235_rot_dnn_90_chair_20_n02791124_5199.png,n02791124_5199.png,0.0,6.023985,6.4717507,-0.31661826
alexnet,1,236,NaN,clock,keyboard,90,0236_rot_dnn_90_keyboard_20_n03085013_24294.png,n03085013_24294.png,0.0,2.5690684,7.4861207,-3.476881
alexnet,1,237,NaN,cat,cat,0,0237_rot_dnn_0_cat_20_n02123597_13286.png,n02123597_13286.png,1.0,8.240655,5.155408,2.1815991
alexnet,1,238,NaN,knife,bird,180,0238_rot_dnn_180_bird_20_n01560419_17392.png,n01560419_17392.png,0.0,2.1428316,4.0165277,-1.3249032
alexnet,1,239,NaN,oven,oven,270,0239_rot_dnn_270_oven_20_n04111531_6934.png,n04111531_6934.png,1.0,6.4129624,4.96514,1.0237652
alexnet,1,240,NaN,knife,clock,90,0240_rot_dnn_90_clock_20_n03196217_6707.png,n03196217_6707.png,0.0,3.8290718,6.8607593,-2.1437268
alexnet,1,241,NaN,knife,knife,180,0241_rot_dnn_180_knife_20_n03041632_15174.png,n03041632_15174.png,1.0,3.4749649,2.631461,0.59644735
alexnet,1,242,NaN,oven,oven,180,0242_rot_dnn_180_oven_20_n04111531_13644.png,n04111531_13644.png,1.0,5.3239326,3.9687924,0.9582288
alexnet,1,243,NaN,elephant,elephant,0,0243_rot_dnn_0_elephant_20_n02504458_3458.png,n02504458_3458.png,1.0,15.132795,1.2544732,9.813457
alexnet,1,244,NaN,clock,clock,90,0244_rot_dnn_90_clock_20_n04548280_18914.png,n04548280_18914.png,1.0,16.62033,6.2446146,7.3367395
alexnet,1,245,NaN,bicycle,dog,180,0245_rot_dnn_180_dog_20_n02107908_2754.png,n02107908_2754.png,0.0,2.2689161,4.417965,-1.5196071
alexnet,1,246,NaN,airplane,airplane,0,0246_rot_dnn_0_airplane_20_n02690373_1306.png,n02690373_1306.png,1.0,19.79937,6.2369313,9.590093
alexnet,1,247,NaN,oven,chair,90,0247_rot_dnn_90_chair_20_n03376595_10266.png,n03376595_10266.png,0.0,5.3477936,5.7008133,-0.24962264
alexnet,1,248,NaN,keyboard,keyboard,270,0248_rot_dnn_270_keyboard_20_n04505470_1416.png,n04505470_1416.png,1.0,6.3697853,4.9127703,1.0302652
alexnet,1,249,NaN,clock,clock,180,0249_rot_dnn_180_clock_20_n04548280_4686.png,n04548280_4686.png,1.0,11.506812,5.7257967,4.0877953
alexnet,1,250,NaN,clock,truck,270,0250_rot_dnn_270_truck_20_n04467665_69882.png,n04467665_69882.png,0.0,1.0126716,3.7844613,-1.9599512
alexnet,1,251,NaN,knife,bottle,270,0251_rot_dnn_270_bottle_20_n04591713_2123.png,n04591713_2123.png,0.0,2.4262831,10.794574,-5.9172754
alexnet,1,252,NaN,knife,oven,90,0252_rot_dnn_90_oven_20_n04111531_6933.png,n04111531_6933.png,0.0,3.0999153,3.7738466,-0.47654143
alexnet,1,253,NaN,clock,car,270,0253_rot_dnn_270_car_20_n03100240_8898.png,n03100240_8898.png,0.0,-2.2240689,2.9466174,-3.6562274
alexnet,1,254,NaN,elephant,elephant,180,0254_rot_dnn_180_elephant_20_n02504458_5277.png,n02504458_5277.png,1.0,8.198652,3.7315626,3.1587095
alexnet,1,255,NaN,oven,truck,270,0255_rot_dnn_270_truck_20_n03417042_9967.png,n03417042_9967.png,0.0,4.853241,8.705804,-2.7241733
alexnet,1,256,NaN,bear,bear,0,0256_rot_dnn_0_bear_20_n02134418_1017.png,n02134418_1017.png,1.0,12.513755,4.6273837,5.5765066
alexnet,1,257,NaN,truck,airplane,90,0257_rot_dnn_90_airplane_20_n02690373_1909.png,n02690373_1909.png,0.0,2.5981898,3.2818851,-0.4834456
alexnet,1,258,NaN,airplane,airplane,0,0258_rot_dnn_0_airplane_20_n02690373_6753.png,n02690373_6753.png,1.0,24.938519,6.6141033,12.957318
alexnet,1,259,NaN,airplane,airplane,0,0259_rot_dnn_0_airplane_20_n02690373_1972.png,n02690373_1972.png,1.0,10.634829,5.9748588,3.2950964
alexnet,1,260,NaN,knife,oven,90,0260_rot_dnn_90_oven_20_n04111531_9915.png,n04111531_9915.png,0.0,2.2402108,5.7871356,-2.5080547
alexnet,1,261,NaN,elephant,elephant,270,0261_rot_dnn_270_elephant_20_n02504458_485.png,n02504458_485.png,1.0,7.1789384,4.4820123,1.9070147
alexnet,1,262,NaN,elephant,elephant,180,0262_rot_dnn_180_elephant_20_n02504013_2431.png,n02504013_2431.png,1.0,9.579352,3.9620347,3.9720435
alexnet,1,263,NaN,clock,clock,180,0263_rot_dnn_180_clock_20_n02708093_1038.png,n02708093_1038.png,1.0,9.94227,8.414235,1.080484
alexnet,1,264,NaN,cat,cat,270,0264_rot_dnn_270_cat_20_n02123597_5927.png,n02123597_5927.png,1.0,7.771663,3.821878,2.7929199
alexnet,1,265,NaN,bicycle,bicycle,90,0265_rot_dnn_90_bicycle_20_n03792782_3202.png,n03792782_3202.png,1.0,9.615564,4.856851,3.3649185
alexnet,1,266,NaN,chair,car,270,0266_rot_dnn_270_car_20_n02814533_45480.png,n02814533_45480.png,0.0,2.471978,5.946229,-2.4566665
alexnet,1,267,NaN,clock,truck,90,0267_rot_dnn_90_truck_20_n03796401_4571.png,n03796401_4571.png,0.0,2.384127,5.297531,-2.060088
alexnet,1,268,NaN,knife,oven,90,0268_rot_dnn_90_oven_20_n04111531_21011.png,n04111531_21011.png,0.0,0.73235154,2.811523,-1.4701962
alexnet,1,269,NaN,airplane,airplane,0,0269_rot_dnn_0_airplane_20_n02690373_4310.png,n02690373_4310.png,1.0,21.656706,3.9495208,12.520871
alexnet,1,270,NaN,oven,oven,0,0270_rot_dnn_0_oven_20_n04111531_7134.png,n04111531_7134.png,1.0,6.1202464,4.7089734,0.99792075
alexnet,1,271,NaN,cat,dog,270,0271_rot_dnn_270_dog_20_n02105251_1092.png,n02105251_1092.png,0.0,3.7144356,5.5560975,-1.3022517
alexnet,1,272,NaN,knife,knife,180,0272_rot_dnn_180_knife_20_n03041632_34505.png,n03041632_34505.png,1.0,4.7462025,3.1107335,1.1564512
alexnet,1,273,NaN,keyboard,keyboard,90,0273_rot_dnn_90_keyboard_20_n04505470_4520.png,n04505470_4520.png,1.0,6.7840085,4.0060225,1.9643328
alexnet,1,274,NaN,airplane,boat,180,0274_rot_dnn_180_boat_20_n03344393_1519.png,n03344393_1519.png,0.0,4.0994706,4.679705,-0.41028777
alexnet,1,275,NaN,knife,chair,270,0275_rot_dnn_270_chair_20_n03376595_9535.png,n03376595_9535.png,0.0,4.4898343,6.2795877,-1.2655468
alexnet,1,276,NaN,chair,cat,270,0276_rot_dnn_270_cat_20_n02125311_1326.png,n02125311_1326.png,0.0,1.2101904,3.3597,-1.5199327
alexnet,1,277,NaN,cat,cat,90,0277_rot_dnn_90_cat_20_n02123394_2948.png,n02123394_2948.png,1.0,4.937229,2.1352043,1.9813308
alexnet,1,278,NaN,oven,oven,270,0278_rot_dnn_270_oven_20_n04111531_5429.png,n04111531_5429.png,1.0,10.120441,7.137778,2.1090617
alexnet,1,279,NaN,elephant,elephant,0,0279_rot_dnn_0_elephant_20_n02504013_6645.png,n02504013_6645.png,1.0,5.942305,3.6985369,1.5865837
alexnet,1,280,NaN,clock,keyboard,90,0280_rot_dnn_90_keyboard_20_n04505470_4159.png,n04505470_4159.png,0.0,5.088082,5.9344583,-0.5984785
alexnet,1,281,NaN,bottle,bottle,90,0281_rot_dnn_90_bottle_20_n02823428_6252.png,n02823428_6252.png,1.0,4.176843,3.739727,0.30908778
alexnet,1,282,NaN,airplane,airplane,180,0282_rot_dnn_180_airplane_20_n02690373_15097.png,n02690373_15097.png,1.0,10.841015,5.113335,4.0500813
alexnet,1,283,NaN,oven,cat,0,0283_rot_dnn_0_cat_20_n02123159_3420.png,n02123159_3420.png,0.0,-0.05634244,6.0723085,-4.333611
alexnet,1,284,NaN,elephant,cat,0,0284_rot_dnn_0_cat_20_n02124075_7835.png,n02124075_7835.png,0.0,3.5709753,3.8067045,-0.16668573
alexnet,1,285,NaN,cat,cat,90,0285_rot_dnn_90_cat_20_n02123045_6696.png,n02123045_6696.png,1.0,6.3516383,5.837655,0.36344105
alexnet,1,286,NaN,boat,boat,180,0286_rot_dnn_180_boat_20_n02951358_34766.png,n02951358_34766.png,1.0,4.946307,3.4317129,1.07098
alexnet,1,287,NaN,boat,bird,0,0287_rot_dnn_0_bird_20_n01855672_8191.png,n01855672_8191.png,0.0,-0.55722296,4.105184,-3.2968197
alexnet,1,288,NaN,oven,truck,180,0288_rot_dnn_180_truck_20_n03796401_1150.png,n03796401_1150.png,0.0,3.3062868,7.2337503,-2.777136
alexnet,1,289,NaN,clock,bicycle,270,0289_rot_dnn_270_bicycle_20_n03792782_9782.png,n03792782_9782.png,0.0,6.9912696,7.118775,-0.09015986
alexnet,1,290,NaN,oven,boat,270,0290_rot_dnn_270_boat_20_n03662601_12969.png,n03662601_12969.png,0.0,0.25420225,2.848169,-1.8342117
alexnet,1,291,NaN,clock,bottle,180,0291_rot_dnn_180_bottle_20_n02823428_4530.png,n02823428_4530.png,0.0,2.5775292,4.967221,-1.6897671
alexnet,1,292,NaN,chair,chair,0,0292_rot_dnn_0_chair_20_n02791124_2898.png,n02791124_2898.png,1.0,7.3770943,3.8705006,2.4795363
alexnet,1,293,NaN,cat,cat,270,0293_rot_dnn_270_cat_20_n02123394_686.png,n02123394_686.png,1.0,4.63986,3.1087527,1.0826565
alexnet,1,294,NaN,dog,dog,180,0294_rot_dnn_180_dog_20_n02100735_4364.png,n02100735_4364.png,1.0,2.8892267,2.1944554,0.4912775
alexnet,1,295,NaN,dog,dog,0,0295_rot_dnn_0_dog_20_n02102177_7968.png,n02102177_7968.png,1.0,7.298702,5.22336,1.4674882
alexnet,1,296,NaN,knife,knife,270,0296_rot_dnn_270_knife_20_n03041632_15099.png,n03041632_15099.png,1.0,6.0344186,2.4612162,2.5266356
alexnet,1,297,NaN,oven,oven,180,0297_rot_dnn_180_oven_20_n04111531_2937.png,n04111531_2937.png,1.0,11.410016,7.3905597,2.842185
alexnet,1,298,NaN,cat,cat,0,0298_rot_dnn_0_cat_20_n02123394_3695.png,n02123394_3695.png,1.0,7.9277306,4.628463,2.3329346
alexnet,1,299,NaN,knife,bear,180,0299_rot_dnn_180_bear_20_n02134084_3696.png,n02134084_3696.png,0.0,-3.2263799,6.081724,-6.5818233
alexnet,1,300,NaN,knife,oven,270,0300_rot_dnn_270_oven_20_n04111531_4671.png,n04111531_4671.png,0.0,0.8642107,3.418418,-1.8060974
alexnet,1,301,NaN,bear,bear,180,0301_rot_dnn_180_bear_20_n02133161_2741.png,n02133161_2741.png,1.0,4.7890387,3.3605368,1.0101033
alexnet,1,302,NaN,clock,boat,90,0302_rot_dnn_90_boat_20_n03662601_3893.png,n03662601_3893.png,0.0,2.840662,6.0668845,-2.2812839
alexnet,1,303,NaN,chair,boat,90,0303_rot_dnn_90_boat_20_n03344393_2790.png,n03344393_2790.png,0.0,1.0820793,4.942032,-2.7293985
alexnet,1,304,NaN,oven,keyboard,180,0304_rot_dnn_180_keyboard_20_n03085013_3920.png,n03085013_3920.png,0.0,3.8514812,6.370227,-1.7810222
alexnet,1,305,NaN,oven,chair,90,0305_rot_dnn_90_chair_20_n04099969_1962.png,n04099969_1962.png,0.0,5.4473515,5.51352,-0.04678806
alexnet,1,306,NaN,airplane,knife,0,0306_rot_dnn_0_knife_20_n03041632_13846.png,n03041632_13846.png,0.0,5.100043,5.350567,-0.17714725
alexnet,1,307,NaN,bicycle,boat,0,0307_rot_dnn_0_boat_20_n02951358_30117.png,n02951358_30117.png,0.0,1.3806549,4.9045525,-2.491772
alexnet,1,308,NaN,elephant,elephant,270,0308_rot_dnn_270_elephant_20_n02504458_9922.png,n02504458_9922.png,1.0,3.1815524,2.6689131,0.3624907
alexnet,1,309,NaN,clock,boat,180,0309_rot_dnn_180_boat_20_n03344393_5609.png,n03344393_5609.png,0.0,2.6770446,7.503672,-3.4129412
alexnet,1,310,NaN,chair,chair,0,0310_rot_dnn_0_chair_20_n02791124_3180.png,n02791124_3180.png,1.0,8.087395,6.2512445,1.2983543
alexnet,1,311,NaN,boat,boat,90,0311_rot_dnn_90_boat_20_n02951358_12532.png,n02951358_12532.png,1.0,3.186263,2.1226041,0.7521205
alexnet,1,312,NaN,cat,cat,180,0312_rot_dnn_180_cat_20_n02123597_1901.png,n02123597_1901.png,1.0,6.0191846,3.9461632,1.4658475
alexnet,1,313,NaN,elephant,elephant,270,0313_rot_dnn_270_elephant_20_n02504013_5173.png,n02504013_5173.png,1.0,4.8002224,2.5629878,1.5819638
alexnet,1,314,NaN,car,car,180,0314_rot_dnn_180_car_20_n04285008_4834.png,n04285008_4834.png,1.0,6.5441093,3.9379163,1.8428568
alexnet,1,315,NaN,clock,truck,270,0315_rot_dnn_270_truck_20_n03417042_28584.png,n03417042_28584.png,0.0,3.5239363,3.5995977,-0.053500704
alexnet,1,316,NaN,knife,dog,180,0316_rot_dnn_180_dog_20_n02093428_11151.png,n02093428_11151.png,0.0,1.3870027,6.3849516,-3.5340834
alexnet,1,317,NaN,chair,bicycle,90,0317_rot_dnn_90_bicycle_20_n03792782_1475.png,n03792782_1475.png,0.0,2.5834203,4.649761,-1.4611237
alexnet,1,318,NaN,knife,knife,0,0318_rot_dnn_0_knife_20_n03041632_8666.png,n03041632_8666.png,1.0,4.349992,4.343914,0.00429763
alexnet,1,319,NaN,clock,clock,0,0319_rot_dnn_0_clock_20_n04548280_253.png,n04548280_253.png,1.0,7.42005,5.8723354,1.0943996
alexnet,1,320,NaN,airplane,airplane,180,0320_rot_dnn_180_airplane_20_n02690373_9441.png,n02690373_9441.png,1.0,11.779598,5.381203,4.5243487
alexnet,1,321,NaN,knife,airplane,270,0321_rot_dnn_270_airplane_20_n02690373_1946.png,n02690373_1946.png,0.0,-0.6767285,4.0377383,-3.3336318
alexnet,1,322,NaN,car,car,90,0322_rot_dnn_90_car_20_n03100240_5044.png,n03100240_5044.png,1.0,4.079842,3.7109773,0.2608268
alexnet,1,323,NaN,cat,dog,270,0323_rot_dnn_270_dog_20_n02111500_6559.png,n02111500_6559.png,0.0,2.194855,2.7010632,-0.35794324
alexnet,1,324,NaN,cat,dog,270,0324_rot_dnn_270_dog_20_n02096051_1852.png,n02096051_1852.png,0.0,2.399194,3.3420236,-0.66668123
alexnet,1,325,NaN,elephant,bear,270,0325_rot_dnn_270_bear_20_n02133161_5020.png,n02133161_5020.png,0.0,3.7821827,5.023282,-0.87758976
alexnet,1,326,NaN,chair,chair,90,0326_rot_dnn_90_chair_20_n02791124_2034.png,n02791124_2034.png,1.0,4.400926,3.5982795,0.5675569
alexnet,1,327,NaN,clock,clock,180,0327_rot_dnn_180_clock_20_n03196217_6526.png,n03196217_6526.png,1.0,6.5081425,3.931743,1.8217896
alexnet,1,328,NaN,chair,oven,180,0328_rot_dnn_180_oven_20_n04111531_9779.png,n04111531_9779.png,0.0,4.8483715,4.990131,-0.10023903
alexnet,1,329,NaN,boat,boat,0,0329_rot_dnn_0_boat_20_n03662601_28640.png,n03662601_28640.png,1.0,8.731935,3.4264293,3.7515588
alexnet,1,330,NaN,knife,knife,90,0330_rot_dnn_90_knife_20_n03041632_31301.png,n03041632_31301.png,1.0,9.578848,7.8438463,1.2268314
alexnet,1,331,NaN,keyboard,keyboard,90,0331_rot_dnn_90_keyboard_20_n03085013_9209.png,n03085013_9209.png,1.0,11.073181,6.797821,3.0231361
alexnet,1,332,NaN,bear,elephant,90,0332_rot_dnn_90_elephant_20_n02504458_113.png,n02504458_113.png,0.0,1.1413952,2.394443,-0.8860386
alexnet,1,333,NaN,bicycle,bicycle,180,0333_rot_dnn_180_bicycle_20_n03792782_6058.png,n03792782_6058.png,1.0,5.465207,2.7426436,1.9251431
alexnet,1,334,NaN,keyboard,keyboard,0,0334_rot_dnn_0_keyboard_20_n04505470_4651.png,n04505470_4651.png,1.0,12.688289,7.317394,3.7977962
alexnet,1,335,NaN,keyboard,keyboard,180,0335_rot_dnn_180_keyboard_20_n03085013_7009.png,n03085013_7009.png,1.0,5.3135805,3.9884658,0.93699765
alexnet,1,336,NaN,clock,truck,270,0336_rot_dnn_270_truck_20_n04467665_44390.png,n04467665_44390.png,0.0,1.7433395,5.9931984,-3.005104
alexnet,1,337,NaN,knife,boat,90,0337_rot_dnn_90_boat_20_n04273569_17340.png,n04273569_17340.png,0.0,-1.0698485,4.249327,-3.7612252
alexnet,1,338,NaN,elephant,elephant,0,0338_rot_dnn_0_elephant_20_n02504013_1333.png,n02504013_1333.png,1.0,9.943372,2.1578383,5.5052037
alexnet,1,339,NaN,knife,knife,270,0339_rot_dnn_270_knife_20_n03041632_50034.png,n03041632_50034.png,1.0,7.9207845,4.6387887,2.3207214
alexnet,1,340,NaN,keyboard,clock,90,0340_rot_dnn_90_clock_20_n02708093_2740.png,n02708093_2740.png,0.0,7.896583,8.064808,-0.11895291
alexnet,1,341,NaN,bear,bear,0,0341_rot_dnn_0_bear_20_n02132136_13975.png,n02132136_13975.png,1.0,13.015496,8.653633,3.0843031
alexnet,1,342,NaN,elephant,elephant,90,0342_rot_dnn_90_elephant_20_n02504013_256.png,n02504013_256.png,1.0,6.7943234,3.3645725,2.4252002
alexnet,1,343,NaN,chair,boat,90,0343_rot_dnn_90_boat_20_n03344393_6588.png,n03344393_6588.png,0.0,0.07945593,5.4719644,-3.8130794
alexnet,1,344,NaN,knife,knife,270,0344_rot_dnn_270_knife_20_n03041632_7173.png,n03041632_7173.png,1.0,6.7846646,3.6429942,2.2214966
alexnet,1,345,NaN,elephant,elephant,180,0345_rot_dnn_180_elephant_20_n02504458_1041.png,n02504458_1041.png,1.0,5.2101893,3.6321537,1.1158397
alexnet,1,346,NaN,chair,chair,180,0346_rot_dnn_180_chair_20_n04099969_8021.png,n04099969_8021.png,1.0,4.3147354,3.129608,0.8380117
alexnet,1,347,NaN,truck,truck,0,0347_rot_dnn_0_truck_20_n03796401_1791.png,n03796401_1791.png,1.0,8.925861,6.606312,1.6401693
alexnet,1,348,NaN,keyboard,keyboard,90,0348_rot_dnn_90_keyboard_20_n04505470_5007.png,n04505470_5007.png,1.0,5.206064,3.9586074,0.88208514
alexnet,1,349,NaN,truck,truck,180,0349_rot_dnn_180_truck_20_n03417042_29384.png,n03417042_29384.png,1.0,6.578377,5.280671,0.9176165
alexnet,1,350,NaN,oven,bird,90,0350_rot_dnn_90_bird_20_n01534433_1271.png,n01534433_1271.png,0.0,-0.23703846,2.5431783,-1.9659101
alexnet,1,351,NaN,dog,dog,270,0351_rot_dnn_270_dog_20_n02113624_393.png,n02113624_393.png,1.0,3.848287,3.555971,0.20669878
alexnet,1,352,NaN,cat,cat,90,0352_rot_dnn_90_cat_20_n02123159_5461.png,n02123159_5461.png,1.0,2.743893,2.684735,0.041830916
alexnet,1,353,NaN,knife,knife,270,0353_rot_dnn_270_knife_20_n03041632_9759.png,n03041632_9759.png,1.0,4.486342,3.9314954,0.39233574
alexnet,1,354,NaN,chair,chair,90,0354_rot_dnn_90_chair_20_n04429376_1754.png,n04429376_1754.png,1.0,4.32527,3.2994053,0.725396
alexnet,1,355,NaN,chair,oven,90,0355_rot_dnn_90_oven_20_n04111531_1818.png,n04111531_1818.png,0.0,1.7195675,6.0009723,-3.0274103
alexnet,1,356,NaN,clock,clock,0,0356_rot_dnn_0_clock_20_n04548280_5798.png,n04548280_5798.png,1.0,11.528137,10.189097,0.94684416
alexnet,1,357,NaN,oven,oven,90,0357_rot_dnn_90_oven_20_n04111531_3099.png,n04111531_3099.png,1.0,6.902594,4.765293,1.5113001
alexnet,1,358,NaN,bottle,bottle,270,0358_rot_dnn_270_bottle_20_n04557648_581.png,n04557648_581.png,1.0,8.772039,4.7746663,2.8265698
alexnet,1,359,NaN,knife,bird,0,0359_rot_dnn_0_bird_20_n01531178_3183.png,n01531178_3183.png,0.0,0.75873595,3.3151326,-1.8076454
alexnet,1,360,NaN,knife,airplane,90,0360_rot_dnn_90_airplane_20_n02690373_8872.png,n02690373_8872.png,0.0,1.0333644,5.226556,-2.9650342
alexnet,1,361,NaN,cat,cat,0,0361_rot_dnn_0_cat_20_n02123394_5301.png,n02123394_5301.png,1.0,4.0819564,3.9240353,0.11166707
alexnet,1,362,NaN,bicycle,bicycle,270,0362_rot_dnn_270_bicycle_20_n03792782_12844.png,n03792782_12844.png,1.0,6.9577894,4.3976502,1.8102918
alexnet,1,363,NaN,elephant,bear,90,0363_rot_dnn_90_bear_20_n02132136_2691.png,n02132136_2691.png,0.0,6.3590746,7.9884443,-1.1521384
alexnet,1,364,NaN,car,car,0,0364_rot_dnn_0_car_20_n02814533_27327.png,n02814533_27327.png,1.0,9.187086,7.2393303,1.3772714
alexnet,1,365,NaN,bird,bird,0,0365_rot_dnn_0_bird_20_n02027492_7653.png,n02027492_7653.png,1.0,2.7665327,1.7683403,0.70582855
alexnet,1,366,NaN,bear,bear,0,0366_rot_dnn_0_bear_20_n02133161_62.png,n02133161_62.png,1.0,10.26697,7.504221,1.9535584
alexnet,1,367,NaN,bottle,bottle,0,0367_rot_dnn_0_bottle_20_n04560804_9710.png,n04560804_9710.png,1.0,6.9259753,3.9322717,2.1168683
alexnet,1,368,NaN,clock,clock,180,0368_rot_dnn_180_clock_20_n04548280_15154.png,n04548280_15154.png,1.0,11.841666,5.0250673,4.8200636
alexnet,1,369,NaN,knife,oven,180,0369_rot_dnn_180_oven_20_n04111531_114.png,n04111531_114.png,0.0,3.0624413,4.6216383,-1.1025188
alexnet,1,370,NaN,cat,cat,180,0370_rot_dnn_180_cat_20_n02125311_24813.png,n02125311_24813.png,1.0,8.241232,1.2730782,4.927229
alexnet,1,371,NaN,bicycle,airplane,90,0371_rot_dnn_90_airplane_20_n02690373_7647.png,n02690373_7647.png,0.0,-1.1691127,3.262125,-3.1333582
alexnet,1,372,NaN,bottle,bottle,0,0372_rot_dnn_0_bottle_20_n03983396_9823.png,n03983396_9823.png,1.0,5.9076037,4.6152434,0.9138368
alexnet,1,373,NaN,bear,bear,0,0373_rot_dnn_0_bear_20_n02134418_2398.png,n02134418_2398.png,1.0,8.5775175,4.8114796,2.662991
alexnet,1,374,NaN,clock,keyboard,90,0374_rot_dnn_90_keyboard_20_n04505470_4584.png,n04505470_4584.png,0.0,3.3113258,4.5158143,-0.85170203
alexnet,1,375,NaN,keyboard,keyboard,0,0375_rot_dnn_0_keyboard_20_n04505470_10055.png,n04505470_10055.png,1.0,9.311381,4.4679337,3.4248347
alexnet,1,376,NaN,boat,boat,270,0376_rot_dnn_270_boat_20_n04273569_10980.png,n04273569_10980.png,1.0,2.0060124,1.4786966,0.37286863
alexnet,1,377,NaN,car,car,180,0377_rot_dnn_180_car_20_n03100240_16210.png,n03100240_16210.png,1.0,7.5521846,4.1999903,2.3703594
alexnet,1,378,NaN,keyboard,keyboard,0,0378_rot_dnn_0_keyboard_20_n04505470_1067.png,n04505470_1067.png,1.0,13.154263,5.076061,5.712151
alexnet,1,379,NaN,elephant,elephant,0,0379_rot_dnn_0_elephant_20_n02504458_7867.png,n02504458_7867.png,1.0,10.140743,4.2285357,4.180562
alexnet,1,380,NaN,keyboard,keyboard,180,0380_rot_dnn_180_keyboard_20_n04505470_807.png,n04505470_807.png,1.0,13.143128,9.136584,2.8330545
alexnet,1,381,NaN,bicycle,bicycle,270,0381_rot_dnn_270_bicycle_20_n02835271_24104.png,n02835271_24104.png,1.0,6.9711285,3.8221436,2.2266686
alexnet,1,382,NaN,bottle,bottle,0,0382_rot_dnn_0_bottle_20_n03937543_6698.png,n03937543_6698.png,1.0,7.2599883,6.5719657,0.48650548
alexnet,1,383,NaN,knife,oven,0,0383_rot_dnn_0_oven_20_n04111531_10403.png,n04111531_10403.png,0.0,4.361624,4.660447,-0.21130003
alexnet,1,384,NaN,truck,truck,0,0384_rot_dnn_0_truck_20_n03796401_8463.png,n03796401_8463.png,1.0,16.946028,9.015596,5.6076617
alexnet,1,385,NaN,truck,truck,0,0385_rot_dnn_0_truck_20_n03796401_8176.png,n03796401_8176.png,1.0,11.565778,8.384634,2.2494082
alexnet,1,386,NaN,bottle,bottle,90,0386_rot_dnn_90_bottle_20_n03937543_984.png,n03937543_984.png,1.0,5.5492945,3.264474,1.6156121
alexnet,1,387,NaN,chair,bicycle,90,0387_rot_dnn_90_bicycle_20_n02835271_11697.png,n02835271_11697.png,0.0,2.6693788,3.8153362,-0.8103143
alexnet,1,388,NaN,clock,keyboard,270,0388_rot_dnn_270_keyboard_20_n03085013_22417.png,n03085013_22417.png,0.0,6.22243,6.420343,-0.1399454
alexnet,1,389,NaN,bottle,car,270,0389_rot_dnn_270_car_20_n03100240_7602.png,n03100240_7602.png,0.0,3.5240085,4.4561634,-0.6591331
alexnet,1,390,NaN,knife,bird,90,0390_rot_dnn_90_bird_20_n01534433_14389.png,n01534433_14389.png,0.0,1.1938938,2.3195868,-0.79598516
alexnet,1,391,NaN,cat,bear,0,0391_rot_dnn_0_bear_20_n02134084_2598.png,n02134084_2598.png,0.0,4.0215225,6.2534223,-1.5781915
alexnet,1,392,NaN,bottle,bird,180,0392_rot_dnn_180_bird_20_n01560419_19599.png,n01560419_19599.png,0.0,1.1595652,1.8953642,-0.52028847
alexnet,1,393,NaN,knife,bicycle,90,0393_rot_dnn_90_bicycle_20_n02835271_8747.png,n02835271_8747.png,0.0,2.833033,3.9525142,-0.79159266
alexnet,1,394,NaN,knife,knife,180,0394_rot_dnn_180_knife_20_n03041632_30821.png,n03041632_30821.png,1.0,6.673913,3.838827,2.0047085
alexnet,1,395,NaN,chair,chair,270,0395_rot_dnn_270_chair_20_n03376595_209.png,n03376595_209.png,1.0,3.6392508,3.549858,0.06321016
alexnet,1,396,NaN,airplane,boat,180,0396_rot_dnn_180_boat_20_n04273569_29113.png,n04273569_29113.png,0.0,3.8900223,4.0099616,-0.084809914
alexnet,1,397,NaN,oven,bird,270,0397_rot_dnn_270_bird_20_n02006656_6435.png,n02006656_6435.png,0.0,-1.1936446,3.4635577,-3.2931395
alexnet,1,398,NaN,chair,airplane,90,0398_rot_dnn_90_airplane_20_n02690373_3492.png,n02690373_3492.png,0.0,-3.027842,6.4028754,-6.6685243
alexnet,1,399,NaN,knife,oven,270,0399_rot_dnn_270_oven_20_n04111531_9380.png,n04111531_9380.png,0.0,3.1096673,6.170662,-2.1644502
alexnet,1,400,NaN,keyboard,keyboard,270,0400_rot_dnn_270_keyboard_20_n04505470_510.png,n04505470_510.png,1.0,9.414673,7.066582,1.6603508
alexnet,1,401,NaN,dog,bird,180,0401_rot_dnn_180_bird_20_n02027492_20576.png,n02027492_20576.png,0.0,2.1571379,3.8712285,-1.2120451
alexnet,1,402,NaN,bicycle,bird,90,0402_rot_dnn_90_bird_20_n01855032_1920.png,n01855032_1920.png,0.0,0.9358884,2.6413944,-1.2059748
alexnet,1,403,NaN,airplane,boat,180,0403_rot_dnn_180_boat_20_n04273569_15761.png,n04273569_15761.png,0.0,5.8294272,10.060669,-2.9919398
alexnet,1,404,NaN,oven,oven,180,0404_rot_dnn_180_oven_20_n04111531_10667.png,n04111531_10667.png,1.0,6.006969,4.425595,1.1182004
alexnet,1,405,NaN,knife,knife,270,0405_rot_dnn_270_knife_20_n03041632_36215.png,n03041632_36215.png,1.0,7.0296364,4.4030604,1.8572696
alexnet,1,406,NaN,bicycle,bicycle,180,0406_rot_dnn_180_bicycle_20_n02835271_2625.png,n02835271_2625.png,1.0,6.004326,4.557487,1.0230696
alexnet,1,407,NaN,elephant,bird,270,0407_rot_dnn_270_bird_20_n02028035_20411.png,n02028035_20411.png,0.0,0.68629414,4.9276857,-2.999117
alexnet,1,408,NaN,knife,knife,0,0408_rot_dnn_0_knife_20_n03041632_25656.png,n03041632_25656.png,1.0,5.4289045,3.9157515,1.0699608
alexnet,1,409,NaN,knife,oven,270,0409_rot_dnn_270_oven_20_n04111531_4332.png,n04111531_4332.png,0.0,4.342086,8.157074,-2.697604
alexnet,1,410,NaN,keyboard,keyboard,180,0410_rot_dnn_180_keyboard_20_n04505470_3553.png,n04505470_3553.png,1.0,9.345223,5.312079,2.8518639
alexnet,1,411,NaN,clock,bicycle,180,0411_rot_dnn_180_bicycle_20_n02835271_18706.png,n02835271_18706.png,0.0,2.9387326,5.6335588,-1.9055299
alexnet,1,412,NaN,oven,truck,270,0412_rot_dnn_270_truck_20_n03417042_10744.png,n03417042_10744.png,0.0,2.6791453,5.157867,-1.752721
alexnet,1,413,NaN,clock,clock,0,0413_rot_dnn_0_clock_20_n03196217_11724.png,n03196217_11724.png,1.0,13.422599,7.328768,4.3089895
alexnet,1,414,NaN,knife,bicycle,270,0414_rot_dnn_270_bicycle_20_n02835271_14123.png,n02835271_14123.png,0.0,6.1732817,6.99197,-0.5789001
alexnet,1,415,NaN,bicycle,bicycle,270,0415_rot_dnn_270_bicycle_20_n02835271_7900.png,n02835271_7900.png,1.0,3.5984511,2.7813945,0.57774633
alexnet,1,416,NaN,clock,truck,270,0416_rot_dnn_270_truck_20_n03417042_2153.png,n03417042_2153.png,0.0,2.3728042,5.6504154,-2.3176212
alexnet,1,417,NaN,elephant,bicycle,270,0417_rot_dnn_270_bicycle_20_n03792782_10129.png,n03792782_10129.png,0.0,0.6320283,3.5181742,-2.0408132
alexnet,1,418,NaN,cat,bird,180,0418_rot_dnn_180_bird_20_n01514859_18430.png,n01514859_18430.png,0.0,1.2226762,2.6862009,-1.0348682
alexnet,1,419,NaN,chair,chair,0,0419_rot_dnn_0_chair_20_n04099969_5010.png,n04099969_5010.png,1.0,11.561381,3.0436032,6.022979
alexnet,1,420,NaN,chair,truck,0,0420_rot_dnn_0_truck_20_n03796401_588.png,n03796401_588.png,0.0,5.136814,7.6238613,-1.758608
alexnet,1,421,NaN,car,car,0,0421_rot_dnn_0_car_20_n02814533_486.png,n02814533_486.png,1.0,13.593822,8.922398,3.3031955
alexnet,1,422,NaN,elephant,elephant,90,0422_rot_dnn_90_elephant_20_n02504013_3540.png,n02504013_3540.png,1.0,6.3871527,2.8290443,2.5159626
alexnet,1,423,NaN,car,car,180,0423_rot_dnn_180_car_20_n02814533_55715.png,n02814533_55715.png,1.0,7.062839,5.901617,0.8211079
alexnet,1,424,NaN,oven,bottle,180,0424_rot_dnn_180_bottle_20_n03983396_10896.png,n03983396_10896.png,0.0,4.0937934,4.426309,-0.23512413
alexnet,1,425,NaN,bottle,bottle,90,0425_rot_dnn_90_bottle_20_n04557648_15053.png,n04557648_15053.png,1.0,5.826237,5.507949,0.22506383
alexnet,1,426,NaN,car,car,0,0426_rot_dnn_0_car_20_n04285008_8281.png,n04285008_8281.png,1.0,19.833778,9.127873,7.570218
alexnet,1,427,NaN,bottle,car,270,0427_rot_dnn_270_car_20_n02814533_38596.png,n02814533_38596.png,0.0,0.7336994,8.132216,-5.2315416
alexnet,1,428,NaN,elephant,elephant,270,0428_rot_dnn_270_elephant_20_n02504013_15219.png,n02504013_15219.png,1.0,7.408016,4.6184664,1.9725096
alexnet,1,429,NaN,elephant,elephant,180,0429_rot_dnn_180_elephant_20_n02504013_828.png,n02504013_828.png,1.0,11.162295,4.7258563,4.55125
alexnet,1,430,NaN,oven,oven,180,0430_rot_dnn_180_oven_20_n04111531_1439.png,n04111531_1439.png,1.0,8.973201,5.5279374,2.4361691
alexnet,1,431,NaN,clock,bottle,90,0431_rot_dnn_90_bottle_20_n03983396_3315.png,n03983396_3315.png,0.0,3.2644022,4.788324,-1.0775754
alexnet,1,432,NaN,knife,airplane,90,0432_rot_dnn_90_airplane_20_n02690373_4024.png,n02690373_4024.png,0.0,2.2066462,6.7078924,-3.182862
alexnet,1,433,NaN,knife,elephant,270,0433_rot_dnn_270_elephant_20_n02504013_10301.png,n02504013_10301.png,0.0,3.7242556,5.089114,-0.9651008
alexnet,1,434,NaN,oven,oven,180,0434_rot_dnn_180_oven_20_n04111531_7067.png,n04111531_7067.png,1.0,7.6062474,4.5492516,2.1616225
alexnet,1,435,NaN,knife,knife,90,0435_rot_dnn_90_knife_20_n03041632_36834.png,n03041632_36834.png,1.0,6.576715,4.7913,1.2624792
alexnet,1,436,NaN,chair,car,90,0436_rot_dnn_90_car_20_n02814533_18148.png,n02814533_18148.png,0.0,3.6148446,6.5036564,-2.0426984
alexnet,1,437,NaN,oven,cat,90,0437_rot_dnn_90_cat_20_n02125311_41284.png,n02125311_41284.png,0.0,0.6338886,4.081026,-2.4374943
alexnet,1,438,NaN,bicycle,bicycle,0,0438_rot_dnn_0_bicycle_20_n02835271_18188.png,n02835271_18188.png,1.0,9.538689,4.551802,3.5262613
alexnet,1,439,NaN,bottle,bottle,0,0439_rot_dnn_0_bottle_20_n04591713_2903.png,n04591713_2903.png,1.0,6.884277,5.9607797,0.65301114
alexnet,1,440,NaN,knife,knife,0,0440_rot_dnn_0_knife_20_n03041632_54191.png,n03041632_54191.png,1.0,4.5251255,3.8979404,0.44348684
alexnet,1,441,NaN,clock,truck,180,0441_rot_dnn_180_truck_20_n03417042_8867.png,n03417042_8867.png,0.0,4.9452667,6.160585,-0.85935974
alexnet,1,442,NaN,knife,oven,270,0442_rot_dnn_270_oven_20_n04111531_8421.png,n04111531_8421.png,0.0,4.2066617,5.730383,-1.0774336
alexnet,1,443,NaN,elephant,elephant,270,0443_rot_dnn_270_elephant_20_n02504013_4062.png,n02504013_4062.png,1.0,4.640565,3.159382,1.0473545
alexnet,1,444,NaN,keyboard,keyboard,270,0444_rot_dnn_270_keyboard_20_n04505470_1649.png,n04505470_1649.png,1.0,8.58382,7.164078,1.0039092
alexnet,1,445,NaN,airplane,boat,180,0445_rot_dnn_180_boat_20_n03344393_7967.png,n03344393_7967.png,0.0,3.7230408,8.41601,-3.3184304
alexnet,1,446,NaN,bicycle,bicycle,0,0446_rot_dnn_0_bicycle_20_n02835271_10265.png,n02835271_10265.png,1.0,14.483891,3.5980484,7.697453
alexnet,1,447,NaN,keyboard,bicycle,180,0447_rot_dnn_180_bicycle_20_n02835271_6742.png,n02835271_6742.png,0.0,2.9772959,4.187134,-0.8554846
alexnet,1,448,NaN,elephant,cat,180,0448_rot_dnn_180_cat_20_n02123045_3168.png,n02123045_3168.png,0.0,3.2844238,3.5901651,-0.21619175
alexnet,1,449,NaN,knife,car,180,0449_rot_dnn_180_car_20_n03100240_8489.png,n03100240_8489.png,0.0,4.0723267,5.2360044,-0.8228444
alexnet,1,450,NaN,chair,oven,270,0450_rot_dnn_270_oven_20_n04111531_1826.png,n04111531_1826.png,0.0,3.4176888,4.2247906,-0.57070714
alexnet,1,451,NaN,cat,dog,180,0451_rot_dnn_180_dog_20_n02104365_1592.png,n02104365_1592.png,0.0,3.9259164,4.632237,-0.49944404
alexnet,1,452,NaN,clock,boat,90,0452_rot_dnn_90_boat_20_n02951358_4343.png,n02951358_4343.png,0.0,1.2418001,3.4485466,-1.5604055
alexnet,1,453,NaN,bottle,bottle,0,0453_rot_dnn_0_bottle_20_n02823428_4282.png,n02823428_4282.png,1.0,15.114342,12.430489,1.8977708
alexnet,1,454,NaN,knife,bird,0,0454_rot_dnn_0_bird_20_n01817953_2043.png,n01817953_2043.png,0.0,0.2772065,4.4228373,-2.9314036
alexnet,1,455,NaN,airplane,dog,0,0455_rot_dnn_0_dog_20_n02110958_14369.png,n02110958_14369.png,0.0,2.356222,3.6049147,-0.8829591
alexnet,1,456,NaN,knife,dog,270,0456_rot_dnn_270_dog_20_n02108000_1044.png,n02108000_1044.png,0.0,3.893871,5.008018,-0.7878209
alexnet,1,457,NaN,chair,dog,270,0457_rot_dnn_270_dog_20_n02087394_1428.png,n02087394_1428.png,0.0,-0.74502194,4.7956557,-3.9178507
alexnet,1,458,NaN,knife,airplane,90,0458_rot_dnn_90_airplane_20_n02690373_2856.png,n02690373_2856.png,0.0,-4.643035,3.6434426,-5.859425
alexnet,1,459,NaN,chair,chair,0,0459_rot_dnn_0_chair_20_n03376595_19165.png,n03376595_19165.png,1.0,6.7890806,4.242375,1.8007929
alexnet,1,460,NaN,chair,chair,270,0460_rot_dnn_270_chair_20_n04099969_42125.png,n04099969_42125.png,1.0,6.937358,6.73697,0.14169568
alexnet,1,461,NaN,bottle,bottle,270,0461_rot_dnn_270_bottle_20_n02823428_12656.png,n02823428_12656.png,1.0,6.717377,6.287157,0.3042116
alexnet,1,462,NaN,bicycle,bicycle,180,0462_rot_dnn_180_bicycle_20_n02835271_5861.png,n02835271_5861.png,1.0,7.190097,3.4395561,2.6520329
alexnet,1,463,NaN,airplane,airplane,90,0463_rot_dnn_90_airplane_20_n02690373_19345.png,n02690373_19345.png,1.0,8.560365,3.9744263,3.2427483
alexnet,1,464,NaN,clock,clock,90,0464_rot_dnn_90_clock_20_n02708093_8069.png,n02708093_8069.png,1.0,13.113694,6.321954,4.802486
alexnet,1,465,NaN,chair,chair,270,0465_rot_dnn_270_chair_20_n04099969_16.png,n04099969_16.png,1.0,4.775016,4.5212674,0.17942724
alexnet,1,466,NaN,knife,dog,270,0466_rot_dnn_270_dog_20_n02104365_1756.png,n02104365_1756.png,0.0,2.1292162,3.051257,-0.65198123
alexnet,1,467,NaN,bird,bird,270,0467_rot_dnn_270_bird_20_n01819313_17231.png,n01819313_17231.png,1.0,2.5871565,2.0020726,0.41371685
alexnet,1,468,NaN,knife,car,90,0468_rot_dnn_90_car_20_n02814533_34149.png,n02814533_34149.png,0.0,3.0356293,6.327471,-2.3276834
alexnet,1,469,NaN,knife,knife,0,0469_rot_dnn_0_knife_20_n03041632_26053.png,n03041632_26053.png,1.0,6.854395,4.028119,1.9984789
alexnet,1,470,NaN,oven,oven,0,0470_rot_dnn_0_oven_20_n04111531_11287.png,n04111531_11287.png,1.0,7.866866,7.206108,0.46722648
alexnet,1,471,NaN,knife,bottle,0,0471_rot_dnn_0_bottle_20_n03937543_11959.png,n03937543_11959.png,0.0,3.947892,7.6227303,-2.598503
alexnet,1,472,NaN,knife,airplane,270,0472_rot_dnn_270_airplane_20_n02690373_1348.png,n02690373_1348.png,0.0,0.21528022,5.2834706,-3.583752
alexnet,1,473,NaN,bear,bear,0,0473_rot_dnn_0_bear_20_n02132136_5175.png,n02132136_5175.png,1.0,8.004014,5.8929443,1.4927517
alexnet,1,474,NaN,knife,keyboard,270,0474_rot_dnn_270_keyboard_20_n03085013_7382.png,n03085013_7382.png,0.0,2.0777757,4.926072,-2.0140498
alexnet,1,475,NaN,knife,dog,270,0475_rot_dnn_270_dog_20_n02109961_4280.png,n02109961_4280.png,0.0,2.4839747,2.8919892,-0.28850985
alexnet,1,476,NaN,clock,truck,90,0476_rot_dnn_90_truck_20_n03417042_1344.png,n03417042_1344.png,0.0,2.6119285,4.0620556,-1.0253948
alexnet,1,477,NaN,elephant,elephant,0,0477_rot_dnn_0_elephant_20_n02504013_9299.png,n02504013_9299.png,1.0,16.845697,6.9515533,6.9962163
alexnet,1,478,NaN,bear,bear,0,0478_rot_dnn_0_bear_20_n02134418_5527.png,n02134418_5527.png,1.0,8.131356,6.3229256,1.2787536
alexnet,1,479,NaN,keyboard,keyboard,270,0479_rot_dnn_270_keyboard_20_n03085013_23109.png,n03085013_23109.png,1.0,4.043929,2.9188116,0.79557824
alexnet,1,480,NaN,cat,bear,180,0480_rot_dnn_180_bear_20_n02133161_4393.png,n02133161_4393.png,0.0,4.1138334,4.410456,-0.20974396
alexnet,1,481,NaN,oven,oven,0,0481_rot_dnn_0_oven_20_n04111531_73.png,n04111531_73.png,1.0,10.021458,6.829953,2.2567346
alexnet,1,482,NaN,keyboard,keyboard,0,0482_rot_dnn_0_keyboard_20_n03085013_7613.png,n03085013_7613.png,1.0,6.851014,6.505524,0.24429831
alexnet,1,483,NaN,oven,oven,180,0483_rot_dnn_180_oven_20_n04111531_2795.png,n04111531_2795.png,1.0,6.897971,5.63426,0.8935786
alexnet,1,484,NaN,oven,oven,0,0484_rot_dnn_0_oven_20_n04111531_22517.png,n04111531_22517.png,1.0,10.109815,3.7146344,4.522075
alexnet,1,485,NaN,elephant,elephant,90,0485_rot_dnn_90_elephant_20_n02504458_2613.png,n02504458_2613.png,1.0,5.2621155,4.2942605,0.68437684
alexnet,1,486,NaN,oven,oven,180,0486_rot_dnn_180_oven_20_n04111531_9176.png,n04111531_9176.png,1.0,3.818716,2.604661,0.85846657
alexnet,1,487,NaN,bottle,bottle,180,0487_rot_dnn_180_bottle_20_n04557648_5790.png,n04557648_5790.png,1.0,9.397186,7.12287,1.6081845
alexnet,1,488,NaN,clock,truck,90,0488_rot_dnn_90_truck_20_n04467665_9812.png,n04467665_9812.png,0.0,1.1645561,7.464127,-4.4544697
alexnet,1,489,NaN,bottle,bottle,0,0489_rot_dnn_0_bottle_20_n04591713_7476.png,n04591713_7476.png,1.0,5.9202538,2.3838668,2.5006032
alexnet,1,490,NaN,elephant,elephant,90,0490_rot_dnn_90_elephant_20_n02504458_1567.png,n02504458_1567.png,1.0,4.768276,4.135633,0.44734633
alexnet,1,491,NaN,clock,clock,90,0491_rot_dnn_90_clock_20_n04548280_6865.png,n04548280_6865.png,1.0,9.645763,3.1026604,4.6266727
alexnet,1,492,NaN,bottle,bottle,180,0492_rot_dnn_180_bottle_20_n02823428_3.png,n02823428_3.png,1.0,7.140698,4.184881,2.090078
alexnet,1,493,NaN,bottle,boat,90,0493_rot_dnn_90_boat_20_n04273569_8951.png,n04273569_8951.png,0.0,0.709017,3.1925588,-1.7561293
alexnet,1,494,NaN,knife,knife,180,0494_rot_dnn_180_knife_20_n03041632_53874.png,n03041632_53874.png,1.0,4.1864114,2.5006223,1.1920329
alexnet,1,495,NaN,clock,clock,0,0495_rot_dnn_0_clock_20_n04548280_6126.png,n04548280_6126.png,1.0,6.159949,5.134514,0.72509205
alexnet,1,496,NaN,cat,cat,180,0496_rot_dnn_180_cat_20_n02123597_6186.png,n02123597_6186.png,1.0,6.1734905,4.454885,1.2152376
alexnet,1,497,NaN,knife,cat,270,0497_rot_dnn_270_cat_20_n02124075_14662.png,n02124075_14662.png,0.0,2.2191994,5.468668,-2.2977214
alexnet,1,498,NaN,knife,car,90,0498_rot_dnn_90_car_20_n04285008_8677.png,n04285008_8677.png,0.0,-1.0949788,6.1634007,-5.1324496
alexnet,1,499,NaN,cat,bird,90,0499_rot_dnn_90_bird_20_n01820546_2568.png,n01820546_2568.png,0.0,1.2498338,2.2409163,-0.70080113
alexnet,1,500,NaN,knife,clock,90,0500_rot_dnn_90_clock_20_n04548280_7354.png,n04548280_7354.png,0.0,8.617792,10.524464,-1.3482203
alexnet,1,501,NaN,bicycle,bicycle,270,0501_rot_dnn_270_bicycle_20_n03792782_586.png,n03792782_586.png,1.0,15.39487,5.6529098,6.8886065
alexnet,1,502,NaN,bear,bear,0,0502_rot_dnn_0_bear_20_n02134084_572.png,n02134084_572.png,1.0,6.647789,5.500338,0.8113704
alexnet,1,503,NaN,chair,bicycle,270,0503_rot_dnn_270_bicycle_20_n03792782_3388.png,n03792782_3388.png,0.0,2.6608539,3.2346518,-0.40573642
alexnet,1,504,NaN,bicycle,bicycle,270,0504_rot_dnn_270_bicycle_20_n03792782_28970.png,n03792782_28970.png,1.0,10.181709,4.0067687,4.3663425
alexnet,1,505,NaN,oven,bottle,270,0505_rot_dnn_270_bottle_20_n04560804_11386.png,n04560804_11386.png,0.0,3.2968216,7.1710696,-2.7395072
alexnet,1,506,NaN,chair,chair,180,0506_rot_dnn_180_chair_20_n03376595_6799.png,n03376595_6799.png,1.0,6.0873585,4.708466,0.9750242
alexnet,1,507,NaN,dog,dog,270,0507_rot_dnn_270_dog_20_n02094258_6398.png,n02094258_6398.png,1.0,4.430245,3.9723423,0.32378608
alexnet,1,508,NaN,knife,bird,0,0508_rot_dnn_0_bird_20_n01592084_2639.png,n01592084_2639.png,0.0,4.419464,4.4922247,-0.0514495
alexnet,1,509,NaN,knife,bird,180,0509_rot_dnn_180_bird_20_n02017213_4781.png,n02017213_4781.png,0.0,-0.15990639,3.0069368,-2.2392964
alexnet,1,510,NaN,knife,airplane,270,0510_rot_dnn_270_airplane_20_n02690373_3818.png,n02690373_3818.png,0.0,-1.4891015,3.6770153,-3.6529963
alexnet,1,511,NaN,bicycle,bicycle,90,0511_rot_dnn_90_bicycle_20_n03792782_26383.png,n03792782_26383.png,1.0,6.3798122,3.4609728,2.0639312
alexnet,1,512,NaN,oven,oven,90,0512_rot_dnn_90_oven_20_n04111531_5216.png,n04111531_5216.png,1.0,8.3779545,3.7758918,3.25415
alexnet,1,513,NaN,keyboard,airplane,180,0513_rot_dnn_180_airplane_20_n02690373_20331.png,n02690373_20331.png,0.0,5.741118,6.6641083,-0.65265274
alexnet,1,514,NaN,clock,truck,180,0514_rot_dnn_180_truck_20_n04467665_23691.png,n04467665_23691.png,0.0,1.4505899,7.82297,-4.5059533
alexnet,1,515,NaN,bird,bird,0,0515_rot_dnn_0_bird_20_n02009229_492.png,n02009229_492.png,1.0,5.9664183,2.8068385,2.2341604
alexnet,1,516,NaN,bird,bird,90,0516_rot_dnn_90_bird_20_n02002556_5890.png,n02002556_5890.png,1.0,5.20835,3.6565013,1.097323
alexnet,1,517,NaN,elephant,bird,270,0517_rot_dnn_270_bird_20_n01855032_5358.png,n01855032_5358.png,0.0,3.9300585,4.3158026,-0.27276227
alexnet,1,518,NaN,cat,dog,180,0518_rot_dnn_180_dog_20_n02112350_10026.png,n02112350_10026.png,0.0,2.2332714,3.7722538,-1.0882249
alexnet,1,519,NaN,knife,knife,90,0519_rot_dnn_90_knife_20_n03041632_11773.png,n03041632_11773.png,1.0,6.360611,5.846962,0.3632047
alexnet,1,520,NaN,elephant,elephant,0,0520_rot_dnn_0_elephant_20_n02504013_20486.png,n02504013_20486.png,1.0,15.1813965,5.0511026,7.1631994
alexnet,1,521,NaN,clock,oven,0,0521_rot_dnn_0_oven_20_n04111531_27.png,n04111531_27.png,0.0,5.378602,6.7987366,-1.0041867
alexnet,1,522,NaN,bottle,bird,180,0522_rot_dnn_180_bird_20_n01855672_15421.png,n01855672_15421.png,0.0,-1.0472119,2.0293598,-2.1754649
alexnet,1,523,NaN,bear,bear,270,0523_rot_dnn_270_bear_20_n02132136_239.png,n02132136_239.png,1.0,8.075709,3.0008123,3.588494
alexnet,1,524,NaN,keyboard,keyboard,90,0524_rot_dnn_90_keyboard_20_n03085013_25924.png,n03085013_25924.png,1.0,9.700695,4.406289,3.7437105
alexnet,1,525,NaN,bicycle,bicycle,180,0525_rot_dnn_180_bicycle_20_n03792782_6030.png,n03792782_6030.png,1.0,4.7135873,3.8181295,0.63318425
alexnet,1,526,NaN,oven,bottle,270,0526_rot_dnn_270_bottle_20_n03983396_5497.png,n03983396_5497.png,0.0,1.4278737,2.9539692,-1.0791125
alexnet,1,527,NaN,chair,chair,180,0527_rot_dnn_180_chair_20_n04429376_6390.png,n04429376_6390.png,1.0,7.1958203,5.473157,1.218107
alexnet,1,528,NaN,cat,dog,90,0528_rot_dnn_90_dog_20_n02100877_11159.png,n02100877_11159.png,0.0,2.926167,3.3701687,-0.3139566
alexnet,1,529,NaN,airplane,bottle,180,0529_rot_dnn_180_bottle_20_n04579145_579.png,n04579145_579.png,0.0,4.4145613,7.132509,-1.9218794
alexnet,1,530,NaN,bottle,cat,90,0530_rot_dnn_90_cat_20_n02123159_5678.png,n02123159_5678.png,0.0,2.2797825,3.6497135,-0.9686875
alexnet,1,531,NaN,elephant,elephant,180,0531_rot_dnn_180_elephant_20_n02504013_13283.png,n02504013_13283.png,1.0,3.4099448,2.5169513,0.6314417
alexnet,1,532,NaN,bear,dog,90,0532_rot_dnn_90_dog_20_n02095570_7633.png,n02095570_7633.png,0.0,0.907918,3.091765,-1.544213
alexnet,1,533,NaN,clock,clock,180,0533_rot_dnn_180_clock_20_n02708093_8311.png,n02708093_8311.png,1.0,9.570876,6.1884236,2.391755
alexnet,1,534,NaN,knife,chair,270,0534_rot_dnn_270_chair_20_n03376595_426.png,n03376595_426.png,0.0,4.4804873,4.5932484,-0.07973409
alexnet,1,535,NaN,cat,dog,180,0535_rot_dnn_180_dog_20_n02100877_3112.png,n02100877_3112.png,0.0,2.069623,3.4510086,-0.9767871
alexnet,1,536,NaN,chair,car,270,0536_rot_dnn_270_car_20_n02814533_458.png,n02814533_458.png,0.0,2.6952515,4.577032,-1.3306198
alexnet,1,537,NaN,bird,bird,0,0537_rot_dnn_0_bird_20_n02006656_5079.png,n02006656_5079.png,1.0,5.153472,2.2827387,2.029915
alexnet,1,538,NaN,clock,boat,90,0538_rot_dnn_90_boat_20_n04273569_12725.png,n04273569_12725.png,0.0,2.3279145,3.652628,-0.9367139
alexnet,1,539,NaN,cat,cat,270,0539_rot_dnn_270_cat_20_n02123045_6677.png,n02123045_6677.png,1.0,5.5023975,3.597062,1.3472756
alexnet,1,540,NaN,bicycle,bicycle,270,0540_rot_dnn_270_bicycle_20_n02835271_4440.png,n02835271_4440.png,1.0,7.300335,3.2486782,2.864954
alexnet,1,541,NaN,keyboard,keyboard,270,0541_rot_dnn_270_keyboard_20_n03085013_21444.png,n03085013_21444.png,1.0,7.9212646,3.7358084,2.9595644
alexnet,1,542,NaN,clock,clock,180,0542_rot_dnn_180_clock_20_n02708093_8255.png,n02708093_8255.png,1.0,8.037875,3.2695885,3.371688
alexnet,1,543,NaN,chair,bicycle,0,0543_rot_dnn_0_bicycle_20_n02835271_30318.png,n02835271_30318.png,0.0,2.6907928,3.0880623,-0.28091195
alexnet,1,544,NaN,cat,cat,180,0544_rot_dnn_180_cat_20_n02123394_2059.png,n02123394_2059.png,1.0,5.7384467,3.7255335,1.4233446
alexnet,1,545,NaN,elephant,elephant,180,0545_rot_dnn_180_elephant_20_n02504013_6618.png,n02504013_6618.png,1.0,7.7838693,3.1119354,3.3035564
alexnet,1,546,NaN,cat,cat,270,0546_rot_dnn_270_cat_20_n02124075_8889.png,n02124075_8889.png,1.0,6.2453265,3.8079445,1.7234894
alexnet,1,547,NaN,cat,dog,90,0547_rot_dnn_90_dog_20_n02100877_7302.png,n02100877_7302.png,0.0,1.5464051,3.2992132,-1.2394226
alexnet,1,548,NaN,oven,car,180,0548_rot_dnn_180_car_20_n02814533_85971.png,n02814533_85971.png,0.0,2.6309125,4.582782,-1.38018
alexnet,1,549,NaN,oven,chair,0,0549_rot_dnn_0_chair_20_n03376595_5909.png,n03376595_5909.png,0.0,9.320131,9.600852,-0.19849952
alexnet,1,550,NaN,keyboard,keyboard,270,0550_rot_dnn_270_keyboard_20_n03085013_13083.png,n03085013_13083.png,1.0,14.4646,4.9175053,6.7508154
alexnet,1,551,NaN,oven,oven,90,0551_rot_dnn_90_oven_20_n04111531_9611.png,n04111531_9611.png,1.0,10.143904,8.183103,1.3864958
alexnet,1,552,NaN,boat,boat,0,0552_rot_dnn_0_boat_20_n02951358_13996.png,n02951358_13996.png,1.0,6.71461,3.3319197,2.3919234
alexnet,1,553,NaN,boat,boat,0,0553_rot_dnn_0_boat_20_n03344393_9251.png,n03344393_9251.png,1.0,8.854967,8.745246,0.077584594
alexnet,1,554,NaN,oven,airplane,180,0554_rot_dnn_180_airplane_20_n02690373_9175.png,n02690373_9175.png,0.0,3.7237449,5.1486826,-1.0075831
alexnet,1,555,NaN,bear,bear,0,0555_rot_dnn_0_bear_20_n02132136_2791.png,n02132136_2791.png,1.0,9.026003,5.99231,2.1451447
alexnet,1,556,NaN,elephant,elephant,180,0556_rot_dnn_180_elephant_20_n02504458_193.png,n02504458_193.png,1.0,5.47464,2.5021925,2.1018376
alexnet,1,557,NaN,knife,bird,270,0557_rot_dnn_270_bird_20_n01843383_9985.png,n01843383_9985.png,0.0,-3.0240042,3.538588,-4.640454
alexnet,1,558,NaN,bottle,bird,270,0558_rot_dnn_270_bird_20_n02028035_10744.png,n02028035_10744.png,0.0,0.50608367,2.6008573,-1.4812286
alexnet,1,559,NaN,chair,truck,270,0559_rot_dnn_270_truck_20_n04467665_3720.png,n04467665_3720.png,0.0,2.0126076,5.195508,-2.2506504
alexnet,1,560,NaN,car,car,0,0560_rot_dnn_0_car_20_n02814533_52605.png,n02814533_52605.png,1.0,9.113706,6.1737423,2.0788682
alexnet,1,561,NaN,clock,clock,90,0561_rot_dnn_90_clock_20_n04548280_5631.png,n04548280_5631.png,1.0,14.541051,3.42102,7.8630495
alexnet,1,562,NaN,oven,oven,0,0562_rot_dnn_0_oven_20_n04111531_1922.png,n04111531_1922.png,1.0,8.370312,2.169657,4.3845253
alexnet,1,563,NaN,airplane,boat,180,0563_rot_dnn_180_boat_20_n03662601_1197.png,n03662601_1197.png,0.0,3.4972177,10.016406,-4.609762
alexnet,1,564,NaN,clock,clock,270,0564_rot_dnn_270_clock_20_n02708093_1862.png,n02708093_1862.png,1.0,11.05565,4.0873766,4.9273133
alexnet,1,565,NaN,oven,truck,180,0565_rot_dnn_180_truck_20_n03796401_4582.png,n03796401_4582.png,0.0,4.1953716,7.646986,-2.44066
alexnet,1,566,NaN,bottle,elephant,90,0566_rot_dnn_90_elephant_20_n02504013_565.png,n02504013_565.png,0.0,0.620532,4.114761,-2.470793
alexnet,1,567,NaN,chair,truck,180,0567_rot_dnn_180_truck_20_n04467665_49826.png,n04467665_49826.png,0.0,4.851281,5.4254713,-0.40601376
alexnet,1,568,NaN,cat,bear,270,0568_rot_dnn_270_bear_20_n02134418_5067.png,n02134418_5067.png,0.0,1.6623371,2.0926037,-0.30424446
alexnet,1,569,NaN,clock,chair,90,0569_rot_dnn_90_chair_20_n04429376_29223.png,n04429376_29223.png,0.0,6.0032835,6.4060497,-0.28479874
alexnet,1,570,NaN,knife,airplane,270,0570_rot_dnn_270_airplane_20_n02690373_5909.png,n02690373_5909.png,0.0,-2.1697686,5.1174884,-5.152869
alexnet,1,571,NaN,bicycle,dog,270,0571_rot_dnn_270_dog_20_n02097658_722.png,n02097658_722.png,0.0,-1.0208609,5.135807,-4.3534217
alexnet,1,572,NaN,oven,oven,0,0572_rot_dnn_0_oven_20_n04111531_10339.png,n04111531_10339.png,1.0,10.636273,6.2114463,3.1288252
alexnet,1,573,NaN,bottle,truck,90,0573_rot_dnn_90_truck_20_n03417042_28078.png,n03417042_28078.png,0.0,-0.34088263,6.7729,-5.0302043
alexnet,1,574,NaN,chair,chair,180,0574_rot_dnn_180_chair_20_n04099969_22118.png,n04099969_22118.png,1.0,4.4964952,4.2470345,0.17639536
alexnet,1,575,NaN,keyboard,clock,270,0575_rot_dnn_270_clock_20_n04548280_7978.png,n04548280_7978.png,0.0,2.8804455,3.6438982,-0.53984267
alexnet,1,576,NaN,bear,bear,180,0576_rot_dnn_180_bear_20_n02133161_1962.png,n02133161_1962.png,1.0,6.3693132,4.3025136,1.4614481
alexnet,1,577,NaN,oven,clock,180,0577_rot_dnn_180_clock_20_n04548280_13750.png,n04548280_13750.png,0.0,2.3172672,4.0306916,-1.2115741
alexnet,1,578,NaN,keyboard,keyboard,0,0578_rot_dnn_0_keyboard_20_n03085013_15249.png,n03085013_15249.png,1.0,3.8716426,3.0677714,0.56842273
alexnet,1,579,NaN,bottle,car,90,0579_rot_dnn_90_car_20_n02814533_479.png,n02814533_479.png,0.0,-1.8135176,5.1401715,-4.917001
alexnet,1,580,NaN,knife,keyboard,270,0580_rot_dnn_270_keyboard_20_n03085013_20716.png,n03085013_20716.png,0.0,1.4265251,2.5629458,-0.8035708
alexnet,1,581,NaN,knife,bird,180,0581_rot_dnn_180_bird_20_n01530575_7990.png,n01530575_7990.png,0.0,-0.30712366,2.2939131,-1.8392107
alexnet,1,582,NaN,chair,chair,0,0582_rot_dnn_0_chair_20_n04429376_17343.png,n04429376_17343.png,1.0,5.4210835,5.010784,0.29012543
alexnet,1,583,NaN,chair,chair,90,0583_rot_dnn_90_chair_20_n02791124_8775.png,n02791124_8775.png,1.0,7.5980964,5.14172,1.7369206
alexnet,1,584,NaN,cat,cat,90,0584_rot_dnn_90_cat_20_n02125311_2959.png,n02125311_2959.png,1.0,7.5285134,1.9288524,3.9595582
alexnet,1,585,NaN,oven,oven,180,0585_rot_dnn_180_oven_20_n04111531_13906.png,n04111531_13906.png,1.0,7.086256,5.278209,1.2784822
alexnet,1,586,NaN,bicycle,airplane,90,0586_rot_dnn_90_airplane_20_n02690373_7293.png,n02690373_7293.png,0.0,4.47236,4.5741177,-0.07195344
alexnet,1,587,NaN,chair,chair,180,0587_rot_dnn_180_chair_20_n04099969_10825.png,n04099969_10825.png,1.0,6.2813125,4.4064727,1.325712
alexnet,1,588,NaN,car,airplane,180,0588_rot_dnn_180_airplane_20_n02690373_17044.png,n02690373_17044.png,0.0,6.6075077,7.837565,-0.86978185
alexnet,1,589,NaN,bird,bird,0,0589_rot_dnn_0_bird_20_n01797886_6169.png,n01797886_6169.png,1.0,2.9697523,2.3530982,0.43604034
alexnet,1,590,NaN,elephant,oven,0,0590_rot_dnn_0_oven_20_n04111531_13255.png,n04111531_13255.png,0.0,4.20443,5.1198654,-0.64731055
alexnet,1,591,NaN,knife,knife,270,0591_rot_dnn_270_knife_20_n03041632_17820.png,n03041632_17820.png,1.0,6.0767922,3.7616997,1.6370177
alexnet,1,592,NaN,knife,bicycle,270,0592_rot_dnn_270_bicycle_20_n02835271_21640.png,n02835271_21640.png,0.0,3.3928442,3.9812903,-0.41609427
alexnet,1,593,NaN,bear,bear,0,0593_rot_dnn_0_bear_20_n02134418_517.png,n02134418_517.png,1.0,7.922024,6.1968756,1.219864
alexnet,1,594,NaN,airplane,airplane,180,0594_rot_dnn_180_airplane_20_n02690373_4588.png,n02690373_4588.png,1.0,5.095122,4.219445,0.6191969
alexnet,1,595,NaN,chair,bottle,270,0595_rot_dnn_270_bottle_20_n02823428_12190.png,n02823428_12190.png,0.0,1.0677534,3.3683448,-1.6267638
alexnet,1,596,NaN,bottle,bottle,0,0596_rot_dnn_0_bottle_20_n04591713_1717.png,n04591713_1717.png,1.0,9.193376,9.01442,0.12654102
alexnet,1,597,NaN,knife,knife,0,0597_rot_dnn_0_knife_20_n03041632_9488.png,n03041632_9488.png,1.0,8.715519,2.2503119,4.571592
alexnet,1,598,NaN,chair,truck,90,0598_rot_dnn_90_truck_20_n03417042_11166.png,n03417042_11166.png,0.0,2.3623304,3.8981123,-1.0859618
alexnet,1,599,NaN,elephant,elephant,90,0599_rot_dnn_90_elephant_20_n02504458_585.png,n02504458_585.png,1.0,5.789507,2.8427758,2.0836537
alexnet,1,600,NaN,oven,keyboard,0,0600_rot_dnn_0_keyboard_20_n04505470_5046.png,n04505470_5046.png,0.0,4.550671,8.0799675,-2.4955895
alexnet,1,601,NaN,chair,chair,180,0601_rot_dnn_180_chair_20_n03376595_4937.png,n03376595_4937.png,1.0,5.262971,3.130722,1.5077276
alexnet,1,602,NaN,airplane,boat,180,0602_rot_dnn_180_boat_20_n03662601_1740.png,n03662601_1740.png,0.0,1.2808859,5.0754924,-2.683192
alexnet,1,603,NaN,knife,knife,0,0603_rot_dnn_0_knife_20_n03041632_4037.png,n03041632_4037.png,1.0,8.1238575,4.003262,2.913701
alexnet,1,604,NaN,chair,boat,0,0604_rot_dnn_0_boat_20_n04273569_1538.png,n04273569_1538.png,0.0,2.148374,4.4344335,-1.6164881
alexnet,1,605,NaN,knife,bird,0,0605_rot_dnn_0_bird_20_n02017213_15918.png,n02017213_15918.png,0.0,-1.9512702,4.2002835,-4.3498054
alexnet,1,606,NaN,keyboard,keyboard,0,0606_rot_dnn_0_keyboard_20_n03085013_10463.png,n03085013_10463.png,1.0,10.662508,7.0440073,2.5586665
alexnet,1,607,NaN,bear,bear,270,0607_rot_dnn_270_bear_20_n02133161_7939.png,n02133161_7939.png,1.0,5.126379,3.5937617,1.0837241
alexnet,1,608,NaN,bicycle,car,270,0608_rot_dnn_270_car_20_n04285008_11704.png,n04285008_11704.png,0.0,2.3361359,4.074439,-1.229166
alexnet,1,609,NaN,knife,truck,90,0609_rot_dnn_90_truck_20_n03796401_16046.png,n03796401_16046.png,0.0,2.9636898,6.882507,-2.771022
alexnet,1,610,NaN,oven,chair,270,0610_rot_dnn_270_chair_20_n02791124_3710.png,n02791124_3710.png,0.0,4.2504644,5.1208506,-0.6154559
alexnet,1,611,NaN,oven,keyboard,180,0611_rot_dnn_180_keyboard_20_n04505470_3566.png,n04505470_3566.png,0.0,8.211445,9.16296,-0.67282283
alexnet,1,612,NaN,chair,bird,90,0612_rot_dnn_90_bird_20_n02037110_8716.png,n02037110_8716.png,0.0,-0.36755115,2.6405778,-2.1270683
alexnet,1,613,NaN,car,car,0,0613_rot_dnn_0_car_20_n03100240_19550.png,n03100240_19550.png,1.0,10.982005,6.486502,3.1788006
alexnet,1,614,NaN,airplane,airplane,270,0614_rot_dnn_270_airplane_20_n02690373_10769.png,n02690373_10769.png,1.0,8.869176,6.0113363,2.0207977
alexnet,1,615,NaN,bicycle,bicycle,0,0615_rot_dnn_0_bicycle_20_n03792782_3456.png,n03792782_3456.png,1.0,6.1422563,2.8688533,2.3146455
alexnet,1,616,NaN,chair,chair,0,0616_rot_dnn_0_chair_20_n03376595_2368.png,n03376595_2368.png,1.0,5.413273,4.5441036,0.6145955
alexnet,1,617,NaN,dog,dog,0,0617_rot_dnn_0_dog_20_n02091467_2974.png,n02091467_2974.png,1.0,5.4122005,2.794007,1.8513423
alexnet,1,618,NaN,knife,knife,180,0618_rot_dnn_180_knife_20_n03041632_43634.png,n03041632_43634.png,1.0,11.568974,5.65697,4.180418
alexnet,1,619,NaN,keyboard,keyboard,180,0619_rot_dnn_180_keyboard_20_n04505470_4477.png,n04505470_4477.png,1.0,7.6081853,7.0214143,0.41490978
alexnet,1,620,NaN,clock,boat,90,0620_rot_dnn_90_boat_20_n03344393_4773.png,n03344393_4773.png,0.0,0.815016,5.64617,-3.416142
alexnet,1,621,NaN,airplane,airplane,180,0621_rot_dnn_180_airplane_20_n02690373_139.png,n02690373_139.png,1.0,10.163703,6.284065,2.7433186
alexnet,1,622,NaN,chair,knife,270,0622_rot_dnn_270_knife_20_n03041632_737.png,n03041632_737.png,0.0,4.529942,4.998175,-0.3310908
alexnet,1,623,NaN,chair,chair,270,0623_rot_dnn_270_chair_20_n02791124_2698.png,n02791124_2698.png,1.0,5.408692,3.9497802,1.0316063
alexnet,1,624,NaN,clock,truck,270,0624_rot_dnn_270_truck_20_n03417042_5301.png,n03417042_5301.png,0.0,3.303176,8.011817,-3.3295121
alexnet,1,625,NaN,bird,bird,0,0625_rot_dnn_0_bird_20_n02006656_5757.png,n02006656_5757.png,1.0,5.3153853,3.5469494,1.250473
alexnet,1,626,NaN,elephant,bear,270,0626_rot_dnn_270_bear_20_n02132136_15174.png,n02132136_15174.png,0.0,4.9801154,5.7211056,-0.52395916
alexnet,1,627,NaN,bottle,bottle,270,0627_rot_dnn_270_bottle_20_n04560804_6329.png,n04560804_6329.png,1.0,6.4612994,5.56826,0.6314741
alexnet,1,628,NaN,truck,truck,0,0628_rot_dnn_0_truck_20_n03417042_22196.png,n03417042_22196.png,1.0,8.742262,3.6018152,3.6348448
alexnet,1,629,NaN,bear,cat,0,0629_rot_dnn_0_cat_20_n02125311_18366.png,n02125311_18366.png,0.0,6.6247735,6.769829,-0.10256959
alexnet,1,630,NaN,chair,chair,0,0630_rot_dnn_0_chair_20_n02791124_12707.png,n02791124_12707.png,1.0,7.0821066,4.68974,1.6916585
alexnet,1,631,NaN,oven,oven,180,0631_rot_dnn_180_oven_20_n04111531_1938.png,n04111531_1938.png,1.0,5.5561275,4.4347234,0.7929525
alexnet,1,632,NaN,clock,airplane,270,0632_rot_dnn_270_airplane_20_n02690373_9346.png,n02690373_9346.png,0.0,-2.0836473,4.3126273,-4.522849
alexnet,1,633,NaN,knife,cat,0,0633_rot_dnn_0_cat_20_n02123045_10433.png,n02123045_10433.png,0.0,0.7540641,3.6887364,-2.0751266
alexnet,1,634,NaN,airplane,airplane,180,0634_rot_dnn_180_airplane_20_n02690373_5055.png,n02690373_5055.png,1.0,9.147166,4.6280403,3.1955047
alexnet,1,635,NaN,clock,clock,270,0635_rot_dnn_270_clock_20_n04548280_4198.png,n04548280_4198.png,1.0,6.731911,4.0211267,1.9168141
alexnet,1,636,NaN,bicycle,bicycle,90,0636_rot_dnn_90_bicycle_20_n03792782_12010.png,n03792782_12010.png,1.0,8.65029,5.723729,2.0693908
alexnet,1,637,NaN,cat,cat,180,0637_rot_dnn_180_cat_20_n02125311_24586.png,n02125311_24586.png,1.0,3.0787385,2.9218407,0.11094349
alexnet,1,638,NaN,chair,chair,0,0638_rot_dnn_0_chair_20_n02791124_3220.png,n02791124_3220.png,1.0,9.500956,4.6235,3.448882
alexnet,1,639,NaN,knife,car,90,0639_rot_dnn_90_car_20_n04285008_12737.png,n04285008_12737.png,0.0,2.0832222,8.487502,-4.5285096
alexnet,1,640,NaN,keyboard,chair,180,0640_rot_dnn_180_chair_20_n04429376_4296.png,n04429376_4296.png,0.0,0.8040539,6.0099697,-3.6811385
alexnet,1,641,NaN,knife,airplane,90,0641_rot_dnn_90_airplane_20_n02690373_5534.png,n02690373_5534.png,0.0,-2.245499,4.079423,-4.472395
alexnet,1,642,NaN,dog,dog,180,0642_rot_dnn_180_dog_20_n02113978_2286.png,n02113978_2286.png,1.0,2.1923015,1.6289186,0.39837185
alexnet,1,643,NaN,elephant,dog,0,0643_rot_dnn_0_dog_20_n02087394_3354.png,n02087394_3354.png,0.0,1.0798016,4.4949484,-2.4148736
alexnet,1,644,NaN,chair,chair,180,0644_rot_dnn_180_chair_20_n03376595_2103.png,n03376595_2103.png,1.0,5.107435,4.5103855,0.4221779
alexnet,1,645,NaN,elephant,elephant,0,0645_rot_dnn_0_elephant_20_n02504458_5181.png,n02504458_5181.png,1.0,13.558401,4.6187077,6.321318
alexnet,1,646,NaN,bottle,chair,270,0646_rot_dnn_270_chair_20_n02791124_10287.png,n02791124_10287.png,0.0,4.3305507,5.1477103,-0.57781917
alexnet,1,647,NaN,oven,oven,90,0647_rot_dnn_90_oven_20_n04111531_22291.png,n04111531_22291.png,1.0,3.9282067,2.9597633,0.6847929
alexnet,1,648,NaN,bottle,bottle,90,0648_rot_dnn_90_bottle_20_n03937543_4399.png,n03937543_4399.png,1.0,5.5607333,3.987936,1.1121356
alexnet,1,649,NaN,chair,truck,90,0649_rot_dnn_90_truck_20_n03796401_13226.png,n03796401_13226.png,0.0,3.037518,6.2373595,-2.2626297
alexnet,1,650,NaN,clock,airplane,270,0650_rot_dnn_270_airplane_20_n02690373_5430.png,n02690373_5430.png,0.0,-2.589932,5.458863,-5.6913576
alexnet,1,651,NaN,cat,cat,90,0651_rot_dnn_90_cat_20_n02124075_20.png,n02124075_20.png,1.0,11.946541,2.778295,6.4829288
alexnet,1,652,NaN,keyboard,keyboard,90,0652_rot_dnn_90_keyboard_20_n04505470_4943.png,n04505470_4943.png,1.0,9.918026,5.628167,3.0333884
alexnet,1,653,NaN,oven,car,180,0653_rot_dnn_180_car_20_n03100240_4288.png,n03100240_4288.png,0.0,5.3729157,9.972497,-3.2523952
alexnet,1,654,NaN,dog,dog,0,0654_rot_dnn_0_dog_20_n02109525_7478.png,n02109525_7478.png,1.0,5.7139378,3.7816532,1.3663316
alexnet,1,655,NaN,bicycle,bicycle,0,0655_rot_dnn_0_bicycle_20_n03792782_4895.png,n03792782_4895.png,1.0,6.75974,4.3681426,1.6911147
alexnet,1,656,NaN,oven,oven,0,0656_rot_dnn_0_oven_20_n04111531_8077.png,n04111531_8077.png,1.0,7.0601487,4.448317,1.846844
alexnet,1,657,NaN,knife,airplane,90,0657_rot_dnn_90_airplane_20_n02690373_4845.png,n02690373_4845.png,0.0,1.5058707,4.050474,-1.7993063
alexnet,1,658,NaN,cat,cat,90,0658_rot_dnn_90_cat_20_n02125311_59332.png,n02125311_59332.png,1.0,6.879129,5.1499357,1.2227243
alexnet,1,659,NaN,clock,bicycle,180,0659_rot_dnn_180_bicycle_20_n02835271_24.png,n02835271_24.png,0.0,3.8373876,5.787275,-1.3787786
alexnet,1,660,NaN,airplane,truck,180,0660_rot_dnn_180_truck_20_n04467665_22637.png,n04467665_22637.png,0.0,4.869264,7.5991197,-1.9302994
alexnet,1,661,NaN,dog,dog,180,0661_rot_dnn_180_dog_20_n02101006_6694.png,n02101006_6694.png,1.0,3.9381855,3.3525963,0.4140741
alexnet,1,662,NaN,car,car,0,0662_rot_dnn_0_car_20_n02814533_37256.png,n02814533_37256.png,1.0,10.563879,9.066298,1.0589501
alexnet,1,663,NaN,bear,bear,0,0663_rot_dnn_0_bear_20_n02134418_132.png,n02134418_132.png,1.0,8.131771,4.9918437,2.220264
alexnet,1,664,NaN,knife,knife,180,0664_rot_dnn_180_knife_20_n03041632_41310.png,n03041632_41310.png,1.0,7.107866,3.8813884,2.281464
alexnet,1,665,NaN,bird,bird,0,0665_rot_dnn_0_bird_20_n01530575_3198.png,n01530575_3198.png,1.0,6.8161716,1.4347076,3.8052697
alexnet,1,666,NaN,bicycle,bicycle,180,0666_rot_dnn_180_bicycle_20_n02835271_3643.png,n02835271_3643.png,1.0,7.7195373,4.5530443,2.2390487
alexnet,1,667,NaN,chair,chair,180,0667_rot_dnn_180_chair_20_n02791124_3186.png,n02791124_3186.png,1.0,7.1459165,5.105042,1.4431162
alexnet,1,668,NaN,oven,chair,270,0668_rot_dnn_270_chair_20_n04099969_5396.png,n04099969_5396.png,0.0,6.483019,8.324139,-1.3018683
alexnet,1,669,NaN,elephant,dog,0,0669_rot_dnn_0_dog_20_n02110806_749.png,n02110806_749.png,0.0,2.50875,5.437486,-2.0709293
alexnet,1,670,NaN,oven,car,180,0670_rot_dnn_180_car_20_n04285008_7155.png,n04285008_7155.png,0.0,5.3975525,6.316414,-0.6497331
alexnet,1,671,NaN,airplane,airplane,270,0671_rot_dnn_270_airplane_20_n02690373_6621.png,n02690373_6621.png,1.0,8.606924,5.6402016,2.0977895
alexnet,1,672,NaN,cat,cat,270,0672_rot_dnn_270_cat_20_n02124075_11727.png,n02124075_11727.png,1.0,3.7262032,2.1115808,1.1417104
alexnet,1,673,NaN,cat,elephant,180,0673_rot_dnn_180_elephant_20_n02504013_1078.png,n02504013_1078.png,0.0,1.2052428,2.7748125,-1.1098534
alexnet,1,674,NaN,clock,knife,180,0674_rot_dnn_180_knife_20_n03041632_21017.png,n03041632_21017.png,0.0,2.348183,3.3937366,-0.73931813
alexnet,1,675,NaN,knife,knife,180,0675_rot_dnn_180_knife_20_n03041632_22330.png,n03041632_22330.png,1.0,5.55465,3.0562415,1.7666415
alexnet,1,676,NaN,clock,clock,270,0676_rot_dnn_270_clock_20_n03196217_368.png,n03196217_368.png,1.0,6.2427845,5.0548453,0.83999985
alexnet,1,677,NaN,knife,knife,0,0677_rot_dnn_0_knife_20_n03041632_99912.png,n03041632_99912.png,1.0,6.4079194,2.3320427,2.88208
alexnet,1,678,NaN,clock,boat,180,0678_rot_dnn_180_boat_20_n03344393_7705.png,n03344393_7705.png,0.0,2.2520642,5.3799343,-2.211738
alexnet,1,679,NaN,bear,bear,180,0679_rot_dnn_180_bear_20_n02134084_41588.png,n02134084_41588.png,1.0,6.370463,5.7671304,0.4266205
alexnet,1,680,NaN,knife,knife,0,0680_rot_dnn_0_knife_20_n03041632_45775.png,n03041632_45775.png,1.0,7.655034,6.7059298,0.6711181
alexnet,1,681,NaN,bicycle,bicycle,180,0681_rot_dnn_180_bicycle_20_n02835271_24630.png,n02835271_24630.png,1.0,4.556305,4.508722,0.033646334
alexnet,1,682,NaN,knife,boat,270,0682_rot_dnn_270_boat_20_n03662601_22973.png,n03662601_22973.png,0.0,-3.2429605,3.7395096,-4.937352
alexnet,1,683,NaN,car,car,270,0683_rot_dnn_270_car_20_n02814533_8042.png,n02814533_8042.png,1.0,5.5549526,5.526495,0.020122591
alexnet,1,684,NaN,airplane,boat,0,0684_rot_dnn_0_boat_20_n03662601_17483.png,n03662601_17483.png,0.0,6.0551047,7.2144923,-0.81981087
alexnet,1,685,NaN,bicycle,bicycle,180,0685_rot_dnn_180_bicycle_20_n03792782_13680.png,n03792782_13680.png,1.0,3.9540977,2.4697483,1.0495936
alexnet,1,686,NaN,knife,chair,180,0686_rot_dnn_180_chair_20_n03376595_15468.png,n03376595_15468.png,0.0,3.4906647,5.480524,-1.4070431
alexnet,1,687,NaN,clock,knife,270,0687_rot_dnn_270_knife_20_n03041632_26236.png,n03041632_26236.png,0.0,5.0337315,5.0372367,-0.0024785718
alexnet,1,688,NaN,cat,cat,180,0688_rot_dnn_180_cat_20_n02125311_41650.png,n02125311_41650.png,1.0,3.2275827,3.0143154,0.15080278
alexnet,1,689,NaN,clock,car,90,0689_rot_dnn_90_car_20_n02814533_5916.png,n02814533_5916.png,0.0,2.5477011,4.89827,-1.6621033
alexnet,1,690,NaN,knife,knife,180,0690_rot_dnn_180_knife_20_n03041632_7116.png,n03041632_7116.png,1.0,4.999604,3.6752365,0.93646944
alexnet,1,691,NaN,car,bottle,90,0691_rot_dnn_90_bottle_20_n04560804_13583.png,n04560804_13583.png,0.0,4.171642,4.8311267,-0.46632624
alexnet,1,692,NaN,knife,bicycle,180,0692_rot_dnn_180_bicycle_20_n02835271_10933.png,n02835271_10933.png,0.0,3.1161866,3.1503427,-0.024152
alexnet,1,693,NaN,oven,truck,180,0693_rot_dnn_180_truck_20_n04467665_9589.png,n04467665_9589.png,0.0,2.5355787,4.0495505,-1.0705397
alexnet,1,694,NaN,car,car,180,0694_rot_dnn_180_car_20_n03100240_1750.png,n03100240_1750.png,1.0,7.351006,6.977427,0.26416028
alexnet,1,695,NaN,bear,bear,270,0695_rot_dnn_270_bear_20_n02134418_1094.png,n02134418_1094.png,1.0,6.5024033,4.426228,1.4680775
alexnet,1,696,NaN,clock,clock,0,0696_rot_dnn_0_clock_20_n04548280_7792.png,n04548280_7792.png,1.0,15.8995695,9.046948,4.845535
alexnet,1,697,NaN,airplane,airplane,0,0697_rot_dnn_0_airplane_20_n02690373_7142.png,n02690373_7142.png,1.0,10.147087,7.6673927,1.7534088
alexnet,1,698,NaN,keyboard,keyboard,0,0698_rot_dnn_0_keyboard_20_n04505470_7312.png,n04505470_7312.png,1.0,15.765749,6.911792,6.260693
alexnet,1,699,NaN,elephant,bear,90,0699_rot_dnn_90_bear_20_n02132136_18953.png,n02132136_18953.png,0.0,5.35595,7.811734,-1.7365018
alexnet,1,700,NaN,chair,bird,270,0700_rot_dnn_270_bird_20_n02056570_9303.png,n02056570_9303.png,0.0,-0.41809157,3.7064033,-2.9164584
alexnet,1,701,NaN,chair,chair,0,0701_rot_dnn_0_chair_20_n02791124_4956.png,n02791124_4956.png,1.0,10.621893,6.6202464,2.8295915
alexnet,1,702,NaN,elephant,dog,0,0702_rot_dnn_0_dog_20_n02087394_9061.png,n02087394_9061.png,0.0,5.438902,6.9573593,-1.0737115
alexnet,1,703,NaN,bottle,bird,270,0703_rot_dnn_270_bird_20_n02025239_13707.png,n02025239_13707.png,0.0,0.41459194,1.0698899,-0.46336567
alexnet,1,704,NaN,knife,knife,270,0704_rot_dnn_270_knife_20_n03041632_14916.png,n03041632_14916.png,1.0,8.26413,4.021957,2.999669
alexnet,1,705,NaN,chair,chair,180,0705_rot_dnn_180_chair_20_n02791124_1287.png,n02791124_1287.png,1.0,4.4033194,4.141432,0.18518247
alexnet,1,706,NaN,bear,bear,180,0706_rot_dnn_180_bear_20_n02134418_1825.png,n02134418_1825.png,1.0,4.9114003,4.832892,0.055513807
alexnet,1,707,NaN,elephant,elephant,0,0707_rot_dnn_0_elephant_20_n02504013_6999.png,n02504013_6999.png,1.0,15.017868,9.72385,3.7434359
alexnet,1,708,NaN,clock,clock,270,0708_rot_dnn_270_clock_20_n04548280_7050.png,n04548280_7050.png,1.0,17.81129,4.766122,9.224327
alexnet,1,709,NaN,cat,cat,180,0709_rot_dnn_180_cat_20_n02123394_8100.png,n02123394_8100.png,1.0,4.548973,2.325068,1.5725384
alexnet,1,710,NaN,chair,oven,180,0710_rot_dnn_180_oven_20_n04111531_11026.png,n04111531_11026.png,0.0,2.734395,5.1714063,-1.7232273
alexnet,1,711,NaN,car,car,0,0711_rot_dnn_0_car_20_n02814533_79974.png,n02814533_79974.png,1.0,10.553136,8.91954,1.1551265
alexnet,1,712,NaN,chair,chair,0,0712_rot_dnn_0_chair_20_n04429376_10994.png,n04429376_10994.png,1.0,3.8758771,2.806945,0.7558491
alexnet,1,713,NaN,boat,boat,90,0713_rot_dnn_90_boat_20_n02951358_582.png,n02951358_582.png,1.0,4.703727,1.6596996,2.1524525
alexnet,1,714,NaN,keyboard,keyboard,270,0714_rot_dnn_270_keyboard_20_n03085013_24385.png,n03085013_24385.png,1.0,11.193091,6.968465,2.987262
alexnet,1,715,NaN,elephant,bear,0,0715_rot_dnn_0_bear_20_n02133161_4218.png,n02133161_4218.png,0.0,8.203309,8.362103,-0.1122846
alexnet,1,716,NaN,keyboard,keyboard,270,0716_rot_dnn_270_keyboard_20_n03085013_1070.png,n03085013_1070.png,1.0,2.10864,2.1062362,0.0016996982
alexnet,1,717,NaN,bicycle,bicycle,180,0717_rot_dnn_180_bicycle_20_n02835271_2131.png,n02835271_2131.png,1.0,8.452457,4.4923162,2.8002427
alexnet,1,718,NaN,bicycle,oven,90,0718_rot_dnn_90_oven_20_n04111531_8988.png,n04111531_8988.png,0.0,2.3265991,4.6696215,-1.656767
alexnet,1,719,NaN,elephant,elephant,90,0719_rot_dnn_90_elephant_20_n02504458_3608.png,n02504458_3608.png,1.0,8.0619955,2.5440843,3.9017522
alexnet,1,720,NaN,clock,boat,270,0720_rot_dnn_270_boat_20_n03344393_2961.png,n03344393_2961.png,0.0,0.48688164,4.547122,-2.8710234
alexnet,1,721,NaN,bottle,oven,90,0721_rot_dnn_90_oven_20_n04111531_12980.png,n04111531_12980.png,0.0,4.205979,5.764058,-1.1017284
alexnet,1,722,NaN,airplane,airplane,180,0722_rot_dnn_180_airplane_20_n02690373_7046.png,n02690373_7046.png,1.0,8.441618,7.3927245,0.74167967
alexnet,1,723,NaN,bottle,bottle,0,0723_rot_dnn_0_bottle_20_n03937543_1929.png,n03937543_1929.png,1.0,7.681821,7.0697045,0.43283162
alexnet,1,724,NaN,bicycle,dog,90,0724_rot_dnn_90_dog_20_n02087394_7707.png,n02087394_7707.png,0.0,-0.56719965,2.8391027,-2.4086196
alexnet,1,725,NaN,chair,chair,180,0725_rot_dnn_180_chair_20_n03376595_9219.png,n03376595_9219.png,1.0,6.0335994,5.380568,0.4617629
alexnet,1,726,NaN,airplane,airplane,180,0726_rot_dnn_180_airplane_20_n02690373_5838.png,n02690373_5838.png,1.0,7.3119435,4.5531406,1.9507682
alexnet,1,727,NaN,chair,chair,0,0727_rot_dnn_0_chair_20_n04099969_16669.png,n04099969_16669.png,1.0,11.711753,4.9187613,4.8033705
alexnet,1,728,NaN,cat,bird,180,0728_rot_dnn_180_bird_20_n01532829_37796.png,n01532829_37796.png,0.0,0.35923994,4.516498,-2.9396255
alexnet,1,729,NaN,airplane,airplane,180,0729_rot_dnn_180_airplane_20_n02690373_6602.png,n02690373_6602.png,1.0,10.672882,5.5864015,3.596685
alexnet,1,730,NaN,chair,bear,180,0730_rot_dnn_180_bear_20_n02134418_200.png,n02134418_200.png,0.0,1.4172617,2.800511,-0.9781049
alexnet,1,731,NaN,car,car,0,0731_rot_dnn_0_car_20_n03100240_16084.png,n03100240_16084.png,1.0,14.944122,8.097865,4.841035
alexnet,1,732,NaN,chair,bear,270,0732_rot_dnn_270_bear_20_n02134084_18952.png,n02134084_18952.png,0.0,1.370194,2.8732479,-1.0628196
alexnet,1,733,NaN,bicycle,boat,90,0733_rot_dnn_90_boat_20_n04273569_1050.png,n04273569_1050.png,0.0,-1.1024857,8.316263,-6.6600614
alexnet,1,734,NaN,elephant,dog,0,0734_rot_dnn_0_dog_20_n02092339_659.png,n02092339_659.png,0.0,1.5280156,8.37562,-4.8419876
alexnet,1,735,NaN,elephant,elephant,0,0735_rot_dnn_0_elephant_20_n02504458_493.png,n02504458_493.png,1.0,20.18417,7.904456,8.683069
alexnet,1,736,NaN,chair,truck,90,0736_rot_dnn_90_truck_20_n03417042_9238.png,n03417042_9238.png,0.0,2.3320103,4.818999,-1.7585665
alexnet,1,737,NaN,clock,truck,90,0737_rot_dnn_90_truck_20_n04467665_8303.png,n04467665_8303.png,0.0,-0.27145535,4.264233,-3.207216
alexnet,1,738,NaN,cat,cat,270,0738_rot_dnn_270_cat_20_n02123394_6969.png,n02123394_6969.png,1.0,3.7121973,1.8270687,1.3329873
alexnet,1,739,NaN,bottle,bottle,90,0739_rot_dnn_90_bottle_20_n03983396_618.png,n03983396_618.png,1.0,5.710841,5.2645097,0.31560403
alexnet,1,740,NaN,elephant,elephant,0,0740_rot_dnn_0_elephant_20_n02504458_8621.png,n02504458_8621.png,1.0,16.865356,3.2813237,9.605362
alexnet,1,741,NaN,bicycle,bicycle,90,0741_rot_dnn_90_bicycle_20_n02835271_3308.png,n02835271_3308.png,1.0,6.6231565,3.253011,2.3830528
alexnet,1,742,NaN,bird,bird,90,0742_rot_dnn_90_bird_20_n02025239_17065.png,n02025239_17065.png,1.0,1.6560932,1.3686731,0.20323674
alexnet,1,743,NaN,clock,clock,0,0743_rot_dnn_0_clock_20_n04548280_4582.png,n04548280_4582.png,1.0,5.9463906,3.2544944,1.9034581
alexnet,1,744,NaN,keyboard,keyboard,180,0744_rot_dnn_180_keyboard_20_n04505470_933.png,n04505470_933.png,1.0,9.694412,5.1658554,3.2021732
alexnet,1,745,NaN,cat,cat,270,0745_rot_dnn_270_cat_20_n02123597_2549.png,n02123597_2549.png,1.0,7.7918644,5.3442907,1.730696
alexnet,1,746,NaN,chair,boat,90,0746_rot_dnn_90_boat_20_n04612504_30766.png,n04612504_30766.png,0.0,-0.017096281,4.5721283,-3.2450721
alexnet,1,747,NaN,knife,airplane,90,0747_rot_dnn_90_airplane_20_n02690373_4695.png,n02690373_4695.png,0.0,-2.1597733,3.1877759,-3.7812886
alexnet,1,748,NaN,oven,oven,0,0748_rot_dnn_0_oven_20_n04111531_18648.png,n04111531_18648.png,1.0,5.2143836,4.4717097,0.52514976
alexnet,1,749,NaN,bicycle,bicycle,180,0749_rot_dnn_180_bicycle_20_n02835271_14862.png,n02835271_14862.png,1.0,9.026397,3.7175577,3.753916
alexnet,1,750,NaN,oven,knife,180,0750_rot_dnn_180_knife_20_n03041632_101810.png,n03041632_101810.png,0.0,2.2579486,2.9143987,-0.4641803
alexnet,1,751,NaN,keyboard,keyboard,0,0751_rot_dnn_0_keyboard_20_n03085013_3795.png,n03085013_3795.png,1.0,9.807793,5.875815,2.7803283
alexnet,1,752,NaN,clock,clock,90,0752_rot_dnn_90_clock_20_n03196217_1458.png,n03196217_1458.png,1.0,6.86815,3.3947358,2.456075
alexnet,1,753,NaN,bear,bear,180,0753_rot_dnn_180_bear_20_n02134418_4458.png,n02134418_4458.png,1.0,7.331421,2.7213655,3.2598016
alexnet,1,754,NaN,cat,cat,180,0754_rot_dnn_180_cat_20_n02123045_11545.png,n02123045_11545.png,1.0,6.249931,2.5156467,2.6405377
alexnet,1,755,NaN,bird,bird,270,0755_rot_dnn_270_bird_20_n01592084_8100.png,n01592084_8100.png,1.0,4.142315,3.72652,0.29401135
