subj,session,trial,rt,object_response,category,condition,imagename,filename,is_correct,targ_act,max_nontarg_act,decision_margin
alexnet_w1_mlp_simclrhn_probe3,1,1,NaN,bicycle,chair,0,0001_rot_dnn_0_chair_20_n03376595_3070.png,n03376595_3070.png,0.0,1.3476872,2.9555058,-1.1368995
alexnet_w1_mlp_simclrhn_probe3,1,2,NaN,car,car,180,0002_rot_dnn_180_car_20_n02814533_29367.png,n02814533_29367.png,1.0,1.9287544,1.1852796,0.5257161
alexnet_w1_mlp_simclrhn_probe3,1,3,NaN,knife,car,270,0003_rot_dnn_270_car_20_n02814533_31083.png,n02814533_31083.png,0.0,-0.74571735,0.42028248,-0.82448643
alexnet_w1_mlp_simclrhn_probe3,1,4,NaN,truck,car,180,0004_rot_dnn_180_car_20_n03100240_1703.png,n03100240_1703.png,0.0,3.1054955,3.2681823,-0.11503696
alexnet_w1_mlp_simclrhn_probe3,1,5,NaN,keyboard,bottle,180,0005_rot_dnn_180_bottle_20_n04591713_2359.png,n04591713_2359.png,0.0,0.8731113,1.8312156,-0.67748207
alexnet_w1_mlp_simclrhn_probe3,1,6,NaN,cat,dog,90,0006_rot_dnn_90_dog_20_n02111500_8796.png,n02111500_8796.png,0.0,0.42927167,0.81105715,-0.26996312
alexnet_w1_mlp_simclrhn_probe3,1,7,NaN,oven,bear,180,0007_rot_dnn_180_bear_20_n02132136_4512.png,n02132136_4512.png,0.0,0.94795203,1.2588804,-0.21985954
alexnet_w1_mlp_simclrhn_probe3,1,8,NaN,chair,chair,90,0008_rot_dnn_90_chair_20_n03376595_4820.png,n03376595_4820.png,1.0,2.7732663,1.1462666,1.1504625
alexnet_w1_mlp_simclrhn_probe3,1,9,NaN,keyboard,bottle,270,0009_rot_dnn_270_bottle_20_n04591713_6111.png,n04591713_6111.png,0.0,1.1699562,2.994205,-1.2899387
alexnet_w1_mlp_simclrhn_probe3,1,10,NaN,chair,bottle,270,0010_rot_dnn_270_bottle_20_n04560804_14111.png,n04560804_14111.png,0.0,0.4288497,2.2391524,-1.2800773
alexnet_w1_mlp_simclrhn_probe3,1,11,NaN,bear,dog,0,0011_rot_dnn_0_dog_20_n02099601_8656.png,n02099601_8656.png,0.0,1.4737849,2.1208792,-0.45756474
alexnet_w1_mlp_simclrhn_probe3,1,12,NaN,cat,cat,0,0012_rot_dnn_0_cat_20_n02125311_14054.png,n02125311_14054.png,1.0,1.8646917,0.74983037,0.788326
alexnet_w1_mlp_simclrhn_probe3,1,13,NaN,bear,bear,0,0013_rot_dnn_0_bear_20_n02132136_10385.png,n02132136_10385.png,1.0,1.992363,0.78747976,0.8519811
alexnet_w1_mlp_simclrhn_probe3,1,14,NaN,knife,bottle,90,0014_rot_dnn_90_bottle_20_n02823428_10417.png,n02823428_10417.png,0.0,0.29745433,2.3034873,-1.4184796
alexnet_w1_mlp_simclrhn_probe3,1,15,NaN,knife,keyboard,0,0015_rot_dnn_0_keyboard_20_n03085013_23566.png,n03085013_23566.png,0.0,0.50167334,1.0502311,-0.3878889
alexnet_w1_mlp_simclrhn_probe3,1,16,NaN,oven,truck,90,0016_rot_dnn_90_truck_20_n03417042_12560.png,n03417042_12560.png,0.0,1.1641179,2.6698546,-1.0647167
alexnet_w1_mlp_simclrhn_probe3,1,17,NaN,boat,truck,180,0017_rot_dnn_180_truck_20_n04467665_69063.png,n04467665_69063.png,0.0,0.8250135,1.8337677,-0.7132969
alexnet_w1_mlp_simclrhn_probe3,1,18,NaN,oven,oven,180,0018_rot_dnn_180_oven_20_n04111531_9712.png,n04111531_9712.png,1.0,1.9519374,0.5163344,1.0151247
alexnet_w1_mlp_simclrhn_probe3,1,19,NaN,oven,oven,180,0019_rot_dnn_180_oven_20_n04111531_10375.png,n04111531_10375.png,1.0,6.3378587,1.7604134,3.2367425
alexnet_w1_mlp_simclrhn_probe3,1,20,NaN,keyboard,keyboard,0,0020_rot_dnn_0_keyboard_20_n04505470_1744.png,n04505470_1744.png,1.0,5.6267996,4.255247,0.9698341
alexnet_w1_mlp_simclrhn_probe3,1,21,NaN,bear,boat,90,0021_rot_dnn_90_boat_20_n04273569_7296.png,n04273569_7296.png,0.0,-0.8644932,0.40646237,-0.8987013
alexnet_w1_mlp_simclrhn_probe3,1,22,NaN,bear,dog,0,0022_rot_dnn_0_dog_20_n02101006_4807.png,n02101006_4807.png,0.0,2.3712056,3.0621753,-0.48858938
alexnet_w1_mlp_simclrhn_probe3,1,23,NaN,clock,clock,90,0023_rot_dnn_90_clock_20_n02708093_1986.png,n02708093_1986.png,1.0,10.260573,0.579469,6.845575
alexnet_w1_mlp_simclrhn_probe3,1,24,NaN,bottle,bottle,0,0024_rot_dnn_0_bottle_20_n04560804_15562.png,n04560804_15562.png,1.0,6.5111623,0.62216306,4.164151
alexnet_w1_mlp_simclrhn_probe3,1,25,NaN,cat,cat,0,0025_rot_dnn_0_cat_20_n02124075_13594.png,n02124075_13594.png,1.0,4.925127,0.64374435,3.0273948
alexnet_w1_mlp_simclrhn_probe3,1,26,NaN,bear,bear,90,0026_rot_dnn_90_bear_20_n02134418_4365.png,n02134418_4365.png,1.0,1.9666545,0.8826558,0.76650286
alexnet_w1_mlp_simclrhn_probe3,1,27,NaN,bear,bear,180,0027_rot_dnn_180_bear_20_n02132136_8650.png,n02132136_8650.png,1.0,1.7904091,0.52595264,0.8941058
alexnet_w1_mlp_simclrhn_probe3,1,28,NaN,airplane,bird,90,0028_rot_dnn_90_bird_20_n02009912_12219.png,n02009912_12219.png,0.0,0.87049735,1.56244,-0.4892774
alexnet_w1_mlp_simclrhn_probe3,1,29,NaN,clock,dog,90,0029_rot_dnn_90_dog_20_n02100236_1662.png,n02100236_1662.png,0.0,0.008154085,0.3990253,-0.2763877
alexnet_w1_mlp_simclrhn_probe3,1,30,NaN,clock,clock,90,0030_rot_dnn_90_clock_20_n04548280_1947.png,n04548280_1947.png,1.0,7.6509514,1.3183997,4.4777904
alexnet_w1_mlp_simclrhn_probe3,1,31,NaN,bird,dog,270,0031_rot_dnn_270_dog_20_n02109047_66167.png,n02109047_66167.png,0.0,0.68476593,0.76189095,-0.05453562
alexnet_w1_mlp_simclrhn_probe3,1,32,NaN,oven,oven,90,0032_rot_dnn_90_oven_20_n04111531_21055.png,n04111531_21055.png,1.0,6.5383415,2.9557617,2.5332665
alexnet_w1_mlp_simclrhn_probe3,1,33,NaN,clock,clock,0,0033_rot_dnn_0_clock_20_n02708093_2012.png,n02708093_2012.png,1.0,1.3995641,0.82835793,0.40390378
alexnet_w1_mlp_simclrhn_probe3,1,34,NaN,elephant,elephant,0,0034_rot_dnn_0_elephant_20_n02504458_6119.png,n02504458_6119.png,1.0,5.258605,2.879295,1.6824262
alexnet_w1_mlp_simclrhn_probe3,1,35,NaN,chair,chair,0,0035_rot_dnn_0_chair_20_n04099969_12707.png,n04099969_12707.png,1.0,6.9660597,2.205939,3.3659134
alexnet_w1_mlp_simclrhn_probe3,1,36,NaN,keyboard,keyboard,270,0036_rot_dnn_270_keyboard_20_n03085013_19054.png,n03085013_19054.png,1.0,1.5641578,0.5577061,0.71166885
alexnet_w1_mlp_simclrhn_probe3,1,37,NaN,chair,chair,0,0037_rot_dnn_0_chair_20_n02791124_422.png,n02791124_422.png,1.0,1.7085958,1.1233847,0.4138067
alexnet_w1_mlp_simclrhn_probe3,1,38,NaN,bicycle,bicycle,0,0038_rot_dnn_0_bicycle_20_n02835271_23830.png,n02835271_23830.png,1.0,15.786022,1.2674866,10.266155
alexnet_w1_mlp_simclrhn_probe3,1,39,NaN,airplane,bird,90,0039_rot_dnn_90_bird_20_n01534433_14735.png,n01534433_14735.png,0.0,0.44369626,0.5242982,-0.056994174
alexnet_w1_mlp_simclrhn_probe3,1,40,NaN,bird,bird,90,0040_rot_dnn_90_bird_20_n02011460_13994.png,n02011460_13994.png,1.0,1.3694057,0.08430555,0.9087031
alexnet_w1_mlp_simclrhn_probe3,1,41,NaN,knife,boat,270,0041_rot_dnn_270_boat_20_n04273569_17522.png,n04273569_17522.png,0.0,-0.9408618,-0.082194895,-0.6071692
alexnet_w1_mlp_simclrhn_probe3,1,42,NaN,cat,bear,180,0042_rot_dnn_180_bear_20_n02132136_5537.png,n02132136_5537.png,0.0,1.3456291,3.5177183,-1.5358989
alexnet_w1_mlp_simclrhn_probe3,1,43,NaN,bear,bear,90,0043_rot_dnn_90_bear_20_n02132136_19248.png,n02132136_19248.png,1.0,3.7541053,2.2741058,1.0465177
alexnet_w1_mlp_simclrhn_probe3,1,44,NaN,knife,bird,270,0044_rot_dnn_270_bird_20_n01537544_1886.png,n01537544_1886.png,0.0,0.30236867,0.50014997,-0.1398525
alexnet_w1_mlp_simclrhn_probe3,1,45,NaN,clock,clock,180,0045_rot_dnn_180_clock_20_n03196217_4776.png,n03196217_4776.png,1.0,1.6306165,1.509142,0.08589545
alexnet_w1_mlp_simclrhn_probe3,1,46,NaN,chair,boat,270,0046_rot_dnn_270_boat_20_n04612504_17610.png,n04612504_17610.png,0.0,-0.57928,0.9502548,-1.0815445
alexnet_w1_mlp_simclrhn_probe3,1,47,NaN,bear,bear,90,0047_rot_dnn_90_bear_20_n02134418_1814.png,n02134418_1814.png,1.0,1.7208768,1.4232931,0.21042345
alexnet_w1_mlp_simclrhn_probe3,1,48,NaN,keyboard,keyboard,180,0048_rot_dnn_180_keyboard_20_n03085013_20330.png,n03085013_20330.png,1.0,6.1704865,1.0230483,3.6397884
alexnet_w1_mlp_simclrhn_probe3,1,49,NaN,bottle,bottle,180,0049_rot_dnn_180_bottle_20_n02823428_14574.png,n02823428_14574.png,1.0,6.994308,2.0030181,3.529375
alexnet_w1_mlp_simclrhn_probe3,1,50,NaN,bicycle,bicycle,0,0050_rot_dnn_0_bicycle_20_n03792782_7105.png,n03792782_7105.png,1.0,5.4246073,1.0341827,3.104499
alexnet_w1_mlp_simclrhn_probe3,1,51,NaN,elephant,elephant,0,0051_rot_dnn_0_elephant_20_n02504458_1302.png,n02504458_1302.png,1.0,14.318284,4.5736847,6.8904724
alexnet_w1_mlp_simclrhn_probe3,1,52,NaN,clock,airplane,90,0052_rot_dnn_90_airplane_20_n02690373_3877.png,n02690373_3877.png,0.0,-0.8789613,0.48780203,-0.96644765
alexnet_w1_mlp_simclrhn_probe3,1,53,NaN,chair,boat,90,0053_rot_dnn_90_boat_20_n02951358_15422.png,n02951358_15422.png,0.0,0.14564328,1.9200312,-1.2546818
alexnet_w1_mlp_simclrhn_probe3,1,54,NaN,oven,car,270,0054_rot_dnn_270_car_20_n02814533_46458.png,n02814533_46458.png,0.0,0.495154,3.8649154,-2.3827813
alexnet_w1_mlp_simclrhn_probe3,1,55,NaN,car,car,0,0055_rot_dnn_0_car_20_n02814533_39547.png,n02814533_39547.png,1.0,10.811032,7.3731527,2.430948
alexnet_w1_mlp_simclrhn_probe3,1,56,NaN,boat,boat,180,0056_rot_dnn_180_boat_20_n04273569_6586.png,n04273569_6586.png,1.0,1.9691751,1.4278718,0.3827592
alexnet_w1_mlp_simclrhn_probe3,1,57,NaN,clock,clock,90,0057_rot_dnn_90_clock_20_n02708093_3394.png,n02708093_3394.png,1.0,1.3209385,0.9932593,0.23170416
alexnet_w1_mlp_simclrhn_probe3,1,58,NaN,keyboard,keyboard,180,0058_rot_dnn_180_keyboard_20_n03085013_25419.png,n03085013_25419.png,1.0,4.60699,1.9687979,1.8654834
alexnet_w1_mlp_simclrhn_probe3,1,59,NaN,knife,bottle,180,0059_rot_dnn_180_bottle_20_n04557648_1871.png,n04557648_1871.png,0.0,0.8396473,1.7029736,-0.6104639
alexnet_w1_mlp_simclrhn_probe3,1,60,NaN,oven,chair,90,0060_rot_dnn_90_chair_20_n04099969_6944.png,n04099969_6944.png,0.0,0.897729,3.0872364,-1.5482156
alexnet_w1_mlp_simclrhn_probe3,1,61,NaN,chair,boat,270,0061_rot_dnn_270_boat_20_n04273569_1495.png,n04273569_1495.png,0.0,0.3051204,1.9150031,-1.138359
alexnet_w1_mlp_simclrhn_probe3,1,62,NaN,keyboard,keyboard,90,0062_rot_dnn_90_keyboard_20_n03085013_7317.png,n03085013_7317.png,1.0,3.021874,0.43703985,1.8277538
alexnet_w1_mlp_simclrhn_probe3,1,63,NaN,knife,knife,90,0063_rot_dnn_90_knife_20_n03041632_7448.png,n03041632_7448.png,1.0,1.2791185,1.0126896,0.18839371
alexnet_w1_mlp_simclrhn_probe3,1,64,NaN,truck,truck,0,0064_rot_dnn_0_truck_20_n03417042_11000.png,n03417042_11000.png,1.0,2.6156824,1.4635218,0.81470054
alexnet_w1_mlp_simclrhn_probe3,1,65,NaN,bird,bird,0,0065_rot_dnn_0_bird_20_n01582220_8827.png,n01582220_8827.png,1.0,2.5063837,0.36234924,1.5160613
alexnet_w1_mlp_simclrhn_probe3,1,66,NaN,chair,airplane,270,0066_rot_dnn_270_airplane_20_n02690373_9247.png,n02690373_9247.png,0.0,-0.88531506,1.5010531,-1.6874173
alexnet_w1_mlp_simclrhn_probe3,1,67,NaN,cat,bear,270,0067_rot_dnn_270_bear_20_n02133161_14397.png,n02133161_14397.png,0.0,2.1006396,2.419865,-0.22572638
alexnet_w1_mlp_simclrhn_probe3,1,68,NaN,oven,oven,270,0068_rot_dnn_270_oven_20_n04111531_13560.png,n04111531_13560.png,1.0,3.6035514,1.5720383,1.4364969
alexnet_w1_mlp_simclrhn_probe3,1,69,NaN,bear,bear,180,0069_rot_dnn_180_bear_20_n02132136_545.png,n02132136_545.png,1.0,0.77046376,0.34925404,0.29784027
alexnet_w1_mlp_simclrhn_probe3,1,70,NaN,elephant,cat,90,0070_rot_dnn_90_cat_20_n02125311_73072.png,n02125311_73072.png,0.0,0.85208565,4.128353,-2.3166711
alexnet_w1_mlp_simclrhn_probe3,1,71,NaN,bicycle,bicycle,0,0071_rot_dnn_0_bicycle_20_n03792782_30530.png,n03792782_30530.png,1.0,6.1144614,2.8082883,2.3378174
alexnet_w1_mlp_simclrhn_probe3,1,72,NaN,knife,knife,90,0072_rot_dnn_90_knife_20_n03041632_4975.png,n03041632_4975.png,1.0,1.2240651,1.0379071,0.13163355
alexnet_w1_mlp_simclrhn_probe3,1,73,NaN,chair,dog,90,0073_rot_dnn_90_dog_20_n02107683_3120.png,n02107683_3120.png,0.0,0.026503352,0.85676444,-0.5870833
alexnet_w1_mlp_simclrhn_probe3,1,74,NaN,bear,elephant,90,0074_rot_dnn_90_elephant_20_n02504013_7316.png,n02504013_7316.png,0.0,-0.1699181,0.8205445,-0.70036286
alexnet_w1_mlp_simclrhn_probe3,1,75,NaN,chair,truck,90,0075_rot_dnn_90_truck_20_n03796401_7284.png,n03796401_7284.png,0.0,-0.012977112,1.757007,-1.2515678
alexnet_w1_mlp_simclrhn_probe3,1,76,NaN,chair,chair,270,0076_rot_dnn_270_chair_20_n03376595_497.png,n03376595_497.png,1.0,2.2130256,2.1157413,0.0687904
alexnet_w1_mlp_simclrhn_probe3,1,77,NaN,chair,truck,270,0077_rot_dnn_270_truck_20_n03796401_19845.png,n03796401_19845.png,0.0,2.529097,2.809682,-0.19840343
alexnet_w1_mlp_simclrhn_probe3,1,78,NaN,knife,chair,90,0078_rot_dnn_90_chair_20_n04099969_1941.png,n04099969_1941.png,0.0,1.1357045,1.25449,-0.08399403
alexnet_w1_mlp_simclrhn_probe3,1,79,NaN,chair,truck,90,0079_rot_dnn_90_truck_20_n03417042_28886.png,n03417042_28886.png,0.0,1.3152738,1.6816015,-0.25903285
alexnet_w1_mlp_simclrhn_probe3,1,80,NaN,car,car,0,0080_rot_dnn_0_car_20_n02814533_12185.png,n02814533_12185.png,1.0,4.7310157,1.516512,2.2729974
alexnet_w1_mlp_simclrhn_probe3,1,81,NaN,bicycle,bicycle,90,0081_rot_dnn_90_bicycle_20_n02835271_1621.png,n02835271_1621.png,1.0,2.189393,2.0751665,0.08077039
alexnet_w1_mlp_simclrhn_probe3,1,82,NaN,cat,cat,0,0082_rot_dnn_0_cat_20_n02123597_32226.png,n02123597_32226.png,1.0,4.090297,2.154457,1.3688457
alexnet_w1_mlp_simclrhn_probe3,1,83,NaN,bicycle,bicycle,90,0083_rot_dnn_90_bicycle_20_n03792782_5048.png,n03792782_5048.png,1.0,0.80848944,0.55702364,0.17781317
alexnet_w1_mlp_simclrhn_probe3,1,84,NaN,airplane,airplane,0,0084_rot_dnn_0_airplane_20_n02690373_10044.png,n02690373_10044.png,1.0,13.026812,4.5439024,5.9983225
alexnet_w1_mlp_simclrhn_probe3,1,85,NaN,car,car,180,0085_rot_dnn_180_car_20_n03100240_5752.png,n03100240_5752.png,1.0,3.519595,2.8133729,0.49937442
alexnet_w1_mlp_simclrhn_probe3,1,86,NaN,bottle,car,90,0086_rot_dnn_90_car_20_n02814533_68219.png,n02814533_68219.png,0.0,0.22592156,1.2210418,-0.70365626
alexnet_w1_mlp_simclrhn_probe3,1,87,NaN,airplane,airplane,0,0087_rot_dnn_0_airplane_20_n02690373_1171.png,n02690373_1171.png,1.0,3.6531448,2.852931,0.5658366
alexnet_w1_mlp_simclrhn_probe3,1,88,NaN,chair,bird,90,0088_rot_dnn_90_bird_20_n01817953_6970.png,n01817953_6970.png,0.0,0.33369422,1.3272281,-0.70253456
alexnet_w1_mlp_simclrhn_probe3,1,89,NaN,chair,car,90,0089_rot_dnn_90_car_20_n04285008_15503.png,n04285008_15503.png,0.0,0.34545183,2.6523085,-1.631194
alexnet_w1_mlp_simclrhn_probe3,1,90,NaN,clock,boat,270,0090_rot_dnn_270_boat_20_n03344393_11886.png,n03344393_11886.png,0.0,0.23043135,0.61865234,-0.2745137
alexnet_w1_mlp_simclrhn_probe3,1,91,NaN,boat,boat,0,0091_rot_dnn_0_boat_20_n04273569_30203.png,n04273569_30203.png,1.0,5.626118,2.7885818,2.006441
alexnet_w1_mlp_simclrhn_probe3,1,92,NaN,keyboard,keyboard,180,0092_rot_dnn_180_keyboard_20_n03085013_22069.png,n03085013_22069.png,1.0,6.397442,0.6158382,4.0882115
alexnet_w1_mlp_simclrhn_probe3,1,93,NaN,airplane,knife,0,0093_rot_dnn_0_knife_20_n03041632_26314.png,n03041632_26314.png,0.0,1.4887028,2.436412,-0.6701317
alexnet_w1_mlp_simclrhn_probe3,1,94,NaN,oven,bicycle,270,0094_rot_dnn_270_bicycle_20_n03792782_18308.png,n03792782_18308.png,0.0,0.79546976,1.4850585,-0.4876129
alexnet_w1_mlp_simclrhn_probe3,1,95,NaN,airplane,car,180,0095_rot_dnn_180_car_20_n04285008_8396.png,n04285008_8396.png,0.0,2.9738739,4.021353,-0.74067944
alexnet_w1_mlp_simclrhn_probe3,1,96,NaN,oven,bear,90,0096_rot_dnn_90_bear_20_n02133161_12349.png,n02133161_12349.png,0.0,0.72934747,1.750854,-0.72231424
alexnet_w1_mlp_simclrhn_probe3,1,97,NaN,bear,bear,270,0097_rot_dnn_270_bear_20_n02132136_18303.png,n02132136_18303.png,1.0,4.2899323,3.1090147,0.8350348
alexnet_w1_mlp_simclrhn_probe3,1,98,NaN,cat,cat,180,0098_rot_dnn_180_cat_20_n02123394_6853.png,n02123394_6853.png,1.0,4.6934032,1.1127818,2.5318818
alexnet_w1_mlp_simclrhn_probe3,1,99,NaN,knife,cat,180,0099_rot_dnn_180_cat_20_n02123597_4805.png,n02123597_4805.png,0.0,0.122371435,2.1343303,-1.4226698
alexnet_w1_mlp_simclrhn_probe3,1,100,NaN,clock,car,0,0100_rot_dnn_0_car_20_n03100240_17587.png,n03100240_17587.png,0.0,-0.21833134,1.0322832,-0.88431805
alexnet_w1_mlp_simclrhn_probe3,1,101,NaN,oven,bird,180,0101_rot_dnn_180_bird_20_n01601694_19236.png,n01601694_19236.png,0.0,0.54833955,0.9303998,-0.2701574
alexnet_w1_mlp_simclrhn_probe3,1,102,NaN,cat,cat,0,0102_rot_dnn_0_cat_20_n02123597_2341.png,n02123597_2341.png,1.0,5.9204917,1.296395,3.2697303
alexnet_w1_mlp_simclrhn_probe3,1,103,NaN,bear,elephant,270,0103_rot_dnn_270_elephant_20_n02504013_7883.png,n02504013_7883.png,0.0,0.62209785,1.3275985,-0.49886426
alexnet_w1_mlp_simclrhn_probe3,1,104,NaN,bicycle,chair,270,0104_rot_dnn_270_chair_20_n03376595_14240.png,n03376595_14240.png,0.0,-0.7733644,1.6330861,-1.7016175
alexnet_w1_mlp_simclrhn_probe3,1,105,NaN,airplane,airplane,0,0105_rot_dnn_0_airplane_20_n02690373_10188.png,n02690373_10188.png,1.0,6.020814,3.4843814,1.7935287
alexnet_w1_mlp_simclrhn_probe3,1,106,NaN,chair,truck,90,0106_rot_dnn_90_truck_20_n03417042_8634.png,n03417042_8634.png,0.0,1.2029133,3.2595115,-1.4542346
alexnet_w1_mlp_simclrhn_probe3,1,107,NaN,knife,knife,90,0107_rot_dnn_90_knife_20_n03041632_32774.png,n03041632_32774.png,1.0,1.1722964,0.64062274,0.37595007
alexnet_w1_mlp_simclrhn_probe3,1,108,NaN,knife,bottle,90,0108_rot_dnn_90_bottle_20_n03983396_4115.png,n03983396_4115.png,0.0,1.1870886,2.6143682,-1.0092391
alexnet_w1_mlp_simclrhn_probe3,1,109,NaN,clock,clock,270,0109_rot_dnn_270_clock_20_n04548280_8552.png,n04548280_8552.png,1.0,3.1051853,2.4077842,0.49313703
alexnet_w1_mlp_simclrhn_probe3,1,110,NaN,car,car,0,0110_rot_dnn_0_car_20_n02814533_6233.png,n02814533_6233.png,1.0,13.561671,1.181774,8.753909
alexnet_w1_mlp_simclrhn_probe3,1,111,NaN,elephant,elephant,0,0111_rot_dnn_0_elephant_20_n02504458_9870.png,n02504458_9870.png,1.0,6.416418,3.388803,2.1408472
alexnet_w1_mlp_simclrhn_probe3,1,112,NaN,bicycle,bicycle,270,0112_rot_dnn_270_bicycle_20_n02835271_3956.png,n02835271_3956.png,1.0,4.2034693,1.6531173,1.8033713
alexnet_w1_mlp_simclrhn_probe3,1,113,NaN,chair,knife,90,0113_rot_dnn_90_knife_20_n03041632_14817.png,n03041632_14817.png,0.0,1.4268025,2.232129,-0.56945187
alexnet_w1_mlp_simclrhn_probe3,1,114,NaN,oven,chair,90,0114_rot_dnn_90_chair_20_n04099969_8642.png,n04099969_8642.png,0.0,0.62689304,2.193419,-1.1077012
alexnet_w1_mlp_simclrhn_probe3,1,115,NaN,clock,clock,0,0115_rot_dnn_0_clock_20_n02708093_240.png,n02708093_240.png,1.0,3.3568637,1.517393,1.3007022
alexnet_w1_mlp_simclrhn_probe3,1,116,NaN,bear,bear,180,0116_rot_dnn_180_bear_20_n02133161_3896.png,n02133161_3896.png,1.0,2.1301384,1.1132219,0.7190686
alexnet_w1_mlp_simclrhn_probe3,1,117,NaN,bicycle,bottle,270,0117_rot_dnn_270_bottle_20_n04557648_11000.png,n04557648_11000.png,0.0,0.54376537,0.68074596,-0.09685991
alexnet_w1_mlp_simclrhn_probe3,1,118,NaN,clock,keyboard,90,0118_rot_dnn_90_keyboard_20_n03085013_2853.png,n03085013_2853.png,0.0,1.7548634,4.03293,-1.6108364
alexnet_w1_mlp_simclrhn_probe3,1,119,NaN,oven,boat,90,0119_rot_dnn_90_boat_20_n04273569_7097.png,n04273569_7097.png,0.0,-0.11824884,0.82327783,-0.66575986
alexnet_w1_mlp_simclrhn_probe3,1,120,NaN,bicycle,bicycle,270,0120_rot_dnn_270_bicycle_20_n03792782_40932.png,n03792782_40932.png,1.0,3.794688,1.1953305,1.8380234
alexnet_w1_mlp_simclrhn_probe3,1,121,NaN,chair,chair,270,0121_rot_dnn_270_chair_20_n04429376_44914.png,n04429376_44914.png,1.0,3.5135698,3.1596723,0.25024337
alexnet_w1_mlp_simclrhn_probe3,1,122,NaN,knife,bear,180,0122_rot_dnn_180_bear_20_n02134418_2122.png,n02134418_2122.png,0.0,0.083460376,1.1472149,-0.7521881
alexnet_w1_mlp_simclrhn_probe3,1,123,NaN,knife,keyboard,90,0123_rot_dnn_90_keyboard_20_n03085013_22704.png,n03085013_22704.png,0.0,1.3609974,1.8979173,-0.37965965
alexnet_w1_mlp_simclrhn_probe3,1,124,NaN,truck,truck,0,0124_rot_dnn_0_truck_20_n03417042_6838.png,n03417042_6838.png,1.0,3.6595595,0.7240185,2.0757408
alexnet_w1_mlp_simclrhn_probe3,1,125,NaN,elephant,elephant,0,0125_rot_dnn_0_elephant_20_n02504458_3628.png,n02504458_3628.png,1.0,9.581568,3.7111855,4.150987
alexnet_w1_mlp_simclrhn_probe3,1,126,NaN,cat,cat,90,0126_rot_dnn_90_cat_20_n02123597_10141.png,n02123597_10141.png,1.0,3.721631,1.4178572,1.6290141
alexnet_w1_mlp_simclrhn_probe3,1,127,NaN,bicycle,bicycle,0,0127_rot_dnn_0_bicycle_20_n02835271_6383.png,n02835271_6383.png,1.0,8.721415,0.83892375,5.573763
alexnet_w1_mlp_simclrhn_probe3,1,128,NaN,oven,car,180,0128_rot_dnn_180_car_20_n04285008_7154.png,n04285008_7154.png,0.0,0.9461264,1.9225117,-0.69040865
alexnet_w1_mlp_simclrhn_probe3,1,129,NaN,airplane,bird,0,0129_rot_dnn_0_bird_20_n02007558_1068.png,n02007558_1068.png,0.0,0.40364677,2.0112567,-1.1367519
alexnet_w1_mlp_simclrhn_probe3,1,130,NaN,bird,cat,90,0130_rot_dnn_90_cat_20_n02125311_1896.png,n02125311_1896.png,0.0,0.20146205,0.59739816,-0.27996913
alexnet_w1_mlp_simclrhn_probe3,1,131,NaN,keyboard,keyboard,0,0131_rot_dnn_0_keyboard_20_n04505470_1903.png,n04505470_1903.png,1.0,15.574032,1.5759665,9.898127
alexnet_w1_mlp_simclrhn_probe3,1,132,NaN,knife,bicycle,90,0132_rot_dnn_90_bicycle_20_n03792782_66159.png,n03792782_66159.png,0.0,0.7052169,0.8297075,-0.08802816
alexnet_w1_mlp_simclrhn_probe3,1,133,NaN,bear,bear,90,0133_rot_dnn_90_bear_20_n02134418_5219.png,n02134418_5219.png,1.0,4.2981524,2.2069385,1.4787116
alexnet_w1_mlp_simclrhn_probe3,1,134,NaN,chair,car,90,0134_rot_dnn_90_car_20_n02814533_92229.png,n02814533_92229.png,0.0,1.6713333,2.5585318,-0.6273441
alexnet_w1_mlp_simclrhn_probe3,1,135,NaN,cat,dog,90,0135_rot_dnn_90_dog_20_n02090721_1002.png,n02090721_1002.png,0.0,-0.14170663,1.174851,-0.93094677
alexnet_w1_mlp_simclrhn_probe3,1,136,NaN,chair,truck,270,0136_rot_dnn_270_truck_20_n04467665_46263.png,n04467665_46263.png,0.0,0.22527614,1.1717284,-0.6692428
alexnet_w1_mlp_simclrhn_probe3,1,137,NaN,bottle,bottle,180,0137_rot_dnn_180_bottle_20_n03983396_704.png,n03983396_704.png,1.0,1.7118971,1.6006988,0.07862908
alexnet_w1_mlp_simclrhn_probe3,1,138,NaN,oven,truck,180,0138_rot_dnn_180_truck_20_n03796401_4149.png,n03796401_4149.png,0.0,-0.25160784,2.350761,-1.8401526
alexnet_w1_mlp_simclrhn_probe3,1,139,NaN,bird,bird,0,0139_rot_dnn_0_bird_20_n02006656_2030.png,n02006656_2030.png,1.0,5.0553765,0.27324417,3.381478
alexnet_w1_mlp_simclrhn_probe3,1,140,NaN,cat,cat,90,0140_rot_dnn_90_cat_20_n02123394_234.png,n02123394_234.png,1.0,1.7434355,0.39806342,0.9513217
alexnet_w1_mlp_simclrhn_probe3,1,141,NaN,oven,chair,90,0141_rot_dnn_90_chair_20_n04429376_19916.png,n04429376_19916.png,0.0,1.6426038,5.88564,-3.0002797
alexnet_w1_mlp_simclrhn_probe3,1,142,NaN,bottle,truck,270,0142_rot_dnn_270_truck_20_n04467665_14024.png,n04467665_14024.png,0.0,1.2020311,2.9433079,-1.2312686
alexnet_w1_mlp_simclrhn_probe3,1,143,NaN,keyboard,chair,90,0143_rot_dnn_90_chair_20_n04429376_14729.png,n04429376_14729.png,0.0,0.09216578,8.111543,-5.6705556
alexnet_w1_mlp_simclrhn_probe3,1,144,NaN,clock,car,270,0144_rot_dnn_270_car_20_n02814533_82321.png,n02814533_82321.png,0.0,0.54654884,1.2826166,-0.52047855
alexnet_w1_mlp_simclrhn_probe3,1,145,NaN,clock,clock,180,0145_rot_dnn_180_clock_20_n04548280_3701.png,n04548280_3701.png,1.0,1.7573093,0.32905585,1.0099277
alexnet_w1_mlp_simclrhn_probe3,1,146,NaN,knife,boat,270,0146_rot_dnn_270_boat_20_n02951358_11442.png,n02951358_11442.png,0.0,-0.5423145,0.091152824,-0.44792908
alexnet_w1_mlp_simclrhn_probe3,1,147,NaN,bear,bear,90,0147_rot_dnn_90_bear_20_n02132136_17349.png,n02132136_17349.png,1.0,4.04451,1.4658227,1.8234072
alexnet_w1_mlp_simclrhn_probe3,1,148,NaN,oven,airplane,90,0148_rot_dnn_90_airplane_20_n02690373_4982.png,n02690373_4982.png,0.0,0.5024071,2.176487,-1.1837533
alexnet_w1_mlp_simclrhn_probe3,1,149,NaN,boat,airplane,0,0149_rot_dnn_0_airplane_20_n02690373_2232.png,n02690373_2232.png,0.0,1.766062,3.296208,-1.0819765
alexnet_w1_mlp_simclrhn_probe3,1,150,NaN,cat,cat,180,0150_rot_dnn_180_cat_20_n02123045_909.png,n02123045_909.png,1.0,0.84927106,0.12856682,0.5096149
alexnet_w1_mlp_simclrhn_probe3,1,151,NaN,keyboard,clock,180,0151_rot_dnn_180_clock_20_n04548280_1190.png,n04548280_1190.png,0.0,3.218007,4.7093763,-1.0545573
alexnet_w1_mlp_simclrhn_probe3,1,152,NaN,oven,oven,90,0152_rot_dnn_90_oven_20_n04111531_1855.png,n04111531_1855.png,1.0,3.7135677,0.9864758,1.9283451
alexnet_w1_mlp_simclrhn_probe3,1,153,NaN,chair,boat,270,0153_rot_dnn_270_boat_20_n03662601_21408.png,n03662601_21408.png,0.0,0.9334693,2.798623,-1.3188629
alexnet_w1_mlp_simclrhn_probe3,1,154,NaN,knife,dog,90,0154_rot_dnn_90_dog_20_n02088364_15877.png,n02088364_15877.png,0.0,0.020906791,0.26442587,-0.172194
alexnet_w1_mlp_simclrhn_probe3,1,155,NaN,airplane,knife,90,0155_rot_dnn_90_knife_20_n03041632_15250.png,n03041632_15250.png,0.0,0.72910225,1.3351578,-0.42854595
alexnet_w1_mlp_simclrhn_probe3,1,156,NaN,oven,oven,0,0156_rot_dnn_0_oven_20_n04111531_17006.png,n04111531_17006.png,1.0,3.9454055,1.6348351,1.6338199
alexnet_w1_mlp_simclrhn_probe3,1,157,NaN,clock,clock,90,0157_rot_dnn_90_clock_20_n04548280_11763.png,n04548280_11763.png,1.0,2.9984248,0.75529045,1.5861355
alexnet_w1_mlp_simclrhn_probe3,1,158,NaN,bird,bird,270,0158_rot_dnn_270_bird_20_n02028035_8327.png,n02028035_8327.png,1.0,0.9135791,0.21915054,0.49103516
alexnet_w1_mlp_simclrhn_probe3,1,159,NaN,bicycle,car,90,0159_rot_dnn_90_car_20_n04285008_5641.png,n04285008_5641.png,0.0,0.27179393,0.8855957,-0.43402335
alexnet_w1_mlp_simclrhn_probe3,1,160,NaN,clock,oven,90,0160_rot_dnn_90_oven_20_n04111531_10727.png,n04111531_10727.png,0.0,0.93846935,3.1980464,-1.5977622
alexnet_w1_mlp_simclrhn_probe3,1,161,NaN,bear,elephant,270,0161_rot_dnn_270_elephant_20_n02504458_1971.png,n02504458_1971.png,0.0,0.7321558,0.9735296,-0.17067704
alexnet_w1_mlp_simclrhn_probe3,1,162,NaN,bottle,bottle,180,0162_rot_dnn_180_bottle_20_n04560804_15941.png,n04560804_15941.png,1.0,5.1459537,1.1302147,2.8395562
alexnet_w1_mlp_simclrhn_probe3,1,163,NaN,elephant,elephant,0,0163_rot_dnn_0_elephant_20_n02504458_151.png,n02504458_151.png,1.0,19.694286,7.807417,8.405286
alexnet_w1_mlp_simclrhn_probe3,1,164,NaN,bear,bear,180,0164_rot_dnn_180_bear_20_n02133161_15427.png,n02133161_15427.png,1.0,2.7322607,1.5553826,0.8321785
alexnet_w1_mlp_simclrhn_probe3,1,165,NaN,elephant,bear,180,0165_rot_dnn_180_bear_20_n02134084_20605.png,n02134084_20605.png,0.0,1.0956873,1.7117035,-0.43558928
alexnet_w1_mlp_simclrhn_probe3,1,166,NaN,bottle,bottle,90,0166_rot_dnn_90_bottle_20_n04560804_2693.png,n04560804_2693.png,1.0,0.38984472,0.30711696,0.05849736
alexnet_w1_mlp_simclrhn_probe3,1,167,NaN,clock,airplane,270,0167_rot_dnn_270_airplane_20_n02690373_8214.png,n02690373_8214.png,0.0,-0.86992216,2.70331,-2.5266566
alexnet_w1_mlp_simclrhn_probe3,1,168,NaN,boat,boat,0,0168_rot_dnn_0_boat_20_n02951358_14966.png,n02951358_14966.png,1.0,4.193114,1.6687756,1.7849767
alexnet_w1_mlp_simclrhn_probe3,1,169,NaN,knife,knife,90,0169_rot_dnn_90_knife_20_n03041632_14801.png,n03041632_14801.png,1.0,0.30071786,0.10019742,0.14178936
alexnet_w1_mlp_simclrhn_probe3,1,170,NaN,knife,dog,90,0170_rot_dnn_90_dog_20_n02110063_8776.png,n02110063_8776.png,0.0,0.4092235,0.7179187,-0.21828046
alexnet_w1_mlp_simclrhn_probe3,1,171,NaN,bicycle,dog,180,0171_rot_dnn_180_dog_20_n02100236_7671.png,n02100236_7671.png,0.0,-0.12971264,1.2377502,-0.9669423
alexnet_w1_mlp_simclrhn_probe3,1,172,NaN,oven,oven,0,0172_rot_dnn_0_oven_20_n04111531_21248.png,n04111531_21248.png,1.0,2.662117,0.40356952,1.5970343
alexnet_w1_mlp_simclrhn_probe3,1,173,NaN,oven,knife,270,0173_rot_dnn_270_knife_20_n03041632_17100.png,n03041632_17100.png,0.0,0.57228166,3.2370784,-1.884296
alexnet_w1_mlp_simclrhn_probe3,1,174,NaN,oven,knife,0,0174_rot_dnn_0_knife_20_n03041632_3781.png,n03041632_3781.png,0.0,1.1399081,2.3249605,-0.8379586
alexnet_w1_mlp_simclrhn_probe3,1,175,NaN,chair,oven,270,0175_rot_dnn_270_oven_20_n04111531_46651.png,n04111531_46651.png,0.0,1.2774595,4.1663437,-2.0427496
alexnet_w1_mlp_simclrhn_probe3,1,176,NaN,clock,clock,0,0176_rot_dnn_0_clock_20_n04548280_8303.png,n04548280_8303.png,1.0,0.8801605,0.78356254,0.06830508
alexnet_w1_mlp_simclrhn_probe3,1,177,NaN,airplane,airplane,0,0177_rot_dnn_0_airplane_20_n02690373_2070.png,n02690373_2070.png,1.0,9.743881,0.6926217,6.4002075
alexnet_w1_mlp_simclrhn_probe3,1,178,NaN,airplane,car,180,0178_rot_dnn_180_car_20_n03100240_574.png,n03100240_574.png,0.0,1.1863955,2.0252504,-0.59316003
alexnet_w1_mlp_simclrhn_probe3,1,179,NaN,bear,dog,90,0179_rot_dnn_90_dog_20_n02095570_11263.png,n02095570_11263.png,0.0,-0.029848868,0.8802687,-0.64355034
alexnet_w1_mlp_simclrhn_probe3,1,180,NaN,oven,bottle,180,0180_rot_dnn_180_bottle_20_n03983396_9667.png,n03983396_9667.png,0.0,1.3256953,1.7661296,-0.31143412
alexnet_w1_mlp_simclrhn_probe3,1,181,NaN,clock,clock,0,0181_rot_dnn_0_clock_20_n02708093_3535.png,n02708093_3535.png,1.0,7.5675178,6.150483,1.0019948
alexnet_w1_mlp_simclrhn_probe3,1,182,NaN,bird,bird,180,0182_rot_dnn_180_bird_20_n01531178_17239.png,n01531178_17239.png,1.0,1.3638829,0.3031527,0.75004953
alexnet_w1_mlp_simclrhn_probe3,1,183,NaN,elephant,elephant,180,0183_rot_dnn_180_elephant_20_n02504458_2272.png,n02504458_2272.png,1.0,2.4813886,0.79765874,1.1905768
alexnet_w1_mlp_simclrhn_probe3,1,184,NaN,knife,knife,90,0184_rot_dnn_90_knife_20_n03041632_50648.png,n03041632_50648.png,1.0,2.4837232,0.81454223,1.1802891
alexnet_w1_mlp_simclrhn_probe3,1,185,NaN,knife,knife,0,0185_rot_dnn_0_knife_20_n03041632_33225.png,n03041632_33225.png,1.0,1.2754076,0.640496,0.44895026
alexnet_w1_mlp_simclrhn_probe3,1,186,NaN,airplane,airplane,0,0186_rot_dnn_0_airplane_20_n02690373_736.png,n02690373_736.png,1.0,12.904144,3.0519729,6.966537
alexnet_w1_mlp_simclrhn_probe3,1,187,NaN,bottle,knife,270,0187_rot_dnn_270_knife_20_n03041632_2546.png,n03041632_2546.png,0.0,1.103363,1.3120774,-0.14758335
alexnet_w1_mlp_simclrhn_probe3,1,188,NaN,boat,boat,180,0188_rot_dnn_180_boat_20_n04273569_13053.png,n04273569_13053.png,1.0,7.0402136,3.7690706,2.3130474
alexnet_w1_mlp_simclrhn_probe3,1,189,NaN,airplane,airplane,180,0189_rot_dnn_180_airplane_20_n02690373_3588.png,n02690373_3588.png,1.0,1.3525407,0.95994884,0.2776044
alexnet_w1_mlp_simclrhn_probe3,1,190,NaN,cat,keyboard,0,0190_rot_dnn_0_keyboard_20_n03085013_21004.png,n03085013_21004.png,0.0,0.08060035,4.99771,-3.4769218
alexnet_w1_mlp_simclrhn_probe3,1,191,NaN,boat,boat,180,0191_rot_dnn_180_boat_20_n03662601_16627.png,n03662601_16627.png,1.0,1.5599399,1.527143,0.023190882
alexnet_w1_mlp_simclrhn_probe3,1,192,NaN,bird,bird,180,0192_rot_dnn_180_bird_20_n02017213_6478.png,n02017213_6478.png,1.0,1.8586378,0.7998343,0.7486872
alexnet_w1_mlp_simclrhn_probe3,1,193,NaN,bear,bear,90,0193_rot_dnn_90_bear_20_n02134418_998.png,n02134418_998.png,1.0,1.4814082,0.3643516,0.7898783
alexnet_w1_mlp_simclrhn_probe3,1,194,NaN,bicycle,truck,90,0194_rot_dnn_90_truck_20_n04467665_71055.png,n04467665_71055.png,0.0,0.7537848,2.3582919,-1.1345578
alexnet_w1_mlp_simclrhn_probe3,1,195,NaN,knife,car,90,0195_rot_dnn_90_car_20_n02814533_23979.png,n02814533_23979.png,0.0,0.016920969,1.2315098,-0.85884404
alexnet_w1_mlp_simclrhn_probe3,1,196,NaN,bear,elephant,180,0196_rot_dnn_180_elephant_20_n02504458_6805.png,n02504458_6805.png,0.0,0.984797,1.4037251,-0.29622695
alexnet_w1_mlp_simclrhn_probe3,1,197,NaN,clock,clock,90,0197_rot_dnn_90_clock_20_n04548280_4841.png,n04548280_4841.png,1.0,1.5400925,0.57890934,0.6796591
alexnet_w1_mlp_simclrhn_probe3,1,198,NaN,chair,boat,90,0198_rot_dnn_90_boat_20_n03662601_6832.png,n03662601_6832.png,0.0,0.33857316,1.0442951,-0.49902076
alexnet_w1_mlp_simclrhn_probe3,1,199,NaN,oven,oven,270,0199_rot_dnn_270_oven_20_n04111531_766.png,n04111531_766.png,1.0,4.5438685,0.8301171,2.6260188
alexnet_w1_mlp_simclrhn_probe3,1,200,NaN,bird,clock,0,0200_rot_dnn_0_clock_20_n04548280_1305.png,n04548280_1305.png,0.0,-0.33970562,0.28382838,-0.4409051
alexnet_w1_mlp_simclrhn_probe3,1,201,NaN,bicycle,bicycle,0,0201_rot_dnn_0_bicycle_20_n03792782_19083.png,n03792782_19083.png,1.0,9.08344,1.4132721,5.423628
alexnet_w1_mlp_simclrhn_probe3,1,202,NaN,oven,bird,90,0202_rot_dnn_90_bird_20_n01860187_20081.png,n01860187_20081.png,0.0,0.03377763,0.93490446,-0.6371929
alexnet_w1_mlp_simclrhn_probe3,1,203,NaN,oven,oven,0,0203_rot_dnn_0_oven_20_n04111531_4817.png,n04111531_4817.png,1.0,1.5817201,1.3270719,0.18006347
alexnet_w1_mlp_simclrhn_probe3,1,204,NaN,car,car,180,0204_rot_dnn_180_car_20_n02814533_33360.png,n02814533_33360.png,1.0,1.8277243,0.74006665,0.7690901
alexnet_w1_mlp_simclrhn_probe3,1,205,NaN,clock,clock,270,0205_rot_dnn_270_clock_20_n04548280_4035.png,n04548280_4035.png,1.0,3.9626467,2.1596036,1.2749441
alexnet_w1_mlp_simclrhn_probe3,1,206,NaN,keyboard,keyboard,270,0206_rot_dnn_270_keyboard_20_n03085013_7879.png,n03085013_7879.png,1.0,2.9360704,1.5870415,0.95390755
alexnet_w1_mlp_simclrhn_probe3,1,207,NaN,airplane,airplane,0,0207_rot_dnn_0_airplane_20_n02690373_2598.png,n02690373_2598.png,1.0,9.411975,3.5483537,4.1462064
alexnet_w1_mlp_simclrhn_probe3,1,208,NaN,cat,cat,180,0208_rot_dnn_180_cat_20_n02123045_436.png,n02123045_436.png,1.0,3.8576224,1.1608931,1.9068755
alexnet_w1_mlp_simclrhn_probe3,1,209,NaN,chair,airplane,270,0209_rot_dnn_270_airplane_20_n02690373_813.png,n02690373_813.png,0.0,-0.46030757,1.1923867,-1.1686314
alexnet_w1_mlp_simclrhn_probe3,1,210,NaN,cat,cat,0,0210_rot_dnn_0_cat_20_n02123159_1008.png,n02123159_1008.png,1.0,18.934113,1.4861466,12.337575
alexnet_w1_mlp_simclrhn_probe3,1,211,NaN,bottle,bottle,90,0211_rot_dnn_90_bottle_20_n03983396_5452.png,n03983396_5452.png,1.0,2.899643,1.1493702,1.2376298
alexnet_w1_mlp_simclrhn_probe3,1,212,NaN,knife,dog,90,0212_rot_dnn_90_dog_20_n02090379_13010.png,n02090379_13010.png,0.0,0.55775154,1.4606597,-0.63845253
alexnet_w1_mlp_simclrhn_probe3,1,213,NaN,airplane,chair,180,0213_rot_dnn_180_chair_20_n04099969_4162.png,n04099969_4162.png,0.0,0.84009457,0.8752277,-0.02484287
alexnet_w1_mlp_simclrhn_probe3,1,214,NaN,keyboard,keyboard,270,0214_rot_dnn_270_keyboard_20_n04505470_206.png,n04505470_206.png,1.0,2.190486,1.7733946,0.29492813
alexnet_w1_mlp_simclrhn_probe3,1,215,NaN,cat,cat,0,0215_rot_dnn_0_cat_20_n02123045_5290.png,n02123045_5290.png,1.0,3.5728362,2.3952947,0.83264756
alexnet_w1_mlp_simclrhn_probe3,1,216,NaN,oven,bird,180,0216_rot_dnn_180_bird_20_n01843383_6001.png,n01843383_6001.png,0.0,-0.2111906,0.22765082,-0.31030774
alexnet_w1_mlp_simclrhn_probe3,1,217,NaN,knife,knife,0,0217_rot_dnn_0_knife_20_n03041632_24376.png,n03041632_24376.png,1.0,2.1479464,1.7742583,0.2642374
alexnet_w1_mlp_simclrhn_probe3,1,218,NaN,bicycle,bicycle,90,0218_rot_dnn_90_bicycle_20_n02835271_2915.png,n02835271_2915.png,1.0,2.180871,0.28648326,1.3395344
alexnet_w1_mlp_simclrhn_probe3,1,219,NaN,bicycle,bicycle,0,0219_rot_dnn_0_bicycle_20_n03792782_5517.png,n03792782_5517.png,1.0,14.754684,5.3990574,6.6154275
alexnet_w1_mlp_simclrhn_probe3,1,220,NaN,bicycle,bicycle,90,0220_rot_dnn_90_bicycle_20_n02835271_7053.png,n02835271_7053.png,1.0,4.2295074,1.2489729,2.1075563
alexnet_w1_mlp_simclrhn_probe3,1,221,NaN,clock,clock,180,0221_rot_dnn_180_clock_20_n04548280_7115.png,n04548280_7115.png,1.0,2.5834749,0.28988716,1.6218114
alexnet_w1_mlp_simclrhn_probe3,1,222,NaN,chair,boat,270,0222_rot_dnn_270_boat_20_n04273569_29866.png,n04273569_29866.png,0.0,-0.44957352,0.8471629,-0.91693115
alexnet_w1_mlp_simclrhn_probe3,1,223,NaN,clock,clock,90,0223_rot_dnn_90_clock_20_n02708093_3623.png,n02708093_3623.png,1.0,3.7784278,3.672593,0.07483645
alexnet_w1_mlp_simclrhn_probe3,1,224,NaN,bear,bear,180,0224_rot_dnn_180_bear_20_n02132136_7468.png,n02132136_7468.png,1.0,2.3125818,1.8770332,0.30797935
alexnet_w1_mlp_simclrhn_probe3,1,225,NaN,cat,cat,0,0225_rot_dnn_0_cat_20_n02123159_2137.png,n02123159_2137.png,1.0,4.9657836,0.23076287,3.3481653
alexnet_w1_mlp_simclrhn_probe3,1,226,NaN,clock,bottle,90,0226_rot_dnn_90_bottle_20_n03937543_5257.png,n03937543_5257.png,0.0,1.0140487,1.3136746,-0.2118675
alexnet_w1_mlp_simclrhn_probe3,1,227,NaN,cat,cat,0,0227_rot_dnn_0_cat_20_n02123394_937.png,n02123394_937.png,1.0,3.5674965,1.1241612,1.727699
alexnet_w1_mlp_simclrhn_probe3,1,228,NaN,boat,boat,0,0228_rot_dnn_0_boat_20_n03662601_11764.png,n03662601_11764.png,1.0,6.915529,1.1705323,4.062326
alexnet_w1_mlp_simclrhn_probe3,1,229,NaN,bear,bear,0,0229_rot_dnn_0_bear_20_n02132136_10412.png,n02132136_10412.png,1.0,5.257562,1.5672624,2.609436
alexnet_w1_mlp_simclrhn_probe3,1,230,NaN,oven,clock,270,0230_rot_dnn_270_clock_20_n03196217_3600.png,n03196217_3600.png,0.0,1.802188,1.8949564,-0.0655971
alexnet_w1_mlp_simclrhn_probe3,1,231,NaN,oven,dog,270,0231_rot_dnn_270_dog_20_n02102177_255.png,n02102177_255.png,0.0,0.20381944,1.7168894,-1.0699021
alexnet_w1_mlp_simclrhn_probe3,1,232,NaN,bird,bird,270,0232_rot_dnn_270_bird_20_n01614925_1860.png,n01614925_1860.png,1.0,3.3606484,1.3824475,1.3987993
alexnet_w1_mlp_simclrhn_probe3,1,233,NaN,knife,airplane,180,0233_rot_dnn_180_airplane_20_n02690373_1021.png,n02690373_1021.png,0.0,0.4644431,0.847774,-0.2710559
alexnet_w1_mlp_simclrhn_probe3,1,234,NaN,chair,chair,180,0234_rot_dnn_180_chair_20_n03376595_9079.png,n03376595_9079.png,1.0,3.0477345,2.6129649,0.30742857
alexnet_w1_mlp_simclrhn_probe3,1,235,NaN,chair,chair,90,0235_rot_dnn_90_chair_20_n02791124_5199.png,n02791124_5199.png,1.0,2.5611048,1.3172604,0.87953085
alexnet_w1_mlp_simclrhn_probe3,1,236,NaN,keyboard,keyboard,90,0236_rot_dnn_90_keyboard_20_n03085013_24294.png,n03085013_24294.png,1.0,1.9945873,1.5936214,0.28352574
alexnet_w1_mlp_simclrhn_probe3,1,237,NaN,cat,cat,0,0237_rot_dnn_0_cat_20_n02123597_13286.png,n02123597_13286.png,1.0,2.376951,0.9807287,0.9872783
alexnet_w1_mlp_simclrhn_probe3,1,238,NaN,bird,bird,180,0238_rot_dnn_180_bird_20_n01560419_17392.png,n01560419_17392.png,1.0,3.3970437,-0.006811898,2.4068894
alexnet_w1_mlp_simclrhn_probe3,1,239,NaN,oven,oven,270,0239_rot_dnn_270_oven_20_n04111531_6934.png,n04111531_6934.png,1.0,2.3730018,1.532408,0.5943896
alexnet_w1_mlp_simclrhn_probe3,1,240,NaN,clock,clock,90,0240_rot_dnn_90_clock_20_n03196217_6707.png,n03196217_6707.png,1.0,2.4663336,2.4373295,0.020508993
alexnet_w1_mlp_simclrhn_probe3,1,241,NaN,knife,knife,180,0241_rot_dnn_180_knife_20_n03041632_15174.png,n03041632_15174.png,1.0,0.93062484,0.47641936,0.3211718
alexnet_w1_mlp_simclrhn_probe3,1,242,NaN,oven,oven,180,0242_rot_dnn_180_oven_20_n04111531_13644.png,n04111531_13644.png,1.0,2.8924503,0.040437877,2.0166774
alexnet_w1_mlp_simclrhn_probe3,1,243,NaN,elephant,elephant,0,0243_rot_dnn_0_elephant_20_n02504458_3458.png,n02504458_3458.png,1.0,22.94392,6.973108,11.29307
alexnet_w1_mlp_simclrhn_probe3,1,244,NaN,clock,clock,90,0244_rot_dnn_90_clock_20_n04548280_18914.png,n04548280_18914.png,1.0,5.18718,0.18173027,3.5393875
alexnet_w1_mlp_simclrhn_probe3,1,245,NaN,bicycle,dog,180,0245_rot_dnn_180_dog_20_n02107908_2754.png,n02107908_2754.png,0.0,0.7066589,1.422085,-0.5058827
alexnet_w1_mlp_simclrhn_probe3,1,246,NaN,airplane,airplane,0,0246_rot_dnn_0_airplane_20_n02690373_1306.png,n02690373_1306.png,1.0,11.585789,2.3389955,6.5384707
alexnet_w1_mlp_simclrhn_probe3,1,247,NaN,oven,chair,90,0247_rot_dnn_90_chair_20_n03376595_10266.png,n03376595_10266.png,0.0,2.5786932,2.7352922,-0.11073225
alexnet_w1_mlp_simclrhn_probe3,1,248,NaN,keyboard,keyboard,270,0248_rot_dnn_270_keyboard_20_n04505470_1416.png,n04505470_1416.png,1.0,3.2768002,1.7142944,1.1048584
alexnet_w1_mlp_simclrhn_probe3,1,249,NaN,clock,clock,180,0249_rot_dnn_180_clock_20_n04548280_4686.png,n04548280_4686.png,1.0,8.044274,0.7484851,5.158902
alexnet_w1_mlp_simclrhn_probe3,1,250,NaN,oven,truck,270,0250_rot_dnn_270_truck_20_n04467665_69882.png,n04467665_69882.png,0.0,0.5251712,2.8206105,-1.6231207
alexnet_w1_mlp_simclrhn_probe3,1,251,NaN,knife,bottle,270,0251_rot_dnn_270_bottle_20_n04591713_2123.png,n04591713_2123.png,0.0,-1.2126825,4.9100885,-4.329453
alexnet_w1_mlp_simclrhn_probe3,1,252,NaN,oven,oven,90,0252_rot_dnn_90_oven_20_n04111531_6933.png,n04111531_6933.png,1.0,2.075365,0.37901437,1.1995012
alexnet_w1_mlp_simclrhn_probe3,1,253,NaN,knife,car,270,0253_rot_dnn_270_car_20_n03100240_8898.png,n03100240_8898.png,0.0,-0.47640786,0.80756676,-0.9079072
alexnet_w1_mlp_simclrhn_probe3,1,254,NaN,cat,elephant,180,0254_rot_dnn_180_elephant_20_n02504458_5277.png,n02504458_5277.png,0.0,1.3413917,2.4095838,-0.7553259
alexnet_w1_mlp_simclrhn_probe3,1,255,NaN,oven,truck,270,0255_rot_dnn_270_truck_20_n03417042_9967.png,n03417042_9967.png,0.0,2.8353772,3.5852516,-0.53024125
alexnet_w1_mlp_simclrhn_probe3,1,256,NaN,bear,bear,0,0256_rot_dnn_0_bear_20_n02134418_1017.png,n02134418_1017.png,1.0,5.8040237,1.6607289,2.9297519
alexnet_w1_mlp_simclrhn_probe3,1,257,NaN,bottle,airplane,90,0257_rot_dnn_90_airplane_20_n02690373_1909.png,n02690373_1909.png,0.0,0.12661809,1.7019371,-1.1139188
alexnet_w1_mlp_simclrhn_probe3,1,258,NaN,airplane,airplane,0,0258_rot_dnn_0_airplane_20_n02690373_6753.png,n02690373_6753.png,1.0,8.245319,1.4364872,4.8145714
alexnet_w1_mlp_simclrhn_probe3,1,259,NaN,airplane,airplane,0,0259_rot_dnn_0_airplane_20_n02690373_1972.png,n02690373_1972.png,1.0,3.6211572,3.273737,0.2456632
alexnet_w1_mlp_simclrhn_probe3,1,260,NaN,oven,oven,90,0260_rot_dnn_90_oven_20_n04111531_9915.png,n04111531_9915.png,1.0,3.0087838,1.3591338,1.1664788
alexnet_w1_mlp_simclrhn_probe3,1,261,NaN,elephant,elephant,270,0261_rot_dnn_270_elephant_20_n02504458_485.png,n02504458_485.png,1.0,2.6649833,2.091886,0.40524095
alexnet_w1_mlp_simclrhn_probe3,1,262,NaN,elephant,elephant,180,0262_rot_dnn_180_elephant_20_n02504013_2431.png,n02504013_2431.png,1.0,2.595858,1.8727989,0.51128006
alexnet_w1_mlp_simclrhn_probe3,1,263,NaN,bicycle,clock,180,0263_rot_dnn_180_clock_20_n02708093_1038.png,n02708093_1038.png,0.0,1.6341006,2.8539042,-0.8625315
alexnet_w1_mlp_simclrhn_probe3,1,264,NaN,cat,cat,270,0264_rot_dnn_270_cat_20_n02123597_5927.png,n02123597_5927.png,1.0,3.6102102,1.4306853,1.5411569
alexnet_w1_mlp_simclrhn_probe3,1,265,NaN,bicycle,bicycle,90,0265_rot_dnn_90_bicycle_20_n03792782_3202.png,n03792782_3202.png,1.0,1.1082855,0.33776236,0.5448422
alexnet_w1_mlp_simclrhn_probe3,1,266,NaN,chair,car,270,0266_rot_dnn_270_car_20_n02814533_45480.png,n02814533_45480.png,0.0,0.022546932,2.27249,-1.59095
alexnet_w1_mlp_simclrhn_probe3,1,267,NaN,clock,truck,90,0267_rot_dnn_90_truck_20_n03796401_4571.png,n03796401_4571.png,0.0,0.6225656,2.4682305,-1.3050822
alexnet_w1_mlp_simclrhn_probe3,1,268,NaN,keyboard,oven,90,0268_rot_dnn_90_oven_20_n04111531_21011.png,n04111531_21011.png,0.0,0.3640174,1.101011,-0.52113324
alexnet_w1_mlp_simclrhn_probe3,1,269,NaN,airplane,airplane,0,0269_rot_dnn_0_airplane_20_n02690373_4310.png,n02690373_4310.png,1.0,10.245265,1.2904334,6.3320227
alexnet_w1_mlp_simclrhn_probe3,1,270,NaN,chair,oven,0,0270_rot_dnn_0_oven_20_n04111531_7134.png,n04111531_7134.png,0.0,2.3697765,3.3811245,-0.71513104
alexnet_w1_mlp_simclrhn_probe3,1,271,NaN,cat,dog,270,0271_rot_dnn_270_dog_20_n02105251_1092.png,n02105251_1092.png,0.0,1.5075445,2.6567876,-0.8126376
alexnet_w1_mlp_simclrhn_probe3,1,272,NaN,knife,knife,180,0272_rot_dnn_180_knife_20_n03041632_34505.png,n03041632_34505.png,1.0,1.5813758,0.6492651,0.65910184
alexnet_w1_mlp_simclrhn_probe3,1,273,NaN,keyboard,keyboard,90,0273_rot_dnn_90_keyboard_20_n04505470_4520.png,n04505470_4520.png,1.0,1.9301434,0.92123234,0.7134078
alexnet_w1_mlp_simclrhn_probe3,1,274,NaN,oven,boat,180,0274_rot_dnn_180_boat_20_n03344393_1519.png,n03344393_1519.png,0.0,1.181543,2.2377136,-0.7468254
alexnet_w1_mlp_simclrhn_probe3,1,275,NaN,chair,chair,270,0275_rot_dnn_270_chair_20_n03376595_9535.png,n03376595_9535.png,1.0,2.263449,1.6280627,0.44928592
alexnet_w1_mlp_simclrhn_probe3,1,276,NaN,bear,cat,270,0276_rot_dnn_270_cat_20_n02125311_1326.png,n02125311_1326.png,0.0,2.291674,2.4216704,-0.091921434
alexnet_w1_mlp_simclrhn_probe3,1,277,NaN,cat,cat,90,0277_rot_dnn_90_cat_20_n02123394_2948.png,n02123394_2948.png,1.0,1.3577704,0.37316298,0.6962226
alexnet_w1_mlp_simclrhn_probe3,1,278,NaN,oven,oven,270,0278_rot_dnn_270_oven_20_n04111531_5429.png,n04111531_5429.png,1.0,3.6191363,1.9426223,1.1854745
alexnet_w1_mlp_simclrhn_probe3,1,279,NaN,elephant,elephant,0,0279_rot_dnn_0_elephant_20_n02504013_6645.png,n02504013_6645.png,1.0,1.8947105,1.4395578,0.3218416
alexnet_w1_mlp_simclrhn_probe3,1,280,NaN,oven,keyboard,90,0280_rot_dnn_90_keyboard_20_n04505470_4159.png,n04505470_4159.png,0.0,0.3730498,4.4977136,-2.9165778
alexnet_w1_mlp_simclrhn_probe3,1,281,NaN,oven,bottle,90,0281_rot_dnn_90_bottle_20_n02823428_6252.png,n02823428_6252.png,0.0,1.5194927,1.6364359,-0.082691275
alexnet_w1_mlp_simclrhn_probe3,1,282,NaN,airplane,airplane,180,0282_rot_dnn_180_airplane_20_n02690373_15097.png,n02690373_15097.png,1.0,1.9340527,1.5813003,0.24943365
alexnet_w1_mlp_simclrhn_probe3,1,283,NaN,oven,cat,0,0283_rot_dnn_0_cat_20_n02123159_3420.png,n02123159_3420.png,0.0,0.16750324,3.762918,-2.5423422
alexnet_w1_mlp_simclrhn_probe3,1,284,NaN,bear,cat,0,0284_rot_dnn_0_cat_20_n02124075_7835.png,n02124075_7835.png,0.0,1.4439348,1.525033,-0.05734509
alexnet_w1_mlp_simclrhn_probe3,1,285,NaN,cat,cat,90,0285_rot_dnn_90_cat_20_n02123045_6696.png,n02123045_6696.png,1.0,3.0312707,0.9956541,1.4393984
alexnet_w1_mlp_simclrhn_probe3,1,286,NaN,bicycle,boat,180,0286_rot_dnn_180_boat_20_n02951358_34766.png,n02951358_34766.png,0.0,1.5523189,2.3906698,-0.5928036
alexnet_w1_mlp_simclrhn_probe3,1,287,NaN,elephant,bird,0,0287_rot_dnn_0_bird_20_n01855672_8191.png,n01855672_8191.png,0.0,0.37278673,1.6400337,-0.89607894
alexnet_w1_mlp_simclrhn_probe3,1,288,NaN,airplane,truck,180,0288_rot_dnn_180_truck_20_n03796401_1150.png,n03796401_1150.png,0.0,1.2181945,2.8056765,-1.1225193
alexnet_w1_mlp_simclrhn_probe3,1,289,NaN,cat,bicycle,270,0289_rot_dnn_270_bicycle_20_n03792782_9782.png,n03792782_9782.png,0.0,0.5344646,0.59062594,-0.039712068
alexnet_w1_mlp_simclrhn_probe3,1,290,NaN,clock,boat,270,0290_rot_dnn_270_boat_20_n03662601_12969.png,n03662601_12969.png,0.0,-0.40231913,1.0789357,-1.0474054
alexnet_w1_mlp_simclrhn_probe3,1,291,NaN,oven,bottle,180,0291_rot_dnn_180_bottle_20_n02823428_4530.png,n02823428_4530.png,0.0,1.0184411,2.8920803,-1.3248631
alexnet_w1_mlp_simclrhn_probe3,1,292,NaN,chair,chair,0,0292_rot_dnn_0_chair_20_n02791124_2898.png,n02791124_2898.png,1.0,3.466483,2.1298437,0.9451468
alexnet_w1_mlp_simclrhn_probe3,1,293,NaN,cat,cat,270,0293_rot_dnn_270_cat_20_n02123394_686.png,n02123394_686.png,1.0,2.0884051,0.75695956,0.9414742
alexnet_w1_mlp_simclrhn_probe3,1,294,NaN,oven,dog,180,0294_rot_dnn_180_dog_20_n02100735_4364.png,n02100735_4364.png,0.0,0.01718655,1.0662258,-0.7417828
alexnet_w1_mlp_simclrhn_probe3,1,295,NaN,elephant,dog,0,0295_rot_dnn_0_dog_20_n02102177_7968.png,n02102177_7968.png,0.0,1.9475638,3.067101,-0.79163235
alexnet_w1_mlp_simclrhn_probe3,1,296,NaN,keyboard,knife,270,0296_rot_dnn_270_knife_20_n03041632_15099.png,n03041632_15099.png,0.0,0.5145409,1.1108736,-0.42167088
alexnet_w1_mlp_simclrhn_probe3,1,297,NaN,oven,oven,180,0297_rot_dnn_180_oven_20_n04111531_2937.png,n04111531_2937.png,1.0,4.0308056,1.965713,1.460241
alexnet_w1_mlp_simclrhn_probe3,1,298,NaN,cat,cat,0,0298_rot_dnn_0_cat_20_n02123394_3695.png,n02123394_3695.png,1.0,3.0374575,1.6276779,0.9968647
alexnet_w1_mlp_simclrhn_probe3,1,299,NaN,bird,bear,180,0299_rot_dnn_180_bear_20_n02134084_3696.png,n02134084_3696.png,0.0,0.029460367,0.17937914,-0.106008574
alexnet_w1_mlp_simclrhn_probe3,1,300,NaN,knife,oven,270,0300_rot_dnn_270_oven_20_n04111531_4671.png,n04111531_4671.png,0.0,0.38704398,0.7017606,-0.22253825
alexnet_w1_mlp_simclrhn_probe3,1,301,NaN,bear,bear,180,0301_rot_dnn_180_bear_20_n02133161_2741.png,n02133161_2741.png,1.0,1.8756754,1.2663224,0.4308777
alexnet_w1_mlp_simclrhn_probe3,1,302,NaN,clock,boat,90,0302_rot_dnn_90_boat_20_n03662601_3893.png,n03662601_3893.png,0.0,0.21060619,1.7597004,-1.0953751
alexnet_w1_mlp_simclrhn_probe3,1,303,NaN,chair,boat,90,0303_rot_dnn_90_boat_20_n03344393_2790.png,n03344393_2790.png,0.0,0.06196202,1.1165286,-0.74569124
alexnet_w1_mlp_simclrhn_probe3,1,304,NaN,keyboard,keyboard,180,0304_rot_dnn_180_keyboard_20_n03085013_3920.png,n03085013_3920.png,1.0,3.5399857,1.9640905,1.1143262
alexnet_w1_mlp_simclrhn_probe3,1,305,NaN,oven,chair,90,0305_rot_dnn_90_chair_20_n04099969_1962.png,n04099969_1962.png,0.0,1.6639543,1.9285526,-0.18709931
alexnet_w1_mlp_simclrhn_probe3,1,306,NaN,knife,knife,0,0306_rot_dnn_0_knife_20_n03041632_13846.png,n03041632_13846.png,1.0,1.0164177,0.8250798,0.13529636
alexnet_w1_mlp_simclrhn_probe3,1,307,NaN,bicycle,boat,0,0307_rot_dnn_0_boat_20_n02951358_30117.png,n02951358_30117.png,0.0,2.9592652,3.7228737,-0.53995275
alexnet_w1_mlp_simclrhn_probe3,1,308,NaN,elephant,elephant,270,0308_rot_dnn_270_elephant_20_n02504458_9922.png,n02504458_9922.png,1.0,0.54260486,0.41952753,0.08702882
alexnet_w1_mlp_simclrhn_probe3,1,309,NaN,airplane,boat,180,0309_rot_dnn_180_boat_20_n03344393_5609.png,n03344393_5609.png,0.0,1.4684918,2.0833678,-0.434783
alexnet_w1_mlp_simclrhn_probe3,1,310,NaN,chair,chair,0,0310_rot_dnn_0_chair_20_n02791124_3180.png,n02791124_3180.png,1.0,3.5349953,3.519879,0.010688778
alexnet_w1_mlp_simclrhn_probe3,1,311,NaN,elephant,boat,90,0311_rot_dnn_90_boat_20_n02951358_12532.png,n02951358_12532.png,0.0,-0.46583945,0.97769916,-1.020736
alexnet_w1_mlp_simclrhn_probe3,1,312,NaN,cat,cat,180,0312_rot_dnn_180_cat_20_n02123597_1901.png,n02123597_1901.png,1.0,2.1608322,1.0165957,0.80909735
alexnet_w1_mlp_simclrhn_probe3,1,313,NaN,oven,elephant,270,0313_rot_dnn_270_elephant_20_n02504013_5173.png,n02504013_5173.png,0.0,0.3653153,0.8035327,-0.30986652
alexnet_w1_mlp_simclrhn_probe3,1,314,NaN,clock,car,180,0314_rot_dnn_180_car_20_n04285008_4834.png,n04285008_4834.png,0.0,1.160297,2.3081648,-0.8116651
alexnet_w1_mlp_simclrhn_probe3,1,315,NaN,chair,truck,270,0315_rot_dnn_270_truck_20_n03417042_28584.png,n03417042_28584.png,0.0,0.70579386,3.110361,-1.7002858
alexnet_w1_mlp_simclrhn_probe3,1,316,NaN,elephant,dog,180,0316_rot_dnn_180_dog_20_n02093428_11151.png,n02093428_11151.png,0.0,0.83059597,1.8516259,-0.72197723
alexnet_w1_mlp_simclrhn_probe3,1,317,NaN,oven,bicycle,90,0317_rot_dnn_90_bicycle_20_n03792782_1475.png,n03792782_1475.png,0.0,-0.6688635,1.6149412,-1.6148938
alexnet_w1_mlp_simclrhn_probe3,1,318,NaN,oven,knife,0,0318_rot_dnn_0_knife_20_n03041632_8666.png,n03041632_8666.png,0.0,0.93017924,2.1724207,-0.8783974
alexnet_w1_mlp_simclrhn_probe3,1,319,NaN,clock,clock,0,0319_rot_dnn_0_clock_20_n04548280_253.png,n04548280_253.png,1.0,2.2365077,0.99595344,0.8772043
alexnet_w1_mlp_simclrhn_probe3,1,320,NaN,airplane,airplane,180,0320_rot_dnn_180_airplane_20_n02690373_9441.png,n02690373_9441.png,1.0,4.5612006,2.1643791,1.6948087
alexnet_w1_mlp_simclrhn_probe3,1,321,NaN,chair,airplane,270,0321_rot_dnn_270_airplane_20_n02690373_1946.png,n02690373_1946.png,0.0,-0.99616086,0.5828267,-1.1165129
alexnet_w1_mlp_simclrhn_probe3,1,322,NaN,car,car,90,0322_rot_dnn_90_car_20_n03100240_5044.png,n03100240_5044.png,1.0,1.0387787,0.9118274,0.08976811
alexnet_w1_mlp_simclrhn_probe3,1,323,NaN,cat,dog,270,0323_rot_dnn_270_dog_20_n02111500_6559.png,n02111500_6559.png,0.0,0.501516,1.4430736,-0.6657818
alexnet_w1_mlp_simclrhn_probe3,1,324,NaN,oven,dog,270,0324_rot_dnn_270_dog_20_n02096051_1852.png,n02096051_1852.png,0.0,-0.15824512,0.76016617,-0.64941484
alexnet_w1_mlp_simclrhn_probe3,1,325,NaN,bear,bear,270,0325_rot_dnn_270_bear_20_n02133161_5020.png,n02133161_5020.png,1.0,0.87530017,0.6791723,0.13868336
alexnet_w1_mlp_simclrhn_probe3,1,326,NaN,chair,chair,90,0326_rot_dnn_90_chair_20_n02791124_2034.png,n02791124_2034.png,1.0,2.566204,2.491435,0.05286968
alexnet_w1_mlp_simclrhn_probe3,1,327,NaN,clock,clock,180,0327_rot_dnn_180_clock_20_n03196217_6526.png,n03196217_6526.png,1.0,2.4765723,0.5864077,1.3365482
alexnet_w1_mlp_simclrhn_probe3,1,328,NaN,oven,oven,180,0328_rot_dnn_180_oven_20_n04111531_9779.png,n04111531_9779.png,1.0,2.7121482,2.3354077,0.26639575
alexnet_w1_mlp_simclrhn_probe3,1,329,NaN,boat,boat,0,0329_rot_dnn_0_boat_20_n03662601_28640.png,n03662601_28640.png,1.0,6.656575,0.89753675,4.072255
alexnet_w1_mlp_simclrhn_probe3,1,330,NaN,knife,knife,90,0330_rot_dnn_90_knife_20_n03041632_31301.png,n03041632_31301.png,1.0,1.7874233,1.023906,0.53988826
alexnet_w1_mlp_simclrhn_probe3,1,331,NaN,keyboard,keyboard,90,0331_rot_dnn_90_keyboard_20_n03085013_9209.png,n03085013_9209.png,1.0,3.2170262,2.5386686,0.47967127
alexnet_w1_mlp_simclrhn_probe3,1,332,NaN,oven,elephant,90,0332_rot_dnn_90_elephant_20_n02504458_113.png,n02504458_113.png,0.0,0.5522119,1.1618388,-0.4310713
alexnet_w1_mlp_simclrhn_probe3,1,333,NaN,bicycle,bicycle,180,0333_rot_dnn_180_bicycle_20_n03792782_6058.png,n03792782_6058.png,1.0,2.1804333,0.9515791,0.8689311
alexnet_w1_mlp_simclrhn_probe3,1,334,NaN,keyboard,keyboard,0,0334_rot_dnn_0_keyboard_20_n04505470_4651.png,n04505470_4651.png,1.0,12.417553,2.1170976,7.2835217
alexnet_w1_mlp_simclrhn_probe3,1,335,NaN,keyboard,keyboard,180,0335_rot_dnn_180_keyboard_20_n03085013_7009.png,n03085013_7009.png,1.0,1.741787,1.5270805,0.15182036
alexnet_w1_mlp_simclrhn_probe3,1,336,NaN,bottle,truck,270,0336_rot_dnn_270_truck_20_n04467665_44390.png,n04467665_44390.png,0.0,0.83926,2.5341053,-1.1984366
alexnet_w1_mlp_simclrhn_probe3,1,337,NaN,dog,boat,90,0337_rot_dnn_90_boat_20_n04273569_17340.png,n04273569_17340.png,0.0,-1.426357,-0.1193277,-0.92420936
alexnet_w1_mlp_simclrhn_probe3,1,338,NaN,elephant,elephant,0,0338_rot_dnn_0_elephant_20_n02504013_1333.png,n02504013_1333.png,1.0,4.188608,1.5808101,1.8439918
alexnet_w1_mlp_simclrhn_probe3,1,339,NaN,knife,knife,270,0339_rot_dnn_270_knife_20_n03041632_50034.png,n03041632_50034.png,1.0,2.3569765,1.3335735,0.7236552
alexnet_w1_mlp_simclrhn_probe3,1,340,NaN,clock,clock,90,0340_rot_dnn_90_clock_20_n02708093_2740.png,n02708093_2740.png,1.0,1.680995,1.3035098,0.26692232
alexnet_w1_mlp_simclrhn_probe3,1,341,NaN,bear,bear,0,0341_rot_dnn_0_bear_20_n02132136_13975.png,n02132136_13975.png,1.0,11.592594,8.9360695,1.8784466
alexnet_w1_mlp_simclrhn_probe3,1,342,NaN,elephant,elephant,90,0342_rot_dnn_90_elephant_20_n02504013_256.png,n02504013_256.png,1.0,1.0976288,1.0648444,0.023182116
alexnet_w1_mlp_simclrhn_probe3,1,343,NaN,chair,boat,90,0343_rot_dnn_90_boat_20_n03344393_6588.png,n03344393_6588.png,0.0,0.60404885,1.7127988,-0.7840046
alexnet_w1_mlp_simclrhn_probe3,1,344,NaN,knife,knife,270,0344_rot_dnn_270_knife_20_n03041632_7173.png,n03041632_7173.png,1.0,1.3177371,0.2543071,0.7519586
alexnet_w1_mlp_simclrhn_probe3,1,345,NaN,boat,elephant,180,0345_rot_dnn_180_elephant_20_n02504458_1041.png,n02504458_1041.png,0.0,0.2926028,0.533577,-0.17039451
alexnet_w1_mlp_simclrhn_probe3,1,346,NaN,chair,chair,180,0346_rot_dnn_180_chair_20_n04099969_8021.png,n04099969_8021.png,1.0,1.4695072,1.3848082,0.05989126
alexnet_w1_mlp_simclrhn_probe3,1,347,NaN,truck,truck,0,0347_rot_dnn_0_truck_20_n03796401_1791.png,n03796401_1791.png,1.0,7.429553,0.3342817,5.0171146
alexnet_w1_mlp_simclrhn_probe3,1,348,NaN,keyboard,keyboard,90,0348_rot_dnn_90_keyboard_20_n04505470_5007.png,n04505470_5007.png,1.0,2.640363,1.3636614,0.9027644
alexnet_w1_mlp_simclrhn_probe3,1,349,NaN,oven,truck,180,0349_rot_dnn_180_truck_20_n03417042_29384.png,n03417042_29384.png,0.0,0.88429165,1.7622852,-0.62083524
alexnet_w1_mlp_simclrhn_probe3,1,350,NaN,bird,bird,90,0350_rot_dnn_90_bird_20_n01534433_1271.png,n01534433_1271.png,1.0,1.759365,1.6749668,0.059678506
alexnet_w1_mlp_simclrhn_probe3,1,351,NaN,cat,dog,270,0351_rot_dnn_270_dog_20_n02113624_393.png,n02113624_393.png,0.0,0.45359176,3.2188704,-1.9553473
alexnet_w1_mlp_simclrhn_probe3,1,352,NaN,cat,cat,90,0352_rot_dnn_90_cat_20_n02123159_5461.png,n02123159_5461.png,1.0,1.0303407,0.48088694,0.38852248
alexnet_w1_mlp_simclrhn_probe3,1,353,NaN,oven,knife,270,0353_rot_dnn_270_knife_20_n03041632_9759.png,n03041632_9759.png,0.0,0.54390264,0.9340678,-0.27588844
alexnet_w1_mlp_simclrhn_probe3,1,354,NaN,bicycle,chair,90,0354_rot_dnn_90_chair_20_n04429376_1754.png,n04429376_1754.png,0.0,0.98379105,1.1972181,-0.15091568
alexnet_w1_mlp_simclrhn_probe3,1,355,NaN,knife,oven,90,0355_rot_dnn_90_oven_20_n04111531_1818.png,n04111531_1818.png,0.0,0.07223575,1.4113865,-0.9469226
alexnet_w1_mlp_simclrhn_probe3,1,356,NaN,clock,clock,0,0356_rot_dnn_0_clock_20_n04548280_5798.png,n04548280_5798.png,1.0,5.2453666,2.7806637,1.7428081
alexnet_w1_mlp_simclrhn_probe3,1,357,NaN,oven,oven,90,0357_rot_dnn_90_oven_20_n04111531_3099.png,n04111531_3099.png,1.0,1.7861841,1.3531168,0.30622485
alexnet_w1_mlp_simclrhn_probe3,1,358,NaN,clock,bottle,270,0358_rot_dnn_270_bottle_20_n04557648_581.png,n04557648_581.png,0.0,0.6389631,1.5701121,-0.6584218
alexnet_w1_mlp_simclrhn_probe3,1,359,NaN,bird,bird,0,0359_rot_dnn_0_bird_20_n01531178_3183.png,n01531178_3183.png,1.0,1.8212993,0.86206734,0.67827946
alexnet_w1_mlp_simclrhn_probe3,1,360,NaN,clock,airplane,90,0360_rot_dnn_90_airplane_20_n02690373_8872.png,n02690373_8872.png,0.0,-0.7550027,1.234372,-1.4067004
alexnet_w1_mlp_simclrhn_probe3,1,361,NaN,cat,cat,0,0361_rot_dnn_0_cat_20_n02123394_5301.png,n02123394_5301.png,1.0,1.0862254,0.8772845,0.14774351
alexnet_w1_mlp_simclrhn_probe3,1,362,NaN,bicycle,bicycle,270,0362_rot_dnn_270_bicycle_20_n03792782_12844.png,n03792782_12844.png,1.0,2.4274592,0.7301792,1.2001582
alexnet_w1_mlp_simclrhn_probe3,1,363,NaN,cat,bear,90,0363_rot_dnn_90_bear_20_n02132136_2691.png,n02132136_2691.png,0.0,3.100669,3.1792533,-0.055567585
alexnet_w1_mlp_simclrhn_probe3,1,364,NaN,truck,car,0,0364_rot_dnn_0_car_20_n02814533_27327.png,n02814533_27327.png,0.0,6.5331388,6.9855113,-0.31987572
alexnet_w1_mlp_simclrhn_probe3,1,365,NaN,bird,bird,0,0365_rot_dnn_0_bird_20_n02027492_7653.png,n02027492_7653.png,1.0,2.8832805,1.1753242,1.2077075
alexnet_w1_mlp_simclrhn_probe3,1,366,NaN,bear,bear,0,0366_rot_dnn_0_bear_20_n02133161_62.png,n02133161_62.png,1.0,5.9761214,3.8161387,1.5273384
alexnet_w1_mlp_simclrhn_probe3,1,367,NaN,bottle,bottle,0,0367_rot_dnn_0_bottle_20_n04560804_9710.png,n04560804_9710.png,1.0,3.5808651,1.5621434,1.4274517
alexnet_w1_mlp_simclrhn_probe3,1,368,NaN,oven,clock,180,0368_rot_dnn_180_clock_20_n04548280_15154.png,n04548280_15154.png,0.0,1.7264808,3.2487526,-1.0764087
alexnet_w1_mlp_simclrhn_probe3,1,369,NaN,oven,oven,180,0369_rot_dnn_180_oven_20_n04111531_114.png,n04111531_114.png,1.0,1.4020708,0.87688506,0.3713624
alexnet_w1_mlp_simclrhn_probe3,1,370,NaN,cat,cat,180,0370_rot_dnn_180_cat_20_n02125311_24813.png,n02125311_24813.png,1.0,1.4420108,0.42259544,0.72083557
alexnet_w1_mlp_simclrhn_probe3,1,371,NaN,chair,airplane,90,0371_rot_dnn_90_airplane_20_n02690373_7647.png,n02690373_7647.png,0.0,-0.75959593,0.7009291,-1.0327471
alexnet_w1_mlp_simclrhn_probe3,1,372,NaN,bottle,bottle,0,0372_rot_dnn_0_bottle_20_n03983396_9823.png,n03983396_9823.png,1.0,3.1701047,1.2807593,1.335969
alexnet_w1_mlp_simclrhn_probe3,1,373,NaN,bear,bear,0,0373_rot_dnn_0_bear_20_n02134418_2398.png,n02134418_2398.png,1.0,2.8917007,2.2157583,0.47796348
alexnet_w1_mlp_simclrhn_probe3,1,374,NaN,chair,keyboard,90,0374_rot_dnn_90_keyboard_20_n04505470_4584.png,n04505470_4584.png,0.0,1.0039066,1.6677234,-0.46938938
alexnet_w1_mlp_simclrhn_probe3,1,375,NaN,keyboard,keyboard,0,0375_rot_dnn_0_keyboard_20_n04505470_10055.png,n04505470_10055.png,1.0,3.054008,2.1251273,0.65681785
alexnet_w1_mlp_simclrhn_probe3,1,376,NaN,knife,boat,270,0376_rot_dnn_270_boat_20_n04273569_10980.png,n04273569_10980.png,0.0,-0.4246667,0.4126554,-0.5920762
alexnet_w1_mlp_simclrhn_probe3,1,377,NaN,car,car,180,0377_rot_dnn_180_car_20_n03100240_16210.png,n03100240_16210.png,1.0,4.7749844,3.6306355,0.80917686
alexnet_w1_mlp_simclrhn_probe3,1,378,NaN,keyboard,keyboard,0,0378_rot_dnn_0_keyboard_20_n04505470_1067.png,n04505470_1067.png,1.0,10.712193,1.5076026,6.508628
alexnet_w1_mlp_simclrhn_probe3,1,379,NaN,elephant,elephant,0,0379_rot_dnn_0_elephant_20_n02504458_7867.png,n02504458_7867.png,1.0,11.721211,3.7669876,5.6244855
alexnet_w1_mlp_simclrhn_probe3,1,380,NaN,keyboard,keyboard,180,0380_rot_dnn_180_keyboard_20_n04505470_807.png,n04505470_807.png,1.0,6.7554336,1.2455063,3.896107
alexnet_w1_mlp_simclrhn_probe3,1,381,NaN,bicycle,bicycle,270,0381_rot_dnn_270_bicycle_20_n02835271_24104.png,n02835271_24104.png,1.0,2.2513995,0.6993479,1.0974662
alexnet_w1_mlp_simclrhn_probe3,1,382,NaN,knife,bottle,0,0382_rot_dnn_0_bottle_20_n03937543_6698.png,n03937543_6698.png,0.0,0.49442038,1.0379403,-0.38432658
alexnet_w1_mlp_simclrhn_probe3,1,383,NaN,bicycle,oven,0,0383_rot_dnn_0_oven_20_n04111531_10403.png,n04111531_10403.png,0.0,0.04119341,2.204859,-1.5299426
alexnet_w1_mlp_simclrhn_probe3,1,384,NaN,truck,truck,0,0384_rot_dnn_0_truck_20_n03796401_8463.png,n03796401_8463.png,1.0,9.697411,1.2148939,5.998045
alexnet_w1_mlp_simclrhn_probe3,1,385,NaN,truck,truck,0,0385_rot_dnn_0_truck_20_n03796401_8176.png,n03796401_8176.png,1.0,3.6341763,1.6450735,1.4065081
alexnet_w1_mlp_simclrhn_probe3,1,386,NaN,knife,bottle,90,0386_rot_dnn_90_bottle_20_n03937543_984.png,n03937543_984.png,0.0,1.7263196,2.3030515,-0.40781105
alexnet_w1_mlp_simclrhn_probe3,1,387,NaN,chair,bicycle,90,0387_rot_dnn_90_bicycle_20_n02835271_11697.png,n02835271_11697.png,0.0,1.5386269,1.6039746,-0.046207782
alexnet_w1_mlp_simclrhn_probe3,1,388,NaN,clock,keyboard,270,0388_rot_dnn_270_keyboard_20_n03085013_22417.png,n03085013_22417.png,0.0,0.5553196,0.9901309,-0.307458
alexnet_w1_mlp_simclrhn_probe3,1,389,NaN,chair,car,270,0389_rot_dnn_270_car_20_n03100240_7602.png,n03100240_7602.png,0.0,1.3208017,2.6017172,-0.9057441
alexnet_w1_mlp_simclrhn_probe3,1,390,NaN,bird,bird,90,0390_rot_dnn_90_bird_20_n01534433_14389.png,n01534433_14389.png,1.0,1.2831968,0.008548263,0.90131265
alexnet_w1_mlp_simclrhn_probe3,1,391,NaN,cat,bear,0,0391_rot_dnn_0_bear_20_n02134084_2598.png,n02134084_2598.png,0.0,3.109426,3.6390972,-0.3745341
alexnet_w1_mlp_simclrhn_probe3,1,392,NaN,bird,bird,180,0392_rot_dnn_180_bird_20_n01560419_19599.png,n01560419_19599.png,1.0,1.6655569,0.089279816,1.1145962
alexnet_w1_mlp_simclrhn_probe3,1,393,NaN,bicycle,bicycle,90,0393_rot_dnn_90_bicycle_20_n02835271_8747.png,n02835271_8747.png,1.0,1.0174576,0.7992607,0.15428853
alexnet_w1_mlp_simclrhn_probe3,1,394,NaN,oven,knife,180,0394_rot_dnn_180_knife_20_n03041632_30821.png,n03041632_30821.png,0.0,0.8295487,0.89206666,-0.04420686
alexnet_w1_mlp_simclrhn_probe3,1,395,NaN,bicycle,chair,270,0395_rot_dnn_270_chair_20_n03376595_209.png,n03376595_209.png,0.0,-0.0064130574,0.8588857,-0.6118586
alexnet_w1_mlp_simclrhn_probe3,1,396,NaN,bicycle,boat,180,0396_rot_dnn_180_boat_20_n04273569_29113.png,n04273569_29113.png,0.0,1.2589296,2.174492,-0.6474003
alexnet_w1_mlp_simclrhn_probe3,1,397,NaN,bird,bird,270,0397_rot_dnn_270_bird_20_n02006656_6435.png,n02006656_6435.png,1.0,1.8388256,0.15649194,1.1895896
alexnet_w1_mlp_simclrhn_probe3,1,398,NaN,chair,airplane,90,0398_rot_dnn_90_airplane_20_n02690373_3492.png,n02690373_3492.png,0.0,-0.32788444,2.3012702,-1.8590932
alexnet_w1_mlp_simclrhn_probe3,1,399,NaN,oven,oven,270,0399_rot_dnn_270_oven_20_n04111531_9380.png,n04111531_9380.png,1.0,2.1599631,0.24327463,1.3553034
alexnet_w1_mlp_simclrhn_probe3,1,400,NaN,keyboard,keyboard,270,0400_rot_dnn_270_keyboard_20_n04505470_510.png,n04505470_510.png,1.0,2.4895787,1.7362568,0.532679
alexnet_w1_mlp_simclrhn_probe3,1,401,NaN,bird,bird,180,0401_rot_dnn_180_bird_20_n02027492_20576.png,n02027492_20576.png,1.0,1.2563896,0.78626317,0.33242962
alexnet_w1_mlp_simclrhn_probe3,1,402,NaN,bird,bird,90,0402_rot_dnn_90_bird_20_n01855032_1920.png,n01855032_1920.png,1.0,-0.058156297,-0.07592769,0.012566273
alexnet_w1_mlp_simclrhn_probe3,1,403,NaN,boat,boat,180,0403_rot_dnn_180_boat_20_n04273569_15761.png,n04273569_15761.png,1.0,2.4648015,2.0661287,0.28190425
alexnet_w1_mlp_simclrhn_probe3,1,404,NaN,oven,oven,180,0404_rot_dnn_180_oven_20_n04111531_10667.png,n04111531_10667.png,1.0,3.9304357,0.5142776,2.4155886
alexnet_w1_mlp_simclrhn_probe3,1,405,NaN,knife,knife,270,0405_rot_dnn_270_knife_20_n03041632_36215.png,n03041632_36215.png,1.0,2.199654,0.45076203,1.2366534
alexnet_w1_mlp_simclrhn_probe3,1,406,NaN,bicycle,bicycle,180,0406_rot_dnn_180_bicycle_20_n02835271_2625.png,n02835271_2625.png,1.0,3.9018824,0.76076543,2.2211053
alexnet_w1_mlp_simclrhn_probe3,1,407,NaN,bicycle,bird,270,0407_rot_dnn_270_bird_20_n02028035_20411.png,n02028035_20411.png,0.0,0.36940494,0.5206418,-0.10694061
alexnet_w1_mlp_simclrhn_probe3,1,408,NaN,oven,knife,0,0408_rot_dnn_0_knife_20_n03041632_25656.png,n03041632_25656.png,0.0,2.114024,2.272111,-0.111784406
alexnet_w1_mlp_simclrhn_probe3,1,409,NaN,elephant,oven,270,0409_rot_dnn_270_oven_20_n04111531_4332.png,n04111531_4332.png,0.0,1.137734,1.6198463,-0.34090486
alexnet_w1_mlp_simclrhn_probe3,1,410,NaN,keyboard,keyboard,180,0410_rot_dnn_180_keyboard_20_n04505470_3553.png,n04505470_3553.png,1.0,2.8837647,1.0330474,1.3086548
alexnet_w1_mlp_simclrhn_probe3,1,411,NaN,bicycle,bicycle,180,0411_rot_dnn_180_bicycle_20_n02835271_18706.png,n02835271_18706.png,1.0,3.6231961,2.8870988,0.5204994
alexnet_w1_mlp_simclrhn_probe3,1,412,NaN,chair,truck,270,0412_rot_dnn_270_truck_20_n03417042_10744.png,n03417042_10744.png,0.0,1.4133039,3.114551,-1.2029635
alexnet_w1_mlp_simclrhn_probe3,1,413,NaN,clock,clock,0,0413_rot_dnn_0_clock_20_n03196217_11724.png,n03196217_11724.png,1.0,4.2120643,2.0007708,1.5636206
alexnet_w1_mlp_simclrhn_probe3,1,414,NaN,bicycle,bicycle,270,0414_rot_dnn_270_bicycle_20_n02835271_14123.png,n02835271_14123.png,1.0,2.5183287,1.6832806,0.59046817
alexnet_w1_mlp_simclrhn_probe3,1,415,NaN,oven,bicycle,270,0415_rot_dnn_270_bicycle_20_n02835271_7900.png,n02835271_7900.png,0.0,0.010492489,2.0926785,-1.4723278
alexnet_w1_mlp_simclrhn_probe3,1,416,NaN,chair,truck,270,0416_rot_dnn_270_truck_20_n03417042_2153.png,n03417042_2153.png,0.0,2.0768027,2.378065,-0.21302468
alexnet_w1_mlp_simclrhn_probe3,1,417,NaN,bear,bicycle,270,0417_rot_dnn_270_bicycle_20_n03792782_10129.png,n03792782_10129.png,0.0,-0.41146275,0.8926893,-0.92217475
alexnet_w1_mlp_simclrhn_probe3,1,418,NaN,bird,bird,180,0418_rot_dnn_180_bird_20_n01514859_18430.png,n01514859_18430.png,1.0,1.6368967,0.48932442,0.81145614
alexnet_w1_mlp_simclrhn_probe3,1,419,NaN,chair,chair,0,0419_rot_dnn_0_chair_20_n04099969_5010.png,n04099969_5010.png,1.0,4.1498528,2.0676885,1.4723126
alexnet_w1_mlp_simclrhn_probe3,1,420,NaN,chair,truck,0,0420_rot_dnn_0_truck_20_n03796401_588.png,n03796401_588.png,0.0,2.7410007,3.5375364,-0.5632358
alexnet_w1_mlp_simclrhn_probe3,1,421,NaN,car,car,0,0421_rot_dnn_0_car_20_n02814533_486.png,n02814533_486.png,1.0,11.16162,4.2033663,4.9202285
alexnet_w1_mlp_simclrhn_probe3,1,422,NaN,oven,elephant,90,0422_rot_dnn_90_elephant_20_n02504013_3540.png,n02504013_3540.png,0.0,0.2610824,1.5789576,-0.93187845
alexnet_w1_mlp_simclrhn_probe3,1,423,NaN,bicycle,car,180,0423_rot_dnn_180_car_20_n02814533_55715.png,n02814533_55715.png,0.0,-0.39351133,1.7570105,-1.5206486
alexnet_w1_mlp_simclrhn_probe3,1,424,NaN,knife,bottle,180,0424_rot_dnn_180_bottle_20_n03983396_10896.png,n03983396_10896.png,0.0,1.1528704,1.1949304,-0.029740924
alexnet_w1_mlp_simclrhn_probe3,1,425,NaN,bottle,bottle,90,0425_rot_dnn_90_bottle_20_n04557648_15053.png,n04557648_15053.png,1.0,2.770157,0.9882578,1.2599931
alexnet_w1_mlp_simclrhn_probe3,1,426,NaN,car,car,0,0426_rot_dnn_0_car_20_n04285008_8281.png,n04285008_8281.png,1.0,12.09948,2.1430802,7.040238
alexnet_w1_mlp_simclrhn_probe3,1,427,NaN,bottle,car,270,0427_rot_dnn_270_car_20_n02814533_38596.png,n02814533_38596.png,0.0,0.28586987,3.027859,-1.9388791
alexnet_w1_mlp_simclrhn_probe3,1,428,NaN,oven,elephant,270,0428_rot_dnn_270_elephant_20_n02504013_15219.png,n02504013_15219.png,0.0,1.2574705,1.9096836,-0.46118432
alexnet_w1_mlp_simclrhn_probe3,1,429,NaN,elephant,elephant,180,0429_rot_dnn_180_elephant_20_n02504013_828.png,n02504013_828.png,1.0,2.778221,1.2206889,1.1013414
alexnet_w1_mlp_simclrhn_probe3,1,430,NaN,oven,oven,180,0430_rot_dnn_180_oven_20_n04111531_1439.png,n04111531_1439.png,1.0,6.633026,1.3731123,3.7193208
alexnet_w1_mlp_simclrhn_probe3,1,431,NaN,chair,bottle,90,0431_rot_dnn_90_bottle_20_n03983396_3315.png,n03983396_3315.png,0.0,1.5983543,1.6206727,-0.015781466
alexnet_w1_mlp_simclrhn_probe3,1,432,NaN,clock,airplane,90,0432_rot_dnn_90_airplane_20_n02690373_4024.png,n02690373_4024.png,0.0,0.26974612,1.0109829,-0.52413356
alexnet_w1_mlp_simclrhn_probe3,1,433,NaN,oven,elephant,270,0433_rot_dnn_270_elephant_20_n02504013_10301.png,n02504013_10301.png,0.0,0.27499118,1.4167858,-0.8073708
alexnet_w1_mlp_simclrhn_probe3,1,434,NaN,oven,oven,180,0434_rot_dnn_180_oven_20_n04111531_7067.png,n04111531_7067.png,1.0,4.090972,0.7347761,2.373189
alexnet_w1_mlp_simclrhn_probe3,1,435,NaN,knife,knife,90,0435_rot_dnn_90_knife_20_n03041632_36834.png,n03041632_36834.png,1.0,2.292121,1.6068159,0.48458382
alexnet_w1_mlp_simclrhn_probe3,1,436,NaN,chair,car,90,0436_rot_dnn_90_car_20_n02814533_18148.png,n02814533_18148.png,0.0,1.2530637,3.1060202,-1.3102381
alexnet_w1_mlp_simclrhn_probe3,1,437,NaN,elephant,cat,90,0437_rot_dnn_90_cat_20_n02125311_41284.png,n02125311_41284.png,0.0,0.8982344,1.8417556,-0.6671702
alexnet_w1_mlp_simclrhn_probe3,1,438,NaN,bicycle,bicycle,0,0438_rot_dnn_0_bicycle_20_n02835271_18188.png,n02835271_18188.png,1.0,9.581362,3.2941563,4.445726
alexnet_w1_mlp_simclrhn_probe3,1,439,NaN,bottle,bottle,0,0439_rot_dnn_0_bottle_20_n04591713_2903.png,n04591713_2903.png,1.0,3.7762146,2.895122,0.62302655
alexnet_w1_mlp_simclrhn_probe3,1,440,NaN,bottle,knife,0,0440_rot_dnn_0_knife_20_n03041632_54191.png,n03041632_54191.png,0.0,1.2192885,1.4588269,-0.16937925
alexnet_w1_mlp_simclrhn_probe3,1,441,NaN,chair,truck,180,0441_rot_dnn_180_truck_20_n03417042_8867.png,n03417042_8867.png,0.0,1.9278833,2.2225509,-0.20836146
alexnet_w1_mlp_simclrhn_probe3,1,442,NaN,oven,oven,270,0442_rot_dnn_270_oven_20_n04111531_8421.png,n04111531_8421.png,1.0,1.8388493,1.482225,0.25217152
alexnet_w1_mlp_simclrhn_probe3,1,443,NaN,bear,elephant,270,0443_rot_dnn_270_elephant_20_n02504013_4062.png,n02504013_4062.png,0.0,1.7764326,2.7035933,-0.65560156
alexnet_w1_mlp_simclrhn_probe3,1,444,NaN,keyboard,keyboard,270,0444_rot_dnn_270_keyboard_20_n04505470_1649.png,n04505470_1649.png,1.0,4.368493,0.9996079,2.3821614
alexnet_w1_mlp_simclrhn_probe3,1,445,NaN,airplane,boat,180,0445_rot_dnn_180_boat_20_n03344393_7967.png,n03344393_7967.png,0.0,1.091756,1.1251827,-0.02363629
alexnet_w1_mlp_simclrhn_probe3,1,446,NaN,bicycle,bicycle,0,0446_rot_dnn_0_bicycle_20_n02835271_10265.png,n02835271_10265.png,1.0,10.357503,2.1985934,5.7692204
alexnet_w1_mlp_simclrhn_probe3,1,447,NaN,chair,bicycle,180,0447_rot_dnn_180_bicycle_20_n02835271_6742.png,n02835271_6742.png,0.0,0.7373141,1.5512259,-0.57552254
alexnet_w1_mlp_simclrhn_probe3,1,448,NaN,cat,cat,180,0448_rot_dnn_180_cat_20_n02123045_3168.png,n02123045_3168.png,1.0,1.0666329,0.80274016,0.18660033
alexnet_w1_mlp_simclrhn_probe3,1,449,NaN,airplane,car,180,0449_rot_dnn_180_car_20_n03100240_8489.png,n03100240_8489.png,0.0,1.1488671,2.238636,-0.770583
alexnet_w1_mlp_simclrhn_probe3,1,450,NaN,chair,oven,270,0450_rot_dnn_270_oven_20_n04111531_1826.png,n04111531_1826.png,0.0,1.622452,1.915412,-0.20715396
alexnet_w1_mlp_simclrhn_probe3,1,451,NaN,bear,dog,180,0451_rot_dnn_180_dog_20_n02104365_1592.png,n02104365_1592.png,0.0,0.5419577,1.4220403,-0.6223124
alexnet_w1_mlp_simclrhn_probe3,1,452,NaN,knife,boat,90,0452_rot_dnn_90_boat_20_n02951358_4343.png,n02951358_4343.png,0.0,-0.25571528,0.35642093,-0.4328457
alexnet_w1_mlp_simclrhn_probe3,1,453,NaN,bottle,bottle,0,0453_rot_dnn_0_bottle_20_n02823428_4282.png,n02823428_4282.png,1.0,8.287681,3.746388,3.2111788
alexnet_w1_mlp_simclrhn_probe3,1,454,NaN,bird,bird,0,0454_rot_dnn_0_bird_20_n01817953_2043.png,n01817953_2043.png,1.0,2.1216989,0.9191783,0.8503105
alexnet_w1_mlp_simclrhn_probe3,1,455,NaN,dog,dog,0,0455_rot_dnn_0_dog_20_n02110958_14369.png,n02110958_14369.png,1.0,1.0033473,0.87828267,0.08843403
alexnet_w1_mlp_simclrhn_probe3,1,456,NaN,dog,dog,270,0456_rot_dnn_270_dog_20_n02108000_1044.png,n02108000_1044.png,1.0,0.92148817,0.65700024,0.18702121
alexnet_w1_mlp_simclrhn_probe3,1,457,NaN,bear,dog,270,0457_rot_dnn_270_dog_20_n02087394_1428.png,n02087394_1428.png,0.0,-0.025493003,0.95184803,-0.6910845
alexnet_w1_mlp_simclrhn_probe3,1,458,NaN,clock,airplane,90,0458_rot_dnn_90_airplane_20_n02690373_2856.png,n02690373_2856.png,0.0,-0.6988914,1.0096254,-1.2081039
alexnet_w1_mlp_simclrhn_probe3,1,459,NaN,chair,chair,0,0459_rot_dnn_0_chair_20_n03376595_19165.png,n03376595_19165.png,1.0,4.763303,4.361784,0.28391668
alexnet_w1_mlp_simclrhn_probe3,1,460,NaN,chair,chair,270,0460_rot_dnn_270_chair_20_n04099969_42125.png,n04099969_42125.png,1.0,4.022126,3.38129,0.45313966
alexnet_w1_mlp_simclrhn_probe3,1,461,NaN,bottle,bottle,270,0461_rot_dnn_270_bottle_20_n02823428_12656.png,n02823428_12656.png,1.0,3.3177116,3.0785518,0.16911153
alexnet_w1_mlp_simclrhn_probe3,1,462,NaN,bicycle,bicycle,180,0462_rot_dnn_180_bicycle_20_n02835271_5861.png,n02835271_5861.png,1.0,4.5197515,1.8036115,1.920601
alexnet_w1_mlp_simclrhn_probe3,1,463,NaN,airplane,airplane,90,0463_rot_dnn_90_airplane_20_n02690373_19345.png,n02690373_19345.png,1.0,0.92388546,0.8735876,0.035565957
alexnet_w1_mlp_simclrhn_probe3,1,464,NaN,clock,clock,90,0464_rot_dnn_90_clock_20_n02708093_8069.png,n02708093_8069.png,1.0,7.704674,0.94552106,4.779443
alexnet_w1_mlp_simclrhn_probe3,1,465,NaN,chair,chair,270,0465_rot_dnn_270_chair_20_n04099969_16.png,n04099969_16.png,1.0,1.4453729,1.1229205,0.2280083
alexnet_w1_mlp_simclrhn_probe3,1,466,NaN,dog,dog,270,0466_rot_dnn_270_dog_20_n02104365_1756.png,n02104365_1756.png,1.0,1.452146,0.4634256,0.69913095
alexnet_w1_mlp_simclrhn_probe3,1,467,NaN,bird,bird,270,0467_rot_dnn_270_bird_20_n01819313_17231.png,n01819313_17231.png,1.0,1.4224594,0.28274933,0.80589676
alexnet_w1_mlp_simclrhn_probe3,1,468,NaN,clock,car,90,0468_rot_dnn_90_car_20_n02814533_34149.png,n02814533_34149.png,0.0,0.48221883,1.8052295,-0.93550986
alexnet_w1_mlp_simclrhn_probe3,1,469,NaN,knife,knife,0,0469_rot_dnn_0_knife_20_n03041632_26053.png,n03041632_26053.png,1.0,2.7650237,1.3108431,1.028261
alexnet_w1_mlp_simclrhn_probe3,1,470,NaN,oven,oven,0,0470_rot_dnn_0_oven_20_n04111531_11287.png,n04111531_11287.png,1.0,5.0222106,1.8671055,2.2309964
alexnet_w1_mlp_simclrhn_probe3,1,471,NaN,keyboard,bottle,0,0471_rot_dnn_0_bottle_20_n03937543_11959.png,n03937543_11959.png,0.0,0.8140685,1.7531855,-0.664056
alexnet_w1_mlp_simclrhn_probe3,1,472,NaN,clock,airplane,270,0472_rot_dnn_270_airplane_20_n02690373_1348.png,n02690373_1348.png,0.0,-0.86519027,1.7244233,-1.8311332
alexnet_w1_mlp_simclrhn_probe3,1,473,NaN,elephant,bear,0,0473_rot_dnn_0_bear_20_n02132136_5175.png,n02132136_5175.png,0.0,5.1969075,5.7131586,-0.36504465
alexnet_w1_mlp_simclrhn_probe3,1,474,NaN,knife,keyboard,270,0474_rot_dnn_270_keyboard_20_n03085013_7382.png,n03085013_7382.png,0.0,0.12101725,1.5066812,-0.97981244
alexnet_w1_mlp_simclrhn_probe3,1,475,NaN,oven,dog,270,0475_rot_dnn_270_dog_20_n02109961_4280.png,n02109961_4280.png,0.0,0.23283696,0.7908631,-0.39458406
alexnet_w1_mlp_simclrhn_probe3,1,476,NaN,oven,truck,90,0476_rot_dnn_90_truck_20_n03417042_1344.png,n03417042_1344.png,0.0,-0.072666004,2.1918216,-1.6012346
alexnet_w1_mlp_simclrhn_probe3,1,477,NaN,elephant,elephant,0,0477_rot_dnn_0_elephant_20_n02504013_9299.png,n02504013_9299.png,1.0,21.633934,6.2716084,10.862804
alexnet_w1_mlp_simclrhn_probe3,1,478,NaN,bear,bear,0,0478_rot_dnn_0_bear_20_n02134418_5527.png,n02134418_5527.png,1.0,4.131651,0.6520181,2.460472
alexnet_w1_mlp_simclrhn_probe3,1,479,NaN,keyboard,keyboard,270,0479_rot_dnn_270_keyboard_20_n03085013_23109.png,n03085013_23109.png,1.0,2.2628813,1.4925175,0.5447295
alexnet_w1_mlp_simclrhn_probe3,1,480,NaN,bear,bear,180,0480_rot_dnn_180_bear_20_n02133161_4393.png,n02133161_4393.png,1.0,3.5746598,1.5810925,1.409665
alexnet_w1_mlp_simclrhn_probe3,1,481,NaN,oven,oven,0,0481_rot_dnn_0_oven_20_n04111531_73.png,n04111531_73.png,1.0,3.767443,2.420151,0.9526793
alexnet_w1_mlp_simclrhn_probe3,1,482,NaN,keyboard,keyboard,0,0482_rot_dnn_0_keyboard_20_n03085013_7613.png,n03085013_7613.png,1.0,2.0855765,2.011432,0.052428152
alexnet_w1_mlp_simclrhn_probe3,1,483,NaN,oven,oven,180,0483_rot_dnn_180_oven_20_n04111531_2795.png,n04111531_2795.png,1.0,3.9636211,0.44860902,2.485489
alexnet_w1_mlp_simclrhn_probe3,1,484,NaN,oven,oven,0,0484_rot_dnn_0_oven_20_n04111531_22517.png,n04111531_22517.png,1.0,5.227781,1.0495423,2.9544609
alexnet_w1_mlp_simclrhn_probe3,1,485,NaN,cat,elephant,90,0485_rot_dnn_90_elephant_20_n02504458_2613.png,n02504458_2613.png,0.0,0.18232466,0.859003,-0.47848386
alexnet_w1_mlp_simclrhn_probe3,1,486,NaN,oven,oven,180,0486_rot_dnn_180_oven_20_n04111531_9176.png,n04111531_9176.png,1.0,2.6829178,0.07644067,1.8430578
alexnet_w1_mlp_simclrhn_probe3,1,487,NaN,bottle,bottle,180,0487_rot_dnn_180_bottle_20_n04557648_5790.png,n04557648_5790.png,1.0,4.4302187,2.2402735,1.5485251
alexnet_w1_mlp_simclrhn_probe3,1,488,NaN,chair,truck,90,0488_rot_dnn_90_truck_20_n04467665_9812.png,n04467665_9812.png,0.0,0.60544723,2.032068,-1.0087732
alexnet_w1_mlp_simclrhn_probe3,1,489,NaN,bottle,bottle,0,0489_rot_dnn_0_bottle_20_n04591713_7476.png,n04591713_7476.png,1.0,1.4900892,0.15961096,0.9407902
alexnet_w1_mlp_simclrhn_probe3,1,490,NaN,elephant,elephant,90,0490_rot_dnn_90_elephant_20_n02504458_1567.png,n02504458_1567.png,1.0,1.9702238,1.2981904,0.4751994
alexnet_w1_mlp_simclrhn_probe3,1,491,NaN,clock,clock,90,0491_rot_dnn_90_clock_20_n04548280_6865.png,n04548280_6865.png,1.0,5.1140027,0.7458555,3.0887468
alexnet_w1_mlp_simclrhn_probe3,1,492,NaN,bottle,bottle,180,0492_rot_dnn_180_bottle_20_n02823428_3.png,n02823428_3.png,1.0,4.685028,1.1249921,2.5173256
alexnet_w1_mlp_simclrhn_probe3,1,493,NaN,elephant,boat,90,0493_rot_dnn_90_boat_20_n04273569_8951.png,n04273569_8951.png,0.0,-0.6761268,0.5510712,-0.86776006
alexnet_w1_mlp_simclrhn_probe3,1,494,NaN,knife,knife,180,0494_rot_dnn_180_knife_20_n03041632_53874.png,n03041632_53874.png,1.0,1.8759545,0.29019707,1.1212999
alexnet_w1_mlp_simclrhn_probe3,1,495,NaN,clock,clock,0,0495_rot_dnn_0_clock_20_n04548280_6126.png,n04548280_6126.png,1.0,1.1670128,0.43511975,0.51752657
alexnet_w1_mlp_simclrhn_probe3,1,496,NaN,cat,cat,180,0496_rot_dnn_180_cat_20_n02123597_6186.png,n02123597_6186.png,1.0,1.785525,0.5588572,0.8673851
alexnet_w1_mlp_simclrhn_probe3,1,497,NaN,cat,cat,270,0497_rot_dnn_270_cat_20_n02124075_14662.png,n02124075_14662.png,1.0,2.2585819,1.7219156,0.37948036
alexnet_w1_mlp_simclrhn_probe3,1,498,NaN,clock,car,90,0498_rot_dnn_90_car_20_n04285008_8677.png,n04285008_8677.png,0.0,-0.5720646,2.5445216,-2.2037592
alexnet_w1_mlp_simclrhn_probe3,1,499,NaN,oven,bird,90,0499_rot_dnn_90_bird_20_n01820546_2568.png,n01820546_2568.png,0.0,0.019711576,0.3519134,-0.23490216
alexnet_w1_mlp_simclrhn_probe3,1,500,NaN,keyboard,clock,90,0500_rot_dnn_90_clock_20_n04548280_7354.png,n04548280_7354.png,0.0,1.3901696,1.6619239,-0.19215928
alexnet_w1_mlp_simclrhn_probe3,1,501,NaN,clock,bicycle,270,0501_rot_dnn_270_bicycle_20_n03792782_586.png,n03792782_586.png,0.0,4.4122,4.754764,-0.2422294
alexnet_w1_mlp_simclrhn_probe3,1,502,NaN,elephant,bear,0,0502_rot_dnn_0_bear_20_n02134084_572.png,n02134084_572.png,0.0,3.6743011,3.76011,-0.060675953
alexnet_w1_mlp_simclrhn_probe3,1,503,NaN,bicycle,bicycle,270,0503_rot_dnn_270_bicycle_20_n03792782_3388.png,n03792782_3388.png,1.0,1.1167898,0.54718274,0.40277302
alexnet_w1_mlp_simclrhn_probe3,1,504,NaN,bicycle,bicycle,270,0504_rot_dnn_270_bicycle_20_n03792782_28970.png,n03792782_28970.png,1.0,12.333633,4.2771015,5.6968284
alexnet_w1_mlp_simclrhn_probe3,1,505,NaN,oven,bottle,270,0505_rot_dnn_270_bottle_20_n04560804_11386.png,n04560804_11386.png,0.0,0.92807925,3.4275098,-1.7673644
alexnet_w1_mlp_simclrhn_probe3,1,506,NaN,chair,chair,180,0506_rot_dnn_180_chair_20_n03376595_6799.png,n03376595_6799.png,1.0,3.7049563,2.4379292,0.8959235
alexnet_w1_mlp_simclrhn_probe3,1,507,NaN,cat,dog,270,0507_rot_dnn_270_dog_20_n02094258_6398.png,n02094258_6398.png,0.0,0.41314256,1.8457285,-1.0129913
alexnet_w1_mlp_simclrhn_probe3,1,508,NaN,bird,bird,0,0508_rot_dnn_0_bird_20_n01592084_2639.png,n01592084_2639.png,1.0,3.4460275,0.50639886,2.0786314
alexnet_w1_mlp_simclrhn_probe3,1,509,NaN,bird,bird,180,0509_rot_dnn_180_bird_20_n02017213_4781.png,n02017213_4781.png,1.0,1.5651821,0.64695024,0.649288
alexnet_w1_mlp_simclrhn_probe3,1,510,NaN,oven,airplane,270,0510_rot_dnn_270_airplane_20_n02690373_3818.png,n02690373_3818.png,0.0,-0.38905418,1.1295898,-1.0738435
alexnet_w1_mlp_simclrhn_probe3,1,511,NaN,bicycle,bicycle,90,0511_rot_dnn_90_bicycle_20_n03792782_26383.png,n03792782_26383.png,1.0,6.3348966,2.4885454,2.719781
alexnet_w1_mlp_simclrhn_probe3,1,512,NaN,oven,oven,90,0512_rot_dnn_90_oven_20_n04111531_5216.png,n04111531_5216.png,1.0,8.220003,2.8062239,3.82812
alexnet_w1_mlp_simclrhn_probe3,1,513,NaN,airplane,airplane,180,0513_rot_dnn_180_airplane_20_n02690373_20331.png,n02690373_20331.png,1.0,2.6496577,1.0690088,1.1176876
alexnet_w1_mlp_simclrhn_probe3,1,514,NaN,clock,truck,180,0514_rot_dnn_180_truck_20_n04467665_23691.png,n04467665_23691.png,0.0,0.7126994,1.4516441,-0.5225128
alexnet_w1_mlp_simclrhn_probe3,1,515,NaN,bird,bird,0,0515_rot_dnn_0_bird_20_n02009229_492.png,n02009229_492.png,1.0,4.0567856,1.5543581,1.7694836
alexnet_w1_mlp_simclrhn_probe3,1,516,NaN,bird,bird,90,0516_rot_dnn_90_bird_20_n02002556_5890.png,n02002556_5890.png,1.0,2.3198588,1.590193,0.51595163
alexnet_w1_mlp_simclrhn_probe3,1,517,NaN,bird,bird,270,0517_rot_dnn_270_bird_20_n01855032_5358.png,n01855032_5358.png,1.0,0.7104946,0.44865346,0.18514964
alexnet_w1_mlp_simclrhn_probe3,1,518,NaN,cat,dog,180,0518_rot_dnn_180_dog_20_n02112350_10026.png,n02112350_10026.png,0.0,0.6603607,1.4642371,-0.5684265
alexnet_w1_mlp_simclrhn_probe3,1,519,NaN,clock,knife,90,0519_rot_dnn_90_knife_20_n03041632_11773.png,n03041632_11773.png,0.0,0.32537135,0.43490377,-0.07745112
alexnet_w1_mlp_simclrhn_probe3,1,520,NaN,elephant,elephant,0,0520_rot_dnn_0_elephant_20_n02504013_20486.png,n02504013_20486.png,1.0,20.910074,7.6113434,9.403623
alexnet_w1_mlp_simclrhn_probe3,1,521,NaN,oven,oven,0,0521_rot_dnn_0_oven_20_n04111531_27.png,n04111531_27.png,1.0,5.929658,3.1976602,1.9318142
alexnet_w1_mlp_simclrhn_probe3,1,522,NaN,oven,bird,180,0522_rot_dnn_180_bird_20_n01855672_15421.png,n01855672_15421.png,0.0,0.29980546,1.4246207,-0.7953645
alexnet_w1_mlp_simclrhn_probe3,1,523,NaN,bear,bear,270,0523_rot_dnn_270_bear_20_n02132136_239.png,n02132136_239.png,1.0,1.0320092,0.7139338,0.22491328
alexnet_w1_mlp_simclrhn_probe3,1,524,NaN,keyboard,keyboard,90,0524_rot_dnn_90_keyboard_20_n03085013_25924.png,n03085013_25924.png,1.0,3.3548791,0.8933563,1.7405595
alexnet_w1_mlp_simclrhn_probe3,1,525,NaN,bicycle,bicycle,180,0525_rot_dnn_180_bicycle_20_n03792782_6030.png,n03792782_6030.png,1.0,4.382313,0.82101077,2.518221
alexnet_w1_mlp_simclrhn_probe3,1,526,NaN,oven,bottle,270,0526_rot_dnn_270_bottle_20_n03983396_5497.png,n03983396_5497.png,0.0,0.17447886,3.5736437,-2.4035726
alexnet_w1_mlp_simclrhn_probe3,1,527,NaN,oven,chair,180,0527_rot_dnn_180_chair_20_n04429376_6390.png,n04429376_6390.png,0.0,2.7885947,4.165488,-0.9736104
alexnet_w1_mlp_simclrhn_probe3,1,528,NaN,cat,dog,90,0528_rot_dnn_90_dog_20_n02100877_11159.png,n02100877_11159.png,0.0,0.7423305,1.7509643,-0.71321183
alexnet_w1_mlp_simclrhn_probe3,1,529,NaN,bottle,bottle,180,0529_rot_dnn_180_bottle_20_n04579145_579.png,n04579145_579.png,1.0,1.9966705,1.5989422,0.2812364
alexnet_w1_mlp_simclrhn_probe3,1,530,NaN,cat,cat,90,0530_rot_dnn_90_cat_20_n02123159_5678.png,n02123159_5678.png,1.0,6.5523796,0.40283486,4.348385
alexnet_w1_mlp_simclrhn_probe3,1,531,NaN,elephant,elephant,180,0531_rot_dnn_180_elephant_20_n02504013_13283.png,n02504013_13283.png,1.0,1.3384101,0.8856331,0.3201617
alexnet_w1_mlp_simclrhn_probe3,1,532,NaN,oven,dog,90,0532_rot_dnn_90_dog_20_n02095570_7633.png,n02095570_7633.png,0.0,-0.12452538,1.4641392,-1.1233555
alexnet_w1_mlp_simclrhn_probe3,1,533,NaN,clock,clock,180,0533_rot_dnn_180_clock_20_n02708093_8311.png,n02708093_8311.png,1.0,2.5961812,2.2850175,0.22002594
alexnet_w1_mlp_simclrhn_probe3,1,534,NaN,chair,chair,270,0534_rot_dnn_270_chair_20_n03376595_426.png,n03376595_426.png,1.0,1.8645649,1.3872392,0.33752024
alexnet_w1_mlp_simclrhn_probe3,1,535,NaN,oven,dog,180,0535_rot_dnn_180_dog_20_n02100877_3112.png,n02100877_3112.png,0.0,0.27802715,0.9568022,-0.47996646
alexnet_w1_mlp_simclrhn_probe3,1,536,NaN,chair,car,270,0536_rot_dnn_270_car_20_n02814533_458.png,n02814533_458.png,0.0,1.5804548,2.7432075,-0.8221903
alexnet_w1_mlp_simclrhn_probe3,1,537,NaN,bird,bird,0,0537_rot_dnn_0_bird_20_n02006656_5079.png,n02006656_5079.png,1.0,2.9406435,0.47507074,1.7434233
alexnet_w1_mlp_simclrhn_probe3,1,538,NaN,clock,boat,90,0538_rot_dnn_90_boat_20_n04273569_12725.png,n04273569_12725.png,0.0,-0.03913226,0.74758977,-0.55629647
alexnet_w1_mlp_simclrhn_probe3,1,539,NaN,cat,cat,270,0539_rot_dnn_270_cat_20_n02123045_6677.png,n02123045_6677.png,1.0,6.2092643,0.7463499,3.862864
alexnet_w1_mlp_simclrhn_probe3,1,540,NaN,bicycle,bicycle,270,0540_rot_dnn_270_bicycle_20_n02835271_4440.png,n02835271_4440.png,1.0,2.2082143,0.4349518,1.253886
alexnet_w1_mlp_simclrhn_probe3,1,541,NaN,keyboard,keyboard,270,0541_rot_dnn_270_keyboard_20_n03085013_21444.png,n03085013_21444.png,1.0,2.864854,1.2543668,1.1387866
alexnet_w1_mlp_simclrhn_probe3,1,542,NaN,chair,clock,180,0542_rot_dnn_180_clock_20_n02708093_8255.png,n02708093_8255.png,0.0,1.7565374,2.4977653,-0.52412724
alexnet_w1_mlp_simclrhn_probe3,1,543,NaN,bicycle,bicycle,0,0543_rot_dnn_0_bicycle_20_n02835271_30318.png,n02835271_30318.png,1.0,1.7757857,1.1475091,0.44425863
alexnet_w1_mlp_simclrhn_probe3,1,544,NaN,cat,cat,180,0544_rot_dnn_180_cat_20_n02123394_2059.png,n02123394_2059.png,1.0,3.211627,1.1390487,1.4655343
alexnet_w1_mlp_simclrhn_probe3,1,545,NaN,elephant,elephant,180,0545_rot_dnn_180_elephant_20_n02504013_6618.png,n02504013_6618.png,1.0,2.7717276,1.5254971,0.881218
alexnet_w1_mlp_simclrhn_probe3,1,546,NaN,cat,cat,270,0546_rot_dnn_270_cat_20_n02124075_8889.png,n02124075_8889.png,1.0,1.8906883,1.4481736,0.31290513
alexnet_w1_mlp_simclrhn_probe3,1,547,NaN,cat,dog,90,0547_rot_dnn_90_dog_20_n02100877_7302.png,n02100877_7302.png,0.0,-0.14458221,0.879528,-0.7241553
alexnet_w1_mlp_simclrhn_probe3,1,548,NaN,knife,car,180,0548_rot_dnn_180_car_20_n02814533_85971.png,n02814533_85971.png,0.0,0.81442744,1.9574637,-0.80824876
alexnet_w1_mlp_simclrhn_probe3,1,549,NaN,chair,chair,0,0549_rot_dnn_0_chair_20_n03376595_5909.png,n03376595_5909.png,1.0,3.211915,1.7274294,1.0496899
alexnet_w1_mlp_simclrhn_probe3,1,550,NaN,clock,keyboard,270,0550_rot_dnn_270_keyboard_20_n03085013_13083.png,n03085013_13083.png,0.0,0.35215208,1.3625802,-0.7144806
alexnet_w1_mlp_simclrhn_probe3,1,551,NaN,chair,oven,90,0551_rot_dnn_90_oven_20_n04111531_9611.png,n04111531_9611.png,0.0,1.096445,1.6573792,-0.39664036
alexnet_w1_mlp_simclrhn_probe3,1,552,NaN,boat,boat,0,0552_rot_dnn_0_boat_20_n02951358_13996.png,n02951358_13996.png,1.0,2.1734939,1.6301587,0.384196
alexnet_w1_mlp_simclrhn_probe3,1,553,NaN,boat,boat,0,0553_rot_dnn_0_boat_20_n03344393_9251.png,n03344393_9251.png,1.0,5.474745,2.8077426,1.8858553
alexnet_w1_mlp_simclrhn_probe3,1,554,NaN,chair,airplane,180,0554_rot_dnn_180_airplane_20_n02690373_9175.png,n02690373_9175.png,0.0,0.71068203,3.6336496,-2.0668502
alexnet_w1_mlp_simclrhn_probe3,1,555,NaN,elephant,bear,0,0555_rot_dnn_0_bear_20_n02132136_2791.png,n02132136_2791.png,0.0,2.7816017,4.360408,-1.1163845
alexnet_w1_mlp_simclrhn_probe3,1,556,NaN,elephant,elephant,180,0556_rot_dnn_180_elephant_20_n02504458_193.png,n02504458_193.png,1.0,0.71317935,0.40537584,0.21764995
alexnet_w1_mlp_simclrhn_probe3,1,557,NaN,bird,bird,270,0557_rot_dnn_270_bird_20_n01843383_9985.png,n01843383_9985.png,1.0,1.5008943,0.03404414,1.0372198
alexnet_w1_mlp_simclrhn_probe3,1,558,NaN,bird,bird,270,0558_rot_dnn_270_bird_20_n02028035_10744.png,n02028035_10744.png,1.0,0.668806,0.1328315,0.37899122
alexnet_w1_mlp_simclrhn_probe3,1,559,NaN,chair,truck,270,0559_rot_dnn_270_truck_20_n04467665_3720.png,n04467665_3720.png,0.0,1.0472575,3.8984318,-2.0160847
alexnet_w1_mlp_simclrhn_probe3,1,560,NaN,car,car,0,0560_rot_dnn_0_car_20_n02814533_52605.png,n02814533_52605.png,1.0,4.8934174,2.3257587,1.8156089
alexnet_w1_mlp_simclrhn_probe3,1,561,NaN,clock,clock,90,0561_rot_dnn_90_clock_20_n04548280_5631.png,n04548280_5631.png,1.0,10.532983,0.6291578,7.003062
alexnet_w1_mlp_simclrhn_probe3,1,562,NaN,oven,oven,0,0562_rot_dnn_0_oven_20_n04111531_1922.png,n04111531_1922.png,1.0,5.1030216,0.41433114,3.3154051
alexnet_w1_mlp_simclrhn_probe3,1,563,NaN,airplane,boat,180,0563_rot_dnn_180_boat_20_n03662601_1197.png,n03662601_1197.png,0.0,0.5873233,3.015398,-1.7169082
alexnet_w1_mlp_simclrhn_probe3,1,564,NaN,clock,clock,270,0564_rot_dnn_270_clock_20_n02708093_1862.png,n02708093_1862.png,1.0,2.3353817,0.91155744,1.0067959
alexnet_w1_mlp_simclrhn_probe3,1,565,NaN,truck,truck,180,0565_rot_dnn_180_truck_20_n03796401_4582.png,n03796401_4582.png,1.0,2.8965044,1.8220687,0.75974077
alexnet_w1_mlp_simclrhn_probe3,1,566,NaN,oven,elephant,90,0566_rot_dnn_90_elephant_20_n02504013_565.png,n02504013_565.png,0.0,0.7042527,1.2797918,-0.4069676
alexnet_w1_mlp_simclrhn_probe3,1,567,NaN,chair,truck,180,0567_rot_dnn_180_truck_20_n04467665_49826.png,n04467665_49826.png,0.0,1.6813333,2.9721003,-0.9127101
alexnet_w1_mlp_simclrhn_probe3,1,568,NaN,bear,bear,270,0568_rot_dnn_270_bear_20_n02134418_5067.png,n02134418_5067.png,1.0,0.50010216,0.3275144,0.12203797
alexnet_w1_mlp_simclrhn_probe3,1,569,NaN,oven,chair,90,0569_rot_dnn_90_chair_20_n04429376_29223.png,n04429376_29223.png,0.0,2.257024,2.373806,-0.08257731
alexnet_w1_mlp_simclrhn_probe3,1,570,NaN,clock,airplane,270,0570_rot_dnn_270_airplane_20_n02690373_5909.png,n02690373_5909.png,0.0,-0.7499186,0.86160994,-1.1395228
alexnet_w1_mlp_simclrhn_probe3,1,571,NaN,knife,dog,270,0571_rot_dnn_270_dog_20_n02097658_722.png,n02097658_722.png,0.0,-0.50310487,0.72825253,-0.87070113
alexnet_w1_mlp_simclrhn_probe3,1,572,NaN,oven,oven,0,0572_rot_dnn_0_oven_20_n04111531_10339.png,n04111531_10339.png,1.0,4.850723,2.833674,1.4262689
alexnet_w1_mlp_simclrhn_probe3,1,573,NaN,bottle,truck,90,0573_rot_dnn_90_truck_20_n03417042_28078.png,n03417042_28078.png,0.0,-0.007117264,2.7217908,-1.9296294
alexnet_w1_mlp_simclrhn_probe3,1,574,NaN,oven,chair,180,0574_rot_dnn_180_chair_20_n04099969_22118.png,n04099969_22118.png,0.0,2.7133303,3.9543982,-0.8775675
alexnet_w1_mlp_simclrhn_probe3,1,575,NaN,oven,clock,270,0575_rot_dnn_270_clock_20_n04548280_7978.png,n04548280_7978.png,0.0,-0.00044942895,3.447928,-2.4383712
alexnet_w1_mlp_simclrhn_probe3,1,576,NaN,bear,bear,180,0576_rot_dnn_180_bear_20_n02133161_1962.png,n02133161_1962.png,1.0,3.0682871,1.7210722,0.95262486
alexnet_w1_mlp_simclrhn_probe3,1,577,NaN,knife,clock,180,0577_rot_dnn_180_clock_20_n04548280_13750.png,n04548280_13750.png,0.0,0.117043816,0.7861285,-0.47311434
alexnet_w1_mlp_simclrhn_probe3,1,578,NaN,keyboard,keyboard,0,0578_rot_dnn_0_keyboard_20_n03085013_15249.png,n03085013_15249.png,1.0,3.3319387,2.7415855,0.4174428
alexnet_w1_mlp_simclrhn_probe3,1,579,NaN,bottle,car,90,0579_rot_dnn_90_car_20_n02814533_479.png,n02814533_479.png,0.0,0.25505066,2.0552628,-1.2729422
alexnet_w1_mlp_simclrhn_probe3,1,580,NaN,knife,keyboard,270,0580_rot_dnn_270_keyboard_20_n03085013_20716.png,n03085013_20716.png,0.0,0.15638387,0.5246306,-0.26038978
alexnet_w1_mlp_simclrhn_probe3,1,581,NaN,bird,bird,180,0581_rot_dnn_180_bird_20_n01530575_7990.png,n01530575_7990.png,1.0,1.822843,0.3184673,1.0637543
alexnet_w1_mlp_simclrhn_probe3,1,582,NaN,chair,chair,0,0582_rot_dnn_0_chair_20_n04429376_17343.png,n04429376_17343.png,1.0,1.4866166,1.1632773,0.22863545
alexnet_w1_mlp_simclrhn_probe3,1,583,NaN,chair,chair,90,0583_rot_dnn_90_chair_20_n02791124_8775.png,n02791124_8775.png,1.0,2.5348763,1.3658844,0.8266021
alexnet_w1_mlp_simclrhn_probe3,1,584,NaN,cat,cat,90,0584_rot_dnn_90_cat_20_n02125311_2959.png,n02125311_2959.png,1.0,2.2279994,0.9219842,0.92349225
alexnet_w1_mlp_simclrhn_probe3,1,585,NaN,oven,oven,180,0585_rot_dnn_180_oven_20_n04111531_13906.png,n04111531_13906.png,1.0,3.7740388,1.4183925,1.6656934
alexnet_w1_mlp_simclrhn_probe3,1,586,NaN,chair,airplane,90,0586_rot_dnn_90_airplane_20_n02690373_7293.png,n02690373_7293.png,0.0,0.10746822,2.0628014,-1.3826293
alexnet_w1_mlp_simclrhn_probe3,1,587,NaN,chair,chair,180,0587_rot_dnn_180_chair_20_n04099969_10825.png,n04099969_10825.png,1.0,1.796686,1.4163598,0.2689313
alexnet_w1_mlp_simclrhn_probe3,1,588,NaN,airplane,airplane,180,0588_rot_dnn_180_airplane_20_n02690373_17044.png,n02690373_17044.png,1.0,5.5581465,1.3381633,2.9839787
alexnet_w1_mlp_simclrhn_probe3,1,589,NaN,bird,bird,0,0589_rot_dnn_0_bird_20_n01797886_6169.png,n01797886_6169.png,1.0,2.4461312,0.67553866,1.2519981
alexnet_w1_mlp_simclrhn_probe3,1,590,NaN,truck,oven,0,0590_rot_dnn_0_oven_20_n04111531_13255.png,n04111531_13255.png,0.0,0.011337206,1.718571,-1.2071966
alexnet_w1_mlp_simclrhn_probe3,1,591,NaN,keyboard,knife,270,0591_rot_dnn_270_knife_20_n03041632_17820.png,n03041632_17820.png,0.0,-0.20823163,0.6340451,-0.5955796
alexnet_w1_mlp_simclrhn_probe3,1,592,NaN,bicycle,bicycle,270,0592_rot_dnn_270_bicycle_20_n02835271_21640.png,n02835271_21640.png,1.0,1.0178635,0.7260313,0.20635654
alexnet_w1_mlp_simclrhn_probe3,1,593,NaN,bear,bear,0,0593_rot_dnn_0_bear_20_n02134418_517.png,n02134418_517.png,1.0,4.3117576,3.8415697,0.33247307
alexnet_w1_mlp_simclrhn_probe3,1,594,NaN,chair,airplane,180,0594_rot_dnn_180_airplane_20_n02690373_4588.png,n02690373_4588.png,0.0,0.55768144,2.7612047,-1.5581262
alexnet_w1_mlp_simclrhn_probe3,1,595,NaN,chair,bottle,270,0595_rot_dnn_270_bottle_20_n02823428_12190.png,n02823428_12190.png,0.0,0.14158626,2.7012126,-1.8099291
alexnet_w1_mlp_simclrhn_probe3,1,596,NaN,bottle,bottle,0,0596_rot_dnn_0_bottle_20_n04591713_1717.png,n04591713_1717.png,1.0,2.755797,1.5710915,0.83771324
alexnet_w1_mlp_simclrhn_probe3,1,597,NaN,knife,knife,0,0597_rot_dnn_0_knife_20_n03041632_9488.png,n03041632_9488.png,1.0,2.2918177,0.24744856,1.4455874
alexnet_w1_mlp_simclrhn_probe3,1,598,NaN,chair,truck,90,0598_rot_dnn_90_truck_20_n03417042_11166.png,n03417042_11166.png,0.0,0.8196955,2.1067574,-0.9100902
alexnet_w1_mlp_simclrhn_probe3,1,599,NaN,elephant,elephant,90,0599_rot_dnn_90_elephant_20_n02504458_585.png,n02504458_585.png,1.0,1.5672183,0.94633704,0.43902937
alexnet_w1_mlp_simclrhn_probe3,1,600,NaN,oven,keyboard,0,0600_rot_dnn_0_keyboard_20_n04505470_5046.png,n04505470_5046.png,0.0,1.5900345,2.4137754,-0.5824728
alexnet_w1_mlp_simclrhn_probe3,1,601,NaN,chair,chair,180,0601_rot_dnn_180_chair_20_n03376595_4937.png,n03376595_4937.png,1.0,4.082275,1.2661978,1.9912673
alexnet_w1_mlp_simclrhn_probe3,1,602,NaN,airplane,boat,180,0602_rot_dnn_180_boat_20_n03662601_1740.png,n03662601_1740.png,0.0,0.8165234,1.9007492,-0.7666635
alexnet_w1_mlp_simclrhn_probe3,1,603,NaN,airplane,knife,0,0603_rot_dnn_0_knife_20_n03041632_4037.png,n03041632_4037.png,0.0,0.8585341,1.3142815,-0.32226205
alexnet_w1_mlp_simclrhn_probe3,1,604,NaN,car,boat,0,0604_rot_dnn_0_boat_20_n04273569_1538.png,n04273569_1538.png,0.0,1.0858228,2.3824613,-0.9168619
alexnet_w1_mlp_simclrhn_probe3,1,605,NaN,bird,bird,0,0605_rot_dnn_0_bird_20_n02017213_15918.png,n02017213_15918.png,1.0,0.5603164,0.24471149,0.22316636
alexnet_w1_mlp_simclrhn_probe3,1,606,NaN,keyboard,keyboard,0,0606_rot_dnn_0_keyboard_20_n03085013_10463.png,n03085013_10463.png,1.0,9.899885,1.0228884,6.2769847
alexnet_w1_mlp_simclrhn_probe3,1,607,NaN,bear,bear,270,0607_rot_dnn_270_bear_20_n02133161_7939.png,n02133161_7939.png,1.0,2.7606854,1.3438711,1.001839
alexnet_w1_mlp_simclrhn_probe3,1,608,NaN,car,car,270,0608_rot_dnn_270_car_20_n04285008_11704.png,n04285008_11704.png,1.0,1.5203233,1.1040664,0.29433808
alexnet_w1_mlp_simclrhn_probe3,1,609,NaN,clock,truck,90,0609_rot_dnn_90_truck_20_n03796401_16046.png,n03796401_16046.png,0.0,0.018882941,2.2991998,-1.6124275
alexnet_w1_mlp_simclrhn_probe3,1,610,NaN,clock,chair,270,0610_rot_dnn_270_chair_20_n02791124_3710.png,n02791124_3710.png,0.0,2.5284579,2.7894297,-0.18453492
alexnet_w1_mlp_simclrhn_probe3,1,611,NaN,keyboard,keyboard,180,0611_rot_dnn_180_keyboard_20_n04505470_3566.png,n04505470_3566.png,1.0,5.6080484,3.1300852,1.7521846
alexnet_w1_mlp_simclrhn_probe3,1,612,NaN,oven,bird,90,0612_rot_dnn_90_bird_20_n02037110_8716.png,n02037110_8716.png,0.0,-0.2831287,0.75974464,-0.7374228
alexnet_w1_mlp_simclrhn_probe3,1,613,NaN,car,car,0,0613_rot_dnn_0_car_20_n03100240_19550.png,n03100240_19550.png,1.0,9.666284,5.5761547,2.892158
alexnet_w1_mlp_simclrhn_probe3,1,614,NaN,airplane,airplane,270,0614_rot_dnn_270_airplane_20_n02690373_10769.png,n02690373_10769.png,1.0,1.9242327,1.4853656,0.3103259
alexnet_w1_mlp_simclrhn_probe3,1,615,NaN,bicycle,bicycle,0,0615_rot_dnn_0_bicycle_20_n03792782_3456.png,n03792782_3456.png,1.0,3.3376632,1.1647525,1.53648
alexnet_w1_mlp_simclrhn_probe3,1,616,NaN,chair,chair,0,0616_rot_dnn_0_chair_20_n03376595_2368.png,n03376595_2368.png,1.0,1.1317613,1.0563061,0.053354878
alexnet_w1_mlp_simclrhn_probe3,1,617,NaN,cat,dog,0,0617_rot_dnn_0_dog_20_n02091467_2974.png,n02091467_2974.png,0.0,0.5935842,1.1566519,-0.39814898
alexnet_w1_mlp_simclrhn_probe3,1,618,NaN,knife,knife,180,0618_rot_dnn_180_knife_20_n03041632_43634.png,n03041632_43634.png,1.0,3.193731,0.95154405,1.5854657
alexnet_w1_mlp_simclrhn_probe3,1,619,NaN,keyboard,keyboard,180,0619_rot_dnn_180_keyboard_20_n04505470_4477.png,n04505470_4477.png,1.0,6.2072897,1.8016378,3.1152666
alexnet_w1_mlp_simclrhn_probe3,1,620,NaN,clock,boat,90,0620_rot_dnn_90_boat_20_n03344393_4773.png,n03344393_4773.png,0.0,-0.5772632,0.7482919,-0.937309
alexnet_w1_mlp_simclrhn_probe3,1,621,NaN,airplane,airplane,180,0621_rot_dnn_180_airplane_20_n02690373_139.png,n02690373_139.png,1.0,2.928549,1.583268,0.95125735
alexnet_w1_mlp_simclrhn_probe3,1,622,NaN,chair,knife,270,0622_rot_dnn_270_knife_20_n03041632_737.png,n03041632_737.png,0.0,1.352866,2.278943,-0.65483534
alexnet_w1_mlp_simclrhn_probe3,1,623,NaN,oven,chair,270,0623_rot_dnn_270_chair_20_n02791124_2698.png,n02791124_2698.png,0.0,2.3928614,4.394922,-1.4156705
alexnet_w1_mlp_simclrhn_probe3,1,624,NaN,bottle,truck,270,0624_rot_dnn_270_truck_20_n03417042_5301.png,n03417042_5301.png,0.0,1.5712945,2.7825878,-0.8565137
alexnet_w1_mlp_simclrhn_probe3,1,625,NaN,bird,bird,0,0625_rot_dnn_0_bird_20_n02006656_5757.png,n02006656_5757.png,1.0,3.4841545,-0.06529004,2.5098362
alexnet_w1_mlp_simclrhn_probe3,1,626,NaN,bear,bear,270,0626_rot_dnn_270_bear_20_n02132136_15174.png,n02132136_15174.png,1.0,1.9158741,1.1607592,0.5339469
alexnet_w1_mlp_simclrhn_probe3,1,627,NaN,chair,bottle,270,0627_rot_dnn_270_bottle_20_n04560804_6329.png,n04560804_6329.png,0.0,0.5435452,1.4041405,-0.6085328
alexnet_w1_mlp_simclrhn_probe3,1,628,NaN,truck,truck,0,0628_rot_dnn_0_truck_20_n03417042_22196.png,n03417042_22196.png,1.0,4.3339596,1.1766988,2.2325206
alexnet_w1_mlp_simclrhn_probe3,1,629,NaN,cat,cat,0,0629_rot_dnn_0_cat_20_n02125311_18366.png,n02125311_18366.png,1.0,2.3969991,1.6144619,0.5533374
alexnet_w1_mlp_simclrhn_probe3,1,630,NaN,chair,chair,0,0630_rot_dnn_0_chair_20_n02791124_12707.png,n02791124_12707.png,1.0,3.0593977,1.7914402,0.89658135
alexnet_w1_mlp_simclrhn_probe3,1,631,NaN,oven,oven,180,0631_rot_dnn_180_oven_20_n04111531_1938.png,n04111531_1938.png,1.0,2.69661,0.81158155,1.3329164
alexnet_w1_mlp_simclrhn_probe3,1,632,NaN,chair,airplane,270,0632_rot_dnn_270_airplane_20_n02690373_9346.png,n02690373_9346.png,0.0,-0.3525577,1.3011433,-1.1693432
alexnet_w1_mlp_simclrhn_probe3,1,633,NaN,oven,cat,0,0633_rot_dnn_0_cat_20_n02123045_10433.png,n02123045_10433.png,0.0,-0.06276546,0.93345165,-0.7044319
alexnet_w1_mlp_simclrhn_probe3,1,634,NaN,airplane,airplane,180,0634_rot_dnn_180_airplane_20_n02690373_5055.png,n02690373_5055.png,1.0,3.0871787,1.1363447,1.379448
alexnet_w1_mlp_simclrhn_probe3,1,635,NaN,clock,clock,270,0635_rot_dnn_270_clock_20_n04548280_4198.png,n04548280_4198.png,1.0,0.61069506,0.41610056,0.1375991
alexnet_w1_mlp_simclrhn_probe3,1,636,NaN,bicycle,bicycle,90,0636_rot_dnn_90_bicycle_20_n03792782_12010.png,n03792782_12010.png,1.0,4.283686,2.5076792,1.2558266
alexnet_w1_mlp_simclrhn_probe3,1,637,NaN,cat,cat,180,0637_rot_dnn_180_cat_20_n02125311_24586.png,n02125311_24586.png,1.0,1.0540777,0.85322624,0.14202346
alexnet_w1_mlp_simclrhn_probe3,1,638,NaN,oven,chair,0,0638_rot_dnn_0_chair_20_n02791124_3220.png,n02791124_3220.png,0.0,2.2335498,3.2805462,-0.7403382
alexnet_w1_mlp_simclrhn_probe3,1,639,NaN,clock,car,90,0639_rot_dnn_90_car_20_n04285008_12737.png,n04285008_12737.png,0.0,0.69936705,2.607439,-1.3492106
