subj,session,trial,rt,object_response,category,condition,imagename,filename,is_correct,targ_act,max_nontarg_act,decision_margin
alexnet_w1_mlp_simclrhn_probe3,1,1,NaN,clock,clock,0,0001_pow_dnn_0_clock_35_n03196217_10246.png,n03196217_10246.png,1.0,3.06129,2.5902016,0.33310983
alexnet_w1_mlp_simclrhn_probe3,1,2,NaN,cat,dog,pow,0002_pow_dnn_pow_dog_35_n02091467_7264.png,n02091467_7264.png,0.0,0.43889812,0.99516124,-0.3933374
alexnet_w1_mlp_simclrhn_probe3,1,3,NaN,oven,chair,pow,0003_pow_dnn_pow_chair_35_n02791124_713.png,n02791124_713.png,0.0,0.11461996,1.9375546,-1.2890095
alexnet_w1_mlp_simclrhn_probe3,1,4,NaN,car,car,0,0004_pow_dnn_0_car_35_n02814533_35174.png,n02814533_35174.png,1.0,8.50077,8.433214,0.047768902
alexnet_w1_mlp_simclrhn_probe3,1,5,NaN,oven,knife,pow,0005_pow_dnn_pow_knife_35_n03041632_46103.png,n03041632_46103.png,0.0,0.11198841,1.4584141,-0.9520667
alexnet_w1_mlp_simclrhn_probe3,1,6,NaN,bicycle,bicycle,0,0006_pow_dnn_0_bicycle_35_n03792782_11306.png,n03792782_11306.png,1.0,17.488247,5.1513824,8.72348
alexnet_w1_mlp_simclrhn_probe3,1,7,NaN,bird,bird,0,0007_pow_dnn_0_bird_35_n02002556_3463.png,n02002556_3463.png,1.0,4.4311285,0.44437134,2.8190632
alexnet_w1_mlp_simclrhn_probe3,1,8,NaN,oven,keyboard,pow,0008_pow_dnn_pow_keyboard_35_n03085013_22813.png,n03085013_22813.png,0.0,-0.64189994,1.2543261,-1.3408344
alexnet_w1_mlp_simclrhn_probe3,1,9,NaN,bird,bird,0,0009_pow_dnn_0_bird_35_n02025239_2961.png,n02025239_2961.png,1.0,4.191665,0.5493947,2.5754743
alexnet_w1_mlp_simclrhn_probe3,1,10,NaN,oven,boat,pow,0010_pow_dnn_pow_boat_35_n02951358_14504.png,n02951358_14504.png,0.0,0.5798367,2.0911183,-1.0686375
alexnet_w1_mlp_simclrhn_probe3,1,11,NaN,oven,oven,0,0011_pow_dnn_0_oven_35_n04111531_19000.png,n04111531_19000.png,1.0,1.6662014,1.207221,0.3245481
alexnet_w1_mlp_simclrhn_probe3,1,12,NaN,bear,bird,0,0012_pow_dnn_0_bird_35_n01614925_11281.png,n01614925_11281.png,0.0,2.5380054,2.8269424,-0.20430937
alexnet_w1_mlp_simclrhn_probe3,1,13,NaN,bottle,knife,0,0013_pow_dnn_0_knife_35_n03041632_52040.png,n03041632_52040.png,0.0,1.4395763,1.8883817,-0.3173534
alexnet_w1_mlp_simclrhn_probe3,1,14,NaN,oven,car,pow,0014_pow_dnn_pow_car_35_n03100240_14206.png,n03100240_14206.png,0.0,-0.09924465,2.4235857,-1.7839104
alexnet_w1_mlp_simclrhn_probe3,1,15,NaN,cat,bird,0,0015_pow_dnn_0_bird_35_n01817953_689.png,n01817953_689.png,0.0,0.030458167,1.3545507,-0.9362748
alexnet_w1_mlp_simclrhn_probe3,1,16,NaN,oven,chair,pow,0016_pow_dnn_pow_chair_35_n04099969_7934.png,n04099969_7934.png,0.0,0.4678396,3.1260376,-1.8796297
alexnet_w1_mlp_simclrhn_probe3,1,17,NaN,knife,knife,0,0017_pow_dnn_0_knife_35_n03041632_30196.png,n03041632_30196.png,1.0,2.4705114,1.3955095,0.7601412
alexnet_w1_mlp_simclrhn_probe3,1,18,NaN,car,car,0,0018_pow_dnn_0_car_35_n02814533_18077.png,n02814533_18077.png,1.0,5.462969,2.0699327,2.3992388
alexnet_w1_mlp_simclrhn_probe3,1,19,NaN,cat,cat,0,0019_pow_dnn_0_cat_35_n02123159_6927.png,n02123159_6927.png,1.0,2.5406148,0.94883484,1.1255584
alexnet_w1_mlp_simclrhn_probe3,1,20,NaN,bear,bird,pow,0020_pow_dnn_pow_bird_35_n01855672_8550.png,n01855672_8550.png,0.0,0.61821043,0.7600557,-0.10029977
alexnet_w1_mlp_simclrhn_probe3,1,21,NaN,truck,truck,0,0021_pow_dnn_0_truck_35_n03417042_17888.png,n03417042_17888.png,1.0,9.444145,1.7473073,5.4424863
alexnet_w1_mlp_simclrhn_probe3,1,22,NaN,oven,truck,pow,0022_pow_dnn_pow_truck_35_n04467665_45611.png,n04467665_45611.png,0.0,-0.4245621,2.6386056,-2.1659865
alexnet_w1_mlp_simclrhn_probe3,1,23,NaN,bear,dog,pow,0023_pow_dnn_pow_dog_35_n02093256_1772.png,n02093256_1772.png,0.0,0.20221621,2.4702122,-1.6037154
alexnet_w1_mlp_simclrhn_probe3,1,24,NaN,oven,boat,pow,0024_pow_dnn_pow_boat_35_n03344393_6260.png,n03344393_6260.png,0.0,0.80236673,3.1738806,-1.6769135
alexnet_w1_mlp_simclrhn_probe3,1,25,NaN,oven,chair,0,0025_pow_dnn_0_chair_35_n04429376_24073.png,n04429376_24073.png,0.0,0.4965186,1.5211384,-0.7245156
alexnet_w1_mlp_simclrhn_probe3,1,26,NaN,knife,knife,0,0026_pow_dnn_0_knife_35_n03041632_29355.png,n03041632_29355.png,1.0,2.7702289,1.3851714,0.9793835
alexnet_w1_mlp_simclrhn_probe3,1,27,NaN,clock,clock,0,0027_pow_dnn_0_clock_35_n03196217_5907.png,n03196217_5907.png,1.0,2.9518478,1.8354481,0.78941375
alexnet_w1_mlp_simclrhn_probe3,1,28,NaN,airplane,airplane,0,0028_pow_dnn_0_airplane_35_n02690373_7276.png,n02690373_7276.png,1.0,12.65148,3.2623413,6.6391234
alexnet_w1_mlp_simclrhn_probe3,1,29,NaN,bicycle,bicycle,pow,0029_pow_dnn_pow_bicycle_35_n03792782_15561.png,n03792782_15561.png,1.0,5.032595,1.6041131,2.424303
alexnet_w1_mlp_simclrhn_probe3,1,30,NaN,cat,cat,0,0030_pow_dnn_0_cat_35_n02123045_3505.png,n02123045_3505.png,1.0,10.09541,2.1471403,5.6202755
alexnet_w1_mlp_simclrhn_probe3,1,31,NaN,oven,knife,0,0031_pow_dnn_0_knife_35_n03041632_34769.png,n03041632_34769.png,0.0,1.481525,4.7905936,-2.339865
alexnet_w1_mlp_simclrhn_probe3,1,32,NaN,elephant,clock,pow,0032_pow_dnn_pow_clock_35_n03196217_5206.png,n03196217_5206.png,0.0,0.16464022,1.8026881,-1.1582748
alexnet_w1_mlp_simclrhn_probe3,1,33,NaN,truck,truck,0,0033_pow_dnn_0_truck_35_n04467665_58815.png,n04467665_58815.png,1.0,4.3687563,2.6822307,1.1925536
alexnet_w1_mlp_simclrhn_probe3,1,34,NaN,bird,bird,0,0034_pow_dnn_0_bird_35_n01616318_2186.png,n01616318_2186.png,1.0,5.7427335,0.07638347,4.0067143
alexnet_w1_mlp_simclrhn_probe3,1,35,NaN,elephant,bicycle,pow,0035_pow_dnn_pow_bicycle_35_n03792782_12885.png,n03792782_12885.png,0.0,-0.33928782,2.6613302,-2.1217573
alexnet_w1_mlp_simclrhn_probe3,1,36,NaN,oven,airplane,pow,0036_pow_dnn_pow_airplane_35_n02690373_9264.png,n02690373_9264.png,0.0,-0.13631617,1.429796,-1.1074085
alexnet_w1_mlp_simclrhn_probe3,1,37,NaN,bottle,chair,0,0037_pow_dnn_0_chair_35_n04099969_16079.png,n04099969_16079.png,0.0,1.2578294,1.3901128,-0.09353844
alexnet_w1_mlp_simclrhn_probe3,1,38,NaN,bicycle,bicycle,0,0038_pow_dnn_0_bicycle_35_n02835271_3027.png,n02835271_3027.png,1.0,3.9749694,1.6854883,1.6189077
alexnet_w1_mlp_simclrhn_probe3,1,39,NaN,airplane,airplane,0,0039_pow_dnn_0_airplane_35_n02690373_6614.png,n02690373_6614.png,1.0,10.405018,1.2840023,6.449532
alexnet_w1_mlp_simclrhn_probe3,1,40,NaN,boat,chair,pow,0040_pow_dnn_pow_chair_35_n03376595_9048.png,n03376595_9048.png,0.0,0.031777475,0.9281548,-0.6338345
alexnet_w1_mlp_simclrhn_probe3,1,41,NaN,oven,oven,0,0041_pow_dnn_0_oven_35_n04111531_6094.png,n04111531_6094.png,1.0,5.5973625,5.299005,0.21097061
alexnet_w1_mlp_simclrhn_probe3,1,42,NaN,oven,clock,pow,0042_pow_dnn_pow_clock_35_n02708093_687.png,n02708093_687.png,0.0,1.8121109,2.1687057,-0.2521506
alexnet_w1_mlp_simclrhn_probe3,1,43,NaN,bicycle,bicycle,pow,0043_pow_dnn_pow_bicycle_35_n03792782_14931.png,n03792782_14931.png,1.0,3.2906651,0.8549777,1.7222912
alexnet_w1_mlp_simclrhn_probe3,1,44,NaN,keyboard,bottle,0,0044_pow_dnn_0_bottle_35_n03937543_5567.png,n03937543_5567.png,0.0,2.101856,2.7993884,-0.4932299
alexnet_w1_mlp_simclrhn_probe3,1,45,NaN,car,car,0,0045_pow_dnn_0_car_35_n03100240_3073.png,n03100240_3073.png,1.0,14.773369,4.3252764,7.387917
alexnet_w1_mlp_simclrhn_probe3,1,46,NaN,knife,knife,0,0046_pow_dnn_0_knife_35_n03041632_18236.png,n03041632_18236.png,1.0,2.9156897,0.8871599,1.4343872
alexnet_w1_mlp_simclrhn_probe3,1,47,NaN,elephant,knife,pow,0047_pow_dnn_pow_knife_35_n03041632_9302.png,n03041632_9302.png,0.0,0.077334836,1.9985223,-1.3584846
alexnet_w1_mlp_simclrhn_probe3,1,48,NaN,bear,bear,0,0048_pow_dnn_0_bear_35_n02134418_2590.png,n02134418_2590.png,1.0,5.592796,1.2334901,3.0824947
alexnet_w1_mlp_simclrhn_probe3,1,49,NaN,elephant,bottle,0,0049_pow_dnn_0_bottle_35_n03983396_24837.png,n03983396_24837.png,0.0,0.23153926,1.6143663,-0.9778064
alexnet_w1_mlp_simclrhn_probe3,1,50,NaN,elephant,knife,pow,0050_pow_dnn_pow_knife_35_n03041632_3617.png,n03041632_3617.png,0.0,0.5729958,1.0864382,-0.3630586
alexnet_w1_mlp_simclrhn_probe3,1,51,NaN,oven,bicycle,pow,0051_pow_dnn_pow_bicycle_35_n03792782_6735.png,n03792782_6735.png,0.0,0.6203256,1.257267,-0.45038557
alexnet_w1_mlp_simclrhn_probe3,1,52,NaN,car,car,0,0052_pow_dnn_0_car_35_n03100240_5387.png,n03100240_5387.png,1.0,12.042682,3.7781959,5.8438745
alexnet_w1_mlp_simclrhn_probe3,1,53,NaN,clock,bottle,0,0053_pow_dnn_0_bottle_35_n03983396_4879.png,n03983396_4879.png,0.0,1.4884621,2.0017502,-0.36294952
alexnet_w1_mlp_simclrhn_probe3,1,54,NaN,car,car,0,0054_pow_dnn_0_car_35_n03100240_6103.png,n03100240_6103.png,1.0,15.754707,8.338234,5.244239
alexnet_w1_mlp_simclrhn_probe3,1,55,NaN,oven,bird,pow,0055_pow_dnn_pow_bird_35_n01796340_9255.png,n01796340_9255.png,0.0,0.11012321,1.5582471,-1.0239782
alexnet_w1_mlp_simclrhn_probe3,1,56,NaN,oven,cat,pow,0056_pow_dnn_pow_cat_35_n02123394_2448.png,n02123394_2448.png,0.0,0.9075057,1.7597946,-0.6026593
alexnet_w1_mlp_simclrhn_probe3,1,57,NaN,car,car,0,0057_pow_dnn_0_car_35_n04285008_13174.png,n04285008_13174.png,1.0,18.887388,10.258875,6.10128
alexnet_w1_mlp_simclrhn_probe3,1,58,NaN,oven,chair,pow,0058_pow_dnn_pow_chair_35_n04429376_353.png,n04429376_353.png,0.0,0.36837944,1.7781475,-0.9968565
alexnet_w1_mlp_simclrhn_probe3,1,59,NaN,bicycle,boat,pow,0059_pow_dnn_pow_boat_35_n02951358_16261.png,n02951358_16261.png,0.0,0.054304816,1.4500487,-0.98693997
alexnet_w1_mlp_simclrhn_probe3,1,60,NaN,oven,car,pow,0060_pow_dnn_pow_car_35_n04285008_15954.png,n04285008_15954.png,0.0,-0.5295473,2.3286955,-2.0210829
alexnet_w1_mlp_simclrhn_probe3,1,61,NaN,boat,truck,pow,0061_pow_dnn_pow_truck_35_n04467665_3411.png,n04467665_3411.png,0.0,0.32950854,1.4404672,-0.78556645
alexnet_w1_mlp_simclrhn_probe3,1,62,NaN,oven,oven,pow,0062_pow_dnn_pow_oven_35_n04111531_15743.png,n04111531_15743.png,1.0,1.521046,0.68001413,0.5946994
alexnet_w1_mlp_simclrhn_probe3,1,63,NaN,dog,dog,0,0063_pow_dnn_0_dog_35_n02088238_8653.png,n02088238_8653.png,1.0,1.9524084,1.9026742,0.035167415
alexnet_w1_mlp_simclrhn_probe3,1,64,NaN,airplane,airplane,0,0064_pow_dnn_0_airplane_35_n02690373_4681.png,n02690373_4681.png,1.0,8.098547,4.258168,2.7155578
alexnet_w1_mlp_simclrhn_probe3,1,65,NaN,oven,bear,pow,0065_pow_dnn_pow_bear_35_n02134418_5684.png,n02134418_5684.png,0.0,1.5252463,1.5411012,-0.011211147
alexnet_w1_mlp_simclrhn_probe3,1,66,NaN,bear,bear,pow,0066_pow_dnn_pow_bear_35_n02134418_5830.png,n02134418_5830.png,1.0,3.39052,2.2115397,0.833665
alexnet_w1_mlp_simclrhn_probe3,1,67,NaN,airplane,truck,0,0067_pow_dnn_0_truck_35_n04467665_45983.png,n04467665_45983.png,0.0,0.84761184,4.977771,-2.9204633
alexnet_w1_mlp_simclrhn_probe3,1,68,NaN,elephant,bird,0,0068_pow_dnn_0_bird_35_n01795545_14302.png,n01795545_14302.png,0.0,2.110448,3.0478542,-0.6628464
alexnet_w1_mlp_simclrhn_probe3,1,69,NaN,oven,oven,pow,0069_pow_dnn_pow_oven_35_n04111531_19240.png,n04111531_19240.png,1.0,1.7681177,1.5680004,0.14150426
alexnet_w1_mlp_simclrhn_probe3,1,70,NaN,oven,knife,0,0070_pow_dnn_0_knife_35_n03041632_22241.png,n03041632_22241.png,0.0,1.1299672,2.598137,-1.0381528
alexnet_w1_mlp_simclrhn_probe3,1,71,NaN,bear,boat,pow,0071_pow_dnn_pow_boat_35_n03344393_815.png,n03344393_815.png,0.0,0.3183132,1.6113074,-0.91428494
alexnet_w1_mlp_simclrhn_probe3,1,72,NaN,airplane,boat,0,0072_pow_dnn_0_boat_35_n03662601_2120.png,n03662601_2120.png,0.0,1.2917258,5.431832,-2.9274971
alexnet_w1_mlp_simclrhn_probe3,1,73,NaN,elephant,knife,pow,0073_pow_dnn_pow_knife_35_n03041632_2438.png,n03041632_2438.png,0.0,0.35190225,1.9813592,-1.1522001
alexnet_w1_mlp_simclrhn_probe3,1,74,NaN,bear,bear,pow,0074_pow_dnn_pow_bear_35_n02134418_3073.png,n02134418_3073.png,1.0,4.8861065,3.6006608,0.9089474
alexnet_w1_mlp_simclrhn_probe3,1,75,NaN,elephant,bottle,pow,0075_pow_dnn_pow_bottle_35_n02823428_3328.png,n02823428_3328.png,0.0,0.19235036,2.6325822,-1.7255045
alexnet_w1_mlp_simclrhn_probe3,1,76,NaN,oven,car,pow,0076_pow_dnn_pow_car_35_n04285008_13259.png,n04285008_13259.png,0.0,0.44060287,1.8806106,-1.0182393
alexnet_w1_mlp_simclrhn_probe3,1,77,NaN,oven,oven,0,0077_pow_dnn_0_oven_35_n04111531_15852.png,n04111531_15852.png,1.0,1.6912568,0.4643383,0.86756235
alexnet_w1_mlp_simclrhn_probe3,1,78,NaN,elephant,dog,pow,0078_pow_dnn_pow_dog_35_n02099601_447.png,n02099601_447.png,0.0,0.70174795,6.989873,-4.446376
alexnet_w1_mlp_simclrhn_probe3,1,79,NaN,oven,oven,pow,0079_pow_dnn_pow_oven_35_n04111531_18916.png,n04111531_18916.png,1.0,1.3511839,1.2295632,0.08599879
alexnet_w1_mlp_simclrhn_probe3,1,80,NaN,elephant,bottle,pow,0080_pow_dnn_pow_bottle_35_n04591713_1407.png,n04591713_1407.png,0.0,1.3569223,1.8975255,-0.38226426
alexnet_w1_mlp_simclrhn_probe3,1,81,NaN,clock,oven,0,0081_pow_dnn_0_oven_35_n04111531_4585.png,n04111531_4585.png,0.0,1.8537832,2.1444135,-0.20550661
alexnet_w1_mlp_simclrhn_probe3,1,82,NaN,oven,keyboard,pow,0082_pow_dnn_pow_keyboard_35_n03085013_8364.png,n03085013_8364.png,0.0,-0.50462604,1.5160741,-1.4288507
alexnet_w1_mlp_simclrhn_probe3,1,83,NaN,bear,bear,pow,0083_pow_dnn_pow_bear_35_n02132136_15462.png,n02132136_15462.png,1.0,4.2710705,2.9817367,0.91169673
alexnet_w1_mlp_simclrhn_probe3,1,84,NaN,oven,bicycle,pow,0084_pow_dnn_pow_bicycle_35_n03792782_4167.png,n03792782_4167.png,0.0,0.3899871,2.1579967,-1.2501715
alexnet_w1_mlp_simclrhn_probe3,1,85,NaN,boat,boat,0,0085_pow_dnn_0_boat_35_n03662601_16106.png,n03662601_16106.png,1.0,7.1573687,4.8058248,1.6627927
alexnet_w1_mlp_simclrhn_probe3,1,86,NaN,oven,keyboard,pow,0086_pow_dnn_pow_keyboard_35_n03085013_2277.png,n03085013_2277.png,0.0,-0.06219741,1.9207733,-1.4021721
alexnet_w1_mlp_simclrhn_probe3,1,87,NaN,elephant,airplane,pow,0087_pow_dnn_pow_airplane_35_n02690373_8461.png,n02690373_8461.png,0.0,0.4116742,2.6822348,-1.6055287
alexnet_w1_mlp_simclrhn_probe3,1,88,NaN,elephant,chair,pow,0088_pow_dnn_pow_chair_35_n03376595_3304.png,n03376595_3304.png,0.0,0.78635746,1.8259681,-0.7351157
alexnet_w1_mlp_simclrhn_probe3,1,89,NaN,bicycle,bicycle,0,0089_pow_dnn_0_bicycle_35_n03792782_19116.png,n03792782_19116.png,1.0,3.1033154,0.9581785,1.5168408
alexnet_w1_mlp_simclrhn_probe3,1,90,NaN,clock,clock,0,0090_pow_dnn_0_clock_35_n02708093_6734.png,n02708093_6734.png,1.0,3.1093209,1.7397765,0.9684141
alexnet_w1_mlp_simclrhn_probe3,1,91,NaN,clock,chair,0,0091_pow_dnn_0_chair_35_n04429376_6480.png,n04429376_6480.png,0.0,1.0428622,1.8291502,-0.5559896
alexnet_w1_mlp_simclrhn_probe3,1,92,NaN,bicycle,bicycle,pow,0092_pow_dnn_pow_bicycle_35_n02835271_21339.png,n02835271_21339.png,1.0,1.3247519,1.0972189,0.16089012
alexnet_w1_mlp_simclrhn_probe3,1,93,NaN,oven,keyboard,pow,0093_pow_dnn_pow_keyboard_35_n03085013_3859.png,n03085013_3859.png,0.0,0.514761,3.4633458,-2.0849643
alexnet_w1_mlp_simclrhn_probe3,1,94,NaN,oven,chair,pow,0094_pow_dnn_pow_chair_35_n03376595_360.png,n03376595_360.png,0.0,-0.28848952,1.6865089,-1.3965348
alexnet_w1_mlp_simclrhn_probe3,1,95,NaN,bear,elephant,pow,0095_pow_dnn_pow_elephant_35_n02504013_18988.png,n02504013_18988.png,0.0,2.4739966,3.1566665,-0.4827205
alexnet_w1_mlp_simclrhn_probe3,1,96,NaN,oven,chair,0,0096_pow_dnn_0_chair_35_n04429376_54570.png,n04429376_54570.png,0.0,0.9546611,2.7117295,-1.242435
alexnet_w1_mlp_simclrhn_probe3,1,97,NaN,oven,clock,pow,0097_pow_dnn_pow_clock_35_n04548280_5189.png,n04548280_5189.png,0.0,0.9317495,1.2185525,-0.20280032
alexnet_w1_mlp_simclrhn_probe3,1,98,NaN,oven,truck,pow,0098_pow_dnn_pow_truck_35_n04467665_6626.png,n04467665_6626.png,0.0,-0.25499,2.461144,-1.9205968
alexnet_w1_mlp_simclrhn_probe3,1,99,NaN,boat,boat,0,0099_pow_dnn_0_boat_35_n03344393_3323.png,n03344393_3323.png,1.0,5.6417274,1.9504836,2.6101036
alexnet_w1_mlp_simclrhn_probe3,1,100,NaN,elephant,dog,pow,0100_pow_dnn_pow_dog_35_n02100583_3987.png,n02100583_3987.png,0.0,1.1234941,2.8245661,-1.2028395
alexnet_w1_mlp_simclrhn_probe3,1,101,NaN,elephant,elephant,pow,0101_pow_dnn_pow_elephant_35_n02504013_1702.png,n02504013_1702.png,1.0,5.2331867,2.8931096,1.6546844
alexnet_w1_mlp_simclrhn_probe3,1,102,NaN,oven,truck,pow,0102_pow_dnn_pow_truck_35_n03417042_1841.png,n03417042_1841.png,0.0,-0.020627305,1.4217585,-1.0199208
alexnet_w1_mlp_simclrhn_probe3,1,103,NaN,truck,truck,0,0103_pow_dnn_0_truck_35_n03417042_2062.png,n03417042_2062.png,1.0,10.478712,4.6237035,4.140116
alexnet_w1_mlp_simclrhn_probe3,1,104,NaN,bottle,bottle,0,0104_pow_dnn_0_bottle_35_n03983396_4178.png,n03983396_4178.png,1.0,3.9075055,3.8244596,0.058722362
alexnet_w1_mlp_simclrhn_probe3,1,105,NaN,knife,keyboard,pow,0105_pow_dnn_pow_keyboard_35_n03085013_1698.png,n03085013_1698.png,0.0,-1.2258695,1.3753839,-1.839364
alexnet_w1_mlp_simclrhn_probe3,1,106,NaN,oven,car,pow,0106_pow_dnn_pow_car_35_n03100240_7056.png,n03100240_7056.png,0.0,0.10468645,1.8092194,-1.2052867
alexnet_w1_mlp_simclrhn_probe3,1,107,NaN,bear,dog,pow,0107_pow_dnn_pow_dog_35_n02100735_3553.png,n02100735_3553.png,0.0,0.06042357,1.7515125,-1.1957805
alexnet_w1_mlp_simclrhn_probe3,1,108,NaN,oven,oven,pow,0108_pow_dnn_pow_oven_35_n04111531_11781.png,n04111531_11781.png,1.0,2.6937485,1.2540681,1.0180078
alexnet_w1_mlp_simclrhn_probe3,1,109,NaN,cat,cat,0,0109_pow_dnn_0_cat_35_n02123159_4914.png,n02123159_4914.png,1.0,3.047207,0.98450434,1.458551
alexnet_w1_mlp_simclrhn_probe3,1,110,NaN,bear,dog,0,0110_pow_dnn_0_dog_35_n02090622_1852.png,n02090622_1852.png,0.0,0.36008686,1.0690408,-0.5013061
alexnet_w1_mlp_simclrhn_probe3,1,111,NaN,bicycle,car,pow,0111_pow_dnn_pow_car_35_n03100240_24471.png,n03100240_24471.png,0.0,1.7144274,2.229809,-0.3644299
alexnet_w1_mlp_simclrhn_probe3,1,112,NaN,elephant,boat,pow,0112_pow_dnn_pow_boat_35_n03344393_3519.png,n03344393_3519.png,0.0,0.6788966,1.5585479,-0.62200737
alexnet_w1_mlp_simclrhn_probe3,1,113,NaN,oven,keyboard,pow,0113_pow_dnn_pow_keyboard_35_n03085013_22713.png,n03085013_22713.png,0.0,-0.31875607,3.175156,-2.4705691
alexnet_w1_mlp_simclrhn_probe3,1,114,NaN,bear,elephant,0,0114_pow_dnn_0_elephant_35_n02504013_6615.png,n02504013_6615.png,0.0,3.1904502,3.7457552,-0.39265993
alexnet_w1_mlp_simclrhn_probe3,1,115,NaN,dog,cat,0,0115_pow_dnn_0_cat_35_n02123597_7081.png,n02123597_7081.png,0.0,1.1528265,1.7925309,-0.4523393
alexnet_w1_mlp_simclrhn_probe3,1,116,NaN,clock,clock,pow,0116_pow_dnn_pow_clock_35_n04548280_5406.png,n04548280_5406.png,1.0,3.235244,0.89146453,1.6573025
alexnet_w1_mlp_simclrhn_probe3,1,117,NaN,oven,bottle,0,0117_pow_dnn_0_bottle_35_n03983396_21920.png,n03983396_21920.png,0.0,0.37973762,4.4995813,-2.9131694
alexnet_w1_mlp_simclrhn_probe3,1,118,NaN,knife,knife,0,0118_pow_dnn_0_knife_35_n03041632_48675.png,n03041632_48675.png,1.0,2.9163508,1.611834,0.92243266
alexnet_w1_mlp_simclrhn_probe3,1,119,NaN,bird,cat,0,0119_pow_dnn_0_cat_35_n02125311_2103.png,n02125311_2103.png,0.0,0.38702765,0.87906754,-0.34792474
alexnet_w1_mlp_simclrhn_probe3,1,120,NaN,bear,bird,pow,0120_pow_dnn_pow_bird_35_n01798484_962.png,n01798484_962.png,0.0,0.49120867,0.6141375,-0.086923786
alexnet_w1_mlp_simclrhn_probe3,1,121,NaN,oven,oven,pow,0121_pow_dnn_pow_oven_35_n04111531_6393.png,n04111531_6393.png,1.0,2.5686631,2.1960573,0.26347208
alexnet_w1_mlp_simclrhn_probe3,1,122,NaN,oven,oven,0,0122_pow_dnn_0_oven_35_n04111531_4418.png,n04111531_4418.png,1.0,4.868229,1.5521452,2.3448253
alexnet_w1_mlp_simclrhn_probe3,1,123,NaN,oven,truck,pow,0123_pow_dnn_pow_truck_35_n03796401_296.png,n03796401_296.png,0.0,-0.36511773,2.691069,-2.1610503
alexnet_w1_mlp_simclrhn_probe3,1,124,NaN,bicycle,bicycle,0,0124_pow_dnn_0_bicycle_35_n02835271_10738.png,n02835271_10738.png,1.0,7.2441816,1.7319224,3.897756
alexnet_w1_mlp_simclrhn_probe3,1,125,NaN,elephant,elephant,0,0125_pow_dnn_0_elephant_35_n02504013_4457.png,n02504013_4457.png,1.0,20.170563,6.885423,9.394012
alexnet_w1_mlp_simclrhn_probe3,1,126,NaN,knife,knife,0,0126_pow_dnn_0_knife_35_n03041632_30573.png,n03041632_30573.png,1.0,2.520689,2.1287768,0.2771238
alexnet_w1_mlp_simclrhn_probe3,1,127,NaN,boat,boat,0,0127_pow_dnn_0_boat_35_n03662601_19840.png,n03662601_19840.png,1.0,5.364338,5.2052956,0.112459935
alexnet_w1_mlp_simclrhn_probe3,1,128,NaN,elephant,bear,0,0128_pow_dnn_0_bear_35_n02133161_12167.png,n02133161_12167.png,0.0,5.079255,5.8181486,-0.5224766
alexnet_w1_mlp_simclrhn_probe3,1,129,NaN,keyboard,bottle,0,0129_pow_dnn_0_bottle_35_n02823428_3028.png,n02823428_3028.png,0.0,1.6132294,1.929268,-0.22347304
alexnet_w1_mlp_simclrhn_probe3,1,130,NaN,boat,boat,0,0130_pow_dnn_0_boat_35_n02951358_30149.png,n02951358_30149.png,1.0,6.4332037,3.2688408,2.2375424
alexnet_w1_mlp_simclrhn_probe3,1,131,NaN,car,car,0,0131_pow_dnn_0_car_35_n02814533_75419.png,n02814533_75419.png,1.0,12.304749,7.0296197,3.7300794
alexnet_w1_mlp_simclrhn_probe3,1,132,NaN,keyboard,keyboard,0,0132_pow_dnn_0_keyboard_35_n03085013_24449.png,n03085013_24449.png,1.0,4.666042,1.6634911,2.123124
alexnet_w1_mlp_simclrhn_probe3,1,133,NaN,dog,dog,0,0133_pow_dnn_0_dog_35_n02086240_519.png,n02086240_519.png,1.0,2.8722532,1.808905,0.75190073
alexnet_w1_mlp_simclrhn_probe3,1,134,NaN,bird,bird,pow,0134_pow_dnn_pow_bird_35_n01582220_2882.png,n01582220_2882.png,1.0,0.83594,0.8178859,0.012766196
alexnet_w1_mlp_simclrhn_probe3,1,135,NaN,oven,oven,0,0135_pow_dnn_0_oven_35_n04111531_13277.png,n04111531_13277.png,1.0,4.106508,1.1759602,2.0722103
alexnet_w1_mlp_simclrhn_probe3,1,136,NaN,bear,bear,pow,0136_pow_dnn_pow_bear_35_n02134084_6901.png,n02134084_6901.png,1.0,3.6827872,2.2479749,1.0145656
alexnet_w1_mlp_simclrhn_probe3,1,137,NaN,elephant,bird,0,0137_pow_dnn_0_bird_35_n02002556_5447.png,n02002556_5447.png,0.0,0.55929434,1.6608799,-0.7789386
alexnet_w1_mlp_simclrhn_probe3,1,138,NaN,keyboard,keyboard,0,0138_pow_dnn_0_keyboard_35_n03085013_20710.png,n03085013_20710.png,1.0,4.247854,1.3761978,2.0305676
alexnet_w1_mlp_simclrhn_probe3,1,139,NaN,oven,oven,pow,0139_pow_dnn_pow_oven_35_n04111531_11405.png,n04111531_11405.png,1.0,2.529328,1.0454984,1.049226
alexnet_w1_mlp_simclrhn_probe3,1,140,NaN,elephant,bear,pow,0140_pow_dnn_pow_bear_35_n02132136_8457.png,n02132136_8457.png,0.0,1.7562704,1.9948266,-0.16868468
alexnet_w1_mlp_simclrhn_probe3,1,141,NaN,bird,bird,pow,0141_pow_dnn_pow_bird_35_n02009912_6788.png,n02009912_6788.png,1.0,2.6622617,1.9017518,0.53776175
alexnet_w1_mlp_simclrhn_probe3,1,142,NaN,oven,chair,pow,0142_pow_dnn_pow_chair_35_n04429376_9630.png,n04429376_9630.png,0.0,0.06578654,1.7345984,-1.1800282
alexnet_w1_mlp_simclrhn_probe3,1,143,NaN,keyboard,keyboard,0,0143_pow_dnn_0_keyboard_35_n03085013_23658.png,n03085013_23658.png,1.0,3.7994695,1.6866759,1.4939706
alexnet_w1_mlp_simclrhn_probe3,1,144,NaN,cat,cat,pow,0144_pow_dnn_pow_cat_35_n02123045_13199.png,n02123045_13199.png,1.0,2.5410585,2.1248417,0.29430977
alexnet_w1_mlp_simclrhn_probe3,1,145,NaN,bicycle,clock,pow,0145_pow_dnn_pow_clock_35_n04548280_6411.png,n04548280_6411.png,0.0,1.3354152,2.2712138,-0.6617095
alexnet_w1_mlp_simclrhn_probe3,1,146,NaN,bird,bird,0,0146_pow_dnn_0_bird_35_n01820546_9729.png,n01820546_9729.png,1.0,0.9344749,0.6103177,0.22921374
alexnet_w1_mlp_simclrhn_probe3,1,147,NaN,boat,boat,0,0147_pow_dnn_0_boat_35_n04273569_12651.png,n04273569_12651.png,1.0,4.7928267,1.831177,2.0942025
alexnet_w1_mlp_simclrhn_probe3,1,148,NaN,elephant,elephant,pow,0148_pow_dnn_pow_elephant_35_n02504458_3143.png,n02504458_3143.png,1.0,1.7004982,1.3950092,0.21601339
alexnet_w1_mlp_simclrhn_probe3,1,149,NaN,clock,clock,0,0149_pow_dnn_0_clock_35_n03196217_9786.png,n03196217_9786.png,1.0,7.900576,4.9651036,2.0756927
alexnet_w1_mlp_simclrhn_probe3,1,150,NaN,airplane,chair,0,0150_pow_dnn_0_chair_35_n03376595_6652.png,n03376595_6652.png,0.0,0.54295725,1.4653357,-0.6522201
alexnet_w1_mlp_simclrhn_probe3,1,151,NaN,oven,bottle,pow,0151_pow_dnn_pow_bottle_35_n03983396_2998.png,n03983396_2998.png,0.0,0.55953234,1.780223,-0.8631587
alexnet_w1_mlp_simclrhn_probe3,1,152,NaN,elephant,elephant,0,0152_pow_dnn_0_elephant_35_n02504458_5331.png,n02504458_5331.png,1.0,10.298302,3.3092713,4.941991
alexnet_w1_mlp_simclrhn_probe3,1,153,NaN,car,car,0,0153_pow_dnn_0_car_35_n04285008_8052.png,n04285008_8052.png,1.0,12.224021,3.9543514,5.8475394
alexnet_w1_mlp_simclrhn_probe3,1,154,NaN,oven,bottle,pow,0154_pow_dnn_pow_bottle_35_n04591713_3402.png,n04591713_3402.png,0.0,0.73801035,1.8887166,-0.81367224
alexnet_w1_mlp_simclrhn_probe3,1,155,NaN,oven,bicycle,pow,0155_pow_dnn_pow_bicycle_35_n02835271_1701.png,n02835271_1701.png,0.0,1.0218574,1.6995629,-0.47921017
alexnet_w1_mlp_simclrhn_probe3,1,156,NaN,bicycle,bicycle,0,0156_pow_dnn_0_bicycle_35_n02835271_5196.png,n02835271_5196.png,1.0,14.7909565,5.279421,6.7256713
alexnet_w1_mlp_simclrhn_probe3,1,157,NaN,elephant,elephant,pow,0157_pow_dnn_pow_elephant_35_n02504458_5444.png,n02504458_5444.png,1.0,3.131713,2.5377076,0.42002523
alexnet_w1_mlp_simclrhn_probe3,1,158,NaN,chair,truck,0,0158_pow_dnn_0_truck_35_n03417042_3422.png,n03417042_3422.png,0.0,1.3921981,3.2159665,-1.2895991
alexnet_w1_mlp_simclrhn_probe3,1,159,NaN,elephant,dog,pow,0159_pow_dnn_pow_dog_35_n02088466_1537.png,n02088466_1537.png,0.0,1.0072919,1.6404369,-0.44770113
alexnet_w1_mlp_simclrhn_probe3,1,160,NaN,elephant,dog,pow,0160_pow_dnn_pow_dog_35_n02088632_1732.png,n02088632_1732.png,0.0,0.6882393,3.2530546,-1.8135983
alexnet_w1_mlp_simclrhn_probe3,1,161,NaN,chair,truck,0,0161_pow_dnn_0_truck_35_n03796401_3326.png,n03796401_3326.png,0.0,2.0091343,2.4936836,-0.3426281
alexnet_w1_mlp_simclrhn_probe3,1,162,NaN,boat,boat,0,0162_pow_dnn_0_boat_35_n04273569_19796.png,n04273569_19796.png,1.0,9.335494,2.1110258,5.1084704
alexnet_w1_mlp_simclrhn_probe3,1,163,NaN,keyboard,keyboard,pow,0163_pow_dnn_pow_keyboard_35_n04505470_5125.png,n04505470_5125.png,1.0,2.2215724,1.7838374,0.30952537
alexnet_w1_mlp_simclrhn_probe3,1,164,NaN,cat,cat,pow,0164_pow_dnn_pow_cat_35_n02123394_1817.png,n02123394_1817.png,1.0,2.0281825,1.6090729,0.29635525
alexnet_w1_mlp_simclrhn_probe3,1,165,NaN,cat,cat,pow,0165_pow_dnn_pow_cat_35_n02123159_7465.png,n02123159_7465.png,1.0,3.8020382,0.5947324,2.2679079
alexnet_w1_mlp_simclrhn_probe3,1,166,NaN,elephant,cat,0,0166_pow_dnn_0_cat_35_n02125311_33516.png,n02125311_33516.png,0.0,-1.3975425,2.9772182,-3.093423
alexnet_w1_mlp_simclrhn_probe3,1,167,NaN,oven,bicycle,pow,0167_pow_dnn_pow_bicycle_35_n03792782_30246.png,n03792782_30246.png,0.0,0.57261986,1.2174197,-0.4559424
alexnet_w1_mlp_simclrhn_probe3,1,168,NaN,airplane,truck,0,0168_pow_dnn_0_truck_35_n04467665_72639.png,n04467665_72639.png,0.0,1.6917272,5.4516687,-2.6586802
alexnet_w1_mlp_simclrhn_probe3,1,169,NaN,bicycle,bicycle,0,0169_pow_dnn_0_bicycle_35_n03792782_10395.png,n03792782_10395.png,1.0,7.319999,2.0809867,3.7045414
alexnet_w1_mlp_simclrhn_probe3,1,170,NaN,elephant,bicycle,pow,0170_pow_dnn_pow_bicycle_35_n02835271_840.png,n02835271_840.png,0.0,1.297601,1.6229832,-0.23008
alexnet_w1_mlp_simclrhn_probe3,1,171,NaN,elephant,knife,pow,0171_pow_dnn_pow_knife_35_n03041632_82197.png,n03041632_82197.png,0.0,0.34536323,2.1763568,-1.294708
alexnet_w1_mlp_simclrhn_probe3,1,172,NaN,oven,airplane,pow,0172_pow_dnn_pow_airplane_35_n02690373_8942.png,n02690373_8942.png,0.0,-0.21445557,3.1709538,-2.393846
alexnet_w1_mlp_simclrhn_probe3,1,173,NaN,oven,keyboard,0,0173_pow_dnn_0_keyboard_35_n03085013_21851.png,n03085013_21851.png,0.0,2.16836,3.2801633,-0.7861637
alexnet_w1_mlp_simclrhn_probe3,1,174,NaN,clock,clock,pow,0174_pow_dnn_pow_clock_35_n04548280_1106.png,n04548280_1106.png,1.0,2.6667397,2.2826304,0.27160627
alexnet_w1_mlp_simclrhn_probe3,1,175,NaN,chair,truck,0,0175_pow_dnn_0_truck_35_n03796401_4181.png,n03796401_4181.png,0.0,1.3805249,2.1702623,-0.5584287
alexnet_w1_mlp_simclrhn_probe3,1,176,NaN,oven,knife,pow,0176_pow_dnn_pow_knife_35_n03041632_44019.png,n03041632_44019.png,0.0,0.55756867,2.2210202,-1.176238
alexnet_w1_mlp_simclrhn_probe3,1,177,NaN,truck,truck,0,0177_pow_dnn_0_truck_35_n03417042_1348.png,n03417042_1348.png,1.0,4.633216,2.6002123,1.4375507
alexnet_w1_mlp_simclrhn_probe3,1,178,NaN,chair,chair,0,0178_pow_dnn_0_chair_35_n04099969_10516.png,n04099969_10516.png,1.0,3.801772,2.1765084,1.149235
alexnet_w1_mlp_simclrhn_probe3,1,179,NaN,oven,chair,pow,0179_pow_dnn_pow_chair_35_n04099969_24041.png,n04099969_24041.png,0.0,0.57328,2.8753557,-1.6278135
alexnet_w1_mlp_simclrhn_probe3,1,180,NaN,oven,truck,pow,0180_pow_dnn_pow_truck_35_n03796401_3618.png,n03796401_3618.png,0.0,-0.27147403,2.919973,-2.2566938
alexnet_w1_mlp_simclrhn_probe3,1,181,NaN,elephant,elephant,0,0181_pow_dnn_0_elephant_35_n02504458_4414.png,n02504458_4414.png,1.0,12.982637,4.019601,6.337824
alexnet_w1_mlp_simclrhn_probe3,1,182,NaN,truck,truck,pow,0182_pow_dnn_pow_truck_35_n03796401_3427.png,n03796401_3427.png,1.0,2.4701228,1.671916,0.5644175
alexnet_w1_mlp_simclrhn_probe3,1,183,NaN,cat,cat,0,0183_pow_dnn_0_cat_35_n02123045_9907.png,n02123045_9907.png,1.0,1.0465006,0.5844019,0.3267531
alexnet_w1_mlp_simclrhn_probe3,1,184,NaN,oven,oven,0,0184_pow_dnn_0_oven_35_n04111531_2156.png,n04111531_2156.png,1.0,4.5952992,0.66967016,2.775839
alexnet_w1_mlp_simclrhn_probe3,1,185,NaN,bear,bird,pow,0185_pow_dnn_pow_bird_35_n02002556_12696.png,n02002556_12696.png,0.0,0.8037044,2.0275326,-0.86537725
alexnet_w1_mlp_simclrhn_probe3,1,186,NaN,oven,airplane,pow,0186_pow_dnn_pow_airplane_35_n02690373_8791.png,n02690373_8791.png,0.0,-0.38604277,1.2405461,-1.150172
alexnet_w1_mlp_simclrhn_probe3,1,187,NaN,elephant,knife,pow,0187_pow_dnn_pow_knife_35_n03041632_27963.png,n03041632_27963.png,0.0,-0.06389074,1.7319256,-1.2698339
alexnet_w1_mlp_simclrhn_probe3,1,188,NaN,knife,chair,0,0188_pow_dnn_0_chair_35_n03376595_7772.png,n03376595_7772.png,0.0,1.6896647,1.7931014,-0.0731408
alexnet_w1_mlp_simclrhn_probe3,1,189,NaN,bear,boat,pow,0189_pow_dnn_pow_boat_35_n04273569_3460.png,n04273569_3460.png,0.0,-0.40414506,0.89520967,-0.9187826
alexnet_w1_mlp_simclrhn_probe3,1,190,NaN,oven,oven,0,0190_pow_dnn_0_oven_35_n04111531_5694.png,n04111531_5694.png,1.0,2.960414,0.23493955,1.9272014
alexnet_w1_mlp_simclrhn_probe3,1,191,NaN,bear,bear,pow,0191_pow_dnn_pow_bear_35_n02134084_17218.png,n02134084_17218.png,1.0,2.8508835,2.5144925,0.23786435
alexnet_w1_mlp_simclrhn_probe3,1,192,NaN,oven,oven,pow,0192_pow_dnn_pow_oven_35_n04111531_2923.png,n04111531_2923.png,1.0,2.5008206,1.3761864,0.7952365
alexnet_w1_mlp_simclrhn_probe3,1,193,NaN,bicycle,keyboard,pow,0193_pow_dnn_pow_keyboard_35_n03085013_22669.png,n03085013_22669.png,0.0,-0.20518632,0.6619835,-0.61318165
alexnet_w1_mlp_simclrhn_probe3,1,194,NaN,elephant,bottle,pow,0194_pow_dnn_pow_bottle_35_n04557648_2282.png,n04557648_2282.png,0.0,1.998937,2.2319365,-0.1647555
alexnet_w1_mlp_simclrhn_probe3,1,195,NaN,elephant,elephant,pow,0195_pow_dnn_pow_elephant_35_n02504013_6693.png,n02504013_6693.png,1.0,6.2928343,3.4374695,2.0190477
alexnet_w1_mlp_simclrhn_probe3,1,196,NaN,boat,chair,0,0196_pow_dnn_0_chair_35_n04099969_39507.png,n04099969_39507.png,0.0,1.5344596,1.6070564,-0.05133368
alexnet_w1_mlp_simclrhn_probe3,1,197,NaN,oven,car,pow,0197_pow_dnn_pow_car_35_n02814533_61184.png,n02814533_61184.png,0.0,-0.6324751,2.8523047,-2.4641116
alexnet_w1_mlp_simclrhn_probe3,1,198,NaN,oven,keyboard,pow,0198_pow_dnn_pow_keyboard_35_n04505470_1358.png,n04505470_1358.png,0.0,0.44131386,3.7435858,-2.335059
alexnet_w1_mlp_simclrhn_probe3,1,199,NaN,oven,truck,pow,0199_pow_dnn_pow_truck_35_n04467665_8824.png,n04467665_8824.png,0.0,0.060761645,2.689879,-1.8590667
alexnet_w1_mlp_simclrhn_probe3,1,200,NaN,keyboard,keyboard,0,0200_pow_dnn_0_keyboard_35_n04505470_8937.png,n04505470_8937.png,1.0,2.4691172,2.0701458,0.28211534
alexnet_w1_mlp_simclrhn_probe3,1,201,NaN,oven,truck,pow,0201_pow_dnn_pow_truck_35_n03417042_7581.png,n03417042_7581.png,0.0,-0.1452956,1.5044191,-1.1665245
alexnet_w1_mlp_simclrhn_probe3,1,202,NaN,bicycle,bicycle,pow,0202_pow_dnn_pow_bicycle_35_n02835271_13234.png,n02835271_13234.png,1.0,2.7816625,1.0770434,1.2053477
alexnet_w1_mlp_simclrhn_probe3,1,203,NaN,cat,cat,pow,0203_pow_dnn_pow_cat_35_n02124075_3383.png,n02124075_3383.png,1.0,5.199883,0.8892406,3.0480845
alexnet_w1_mlp_simclrhn_probe3,1,204,NaN,elephant,elephant,pow,0204_pow_dnn_pow_elephant_35_n02504013_474.png,n02504013_474.png,1.0,2.725746,2.0942357,0.44654518
alexnet_w1_mlp_simclrhn_probe3,1,205,NaN,oven,chair,pow,0205_pow_dnn_pow_chair_35_n04429376_1838.png,n04429376_1838.png,0.0,0.07275456,1.8389211,-1.2488683
alexnet_w1_mlp_simclrhn_probe3,1,206,NaN,bear,boat,pow,0206_pow_dnn_pow_boat_35_n02951358_5064.png,n02951358_5064.png,0.0,0.78137136,2.174017,-0.98474914
alexnet_w1_mlp_simclrhn_probe3,1,207,NaN,elephant,knife,pow,0207_pow_dnn_pow_knife_35_n03041632_31037.png,n03041632_31037.png,0.0,0.06546439,2.5335023,-1.7451663
alexnet_w1_mlp_simclrhn_probe3,1,208,NaN,bear,cat,pow,0208_pow_dnn_pow_cat_35_n02123045_11501.png,n02123045_11501.png,0.0,0.4091667,1.1628375,-0.5329257
alexnet_w1_mlp_simclrhn_probe3,1,209,NaN,elephant,keyboard,pow,0209_pow_dnn_pow_keyboard_35_n03085013_17937.png,n03085013_17937.png,0.0,-0.5523175,1.5132546,-1.4605802
alexnet_w1_mlp_simclrhn_probe3,1,210,NaN,bicycle,chair,0,0210_pow_dnn_0_chair_35_n03376595_10881.png,n03376595_10881.png,0.0,2.526653,3.824733,-0.9178812
alexnet_w1_mlp_simclrhn_probe3,1,211,NaN,elephant,elephant,0,0211_pow_dnn_0_elephant_35_n02504458_7302.png,n02504458_7302.png,1.0,17.597872,7.005267,7.490103
alexnet_w1_mlp_simclrhn_probe3,1,212,NaN,bear,airplane,pow,0212_pow_dnn_pow_airplane_35_n02690373_4704.png,n02690373_4704.png,0.0,0.11981837,1.8880987,-1.2503631
alexnet_w1_mlp_simclrhn_probe3,1,213,NaN,car,car,0,0213_pow_dnn_0_car_35_n03100240_18756.png,n03100240_18756.png,1.0,14.56992,7.057126,5.3123474
alexnet_w1_mlp_simclrhn_probe3,1,214,NaN,elephant,keyboard,pow,0214_pow_dnn_pow_keyboard_35_n03085013_20732.png,n03085013_20732.png,0.0,-0.21226752,1.2829634,-1.0572879
alexnet_w1_mlp_simclrhn_probe3,1,215,NaN,oven,bottle,pow,0215_pow_dnn_pow_bottle_35_n04579145_2999.png,n04579145_2999.png,0.0,1.8619355,3.451817,-1.1242161
alexnet_w1_mlp_simclrhn_probe3,1,216,NaN,clock,clock,pow,0216_pow_dnn_pow_clock_35_n02708093_2546.png,n02708093_2546.png,1.0,2.3153894,0.89930016,1.0013263
alexnet_w1_mlp_simclrhn_probe3,1,217,NaN,boat,boat,0,0217_pow_dnn_0_boat_35_n03662601_13847.png,n03662601_13847.png,1.0,4.1410894,2.5981882,1.090996
alexnet_w1_mlp_simclrhn_probe3,1,218,NaN,bicycle,bicycle,0,0218_pow_dnn_0_bicycle_35_n03792782_7878.png,n03792782_7878.png,1.0,15.430538,5.5657988,6.9754243
alexnet_w1_mlp_simclrhn_probe3,1,219,NaN,bear,knife,pow,0219_pow_dnn_pow_knife_35_n03041632_18959.png,n03041632_18959.png,0.0,0.041244756,1.9869885,-1.3758487
alexnet_w1_mlp_simclrhn_probe3,1,220,NaN,cat,bear,0,0220_pow_dnn_0_bear_35_n02134418_10576.png,n02134418_10576.png,0.0,2.7076802,2.8332684,-0.08880425
alexnet_w1_mlp_simclrhn_probe3,1,221,NaN,elephant,elephant,pow,0221_pow_dnn_pow_elephant_35_n02504013_213.png,n02504013_213.png,1.0,4.071501,3.6492257,0.29859358
alexnet_w1_mlp_simclrhn_probe3,1,222,NaN,oven,bottle,pow,0222_pow_dnn_pow_bottle_35_n03983396_2944.png,n03983396_2944.png,0.0,0.19858177,2.7102299,-1.7760035
alexnet_w1_mlp_simclrhn_probe3,1,223,NaN,keyboard,truck,0,0223_pow_dnn_0_truck_35_n03796401_8964.png,n03796401_8964.png,0.0,0.17513216,3.867173,-2.6106672
alexnet_w1_mlp_simclrhn_probe3,1,224,NaN,elephant,knife,pow,0224_pow_dnn_pow_knife_35_n03041632_13509.png,n03041632_13509.png,0.0,0.45293823,1.4502497,-0.70520574
alexnet_w1_mlp_simclrhn_probe3,1,225,NaN,bear,bird,pow,0225_pow_dnn_pow_bird_35_n01537544_7301.png,n01537544_7301.png,0.0,-0.069441944,1.3887082,-1.0310678
alexnet_w1_mlp_simclrhn_probe3,1,226,NaN,elephant,elephant,0,0226_pow_dnn_0_elephant_35_n02504013_9618.png,n02504013_9618.png,1.0,10.28907,5.1087127,3.663066
alexnet_w1_mlp_simclrhn_probe3,1,227,NaN,oven,keyboard,pow,0227_pow_dnn_pow_keyboard_35_n04505470_10191.png,n04505470_10191.png,0.0,-0.44767195,1.3527608,-1.2730982
alexnet_w1_mlp_simclrhn_probe3,1,228,NaN,bicycle,bicycle,pow,0228_pow_dnn_pow_bicycle_35_n02835271_20149.png,n02835271_20149.png,1.0,1.7754352,1.1196024,0.4637438
alexnet_w1_mlp_simclrhn_probe3,1,229,NaN,truck,truck,0,0229_pow_dnn_0_truck_35_n04467665_2098.png,n04467665_2098.png,1.0,6.9529624,2.1364655,3.4057777
alexnet_w1_mlp_simclrhn_probe3,1,230,NaN,bear,bear,0,0230_pow_dnn_0_bear_35_n02133161_5274.png,n02133161_5274.png,1.0,3.465931,1.8027536,1.176044
alexnet_w1_mlp_simclrhn_probe3,1,231,NaN,oven,bird,pow,0231_pow_dnn_pow_bird_35_n01537544_20224.png,n01537544_20224.png,0.0,-0.11706992,0.5484319,-0.47058082
alexnet_w1_mlp_simclrhn_probe3,1,232,NaN,airplane,dog,pow,0232_pow_dnn_pow_dog_35_n02094258_6800.png,n02094258_6800.png,0.0,-0.3357006,1.4299546,-1.2485068
alexnet_w1_mlp_simclrhn_probe3,1,233,NaN,truck,truck,0,0233_pow_dnn_0_truck_35_n03417042_27326.png,n03417042_27326.png,1.0,8.896011,1.767127,5.0408826
alexnet_w1_mlp_simclrhn_probe3,1,234,NaN,oven,oven,pow,0234_pow_dnn_pow_oven_35_n04111531_6955.png,n04111531_6955.png,1.0,4.63135,1.434425,2.2605674
alexnet_w1_mlp_simclrhn_probe3,1,235,NaN,clock,clock,0,0235_pow_dnn_0_clock_35_n04548280_7135.png,n04548280_7135.png,1.0,3.0657766,1.9229971,0.80806714
alexnet_w1_mlp_simclrhn_probe3,1,236,NaN,oven,dog,pow,0236_pow_dnn_pow_dog_35_n02113023_12143.png,n02113023_12143.png,0.0,-0.16719879,1.413516,-1.1177342
alexnet_w1_mlp_simclrhn_probe3,1,237,NaN,bicycle,bicycle,0,0237_pow_dnn_0_bicycle_35_n02835271_10832.png,n02835271_10832.png,1.0,7.3803844,3.0139713,3.0875204
alexnet_w1_mlp_simclrhn_probe3,1,238,NaN,oven,chair,pow,0238_pow_dnn_pow_chair_35_n02791124_28.png,n02791124_28.png,0.0,0.6772792,2.8551211,-1.5399668
alexnet_w1_mlp_simclrhn_probe3,1,239,NaN,bicycle,bicycle,pow,0239_pow_dnn_pow_bicycle_35_n03792782_1715.png,n03792782_1715.png,1.0,3.370177,1.1320732,1.5825784
alexnet_w1_mlp_simclrhn_probe3,1,240,NaN,bicycle,bicycle,0,0240_pow_dnn_0_bicycle_35_n02835271_19875.png,n02835271_19875.png,1.0,8.352775,2.2992694,4.2804747
alexnet_w1_mlp_simclrhn_probe3,1,241,NaN,bird,bird,0,0241_pow_dnn_0_bird_35_n02056570_8203.png,n02056570_8203.png,1.0,2.8626008,0.11048489,1.9460399
alexnet_w1_mlp_simclrhn_probe3,1,242,NaN,oven,car,pow,0242_pow_dnn_pow_car_35_n02814533_27588.png,n02814533_27588.png,0.0,-0.1802593,1.9816481,-1.5286994
alexnet_w1_mlp_simclrhn_probe3,1,243,NaN,bear,bear,0,0243_pow_dnn_0_bear_35_n02134418_2714.png,n02134418_2714.png,1.0,3.3315868,3.25247,0.05594404
alexnet_w1_mlp_simclrhn_probe3,1,244,NaN,bear,bear,0,0244_pow_dnn_0_bear_35_n02132136_900.png,n02132136_900.png,1.0,5.5066104,3.4887903,1.4268143
alexnet_w1_mlp_simclrhn_probe3,1,245,NaN,dog,dog,0,0245_pow_dnn_0_dog_35_n02095889_7413.png,n02095889_7413.png,1.0,2.0308096,1.1401021,0.6298253
alexnet_w1_mlp_simclrhn_probe3,1,246,NaN,boat,boat,0,0246_pow_dnn_0_boat_35_n02951358_14877.png,n02951358_14877.png,1.0,1.7398789,1.3913419,0.24645285
alexnet_w1_mlp_simclrhn_probe3,1,247,NaN,bear,knife,pow,0247_pow_dnn_pow_knife_35_n03041632_42472.png,n03041632_42472.png,0.0,1.0547099,1.6283839,-0.40564877
alexnet_w1_mlp_simclrhn_probe3,1,248,NaN,bottle,bottle,pow,0248_pow_dnn_pow_bottle_35_n02823428_12740.png,n02823428_12740.png,1.0,2.5814097,1.5288101,0.7443003
alexnet_w1_mlp_simclrhn_probe3,1,249,NaN,airplane,boat,0,0249_pow_dnn_0_boat_35_n02951358_2537.png,n02951358_2537.png,0.0,2.9815006,3.4652843,-0.34208676
alexnet_w1_mlp_simclrhn_probe3,1,250,NaN,dog,dog,0,0250_pow_dnn_0_dog_35_n02106166_5135.png,n02106166_5135.png,1.0,2.6513917,2.2087939,0.31296396
alexnet_w1_mlp_simclrhn_probe3,1,251,NaN,oven,oven,pow,0251_pow_dnn_pow_oven_35_n04111531_23046.png,n04111531_23046.png,1.0,3.2952702,1.3383087,1.3837808
alexnet_w1_mlp_simclrhn_probe3,1,252,NaN,bear,dog,pow,0252_pow_dnn_pow_dog_35_n02105855_3310.png,n02105855_3310.png,0.0,0.984685,1.7802207,-0.5625287
alexnet_w1_mlp_simclrhn_probe3,1,253,NaN,bird,bird,0,0253_pow_dnn_0_bird_35_n01843383_2122.png,n01843383_2122.png,1.0,2.0518634,0.74443185,0.92449373
alexnet_w1_mlp_simclrhn_probe3,1,254,NaN,oven,boat,pow,0254_pow_dnn_pow_boat_35_n03344393_8407.png,n03344393_8407.png,0.0,0.48273736,1.5246558,-0.7367477
alexnet_w1_mlp_simclrhn_probe3,1,255,NaN,clock,clock,pow,0255_pow_dnn_pow_clock_35_n04548280_4739.png,n04548280_4739.png,1.0,1.4354843,1.3656242,0.049398553
alexnet_w1_mlp_simclrhn_probe3,1,256,NaN,keyboard,keyboard,0,0256_pow_dnn_0_keyboard_35_n04505470_3531.png,n04505470_3531.png,1.0,5.1100254,1.184907,2.775478
alexnet_w1_mlp_simclrhn_probe3,1,257,NaN,elephant,airplane,pow,0257_pow_dnn_pow_airplane_35_n02690373_7740.png,n02690373_7740.png,0.0,-0.59786034,2.791867,-2.3968992
alexnet_w1_mlp_simclrhn_probe3,1,258,NaN,bear,bear,pow,0258_pow_dnn_pow_bear_35_n02132136_4699.png,n02132136_4699.png,1.0,2.5858521,0.7137276,1.323792
alexnet_w1_mlp_simclrhn_probe3,1,259,NaN,bear,airplane,pow,0259_pow_dnn_pow_airplane_35_n02690373_5277.png,n02690373_5277.png,0.0,0.7927598,1.7241,-0.658557
alexnet_w1_mlp_simclrhn_probe3,1,260,NaN,bottle,clock,pow,0260_pow_dnn_pow_clock_35_n04548280_8841.png,n04548280_8841.png,0.0,1.2096994,1.2200565,-0.007323605
alexnet_w1_mlp_simclrhn_probe3,1,261,NaN,oven,truck,pow,0261_pow_dnn_pow_truck_35_n03796401_142.png,n03796401_142.png,0.0,-0.7867898,3.702095,-3.1741211
alexnet_w1_mlp_simclrhn_probe3,1,262,NaN,bear,bear,pow,0262_pow_dnn_pow_bear_35_n02134418_4666.png,n02134418_4666.png,1.0,0.9944812,0.5242149,0.33252847
alexnet_w1_mlp_simclrhn_probe3,1,263,NaN,chair,chair,0,0263_pow_dnn_0_chair_35_n04429376_17074.png,n04429376_17074.png,1.0,2.4156773,1.358805,0.7473216
alexnet_w1_mlp_simclrhn_probe3,1,264,NaN,dog,dog,0,0264_pow_dnn_0_dog_35_n02107683_1934.png,n02107683_1934.png,1.0,3.8221242,1.2817816,1.7962936
alexnet_w1_mlp_simclrhn_probe3,1,265,NaN,bicycle,bicycle,0,0265_pow_dnn_0_bicycle_35_n03792782_3765.png,n03792782_3765.png,1.0,2.8440952,0.90078545,1.3741275
alexnet_w1_mlp_simclrhn_probe3,1,266,NaN,elephant,elephant,pow,0266_pow_dnn_pow_elephant_35_n02504013_7026.png,n02504013_7026.png,1.0,5.9010577,2.8184536,2.1797304
alexnet_w1_mlp_simclrhn_probe3,1,267,NaN,oven,clock,pow,0267_pow_dnn_pow_clock_35_n03196217_3063.png,n03196217_3063.png,0.0,0.06137623,1.3962625,-0.9439072
alexnet_w1_mlp_simclrhn_probe3,1,268,NaN,elephant,bear,pow,0268_pow_dnn_pow_bear_35_n02134418_1041.png,n02134418_1041.png,0.0,2.1443112,2.3593864,-0.15208118
alexnet_w1_mlp_simclrhn_probe3,1,269,NaN,boat,boat,pow,0269_pow_dnn_pow_boat_35_n03344393_8258.png,n03344393_8258.png,1.0,1.3795152,1.3281243,0.036338843
alexnet_w1_mlp_simclrhn_probe3,1,270,NaN,oven,oven,0,0270_pow_dnn_0_oven_35_n04111531_10306.png,n04111531_10306.png,1.0,6.7303314,2.6411805,2.8914664
alexnet_w1_mlp_simclrhn_probe3,1,271,NaN,clock,bottle,0,0271_pow_dnn_0_bottle_35_n02823428_641.png,n02823428_641.png,0.0,2.9443717,4.605699,-1.1747359
alexnet_w1_mlp_simclrhn_probe3,1,272,NaN,oven,oven,pow,0272_pow_dnn_pow_oven_35_n04111531_1873.png,n04111531_1873.png,1.0,3.4412699,1.7858541,1.1705557
alexnet_w1_mlp_simclrhn_probe3,1,273,NaN,bear,bear,0,0273_pow_dnn_0_bear_35_n02134418_559.png,n02134418_559.png,1.0,5.1876593,2.2754266,2.0592594
alexnet_w1_mlp_simclrhn_probe3,1,274,NaN,oven,keyboard,pow,0274_pow_dnn_pow_keyboard_35_n04505470_4844.png,n04505470_4844.png,0.0,0.57501984,2.9849622,-1.7040867
alexnet_w1_mlp_simclrhn_probe3,1,275,NaN,keyboard,keyboard,0,0275_pow_dnn_0_keyboard_35_n03085013_23291.png,n03085013_23291.png,1.0,4.565336,2.4483426,1.4969406
alexnet_w1_mlp_simclrhn_probe3,1,276,NaN,car,car,0,0276_pow_dnn_0_car_35_n03100240_5808.png,n03100240_5808.png,1.0,11.476654,7.0274367,3.1460717
alexnet_w1_mlp_simclrhn_probe3,1,277,NaN,boat,bear,0,0277_pow_dnn_0_bear_35_n02134084_15968.png,n02134084_15968.png,0.0,0.37654063,1.7096189,-0.9426287
alexnet_w1_mlp_simclrhn_probe3,1,278,NaN,bear,cat,0,0278_pow_dnn_0_cat_35_n02125311_20238.png,n02125311_20238.png,0.0,0.16811168,2.4201775,-1.592451
alexnet_w1_mlp_simclrhn_probe3,1,279,NaN,bird,bird,0,0279_pow_dnn_0_bird_35_n02028035_8994.png,n02028035_8994.png,1.0,3.1705172,2.2524767,0.6491527
alexnet_w1_mlp_simclrhn_probe3,1,280,NaN,knife,airplane,pow,0280_pow_dnn_pow_airplane_35_n02690373_4471.png,n02690373_4471.png,0.0,0.915006,1.5756102,-0.4671177
alexnet_w1_mlp_simclrhn_probe3,1,281,NaN,car,truck,0,0281_pow_dnn_0_truck_35_n03796401_322.png,n03796401_322.png,0.0,4.852825,9.861169,-3.5414338
alexnet_w1_mlp_simclrhn_probe3,1,282,NaN,oven,car,pow,0282_pow_dnn_pow_car_35_n04285008_402.png,n04285008_402.png,0.0,-0.890539,2.9317458,-2.7027636
alexnet_w1_mlp_simclrhn_probe3,1,283,NaN,oven,oven,0,0283_pow_dnn_0_oven_35_n04111531_807.png,n04111531_807.png,1.0,4.0993156,1.3787723,1.9237148
alexnet_w1_mlp_simclrhn_probe3,1,284,NaN,oven,oven,0,0284_pow_dnn_0_oven_35_n04111531_20369.png,n04111531_20369.png,1.0,7.3071103,1.4440836,4.145786
alexnet_w1_mlp_simclrhn_probe3,1,285,NaN,elephant,knife,pow,0285_pow_dnn_pow_knife_35_n03041632_24114.png,n03041632_24114.png,0.0,0.38514253,2.6622372,-1.610149
alexnet_w1_mlp_simclrhn_probe3,1,286,NaN,elephant,dog,0,0286_pow_dnn_0_dog_35_n02093256_1102.png,n02093256_1102.png,0.0,0.75514656,2.6116254,-1.3127289
alexnet_w1_mlp_simclrhn_probe3,1,287,NaN,bottle,bottle,0,0287_pow_dnn_0_bottle_35_n03983396_17636.png,n03983396_17636.png,1.0,7.3097906,2.7288513,3.2392132
alexnet_w1_mlp_simclrhn_probe3,1,288,NaN,bicycle,bird,0,0288_pow_dnn_0_bird_35_n01855672_55167.png,n01855672_55167.png,0.0,1.5899458,3.1930995,-1.1336008
alexnet_w1_mlp_simclrhn_probe3,1,289,NaN,keyboard,bottle,0,0289_pow_dnn_0_bottle_35_n02823428_1149.png,n02823428_1149.png,0.0,2.1291473,3.149333,-0.72138023
alexnet_w1_mlp_simclrhn_probe3,1,290,NaN,oven,truck,pow,0290_pow_dnn_pow_truck_35_n03417042_1182.png,n03417042_1182.png,0.0,-0.1679415,2.518404,-1.8995332
alexnet_w1_mlp_simclrhn_probe3,1,291,NaN,bear,bear,0,0291_pow_dnn_0_bear_35_n02134084_22051.png,n02134084_22051.png,1.0,3.5851705,2.9989786,0.41450027
alexnet_w1_mlp_simclrhn_probe3,1,292,NaN,bear,cat,pow,0292_pow_dnn_pow_cat_35_n02123159_5170.png,n02123159_5170.png,0.0,0.39394775,1.7048059,-0.9269167
alexnet_w1_mlp_simclrhn_probe3,1,293,NaN,bear,airplane,pow,0293_pow_dnn_pow_airplane_35_n02690373_4042.png,n02690373_4042.png,0.0,0.76493585,1.7127616,-0.67021406
alexnet_w1_mlp_simclrhn_probe3,1,294,NaN,oven,airplane,pow,0294_pow_dnn_pow_airplane_35_n02690373_6231.png,n02690373_6231.png,0.0,-0.1520833,2.6318073,-1.968508
alexnet_w1_mlp_simclrhn_probe3,1,295,NaN,bear,bear,0,0295_pow_dnn_0_bear_35_n02134418_4657.png,n02134418_4657.png,1.0,3.7321715,2.5364056,0.84553427
alexnet_w1_mlp_simclrhn_probe3,1,296,NaN,car,car,0,0296_pow_dnn_0_car_35_n03100240_24505.png,n03100240_24505.png,1.0,6.8972435,4.0959644,1.9808035
alexnet_w1_mlp_simclrhn_probe3,1,297,NaN,bird,bird,0,0297_pow_dnn_0_bird_35_n02006656_4031.png,n02006656_4031.png,1.0,2.768692,0.62397337,1.5165452
alexnet_w1_mlp_simclrhn_probe3,1,298,NaN,truck,truck,0,0298_pow_dnn_0_truck_35_n03796401_20861.png,n03796401_20861.png,1.0,5.677932,3.4495564,1.5756994
alexnet_w1_mlp_simclrhn_probe3,1,299,NaN,oven,truck,0,0299_pow_dnn_0_truck_35_n03417042_4934.png,n03417042_4934.png,0.0,0.9376278,6.256705,-3.7611556
alexnet_w1_mlp_simclrhn_probe3,1,300,NaN,bird,bird,0,0300_pow_dnn_0_bird_35_n01824575_3046.png,n01824575_3046.png,1.0,1.5559645,0.7088157,0.59902465
alexnet_w1_mlp_simclrhn_probe3,1,301,NaN,elephant,elephant,pow,0301_pow_dnn_pow_elephant_35_n02504458_3463.png,n02504458_3463.png,1.0,2.4289365,1.2495604,0.83394486
alexnet_w1_mlp_simclrhn_probe3,1,302,NaN,airplane,airplane,0,0302_pow_dnn_0_airplane_35_n02690373_6914.png,n02690373_6914.png,1.0,10.065998,4.354941,4.038327
alexnet_w1_mlp_simclrhn_probe3,1,303,NaN,bottle,bottle,0,0303_pow_dnn_0_bottle_35_n03983396_3675.png,n03983396_3675.png,1.0,1.6750132,1.4574416,0.15384637
alexnet_w1_mlp_simclrhn_probe3,1,304,NaN,cat,dog,pow,0304_pow_dnn_pow_dog_35_n02088364_12272.png,n02088364_12272.png,0.0,1.08687,2.4794543,-0.98470587
alexnet_w1_mlp_simclrhn_probe3,1,305,NaN,dog,dog,0,0305_pow_dnn_0_dog_35_n02085936_1706.png,n02085936_1706.png,1.0,2.0070672,1.4176807,0.41675916
alexnet_w1_mlp_simclrhn_probe3,1,306,NaN,elephant,bear,0,0306_pow_dnn_0_bear_35_n02134084_18372.png,n02134084_18372.png,0.0,3.2276216,3.389724,-0.11462375
alexnet_w1_mlp_simclrhn_probe3,1,307,NaN,keyboard,keyboard,0,0307_pow_dnn_0_keyboard_35_n04505470_751.png,n04505470_751.png,1.0,4.986857,2.0937908,2.0457067
alexnet_w1_mlp_simclrhn_probe3,1,308,NaN,bird,bird,0,0308_pow_dnn_0_bird_35_n02018207_19525.png,n02018207_19525.png,1.0,3.3249543,2.3477616,0.69097954
alexnet_w1_mlp_simclrhn_probe3,1,309,NaN,oven,bicycle,pow,0309_pow_dnn_pow_bicycle_35_n02835271_3329.png,n02835271_3329.png,0.0,-0.14216542,2.413902,-1.8074126
alexnet_w1_mlp_simclrhn_probe3,1,310,NaN,clock,clock,pow,0310_pow_dnn_pow_clock_35_n04548280_1960.png,n04548280_1960.png,1.0,2.590851,1.6321357,0.67791414
alexnet_w1_mlp_simclrhn_probe3,1,311,NaN,keyboard,chair,0,0311_pow_dnn_0_chair_35_n03376595_6240.png,n03376595_6240.png,0.0,3.3630567,3.4992762,-0.09632173
alexnet_w1_mlp_simclrhn_probe3,1,312,NaN,bear,knife,pow,0312_pow_dnn_pow_knife_35_n03041632_13194.png,n03041632_13194.png,0.0,0.2577798,1.7722884,-1.0709193
alexnet_w1_mlp_simclrhn_probe3,1,313,NaN,bicycle,knife,0,0313_pow_dnn_0_knife_35_n03041632_13465.png,n03041632_13465.png,0.0,-0.89522874,2.3541284,-2.2976425
alexnet_w1_mlp_simclrhn_probe3,1,314,NaN,cat,cat,pow,0314_pow_dnn_pow_cat_35_n02125311_10174.png,n02125311_10174.png,1.0,2.5457318,2.026805,0.3669367
alexnet_w1_mlp_simclrhn_probe3,1,315,NaN,oven,car,pow,0315_pow_dnn_pow_car_35_n02814533_7420.png,n02814533_7420.png,0.0,-0.538792,3.2137904,-2.6534767
alexnet_w1_mlp_simclrhn_probe3,1,316,NaN,elephant,truck,pow,0316_pow_dnn_pow_truck_35_n04467665_3876.png,n04467665_3876.png,0.0,-0.58618474,1.5684094,-1.5235282
alexnet_w1_mlp_simclrhn_probe3,1,317,NaN,airplane,airplane,0,0317_pow_dnn_0_airplane_35_n02690373_12976.png,n02690373_12976.png,1.0,8.59235,3.9904118,3.2540617
alexnet_w1_mlp_simclrhn_probe3,1,318,NaN,bear,bear,pow,0318_pow_dnn_pow_bear_35_n02133161_10441.png,n02133161_10441.png,1.0,3.8791823,3.685304,0.13709274
alexnet_w1_mlp_simclrhn_probe3,1,319,NaN,oven,chair,pow,0319_pow_dnn_pow_chair_35_n03376595_13703.png,n03376595_13703.png,0.0,0.044841886,1.5224334,-1.044815
alexnet_w1_mlp_simclrhn_probe3,1,320,NaN,bicycle,bicycle,pow,0320_pow_dnn_pow_bicycle_35_n03792782_11625.png,n03792782_11625.png,1.0,2.1995687,1.0068445,0.84338343
alexnet_w1_mlp_simclrhn_probe3,1,321,NaN,oven,oven,pow,0321_pow_dnn_pow_oven_35_n04111531_22797.png,n04111531_22797.png,1.0,1.869798,1.321426,0.3877575
alexnet_w1_mlp_simclrhn_probe3,1,322,NaN,elephant,chair,pow,0322_pow_dnn_pow_chair_35_n03376595_9651.png,n03376595_9651.png,0.0,0.14417061,2.2515287,-1.4901273
alexnet_w1_mlp_simclrhn_probe3,1,323,NaN,bear,bicycle,pow,0323_pow_dnn_pow_bicycle_35_n03792782_4830.png,n03792782_4830.png,0.0,0.6914917,1.0132577,-0.22752294
alexnet_w1_mlp_simclrhn_probe3,1,324,NaN,elephant,elephant,pow,0324_pow_dnn_pow_elephant_35_n02504013_7191.png,n02504013_7191.png,1.0,1.4580201,1.4252727,0.0231559
alexnet_w1_mlp_simclrhn_probe3,1,325,NaN,knife,knife,0,0325_pow_dnn_0_knife_35_n03041632_120.png,n03041632_120.png,1.0,2.7809339,1.0294471,1.2384882
alexnet_w1_mlp_simclrhn_probe3,1,326,NaN,bear,airplane,pow,0326_pow_dnn_pow_airplane_35_n02690373_5465.png,n02690373_5465.png,0.0,-0.38174215,1.7717111,-1.5227215
alexnet_w1_mlp_simclrhn_probe3,1,327,NaN,oven,car,pow,0327_pow_dnn_pow_car_35_n04285008_8443.png,n04285008_8443.png,0.0,0.7927456,2.442782,-1.1667519
alexnet_w1_mlp_simclrhn_probe3,1,328,NaN,bottle,bottle,0,0328_pow_dnn_0_bottle_35_n04557648_132.png,n04557648_132.png,1.0,8.511809,1.2239069,5.153325
alexnet_w1_mlp_simclrhn_probe3,1,329,NaN,bear,airplane,pow,0329_pow_dnn_pow_airplane_35_n02690373_18304.png,n02690373_18304.png,0.0,0.6001183,1.2125962,-0.4330873
alexnet_w1_mlp_simclrhn_probe3,1,330,NaN,oven,knife,pow,0330_pow_dnn_pow_knife_35_n03041632_102764.png,n03041632_102764.png,0.0,0.43137732,1.6872625,-0.888045
alexnet_w1_mlp_simclrhn_probe3,1,331,NaN,oven,chair,pow,0331_pow_dnn_pow_chair_35_n02791124_16913.png,n02791124_16913.png,0.0,0.8810568,2.217677,-0.9451333
alexnet_w1_mlp_simclrhn_probe3,1,332,NaN,bicycle,bicycle,pow,0332_pow_dnn_pow_bicycle_35_n02835271_324.png,n02835271_324.png,1.0,1.9425359,1.1934131,0.52970976
alexnet_w1_mlp_simclrhn_probe3,1,333,NaN,boat,airplane,pow,0333_pow_dnn_pow_airplane_35_n02690373_12966.png,n02690373_12966.png,0.0,0.9905899,1.8631389,-0.6169853
alexnet_w1_mlp_simclrhn_probe3,1,334,NaN,elephant,keyboard,pow,0334_pow_dnn_pow_keyboard_35_n03085013_24653.png,n03085013_24653.png,0.0,-0.63232696,2.2256672,-2.020907
alexnet_w1_mlp_simclrhn_probe3,1,335,NaN,bicycle,bicycle,0,0335_pow_dnn_0_bicycle_35_n03792782_18529.png,n03792782_18529.png,1.0,5.5823584,1.2902005,3.0350142
alexnet_w1_mlp_simclrhn_probe3,1,336,NaN,elephant,airplane,pow,0336_pow_dnn_pow_airplane_35_n02690373_2433.png,n02690373_2433.png,0.0,0.13990092,2.3249073,-1.5450329
alexnet_w1_mlp_simclrhn_probe3,1,337,NaN,oven,cat,0,0337_pow_dnn_0_cat_35_n02125311_28447.png,n02125311_28447.png,0.0,0.5979209,2.4424863,-1.3043047
alexnet_w1_mlp_simclrhn_probe3,1,338,NaN,knife,knife,0,0338_pow_dnn_0_knife_35_n03041632_20504.png,n03041632_20504.png,1.0,1.6509763,0.82643825,0.5830365
alexnet_w1_mlp_simclrhn_probe3,1,339,NaN,bear,bear,pow,0339_pow_dnn_pow_bear_35_n02132136_15870.png,n02132136_15870.png,1.0,0.86944276,0.50160515,0.26010048
alexnet_w1_mlp_simclrhn_probe3,1,340,NaN,car,car,0,0340_pow_dnn_0_car_35_n02814533_11273.png,n02814533_11273.png,1.0,6.006063,4.747818,0.8897136
alexnet_w1_mlp_simclrhn_probe3,1,341,NaN,elephant,elephant,0,0341_pow_dnn_0_elephant_35_n02504013_2476.png,n02504013_2476.png,1.0,17.291706,4.7138133,8.893913
alexnet_w1_mlp_simclrhn_probe3,1,342,NaN,bear,bear,0,0342_pow_dnn_0_bear_35_n02133161_14945.png,n02133161_14945.png,1.0,1.0093043,0.63490266,0.26474193
alexnet_w1_mlp_simclrhn_probe3,1,343,NaN,car,car,0,0343_pow_dnn_0_car_35_n04285008_7870.png,n04285008_7870.png,1.0,4.422325,4.295332,0.08979774
alexnet_w1_mlp_simclrhn_probe3,1,344,NaN,airplane,airplane,0,0344_pow_dnn_0_airplane_35_n02690373_10129.png,n02690373_10129.png,1.0,7.92831,5.133062,1.9765389
alexnet_w1_mlp_simclrhn_probe3,1,345,NaN,oven,truck,pow,0345_pow_dnn_pow_truck_35_n03417042_1479.png,n03417042_1479.png,0.0,-0.4206789,1.5431545,-1.3886399
alexnet_w1_mlp_simclrhn_probe3,1,346,NaN,bear,boat,pow,0346_pow_dnn_pow_boat_35_n04612504_10662.png,n04612504_10662.png,0.0,0.66529626,1.7929016,-0.7973375
alexnet_w1_mlp_simclrhn_probe3,1,347,NaN,bird,bird,0,0347_pow_dnn_0_bird_35_n02056570_5891.png,n02056570_5891.png,1.0,2.5511446,0.6699327,1.3302177
alexnet_w1_mlp_simclrhn_probe3,1,348,NaN,elephant,elephant,pow,0348_pow_dnn_pow_elephant_35_n02504458_5982.png,n02504458_5982.png,1.0,4.3929768,2.3689206,1.4312239
alexnet_w1_mlp_simclrhn_probe3,1,349,NaN,oven,truck,pow,0349_pow_dnn_pow_truck_35_n03417042_19955.png,n03417042_19955.png,0.0,0.25485435,1.6785635,-1.0067145
alexnet_w1_mlp_simclrhn_probe3,1,350,NaN,oven,oven,0,0350_pow_dnn_0_oven_35_n04111531_6120.png,n04111531_6120.png,1.0,7.1486635,1.731243,3.8306947
alexnet_w1_mlp_simclrhn_probe3,1,351,NaN,oven,oven,0,0351_pow_dnn_0_oven_35_n04111531_4750.png,n04111531_4750.png,1.0,2.5951648,0.8254373,1.2513863
alexnet_w1_mlp_simclrhn_probe3,1,352,NaN,boat,boat,0,0352_pow_dnn_0_boat_35_n02951358_29779.png,n02951358_29779.png,1.0,7.7315774,2.5490954,3.664568
alexnet_w1_mlp_simclrhn_probe3,1,353,NaN,bear,bear,0,0353_pow_dnn_0_bear_35_n02134084_14168.png,n02134084_14168.png,1.0,2.4334755,1.4640244,0.68550545
alexnet_w1_mlp_simclrhn_probe3,1,354,NaN,cat,cat,0,0354_pow_dnn_0_cat_35_n02123597_6990.png,n02123597_6990.png,1.0,2.701767,1.750695,0.67250943
alexnet_w1_mlp_simclrhn_probe3,1,355,NaN,chair,chair,0,0355_pow_dnn_0_chair_35_n02791124_2008.png,n02791124_2008.png,1.0,5.012022,1.4525439,2.5169313
alexnet_w1_mlp_simclrhn_probe3,1,356,NaN,oven,car,pow,0356_pow_dnn_pow_car_35_n04285008_2185.png,n04285008_2185.png,0.0,-0.4402177,2.8810072,-2.3484607
alexnet_w1_mlp_simclrhn_probe3,1,357,NaN,bear,bear,0,0357_pow_dnn_0_bear_35_n02134084_13205.png,n02134084_13205.png,1.0,1.693617,1.4650455,0.16162449
alexnet_w1_mlp_simclrhn_probe3,1,358,NaN,elephant,bird,pow,0358_pow_dnn_pow_bird_35_n01558993_6351.png,n01558993_6351.png,0.0,-0.29136676,2.3366742,-1.8583057
alexnet_w1_mlp_simclrhn_probe3,1,359,NaN,bicycle,bicycle,0,0359_pow_dnn_0_bicycle_35_n02835271_8017.png,n02835271_8017.png,1.0,5.9488277,4.8788924,0.75655854
alexnet_w1_mlp_simclrhn_probe3,1,360,NaN,cat,cat,0,0360_pow_dnn_0_cat_35_n02124075_4189.png,n02124075_4189.png,1.0,8.709777,1.0362992,5.425968
alexnet_w1_mlp_simclrhn_probe3,1,361,NaN,elephant,elephant,pow,0361_pow_dnn_pow_elephant_35_n02504458_3616.png,n02504458_3616.png,1.0,6.187207,3.3504884,2.0058632
alexnet_w1_mlp_simclrhn_probe3,1,362,NaN,boat,boat,pow,0362_pow_dnn_pow_boat_35_n04612504_8636.png,n04612504_8636.png,1.0,2.5685792,2.4277487,0.09958222
alexnet_w1_mlp_simclrhn_probe3,1,363,NaN,oven,car,pow,0363_pow_dnn_pow_car_35_n03100240_10502.png,n03100240_10502.png,0.0,-0.5939892,3.2837727,-2.7419918
alexnet_w1_mlp_simclrhn_probe3,1,364,NaN,bottle,bottle,0,0364_pow_dnn_0_bottle_35_n03983396_2271.png,n03983396_2271.png,1.0,1.2554388,0.95413935,0.21305089
alexnet_w1_mlp_simclrhn_probe3,1,365,NaN,clock,clock,0,0365_pow_dnn_0_clock_35_n04548280_280.png,n04548280_280.png,1.0,3.86623,2.1918192,1.1839873
alexnet_w1_mlp_simclrhn_probe3,1,366,NaN,airplane,truck,0,0366_pow_dnn_0_truck_35_n04467665_356.png,n04467665_356.png,0.0,1.432271,4.795255,-2.377989
alexnet_w1_mlp_simclrhn_probe3,1,367,NaN,airplane,airplane,0,0367_pow_dnn_0_airplane_35_n02690373_306.png,n02690373_306.png,1.0,10.012134,2.6644087,5.1956263
alexnet_w1_mlp_simclrhn_probe3,1,368,NaN,elephant,bird,pow,0368_pow_dnn_pow_bird_35_n02007558_11331.png,n02007558_11331.png,0.0,0.51895994,3.7501035,-2.2847636
alexnet_w1_mlp_simclrhn_probe3,1,369,NaN,cat,dog,0,0369_pow_dnn_0_dog_35_n02105162_1003.png,n02105162_1003.png,0.0,0.71527606,1.0246139,-0.21873486
alexnet_w1_mlp_simclrhn_probe3,1,370,NaN,oven,bird,pow,0370_pow_dnn_pow_bird_35_n01534433_11695.png,n01534433_11695.png,0.0,0.105735615,2.5823512,-1.7512318
alexnet_w1_mlp_simclrhn_probe3,1,371,NaN,oven,oven,0,0371_pow_dnn_0_oven_35_n04111531_19631.png,n04111531_19631.png,1.0,8.355205,4.2540936,2.8999233
alexnet_w1_mlp_simclrhn_probe3,1,372,NaN,elephant,elephant,pow,0372_pow_dnn_pow_elephant_35_n02504013_8534.png,n02504013_8534.png,1.0,3.6750515,2.1136615,1.1040695
alexnet_w1_mlp_simclrhn_probe3,1,373,NaN,keyboard,oven,0,0373_pow_dnn_0_oven_35_n04111531_10436.png,n04111531_10436.png,0.0,1.3769531,3.03505,-1.1724515
alexnet_w1_mlp_simclrhn_probe3,1,374,NaN,bear,airplane,pow,0374_pow_dnn_pow_airplane_35_n02690373_1819.png,n02690373_1819.png,0.0,1.2476876,1.6573458,-0.2896721
alexnet_w1_mlp_simclrhn_probe3,1,375,NaN,knife,cat,0,0375_pow_dnn_0_cat_35_n02123597_14032.png,n02123597_14032.png,0.0,0.56923836,1.4637415,-0.6325093
alexnet_w1_mlp_simclrhn_probe3,1,376,NaN,elephant,elephant,0,0376_pow_dnn_0_elephant_35_n02504013_10922.png,n02504013_10922.png,1.0,2.657277,1.7338667,0.65294975
alexnet_w1_mlp_simclrhn_probe3,1,377,NaN,boat,boat,0,0377_pow_dnn_0_boat_35_n03662601_81.png,n03662601_81.png,1.0,3.5013726,2.0640259,1.0163577
alexnet_w1_mlp_simclrhn_probe3,1,378,NaN,oven,bottle,pow,0378_pow_dnn_pow_bottle_35_n03937543_11347.png,n03937543_11347.png,0.0,1.906777,2.0742426,-0.11841604
alexnet_w1_mlp_simclrhn_probe3,1,379,NaN,bear,knife,pow,0379_pow_dnn_pow_knife_35_n03041632_85416.png,n03041632_85416.png,0.0,0.009708652,2.718711,-1.9155539
alexnet_w1_mlp_simclrhn_probe3,1,380,NaN,elephant,car,pow,0380_pow_dnn_pow_car_35_n03100240_15676.png,n03100240_15676.png,0.0,1.3286146,1.6930109,-0.25766712
alexnet_w1_mlp_simclrhn_probe3,1,381,NaN,oven,oven,0,0381_pow_dnn_0_oven_35_n04111531_4189.png,n04111531_4189.png,1.0,5.4827237,2.0686257,2.4141319
alexnet_w1_mlp_simclrhn_probe3,1,382,NaN,oven,car,pow,0382_pow_dnn_pow_car_35_n02814533_65623.png,n02814533_65623.png,0.0,0.31852657,2.2739038,-1.3826606
alexnet_w1_mlp_simclrhn_probe3,1,383,NaN,airplane,airplane,0,0383_pow_dnn_0_airplane_35_n02690373_4945.png,n02690373_4945.png,1.0,11.268451,1.0532463,7.2232404
alexnet_w1_mlp_simclrhn_probe3,1,384,NaN,bicycle,dog,0,0384_pow_dnn_0_dog_35_n02088364_5801.png,n02088364_5801.png,0.0,1.0101357,2.8989239,-1.335575
alexnet_w1_mlp_simclrhn_probe3,1,385,NaN,bear,dog,pow,0385_pow_dnn_pow_dog_35_n02108915_8164.png,n02108915_8164.png,0.0,0.42957702,2.0176144,-1.122912
alexnet_w1_mlp_simclrhn_probe3,1,386,NaN,car,car,0,0386_pow_dnn_0_car_35_n03100240_1435.png,n03100240_1435.png,1.0,15.195381,11.594548,2.5461733
alexnet_w1_mlp_simclrhn_probe3,1,387,NaN,clock,clock,0,0387_pow_dnn_0_clock_35_n03196217_412.png,n03196217_412.png,1.0,1.7833151,1.6502666,0.094079435
alexnet_w1_mlp_simclrhn_probe3,1,388,NaN,bicycle,boat,pow,0388_pow_dnn_pow_boat_35_n03344393_6713.png,n03344393_6713.png,0.0,0.58061486,1.0077288,-0.3020152
alexnet_w1_mlp_simclrhn_probe3,1,389,NaN,bottle,knife,0,0389_pow_dnn_0_knife_35_n03041632_4305.png,n03041632_4305.png,0.0,0.8786969,1.1298466,-0.17758963
alexnet_w1_mlp_simclrhn_probe3,1,390,NaN,oven,car,pow,0390_pow_dnn_pow_car_35_n04285008_10287.png,n04285008_10287.png,0.0,-0.7226408,3.4754376,-2.96849
alexnet_w1_mlp_simclrhn_probe3,1,391,NaN,oven,car,pow,0391_pow_dnn_pow_car_35_n04285008_15071.png,n04285008_15071.png,0.0,-0.49469265,1.9062345,-1.6977118
alexnet_w1_mlp_simclrhn_probe3,1,392,NaN,elephant,knife,pow,0392_pow_dnn_pow_knife_35_n03041632_22214.png,n03041632_22214.png,0.0,0.95860314,1.5581818,-0.4239661
alexnet_w1_mlp_simclrhn_probe3,1,393,NaN,boat,boat,pow,0393_pow_dnn_pow_boat_35_n04612504_3064.png,n04612504_3064.png,1.0,1.7322019,1.0464714,0.48488474
alexnet_w1_mlp_simclrhn_probe3,1,394,NaN,chair,chair,0,0394_pow_dnn_0_chair_35_n02791124_7193.png,n02791124_7193.png,1.0,5.1815696,1.7629385,2.4173372
alexnet_w1_mlp_simclrhn_probe3,1,395,NaN,boat,boat,0,0395_pow_dnn_0_boat_35_n03344393_5511.png,n03344393_5511.png,1.0,10.814483,3.1630654,5.410369
alexnet_w1_mlp_simclrhn_probe3,1,396,NaN,bear,boat,pow,0396_pow_dnn_pow_boat_35_n04273569_11997.png,n04273569_11997.png,0.0,2.0944583,2.1493056,-0.038782857
alexnet_w1_mlp_simclrhn_probe3,1,397,NaN,bicycle,bicycle,0,0397_pow_dnn_0_bicycle_35_n03792782_1424.png,n03792782_1424.png,1.0,3.0883527,0.86674166,1.5709163
alexnet_w1_mlp_simclrhn_probe3,1,398,NaN,oven,clock,pow,0398_pow_dnn_pow_clock_35_n03196217_3362.png,n03196217_3362.png,0.0,-0.00014760096,2.410267,-1.7044206
alexnet_w1_mlp_simclrhn_probe3,1,399,NaN,oven,truck,pow,0399_pow_dnn_pow_truck_35_n04467665_21942.png,n04467665_21942.png,0.0,-0.23208188,1.6326375,-1.3185557
alexnet_w1_mlp_simclrhn_probe3,1,400,NaN,oven,oven,0,0400_pow_dnn_0_oven_35_n04111531_6445.png,n04111531_6445.png,1.0,6.467434,2.6594996,2.6926162
alexnet_w1_mlp_simclrhn_probe3,1,401,NaN,chair,chair,0,0401_pow_dnn_0_chair_35_n04099969_1163.png,n04099969_1163.png,1.0,4.5767784,1.0784104,2.4737198
alexnet_w1_mlp_simclrhn_probe3,1,402,NaN,clock,clock,pow,0402_pow_dnn_pow_clock_35_n02708093_3645.png,n02708093_3645.png,1.0,3.5980027,1.2876127,1.6336925
alexnet_w1_mlp_simclrhn_probe3,1,403,NaN,bicycle,bicycle,0,0403_pow_dnn_0_bicycle_35_n03792782_68319.png,n03792782_68319.png,1.0,8.333934,1.5987034,4.762527
alexnet_w1_mlp_simclrhn_probe3,1,404,NaN,elephant,dog,pow,0404_pow_dnn_pow_dog_35_n02111129_513.png,n02111129_513.png,0.0,1.2050813,3.4933143,-1.618025
alexnet_w1_mlp_simclrhn_probe3,1,405,NaN,bear,airplane,pow,0405_pow_dnn_pow_airplane_35_n02690373_2676.png,n02690373_2676.png,0.0,1.3478768,1.7131186,-0.25826493
alexnet_w1_mlp_simclrhn_probe3,1,406,NaN,airplane,airplane,0,0406_pow_dnn_0_airplane_35_n02690373_1206.png,n02690373_1206.png,1.0,1.904068,0.8350622,0.7559012
alexnet_w1_mlp_simclrhn_probe3,1,407,NaN,dog,dog,0,0407_pow_dnn_0_dog_35_n02100735_1445.png,n02100735_1445.png,1.0,3.7320156,0.6546243,2.1760445
alexnet_w1_mlp_simclrhn_probe3,1,408,NaN,bear,dog,pow,0408_pow_dnn_pow_dog_35_n02102040_312.png,n02102040_312.png,0.0,0.8834657,1.3807328,-0.3516209
alexnet_w1_mlp_simclrhn_probe3,1,409,NaN,keyboard,keyboard,0,0409_pow_dnn_0_keyboard_35_n03085013_22996.png,n03085013_22996.png,1.0,7.6203003,3.251692,3.0890727
alexnet_w1_mlp_simclrhn_probe3,1,410,NaN,boat,boat,0,0410_pow_dnn_0_boat_35_n04612504_434.png,n04612504_434.png,1.0,5.5410833,2.908479,1.8615324
alexnet_w1_mlp_simclrhn_probe3,1,411,NaN,cat,cat,0,0411_pow_dnn_0_cat_35_n02123597_14639.png,n02123597_14639.png,1.0,3.3931415,2.4379237,0.675441
alexnet_w1_mlp_simclrhn_probe3,1,412,NaN,cat,cat,pow,0412_pow_dnn_pow_cat_35_n02123159_2043.png,n02123159_2043.png,1.0,3.4854279,0.77594984,1.9158902
alexnet_w1_mlp_simclrhn_probe3,1,413,NaN,oven,clock,pow,0413_pow_dnn_pow_clock_35_n03196217_3647.png,n03196217_3647.png,0.0,-0.30313483,3.0037644,-2.338331
alexnet_w1_mlp_simclrhn_probe3,1,414,NaN,oven,oven,0,0414_pow_dnn_0_oven_35_n04111531_19795.png,n04111531_19795.png,1.0,4.113285,0.7003939,2.4132786
alexnet_w1_mlp_simclrhn_probe3,1,415,NaN,bear,truck,pow,0415_pow_dnn_pow_truck_35_n03417042_18625.png,n03417042_18625.png,0.0,-0.39083657,2.2185922,-1.8451447
alexnet_w1_mlp_simclrhn_probe3,1,416,NaN,elephant,elephant,pow,0416_pow_dnn_pow_elephant_35_n02504013_1763.png,n02504013_1763.png,1.0,1.9743025,1.5169967,0.32336402
alexnet_w1_mlp_simclrhn_probe3,1,417,NaN,chair,chair,0,0417_pow_dnn_0_chair_35_n04099969_13105.png,n04099969_13105.png,1.0,3.6398933,2.7380195,0.6377211
alexnet_w1_mlp_simclrhn_probe3,1,418,NaN,elephant,bicycle,pow,0418_pow_dnn_pow_bicycle_35_n03792782_4931.png,n03792782_4931.png,0.0,1.2830528,1.6817267,-0.28190503
alexnet_w1_mlp_simclrhn_probe3,1,419,NaN,bear,bear,0,0419_pow_dnn_0_bear_35_n02134418_4513.png,n02134418_4513.png,1.0,3.3112707,1.8221241,1.0529857
alexnet_w1_mlp_simclrhn_probe3,1,420,NaN,cat,cat,pow,0420_pow_dnn_pow_cat_35_n02123045_11224.png,n02123045_11224.png,1.0,4.1839395,1.6127077,1.8181355
alexnet_w1_mlp_simclrhn_probe3,1,421,NaN,oven,chair,0,0421_pow_dnn_0_chair_35_n02791124_359.png,n02791124_359.png,0.0,1.2999913,2.6064038,-0.9237732
alexnet_w1_mlp_simclrhn_probe3,1,422,NaN,knife,clock,pow,0422_pow_dnn_pow_clock_35_n04548280_2654.png,n04548280_2654.png,0.0,0.2723642,1.8695841,-1.129405
alexnet_w1_mlp_simclrhn_probe3,1,423,NaN,bear,cat,pow,0423_pow_dnn_pow_cat_35_n02123394_4713.png,n02123394_4713.png,0.0,0.56216127,1.6863724,-0.7949373
alexnet_w1_mlp_simclrhn_probe3,1,424,NaN,bear,bottle,pow,0424_pow_dnn_pow_bottle_35_n04557648_94.png,n04557648_94.png,0.0,-0.048965633,2.3774326,-1.7157227
alexnet_w1_mlp_simclrhn_probe3,1,425,NaN,chair,chair,0,0425_pow_dnn_0_chair_35_n04099969_15676.png,n04099969_15676.png,1.0,3.9587145,2.3774986,1.1180885
alexnet_w1_mlp_simclrhn_probe3,1,426,NaN,oven,boat,pow,0426_pow_dnn_pow_boat_35_n02951358_537.png,n02951358_537.png,0.0,0.77567023,2.1226714,-0.95247364
alexnet_w1_mlp_simclrhn_probe3,1,427,NaN,clock,clock,0,0427_pow_dnn_0_clock_35_n03196217_1376.png,n03196217_1376.png,1.0,2.2700155,2.0969152,0.12240035
alexnet_w1_mlp_simclrhn_probe3,1,428,NaN,oven,chair,pow,0428_pow_dnn_pow_chair_35_n02791124_1594.png,n02791124_1594.png,0.0,0.38603392,3.1642175,-1.9644724
alexnet_w1_mlp_simclrhn_probe3,1,429,NaN,bicycle,bird,0,0429_pow_dnn_0_bird_35_n02007558_7112.png,n02007558_7112.png,0.0,1.085367,2.3670335,-0.9062751
alexnet_w1_mlp_simclrhn_probe3,1,430,NaN,bicycle,bicycle,0,0430_pow_dnn_0_bicycle_35_n02835271_6094.png,n02835271_6094.png,1.0,12.291676,1.1282706,7.893719
alexnet_w1_mlp_simclrhn_probe3,1,431,NaN,oven,airplane,pow,0431_pow_dnn_pow_airplane_35_n02690373_7676.png,n02690373_7676.png,0.0,0.3697748,1.0914221,-0.5102817
alexnet_w1_mlp_simclrhn_probe3,1,432,NaN,cat,cat,pow,0432_pow_dnn_pow_cat_35_n02123045_3375.png,n02123045_3375.png,1.0,5.4269905,1.2196077,2.9750688
alexnet_w1_mlp_simclrhn_probe3,1,433,NaN,bicycle,bicycle,0,0433_pow_dnn_0_bicycle_35_n02835271_15617.png,n02835271_15617.png,1.0,11.987816,5.4203806,4.643878
alexnet_w1_mlp_simclrhn_probe3,1,434,NaN,oven,oven,pow,0434_pow_dnn_pow_oven_35_n04111531_4904.png,n04111531_4904.png,1.0,2.5588586,1.8736832,0.48449218
alexnet_w1_mlp_simclrhn_probe3,1,435,NaN,boat,boat,0,0435_pow_dnn_0_boat_35_n02951358_5718.png,n02951358_5718.png,1.0,3.808916,2.937846,0.6159396
alexnet_w1_mlp_simclrhn_probe3,1,436,NaN,elephant,elephant,pow,0436_pow_dnn_pow_elephant_35_n02504013_7467.png,n02504013_7467.png,1.0,1.8697433,1.7455101,0.087846175
alexnet_w1_mlp_simclrhn_probe3,1,437,NaN,elephant,elephant,pow,0437_pow_dnn_pow_elephant_35_n02504013_1830.png,n02504013_1830.png,1.0,13.068058,5.117712,5.6217437
alexnet_w1_mlp_simclrhn_probe3,1,438,NaN,truck,car,0,0438_pow_dnn_0_car_35_n02814533_59762.png,n02814533_59762.png,0.0,5.5459766,5.768164,-0.1571103
alexnet_w1_mlp_simclrhn_probe3,1,439,NaN,elephant,bicycle,pow,0439_pow_dnn_pow_bicycle_35_n02835271_771.png,n02835271_771.png,0.0,0.04000938,3.2280796,-2.254306
alexnet_w1_mlp_simclrhn_probe3,1,440,NaN,oven,bicycle,pow,0440_pow_dnn_pow_bicycle_35_n02835271_4313.png,n02835271_4313.png,0.0,0.65687895,1.7416449,-0.7670453
alexnet_w1_mlp_simclrhn_probe3,1,441,NaN,bear,bear,0,0441_pow_dnn_0_bear_35_n02132136_891.png,n02132136_891.png,1.0,9.162611,7.9180245,0.88005555
alexnet_w1_mlp_simclrhn_probe3,1,442,NaN,bear,bear,pow,0442_pow_dnn_pow_bear_35_n02132136_18276.png,n02132136_18276.png,1.0,2.429413,0.7345069,1.1984798
alexnet_w1_mlp_simclrhn_probe3,1,443,NaN,elephant,elephant,pow,0443_pow_dnn_pow_elephant_35_n02504013_2865.png,n02504013_2865.png,1.0,5.8182993,3.1365614,1.896275
alexnet_w1_mlp_simclrhn_probe3,1,444,NaN,boat,boat,0,0444_pow_dnn_0_boat_35_n03662601_10120.png,n03662601_10120.png,1.0,6.8988366,1.3474284,3.9254384
alexnet_w1_mlp_simclrhn_probe3,1,445,NaN,elephant,bottle,pow,0445_pow_dnn_pow_bottle_35_n03983396_4241.png,n03983396_4241.png,0.0,0.48989758,1.2677664,-0.55003625
alexnet_w1_mlp_simclrhn_probe3,1,446,NaN,bear,elephant,pow,0446_pow_dnn_pow_elephant_35_n02504458_8254.png,n02504458_8254.png,0.0,1.256668,1.3516443,-0.06715839
alexnet_w1_mlp_simclrhn_probe3,1,447,NaN,elephant,boat,pow,0447_pow_dnn_pow_boat_35_n04612504_857.png,n04612504_857.png,0.0,0.51969486,1.8208442,-0.9200516
alexnet_w1_mlp_simclrhn_probe3,1,448,NaN,oven,car,pow,0448_pow_dnn_pow_car_35_n04285008_6037.png,n04285008_6037.png,0.0,-0.72367305,3.2143245,-2.7845848
alexnet_w1_mlp_simclrhn_probe3,1,449,NaN,elephant,elephant,pow,0449_pow_dnn_pow_elephant_35_n02504458_2888.png,n02504458_2888.png,1.0,4.303481,2.5100107,1.2681751
alexnet_w1_mlp_simclrhn_probe3,1,450,NaN,elephant,elephant,0,0450_pow_dnn_0_elephant_35_n02504013_6257.png,n02504013_6257.png,1.0,3.9700074,1.9004806,1.4633764
alexnet_w1_mlp_simclrhn_probe3,1,451,NaN,car,car,0,0451_pow_dnn_0_car_35_n04285008_8616.png,n04285008_8616.png,1.0,21.215609,14.91051,4.458378
alexnet_w1_mlp_simclrhn_probe3,1,452,NaN,elephant,bird,0,0452_pow_dnn_0_bird_35_n01537544_5372.png,n01537544_5372.png,0.0,1.2606592,2.1398516,-0.6216829
alexnet_w1_mlp_simclrhn_probe3,1,453,NaN,bird,airplane,pow,0453_pow_dnn_pow_airplane_35_n02690373_2498.png,n02690373_2498.png,0.0,0.31289726,1.9963068,-1.1903503
alexnet_w1_mlp_simclrhn_probe3,1,454,NaN,cat,dog,0,0454_pow_dnn_0_dog_35_n02099601_2980.png,n02099601_2980.png,0.0,2.4284103,2.80628,-0.26719415
alexnet_w1_mlp_simclrhn_probe3,1,455,NaN,oven,keyboard,pow,0455_pow_dnn_pow_keyboard_35_n04505470_1904.png,n04505470_1904.png,0.0,-0.8805264,1.673785,-1.8061708
alexnet_w1_mlp_simclrhn_probe3,1,456,NaN,airplane,airplane,0,0456_pow_dnn_0_airplane_35_n02690373_2967.png,n02690373_2967.png,1.0,4.4629164,1.6386144,1.9970831
alexnet_w1_mlp_simclrhn_probe3,1,457,NaN,car,car,0,0457_pow_dnn_0_car_35_n04285008_7508.png,n04285008_7508.png,1.0,10.795184,10.227743,0.40124136
alexnet_w1_mlp_simclrhn_probe3,1,458,NaN,bird,bird,0,0458_pow_dnn_0_bird_35_n02051845_6652.png,n02051845_6652.png,1.0,2.397453,1.7766573,0.43896887
alexnet_w1_mlp_simclrhn_probe3,1,459,NaN,oven,truck,pow,0459_pow_dnn_pow_truck_35_n03796401_6737.png,n03796401_6737.png,0.0,-0.26774445,2.1716104,-1.7248844
alexnet_w1_mlp_simclrhn_probe3,1,460,NaN,elephant,bottle,pow,0460_pow_dnn_pow_bottle_35_n03937543_2177.png,n03937543_2177.png,0.0,0.58168274,1.7546548,-0.82941645
alexnet_w1_mlp_simclrhn_probe3,1,461,NaN,oven,keyboard,pow,0461_pow_dnn_pow_keyboard_35_n03085013_6432.png,n03085013_6432.png,0.0,-0.6657286,1.9085766,-1.8203088
alexnet_w1_mlp_simclrhn_probe3,1,462,NaN,bird,bird,0,0462_pow_dnn_0_bird_35_n01530575_10212.png,n01530575_10212.png,1.0,1.7506361,0.6576954,0.7728258
alexnet_w1_mlp_simclrhn_probe3,1,463,NaN,oven,boat,pow,0463_pow_dnn_pow_boat_35_n04273569_31649.png,n04273569_31649.png,0.0,0.91183317,2.8474336,-1.3686762
alexnet_w1_mlp_simclrhn_probe3,1,464,NaN,keyboard,keyboard,0,0464_pow_dnn_0_keyboard_35_n04505470_2869.png,n04505470_2869.png,1.0,15.437047,2.1662207,9.383891
alexnet_w1_mlp_simclrhn_probe3,1,465,NaN,oven,oven,0,0465_pow_dnn_0_oven_35_n04111531_5110.png,n04111531_5110.png,1.0,4.837722,1.7312595,2.1966007
alexnet_w1_mlp_simclrhn_probe3,1,466,NaN,bottle,bottle,pow,0466_pow_dnn_pow_bottle_35_n04579145_4389.png,n04579145_4389.png,1.0,3.0996482,1.18604,1.3531253
alexnet_w1_mlp_simclrhn_probe3,1,467,NaN,bottle,bottle,0,0467_pow_dnn_0_bottle_35_n04557648_9310.png,n04557648_9310.png,1.0,1.5558931,0.66480297,0.63009584
alexnet_w1_mlp_simclrhn_probe3,1,468,NaN,bear,dog,pow,0468_pow_dnn_pow_dog_35_n02108000_6061.png,n02108000_6061.png,0.0,0.87303936,2.3770194,-1.0634745
alexnet_w1_mlp_simclrhn_probe3,1,469,NaN,elephant,knife,pow,0469_pow_dnn_pow_knife_35_n03041632_84240.png,n03041632_84240.png,0.0,0.28024247,2.41371,-1.5085895
alexnet_w1_mlp_simclrhn_probe3,1,470,NaN,oven,cat,pow,0470_pow_dnn_pow_cat_35_n02123394_3718.png,n02123394_3718.png,0.0,0.2917049,1.6525882,-0.96228987
alexnet_w1_mlp_simclrhn_probe3,1,471,NaN,bear,dog,pow,0471_pow_dnn_pow_dog_35_n02098105_2157.png,n02098105_2157.png,0.0,0.35716406,1.6446524,-0.91039175
alexnet_w1_mlp_simclrhn_probe3,1,472,NaN,clock,clock,0,0472_pow_dnn_0_clock_35_n04548280_2601.png,n04548280_2601.png,1.0,6.7596602,2.3934731,3.0873606
alexnet_w1_mlp_simclrhn_probe3,1,473,NaN,dog,cat,0,0473_pow_dnn_0_cat_35_n02123394_4286.png,n02123394_4286.png,0.0,1.2379628,1.8186373,-0.4105988
alexnet_w1_mlp_simclrhn_probe3,1,474,NaN,bottle,bottle,0,0474_pow_dnn_0_bottle_35_n02823428_4569.png,n02823428_4569.png,1.0,9.334732,4.141111,3.6724448
alexnet_w1_mlp_simclrhn_probe3,1,475,NaN,oven,bird,pow,0475_pow_dnn_pow_bird_35_n02017213_15747.png,n02017213_15747.png,0.0,-0.123991296,2.1679008,-1.6206124
alexnet_w1_mlp_simclrhn_probe3,1,476,NaN,bicycle,bicycle,0,0476_pow_dnn_0_bicycle_35_n03792782_11390.png,n03792782_11390.png,1.0,2.2179391,1.3214341,0.6339248
alexnet_w1_mlp_simclrhn_probe3,1,477,NaN,car,car,0,0477_pow_dnn_0_car_35_n02814533_4374.png,n02814533_4374.png,1.0,16.603212,7.778362,6.2401114
alexnet_w1_mlp_simclrhn_probe3,1,478,NaN,keyboard,keyboard,0,0478_pow_dnn_0_keyboard_35_n04505470_5137.png,n04505470_5137.png,1.0,6.5482016,1.9955261,3.2192276
alexnet_w1_mlp_simclrhn_probe3,1,479,NaN,elephant,elephant,0,0479_pow_dnn_0_elephant_35_n02504013_306.png,n02504013_306.png,1.0,11.291006,5.107477,4.372415
alexnet_w1_mlp_simclrhn_probe3,1,480,NaN,bicycle,boat,0,0480_pow_dnn_0_boat_35_n02951358_14624.png,n02951358_14624.png,0.0,3.056414,7.1604013,-2.9019575
alexnet_w1_mlp_simclrhn_probe3,1,481,NaN,bear,cat,pow,0481_pow_dnn_pow_cat_35_n02125311_28114.png,n02125311_28114.png,0.0,0.4088354,1.0444506,-0.44944784
alexnet_w1_mlp_simclrhn_probe3,1,482,NaN,oven,car,pow,0482_pow_dnn_pow_car_35_n03100240_6259.png,n03100240_6259.png,0.0,1.2793826,1.7724857,-0.3486766
alexnet_w1_mlp_simclrhn_probe3,1,483,NaN,bear,cat,pow,0483_pow_dnn_pow_cat_35_n02125311_12361.png,n02125311_12361.png,0.0,0.7993366,3.1556742,-1.6661823
alexnet_w1_mlp_simclrhn_probe3,1,484,NaN,bicycle,bird,0,0484_pow_dnn_0_bird_35_n01833805_16468.png,n01833805_16468.png,0.0,0.42019567,0.82179964,-0.28397688
alexnet_w1_mlp_simclrhn_probe3,1,485,NaN,bear,dog,pow,0485_pow_dnn_pow_dog_35_n02110063_6748.png,n02110063_6748.png,0.0,0.42297626,1.5402462,-0.7900292
alexnet_w1_mlp_simclrhn_probe3,1,486,NaN,oven,clock,pow,0486_pow_dnn_pow_clock_35_n04548280_2943.png,n04548280_2943.png,0.0,0.31246957,3.2831278,-2.1005726
alexnet_w1_mlp_simclrhn_probe3,1,487,NaN,oven,chair,pow,0487_pow_dnn_pow_chair_35_n03376595_14619.png,n03376595_14619.png,0.0,-0.035062596,1.6028903,-1.1582075
alexnet_w1_mlp_simclrhn_probe3,1,488,NaN,car,car,0,0488_pow_dnn_0_car_35_n03100240_5719.png,n03100240_5719.png,1.0,14.376401,8.111162,4.430193
alexnet_w1_mlp_simclrhn_probe3,1,489,NaN,bicycle,dog,0,0489_pow_dnn_0_dog_35_n02093754_4677.png,n02093754_4677.png,0.0,1.2070603,2.6055167,-0.988858
alexnet_w1_mlp_simclrhn_probe3,1,490,NaN,boat,boat,pow,0490_pow_dnn_pow_boat_35_n04273569_113.png,n04273569_113.png,1.0,1.8772447,1.8664222,0.007652688
alexnet_w1_mlp_simclrhn_probe3,1,491,NaN,cat,clock,pow,0491_pow_dnn_pow_clock_35_n02708093_148.png,n02708093_148.png,0.0,1.2422318,1.4576902,-0.1523521
alexnet_w1_mlp_simclrhn_probe3,1,492,NaN,cat,cat,0,0492_pow_dnn_0_cat_35_n02125311_53223.png,n02125311_53223.png,1.0,4.755416,2.7279859,1.4336096
alexnet_w1_mlp_simclrhn_probe3,1,493,NaN,bottle,knife,0,0493_pow_dnn_0_knife_35_n03041632_7982.png,n03041632_7982.png,0.0,0.7681232,2.6543534,-1.3337662
alexnet_w1_mlp_simclrhn_probe3,1,494,NaN,elephant,elephant,0,0494_pow_dnn_0_elephant_35_n02504013_7273.png,n02504013_7273.png,1.0,6.279214,2.2157912,2.8732738
alexnet_w1_mlp_simclrhn_probe3,1,495,NaN,oven,truck,pow,0495_pow_dnn_pow_truck_35_n03417042_26102.png,n03417042_26102.png,0.0,-0.16387692,1.9175,-1.4717559
alexnet_w1_mlp_simclrhn_probe3,1,496,NaN,elephant,car,pow,0496_pow_dnn_pow_car_35_n02814533_874.png,n02814533_874.png,0.0,0.35335505,1.8475848,-1.0565801
alexnet_w1_mlp_simclrhn_probe3,1,497,NaN,bicycle,bicycle,0,0497_pow_dnn_0_bicycle_35_n03792782_21148.png,n03792782_21148.png,1.0,4.3412514,0.49332887,2.7208922
alexnet_w1_mlp_simclrhn_probe3,1,498,NaN,oven,oven,pow,0498_pow_dnn_pow_oven_35_n04111531_4146.png,n04111531_4146.png,1.0,4.4034653,1.0944295,2.3398416
alexnet_w1_mlp_simclrhn_probe3,1,499,NaN,oven,keyboard,pow,0499_pow_dnn_pow_keyboard_35_n03085013_21183.png,n03085013_21183.png,0.0,1.1437583,3.5525444,-1.703269
alexnet_w1_mlp_simclrhn_probe3,1,500,NaN,boat,boat,0,0500_pow_dnn_0_boat_35_n04612504_19147.png,n04612504_19147.png,1.0,8.170562,4.484839,2.6061997
alexnet_w1_mlp_simclrhn_probe3,1,501,NaN,elephant,bear,0,0501_pow_dnn_0_bear_35_n02133161_2044.png,n02133161_2044.png,0.0,1.7928889,2.5884712,-0.56256163
alexnet_w1_mlp_simclrhn_probe3,1,502,NaN,bear,bottle,pow,0502_pow_dnn_pow_bottle_35_n04579145_3894.png,n04579145_3894.png,0.0,0.5446395,1.4306469,-0.62650186
alexnet_w1_mlp_simclrhn_probe3,1,503,NaN,bicycle,bicycle,0,0503_pow_dnn_0_bicycle_35_n03792782_13399.png,n03792782_13399.png,1.0,4.1438303,1.994821,1.519579
alexnet_w1_mlp_simclrhn_probe3,1,504,NaN,elephant,knife,pow,0504_pow_dnn_pow_knife_35_n03041632_21818.png,n03041632_21818.png,0.0,0.20840807,3.523597,-2.3441925
alexnet_w1_mlp_simclrhn_probe3,1,505,NaN,chair,chair,0,0505_pow_dnn_0_chair_35_n03376595_7010.png,n03376595_7010.png,1.0,3.4932094,1.3010674,1.5500785
alexnet_w1_mlp_simclrhn_probe3,1,506,NaN,oven,oven,0,0506_pow_dnn_0_oven_35_n04111531_4.png,n04111531_4.png,1.0,3.6348574,1.8957167,1.2297583
alexnet_w1_mlp_simclrhn_probe3,1,507,NaN,bear,bird,pow,0507_pow_dnn_pow_bird_35_n01820546_6471.png,n01820546_6471.png,0.0,-0.33471236,2.713432,-2.1553636
alexnet_w1_mlp_simclrhn_probe3,1,508,NaN,bear,bear,pow,0508_pow_dnn_pow_bear_35_n02132136_10352.png,n02132136_10352.png,1.0,3.061689,1.9251426,0.80365956
alexnet_w1_mlp_simclrhn_probe3,1,509,NaN,bottle,clock,pow,0509_pow_dnn_pow_clock_35_n04548280_8348.png,n04548280_8348.png,0.0,0.44146767,2.5326989,-1.4787238
alexnet_w1_mlp_simclrhn_probe3,1,510,NaN,elephant,elephant,0,0510_pow_dnn_0_elephant_35_n02504013_5087.png,n02504013_5087.png,1.0,11.301797,4.0801115,5.106503
alexnet_w1_mlp_simclrhn_probe3,1,511,NaN,boat,airplane,pow,0511_pow_dnn_pow_airplane_35_n02690373_60.png,n02690373_60.png,0.0,1.2811277,3.0871136,-1.2770249
alexnet_w1_mlp_simclrhn_probe3,1,512,NaN,oven,chair,pow,0512_pow_dnn_pow_chair_35_n02791124_16085.png,n02791124_16085.png,0.0,0.5615162,3.148366,-1.8291789
alexnet_w1_mlp_simclrhn_probe3,1,513,NaN,bottle,bottle,0,0513_pow_dnn_0_bottle_35_n02823428_3611.png,n02823428_3611.png,1.0,3.8800817,1.3010361,1.8236606
alexnet_w1_mlp_simclrhn_probe3,1,514,NaN,oven,bird,pow,0514_pow_dnn_pow_bird_35_n01614925_8653.png,n01614925_8653.png,0.0,0.33871597,1.0299089,-0.4887472
alexnet_w1_mlp_simclrhn_probe3,1,515,NaN,bear,bird,pow,0515_pow_dnn_pow_bird_35_n01537544_9881.png,n01537544_9881.png,0.0,1.3615193,1.4529669,-0.06466322
alexnet_w1_mlp_simclrhn_probe3,1,516,NaN,knife,knife,0,0516_pow_dnn_0_knife_35_n03041632_35365.png,n03041632_35365.png,1.0,2.0120587,1.0942652,0.64897805
alexnet_w1_mlp_simclrhn_probe3,1,517,NaN,bear,bear,0,0517_pow_dnn_0_bear_35_n02132136_23202.png,n02132136_23202.png,1.0,3.5074978,1.2891891,1.5685811
alexnet_w1_mlp_simclrhn_probe3,1,518,NaN,oven,oven,0,0518_pow_dnn_0_oven_35_n04111531_3976.png,n04111531_3976.png,1.0,6.019602,1.5820953,3.1377912
alexnet_w1_mlp_simclrhn_probe3,1,519,NaN,oven,chair,pow,0519_pow_dnn_pow_chair_35_n04429376_32124.png,n04429376_32124.png,0.0,0.58400524,2.9768314,-1.6919836
alexnet_w1_mlp_simclrhn_probe3,1,520,NaN,bear,bear,pow,0520_pow_dnn_pow_bear_35_n02134418_848.png,n02134418_848.png,1.0,2.213153,1.3161626,0.6342679
alexnet_w1_mlp_simclrhn_probe3,1,521,NaN,airplane,boat,0,0521_pow_dnn_0_boat_35_n03344393_7374.png,n03344393_7374.png,0.0,6.981772,8.222552,-0.8773642
alexnet_w1_mlp_simclrhn_probe3,1,522,NaN,oven,bird,pow,0522_pow_dnn_pow_bird_35_n01532829_3914.png,n01532829_3914.png,0.0,-0.28511843,1.7473233,-1.4371532
alexnet_w1_mlp_simclrhn_probe3,1,523,NaN,keyboard,keyboard,0,0523_pow_dnn_0_keyboard_35_n04505470_5902.png,n04505470_5902.png,1.0,9.564604,1.8638946,5.445224
alexnet_w1_mlp_simclrhn_probe3,1,524,NaN,oven,truck,pow,0524_pow_dnn_pow_truck_35_n03417042_11165.png,n03417042_11165.png,0.0,-0.15682778,1.9932992,-1.5203694
alexnet_w1_mlp_simclrhn_probe3,1,525,NaN,keyboard,clock,0,0525_pow_dnn_0_clock_35_n02708093_5.png,n02708093_5.png,0.0,0.9699971,1.2109011,-0.17034487
alexnet_w1_mlp_simclrhn_probe3,1,526,NaN,elephant,elephant,pow,0526_pow_dnn_pow_elephant_35_n02504458_4187.png,n02504458_4187.png,1.0,3.0788927,1.8797815,0.8478997
alexnet_w1_mlp_simclrhn_probe3,1,527,NaN,knife,knife,0,0527_pow_dnn_0_knife_35_n03041632_10802.png,n03041632_10802.png,1.0,3.0651622,1.2206497,1.3042673
alexnet_w1_mlp_simclrhn_probe3,1,528,NaN,car,car,0,0528_pow_dnn_0_car_35_n04285008_16647.png,n04285008_16647.png,1.0,10.543441,6.752905,2.6803136
alexnet_w1_mlp_simclrhn_probe3,1,529,NaN,bear,dog,0,0529_pow_dnn_0_dog_35_n02104365_3004.png,n02104365_3004.png,0.0,0.96311057,3.6203365,-1.8789426
alexnet_w1_mlp_simclrhn_probe3,1,530,NaN,bear,elephant,pow,0530_pow_dnn_pow_elephant_35_n02504013_21616.png,n02504013_21616.png,0.0,2.6540017,2.731262,-0.05463125
alexnet_w1_mlp_simclrhn_probe3,1,531,NaN,knife,keyboard,0,0531_pow_dnn_0_keyboard_35_n03085013_23465.png,n03085013_23465.png,0.0,2.5066028,2.6845841,-0.12585184
alexnet_w1_mlp_simclrhn_probe3,1,532,NaN,boat,airplane,pow,0532_pow_dnn_pow_airplane_35_n02690373_911.png,n02690373_911.png,0.0,-0.14063552,2.887777,-2.141411
alexnet_w1_mlp_simclrhn_probe3,1,533,NaN,elephant,elephant,0,0533_pow_dnn_0_elephant_35_n02504013_1454.png,n02504013_1454.png,1.0,12.2062845,3.343285,6.267087
alexnet_w1_mlp_simclrhn_probe3,1,534,NaN,bicycle,bicycle,0,0534_pow_dnn_0_bicycle_35_n03792782_70690.png,n03792782_70690.png,1.0,4.4385514,1.1056854,2.3566923
alexnet_w1_mlp_simclrhn_probe3,1,535,NaN,oven,chair,0,0535_pow_dnn_0_chair_35_n04429376_31206.png,n04429376_31206.png,0.0,1.2226592,2.8335357,-1.1390617
alexnet_w1_mlp_simclrhn_probe3,1,536,NaN,airplane,clock,0,0536_pow_dnn_0_clock_35_n02708093_2498.png,n02708093_2498.png,0.0,0.4822286,1.7769334,-0.91549456
alexnet_w1_mlp_simclrhn_probe3,1,537,NaN,keyboard,keyboard,0,0537_pow_dnn_0_keyboard_35_n04505470_1728.png,n04505470_1728.png,1.0,7.9448843,2.2991009,3.9921718
alexnet_w1_mlp_simclrhn_probe3,1,538,NaN,oven,truck,pow,0538_pow_dnn_pow_truck_35_n03417042_6608.png,n03417042_6608.png,0.0,0.081426345,1.7142476,-1.1545789
alexnet_w1_mlp_simclrhn_probe3,1,539,NaN,bird,bird,0,0539_pow_dnn_0_bird_35_n02013706_1016.png,n02013706_1016.png,1.0,1.4248459,0.35489497,0.75656956
alexnet_w1_mlp_simclrhn_probe3,1,540,NaN,oven,clock,0,0540_pow_dnn_0_clock_35_n04548280_5011.png,n04548280_5011.png,0.0,3.0019922,3.9391158,-0.6626464
alexnet_w1_mlp_simclrhn_probe3,1,541,NaN,bicycle,bicycle,0,0541_pow_dnn_0_bicycle_35_n02835271_19557.png,n02835271_19557.png,1.0,9.647553,1.6842394,5.6309133
alexnet_w1_mlp_simclrhn_probe3,1,542,NaN,bear,bear,pow,0542_pow_dnn_pow_bear_35_n02134084_5827.png,n02134084_5827.png,1.0,2.6223598,2.0434983,0.40931687
alexnet_w1_mlp_simclrhn_probe3,1,543,NaN,elephant,dog,pow,0543_pow_dnn_pow_dog_35_n02096585_1894.png,n02096585_1894.png,0.0,0.68930423,2.6384108,-1.3782265
alexnet_w1_mlp_simclrhn_probe3,1,544,NaN,bicycle,boat,pow,0544_pow_dnn_pow_boat_35_n02951358_34234.png,n02951358_34234.png,0.0,1.9499819,2.788148,-0.5926729
alexnet_w1_mlp_simclrhn_probe3,1,545,NaN,cat,cat,pow,0545_pow_dnn_pow_cat_35_n02123597_5514.png,n02123597_5514.png,1.0,3.548236,2.2250516,0.9356326
alexnet_w1_mlp_simclrhn_probe3,1,546,NaN,oven,oven,pow,0546_pow_dnn_pow_oven_35_n04111531_3580.png,n04111531_3580.png,1.0,1.246722,1.1540021,0.06556288
alexnet_w1_mlp_simclrhn_probe3,1,547,NaN,airplane,airplane,0,0547_pow_dnn_0_airplane_35_n02690373_7107.png,n02690373_7107.png,1.0,6.067212,2.5953546,2.4549742
alexnet_w1_mlp_simclrhn_probe3,1,548,NaN,oven,cat,0,0548_pow_dnn_0_cat_35_n02123159_5224.png,n02123159_5224.png,0.0,0.0027715564,1.1603385,-0.8185235
alexnet_w1_mlp_simclrhn_probe3,1,549,NaN,bear,bear,pow,0549_pow_dnn_pow_bear_35_n02133161_6679.png,n02133161_6679.png,1.0,2.8229866,1.8772385,0.6687449
alexnet_w1_mlp_simclrhn_probe3,1,550,NaN,dog,dog,0,0550_pow_dnn_0_dog_35_n02106030_22.png,n02106030_22.png,1.0,2.1696498,1.5816196,0.41580015
alexnet_w1_mlp_simclrhn_probe3,1,551,NaN,truck,truck,0,0551_pow_dnn_0_truck_35_n03417042_4574.png,n03417042_4574.png,1.0,9.910553,8.183394,1.2212856
alexnet_w1_mlp_simclrhn_probe3,1,552,NaN,bear,dog,pow,0552_pow_dnn_pow_dog_35_n02097298_7577.png,n02097298_7577.png,0.0,0.059168234,1.974358,-1.3542436
alexnet_w1_mlp_simclrhn_probe3,1,553,NaN,elephant,dog,pow,0553_pow_dnn_pow_dog_35_n02093428_16873.png,n02093428_16873.png,0.0,1.3445778,2.7382748,-0.98549265
alexnet_w1_mlp_simclrhn_probe3,1,554,NaN,bear,bear,0,0554_pow_dnn_0_bear_35_n02132136_4157.png,n02132136_4157.png,1.0,7.2623844,3.5351634,2.6355433
alexnet_w1_mlp_simclrhn_probe3,1,555,NaN,bottle,bottle,0,0555_pow_dnn_0_bottle_35_n02823428_2007.png,n02823428_2007.png,1.0,7.548265,6.808655,0.5229834
alexnet_w1_mlp_simclrhn_probe3,1,556,NaN,oven,keyboard,0,0556_pow_dnn_0_keyboard_35_n03085013_24272.png,n03085013_24272.png,0.0,3.7622588,5.650736,-1.3353549
alexnet_w1_mlp_simclrhn_probe3,1,557,NaN,oven,oven,0,0557_pow_dnn_0_oven_35_n04111531_2074.png,n04111531_2074.png,1.0,2.5306606,0.6864618,1.3040456
alexnet_w1_mlp_simclrhn_probe3,1,558,NaN,oven,bird,pow,0558_pow_dnn_pow_bird_35_n01532829_4536.png,n01532829_4536.png,0.0,-0.31536976,1.5700988,-1.3332275
alexnet_w1_mlp_simclrhn_probe3,1,559,NaN,cat,dog,0,0559_pow_dnn_0_dog_35_n02109047_17100.png,n02109047_17100.png,0.0,2.651717,3.6835327,-0.72960395
alexnet_w1_mlp_simclrhn_probe3,1,560,NaN,oven,oven,pow,0560_pow_dnn_pow_oven_35_n04111531_4407.png,n04111531_4407.png,1.0,3.352405,1.1710386,1.542459
alexnet_w1_mlp_simclrhn_probe3,1,561,NaN,airplane,airplane,0,0561_pow_dnn_0_airplane_35_n02690373_8069.png,n02690373_8069.png,1.0,7.265232,3.5648453,2.6165686
alexnet_w1_mlp_simclrhn_probe3,1,562,NaN,clock,bottle,0,0562_pow_dnn_0_bottle_35_n04560804_8921.png,n04560804_8921.png,0.0,1.2823397,2.0685055,-0.5559032
alexnet_w1_mlp_simclrhn_probe3,1,563,NaN,bottle,bottle,pow,0563_pow_dnn_pow_bottle_35_n03937543_2936.png,n03937543_2936.png,1.0,9.207133,1.1146189,5.7222714
alexnet_w1_mlp_simclrhn_probe3,1,564,NaN,elephant,cat,0,0564_pow_dnn_0_cat_35_n02123045_8031.png,n02123045_8031.png,0.0,2.6019592,4.4899187,-1.334989
alexnet_w1_mlp_simclrhn_probe3,1,565,NaN,oven,oven,0,0565_pow_dnn_0_oven_35_n04111531_3805.png,n04111531_3805.png,1.0,5.1488156,0.30721223,3.4235306
alexnet_w1_mlp_simclrhn_probe3,1,566,NaN,truck,truck,0,0566_pow_dnn_0_truck_35_n03417042_27231.png,n03417042_27231.png,1.0,8.738016,5.5598273,2.247319
alexnet_w1_mlp_simclrhn_probe3,1,567,NaN,bear,elephant,0,0567_pow_dnn_0_elephant_35_n02504013_7232.png,n02504013_7232.png,0.0,5.1701307,5.4944167,-0.22930482
alexnet_w1_mlp_simclrhn_probe3,1,568,NaN,oven,knife,0,0568_pow_dnn_0_knife_35_n03041632_5102.png,n03041632_5102.png,0.0,-0.3201313,1.789819,-1.4919602
alexnet_w1_mlp_simclrhn_probe3,1,569,NaN,cat,dog,pow,0569_pow_dnn_pow_dog_35_n02110958_8916.png,n02110958_8916.png,0.0,1.7333901,2.9352777,-0.8498629
alexnet_w1_mlp_simclrhn_probe3,1,570,NaN,bear,bottle,pow,0570_pow_dnn_pow_bottle_35_n04557648_9790.png,n04557648_9790.png,0.0,0.37380525,1.1354803,-0.53858554
alexnet_w1_mlp_simclrhn_probe3,1,571,NaN,cat,cat,pow,0571_pow_dnn_pow_cat_35_n02123394_3786.png,n02123394_3786.png,1.0,4.439947,1.5569637,2.038577
alexnet_w1_mlp_simclrhn_probe3,1,572,NaN,airplane,truck,0,0572_pow_dnn_0_truck_35_n04467665_19132.png,n04467665_19132.png,0.0,1.7812588,4.5504756,-1.958132
alexnet_w1_mlp_simclrhn_probe3,1,573,NaN,oven,truck,pow,0573_pow_dnn_pow_truck_35_n03796401_2934.png,n03796401_2934.png,0.0,-0.3808583,1.9448957,-1.6445565
alexnet_w1_mlp_simclrhn_probe3,1,574,NaN,bicycle,bicycle,0,0574_pow_dnn_0_bicycle_35_n02835271_12799.png,n02835271_12799.png,1.0,11.955881,2.9735713,6.351452
alexnet_w1_mlp_simclrhn_probe3,1,575,NaN,car,car,0,0575_pow_dnn_0_car_35_n02814533_1297.png,n02814533_1297.png,1.0,5.4667697,3.1928458,1.607907
alexnet_w1_mlp_simclrhn_probe3,1,576,NaN,bear,bear,pow,0576_pow_dnn_pow_bear_35_n02134418_1974.png,n02134418_1974.png,1.0,1.9762138,0.7903377,0.8385411
alexnet_w1_mlp_simclrhn_probe3,1,577,NaN,cat,cat,0,0577_pow_dnn_0_cat_35_n02124075_2843.png,n02124075_2843.png,1.0,4.587136,1.4558598,2.2141466
alexnet_w1_mlp_simclrhn_probe3,1,578,NaN,cat,cat,0,0578_pow_dnn_0_cat_35_n02123597_5697.png,n02123597_5697.png,1.0,1.2354031,1.1644113,0.050198752
alexnet_w1_mlp_simclrhn_probe3,1,579,NaN,oven,bicycle,pow,0579_pow_dnn_pow_bicycle_35_n02835271_2315.png,n02835271_2315.png,0.0,0.89516366,2.0608091,-0.82423586
alexnet_w1_mlp_simclrhn_probe3,1,580,NaN,keyboard,keyboard,0,0580_pow_dnn_0_keyboard_35_n04505470_4515.png,n04505470_4515.png,1.0,11.558332,2.167155,6.6405654
alexnet_w1_mlp_simclrhn_probe3,1,581,NaN,elephant,knife,pow,0581_pow_dnn_pow_knife_35_n03041632_4269.png,n03041632_4269.png,0.0,0.2885195,2.4372373,-1.519373
alexnet_w1_mlp_simclrhn_probe3,1,582,NaN,cat,cat,0,0582_pow_dnn_0_cat_35_n02123045_12010.png,n02123045_12010.png,1.0,8.395106,0.997121,5.231166
alexnet_w1_mlp_simclrhn_probe3,1,583,NaN,keyboard,clock,0,0583_pow_dnn_0_clock_35_n03196217_6467.png,n03196217_6467.png,0.0,1.9204439,2.384255,-0.32796395
alexnet_w1_mlp_simclrhn_probe3,1,584,NaN,oven,bottle,pow,0584_pow_dnn_pow_bottle_35_n03983396_2864.png,n03983396_2864.png,0.0,1.7928314,3.075284,-0.9068309
alexnet_w1_mlp_simclrhn_probe3,1,585,NaN,airplane,bottle,0,0585_pow_dnn_0_bottle_35_n04557648_10171.png,n04557648_10171.png,0.0,0.006293386,2.0166292,-1.4215221
alexnet_w1_mlp_simclrhn_probe3,1,586,NaN,bear,bird,pow,0586_pow_dnn_pow_bird_35_n01860187_2052.png,n01860187_2052.png,0.0,-0.08911219,1.3253627,-1.0001848
alexnet_w1_mlp_simclrhn_probe3,1,587,NaN,car,car,0,0587_pow_dnn_0_car_35_n04285008_5897.png,n04285008_5897.png,1.0,17.29088,8.063212,6.5249467
alexnet_w1_mlp_simclrhn_probe3,1,588,NaN,elephant,elephant,0,0588_pow_dnn_0_elephant_35_n02504458_4721.png,n02504458_4721.png,1.0,14.81763,3.915057,7.7092834
alexnet_w1_mlp_simclrhn_probe3,1,589,NaN,car,car,0,0589_pow_dnn_0_car_35_n02814533_93476.png,n02814533_93476.png,1.0,10.478016,6.715084,2.6607947
alexnet_w1_mlp_simclrhn_probe3,1,590,NaN,elephant,bird,pow,0590_pow_dnn_pow_bird_35_n01824575_10337.png,n01824575_10337.png,0.0,0.040003613,2.9029589,-2.0244153
alexnet_w1_mlp_simclrhn_probe3,1,591,NaN,oven,dog,pow,0591_pow_dnn_pow_dog_35_n02100735_10683.png,n02100735_10683.png,0.0,-0.046465226,3.2764425,-2.3496506
alexnet_w1_mlp_simclrhn_probe3,1,592,NaN,elephant,airplane,pow,0592_pow_dnn_pow_airplane_35_n02690373_4402.png,n02690373_4402.png,0.0,0.7771933,1.2792816,-0.35503006
alexnet_w1_mlp_simclrhn_probe3,1,593,NaN,airplane,airplane,0,0593_pow_dnn_0_airplane_35_n02690373_4350.png,n02690373_4350.png,1.0,8.979876,1.7618906,5.103886
alexnet_w1_mlp_simclrhn_probe3,1,594,NaN,oven,bottle,pow,0594_pow_dnn_pow_bottle_35_n02823428_6327.png,n02823428_6327.png,0.0,1.190794,1.4001,-0.1480017
alexnet_w1_mlp_simclrhn_probe3,1,595,NaN,elephant,dog,pow,0595_pow_dnn_pow_dog_35_n02104029_3041.png,n02104029_3041.png,0.0,0.93753093,2.892027,-1.3820373
alexnet_w1_mlp_simclrhn_probe3,1,596,NaN,elephant,elephant,pow,0596_pow_dnn_pow_elephant_35_n02504013_24810.png,n02504013_24810.png,1.0,3.1569002,1.994323,0.8220662
alexnet_w1_mlp_simclrhn_probe3,1,597,NaN,oven,clock,pow,0597_pow_dnn_pow_clock_35_n04548280_4473.png,n04548280_4473.png,0.0,0.4102615,3.5462608,-2.2174864
alexnet_w1_mlp_simclrhn_probe3,1,598,NaN,dog,dog,pow,0598_pow_dnn_pow_dog_35_n02107908_5597.png,n02107908_5597.png,1.0,1.0217948,0.8756503,0.10333978
alexnet_w1_mlp_simclrhn_probe3,1,599,NaN,truck,truck,0,0599_pow_dnn_0_truck_35_n04467665_57697.png,n04467665_57697.png,1.0,5.3050156,1.9437051,2.3768055
alexnet_w1_mlp_simclrhn_probe3,1,600,NaN,elephant,bottle,pow,0600_pow_dnn_pow_bottle_35_n03983396_6889.png,n03983396_6889.png,0.0,1.3273935,1.5218289,-0.13748656
alexnet_w1_mlp_simclrhn_probe3,1,601,NaN,bear,bear,pow,0601_pow_dnn_pow_bear_35_n02134418_1826.png,n02134418_1826.png,1.0,3.8764071,2.368274,1.0664113
alexnet_w1_mlp_simclrhn_probe3,1,602,NaN,cat,cat,pow,0602_pow_dnn_pow_cat_35_n02123159_4687.png,n02123159_4687.png,1.0,2.0471773,1.4891205,0.3946058
alexnet_w1_mlp_simclrhn_probe3,1,603,NaN,bear,boat,pow,0603_pow_dnn_pow_boat_35_n03344393_5798.png,n03344393_5798.png,0.0,1.2338612,1.8915472,-0.46505424
alexnet_w1_mlp_simclrhn_probe3,1,604,NaN,oven,car,pow,0604_pow_dnn_pow_car_35_n04285008_11745.png,n04285008_11745.png,0.0,-0.6163731,2.644986,-2.306129
alexnet_w1_mlp_simclrhn_probe3,1,605,NaN,clock,clock,0,0605_pow_dnn_0_clock_35_n02708093_353.png,n02708093_353.png,1.0,4.458736,2.4422398,1.4258782
alexnet_w1_mlp_simclrhn_probe3,1,606,NaN,airplane,airplane,0,0606_pow_dnn_0_airplane_35_n02690373_4763.png,n02690373_4763.png,1.0,7.3794217,1.3817793,4.240974
alexnet_w1_mlp_simclrhn_probe3,1,607,NaN,elephant,elephant,0,0607_pow_dnn_0_elephant_35_n02504013_18498.png,n02504013_18498.png,1.0,10.267751,6.7885327,2.4601786
alexnet_w1_mlp_simclrhn_probe3,1,608,NaN,bear,cat,pow,0608_pow_dnn_pow_cat_35_n02123394_159.png,n02123394_159.png,0.0,1.036359,1.7678258,-0.5172252
alexnet_w1_mlp_simclrhn_probe3,1,609,NaN,boat,boat,0,0609_pow_dnn_0_boat_35_n03662601_18676.png,n03662601_18676.png,1.0,8.889512,4.748176,2.928367
alexnet_w1_mlp_simclrhn_probe3,1,610,NaN,oven,truck,pow,0610_pow_dnn_pow_truck_35_n03796401_1789.png,n03796401_1789.png,0.0,-0.061817978,1.6152782,-1.1858861
alexnet_w1_mlp_simclrhn_probe3,1,611,NaN,chair,chair,0,0611_pow_dnn_0_chair_35_n04099969_4816.png,n04099969_4816.png,1.0,3.6417594,1.5673667,1.4668173
alexnet_w1_mlp_simclrhn_probe3,1,612,NaN,elephant,elephant,0,0612_pow_dnn_0_elephant_35_n02504458_7013.png,n02504458_7013.png,1.0,17.88507,3.1608212,10.411617
alexnet_w1_mlp_simclrhn_probe3,1,613,NaN,bear,knife,pow,0613_pow_dnn_pow_knife_35_n03041632_92637.png,n03041632_92637.png,0.0,0.07821783,0.28113604,-0.14348485
alexnet_w1_mlp_simclrhn_probe3,1,614,NaN,keyboard,keyboard,0,0614_pow_dnn_0_keyboard_35_n03085013_19607.png,n03085013_19607.png,1.0,7.775229,4.8757925,2.0502112
alexnet_w1_mlp_simclrhn_probe3,1,615,NaN,bear,cat,pow,0615_pow_dnn_pow_cat_35_n02123597_1027.png,n02123597_1027.png,0.0,2.2310128,3.1740818,-0.6668505
alexnet_w1_mlp_simclrhn_probe3,1,616,NaN,bicycle,bicycle,0,0616_pow_dnn_0_bicycle_35_n02835271_9135.png,n02835271_9135.png,1.0,4.1225367,1.390115,1.9321139
alexnet_w1_mlp_simclrhn_probe3,1,617,NaN,dog,dog,pow,0617_pow_dnn_pow_dog_35_n02111500_3896.png,n02111500_3896.png,1.0,1.1376814,0.69031674,0.31633458
alexnet_w1_mlp_simclrhn_probe3,1,618,NaN,keyboard,oven,0,0618_pow_dnn_0_oven_35_n04111531_8398.png,n04111531_8398.png,0.0,-0.16088526,3.6405373,-2.6880116
alexnet_w1_mlp_simclrhn_probe3,1,619,NaN,oven,oven,0,0619_pow_dnn_0_oven_35_n04111531_6049.png,n04111531_6049.png,1.0,8.521555,2.3641217,4.353963
alexnet_w1_mlp_simclrhn_probe3,1,620,NaN,oven,chair,pow,0620_pow_dnn_pow_chair_35_n03376595_6947.png,n03376595_6947.png,0.0,0.6230191,1.6863464,-0.75188595
alexnet_w1_mlp_simclrhn_probe3,1,621,NaN,bear,dog,pow,0621_pow_dnn_pow_dog_35_n02097658_6717.png,n02097658_6717.png,0.0,0.8047464,1.1632578,-0.2535059
alexnet_w1_mlp_simclrhn_probe3,1,622,NaN,knife,knife,0,0622_pow_dnn_0_knife_35_n03041632_21560.png,n03041632_21560.png,1.0,1.2778544,0.56250775,0.50582653
alexnet_w1_mlp_simclrhn_probe3,1,623,NaN,bear,boat,pow,0623_pow_dnn_pow_boat_35_n03662601_7642.png,n03662601_7642.png,0.0,1.2603313,1.8430616,-0.41205254
alexnet_w1_mlp_simclrhn_probe3,1,624,NaN,truck,car,0,0624_pow_dnn_0_car_35_n04285008_1313.png,n04285008_1313.png,0.0,5.952519,6.060464,-0.07632862
alexnet_w1_mlp_simclrhn_probe3,1,625,NaN,elephant,chair,pow,0625_pow_dnn_pow_chair_35_n03376595_6409.png,n03376595_6409.png,0.0,1.0146391,2.7409248,-1.2206683
alexnet_w1_mlp_simclrhn_probe3,1,626,NaN,bear,bear,pow,0626_pow_dnn_pow_bear_35_n02133161_6028.png,n02133161_6028.png,1.0,1.4467834,0.41290638,0.73106146
alexnet_w1_mlp_simclrhn_probe3,1,627,NaN,bear,bear,pow,0627_pow_dnn_pow_bear_35_n02132136_29029.png,n02132136_29029.png,1.0,1.850857,1.7762828,0.052731946
alexnet_w1_mlp_simclrhn_probe3,1,628,NaN,truck,truck,0,0628_pow_dnn_0_truck_35_n04467665_7290.png,n04467665_7290.png,1.0,3.0126274,1.2956257,1.2141036
alexnet_w1_mlp_simclrhn_probe3,1,629,NaN,bear,bird,pow,0629_pow_dnn_pow_bird_35_n01537544_9745.png,n01537544_9745.png,0.0,1.502535,3.174837,-1.1824962
alexnet_w1_mlp_simclrhn_probe3,1,630,NaN,bicycle,bicycle,0,0630_pow_dnn_0_bicycle_35_n03792782_15845.png,n03792782_15845.png,1.0,4.2933407,0.70566124,2.5368724
alexnet_w1_mlp_simclrhn_probe3,1,631,NaN,bear,bear,pow,0631_pow_dnn_pow_bear_35_n02133161_8982.png,n02133161_8982.png,1.0,1.0972905,0.79325795,0.2149835
alexnet_w1_mlp_simclrhn_probe3,1,632,NaN,knife,knife,0,0632_pow_dnn_0_knife_35_n03041632_6575.png,n03041632_6575.png,1.0,2.5891128,1.0683408,1.0753481
alexnet_w1_mlp_simclrhn_probe3,1,633,NaN,knife,knife,0,0633_pow_dnn_0_knife_35_n03041632_32785.png,n03041632_32785.png,1.0,2.4922214,1.1348789,0.9597861
alexnet_w1_mlp_simclrhn_probe3,1,634,NaN,oven,chair,pow,0634_pow_dnn_pow_chair_35_n04429376_12691.png,n04429376_12691.png,0.0,0.20613134,1.8465602,-1.1599584
alexnet_w1_mlp_simclrhn_probe3,1,635,NaN,bear,dog,pow,0635_pow_dnn_pow_dog_35_n02097298_6578.png,n02097298_6578.png,0.0,0.7833114,3.2343535,-1.7331486
alexnet_w1_mlp_simclrhn_probe3,1,636,NaN,elephant,knife,pow,0636_pow_dnn_pow_knife_35_n03041632_94995.png,n03041632_94995.png,0.0,0.22317773,1.1556146,-0.65933245
alexnet_w1_mlp_simclrhn_probe3,1,637,NaN,clock,clock,0,0637_pow_dnn_0_clock_35_n02708093_41.png,n02708093_41.png,1.0,5.41046,1.3928863,2.8408537
alexnet_w1_mlp_simclrhn_probe3,1,638,NaN,keyboard,keyboard,0,0638_pow_dnn_0_keyboard_35_n03085013_7892.png,n03085013_7892.png,1.0,4.2190475,1.0943818,2.2094724
alexnet_w1_mlp_simclrhn_probe3,1,639,NaN,oven,knife,pow,0639_pow_dnn_pow_knife_35_n03041632_84048.png,n03041632_84048.png,0.0,0.18036327,1.8888555,-1.2080864
alexnet_w1_mlp_simclrhn_probe3,1,640,NaN,airplane,airplane,0,0640_pow_dnn_0_airplane_35_n02690373_3415.png,n02690373_3415.png,1.0,6.419776,2.4316876,2.8200045
alexnet_w1_mlp_simclrhn_probe3,1,641,NaN,oven,knife,0,0641_pow_dnn_0_knife_35_n03041632_31483.png,n03041632_31483.png,0.0,1.7290468,1.8103632,-0.057499345
alexnet_w1_mlp_simclrhn_probe3,1,642,NaN,clock,dog,0,0642_pow_dnn_0_dog_35_n02110958_368.png,n02110958_368.png,0.0,0.98586845,1.2001191,-0.15149811
