subj,session,trial,rt,object_response,category,condition,imagename,filename,is_correct,targ_act,max_nontarg_act,decision_margin
alexnet_w1_mlp_simclrhn_probe1,1,1,NaN,clock,clock,0,0001_pow_dnn_0_clock_35_n03196217_10246.png,n03196217_10246.png,1.0,2.831333,1.8241905,0.71215725
alexnet_w1_mlp_simclrhn_probe1,1,2,NaN,cat,dog,pow,0002_pow_dnn_pow_dog_35_n02091467_7264.png,n02091467_7264.png,0.0,-0.50857943,0.91250104,-1.0048556
alexnet_w1_mlp_simclrhn_probe1,1,3,NaN,oven,chair,pow,0003_pow_dnn_pow_chair_35_n02791124_713.png,n02791124_713.png,0.0,-3.487067,0.49647716,-2.816791
alexnet_w1_mlp_simclrhn_probe1,1,4,NaN,car,car,0,0004_pow_dnn_0_car_35_n02814533_35174.png,n02814533_35174.png,1.0,6.6858935,6.073114,0.43330064
alexnet_w1_mlp_simclrhn_probe1,1,5,NaN,oven,knife,pow,0005_pow_dnn_pow_knife_35_n03041632_46103.png,n03041632_46103.png,0.0,-1.9675527,-0.5893462,-0.97453916
alexnet_w1_mlp_simclrhn_probe1,1,6,NaN,bicycle,bicycle,0,0006_pow_dnn_0_bicycle_35_n03792782_11306.png,n03792782_11306.png,1.0,11.729773,-2.4242713,10.008421
alexnet_w1_mlp_simclrhn_probe1,1,7,NaN,bird,bird,0,0007_pow_dnn_0_bird_35_n02002556_3463.png,n02002556_3463.png,1.0,2.5398765,-2.5392885,3.591512
alexnet_w1_mlp_simclrhn_probe1,1,8,NaN,oven,keyboard,pow,0008_pow_dnn_pow_keyboard_35_n03085013_22813.png,n03085013_22813.png,0.0,-6.615963,0.3553886,-4.92949
alexnet_w1_mlp_simclrhn_probe1,1,9,NaN,bird,bird,0,0009_pow_dnn_0_bird_35_n02025239_2961.png,n02025239_2961.png,1.0,1.6376194,-4.667875,4.4586577
alexnet_w1_mlp_simclrhn_probe1,1,10,NaN,oven,boat,pow,0010_pow_dnn_pow_boat_35_n02951358_14504.png,n02951358_14504.png,0.0,-3.052221,0.9020675,-2.7961042
alexnet_w1_mlp_simclrhn_probe1,1,11,NaN,oven,oven,0,0011_pow_dnn_0_oven_35_n04111531_19000.png,n04111531_19000.png,1.0,1.8048376,-0.9416442,1.9420561
alexnet_w1_mlp_simclrhn_probe1,1,12,NaN,bird,bird,0,0012_pow_dnn_0_bird_35_n01614925_11281.png,n01614925_11281.png,1.0,-0.67551345,-0.68365175,0.0057546464
alexnet_w1_mlp_simclrhn_probe1,1,13,NaN,knife,knife,0,0013_pow_dnn_0_knife_35_n03041632_52040.png,n03041632_52040.png,1.0,0.029771276,-1.0064199,0.73269784
alexnet_w1_mlp_simclrhn_probe1,1,14,NaN,oven,car,pow,0014_pow_dnn_pow_car_35_n03100240_14206.png,n03100240_14206.png,0.0,-2.5467794,0.3175782,-2.0254066
alexnet_w1_mlp_simclrhn_probe1,1,15,NaN,cat,bird,0,0015_pow_dnn_0_bird_35_n01817953_689.png,n01817953_689.png,0.0,-3.6496196,-0.707051,-2.0807102
alexnet_w1_mlp_simclrhn_probe1,1,16,NaN,oven,chair,pow,0016_pow_dnn_pow_chair_35_n04099969_7934.png,n04099969_7934.png,0.0,-2.0901291,2.2862566,-3.094572
alexnet_w1_mlp_simclrhn_probe1,1,17,NaN,knife,knife,0,0017_pow_dnn_0_knife_35_n03041632_30196.png,n03041632_30196.png,1.0,-0.29032403,-0.31121796,0.014774241
alexnet_w1_mlp_simclrhn_probe1,1,18,NaN,car,car,0,0018_pow_dnn_0_car_35_n02814533_18077.png,n02814533_18077.png,1.0,4.599188,-1.1048208,4.0333433
alexnet_w1_mlp_simclrhn_probe1,1,19,NaN,cat,cat,0,0019_pow_dnn_0_cat_35_n02123159_6927.png,n02123159_6927.png,1.0,1.695062,-1.7968155,2.4691303
alexnet_w1_mlp_simclrhn_probe1,1,20,NaN,bear,bird,pow,0020_pow_dnn_pow_bird_35_n01855672_8550.png,n01855672_8550.png,0.0,-1.6930532,-0.06270614,-1.1528295
alexnet_w1_mlp_simclrhn_probe1,1,21,NaN,truck,truck,0,0021_pow_dnn_0_truck_35_n03417042_17888.png,n03417042_17888.png,1.0,6.4336166,2.1276405,3.0447848
alexnet_w1_mlp_simclrhn_probe1,1,22,NaN,elephant,truck,pow,0022_pow_dnn_pow_truck_35_n04467665_45611.png,n04467665_45611.png,0.0,-6.510067,0.97449476,-5.2923846
alexnet_w1_mlp_simclrhn_probe1,1,23,NaN,bear,dog,pow,0023_pow_dnn_pow_dog_35_n02093256_1772.png,n02093256_1772.png,0.0,-3.270662,0.626669,-2.7558293
alexnet_w1_mlp_simclrhn_probe1,1,24,NaN,oven,boat,pow,0024_pow_dnn_pow_boat_35_n03344393_6260.png,n03344393_6260.png,0.0,-2.3754215,0.42632237,-1.9811321
alexnet_w1_mlp_simclrhn_probe1,1,25,NaN,oven,chair,0,0025_pow_dnn_0_chair_35_n04429376_24073.png,n04429376_24073.png,0.0,-3.063112,-1.8981088,-0.82378167
alexnet_w1_mlp_simclrhn_probe1,1,26,NaN,knife,knife,0,0026_pow_dnn_0_knife_35_n03041632_29355.png,n03041632_29355.png,1.0,1.1601917,-1.9567461,2.2040079
alexnet_w1_mlp_simclrhn_probe1,1,27,NaN,clock,clock,0,0027_pow_dnn_0_clock_35_n03196217_5907.png,n03196217_5907.png,1.0,2.7295573,0.122039646,1.8437935
alexnet_w1_mlp_simclrhn_probe1,1,28,NaN,airplane,airplane,0,0028_pow_dnn_0_airplane_35_n02690373_7276.png,n02690373_7276.png,1.0,10.700872,1.5657305,6.4595213
alexnet_w1_mlp_simclrhn_probe1,1,29,NaN,bicycle,bicycle,pow,0029_pow_dnn_pow_bicycle_35_n03792782_15561.png,n03792782_15561.png,1.0,4.1202884,-3.7856889,5.59037
alexnet_w1_mlp_simclrhn_probe1,1,30,NaN,cat,cat,0,0030_pow_dnn_0_cat_35_n02123045_3505.png,n02123045_3505.png,1.0,5.512693,-0.88351816,4.5228043
alexnet_w1_mlp_simclrhn_probe1,1,31,NaN,oven,knife,0,0031_pow_dnn_0_knife_35_n03041632_34769.png,n03041632_34769.png,0.0,-2.7635152,0.86209315,-2.5636923
alexnet_w1_mlp_simclrhn_probe1,1,32,NaN,elephant,clock,pow,0032_pow_dnn_pow_clock_35_n03196217_5206.png,n03196217_5206.png,0.0,-5.4868774,-0.07365711,-3.827725
alexnet_w1_mlp_simclrhn_probe1,1,33,NaN,truck,truck,0,0033_pow_dnn_0_truck_35_n04467665_58815.png,n04467665_58815.png,1.0,2.0641632,1.6684384,0.27981967
alexnet_w1_mlp_simclrhn_probe1,1,34,NaN,bird,bird,0,0034_pow_dnn_0_bird_35_n01616318_2186.png,n01616318_2186.png,1.0,2.9270418,-4.7598352,5.435443
alexnet_w1_mlp_simclrhn_probe1,1,35,NaN,elephant,bicycle,pow,0035_pow_dnn_pow_bicycle_35_n03792782_12885.png,n03792782_12885.png,0.0,-3.6004798,0.64531595,-3.002231
alexnet_w1_mlp_simclrhn_probe1,1,36,NaN,oven,airplane,pow,0036_pow_dnn_pow_airplane_35_n02690373_9264.png,n02690373_9264.png,0.0,-3.6834016,-0.29802075,-2.3938258
alexnet_w1_mlp_simclrhn_probe1,1,37,NaN,chair,chair,0,0037_pow_dnn_0_chair_35_n04099969_16079.png,n04099969_16079.png,1.0,0.12399399,-0.93320596,0.7475533
alexnet_w1_mlp_simclrhn_probe1,1,38,NaN,bicycle,bicycle,0,0038_pow_dnn_0_bicycle_35_n02835271_3027.png,n02835271_3027.png,1.0,2.424768,-1.6251528,2.8637266
alexnet_w1_mlp_simclrhn_probe1,1,39,NaN,airplane,airplane,0,0039_pow_dnn_0_airplane_35_n02690373_6614.png,n02690373_6614.png,1.0,9.669981,-1.6740022,8.021407
alexnet_w1_mlp_simclrhn_probe1,1,40,NaN,airplane,chair,pow,0040_pow_dnn_pow_chair_35_n03376595_9048.png,n03376595_9048.png,0.0,-5.009986,-1.1577678,-2.7239296
alexnet_w1_mlp_simclrhn_probe1,1,41,NaN,oven,oven,0,0041_pow_dnn_0_oven_35_n04111531_6094.png,n04111531_6094.png,1.0,3.1623192,2.2509522,0.64443374
alexnet_w1_mlp_simclrhn_probe1,1,42,NaN,clock,clock,pow,0042_pow_dnn_pow_clock_35_n02708093_687.png,n02708093_687.png,1.0,0.4858601,-1.5350655,1.4290102
alexnet_w1_mlp_simclrhn_probe1,1,43,NaN,bicycle,bicycle,pow,0043_pow_dnn_pow_bicycle_35_n03792782_14931.png,n03792782_14931.png,1.0,1.9976239,-2.677411,3.305749
alexnet_w1_mlp_simclrhn_probe1,1,44,NaN,keyboard,bottle,0,0044_pow_dnn_0_bottle_35_n03937543_5567.png,n03937543_5567.png,0.0,-0.34692225,1.5890601,-1.3689463
alexnet_w1_mlp_simclrhn_probe1,1,45,NaN,car,car,0,0045_pow_dnn_0_car_35_n03100240_3073.png,n03100240_3073.png,1.0,13.997235,6.9015446,5.017411
alexnet_w1_mlp_simclrhn_probe1,1,46,NaN,knife,knife,0,0046_pow_dnn_0_knife_35_n03041632_18236.png,n03041632_18236.png,1.0,1.067379,-3.078636,2.9316754
alexnet_w1_mlp_simclrhn_probe1,1,47,NaN,cat,knife,pow,0047_pow_dnn_pow_knife_35_n03041632_9302.png,n03041632_9302.png,0.0,-2.7819004,-1.2584628,-1.0772331
alexnet_w1_mlp_simclrhn_probe1,1,48,NaN,bear,bear,0,0048_pow_dnn_0_bear_35_n02134418_2590.png,n02134418_2590.png,1.0,6.7668047,2.049105,3.3359177
alexnet_w1_mlp_simclrhn_probe1,1,49,NaN,bottle,bottle,0,0049_pow_dnn_0_bottle_35_n03983396_24837.png,n03983396_24837.png,1.0,-1.7970352,-4.822953,2.1396472
alexnet_w1_mlp_simclrhn_probe1,1,50,NaN,elephant,knife,pow,0050_pow_dnn_pow_knife_35_n03041632_3617.png,n03041632_3617.png,0.0,-2.9775062,-0.9120034,-1.460531
alexnet_w1_mlp_simclrhn_probe1,1,51,NaN,elephant,bicycle,pow,0051_pow_dnn_pow_bicycle_35_n03792782_6735.png,n03792782_6735.png,0.0,-1.5807717,-0.6987698,-0.6236695
alexnet_w1_mlp_simclrhn_probe1,1,52,NaN,car,car,0,0052_pow_dnn_0_car_35_n03100240_5387.png,n03100240_5387.png,1.0,11.894,4.8700247,4.9667006
alexnet_w1_mlp_simclrhn_probe1,1,53,NaN,clock,bottle,0,0053_pow_dnn_0_bottle_35_n03983396_4879.png,n03983396_4879.png,0.0,-1.0172822,-0.10782532,-0.64308316
alexnet_w1_mlp_simclrhn_probe1,1,54,NaN,car,car,0,0054_pow_dnn_0_car_35_n03100240_6103.png,n03100240_6103.png,1.0,15.035706,10.257892,3.3784246
alexnet_w1_mlp_simclrhn_probe1,1,55,NaN,bear,bird,pow,0055_pow_dnn_pow_bird_35_n01796340_9255.png,n01796340_9255.png,0.0,-2.7017577,-0.58045316,-1.4999888
alexnet_w1_mlp_simclrhn_probe1,1,56,NaN,oven,cat,pow,0056_pow_dnn_pow_cat_35_n02123394_2448.png,n02123394_2448.png,0.0,-0.86776423,0.10442695,-0.687443
alexnet_w1_mlp_simclrhn_probe1,1,57,NaN,car,car,0,0057_pow_dnn_0_car_35_n04285008_13174.png,n04285008_13174.png,1.0,16.789375,10.673805,4.3243613
alexnet_w1_mlp_simclrhn_probe1,1,58,NaN,oven,chair,pow,0058_pow_dnn_pow_chair_35_n04429376_353.png,n04429376_353.png,0.0,-3.6621542,0.7367475,-3.1104934
alexnet_w1_mlp_simclrhn_probe1,1,59,NaN,bicycle,boat,pow,0059_pow_dnn_pow_boat_35_n02951358_16261.png,n02951358_16261.png,0.0,-4.1046805,-0.3488608,-2.6557658
alexnet_w1_mlp_simclrhn_probe1,1,60,NaN,oven,car,pow,0060_pow_dnn_pow_car_35_n04285008_15954.png,n04285008_15954.png,0.0,-3.9991238,0.16676512,-2.9457283
alexnet_w1_mlp_simclrhn_probe1,1,61,NaN,elephant,truck,pow,0061_pow_dnn_pow_truck_35_n04467665_3411.png,n04467665_3411.png,0.0,-2.5708823,-1.6986203,-0.61678237
alexnet_w1_mlp_simclrhn_probe1,1,62,NaN,oven,oven,pow,0062_pow_dnn_pow_oven_35_n04111531_15743.png,n04111531_15743.png,1.0,1.7635937,-1.2496243,2.130667
alexnet_w1_mlp_simclrhn_probe1,1,63,NaN,elephant,dog,0,0063_pow_dnn_0_dog_35_n02088238_8653.png,n02088238_8653.png,0.0,-1.1134161,-0.45745206,-0.4638366
alexnet_w1_mlp_simclrhn_probe1,1,64,NaN,airplane,airplane,0,0064_pow_dnn_0_airplane_35_n02690373_4681.png,n02690373_4681.png,1.0,7.59402,1.9018354,4.0249825
alexnet_w1_mlp_simclrhn_probe1,1,65,NaN,oven,bear,pow,0065_pow_dnn_pow_bear_35_n02134418_5684.png,n02134418_5684.png,0.0,-0.010576293,0.40219036,-0.2918701
alexnet_w1_mlp_simclrhn_probe1,1,66,NaN,bear,bear,pow,0066_pow_dnn_pow_bear_35_n02134418_5830.png,n02134418_5830.png,1.0,3.7707715,1.295924,1.7499815
alexnet_w1_mlp_simclrhn_probe1,1,67,NaN,boat,truck,0,0067_pow_dnn_0_truck_35_n04467665_45983.png,n04467665_45983.png,0.0,-2.4552922,1.5428774,-2.827133
alexnet_w1_mlp_simclrhn_probe1,1,68,NaN,elephant,bird,0,0068_pow_dnn_0_bird_35_n01795545_14302.png,n01795545_14302.png,0.0,-2.2872353,-0.37000287,-1.3556881
alexnet_w1_mlp_simclrhn_probe1,1,69,NaN,oven,oven,pow,0069_pow_dnn_pow_oven_35_n04111531_19240.png,n04111531_19240.png,1.0,2.3026853,0.5186939,1.2614723
alexnet_w1_mlp_simclrhn_probe1,1,70,NaN,oven,knife,0,0070_pow_dnn_0_knife_35_n03041632_22241.png,n03041632_22241.png,0.0,-1.3150077,0.46784744,-1.260669
alexnet_w1_mlp_simclrhn_probe1,1,71,NaN,bear,boat,pow,0071_pow_dnn_pow_boat_35_n03344393_815.png,n03344393_815.png,0.0,-1.7867603,0.46393323,-1.5914807
alexnet_w1_mlp_simclrhn_probe1,1,72,NaN,airplane,boat,0,0072_pow_dnn_0_boat_35_n03662601_2120.png,n03662601_2120.png,0.0,-0.44967976,3.2424183,-2.6107078
alexnet_w1_mlp_simclrhn_probe1,1,73,NaN,oven,knife,pow,0073_pow_dnn_pow_knife_35_n03041632_2438.png,n03041632_2438.png,0.0,-2.296322,-0.38453817,-1.3518354
alexnet_w1_mlp_simclrhn_probe1,1,74,NaN,bear,bear,pow,0074_pow_dnn_pow_bear_35_n02134418_3073.png,n02134418_3073.png,1.0,3.4347694,1.3365731,1.4836488
alexnet_w1_mlp_simclrhn_probe1,1,75,NaN,elephant,bottle,pow,0075_pow_dnn_pow_bottle_35_n02823428_3328.png,n02823428_3328.png,0.0,-2.9659588,1.8201905,-3.3843188
alexnet_w1_mlp_simclrhn_probe1,1,76,NaN,car,car,pow,0076_pow_dnn_pow_car_35_n04285008_13259.png,n04285008_13259.png,1.0,-0.43190244,-0.44289565,0.007773375
alexnet_w1_mlp_simclrhn_probe1,1,77,NaN,oven,oven,0,0077_pow_dnn_0_oven_35_n04111531_15852.png,n04111531_15852.png,1.0,1.6956613,-3.4374964,3.6296906
alexnet_w1_mlp_simclrhn_probe1,1,78,NaN,elephant,dog,pow,0078_pow_dnn_pow_dog_35_n02099601_447.png,n02099601_447.png,0.0,-1.6253133,5.7773685,-5.2344866
alexnet_w1_mlp_simclrhn_probe1,1,79,NaN,oven,oven,pow,0079_pow_dnn_pow_oven_35_n04111531_18916.png,n04111531_18916.png,1.0,0.49747965,-0.22181588,0.5086187
alexnet_w1_mlp_simclrhn_probe1,1,80,NaN,elephant,bottle,pow,0080_pow_dnn_pow_bottle_35_n04591713_1407.png,n04591713_1407.png,0.0,-1.2305406,1.2013421,-1.7196009
alexnet_w1_mlp_simclrhn_probe1,1,81,NaN,oven,oven,0,0081_pow_dnn_0_oven_35_n04111531_4585.png,n04111531_4585.png,1.0,1.2638513,1.030566,0.16495763
alexnet_w1_mlp_simclrhn_probe1,1,82,NaN,oven,keyboard,pow,0082_pow_dnn_pow_keyboard_35_n03085013_8364.png,n03085013_8364.png,0.0,-7.660284,-1.0556483,-4.6701827
alexnet_w1_mlp_simclrhn_probe1,1,83,NaN,bear,bear,pow,0083_pow_dnn_pow_bear_35_n02132136_15462.png,n02132136_15462.png,1.0,3.785355,3.1171963,0.4724596
alexnet_w1_mlp_simclrhn_probe1,1,84,NaN,oven,bicycle,pow,0084_pow_dnn_pow_bicycle_35_n03792782_4167.png,n03792782_4167.png,0.0,-0.9305073,0.39324337,-0.9360331
alexnet_w1_mlp_simclrhn_probe1,1,85,NaN,boat,boat,0,0085_pow_dnn_0_boat_35_n03662601_16106.png,n03662601_16106.png,1.0,5.3554854,3.61196,1.2328588
alexnet_w1_mlp_simclrhn_probe1,1,86,NaN,oven,keyboard,pow,0086_pow_dnn_pow_keyboard_35_n03085013_2277.png,n03085013_2277.png,0.0,-3.554173,1.3204138,-3.4468536
alexnet_w1_mlp_simclrhn_probe1,1,87,NaN,elephant,airplane,pow,0087_pow_dnn_pow_airplane_35_n02690373_8461.png,n02690373_8461.png,0.0,-2.3371952,-0.08057356,-1.5956725
alexnet_w1_mlp_simclrhn_probe1,1,88,NaN,elephant,chair,pow,0088_pow_dnn_pow_chair_35_n03376595_3304.png,n03376595_3304.png,0.0,-1.8199077,-0.57732964,-0.87863535
alexnet_w1_mlp_simclrhn_probe1,1,89,NaN,bicycle,bicycle,0,0089_pow_dnn_0_bicycle_35_n03792782_19116.png,n03792782_19116.png,1.0,1.3321279,-1.4245226,1.9492463
alexnet_w1_mlp_simclrhn_probe1,1,90,NaN,clock,clock,0,0090_pow_dnn_0_clock_35_n02708093_6734.png,n02708093_6734.png,1.0,1.9419149,-0.14844234,1.4781059
alexnet_w1_mlp_simclrhn_probe1,1,91,NaN,oven,chair,0,0091_pow_dnn_0_chair_35_n04429376_6480.png,n04429376_6480.png,0.0,-1.5317597,-1.3923676,-0.098565124
alexnet_w1_mlp_simclrhn_probe1,1,92,NaN,elephant,bicycle,pow,0092_pow_dnn_pow_bicycle_35_n02835271_21339.png,n02835271_21339.png,0.0,-0.40949702,-0.30551124,-0.07352906
alexnet_w1_mlp_simclrhn_probe1,1,93,NaN,oven,keyboard,pow,0093_pow_dnn_pow_keyboard_35_n03085013_3859.png,n03085013_3859.png,0.0,-5.3510094,1.5518885,-4.881086
alexnet_w1_mlp_simclrhn_probe1,1,94,NaN,oven,chair,pow,0094_pow_dnn_pow_chair_35_n03376595_360.png,n03376595_360.png,0.0,-5.0333004,0.89382774,-4.1911125
alexnet_w1_mlp_simclrhn_probe1,1,95,NaN,bear,elephant,pow,0095_pow_dnn_pow_elephant_35_n02504013_18988.png,n02504013_18988.png,0.0,0.43257445,1.1902475,-0.5357558
alexnet_w1_mlp_simclrhn_probe1,1,96,NaN,oven,chair,0,0096_pow_dnn_0_chair_35_n04429376_54570.png,n04429376_54570.png,0.0,-1.7692717,-0.31188405,-1.0305288
alexnet_w1_mlp_simclrhn_probe1,1,97,NaN,clock,clock,pow,0097_pow_dnn_pow_clock_35_n04548280_5189.png,n04548280_5189.png,1.0,-2.3297856,-2.4152868,0.060458474
alexnet_w1_mlp_simclrhn_probe1,1,98,NaN,oven,truck,pow,0098_pow_dnn_pow_truck_35_n04467665_6626.png,n04467665_6626.png,0.0,-4.8641653,0.30143046,-3.652628
alexnet_w1_mlp_simclrhn_probe1,1,99,NaN,boat,boat,0,0099_pow_dnn_0_boat_35_n03344393_3323.png,n03344393_3323.png,1.0,4.1737165,-0.087409295,3.013071
alexnet_w1_mlp_simclrhn_probe1,1,100,NaN,elephant,dog,pow,0100_pow_dnn_pow_dog_35_n02100583_3987.png,n02100583_3987.png,0.0,-0.6967154,1.4543605,-1.5210403
alexnet_w1_mlp_simclrhn_probe1,1,101,NaN,elephant,elephant,pow,0101_pow_dnn_pow_elephant_35_n02504013_1702.png,n02504013_1702.png,1.0,4.0904813,1.2183163,2.0309274
alexnet_w1_mlp_simclrhn_probe1,1,102,NaN,oven,truck,pow,0102_pow_dnn_pow_truck_35_n03417042_1841.png,n03417042_1841.png,0.0,-3.1892114,-1.5971278,-1.1257731
alexnet_w1_mlp_simclrhn_probe1,1,103,NaN,truck,truck,0,0103_pow_dnn_0_truck_35_n03417042_2062.png,n03417042_2062.png,1.0,5.904818,3.3577669,1.8010372
alexnet_w1_mlp_simclrhn_probe1,1,104,NaN,oven,bottle,0,0104_pow_dnn_0_bottle_35_n03983396_4178.png,n03983396_4178.png,0.0,-0.7859147,1.0824941,-1.3211646
alexnet_w1_mlp_simclrhn_probe1,1,105,NaN,knife,keyboard,pow,0105_pow_dnn_pow_keyboard_35_n03085013_1698.png,n03085013_1698.png,0.0,-6.6611247,-0.1552064,-4.600379
alexnet_w1_mlp_simclrhn_probe1,1,106,NaN,oven,car,pow,0106_pow_dnn_pow_car_35_n03100240_7056.png,n03100240_7056.png,0.0,-1.8535023,-0.70104575,-0.8149098
alexnet_w1_mlp_simclrhn_probe1,1,107,NaN,bear,dog,pow,0107_pow_dnn_pow_dog_35_n02100735_3553.png,n02100735_3553.png,0.0,-2.411417,1.2106333,-2.5611763
alexnet_w1_mlp_simclrhn_probe1,1,108,NaN,oven,oven,pow,0108_pow_dnn_pow_oven_35_n04111531_11781.png,n04111531_11781.png,1.0,4.077607,-1.546776,3.9770393
alexnet_w1_mlp_simclrhn_probe1,1,109,NaN,cat,cat,0,0109_pow_dnn_0_cat_35_n02123159_4914.png,n02123159_4914.png,1.0,3.5154362,0.610382,2.0541835
alexnet_w1_mlp_simclrhn_probe1,1,110,NaN,bear,dog,0,0110_pow_dnn_0_dog_35_n02090622_1852.png,n02090622_1852.png,0.0,-0.84853005,-0.3334971,-0.3641833
alexnet_w1_mlp_simclrhn_probe1,1,111,NaN,car,car,pow,0111_pow_dnn_pow_car_35_n03100240_24471.png,n03100240_24471.png,1.0,0.9149394,-0.38886893,0.92193174
alexnet_w1_mlp_simclrhn_probe1,1,112,NaN,elephant,boat,pow,0112_pow_dnn_pow_boat_35_n03344393_3519.png,n03344393_3519.png,0.0,-2.5719578,-0.11534287,-1.7370892
alexnet_w1_mlp_simclrhn_probe1,1,113,NaN,oven,keyboard,pow,0113_pow_dnn_pow_keyboard_35_n03085013_22713.png,n03085013_22713.png,0.0,-6.703389,0.64528096,-5.1962943
alexnet_w1_mlp_simclrhn_probe1,1,114,NaN,elephant,elephant,0,0114_pow_dnn_0_elephant_35_n02504013_6615.png,n02504013_6615.png,1.0,2.0135887,1.4788028,0.37815073
alexnet_w1_mlp_simclrhn_probe1,1,115,NaN,dog,cat,0,0115_pow_dnn_0_cat_35_n02123597_7081.png,n02123597_7081.png,0.0,-0.83273417,-0.5704473,-0.18546481
alexnet_w1_mlp_simclrhn_probe1,1,116,NaN,clock,clock,pow,0116_pow_dnn_pow_clock_35_n04548280_5406.png,n04548280_5406.png,1.0,1.3982295,-0.7006801,1.4841533
alexnet_w1_mlp_simclrhn_probe1,1,117,NaN,oven,bottle,0,0117_pow_dnn_0_bottle_35_n03983396_21920.png,n03983396_21920.png,0.0,-2.5031838,2.706507,-3.6838078
alexnet_w1_mlp_simclrhn_probe1,1,118,NaN,knife,knife,0,0118_pow_dnn_0_knife_35_n03041632_48675.png,n03041632_48675.png,1.0,2.3068767,-1.5837877,2.751115
alexnet_w1_mlp_simclrhn_probe1,1,119,NaN,bird,cat,0,0119_pow_dnn_0_cat_35_n02125311_2103.png,n02125311_2103.png,0.0,-3.765672,-1.5771626,-1.5475099
alexnet_w1_mlp_simclrhn_probe1,1,120,NaN,bear,bird,pow,0120_pow_dnn_pow_bird_35_n01798484_962.png,n01798484_962.png,0.0,-2.8507128,-0.64497936,-1.559689
alexnet_w1_mlp_simclrhn_probe1,1,121,NaN,oven,oven,pow,0121_pow_dnn_pow_oven_35_n04111531_6393.png,n04111531_6393.png,1.0,2.3701236,0.05913639,1.6341147
alexnet_w1_mlp_simclrhn_probe1,1,122,NaN,oven,oven,0,0122_pow_dnn_0_oven_35_n04111531_4418.png,n04111531_4418.png,1.0,1.9668397,-1.2302792,2.2607043
alexnet_w1_mlp_simclrhn_probe1,1,123,NaN,oven,truck,pow,0123_pow_dnn_pow_truck_35_n03796401_296.png,n03796401_296.png,0.0,-5.4970055,-0.23615879,-3.7199805
alexnet_w1_mlp_simclrhn_probe1,1,124,NaN,bicycle,bicycle,0,0124_pow_dnn_0_bicycle_35_n02835271_10738.png,n02835271_10738.png,1.0,4.84059,-2.781815,5.3898544
alexnet_w1_mlp_simclrhn_probe1,1,125,NaN,elephant,elephant,0,0125_pow_dnn_0_elephant_35_n02504013_4457.png,n02504013_4457.png,1.0,13.775345,3.496339,7.268355
alexnet_w1_mlp_simclrhn_probe1,1,126,NaN,knife,knife,0,0126_pow_dnn_0_knife_35_n03041632_30573.png,n03041632_30573.png,1.0,1.0869998,0.15523586,0.6588566
alexnet_w1_mlp_simclrhn_probe1,1,127,NaN,airplane,boat,0,0127_pow_dnn_0_boat_35_n03662601_19840.png,n03662601_19840.png,0.0,2.8870916,3.4548235,-0.40144706
alexnet_w1_mlp_simclrhn_probe1,1,128,NaN,elephant,bear,0,0128_pow_dnn_0_bear_35_n02133161_12167.png,n02133161_12167.png,0.0,3.0137877,6.3082905,-2.3295653
alexnet_w1_mlp_simclrhn_probe1,1,129,NaN,keyboard,bottle,0,0129_pow_dnn_0_bottle_35_n02823428_3028.png,n02823428_3028.png,0.0,-0.76031876,0.057618707,-0.57836914
alexnet_w1_mlp_simclrhn_probe1,1,130,NaN,boat,boat,0,0130_pow_dnn_0_boat_35_n02951358_30149.png,n02951358_30149.png,1.0,1.6423776,0.86086017,0.5526163
alexnet_w1_mlp_simclrhn_probe1,1,131,NaN,car,car,0,0131_pow_dnn_0_car_35_n02814533_75419.png,n02814533_75419.png,1.0,9.248794,6.8661776,1.684764
alexnet_w1_mlp_simclrhn_probe1,1,132,NaN,keyboard,keyboard,0,0132_pow_dnn_0_keyboard_35_n03085013_24449.png,n03085013_24449.png,1.0,2.842446,0.7158763,1.5037119
alexnet_w1_mlp_simclrhn_probe1,1,133,NaN,dog,dog,0,0133_pow_dnn_0_dog_35_n02086240_519.png,n02086240_519.png,1.0,2.2395198,0.6959407,1.0914752
alexnet_w1_mlp_simclrhn_probe1,1,134,NaN,bird,bird,pow,0134_pow_dnn_pow_bird_35_n01582220_2882.png,n01582220_2882.png,1.0,-0.9301139,-1.5910894,0.46738023
alexnet_w1_mlp_simclrhn_probe1,1,135,NaN,oven,oven,0,0135_pow_dnn_0_oven_35_n04111531_13277.png,n04111531_13277.png,1.0,3.7823234,-0.4983607,3.0269008
alexnet_w1_mlp_simclrhn_probe1,1,136,NaN,bear,bear,pow,0136_pow_dnn_pow_bear_35_n02134084_6901.png,n02134084_6901.png,1.0,2.1884942,1.2142903,0.6888662
alexnet_w1_mlp_simclrhn_probe1,1,137,NaN,elephant,bird,0,0137_pow_dnn_0_bird_35_n02002556_5447.png,n02002556_5447.png,0.0,-4.375372,-0.21228954,-2.943744
alexnet_w1_mlp_simclrhn_probe1,1,138,NaN,keyboard,keyboard,0,0138_pow_dnn_0_keyboard_35_n03085013_20710.png,n03085013_20710.png,1.0,3.2589726,-2.0470479,3.7519233
alexnet_w1_mlp_simclrhn_probe1,1,139,NaN,oven,oven,pow,0139_pow_dnn_pow_oven_35_n04111531_11405.png,n04111531_11405.png,1.0,2.8707213,-2.2420151,3.6152508
alexnet_w1_mlp_simclrhn_probe1,1,140,NaN,bear,bear,pow,0140_pow_dnn_pow_bear_35_n02132136_8457.png,n02132136_8457.png,1.0,2.0733936,0.3169248,1.242011
alexnet_w1_mlp_simclrhn_probe1,1,141,NaN,bird,bird,pow,0141_pow_dnn_pow_bird_35_n02009912_6788.png,n02009912_6788.png,1.0,-0.9254259,-1.4231433,0.35193935
alexnet_w1_mlp_simclrhn_probe1,1,142,NaN,oven,chair,pow,0142_pow_dnn_pow_chair_35_n04429376_9630.png,n04429376_9630.png,0.0,-3.850978,0.5485263,-3.1109192
alexnet_w1_mlp_simclrhn_probe1,1,143,NaN,keyboard,keyboard,0,0143_pow_dnn_0_keyboard_35_n03085013_23658.png,n03085013_23658.png,1.0,2.5973449,-1.3361751,2.7814186
alexnet_w1_mlp_simclrhn_probe1,1,144,NaN,cat,cat,pow,0144_pow_dnn_pow_cat_35_n02123045_13199.png,n02123045_13199.png,1.0,1.2507195,0.9845754,0.18819234
alexnet_w1_mlp_simclrhn_probe1,1,145,NaN,bicycle,clock,pow,0145_pow_dnn_pow_clock_35_n04548280_6411.png,n04548280_6411.png,0.0,-1.342483,-0.03206849,-0.926603
alexnet_w1_mlp_simclrhn_probe1,1,146,NaN,bird,bird,0,0146_pow_dnn_0_bird_35_n01820546_9729.png,n01820546_9729.png,1.0,-1.0491918,-1.1691278,0.08480755
alexnet_w1_mlp_simclrhn_probe1,1,147,NaN,boat,boat,0,0147_pow_dnn_0_boat_35_n04273569_12651.png,n04273569_12651.png,1.0,1.9391544,-1.1360673,2.17451
alexnet_w1_mlp_simclrhn_probe1,1,148,NaN,elephant,elephant,pow,0148_pow_dnn_pow_elephant_35_n02504458_3143.png,n02504458_3143.png,1.0,1.3810322,0.41091618,0.6859756
alexnet_w1_mlp_simclrhn_probe1,1,149,NaN,clock,clock,0,0149_pow_dnn_0_clock_35_n03196217_9786.png,n03196217_9786.png,1.0,6.3766327,3.4597569,2.0625427
alexnet_w1_mlp_simclrhn_probe1,1,150,NaN,airplane,chair,0,0150_pow_dnn_0_chair_35_n03376595_6652.png,n03376595_6652.png,0.0,-0.52127063,0.3358947,-0.6061074
alexnet_w1_mlp_simclrhn_probe1,1,151,NaN,oven,bottle,pow,0151_pow_dnn_pow_bottle_35_n03983396_2998.png,n03983396_2998.png,0.0,-1.5453831,1.4528217,-2.120051
alexnet_w1_mlp_simclrhn_probe1,1,152,NaN,elephant,elephant,0,0152_pow_dnn_0_elephant_35_n02504458_5331.png,n02504458_5331.png,1.0,7.6611547,0.57499224,5.0106735
alexnet_w1_mlp_simclrhn_probe1,1,153,NaN,car,car,0,0153_pow_dnn_0_car_35_n04285008_8052.png,n04285008_8052.png,1.0,13.070664,5.1845255,5.5763426
alexnet_w1_mlp_simclrhn_probe1,1,154,NaN,elephant,bottle,pow,0154_pow_dnn_pow_bottle_35_n04591713_3402.png,n04591713_3402.png,0.0,-1.8139282,0.8445143,-1.8798027
alexnet_w1_mlp_simclrhn_probe1,1,155,NaN,oven,bicycle,pow,0155_pow_dnn_pow_bicycle_35_n02835271_1701.png,n02835271_1701.png,0.0,0.044849157,0.3602764,-0.22304074
alexnet_w1_mlp_simclrhn_probe1,1,156,NaN,bicycle,bicycle,0,0156_pow_dnn_0_bicycle_35_n02835271_5196.png,n02835271_5196.png,1.0,12.894897,-1.1973141,9.964699
alexnet_w1_mlp_simclrhn_probe1,1,157,NaN,elephant,elephant,pow,0157_pow_dnn_pow_elephant_35_n02504458_5444.png,n02504458_5444.png,1.0,2.365015,1.794181,0.40364063
alexnet_w1_mlp_simclrhn_probe1,1,158,NaN,oven,truck,0,0158_pow_dnn_0_truck_35_n03417042_3422.png,n03417042_3422.png,0.0,-1.1765193,1.1691369,-1.6586294
alexnet_w1_mlp_simclrhn_probe1,1,159,NaN,elephant,dog,pow,0159_pow_dnn_pow_dog_35_n02088466_1537.png,n02088466_1537.png,0.0,-0.16663495,2.95163,-2.2049465
alexnet_w1_mlp_simclrhn_probe1,1,160,NaN,bear,dog,pow,0160_pow_dnn_pow_dog_35_n02088632_1732.png,n02088632_1732.png,0.0,-0.5956108,1.1640966,-1.2443011
alexnet_w1_mlp_simclrhn_probe1,1,161,NaN,truck,truck,0,0161_pow_dnn_0_truck_35_n03796401_3326.png,n03796401_3326.png,1.0,0.05759622,-0.9039863,0.67994153
alexnet_w1_mlp_simclrhn_probe1,1,162,NaN,boat,boat,0,0162_pow_dnn_0_boat_35_n04273569_19796.png,n04273569_19796.png,1.0,3.4096832,-4.0617404,5.2830944
alexnet_w1_mlp_simclrhn_probe1,1,163,NaN,bottle,keyboard,pow,0163_pow_dnn_pow_keyboard_35_n04505470_5125.png,n04505470_5125.png,0.0,-0.18618393,0.4335576,-0.43822348
alexnet_w1_mlp_simclrhn_probe1,1,164,NaN,bear,cat,pow,0164_pow_dnn_pow_cat_35_n02123394_1817.png,n02123394_1817.png,0.0,0.8368456,1.6519433,-0.5763612
alexnet_w1_mlp_simclrhn_probe1,1,165,NaN,cat,cat,pow,0165_pow_dnn_pow_cat_35_n02123159_7465.png,n02123159_7465.png,1.0,1.21315,-2.5295587,2.6464946
alexnet_w1_mlp_simclrhn_probe1,1,166,NaN,elephant,cat,0,0166_pow_dnn_0_cat_35_n02125311_33516.png,n02125311_33516.png,0.0,-7.388348,0.46682248,-5.554445
alexnet_w1_mlp_simclrhn_probe1,1,167,NaN,oven,bicycle,pow,0167_pow_dnn_pow_bicycle_35_n03792782_30246.png,n03792782_30246.png,0.0,-2.084452,0.051434055,-1.5102994
alexnet_w1_mlp_simclrhn_probe1,1,168,NaN,airplane,truck,0,0168_pow_dnn_0_truck_35_n04467665_72639.png,n04467665_72639.png,0.0,0.28959793,3.7625284,-2.4557326
alexnet_w1_mlp_simclrhn_probe1,1,169,NaN,bicycle,bicycle,0,0169_pow_dnn_0_bicycle_35_n03792782_10395.png,n03792782_10395.png,1.0,3.0150452,-2.4808788,3.8862052
alexnet_w1_mlp_simclrhn_probe1,1,170,NaN,elephant,bicycle,pow,0170_pow_dnn_pow_bicycle_35_n02835271_840.png,n02835271_840.png,0.0,-0.83881444,0.50668454,-0.9514115
alexnet_w1_mlp_simclrhn_probe1,1,171,NaN,elephant,knife,pow,0171_pow_dnn_pow_knife_35_n03041632_82197.png,n03041632_82197.png,0.0,-2.939165,-0.22349997,-1.9202652
alexnet_w1_mlp_simclrhn_probe1,1,172,NaN,oven,airplane,pow,0172_pow_dnn_pow_airplane_35_n02690373_8942.png,n02690373_8942.png,0.0,-5.3899403,1.2944026,-4.7265444
alexnet_w1_mlp_simclrhn_probe1,1,173,NaN,keyboard,keyboard,0,0173_pow_dnn_0_keyboard_35_n03085013_21851.png,n03085013_21851.png,1.0,1.9392639,0.4922928,1.0231632
alexnet_w1_mlp_simclrhn_probe1,1,174,NaN,clock,clock,pow,0174_pow_dnn_pow_clock_35_n04548280_1106.png,n04548280_1106.png,1.0,0.020899137,-1.2103035,0.8705918
alexnet_w1_mlp_simclrhn_probe1,1,175,NaN,oven,truck,0,0175_pow_dnn_0_truck_35_n03796401_4181.png,n03796401_4181.png,0.0,-1.668758,-1.5223641,-0.10351612
alexnet_w1_mlp_simclrhn_probe1,1,176,NaN,oven,knife,pow,0176_pow_dnn_pow_knife_35_n03041632_44019.png,n03041632_44019.png,0.0,-1.6068587,-0.4081698,-0.8476011
alexnet_w1_mlp_simclrhn_probe1,1,177,NaN,truck,truck,0,0177_pow_dnn_0_truck_35_n03417042_1348.png,n03417042_1348.png,1.0,2.4585066,0.2959932,1.5291278
alexnet_w1_mlp_simclrhn_probe1,1,178,NaN,chair,chair,0,0178_pow_dnn_0_chair_35_n04099969_10516.png,n04099969_10516.png,1.0,1.8827378,-0.2988727,1.5426316
alexnet_w1_mlp_simclrhn_probe1,1,179,NaN,oven,chair,pow,0179_pow_dnn_pow_chair_35_n04099969_24041.png,n04099969_24041.png,0.0,-2.7676976,-0.4147841,-1.663761
alexnet_w1_mlp_simclrhn_probe1,1,180,NaN,oven,truck,pow,0180_pow_dnn_pow_truck_35_n03796401_3618.png,n03796401_3618.png,0.0,-5.3463035,-0.07839018,-3.7249773
alexnet_w1_mlp_simclrhn_probe1,1,181,NaN,elephant,elephant,0,0181_pow_dnn_0_elephant_35_n02504458_4414.png,n02504458_4414.png,1.0,8.933744,0.76995426,5.772671
alexnet_w1_mlp_simclrhn_probe1,1,182,NaN,truck,truck,pow,0182_pow_dnn_pow_truck_35_n03796401_3427.png,n03796401_3427.png,1.0,-0.060887992,-1.6963677,1.1564589
alexnet_w1_mlp_simclrhn_probe1,1,183,NaN,cat,cat,0,0183_pow_dnn_0_cat_35_n02123045_9907.png,n02123045_9907.png,1.0,-0.6583786,-1.6616482,0.7094187
alexnet_w1_mlp_simclrhn_probe1,1,184,NaN,oven,oven,0,0184_pow_dnn_0_oven_35_n04111531_2156.png,n04111531_2156.png,1.0,4.1669893,-2.2357404,4.527414
alexnet_w1_mlp_simclrhn_probe1,1,185,NaN,bear,bird,pow,0185_pow_dnn_pow_bird_35_n02002556_12696.png,n02002556_12696.png,0.0,-1.2908981,1.1142118,-1.7006695
alexnet_w1_mlp_simclrhn_probe1,1,186,NaN,airplane,airplane,pow,0186_pow_dnn_pow_airplane_35_n02690373_8791.png,n02690373_8791.png,1.0,-0.99831545,-2.12201,0.79457206
alexnet_w1_mlp_simclrhn_probe1,1,187,NaN,elephant,knife,pow,0187_pow_dnn_pow_knife_35_n03041632_27963.png,n03041632_27963.png,0.0,-2.3819444,-0.50744784,-1.3254693
alexnet_w1_mlp_simclrhn_probe1,1,188,NaN,airplane,chair,0,0188_pow_dnn_0_chair_35_n03376595_7772.png,n03376595_7772.png,0.0,-0.56710434,-0.34268206,-0.15869051
alexnet_w1_mlp_simclrhn_probe1,1,189,NaN,bear,boat,pow,0189_pow_dnn_pow_boat_35_n04273569_3460.png,n04273569_3460.png,0.0,-3.919002,-0.80672157,-2.2007146
alexnet_w1_mlp_simclrhn_probe1,1,190,NaN,oven,oven,0,0190_pow_dnn_0_oven_35_n04111531_5694.png,n04111531_5694.png,1.0,6.151753,-4.308883,7.3967867
alexnet_w1_mlp_simclrhn_probe1,1,191,NaN,bear,bear,pow,0191_pow_dnn_pow_bear_35_n02134084_17218.png,n02134084_17218.png,1.0,2.541018,2.4827812,0.041179664
alexnet_w1_mlp_simclrhn_probe1,1,192,NaN,oven,oven,pow,0192_pow_dnn_pow_oven_35_n04111531_2923.png,n04111531_2923.png,1.0,1.2806766,-1.4579325,1.9364891
alexnet_w1_mlp_simclrhn_probe1,1,193,NaN,cat,keyboard,pow,0193_pow_dnn_pow_keyboard_35_n03085013_22669.png,n03085013_22669.png,0.0,-6.333565,-2.1171033,-2.981489
alexnet_w1_mlp_simclrhn_probe1,1,194,NaN,elephant,bottle,pow,0194_pow_dnn_pow_bottle_35_n04557648_2282.png,n04557648_2282.png,0.0,-0.6768747,0.48391265,-0.8208006
alexnet_w1_mlp_simclrhn_probe1,1,195,NaN,elephant,elephant,pow,0195_pow_dnn_pow_elephant_35_n02504013_6693.png,n02504013_6693.png,1.0,5.3916483,1.6365192,2.6552773
alexnet_w1_mlp_simclrhn_probe1,1,196,NaN,boat,chair,0,0196_pow_dnn_0_chair_35_n04099969_39507.png,n04099969_39507.png,0.0,-1.2270786,-0.9517662,-0.19467524
alexnet_w1_mlp_simclrhn_probe1,1,197,NaN,oven,car,pow,0197_pow_dnn_pow_car_35_n02814533_61184.png,n02814533_61184.png,0.0,-5.9259305,1.4863412,-5.2412677
alexnet_w1_mlp_simclrhn_probe1,1,198,NaN,oven,keyboard,pow,0198_pow_dnn_pow_keyboard_35_n04505470_1358.png,n04505470_1358.png,0.0,-3.7022414,1.8268468,-3.9096558
alexnet_w1_mlp_simclrhn_probe1,1,199,NaN,oven,truck,pow,0199_pow_dnn_pow_truck_35_n04467665_8824.png,n04467665_8824.png,0.0,-3.2858336,0.13243707,-2.4170823
alexnet_w1_mlp_simclrhn_probe1,1,200,NaN,keyboard,keyboard,0,0200_pow_dnn_0_keyboard_35_n04505470_8937.png,n04505470_8937.png,1.0,0.97251344,-0.18680577,0.81976247
alexnet_w1_mlp_simclrhn_probe1,1,201,NaN,bear,truck,pow,0201_pow_dnn_pow_truck_35_n03417042_7581.png,n03417042_7581.png,0.0,-4.3656983,-1.7893373,-1.8217624
alexnet_w1_mlp_simclrhn_probe1,1,202,NaN,bicycle,bicycle,pow,0202_pow_dnn_pow_bicycle_35_n02835271_13234.png,n02835271_13234.png,1.0,1.6607873,-0.053369157,1.2120917
alexnet_w1_mlp_simclrhn_probe1,1,203,NaN,cat,cat,pow,0203_pow_dnn_pow_cat_35_n02124075_3383.png,n02124075_3383.png,1.0,3.8695507,-0.5917852,3.1546412
alexnet_w1_mlp_simclrhn_probe1,1,204,NaN,elephant,elephant,pow,0204_pow_dnn_pow_elephant_35_n02504013_474.png,n02504013_474.png,1.0,3.725928,2.4668417,0.8903085
alexnet_w1_mlp_simclrhn_probe1,1,205,NaN,oven,chair,pow,0205_pow_dnn_pow_chair_35_n04429376_1838.png,n04429376_1838.png,0.0,-3.8576455,1.0263932,-3.453537
alexnet_w1_mlp_simclrhn_probe1,1,206,NaN,bear,boat,pow,0206_pow_dnn_pow_boat_35_n02951358_5064.png,n02951358_5064.png,0.0,-2.5827005,0.741945,-2.3508794
alexnet_w1_mlp_simclrhn_probe1,1,207,NaN,elephant,knife,pow,0207_pow_dnn_pow_knife_35_n03041632_31037.png,n03041632_31037.png,0.0,-2.2953556,1.331866,-2.564833
alexnet_w1_mlp_simclrhn_probe1,1,208,NaN,bear,cat,pow,0208_pow_dnn_pow_cat_35_n02123045_11501.png,n02123045_11501.png,0.0,-1.3958969,-0.67335534,-0.510914
alexnet_w1_mlp_simclrhn_probe1,1,209,NaN,elephant,keyboard,pow,0209_pow_dnn_pow_keyboard_35_n03085013_17937.png,n03085013_17937.png,0.0,-7.3132625,1.0016587,-5.8795376
alexnet_w1_mlp_simclrhn_probe1,1,210,NaN,chair,chair,0,0210_pow_dnn_0_chair_35_n03376595_10881.png,n03376595_10881.png,1.0,0.46707225,-0.28469163,0.53157735
alexnet_w1_mlp_simclrhn_probe1,1,211,NaN,elephant,elephant,0,0211_pow_dnn_0_elephant_35_n02504458_7302.png,n02504458_7302.png,1.0,11.384078,2.7065868,6.135913
alexnet_w1_mlp_simclrhn_probe1,1,212,NaN,boat,airplane,pow,0212_pow_dnn_pow_airplane_35_n02690373_4704.png,n02690373_4704.png,0.0,-2.1530275,-0.30554247,-1.3063692
alexnet_w1_mlp_simclrhn_probe1,1,213,NaN,car,car,0,0213_pow_dnn_0_car_35_n03100240_18756.png,n03100240_18756.png,1.0,14.421361,7.186969,5.115488
alexnet_w1_mlp_simclrhn_probe1,1,214,NaN,elephant,keyboard,pow,0214_pow_dnn_pow_keyboard_35_n03085013_20732.png,n03085013_20732.png,0.0,-6.8069134,0.026056848,-4.83164
alexnet_w1_mlp_simclrhn_probe1,1,215,NaN,bottle,bottle,pow,0215_pow_dnn_pow_bottle_35_n04579145_2999.png,n04579145_2999.png,1.0,0.45181832,-0.41040424,0.6096834
alexnet_w1_mlp_simclrhn_probe1,1,216,NaN,clock,clock,pow,0216_pow_dnn_pow_clock_35_n02708093_2546.png,n02708093_2546.png,1.0,-0.3963302,-1.4626099,0.7539736
alexnet_w1_mlp_simclrhn_probe1,1,217,NaN,boat,boat,0,0217_pow_dnn_0_boat_35_n03662601_13847.png,n03662601_13847.png,1.0,2.5267596,-0.054755315,1.8254067
alexnet_w1_mlp_simclrhn_probe1,1,218,NaN,bicycle,bicycle,0,0218_pow_dnn_0_bicycle_35_n03792782_7878.png,n03792782_7878.png,1.0,14.00502,-0.85218114,10.505629
alexnet_w1_mlp_simclrhn_probe1,1,219,NaN,bear,knife,pow,0219_pow_dnn_pow_knife_35_n03041632_18959.png,n03041632_18959.png,0.0,-3.5778217,-0.33039194,-2.2962797
alexnet_w1_mlp_simclrhn_probe1,1,220,NaN,bear,bear,0,0220_pow_dnn_0_bear_35_n02134418_10576.png,n02134418_10576.png,1.0,2.4672313,0.76794463,1.2015772
alexnet_w1_mlp_simclrhn_probe1,1,221,NaN,elephant,elephant,pow,0221_pow_dnn_pow_elephant_35_n02504013_213.png,n02504013_213.png,1.0,4.5103807,2.8993642,1.1391608
alexnet_w1_mlp_simclrhn_probe1,1,222,NaN,oven,bottle,pow,0222_pow_dnn_pow_bottle_35_n03983396_2944.png,n03983396_2944.png,0.0,-3.3946242,2.0605397,-3.8573835
alexnet_w1_mlp_simclrhn_probe1,1,223,NaN,keyboard,truck,0,0223_pow_dnn_0_truck_35_n03796401_8964.png,n03796401_8964.png,0.0,-2.8898888,1.2356128,-2.9171703
alexnet_w1_mlp_simclrhn_probe1,1,224,NaN,elephant,knife,pow,0224_pow_dnn_pow_knife_35_n03041632_13509.png,n03041632_13509.png,0.0,-1.9090135,-1.2125297,-0.49248847
alexnet_w1_mlp_simclrhn_probe1,1,225,NaN,elephant,bird,pow,0225_pow_dnn_pow_bird_35_n01537544_7301.png,n01537544_7301.png,0.0,-4.6700435,-0.48048264,-2.962467
alexnet_w1_mlp_simclrhn_probe1,1,226,NaN,elephant,elephant,0,0226_pow_dnn_0_elephant_35_n02504013_9618.png,n02504013_9618.png,1.0,6.9165754,1.7824296,3.6303892
alexnet_w1_mlp_simclrhn_probe1,1,227,NaN,oven,keyboard,pow,0227_pow_dnn_pow_keyboard_35_n04505470_10191.png,n04505470_10191.png,0.0,-6.473982,-0.6471856,-4.1201673
alexnet_w1_mlp_simclrhn_probe1,1,228,NaN,bicycle,bicycle,pow,0228_pow_dnn_pow_bicycle_35_n02835271_20149.png,n02835271_20149.png,1.0,0.9960371,-2.5800667,2.5286872
alexnet_w1_mlp_simclrhn_probe1,1,229,NaN,truck,truck,0,0229_pow_dnn_0_truck_35_n04467665_2098.png,n04467665_2098.png,1.0,2.8574855,-0.14149839,2.120602
alexnet_w1_mlp_simclrhn_probe1,1,230,NaN,bear,bear,0,0230_pow_dnn_0_bear_35_n02133161_5274.png,n02133161_5274.png,1.0,2.2690399,0.7180867,1.0966895
alexnet_w1_mlp_simclrhn_probe1,1,231,NaN,oven,bird,pow,0231_pow_dnn_pow_bird_35_n01537544_20224.png,n01537544_20224.png,0.0,-2.5573928,0.097666025,-1.8774102
alexnet_w1_mlp_simclrhn_probe1,1,232,NaN,bear,dog,pow,0232_pow_dnn_pow_dog_35_n02094258_6800.png,n02094258_6800.png,0.0,0.29944474,2.2649267,-1.3898057
alexnet_w1_mlp_simclrhn_probe1,1,233,NaN,truck,truck,0,0233_pow_dnn_0_truck_35_n03417042_27326.png,n03417042_27326.png,1.0,7.5727606,1.5542952,4.2556977
alexnet_w1_mlp_simclrhn_probe1,1,234,NaN,oven,oven,pow,0234_pow_dnn_pow_oven_35_n04111531_6955.png,n04111531_6955.png,1.0,2.4882152,-0.75753814,2.2950943
alexnet_w1_mlp_simclrhn_probe1,1,235,NaN,clock,clock,0,0235_pow_dnn_0_clock_35_n04548280_7135.png,n04548280_7135.png,1.0,1.271958,-2.091538,2.3783507
alexnet_w1_mlp_simclrhn_probe1,1,236,NaN,oven,dog,pow,0236_pow_dnn_pow_dog_35_n02113023_12143.png,n02113023_12143.png,0.0,-3.9238596,-0.26277664,-2.5887766
alexnet_w1_mlp_simclrhn_probe1,1,237,NaN,bicycle,bicycle,0,0237_pow_dnn_0_bicycle_35_n02835271_10832.png,n02835271_10832.png,1.0,4.7677383,-0.084906995,3.4313385
alexnet_w1_mlp_simclrhn_probe1,1,238,NaN,oven,chair,pow,0238_pow_dnn_pow_chair_35_n02791124_28.png,n02791124_28.png,0.0,-2.5188959,0.4846101,-2.1237996
alexnet_w1_mlp_simclrhn_probe1,1,239,NaN,bicycle,bicycle,pow,0239_pow_dnn_pow_bicycle_35_n03792782_1715.png,n03792782_1715.png,1.0,1.5487032,-1.8956574,2.435531
alexnet_w1_mlp_simclrhn_probe1,1,240,NaN,bicycle,bicycle,0,0240_pow_dnn_0_bicycle_35_n02835271_19875.png,n02835271_19875.png,1.0,5.0115595,-0.50176764,3.8985112
alexnet_w1_mlp_simclrhn_probe1,1,241,NaN,bird,bird,0,0241_pow_dnn_0_bird_35_n02056570_8203.png,n02056570_8203.png,1.0,1.426538,-4.6056724,4.265417
alexnet_w1_mlp_simclrhn_probe1,1,242,NaN,elephant,car,pow,0242_pow_dnn_pow_car_35_n02814533_27588.png,n02814533_27588.png,0.0,-4.3154197,-1.0679036,-2.2963407
alexnet_w1_mlp_simclrhn_probe1,1,243,NaN,bear,bear,0,0243_pow_dnn_0_bear_35_n02134418_2714.png,n02134418_2714.png,1.0,-0.45209026,-0.81685793,0.2579297
alexnet_w1_mlp_simclrhn_probe1,1,244,NaN,bear,bear,0,0244_pow_dnn_0_bear_35_n02132136_900.png,n02132136_900.png,1.0,5.3053308,1.1053624,2.9698262
alexnet_w1_mlp_simclrhn_probe1,1,245,NaN,dog,dog,0,0245_pow_dnn_0_dog_35_n02095889_7413.png,n02095889_7413.png,1.0,-0.11119949,-1.7991508,1.1935618
alexnet_w1_mlp_simclrhn_probe1,1,246,NaN,boat,boat,0,0246_pow_dnn_0_boat_35_n02951358_14877.png,n02951358_14877.png,1.0,-1.2226646,-1.2280343,0.0037969253
alexnet_w1_mlp_simclrhn_probe1,1,247,NaN,knife,knife,pow,0247_pow_dnn_pow_knife_35_n03041632_42472.png,n03041632_42472.png,1.0,0.7267283,0.44021973,0.20259216
alexnet_w1_mlp_simclrhn_probe1,1,248,NaN,bottle,bottle,pow,0248_pow_dnn_pow_bottle_35_n02823428_12740.png,n02823428_12740.png,1.0,0.543563,-3.168313,2.6246927
alexnet_w1_mlp_simclrhn_probe1,1,249,NaN,car,boat,0,0249_pow_dnn_0_boat_35_n02951358_2537.png,n02951358_2537.png,0.0,-1.3087946,0.103093706,-0.99835587
alexnet_w1_mlp_simclrhn_probe1,1,250,NaN,dog,dog,0,0250_pow_dnn_0_dog_35_n02106166_5135.png,n02106166_5135.png,1.0,-0.3478078,-1.8056093,1.0308214
alexnet_w1_mlp_simclrhn_probe1,1,251,NaN,oven,oven,pow,0251_pow_dnn_pow_oven_35_n04111531_23046.png,n04111531_23046.png,1.0,3.2261834,-1.7884506,3.5458817
alexnet_w1_mlp_simclrhn_probe1,1,252,NaN,bear,dog,pow,0252_pow_dnn_pow_dog_35_n02105855_3310.png,n02105855_3310.png,0.0,-0.21139888,0.29450002,-0.35772455
alexnet_w1_mlp_simclrhn_probe1,1,253,NaN,bird,bird,0,0253_pow_dnn_0_bird_35_n01843383_2122.png,n01843383_2122.png,1.0,-1.8459504,-2.803873,0.6773536
alexnet_w1_mlp_simclrhn_probe1,1,254,NaN,elephant,boat,pow,0254_pow_dnn_pow_boat_35_n03344393_8407.png,n03344393_8407.png,0.0,-3.1041095,0.09736562,-2.263785
alexnet_w1_mlp_simclrhn_probe1,1,255,NaN,clock,clock,pow,0255_pow_dnn_pow_clock_35_n04548280_4739.png,n04548280_4739.png,1.0,-2.0185459,-2.203817,0.1310064
alexnet_w1_mlp_simclrhn_probe1,1,256,NaN,keyboard,keyboard,0,0256_pow_dnn_0_keyboard_35_n04505470_3531.png,n04505470_3531.png,1.0,4.369782,-0.12574458,3.1788173
alexnet_w1_mlp_simclrhn_probe1,1,257,NaN,elephant,airplane,pow,0257_pow_dnn_pow_airplane_35_n02690373_7740.png,n02690373_7740.png,0.0,-2.8614764,-0.900886,-1.3863468
alexnet_w1_mlp_simclrhn_probe1,1,258,NaN,bear,bear,pow,0258_pow_dnn_pow_bear_35_n02132136_4699.png,n02132136_4699.png,1.0,4.8361673,0.607439,2.9901626
alexnet_w1_mlp_simclrhn_probe1,1,259,NaN,airplane,airplane,pow,0259_pow_dnn_pow_airplane_35_n02690373_5277.png,n02690373_5277.png,1.0,0.82282335,-1.4894813,1.6350464
alexnet_w1_mlp_simclrhn_probe1,1,260,NaN,bottle,clock,pow,0260_pow_dnn_pow_clock_35_n04548280_8841.png,n04548280_8841.png,0.0,-0.44026074,-0.008410671,-0.30536413
alexnet_w1_mlp_simclrhn_probe1,1,261,NaN,oven,truck,pow,0261_pow_dnn_pow_truck_35_n03796401_142.png,n03796401_142.png,0.0,-5.897822,2.5069547,-5.9430747
alexnet_w1_mlp_simclrhn_probe1,1,262,NaN,bear,bear,pow,0262_pow_dnn_pow_bear_35_n02134418_4666.png,n02134418_4666.png,1.0,0.74556774,-0.18434766,0.6575495
alexnet_w1_mlp_simclrhn_probe1,1,263,NaN,chair,chair,0,0263_pow_dnn_0_chair_35_n04429376_17074.png,n04429376_17074.png,1.0,-2.3571322,-3.2257798,0.6142266
alexnet_w1_mlp_simclrhn_probe1,1,264,NaN,dog,dog,0,0264_pow_dnn_0_dog_35_n02107683_1934.png,n02107683_1934.png,1.0,2.7548995,-0.89964503,2.5841534
alexnet_w1_mlp_simclrhn_probe1,1,265,NaN,bicycle,bicycle,0,0265_pow_dnn_0_bicycle_35_n03792782_3765.png,n03792782_3765.png,1.0,-0.70509505,-1.7340744,0.72759825
alexnet_w1_mlp_simclrhn_probe1,1,266,NaN,elephant,elephant,pow,0266_pow_dnn_pow_elephant_35_n02504013_7026.png,n02504013_7026.png,1.0,6.115926,1.3537848,3.3673425
alexnet_w1_mlp_simclrhn_probe1,1,267,NaN,elephant,clock,pow,0267_pow_dnn_pow_clock_35_n03196217_3063.png,n03196217_3063.png,0.0,-7.217194,-1.8753045,-3.7772863
alexnet_w1_mlp_simclrhn_probe1,1,268,NaN,elephant,bear,pow,0268_pow_dnn_pow_bear_35_n02134418_1041.png,n02134418_1041.png,0.0,1.7934204,2.4032795,-0.43123552
alexnet_w1_mlp_simclrhn_probe1,1,269,NaN,boat,boat,pow,0269_pow_dnn_pow_boat_35_n03344393_8258.png,n03344393_8258.png,1.0,-1.5363926,-2.0254428,0.34581077
alexnet_w1_mlp_simclrhn_probe1,1,270,NaN,oven,oven,0,0270_pow_dnn_0_oven_35_n04111531_10306.png,n04111531_10306.png,1.0,5.9075375,0.75921625,3.6404128
alexnet_w1_mlp_simclrhn_probe1,1,271,NaN,clock,bottle,0,0271_pow_dnn_0_bottle_35_n02823428_641.png,n02823428_641.png,0.0,0.03999996,1.9742765,-1.3677402
alexnet_w1_mlp_simclrhn_probe1,1,272,NaN,oven,oven,pow,0272_pow_dnn_pow_oven_35_n04111531_1873.png,n04111531_1873.png,1.0,1.3324405,-2.0697274,2.405696
alexnet_w1_mlp_simclrhn_probe1,1,273,NaN,bear,bear,0,0273_pow_dnn_0_bear_35_n02134418_559.png,n02134418_559.png,1.0,2.5577798,0.3101791,1.5892936
alexnet_w1_mlp_simclrhn_probe1,1,274,NaN,oven,keyboard,pow,0274_pow_dnn_pow_keyboard_35_n04505470_4844.png,n04505470_4844.png,0.0,-1.5974829,1.41819,-2.132403
alexnet_w1_mlp_simclrhn_probe1,1,275,NaN,keyboard,keyboard,0,0275_pow_dnn_0_keyboard_35_n03085013_23291.png,n03085013_23291.png,1.0,3.9711852,0.43051282,2.5036335
alexnet_w1_mlp_simclrhn_probe1,1,276,NaN,car,car,0,0276_pow_dnn_0_car_35_n03100240_5808.png,n03100240_5808.png,1.0,10.776647,5.239257,3.915526
alexnet_w1_mlp_simclrhn_probe1,1,277,NaN,boat,bear,0,0277_pow_dnn_0_bear_35_n02134084_15968.png,n02134084_15968.png,0.0,-2.1236084,-1.078151,-0.73925
alexnet_w1_mlp_simclrhn_probe1,1,278,NaN,bear,cat,0,0278_pow_dnn_0_cat_35_n02125311_20238.png,n02125311_20238.png,0.0,-2.1091135,1.3207006,-2.4252448
alexnet_w1_mlp_simclrhn_probe1,1,279,NaN,bird,bird,0,0279_pow_dnn_0_bird_35_n02028035_8994.png,n02028035_8994.png,1.0,-0.0035169087,-0.14507917,0.10009963
alexnet_w1_mlp_simclrhn_probe1,1,280,NaN,knife,airplane,pow,0280_pow_dnn_pow_airplane_35_n02690373_4471.png,n02690373_4471.png,0.0,-0.45820192,-0.144952,-0.22150114
alexnet_w1_mlp_simclrhn_probe1,1,281,NaN,car,truck,0,0281_pow_dnn_0_truck_35_n03796401_322.png,n03796401_322.png,0.0,7.3243217,9.534779,-1.563029
alexnet_w1_mlp_simclrhn_probe1,1,282,NaN,oven,car,pow,0282_pow_dnn_pow_car_35_n04285008_402.png,n04285008_402.png,0.0,-6.2001452,-1.0893847,-3.6138537
alexnet_w1_mlp_simclrhn_probe1,1,283,NaN,oven,oven,0,0283_pow_dnn_0_oven_35_n04111531_807.png,n04111531_807.png,1.0,1.4206434,-1.8903008,2.341191
alexnet_w1_mlp_simclrhn_probe1,1,284,NaN,oven,oven,0,0284_pow_dnn_0_oven_35_n04111531_20369.png,n04111531_20369.png,1.0,6.594301,-4.2970214,7.7013288
alexnet_w1_mlp_simclrhn_probe1,1,285,NaN,oven,knife,pow,0285_pow_dnn_pow_knife_35_n03041632_24114.png,n03041632_24114.png,0.0,-2.247221,-0.60287166,-1.1627306
alexnet_w1_mlp_simclrhn_probe1,1,286,NaN,elephant,dog,0,0286_pow_dnn_0_dog_35_n02093256_1102.png,n02093256_1102.png,0.0,-1.5952616,-0.03801644,-1.1011386
alexnet_w1_mlp_simclrhn_probe1,1,287,NaN,bottle,bottle,0,0287_pow_dnn_0_bottle_35_n03983396_17636.png,n03983396_17636.png,1.0,6.488392,1.1168028,3.7982872
alexnet_w1_mlp_simclrhn_probe1,1,288,NaN,elephant,bird,0,0288_pow_dnn_0_bird_35_n01855672_55167.png,n01855672_55167.png,0.0,-2.559272,-1.1617494,-0.9881978
alexnet_w1_mlp_simclrhn_probe1,1,289,NaN,bottle,bottle,0,0289_pow_dnn_0_bottle_35_n02823428_1149.png,n02823428_1149.png,1.0,-0.5788856,-0.8156404,0.16741091
alexnet_w1_mlp_simclrhn_probe1,1,290,NaN,oven,truck,pow,0290_pow_dnn_pow_truck_35_n03417042_1182.png,n03417042_1182.png,0.0,-4.1280255,1.4708947,-3.9590347
alexnet_w1_mlp_simclrhn_probe1,1,291,NaN,bear,bear,0,0291_pow_dnn_0_bear_35_n02134084_22051.png,n02134084_22051.png,1.0,3.6186743,0.6834104,2.075545
alexnet_w1_mlp_simclrhn_probe1,1,292,NaN,elephant,cat,pow,0292_pow_dnn_pow_cat_35_n02123159_5170.png,n02123159_5170.png,0.0,-1.6723658,0.061768204,-1.2262179
alexnet_w1_mlp_simclrhn_probe1,1,293,NaN,airplane,airplane,pow,0293_pow_dnn_pow_airplane_35_n02690373_4042.png,n02690373_4042.png,1.0,1.0173666,-1.0437536,1.4574322
alexnet_w1_mlp_simclrhn_probe1,1,294,NaN,oven,airplane,pow,0294_pow_dnn_pow_airplane_35_n02690373_6231.png,n02690373_6231.png,0.0,-2.0034363,-1.3855033,-0.43694463
alexnet_w1_mlp_simclrhn_probe1,1,295,NaN,bear,bear,0,0295_pow_dnn_0_bear_35_n02134418_4657.png,n02134418_4657.png,1.0,2.967912,1.8876734,0.763844
alexnet_w1_mlp_simclrhn_probe1,1,296,NaN,car,car,0,0296_pow_dnn_0_car_35_n03100240_24505.png,n03100240_24505.png,1.0,5.8200097,1.6785805,2.9284325
alexnet_w1_mlp_simclrhn_probe1,1,297,NaN,bird,bird,0,0297_pow_dnn_0_bird_35_n02006656_4031.png,n02006656_4031.png,1.0,-0.66151404,-2.3809915,1.2158542
alexnet_w1_mlp_simclrhn_probe1,1,298,NaN,truck,truck,0,0298_pow_dnn_0_truck_35_n03796401_20861.png,n03796401_20861.png,1.0,3.0851254,2.3595405,0.51306605
alexnet_w1_mlp_simclrhn_probe1,1,299,NaN,oven,truck,0,0299_pow_dnn_0_truck_35_n03417042_4934.png,n03417042_4934.png,0.0,-0.4400104,4.784505,-3.6942904
alexnet_w1_mlp_simclrhn_probe1,1,300,NaN,bicycle,bird,0,0300_pow_dnn_0_bird_35_n01824575_3046.png,n01824575_3046.png,0.0,-2.7921512,-2.0594873,-0.5180716
alexnet_w1_mlp_simclrhn_probe1,1,301,NaN,elephant,elephant,pow,0301_pow_dnn_pow_elephant_35_n02504458_3463.png,n02504458_3463.png,1.0,0.7396463,-1.1904838,1.3648081
alexnet_w1_mlp_simclrhn_probe1,1,302,NaN,airplane,airplane,0,0302_pow_dnn_0_airplane_35_n02690373_6914.png,n02690373_6914.png,1.0,8.172459,2.606283,3.9358804
alexnet_w1_mlp_simclrhn_probe1,1,303,NaN,bottle,bottle,0,0303_pow_dnn_0_bottle_35_n03983396_3675.png,n03983396_3675.png,1.0,-1.7110369,-2.3675854,0.4642499
alexnet_w1_mlp_simclrhn_probe1,1,304,NaN,cat,dog,pow,0304_pow_dnn_pow_dog_35_n02088364_12272.png,n02088364_12272.png,0.0,-0.041171048,1.0595347,-0.7783165
alexnet_w1_mlp_simclrhn_probe1,1,305,NaN,dog,dog,0,0305_pow_dnn_0_dog_35_n02085936_1706.png,n02085936_1706.png,1.0,0.7621781,-1.7881163,1.8033305
alexnet_w1_mlp_simclrhn_probe1,1,306,NaN,elephant,bear,0,0306_pow_dnn_0_bear_35_n02134084_18372.png,n02134084_18372.png,0.0,1.4027762,1.7867292,-0.27149576
alexnet_w1_mlp_simclrhn_probe1,1,307,NaN,keyboard,keyboard,0,0307_pow_dnn_0_keyboard_35_n04505470_751.png,n04505470_751.png,1.0,2.891553,-0.01289006,2.0537515
alexnet_w1_mlp_simclrhn_probe1,1,308,NaN,bird,bird,0,0308_pow_dnn_0_bird_35_n02018207_19525.png,n02018207_19525.png,1.0,-1.5793757,-2.5596466,0.6931562
alexnet_w1_mlp_simclrhn_probe1,1,309,NaN,oven,bicycle,pow,0309_pow_dnn_pow_bicycle_35_n02835271_3329.png,n02835271_3329.png,0.0,-2.2780435,-0.1244674,-1.5228083
alexnet_w1_mlp_simclrhn_probe1,1,310,NaN,cat,clock,pow,0310_pow_dnn_pow_clock_35_n04548280_1960.png,n04548280_1960.png,0.0,-2.747196,-2.0698082,-0.47898546
alexnet_w1_mlp_simclrhn_probe1,1,311,NaN,chair,chair,0,0311_pow_dnn_0_chair_35_n03376595_6240.png,n03376595_6240.png,1.0,1.9954228,-2.159259,2.937804
alexnet_w1_mlp_simclrhn_probe1,1,312,NaN,bear,knife,pow,0312_pow_dnn_pow_knife_35_n03041632_13194.png,n03041632_13194.png,0.0,-1.5695829,0.3831203,-1.3807697
alexnet_w1_mlp_simclrhn_probe1,1,313,NaN,bicycle,knife,0,0313_pow_dnn_0_knife_35_n03041632_13465.png,n03041632_13465.png,0.0,-8.144188,-1.5483866,-4.663936
alexnet_w1_mlp_simclrhn_probe1,1,314,NaN,cat,cat,pow,0314_pow_dnn_pow_cat_35_n02125311_10174.png,n02125311_10174.png,1.0,1.0282388,-0.6789417,1.2071589
alexnet_w1_mlp_simclrhn_probe1,1,315,NaN,oven,car,pow,0315_pow_dnn_pow_car_35_n02814533_7420.png,n02814533_7420.png,0.0,-3.5881062,1.8237922,-3.8267903
alexnet_w1_mlp_simclrhn_probe1,1,316,NaN,elephant,truck,pow,0316_pow_dnn_pow_truck_35_n04467665_3876.png,n04467665_3876.png,0.0,-4.125066,-1.6631647,-1.7408271
alexnet_w1_mlp_simclrhn_probe1,1,317,NaN,airplane,airplane,0,0317_pow_dnn_0_airplane_35_n02690373_12976.png,n02690373_12976.png,1.0,7.633109,1.3086765,4.472049
alexnet_w1_mlp_simclrhn_probe1,1,318,NaN,elephant,bear,pow,0318_pow_dnn_pow_bear_35_n02133161_10441.png,n02133161_10441.png,0.0,2.2073934,2.2596521,-0.036952503
alexnet_w1_mlp_simclrhn_probe1,1,319,NaN,cat,chair,pow,0319_pow_dnn_pow_chair_35_n03376595_13703.png,n03376595_13703.png,0.0,-3.966835,0.078040875,-2.8601594
alexnet_w1_mlp_simclrhn_probe1,1,320,NaN,bicycle,bicycle,pow,0320_pow_dnn_pow_bicycle_35_n03792782_11625.png,n03792782_11625.png,1.0,1.2551875,-1.7653145,2.1358175
alexnet_w1_mlp_simclrhn_probe1,1,321,NaN,oven,oven,pow,0321_pow_dnn_pow_oven_35_n04111531_22797.png,n04111531_22797.png,1.0,1.1517541,-0.9948263,1.5178616
alexnet_w1_mlp_simclrhn_probe1,1,322,NaN,elephant,chair,pow,0322_pow_dnn_pow_chair_35_n03376595_9651.png,n03376595_9651.png,0.0,-3.711724,-0.07196244,-2.5737002
alexnet_w1_mlp_simclrhn_probe1,1,323,NaN,bicycle,bicycle,pow,0323_pow_dnn_pow_bicycle_35_n03792782_4830.png,n03792782_4830.png,1.0,-0.97677076,-1.1522601,0.12408968
alexnet_w1_mlp_simclrhn_probe1,1,324,NaN,elephant,elephant,pow,0324_pow_dnn_pow_elephant_35_n02504013_7191.png,n02504013_7191.png,1.0,-0.6318693,-0.9733715,0.24147852
alexnet_w1_mlp_simclrhn_probe1,1,325,NaN,knife,knife,0,0325_pow_dnn_0_knife_35_n03041632_120.png,n03041632_120.png,1.0,1.7466781,-0.56722915,1.6361794
alexnet_w1_mlp_simclrhn_probe1,1,326,NaN,knife,airplane,pow,0326_pow_dnn_pow_airplane_35_n02690373_5465.png,n02690373_5465.png,0.0,-4.837754,-1.2681549,-2.5240877
alexnet_w1_mlp_simclrhn_probe1,1,327,NaN,car,car,pow,0327_pow_dnn_pow_car_35_n04285008_8443.png,n04285008_8443.png,1.0,-0.31397274,-1.5820906,0.8966948
alexnet_w1_mlp_simclrhn_probe1,1,328,NaN,bottle,bottle,0,0328_pow_dnn_0_bottle_35_n04557648_132.png,n04557648_132.png,1.0,6.6780324,-0.35205472,4.971022
alexnet_w1_mlp_simclrhn_probe1,1,329,NaN,airplane,airplane,pow,0329_pow_dnn_pow_airplane_35_n02690373_18304.png,n02690373_18304.png,1.0,0.7698537,-1.914344,1.8980144
alexnet_w1_mlp_simclrhn_probe1,1,330,NaN,oven,knife,pow,0330_pow_dnn_pow_knife_35_n03041632_102764.png,n03041632_102764.png,0.0,-0.6547382,-0.27841407,-0.26610133
alexnet_w1_mlp_simclrhn_probe1,1,331,NaN,oven,chair,pow,0331_pow_dnn_pow_chair_35_n02791124_16913.png,n02791124_16913.png,0.0,-1.841397,0.32048008,-1.528678
alexnet_w1_mlp_simclrhn_probe1,1,332,NaN,bicycle,bicycle,pow,0332_pow_dnn_pow_bicycle_35_n02835271_324.png,n02835271_324.png,1.0,-0.8574756,-1.1359564,0.19691569
alexnet_w1_mlp_simclrhn_probe1,1,333,NaN,airplane,airplane,pow,0333_pow_dnn_pow_airplane_35_n02690373_12966.png,n02690373_12966.png,1.0,0.9514213,-0.7989391,1.2376918
alexnet_w1_mlp_simclrhn_probe1,1,334,NaN,elephant,keyboard,pow,0334_pow_dnn_pow_keyboard_35_n03085013_24653.png,n03085013_24653.png,0.0,-6.5794945,0.35673043,-4.9046516
alexnet_w1_mlp_simclrhn_probe1,1,335,NaN,bicycle,bicycle,0,0335_pow_dnn_0_bicycle_35_n03792782_18529.png,n03792782_18529.png,1.0,4.508702,-2.3111129,4.822337
alexnet_w1_mlp_simclrhn_probe1,1,336,NaN,airplane,airplane,pow,0336_pow_dnn_pow_airplane_35_n02690373_2433.png,n02690373_2433.png,1.0,-0.16410765,-0.97365093,0.57243353
alexnet_w1_mlp_simclrhn_probe1,1,337,NaN,elephant,cat,0,0337_pow_dnn_0_cat_35_n02125311_28447.png,n02125311_28447.png,0.0,-5.042503,-0.25904036,-3.3824189
alexnet_w1_mlp_simclrhn_probe1,1,338,NaN,knife,knife,0,0338_pow_dnn_0_knife_35_n03041632_20504.png,n03041632_20504.png,1.0,0.90962034,-0.40359688,0.92858475
alexnet_w1_mlp_simclrhn_probe1,1,339,NaN,bear,bear,pow,0339_pow_dnn_pow_bear_35_n02132136_15870.png,n02132136_15870.png,1.0,-0.16908225,-0.7718719,0.42623666
alexnet_w1_mlp_simclrhn_probe1,1,340,NaN,car,car,0,0340_pow_dnn_0_car_35_n02814533_11273.png,n02814533_11273.png,1.0,5.7440867,4.3737655,0.9689635
alexnet_w1_mlp_simclrhn_probe1,1,341,NaN,elephant,elephant,0,0341_pow_dnn_0_elephant_35_n02504013_2476.png,n02504013_2476.png,1.0,9.6979885,-0.83966357,7.4512453
alexnet_w1_mlp_simclrhn_probe1,1,342,NaN,bear,bear,0,0342_pow_dnn_0_bear_35_n02133161_14945.png,n02133161_14945.png,1.0,-2.6315598,-2.8672447,0.16665438
alexnet_w1_mlp_simclrhn_probe1,1,343,NaN,car,car,0,0343_pow_dnn_0_car_35_n04285008_7870.png,n04285008_7870.png,1.0,2.7508705,2.1659064,0.41363204
alexnet_w1_mlp_simclrhn_probe1,1,344,NaN,airplane,airplane,0,0344_pow_dnn_0_airplane_35_n02690373_10129.png,n02690373_10129.png,1.0,8.22323,3.1551144,3.5836995
alexnet_w1_mlp_simclrhn_probe1,1,345,NaN,oven,truck,pow,0345_pow_dnn_pow_truck_35_n03417042_1479.png,n03417042_1479.png,0.0,-4.8424864,1.0164236,-4.142875
alexnet_w1_mlp_simclrhn_probe1,1,346,NaN,bear,boat,pow,0346_pow_dnn_pow_boat_35_n04612504_10662.png,n04612504_10662.png,0.0,-3.3031204,-0.130718,-2.2432272
alexnet_w1_mlp_simclrhn_probe1,1,347,NaN,bird,bird,0,0347_pow_dnn_0_bird_35_n02056570_5891.png,n02056570_5891.png,1.0,-1.1006576,-1.1897604,0.06300524
alexnet_w1_mlp_simclrhn_probe1,1,348,NaN,elephant,elephant,pow,0348_pow_dnn_pow_elephant_35_n02504458_5982.png,n02504458_5982.png,1.0,4.20763,0.8841639,2.3500457
alexnet_w1_mlp_simclrhn_probe1,1,349,NaN,elephant,truck,pow,0349_pow_dnn_pow_truck_35_n03417042_19955.png,n03417042_19955.png,0.0,-1.5039284,-1.1395814,-0.25763223
alexnet_w1_mlp_simclrhn_probe1,1,350,NaN,oven,oven,0,0350_pow_dnn_0_oven_35_n04111531_6120.png,n04111531_6120.png,1.0,6.493789,-1.7987653,5.863722
alexnet_w1_mlp_simclrhn_probe1,1,351,NaN,oven,oven,0,0351_pow_dnn_0_oven_35_n04111531_4750.png,n04111531_4750.png,1.0,1.7180697,-2.8640661,3.2400594
alexnet_w1_mlp_simclrhn_probe1,1,352,NaN,boat,boat,0,0352_pow_dnn_0_boat_35_n02951358_29779.png,n02951358_29779.png,1.0,1.4253776,-1.3817859,1.9849644
alexnet_w1_mlp_simclrhn_probe1,1,353,NaN,bear,bear,0,0353_pow_dnn_0_bear_35_n02134084_14168.png,n02134084_14168.png,1.0,0.30531403,-1.3574764,1.1757704
alexnet_w1_mlp_simclrhn_probe1,1,354,NaN,cat,cat,0,0354_pow_dnn_0_cat_35_n02123597_6990.png,n02123597_6990.png,1.0,1.2135254,0.27809265,0.66145086
alexnet_w1_mlp_simclrhn_probe1,1,355,NaN,chair,chair,0,0355_pow_dnn_0_chair_35_n02791124_2008.png,n02791124_2008.png,1.0,3.9880033,-1.5492841,3.9154534
alexnet_w1_mlp_simclrhn_probe1,1,356,NaN,knife,car,pow,0356_pow_dnn_pow_car_35_n04285008_2185.png,n04285008_2185.png,0.0,-3.1138172,-0.9910536,-1.5010206
alexnet_w1_mlp_simclrhn_probe1,1,357,NaN,bear,bear,0,0357_pow_dnn_0_bear_35_n02134084_13205.png,n02134084_13205.png,1.0,0.64078295,0.16921547,0.33344856
alexnet_w1_mlp_simclrhn_probe1,1,358,NaN,elephant,bird,pow,0358_pow_dnn_pow_bird_35_n01558993_6351.png,n01558993_6351.png,0.0,-3.2184234,1.5920397,-3.401511
alexnet_w1_mlp_simclrhn_probe1,1,359,NaN,bicycle,bicycle,0,0359_pow_dnn_0_bicycle_35_n02835271_8017.png,n02835271_8017.png,1.0,2.6027775,1.226957,0.97285205
alexnet_w1_mlp_simclrhn_probe1,1,360,NaN,cat,cat,0,0360_pow_dnn_0_cat_35_n02124075_4189.png,n02124075_4189.png,1.0,4.5831404,-3.1723452,5.4839563
alexnet_w1_mlp_simclrhn_probe1,1,361,NaN,elephant,elephant,pow,0361_pow_dnn_pow_elephant_35_n02504458_3616.png,n02504458_3616.png,1.0,6.089544,2.0498796,2.8564742
alexnet_w1_mlp_simclrhn_probe1,1,362,NaN,elephant,boat,pow,0362_pow_dnn_pow_boat_35_n04612504_8636.png,n04612504_8636.png,0.0,0.8090385,1.3084404,-0.3531305
alexnet_w1_mlp_simclrhn_probe1,1,363,NaN,oven,car,pow,0363_pow_dnn_pow_car_35_n03100240_10502.png,n03100240_10502.png,0.0,-4.5806823,-0.61187637,-2.8063695
alexnet_w1_mlp_simclrhn_probe1,1,364,NaN,bottle,bottle,0,0364_pow_dnn_0_bottle_35_n03983396_2271.png,n03983396_2271.png,1.0,-1.8881885,-4.9400177,2.1579692
alexnet_w1_mlp_simclrhn_probe1,1,365,NaN,clock,clock,0,0365_pow_dnn_0_clock_35_n04548280_280.png,n04548280_280.png,1.0,2.5039155,0.6311373,1.3242542
alexnet_w1_mlp_simclrhn_probe1,1,366,NaN,airplane,truck,0,0366_pow_dnn_0_truck_35_n04467665_356.png,n04467665_356.png,0.0,1.0596769,3.2081466,-1.5191975
alexnet_w1_mlp_simclrhn_probe1,1,367,NaN,airplane,airplane,0,0367_pow_dnn_0_airplane_35_n02690373_306.png,n02690373_306.png,1.0,8.763061,-0.7516113,6.7278895
alexnet_w1_mlp_simclrhn_probe1,1,368,NaN,elephant,bird,pow,0368_pow_dnn_pow_bird_35_n02007558_11331.png,n02007558_11331.png,0.0,-2.5497286,2.3707278,-3.479288
alexnet_w1_mlp_simclrhn_probe1,1,369,NaN,knife,dog,0,0369_pow_dnn_0_dog_35_n02105162_1003.png,n02105162_1003.png,0.0,-1.5033653,-1.1371061,-0.2589844
alexnet_w1_mlp_simclrhn_probe1,1,370,NaN,bear,bird,pow,0370_pow_dnn_pow_bird_35_n01534433_11695.png,n01534433_11695.png,0.0,-2.651467,0.46738425,-2.2053611
alexnet_w1_mlp_simclrhn_probe1,1,371,NaN,oven,oven,0,0371_pow_dnn_0_oven_35_n04111531_19631.png,n04111531_19631.png,1.0,6.979871,1.1103348,4.1503887
alexnet_w1_mlp_simclrhn_probe1,1,372,NaN,elephant,elephant,pow,0372_pow_dnn_pow_elephant_35_n02504013_8534.png,n02504013_8534.png,1.0,2.420814,0.45476383,1.3902074
alexnet_w1_mlp_simclrhn_probe1,1,373,NaN,keyboard,oven,0,0373_pow_dnn_0_oven_35_n04111531_10436.png,n04111531_10436.png,0.0,1.6598836,2.4004865,-0.52368534
alexnet_w1_mlp_simclrhn_probe1,1,374,NaN,airplane,airplane,pow,0374_pow_dnn_pow_airplane_35_n02690373_1819.png,n02690373_1819.png,1.0,0.53705406,-1.460358,1.4123837
alexnet_w1_mlp_simclrhn_probe1,1,375,NaN,knife,cat,0,0375_pow_dnn_0_cat_35_n02123597_14032.png,n02123597_14032.png,0.0,-2.6480048,-1.0579896,-1.1243105
alexnet_w1_mlp_simclrhn_probe1,1,376,NaN,elephant,elephant,0,0376_pow_dnn_0_elephant_35_n02504013_10922.png,n02504013_10922.png,1.0,1.6191442,-2.9453702,3.227599
alexnet_w1_mlp_simclrhn_probe1,1,377,NaN,boat,boat,0,0377_pow_dnn_0_boat_35_n03662601_81.png,n03662601_81.png,1.0,1.7089695,0.4706239,0.8756426
alexnet_w1_mlp_simclrhn_probe1,1,378,NaN,bottle,bottle,pow,0378_pow_dnn_pow_bottle_35_n03937543_11347.png,n03937543_11347.png,1.0,-0.66428864,-1.1043975,0.311204
alexnet_w1_mlp_simclrhn_probe1,1,379,NaN,oven,knife,pow,0379_pow_dnn_pow_knife_35_n03041632_85416.png,n03041632_85416.png,0.0,-2.1914475,0.6173724,-1.9861355
alexnet_w1_mlp_simclrhn_probe1,1,380,NaN,car,car,pow,0380_pow_dnn_pow_car_35_n03100240_15676.png,n03100240_15676.png,1.0,0.4778444,-0.33257893,0.5730558
alexnet_w1_mlp_simclrhn_probe1,1,381,NaN,oven,oven,0,0381_pow_dnn_0_oven_35_n04111531_4189.png,n04111531_4189.png,1.0,4.922465,-0.64422745,3.936246
alexnet_w1_mlp_simclrhn_probe1,1,382,NaN,oven,car,pow,0382_pow_dnn_pow_car_35_n02814533_65623.png,n02814533_65623.png,0.0,-3.1890364,-2.4817343,-0.5001381
alexnet_w1_mlp_simclrhn_probe1,1,383,NaN,airplane,airplane,0,0383_pow_dnn_0_airplane_35_n02690373_4945.png,n02690373_4945.png,1.0,12.057852,-2.7833564,10.494319
alexnet_w1_mlp_simclrhn_probe1,1,384,NaN,bicycle,dog,0,0384_pow_dnn_0_dog_35_n02088364_5801.png,n02088364_5801.png,0.0,-1.7105633,-0.9488821,-0.53858995
alexnet_w1_mlp_simclrhn_probe1,1,385,NaN,bear,dog,pow,0385_pow_dnn_pow_dog_35_n02108915_8164.png,n02108915_8164.png,0.0,-1.7384722,-0.084129155,-1.1697973
alexnet_w1_mlp_simclrhn_probe1,1,386,NaN,car,car,0,0386_pow_dnn_0_car_35_n03100240_1435.png,n03100240_1435.png,1.0,10.113086,6.942177,2.2421713
alexnet_w1_mlp_simclrhn_probe1,1,387,NaN,chair,clock,0,0387_pow_dnn_0_clock_35_n03196217_412.png,n03196217_412.png,0.0,-1.9232141,-0.21047653,-1.2110884
alexnet_w1_mlp_simclrhn_probe1,1,388,NaN,bicycle,boat,pow,0388_pow_dnn_pow_boat_35_n03344393_6713.png,n03344393_6713.png,0.0,-2.2835526,-1.0449755,-0.8758063
alexnet_w1_mlp_simclrhn_probe1,1,389,NaN,knife,knife,0,0389_pow_dnn_0_knife_35_n03041632_4305.png,n03041632_4305.png,1.0,-1.3622788,-1.4333339,0.05024351
alexnet_w1_mlp_simclrhn_probe1,1,390,NaN,oven,car,pow,0390_pow_dnn_pow_car_35_n04285008_10287.png,n04285008_10287.png,0.0,-5.880486,1.2587934,-5.048233
alexnet_w1_mlp_simclrhn_probe1,1,391,NaN,elephant,car,pow,0391_pow_dnn_pow_car_35_n04285008_15071.png,n04285008_15071.png,0.0,-4.4333835,-0.19905981,-2.994119
alexnet_w1_mlp_simclrhn_probe1,1,392,NaN,knife,knife,pow,0392_pow_dnn_pow_knife_35_n03041632_22214.png,n03041632_22214.png,1.0,-0.97506213,-2.6740906,1.2013946
alexnet_w1_mlp_simclrhn_probe1,1,393,NaN,boat,boat,pow,0393_pow_dnn_pow_boat_35_n04612504_3064.png,n04612504_3064.png,1.0,-0.35866538,-0.85300773,0.34955284
alexnet_w1_mlp_simclrhn_probe1,1,394,NaN,chair,chair,0,0394_pow_dnn_0_chair_35_n02791124_7193.png,n02791124_7193.png,1.0,3.2231665,-0.7960577,2.8420208
alexnet_w1_mlp_simclrhn_probe1,1,395,NaN,boat,boat,0,0395_pow_dnn_0_boat_35_n03344393_5511.png,n03344393_5511.png,1.0,6.9405737,1.3308859,3.9666483
alexnet_w1_mlp_simclrhn_probe1,1,396,NaN,boat,boat,pow,0396_pow_dnn_pow_boat_35_n04273569_11997.png,n04273569_11997.png,1.0,-0.40479392,-0.746028,0.24128895
alexnet_w1_mlp_simclrhn_probe1,1,397,NaN,bicycle,bicycle,0,0397_pow_dnn_0_bicycle_35_n03792782_1424.png,n03792782_1424.png,1.0,-0.6857953,-1.7112355,0.72509575
alexnet_w1_mlp_simclrhn_probe1,1,398,NaN,oven,clock,pow,0398_pow_dnn_pow_clock_35_n03196217_3362.png,n03196217_3362.png,0.0,-5.0085993,-0.58937573,-3.1248631
alexnet_w1_mlp_simclrhn_probe1,1,399,NaN,elephant,truck,pow,0399_pow_dnn_pow_truck_35_n04467665_21942.png,n04467665_21942.png,0.0,-4.2658963,1.4585347,-4.047784
alexnet_w1_mlp_simclrhn_probe1,1,400,NaN,oven,oven,0,0400_pow_dnn_0_oven_35_n04111531_6445.png,n04111531_6445.png,1.0,4.9471536,0.79978657,2.9326315
alexnet_w1_mlp_simclrhn_probe1,1,401,NaN,chair,chair,0,0401_pow_dnn_0_chair_35_n04099969_1163.png,n04099969_1163.png,1.0,3.9572175,-1.4956088,3.8557308
alexnet_w1_mlp_simclrhn_probe1,1,402,NaN,clock,clock,pow,0402_pow_dnn_pow_clock_35_n02708093_3645.png,n02708093_3645.png,1.0,0.96905994,-0.056368537,0.72508746
alexnet_w1_mlp_simclrhn_probe1,1,403,NaN,bicycle,bicycle,0,0403_pow_dnn_0_bicycle_35_n03792782_68319.png,n03792782_68319.png,1.0,6.3450985,-4.106664,7.390513
alexnet_w1_mlp_simclrhn_probe1,1,404,NaN,elephant,dog,pow,0404_pow_dnn_pow_dog_35_n02111129_513.png,n02111129_513.png,0.0,-0.3828688,3.8757133,-3.0112724
alexnet_w1_mlp_simclrhn_probe1,1,405,NaN,airplane,airplane,pow,0405_pow_dnn_pow_airplane_35_n02690373_2676.png,n02690373_2676.png,1.0,1.5866319,-0.79964757,1.6873544
alexnet_w1_mlp_simclrhn_probe1,1,406,NaN,airplane,airplane,0,0406_pow_dnn_0_airplane_35_n02690373_1206.png,n02690373_1206.png,1.0,-0.3576365,-2.0033388,1.1636873
alexnet_w1_mlp_simclrhn_probe1,1,407,NaN,dog,dog,0,0407_pow_dnn_0_dog_35_n02100735_1445.png,n02100735_1445.png,1.0,4.1176124,-3.0726726,5.084299
alexnet_w1_mlp_simclrhn_probe1,1,408,NaN,bear,dog,pow,0408_pow_dnn_pow_dog_35_n02102040_312.png,n02102040_312.png,0.0,-2.0464418,-1.7061747,-0.24060515
alexnet_w1_mlp_simclrhn_probe1,1,409,NaN,keyboard,keyboard,0,0409_pow_dnn_0_keyboard_35_n03085013_22996.png,n03085013_22996.png,1.0,5.046289,-0.0007881373,3.5688226
alexnet_w1_mlp_simclrhn_probe1,1,410,NaN,boat,boat,0,0410_pow_dnn_0_boat_35_n04612504_434.png,n04612504_434.png,1.0,3.5136108,-0.14498103,2.5870152
alexnet_w1_mlp_simclrhn_probe1,1,411,NaN,cat,cat,0,0411_pow_dnn_0_cat_35_n02123597_14639.png,n02123597_14639.png,1.0,3.4238837,0.1805749,2.2933657
alexnet_w1_mlp_simclrhn_probe1,1,412,NaN,cat,cat,pow,0412_pow_dnn_pow_cat_35_n02123159_2043.png,n02123159_2043.png,1.0,1.788222,0.17324993,1.1419576
alexnet_w1_mlp_simclrhn_probe1,1,413,NaN,oven,clock,pow,0413_pow_dnn_pow_clock_35_n03196217_3647.png,n03196217_3647.png,0.0,-4.316721,1.4345076,-4.0667324
alexnet_w1_mlp_simclrhn_probe1,1,414,NaN,oven,oven,0,0414_pow_dnn_0_oven_35_n04111531_19795.png,n04111531_19795.png,1.0,3.1798635,-2.9050038,4.302651
alexnet_w1_mlp_simclrhn_probe1,1,415,NaN,bear,truck,pow,0415_pow_dnn_pow_truck_35_n03417042_18625.png,n03417042_18625.png,0.0,-6.872877,0.12298128,-4.946819
alexnet_w1_mlp_simclrhn_probe1,1,416,NaN,elephant,elephant,pow,0416_pow_dnn_pow_elephant_35_n02504013_1763.png,n02504013_1763.png,1.0,1.5422138,0.6190101,0.6528036
alexnet_w1_mlp_simclrhn_probe1,1,417,NaN,chair,chair,0,0417_pow_dnn_0_chair_35_n04099969_13105.png,n04099969_13105.png,1.0,1.7761717,1.1873736,0.4163431
alexnet_w1_mlp_simclrhn_probe1,1,418,NaN,elephant,bicycle,pow,0418_pow_dnn_pow_bicycle_35_n03792782_4931.png,n03792782_4931.png,0.0,-1.4814112,1.4264933,-2.056199
alexnet_w1_mlp_simclrhn_probe1,1,419,NaN,bear,bear,0,0419_pow_dnn_0_bear_35_n02134418_4513.png,n02134418_4513.png,1.0,2.205615,0.020849302,1.5448627
alexnet_w1_mlp_simclrhn_probe1,1,420,NaN,cat,cat,pow,0420_pow_dnn_pow_cat_35_n02123045_11224.png,n02123045_11224.png,1.0,3.7103398,0.47275954,2.289315
alexnet_w1_mlp_simclrhn_probe1,1,421,NaN,chair,chair,0,0421_pow_dnn_0_chair_35_n02791124_359.png,n02791124_359.png,1.0,-0.34756893,-0.5479441,0.14168666
alexnet_w1_mlp_simclrhn_probe1,1,422,NaN,knife,clock,pow,0422_pow_dnn_pow_clock_35_n04548280_2654.png,n04548280_2654.png,0.0,-4.776255,0.19630726,-3.5161326
alexnet_w1_mlp_simclrhn_probe1,1,423,NaN,bear,cat,pow,0423_pow_dnn_pow_cat_35_n02123394_4713.png,n02123394_4713.png,0.0,-0.9681551,2.2757573,-2.2937925
alexnet_w1_mlp_simclrhn_probe1,1,424,NaN,bear,bottle,pow,0424_pow_dnn_pow_bottle_35_n04557648_94.png,n04557648_94.png,0.0,-4.90305,0.37380838,-3.7313023
alexnet_w1_mlp_simclrhn_probe1,1,425,NaN,chair,chair,0,0425_pow_dnn_0_chair_35_n04099969_15676.png,n04099969_15676.png,1.0,2.8328257,-1.8755896,3.3293521
alexnet_w1_mlp_simclrhn_probe1,1,426,NaN,oven,boat,pow,0426_pow_dnn_pow_boat_35_n02951358_537.png,n02951358_537.png,0.0,-2.3144314,0.40580696,-1.9234991
alexnet_w1_mlp_simclrhn_probe1,1,427,NaN,clock,clock,0,0427_pow_dnn_0_clock_35_n03196217_1376.png,n03196217_1376.png,1.0,1.936355,0.6280547,0.925108
alexnet_w1_mlp_simclrhn_probe1,1,428,NaN,oven,chair,pow,0428_pow_dnn_pow_chair_35_n02791124_1594.png,n02791124_1594.png,0.0,-3.1008396,0.38038093,-2.4615946
alexnet_w1_mlp_simclrhn_probe1,1,429,NaN,bicycle,bird,0,0429_pow_dnn_0_bird_35_n02007558_7112.png,n02007558_7112.png,0.0,-6.4823847,-3.5167449,-2.097024
alexnet_w1_mlp_simclrhn_probe1,1,430,NaN,bicycle,bicycle,0,0430_pow_dnn_0_bicycle_35_n02835271_6094.png,n02835271_6094.png,1.0,6.8443723,-2.9824276,6.9485965
alexnet_w1_mlp_simclrhn_probe1,1,431,NaN,airplane,airplane,pow,0431_pow_dnn_pow_airplane_35_n02690373_7676.png,n02690373_7676.png,1.0,-0.22044756,-1.9461477,1.2202543
alexnet_w1_mlp_simclrhn_probe1,1,432,NaN,cat,cat,pow,0432_pow_dnn_pow_cat_35_n02123045_3375.png,n02123045_3375.png,1.0,3.3853252,0.27385575,2.2001412
alexnet_w1_mlp_simclrhn_probe1,1,433,NaN,bicycle,bicycle,0,0433_pow_dnn_0_bicycle_35_n02835271_15617.png,n02835271_15617.png,1.0,7.294248,-0.6946578,5.6490097
alexnet_w1_mlp_simclrhn_probe1,1,434,NaN,oven,oven,pow,0434_pow_dnn_pow_oven_35_n04111531_4904.png,n04111531_4904.png,1.0,-0.4347785,-0.76877064,0.2361681
alexnet_w1_mlp_simclrhn_probe1,1,435,NaN,boat,boat,0,0435_pow_dnn_0_boat_35_n02951358_5718.png,n02951358_5718.png,1.0,1.3213587,-0.38568693,1.2070636
alexnet_w1_mlp_simclrhn_probe1,1,436,NaN,elephant,elephant,pow,0436_pow_dnn_pow_elephant_35_n02504013_7467.png,n02504013_7467.png,1.0,1.1168125,-0.06286452,0.83415765
alexnet_w1_mlp_simclrhn_probe1,1,437,NaN,elephant,elephant,pow,0437_pow_dnn_pow_elephant_35_n02504013_1830.png,n02504013_1830.png,1.0,10.566273,2.8182592,5.478673
alexnet_w1_mlp_simclrhn_probe1,1,438,NaN,car,car,0,0438_pow_dnn_0_car_35_n02814533_59762.png,n02814533_59762.png,1.0,3.6444778,2.7277508,0.64822394
alexnet_w1_mlp_simclrhn_probe1,1,439,NaN,elephant,bicycle,pow,0439_pow_dnn_pow_bicycle_35_n02835271_771.png,n02835271_771.png,0.0,-3.3218184,2.7380207,-4.2849536
alexnet_w1_mlp_simclrhn_probe1,1,440,NaN,oven,bicycle,pow,0440_pow_dnn_pow_bicycle_35_n02835271_4313.png,n02835271_4313.png,0.0,-1.2112077,-0.85014284,-0.25531146
alexnet_w1_mlp_simclrhn_probe1,1,441,NaN,bear,bear,0,0441_pow_dnn_0_bear_35_n02132136_891.png,n02132136_891.png,1.0,8.117342,7.8612714,0.18106927
alexnet_w1_mlp_simclrhn_probe1,1,442,NaN,bear,bear,pow,0442_pow_dnn_pow_bear_35_n02132136_18276.png,n02132136_18276.png,1.0,2.626303,0.77680767,1.3077906
alexnet_w1_mlp_simclrhn_probe1,1,443,NaN,elephant,elephant,pow,0443_pow_dnn_pow_elephant_35_n02504013_2865.png,n02504013_2865.png,1.0,5.1716404,1.7668263,2.4075673
alexnet_w1_mlp_simclrhn_probe1,1,444,NaN,boat,boat,0,0444_pow_dnn_0_boat_35_n03662601_10120.png,n03662601_10120.png,1.0,3.3456447,1.7504994,1.1279382
alexnet_w1_mlp_simclrhn_probe1,1,445,NaN,knife,bottle,pow,0445_pow_dnn_pow_bottle_35_n03983396_4241.png,n03983396_4241.png,0.0,-3.7457564,-2.6887643,-0.74740624
alexnet_w1_mlp_simclrhn_probe1,1,446,NaN,elephant,elephant,pow,0446_pow_dnn_pow_elephant_35_n02504458_8254.png,n02504458_8254.png,1.0,1.1204113,0.4206058,0.49483722
alexnet_w1_mlp_simclrhn_probe1,1,447,NaN,elephant,boat,pow,0447_pow_dnn_pow_boat_35_n04612504_857.png,n04612504_857.png,0.0,-2.554915,0.5696726,-2.209417
alexnet_w1_mlp_simclrhn_probe1,1,448,NaN,elephant,car,pow,0448_pow_dnn_pow_car_35_n04285008_6037.png,n04285008_6037.png,0.0,-4.942829,-0.77388644,-2.9478874
alexnet_w1_mlp_simclrhn_probe1,1,449,NaN,elephant,elephant,pow,0449_pow_dnn_pow_elephant_35_n02504458_2888.png,n02504458_2888.png,1.0,3.539105,0.6533884,2.0405097
alexnet_w1_mlp_simclrhn_probe1,1,450,NaN,elephant,elephant,0,0450_pow_dnn_0_elephant_35_n02504013_6257.png,n02504013_6257.png,1.0,0.69973457,-1.9757802,1.8918747
alexnet_w1_mlp_simclrhn_probe1,1,451,NaN,car,car,0,0451_pow_dnn_0_car_35_n04285008_8616.png,n04285008_8616.png,1.0,17.842093,13.474601,3.088283
alexnet_w1_mlp_simclrhn_probe1,1,452,NaN,bear,bird,0,0452_pow_dnn_0_bird_35_n01537544_5372.png,n01537544_5372.png,0.0,-2.7113812,-2.2523866,-0.32455823
alexnet_w1_mlp_simclrhn_probe1,1,453,NaN,airplane,airplane,pow,0453_pow_dnn_pow_airplane_35_n02690373_2498.png,n02690373_2498.png,1.0,-1.4099696,-1.7503259,0.24066828
alexnet_w1_mlp_simclrhn_probe1,1,454,NaN,dog,dog,0,0454_pow_dnn_0_dog_35_n02099601_2980.png,n02099601_2980.png,1.0,0.8242879,-0.33341053,0.8186164
alexnet_w1_mlp_simclrhn_probe1,1,455,NaN,oven,keyboard,pow,0455_pow_dnn_pow_keyboard_35_n04505470_1904.png,n04505470_1904.png,0.0,-6.8192563,-0.57376814,-4.4162273
alexnet_w1_mlp_simclrhn_probe1,1,456,NaN,airplane,airplane,0,0456_pow_dnn_0_airplane_35_n02690373_2967.png,n02690373_2967.png,1.0,3.664477,0.37055147,2.3291574
alexnet_w1_mlp_simclrhn_probe1,1,457,NaN,car,car,0,0457_pow_dnn_0_car_35_n04285008_7508.png,n04285008_7508.png,1.0,10.369773,7.982438,1.6881007
alexnet_w1_mlp_simclrhn_probe1,1,458,NaN,boat,bird,0,0458_pow_dnn_0_bird_35_n02051845_6652.png,n02051845_6652.png,0.0,-2.5464058,-2.4966137,-0.035208296
alexnet_w1_mlp_simclrhn_probe1,1,459,NaN,oven,truck,pow,0459_pow_dnn_pow_truck_35_n03796401_6737.png,n03796401_6737.png,0.0,-4.86034,1.4114875,-4.434852
alexnet_w1_mlp_simclrhn_probe1,1,460,NaN,bottle,bottle,pow,0460_pow_dnn_pow_bottle_35_n03937543_2177.png,n03937543_2177.png,1.0,-1.9103903,-2.6193619,0.50131863
alexnet_w1_mlp_simclrhn_probe1,1,461,NaN,knife,keyboard,pow,0461_pow_dnn_pow_keyboard_35_n03085013_6432.png,n03085013_6432.png,0.0,-5.7841387,-0.5051676,-3.7327964
alexnet_w1_mlp_simclrhn_probe1,1,462,NaN,bird,bird,0,0462_pow_dnn_0_bird_35_n01530575_10212.png,n01530575_10212.png,1.0,0.15193756,-4.534263,3.3136444
alexnet_w1_mlp_simclrhn_probe1,1,463,NaN,oven,boat,pow,0463_pow_dnn_pow_boat_35_n04273569_31649.png,n04273569_31649.png,0.0,-2.684462,-0.37776586,-1.6310805
alexnet_w1_mlp_simclrhn_probe1,1,464,NaN,keyboard,keyboard,0,0464_pow_dnn_0_keyboard_35_n04505470_2869.png,n04505470_2869.png,1.0,16.22422,0.05171854,11.435686
alexnet_w1_mlp_simclrhn_probe1,1,465,NaN,oven,oven,0,0465_pow_dnn_0_oven_35_n04111531_5110.png,n04111531_5110.png,1.0,3.1498413,-1.2505205,3.1115258
alexnet_w1_mlp_simclrhn_probe1,1,466,NaN,bottle,bottle,pow,0466_pow_dnn_pow_bottle_35_n04579145_4389.png,n04579145_4389.png,1.0,1.5455815,-1.2953113,2.0088146
alexnet_w1_mlp_simclrhn_probe1,1,467,NaN,bottle,bottle,0,0467_pow_dnn_0_bottle_35_n04557648_9310.png,n04557648_9310.png,1.0,0.1497481,-0.08290318,0.1645093
alexnet_w1_mlp_simclrhn_probe1,1,468,NaN,bear,dog,pow,0468_pow_dnn_pow_dog_35_n02108000_6061.png,n02108000_6061.png,0.0,-1.5237926,0.71258795,-1.5813599
alexnet_w1_mlp_simclrhn_probe1,1,469,NaN,elephant,knife,pow,0469_pow_dnn_pow_knife_35_n03041632_84240.png,n03041632_84240.png,0.0,-3.2212727,0.6381066,-2.7289934
alexnet_w1_mlp_simclrhn_probe1,1,470,NaN,oven,cat,pow,0470_pow_dnn_pow_cat_35_n02123394_3718.png,n02123394_3718.png,0.0,-1.5537521,-0.5785962,-0.6895394
alexnet_w1_mlp_simclrhn_probe1,1,471,NaN,bear,dog,pow,0471_pow_dnn_pow_dog_35_n02098105_2157.png,n02098105_2157.png,0.0,-0.5066707,1.9927433,-1.7673526
alexnet_w1_mlp_simclrhn_probe1,1,472,NaN,clock,clock,0,0472_pow_dnn_0_clock_35_n04548280_2601.png,n04548280_2601.png,1.0,2.8665257,-3.999628,4.855104
alexnet_w1_mlp_simclrhn_probe1,1,473,NaN,dog,cat,0,0473_pow_dnn_0_cat_35_n02123394_4286.png,n02123394_4286.png,0.0,-3.083946,-0.17330037,-2.0581374
alexnet_w1_mlp_simclrhn_probe1,1,474,NaN,bottle,bottle,0,0474_pow_dnn_0_bottle_35_n02823428_4569.png,n02823428_4569.png,1.0,6.822177,0.92366695,4.1708765
alexnet_w1_mlp_simclrhn_probe1,1,475,NaN,oven,bird,pow,0475_pow_dnn_pow_bird_35_n02017213_15747.png,n02017213_15747.png,0.0,-3.1067696,1.1306732,-2.9963248
alexnet_w1_mlp_simclrhn_probe1,1,476,NaN,elephant,bicycle,0,0476_pow_dnn_0_bicycle_35_n03792782_11390.png,n03792782_11390.png,0.0,-2.579493,-1.2429615,-0.9450705
alexnet_w1_mlp_simclrhn_probe1,1,477,NaN,car,car,0,0477_pow_dnn_0_car_35_n02814533_4374.png,n02814533_4374.png,1.0,13.584443,7.1517353,4.548611
alexnet_w1_mlp_simclrhn_probe1,1,478,NaN,keyboard,keyboard,0,0478_pow_dnn_0_keyboard_35_n04505470_5137.png,n04505470_5137.png,1.0,3.1496892,-2.262513,3.8270047
alexnet_w1_mlp_simclrhn_probe1,1,479,NaN,elephant,elephant,0,0479_pow_dnn_0_elephant_35_n02504013_306.png,n02504013_306.png,1.0,7.104986,0.890601,4.3942337
alexnet_w1_mlp_simclrhn_probe1,1,480,NaN,bicycle,boat,0,0480_pow_dnn_0_boat_35_n02951358_14624.png,n02951358_14624.png,0.0,-2.0704703,3.0969038,-3.6538854
alexnet_w1_mlp_simclrhn_probe1,1,481,NaN,bear,cat,pow,0481_pow_dnn_pow_cat_35_n02125311_28114.png,n02125311_28114.png,0.0,-1.5840588,-0.25484815,-0.9398939
alexnet_w1_mlp_simclrhn_probe1,1,482,NaN,car,car,pow,0482_pow_dnn_pow_car_35_n03100240_6259.png,n03100240_6259.png,1.0,1.2510588,-0.4786982,1.223123
alexnet_w1_mlp_simclrhn_probe1,1,483,NaN,elephant,cat,pow,0483_pow_dnn_pow_cat_35_n02125311_12361.png,n02125311_12361.png,0.0,-1.277144,2.9066877,-2.9584157
alexnet_w1_mlp_simclrhn_probe1,1,484,NaN,bicycle,bird,0,0484_pow_dnn_0_bird_35_n01833805_16468.png,n01833805_16468.png,0.0,-2.6857636,-1.4388111,-0.8817286
alexnet_w1_mlp_simclrhn_probe1,1,485,NaN,bear,dog,pow,0485_pow_dnn_pow_dog_35_n02110063_6748.png,n02110063_6748.png,0.0,-1.4555017,0.99604964,-1.7335087
alexnet_w1_mlp_simclrhn_probe1,1,486,NaN,oven,clock,pow,0486_pow_dnn_pow_clock_35_n04548280_2943.png,n04548280_2943.png,0.0,-5.567249,2.5060744,-5.7087016
alexnet_w1_mlp_simclrhn_probe1,1,487,NaN,oven,chair,pow,0487_pow_dnn_pow_chair_35_n03376595_14619.png,n03376595_14619.png,0.0,-4.6973143,0.10506274,-3.3957937
alexnet_w1_mlp_simclrhn_probe1,1,488,NaN,car,car,0,0488_pow_dnn_0_car_35_n03100240_5719.png,n03100240_5719.png,1.0,11.822308,7.88146,2.7865999
alexnet_w1_mlp_simclrhn_probe1,1,489,NaN,bicycle,dog,0,0489_pow_dnn_0_dog_35_n02093754_4677.png,n02093754_4677.png,0.0,-1.2475859,-0.053658605,-0.8442341
alexnet_w1_mlp_simclrhn_probe1,1,490,NaN,boat,boat,pow,0490_pow_dnn_pow_boat_35_n04273569_113.png,n04273569_113.png,1.0,-0.8314028,-0.9011941,0.049349915
alexnet_w1_mlp_simclrhn_probe1,1,491,NaN,clock,clock,pow,0491_pow_dnn_pow_clock_35_n02708093_148.png,n02708093_148.png,1.0,-2.205349,-2.9795818,0.5474653
alexnet_w1_mlp_simclrhn_probe1,1,492,NaN,cat,cat,0,0492_pow_dnn_0_cat_35_n02125311_53223.png,n02125311_53223.png,1.0,3.9528801,0.5458793,2.4091134
alexnet_w1_mlp_simclrhn_probe1,1,493,NaN,bottle,knife,0,0493_pow_dnn_0_knife_35_n03041632_7982.png,n03041632_7982.png,0.0,-1.3915548,-0.01823318,-0.9710851
alexnet_w1_mlp_simclrhn_probe1,1,494,NaN,elephant,elephant,0,0494_pow_dnn_0_elephant_35_n02504013_7273.png,n02504013_7273.png,1.0,2.2664928,-3.3757162,3.9896443
alexnet_w1_mlp_simclrhn_probe1,1,495,NaN,oven,truck,pow,0495_pow_dnn_pow_truck_35_n03417042_26102.png,n03417042_26102.png,0.0,-2.7288964,0.3915794,-2.2065096
alexnet_w1_mlp_simclrhn_probe1,1,496,NaN,elephant,car,pow,0496_pow_dnn_pow_car_35_n02814533_874.png,n02814533_874.png,0.0,-1.2444702,0.2670225,-1.0687867
alexnet_w1_mlp_simclrhn_probe1,1,497,NaN,bicycle,bicycle,0,0497_pow_dnn_0_bicycle_35_n03792782_21148.png,n03792782_21148.png,1.0,2.7890882,-2.391245,3.6630487
alexnet_w1_mlp_simclrhn_probe1,1,498,NaN,oven,oven,pow,0498_pow_dnn_pow_oven_35_n04111531_4146.png,n04111531_4146.png,1.0,2.4777136,-2.2193828,3.3213487
alexnet_w1_mlp_simclrhn_probe1,1,499,NaN,bottle,keyboard,pow,0499_pow_dnn_pow_keyboard_35_n03085013_21183.png,n03085013_21183.png,0.0,-1.7944779,1.9345902,-2.6368494
alexnet_w1_mlp_simclrhn_probe1,1,500,NaN,boat,boat,0,0500_pow_dnn_0_boat_35_n04612504_19147.png,n04612504_19147.png,1.0,3.7937126,1.6571217,1.510798
alexnet_w1_mlp_simclrhn_probe1,1,501,NaN,elephant,bear,0,0501_pow_dnn_0_bear_35_n02133161_2044.png,n02133161_2044.png,0.0,0.6193531,1.5610498,-0.66588014
alexnet_w1_mlp_simclrhn_probe1,1,502,NaN,oven,bottle,pow,0502_pow_dnn_pow_bottle_35_n04579145_3894.png,n04579145_3894.png,0.0,-2.9659536,-1.5019288,-1.0352218
alexnet_w1_mlp_simclrhn_probe1,1,503,NaN,bicycle,bicycle,0,0503_pow_dnn_0_bicycle_35_n03792782_13399.png,n03792782_13399.png,1.0,1.9880288,-1.0866942,2.1741576
alexnet_w1_mlp_simclrhn_probe1,1,504,NaN,elephant,knife,pow,0504_pow_dnn_pow_knife_35_n03041632_21818.png,n03041632_21818.png,0.0,-2.1574697,0.53272384,-1.9022542
alexnet_w1_mlp_simclrhn_probe1,1,505,NaN,chair,chair,0,0505_pow_dnn_0_chair_35_n03376595_7010.png,n03376595_7010.png,1.0,0.29615837,-1.0689375,0.96526855
alexnet_w1_mlp_simclrhn_probe1,1,506,NaN,oven,oven,0,0506_pow_dnn_0_oven_35_n04111531_4.png,n04111531_4.png,1.0,0.47197384,-0.22286437,0.49132484
alexnet_w1_mlp_simclrhn_probe1,1,507,NaN,bear,bird,pow,0507_pow_dnn_pow_bird_35_n01820546_6471.png,n01820546_6471.png,0.0,-2.9071338,1.4908333,-3.1098325
alexnet_w1_mlp_simclrhn_probe1,1,508,NaN,bear,bear,pow,0508_pow_dnn_pow_bear_35_n02132136_10352.png,n02132136_10352.png,1.0,3.2801704,0.84459656,1.7222108
alexnet_w1_mlp_simclrhn_probe1,1,509,NaN,bottle,clock,pow,0509_pow_dnn_pow_clock_35_n04548280_8348.png,n04548280_8348.png,0.0,-4.0594506,-0.9724612,-2.1828313
alexnet_w1_mlp_simclrhn_probe1,1,510,NaN,elephant,elephant,0,0510_pow_dnn_0_elephant_35_n02504013_5087.png,n02504013_5087.png,1.0,10.503229,-0.11586507,7.5088334
alexnet_w1_mlp_simclrhn_probe1,1,511,NaN,boat,airplane,pow,0511_pow_dnn_pow_airplane_35_n02690373_60.png,n02690373_60.png,0.0,0.9799731,1.212149,-0.16417319
alexnet_w1_mlp_simclrhn_probe1,1,512,NaN,oven,chair,pow,0512_pow_dnn_pow_chair_35_n02791124_16085.png,n02791124_16085.png,0.0,-2.3999443,0.5790795,-2.106488
alexnet_w1_mlp_simclrhn_probe1,1,513,NaN,bottle,bottle,0,0513_pow_dnn_0_bottle_35_n02823428_3611.png,n02823428_3611.png,1.0,1.5811528,-2.153319,2.6406703
alexnet_w1_mlp_simclrhn_probe1,1,514,NaN,oven,bird,pow,0514_pow_dnn_pow_bird_35_n01614925_8653.png,n01614925_8653.png,0.0,-2.7209802,-1.0059419,-1.2127153
alexnet_w1_mlp_simclrhn_probe1,1,515,NaN,bird,bird,pow,0515_pow_dnn_pow_bird_35_n01537544_9881.png,n01537544_9881.png,1.0,-0.9178797,-1.3011453,0.2710097
alexnet_w1_mlp_simclrhn_probe1,1,516,NaN,knife,knife,0,0516_pow_dnn_0_knife_35_n03041632_35365.png,n03041632_35365.png,1.0,0.585227,-3.5593688,2.9306722
alexnet_w1_mlp_simclrhn_probe1,1,517,NaN,bear,bear,0,0517_pow_dnn_0_bear_35_n02132136_23202.png,n02132136_23202.png,1.0,1.247521,-0.613979,1.3162793
alexnet_w1_mlp_simclrhn_probe1,1,518,NaN,oven,oven,0,0518_pow_dnn_0_oven_35_n04111531_3976.png,n04111531_3976.png,1.0,3.611644,-2.4794807,4.3070755
alexnet_w1_mlp_simclrhn_probe1,1,519,NaN,oven,chair,pow,0519_pow_dnn_pow_chair_35_n04429376_32124.png,n04429376_32124.png,0.0,-2.2351408,1.2152269,-2.4397783
alexnet_w1_mlp_simclrhn_probe1,1,520,NaN,bear,bear,pow,0520_pow_dnn_pow_bear_35_n02134418_848.png,n02134418_848.png,1.0,2.215334,0.40000126,1.2836341
alexnet_w1_mlp_simclrhn_probe1,1,521,NaN,boat,boat,0,0521_pow_dnn_0_boat_35_n03344393_7374.png,n03344393_7374.png,1.0,4.823791,4.3386126,0.34307298
alexnet_w1_mlp_simclrhn_probe1,1,522,NaN,oven,bird,pow,0522_pow_dnn_pow_bird_35_n01532829_3914.png,n01532829_3914.png,0.0,-4.908823,1.623497,-4.6190476
alexnet_w1_mlp_simclrhn_probe1,1,523,NaN,keyboard,keyboard,0,0523_pow_dnn_0_keyboard_35_n04505470_5902.png,n04505470_5902.png,1.0,10.228716,0.9726022,6.545061
alexnet_w1_mlp_simclrhn_probe1,1,524,NaN,oven,truck,pow,0524_pow_dnn_pow_truck_35_n03417042_11165.png,n03417042_11165.png,0.0,-4.0327525,-0.1404913,-2.7522445
alexnet_w1_mlp_simclrhn_probe1,1,525,NaN,keyboard,clock,0,0525_pow_dnn_0_clock_35_n02708093_5.png,n02708093_5.png,0.0,-1.7650293,-1.4376044,-0.23152436
alexnet_w1_mlp_simclrhn_probe1,1,526,NaN,elephant,elephant,pow,0526_pow_dnn_pow_elephant_35_n02504458_4187.png,n02504458_4187.png,1.0,2.4307764,0.20716408,1.5723314
alexnet_w1_mlp_simclrhn_probe1,1,527,NaN,knife,knife,0,0527_pow_dnn_0_knife_35_n03041632_10802.png,n03041632_10802.png,1.0,3.6124666,-2.1154222,4.050229
alexnet_w1_mlp_simclrhn_probe1,1,528,NaN,car,car,0,0528_pow_dnn_0_car_35_n04285008_16647.png,n04285008_16647.png,1.0,8.272614,2.230244,4.2726007
alexnet_w1_mlp_simclrhn_probe1,1,529,NaN,bear,dog,0,0529_pow_dnn_0_dog_35_n02104365_3004.png,n02104365_3004.png,0.0,-0.05611841,2.0104043,-1.4612523
alexnet_w1_mlp_simclrhn_probe1,1,530,NaN,bear,elephant,pow,0530_pow_dnn_pow_elephant_35_n02504013_21616.png,n02504013_21616.png,0.0,2.349678,2.5296934,-0.12729006
alexnet_w1_mlp_simclrhn_probe1,1,531,NaN,knife,keyboard,0,0531_pow_dnn_0_keyboard_35_n03085013_23465.png,n03085013_23465.png,0.0,0.7081309,1.6252218,-0.64848125
alexnet_w1_mlp_simclrhn_probe1,1,532,NaN,boat,airplane,pow,0532_pow_dnn_pow_airplane_35_n02690373_911.png,n02690373_911.png,0.0,-3.3238664,0.07092981,-2.4004834
alexnet_w1_mlp_simclrhn_probe1,1,533,NaN,elephant,elephant,0,0533_pow_dnn_0_elephant_35_n02504013_1454.png,n02504013_1454.png,1.0,8.366327,-1.3019804,6.836526
alexnet_w1_mlp_simclrhn_probe1,1,534,NaN,bicycle,bicycle,0,0534_pow_dnn_0_bicycle_35_n03792782_70690.png,n03792782_70690.png,1.0,1.8835206,-3.8406184,4.047578
alexnet_w1_mlp_simclrhn_probe1,1,535,NaN,truck,chair,0,0535_pow_dnn_0_chair_35_n04429376_31206.png,n04429376_31206.png,0.0,-0.34393954,1.5695026,-1.3530079
alexnet_w1_mlp_simclrhn_probe1,1,536,NaN,airplane,clock,0,0536_pow_dnn_0_clock_35_n02708093_2498.png,n02708093_2498.png,0.0,-2.921708,-2.524099,-0.281152
alexnet_w1_mlp_simclrhn_probe1,1,537,NaN,keyboard,keyboard,0,0537_pow_dnn_0_keyboard_35_n04505470_1728.png,n04505470_1728.png,1.0,7.0984287,0.3872263,4.745537
alexnet_w1_mlp_simclrhn_probe1,1,538,NaN,bicycle,truck,pow,0538_pow_dnn_pow_truck_35_n03417042_6608.png,n03417042_6608.png,0.0,-2.406302,-0.72327745,-1.190078
alexnet_w1_mlp_simclrhn_probe1,1,539,NaN,elephant,bird,0,0539_pow_dnn_0_bird_35_n02013706_1016.png,n02013706_1016.png,0.0,-2.1410003,-1.767528,-0.26408473
alexnet_w1_mlp_simclrhn_probe1,1,540,NaN,clock,clock,0,0540_pow_dnn_0_clock_35_n04548280_5011.png,n04548280_5011.png,1.0,0.87726027,-0.79242283,1.1806443
alexnet_w1_mlp_simclrhn_probe1,1,541,NaN,bicycle,bicycle,0,0541_pow_dnn_0_bicycle_35_n02835271_19557.png,n02835271_19557.png,1.0,4.8030944,-3.1298232,5.60942
alexnet_w1_mlp_simclrhn_probe1,1,542,NaN,bear,bear,pow,0542_pow_dnn_pow_bear_35_n02134084_5827.png,n02134084_5827.png,1.0,3.2816784,1.1597648,1.5004196
alexnet_w1_mlp_simclrhn_probe1,1,543,NaN,bear,dog,pow,0543_pow_dnn_pow_dog_35_n02096585_1894.png,n02096585_1894.png,0.0,-2.2700524,-0.74859166,-1.0758352
alexnet_w1_mlp_simclrhn_probe1,1,544,NaN,bicycle,boat,pow,0544_pow_dnn_pow_boat_35_n02951358_34234.png,n02951358_34234.png,0.0,-0.14041606,0.913175,-0.7450014
alexnet_w1_mlp_simclrhn_probe1,1,545,NaN,cat,cat,pow,0545_pow_dnn_pow_cat_35_n02123597_5514.png,n02123597_5514.png,1.0,2.208686,0.33126587,1.3275366
alexnet_w1_mlp_simclrhn_probe1,1,546,NaN,oven,oven,pow,0546_pow_dnn_pow_oven_35_n04111531_3580.png,n04111531_3580.png,1.0,1.2349486,0.30129135,0.6601954
alexnet_w1_mlp_simclrhn_probe1,1,547,NaN,airplane,airplane,0,0547_pow_dnn_0_airplane_35_n02690373_7107.png,n02690373_7107.png,1.0,3.2408762,-0.3080617,2.509478
alexnet_w1_mlp_simclrhn_probe1,1,548,NaN,oven,cat,0,0548_pow_dnn_0_cat_35_n02123159_5224.png,n02123159_5224.png,0.0,-3.2496502,-1.1568015,-1.4798676
alexnet_w1_mlp_simclrhn_probe1,1,549,NaN,elephant,bear,pow,0549_pow_dnn_pow_bear_35_n02133161_6679.png,n02133161_6679.png,0.0,3.404278,3.6422553,-0.16827534
alexnet_w1_mlp_simclrhn_probe1,1,550,NaN,dog,dog,0,0550_pow_dnn_0_dog_35_n02106030_22.png,n02106030_22.png,1.0,0.590959,0.10260874,0.34531578
alexnet_w1_mlp_simclrhn_probe1,1,551,NaN,truck,truck,0,0551_pow_dnn_0_truck_35_n03417042_4574.png,n03417042_4574.png,1.0,9.868015,9.148498,0.50877583
alexnet_w1_mlp_simclrhn_probe1,1,552,NaN,bear,dog,pow,0552_pow_dnn_pow_dog_35_n02097298_7577.png,n02097298_7577.png,0.0,-3.960571,-0.9256769,-2.1459944
alexnet_w1_mlp_simclrhn_probe1,1,553,NaN,elephant,dog,pow,0553_pow_dnn_pow_dog_35_n02093428_16873.png,n02093428_16873.png,0.0,-0.8832515,1.0668054,-1.3788984
alexnet_w1_mlp_simclrhn_probe1,1,554,NaN,bear,bear,0,0554_pow_dnn_0_bear_35_n02132136_4157.png,n02132136_4157.png,1.0,4.7010136,2.4834182,1.5680767
alexnet_w1_mlp_simclrhn_probe1,1,555,NaN,bottle,bottle,0,0555_pow_dnn_0_bottle_35_n02823428_2007.png,n02823428_2007.png,1.0,5.5108485,4.47608,0.7316919
alexnet_w1_mlp_simclrhn_probe1,1,556,NaN,oven,keyboard,0,0556_pow_dnn_0_keyboard_35_n03085013_24272.png,n03085013_24272.png,0.0,-0.2170977,0.973078,-0.84158134
alexnet_w1_mlp_simclrhn_probe1,1,557,NaN,oven,oven,0,0557_pow_dnn_0_oven_35_n04111531_2074.png,n04111531_2074.png,1.0,-0.24824038,-3.0535474,1.9836515
alexnet_w1_mlp_simclrhn_probe1,1,558,NaN,oven,bird,pow,0558_pow_dnn_pow_bird_35_n01532829_4536.png,n01532829_4536.png,0.0,-3.6362243,0.09294528,-2.6369212
alexnet_w1_mlp_simclrhn_probe1,1,559,NaN,cat,dog,0,0559_pow_dnn_0_dog_35_n02109047_17100.png,n02109047_17100.png,0.0,-0.3268585,1.2206055,-1.0942223
alexnet_w1_mlp_simclrhn_probe1,1,560,NaN,oven,oven,pow,0560_pow_dnn_pow_oven_35_n04111531_4407.png,n04111531_4407.png,1.0,2.3967414,-1.4431766,2.7152321
alexnet_w1_mlp_simclrhn_probe1,1,561,NaN,airplane,airplane,0,0561_pow_dnn_0_airplane_35_n02690373_8069.png,n02690373_8069.png,1.0,6.948716,2.0909724,3.4349437
alexnet_w1_mlp_simclrhn_probe1,1,562,NaN,clock,bottle,0,0562_pow_dnn_0_bottle_35_n04560804_8921.png,n04560804_8921.png,0.0,-0.46527758,0.8107098,-0.90225935
alexnet_w1_mlp_simclrhn_probe1,1,563,NaN,bottle,bottle,pow,0563_pow_dnn_pow_bottle_35_n03937543_2936.png,n03937543_2936.png,1.0,7.777931,-5.8449774,9.632852
alexnet_w1_mlp_simclrhn_probe1,1,564,NaN,cat,cat,0,0564_pow_dnn_0_cat_35_n02123045_8031.png,n02123045_8031.png,1.0,0.6697166,0.57364476,0.06793305
alexnet_w1_mlp_simclrhn_probe1,1,565,NaN,oven,oven,0,0565_pow_dnn_0_oven_35_n04111531_3805.png,n04111531_3805.png,1.0,4.352219,-4.125604,5.994726
alexnet_w1_mlp_simclrhn_probe1,1,566,NaN,truck,truck,0,0566_pow_dnn_0_truck_35_n03417042_27231.png,n03417042_27231.png,1.0,8.603623,6.7870803,1.28449
alexnet_w1_mlp_simclrhn_probe1,1,567,NaN,bear,elephant,0,0567_pow_dnn_0_elephant_35_n02504013_7232.png,n02504013_7232.png,0.0,3.0446243,3.1353507,-0.06415324
alexnet_w1_mlp_simclrhn_probe1,1,568,NaN,oven,knife,0,0568_pow_dnn_0_knife_35_n03041632_5102.png,n03041632_5102.png,0.0,-4.2205286,-1.8698356,-1.662191
alexnet_w1_mlp_simclrhn_probe1,1,569,NaN,cat,dog,pow,0569_pow_dnn_pow_dog_35_n02110958_8916.png,n02110958_8916.png,0.0,0.27948648,1.316456,-0.7332481
alexnet_w1_mlp_simclrhn_probe1,1,570,NaN,bear,bottle,pow,0570_pow_dnn_pow_bottle_35_n04557648_9790.png,n04557648_9790.png,0.0,-2.4164069,-0.94675446,-1.0392013
alexnet_w1_mlp_simclrhn_probe1,1,571,NaN,cat,cat,pow,0571_pow_dnn_pow_cat_35_n02123394_3786.png,n02123394_3786.png,1.0,5.0130715,1.3118196,2.6171803
alexnet_w1_mlp_simclrhn_probe1,1,572,NaN,airplane,truck,0,0572_pow_dnn_0_truck_35_n04467665_19132.png,n04467665_19132.png,0.0,1.2290158,1.8832544,-0.46261653
alexnet_w1_mlp_simclrhn_probe1,1,573,NaN,elephant,truck,pow,0573_pow_dnn_pow_truck_35_n03796401_2934.png,n03796401_2934.png,0.0,-3.5246654,-0.12563398,-2.4034781
alexnet_w1_mlp_simclrhn_probe1,1,574,NaN,bicycle,bicycle,0,0574_pow_dnn_0_bicycle_35_n02835271_12799.png,n02835271_12799.png,1.0,8.148364,-1.0940331,6.535362
alexnet_w1_mlp_simclrhn_probe1,1,575,NaN,car,car,0,0575_pow_dnn_0_car_35_n02814533_1297.png,n02814533_1297.png,1.0,2.415993,-0.5842742,2.1215093
alexnet_w1_mlp_simclrhn_probe1,1,576,NaN,bear,bear,pow,0576_pow_dnn_pow_bear_35_n02134418_1974.png,n02134418_1974.png,1.0,1.9130034,-0.23182636,1.5166237
alexnet_w1_mlp_simclrhn_probe1,1,577,NaN,cat,cat,0,0577_pow_dnn_0_cat_35_n02124075_2843.png,n02124075_2843.png,1.0,2.6622403,-2.3435805,3.53965
alexnet_w1_mlp_simclrhn_probe1,1,578,NaN,cat,cat,0,0578_pow_dnn_0_cat_35_n02123597_5697.png,n02123597_5697.png,1.0,-1.3944665,-1.4761957,0.057791255
alexnet_w1_mlp_simclrhn_probe1,1,579,NaN,oven,bicycle,pow,0579_pow_dnn_pow_bicycle_35_n02835271_2315.png,n02835271_2315.png,0.0,-2.241419,0.61004686,-2.016291
alexnet_w1_mlp_simclrhn_probe1,1,580,NaN,keyboard,keyboard,0,0580_pow_dnn_0_keyboard_35_n04505470_4515.png,n04505470_4515.png,1.0,11.969385,0.14479673,8.361247
alexnet_w1_mlp_simclrhn_probe1,1,581,NaN,elephant,knife,pow,0581_pow_dnn_pow_knife_35_n03041632_4269.png,n03041632_4269.png,0.0,-1.6858062,0.5676306,-1.5934205
alexnet_w1_mlp_simclrhn_probe1,1,582,NaN,cat,cat,0,0582_pow_dnn_0_cat_35_n02123045_12010.png,n02123045_12010.png,1.0,4.4160643,-2.039734,4.5649385
alexnet_w1_mlp_simclrhn_probe1,1,583,NaN,keyboard,clock,0,0583_pow_dnn_0_clock_35_n03196217_6467.png,n03196217_6467.png,0.0,0.81696486,1.2037821,-0.2735211
alexnet_w1_mlp_simclrhn_probe1,1,584,NaN,bottle,bottle,pow,0584_pow_dnn_pow_bottle_35_n03983396_2864.png,n03983396_2864.png,1.0,0.30193576,-0.1144335,0.29441753
alexnet_w1_mlp_simclrhn_probe1,1,585,NaN,airplane,bottle,0,0585_pow_dnn_0_bottle_35_n04557648_10171.png,n04557648_10171.png,0.0,-2.9698732,0.6169988,-2.5363016
alexnet_w1_mlp_simclrhn_probe1,1,586,NaN,bear,bird,pow,0586_pow_dnn_pow_bird_35_n01860187_2052.png,n01860187_2052.png,0.0,-3.158508,-0.06061992,-2.190538
alexnet_w1_mlp_simclrhn_probe1,1,587,NaN,car,car,0,0587_pow_dnn_0_car_35_n04285008_5897.png,n04285008_5897.png,1.0,16.551702,9.165678,5.222708
alexnet_w1_mlp_simclrhn_probe1,1,588,NaN,elephant,elephant,0,0588_pow_dnn_0_elephant_35_n02504458_4721.png,n02504458_4721.png,1.0,9.20092,-2.3273404,8.151711
alexnet_w1_mlp_simclrhn_probe1,1,589,NaN,car,car,0,0589_pow_dnn_0_car_35_n02814533_93476.png,n02814533_93476.png,1.0,7.774574,3.9738855,2.6874926
alexnet_w1_mlp_simclrhn_probe1,1,590,NaN,elephant,bird,pow,0590_pow_dnn_pow_bird_35_n01824575_10337.png,n01824575_10337.png,0.0,-3.326216,1.2078916,-3.2060983
alexnet_w1_mlp_simclrhn_probe1,1,591,NaN,oven,dog,pow,0591_pow_dnn_pow_dog_35_n02100735_10683.png,n02100735_10683.png,0.0,-2.7478788,2.2095084,-3.505402
alexnet_w1_mlp_simclrhn_probe1,1,592,NaN,elephant,airplane,pow,0592_pow_dnn_pow_airplane_35_n02690373_4402.png,n02690373_4402.png,0.0,-2.3351645,-1.7164032,-0.4375303
alexnet_w1_mlp_simclrhn_probe1,1,593,NaN,airplane,airplane,0,0593_pow_dnn_0_airplane_35_n02690373_4350.png,n02690373_4350.png,1.0,8.142501,-1.688336,6.951452
alexnet_w1_mlp_simclrhn_probe1,1,594,NaN,bottle,bottle,pow,0594_pow_dnn_pow_bottle_35_n02823428_6327.png,n02823428_6327.png,1.0,-0.57987744,-0.751557,0.12139578
alexnet_w1_mlp_simclrhn_probe1,1,595,NaN,elephant,dog,pow,0595_pow_dnn_pow_dog_35_n02104029_3041.png,n02104029_3041.png,0.0,-0.09031294,2.9913623,-2.1790736
alexnet_w1_mlp_simclrhn_probe1,1,596,NaN,elephant,elephant,pow,0596_pow_dnn_pow_elephant_35_n02504013_24810.png,n02504013_24810.png,1.0,2.4836726,-0.20265515,1.8995205
alexnet_w1_mlp_simclrhn_probe1,1,597,NaN,oven,clock,pow,0597_pow_dnn_pow_clock_35_n04548280_4473.png,n04548280_4473.png,0.0,-3.9839756,-0.37679595,-2.5506613
alexnet_w1_mlp_simclrhn_probe1,1,598,NaN,dog,dog,pow,0598_pow_dnn_pow_dog_35_n02107908_5597.png,n02107908_5597.png,1.0,-0.8309181,-1.2486602,0.2953883
alexnet_w1_mlp_simclrhn_probe1,1,599,NaN,truck,truck,0,0599_pow_dnn_0_truck_35_n04467665_57697.png,n04467665_57697.png,1.0,5.586853,1.8564228,2.6378124
alexnet_w1_mlp_simclrhn_probe1,1,600,NaN,bottle,bottle,pow,0600_pow_dnn_pow_bottle_35_n03983396_6889.png,n03983396_6889.png,1.0,-0.7675949,-0.85341996,0.0606875
alexnet_w1_mlp_simclrhn_probe1,1,601,NaN,bear,bear,pow,0601_pow_dnn_pow_bear_35_n02134418_1826.png,n02134418_1826.png,1.0,3.3431726,1.0695851,1.6076691
alexnet_w1_mlp_simclrhn_probe1,1,602,NaN,cat,cat,pow,0602_pow_dnn_pow_cat_35_n02123159_4687.png,n02123159_4687.png,1.0,0.34837976,-0.85767347,0.8528085
alexnet_w1_mlp_simclrhn_probe1,1,603,NaN,knife,boat,pow,0603_pow_dnn_pow_boat_35_n03344393_5798.png,n03344393_5798.png,0.0,-1.8707184,-1.7189426,-0.10732164
alexnet_w1_mlp_simclrhn_probe1,1,604,NaN,oven,car,pow,0604_pow_dnn_pow_car_35_n04285008_11745.png,n04285008_11745.png,0.0,-6.0982347,0.24265105,-4.483683
alexnet_w1_mlp_simclrhn_probe1,1,605,NaN,clock,clock,0,0605_pow_dnn_0_clock_35_n02708093_353.png,n02708093_353.png,1.0,3.4384842,2.9239416,0.36383656
alexnet_w1_mlp_simclrhn_probe1,1,606,NaN,airplane,airplane,0,0606_pow_dnn_0_airplane_35_n02690373_4763.png,n02690373_4763.png,1.0,5.5989733,-1.8156773,5.2429495
alexnet_w1_mlp_simclrhn_probe1,1,607,NaN,elephant,elephant,0,0607_pow_dnn_0_elephant_35_n02504013_18498.png,n02504013_18498.png,1.0,7.6399345,2.1377397,3.8906393
alexnet_w1_mlp_simclrhn_probe1,1,608,NaN,bear,cat,pow,0608_pow_dnn_pow_cat_35_n02123394_159.png,n02123394_159.png,0.0,0.05300172,1.5808375,-1.080343
alexnet_w1_mlp_simclrhn_probe1,1,609,NaN,boat,boat,0,0609_pow_dnn_0_boat_35_n03662601_18676.png,n03662601_18676.png,1.0,7.1785364,3.3431983,2.7119937
alexnet_w1_mlp_simclrhn_probe1,1,610,NaN,elephant,truck,pow,0610_pow_dnn_pow_truck_35_n03796401_1789.png,n03796401_1789.png,0.0,-4.234336,-1.6233712,-1.846231
alexnet_w1_mlp_simclrhn_probe1,1,611,NaN,chair,chair,0,0611_pow_dnn_0_chair_35_n04099969_4816.png,n04099969_4816.png,1.0,2.020916,-0.4465883,1.744789
alexnet_w1_mlp_simclrhn_probe1,1,612,NaN,elephant,elephant,0,0612_pow_dnn_0_elephant_35_n02504458_7013.png,n02504458_7013.png,1.0,10.809087,-4.2145143,10.623291
alexnet_w1_mlp_simclrhn_probe1,1,613,NaN,knife,knife,pow,0613_pow_dnn_pow_knife_35_n03041632_92637.png,n03041632_92637.png,1.0,-1.9150963,-2.1447935,0.16242047
alexnet_w1_mlp_simclrhn_probe1,1,614,NaN,keyboard,keyboard,0,0614_pow_dnn_0_keyboard_35_n03085013_19607.png,n03085013_19607.png,1.0,7.624858,1.8288492,4.0983973
alexnet_w1_mlp_simclrhn_probe1,1,615,NaN,bear,cat,pow,0615_pow_dnn_pow_cat_35_n02123597_1027.png,n02123597_1027.png,0.0,0.5194075,0.7048865,-0.13115345
alexnet_w1_mlp_simclrhn_probe1,1,616,NaN,bicycle,bicycle,0,0616_pow_dnn_0_bicycle_35_n02835271_9135.png,n02835271_9135.png,1.0,3.457009,-2.0346334,3.8831778
alexnet_w1_mlp_simclrhn_probe1,1,617,NaN,bear,dog,pow,0617_pow_dnn_pow_dog_35_n02111500_3896.png,n02111500_3896.png,0.0,-1.1262172,-0.7459372,-0.26889858
alexnet_w1_mlp_simclrhn_probe1,1,618,NaN,keyboard,oven,0,0618_pow_dnn_0_oven_35_n04111531_8398.png,n04111531_8398.png,0.0,-3.9426441,1.2164996,-3.6480653
alexnet_w1_mlp_simclrhn_probe1,1,619,NaN,oven,oven,0,0619_pow_dnn_0_oven_35_n04111531_6049.png,n04111531_6049.png,1.0,10.104185,-1.363694,8.109015
alexnet_w1_mlp_simclrhn_probe1,1,620,NaN,oven,chair,pow,0620_pow_dnn_pow_chair_35_n03376595_6947.png,n03376595_6947.png,0.0,-3.2416716,-0.33839813,-2.0529244
alexnet_w1_mlp_simclrhn_probe1,1,621,NaN,cat,dog,pow,0621_pow_dnn_pow_dog_35_n02097658_6717.png,n02097658_6717.png,0.0,-0.69400465,-0.20752954,-0.34398985
alexnet_w1_mlp_simclrhn_probe1,1,622,NaN,knife,knife,0,0622_pow_dnn_0_knife_35_n03041632_21560.png,n03041632_21560.png,1.0,-0.051194854,-1.6828849,1.1537791
alexnet_w1_mlp_simclrhn_probe1,1,623,NaN,bicycle,boat,pow,0623_pow_dnn_pow_boat_35_n03662601_7642.png,n03662601_7642.png,0.0,-1.1702814,-0.85680765,-0.22165942
alexnet_w1_mlp_simclrhn_probe1,1,624,NaN,car,car,0,0624_pow_dnn_0_car_35_n04285008_1313.png,n04285008_1313.png,1.0,4.935535,4.248508,0.48580143
alexnet_w1_mlp_simclrhn_probe1,1,625,NaN,elephant,chair,pow,0625_pow_dnn_pow_chair_35_n03376595_6409.png,n03376595_6409.png,0.0,-3.1817136,0.45962578,-2.5748158
alexnet_w1_mlp_simclrhn_probe1,1,626,NaN,bear,bear,pow,0626_pow_dnn_pow_bear_35_n02133161_6028.png,n02133161_6028.png,1.0,1.4091902,-1.0975196,1.7725115
alexnet_w1_mlp_simclrhn_probe1,1,627,NaN,elephant,bear,pow,0627_pow_dnn_pow_bear_35_n02132136_29029.png,n02132136_29029.png,0.0,0.5570065,1.4608294,-0.6390993
alexnet_w1_mlp_simclrhn_probe1,1,628,NaN,truck,truck,0,0628_pow_dnn_0_truck_35_n04467665_7290.png,n04467665_7290.png,1.0,2.090059,0.16663247,1.3600681
alexnet_w1_mlp_simclrhn_probe1,1,629,NaN,elephant,bird,pow,0629_pow_dnn_pow_bird_35_n01537544_9745.png,n01537544_9745.png,0.0,-1.3318827,1.4386342,-1.9590513
alexnet_w1_mlp_simclrhn_probe1,1,630,NaN,bicycle,bicycle,0,0630_pow_dnn_0_bicycle_35_n03792782_15845.png,n03792782_15845.png,1.0,2.8185415,-2.666409,3.8784459
alexnet_w1_mlp_simclrhn_probe1,1,631,NaN,bear,bear,pow,0631_pow_dnn_pow_bear_35_n02133161_8982.png,n02133161_8982.png,1.0,-0.08085811,-0.72884697,0.45819733
alexnet_w1_mlp_simclrhn_probe1,1,632,NaN,knife,knife,0,0632_pow_dnn_0_knife_35_n03041632_6575.png,n03041632_6575.png,1.0,-1.0831935,-3.3963308,1.6356351
alexnet_w1_mlp_simclrhn_probe1,1,633,NaN,knife,knife,0,0633_pow_dnn_0_knife_35_n03041632_32785.png,n03041632_32785.png,1.0,1.3977828,-1.7875364,2.2523608
alexnet_w1_mlp_simclrhn_probe1,1,634,NaN,oven,chair,pow,0634_pow_dnn_pow_chair_35_n04429376_12691.png,n04429376_12691.png,0.0,-2.156133,-0.62001836,-1.086197
alexnet_w1_mlp_simclrhn_probe1,1,635,NaN,bear,dog,pow,0635_pow_dnn_pow_dog_35_n02097298_6578.png,n02097298_6578.png,0.0,-0.38426727,1.6483747,-1.4372948
alexnet_w1_mlp_simclrhn_probe1,1,636,NaN,elephant,knife,pow,0636_pow_dnn_pow_knife_35_n03041632_94995.png,n03041632_94995.png,0.0,-2.1609497,-0.75285196,-0.9956755
alexnet_w1_mlp_simclrhn_probe1,1,637,NaN,clock,clock,0,0637_pow_dnn_0_clock_35_n02708093_41.png,n02708093_41.png,1.0,5.5206237,-0.53884995,4.2846947
alexnet_w1_mlp_simclrhn_probe1,1,638,NaN,keyboard,keyboard,0,0638_pow_dnn_0_keyboard_35_n03085013_7892.png,n03085013_7892.png,1.0,5.621684,-0.16546965,4.092136
