subj,session,trial,rt,object_response,category,condition,imagename,filename,is_correct,targ_act,max_nontarg_act,decision_margin
alexnet_w1_mlp_simclrhn_probe2,1,1,NaN,clock,clock,0,0001_pow_dnn_0_clock_35_n03196217_10246.png,n03196217_10246.png,1.0,2.270898,1.9995121,0.1918989
alexnet_w1_mlp_simclrhn_probe2,1,2,NaN,cat,dog,pow,0002_pow_dnn_pow_dog_35_n02091467_7264.png,n02091467_7264.png,0.0,-0.4450649,0.18929183,-0.44855797
alexnet_w1_mlp_simclrhn_probe2,1,3,NaN,oven,chair,pow,0003_pow_dnn_pow_chair_35_n02791124_713.png,n02791124_713.png,0.0,-2.4724188,0.99891204,-2.4546018
alexnet_w1_mlp_simclrhn_probe2,1,4,NaN,car,car,0,0004_pow_dnn_0_car_35_n02814533_35174.png,n02814533_35174.png,1.0,6.6588473,6.6004896,0.041265137
alexnet_w1_mlp_simclrhn_probe2,1,5,NaN,oven,knife,pow,0005_pow_dnn_pow_knife_35_n03041632_46103.png,n03041632_46103.png,0.0,-2.2053676,0.05794598,-1.6004044
alexnet_w1_mlp_simclrhn_probe2,1,6,NaN,bicycle,bicycle,0,0006_pow_dnn_0_bicycle_35_n03792782_11306.png,n03792782_11306.png,1.0,13.399143,-0.82996464,10.061499
alexnet_w1_mlp_simclrhn_probe2,1,7,NaN,bird,bird,0,0007_pow_dnn_0_bird_35_n02002556_3463.png,n02002556_3463.png,1.0,3.5212312,-3.2951624,4.8199186
alexnet_w1_mlp_simclrhn_probe2,1,8,NaN,bear,keyboard,pow,0008_pow_dnn_pow_keyboard_35_n03085013_22813.png,n03085013_22813.png,0.0,-5.24642,-0.66710776,-3.2380629
alexnet_w1_mlp_simclrhn_probe2,1,9,NaN,bird,bird,0,0009_pow_dnn_0_bird_35_n02025239_2961.png,n02025239_2961.png,1.0,2.0935366,-4.438846,4.6190925
alexnet_w1_mlp_simclrhn_probe2,1,10,NaN,oven,boat,pow,0010_pow_dnn_pow_boat_35_n02951358_14504.png,n02951358_14504.png,0.0,-1.1635536,1.3272824,-1.7612872
alexnet_w1_mlp_simclrhn_probe2,1,11,NaN,oven,oven,0,0011_pow_dnn_0_oven_35_n04111531_19000.png,n04111531_19000.png,1.0,0.9449744,-0.34307805,0.9107906
alexnet_w1_mlp_simclrhn_probe2,1,12,NaN,bird,bird,0,0012_pow_dnn_0_bird_35_n01614925_11281.png,n01614925_11281.png,1.0,0.13140707,-1.2858422,1.0021465
alexnet_w1_mlp_simclrhn_probe2,1,13,NaN,knife,knife,0,0013_pow_dnn_0_knife_35_n03041632_52040.png,n03041632_52040.png,1.0,0.34391922,0.17033315,0.12274389
alexnet_w1_mlp_simclrhn_probe2,1,14,NaN,oven,car,pow,0014_pow_dnn_pow_car_35_n03100240_14206.png,n03100240_14206.png,0.0,-2.593356,1.5102203,-2.9016666
alexnet_w1_mlp_simclrhn_probe2,1,15,NaN,cat,bird,0,0015_pow_dnn_0_bird_35_n01817953_689.png,n01817953_689.png,0.0,-3.2175183,-0.27682397,-2.079385
alexnet_w1_mlp_simclrhn_probe2,1,16,NaN,oven,chair,pow,0016_pow_dnn_pow_chair_35_n04099969_7934.png,n04099969_7934.png,0.0,-1.3672117,2.2824278,-2.580685
alexnet_w1_mlp_simclrhn_probe2,1,17,NaN,knife,knife,0,0017_pow_dnn_0_knife_35_n03041632_30196.png,n03041632_30196.png,1.0,0.63535607,-0.8197415,1.0289093
alexnet_w1_mlp_simclrhn_probe2,1,18,NaN,car,car,0,0018_pow_dnn_0_car_35_n02814533_18077.png,n02814533_18077.png,1.0,4.132343,0.48779437,2.577085
alexnet_w1_mlp_simclrhn_probe2,1,19,NaN,cat,cat,0,0019_pow_dnn_0_cat_35_n02123159_6927.png,n02123159_6927.png,1.0,1.3520571,-0.76254195,1.4952474
alexnet_w1_mlp_simclrhn_probe2,1,20,NaN,bear,bird,pow,0020_pow_dnn_pow_bird_35_n01855672_8550.png,n01855672_8550.png,0.0,-0.65193963,-0.184315,-0.33066055
alexnet_w1_mlp_simclrhn_probe2,1,21,NaN,truck,truck,0,0021_pow_dnn_0_truck_35_n03417042_17888.png,n03417042_17888.png,1.0,7.188349,2.0904703,3.6047444
alexnet_w1_mlp_simclrhn_probe2,1,22,NaN,oven,truck,pow,0022_pow_dnn_pow_truck_35_n04467665_45611.png,n04467665_45611.png,0.0,-4.6059027,1.1814573,-4.092282
alexnet_w1_mlp_simclrhn_probe2,1,23,NaN,bear,dog,pow,0023_pow_dnn_pow_dog_35_n02093256_1772.png,n02093256_1772.png,0.0,-2.6728208,0.33657652,-2.1279652
alexnet_w1_mlp_simclrhn_probe2,1,24,NaN,oven,boat,pow,0024_pow_dnn_pow_boat_35_n03344393_6260.png,n03344393_6260.png,0.0,-1.9771221,1.8581421,-2.7119415
alexnet_w1_mlp_simclrhn_probe2,1,25,NaN,oven,chair,0,0025_pow_dnn_0_chair_35_n04429376_24073.png,n04429376_24073.png,0.0,-1.5324826,-0.11070499,-1.0053486
alexnet_w1_mlp_simclrhn_probe2,1,26,NaN,knife,knife,0,0026_pow_dnn_0_knife_35_n03041632_29355.png,n03041632_29355.png,1.0,1.5579236,-1.1383581,1.9065591
alexnet_w1_mlp_simclrhn_probe2,1,27,NaN,clock,clock,0,0027_pow_dnn_0_clock_35_n03196217_5907.png,n03196217_5907.png,1.0,2.6902268,1.3855098,0.9225742
alexnet_w1_mlp_simclrhn_probe2,1,28,NaN,airplane,airplane,0,0028_pow_dnn_0_airplane_35_n02690373_7276.png,n02690373_7276.png,1.0,10.294745,1.9548706,5.8971825
alexnet_w1_mlp_simclrhn_probe2,1,29,NaN,bicycle,bicycle,pow,0029_pow_dnn_pow_bicycle_35_n03792782_15561.png,n03792782_15561.png,1.0,2.796158,-1.6116747,3.1168084
alexnet_w1_mlp_simclrhn_probe2,1,30,NaN,cat,cat,0,0030_pow_dnn_0_cat_35_n02123045_3505.png,n02123045_3505.png,1.0,6.0067887,-1.2062851,5.1004133
alexnet_w1_mlp_simclrhn_probe2,1,31,NaN,oven,knife,0,0031_pow_dnn_0_knife_35_n03041632_34769.png,n03041632_34769.png,0.0,-1.4100797,2.7427306,-2.9364803
alexnet_w1_mlp_simclrhn_probe2,1,32,NaN,elephant,clock,pow,0032_pow_dnn_pow_clock_35_n03196217_5206.png,n03196217_5206.png,0.0,-3.6761072,0.110539734,-2.6775637
alexnet_w1_mlp_simclrhn_probe2,1,33,NaN,truck,truck,0,0033_pow_dnn_0_truck_35_n04467665_58815.png,n04467665_58815.png,1.0,2.030024,1.3590283,0.47446564
alexnet_w1_mlp_simclrhn_probe2,1,34,NaN,bird,bird,0,0034_pow_dnn_0_bird_35_n01616318_2186.png,n01616318_2186.png,1.0,3.9198983,-4.5541086,5.9920278
alexnet_w1_mlp_simclrhn_probe2,1,35,NaN,elephant,bicycle,pow,0035_pow_dnn_pow_bicycle_35_n03792782_12885.png,n03792782_12885.png,0.0,-2.51601,0.99098253,-2.4798183
alexnet_w1_mlp_simclrhn_probe2,1,36,NaN,oven,airplane,pow,0036_pow_dnn_pow_airplane_35_n02690373_9264.png,n02690373_9264.png,0.0,-2.0395944,0.56587976,-1.8423486
alexnet_w1_mlp_simclrhn_probe2,1,37,NaN,bottle,chair,0,0037_pow_dnn_0_chair_35_n04099969_16079.png,n04099969_16079.png,0.0,-0.5109768,0.04585433,-0.39373907
alexnet_w1_mlp_simclrhn_probe2,1,38,NaN,bicycle,bicycle,0,0038_pow_dnn_0_bicycle_35_n02835271_3027.png,n02835271_3027.png,1.0,2.1217268,-0.22049406,1.6562002
alexnet_w1_mlp_simclrhn_probe2,1,39,NaN,airplane,airplane,0,0039_pow_dnn_0_airplane_35_n02690373_6614.png,n02690373_6614.png,1.0,8.60124,-1.207958,6.936151
alexnet_w1_mlp_simclrhn_probe2,1,40,NaN,airplane,chair,pow,0040_pow_dnn_pow_chair_35_n03376595_9048.png,n03376595_9048.png,0.0,-3.4792814,-0.971034,-1.7735988
alexnet_w1_mlp_simclrhn_probe2,1,41,NaN,oven,oven,0,0041_pow_dnn_0_oven_35_n04111531_6094.png,n04111531_6094.png,1.0,3.702074,2.9021916,0.5656023
alexnet_w1_mlp_simclrhn_probe2,1,42,NaN,clock,clock,pow,0042_pow_dnn_pow_clock_35_n02708093_687.png,n02708093_687.png,1.0,0.5151492,-0.8878266,0.9920537
alexnet_w1_mlp_simclrhn_probe2,1,43,NaN,bicycle,bicycle,pow,0043_pow_dnn_pow_bicycle_35_n03792782_14931.png,n03792782_14931.png,1.0,2.1737115,-1.1365259,2.3406913
alexnet_w1_mlp_simclrhn_probe2,1,44,NaN,keyboard,bottle,0,0044_pow_dnn_0_bottle_35_n03937543_5567.png,n03937543_5567.png,0.0,0.50307566,1.2480867,-0.52680236
alexnet_w1_mlp_simclrhn_probe2,1,45,NaN,car,car,0,0045_pow_dnn_0_car_35_n03100240_3073.png,n03100240_3073.png,1.0,12.587621,6.062212,4.614161
alexnet_w1_mlp_simclrhn_probe2,1,46,NaN,knife,knife,0,0046_pow_dnn_0_knife_35_n03041632_18236.png,n03041632_18236.png,1.0,1.2182264,-2.2068005,2.4218597
alexnet_w1_mlp_simclrhn_probe2,1,47,NaN,cat,knife,pow,0047_pow_dnn_pow_knife_35_n03041632_9302.png,n03041632_9302.png,0.0,-3.6627145,-0.36986646,-2.3283954
alexnet_w1_mlp_simclrhn_probe2,1,48,NaN,bear,bear,0,0048_pow_dnn_0_bear_35_n02134418_2590.png,n02134418_2590.png,1.0,4.4170003,0.8820855,2.4995623
alexnet_w1_mlp_simclrhn_probe2,1,49,NaN,bottle,bottle,0,0049_pow_dnn_0_bottle_35_n03983396_24837.png,n03983396_24837.png,1.0,-0.80275565,-2.6185653,1.2839714
alexnet_w1_mlp_simclrhn_probe2,1,50,NaN,elephant,knife,pow,0050_pow_dnn_pow_knife_35_n03041632_3617.png,n03041632_3617.png,0.0,-1.7480222,-1.1196861,-0.4443007
alexnet_w1_mlp_simclrhn_probe2,1,51,NaN,oven,bicycle,pow,0051_pow_dnn_pow_bicycle_35_n03792782_6735.png,n03792782_6735.png,0.0,-1.230963,0.0532398,-0.90806854
alexnet_w1_mlp_simclrhn_probe2,1,52,NaN,car,car,0,0052_pow_dnn_0_car_35_n03100240_5387.png,n03100240_5387.png,1.0,9.651367,4.0690355,3.9473047
alexnet_w1_mlp_simclrhn_probe2,1,53,NaN,clock,bottle,0,0053_pow_dnn_0_bottle_35_n03983396_4879.png,n03983396_4879.png,0.0,-0.4564574,0.2690767,-0.51303005
alexnet_w1_mlp_simclrhn_probe2,1,54,NaN,car,car,0,0054_pow_dnn_0_car_35_n03100240_6103.png,n03100240_6103.png,1.0,12.801417,8.451805,3.0756404
alexnet_w1_mlp_simclrhn_probe2,1,55,NaN,oven,bird,pow,0055_pow_dnn_pow_bird_35_n01796340_9255.png,n01796340_9255.png,0.0,-1.5480886,0.06525172,-1.1408038
alexnet_w1_mlp_simclrhn_probe2,1,56,NaN,oven,cat,pow,0056_pow_dnn_pow_cat_35_n02123394_2448.png,n02123394_2448.png,0.0,-0.8647091,0.6053674,-1.0395011
alexnet_w1_mlp_simclrhn_probe2,1,57,NaN,car,car,0,0057_pow_dnn_0_car_35_n04285008_13174.png,n04285008_13174.png,1.0,14.616965,8.909687,4.035655
alexnet_w1_mlp_simclrhn_probe2,1,58,NaN,oven,chair,pow,0058_pow_dnn_pow_chair_35_n04429376_353.png,n04429376_353.png,0.0,-1.2672312,1.1315223,-1.696175
alexnet_w1_mlp_simclrhn_probe2,1,59,NaN,bicycle,boat,pow,0059_pow_dnn_pow_boat_35_n02951358_16261.png,n02951358_16261.png,0.0,-2.9171078,-0.27373123,-1.8691496
alexnet_w1_mlp_simclrhn_probe2,1,60,NaN,oven,car,pow,0060_pow_dnn_pow_car_35_n04285008_15954.png,n04285008_15954.png,0.0,-3.6940992,1.3225089,-3.5472777
alexnet_w1_mlp_simclrhn_probe2,1,61,NaN,boat,truck,pow,0061_pow_dnn_pow_truck_35_n04467665_3411.png,n04467665_3411.png,0.0,-2.4282835,-0.73836505,-1.1949527
alexnet_w1_mlp_simclrhn_probe2,1,62,NaN,oven,oven,pow,0062_pow_dnn_pow_oven_35_n04111531_15743.png,n04111531_15743.png,1.0,1.257153,-0.93421507,1.5495312
alexnet_w1_mlp_simclrhn_probe2,1,63,NaN,elephant,dog,0,0063_pow_dnn_0_dog_35_n02088238_8653.png,n02088238_8653.png,0.0,-0.33366045,-0.32646465,-0.0050881994
alexnet_w1_mlp_simclrhn_probe2,1,64,NaN,airplane,airplane,0,0064_pow_dnn_0_airplane_35_n02690373_4681.png,n02690373_4681.png,1.0,6.579601,3.199103,2.390373
alexnet_w1_mlp_simclrhn_probe2,1,65,NaN,oven,bear,pow,0065_pow_dnn_pow_bear_35_n02134418_5684.png,n02134418_5684.png,0.0,0.56671715,1.0743175,-0.35892764
alexnet_w1_mlp_simclrhn_probe2,1,66,NaN,bear,bear,pow,0066_pow_dnn_pow_bear_35_n02134418_5830.png,n02134418_5830.png,1.0,2.5388973,1.0438211,1.0571785
alexnet_w1_mlp_simclrhn_probe2,1,67,NaN,boat,truck,0,0067_pow_dnn_0_truck_35_n04467665_45983.png,n04467665_45983.png,0.0,-1.0152454,2.9730487,-2.82015
alexnet_w1_mlp_simclrhn_probe2,1,68,NaN,elephant,bird,0,0068_pow_dnn_0_bird_35_n01795545_14302.png,n01795545_14302.png,0.0,-1.5133696,0.9201617,-1.7207665
alexnet_w1_mlp_simclrhn_probe2,1,69,NaN,oven,oven,pow,0069_pow_dnn_pow_oven_35_n04111531_19240.png,n04111531_19240.png,1.0,1.1372546,0.32991356,0.57087636
alexnet_w1_mlp_simclrhn_probe2,1,70,NaN,oven,knife,0,0070_pow_dnn_0_knife_35_n03041632_22241.png,n03041632_22241.png,0.0,-0.4602696,1.5075876,-1.3914851
alexnet_w1_mlp_simclrhn_probe2,1,71,NaN,bear,boat,pow,0071_pow_dnn_pow_boat_35_n03344393_815.png,n03344393_815.png,0.0,-2.0456479,0.5312942,-1.8221731
alexnet_w1_mlp_simclrhn_probe2,1,72,NaN,airplane,boat,0,0072_pow_dnn_0_boat_35_n03662601_2120.png,n03662601_2120.png,0.0,0.35331625,3.9373198,-2.5342731
alexnet_w1_mlp_simclrhn_probe2,1,73,NaN,bear,knife,pow,0073_pow_dnn_pow_knife_35_n03041632_2438.png,n03041632_2438.png,0.0,-3.3914714,0.27105427,-2.5897968
alexnet_w1_mlp_simclrhn_probe2,1,74,NaN,bear,bear,pow,0074_pow_dnn_pow_bear_35_n02134418_3073.png,n02134418_3073.png,1.0,3.1367986,1.6427999,1.0564166
alexnet_w1_mlp_simclrhn_probe2,1,75,NaN,elephant,bottle,pow,0075_pow_dnn_pow_bottle_35_n02823428_3328.png,n02823428_3328.png,0.0,-2.936258,1.6402853,-3.236105
alexnet_w1_mlp_simclrhn_probe2,1,76,NaN,bicycle,car,pow,0076_pow_dnn_pow_car_35_n04285008_13259.png,n04285008_13259.png,0.0,-0.7092406,0.052902102,-0.5389163
alexnet_w1_mlp_simclrhn_probe2,1,77,NaN,oven,oven,0,0077_pow_dnn_0_oven_35_n04111531_15852.png,n04111531_15852.png,1.0,0.6665278,-2.651737,2.3463676
alexnet_w1_mlp_simclrhn_probe2,1,78,NaN,elephant,dog,pow,0078_pow_dnn_pow_dog_35_n02099601_447.png,n02099601_447.png,0.0,-1.1405491,4.957544,-4.312003
alexnet_w1_mlp_simclrhn_probe2,1,79,NaN,oven,oven,pow,0079_pow_dnn_pow_oven_35_n04111531_18916.png,n04111531_18916.png,1.0,0.3772107,-0.4242685,0.5667314
alexnet_w1_mlp_simclrhn_probe2,1,80,NaN,knife,bottle,pow,0080_pow_dnn_pow_bottle_35_n04591713_1407.png,n04591713_1407.png,0.0,-0.60354704,-0.56845313,-0.024815138
alexnet_w1_mlp_simclrhn_probe2,1,81,NaN,clock,oven,0,0081_pow_dnn_0_oven_35_n04111531_4585.png,n04111531_4585.png,0.0,0.56336474,1.250328,-0.48575634
alexnet_w1_mlp_simclrhn_probe2,1,82,NaN,oven,keyboard,pow,0082_pow_dnn_pow_keyboard_35_n03085013_8364.png,n03085013_8364.png,0.0,-6.190858,0.2541781,-4.5573287
alexnet_w1_mlp_simclrhn_probe2,1,83,NaN,bear,bear,pow,0083_pow_dnn_pow_bear_35_n02132136_15462.png,n02132136_15462.png,1.0,3.0470414,2.4225957,0.44154978
alexnet_w1_mlp_simclrhn_probe2,1,84,NaN,oven,bicycle,pow,0084_pow_dnn_pow_bicycle_35_n03792782_4167.png,n03792782_4167.png,0.0,-1.3539169,1.519001,-2.0314598
alexnet_w1_mlp_simclrhn_probe2,1,85,NaN,boat,boat,0,0085_pow_dnn_0_boat_35_n03662601_16106.png,n03662601_16106.png,1.0,4.685115,3.4924116,0.8433686
alexnet_w1_mlp_simclrhn_probe2,1,86,NaN,oven,keyboard,pow,0086_pow_dnn_pow_keyboard_35_n03085013_2277.png,n03085013_2277.png,0.0,-2.9532995,1.3064373,-3.012089
alexnet_w1_mlp_simclrhn_probe2,1,87,NaN,elephant,airplane,pow,0087_pow_dnn_pow_airplane_35_n02690373_8461.png,n02690373_8461.png,0.0,-4.6626024,0.09332144,-3.362946
alexnet_w1_mlp_simclrhn_probe2,1,88,NaN,elephant,chair,pow,0088_pow_dnn_pow_chair_35_n03376595_3304.png,n03376595_3304.png,0.0,-2.2450016,-0.28033572,-1.3892286
alexnet_w1_mlp_simclrhn_probe2,1,89,NaN,bicycle,bicycle,0,0089_pow_dnn_0_bicycle_35_n03792782_19116.png,n03792782_19116.png,1.0,1.8446033,-0.45383856,1.6252439
alexnet_w1_mlp_simclrhn_probe2,1,90,NaN,clock,clock,0,0090_pow_dnn_0_clock_35_n02708093_6734.png,n02708093_6734.png,1.0,1.4470196,-0.16718134,1.1414125
alexnet_w1_mlp_simclrhn_probe2,1,91,NaN,oven,chair,0,0091_pow_dnn_0_chair_35_n04429376_6480.png,n04429376_6480.png,0.0,-0.030004382,0.116199315,-0.10338163
alexnet_w1_mlp_simclrhn_probe2,1,92,NaN,bicycle,bicycle,pow,0092_pow_dnn_pow_bicycle_35_n02835271_21339.png,n02835271_21339.png,1.0,-0.05999887,-0.14816423,0.062342323
alexnet_w1_mlp_simclrhn_probe2,1,93,NaN,oven,keyboard,pow,0093_pow_dnn_pow_keyboard_35_n03085013_3859.png,n03085013_3859.png,0.0,-4.2104883,2.220023,-4.5470586
alexnet_w1_mlp_simclrhn_probe2,1,94,NaN,oven,chair,pow,0094_pow_dnn_pow_chair_35_n03376595_360.png,n03376595_360.png,0.0,-2.740599,1.0165564,-2.6567101
alexnet_w1_mlp_simclrhn_probe2,1,95,NaN,bear,elephant,pow,0095_pow_dnn_pow_elephant_35_n02504013_18988.png,n02504013_18988.png,0.0,0.35440785,1.0119008,-0.46491772
alexnet_w1_mlp_simclrhn_probe2,1,96,NaN,oven,chair,0,0096_pow_dnn_0_chair_35_n04429376_54570.png,n04429376_54570.png,0.0,-1.026134,0.60352176,-1.1523408
alexnet_w1_mlp_simclrhn_probe2,1,97,NaN,clock,clock,pow,0097_pow_dnn_pow_clock_35_n04548280_5189.png,n04548280_5189.png,1.0,-1.2427051,-1.4904393,0.17517453
alexnet_w1_mlp_simclrhn_probe2,1,98,NaN,oven,truck,pow,0098_pow_dnn_pow_truck_35_n04467665_6626.png,n04467665_6626.png,0.0,-3.0533724,1.7481618,-3.3951974
alexnet_w1_mlp_simclrhn_probe2,1,99,NaN,boat,boat,0,0099_pow_dnn_0_boat_35_n03344393_3323.png,n03344393_3323.png,1.0,3.3581328,0.666406,1.9033384
alexnet_w1_mlp_simclrhn_probe2,1,100,NaN,elephant,dog,pow,0100_pow_dnn_pow_dog_35_n02100583_3987.png,n02100583_3987.png,0.0,-0.516946,1.2750098,-1.267104
alexnet_w1_mlp_simclrhn_probe2,1,101,NaN,elephant,elephant,pow,0101_pow_dnn_pow_elephant_35_n02504013_1702.png,n02504013_1702.png,1.0,3.4992213,1.4425521,1.4542848
alexnet_w1_mlp_simclrhn_probe2,1,102,NaN,oven,truck,pow,0102_pow_dnn_pow_truck_35_n03417042_1841.png,n03417042_1841.png,0.0,-1.8586042,0.13223624,-1.4077368
alexnet_w1_mlp_simclrhn_probe2,1,103,NaN,truck,truck,0,0103_pow_dnn_0_truck_35_n03417042_2062.png,n03417042_2062.png,1.0,6.9454594,3.7180011,2.2821577
alexnet_w1_mlp_simclrhn_probe2,1,104,NaN,bottle,bottle,0,0104_pow_dnn_0_bottle_35_n03983396_4178.png,n03983396_4178.png,1.0,1.5160936,1.2736928,0.17140323
alexnet_w1_mlp_simclrhn_probe2,1,105,NaN,knife,keyboard,pow,0105_pow_dnn_pow_keyboard_35_n03085013_1698.png,n03085013_1698.png,0.0,-5.3812265,0.09350863,-3.8712225
alexnet_w1_mlp_simclrhn_probe2,1,106,NaN,oven,car,pow,0106_pow_dnn_pow_car_35_n03100240_7056.png,n03100240_7056.png,0.0,-3.5790827,0.8141773,-3.106504
alexnet_w1_mlp_simclrhn_probe2,1,107,NaN,bear,dog,pow,0107_pow_dnn_pow_dog_35_n02100735_3553.png,n02100735_3553.png,0.0,-1.665408,0.68708366,-1.6634628
alexnet_w1_mlp_simclrhn_probe2,1,108,NaN,oven,oven,pow,0108_pow_dnn_pow_oven_35_n04111531_11781.png,n04111531_11781.png,1.0,2.536466,-0.31063697,2.0132058
alexnet_w1_mlp_simclrhn_probe2,1,109,NaN,cat,cat,0,0109_pow_dnn_0_cat_35_n02123159_4914.png,n02123159_4914.png,1.0,2.5276728,0.63421285,1.3388784
alexnet_w1_mlp_simclrhn_probe2,1,110,NaN,bear,dog,0,0110_pow_dnn_0_dog_35_n02090622_1852.png,n02090622_1852.png,0.0,-0.5013457,0.42123127,-0.65236044
alexnet_w1_mlp_simclrhn_probe2,1,111,NaN,car,car,pow,0111_pow_dnn_pow_car_35_n03100240_24471.png,n03100240_24471.png,1.0,0.62744385,0.4870351,0.099283986
alexnet_w1_mlp_simclrhn_probe2,1,112,NaN,oven,boat,pow,0112_pow_dnn_pow_boat_35_n03344393_3519.png,n03344393_3519.png,0.0,-1.153948,0.2564639,-0.9973118
alexnet_w1_mlp_simclrhn_probe2,1,113,NaN,oven,keyboard,pow,0113_pow_dnn_pow_keyboard_35_n03085013_22713.png,n03085013_22713.png,0.0,-3.8214734,1.932425,-4.0686207
alexnet_w1_mlp_simclrhn_probe2,1,114,NaN,elephant,elephant,0,0114_pow_dnn_0_elephant_35_n02504013_6615.png,n02504013_6615.png,1.0,2.1443062,2.0465195,0.06914561
alexnet_w1_mlp_simclrhn_probe2,1,115,NaN,dog,cat,0,0115_pow_dnn_0_cat_35_n02123597_7081.png,n02123597_7081.png,0.0,-0.34472075,0.51515174,-0.6080217
alexnet_w1_mlp_simclrhn_probe2,1,116,NaN,clock,clock,pow,0116_pow_dnn_pow_clock_35_n04548280_5406.png,n04548280_5406.png,1.0,1.6971021,-0.44212374,1.5126611
alexnet_w1_mlp_simclrhn_probe2,1,117,NaN,oven,bottle,0,0117_pow_dnn_0_bottle_35_n03983396_21920.png,n03983396_21920.png,0.0,-1.0267779,3.4679604,-3.1782598
alexnet_w1_mlp_simclrhn_probe2,1,118,NaN,knife,knife,0,0118_pow_dnn_0_knife_35_n03041632_48675.png,n03041632_48675.png,1.0,2.407277,0.10062492,1.6310494
alexnet_w1_mlp_simclrhn_probe2,1,119,NaN,bird,cat,0,0119_pow_dnn_0_cat_35_n02125311_2103.png,n02125311_2103.png,0.0,-2.8498638,-0.67182255,-1.5401077
alexnet_w1_mlp_simclrhn_probe2,1,120,NaN,bird,bird,pow,0120_pow_dnn_pow_bird_35_n01798484_962.png,n01798484_962.png,1.0,-0.43919984,-0.80386233,0.25785533
alexnet_w1_mlp_simclrhn_probe2,1,121,NaN,oven,oven,pow,0121_pow_dnn_pow_oven_35_n04111531_6393.png,n04111531_6393.png,1.0,1.9098473,0.4063167,1.0631566
alexnet_w1_mlp_simclrhn_probe2,1,122,NaN,oven,oven,0,0122_pow_dnn_0_oven_35_n04111531_4418.png,n04111531_4418.png,1.0,3.2721157,-0.22336109,2.4716754
alexnet_w1_mlp_simclrhn_probe2,1,123,NaN,oven,truck,pow,0123_pow_dnn_pow_truck_35_n03796401_296.png,n03796401_296.png,0.0,-3.5690293,1.5285859,-3.6045585
alexnet_w1_mlp_simclrhn_probe2,1,124,NaN,bicycle,bicycle,0,0124_pow_dnn_0_bicycle_35_n02835271_10738.png,n02835271_10738.png,1.0,5.0210514,-2.4955912,5.315069
alexnet_w1_mlp_simclrhn_probe2,1,125,NaN,elephant,elephant,0,0125_pow_dnn_0_elephant_35_n02504013_4457.png,n02504013_4457.png,1.0,15.636181,4.337966,7.9890447
alexnet_w1_mlp_simclrhn_probe2,1,126,NaN,knife,knife,0,0126_pow_dnn_0_knife_35_n03041632_30573.png,n03041632_30573.png,1.0,1.7556543,-0.07747224,1.2962162
alexnet_w1_mlp_simclrhn_probe2,1,127,NaN,airplane,boat,0,0127_pow_dnn_0_boat_35_n03662601_19840.png,n03662601_19840.png,0.0,3.3434997,3.8308024,-0.3445751
alexnet_w1_mlp_simclrhn_probe2,1,128,NaN,elephant,bear,0,0128_pow_dnn_0_bear_35_n02133161_12167.png,n02133161_12167.png,0.0,4.2931,4.7556496,-0.32707202
alexnet_w1_mlp_simclrhn_probe2,1,129,NaN,keyboard,bottle,0,0129_pow_dnn_0_bottle_35_n02823428_3028.png,n02823428_3028.png,0.0,0.1612376,0.36153767,-0.14163354
alexnet_w1_mlp_simclrhn_probe2,1,130,NaN,boat,boat,0,0130_pow_dnn_0_boat_35_n02951358_30149.png,n02951358_30149.png,1.0,3.5126884,0.92436665,1.8302199
alexnet_w1_mlp_simclrhn_probe2,1,131,NaN,car,car,0,0131_pow_dnn_0_car_35_n02814533_75419.png,n02814533_75419.png,1.0,9.611363,6.676074,2.075563
alexnet_w1_mlp_simclrhn_probe2,1,132,NaN,keyboard,keyboard,0,0132_pow_dnn_0_keyboard_35_n03085013_24449.png,n03085013_24449.png,1.0,3.0943198,0.9835133,1.4925656
alexnet_w1_mlp_simclrhn_probe2,1,133,NaN,dog,dog,0,0133_pow_dnn_0_dog_35_n02086240_519.png,n02086240_519.png,1.0,2.2710147,0.81761473,1.0277089
alexnet_w1_mlp_simclrhn_probe2,1,134,NaN,bird,bird,pow,0134_pow_dnn_pow_bird_35_n01582220_2882.png,n01582220_2882.png,1.0,-1.1688347,-1.3316178,0.11510507
alexnet_w1_mlp_simclrhn_probe2,1,135,NaN,oven,oven,0,0135_pow_dnn_0_oven_35_n04111531_13277.png,n04111531_13277.png,1.0,3.2380574,-0.09098834,2.3539908
alexnet_w1_mlp_simclrhn_probe2,1,136,NaN,bear,bear,pow,0136_pow_dnn_pow_bear_35_n02134084_6901.png,n02134084_6901.png,1.0,1.7541513,0.24896783,1.0643255
alexnet_w1_mlp_simclrhn_probe2,1,137,NaN,elephant,bird,0,0137_pow_dnn_0_bird_35_n02002556_5447.png,n02002556_5447.png,0.0,-2.7867465,0.42723304,-2.2726266
alexnet_w1_mlp_simclrhn_probe2,1,138,NaN,keyboard,keyboard,0,0138_pow_dnn_0_keyboard_35_n03085013_20710.png,n03085013_20710.png,1.0,4.3844595,0.60446084,2.6728628
alexnet_w1_mlp_simclrhn_probe2,1,139,NaN,oven,oven,pow,0139_pow_dnn_pow_oven_35_n04111531_11405.png,n04111531_11405.png,1.0,2.186232,-0.8649341,2.1575003
alexnet_w1_mlp_simclrhn_probe2,1,140,NaN,bear,bear,pow,0140_pow_dnn_pow_bear_35_n02132136_8457.png,n02132136_8457.png,1.0,1.2883517,0.28340527,0.71060437
alexnet_w1_mlp_simclrhn_probe2,1,141,NaN,bird,bird,pow,0141_pow_dnn_pow_bird_35_n02009912_6788.png,n02009912_6788.png,1.0,0.35448307,-0.34631965,0.49554235
alexnet_w1_mlp_simclrhn_probe2,1,142,NaN,oven,chair,pow,0142_pow_dnn_pow_chair_35_n04429376_9630.png,n04429376_9630.png,0.0,-2.1612034,0.3688501,-1.7890182
alexnet_w1_mlp_simclrhn_probe2,1,143,NaN,keyboard,keyboard,0,0143_pow_dnn_0_keyboard_35_n03085013_23658.png,n03085013_23658.png,1.0,2.722234,-0.3676373,2.184869
alexnet_w1_mlp_simclrhn_probe2,1,144,NaN,cat,cat,pow,0144_pow_dnn_pow_cat_35_n02123045_13199.png,n02123045_13199.png,1.0,1.1069562,0.56350374,0.38427895
alexnet_w1_mlp_simclrhn_probe2,1,145,NaN,bicycle,clock,pow,0145_pow_dnn_pow_clock_35_n04548280_6411.png,n04548280_6411.png,0.0,-1.9498743,-0.3820067,-1.1086497
alexnet_w1_mlp_simclrhn_probe2,1,146,NaN,bird,bird,0,0146_pow_dnn_0_bird_35_n01820546_9729.png,n01820546_9729.png,1.0,-0.033414263,-0.5891703,0.39297888
alexnet_w1_mlp_simclrhn_probe2,1,147,NaN,boat,boat,0,0147_pow_dnn_0_boat_35_n04273569_12651.png,n04273569_12651.png,1.0,3.2451587,0.26624623,2.106409
alexnet_w1_mlp_simclrhn_probe2,1,148,NaN,elephant,elephant,pow,0148_pow_dnn_pow_elephant_35_n02504458_3143.png,n02504458_3143.png,1.0,0.9679972,0.46888715,0.3529241
alexnet_w1_mlp_simclrhn_probe2,1,149,NaN,clock,clock,0,0149_pow_dnn_0_clock_35_n03196217_9786.png,n03196217_9786.png,1.0,6.076674,3.1226947,2.0887787
alexnet_w1_mlp_simclrhn_probe2,1,150,NaN,airplane,chair,0,0150_pow_dnn_0_chair_35_n03376595_6652.png,n03376595_6652.png,0.0,-0.3741084,0.639992,-0.7170773
alexnet_w1_mlp_simclrhn_probe2,1,151,NaN,oven,bottle,pow,0151_pow_dnn_pow_bottle_35_n03983396_2998.png,n03983396_2998.png,0.0,-1.0012501,1.38717,-1.688868
alexnet_w1_mlp_simclrhn_probe2,1,152,NaN,elephant,elephant,0,0152_pow_dnn_0_elephant_35_n02504458_5331.png,n02504458_5331.png,1.0,8.089257,1.6441147,4.557404
alexnet_w1_mlp_simclrhn_probe2,1,153,NaN,car,car,0,0153_pow_dnn_0_car_35_n04285008_8052.png,n04285008_8052.png,1.0,10.639067,4.2558765,4.513597
alexnet_w1_mlp_simclrhn_probe2,1,154,NaN,oven,bottle,pow,0154_pow_dnn_pow_bottle_35_n04591713_3402.png,n04591713_3402.png,0.0,-1.180251,0.32127237,-1.0617374
alexnet_w1_mlp_simclrhn_probe2,1,155,NaN,oven,bicycle,pow,0155_pow_dnn_pow_bicycle_35_n02835271_1701.png,n02835271_1701.png,0.0,-0.44549698,1.0383646,-1.0492487
alexnet_w1_mlp_simclrhn_probe2,1,156,NaN,bicycle,bicycle,0,0156_pow_dnn_0_bicycle_35_n02835271_5196.png,n02835271_5196.png,1.0,12.336331,0.90533364,8.082936
alexnet_w1_mlp_simclrhn_probe2,1,157,NaN,elephant,elephant,pow,0157_pow_dnn_pow_elephant_35_n02504458_5444.png,n02504458_5444.png,1.0,1.8718596,1.5336279,0.23916592
alexnet_w1_mlp_simclrhn_probe2,1,158,NaN,chair,truck,0,0158_pow_dnn_0_truck_35_n03417042_3422.png,n03417042_3422.png,0.0,-0.3152164,1.3649846,-1.1880816
alexnet_w1_mlp_simclrhn_probe2,1,159,NaN,elephant,dog,pow,0159_pow_dnn_pow_dog_35_n02088466_1537.png,n02088466_1537.png,0.0,0.14764266,1.5480168,-0.9902141
alexnet_w1_mlp_simclrhn_probe2,1,160,NaN,elephant,dog,pow,0160_pow_dnn_pow_dog_35_n02088632_1732.png,n02088632_1732.png,0.0,-0.44431138,1.3294691,-1.2542522
alexnet_w1_mlp_simclrhn_probe2,1,161,NaN,truck,truck,0,0161_pow_dnn_0_truck_35_n03796401_3326.png,n03796401_3326.png,1.0,0.8507782,0.6785599,0.121776745
alexnet_w1_mlp_simclrhn_probe2,1,162,NaN,boat,boat,0,0162_pow_dnn_0_boat_35_n04273569_19796.png,n04273569_19796.png,1.0,5.256086,-2.0633502,5.175623
alexnet_w1_mlp_simclrhn_probe2,1,163,NaN,oven,keyboard,pow,0163_pow_dnn_pow_keyboard_35_n04505470_5125.png,n04505470_5125.png,0.0,0.3802495,0.47458178,-0.06670299
alexnet_w1_mlp_simclrhn_probe2,1,164,NaN,cat,cat,pow,0164_pow_dnn_pow_cat_35_n02123394_1817.png,n02123394_1817.png,1.0,0.89102334,0.6058323,0.20166053
alexnet_w1_mlp_simclrhn_probe2,1,165,NaN,cat,cat,pow,0165_pow_dnn_pow_cat_35_n02123159_7465.png,n02123159_7465.png,1.0,1.8511076,-1.4692051,2.3478158
alexnet_w1_mlp_simclrhn_probe2,1,166,NaN,elephant,cat,0,0166_pow_dnn_0_cat_35_n02125311_33516.png,n02125311_33516.png,0.0,-4.9368997,2.4019809,-5.189372
alexnet_w1_mlp_simclrhn_probe2,1,167,NaN,oven,bicycle,pow,0167_pow_dnn_pow_bicycle_35_n03792782_30246.png,n03792782_30246.png,0.0,-1.0731698,0.18621668,-0.89052075
alexnet_w1_mlp_simclrhn_probe2,1,168,NaN,airplane,truck,0,0168_pow_dnn_0_truck_35_n04467665_72639.png,n04467665_72639.png,0.0,0.03771918,4.4582443,-3.1257832
alexnet_w1_mlp_simclrhn_probe2,1,169,NaN,bicycle,bicycle,0,0169_pow_dnn_0_bicycle_35_n03792782_10395.png,n03792782_10395.png,1.0,4.917615,-1.1524372,4.2921753
alexnet_w1_mlp_simclrhn_probe2,1,170,NaN,elephant,bicycle,pow,0170_pow_dnn_pow_bicycle_35_n02835271_840.png,n02835271_840.png,0.0,-0.070910126,0.46529895,-0.3791571
alexnet_w1_mlp_simclrhn_probe2,1,171,NaN,elephant,knife,pow,0171_pow_dnn_pow_knife_35_n03041632_82197.png,n03041632_82197.png,0.0,-4.082039,0.47620887,-3.223168
alexnet_w1_mlp_simclrhn_probe2,1,172,NaN,oven,airplane,pow,0172_pow_dnn_pow_airplane_35_n02690373_8942.png,n02690373_8942.png,0.0,-4.1458263,2.0643024,-4.3912244
alexnet_w1_mlp_simclrhn_probe2,1,173,NaN,oven,keyboard,0,0173_pow_dnn_0_keyboard_35_n03085013_21851.png,n03085013_21851.png,0.0,1.1035359,2.0292068,-0.65454817
alexnet_w1_mlp_simclrhn_probe2,1,174,NaN,clock,clock,pow,0174_pow_dnn_pow_clock_35_n04548280_1106.png,n04548280_1106.png,1.0,0.5319019,0.012887018,0.36699897
alexnet_w1_mlp_simclrhn_probe2,1,175,NaN,chair,truck,0,0175_pow_dnn_0_truck_35_n03796401_4181.png,n03796401_4181.png,0.0,-0.39097238,0.07428485,-0.32898656
alexnet_w1_mlp_simclrhn_probe2,1,176,NaN,oven,knife,pow,0176_pow_dnn_pow_knife_35_n03041632_44019.png,n03041632_44019.png,0.0,-1.6806357,0.50333655,-1.5443017
alexnet_w1_mlp_simclrhn_probe2,1,177,NaN,truck,truck,0,0177_pow_dnn_0_truck_35_n03417042_1348.png,n03417042_1348.png,1.0,2.8928833,1.7025113,0.8417201
alexnet_w1_mlp_simclrhn_probe2,1,178,NaN,chair,chair,0,0178_pow_dnn_0_chair_35_n04099969_10516.png,n04099969_10516.png,1.0,2.122335,0.711817,0.9973868
alexnet_w1_mlp_simclrhn_probe2,1,179,NaN,oven,chair,pow,0179_pow_dnn_pow_chair_35_n04099969_24041.png,n04099969_24041.png,0.0,-0.8926851,1.1847651,-1.4689792
alexnet_w1_mlp_simclrhn_probe2,1,180,NaN,oven,truck,pow,0180_pow_dnn_pow_truck_35_n03796401_3618.png,n03796401_3618.png,0.0,-3.8418474,1.2921886,-3.6303117
alexnet_w1_mlp_simclrhn_probe2,1,181,NaN,elephant,elephant,0,0181_pow_dnn_0_elephant_35_n02504458_4414.png,n02504458_4414.png,1.0,9.7063465,1.8168151,5.578741
alexnet_w1_mlp_simclrhn_probe2,1,182,NaN,truck,truck,pow,0182_pow_dnn_pow_truck_35_n03796401_3427.png,n03796401_3427.png,1.0,0.4036608,-0.7406068,0.80911934
alexnet_w1_mlp_simclrhn_probe2,1,183,NaN,cat,cat,0,0183_pow_dnn_0_cat_35_n02123045_9907.png,n02123045_9907.png,1.0,-0.6046584,-1.2609174,0.4640452
alexnet_w1_mlp_simclrhn_probe2,1,184,NaN,oven,oven,0,0184_pow_dnn_0_oven_35_n04111531_2156.png,n04111531_2156.png,1.0,3.7789445,-1.1714901,3.500486
alexnet_w1_mlp_simclrhn_probe2,1,185,NaN,bear,bird,pow,0185_pow_dnn_pow_bird_35_n02002556_12696.png,n02002556_12696.png,0.0,-0.39040574,0.71497893,-0.78162503
alexnet_w1_mlp_simclrhn_probe2,1,186,NaN,oven,airplane,pow,0186_pow_dnn_pow_airplane_35_n02690373_8791.png,n02690373_8791.png,0.0,-1.7740623,-0.91529226,-0.6072421
alexnet_w1_mlp_simclrhn_probe2,1,187,NaN,elephant,knife,pow,0187_pow_dnn_pow_knife_35_n03041632_27963.png,n03041632_27963.png,0.0,-2.7667763,-0.112948254,-1.87654
alexnet_w1_mlp_simclrhn_probe2,1,188,NaN,knife,chair,0,0188_pow_dnn_0_chair_35_n03376595_7772.png,n03376595_7772.png,0.0,-0.15600991,0.29580972,-0.31948474
alexnet_w1_mlp_simclrhn_probe2,1,189,NaN,bear,boat,pow,0189_pow_dnn_pow_boat_35_n04273569_3460.png,n04273569_3460.png,0.0,-3.1681304,0.09483114,-2.3072624
alexnet_w1_mlp_simclrhn_probe2,1,190,NaN,oven,oven,0,0190_pow_dnn_0_oven_35_n04111531_5694.png,n04111531_5694.png,1.0,3.4918318,-3.3661704,4.84934
alexnet_w1_mlp_simclrhn_probe2,1,191,NaN,bear,bear,pow,0191_pow_dnn_pow_bear_35_n02134084_17218.png,n02134084_17218.png,1.0,1.8595343,1.3885729,0.33301997
alexnet_w1_mlp_simclrhn_probe2,1,192,NaN,oven,oven,pow,0192_pow_dnn_pow_oven_35_n04111531_2923.png,n04111531_2923.png,1.0,1.5009198,-0.18181291,1.1898717
alexnet_w1_mlp_simclrhn_probe2,1,193,NaN,bird,keyboard,pow,0193_pow_dnn_pow_keyboard_35_n03085013_22669.png,n03085013_22669.png,0.0,-5.117347,-1.1147248,-2.8302813
alexnet_w1_mlp_simclrhn_probe2,1,194,NaN,bottle,bottle,pow,0194_pow_dnn_pow_bottle_35_n04557648_2282.png,n04557648_2282.png,1.0,0.55281913,-0.009883665,0.39789096
alexnet_w1_mlp_simclrhn_probe2,1,195,NaN,elephant,elephant,pow,0195_pow_dnn_pow_elephant_35_n02504013_6693.png,n02504013_6693.png,1.0,4.37805,1.3317324,2.1540718
alexnet_w1_mlp_simclrhn_probe2,1,196,NaN,boat,chair,0,0196_pow_dnn_0_chair_35_n04099969_39507.png,n04099969_39507.png,0.0,-1.2336233,-0.101857685,-0.80027914
alexnet_w1_mlp_simclrhn_probe2,1,197,NaN,oven,car,pow,0197_pow_dnn_pow_car_35_n02814533_61184.png,n02814533_61184.png,0.0,-4.8497005,1.6221097,-4.576261
alexnet_w1_mlp_simclrhn_probe2,1,198,NaN,oven,keyboard,pow,0198_pow_dnn_pow_keyboard_35_n04505470_1358.png,n04505470_1358.png,0.0,-3.5119872,2.4078119,-4.18593
alexnet_w1_mlp_simclrhn_probe2,1,199,NaN,oven,truck,pow,0199_pow_dnn_pow_truck_35_n04467665_8824.png,n04467665_8824.png,0.0,-2.3218858,1.4117827,-2.6401024
alexnet_w1_mlp_simclrhn_probe2,1,200,NaN,clock,keyboard,0,0200_pow_dnn_0_keyboard_35_n04505470_8937.png,n04505470_8937.png,0.0,0.48121667,0.667016,-0.13137999
alexnet_w1_mlp_simclrhn_probe2,1,201,NaN,oven,truck,pow,0201_pow_dnn_pow_truck_35_n03417042_7581.png,n03417042_7581.png,0.0,-2.7733412,-0.19530424,-1.8229475
alexnet_w1_mlp_simclrhn_probe2,1,202,NaN,bicycle,bicycle,pow,0202_pow_dnn_pow_bicycle_35_n02835271_13234.png,n02835271_13234.png,1.0,1.2740457,0.044385906,0.8695008
alexnet_w1_mlp_simclrhn_probe2,1,203,NaN,cat,cat,pow,0203_pow_dnn_pow_cat_35_n02124075_3383.png,n02124075_3383.png,1.0,2.9385407,-0.83310026,2.666953
alexnet_w1_mlp_simclrhn_probe2,1,204,NaN,elephant,elephant,pow,0204_pow_dnn_pow_elephant_35_n02504013_474.png,n02504013_474.png,1.0,2.1346726,1.2220005,0.6453567
alexnet_w1_mlp_simclrhn_probe2,1,205,NaN,oven,chair,pow,0205_pow_dnn_pow_chair_35_n04429376_1838.png,n04429376_1838.png,0.0,-2.095708,0.972878,-2.169818
alexnet_w1_mlp_simclrhn_probe2,1,206,NaN,bear,boat,pow,0206_pow_dnn_pow_boat_35_n02951358_5064.png,n02951358_5064.png,0.0,-1.6183647,0.964785,-1.8265626
alexnet_w1_mlp_simclrhn_probe2,1,207,NaN,elephant,knife,pow,0207_pow_dnn_pow_knife_35_n03041632_31037.png,n03041632_31037.png,0.0,-2.7452903,0.87987363,-2.563378
alexnet_w1_mlp_simclrhn_probe2,1,208,NaN,bear,cat,pow,0208_pow_dnn_pow_cat_35_n02123045_11501.png,n02123045_11501.png,0.0,-0.87792355,-0.11463126,-0.5397292
alexnet_w1_mlp_simclrhn_probe2,1,209,NaN,oven,keyboard,pow,0209_pow_dnn_pow_keyboard_35_n03085013_17937.png,n03085013_17937.png,0.0,-5.066521,0.16078728,-3.6962652
alexnet_w1_mlp_simclrhn_probe2,1,210,NaN,bicycle,chair,0,0210_pow_dnn_0_chair_35_n03376595_10881.png,n03376595_10881.png,0.0,0.6306403,1.7993433,-0.8263979
alexnet_w1_mlp_simclrhn_probe2,1,211,NaN,elephant,elephant,0,0211_pow_dnn_0_elephant_35_n02504458_7302.png,n02504458_7302.png,1.0,13.10611,4.1775823,6.3134227
alexnet_w1_mlp_simclrhn_probe2,1,212,NaN,bear,airplane,pow,0212_pow_dnn_pow_airplane_35_n02690373_4704.png,n02690373_4704.png,0.0,-2.2098365,-0.068642706,-1.5140527
alexnet_w1_mlp_simclrhn_probe2,1,213,NaN,car,car,0,0213_pow_dnn_0_car_35_n03100240_18756.png,n03100240_18756.png,1.0,11.803571,6.4217615,3.8055139
alexnet_w1_mlp_simclrhn_probe2,1,214,NaN,elephant,keyboard,pow,0214_pow_dnn_pow_keyboard_35_n03085013_20732.png,n03085013_20732.png,0.0,-4.294607,-0.5089867,-2.676838
alexnet_w1_mlp_simclrhn_probe2,1,215,NaN,oven,bottle,pow,0215_pow_dnn_pow_bottle_35_n04579145_2999.png,n04579145_2999.png,0.0,0.034223776,1.3579005,-0.9359808
alexnet_w1_mlp_simclrhn_probe2,1,216,NaN,clock,clock,pow,0216_pow_dnn_pow_clock_35_n02708093_2546.png,n02708093_2546.png,1.0,0.30268982,-1.0042505,0.92414635
alexnet_w1_mlp_simclrhn_probe2,1,217,NaN,boat,boat,0,0217_pow_dnn_0_boat_35_n03662601_13847.png,n03662601_13847.png,1.0,2.9981992,1.2407469,1.2427065
alexnet_w1_mlp_simclrhn_probe2,1,218,NaN,bicycle,bicycle,0,0218_pow_dnn_0_bicycle_35_n03792782_7878.png,n03792782_7878.png,1.0,12.7109585,-0.16758823,9.106508
alexnet_w1_mlp_simclrhn_probe2,1,219,NaN,bear,knife,pow,0219_pow_dnn_pow_knife_35_n03041632_18959.png,n03041632_18959.png,0.0,-4.3298798,0.23690486,-3.2292047
alexnet_w1_mlp_simclrhn_probe2,1,220,NaN,bear,bear,0,0220_pow_dnn_0_bear_35_n02134418_10576.png,n02134418_10576.png,1.0,2.9581912,2.3729677,0.41381547
alexnet_w1_mlp_simclrhn_probe2,1,221,NaN,elephant,elephant,pow,0221_pow_dnn_pow_elephant_35_n02504013_213.png,n02504013_213.png,1.0,3.534838,2.5525093,0.69461125
alexnet_w1_mlp_simclrhn_probe2,1,222,NaN,oven,bottle,pow,0222_pow_dnn_pow_bottle_35_n03983396_2944.png,n03983396_2944.png,0.0,-2.3588939,1.7633761,-2.9148853
alexnet_w1_mlp_simclrhn_probe2,1,223,NaN,knife,truck,0,0223_pow_dnn_0_truck_35_n03796401_8964.png,n03796401_8964.png,0.0,-2.989774,1.1704907,-2.9417517
alexnet_w1_mlp_simclrhn_probe2,1,224,NaN,elephant,knife,pow,0224_pow_dnn_pow_knife_35_n03041632_13509.png,n03041632_13509.png,0.0,-1.5708246,0.051890876,-1.1474332
alexnet_w1_mlp_simclrhn_probe2,1,225,NaN,bear,bird,pow,0225_pow_dnn_pow_bird_35_n01537544_7301.png,n01537544_7301.png,0.0,-2.396747,-0.116314165,-1.6125096
alexnet_w1_mlp_simclrhn_probe2,1,226,NaN,elephant,elephant,0,0226_pow_dnn_0_elephant_35_n02504013_9618.png,n02504013_9618.png,1.0,7.742645,3.0986075,3.2838304
alexnet_w1_mlp_simclrhn_probe2,1,227,NaN,oven,keyboard,pow,0227_pow_dnn_pow_keyboard_35_n04505470_10191.png,n04505470_10191.png,0.0,-4.7902746,-0.43554634,-3.079258
alexnet_w1_mlp_simclrhn_probe2,1,228,NaN,bicycle,bicycle,pow,0228_pow_dnn_pow_bicycle_35_n02835271_20149.png,n02835271_20149.png,1.0,0.43114,-0.6194564,0.7428839
alexnet_w1_mlp_simclrhn_probe2,1,229,NaN,truck,truck,0,0229_pow_dnn_0_truck_35_n04467665_2098.png,n04467665_2098.png,1.0,4.0608077,-0.18788588,3.00428
alexnet_w1_mlp_simclrhn_probe2,1,230,NaN,bear,bear,0,0230_pow_dnn_0_bear_35_n02133161_5274.png,n02133161_5274.png,1.0,2.4189086,0.74004847,1.1871334
alexnet_w1_mlp_simclrhn_probe2,1,231,NaN,bear,bird,pow,0231_pow_dnn_pow_bird_35_n01537544_20224.png,n01537544_20224.png,0.0,-1.2430742,-0.355439,-0.6276529
alexnet_w1_mlp_simclrhn_probe2,1,232,NaN,dog,dog,pow,0232_pow_dnn_pow_dog_35_n02094258_6800.png,n02094258_6800.png,1.0,0.07351223,-0.5655489,0.45188445
alexnet_w1_mlp_simclrhn_probe2,1,233,NaN,truck,truck,0,0233_pow_dnn_0_truck_35_n03417042_27326.png,n03417042_27326.png,1.0,6.8257804,1.5325823,3.7428563
alexnet_w1_mlp_simclrhn_probe2,1,234,NaN,oven,oven,pow,0234_pow_dnn_pow_oven_35_n04111531_6955.png,n04111531_6955.png,1.0,2.7830386,-1.3466188,2.9201088
alexnet_w1_mlp_simclrhn_probe2,1,235,NaN,clock,clock,0,0235_pow_dnn_0_clock_35_n04548280_7135.png,n04548280_7135.png,1.0,1.4118072,-0.52265334,1.3678702
alexnet_w1_mlp_simclrhn_probe2,1,236,NaN,oven,dog,pow,0236_pow_dnn_pow_dog_35_n02113023_12143.png,n02113023_12143.png,0.0,-3.0579476,0.7369635,-2.6834075
alexnet_w1_mlp_simclrhn_probe2,1,237,NaN,bicycle,bicycle,0,0237_pow_dnn_0_bicycle_35_n02835271_10832.png,n02835271_10832.png,1.0,4.7931876,0.2460658,3.2153008
alexnet_w1_mlp_simclrhn_probe2,1,238,NaN,oven,chair,pow,0238_pow_dnn_pow_chair_35_n02791124_28.png,n02791124_28.png,0.0,-1.0142244,1.6297591,-1.8695786
alexnet_w1_mlp_simclrhn_probe2,1,239,NaN,bicycle,bicycle,pow,0239_pow_dnn_pow_bicycle_35_n03792782_1715.png,n03792782_1715.png,1.0,1.9006479,-0.83292425,1.9329274
alexnet_w1_mlp_simclrhn_probe2,1,240,NaN,bicycle,bicycle,0,0240_pow_dnn_0_bicycle_35_n02835271_19875.png,n02835271_19875.png,1.0,5.068374,-1.0292016,4.3116374
alexnet_w1_mlp_simclrhn_probe2,1,241,NaN,bird,bird,0,0241_pow_dnn_0_bird_35_n02056570_8203.png,n02056570_8203.png,1.0,1.5048788,-2.4604723,2.8039267
alexnet_w1_mlp_simclrhn_probe2,1,242,NaN,elephant,car,pow,0242_pow_dnn_pow_car_35_n02814533_27588.png,n02814533_27588.png,0.0,-3.4717152,0.120613314,-2.54016
alexnet_w1_mlp_simclrhn_probe2,1,243,NaN,elephant,bear,0,0243_pow_dnn_0_bear_35_n02134418_2714.png,n02134418_2714.png,0.0,0.43806887,1.1004119,-0.46834725
alexnet_w1_mlp_simclrhn_probe2,1,244,NaN,bear,bear,0,0244_pow_dnn_0_bear_35_n02132136_900.png,n02132136_900.png,1.0,5.2761354,0.93311334,3.0709805
alexnet_w1_mlp_simclrhn_probe2,1,245,NaN,dog,dog,0,0245_pow_dnn_0_dog_35_n02095889_7413.png,n02095889_7413.png,1.0,0.7926881,-0.99571854,1.2645944
alexnet_w1_mlp_simclrhn_probe2,1,246,NaN,boat,boat,0,0246_pow_dnn_0_boat_35_n02951358_14877.png,n02951358_14877.png,1.0,-0.0034059049,-0.13243434,0.09123689
alexnet_w1_mlp_simclrhn_probe2,1,247,NaN,knife,knife,pow,0247_pow_dnn_pow_knife_35_n03041632_42472.png,n03041632_42472.png,1.0,-0.05963777,-0.45977747,0.2829415
alexnet_w1_mlp_simclrhn_probe2,1,248,NaN,bottle,bottle,pow,0248_pow_dnn_pow_bottle_35_n02823428_12740.png,n02823428_12740.png,1.0,1.323699,-1.3863436,1.9162894
alexnet_w1_mlp_simclrhn_probe2,1,249,NaN,car,boat,0,0249_pow_dnn_0_boat_35_n02951358_2537.png,n02951358_2537.png,0.0,0.30199033,1.3536415,-0.74362975
alexnet_w1_mlp_simclrhn_probe2,1,250,NaN,dog,dog,0,0250_pow_dnn_0_dog_35_n02106166_5135.png,n02106166_5135.png,1.0,0.7758874,-1.1181402,1.3392799
alexnet_w1_mlp_simclrhn_probe2,1,251,NaN,oven,oven,pow,0251_pow_dnn_pow_oven_35_n04111531_23046.png,n04111531_23046.png,1.0,3.0083928,-1.376729,3.1007495
alexnet_w1_mlp_simclrhn_probe2,1,252,NaN,bear,dog,pow,0252_pow_dnn_pow_dog_35_n02105855_3310.png,n02105855_3310.png,0.0,-0.5792665,0.40746757,-0.6977263
alexnet_w1_mlp_simclrhn_probe2,1,253,NaN,bird,bird,0,0253_pow_dnn_0_bird_35_n01843383_2122.png,n01843383_2122.png,1.0,-0.6833282,-2.4297538,1.2349094
alexnet_w1_mlp_simclrhn_probe2,1,254,NaN,oven,boat,pow,0254_pow_dnn_pow_boat_35_n03344393_8407.png,n03344393_8407.png,0.0,-2.415835,-0.26455837,-1.5211823
alexnet_w1_mlp_simclrhn_probe2,1,255,NaN,clock,clock,pow,0255_pow_dnn_pow_clock_35_n04548280_4739.png,n04548280_4739.png,1.0,-0.24878156,-0.76732296,0.36666414
alexnet_w1_mlp_simclrhn_probe2,1,256,NaN,keyboard,keyboard,0,0256_pow_dnn_0_keyboard_35_n04505470_3531.png,n04505470_3531.png,1.0,5.265814,0.5725831,3.3186152
alexnet_w1_mlp_simclrhn_probe2,1,257,NaN,elephant,airplane,pow,0257_pow_dnn_pow_airplane_35_n02690373_7740.png,n02690373_7740.png,0.0,-3.9577034,0.8799515,-3.4207387
alexnet_w1_mlp_simclrhn_probe2,1,258,NaN,bear,bear,pow,0258_pow_dnn_pow_bear_35_n02132136_4699.png,n02132136_4699.png,1.0,2.5205164,0.14652468,1.6786656
alexnet_w1_mlp_simclrhn_probe2,1,259,NaN,bear,airplane,pow,0259_pow_dnn_pow_airplane_35_n02690373_5277.png,n02690373_5277.png,0.0,-0.5166186,-0.24410138,-0.19269879
alexnet_w1_mlp_simclrhn_probe2,1,260,NaN,clock,clock,pow,0260_pow_dnn_pow_clock_35_n04548280_8841.png,n04548280_8841.png,1.0,0.28536034,0.065485336,0.15547511
alexnet_w1_mlp_simclrhn_probe2,1,261,NaN,oven,truck,pow,0261_pow_dnn_pow_truck_35_n03796401_142.png,n03796401_142.png,0.0,-5.929763,2.3792844,-5.875384
alexnet_w1_mlp_simclrhn_probe2,1,262,NaN,bear,bear,pow,0262_pow_dnn_pow_bear_35_n02134418_4666.png,n02134418_4666.png,1.0,0.012447972,-0.7663115,0.5506661
alexnet_w1_mlp_simclrhn_probe2,1,263,NaN,chair,chair,0,0263_pow_dnn_0_chair_35_n04429376_17074.png,n04429376_17074.png,1.0,-0.8063468,-1.3285004,0.36921838
alexnet_w1_mlp_simclrhn_probe2,1,264,NaN,dog,dog,0,0264_pow_dnn_0_dog_35_n02107683_1934.png,n02107683_1934.png,1.0,3.1967452,-0.049937528,2.2957513
alexnet_w1_mlp_simclrhn_probe2,1,265,NaN,bicycle,bicycle,0,0265_pow_dnn_0_bicycle_35_n03792782_3765.png,n03792782_3765.png,1.0,0.69288003,-2.248046,2.0795488
alexnet_w1_mlp_simclrhn_probe2,1,266,NaN,elephant,elephant,pow,0266_pow_dnn_pow_elephant_35_n02504013_7026.png,n02504013_7026.png,1.0,4.411336,1.2298901,2.2496219
alexnet_w1_mlp_simclrhn_probe2,1,267,NaN,oven,clock,pow,0267_pow_dnn_pow_clock_35_n03196217_3063.png,n03196217_3063.png,0.0,-6.411249,0.1405977,-4.6328554
alexnet_w1_mlp_simclrhn_probe2,1,268,NaN,elephant,bear,pow,0268_pow_dnn_pow_bear_35_n02134418_1041.png,n02134418_1041.png,0.0,1.1634359,1.2046156,-0.029118415
alexnet_w1_mlp_simclrhn_probe2,1,269,NaN,boat,boat,pow,0269_pow_dnn_pow_boat_35_n03344393_8258.png,n03344393_8258.png,1.0,-0.4605263,-1.329089,0.6141666
alexnet_w1_mlp_simclrhn_probe2,1,270,NaN,oven,oven,0,0270_pow_dnn_0_oven_35_n04111531_10306.png,n04111531_10306.png,1.0,5.248068,0.60911036,3.2802384
alexnet_w1_mlp_simclrhn_probe2,1,271,NaN,clock,bottle,0,0271_pow_dnn_0_bottle_35_n02823428_641.png,n02823428_641.png,0.0,0.82451576,2.7737987,-1.3783512
alexnet_w1_mlp_simclrhn_probe2,1,272,NaN,oven,oven,pow,0272_pow_dnn_pow_oven_35_n04111531_1873.png,n04111531_1873.png,1.0,2.1493516,-0.47102177,1.8528837
alexnet_w1_mlp_simclrhn_probe2,1,273,NaN,bear,bear,0,0273_pow_dnn_0_bear_35_n02134418_559.png,n02134418_559.png,1.0,3.5806918,0.6664024,2.0607138
alexnet_w1_mlp_simclrhn_probe2,1,274,NaN,oven,keyboard,pow,0274_pow_dnn_pow_keyboard_35_n04505470_4844.png,n04505470_4844.png,0.0,-2.1161342,1.9600537,-2.8823004
alexnet_w1_mlp_simclrhn_probe2,1,275,NaN,keyboard,keyboard,0,0275_pow_dnn_0_keyboard_35_n03085013_23291.png,n03085013_23291.png,1.0,3.5251586,1.4191316,1.489186
alexnet_w1_mlp_simclrhn_probe2,1,276,NaN,car,car,0,0276_pow_dnn_0_car_35_n03100240_5808.png,n03100240_5808.png,1.0,9.7395525,4.933831,3.398158
alexnet_w1_mlp_simclrhn_probe2,1,277,NaN,boat,bear,0,0277_pow_dnn_0_bear_35_n02134084_15968.png,n02134084_15968.png,0.0,-1.7904177,-0.250507,-1.0888813
alexnet_w1_mlp_simclrhn_probe2,1,278,NaN,bear,cat,0,0278_pow_dnn_0_cat_35_n02125311_20238.png,n02125311_20238.png,0.0,-1.8121141,1.0373356,-2.0148652
alexnet_w1_mlp_simclrhn_probe2,1,279,NaN,bird,bird,0,0279_pow_dnn_0_bird_35_n02028035_8994.png,n02028035_8994.png,1.0,0.2109394,-1.0471921,0.88963336
alexnet_w1_mlp_simclrhn_probe2,1,280,NaN,knife,airplane,pow,0280_pow_dnn_pow_airplane_35_n02690373_4471.png,n02690373_4471.png,0.0,-1.3713936,-0.012941688,-0.9605705
alexnet_w1_mlp_simclrhn_probe2,1,281,NaN,car,truck,0,0281_pow_dnn_0_truck_35_n03796401_322.png,n03796401_322.png,0.0,5.7103214,8.681563,-2.1009853
alexnet_w1_mlp_simclrhn_probe2,1,282,NaN,oven,car,pow,0282_pow_dnn_pow_car_35_n04285008_402.png,n04285008_402.png,0.0,-5.1378555,0.7831227,-4.186764
alexnet_w1_mlp_simclrhn_probe2,1,283,NaN,oven,oven,0,0283_pow_dnn_0_oven_35_n04111531_807.png,n04111531_807.png,1.0,3.435264,0.8897557,1.7999463
alexnet_w1_mlp_simclrhn_probe2,1,284,NaN,oven,oven,0,0284_pow_dnn_0_oven_35_n04111531_20369.png,n04111531_20369.png,1.0,7.494469,-3.3254426,7.650833
alexnet_w1_mlp_simclrhn_probe2,1,285,NaN,elephant,knife,pow,0285_pow_dnn_pow_knife_35_n03041632_24114.png,n03041632_24114.png,0.0,-2.6845706,0.64455557,-2.3540478
alexnet_w1_mlp_simclrhn_probe2,1,286,NaN,elephant,dog,0,0286_pow_dnn_0_dog_35_n02093256_1102.png,n02093256_1102.png,0.0,-0.42642838,1.2445135,-1.1815343
alexnet_w1_mlp_simclrhn_probe2,1,287,NaN,bottle,bottle,0,0287_pow_dnn_0_bottle_35_n03983396_17636.png,n03983396_17636.png,1.0,5.693451,1.2860243,3.1165214
alexnet_w1_mlp_simclrhn_probe2,1,288,NaN,bicycle,bird,0,0288_pow_dnn_0_bird_35_n01855672_55167.png,n01855672_55167.png,0.0,-1.287175,0.10230148,-0.9825083
alexnet_w1_mlp_simclrhn_probe2,1,289,NaN,keyboard,bottle,0,0289_pow_dnn_0_bottle_35_n02823428_1149.png,n02823428_1149.png,0.0,-0.32751793,1.1530831,-1.0469431
alexnet_w1_mlp_simclrhn_probe2,1,290,NaN,oven,truck,pow,0290_pow_dnn_pow_truck_35_n03417042_1182.png,n03417042_1182.png,0.0,-2.3133082,1.5411087,-2.7254844
alexnet_w1_mlp_simclrhn_probe2,1,291,NaN,bear,bear,0,0291_pow_dnn_0_bear_35_n02134084_22051.png,n02134084_22051.png,1.0,2.8037512,0.42747185,1.6802833
alexnet_w1_mlp_simclrhn_probe2,1,292,NaN,bear,cat,pow,0292_pow_dnn_pow_cat_35_n02123159_5170.png,n02123159_5170.png,0.0,-1.4078102,-0.14189494,-0.8951373
alexnet_w1_mlp_simclrhn_probe2,1,293,NaN,bear,airplane,pow,0293_pow_dnn_pow_airplane_35_n02690373_4042.png,n02690373_4042.png,0.0,-0.31308746,-0.08573112,-0.16076522
alexnet_w1_mlp_simclrhn_probe2,1,294,NaN,oven,airplane,pow,0294_pow_dnn_pow_airplane_35_n02690373_6231.png,n02690373_6231.png,0.0,-3.094221,1.4320749,-3.2005746
alexnet_w1_mlp_simclrhn_probe2,1,295,NaN,bear,bear,0,0295_pow_dnn_0_bear_35_n02134418_4657.png,n02134418_4657.png,1.0,2.7771912,1.6724045,0.78120214
alexnet_w1_mlp_simclrhn_probe2,1,296,NaN,car,car,0,0296_pow_dnn_0_car_35_n03100240_24505.png,n03100240_24505.png,1.0,6.234659,1.7786198,3.1508958
alexnet_w1_mlp_simclrhn_probe2,1,297,NaN,bird,bird,0,0297_pow_dnn_0_bird_35_n02006656_4031.png,n02006656_4031.png,1.0,0.33371484,-2.050343,1.6857836
alexnet_w1_mlp_simclrhn_probe2,1,298,NaN,truck,truck,0,0298_pow_dnn_0_truck_35_n03796401_20861.png,n03796401_20861.png,1.0,3.3356743,2.3615408,0.6888164
alexnet_w1_mlp_simclrhn_probe2,1,299,NaN,oven,truck,0,0299_pow_dnn_0_truck_35_n03417042_4934.png,n03417042_4934.png,0.0,-0.29548258,4.369917,-3.2989357
alexnet_w1_mlp_simclrhn_probe2,1,300,NaN,bird,bird,0,0300_pow_dnn_0_bird_35_n01824575_3046.png,n01824575_3046.png,1.0,-0.30447862,-2.9554949,1.8745515
alexnet_w1_mlp_simclrhn_probe2,1,301,NaN,elephant,elephant,pow,0301_pow_dnn_pow_elephant_35_n02504458_3463.png,n02504458_3463.png,1.0,1.2257255,-0.39621162,1.1468828
alexnet_w1_mlp_simclrhn_probe2,1,302,NaN,airplane,airplane,0,0302_pow_dnn_0_airplane_35_n02690373_6914.png,n02690373_6914.png,1.0,8.029616,2.6850471,3.7791812
alexnet_w1_mlp_simclrhn_probe2,1,303,NaN,oven,bottle,0,0303_pow_dnn_0_bottle_35_n03983396_3675.png,n03983396_3675.png,0.0,-0.23712246,0.01560545,-0.17870563
alexnet_w1_mlp_simclrhn_probe2,1,304,NaN,cat,dog,pow,0304_pow_dnn_pow_dog_35_n02088364_12272.png,n02088364_12272.png,0.0,0.32062414,1.5958662,-0.9017323
alexnet_w1_mlp_simclrhn_probe2,1,305,NaN,dog,dog,0,0305_pow_dnn_0_dog_35_n02085936_1706.png,n02085936_1706.png,1.0,0.8279277,-1.2581832,1.4751033
alexnet_w1_mlp_simclrhn_probe2,1,306,NaN,elephant,bear,0,0306_pow_dnn_0_bear_35_n02134084_18372.png,n02134084_18372.png,0.0,1.4337034,2.382797,-0.6711105
alexnet_w1_mlp_simclrhn_probe2,1,307,NaN,keyboard,keyboard,0,0307_pow_dnn_0_keyboard_35_n04505470_751.png,n04505470_751.png,1.0,3.7359293,1.0568436,1.8943998
alexnet_w1_mlp_simclrhn_probe2,1,308,NaN,bird,bird,0,0308_pow_dnn_0_bird_35_n02018207_19525.png,n02018207_19525.png,1.0,-0.60075164,-2.2414303,1.160135
alexnet_w1_mlp_simclrhn_probe2,1,309,NaN,oven,bicycle,pow,0309_pow_dnn_pow_bicycle_35_n02835271_3329.png,n02835271_3329.png,0.0,-1.9433918,1.5262771,-2.4534264
alexnet_w1_mlp_simclrhn_probe2,1,310,NaN,clock,clock,pow,0310_pow_dnn_pow_clock_35_n04548280_1960.png,n04548280_1960.png,1.0,-1.7728056,-2.7601442,0.69815385
alexnet_w1_mlp_simclrhn_probe2,1,311,NaN,chair,chair,0,0311_pow_dnn_0_chair_35_n03376595_6240.png,n03376595_6240.png,1.0,1.7955005,0.84274536,0.6736996
alexnet_w1_mlp_simclrhn_probe2,1,312,NaN,bear,knife,pow,0312_pow_dnn_pow_knife_35_n03041632_13194.png,n03041632_13194.png,0.0,-1.9631385,0.34879512,-1.6347839
alexnet_w1_mlp_simclrhn_probe2,1,313,NaN,bicycle,knife,0,0313_pow_dnn_0_knife_35_n03041632_13465.png,n03041632_13465.png,0.0,-4.796051,0.942191,-4.05755
alexnet_w1_mlp_simclrhn_probe2,1,314,NaN,cat,cat,pow,0314_pow_dnn_pow_cat_35_n02125311_10174.png,n02125311_10174.png,1.0,1.0668696,-0.012268901,0.7630662
alexnet_w1_mlp_simclrhn_probe2,1,315,NaN,oven,car,pow,0315_pow_dnn_pow_car_35_n02814533_7420.png,n02814533_7420.png,0.0,-3.6278098,2.5916042,-4.39779
alexnet_w1_mlp_simclrhn_probe2,1,316,NaN,elephant,truck,pow,0316_pow_dnn_pow_truck_35_n04467665_3876.png,n04467665_3876.png,0.0,-2.2980547,0.089485675,-1.688246
alexnet_w1_mlp_simclrhn_probe2,1,317,NaN,airplane,airplane,0,0317_pow_dnn_0_airplane_35_n02690373_12976.png,n02690373_12976.png,1.0,7.397308,3.154346,3.0002272
alexnet_w1_mlp_simclrhn_probe2,1,318,NaN,elephant,bear,pow,0318_pow_dnn_pow_bear_35_n02133161_10441.png,n02133161_10441.png,0.0,1.7001946,1.7565802,-0.03987067
alexnet_w1_mlp_simclrhn_probe2,1,319,NaN,oven,chair,pow,0319_pow_dnn_pow_chair_35_n03376595_13703.png,n03376595_13703.png,0.0,-3.050184,0.60763764,-2.5864706
alexnet_w1_mlp_simclrhn_probe2,1,320,NaN,bicycle,bicycle,pow,0320_pow_dnn_pow_bicycle_35_n03792782_11625.png,n03792782_11625.png,1.0,0.9559365,-0.52563447,1.0476289
alexnet_w1_mlp_simclrhn_probe2,1,321,NaN,oven,oven,pow,0321_pow_dnn_pow_oven_35_n04111531_22797.png,n04111531_22797.png,1.0,0.9569932,0.051023964,0.640617
alexnet_w1_mlp_simclrhn_probe2,1,322,NaN,oven,chair,pow,0322_pow_dnn_pow_chair_35_n03376595_9651.png,n03376595_9651.png,0.0,-2.0811462,0.36161932,-1.7272961
alexnet_w1_mlp_simclrhn_probe2,1,323,NaN,bear,bicycle,pow,0323_pow_dnn_pow_bicycle_35_n03792782_4830.png,n03792782_4830.png,0.0,-0.7697434,0.10833734,-0.6208969
alexnet_w1_mlp_simclrhn_probe2,1,324,NaN,elephant,elephant,pow,0324_pow_dnn_pow_elephant_35_n02504013_7191.png,n02504013_7191.png,1.0,0.18330531,-0.34543967,0.37387916
alexnet_w1_mlp_simclrhn_probe2,1,325,NaN,knife,knife,0,0325_pow_dnn_0_knife_35_n03041632_120.png,n03041632_120.png,1.0,2.2911053,-0.2774063,1.8162119
alexnet_w1_mlp_simclrhn_probe2,1,326,NaN,elephant,airplane,pow,0326_pow_dnn_pow_airplane_35_n02690373_5465.png,n02690373_5465.png,0.0,-5.6966324,-0.42854172,-3.7251027
alexnet_w1_mlp_simclrhn_probe2,1,327,NaN,oven,car,pow,0327_pow_dnn_pow_car_35_n04285008_8443.png,n04285008_8443.png,0.0,-1.7316009,0.7736516,-1.7714809
alexnet_w1_mlp_simclrhn_probe2,1,328,NaN,bottle,bottle,0,0328_pow_dnn_0_bottle_35_n04557648_132.png,n04557648_132.png,1.0,7.3774,-1.1055475,5.9983497
alexnet_w1_mlp_simclrhn_probe2,1,329,NaN,bear,airplane,pow,0329_pow_dnn_pow_airplane_35_n02690373_18304.png,n02690373_18304.png,0.0,-1.3666103,-0.8974003,-0.33178157
alexnet_w1_mlp_simclrhn_probe2,1,330,NaN,oven,knife,pow,0330_pow_dnn_pow_knife_35_n03041632_102764.png,n03041632_102764.png,0.0,-2.110956,0.7023721,-1.9893234
alexnet_w1_mlp_simclrhn_probe2,1,331,NaN,oven,chair,pow,0331_pow_dnn_pow_chair_35_n02791124_16913.png,n02791124_16913.png,0.0,-0.86607397,0.60731816,-1.0418456
alexnet_w1_mlp_simclrhn_probe2,1,332,NaN,bicycle,bicycle,pow,0332_pow_dnn_pow_bicycle_35_n02835271_324.png,n02835271_324.png,1.0,0.1864109,-0.38413775,0.40343884
alexnet_w1_mlp_simclrhn_probe2,1,333,NaN,boat,airplane,pow,0333_pow_dnn_pow_airplane_35_n02690373_12966.png,n02690373_12966.png,0.0,-1.7713337,-1.5678576,-0.14387931
alexnet_w1_mlp_simclrhn_probe2,1,334,NaN,elephant,keyboard,pow,0334_pow_dnn_pow_keyboard_35_n03085013_24653.png,n03085013_24653.png,0.0,-5.5169716,0.7575584,-4.436763
alexnet_w1_mlp_simclrhn_probe2,1,335,NaN,bicycle,bicycle,0,0335_pow_dnn_0_bicycle_35_n03792782_18529.png,n03792782_18529.png,1.0,3.6785786,-1.5318465,3.6843271
alexnet_w1_mlp_simclrhn_probe2,1,336,NaN,elephant,airplane,pow,0336_pow_dnn_pow_airplane_35_n02690373_2433.png,n02690373_2433.png,0.0,-2.551073,0.6151669,-2.23887
alexnet_w1_mlp_simclrhn_probe2,1,337,NaN,elephant,cat,0,0337_pow_dnn_0_cat_35_n02125311_28447.png,n02125311_28447.png,0.0,-2.83067,0.8931919,-2.633168
alexnet_w1_mlp_simclrhn_probe2,1,338,NaN,knife,knife,0,0338_pow_dnn_0_knife_35_n03041632_20504.png,n03041632_20504.png,1.0,0.82854605,-0.5915126,1.0041332
alexnet_w1_mlp_simclrhn_probe2,1,339,NaN,bear,bear,pow,0339_pow_dnn_pow_bear_35_n02132136_15870.png,n02132136_15870.png,1.0,0.3522514,0.1961369,0.11038963
alexnet_w1_mlp_simclrhn_probe2,1,340,NaN,car,car,0,0340_pow_dnn_0_car_35_n02814533_11273.png,n02814533_11273.png,1.0,4.0405765,3.3200655,0.5094782
alexnet_w1_mlp_simclrhn_probe2,1,341,NaN,elephant,elephant,0,0341_pow_dnn_0_elephant_35_n02504013_2476.png,n02504013_2476.png,1.0,11.611465,0.9290599,7.5536013
alexnet_w1_mlp_simclrhn_probe2,1,342,NaN,bear,bear,0,0342_pow_dnn_0_bear_35_n02133161_14945.png,n02133161_14945.png,1.0,-0.6156158,-0.6500913,0.024377864
alexnet_w1_mlp_simclrhn_probe2,1,343,NaN,car,car,0,0343_pow_dnn_0_car_35_n04285008_7870.png,n04285008_7870.png,1.0,3.0380895,2.559123,0.33868045
alexnet_w1_mlp_simclrhn_probe2,1,344,NaN,airplane,airplane,0,0344_pow_dnn_0_airplane_35_n02690373_10129.png,n02690373_10129.png,1.0,6.8929715,3.0475876,2.7190971
alexnet_w1_mlp_simclrhn_probe2,1,345,NaN,oven,truck,pow,0345_pow_dnn_pow_truck_35_n03417042_1479.png,n03417042_1479.png,0.0,-3.306271,0.8341141,-2.9276946
alexnet_w1_mlp_simclrhn_probe2,1,346,NaN,bear,boat,pow,0346_pow_dnn_pow_boat_35_n04612504_10662.png,n04612504_10662.png,0.0,-2.0860431,0.39483806,-1.7542479
alexnet_w1_mlp_simclrhn_probe2,1,347,NaN,bird,bird,0,0347_pow_dnn_0_bird_35_n02056570_5891.png,n02056570_5891.png,1.0,-0.3562031,-1.8152943,1.0317333
alexnet_w1_mlp_simclrhn_probe2,1,348,NaN,elephant,elephant,pow,0348_pow_dnn_pow_elephant_35_n02504458_5982.png,n02504458_5982.png,1.0,2.953576,0.87733096,1.468127
alexnet_w1_mlp_simclrhn_probe2,1,349,NaN,oven,truck,pow,0349_pow_dnn_pow_truck_35_n03417042_19955.png,n03417042_19955.png,0.0,-1.0313159,0.15873462,-0.8414929
alexnet_w1_mlp_simclrhn_probe2,1,350,NaN,oven,oven,0,0350_pow_dnn_0_oven_35_n04111531_6120.png,n04111531_6120.png,1.0,6.073193,-0.39165047,4.571335
alexnet_w1_mlp_simclrhn_probe2,1,351,NaN,oven,oven,0,0351_pow_dnn_0_oven_35_n04111531_4750.png,n04111531_4750.png,1.0,2.26245,-3.501965,4.076057
alexnet_w1_mlp_simclrhn_probe2,1,352,NaN,boat,boat,0,0352_pow_dnn_0_boat_35_n02951358_29779.png,n02951358_29779.png,1.0,3.82083,-1.134212,3.503744
alexnet_w1_mlp_simclrhn_probe2,1,353,NaN,bear,bear,0,0353_pow_dnn_0_bear_35_n02134084_14168.png,n02134084_14168.png,1.0,1.0006983,0.18477947,0.5769418
alexnet_w1_mlp_simclrhn_probe2,1,354,NaN,cat,cat,0,0354_pow_dnn_0_cat_35_n02123597_6990.png,n02123597_6990.png,1.0,1.3444759,0.77672744,0.40145877
alexnet_w1_mlp_simclrhn_probe2,1,355,NaN,chair,chair,0,0355_pow_dnn_0_chair_35_n02791124_2008.png,n02791124_2008.png,1.0,3.143811,-0.8809866,2.8459616
alexnet_w1_mlp_simclrhn_probe2,1,356,NaN,oven,car,pow,0356_pow_dnn_pow_car_35_n04285008_2185.png,n04285008_2185.png,0.0,-5.5477433,0.16356075,-4.038502
alexnet_w1_mlp_simclrhn_probe2,1,357,NaN,dog,bear,0,0357_pow_dnn_0_bear_35_n02134084_13205.png,n02134084_13205.png,0.0,-0.7120124,-0.04387536,-0.47244427
alexnet_w1_mlp_simclrhn_probe2,1,358,NaN,elephant,bird,pow,0358_pow_dnn_pow_bird_35_n01558993_6351.png,n01558993_6351.png,0.0,-2.3491852,0.995947,-2.3653657
alexnet_w1_mlp_simclrhn_probe2,1,359,NaN,bicycle,bicycle,0,0359_pow_dnn_0_bicycle_35_n02835271_8017.png,n02835271_8017.png,1.0,2.8384905,2.034373,0.5685969
alexnet_w1_mlp_simclrhn_probe2,1,360,NaN,cat,cat,0,0360_pow_dnn_0_cat_35_n02124075_4189.png,n02124075_4189.png,1.0,5.232533,-1.8668805,5.0200434
alexnet_w1_mlp_simclrhn_probe2,1,361,NaN,elephant,elephant,pow,0361_pow_dnn_pow_elephant_35_n02504458_3616.png,n02504458_3616.png,1.0,4.424414,1.9697065,1.7357404
alexnet_w1_mlp_simclrhn_probe2,1,362,NaN,boat,boat,pow,0362_pow_dnn_pow_boat_35_n04612504_8636.png,n04612504_8636.png,1.0,1.3015703,0.10837835,0.8437142
alexnet_w1_mlp_simclrhn_probe2,1,363,NaN,oven,car,pow,0363_pow_dnn_pow_car_35_n03100240_10502.png,n03100240_10502.png,0.0,-3.6186144,1.9633253,-3.9470274
alexnet_w1_mlp_simclrhn_probe2,1,364,NaN,bottle,bottle,0,0364_pow_dnn_0_bottle_35_n03983396_2271.png,n03983396_2271.png,1.0,-0.8233518,-2.702932,1.3290638
alexnet_w1_mlp_simclrhn_probe2,1,365,NaN,clock,clock,0,0365_pow_dnn_0_clock_35_n04548280_280.png,n04548280_280.png,1.0,2.7178707,1.3025163,1.0008067
alexnet_w1_mlp_simclrhn_probe2,1,366,NaN,airplane,truck,0,0366_pow_dnn_0_truck_35_n04467665_356.png,n04467665_356.png,0.0,1.3430624,3.8964853,-1.8055427
alexnet_w1_mlp_simclrhn_probe2,1,367,NaN,airplane,airplane,0,0367_pow_dnn_0_airplane_35_n02690373_306.png,n02690373_306.png,1.0,8.840047,0.33174878,6.0162754
alexnet_w1_mlp_simclrhn_probe2,1,368,NaN,elephant,bird,pow,0368_pow_dnn_pow_bird_35_n02007558_11331.png,n02007558_11331.png,0.0,-2.122904,2.2884383,-3.1192904
alexnet_w1_mlp_simclrhn_probe2,1,369,NaN,cat,dog,0,0369_pow_dnn_0_dog_35_n02105162_1003.png,n02105162_1003.png,0.0,-0.14996465,0.02961273,-0.12698038
alexnet_w1_mlp_simclrhn_probe2,1,370,NaN,oven,bird,pow,0370_pow_dnn_pow_bird_35_n01534433_11695.png,n01534433_11695.png,0.0,-2.2224653,1.1577525,-2.3901749
alexnet_w1_mlp_simclrhn_probe2,1,371,NaN,oven,oven,0,0371_pow_dnn_0_oven_35_n04111531_19631.png,n04111531_19631.png,1.0,6.543728,2.3451176,2.9688659
alexnet_w1_mlp_simclrhn_probe2,1,372,NaN,elephant,elephant,pow,0372_pow_dnn_pow_elephant_35_n02504013_8534.png,n02504013_8534.png,1.0,2.6355996,0.7417425,1.3391593
alexnet_w1_mlp_simclrhn_probe2,1,373,NaN,keyboard,oven,0,0373_pow_dnn_0_oven_35_n04111531_10436.png,n04111531_10436.png,0.0,1.1165385,2.1626415,-0.7397065
alexnet_w1_mlp_simclrhn_probe2,1,374,NaN,airplane,airplane,pow,0374_pow_dnn_pow_airplane_35_n02690373_1819.png,n02690373_1819.png,1.0,-0.4663056,-1.1560738,0.48773977
alexnet_w1_mlp_simclrhn_probe2,1,375,NaN,knife,cat,0,0375_pow_dnn_0_cat_35_n02123597_14032.png,n02123597_14032.png,0.0,-2.3510323,-0.63658017,-1.2123007
alexnet_w1_mlp_simclrhn_probe2,1,376,NaN,elephant,elephant,0,0376_pow_dnn_0_elephant_35_n02504013_10922.png,n02504013_10922.png,1.0,2.4616382,-1.4892457,2.7936969
alexnet_w1_mlp_simclrhn_probe2,1,377,NaN,boat,boat,0,0377_pow_dnn_0_boat_35_n03662601_81.png,n03662601_81.png,1.0,2.2862394,1.4315531,0.60435444
alexnet_w1_mlp_simclrhn_probe2,1,378,NaN,bottle,bottle,pow,0378_pow_dnn_pow_bottle_35_n03937543_11347.png,n03937543_11347.png,1.0,0.098009385,-0.6275854,0.513073
alexnet_w1_mlp_simclrhn_probe2,1,379,NaN,elephant,knife,pow,0379_pow_dnn_pow_knife_35_n03041632_85416.png,n03041632_85416.png,0.0,-3.820478,1.1342819,-3.503544
alexnet_w1_mlp_simclrhn_probe2,1,380,NaN,car,car,pow,0380_pow_dnn_pow_car_35_n03100240_15676.png,n03100240_15676.png,1.0,0.33552015,0.1210168,0.15167677
alexnet_w1_mlp_simclrhn_probe2,1,381,NaN,oven,oven,0,0381_pow_dnn_0_oven_35_n04111531_4189.png,n04111531_4189.png,1.0,4.6094227,-1.1134763,4.046701
alexnet_w1_mlp_simclrhn_probe2,1,382,NaN,oven,car,pow,0382_pow_dnn_pow_car_35_n02814533_65623.png,n02814533_65623.png,0.0,-2.32897,0.63641167,-2.0968416
alexnet_w1_mlp_simclrhn_probe2,1,383,NaN,airplane,airplane,0,0383_pow_dnn_0_airplane_35_n02690373_4945.png,n02690373_4945.png,1.0,10.2787895,-1.8214375,8.556153
alexnet_w1_mlp_simclrhn_probe2,1,384,NaN,bicycle,dog,0,0384_pow_dnn_0_dog_35_n02088364_5801.png,n02088364_5801.png,0.0,-0.72127724,0.37378606,-0.77432674
alexnet_w1_mlp_simclrhn_probe2,1,385,NaN,elephant,dog,pow,0385_pow_dnn_pow_dog_35_n02108915_8164.png,n02108915_8164.png,0.0,-1.8256245,0.19366911,-1.4278562
alexnet_w1_mlp_simclrhn_probe2,1,386,NaN,car,car,0,0386_pow_dnn_0_car_35_n03100240_1435.png,n03100240_1435.png,1.0,10.162387,7.6848903,1.7518547
alexnet_w1_mlp_simclrhn_probe2,1,387,NaN,bottle,clock,0,0387_pow_dnn_0_clock_35_n03196217_412.png,n03196217_412.png,0.0,-0.38483,-0.17222154,-0.15033689
alexnet_w1_mlp_simclrhn_probe2,1,388,NaN,bicycle,boat,pow,0388_pow_dnn_pow_boat_35_n03344393_6713.png,n03344393_6713.png,0.0,-1.8835087,-0.8608657,-0.72311777
alexnet_w1_mlp_simclrhn_probe2,1,389,NaN,knife,knife,0,0389_pow_dnn_0_knife_35_n03041632_4305.png,n03041632_4305.png,1.0,-0.59140533,-0.8032404,0.14979003
alexnet_w1_mlp_simclrhn_probe2,1,390,NaN,oven,car,pow,0390_pow_dnn_pow_car_35_n04285008_10287.png,n04285008_10287.png,0.0,-5.9854965,2.5175095,-6.012533
alexnet_w1_mlp_simclrhn_probe2,1,391,NaN,oven,car,pow,0391_pow_dnn_pow_car_35_n04285008_15071.png,n04285008_15071.png,0.0,-3.5627334,0.030841291,-2.5410411
alexnet_w1_mlp_simclrhn_probe2,1,392,NaN,oven,knife,pow,0392_pow_dnn_pow_knife_35_n03041632_22214.png,n03041632_22214.png,0.0,-0.71221995,-0.6295176,-0.058479387
alexnet_w1_mlp_simclrhn_probe2,1,393,NaN,boat,boat,pow,0393_pow_dnn_pow_boat_35_n04612504_3064.png,n04612504_3064.png,1.0,-0.013137984,-0.9705065,0.6769618
alexnet_w1_mlp_simclrhn_probe2,1,394,NaN,chair,chair,0,0394_pow_dnn_0_chair_35_n02791124_7193.png,n02791124_7193.png,1.0,2.6901932,-0.70539016,2.40104
alexnet_w1_mlp_simclrhn_probe2,1,395,NaN,boat,boat,0,0395_pow_dnn_0_boat_35_n03344393_5511.png,n03344393_5511.png,1.0,7.1263084,1.2042526,4.1875257
alexnet_w1_mlp_simclrhn_probe2,1,396,NaN,boat,boat,pow,0396_pow_dnn_pow_boat_35_n04273569_11997.png,n04273569_11997.png,1.0,0.14410467,0.08264235,0.04346043
alexnet_w1_mlp_simclrhn_probe2,1,397,NaN,bicycle,bicycle,0,0397_pow_dnn_0_bicycle_35_n03792782_1424.png,n03792782_1424.png,1.0,0.49201667,-0.5472794,0.7348934
alexnet_w1_mlp_simclrhn_probe2,1,398,NaN,oven,clock,pow,0398_pow_dnn_pow_clock_35_n03196217_3362.png,n03196217_3362.png,0.0,-4.426189,1.1249608,-3.9252558
alexnet_w1_mlp_simclrhn_probe2,1,399,NaN,oven,truck,pow,0399_pow_dnn_pow_truck_35_n04467665_21942.png,n04467665_21942.png,0.0,-2.7959194,0.4302656,-2.2812574
alexnet_w1_mlp_simclrhn_probe2,1,400,NaN,oven,oven,0,0400_pow_dnn_0_oven_35_n04111531_6445.png,n04111531_6445.png,1.0,4.634136,0.4588846,2.9523487
alexnet_w1_mlp_simclrhn_probe2,1,401,NaN,chair,chair,0,0401_pow_dnn_0_chair_35_n04099969_1163.png,n04099969_1163.png,1.0,3.5389128,-0.65817964,2.9677927
alexnet_w1_mlp_simclrhn_probe2,1,402,NaN,clock,clock,pow,0402_pow_dnn_pow_clock_35_n02708093_3645.png,n02708093_3645.png,1.0,1.0333241,-0.49168977,1.0783477
alexnet_w1_mlp_simclrhn_probe2,1,403,NaN,bicycle,bicycle,0,0403_pow_dnn_0_bicycle_35_n03792782_68319.png,n03792782_68319.png,1.0,5.8775787,-2.8864362,6.197095
alexnet_w1_mlp_simclrhn_probe2,1,404,NaN,elephant,dog,pow,0404_pow_dnn_pow_dog_35_n02111129_513.png,n02111129_513.png,0.0,-0.1496621,2.1929567,-1.6564816
alexnet_w1_mlp_simclrhn_probe2,1,405,NaN,airplane,airplane,pow,0405_pow_dnn_pow_airplane_35_n02690373_2676.png,n02690373_2676.png,1.0,-0.40167063,-1.2773408,0.6191923
alexnet_w1_mlp_simclrhn_probe2,1,406,NaN,airplane,airplane,0,0406_pow_dnn_0_airplane_35_n02690373_1206.png,n02690373_1206.png,1.0,1.3491149,0.062259518,0.9099442
alexnet_w1_mlp_simclrhn_probe2,1,407,NaN,dog,dog,0,0407_pow_dnn_0_dog_35_n02100735_1445.png,n02100735_1445.png,1.0,4.610501,-5.071178,6.8459806
alexnet_w1_mlp_simclrhn_probe2,1,408,NaN,bear,dog,pow,0408_pow_dnn_pow_dog_35_n02102040_312.png,n02102040_312.png,0.0,-1.1744218,-0.63217396,-0.3834271
alexnet_w1_mlp_simclrhn_probe2,1,409,NaN,keyboard,keyboard,0,0409_pow_dnn_0_keyboard_35_n03085013_22996.png,n03085013_22996.png,1.0,4.391904,0.8970881,2.471208
alexnet_w1_mlp_simclrhn_probe2,1,410,NaN,boat,boat,0,0410_pow_dnn_0_boat_35_n04612504_434.png,n04612504_434.png,1.0,3.2898953,0.8921458,1.6954648
alexnet_w1_mlp_simclrhn_probe2,1,411,NaN,cat,cat,0,0411_pow_dnn_0_cat_35_n02123597_14639.png,n02123597_14639.png,1.0,2.8858995,1.2969501,1.123557
alexnet_w1_mlp_simclrhn_probe2,1,412,NaN,cat,cat,pow,0412_pow_dnn_pow_cat_35_n02123159_2043.png,n02123159_2043.png,1.0,1.4065872,-0.4416297,1.3068868
alexnet_w1_mlp_simclrhn_probe2,1,413,NaN,oven,clock,pow,0413_pow_dnn_pow_clock_35_n03196217_3647.png,n03196217_3647.png,0.0,-2.7534554,1.7190384,-3.1625307
alexnet_w1_mlp_simclrhn_probe2,1,414,NaN,oven,oven,0,0414_pow_dnn_0_oven_35_n04111531_19795.png,n04111531_19795.png,1.0,3.3940368,-2.4099474,4.104037
alexnet_w1_mlp_simclrhn_probe2,1,415,NaN,bear,truck,pow,0415_pow_dnn_pow_truck_35_n03417042_18625.png,n03417042_18625.png,0.0,-4.68832,0.5055342,-3.6726096
alexnet_w1_mlp_simclrhn_probe2,1,416,NaN,elephant,elephant,pow,0416_pow_dnn_pow_elephant_35_n02504013_1763.png,n02504013_1763.png,1.0,1.108587,0.82752967,0.19873756
alexnet_w1_mlp_simclrhn_probe2,1,417,NaN,chair,chair,0,0417_pow_dnn_0_chair_35_n04099969_13105.png,n04099969_13105.png,1.0,2.3126187,0.9774715,0.9440917
alexnet_w1_mlp_simclrhn_probe2,1,418,NaN,elephant,bicycle,pow,0418_pow_dnn_pow_bicycle_35_n03792782_4931.png,n03792782_4931.png,0.0,-0.1590603,0.9636072,-0.79384583
alexnet_w1_mlp_simclrhn_probe2,1,419,NaN,bear,bear,0,0419_pow_dnn_0_bear_35_n02134418_4513.png,n02134418_4513.png,1.0,2.2642884,0.43791685,1.2914398
alexnet_w1_mlp_simclrhn_probe2,1,420,NaN,cat,cat,pow,0420_pow_dnn_pow_cat_35_n02123045_11224.png,n02123045_11224.png,1.0,2.8569727,0.29143178,1.8141114
alexnet_w1_mlp_simclrhn_probe2,1,421,NaN,oven,chair,0,0421_pow_dnn_0_chair_35_n02791124_359.png,n02791124_359.png,0.0,0.15097533,0.9748287,-0.5825523
alexnet_w1_mlp_simclrhn_probe2,1,422,NaN,knife,clock,pow,0422_pow_dnn_pow_clock_35_n04548280_2654.png,n04548280_2654.png,0.0,-2.2314203,0.13209009,-1.6712543
alexnet_w1_mlp_simclrhn_probe2,1,423,NaN,bear,cat,pow,0423_pow_dnn_pow_cat_35_n02123394_4713.png,n02123394_4713.png,0.0,-0.37564182,1.2229564,-1.1303797
alexnet_w1_mlp_simclrhn_probe2,1,424,NaN,bear,bottle,pow,0424_pow_dnn_pow_bottle_35_n04557648_94.png,n04557648_94.png,0.0,-3.2672248,-0.009845838,-2.303315
alexnet_w1_mlp_simclrhn_probe2,1,425,NaN,chair,chair,0,0425_pow_dnn_0_chair_35_n04099969_15676.png,n04099969_15676.png,1.0,3.3237994,0.64444387,1.8945906
alexnet_w1_mlp_simclrhn_probe2,1,426,NaN,oven,boat,pow,0426_pow_dnn_pow_boat_35_n02951358_537.png,n02951358_537.png,0.0,-1.3617166,1.0268676,-1.688984
alexnet_w1_mlp_simclrhn_probe2,1,427,NaN,clock,clock,0,0427_pow_dnn_0_clock_35_n03196217_1376.png,n03196217_1376.png,1.0,1.7207736,1.1201361,0.4247148
alexnet_w1_mlp_simclrhn_probe2,1,428,NaN,oven,chair,pow,0428_pow_dnn_pow_chair_35_n02791124_1594.png,n02791124_1594.png,0.0,-1.5567243,1.3693728,-2.0690632
alexnet_w1_mlp_simclrhn_probe2,1,429,NaN,bicycle,bird,0,0429_pow_dnn_0_bird_35_n02007558_7112.png,n02007558_7112.png,0.0,-2.9626951,-0.72577083,-1.5817443
alexnet_w1_mlp_simclrhn_probe2,1,430,NaN,bicycle,bicycle,0,0430_pow_dnn_0_bicycle_35_n02835271_6094.png,n02835271_6094.png,1.0,8.699247,-3.0085607,8.27867
alexnet_w1_mlp_simclrhn_probe2,1,431,NaN,oven,airplane,pow,0431_pow_dnn_pow_airplane_35_n02690373_7676.png,n02690373_7676.png,0.0,-1.3045144,-0.5995225,-0.49850458
alexnet_w1_mlp_simclrhn_probe2,1,432,NaN,cat,cat,pow,0432_pow_dnn_pow_cat_35_n02123045_3375.png,n02123045_3375.png,1.0,3.0843859,-0.6893836,2.668458
alexnet_w1_mlp_simclrhn_probe2,1,433,NaN,bicycle,bicycle,0,0433_pow_dnn_0_bicycle_35_n02835271_15617.png,n02835271_15617.png,1.0,8.620257,1.5619841,4.990953
alexnet_w1_mlp_simclrhn_probe2,1,434,NaN,oven,oven,pow,0434_pow_dnn_pow_oven_35_n04111531_4904.png,n04111531_4904.png,1.0,0.38018328,-0.03082914,0.29062966
alexnet_w1_mlp_simclrhn_probe2,1,435,NaN,boat,boat,0,0435_pow_dnn_0_boat_35_n02951358_5718.png,n02951358_5718.png,1.0,2.2159183,0.71168053,1.0636567
alexnet_w1_mlp_simclrhn_probe2,1,436,NaN,elephant,elephant,pow,0436_pow_dnn_pow_elephant_35_n02504013_7467.png,n02504013_7467.png,1.0,0.85984087,0.18401058,0.4778842
alexnet_w1_mlp_simclrhn_probe2,1,437,NaN,elephant,elephant,pow,0437_pow_dnn_pow_elephant_35_n02504013_1830.png,n02504013_1830.png,1.0,9.597197,3.1284597,4.5740876
alexnet_w1_mlp_simclrhn_probe2,1,438,NaN,car,car,0,0438_pow_dnn_0_car_35_n02814533_59762.png,n02814533_59762.png,1.0,3.4909441,3.3748472,0.082092956
alexnet_w1_mlp_simclrhn_probe2,1,439,NaN,elephant,bicycle,pow,0439_pow_dnn_pow_bicycle_35_n02835271_771.png,n02835271_771.png,0.0,-2.623322,2.3323793,-3.50421
alexnet_w1_mlp_simclrhn_probe2,1,440,NaN,oven,bicycle,pow,0440_pow_dnn_pow_bicycle_35_n02835271_4313.png,n02835271_4313.png,0.0,-2.2527523,-0.018082768,-1.5801499
alexnet_w1_mlp_simclrhn_probe2,1,441,NaN,bear,bear,0,0441_pow_dnn_0_bear_35_n02132136_891.png,n02132136_891.png,1.0,7.682762,5.279047,1.6996833
alexnet_w1_mlp_simclrhn_probe2,1,442,NaN,bear,bear,pow,0442_pow_dnn_pow_bear_35_n02132136_18276.png,n02132136_18276.png,1.0,1.5632793,0.28255758,0.905607
alexnet_w1_mlp_simclrhn_probe2,1,443,NaN,elephant,elephant,pow,0443_pow_dnn_pow_elephant_35_n02504013_2865.png,n02504013_2865.png,1.0,4.397537,1.1649334,2.2857962
alexnet_w1_mlp_simclrhn_probe2,1,444,NaN,boat,boat,0,0444_pow_dnn_0_boat_35_n03662601_10120.png,n03662601_10120.png,1.0,4.625575,1.1129221,2.4838207
alexnet_w1_mlp_simclrhn_probe2,1,445,NaN,elephant,bottle,pow,0445_pow_dnn_pow_bottle_35_n03983396_4241.png,n03983396_4241.png,0.0,-2.9893205,-1.4424838,-1.0937787
alexnet_w1_mlp_simclrhn_probe2,1,446,NaN,elephant,elephant,pow,0446_pow_dnn_pow_elephant_35_n02504458_8254.png,n02504458_8254.png,1.0,0.24519524,0.14670503,0.069643095
alexnet_w1_mlp_simclrhn_probe2,1,447,NaN,elephant,boat,pow,0447_pow_dnn_pow_boat_35_n04612504_857.png,n04612504_857.png,0.0,-2.3631907,0.5644504,-2.0701547
alexnet_w1_mlp_simclrhn_probe2,1,448,NaN,oven,car,pow,0448_pow_dnn_pow_car_35_n04285008_6037.png,n04285008_6037.png,0.0,-4.6884766,1.544475,-4.4073625
alexnet_w1_mlp_simclrhn_probe2,1,449,NaN,elephant,elephant,pow,0449_pow_dnn_pow_elephant_35_n02504458_2888.png,n02504458_2888.png,1.0,2.606073,0.9319819,1.1837611
alexnet_w1_mlp_simclrhn_probe2,1,450,NaN,elephant,elephant,0,0450_pow_dnn_0_elephant_35_n02504013_6257.png,n02504013_6257.png,1.0,0.70327026,-0.52540886,0.8688074
alexnet_w1_mlp_simclrhn_probe2,1,451,NaN,car,car,0,0451_pow_dnn_0_car_35_n04285008_8616.png,n04285008_8616.png,1.0,16.918291,12.900323,2.8411326
alexnet_w1_mlp_simclrhn_probe2,1,452,NaN,bird,bird,0,0452_pow_dnn_0_bird_35_n01537544_5372.png,n01537544_5372.png,1.0,-1.6875411,-1.7282269,0.028769186
alexnet_w1_mlp_simclrhn_probe2,1,453,NaN,bird,airplane,pow,0453_pow_dnn_pow_airplane_35_n02690373_2498.png,n02690373_2498.png,0.0,-1.952301,-0.25836605,-1.1977929
alexnet_w1_mlp_simclrhn_probe2,1,454,NaN,dog,dog,0,0454_pow_dnn_0_dog_35_n02099601_2980.png,n02099601_2980.png,1.0,1.119481,0.7194596,0.28285784
alexnet_w1_mlp_simclrhn_probe2,1,455,NaN,oven,keyboard,pow,0455_pow_dnn_pow_keyboard_35_n04505470_1904.png,n04505470_1904.png,0.0,-7.0143814,0.46117386,-5.286016
alexnet_w1_mlp_simclrhn_probe2,1,456,NaN,airplane,airplane,0,0456_pow_dnn_0_airplane_35_n02690373_2967.png,n02690373_2967.png,1.0,3.633666,1.2313238,1.6987126
alexnet_w1_mlp_simclrhn_probe2,1,457,NaN,car,car,0,0457_pow_dnn_0_car_35_n04285008_7508.png,n04285008_7508.png,1.0,9.01141,7.8729987,0.8049782
alexnet_w1_mlp_simclrhn_probe2,1,458,NaN,bicycle,bird,0,0458_pow_dnn_0_bird_35_n02051845_6652.png,n02051845_6652.png,0.0,-2.8254738,-1.667125,-0.8190763
alexnet_w1_mlp_simclrhn_probe2,1,459,NaN,oven,truck,pow,0459_pow_dnn_pow_truck_35_n03796401_6737.png,n03796401_6737.png,0.0,-2.8809977,1.3551332,-2.9953969
alexnet_w1_mlp_simclrhn_probe2,1,460,NaN,elephant,bottle,pow,0460_pow_dnn_pow_bottle_35_n03937543_2177.png,n03937543_2177.png,0.0,-1.4738339,-1.0911746,-0.270581
alexnet_w1_mlp_simclrhn_probe2,1,461,NaN,oven,keyboard,pow,0461_pow_dnn_pow_keyboard_35_n03085013_6432.png,n03085013_6432.png,0.0,-4.700964,-0.14607358,-3.2207942
alexnet_w1_mlp_simclrhn_probe2,1,462,NaN,bird,bird,0,0462_pow_dnn_0_bird_35_n01530575_10212.png,n01530575_10212.png,1.0,1.1223576,-4.1012845,3.693673
alexnet_w1_mlp_simclrhn_probe2,1,463,NaN,oven,boat,pow,0463_pow_dnn_pow_boat_35_n04273569_31649.png,n04273569_31649.png,0.0,-1.3038604,1.3517976,-1.8778338
alexnet_w1_mlp_simclrhn_probe2,1,464,NaN,keyboard,keyboard,0,0464_pow_dnn_0_keyboard_35_n04505470_2869.png,n04505470_2869.png,1.0,14.575888,0.40347323,10.021411
alexnet_w1_mlp_simclrhn_probe2,1,465,NaN,oven,oven,0,0465_pow_dnn_0_oven_35_n04111531_5110.png,n04111531_5110.png,1.0,3.1556537,0.21595484,2.078681
alexnet_w1_mlp_simclrhn_probe2,1,466,NaN,bottle,bottle,pow,0466_pow_dnn_pow_bottle_35_n04579145_4389.png,n04579145_4389.png,1.0,1.5490803,-0.5242918,1.4660956
alexnet_w1_mlp_simclrhn_probe2,1,467,NaN,bottle,bottle,0,0467_pow_dnn_0_bottle_35_n04557648_9310.png,n04557648_9310.png,1.0,0.81466633,0.09443902,0.50927764
alexnet_w1_mlp_simclrhn_probe2,1,468,NaN,bear,dog,pow,0468_pow_dnn_pow_dog_35_n02108000_6061.png,n02108000_6061.png,0.0,-0.9683697,1.2226908,-1.5493138
alexnet_w1_mlp_simclrhn_probe2,1,469,NaN,elephant,knife,pow,0469_pow_dnn_pow_knife_35_n03041632_84240.png,n03041632_84240.png,0.0,-1.8040289,0.6460012,-1.732433
alexnet_w1_mlp_simclrhn_probe2,1,470,NaN,oven,cat,pow,0470_pow_dnn_pow_cat_35_n02123394_3718.png,n02123394_3718.png,0.0,-1.3996458,0.7705883,-1.5345874
alexnet_w1_mlp_simclrhn_probe2,1,471,NaN,bear,dog,pow,0471_pow_dnn_pow_dog_35_n02098105_2157.png,n02098105_2157.png,0.0,-0.69784236,0.9613345,-1.1732152
alexnet_w1_mlp_simclrhn_probe2,1,472,NaN,clock,clock,0,0472_pow_dnn_0_clock_35_n04548280_2601.png,n04548280_2601.png,1.0,2.2828639,-3.4079466,4.0240107
alexnet_w1_mlp_simclrhn_probe2,1,473,NaN,dog,cat,0,0473_pow_dnn_0_cat_35_n02123394_4286.png,n02123394_4286.png,0.0,-1.1668171,0.47386223,-1.1601355
alexnet_w1_mlp_simclrhn_probe2,1,474,NaN,bottle,bottle,0,0474_pow_dnn_0_bottle_35_n02823428_4569.png,n02823428_4569.png,1.0,7.39136,0.6042237,4.79923
alexnet_w1_mlp_simclrhn_probe2,1,475,NaN,oven,bird,pow,0475_pow_dnn_pow_bird_35_n02017213_15747.png,n02017213_15747.png,0.0,-2.3989573,1.2355177,-2.569962
alexnet_w1_mlp_simclrhn_probe2,1,476,NaN,bicycle,bicycle,0,0476_pow_dnn_0_bicycle_35_n03792782_11390.png,n03792782_11390.png,1.0,0.26161653,-0.8222173,0.7663863
alexnet_w1_mlp_simclrhn_probe2,1,477,NaN,car,car,0,0477_pow_dnn_0_car_35_n02814533_4374.png,n02814533_4374.png,1.0,12.917176,7.017153,4.1719465
alexnet_w1_mlp_simclrhn_probe2,1,478,NaN,keyboard,keyboard,0,0478_pow_dnn_0_keyboard_35_n04505470_5137.png,n04505470_5137.png,1.0,4.48554,-0.6242856,3.6131923
alexnet_w1_mlp_simclrhn_probe2,1,479,NaN,elephant,elephant,0,0479_pow_dnn_0_elephant_35_n02504013_306.png,n02504013_306.png,1.0,8.406036,2.3460321,4.28507
alexnet_w1_mlp_simclrhn_probe2,1,480,NaN,bicycle,boat,0,0480_pow_dnn_0_boat_35_n02951358_14624.png,n02951358_14624.png,0.0,-0.53227866,5.1715927,-4.033246
alexnet_w1_mlp_simclrhn_probe2,1,481,NaN,bear,cat,pow,0481_pow_dnn_pow_cat_35_n02125311_28114.png,n02125311_28114.png,0.0,-1.2001556,0.029659797,-0.8696108
alexnet_w1_mlp_simclrhn_probe2,1,482,NaN,car,car,pow,0482_pow_dnn_pow_car_35_n03100240_6259.png,n03100240_6259.png,1.0,0.29757187,-0.16744497,0.32881656
alexnet_w1_mlp_simclrhn_probe2,1,483,NaN,elephant,cat,pow,0483_pow_dnn_pow_cat_35_n02125311_12361.png,n02125311_12361.png,0.0,-1.3907981,2.01677,-2.4095144
alexnet_w1_mlp_simclrhn_probe2,1,484,NaN,bicycle,bird,0,0484_pow_dnn_0_bird_35_n01833805_16468.png,n01833805_16468.png,0.0,-1.3023148,-0.62560284,-0.4785076
alexnet_w1_mlp_simclrhn_probe2,1,485,NaN,bear,dog,pow,0485_pow_dnn_pow_dog_35_n02110063_6748.png,n02110063_6748.png,0.0,-1.0069263,0.64734745,-1.1697482
alexnet_w1_mlp_simclrhn_probe2,1,486,NaN,oven,clock,pow,0486_pow_dnn_pow_clock_35_n04548280_2943.png,n04548280_2943.png,0.0,-3.299758,2.481216,-4.0877657
alexnet_w1_mlp_simclrhn_probe2,1,487,NaN,oven,chair,pow,0487_pow_dnn_pow_chair_35_n03376595_14619.png,n03376595_14619.png,0.0,-2.977922,0.6870934,-2.5915573
alexnet_w1_mlp_simclrhn_probe2,1,488,NaN,car,car,0,0488_pow_dnn_0_car_35_n03100240_5719.png,n03100240_5719.png,1.0,11.641841,7.797454,2.7183921
alexnet_w1_mlp_simclrhn_probe2,1,489,NaN,bicycle,dog,0,0489_pow_dnn_0_dog_35_n02093754_4677.png,n02093754_4677.png,0.0,-0.3339392,0.11672294,-0.31866625
alexnet_w1_mlp_simclrhn_probe2,1,490,NaN,boat,boat,pow,0490_pow_dnn_pow_boat_35_n04273569_113.png,n04273569_113.png,1.0,-0.114413545,-0.23765194,0.087142706
alexnet_w1_mlp_simclrhn_probe2,1,491,NaN,clock,clock,pow,0491_pow_dnn_pow_clock_35_n02708093_148.png,n02708093_148.png,1.0,-0.77254915,-1.2274797,0.32168448
alexnet_w1_mlp_simclrhn_probe2,1,492,NaN,cat,cat,0,0492_pow_dnn_0_cat_35_n02125311_53223.png,n02125311_53223.png,1.0,3.341008,0.9855969,1.6655271
alexnet_w1_mlp_simclrhn_probe2,1,493,NaN,bottle,knife,0,0493_pow_dnn_0_knife_35_n03041632_7982.png,n03041632_7982.png,0.0,-1.2869726,0.19075643,-1.0449122
alexnet_w1_mlp_simclrhn_probe2,1,494,NaN,elephant,elephant,0,0494_pow_dnn_0_elephant_35_n02504013_7273.png,n02504013_7273.png,1.0,3.063026,-2.2397373,3.7496197
alexnet_w1_mlp_simclrhn_probe2,1,495,NaN,oven,truck,pow,0495_pow_dnn_pow_truck_35_n03417042_26102.png,n03417042_26102.png,0.0,-1.8728473,0.81731504,-1.9022322
alexnet_w1_mlp_simclrhn_probe2,1,496,NaN,elephant,car,pow,0496_pow_dnn_pow_car_35_n02814533_874.png,n02814533_874.png,0.0,-1.7240876,1.0045857,-1.9294635
alexnet_w1_mlp_simclrhn_probe2,1,497,NaN,bicycle,bicycle,0,0497_pow_dnn_0_bicycle_35_n03792782_21148.png,n03792782_21148.png,1.0,3.3371456,-0.8034618,2.9278517
alexnet_w1_mlp_simclrhn_probe2,1,498,NaN,oven,oven,pow,0498_pow_dnn_pow_oven_35_n04111531_4146.png,n04111531_4146.png,1.0,2.6798017,-0.94375366,2.5622406
alexnet_w1_mlp_simclrhn_probe2,1,499,NaN,bottle,keyboard,pow,0499_pow_dnn_pow_keyboard_35_n03085013_21183.png,n03085013_21183.png,0.0,-1.1013237,1.3727162,-1.7494105
alexnet_w1_mlp_simclrhn_probe2,1,500,NaN,boat,boat,0,0500_pow_dnn_0_boat_35_n04612504_19147.png,n04612504_19147.png,1.0,4.215177,1.3972344,1.9925864
alexnet_w1_mlp_simclrhn_probe2,1,501,NaN,elephant,bear,0,0501_pow_dnn_0_bear_35_n02133161_2044.png,n02133161_2044.png,0.0,0.88102144,1.8807582,-0.7069206
alexnet_w1_mlp_simclrhn_probe2,1,502,NaN,oven,bottle,pow,0502_pow_dnn_pow_bottle_35_n04579145_3894.png,n04579145_3894.png,0.0,-1.3992618,-0.7619858,-0.45062223
alexnet_w1_mlp_simclrhn_probe2,1,503,NaN,bicycle,bicycle,0,0503_pow_dnn_0_bicycle_35_n03792782_13399.png,n03792782_13399.png,1.0,2.2143097,-0.63378656,2.0139084
alexnet_w1_mlp_simclrhn_probe2,1,504,NaN,elephant,knife,pow,0504_pow_dnn_pow_knife_35_n03041632_21818.png,n03041632_21818.png,0.0,-2.9832082,1.196887,-2.9557736
alexnet_w1_mlp_simclrhn_probe2,1,505,NaN,chair,chair,0,0505_pow_dnn_0_chair_35_n03376595_7010.png,n03376595_7010.png,1.0,1.6965673,-1.0200233,1.9209197
alexnet_w1_mlp_simclrhn_probe2,1,506,NaN,oven,oven,0,0506_pow_dnn_0_oven_35_n04111531_4.png,n04111531_4.png,1.0,1.6537771,0.031086162,1.1474158
alexnet_w1_mlp_simclrhn_probe2,1,507,NaN,bear,bird,pow,0507_pow_dnn_pow_bird_35_n01820546_6471.png,n01820546_6471.png,0.0,-2.4557755,0.9428377,-2.4031825
alexnet_w1_mlp_simclrhn_probe2,1,508,NaN,bear,bear,pow,0508_pow_dnn_pow_bear_35_n02132136_10352.png,n02132136_10352.png,1.0,2.0532124,0.12901536,1.3606129
alexnet_w1_mlp_simclrhn_probe2,1,509,NaN,bottle,clock,pow,0509_pow_dnn_pow_clock_35_n04548280_8348.png,n04548280_8348.png,0.0,-1.7156628,0.8351301,-1.803683
alexnet_w1_mlp_simclrhn_probe2,1,510,NaN,elephant,elephant,0,0510_pow_dnn_0_elephant_35_n02504013_5087.png,n02504013_5087.png,1.0,9.153477,1.3840271,5.4938307
alexnet_w1_mlp_simclrhn_probe2,1,511,NaN,boat,airplane,pow,0511_pow_dnn_pow_airplane_35_n02690373_60.png,n02690373_60.png,0.0,0.071905896,0.6422776,-0.4033137
alexnet_w1_mlp_simclrhn_probe2,1,512,NaN,oven,chair,pow,0512_pow_dnn_pow_chair_35_n02791124_16085.png,n02791124_16085.png,0.0,-1.5377082,1.7179786,-2.3021183
alexnet_w1_mlp_simclrhn_probe2,1,513,NaN,bottle,bottle,0,0513_pow_dnn_0_bottle_35_n02823428_3611.png,n02823428_3611.png,1.0,1.8358194,-1.2372558,2.1729925
alexnet_w1_mlp_simclrhn_probe2,1,514,NaN,oven,bird,pow,0514_pow_dnn_pow_bird_35_n01614925_8653.png,n01614925_8653.png,0.0,-1.5284324,-0.9376615,-0.41773808
alexnet_w1_mlp_simclrhn_probe2,1,515,NaN,bird,bird,pow,0515_pow_dnn_pow_bird_35_n01537544_9881.png,n01537544_9881.png,1.0,0.036888517,-1.0973008,0.8019929
alexnet_w1_mlp_simclrhn_probe2,1,516,NaN,knife,knife,0,0516_pow_dnn_0_knife_35_n03041632_35365.png,n03041632_35365.png,1.0,0.94137406,-2.0067735,2.084655
alexnet_w1_mlp_simclrhn_probe2,1,517,NaN,bear,bear,0,0517_pow_dnn_0_bear_35_n02132136_23202.png,n02132136_23202.png,1.0,1.8124661,-0.1770756,1.4068185
alexnet_w1_mlp_simclrhn_probe2,1,518,NaN,oven,oven,0,0518_pow_dnn_0_oven_35_n04111531_3976.png,n04111531_3976.png,1.0,4.782902,-1.005106,4.0927396
alexnet_w1_mlp_simclrhn_probe2,1,519,NaN,oven,chair,pow,0519_pow_dnn_pow_chair_35_n04429376_32124.png,n04429376_32124.png,0.0,-1.2983589,1.9850743,-2.321738
alexnet_w1_mlp_simclrhn_probe2,1,520,NaN,bear,bear,pow,0520_pow_dnn_pow_bear_35_n02134418_848.png,n02134418_848.png,1.0,1.419158,0.52765816,0.6303856
alexnet_w1_mlp_simclrhn_probe2,1,521,NaN,airplane,boat,0,0521_pow_dnn_0_boat_35_n03344393_7374.png,n03344393_7374.png,0.0,5.0107865,5.685789,-0.47729892
alexnet_w1_mlp_simclrhn_probe2,1,522,NaN,oven,bird,pow,0522_pow_dnn_pow_bird_35_n01532829_3914.png,n01532829_3914.png,0.0,-1.9893373,1.3195279,-2.339721
alexnet_w1_mlp_simclrhn_probe2,1,523,NaN,keyboard,keyboard,0,0523_pow_dnn_0_keyboard_35_n04505470_5902.png,n04505470_5902.png,1.0,8.974296,0.9209253,5.694593
alexnet_w1_mlp_simclrhn_probe2,1,524,NaN,oven,truck,pow,0524_pow_dnn_pow_truck_35_n03417042_11165.png,n03417042_11165.png,0.0,-3.2566109,0.8002398,-2.8686266
alexnet_w1_mlp_simclrhn_probe2,1,525,NaN,bottle,clock,0,0525_pow_dnn_0_clock_35_n02708093_5.png,n02708093_5.png,0.0,-1.4505424,-0.8816862,-0.40224212
alexnet_w1_mlp_simclrhn_probe2,1,526,NaN,elephant,elephant,pow,0526_pow_dnn_pow_elephant_35_n02504458_4187.png,n02504458_4187.png,1.0,2.3326967,0.22374876,1.4912515
alexnet_w1_mlp_simclrhn_probe2,1,527,NaN,knife,knife,0,0527_pow_dnn_0_knife_35_n03041632_10802.png,n03041632_10802.png,1.0,3.3259983,0.25066978,2.1745858
alexnet_w1_mlp_simclrhn_probe2,1,528,NaN,car,car,0,0528_pow_dnn_0_car_35_n04285008_16647.png,n04285008_16647.png,1.0,7.193334,3.4779882,2.6271462
alexnet_w1_mlp_simclrhn_probe2,1,529,NaN,bear,dog,0,0529_pow_dnn_0_dog_35_n02104365_3004.png,n02104365_3004.png,0.0,0.9136002,2.4703798,-1.1008095
alexnet_w1_mlp_simclrhn_probe2,1,530,NaN,bear,elephant,pow,0530_pow_dnn_pow_elephant_35_n02504013_21616.png,n02504013_21616.png,0.0,1.8925712,1.9000129,-0.005262034
alexnet_w1_mlp_simclrhn_probe2,1,531,NaN,keyboard,keyboard,0,0531_pow_dnn_0_keyboard_35_n03085013_23465.png,n03085013_23465.png,1.0,2.0634131,2.0460224,0.012297102
alexnet_w1_mlp_simclrhn_probe2,1,532,NaN,boat,airplane,pow,0532_pow_dnn_pow_airplane_35_n02690373_911.png,n02690373_911.png,0.0,-2.1411881,1.2097208,-2.3694506
alexnet_w1_mlp_simclrhn_probe2,1,533,NaN,elephant,elephant,0,0533_pow_dnn_0_elephant_35_n02504013_1454.png,n02504013_1454.png,1.0,9.291403,0.0028599054,6.5679917
alexnet_w1_mlp_simclrhn_probe2,1,534,NaN,bicycle,bicycle,0,0534_pow_dnn_0_bicycle_35_n03792782_70690.png,n03792782_70690.png,1.0,1.9774436,-1.615021,2.540256
alexnet_w1_mlp_simclrhn_probe2,1,535,NaN,oven,chair,0,0535_pow_dnn_0_chair_35_n04429376_31206.png,n04429376_31206.png,0.0,0.005585313,0.81286377,-0.5708321
alexnet_w1_mlp_simclrhn_probe2,1,536,NaN,airplane,clock,0,0536_pow_dnn_0_clock_35_n02708093_2498.png,n02708093_2498.png,0.0,-1.8146359,0.31165272,-1.5035131
alexnet_w1_mlp_simclrhn_probe2,1,537,NaN,keyboard,keyboard,0,0537_pow_dnn_0_keyboard_35_n04505470_1728.png,n04505470_1728.png,1.0,6.854591,1.5585401,3.7448738
alexnet_w1_mlp_simclrhn_probe2,1,538,NaN,oven,truck,pow,0538_pow_dnn_pow_truck_35_n03417042_6608.png,n03417042_6608.png,0.0,-1.7838055,0.40277383,-1.5461451
alexnet_w1_mlp_simclrhn_probe2,1,539,NaN,bird,bird,0,0539_pow_dnn_0_bird_35_n02013706_1016.png,n02013706_1016.png,1.0,-0.8752316,-2.0433898,0.82601255
alexnet_w1_mlp_simclrhn_probe2,1,540,NaN,clock,clock,0,0540_pow_dnn_0_clock_35_n04548280_5011.png,n04548280_5011.png,1.0,1.3716335,-0.13695,1.0667297
alexnet_w1_mlp_simclrhn_probe2,1,541,NaN,bicycle,bicycle,0,0541_pow_dnn_0_bicycle_35_n02835271_19557.png,n02835271_19557.png,1.0,6.2262535,-2.4391344,6.1273546
alexnet_w1_mlp_simclrhn_probe2,1,542,NaN,bear,bear,pow,0542_pow_dnn_pow_bear_35_n02134084_5827.png,n02134084_5827.png,1.0,2.2387836,1.3638809,0.61864966
alexnet_w1_mlp_simclrhn_probe2,1,543,NaN,elephant,dog,pow,0543_pow_dnn_pow_dog_35_n02096585_1894.png,n02096585_1894.png,0.0,-1.6594718,0.9985676,-1.8795177
alexnet_w1_mlp_simclrhn_probe2,1,544,NaN,bicycle,boat,pow,0544_pow_dnn_pow_boat_35_n02951358_34234.png,n02951358_34234.png,0.0,-0.81683713,1.475716,-1.6210799
alexnet_w1_mlp_simclrhn_probe2,1,545,NaN,cat,cat,pow,0545_pow_dnn_pow_cat_35_n02123597_5514.png,n02123597_5514.png,1.0,2.0189626,0.41264188,1.1358403
alexnet_w1_mlp_simclrhn_probe2,1,546,NaN,oven,oven,pow,0546_pow_dnn_pow_oven_35_n04111531_3580.png,n04111531_3580.png,1.0,0.55069065,0.16901265,0.2698871
alexnet_w1_mlp_simclrhn_probe2,1,547,NaN,airplane,airplane,0,0547_pow_dnn_0_airplane_35_n02690373_7107.png,n02690373_7107.png,1.0,3.75779,1.2684457,1.7602323
alexnet_w1_mlp_simclrhn_probe2,1,548,NaN,chair,cat,0,0548_pow_dnn_0_cat_35_n02123159_5224.png,n02123159_5224.png,0.0,-1.9936596,-0.21997426,-1.254185
alexnet_w1_mlp_simclrhn_probe2,1,549,NaN,bear,bear,pow,0549_pow_dnn_pow_bear_35_n02133161_6679.png,n02133161_6679.png,1.0,2.2377982,1.828908,0.28912908
alexnet_w1_mlp_simclrhn_probe2,1,550,NaN,dog,dog,0,0550_pow_dnn_0_dog_35_n02106030_22.png,n02106030_22.png,1.0,0.7929338,0.44177023,0.24831016
alexnet_w1_mlp_simclrhn_probe2,1,551,NaN,truck,truck,0,0551_pow_dnn_0_truck_35_n03417042_4574.png,n03417042_4574.png,1.0,8.26977,7.2373605,0.73002356
alexnet_w1_mlp_simclrhn_probe2,1,552,NaN,bear,dog,pow,0552_pow_dnn_pow_dog_35_n02097298_7577.png,n02097298_7577.png,0.0,-2.118122,0.39963725,-1.7803247
alexnet_w1_mlp_simclrhn_probe2,1,553,NaN,elephant,dog,pow,0553_pow_dnn_pow_dog_35_n02093428_16873.png,n02093428_16873.png,0.0,0.06353123,0.92498565,-0.6091403
alexnet_w1_mlp_simclrhn_probe2,1,554,NaN,bear,bear,0,0554_pow_dnn_0_bear_35_n02132136_4157.png,n02132136_4157.png,1.0,5.507359,1.7657726,2.6457012
alexnet_w1_mlp_simclrhn_probe2,1,555,NaN,bottle,bottle,0,0555_pow_dnn_0_bottle_35_n02823428_2007.png,n02823428_2007.png,1.0,5.6810136,4.3575726,0.93581414
alexnet_w1_mlp_simclrhn_probe2,1,556,NaN,oven,keyboard,0,0556_pow_dnn_0_keyboard_35_n03085013_24272.png,n03085013_24272.png,0.0,0.5802925,2.9663887,-1.6872249
alexnet_w1_mlp_simclrhn_probe2,1,557,NaN,oven,oven,0,0557_pow_dnn_0_oven_35_n04111531_2074.png,n04111531_2074.png,1.0,1.8068144,-1.7613366,2.523064
alexnet_w1_mlp_simclrhn_probe2,1,558,NaN,oven,bird,pow,0558_pow_dnn_pow_bird_35_n01532829_4536.png,n01532829_4536.png,0.0,-1.9763128,0.9039,-2.036618
alexnet_w1_mlp_simclrhn_probe2,1,559,NaN,cat,dog,0,0559_pow_dnn_0_dog_35_n02109047_17100.png,n02109047_17100.png,0.0,1.1685117,1.6695914,-0.35431683
alexnet_w1_mlp_simclrhn_probe2,1,560,NaN,oven,oven,pow,0560_pow_dnn_pow_oven_35_n04111531_4407.png,n04111531_4407.png,1.0,2.2720187,-0.7441293,2.1327388
alexnet_w1_mlp_simclrhn_probe2,1,561,NaN,airplane,airplane,0,0561_pow_dnn_0_airplane_35_n02690373_8069.png,n02690373_8069.png,1.0,5.789832,2.2619019,2.4946234
alexnet_w1_mlp_simclrhn_probe2,1,562,NaN,clock,bottle,0,0562_pow_dnn_0_bottle_35_n04560804_8921.png,n04560804_8921.png,0.0,0.095569976,0.71365523,-0.43705228
alexnet_w1_mlp_simclrhn_probe2,1,563,NaN,bottle,bottle,pow,0563_pow_dnn_pow_bottle_35_n03937543_2936.png,n03937543_2936.png,1.0,8.381308,-4.239801,8.924472
alexnet_w1_mlp_simclrhn_probe2,1,564,NaN,cat,cat,0,0564_pow_dnn_0_cat_35_n02123045_8031.png,n02123045_8031.png,1.0,0.6085662,0.32236314,0.20237614
alexnet_w1_mlp_simclrhn_probe2,1,565,NaN,oven,oven,0,0565_pow_dnn_0_oven_35_n04111531_3805.png,n04111531_3805.png,1.0,4.4726887,-1.351289,4.118174
alexnet_w1_mlp_simclrhn_probe2,1,566,NaN,truck,truck,0,0566_pow_dnn_0_truck_35_n03417042_27231.png,n03417042_27231.png,1.0,8.124767,6.176441,1.3776746
alexnet_w1_mlp_simclrhn_probe2,1,567,NaN,elephant,elephant,0,0567_pow_dnn_0_elephant_35_n02504013_7232.png,n02504013_7232.png,1.0,3.8066611,3.376593,0.30410403
alexnet_w1_mlp_simclrhn_probe2,1,568,NaN,oven,knife,0,0568_pow_dnn_0_knife_35_n03041632_5102.png,n03041632_5102.png,0.0,-2.680201,0.4367023,-2.2039835
alexnet_w1_mlp_simclrhn_probe2,1,569,NaN,cat,dog,pow,0569_pow_dnn_pow_dog_35_n02110958_8916.png,n02110958_8916.png,0.0,0.873895,2.0502694,-0.83182234
alexnet_w1_mlp_simclrhn_probe2,1,570,NaN,bear,bottle,pow,0570_pow_dnn_pow_bottle_35_n04557648_9790.png,n04557648_9790.png,0.0,-1.2177505,-0.78726566,-0.3043988
alexnet_w1_mlp_simclrhn_probe2,1,571,NaN,cat,cat,pow,0571_pow_dnn_pow_cat_35_n02123394_3786.png,n02123394_3786.png,1.0,3.95103,0.34196725,2.5519927
alexnet_w1_mlp_simclrhn_probe2,1,572,NaN,airplane,truck,0,0572_pow_dnn_0_truck_35_n04467665_19132.png,n04467665_19132.png,0.0,1.5506959,2.86965,-0.9326413
alexnet_w1_mlp_simclrhn_probe2,1,573,NaN,oven,truck,pow,0573_pow_dnn_pow_truck_35_n03796401_2934.png,n03796401_2934.png,0.0,-2.2184718,0.841747,-2.1639016
alexnet_w1_mlp_simclrhn_probe2,1,574,NaN,bicycle,bicycle,0,0574_pow_dnn_0_bicycle_35_n02835271_12799.png,n02835271_12799.png,1.0,8.805153,-0.55105966,6.6158414
alexnet_w1_mlp_simclrhn_probe2,1,575,NaN,car,car,0,0575_pow_dnn_0_car_35_n02814533_1297.png,n02814533_1297.png,1.0,0.9622845,-0.90485823,1.3202692
alexnet_w1_mlp_simclrhn_probe2,1,576,NaN,bear,bear,pow,0576_pow_dnn_pow_bear_35_n02134418_1974.png,n02134418_1974.png,1.0,1.2431788,-0.34308013,1.1216545
alexnet_w1_mlp_simclrhn_probe2,1,577,NaN,cat,cat,0,0577_pow_dnn_0_cat_35_n02124075_2843.png,n02124075_2843.png,1.0,2.6822317,-0.7065536,2.396233
alexnet_w1_mlp_simclrhn_probe2,1,578,NaN,cat,cat,0,0578_pow_dnn_0_cat_35_n02123597_5697.png,n02123597_5697.png,1.0,-0.6901679,-0.70050824,0.0073117195
alexnet_w1_mlp_simclrhn_probe2,1,579,NaN,oven,bicycle,pow,0579_pow_dnn_pow_bicycle_35_n02835271_2315.png,n02835271_2315.png,0.0,-0.9265763,0.52245796,-1.024622
alexnet_w1_mlp_simclrhn_probe2,1,580,NaN,keyboard,keyboard,0,0580_pow_dnn_0_keyboard_35_n04505470_4515.png,n04505470_4515.png,1.0,10.464712,0.61998254,6.961275
alexnet_w1_mlp_simclrhn_probe2,1,581,NaN,elephant,knife,pow,0581_pow_dnn_pow_knife_35_n03041632_4269.png,n03041632_4269.png,0.0,-1.8901136,0.19909793,-1.4772956
alexnet_w1_mlp_simclrhn_probe2,1,582,NaN,cat,cat,0,0582_pow_dnn_0_cat_35_n02123045_12010.png,n02123045_12010.png,1.0,4.990886,-2.0196059,4.9571667
alexnet_w1_mlp_simclrhn_probe2,1,583,NaN,keyboard,clock,0,0583_pow_dnn_0_clock_35_n03196217_6467.png,n03196217_6467.png,0.0,0.9099775,1.0621173,-0.10757912
alexnet_w1_mlp_simclrhn_probe2,1,584,NaN,oven,bottle,pow,0584_pow_dnn_pow_bottle_35_n03983396_2864.png,n03983396_2864.png,0.0,0.5955306,1.3729517,-0.54971975
alexnet_w1_mlp_simclrhn_probe2,1,585,NaN,airplane,bottle,0,0585_pow_dnn_0_bottle_35_n04557648_10171.png,n04557648_10171.png,0.0,-2.101917,0.9267741,-2.141608
alexnet_w1_mlp_simclrhn_probe2,1,586,NaN,elephant,bird,pow,0586_pow_dnn_pow_bird_35_n01860187_2052.png,n01860187_2052.png,0.0,-1.9217819,0.05783452,-1.3998002
alexnet_w1_mlp_simclrhn_probe2,1,587,NaN,car,car,0,0587_pow_dnn_0_car_35_n04285008_5897.png,n04285008_5897.png,1.0,13.573337,7.688792,4.161001
alexnet_w1_mlp_simclrhn_probe2,1,588,NaN,elephant,elephant,0,0588_pow_dnn_0_elephant_35_n02504458_4721.png,n02504458_4721.png,1.0,10.158701,-0.03956765,7.211265
alexnet_w1_mlp_simclrhn_probe2,1,589,NaN,car,car,0,0589_pow_dnn_0_car_35_n02814533_93476.png,n02814533_93476.png,1.0,7.26193,4.1184607,2.2227685
alexnet_w1_mlp_simclrhn_probe2,1,590,NaN,elephant,bird,pow,0590_pow_dnn_pow_bird_35_n01824575_10337.png,n01824575_10337.png,0.0,-2.576652,1.2772737,-2.725137
alexnet_w1_mlp_simclrhn_probe2,1,591,NaN,oven,dog,pow,0591_pow_dnn_pow_dog_35_n02100735_10683.png,n02100735_10683.png,0.0,-2.254402,2.5230546,-3.3781717
alexnet_w1_mlp_simclrhn_probe2,1,592,NaN,knife,airplane,pow,0592_pow_dnn_pow_airplane_35_n02690373_4402.png,n02690373_4402.png,0.0,-1.4966125,-0.55642164,-0.66481537
alexnet_w1_mlp_simclrhn_probe2,1,593,NaN,airplane,airplane,0,0593_pow_dnn_0_airplane_35_n02690373_4350.png,n02690373_4350.png,1.0,7.6137238,-1.2197325,6.2461967
alexnet_w1_mlp_simclrhn_probe2,1,594,NaN,oven,bottle,pow,0594_pow_dnn_pow_bottle_35_n02823428_6327.png,n02823428_6327.png,0.0,-0.4251248,-0.13669468,-0.20395088
alexnet_w1_mlp_simclrhn_probe2,1,595,NaN,elephant,dog,pow,0595_pow_dnn_pow_dog_35_n02104029_3041.png,n02104029_3041.png,0.0,0.012508428,1.8150613,-1.2745974
alexnet_w1_mlp_simclrhn_probe2,1,596,NaN,elephant,elephant,pow,0596_pow_dnn_pow_elephant_35_n02504013_24810.png,n02504013_24810.png,1.0,2.1715508,0.6299054,1.0901078
alexnet_w1_mlp_simclrhn_probe2,1,597,NaN,oven,clock,pow,0597_pow_dnn_pow_clock_35_n04548280_4473.png,n04548280_4473.png,0.0,-2.4331453,1.7519667,-2.959321
alexnet_w1_mlp_simclrhn_probe2,1,598,NaN,dog,dog,pow,0598_pow_dnn_pow_dog_35_n02107908_5597.png,n02107908_5597.png,1.0,-0.24278913,-1.0257825,0.5536599
alexnet_w1_mlp_simclrhn_probe2,1,599,NaN,truck,truck,0,0599_pow_dnn_0_truck_35_n04467665_57697.png,n04467665_57697.png,1.0,5.700037,1.4368285,3.0145435
alexnet_w1_mlp_simclrhn_probe2,1,600,NaN,bottle,bottle,pow,0600_pow_dnn_pow_bottle_35_n03983396_6889.png,n03983396_6889.png,1.0,-0.24428555,-0.40245846,0.111845136
alexnet_w1_mlp_simclrhn_probe2,1,601,NaN,bear,bear,pow,0601_pow_dnn_pow_bear_35_n02134418_1826.png,n02134418_1826.png,1.0,2.3488545,0.22293001,1.5032557
alexnet_w1_mlp_simclrhn_probe2,1,602,NaN,cat,cat,pow,0602_pow_dnn_pow_cat_35_n02123159_4687.png,n02123159_4687.png,1.0,0.14193426,-0.56064934,0.49680164
alexnet_w1_mlp_simclrhn_probe2,1,603,NaN,airplane,boat,pow,0603_pow_dnn_pow_boat_35_n03344393_5798.png,n03344393_5798.png,0.0,-0.92914057,-0.63683635,-0.2066903
alexnet_w1_mlp_simclrhn_probe2,1,604,NaN,oven,car,pow,0604_pow_dnn_pow_car_35_n04285008_11745.png,n04285008_11745.png,0.0,-6.995337,0.7215134,-5.4566374
alexnet_w1_mlp_simclrhn_probe2,1,605,NaN,clock,clock,0,0605_pow_dnn_0_clock_35_n02708093_353.png,n02708093_353.png,1.0,3.8756845,0.694222,2.2496338
alexnet_w1_mlp_simclrhn_probe2,1,606,NaN,airplane,airplane,0,0606_pow_dnn_0_airplane_35_n02690373_4763.png,n02690373_4763.png,1.0,5.4812865,-0.9415375,4.5416226
alexnet_w1_mlp_simclrhn_probe2,1,607,NaN,elephant,elephant,0,0607_pow_dnn_0_elephant_35_n02504013_18498.png,n02504013_18498.png,1.0,7.986806,3.99698,2.821233
alexnet_w1_mlp_simclrhn_probe2,1,608,NaN,bear,cat,pow,0608_pow_dnn_pow_cat_35_n02123394_159.png,n02123394_159.png,0.0,-0.2405359,1.0201222,-0.8914198
alexnet_w1_mlp_simclrhn_probe2,1,609,NaN,boat,boat,0,0609_pow_dnn_0_boat_35_n03662601_18676.png,n03662601_18676.png,1.0,6.1735864,3.5007446,1.8899846
alexnet_w1_mlp_simclrhn_probe2,1,610,NaN,oven,truck,pow,0610_pow_dnn_pow_truck_35_n03796401_1789.png,n03796401_1789.png,0.0,-2.6039224,-0.7728274,-1.2947797
alexnet_w1_mlp_simclrhn_probe2,1,611,NaN,chair,chair,0,0611_pow_dnn_0_chair_35_n04099969_4816.png,n04099969_4816.png,1.0,2.0643508,-0.4183729,1.7555509
alexnet_w1_mlp_simclrhn_probe2,1,612,NaN,elephant,elephant,0,0612_pow_dnn_0_elephant_35_n02504458_7013.png,n02504458_7013.png,1.0,12.3687725,-2.6725419,10.635816
alexnet_w1_mlp_simclrhn_probe2,1,613,NaN,oven,knife,pow,0613_pow_dnn_pow_knife_35_n03041632_92637.png,n03041632_92637.png,0.0,-2.5065827,-1.0495563,-1.0302733
alexnet_w1_mlp_simclrhn_probe2,1,614,NaN,keyboard,keyboard,0,0614_pow_dnn_0_keyboard_35_n03085013_19607.png,n03085013_19607.png,1.0,6.633421,3.149593,2.4634383
alexnet_w1_mlp_simclrhn_probe2,1,615,NaN,bear,cat,pow,0615_pow_dnn_pow_cat_35_n02123597_1027.png,n02123597_1027.png,0.0,0.34124902,1.1857171,-0.59712917
alexnet_w1_mlp_simclrhn_probe2,1,616,NaN,bicycle,bicycle,0,0616_pow_dnn_0_bicycle_35_n02835271_9135.png,n02835271_9135.png,1.0,2.3278015,-0.6743563,2.1228461
alexnet_w1_mlp_simclrhn_probe2,1,617,NaN,dog,dog,pow,0617_pow_dnn_pow_dog_35_n02111500_3896.png,n02111500_3896.png,1.0,-0.26736352,-1.0456778,0.55035126
alexnet_w1_mlp_simclrhn_probe2,1,618,NaN,keyboard,oven,0,0618_pow_dnn_0_oven_35_n04111531_8398.png,n04111531_8398.png,0.0,-3.0796793,3.2257137,-4.458586
alexnet_w1_mlp_simclrhn_probe2,1,619,NaN,oven,oven,0,0619_pow_dnn_0_oven_35_n04111531_6049.png,n04111531_6049.png,1.0,8.516209,-0.8463907,6.6203575
alexnet_w1_mlp_simclrhn_probe2,1,620,NaN,oven,chair,pow,0620_pow_dnn_pow_chair_35_n03376595_6947.png,n03376595_6947.png,0.0,-2.7230778,0.5912273,-2.3435676
alexnet_w1_mlp_simclrhn_probe2,1,621,NaN,bear,dog,pow,0621_pow_dnn_pow_dog_35_n02097658_6717.png,n02097658_6717.png,0.0,-0.24752006,0.31113556,-0.3950292
alexnet_w1_mlp_simclrhn_probe2,1,622,NaN,knife,knife,0,0622_pow_dnn_0_knife_35_n03041632_21560.png,n03041632_21560.png,1.0,0.48588935,-1.078601,1.1062617
alexnet_w1_mlp_simclrhn_probe2,1,623,NaN,bear,boat,pow,0623_pow_dnn_pow_boat_35_n03662601_7642.png,n03662601_7642.png,0.0,-0.99502313,-0.40258485,-0.41891712
alexnet_w1_mlp_simclrhn_probe2,1,624,NaN,truck,car,0,0624_pow_dnn_0_car_35_n04285008_1313.png,n04285008_1313.png,0.0,3.463929,3.9899077,-0.37192318
alexnet_w1_mlp_simclrhn_probe2,1,625,NaN,elephant,chair,pow,0625_pow_dnn_pow_chair_35_n03376595_6409.png,n03376595_6409.png,0.0,-1.1009429,0.83536375,-1.3691756
alexnet_w1_mlp_simclrhn_probe2,1,626,NaN,bear,bear,pow,0626_pow_dnn_pow_bear_35_n02133161_6028.png,n02133161_6028.png,1.0,0.90127814,0.08108987,0.5799607
alexnet_w1_mlp_simclrhn_probe2,1,627,NaN,elephant,bear,pow,0627_pow_dnn_pow_bear_35_n02132136_29029.png,n02132136_29029.png,0.0,0.7601028,1.1322656,-0.26315883
alexnet_w1_mlp_simclrhn_probe2,1,628,NaN,truck,truck,0,0628_pow_dnn_0_truck_35_n04467665_7290.png,n04467665_7290.png,1.0,1.8355002,-0.16529328,1.4147747
alexnet_w1_mlp_simclrhn_probe2,1,629,NaN,elephant,bird,pow,0629_pow_dnn_pow_bird_35_n01537544_9745.png,n01537544_9745.png,0.0,-0.9534764,1.4557368,-1.703571
alexnet_w1_mlp_simclrhn_probe2,1,630,NaN,bicycle,bicycle,0,0630_pow_dnn_0_bicycle_35_n03792782_15845.png,n03792782_15845.png,1.0,3.2461653,-1.08658,3.0637138
alexnet_w1_mlp_simclrhn_probe2,1,631,NaN,bear,bear,pow,0631_pow_dnn_pow_bear_35_n02133161_8982.png,n02133161_8982.png,1.0,0.41362092,0.06903673,0.24365783
alexnet_w1_mlp_simclrhn_probe2,1,632,NaN,knife,knife,0,0632_pow_dnn_0_knife_35_n03041632_6575.png,n03041632_6575.png,1.0,0.7010966,-2.9835324,2.605426
alexnet_w1_mlp_simclrhn_probe2,1,633,NaN,knife,knife,0,0633_pow_dnn_0_knife_35_n03041632_32785.png,n03041632_32785.png,1.0,1.6457872,-1.6843317,2.3547497
alexnet_w1_mlp_simclrhn_probe2,1,634,NaN,oven,chair,pow,0634_pow_dnn_pow_chair_35_n04429376_12691.png,n04429376_12691.png,0.0,-1.453633,0.25524616,-1.2083601
alexnet_w1_mlp_simclrhn_probe2,1,635,NaN,bear,dog,pow,0635_pow_dnn_pow_dog_35_n02097298_6578.png,n02097298_6578.png,0.0,-0.34349486,1.5828638,-1.3621414
alexnet_w1_mlp_simclrhn_probe2,1,636,NaN,elephant,knife,pow,0636_pow_dnn_pow_knife_35_n03041632_94995.png,n03041632_94995.png,0.0,-2.6108596,-0.56886876,-1.4439056
alexnet_w1_mlp_simclrhn_probe2,1,637,NaN,clock,clock,0,0637_pow_dnn_0_clock_35_n02708093_41.png,n02708093_41.png,1.0,4.5432878,0.06875699,3.163971
alexnet_w1_mlp_simclrhn_probe2,1,638,NaN,keyboard,keyboard,0,0638_pow_dnn_0_keyboard_35_n03085013_7892.png,n03085013_7892.png,1.0,5.2902927,0.8410928,3.1460593
alexnet_w1_mlp_simclrhn_probe2,1,639,NaN,oven,knife,pow,0639_pow_dnn_pow_knife_35_n03041632_84048.png,n03041632_84048.png,0.0,-2.8347502,-0.61063254,-1.5726888
