subj,session,trial,rt,object_response,category,condition,imagename,filename,is_correct,targ_act,max_nontarg_act,decision_margin
alexnet2023_baseline_pgd,1,1,NaN,clock,clock,0,0001_pow_dnn_0_clock_35_n03196217_10246.png,n03196217_10246.png,1.0,8.313978,4.6576567,2.5854099
alexnet2023_baseline_pgd,1,2,NaN,cat,dog,pow,0002_pow_dnn_pow_dog_35_n02091467_7264.png,n02091467_7264.png,0.0,3.127337,3.6742294,-0.38671133
alexnet2023_baseline_pgd,1,3,NaN,bear,chair,pow,0003_pow_dnn_pow_chair_35_n02791124_713.png,n02791124_713.png,0.0,2.947207,3.4583876,-0.3614593
alexnet2023_baseline_pgd,1,4,NaN,car,car,0,0004_pow_dnn_0_car_35_n02814533_35174.png,n02814533_35174.png,1.0,14.854159,8.869301,4.231934
alexnet2023_baseline_pgd,1,5,NaN,oven,knife,pow,0005_pow_dnn_pow_knife_35_n03041632_46103.png,n03041632_46103.png,0.0,1.301315,3.4981961,-1.5534297
alexnet2023_baseline_pgd,1,6,NaN,bicycle,bicycle,0,0006_pow_dnn_0_bicycle_35_n03792782_11306.png,n03792782_11306.png,1.0,21.22932,3.000923,12.889423
alexnet2023_baseline_pgd,1,7,NaN,bird,bird,0,0007_pow_dnn_0_bird_35_n02002556_3463.png,n02002556_3463.png,1.0,10.348773,3.0177016,5.1838503
alexnet2023_baseline_pgd,1,8,NaN,oven,keyboard,pow,0008_pow_dnn_pow_keyboard_35_n03085013_22813.png,n03085013_22813.png,0.0,-1.7330636,3.054059,-3.385007
alexnet2023_baseline_pgd,1,9,NaN,bird,bird,0,0009_pow_dnn_0_bird_35_n02025239_2961.png,n02025239_2961.png,1.0,9.465907,0.13965996,6.5946527
alexnet2023_baseline_pgd,1,10,NaN,bear,boat,pow,0010_pow_dnn_pow_boat_35_n02951358_14504.png,n02951358_14504.png,0.0,-0.18960503,2.8767245,-2.1682224
alexnet2023_baseline_pgd,1,11,NaN,oven,oven,0,0011_pow_dnn_0_oven_35_n04111531_19000.png,n04111531_19000.png,1.0,5.373415,3.5431762,1.2941743
alexnet2023_baseline_pgd,1,12,NaN,bird,bird,0,0012_pow_dnn_0_bird_35_n01614925_11281.png,n01614925_11281.png,1.0,7.316354,6.93494,0.26970038
alexnet2023_baseline_pgd,1,13,NaN,knife,knife,0,0013_pow_dnn_0_knife_35_n03041632_52040.png,n03041632_52040.png,1.0,12.606964,2.6982064,7.0065503
alexnet2023_baseline_pgd,1,14,NaN,car,car,pow,0014_pow_dnn_pow_car_35_n03100240_14206.png,n03100240_14206.png,1.0,7.1229687,4.582004,1.7967334
alexnet2023_baseline_pgd,1,15,NaN,elephant,bird,0,0015_pow_dnn_0_bird_35_n01817953_689.png,n01817953_689.png,0.0,-1.801525,6.4560213,-5.8389673
alexnet2023_baseline_pgd,1,16,NaN,bear,chair,pow,0016_pow_dnn_pow_chair_35_n04099969_7934.png,n04099969_7934.png,0.0,2.9825435,5.4268394,-1.7283782
alexnet2023_baseline_pgd,1,17,NaN,knife,knife,0,0017_pow_dnn_0_knife_35_n03041632_30196.png,n03041632_30196.png,1.0,6.318668,0.8610932,3.8590882
alexnet2023_baseline_pgd,1,18,NaN,car,car,0,0018_pow_dnn_0_car_35_n02814533_18077.png,n02814533_18077.png,1.0,14.469972,7.3741035,5.0175366
alexnet2023_baseline_pgd,1,19,NaN,cat,cat,0,0019_pow_dnn_0_cat_35_n02123159_6927.png,n02123159_6927.png,1.0,6.6183057,3.31857,2.3332655
alexnet2023_baseline_pgd,1,20,NaN,bird,bird,pow,0020_pow_dnn_pow_bird_35_n01855672_8550.png,n01855672_8550.png,1.0,3.8007307,1.6824722,1.4978349
alexnet2023_baseline_pgd,1,21,NaN,truck,truck,0,0021_pow_dnn_0_truck_35_n03417042_17888.png,n03417042_17888.png,1.0,16.229107,8.054404,5.780388
alexnet2023_baseline_pgd,1,22,NaN,bear,truck,pow,0022_pow_dnn_pow_truck_35_n04467665_45611.png,n04467665_45611.png,0.0,-1.181798,5.0275426,-4.390667
alexnet2023_baseline_pgd,1,23,NaN,elephant,dog,pow,0023_pow_dnn_pow_dog_35_n02093256_1772.png,n02093256_1772.png,0.0,-1.2765858,4.7017646,-4.227332
alexnet2023_baseline_pgd,1,24,NaN,bottle,boat,pow,0024_pow_dnn_pow_boat_35_n03344393_6260.png,n03344393_6260.png,0.0,0.14913201,2.0081708,-1.314539
alexnet2023_baseline_pgd,1,25,NaN,chair,chair,0,0025_pow_dnn_0_chair_35_n04429376_24073.png,n04429376_24073.png,1.0,4.354287,4.2660904,0.062364522
alexnet2023_baseline_pgd,1,26,NaN,knife,knife,0,0026_pow_dnn_0_knife_35_n03041632_29355.png,n03041632_29355.png,1.0,10.779827,3.968896,4.816056
alexnet2023_baseline_pgd,1,27,NaN,clock,clock,0,0027_pow_dnn_0_clock_35_n03196217_5907.png,n03196217_5907.png,1.0,6.6504045,3.895852,1.9477627
alexnet2023_baseline_pgd,1,28,NaN,airplane,airplane,0,0028_pow_dnn_0_airplane_35_n02690373_7276.png,n02690373_7276.png,1.0,27.017529,6.8092585,14.289406
alexnet2023_baseline_pgd,1,29,NaN,bicycle,bicycle,pow,0029_pow_dnn_pow_bicycle_35_n03792782_15561.png,n03792782_15561.png,1.0,11.490186,4.259932,5.1125617
alexnet2023_baseline_pgd,1,30,NaN,cat,cat,0,0030_pow_dnn_0_cat_35_n02123045_3505.png,n02123045_3505.png,1.0,12.6341505,4.046932,6.0720806
alexnet2023_baseline_pgd,1,31,NaN,oven,knife,0,0031_pow_dnn_0_knife_35_n03041632_34769.png,n03041632_34769.png,0.0,5.504703,6.852659,-0.95314896
alexnet2023_baseline_pgd,1,32,NaN,bottle,clock,pow,0032_pow_dnn_pow_clock_35_n03196217_5206.png,n03196217_5206.png,0.0,-0.9205721,3.576044,-3.179588
alexnet2023_baseline_pgd,1,33,NaN,truck,truck,0,0033_pow_dnn_0_truck_35_n04467665_58815.png,n04467665_58815.png,1.0,9.689131,9.1257715,0.39835516
alexnet2023_baseline_pgd,1,34,NaN,bird,bird,0,0034_pow_dnn_0_bird_35_n01616318_2186.png,n01616318_2186.png,1.0,10.443651,2.2049632,5.825632
alexnet2023_baseline_pgd,1,35,NaN,elephant,bicycle,pow,0035_pow_dnn_pow_bicycle_35_n03792782_12885.png,n03792782_12885.png,0.0,1.9200791,7.4016037,-3.8760233
alexnet2023_baseline_pgd,1,36,NaN,boat,airplane,pow,0036_pow_dnn_pow_airplane_35_n02690373_9264.png,n02690373_9264.png,0.0,3.21746,3.2289226,-0.008105345
alexnet2023_baseline_pgd,1,37,NaN,chair,chair,0,0037_pow_dnn_0_chair_35_n04099969_16079.png,n04099969_16079.png,1.0,9.167511,5.001049,2.9461336
alexnet2023_baseline_pgd,1,38,NaN,bicycle,bicycle,0,0038_pow_dnn_0_bicycle_35_n02835271_3027.png,n02835271_3027.png,1.0,9.542653,3.6449828,4.170283
alexnet2023_baseline_pgd,1,39,NaN,airplane,airplane,0,0039_pow_dnn_0_airplane_35_n02690373_6614.png,n02690373_6614.png,1.0,20.62126,2.8675458,12.553772
alexnet2023_baseline_pgd,1,40,NaN,bicycle,chair,pow,0040_pow_dnn_pow_chair_35_n03376595_9048.png,n03376595_9048.png,0.0,1.167869,3.569624,-1.6982971
alexnet2023_baseline_pgd,1,41,NaN,oven,oven,0,0041_pow_dnn_0_oven_35_n04111531_6094.png,n04111531_6094.png,1.0,6.436922,5.4516015,0.69672686
alexnet2023_baseline_pgd,1,42,NaN,clock,clock,pow,0042_pow_dnn_pow_clock_35_n02708093_687.png,n02708093_687.png,1.0,9.650956,6.0109444,2.573877
alexnet2023_baseline_pgd,1,43,NaN,bicycle,bicycle,pow,0043_pow_dnn_pow_bicycle_35_n03792782_14931.png,n03792782_14931.png,1.0,7.8436084,1.6428143,4.3846235
alexnet2023_baseline_pgd,1,44,NaN,bottle,bottle,0,0044_pow_dnn_0_bottle_35_n03937543_5567.png,n03937543_5567.png,1.0,4.185681,3.115321,0.75685877
alexnet2023_baseline_pgd,1,45,NaN,car,car,0,0045_pow_dnn_0_car_35_n03100240_3073.png,n03100240_3073.png,1.0,20.742657,9.10684,8.227765
alexnet2023_baseline_pgd,1,46,NaN,knife,knife,0,0046_pow_dnn_0_knife_35_n03041632_18236.png,n03041632_18236.png,1.0,5.426735,1.8187406,2.5512373
alexnet2023_baseline_pgd,1,47,NaN,clock,knife,pow,0047_pow_dnn_pow_knife_35_n03041632_9302.png,n03041632_9302.png,0.0,-0.87477267,2.8388398,-2.6259208
alexnet2023_baseline_pgd,1,48,NaN,bear,bear,0,0048_pow_dnn_0_bear_35_n02134418_2590.png,n02134418_2590.png,1.0,14.669184,5.3304377,6.603491
alexnet2023_baseline_pgd,1,49,NaN,bottle,bottle,0,0049_pow_dnn_0_bottle_35_n03983396_24837.png,n03983396_24837.png,1.0,8.70693,2.6039658,4.315448
alexnet2023_baseline_pgd,1,50,NaN,knife,knife,pow,0050_pow_dnn_pow_knife_35_n03041632_3617.png,n03041632_3617.png,1.0,6.2714906,2.209345,2.8723705
alexnet2023_baseline_pgd,1,51,NaN,oven,bicycle,pow,0051_pow_dnn_pow_bicycle_35_n03792782_6735.png,n03792782_6735.png,0.0,2.7789857,4.8311257,-1.4510821
alexnet2023_baseline_pgd,1,52,NaN,car,car,0,0052_pow_dnn_0_car_35_n03100240_5387.png,n03100240_5387.png,1.0,21.04712,11.946745,6.4349365
alexnet2023_baseline_pgd,1,53,NaN,clock,bottle,0,0053_pow_dnn_0_bottle_35_n03983396_4879.png,n03983396_4879.png,0.0,3.3196788,4.694607,-0.9722209
alexnet2023_baseline_pgd,1,54,NaN,car,car,0,0054_pow_dnn_0_car_35_n03100240_6103.png,n03100240_6103.png,1.0,25.31035,15.170953,7.1696367
alexnet2023_baseline_pgd,1,55,NaN,elephant,bird,pow,0055_pow_dnn_pow_bird_35_n01796340_9255.png,n01796340_9255.png,0.0,1.4236917,1.6649225,-0.17057589
alexnet2023_baseline_pgd,1,56,NaN,bear,cat,pow,0056_pow_dnn_pow_cat_35_n02123394_2448.png,n02123394_2448.png,0.0,1.3665729,5.063953,-2.6144426
alexnet2023_baseline_pgd,1,57,NaN,car,car,0,0057_pow_dnn_0_car_35_n04285008_13174.png,n04285008_13174.png,1.0,19.326609,12.723148,4.6693516
alexnet2023_baseline_pgd,1,58,NaN,clock,chair,pow,0058_pow_dnn_pow_chair_35_n04429376_353.png,n04429376_353.png,0.0,2.4540257,3.1825202,-0.51512337
alexnet2023_baseline_pgd,1,59,NaN,bicycle,boat,pow,0059_pow_dnn_pow_boat_35_n02951358_16261.png,n02951358_16261.png,0.0,-1.9705746,5.349845,-5.176318
alexnet2023_baseline_pgd,1,60,NaN,bear,car,pow,0060_pow_dnn_pow_car_35_n04285008_15954.png,n04285008_15954.png,0.0,2.5747986,3.2242405,-0.45922482
alexnet2023_baseline_pgd,1,61,NaN,truck,truck,pow,0061_pow_dnn_pow_truck_35_n04467665_3411.png,n04467665_3411.png,1.0,6.6839485,4.412586,1.6060957
alexnet2023_baseline_pgd,1,62,NaN,oven,oven,pow,0062_pow_dnn_pow_oven_35_n04111531_15743.png,n04111531_15743.png,1.0,7.0610485,2.0708985,3.528569
alexnet2023_baseline_pgd,1,63,NaN,elephant,dog,0,0063_pow_dnn_0_dog_35_n02088238_8653.png,n02088238_8653.png,0.0,1.3358556,4.749114,-2.4135382
alexnet2023_baseline_pgd,1,64,NaN,airplane,airplane,0,0064_pow_dnn_0_airplane_35_n02690373_4681.png,n02690373_4681.png,1.0,16.377098,9.321591,4.9889965
alexnet2023_baseline_pgd,1,65,NaN,bear,bear,pow,0065_pow_dnn_pow_bear_35_n02134418_5684.png,n02134418_5684.png,1.0,4.421398,2.6793952,1.2317821
alexnet2023_baseline_pgd,1,66,NaN,bear,bear,pow,0066_pow_dnn_pow_bear_35_n02134418_5830.png,n02134418_5830.png,1.0,7.795389,3.5368996,3.0112069
alexnet2023_baseline_pgd,1,67,NaN,boat,truck,0,0067_pow_dnn_0_truck_35_n04467665_45983.png,n04467665_45983.png,0.0,4.19049,5.9757566,-1.2623743
alexnet2023_baseline_pgd,1,68,NaN,bird,bird,0,0068_pow_dnn_0_bird_35_n01795545_14302.png,n01795545_14302.png,1.0,5.002135,4.5582476,0.31387568
alexnet2023_baseline_pgd,1,69,NaN,oven,oven,pow,0069_pow_dnn_pow_oven_35_n04111531_19240.png,n04111531_19240.png,1.0,4.4357147,2.5696614,1.319499
alexnet2023_baseline_pgd,1,70,NaN,oven,knife,0,0070_pow_dnn_0_knife_35_n03041632_22241.png,n03041632_22241.png,0.0,3.0047643,6.2938075,-2.3257048
alexnet2023_baseline_pgd,1,71,NaN,oven,boat,pow,0071_pow_dnn_pow_boat_35_n03344393_815.png,n03344393_815.png,0.0,2.2235124,3.3831508,-0.8199882
alexnet2023_baseline_pgd,1,72,NaN,airplane,boat,0,0072_pow_dnn_0_boat_35_n03662601_2120.png,n03662601_2120.png,0.0,5.9683027,7.9134593,-1.3754334
alexnet2023_baseline_pgd,1,73,NaN,bear,knife,pow,0073_pow_dnn_pow_knife_35_n03041632_2438.png,n03041632_2438.png,0.0,0.3965384,4.0636406,-2.5930328
alexnet2023_baseline_pgd,1,74,NaN,bear,bear,pow,0074_pow_dnn_pow_bear_35_n02134418_3073.png,n02134418_3073.png,1.0,6.963374,4.201306,1.9530772
alexnet2023_baseline_pgd,1,75,NaN,elephant,bottle,pow,0075_pow_dnn_pow_bottle_35_n02823428_3328.png,n02823428_3328.png,0.0,4.6291,5.8251696,-0.845749
alexnet2023_baseline_pgd,1,76,NaN,car,car,pow,0076_pow_dnn_pow_car_35_n04285008_13259.png,n04285008_13259.png,1.0,7.718043,4.667446,2.1570976
alexnet2023_baseline_pgd,1,77,NaN,oven,oven,0,0077_pow_dnn_0_oven_35_n04111531_15852.png,n04111531_15852.png,1.0,8.9329605,2.0287368,4.8820233
alexnet2023_baseline_pgd,1,78,NaN,elephant,dog,pow,0078_pow_dnn_pow_dog_35_n02099601_447.png,n02099601_447.png,0.0,3.0523765,9.246015,-4.3795633
alexnet2023_baseline_pgd,1,79,NaN,bicycle,oven,pow,0079_pow_dnn_pow_oven_35_n04111531_18916.png,n04111531_18916.png,0.0,2.4642646,2.7360208,-0.19216064
alexnet2023_baseline_pgd,1,80,NaN,knife,bottle,pow,0080_pow_dnn_pow_bottle_35_n04591713_1407.png,n04591713_1407.png,0.0,5.675225,6.582228,-0.64134824
alexnet2023_baseline_pgd,1,81,NaN,oven,oven,0,0081_pow_dnn_0_oven_35_n04111531_4585.png,n04111531_4585.png,1.0,6.6569185,6.065882,0.4179258
alexnet2023_baseline_pgd,1,82,NaN,elephant,keyboard,pow,0082_pow_dnn_pow_keyboard_35_n03085013_8364.png,n03085013_8364.png,0.0,1.4039696,5.5356464,-2.9215367
alexnet2023_baseline_pgd,1,83,NaN,elephant,bear,pow,0083_pow_dnn_pow_bear_35_n02132136_15462.png,n02132136_15462.png,0.0,10.133411,11.527076,-0.9854695
alexnet2023_baseline_pgd,1,84,NaN,oven,bicycle,pow,0084_pow_dnn_pow_bicycle_35_n03792782_4167.png,n03792782_4167.png,0.0,4.320878,5.6783686,-0.9598908
alexnet2023_baseline_pgd,1,85,NaN,boat,boat,0,0085_pow_dnn_0_boat_35_n03662601_16106.png,n03662601_16106.png,1.0,12.144503,7.05016,3.6022444
alexnet2023_baseline_pgd,1,86,NaN,knife,keyboard,pow,0086_pow_dnn_pow_keyboard_35_n03085013_2277.png,n03085013_2277.png,0.0,-2.3306818,2.8995824,-3.6983554
alexnet2023_baseline_pgd,1,87,NaN,elephant,airplane,pow,0087_pow_dnn_pow_airplane_35_n02690373_8461.png,n02690373_8461.png,0.0,2.4627411,4.656407,-1.5511559
alexnet2023_baseline_pgd,1,88,NaN,chair,chair,pow,0088_pow_dnn_pow_chair_35_n03376595_3304.png,n03376595_3304.png,1.0,6.5857687,3.9327908,1.8759388
alexnet2023_baseline_pgd,1,89,NaN,bicycle,bicycle,0,0089_pow_dnn_0_bicycle_35_n03792782_19116.png,n03792782_19116.png,1.0,6.5312643,2.7289927,2.688612
alexnet2023_baseline_pgd,1,90,NaN,clock,clock,0,0090_pow_dnn_0_clock_35_n02708093_6734.png,n02708093_6734.png,1.0,10.924058,6.8572726,2.8756516
alexnet2023_baseline_pgd,1,91,NaN,bicycle,chair,0,0091_pow_dnn_0_chair_35_n04429376_6480.png,n04429376_6480.png,0.0,4.016803,4.140664,-0.08758318
alexnet2023_baseline_pgd,1,92,NaN,bicycle,bicycle,pow,0092_pow_dnn_pow_bicycle_35_n02835271_21339.png,n02835271_21339.png,1.0,5.136528,4.56295,0.40558082
alexnet2023_baseline_pgd,1,93,NaN,bottle,keyboard,pow,0093_pow_dnn_pow_keyboard_35_n03085013_3859.png,n03085013_3859.png,0.0,2.7027764,3.4178889,-0.5056609
alexnet2023_baseline_pgd,1,94,NaN,bear,chair,pow,0094_pow_dnn_pow_chair_35_n03376595_360.png,n03376595_360.png,0.0,0.79750067,2.2260625,-1.0101458
alexnet2023_baseline_pgd,1,95,NaN,elephant,elephant,pow,0095_pow_dnn_pow_elephant_35_n02504013_18988.png,n02504013_18988.png,1.0,8.3040495,5.6402235,1.8836094
alexnet2023_baseline_pgd,1,96,NaN,bottle,chair,0,0096_pow_dnn_0_chair_35_n04429376_54570.png,n04429376_54570.png,0.0,2.855001,5.4639106,-1.8447777
alexnet2023_baseline_pgd,1,97,NaN,bicycle,clock,pow,0097_pow_dnn_pow_clock_35_n04548280_5189.png,n04548280_5189.png,0.0,3.3781557,6.7353287,-2.37388
alexnet2023_baseline_pgd,1,98,NaN,knife,truck,pow,0098_pow_dnn_pow_truck_35_n04467665_6626.png,n04467665_6626.png,0.0,-0.83366066,3.6211817,-3.1500494
alexnet2023_baseline_pgd,1,99,NaN,boat,boat,0,0099_pow_dnn_0_boat_35_n03344393_3323.png,n03344393_3323.png,1.0,13.280207,6.47612,4.811216
alexnet2023_baseline_pgd,1,100,NaN,elephant,dog,pow,0100_pow_dnn_pow_dog_35_n02100583_3987.png,n02100583_3987.png,0.0,3.6140926,11.015982,-5.233926
alexnet2023_baseline_pgd,1,101,NaN,elephant,elephant,pow,0101_pow_dnn_pow_elephant_35_n02504013_1702.png,n02504013_1702.png,1.0,11.3292465,4.266358,4.9942164
alexnet2023_baseline_pgd,1,102,NaN,truck,truck,pow,0102_pow_dnn_pow_truck_35_n03417042_1841.png,n03417042_1841.png,1.0,4.143742,3.914809,0.16188015
alexnet2023_baseline_pgd,1,103,NaN,truck,truck,0,0103_pow_dnn_0_truck_35_n03417042_2062.png,n03417042_2062.png,1.0,13.548424,8.747477,3.3947823
alexnet2023_baseline_pgd,1,104,NaN,bottle,bottle,0,0104_pow_dnn_0_bottle_35_n03983396_4178.png,n03983396_4178.png,1.0,8.807624,6.5049834,1.6282127
alexnet2023_baseline_pgd,1,105,NaN,knife,keyboard,pow,0105_pow_dnn_pow_keyboard_35_n03085013_1698.png,n03085013_1698.png,0.0,-4.6626434,4.3455863,-6.3697805
alexnet2023_baseline_pgd,1,106,NaN,car,car,pow,0106_pow_dnn_pow_car_35_n03100240_7056.png,n03100240_7056.png,1.0,3.138244,2.9001682,0.16834497
alexnet2023_baseline_pgd,1,107,NaN,bear,dog,pow,0107_pow_dnn_pow_dog_35_n02100735_3553.png,n02100735_3553.png,0.0,1.0150125,3.3307953,-1.6375058
alexnet2023_baseline_pgd,1,108,NaN,oven,oven,pow,0108_pow_dnn_pow_oven_35_n04111531_11781.png,n04111531_11781.png,1.0,5.2950144,3.9729168,0.93486416
alexnet2023_baseline_pgd,1,109,NaN,cat,cat,0,0109_pow_dnn_0_cat_35_n02123159_4914.png,n02123159_4914.png,1.0,7.3298154,1.8924702,3.8447835
alexnet2023_baseline_pgd,1,110,NaN,boat,dog,0,0110_pow_dnn_0_dog_35_n02090622_1852.png,n02090622_1852.png,0.0,2.7722886,5.47936,-1.9141886
alexnet2023_baseline_pgd,1,111,NaN,car,car,pow,0111_pow_dnn_pow_car_35_n03100240_24471.png,n03100240_24471.png,1.0,8.641651,5.792306,2.0147913
alexnet2023_baseline_pgd,1,112,NaN,elephant,boat,pow,0112_pow_dnn_pow_boat_35_n03344393_3519.png,n03344393_3519.png,0.0,3.3610425,3.9163463,-0.3926591
alexnet2023_baseline_pgd,1,113,NaN,bottle,keyboard,pow,0113_pow_dnn_pow_keyboard_35_n03085013_22713.png,n03085013_22713.png,0.0,0.6315465,3.2202084,-1.8304604
alexnet2023_baseline_pgd,1,114,NaN,elephant,elephant,0,0114_pow_dnn_0_elephant_35_n02504013_6615.png,n02504013_6615.png,1.0,13.360493,4.673595,6.1425643
alexnet2023_baseline_pgd,1,115,NaN,cat,cat,0,0115_pow_dnn_0_cat_35_n02123597_7081.png,n02123597_7081.png,1.0,10.392307,7.8647265,1.7872695
alexnet2023_baseline_pgd,1,116,NaN,clock,clock,pow,0116_pow_dnn_pow_clock_35_n04548280_5406.png,n04548280_5406.png,1.0,4.769251,3.1124184,1.1715574
alexnet2023_baseline_pgd,1,117,NaN,bottle,bottle,0,0117_pow_dnn_0_bottle_35_n03983396_21920.png,n03983396_21920.png,1.0,6.4244237,5.2883983,0.8032913
alexnet2023_baseline_pgd,1,118,NaN,knife,knife,0,0118_pow_dnn_0_knife_35_n03041632_48675.png,n03041632_48675.png,1.0,10.133941,2.404494,5.465544
alexnet2023_baseline_pgd,1,119,NaN,elephant,cat,0,0119_pow_dnn_0_cat_35_n02125311_2103.png,n02125311_2103.png,0.0,2.1652331,4.5968666,-1.7194246
alexnet2023_baseline_pgd,1,120,NaN,bicycle,bird,pow,0120_pow_dnn_pow_bird_35_n01798484_962.png,n01798484_962.png,0.0,-0.12337127,2.0902169,-1.5652432
alexnet2023_baseline_pgd,1,121,NaN,oven,oven,pow,0121_pow_dnn_pow_oven_35_n04111531_6393.png,n04111531_6393.png,1.0,5.1490927,3.055089,1.4806843
alexnet2023_baseline_pgd,1,122,NaN,oven,oven,0,0122_pow_dnn_0_oven_35_n04111531_4418.png,n04111531_4418.png,1.0,7.218815,1.7809806,3.8451295
alexnet2023_baseline_pgd,1,123,NaN,elephant,truck,pow,0123_pow_dnn_pow_truck_35_n03796401_296.png,n03796401_296.png,0.0,0.8337352,4.895755,-2.8722816
alexnet2023_baseline_pgd,1,124,NaN,bicycle,bicycle,0,0124_pow_dnn_0_bicycle_35_n02835271_10738.png,n02835271_10738.png,1.0,13.109834,2.7109444,7.3531256
alexnet2023_baseline_pgd,1,125,NaN,elephant,elephant,0,0125_pow_dnn_0_elephant_35_n02504013_4457.png,n02504013_4457.png,1.0,27.804493,11.901579,11.245059
alexnet2023_baseline_pgd,1,126,NaN,knife,knife,0,0126_pow_dnn_0_knife_35_n03041632_30573.png,n03041632_30573.png,1.0,9.298934,4.9719343,3.059651
alexnet2023_baseline_pgd,1,127,NaN,boat,boat,0,0127_pow_dnn_0_boat_35_n03662601_19840.png,n03662601_19840.png,1.0,9.137103,5.4411993,2.6133986
alexnet2023_baseline_pgd,1,128,NaN,bear,bear,0,0128_pow_dnn_0_bear_35_n02133161_12167.png,n02133161_12167.png,1.0,12.660476,11.538752,0.79317874
alexnet2023_baseline_pgd,1,129,NaN,bottle,bottle,0,0129_pow_dnn_0_bottle_35_n02823428_3028.png,n02823428_3028.png,1.0,4.643401,3.3374708,0.92343223
alexnet2023_baseline_pgd,1,130,NaN,elephant,boat,0,0130_pow_dnn_0_boat_35_n02951358_30149.png,n02951358_30149.png,0.0,7.363047,9.519699,-1.5249833
alexnet2023_baseline_pgd,1,131,NaN,car,car,0,0131_pow_dnn_0_car_35_n02814533_75419.png,n02814533_75419.png,1.0,18.128674,13.86356,3.015891
alexnet2023_baseline_pgd,1,132,NaN,keyboard,keyboard,0,0132_pow_dnn_0_keyboard_35_n03085013_24449.png,n03085013_24449.png,1.0,7.6261168,4.8290906,1.9777962
alexnet2023_baseline_pgd,1,133,NaN,dog,dog,0,0133_pow_dnn_0_dog_35_n02086240_519.png,n02086240_519.png,1.0,8.341014,4.234032,2.9040747
alexnet2023_baseline_pgd,1,134,NaN,bird,bird,pow,0134_pow_dnn_pow_bird_35_n01582220_2882.png,n01582220_2882.png,1.0,4.6333313,4.2246194,0.28900295
alexnet2023_baseline_pgd,1,135,NaN,oven,oven,0,0135_pow_dnn_0_oven_35_n04111531_13277.png,n04111531_13277.png,1.0,10.2259035,3.6827552,4.626704
alexnet2023_baseline_pgd,1,136,NaN,elephant,bear,pow,0136_pow_dnn_pow_bear_35_n02134084_6901.png,n02134084_6901.png,0.0,3.62426,8.385924,-3.3670053
alexnet2023_baseline_pgd,1,137,NaN,bird,bird,0,0137_pow_dnn_0_bird_35_n02002556_5447.png,n02002556_5447.png,1.0,3.9101655,1.4987231,1.7051473
alexnet2023_baseline_pgd,1,138,NaN,keyboard,keyboard,0,0138_pow_dnn_0_keyboard_35_n03085013_20710.png,n03085013_20710.png,1.0,13.28824,3.9023952,6.636795
alexnet2023_baseline_pgd,1,139,NaN,oven,oven,pow,0139_pow_dnn_pow_oven_35_n04111531_11405.png,n04111531_11405.png,1.0,4.836574,3.1974587,1.1590296
alexnet2023_baseline_pgd,1,140,NaN,bear,bear,pow,0140_pow_dnn_pow_bear_35_n02132136_8457.png,n02132136_8457.png,1.0,8.929627,7.2978525,1.1538391
alexnet2023_baseline_pgd,1,141,NaN,bird,bird,pow,0141_pow_dnn_pow_bird_35_n02009912_6788.png,n02009912_6788.png,1.0,5.7866535,4.4125166,0.97166157
alexnet2023_baseline_pgd,1,142,NaN,elephant,chair,pow,0142_pow_dnn_pow_chair_35_n04429376_9630.png,n04429376_9630.png,0.0,1.6616595,2.9286814,-0.8959198
alexnet2023_baseline_pgd,1,143,NaN,keyboard,keyboard,0,0143_pow_dnn_0_keyboard_35_n03085013_23658.png,n03085013_23658.png,1.0,11.935581,5.4804,4.5645022
alexnet2023_baseline_pgd,1,144,NaN,bear,cat,pow,0144_pow_dnn_pow_cat_35_n02123045_13199.png,n02123045_13199.png,0.0,3.9592273,4.027221,-0.048078936
alexnet2023_baseline_pgd,1,145,NaN,clock,clock,pow,0145_pow_dnn_pow_clock_35_n04548280_6411.png,n04548280_6411.png,1.0,8.015046,6.672143,0.94957596
alexnet2023_baseline_pgd,1,146,NaN,bird,bird,0,0146_pow_dnn_0_bird_35_n01820546_9729.png,n01820546_9729.png,1.0,2.9210103,1.106841,1.2828114
alexnet2023_baseline_pgd,1,147,NaN,boat,boat,0,0147_pow_dnn_0_boat_35_n04273569_12651.png,n04273569_12651.png,1.0,9.708774,5.141667,3.229432
alexnet2023_baseline_pgd,1,148,NaN,elephant,elephant,pow,0148_pow_dnn_pow_elephant_35_n02504458_3143.png,n02504458_3143.png,1.0,6.0514774,4.727949,0.93587583
alexnet2023_baseline_pgd,1,149,NaN,clock,clock,0,0149_pow_dnn_0_clock_35_n03196217_9786.png,n03196217_9786.png,1.0,10.887874,8.920079,1.3914407
alexnet2023_baseline_pgd,1,150,NaN,airplane,chair,0,0150_pow_dnn_0_chair_35_n03376595_6652.png,n03376595_6652.png,0.0,4.005272,7.5759153,-2.5248263
alexnet2023_baseline_pgd,1,151,NaN,oven,bottle,pow,0151_pow_dnn_pow_bottle_35_n03983396_2998.png,n03983396_2998.png,0.0,4.0343976,4.7125645,-0.47953638
alexnet2023_baseline_pgd,1,152,NaN,elephant,elephant,0,0152_pow_dnn_0_elephant_35_n02504458_5331.png,n02504458_5331.png,1.0,20.539463,8.709808,8.364829
alexnet2023_baseline_pgd,1,153,NaN,car,car,0,0153_pow_dnn_0_car_35_n04285008_8052.png,n04285008_8052.png,1.0,23.130945,13.220041,7.0080676
alexnet2023_baseline_pgd,1,154,NaN,elephant,bottle,pow,0154_pow_dnn_pow_bottle_35_n04591713_3402.png,n04591713_3402.png,0.0,5.166552,5.2855926,-0.084174335
alexnet2023_baseline_pgd,1,155,NaN,bicycle,bicycle,pow,0155_pow_dnn_pow_bicycle_35_n02835271_1701.png,n02835271_1701.png,1.0,4.5050197,3.3403728,0.8235297
alexnet2023_baseline_pgd,1,156,NaN,bicycle,bicycle,0,0156_pow_dnn_0_bicycle_35_n02835271_5196.png,n02835271_5196.png,1.0,16.614208,4.224538,8.76082
alexnet2023_baseline_pgd,1,157,NaN,elephant,elephant,pow,0157_pow_dnn_pow_elephant_35_n02504458_5444.png,n02504458_5444.png,1.0,10.088371,7.119611,2.0992308
alexnet2023_baseline_pgd,1,158,NaN,truck,truck,0,0158_pow_dnn_0_truck_35_n03417042_3422.png,n03417042_3422.png,1.0,6.3278284,5.717343,0.43167847
alexnet2023_baseline_pgd,1,159,NaN,elephant,dog,pow,0159_pow_dnn_pow_dog_35_n02088466_1537.png,n02088466_1537.png,0.0,4.222667,4.9812536,-0.5364016
alexnet2023_baseline_pgd,1,160,NaN,bear,dog,pow,0160_pow_dnn_pow_dog_35_n02088632_1732.png,n02088632_1732.png,0.0,4.5298586,6.0071096,-1.0445743
alexnet2023_baseline_pgd,1,161,NaN,truck,truck,0,0161_pow_dnn_0_truck_35_n03796401_3326.png,n03796401_3326.png,1.0,6.3339777,4.230273,1.4875441
alexnet2023_baseline_pgd,1,162,NaN,boat,boat,0,0162_pow_dnn_0_boat_35_n04273569_19796.png,n04273569_19796.png,1.0,13.739763,4.870332,6.271635
alexnet2023_baseline_pgd,1,163,NaN,oven,keyboard,pow,0163_pow_dnn_pow_keyboard_35_n04505470_5125.png,n04505470_5125.png,0.0,2.3017752,4.224606,-1.3596467
alexnet2023_baseline_pgd,1,164,NaN,bicycle,cat,pow,0164_pow_dnn_pow_cat_35_n02123394_1817.png,n02123394_1817.png,0.0,3.303627,3.7813416,-0.3377952
alexnet2023_baseline_pgd,1,165,NaN,bicycle,cat,pow,0165_pow_dnn_pow_cat_35_n02123159_7465.png,n02123159_7465.png,0.0,3.6317933,4.0211487,-0.27531585
alexnet2023_baseline_pgd,1,166,NaN,bear,cat,0,0166_pow_dnn_0_cat_35_n02125311_33516.png,n02125311_33516.png,0.0,4.1520762,7.2353296,-2.1801894
alexnet2023_baseline_pgd,1,167,NaN,oven,bicycle,pow,0167_pow_dnn_pow_bicycle_35_n03792782_30246.png,n03792782_30246.png,0.0,2.0192938,2.485811,-0.3298775
alexnet2023_baseline_pgd,1,168,NaN,airplane,truck,0,0168_pow_dnn_0_truck_35_n04467665_72639.png,n04467665_72639.png,0.0,6.864007,13.042543,-4.368885
alexnet2023_baseline_pgd,1,169,NaN,bicycle,bicycle,0,0169_pow_dnn_0_bicycle_35_n03792782_10395.png,n03792782_10395.png,1.0,10.300176,4.285001,4.2533712
alexnet2023_baseline_pgd,1,170,NaN,bicycle,bicycle,pow,0170_pow_dnn_pow_bicycle_35_n02835271_840.png,n02835271_840.png,1.0,4.9655266,3.463014,1.0624369
alexnet2023_baseline_pgd,1,171,NaN,elephant,knife,pow,0171_pow_dnn_pow_knife_35_n03041632_82197.png,n03041632_82197.png,0.0,-0.18801594,6.9242244,-5.0291133
alexnet2023_baseline_pgd,1,172,NaN,oven,airplane,pow,0172_pow_dnn_pow_airplane_35_n02690373_8942.png,n02690373_8942.png,0.0,-0.33217198,4.456323,-3.3859775
alexnet2023_baseline_pgd,1,173,NaN,keyboard,keyboard,0,0173_pow_dnn_0_keyboard_35_n03085013_21851.png,n03085013_21851.png,1.0,6.453337,5.3521156,0.7786812
alexnet2023_baseline_pgd,1,174,NaN,clock,clock,pow,0174_pow_dnn_pow_clock_35_n04548280_1106.png,n04548280_1106.png,1.0,9.91076,4.258697,3.996612
alexnet2023_baseline_pgd,1,175,NaN,truck,truck,0,0175_pow_dnn_0_truck_35_n03796401_4181.png,n03796401_4181.png,1.0,3.0897257,2.507987,0.41135138
alexnet2023_baseline_pgd,1,176,NaN,knife,knife,pow,0176_pow_dnn_pow_knife_35_n03041632_44019.png,n03041632_44019.png,1.0,5.070403,3.4710572,1.1309084
alexnet2023_baseline_pgd,1,177,NaN,truck,truck,0,0177_pow_dnn_0_truck_35_n03417042_1348.png,n03417042_1348.png,1.0,9.77125,4.780476,3.52901
alexnet2023_baseline_pgd,1,178,NaN,chair,chair,0,0178_pow_dnn_0_chair_35_n04099969_10516.png,n04099969_10516.png,1.0,8.193092,3.995693,2.9680095
alexnet2023_baseline_pgd,1,179,NaN,bottle,chair,pow,0179_pow_dnn_pow_chair_35_n04099969_24041.png,n04099969_24041.png,0.0,3.5223422,4.566112,-0.7380567
alexnet2023_baseline_pgd,1,180,NaN,chair,truck,pow,0180_pow_dnn_pow_truck_35_n03796401_3618.png,n03796401_3618.png,0.0,2.0469282,4.1107187,-1.4593203
alexnet2023_baseline_pgd,1,181,NaN,elephant,elephant,0,0181_pow_dnn_0_elephant_35_n02504458_4414.png,n02504458_4414.png,1.0,21.582048,4.5066657,12.074119
alexnet2023_baseline_pgd,1,182,NaN,truck,truck,pow,0182_pow_dnn_pow_truck_35_n03796401_3427.png,n03796401_3427.png,1.0,8.889572,5.184874,2.6196172
alexnet2023_baseline_pgd,1,183,NaN,cat,cat,0,0183_pow_dnn_0_cat_35_n02123045_9907.png,n02123045_9907.png,1.0,6.4416957,1.8012218,3.2813106
alexnet2023_baseline_pgd,1,184,NaN,oven,oven,0,0184_pow_dnn_0_oven_35_n04111531_2156.png,n04111531_2156.png,1.0,9.39642,3.7489848,3.9933395
alexnet2023_baseline_pgd,1,185,NaN,bicycle,bird,pow,0185_pow_dnn_pow_bird_35_n02002556_12696.png,n02002556_12696.png,0.0,2.7190857,4.4504604,-1.2242669
alexnet2023_baseline_pgd,1,186,NaN,elephant,airplane,pow,0186_pow_dnn_pow_airplane_35_n02690373_8791.png,n02690373_8791.png,0.0,1.4076008,3.5505595,-1.5153006
alexnet2023_baseline_pgd,1,187,NaN,bear,knife,pow,0187_pow_dnn_pow_knife_35_n03041632_27963.png,n03041632_27963.png,0.0,-0.21573503,3.4245958,-2.5741026
alexnet2023_baseline_pgd,1,188,NaN,knife,chair,0,0188_pow_dnn_0_chair_35_n03376595_7772.png,n03376595_7772.png,0.0,4.014709,4.231422,-0.1532392
alexnet2023_baseline_pgd,1,189,NaN,boat,boat,pow,0189_pow_dnn_pow_boat_35_n04273569_3460.png,n04273569_3460.png,1.0,4.243893,3.5525966,0.4888205
alexnet2023_baseline_pgd,1,190,NaN,oven,oven,0,0190_pow_dnn_0_oven_35_n04111531_5694.png,n04111531_5694.png,1.0,14.42699,1.4358358,9.186133
alexnet2023_baseline_pgd,1,191,NaN,elephant,bear,pow,0191_pow_dnn_pow_bear_35_n02134084_17218.png,n02134084_17218.png,0.0,8.586979,9.09016,-0.355803
alexnet2023_baseline_pgd,1,192,NaN,oven,oven,pow,0192_pow_dnn_pow_oven_35_n04111531_2923.png,n04111531_2923.png,1.0,4.8082404,4.561175,0.17470172
alexnet2023_baseline_pgd,1,193,NaN,cat,keyboard,pow,0193_pow_dnn_pow_keyboard_35_n03085013_22669.png,n03085013_22669.png,0.0,0.6884341,1.886202,-0.8469498
alexnet2023_baseline_pgd,1,194,NaN,bottle,bottle,pow,0194_pow_dnn_pow_bottle_35_n04557648_2282.png,n04557648_2282.png,1.0,5.8922796,4.109823,1.2603871
alexnet2023_baseline_pgd,1,195,NaN,elephant,elephant,pow,0195_pow_dnn_pow_elephant_35_n02504013_6693.png,n02504013_6693.png,1.0,12.431423,5.9952807,4.55104
alexnet2023_baseline_pgd,1,196,NaN,truck,chair,0,0196_pow_dnn_0_chair_35_n04099969_39507.png,n04099969_39507.png,0.0,3.3303032,3.4899814,-0.112909555
alexnet2023_baseline_pgd,1,197,NaN,bottle,car,pow,0197_pow_dnn_pow_car_35_n02814533_61184.png,n02814533_61184.png,0.0,0.76367855,4.805443,-2.857959
alexnet2023_baseline_pgd,1,198,NaN,knife,keyboard,pow,0198_pow_dnn_pow_keyboard_35_n04505470_1358.png,n04505470_1358.png,0.0,0.6553364,4.18068,-2.4927943
alexnet2023_baseline_pgd,1,199,NaN,truck,truck,pow,0199_pow_dnn_pow_truck_35_n04467665_8824.png,n04467665_8824.png,1.0,5.547641,4.0141244,1.0843599
alexnet2023_baseline_pgd,1,200,NaN,keyboard,keyboard,0,0200_pow_dnn_0_keyboard_35_n04505470_8937.png,n04505470_8937.png,1.0,8.547469,3.7057917,3.4235833
alexnet2023_baseline_pgd,1,201,NaN,airplane,truck,pow,0201_pow_dnn_pow_truck_35_n03417042_7581.png,n03417042_7581.png,0.0,2.458536,4.4585795,-1.4142444
alexnet2023_baseline_pgd,1,202,NaN,bicycle,bicycle,pow,0202_pow_dnn_pow_bicycle_35_n02835271_13234.png,n02835271_13234.png,1.0,7.7464514,1.5027146,4.4149885
alexnet2023_baseline_pgd,1,203,NaN,cat,cat,pow,0203_pow_dnn_pow_cat_35_n02124075_3383.png,n02124075_3383.png,1.0,7.3185863,2.5658646,3.3606818
alexnet2023_baseline_pgd,1,204,NaN,elephant,elephant,pow,0204_pow_dnn_pow_elephant_35_n02504013_474.png,n02504013_474.png,1.0,8.287392,4.5432425,2.6475134
alexnet2023_baseline_pgd,1,205,NaN,oven,chair,pow,0205_pow_dnn_pow_chair_35_n04429376_1838.png,n04429376_1838.png,0.0,2.6561544,4.8535547,-1.5537966
alexnet2023_baseline_pgd,1,206,NaN,elephant,boat,pow,0206_pow_dnn_pow_boat_35_n02951358_5064.png,n02951358_5064.png,0.0,-0.024661755,4.1037254,-2.9192104
alexnet2023_baseline_pgd,1,207,NaN,elephant,knife,pow,0207_pow_dnn_pow_knife_35_n03041632_31037.png,n03041632_31037.png,0.0,3.434819,4.77855,-0.95016146
alexnet2023_baseline_pgd,1,208,NaN,cat,cat,pow,0208_pow_dnn_pow_cat_35_n02123045_11501.png,n02123045_11501.png,1.0,1.9906625,1.912681,0.05514123
alexnet2023_baseline_pgd,1,209,NaN,elephant,keyboard,pow,0209_pow_dnn_pow_keyboard_35_n03085013_17937.png,n03085013_17937.png,0.0,-3.9741802,4.59254,-6.0575857
alexnet2023_baseline_pgd,1,210,NaN,oven,chair,0,0210_pow_dnn_0_chair_35_n03376595_10881.png,n03376595_10881.png,0.0,3.1798024,5.408606,-1.5760022
alexnet2023_baseline_pgd,1,211,NaN,elephant,elephant,0,0211_pow_dnn_0_elephant_35_n02504458_7302.png,n02504458_7302.png,1.0,23.18618,9.024677,10.013695
alexnet2023_baseline_pgd,1,212,NaN,bird,airplane,pow,0212_pow_dnn_pow_airplane_35_n02690373_4704.png,n02690373_4704.png,0.0,2.7082977,3.5355184,-0.58493334
alexnet2023_baseline_pgd,1,213,NaN,car,car,0,0213_pow_dnn_0_car_35_n03100240_18756.png,n03100240_18756.png,1.0,19.219124,10.104681,6.4448843
alexnet2023_baseline_pgd,1,214,NaN,knife,keyboard,pow,0214_pow_dnn_pow_keyboard_35_n03085013_20732.png,n03085013_20732.png,0.0,-0.7985866,1.4976856,-1.6237097
alexnet2023_baseline_pgd,1,215,NaN,bottle,bottle,pow,0215_pow_dnn_pow_bottle_35_n04579145_2999.png,n04579145_2999.png,1.0,5.3008704,3.1392972,1.5284631
alexnet2023_baseline_pgd,1,216,NaN,clock,clock,pow,0216_pow_dnn_pow_clock_35_n02708093_2546.png,n02708093_2546.png,1.0,7.8197417,1.9968835,4.1173825
alexnet2023_baseline_pgd,1,217,NaN,bicycle,boat,0,0217_pow_dnn_0_boat_35_n03662601_13847.png,n03662601_13847.png,0.0,6.2556815,6.358307,-0.0725671
alexnet2023_baseline_pgd,1,218,NaN,bicycle,bicycle,0,0218_pow_dnn_0_bicycle_35_n03792782_7878.png,n03792782_7878.png,1.0,22.486515,4.0929694,13.006201
alexnet2023_baseline_pgd,1,219,NaN,bear,knife,pow,0219_pow_dnn_pow_knife_35_n03041632_18959.png,n03041632_18959.png,0.0,2.2839668,5.5051327,-2.2777083
alexnet2023_baseline_pgd,1,220,NaN,bear,bear,0,0220_pow_dnn_0_bear_35_n02134418_10576.png,n02134418_10576.png,1.0,17.0415,9.231005,5.5228543
alexnet2023_baseline_pgd,1,221,NaN,elephant,elephant,pow,0221_pow_dnn_pow_elephant_35_n02504013_213.png,n02504013_213.png,1.0,6.722691,3.591085,2.21438
alexnet2023_baseline_pgd,1,222,NaN,bear,bottle,pow,0222_pow_dnn_pow_bottle_35_n03983396_2944.png,n03983396_2944.png,0.0,0.70632684,3.4942513,-1.9713602
alexnet2023_baseline_pgd,1,223,NaN,airplane,truck,0,0223_pow_dnn_0_truck_35_n03796401_8964.png,n03796401_8964.png,0.0,3.274032,5.534906,-1.5986792
alexnet2023_baseline_pgd,1,224,NaN,knife,knife,pow,0224_pow_dnn_pow_knife_35_n03041632_13509.png,n03041632_13509.png,1.0,5.460101,3.095782,1.6718261
alexnet2023_baseline_pgd,1,225,NaN,bicycle,bird,pow,0225_pow_dnn_pow_bird_35_n01537544_7301.png,n01537544_7301.png,0.0,0.045117788,2.7156513,-1.8883523
alexnet2023_baseline_pgd,1,226,NaN,elephant,elephant,0,0226_pow_dnn_0_elephant_35_n02504013_9618.png,n02504013_9618.png,1.0,20.070658,9.926104,7.173283
alexnet2023_baseline_pgd,1,227,NaN,bottle,keyboard,pow,0227_pow_dnn_pow_keyboard_35_n04505470_10191.png,n04505470_10191.png,0.0,-2.142684,3.4960818,-3.9872096
alexnet2023_baseline_pgd,1,228,NaN,bicycle,bicycle,pow,0228_pow_dnn_pow_bicycle_35_n02835271_20149.png,n02835271_20149.png,1.0,9.000317,3.1094072,4.165502
alexnet2023_baseline_pgd,1,229,NaN,truck,truck,0,0229_pow_dnn_0_truck_35_n04467665_2098.png,n04467665_2098.png,1.0,11.01241,6.946789,2.8748286
alexnet2023_baseline_pgd,1,230,NaN,bear,bear,0,0230_pow_dnn_0_bear_35_n02133161_5274.png,n02133161_5274.png,1.0,8.1231365,5.556194,1.8151026
alexnet2023_baseline_pgd,1,231,NaN,dog,bird,pow,0231_pow_dnn_pow_bird_35_n01537544_20224.png,n01537544_20224.png,0.0,-0.31437564,2.0703921,-1.6862855
alexnet2023_baseline_pgd,1,232,NaN,bear,dog,pow,0232_pow_dnn_pow_dog_35_n02094258_6800.png,n02094258_6800.png,0.0,5.3668184,7.0865226,-1.2160145
alexnet2023_baseline_pgd,1,233,NaN,truck,truck,0,0233_pow_dnn_0_truck_35_n03417042_27326.png,n03417042_27326.png,1.0,10.369724,6.1611657,2.9759004
alexnet2023_baseline_pgd,1,234,NaN,oven,oven,pow,0234_pow_dnn_pow_oven_35_n04111531_6955.png,n04111531_6955.png,1.0,4.146496,3.956545,0.13431543
alexnet2023_baseline_pgd,1,235,NaN,clock,clock,0,0235_pow_dnn_0_clock_35_n04548280_7135.png,n04548280_7135.png,1.0,9.788606,8.470205,0.93224984
alexnet2023_baseline_pgd,1,236,NaN,oven,dog,pow,0236_pow_dnn_pow_dog_35_n02113023_12143.png,n02113023_12143.png,0.0,-0.8988441,5.657049,-4.635717
alexnet2023_baseline_pgd,1,237,NaN,bicycle,bicycle,0,0237_pow_dnn_0_bicycle_35_n02835271_10832.png,n02835271_10832.png,1.0,11.94614,3.6361523,5.876049
alexnet2023_baseline_pgd,1,238,NaN,chair,chair,pow,0238_pow_dnn_pow_chair_35_n02791124_28.png,n02791124_28.png,1.0,4.903427,3.7369733,0.8248074
alexnet2023_baseline_pgd,1,239,NaN,bicycle,bicycle,pow,0239_pow_dnn_pow_bicycle_35_n03792782_1715.png,n03792782_1715.png,1.0,7.548031,3.534268,2.838159
alexnet2023_baseline_pgd,1,240,NaN,bicycle,bicycle,0,0240_pow_dnn_0_bicycle_35_n02835271_19875.png,n02835271_19875.png,1.0,13.42968,5.1692514,5.841005
alexnet2023_baseline_pgd,1,241,NaN,bird,bird,0,0241_pow_dnn_0_bird_35_n02056570_8203.png,n02056570_8203.png,1.0,7.957573,4.642982,2.3437698
alexnet2023_baseline_pgd,1,242,NaN,car,car,pow,0242_pow_dnn_pow_car_35_n02814533_27588.png,n02814533_27588.png,1.0,4.4045873,3.8229709,0.4112649
alexnet2023_baseline_pgd,1,243,NaN,bear,bear,0,0243_pow_dnn_0_bear_35_n02134418_2714.png,n02134418_2714.png,1.0,9.227048,5.074711,2.9361458
alexnet2023_baseline_pgd,1,244,NaN,bear,bear,0,0244_pow_dnn_0_bear_35_n02132136_900.png,n02132136_900.png,1.0,15.615513,10.185913,3.8393068
alexnet2023_baseline_pgd,1,245,NaN,dog,dog,0,0245_pow_dnn_0_dog_35_n02095889_7413.png,n02095889_7413.png,1.0,8.2375765,3.9923172,3.0018518
alexnet2023_baseline_pgd,1,246,NaN,bicycle,boat,0,0246_pow_dnn_0_boat_35_n02951358_14877.png,n02951358_14877.png,0.0,3.3879986,5.065614,-1.1862534
alexnet2023_baseline_pgd,1,247,NaN,knife,knife,pow,0247_pow_dnn_pow_knife_35_n03041632_42472.png,n03041632_42472.png,1.0,7.047054,2.3057916,3.3525789
alexnet2023_baseline_pgd,1,248,NaN,bottle,bottle,pow,0248_pow_dnn_pow_bottle_35_n02823428_12740.png,n02823428_12740.png,1.0,9.0030775,4.1395564,3.4390287
alexnet2023_baseline_pgd,1,249,NaN,boat,boat,0,0249_pow_dnn_0_boat_35_n02951358_2537.png,n02951358_2537.png,1.0,6.353114,5.379252,0.68862456
alexnet2023_baseline_pgd,1,250,NaN,dog,dog,0,0250_pow_dnn_0_dog_35_n02106166_5135.png,n02106166_5135.png,1.0,5.0791316,4.1844616,0.63262725
alexnet2023_baseline_pgd,1,251,NaN,oven,oven,pow,0251_pow_dnn_pow_oven_35_n04111531_23046.png,n04111531_23046.png,1.0,6.0234985,3.4072473,1.849969
alexnet2023_baseline_pgd,1,252,NaN,bear,dog,pow,0252_pow_dnn_pow_dog_35_n02105855_3310.png,n02105855_3310.png,0.0,2.2635481,4.3031306,-1.4422027
alexnet2023_baseline_pgd,1,253,NaN,bird,bird,0,0253_pow_dnn_0_bird_35_n01843383_2122.png,n01843383_2122.png,1.0,7.0560775,3.1669438,2.750033
alexnet2023_baseline_pgd,1,254,NaN,bear,boat,pow,0254_pow_dnn_pow_boat_35_n03344393_8407.png,n03344393_8407.png,0.0,-0.38075238,3.548123,-2.7781343
alexnet2023_baseline_pgd,1,255,NaN,clock,clock,pow,0255_pow_dnn_pow_clock_35_n04548280_4739.png,n04548280_4739.png,1.0,5.074454,3.0874863,1.4049983
alexnet2023_baseline_pgd,1,256,NaN,keyboard,keyboard,0,0256_pow_dnn_0_keyboard_35_n04505470_3531.png,n04505470_3531.png,1.0,14.665715,5.181726,6.7061934
alexnet2023_baseline_pgd,1,257,NaN,bear,airplane,pow,0257_pow_dnn_pow_airplane_35_n02690373_7740.png,n02690373_7740.png,0.0,0.567481,4.525447,-2.7987046
alexnet2023_baseline_pgd,1,258,NaN,bear,bear,pow,0258_pow_dnn_pow_bear_35_n02132136_4699.png,n02132136_4699.png,1.0,8.240149,3.1072779,3.6294878
alexnet2023_baseline_pgd,1,259,NaN,airplane,airplane,pow,0259_pow_dnn_pow_airplane_35_n02690373_5277.png,n02690373_5277.png,1.0,9.664748,3.2263265,4.552652
alexnet2023_baseline_pgd,1,260,NaN,clock,clock,pow,0260_pow_dnn_pow_clock_35_n04548280_8841.png,n04548280_8841.png,1.0,7.251143,5.4657116,1.2624906
alexnet2023_baseline_pgd,1,261,NaN,bottle,truck,pow,0261_pow_dnn_pow_truck_35_n03796401_142.png,n03796401_142.png,0.0,-0.5926016,4.5859137,-3.6617634
alexnet2023_baseline_pgd,1,262,NaN,bear,bear,pow,0262_pow_dnn_pow_bear_35_n02134418_4666.png,n02134418_4666.png,1.0,4.997788,4.348875,0.4588507
alexnet2023_baseline_pgd,1,263,NaN,chair,chair,0,0263_pow_dnn_0_chair_35_n04429376_17074.png,n04429376_17074.png,1.0,4.7910485,4.3507857,0.31131282
alexnet2023_baseline_pgd,1,264,NaN,dog,dog,0,0264_pow_dnn_0_dog_35_n02107683_1934.png,n02107683_1934.png,1.0,6.5036936,2.2946992,2.9762084
alexnet2023_baseline_pgd,1,265,NaN,bicycle,bicycle,0,0265_pow_dnn_0_bicycle_35_n03792782_3765.png,n03792782_3765.png,1.0,4.3406744,2.0039923,1.6522838
alexnet2023_baseline_pgd,1,266,NaN,elephant,elephant,pow,0266_pow_dnn_pow_elephant_35_n02504013_7026.png,n02504013_7026.png,1.0,12.636304,4.8237934,5.524279
alexnet2023_baseline_pgd,1,267,NaN,elephant,clock,pow,0267_pow_dnn_pow_clock_35_n03196217_3063.png,n03196217_3063.png,0.0,-1.2009498,2.9680798,-2.9479492
alexnet2023_baseline_pgd,1,268,NaN,elephant,bear,pow,0268_pow_dnn_pow_bear_35_n02134418_1041.png,n02134418_1041.png,0.0,3.6273098,6.0728865,-1.7292839
alexnet2023_baseline_pgd,1,269,NaN,boat,boat,pow,0269_pow_dnn_pow_boat_35_n03344393_8258.png,n03344393_8258.png,1.0,3.711578,1.9494642,1.2460026
alexnet2023_baseline_pgd,1,270,NaN,oven,oven,0,0270_pow_dnn_0_oven_35_n04111531_10306.png,n04111531_10306.png,1.0,10.616587,3.7705631,4.84087
alexnet2023_baseline_pgd,1,271,NaN,bottle,bottle,0,0271_pow_dnn_0_bottle_35_n02823428_641.png,n02823428_641.png,1.0,5.171563,4.955896,0.15249978
alexnet2023_baseline_pgd,1,272,NaN,oven,oven,pow,0272_pow_dnn_pow_oven_35_n04111531_1873.png,n04111531_1873.png,1.0,5.3035455,2.5097435,1.9755164
alexnet2023_baseline_pgd,1,273,NaN,bear,bear,0,0273_pow_dnn_0_bear_35_n02134418_559.png,n02134418_559.png,1.0,9.554548,2.9422894,4.6755733
alexnet2023_baseline_pgd,1,274,NaN,oven,keyboard,pow,0274_pow_dnn_pow_keyboard_35_n04505470_4844.png,n04505470_4844.png,0.0,-0.88938487,3.8475528,-3.3495207
alexnet2023_baseline_pgd,1,275,NaN,keyboard,keyboard,0,0275_pow_dnn_0_keyboard_35_n03085013_23291.png,n03085013_23291.png,1.0,16.184937,6.4625487,6.8747663
alexnet2023_baseline_pgd,1,276,NaN,car,car,0,0276_pow_dnn_0_car_35_n03100240_5808.png,n03100240_5808.png,1.0,18.154268,7.671199,7.4126496
alexnet2023_baseline_pgd,1,277,NaN,boat,bear,0,0277_pow_dnn_0_bear_35_n02134084_15968.png,n02134084_15968.png,0.0,3.5675783,5.4921293,-1.3608631
alexnet2023_baseline_pgd,1,278,NaN,bear,cat,0,0278_pow_dnn_0_cat_35_n02125311_20238.png,n02125311_20238.png,0.0,4.750696,4.902739,-0.107510544
alexnet2023_baseline_pgd,1,279,NaN,elephant,bird,0,0279_pow_dnn_0_bird_35_n02028035_8994.png,n02028035_8994.png,0.0,5.2806554,7.155059,-1.3254035
alexnet2023_baseline_pgd,1,280,NaN,airplane,airplane,pow,0280_pow_dnn_pow_airplane_35_n02690373_4471.png,n02690373_4471.png,1.0,9.638133,5.9427943,2.6129992
alexnet2023_baseline_pgd,1,281,NaN,car,truck,0,0281_pow_dnn_0_truck_35_n03796401_322.png,n03796401_322.png,0.0,18.320772,18.634748,-0.22201477
alexnet2023_baseline_pgd,1,282,NaN,knife,car,pow,0282_pow_dnn_pow_car_35_n04285008_402.png,n04285008_402.png,0.0,-1.7602457,5.6867146,-5.265796
alexnet2023_baseline_pgd,1,283,NaN,oven,oven,0,0283_pow_dnn_0_oven_35_n04111531_807.png,n04111531_807.png,1.0,7.572276,3.826253,2.6488385
alexnet2023_baseline_pgd,1,284,NaN,oven,oven,0,0284_pow_dnn_0_oven_35_n04111531_20369.png,n04111531_20369.png,1.0,15.404283,3.6077447,8.341412
alexnet2023_baseline_pgd,1,285,NaN,bear,knife,pow,0285_pow_dnn_pow_knife_35_n03041632_24114.png,n03041632_24114.png,0.0,1.192002,5.820631,-3.272935
alexnet2023_baseline_pgd,1,286,NaN,elephant,dog,0,0286_pow_dnn_0_dog_35_n02093256_1102.png,n02093256_1102.png,0.0,4.021747,5.400172,-0.9746938
alexnet2023_baseline_pgd,1,287,NaN,bottle,bottle,0,0287_pow_dnn_0_bottle_35_n03983396_17636.png,n03983396_17636.png,1.0,11.466059,1.937626,6.7376194
alexnet2023_baseline_pgd,1,288,NaN,elephant,bird,0,0288_pow_dnn_0_bird_35_n01855672_55167.png,n01855672_55167.png,0.0,3.1386456,3.6421783,-0.35605136
alexnet2023_baseline_pgd,1,289,NaN,bottle,bottle,0,0289_pow_dnn_0_bottle_35_n02823428_1149.png,n02823428_1149.png,1.0,8.219502,2.199796,4.2565756
alexnet2023_baseline_pgd,1,290,NaN,truck,truck,pow,0290_pow_dnn_pow_truck_35_n03417042_1182.png,n03417042_1182.png,1.0,3.5338268,2.9972432,0.37942195
alexnet2023_baseline_pgd,1,291,NaN,bear,bear,0,0291_pow_dnn_0_bear_35_n02134084_22051.png,n02134084_22051.png,1.0,10.596435,6.309407,3.0313861
alexnet2023_baseline_pgd,1,292,NaN,cat,cat,pow,0292_pow_dnn_pow_cat_35_n02123159_5170.png,n02123159_5170.png,1.0,3.2230587,3.095206,0.090405494
alexnet2023_baseline_pgd,1,293,NaN,airplane,airplane,pow,0293_pow_dnn_pow_airplane_35_n02690373_4042.png,n02690373_4042.png,1.0,7.689217,3.9915948,2.6146138
alexnet2023_baseline_pgd,1,294,NaN,airplane,airplane,pow,0294_pow_dnn_pow_airplane_35_n02690373_6231.png,n02690373_6231.png,1.0,7.107868,5.5399733,1.1086692
alexnet2023_baseline_pgd,1,295,NaN,bear,bear,0,0295_pow_dnn_0_bear_35_n02134418_4657.png,n02134418_4657.png,1.0,6.9483566,5.3933344,1.0995668
alexnet2023_baseline_pgd,1,296,NaN,boat,car,0,0296_pow_dnn_0_car_35_n03100240_24505.png,n03100240_24505.png,0.0,8.883958,8.934328,-0.03561712
alexnet2023_baseline_pgd,1,297,NaN,bird,bird,0,0297_pow_dnn_0_bird_35_n02006656_4031.png,n02006656_4031.png,1.0,8.523744,4.908549,2.5563288
alexnet2023_baseline_pgd,1,298,NaN,truck,truck,0,0298_pow_dnn_0_truck_35_n03796401_20861.png,n03796401_20861.png,1.0,11.054884,7.744037,2.3411222
alexnet2023_baseline_pgd,1,299,NaN,oven,truck,0,0299_pow_dnn_0_truck_35_n03417042_4934.png,n03417042_4934.png,0.0,5.3854485,5.9180336,-0.37659457
alexnet2023_baseline_pgd,1,300,NaN,bird,bird,0,0300_pow_dnn_0_bird_35_n01824575_3046.png,n01824575_3046.png,1.0,6.3659487,2.6928625,2.5972643
alexnet2023_baseline_pgd,1,301,NaN,elephant,elephant,pow,0301_pow_dnn_pow_elephant_35_n02504458_3463.png,n02504458_3463.png,1.0,5.581475,3.0493405,1.7904893
alexnet2023_baseline_pgd,1,302,NaN,airplane,airplane,0,0302_pow_dnn_0_airplane_35_n02690373_6914.png,n02690373_6914.png,1.0,15.215652,7.541752,5.426267
alexnet2023_baseline_pgd,1,303,NaN,bottle,bottle,0,0303_pow_dnn_0_bottle_35_n03983396_3675.png,n03983396_3675.png,1.0,6.6564536,1.8441564,3.4028082
alexnet2023_baseline_pgd,1,304,NaN,bear,dog,pow,0304_pow_dnn_pow_dog_35_n02088364_12272.png,n02088364_12272.png,0.0,4.028476,4.1056976,-0.05460377
alexnet2023_baseline_pgd,1,305,NaN,dog,dog,0,0305_pow_dnn_0_dog_35_n02085936_1706.png,n02085936_1706.png,1.0,8.040151,2.2314198,4.1073933
alexnet2023_baseline_pgd,1,306,NaN,bear,bear,0,0306_pow_dnn_0_bear_35_n02134084_18372.png,n02134084_18372.png,1.0,7.988115,7.8445272,0.10153176
alexnet2023_baseline_pgd,1,307,NaN,keyboard,keyboard,0,0307_pow_dnn_0_keyboard_35_n04505470_751.png,n04505470_751.png,1.0,14.099249,3.4412537,7.5363407
alexnet2023_baseline_pgd,1,308,NaN,elephant,bird,0,0308_pow_dnn_0_bird_35_n02018207_19525.png,n02018207_19525.png,0.0,4.9784184,6.908941,-1.3650855
alexnet2023_baseline_pgd,1,309,NaN,bear,bicycle,pow,0309_pow_dnn_pow_bicycle_35_n02835271_3329.png,n02835271_3329.png,0.0,2.6424465,4.5194044,-1.3272097
alexnet2023_baseline_pgd,1,310,NaN,cat,clock,pow,0310_pow_dnn_pow_clock_35_n04548280_1960.png,n04548280_1960.png,0.0,4.130863,5.3043575,-0.8297858
alexnet2023_baseline_pgd,1,311,NaN,airplane,chair,0,0311_pow_dnn_0_chair_35_n03376595_6240.png,n03376595_6240.png,0.0,8.270188,8.680921,-0.2904316
alexnet2023_baseline_pgd,1,312,NaN,elephant,knife,pow,0312_pow_dnn_pow_knife_35_n03041632_13194.png,n03041632_13194.png,0.0,2.611228,2.9901633,-0.26794776
alexnet2023_baseline_pgd,1,313,NaN,knife,knife,0,0313_pow_dnn_0_knife_35_n03041632_13465.png,n03041632_13465.png,1.0,7.5794406,2.8860223,3.318748
alexnet2023_baseline_pgd,1,314,NaN,bicycle,cat,pow,0314_pow_dnn_pow_cat_35_n02125311_10174.png,n02125311_10174.png,0.0,4.103083,4.2733364,-0.12038725
alexnet2023_baseline_pgd,1,315,NaN,oven,car,pow,0315_pow_dnn_pow_car_35_n02814533_7420.png,n02814533_7420.png,0.0,2.7076929,4.9430714,-1.5806513
alexnet2023_baseline_pgd,1,316,NaN,elephant,truck,pow,0316_pow_dnn_pow_truck_35_n04467665_3876.png,n04467665_3876.png,0.0,1.0586829,3.0276532,-1.3922722
alexnet2023_baseline_pgd,1,317,NaN,airplane,airplane,0,0317_pow_dnn_0_airplane_35_n02690373_12976.png,n02690373_12976.png,1.0,15.962527,11.006268,3.5046048
alexnet2023_baseline_pgd,1,318,NaN,bear,bear,pow,0318_pow_dnn_pow_bear_35_n02133161_10441.png,n02133161_10441.png,1.0,6.620467,4.0409017,1.8240283
alexnet2023_baseline_pgd,1,319,NaN,elephant,chair,pow,0319_pow_dnn_pow_chair_35_n03376595_13703.png,n03376595_13703.png,0.0,1.7580022,1.997735,-0.16951674
alexnet2023_baseline_pgd,1,320,NaN,bicycle,bicycle,pow,0320_pow_dnn_pow_bicycle_35_n03792782_11625.png,n03792782_11625.png,1.0,6.7880096,2.0025403,3.3838377
alexnet2023_baseline_pgd,1,321,NaN,bottle,oven,pow,0321_pow_dnn_pow_oven_35_n04111531_22797.png,n04111531_22797.png,0.0,1.8859053,3.1656249,-0.9048984
alexnet2023_baseline_pgd,1,322,NaN,bicycle,chair,pow,0322_pow_dnn_pow_chair_35_n03376595_9651.png,n03376595_9651.png,0.0,4.6273117,6.5202007,-1.3384746
alexnet2023_baseline_pgd,1,323,NaN,bicycle,bicycle,pow,0323_pow_dnn_pow_bicycle_35_n03792782_4830.png,n03792782_4830.png,1.0,4.883934,2.8186662,1.4603649
alexnet2023_baseline_pgd,1,324,NaN,elephant,elephant,pow,0324_pow_dnn_pow_elephant_35_n02504013_7191.png,n02504013_7191.png,1.0,3.8145802,3.3774247,0.30911562
alexnet2023_baseline_pgd,1,325,NaN,knife,knife,0,0325_pow_dnn_0_knife_35_n03041632_120.png,n03041632_120.png,1.0,16.311625,4.3462577,8.460792
alexnet2023_baseline_pgd,1,326,NaN,knife,airplane,pow,0326_pow_dnn_pow_airplane_35_n02690373_5465.png,n02690373_5465.png,0.0,2.3019414,4.7158103,-1.706863
alexnet2023_baseline_pgd,1,327,NaN,car,car,pow,0327_pow_dnn_pow_car_35_n04285008_8443.png,n04285008_8443.png,1.0,4.346358,2.8517747,1.0568299
alexnet2023_baseline_pgd,1,328,NaN,bottle,bottle,0,0328_pow_dnn_0_bottle_35_n04557648_132.png,n04557648_132.png,1.0,13.177333,1.8782734,7.989642
alexnet2023_baseline_pgd,1,329,NaN,airplane,airplane,pow,0329_pow_dnn_pow_airplane_35_n02690373_18304.png,n02690373_18304.png,1.0,9.271373,2.676269,4.6634426
alexnet2023_baseline_pgd,1,330,NaN,oven,knife,pow,0330_pow_dnn_pow_knife_35_n03041632_102764.png,n03041632_102764.png,0.0,4.558997,4.755312,-0.13881554
alexnet2023_baseline_pgd,1,331,NaN,bottle,chair,pow,0331_pow_dnn_pow_chair_35_n02791124_16913.png,n02791124_16913.png,0.0,3.3311934,4.290053,-0.678016
alexnet2023_baseline_pgd,1,332,NaN,bicycle,bicycle,pow,0332_pow_dnn_pow_bicycle_35_n02835271_324.png,n02835271_324.png,1.0,7.0894957,4.7531357,1.652056
alexnet2023_baseline_pgd,1,333,NaN,boat,airplane,pow,0333_pow_dnn_pow_airplane_35_n02690373_12966.png,n02690373_12966.png,0.0,4.520002,6.3062253,-1.2630507
alexnet2023_baseline_pgd,1,334,NaN,elephant,keyboard,pow,0334_pow_dnn_pow_keyboard_35_n03085013_24653.png,n03085013_24653.png,0.0,-3.868997,4.188188,-5.6972904
alexnet2023_baseline_pgd,1,335,NaN,bicycle,bicycle,0,0335_pow_dnn_0_bicycle_35_n03792782_18529.png,n03792782_18529.png,1.0,9.590336,2.9473414,4.6973066
alexnet2023_baseline_pgd,1,336,NaN,airplane,airplane,pow,0336_pow_dnn_pow_airplane_35_n02690373_2433.png,n02690373_2433.png,1.0,7.765228,5.268014,1.7657969
alexnet2023_baseline_pgd,1,337,NaN,elephant,cat,0,0337_pow_dnn_0_cat_35_n02125311_28447.png,n02125311_28447.png,0.0,5.074892,5.4336205,-0.2536593
alexnet2023_baseline_pgd,1,338,NaN,knife,knife,0,0338_pow_dnn_0_knife_35_n03041632_20504.png,n03041632_20504.png,1.0,13.302383,4.8813906,5.954541
alexnet2023_baseline_pgd,1,339,NaN,bear,bear,pow,0339_pow_dnn_pow_bear_35_n02132136_15870.png,n02132136_15870.png,1.0,3.3194213,2.9078138,0.29105046
alexnet2023_baseline_pgd,1,340,NaN,car,car,0,0340_pow_dnn_0_car_35_n02814533_11273.png,n02814533_11273.png,1.0,11.978057,10.037344,1.3722913
alexnet2023_baseline_pgd,1,341,NaN,elephant,elephant,0,0341_pow_dnn_0_elephant_35_n02504013_2476.png,n02504013_2476.png,1.0,15.058296,2.1244268,9.145627
alexnet2023_baseline_pgd,1,342,NaN,bear,bear,0,0342_pow_dnn_0_bear_35_n02133161_14945.png,n02133161_14945.png,1.0,4.522947,4.050612,0.3339912
alexnet2023_baseline_pgd,1,343,NaN,car,car,0,0343_pow_dnn_0_car_35_n04285008_7870.png,n04285008_7870.png,1.0,11.6589575,8.008229,2.5814548
alexnet2023_baseline_pgd,1,344,NaN,airplane,airplane,0,0344_pow_dnn_0_airplane_35_n02690373_10129.png,n02690373_10129.png,1.0,18.962069,9.1456785,6.941236
alexnet2023_baseline_pgd,1,345,NaN,elephant,truck,pow,0345_pow_dnn_pow_truck_35_n03417042_1479.png,n03417042_1479.png,0.0,2.000364,3.8889265,-1.3354154
alexnet2023_baseline_pgd,1,346,NaN,boat,boat,pow,0346_pow_dnn_pow_boat_35_n04612504_10662.png,n04612504_10662.png,1.0,4.5637026,2.4380877,1.5030367
alexnet2023_baseline_pgd,1,347,NaN,bird,bird,0,0347_pow_dnn_0_bird_35_n02056570_5891.png,n02056570_5891.png,1.0,4.9772773,3.992852,0.6960938
alexnet2023_baseline_pgd,1,348,NaN,elephant,elephant,pow,0348_pow_dnn_pow_elephant_35_n02504458_5982.png,n02504458_5982.png,1.0,7.1730204,4.842225,1.6481212
alexnet2023_baseline_pgd,1,349,NaN,truck,truck,pow,0349_pow_dnn_pow_truck_35_n03417042_19955.png,n03417042_19955.png,1.0,7.2317343,5.1318808,1.4848207
alexnet2023_baseline_pgd,1,350,NaN,oven,oven,0,0350_pow_dnn_0_oven_35_n04111531_6120.png,n04111531_6120.png,1.0,8.822012,3.2514718,3.938967
alexnet2023_baseline_pgd,1,351,NaN,oven,oven,0,0351_pow_dnn_0_oven_35_n04111531_4750.png,n04111531_4750.png,1.0,9.747634,3.2165775,4.6181545
alexnet2023_baseline_pgd,1,352,NaN,boat,boat,0,0352_pow_dnn_0_boat_35_n02951358_29779.png,n02951358_29779.png,1.0,9.056631,6.386469,1.8880898
alexnet2023_baseline_pgd,1,353,NaN,bear,bear,0,0353_pow_dnn_0_bear_35_n02134084_14168.png,n02134084_14168.png,1.0,4.3818192,2.5030098,1.3285189
alexnet2023_baseline_pgd,1,354,NaN,elephant,cat,0,0354_pow_dnn_0_cat_35_n02123597_6990.png,n02123597_6990.png,0.0,3.9443824,4.4158926,-0.33340806
alexnet2023_baseline_pgd,1,355,NaN,chair,chair,0,0355_pow_dnn_0_chair_35_n02791124_2008.png,n02791124_2008.png,1.0,11.962183,6.909859,3.5725324
alexnet2023_baseline_pgd,1,356,NaN,knife,car,pow,0356_pow_dnn_pow_car_35_n04285008_2185.png,n04285008_2185.png,0.0,0.48413947,3.971954,-2.4662573
alexnet2023_baseline_pgd,1,357,NaN,bear,bear,0,0357_pow_dnn_0_bear_35_n02134084_13205.png,n02134084_13205.png,1.0,7.351169,6.6228256,0.5150166
alexnet2023_baseline_pgd,1,358,NaN,bear,bird,pow,0358_pow_dnn_pow_bird_35_n01558993_6351.png,n01558993_6351.png,0.0,0.9835639,6.1477504,-3.6516314
alexnet2023_baseline_pgd,1,359,NaN,bicycle,bicycle,0,0359_pow_dnn_0_bicycle_35_n02835271_8017.png,n02835271_8017.png,1.0,7.5935764,4.195551,2.402767
alexnet2023_baseline_pgd,1,360,NaN,cat,cat,0,0360_pow_dnn_0_cat_35_n02124075_4189.png,n02124075_4189.png,1.0,10.885426,2.0126753,6.273982
alexnet2023_baseline_pgd,1,361,NaN,elephant,elephant,pow,0361_pow_dnn_pow_elephant_35_n02504458_3616.png,n02504458_3616.png,1.0,9.534958,4.9182405,3.2645123
alexnet2023_baseline_pgd,1,362,NaN,boat,boat,pow,0362_pow_dnn_pow_boat_35_n04612504_8636.png,n04612504_8636.png,1.0,5.892641,3.6941104,1.554596
alexnet2023_baseline_pgd,1,363,NaN,car,car,pow,0363_pow_dnn_pow_car_35_n03100240_10502.png,n03100240_10502.png,1.0,3.7601058,3.6540887,0.07496542
alexnet2023_baseline_pgd,1,364,NaN,bottle,bottle,0,0364_pow_dnn_0_bottle_35_n03983396_2271.png,n03983396_2271.png,1.0,7.426549,3.0824687,3.0717285
alexnet2023_baseline_pgd,1,365,NaN,clock,clock,0,0365_pow_dnn_0_clock_35_n04548280_280.png,n04548280_280.png,1.0,11.945905,4.1592436,5.506001
alexnet2023_baseline_pgd,1,366,NaN,airplane,truck,0,0366_pow_dnn_0_truck_35_n04467665_356.png,n04467665_356.png,0.0,6.3157077,13.414486,-5.019594
alexnet2023_baseline_pgd,1,367,NaN,airplane,airplane,0,0367_pow_dnn_0_airplane_35_n02690373_306.png,n02690373_306.png,1.0,15.61229,4.316219,7.9875293
alexnet2023_baseline_pgd,1,368,NaN,elephant,bird,pow,0368_pow_dnn_pow_bird_35_n02007558_11331.png,n02007558_11331.png,0.0,2.3870203,9.425497,-4.976955
alexnet2023_baseline_pgd,1,369,NaN,cat,dog,0,0369_pow_dnn_0_dog_35_n02105162_1003.png,n02105162_1003.png,0.0,5.3288436,5.577273,-0.17566605
alexnet2023_baseline_pgd,1,370,NaN,bear,bird,pow,0370_pow_dnn_pow_bird_35_n01534433_11695.png,n01534433_11695.png,0.0,1.853533,3.9959416,-1.5149117
alexnet2023_baseline_pgd,1,371,NaN,oven,oven,0,0371_pow_dnn_0_oven_35_n04111531_19631.png,n04111531_19631.png,1.0,12.826223,6.6485524,4.3682733
alexnet2023_baseline_pgd,1,372,NaN,elephant,elephant,pow,0372_pow_dnn_pow_elephant_35_n02504013_8534.png,n02504013_8534.png,1.0,6.8841343,3.459722,2.421425
alexnet2023_baseline_pgd,1,373,NaN,oven,oven,0,0373_pow_dnn_0_oven_35_n04111531_10436.png,n04111531_10436.png,1.0,11.082966,5.56553,3.9014165
alexnet2023_baseline_pgd,1,374,NaN,airplane,airplane,pow,0374_pow_dnn_pow_airplane_35_n02690373_1819.png,n02690373_1819.png,1.0,9.184966,4.8190203,3.08719
alexnet2023_baseline_pgd,1,375,NaN,knife,cat,0,0375_pow_dnn_0_cat_35_n02123597_14032.png,n02123597_14032.png,0.0,4.2210803,4.8776445,-0.46426103
alexnet2023_baseline_pgd,1,376,NaN,elephant,elephant,0,0376_pow_dnn_0_elephant_35_n02504013_10922.png,n02504013_10922.png,1.0,12.660156,2.985661,6.840902
alexnet2023_baseline_pgd,1,377,NaN,boat,boat,0,0377_pow_dnn_0_boat_35_n03662601_81.png,n03662601_81.png,1.0,5.9756684,4.9848347,0.7006253
alexnet2023_baseline_pgd,1,378,NaN,bottle,bottle,pow,0378_pow_dnn_pow_bottle_35_n03937543_11347.png,n03937543_11347.png,1.0,5.2490506,2.2998538,2.085397
alexnet2023_baseline_pgd,1,379,NaN,elephant,knife,pow,0379_pow_dnn_pow_knife_35_n03041632_85416.png,n03041632_85416.png,0.0,1.7190385,4.802575,-2.1803896
alexnet2023_baseline_pgd,1,380,NaN,car,car,pow,0380_pow_dnn_pow_car_35_n03100240_15676.png,n03100240_15676.png,1.0,7.644554,6.029559,1.141974
alexnet2023_baseline_pgd,1,381,NaN,oven,oven,0,0381_pow_dnn_0_oven_35_n04111531_4189.png,n04111531_4189.png,1.0,10.906833,4.692319,4.394325
alexnet2023_baseline_pgd,1,382,NaN,car,car,pow,0382_pow_dnn_pow_car_35_n02814533_65623.png,n02814533_65623.png,1.0,5.3403897,4.963409,0.26656568
alexnet2023_baseline_pgd,1,383,NaN,airplane,airplane,0,0383_pow_dnn_0_airplane_35_n02690373_4945.png,n02690373_4945.png,1.0,26.205873,5.242981,14.823004
alexnet2023_baseline_pgd,1,384,NaN,oven,dog,0,0384_pow_dnn_0_dog_35_n02088364_5801.png,n02088364_5801.png,0.0,3.759338,4.3880725,-0.4445825
alexnet2023_baseline_pgd,1,385,NaN,oven,dog,pow,0385_pow_dnn_pow_dog_35_n02108915_8164.png,n02108915_8164.png,0.0,0.6196609,4.224529,-2.5490265
alexnet2023_baseline_pgd,1,386,NaN,car,car,0,0386_pow_dnn_0_car_35_n03100240_1435.png,n03100240_1435.png,1.0,18.427639,10.783953,5.4049025
alexnet2023_baseline_pgd,1,387,NaN,chair,clock,0,0387_pow_dnn_0_clock_35_n03196217_412.png,n03196217_412.png,0.0,3.5268707,5.2170935,-1.195168
alexnet2023_baseline_pgd,1,388,NaN,bicycle,boat,pow,0388_pow_dnn_pow_boat_35_n03344393_6713.png,n03344393_6713.png,0.0,0.24350321,3.9384692,-2.6127355
alexnet2023_baseline_pgd,1,389,NaN,knife,knife,0,0389_pow_dnn_0_knife_35_n03041632_4305.png,n03041632_4305.png,1.0,6.3267784,4.0245447,1.627925
alexnet2023_baseline_pgd,1,390,NaN,bear,car,pow,0390_pow_dnn_pow_car_35_n04285008_10287.png,n04285008_10287.png,0.0,1.9167856,4.0704336,-1.5228591
alexnet2023_baseline_pgd,1,391,NaN,knife,car,pow,0391_pow_dnn_pow_car_35_n04285008_15071.png,n04285008_15071.png,0.0,3.9119484,5.8017178,-1.3362687
alexnet2023_baseline_pgd,1,392,NaN,chair,knife,pow,0392_pow_dnn_pow_knife_35_n03041632_22214.png,n03041632_22214.png,0.0,3.5999649,3.7346191,-0.095214956
alexnet2023_baseline_pgd,1,393,NaN,boat,boat,pow,0393_pow_dnn_pow_boat_35_n04612504_3064.png,n04612504_3064.png,1.0,3.9795272,2.1548245,1.2902597
alexnet2023_baseline_pgd,1,394,NaN,chair,chair,0,0394_pow_dnn_0_chair_35_n02791124_7193.png,n02791124_7193.png,1.0,11.095694,4.8028655,4.4497013
alexnet2023_baseline_pgd,1,395,NaN,boat,boat,0,0395_pow_dnn_0_boat_35_n03344393_5511.png,n03344393_5511.png,1.0,16.781307,7.046969,6.883217
alexnet2023_baseline_pgd,1,396,NaN,boat,boat,pow,0396_pow_dnn_pow_boat_35_n04273569_11997.png,n04273569_11997.png,1.0,6.5485954,2.3112586,2.99625
alexnet2023_baseline_pgd,1,397,NaN,bicycle,bicycle,0,0397_pow_dnn_0_bicycle_35_n03792782_1424.png,n03792782_1424.png,1.0,6.05747,3.5717707,1.7576548
alexnet2023_baseline_pgd,1,398,NaN,oven,clock,pow,0398_pow_dnn_pow_clock_35_n03196217_3362.png,n03196217_3362.png,0.0,-0.53856343,4.26562,-3.397071
alexnet2023_baseline_pgd,1,399,NaN,chair,truck,pow,0399_pow_dnn_pow_truck_35_n04467665_21942.png,n04467665_21942.png,0.0,1.366112,3.055494,-1.1945735
alexnet2023_baseline_pgd,1,400,NaN,oven,oven,0,0400_pow_dnn_0_oven_35_n04111531_6445.png,n04111531_6445.png,1.0,7.0037494,6.0780697,0.65455437
alexnet2023_baseline_pgd,1,401,NaN,chair,chair,0,0401_pow_dnn_0_chair_35_n04099969_1163.png,n04099969_1163.png,1.0,11.989037,2.4914787,6.7157874
alexnet2023_baseline_pgd,1,402,NaN,clock,clock,pow,0402_pow_dnn_pow_clock_35_n02708093_3645.png,n02708093_3645.png,1.0,7.842648,3.7742152,2.8768165
alexnet2023_baseline_pgd,1,403,NaN,bicycle,bicycle,0,0403_pow_dnn_0_bicycle_35_n03792782_68319.png,n03792782_68319.png,1.0,13.526124,2.6747675,7.673068
alexnet2023_baseline_pgd,1,404,NaN,elephant,dog,pow,0404_pow_dnn_pow_dog_35_n02111129_513.png,n02111129_513.png,0.0,2.8116133,7.9189434,-3.611428
alexnet2023_baseline_pgd,1,405,NaN,airplane,airplane,pow,0405_pow_dnn_pow_airplane_35_n02690373_2676.png,n02690373_2676.png,1.0,9.581379,9.395206,0.13164383
alexnet2023_baseline_pgd,1,406,NaN,airplane,airplane,0,0406_pow_dnn_0_airplane_35_n02690373_1206.png,n02690373_1206.png,1.0,10.989554,4.592178,4.523628
alexnet2023_baseline_pgd,1,407,NaN,dog,dog,0,0407_pow_dnn_0_dog_35_n02100735_1445.png,n02100735_1445.png,1.0,12.31175,4.2818303,5.6780114
alexnet2023_baseline_pgd,1,408,NaN,bicycle,dog,pow,0408_pow_dnn_pow_dog_35_n02102040_312.png,n02102040_312.png,0.0,0.9088995,2.888522,-1.3998045
alexnet2023_baseline_pgd,1,409,NaN,keyboard,keyboard,0,0409_pow_dnn_0_keyboard_35_n03085013_22996.png,n03085013_22996.png,1.0,17.902441,5.199269,8.9825
alexnet2023_baseline_pgd,1,410,NaN,boat,boat,0,0410_pow_dnn_0_boat_35_n04612504_434.png,n04612504_434.png,1.0,9.980229,8.823533,0.8179078
alexnet2023_baseline_pgd,1,411,NaN,cat,cat,0,0411_pow_dnn_0_cat_35_n02123597_14639.png,n02123597_14639.png,1.0,8.145949,5.767499,1.6818185
alexnet2023_baseline_pgd,1,412,NaN,cat,cat,pow,0412_pow_dnn_pow_cat_35_n02123159_2043.png,n02123159_2043.png,1.0,6.2490525,3.2362819,2.1303506
alexnet2023_baseline_pgd,1,413,NaN,oven,clock,pow,0413_pow_dnn_pow_clock_35_n03196217_3647.png,n03196217_3647.png,0.0,1.752172,5.83986,-2.890432
alexnet2023_baseline_pgd,1,414,NaN,oven,oven,0,0414_pow_dnn_0_oven_35_n04111531_19795.png,n04111531_19795.png,1.0,8.259563,4.183326,2.8823354
alexnet2023_baseline_pgd,1,415,NaN,bear,truck,pow,0415_pow_dnn_pow_truck_35_n03417042_18625.png,n03417042_18625.png,0.0,-0.7410891,4.8352013,-3.9430327
alexnet2023_baseline_pgd,1,416,NaN,elephant,elephant,pow,0416_pow_dnn_pow_elephant_35_n02504013_1763.png,n02504013_1763.png,1.0,7.9925747,3.3962772,3.250073
alexnet2023_baseline_pgd,1,417,NaN,chair,chair,0,0417_pow_dnn_0_chair_35_n04099969_13105.png,n04099969_13105.png,1.0,10.2185545,3.282977,4.904194
alexnet2023_baseline_pgd,1,418,NaN,elephant,bicycle,pow,0418_pow_dnn_pow_bicycle_35_n03792782_4931.png,n03792782_4931.png,0.0,2.5059412,2.5177617,-0.008358395
alexnet2023_baseline_pgd,1,419,NaN,bear,bear,0,0419_pow_dnn_0_bear_35_n02134418_4513.png,n02134418_4513.png,1.0,7.3842688,5.344287,1.442485
alexnet2023_baseline_pgd,1,420,NaN,cat,cat,pow,0420_pow_dnn_pow_cat_35_n02123045_11224.png,n02123045_11224.png,1.0,9.658671,1.7126726,5.6186695
alexnet2023_baseline_pgd,1,421,NaN,chair,chair,0,0421_pow_dnn_0_chair_35_n02791124_359.png,n02791124_359.png,1.0,6.0955443,4.5366983,1.1022706
alexnet2023_baseline_pgd,1,422,NaN,knife,clock,pow,0422_pow_dnn_pow_clock_35_n04548280_2654.png,n04548280_2654.png,0.0,1.5953802,8.507459,-4.8875775
alexnet2023_baseline_pgd,1,423,NaN,bear,cat,pow,0423_pow_dnn_pow_cat_35_n02123394_4713.png,n02123394_4713.png,0.0,2.3997772,3.4454684,-0.7394154
alexnet2023_baseline_pgd,1,424,NaN,boat,bottle,pow,0424_pow_dnn_pow_bottle_35_n04557648_94.png,n04557648_94.png,0.0,2.5585802,4.3582635,-1.2725683
alexnet2023_baseline_pgd,1,425,NaN,chair,chair,0,0425_pow_dnn_0_chair_35_n04099969_15676.png,n04099969_15676.png,1.0,10.882773,4.722238,4.3561563
alexnet2023_baseline_pgd,1,426,NaN,knife,boat,pow,0426_pow_dnn_pow_boat_35_n02951358_537.png,n02951358_537.png,0.0,1.7084124,4.856513,-2.2260432
alexnet2023_baseline_pgd,1,427,NaN,clock,clock,0,0427_pow_dnn_0_clock_35_n03196217_1376.png,n03196217_1376.png,1.0,8.831827,5.806717,2.139076
alexnet2023_baseline_pgd,1,428,NaN,chair,chair,pow,0428_pow_dnn_pow_chair_35_n02791124_1594.png,n02791124_1594.png,1.0,3.6177645,3.5671828,0.035766657
alexnet2023_baseline_pgd,1,429,NaN,oven,bird,0,0429_pow_dnn_0_bird_35_n02007558_7112.png,n02007558_7112.png,0.0,2.361159,8.868127,-4.601121
alexnet2023_baseline_pgd,1,430,NaN,bicycle,bicycle,0,0430_pow_dnn_0_bicycle_35_n02835271_6094.png,n02835271_6094.png,1.0,13.842136,2.2773678,8.177526
alexnet2023_baseline_pgd,1,431,NaN,airplane,airplane,pow,0431_pow_dnn_pow_airplane_35_n02690373_7676.png,n02690373_7676.png,1.0,6.014829,3.2003284,1.9901526
alexnet2023_baseline_pgd,1,432,NaN,cat,cat,pow,0432_pow_dnn_pow_cat_35_n02123045_3375.png,n02123045_3375.png,1.0,5.3887825,3.4793062,1.3502036
alexnet2023_baseline_pgd,1,433,NaN,bicycle,bicycle,0,0433_pow_dnn_0_bicycle_35_n02835271_15617.png,n02835271_15617.png,1.0,14.725502,4.401285,7.300324
alexnet2023_baseline_pgd,1,434,NaN,bottle,oven,pow,0434_pow_dnn_pow_oven_35_n04111531_4904.png,n04111531_4904.png,0.0,0.5719861,4.244838,-2.5970986
alexnet2023_baseline_pgd,1,435,NaN,boat,boat,0,0435_pow_dnn_0_boat_35_n02951358_5718.png,n02951358_5718.png,1.0,11.175745,4.7888875,4.5161905
alexnet2023_baseline_pgd,1,436,NaN,elephant,elephant,pow,0436_pow_dnn_pow_elephant_35_n02504013_7467.png,n02504013_7467.png,1.0,5.875497,3.9588418,1.3552798
alexnet2023_baseline_pgd,1,437,NaN,elephant,elephant,pow,0437_pow_dnn_pow_elephant_35_n02504013_1830.png,n02504013_1830.png,1.0,17.997631,6.7568283,7.948448
alexnet2023_baseline_pgd,1,438,NaN,truck,car,0,0438_pow_dnn_0_car_35_n02814533_59762.png,n02814533_59762.png,0.0,5.2713666,5.6474,-0.2658957
alexnet2023_baseline_pgd,1,439,NaN,oven,bicycle,pow,0439_pow_dnn_pow_bicycle_35_n02835271_771.png,n02835271_771.png,0.0,2.9739947,6.3010955,-2.3526156
alexnet2023_baseline_pgd,1,440,NaN,bicycle,bicycle,pow,0440_pow_dnn_pow_bicycle_35_n02835271_4313.png,n02835271_4313.png,1.0,4.596312,2.1959565,1.6973077
alexnet2023_baseline_pgd,1,441,NaN,bear,bear,0,0441_pow_dnn_0_bear_35_n02132136_891.png,n02132136_891.png,1.0,16.436272,12.327152,2.9055862
alexnet2023_baseline_pgd,1,442,NaN,bear,bear,pow,0442_pow_dnn_pow_bear_35_n02132136_18276.png,n02132136_18276.png,1.0,4.7267838,3.4288464,0.91778034
alexnet2023_baseline_pgd,1,443,NaN,elephant,elephant,pow,0443_pow_dnn_pow_elephant_35_n02504013_2865.png,n02504013_2865.png,1.0,10.356307,3.803396,4.633608
alexnet2023_baseline_pgd,1,444,NaN,boat,boat,0,0444_pow_dnn_0_boat_35_n03662601_10120.png,n03662601_10120.png,1.0,12.051363,4.6074185,5.263664
alexnet2023_baseline_pgd,1,445,NaN,bottle,bottle,pow,0445_pow_dnn_pow_bottle_35_n03983396_4241.png,n03983396_4241.png,1.0,4.293603,3.7688098,0.3710848
alexnet2023_baseline_pgd,1,446,NaN,elephant,elephant,pow,0446_pow_dnn_pow_elephant_35_n02504458_8254.png,n02504458_8254.png,1.0,4.290917,2.3288498,1.387391
alexnet2023_baseline_pgd,1,447,NaN,elephant,boat,pow,0447_pow_dnn_pow_boat_35_n04612504_857.png,n04612504_857.png,0.0,0.31763703,3.601139,-2.3217866
alexnet2023_baseline_pgd,1,448,NaN,elephant,car,pow,0448_pow_dnn_pow_car_35_n04285008_6037.png,n04285008_6037.png,0.0,2.845885,5.2286444,-1.6848654
alexnet2023_baseline_pgd,1,449,NaN,elephant,elephant,pow,0449_pow_dnn_pow_elephant_35_n02504458_2888.png,n02504458_2888.png,1.0,12.770764,6.384263,4.5159383
alexnet2023_baseline_pgd,1,450,NaN,elephant,elephant,0,0450_pow_dnn_0_elephant_35_n02504013_6257.png,n02504013_6257.png,1.0,14.5898695,7.069029,5.3180375
alexnet2023_baseline_pgd,1,451,NaN,car,car,0,0451_pow_dnn_0_car_35_n04285008_8616.png,n04285008_8616.png,1.0,21.68673,14.719599,4.9265056
alexnet2023_baseline_pgd,1,452,NaN,bird,bird,0,0452_pow_dnn_0_bird_35_n01537544_5372.png,n01537544_5372.png,1.0,7.931073,4.4458256,2.4644423
alexnet2023_baseline_pgd,1,453,NaN,bird,airplane,pow,0453_pow_dnn_pow_airplane_35_n02690373_2498.png,n02690373_2498.png,0.0,6.3168964,6.584942,-0.18953674
alexnet2023_baseline_pgd,1,454,NaN,dog,dog,0,0454_pow_dnn_0_dog_35_n02099601_2980.png,n02099601_2980.png,1.0,5.5436764,3.231842,1.6347138
alexnet2023_baseline_pgd,1,455,NaN,oven,keyboard,pow,0455_pow_dnn_pow_keyboard_35_n04505470_1904.png,n04505470_1904.png,0.0,-1.5761573,4.015529,-3.9539194
alexnet2023_baseline_pgd,1,456,NaN,airplane,airplane,0,0456_pow_dnn_0_airplane_35_n02690373_2967.png,n02690373_2967.png,1.0,13.006631,7.6657534,3.7765708
alexnet2023_baseline_pgd,1,457,NaN,car,car,0,0457_pow_dnn_0_car_35_n04285008_7508.png,n04285008_7508.png,1.0,18.0707,12.400518,4.0094237
alexnet2023_baseline_pgd,1,458,NaN,bird,bird,0,0458_pow_dnn_0_bird_35_n02051845_6652.png,n02051845_6652.png,1.0,8.395669,5.4869776,2.0567555
alexnet2023_baseline_pgd,1,459,NaN,bicycle,truck,pow,0459_pow_dnn_pow_truck_35_n03796401_6737.png,n03796401_6737.png,0.0,1.6904037,3.7318149,-1.4434958
alexnet2023_baseline_pgd,1,460,NaN,bottle,bottle,pow,0460_pow_dnn_pow_bottle_35_n03937543_2177.png,n03937543_2177.png,1.0,3.5595186,3.0720825,0.34466934
alexnet2023_baseline_pgd,1,461,NaN,knife,keyboard,pow,0461_pow_dnn_pow_keyboard_35_n03085013_6432.png,n03085013_6432.png,0.0,-1.4131862,5.7281528,-5.0496893
alexnet2023_baseline_pgd,1,462,NaN,bird,bird,0,0462_pow_dnn_0_bird_35_n01530575_10212.png,n01530575_10212.png,1.0,6.91913,2.6957612,2.9863727
alexnet2023_baseline_pgd,1,463,NaN,bear,boat,pow,0463_pow_dnn_pow_boat_35_n04273569_31649.png,n04273569_31649.png,0.0,1.1926903,4.344531,-2.228688
alexnet2023_baseline_pgd,1,464,NaN,keyboard,keyboard,0,0464_pow_dnn_0_keyboard_35_n04505470_2869.png,n04505470_2869.png,1.0,19.183313,2.9593475,11.472077
alexnet2023_baseline_pgd,1,465,NaN,oven,oven,0,0465_pow_dnn_0_oven_35_n04111531_5110.png,n04111531_5110.png,1.0,9.790328,2.117329,5.42563
alexnet2023_baseline_pgd,1,466,NaN,bottle,bottle,pow,0466_pow_dnn_pow_bottle_35_n04579145_4389.png,n04579145_4389.png,1.0,5.7869735,2.6421611,2.2237182
alexnet2023_baseline_pgd,1,467,NaN,bottle,bottle,0,0467_pow_dnn_0_bottle_35_n04557648_9310.png,n04557648_9310.png,1.0,7.1665773,4.053019,2.2016182
alexnet2023_baseline_pgd,1,468,NaN,oven,dog,pow,0468_pow_dnn_pow_dog_35_n02108000_6061.png,n02108000_6061.png,0.0,2.086502,4.4823565,-1.6941249
alexnet2023_baseline_pgd,1,469,NaN,bear,knife,pow,0469_pow_dnn_pow_knife_35_n03041632_84240.png,n03041632_84240.png,0.0,0.9750548,3.8034415,-1.9999715
alexnet2023_baseline_pgd,1,470,NaN,bicycle,cat,pow,0470_pow_dnn_pow_cat_35_n02123394_3718.png,n02123394_3718.png,0.0,0.20732217,2.7495189,-1.7976046
alexnet2023_baseline_pgd,1,471,NaN,bear,dog,pow,0471_pow_dnn_pow_dog_35_n02098105_2157.png,n02098105_2157.png,0.0,1.1697651,3.5592735,-1.6896375
alexnet2023_baseline_pgd,1,472,NaN,clock,clock,0,0472_pow_dnn_0_clock_35_n04548280_2601.png,n04548280_2601.png,1.0,10.141869,3.7537444,4.517086
alexnet2023_baseline_pgd,1,473,NaN,bear,cat,0,0473_pow_dnn_0_cat_35_n02123394_4286.png,n02123394_4286.png,0.0,3.8310766,6.801635,-2.1005018
alexnet2023_baseline_pgd,1,474,NaN,bottle,bottle,0,0474_pow_dnn_0_bottle_35_n02823428_4569.png,n02823428_4569.png,1.0,13.93949,4.270782,6.8368096
alexnet2023_baseline_pgd,1,475,NaN,bear,bird,pow,0475_pow_dnn_pow_bird_35_n02017213_15747.png,n02017213_15747.png,0.0,1.1438905,5.022212,-2.7423875
alexnet2023_baseline_pgd,1,476,NaN,bicycle,bicycle,0,0476_pow_dnn_0_bicycle_35_n03792782_11390.png,n03792782_11390.png,1.0,6.679494,4.4269853,1.5927641
alexnet2023_baseline_pgd,1,477,NaN,car,car,0,0477_pow_dnn_0_car_35_n02814533_4374.png,n02814533_4374.png,1.0,19.48089,11.633631,5.5488505
alexnet2023_baseline_pgd,1,478,NaN,keyboard,keyboard,0,0478_pow_dnn_0_keyboard_35_n04505470_5137.png,n04505470_5137.png,1.0,12.271681,5.8986483,4.5064144
alexnet2023_baseline_pgd,1,479,NaN,elephant,elephant,0,0479_pow_dnn_0_elephant_35_n02504013_306.png,n02504013_306.png,1.0,17.379452,6.3882217,7.7719736
alexnet2023_baseline_pgd,1,480,NaN,dog,boat,0,0480_pow_dnn_0_boat_35_n02951358_14624.png,n02951358_14624.png,0.0,3.0051455,4.226488,-0.8636196
alexnet2023_baseline_pgd,1,481,NaN,bear,cat,pow,0481_pow_dnn_pow_cat_35_n02125311_28114.png,n02125311_28114.png,0.0,1.3865887,2.0601392,-0.47627214
alexnet2023_baseline_pgd,1,482,NaN,car,car,pow,0482_pow_dnn_pow_car_35_n03100240_6259.png,n03100240_6259.png,1.0,8.46688,6.414042,1.4515756
alexnet2023_baseline_pgd,1,483,NaN,elephant,cat,pow,0483_pow_dnn_pow_cat_35_n02125311_12361.png,n02125311_12361.png,0.0,2.8385317,5.288195,-1.7321737
alexnet2023_baseline_pgd,1,484,NaN,bird,bird,0,0484_pow_dnn_0_bird_35_n01833805_16468.png,n01833805_16468.png,1.0,3.0943274,0.7070716,1.6880449
alexnet2023_baseline_pgd,1,485,NaN,bear,dog,pow,0485_pow_dnn_pow_dog_35_n02110063_6748.png,n02110063_6748.png,0.0,0.7414827,2.304124,-1.1049544
alexnet2023_baseline_pgd,1,486,NaN,bear,clock,pow,0486_pow_dnn_pow_clock_35_n04548280_2943.png,n04548280_2943.png,0.0,1.9813515,2.6494224,-0.47239748
alexnet2023_baseline_pgd,1,487,NaN,bear,chair,pow,0487_pow_dnn_pow_chair_35_n03376595_14619.png,n03376595_14619.png,0.0,-0.1835829,2.8876987,-2.171724
alexnet2023_baseline_pgd,1,488,NaN,car,car,0,0488_pow_dnn_0_car_35_n03100240_5719.png,n03100240_5719.png,1.0,21.614182,16.293953,3.7619698
alexnet2023_baseline_pgd,1,489,NaN,dog,dog,0,0489_pow_dnn_0_dog_35_n02093754_4677.png,n02093754_4677.png,1.0,6.655527,3.2921507,2.3782663
alexnet2023_baseline_pgd,1,490,NaN,boat,boat,pow,0490_pow_dnn_pow_boat_35_n04273569_113.png,n04273569_113.png,1.0,5.2491035,4.9150286,0.23622668
alexnet2023_baseline_pgd,1,491,NaN,clock,clock,pow,0491_pow_dnn_pow_clock_35_n02708093_148.png,n02708093_148.png,1.0,5.7648087,4.246601,1.0735348
alexnet2023_baseline_pgd,1,492,NaN,elephant,cat,0,0492_pow_dnn_0_cat_35_n02125311_53223.png,n02125311_53223.png,0.0,7.3240814,7.386956,-0.044459194
alexnet2023_baseline_pgd,1,493,NaN,bottle,knife,0,0493_pow_dnn_0_knife_35_n03041632_7982.png,n03041632_7982.png,0.0,2.7889693,3.4010875,-0.43283296
alexnet2023_baseline_pgd,1,494,NaN,elephant,elephant,0,0494_pow_dnn_0_elephant_35_n02504013_7273.png,n02504013_7273.png,1.0,13.824804,5.874794,5.621506
alexnet2023_baseline_pgd,1,495,NaN,oven,truck,pow,0495_pow_dnn_pow_truck_35_n03417042_26102.png,n03417042_26102.png,0.0,2.0253344,4.3109756,-1.6161925
alexnet2023_baseline_pgd,1,496,NaN,car,car,pow,0496_pow_dnn_pow_car_35_n02814533_874.png,n02814533_874.png,1.0,6.750881,5.17714,1.112803
alexnet2023_baseline_pgd,1,497,NaN,bicycle,bicycle,0,0497_pow_dnn_0_bicycle_35_n03792782_21148.png,n03792782_21148.png,1.0,11.126189,4.2209187,4.882764
alexnet2023_baseline_pgd,1,498,NaN,oven,oven,pow,0498_pow_dnn_pow_oven_35_n04111531_4146.png,n04111531_4146.png,1.0,5.3405232,3.7743337,1.1074632
alexnet2023_baseline_pgd,1,499,NaN,clock,keyboard,pow,0499_pow_dnn_pow_keyboard_35_n03085013_21183.png,n03085013_21183.png,0.0,4.017873,5.512272,-1.0566998
alexnet2023_baseline_pgd,1,500,NaN,boat,boat,0,0500_pow_dnn_0_boat_35_n04612504_19147.png,n04612504_19147.png,1.0,8.275885,3.3440862,3.4873083
alexnet2023_baseline_pgd,1,501,NaN,elephant,bear,0,0501_pow_dnn_0_bear_35_n02133161_2044.png,n02133161_2044.png,0.0,10.209614,12.246,-1.4399427
alexnet2023_baseline_pgd,1,502,NaN,bottle,bottle,pow,0502_pow_dnn_pow_bottle_35_n04579145_3894.png,n04579145_3894.png,1.0,5.928212,3.3842502,1.7988528
alexnet2023_baseline_pgd,1,503,NaN,bicycle,bicycle,0,0503_pow_dnn_0_bicycle_35_n03792782_13399.png,n03792782_13399.png,1.0,13.047865,3.2823174,6.9052854
alexnet2023_baseline_pgd,1,504,NaN,bear,knife,pow,0504_pow_dnn_pow_knife_35_n03041632_21818.png,n03041632_21818.png,0.0,1.8775036,6.4584823,-3.239241
alexnet2023_baseline_pgd,1,505,NaN,chair,chair,0,0505_pow_dnn_0_chair_35_n03376595_7010.png,n03376595_7010.png,1.0,10.031375,3.9610305,4.292382
alexnet2023_baseline_pgd,1,506,NaN,oven,oven,0,0506_pow_dnn_0_oven_35_n04111531_4.png,n04111531_4.png,1.0,6.375801,4.302159,1.4662865
alexnet2023_baseline_pgd,1,507,NaN,elephant,bird,pow,0507_pow_dnn_pow_bird_35_n01820546_6471.png,n01820546_6471.png,0.0,0.3446066,4.7211304,-3.0946698
alexnet2023_baseline_pgd,1,508,NaN,bear,bear,pow,0508_pow_dnn_pow_bear_35_n02132136_10352.png,n02132136_10352.png,1.0,7.328066,3.4363484,2.75186
alexnet2023_baseline_pgd,1,509,NaN,clock,clock,pow,0509_pow_dnn_pow_clock_35_n04548280_8348.png,n04548280_8348.png,1.0,7.21595,6.3464084,0.6148588
alexnet2023_baseline_pgd,1,510,NaN,elephant,elephant,0,0510_pow_dnn_0_elephant_35_n02504013_5087.png,n02504013_5087.png,1.0,15.65327,4.914063,7.5937657
alexnet2023_baseline_pgd,1,511,NaN,airplane,airplane,pow,0511_pow_dnn_pow_airplane_35_n02690373_60.png,n02690373_60.png,1.0,8.789472,7.955518,0.58969444
alexnet2023_baseline_pgd,1,512,NaN,bottle,chair,pow,0512_pow_dnn_pow_chair_35_n02791124_16085.png,n02791124_16085.png,0.0,2.6951954,4.4412904,-1.2346756
alexnet2023_baseline_pgd,1,513,NaN,bottle,bottle,0,0513_pow_dnn_0_bottle_35_n02823428_3611.png,n02823428_3611.png,1.0,8.01467,5.831231,1.5439247
alexnet2023_baseline_pgd,1,514,NaN,bear,bird,pow,0514_pow_dnn_pow_bird_35_n01614925_8653.png,n01614925_8653.png,0.0,2.7170641,7.4258766,-3.3296335
alexnet2023_baseline_pgd,1,515,NaN,bird,bird,pow,0515_pow_dnn_pow_bird_35_n01537544_9881.png,n01537544_9881.png,1.0,4.124774,3.9657958,0.11241458
alexnet2023_baseline_pgd,1,516,NaN,knife,knife,0,0516_pow_dnn_0_knife_35_n03041632_35365.png,n03041632_35365.png,1.0,9.135864,4.8340583,3.0418363
alexnet2023_baseline_pgd,1,517,NaN,bear,bear,0,0517_pow_dnn_0_bear_35_n02132136_23202.png,n02132136_23202.png,1.0,7.839862,6.5908813,0.8831626
alexnet2023_baseline_pgd,1,518,NaN,oven,oven,0,0518_pow_dnn_0_oven_35_n04111531_3976.png,n04111531_3976.png,1.0,11.110747,3.1567519,5.6243243
alexnet2023_baseline_pgd,1,519,NaN,elephant,chair,pow,0519_pow_dnn_pow_chair_35_n04429376_32124.png,n04429376_32124.png,0.0,2.7335215,3.556563,-0.5819782
alexnet2023_baseline_pgd,1,520,NaN,bear,bear,pow,0520_pow_dnn_pow_bear_35_n02134418_848.png,n02134418_848.png,1.0,2.9551115,2.3117268,0.4549417
alexnet2023_baseline_pgd,1,521,NaN,boat,boat,0,0521_pow_dnn_0_boat_35_n03344393_7374.png,n03344393_7374.png,1.0,9.62627,5.0684323,3.2228782
alexnet2023_baseline_pgd,1,522,NaN,oven,bird,pow,0522_pow_dnn_pow_bird_35_n01532829_3914.png,n01532829_3914.png,0.0,0.52393377,3.1901722,-1.8853152
alexnet2023_baseline_pgd,1,523,NaN,keyboard,keyboard,0,0523_pow_dnn_0_keyboard_35_n04505470_5902.png,n04505470_5902.png,1.0,16.667858,3.9640524,8.982947
alexnet2023_baseline_pgd,1,524,NaN,bear,truck,pow,0524_pow_dnn_pow_truck_35_n03417042_11165.png,n03417042_11165.png,0.0,-0.6208601,2.9069443,-2.4945345
alexnet2023_baseline_pgd,1,525,NaN,clock,clock,0,0525_pow_dnn_0_clock_35_n02708093_5.png,n02708093_5.png,1.0,4.660606,4.187005,0.3348864
alexnet2023_baseline_pgd,1,526,NaN,elephant,elephant,pow,0526_pow_dnn_pow_elephant_35_n02504458_4187.png,n02504458_4187.png,1.0,6.990638,3.042143,2.7920074
alexnet2023_baseline_pgd,1,527,NaN,knife,knife,0,0527_pow_dnn_0_knife_35_n03041632_10802.png,n03041632_10802.png,1.0,17.383913,4.048439,9.429605
alexnet2023_baseline_pgd,1,528,NaN,car,car,0,0528_pow_dnn_0_car_35_n04285008_16647.png,n04285008_16647.png,1.0,14.695285,9.131898,3.9339087
alexnet2023_baseline_pgd,1,529,NaN,cat,dog,0,0529_pow_dnn_0_dog_35_n02104365_3004.png,n02104365_3004.png,0.0,5.641441,7.9066124,-1.6017182
alexnet2023_baseline_pgd,1,530,NaN,elephant,elephant,pow,0530_pow_dnn_pow_elephant_35_n02504013_21616.png,n02504013_21616.png,1.0,8.724842,3.6338568,3.5998702
alexnet2023_baseline_pgd,1,531,NaN,keyboard,keyboard,0,0531_pow_dnn_0_keyboard_35_n03085013_23465.png,n03085013_23465.png,1.0,11.046795,8.400492,1.8712189
alexnet2023_baseline_pgd,1,532,NaN,boat,airplane,pow,0532_pow_dnn_pow_airplane_35_n02690373_911.png,n02690373_911.png,0.0,3.0420294,4.4482865,-0.994374
alexnet2023_baseline_pgd,1,533,NaN,elephant,elephant,0,0533_pow_dnn_0_elephant_35_n02504013_1454.png,n02504013_1454.png,1.0,21.198652,4.2988706,11.949951
alexnet2023_baseline_pgd,1,534,NaN,bicycle,bicycle,0,0534_pow_dnn_0_bicycle_35_n03792782_70690.png,n03792782_70690.png,1.0,14.008625,3.0447369,7.75264
alexnet2023_baseline_pgd,1,535,NaN,truck,chair,0,0535_pow_dnn_0_chair_35_n04429376_31206.png,n04429376_31206.png,0.0,7.316045,7.6152678,-0.21158257
alexnet2023_baseline_pgd,1,536,NaN,clock,clock,0,0536_pow_dnn_0_clock_35_n02708093_2498.png,n02708093_2498.png,1.0,6.056703,2.0561078,2.828848
alexnet2023_baseline_pgd,1,537,NaN,keyboard,keyboard,0,0537_pow_dnn_0_keyboard_35_n04505470_1728.png,n04505470_1728.png,1.0,12.41129,6.4856396,4.190068
alexnet2023_baseline_pgd,1,538,NaN,bicycle,truck,pow,0538_pow_dnn_pow_truck_35_n03417042_6608.png,n03417042_6608.png,0.0,1.0139914,5.091549,-2.8832686
alexnet2023_baseline_pgd,1,539,NaN,bird,bird,0,0539_pow_dnn_0_bird_35_n02013706_1016.png,n02013706_1016.png,1.0,5.78306,5.1512675,0.4467448
alexnet2023_baseline_pgd,1,540,NaN,clock,clock,0,0540_pow_dnn_0_clock_35_n04548280_5011.png,n04548280_5011.png,1.0,8.655782,5.1076145,2.508933
alexnet2023_baseline_pgd,1,541,NaN,bicycle,bicycle,0,0541_pow_dnn_0_bicycle_35_n02835271_19557.png,n02835271_19557.png,1.0,12.051249,1.5762427,7.406948
alexnet2023_baseline_pgd,1,542,NaN,bear,bear,pow,0542_pow_dnn_pow_bear_35_n02134084_5827.png,n02134084_5827.png,1.0,8.18636,7.8953357,0.20578553
alexnet2023_baseline_pgd,1,543,NaN,elephant,dog,pow,0543_pow_dnn_pow_dog_35_n02096585_1894.png,n02096585_1894.png,0.0,-0.15906328,5.9848948,-4.3444347
alexnet2023_baseline_pgd,1,544,NaN,boat,boat,pow,0544_pow_dnn_pow_boat_35_n02951358_34234.png,n02951358_34234.png,1.0,5.182943,4.9308853,0.17823161
alexnet2023_baseline_pgd,1,545,NaN,elephant,cat,pow,0545_pow_dnn_pow_cat_35_n02123597_5514.png,n02123597_5514.png,0.0,4.5662055,5.7655225,-0.8480452
alexnet2023_baseline_pgd,1,546,NaN,oven,oven,pow,0546_pow_dnn_pow_oven_35_n04111531_3580.png,n04111531_3580.png,1.0,3.8784986,2.354804,1.0774148
alexnet2023_baseline_pgd,1,547,NaN,airplane,airplane,0,0547_pow_dnn_0_airplane_35_n02690373_7107.png,n02690373_7107.png,1.0,15.27706,6.2962794,6.3503704
alexnet2023_baseline_pgd,1,548,NaN,clock,cat,0,0548_pow_dnn_0_cat_35_n02123159_5224.png,n02123159_5224.png,0.0,0.035477597,2.8776996,-2.0097544
alexnet2023_baseline_pgd,1,549,NaN,bear,bear,pow,0549_pow_dnn_pow_bear_35_n02133161_6679.png,n02133161_6679.png,1.0,6.114167,5.83174,0.19970627
alexnet2023_baseline_pgd,1,550,NaN,dog,dog,0,0550_pow_dnn_0_dog_35_n02106030_22.png,n02106030_22.png,1.0,4.9796515,3.0250962,1.3820794
alexnet2023_baseline_pgd,1,551,NaN,truck,truck,0,0551_pow_dnn_0_truck_35_n03417042_4574.png,n03417042_4574.png,1.0,12.917799,11.085238,1.2958161
alexnet2023_baseline_pgd,1,552,NaN,bear,dog,pow,0552_pow_dnn_pow_dog_35_n02097298_7577.png,n02097298_7577.png,0.0,-0.06193691,3.4832735,-2.5068424
alexnet2023_baseline_pgd,1,553,NaN,elephant,dog,pow,0553_pow_dnn_pow_dog_35_n02093428_16873.png,n02093428_16873.png,0.0,2.5486255,10.223087,-5.426664
alexnet2023_baseline_pgd,1,554,NaN,bear,bear,0,0554_pow_dnn_0_bear_35_n02132136_4157.png,n02132136_4157.png,1.0,11.596204,8.906039,1.9022336
alexnet2023_baseline_pgd,1,555,NaN,bottle,bottle,0,0555_pow_dnn_0_bottle_35_n02823428_2007.png,n02823428_2007.png,1.0,13.515989,6.5623164,4.9169893
alexnet2023_baseline_pgd,1,556,NaN,keyboard,keyboard,0,0556_pow_dnn_0_keyboard_35_n03085013_24272.png,n03085013_24272.png,1.0,5.286593,5.028023,0.18283674
alexnet2023_baseline_pgd,1,557,NaN,oven,oven,0,0557_pow_dnn_0_oven_35_n04111531_2074.png,n04111531_2074.png,1.0,4.189314,0.9952828,2.258521
alexnet2023_baseline_pgd,1,558,NaN,oven,bird,pow,0558_pow_dnn_pow_bird_35_n01532829_4536.png,n01532829_4536.png,0.0,1.7045119,5.477069,-2.6676006
alexnet2023_baseline_pgd,1,559,NaN,dog,dog,0,0559_pow_dnn_0_dog_35_n02109047_17100.png,n02109047_17100.png,1.0,6.307062,2.3089228,2.8271115
alexnet2023_baseline_pgd,1,560,NaN,bicycle,oven,pow,0560_pow_dnn_pow_oven_35_n04111531_4407.png,n04111531_4407.png,0.0,3.2659578,4.5493264,-0.90747863
alexnet2023_baseline_pgd,1,561,NaN,airplane,airplane,0,0561_pow_dnn_0_airplane_35_n02690373_8069.png,n02690373_8069.png,1.0,14.804092,6.438826,5.915137
alexnet2023_baseline_pgd,1,562,NaN,knife,bottle,0,0562_pow_dnn_0_bottle_35_n04560804_8921.png,n04560804_8921.png,0.0,3.3655324,5.8700733,-1.7709779
alexnet2023_baseline_pgd,1,563,NaN,bottle,bottle,pow,0563_pow_dnn_pow_bottle_35_n03937543_2936.png,n03937543_2936.png,1.0,10.416327,1.7558279,6.123898
alexnet2023_baseline_pgd,1,564,NaN,elephant,cat,0,0564_pow_dnn_0_cat_35_n02123045_8031.png,n02123045_8031.png,0.0,2.3949053,6.241196,-2.7197385
alexnet2023_baseline_pgd,1,565,NaN,oven,oven,0,0565_pow_dnn_0_oven_35_n04111531_3805.png,n04111531_3805.png,1.0,7.95454,1.8098671,4.3449397
alexnet2023_baseline_pgd,1,566,NaN,truck,truck,0,0566_pow_dnn_0_truck_35_n03417042_27231.png,n03417042_27231.png,1.0,16.474325,10.649834,4.1185374
alexnet2023_baseline_pgd,1,567,NaN,elephant,elephant,0,0567_pow_dnn_0_elephant_35_n02504013_7232.png,n02504013_7232.png,1.0,10.88092,5.6009154,3.7335274
alexnet2023_baseline_pgd,1,568,NaN,knife,knife,0,0568_pow_dnn_0_knife_35_n03041632_5102.png,n03041632_5102.png,1.0,6.3411155,4.3503118,1.4077108
alexnet2023_baseline_pgd,1,569,NaN,cat,dog,pow,0569_pow_dnn_pow_dog_35_n02110958_8916.png,n02110958_8916.png,0.0,3.5855904,4.5165014,-0.65825355
alexnet2023_baseline_pgd,1,570,NaN,knife,bottle,pow,0570_pow_dnn_pow_bottle_35_n04557648_9790.png,n04557648_9790.png,0.0,3.1069105,4.703228,-1.128767
alexnet2023_baseline_pgd,1,571,NaN,cat,cat,pow,0571_pow_dnn_pow_cat_35_n02123394_3786.png,n02123394_3786.png,1.0,5.2448645,1.6059597,2.5730944
alexnet2023_baseline_pgd,1,572,NaN,truck,truck,0,0572_pow_dnn_0_truck_35_n04467665_19132.png,n04467665_19132.png,1.0,7.621542,5.621721,1.4140872
alexnet2023_baseline_pgd,1,573,NaN,elephant,truck,pow,0573_pow_dnn_pow_truck_35_n03796401_2934.png,n03796401_2934.png,0.0,2.1392674,3.7980983,-1.1729705
alexnet2023_baseline_pgd,1,574,NaN,bicycle,bicycle,0,0574_pow_dnn_0_bicycle_35_n02835271_12799.png,n02835271_12799.png,1.0,15.544123,1.9546908,9.6091795
alexnet2023_baseline_pgd,1,575,NaN,car,car,0,0575_pow_dnn_0_car_35_n02814533_1297.png,n02814533_1297.png,1.0,9.314355,4.300761,3.5451462
alexnet2023_baseline_pgd,1,576,NaN,bear,bear,pow,0576_pow_dnn_pow_bear_35_n02134418_1974.png,n02134418_1974.png,1.0,4.456085,2.2678277,1.5473317
alexnet2023_baseline_pgd,1,577,NaN,cat,cat,0,0577_pow_dnn_0_cat_35_n02124075_2843.png,n02124075_2843.png,1.0,8.479287,3.094549,3.8075848
alexnet2023_baseline_pgd,1,578,NaN,cat,cat,0,0578_pow_dnn_0_cat_35_n02123597_5697.png,n02123597_5697.png,1.0,7.0676517,3.5786965,2.467064
alexnet2023_baseline_pgd,1,579,NaN,bicycle,bicycle,pow,0579_pow_dnn_pow_bicycle_35_n02835271_2315.png,n02835271_2315.png,1.0,5.7730412,2.7778058,2.1179514
alexnet2023_baseline_pgd,1,580,NaN,keyboard,keyboard,0,0580_pow_dnn_0_keyboard_35_n04505470_4515.png,n04505470_4515.png,1.0,17.480778,4.0919595,9.467324
alexnet2023_baseline_pgd,1,581,NaN,elephant,knife,pow,0581_pow_dnn_pow_knife_35_n03041632_4269.png,n03041632_4269.png,0.0,3.1387897,6.3128033,-2.2443666
alexnet2023_baseline_pgd,1,582,NaN,cat,cat,0,0582_pow_dnn_0_cat_35_n02123045_12010.png,n02123045_12010.png,1.0,11.390527,0.8445885,7.4571047
alexnet2023_baseline_pgd,1,583,NaN,knife,clock,0,0583_pow_dnn_0_clock_35_n03196217_6467.png,n03196217_6467.png,0.0,5.972633,6.3079314,-0.23709187
alexnet2023_baseline_pgd,1,584,NaN,bottle,bottle,pow,0584_pow_dnn_pow_bottle_35_n03983396_2864.png,n03983396_2864.png,1.0,2.324514,2.2720778,0.037077934
alexnet2023_baseline_pgd,1,585,NaN,airplane,bottle,0,0585_pow_dnn_0_bottle_35_n04557648_10171.png,n04557648_10171.png,0.0,1.0004646,6.660824,-4.0024786
alexnet2023_baseline_pgd,1,586,NaN,elephant,bird,pow,0586_pow_dnn_pow_bird_35_n01860187_2052.png,n01860187_2052.png,0.0,0.30183306,4.7381096,-3.1369212
alexnet2023_baseline_pgd,1,587,NaN,car,car,0,0587_pow_dnn_0_car_35_n04285008_5897.png,n04285008_5897.png,1.0,14.91689,10.308554,3.258586
alexnet2023_baseline_pgd,1,588,NaN,elephant,elephant,0,0588_pow_dnn_0_elephant_35_n02504458_4721.png,n02504458_4721.png,1.0,18.238121,3.5330806,10.398034
alexnet2023_baseline_pgd,1,589,NaN,car,car,0,0589_pow_dnn_0_car_35_n02814533_93476.png,n02814533_93476.png,1.0,14.992869,9.209252,4.089635
alexnet2023_baseline_pgd,1,590,NaN,elephant,bird,pow,0590_pow_dnn_pow_bird_35_n01824575_10337.png,n01824575_10337.png,0.0,2.259535,4.985327,-1.9274259
alexnet2023_baseline_pgd,1,591,NaN,clock,dog,pow,0591_pow_dnn_pow_dog_35_n02100735_10683.png,n02100735_10683.png,0.0,-0.8377958,3.6183262,-3.150954
alexnet2023_baseline_pgd,1,592,NaN,airplane,airplane,pow,0592_pow_dnn_pow_airplane_35_n02690373_4402.png,n02690373_4402.png,1.0,6.2257466,3.6174514,1.8443433
alexnet2023_baseline_pgd,1,593,NaN,airplane,airplane,0,0593_pow_dnn_0_airplane_35_n02690373_4350.png,n02690373_4350.png,1.0,14.01939,3.0609162,7.7488117
alexnet2023_baseline_pgd,1,594,NaN,bottle,bottle,pow,0594_pow_dnn_pow_bottle_35_n02823428_6327.png,n02823428_6327.png,1.0,7.069607,2.238182,3.4163332
alexnet2023_baseline_pgd,1,595,NaN,elephant,dog,pow,0595_pow_dnn_pow_dog_35_n02104029_3041.png,n02104029_3041.png,0.0,4.4150205,7.998796,-2.534112
alexnet2023_baseline_pgd,1,596,NaN,elephant,elephant,pow,0596_pow_dnn_pow_elephant_35_n02504013_24810.png,n02504013_24810.png,1.0,7.103047,2.966835,2.9247434
alexnet2023_baseline_pgd,1,597,NaN,clock,clock,pow,0597_pow_dnn_pow_clock_35_n04548280_4473.png,n04548280_4473.png,1.0,3.9489925,3.4071178,0.38316324
alexnet2023_baseline_pgd,1,598,NaN,bear,dog,pow,0598_pow_dnn_pow_dog_35_n02107908_5597.png,n02107908_5597.png,0.0,3.4824126,3.9654212,-0.34153867
alexnet2023_baseline_pgd,1,599,NaN,truck,truck,0,0599_pow_dnn_0_truck_35_n04467665_57697.png,n04467665_57697.png,1.0,14.39554,8.618075,4.0852847
alexnet2023_baseline_pgd,1,600,NaN,bottle,bottle,pow,0600_pow_dnn_pow_bottle_35_n03983396_6889.png,n03983396_6889.png,1.0,4.804352,2.8386827,1.389938
alexnet2023_baseline_pgd,1,601,NaN,bear,bear,pow,0601_pow_dnn_pow_bear_35_n02134418_1826.png,n02134418_1826.png,1.0,5.7704015,2.5319095,2.2899597
alexnet2023_baseline_pgd,1,602,NaN,cat,cat,pow,0602_pow_dnn_pow_cat_35_n02123159_4687.png,n02123159_4687.png,1.0,4.7780194,2.4291072,1.6609318
alexnet2023_baseline_pgd,1,603,NaN,boat,boat,pow,0603_pow_dnn_pow_boat_35_n03344393_5798.png,n03344393_5798.png,1.0,6.3026943,1.2516837,3.571604
alexnet2023_baseline_pgd,1,604,NaN,oven,car,pow,0604_pow_dnn_pow_car_35_n04285008_11745.png,n04285008_11745.png,0.0,-1.1157864,2.5735452,-2.6087513
alexnet2023_baseline_pgd,1,605,NaN,clock,clock,0,0605_pow_dnn_0_clock_35_n02708093_353.png,n02708093_353.png,1.0,10.593968,9.221752,0.9703034
alexnet2023_baseline_pgd,1,606,NaN,airplane,airplane,0,0606_pow_dnn_0_airplane_35_n02690373_4763.png,n02690373_4763.png,1.0,16.334538,6.6009727,6.8826694
alexnet2023_baseline_pgd,1,607,NaN,elephant,elephant,0,0607_pow_dnn_0_elephant_35_n02504013_18498.png,n02504013_18498.png,1.0,16.227884,7.795638,5.9624987
alexnet2023_baseline_pgd,1,608,NaN,airplane,cat,pow,0608_pow_dnn_pow_cat_35_n02123394_159.png,n02123394_159.png,0.0,1.0586777,3.5827217,-1.7847687
alexnet2023_baseline_pgd,1,609,NaN,boat,boat,0,0609_pow_dnn_0_boat_35_n03662601_18676.png,n03662601_18676.png,1.0,14.522797,7.4491477,5.0018253
alexnet2023_baseline_pgd,1,610,NaN,elephant,truck,pow,0610_pow_dnn_pow_truck_35_n03796401_1789.png,n03796401_1789.png,0.0,0.8183571,3.3919368,-1.8197957
alexnet2023_baseline_pgd,1,611,NaN,chair,chair,0,0611_pow_dnn_0_chair_35_n04099969_4816.png,n04099969_4816.png,1.0,7.120616,4.422826,1.9076258
alexnet2023_baseline_pgd,1,612,NaN,elephant,elephant,0,0612_pow_dnn_0_elephant_35_n02504458_7013.png,n02504458_7013.png,1.0,21.775633,4.8889337,11.940701
alexnet2023_baseline_pgd,1,613,NaN,knife,knife,pow,0613_pow_dnn_pow_knife_35_n03041632_92637.png,n03041632_92637.png,1.0,3.9208968,2.3402998,1.1176509
alexnet2023_baseline_pgd,1,614,NaN,keyboard,keyboard,0,0614_pow_dnn_0_keyboard_35_n03085013_19607.png,n03085013_19607.png,1.0,20.65716,6.190324,10.229598
alexnet2023_baseline_pgd,1,615,NaN,elephant,cat,pow,0615_pow_dnn_pow_cat_35_n02123597_1027.png,n02123597_1027.png,0.0,3.6467342,7.049059,-2.4058068
alexnet2023_baseline_pgd,1,616,NaN,bicycle,bicycle,0,0616_pow_dnn_0_bicycle_35_n02835271_9135.png,n02835271_9135.png,1.0,12.120792,3.1472273,6.3452687
alexnet2023_baseline_pgd,1,617,NaN,dog,dog,pow,0617_pow_dnn_pow_dog_35_n02111500_3896.png,n02111500_3896.png,1.0,3.5876105,1.9067817,1.1885254
alexnet2023_baseline_pgd,1,618,NaN,knife,oven,0,0618_pow_dnn_0_oven_35_n04111531_8398.png,n04111531_8398.png,0.0,3.8822803,5.331956,-1.0250754
alexnet2023_baseline_pgd,1,619,NaN,oven,oven,0,0619_pow_dnn_0_oven_35_n04111531_6049.png,n04111531_6049.png,1.0,14.133676,4.12523,7.07704
alexnet2023_baseline_pgd,1,620,NaN,oven,chair,pow,0620_pow_dnn_pow_chair_35_n03376595_6947.png,n03376595_6947.png,0.0,2.8544776,4.622144,-1.2499291
alexnet2023_baseline_pgd,1,621,NaN,oven,dog,pow,0621_pow_dnn_pow_dog_35_n02097658_6717.png,n02097658_6717.png,0.0,2.0686238,3.478835,-0.99717003
alexnet2023_baseline_pgd,1,622,NaN,knife,knife,0,0622_pow_dnn_0_knife_35_n03041632_21560.png,n03041632_21560.png,1.0,5.1406813,2.7718854,1.6749916
alexnet2023_baseline_pgd,1,623,NaN,boat,boat,pow,0623_pow_dnn_pow_boat_35_n03662601_7642.png,n03662601_7642.png,1.0,3.9648182,2.5597568,0.99352854
alexnet2023_baseline_pgd,1,624,NaN,car,car,0,0624_pow_dnn_0_car_35_n04285008_1313.png,n04285008_1313.png,1.0,10.717873,6.840441,2.741758
alexnet2023_baseline_pgd,1,625,NaN,elephant,chair,pow,0625_pow_dnn_pow_chair_35_n03376595_6409.png,n03376595_6409.png,0.0,2.6361268,4.696848,-1.45715
alexnet2023_baseline_pgd,1,626,NaN,bear,bear,pow,0626_pow_dnn_pow_bear_35_n02133161_6028.png,n02133161_6028.png,1.0,4.5404487,2.286281,1.5939372
alexnet2023_baseline_pgd,1,627,NaN,elephant,bear,pow,0627_pow_dnn_pow_bear_35_n02132136_29029.png,n02132136_29029.png,0.0,4.0282383,6.632785,-1.8416926
alexnet2023_baseline_pgd,1,628,NaN,truck,truck,0,0628_pow_dnn_0_truck_35_n04467665_7290.png,n04467665_7290.png,1.0,8.54531,6.8881674,1.1717768
alexnet2023_baseline_pgd,1,629,NaN,elephant,bird,pow,0629_pow_dnn_pow_bird_35_n01537544_9745.png,n01537544_9745.png,0.0,1.4776089,4.717305,-2.2908113
alexnet2023_baseline_pgd,1,630,NaN,bicycle,bicycle,0,0630_pow_dnn_0_bicycle_35_n03792782_15845.png,n03792782_15845.png,1.0,8.342089,4.6162014,2.6346002
alexnet2023_baseline_pgd,1,631,NaN,bicycle,bear,pow,0631_pow_dnn_pow_bear_35_n02133161_8982.png,n02133161_8982.png,0.0,1.8549749,2.0959263,-0.17037839
alexnet2023_baseline_pgd,1,632,NaN,knife,knife,0,0632_pow_dnn_0_knife_35_n03041632_6575.png,n03041632_6575.png,1.0,6.078797,1.2739747,3.3975222
alexnet2023_baseline_pgd,1,633,NaN,knife,knife,0,0633_pow_dnn_0_knife_35_n03041632_32785.png,n03041632_32785.png,1.0,12.309604,1.6358109,7.5475116
alexnet2023_baseline_pgd,1,634,NaN,bottle,chair,pow,0634_pow_dnn_pow_chair_35_n04429376_12691.png,n04429376_12691.png,0.0,0.8753134,3.3229077,-1.7307105
alexnet2023_baseline_pgd,1,635,NaN,elephant,dog,pow,0635_pow_dnn_pow_dog_35_n02097298_6578.png,n02097298_6578.png,0.0,3.353627,9.018726,-4.0058303
alexnet2023_baseline_pgd,1,636,NaN,elephant,knife,pow,0636_pow_dnn_pow_knife_35_n03041632_94995.png,n03041632_94995.png,0.0,-0.83670396,8.00738,-6.2537117
alexnet2023_baseline_pgd,1,637,NaN,clock,clock,0,0637_pow_dnn_0_clock_35_n02708093_41.png,n02708093_41.png,1.0,11.147685,3.569569,5.358537
alexnet2023_baseline_pgd,1,638,NaN,keyboard,keyboard,0,0638_pow_dnn_0_keyboard_35_n03085013_7892.png,n03085013_7892.png,1.0,12.749152,3.1905453,6.758956
alexnet2023_baseline_pgd,1,639,NaN,oven,knife,pow,0639_pow_dnn_pow_knife_35_n03041632_84048.png,n03041632_84048.png,0.0,-0.80360013,4.0374494,-3.423139
alexnet2023_baseline_pgd,1,640,NaN,airplane,airplane,0,0640_pow_dnn_0_airplane_35_n02690373_3415.png,n02690373_3415.png,1.0,11.871659,7.6320252,2.997874
alexnet2023_baseline_pgd,1,641,NaN,knife,knife,0,0641_pow_dnn_0_knife_35_n03041632_31483.png,n03041632_31483.png,1.0,9.300451,1.8758001,5.2500215
alexnet2023_baseline_pgd,1,642,NaN,elephant,dog,0,0642_pow_dnn_0_dog_35_n02110958_368.png,n02110958_368.png,0.0,0.8563165,2.960808,-1.4881002
alexnet2023_baseline_pgd,1,643,NaN,elephant,bird,0,0643_pow_dnn_0_bird_35_n02051845_539.png,n02051845_539.png,0.0,4.8617907,5.8030777,-0.66559047
alexnet2023_baseline_pgd,1,644,NaN,elephant,bear,0,0644_pow_dnn_0_bear_35_n02134084_11187.png,n02134084_11187.png,0.0,12.1796055,12.211473,-0.022534065
alexnet2023_baseline_pgd,1,645,NaN,bird,bird,0,0645_pow_dnn_0_bird_35_n01531178_17387.png,n01531178_17387.png,1.0,6.858576,0.94008344,4.185006
alexnet2023_baseline_pgd,1,646,NaN,oven,keyboard,0,0646_pow_dnn_0_keyboard_35_n04505470_5131.png,n04505470_5131.png,0.0,2.9610038,3.627166,-0.47104785
alexnet2023_baseline_pgd,1,647,NaN,cat,cat,0,0647_pow_dnn_0_cat_35_n02123159_2246.png,n02123159_2246.png,1.0,6.4419465,4.0897856,1.663229
alexnet2023_baseline_pgd,1,648,NaN,oven,oven,0,0648_pow_dnn_0_oven_35_n04111531_1725.png,n04111531_1725.png,1.0,10.913493,1.6819676,6.527674
alexnet2023_baseline_pgd,1,649,NaN,clock,clock,0,0649_pow_dnn_0_clock_35_n02708093_2295.png,n02708093_2295.png,1.0,11.762895,3.4782996,5.8580937
alexnet2023_baseline_pgd,1,650,NaN,bear,cat,pow,0650_pow_dnn_pow_cat_35_n02125311_5013.png,n02125311_5013.png,0.0,1.5640146,5.893534,-3.0614328
alexnet2023_baseline_pgd,1,651,NaN,bird,keyboard,pow,0651_pow_dnn_pow_keyboard_35_n03085013_24665.png,n03085013_24665.png,0.0,-3.161243,2.6228008,-4.0899367
alexnet2023_baseline_pgd,1,652,NaN,elephant,elephant,pow,0652_pow_dnn_pow_elephant_35_n02504013_9678.png,n02504013_9678.png,1.0,9.874444,5.6289477,3.0020192
alexnet2023_baseline_pgd,1,653,NaN,keyboard,keyboard,0,0653_pow_dnn_0_keyboard_35_n03085013_7858.png,n03085013_7858.png,1.0,15.580666,6.743782,6.2486205
alexnet2023_baseline_pgd,1,654,NaN,boat,boat,0,0654_pow_dnn_0_boat_35_n04612504_2089.png,n04612504_2089.png,1.0,10.357695,5.212355,3.6383045
alexnet2023_baseline_pgd,1,655,NaN,dog,dog,0,0655_pow_dnn_0_dog_35_n02091831_4183.png,n02091831_4183.png,1.0,7.0742693,5.061845,1.422999
alexnet2023_baseline_pgd,1,656,NaN,cat,cat,0,0656_pow_dnn_0_cat_35_n02125311_475.png,n02125311_475.png,1.0,14.125358,4.630168,6.714113
alexnet2023_baseline_pgd,1,657,NaN,knife,clock,0,0657_pow_dnn_0_clock_35_n03196217_2607.png,n03196217_2607.png,0.0,2.706042,5.094413,-1.6888332
alexnet2023_baseline_pgd,1,658,NaN,car,car,0,0658_pow_dnn_0_car_35_n02814533_93487.png,n02814533_93487.png,1.0,17.919222,12.700759,3.6900105
alexnet2023_baseline_pgd,1,659,NaN,dog,dog,0,0659_pow_dnn_0_dog_35_n02108000_6270.png,n02108000_6270.png,1.0,6.7657466,5.752254,0.7166475
alexnet2023_baseline_pgd,1,660,NaN,bear,chair,pow,0660_pow_dnn_pow_chair_35_n04099969_20900.png,n04099969_20900.png,0.0,1.361912,4.5964603,-2.2871711
alexnet2023_baseline_pgd,1,661,NaN,car,car,0,0661_pow_dnn_0_car_35_n03100240_8483.png,n03100240_8483.png,1.0,15.7003145,7.142768,6.0510993
alexnet2023_baseline_pgd,1,662,NaN,knife,chair,0,0662_pow_dnn_0_chair_35_n03376595_2056.png,n03376595_2056.png,0.0,2.9615433,3.6446075,-0.48299935
alexnet2023_baseline_pgd,1,663,NaN,bicycle,boat,pow,0663_pow_dnn_pow_boat_35_n04612504_2479.png,n04612504_2479.png,0.0,4.295819,4.367733,-0.050851017
alexnet2023_baseline_pgd,1,664,NaN,cat,cat,pow,0664_pow_dnn_pow_cat_35_n02123045_5228.png,n02123045_5228.png,1.0,7.8218637,3.370154,3.1478343
alexnet2023_baseline_pgd,1,665,NaN,airplane,airplane,0,0665_pow_dnn_0_airplane_35_n02690373_10404.png,n02690373_10404.png,1.0,12.292639,4.549725,5.4750667
alexnet2023_baseline_pgd,1,666,NaN,elephant,knife,0,0666_pow_dnn_0_knife_35_n03041632_29427.png,n03041632_29427.png,0.0,3.1910872,5.8693533,-1.8938202
alexnet2023_baseline_pgd,1,667,NaN,bottle,oven,0,0667_pow_dnn_0_oven_35_n04111531_7355.png,n04111531_7355.png,0.0,4.611354,4.850915,-0.16939527
alexnet2023_baseline_pgd,1,668,NaN,bottle,clock,0,0668_pow_dnn_0_clock_35_n03196217_3333.png,n03196217_3333.png,0.0,3.6532536,3.6720645,-0.013301377
alexnet2023_baseline_pgd,1,669,NaN,bird,bird,0,0669_pow_dnn_0_bird_35_n02027492_9905.png,n02027492_9905.png,1.0,6.847589,2.8983495,2.792534
alexnet2023_baseline_pgd,1,670,NaN,airplane,airplane,0,0670_pow_dnn_0_airplane_35_n02690373_9709.png,n02690373_9709.png,1.0,13.190616,3.0505888,7.170082
alexnet2023_baseline_pgd,1,671,NaN,keyboard,clock,0,0671_pow_dnn_0_clock_35_n03196217_3558.png,n03196217_3558.png,0.0,4.985968,6.092748,-0.78261167
alexnet2023_baseline_pgd,1,672,NaN,elephant,elephant,pow,0672_pow_dnn_pow_elephant_35_n02504013_1854.png,n02504013_1854.png,1.0,6.7425427,4.1677656,1.8206424
