subj,session,trial,rt,object_response,category,condition,imagename,filename,is_correct,targ_act,max_nontarg_act,decision_margin
bagnet33,1,1,NaN,clock,clock,0,0001_pow_dnn_0_clock_35_n03196217_10246.png,n03196217_10246.png,1.0,34.20049,6.082908,19.882132
bagnet33,1,2,NaN,cat,dog,pow,0002_pow_dnn_pow_dog_35_n02091467_7264.png,n02091467_7264.png,0.0,0.14218499,3.0141351,-2.0307755
bagnet33,1,3,NaN,oven,chair,pow,0003_pow_dnn_pow_chair_35_n02791124_713.png,n02791124_713.png,0.0,2.7277086,5.9453526,-2.275218
bagnet33,1,4,NaN,car,car,0,0004_pow_dnn_0_car_35_n02814533_35174.png,n02814533_35174.png,1.0,10.742902,9.938826,0.56856775
bagnet33,1,5,NaN,knife,knife,pow,0005_pow_dnn_pow_knife_35_n03041632_46103.png,n03041632_46103.png,1.0,3.983716,3.4102118,0.40552872
bagnet33,1,6,NaN,bicycle,bicycle,0,0006_pow_dnn_0_bicycle_35_n03792782_11306.png,n03792782_11306.png,1.0,21.344574,8.221554,9.279377
bagnet33,1,7,NaN,bird,bird,0,0007_pow_dnn_0_bird_35_n02002556_3463.png,n02002556_3463.png,1.0,8.857322,4.960573,2.7554173
bagnet33,1,8,NaN,airplane,keyboard,pow,0008_pow_dnn_pow_keyboard_35_n03085013_22813.png,n03085013_22813.png,0.0,0.3364752,2.4604316,-1.5018641
bagnet33,1,9,NaN,bird,bird,0,0009_pow_dnn_0_bird_35_n02025239_2961.png,n02025239_2961.png,1.0,9.612925,1.1456518,5.987266
bagnet33,1,10,NaN,oven,boat,pow,0010_pow_dnn_pow_boat_35_n02951358_14504.png,n02951358_14504.png,0.0,0.98760813,3.6188622,-1.8605776
bagnet33,1,11,NaN,airplane,oven,0,0011_pow_dnn_0_oven_35_n04111531_19000.png,n04111531_19000.png,0.0,4.8225913,7.258789,-1.722652
bagnet33,1,12,NaN,bird,bird,0,0012_pow_dnn_0_bird_35_n01614925_11281.png,n01614925_11281.png,1.0,5.346627,4.46194,0.6255685
bagnet33,1,13,NaN,knife,knife,0,0013_pow_dnn_0_knife_35_n03041632_52040.png,n03041632_52040.png,1.0,7.627101,6.733847,0.63162583
bagnet33,1,14,NaN,airplane,car,pow,0014_pow_dnn_pow_car_35_n03100240_14206.png,n03100240_14206.png,0.0,1.472557,4.3625474,-2.043532
bagnet33,1,15,NaN,elephant,bird,0,0015_pow_dnn_0_bird_35_n01817953_689.png,n01817953_689.png,0.0,-0.051149428,4.897007,-3.498875
bagnet33,1,16,NaN,oven,chair,pow,0016_pow_dnn_pow_chair_35_n04099969_7934.png,n04099969_7934.png,0.0,3.2879212,5.078607,-1.2662061
bagnet33,1,17,NaN,knife,knife,0,0017_pow_dnn_0_knife_35_n03041632_30196.png,n03041632_30196.png,1.0,8.351031,1.9165063,4.5498962
bagnet33,1,18,NaN,car,car,0,0018_pow_dnn_0_car_35_n02814533_18077.png,n02814533_18077.png,1.0,11.587848,9.052213,1.7929647
bagnet33,1,19,NaN,cat,cat,0,0019_pow_dnn_0_cat_35_n02123159_6927.png,n02123159_6927.png,1.0,5.3100057,2.985111,1.6439488
bagnet33,1,20,NaN,elephant,bird,pow,0020_pow_dnn_pow_bird_35_n01855672_8550.png,n01855672_8550.png,0.0,0.45519215,6.4320726,-4.2262926
bagnet33,1,21,NaN,truck,truck,0,0021_pow_dnn_0_truck_35_n03417042_17888.png,n03417042_17888.png,1.0,16.70306,8.27152,5.9619994
bagnet33,1,22,NaN,oven,truck,pow,0022_pow_dnn_pow_truck_35_n04467665_45611.png,n04467665_45611.png,0.0,3.2917624,6.122622,-2.0017202
bagnet33,1,23,NaN,knife,dog,pow,0023_pow_dnn_pow_dog_35_n02093256_1772.png,n02093256_1772.png,0.0,-1.6106967,5.7212143,-5.184444
bagnet33,1,24,NaN,clock,boat,pow,0024_pow_dnn_pow_boat_35_n03344393_6260.png,n03344393_6260.png,0.0,1.5276443,6.37044,-3.4243739
bagnet33,1,25,NaN,chair,chair,0,0025_pow_dnn_0_chair_35_n04429376_24073.png,n04429376_24073.png,1.0,4.2133303,4.0604935,0.10807194
bagnet33,1,26,NaN,knife,knife,0,0026_pow_dnn_0_knife_35_n03041632_29355.png,n03041632_29355.png,1.0,3.766763,3.441143,0.23024806
bagnet33,1,27,NaN,clock,clock,0,0027_pow_dnn_0_clock_35_n03196217_5907.png,n03196217_5907.png,1.0,19.814371,5.731019,9.958434
bagnet33,1,28,NaN,airplane,airplane,0,0028_pow_dnn_0_airplane_35_n02690373_7276.png,n02690373_7276.png,1.0,32.1701,6.008224,18.49924
bagnet33,1,29,NaN,clock,bicycle,pow,0029_pow_dnn_pow_bicycle_35_n03792782_15561.png,n03792782_15561.png,0.0,3.9702568,4.25246,-0.1995478
bagnet33,1,30,NaN,cat,cat,0,0030_pow_dnn_0_cat_35_n02123045_3505.png,n02123045_3505.png,1.0,21.381348,6.4239244,10.576495
bagnet33,1,31,NaN,oven,knife,0,0031_pow_dnn_0_knife_35_n03041632_34769.png,n03041632_34769.png,0.0,3.6396968,9.247393,-3.9652395
bagnet33,1,32,NaN,oven,clock,pow,0032_pow_dnn_pow_clock_35_n03196217_5206.png,n03196217_5206.png,0.0,4.0117693,4.899329,-0.62759966
bagnet33,1,33,NaN,truck,truck,0,0033_pow_dnn_0_truck_35_n04467665_58815.png,n04467665_58815.png,1.0,13.196768,8.04216,3.6448581
bagnet33,1,34,NaN,bird,bird,0,0034_pow_dnn_0_bird_35_n01616318_2186.png,n01616318_2186.png,1.0,7.653642,2.47599,3.661153
bagnet33,1,35,NaN,elephant,bicycle,pow,0035_pow_dnn_pow_bicycle_35_n03792782_12885.png,n03792782_12885.png,0.0,0.33089572,3.6774826,-2.3663943
bagnet33,1,36,NaN,airplane,airplane,pow,0036_pow_dnn_pow_airplane_35_n02690373_9264.png,n02690373_9264.png,1.0,5.0299063,3.4301958,1.1311661
bagnet33,1,37,NaN,chair,chair,0,0037_pow_dnn_0_chair_35_n04099969_16079.png,n04099969_16079.png,1.0,10.88161,4.827273,4.2810626
bagnet33,1,38,NaN,bicycle,bicycle,0,0038_pow_dnn_0_bicycle_35_n02835271_3027.png,n02835271_3027.png,1.0,5.744813,4.9295745,0.57646066
bagnet33,1,39,NaN,airplane,airplane,0,0039_pow_dnn_0_airplane_35_n02690373_6614.png,n02690373_6614.png,1.0,17.135876,4.1093636,9.211135
bagnet33,1,40,NaN,clock,chair,pow,0040_pow_dnn_pow_chair_35_n03376595_9048.png,n03376595_9048.png,0.0,2.741654,5.932508,-2.2562747
bagnet33,1,41,NaN,oven,oven,0,0041_pow_dnn_0_oven_35_n04111531_6094.png,n04111531_6094.png,1.0,10.71915,7.4201016,2.3327792
bagnet33,1,42,NaN,clock,clock,pow,0042_pow_dnn_pow_clock_35_n02708093_687.png,n02708093_687.png,1.0,13.582698,4.8526855,6.1730514
bagnet33,1,43,NaN,bicycle,bicycle,pow,0043_pow_dnn_pow_bicycle_35_n03792782_14931.png,n03792782_14931.png,1.0,3.1671805,1.9024553,0.8942958
bagnet33,1,44,NaN,bottle,bottle,0,0044_pow_dnn_0_bottle_35_n03937543_5567.png,n03937543_5567.png,1.0,8.420618,6.124638,1.6235031
bagnet33,1,45,NaN,car,car,0,0045_pow_dnn_0_car_35_n03100240_3073.png,n03100240_3073.png,1.0,21.077015,10.952515,7.159103
bagnet33,1,46,NaN,knife,knife,0,0046_pow_dnn_0_knife_35_n03041632_18236.png,n03041632_18236.png,1.0,5.79297,4.647236,0.8101565
bagnet33,1,47,NaN,knife,knife,pow,0047_pow_dnn_pow_knife_35_n03041632_9302.png,n03041632_9302.png,1.0,5.1249776,4.1749043,0.67180324
bagnet33,1,48,NaN,bear,bear,0,0048_pow_dnn_0_bear_35_n02134418_2590.png,n02134418_2590.png,1.0,24.03355,8.582389,10.925621
bagnet33,1,49,NaN,bottle,bottle,0,0049_pow_dnn_0_bottle_35_n03983396_24837.png,n03983396_24837.png,1.0,15.261533,5.2816725,7.056827
bagnet33,1,50,NaN,knife,knife,pow,0050_pow_dnn_pow_knife_35_n03041632_3617.png,n03041632_3617.png,1.0,5.1755886,4.633665,0.3831978
bagnet33,1,51,NaN,bicycle,bicycle,pow,0051_pow_dnn_pow_bicycle_35_n03792782_6735.png,n03792782_6735.png,1.0,2.6422827,1.7391381,0.63861966
bagnet33,1,52,NaN,car,car,0,0052_pow_dnn_0_car_35_n03100240_5387.png,n03100240_5387.png,1.0,16.934317,7.5394096,6.643203
bagnet33,1,53,NaN,bottle,bottle,0,0053_pow_dnn_0_bottle_35_n03983396_4879.png,n03983396_4879.png,1.0,7.2192407,4.4667234,1.9463236
bagnet33,1,54,NaN,car,car,0,0054_pow_dnn_0_car_35_n03100240_6103.png,n03100240_6103.png,1.0,26.112207,14.9270115,7.909128
bagnet33,1,55,NaN,oven,bird,pow,0055_pow_dnn_pow_bird_35_n01796340_9255.png,n01796340_9255.png,0.0,0.4063257,3.8569021,-2.439926
bagnet33,1,56,NaN,elephant,cat,pow,0056_pow_dnn_pow_cat_35_n02123394_2448.png,n02123394_2448.png,0.0,1.5655802,2.5440273,-0.6918666
bagnet33,1,57,NaN,car,car,0,0057_pow_dnn_0_car_35_n04285008_13174.png,n04285008_13174.png,1.0,22.594986,13.889626,6.1556196
bagnet33,1,58,NaN,clock,chair,pow,0058_pow_dnn_pow_chair_35_n04429376_353.png,n04429376_353.png,0.0,3.1293316,3.2786071,-0.105553746
bagnet33,1,59,NaN,elephant,boat,pow,0059_pow_dnn_pow_boat_35_n02951358_16261.png,n02951358_16261.png,0.0,0.69024915,2.3466964,-1.171285
bagnet33,1,60,NaN,truck,car,pow,0060_pow_dnn_pow_car_35_n04285008_15954.png,n04285008_15954.png,0.0,2.8018558,6.74945,-2.7913709
bagnet33,1,61,NaN,truck,truck,pow,0061_pow_dnn_pow_truck_35_n04467665_3411.png,n04467665_3411.png,1.0,7.3558283,5.713647,1.1611977
bagnet33,1,62,NaN,oven,oven,pow,0062_pow_dnn_pow_oven_35_n04111531_15743.png,n04111531_15743.png,1.0,6.4919167,3.139957,2.3701935
bagnet33,1,63,NaN,dog,dog,0,0063_pow_dnn_0_dog_35_n02088238_8653.png,n02088238_8653.png,1.0,4.671049,4.3412795,0.23318233
bagnet33,1,64,NaN,airplane,airplane,0,0064_pow_dnn_0_airplane_35_n02690373_4681.png,n02690373_4681.png,1.0,20.514702,7.666539,9.085023
bagnet33,1,65,NaN,oven,bear,pow,0065_pow_dnn_pow_bear_35_n02134418_5684.png,n02134418_5684.png,0.0,1.321574,2.9914012,-1.1807462
bagnet33,1,66,NaN,bear,bear,pow,0066_pow_dnn_pow_bear_35_n02134418_5830.png,n02134418_5830.png,1.0,7.052166,5.8229694,0.8691732
bagnet33,1,67,NaN,truck,truck,0,0067_pow_dnn_0_truck_35_n04467665_45983.png,n04467665_45983.png,1.0,13.120777,11.859377,0.89194465
bagnet33,1,68,NaN,bird,bird,0,0068_pow_dnn_0_bird_35_n01795545_14302.png,n01795545_14302.png,1.0,4.3188715,2.921651,0.9879842
bagnet33,1,69,NaN,oven,oven,pow,0069_pow_dnn_pow_oven_35_n04111531_19240.png,n04111531_19240.png,1.0,6.710554,3.2810287,2.4250407
bagnet33,1,70,NaN,knife,knife,0,0070_pow_dnn_0_knife_35_n03041632_22241.png,n03041632_22241.png,1.0,7.0675993,5.3624473,1.2057246
bagnet33,1,71,NaN,elephant,boat,pow,0071_pow_dnn_pow_boat_35_n03344393_815.png,n03344393_815.png,0.0,2.6392238,3.4567406,-0.5780717
bagnet33,1,72,NaN,airplane,boat,0,0072_pow_dnn_0_boat_35_n03662601_2120.png,n03662601_2120.png,0.0,5.0117044,11.005141,-4.238
bagnet33,1,73,NaN,oven,knife,pow,0073_pow_dnn_pow_knife_35_n03041632_2438.png,n03041632_2438.png,0.0,3.6631331,5.415515,-1.2391211
bagnet33,1,74,NaN,oven,bear,pow,0074_pow_dnn_pow_bear_35_n02134418_3073.png,n02134418_3073.png,0.0,1.7486231,3.9061852,-1.5256268
bagnet33,1,75,NaN,bottle,bottle,pow,0075_pow_dnn_pow_bottle_35_n02823428_3328.png,n02823428_3328.png,1.0,7.112792,4.375176,1.935787
bagnet33,1,76,NaN,car,car,pow,0076_pow_dnn_pow_car_35_n04285008_13259.png,n04285008_13259.png,1.0,5.6832256,5.5838394,0.07027667
bagnet33,1,77,NaN,oven,oven,0,0077_pow_dnn_0_oven_35_n04111531_15852.png,n04111531_15852.png,1.0,5.7096634,1.8554813,2.7253184
bagnet33,1,78,NaN,elephant,dog,pow,0078_pow_dnn_pow_dog_35_n02099601_447.png,n02099601_447.png,0.0,-1.1278207,4.3573723,-3.8786175
bagnet33,1,79,NaN,oven,oven,pow,0079_pow_dnn_pow_oven_35_n04111531_18916.png,n04111531_18916.png,1.0,7.778524,2.9804897,3.3927226
bagnet33,1,80,NaN,knife,bottle,pow,0080_pow_dnn_pow_bottle_35_n04591713_1407.png,n04591713_1407.png,0.0,4.994915,6.1172123,-0.79358405
bagnet33,1,81,NaN,keyboard,oven,0,0081_pow_dnn_0_oven_35_n04111531_4585.png,n04111531_4585.png,0.0,4.8428307,5.143703,-0.21274887
bagnet33,1,82,NaN,bottle,keyboard,pow,0082_pow_dnn_pow_keyboard_35_n03085013_8364.png,n03085013_8364.png,0.0,-1.0777824,2.7046418,-2.674578
bagnet33,1,83,NaN,bear,bear,pow,0083_pow_dnn_pow_bear_35_n02132136_15462.png,n02132136_15462.png,1.0,6.7373,5.4336786,0.9217995
bagnet33,1,84,NaN,airplane,bicycle,pow,0084_pow_dnn_pow_bicycle_35_n03792782_4167.png,n03792782_4167.png,0.0,3.0594597,4.068486,-0.71348953
bagnet33,1,85,NaN,boat,boat,0,0085_pow_dnn_0_boat_35_n03662601_16106.png,n03662601_16106.png,1.0,9.793381,6.551074,2.2926571
bagnet33,1,86,NaN,clock,keyboard,pow,0086_pow_dnn_pow_keyboard_35_n03085013_2277.png,n03085013_2277.png,0.0,3.5412126,4.8797817,-0.9465113
bagnet33,1,87,NaN,airplane,airplane,pow,0087_pow_dnn_pow_airplane_35_n02690373_8461.png,n02690373_8461.png,1.0,8.125188,4.6986637,2.4229186
bagnet33,1,88,NaN,knife,chair,pow,0088_pow_dnn_pow_chair_35_n03376595_3304.png,n03376595_3304.png,0.0,4.4359055,6.3548584,-1.3569046
bagnet33,1,89,NaN,bicycle,bicycle,0,0089_pow_dnn_0_bicycle_35_n03792782_19116.png,n03792782_19116.png,1.0,4.486658,3.7512689,0.5199987
bagnet33,1,90,NaN,clock,clock,0,0090_pow_dnn_0_clock_35_n02708093_6734.png,n02708093_6734.png,1.0,10.208713,8.812182,0.98749596
bagnet33,1,91,NaN,clock,chair,0,0091_pow_dnn_0_chair_35_n04429376_6480.png,n04429376_6480.png,0.0,5.7935944,5.952494,-0.112359114
bagnet33,1,92,NaN,oven,bicycle,pow,0092_pow_dnn_pow_bicycle_35_n02835271_21339.png,n02835271_21339.png,0.0,0.781614,6.9026933,-4.328257
bagnet33,1,93,NaN,bottle,keyboard,pow,0093_pow_dnn_pow_keyboard_35_n03085013_3859.png,n03085013_3859.png,0.0,4.9413424,6.804171,-1.3172189
bagnet33,1,94,NaN,knife,chair,pow,0094_pow_dnn_pow_chair_35_n03376595_360.png,n03376595_360.png,0.0,3.3724742,5.317277,-1.3751832
bagnet33,1,95,NaN,elephant,elephant,pow,0095_pow_dnn_pow_elephant_35_n02504013_18988.png,n02504013_18988.png,1.0,6.6304975,3.0371053,2.540912
bagnet33,1,96,NaN,knife,chair,0,0096_pow_dnn_0_chair_35_n04429376_54570.png,n04429376_54570.png,0.0,3.047063,4.192993,-0.8102949
bagnet33,1,97,NaN,clock,clock,pow,0097_pow_dnn_pow_clock_35_n04548280_5189.png,n04548280_5189.png,1.0,7.788626,5.2217264,1.8150723
bagnet33,1,98,NaN,oven,truck,pow,0098_pow_dnn_pow_truck_35_n04467665_6626.png,n04467665_6626.png,0.0,1.684787,5.2351465,-2.5104833
bagnet33,1,99,NaN,boat,boat,0,0099_pow_dnn_0_boat_35_n03344393_3323.png,n03344393_3323.png,1.0,8.887901,3.686879,3.677678
bagnet33,1,100,NaN,elephant,dog,pow,0100_pow_dnn_pow_dog_35_n02100583_3987.png,n02100583_3987.png,0.0,0.63932765,6.722976,-4.3017893
bagnet33,1,101,NaN,elephant,elephant,pow,0101_pow_dnn_pow_elephant_35_n02504013_1702.png,n02504013_1702.png,1.0,9.932402,3.5207806,4.533701
bagnet33,1,102,NaN,airplane,truck,pow,0102_pow_dnn_pow_truck_35_n03417042_1841.png,n03417042_1841.png,0.0,4.5832057,7.3408237,-1.9499304
bagnet33,1,103,NaN,truck,truck,0,0103_pow_dnn_0_truck_35_n03417042_2062.png,n03417042_2062.png,1.0,11.745912,7.6257067,2.913425
bagnet33,1,104,NaN,bottle,bottle,0,0104_pow_dnn_0_bottle_35_n03983396_4178.png,n03983396_4178.png,1.0,11.7962475,5.203534,4.661752
bagnet33,1,105,NaN,knife,keyboard,pow,0105_pow_dnn_pow_keyboard_35_n03085013_1698.png,n03085013_1698.png,0.0,0.39073348,8.494834,-5.7304645
bagnet33,1,106,NaN,oven,car,pow,0106_pow_dnn_pow_car_35_n03100240_7056.png,n03100240_7056.png,0.0,0.7645199,5.045418,-3.0270522
bagnet33,1,107,NaN,elephant,dog,pow,0107_pow_dnn_pow_dog_35_n02100735_3553.png,n02100735_3553.png,0.0,-0.5659446,3.042231,-2.5513656
bagnet33,1,108,NaN,oven,oven,pow,0108_pow_dnn_pow_oven_35_n04111531_11781.png,n04111531_11781.png,1.0,6.5311985,3.5161202,2.1319823
bagnet33,1,109,NaN,cat,cat,0,0109_pow_dnn_0_cat_35_n02123159_4914.png,n02123159_4914.png,1.0,12.178993,2.562632,6.7997947
bagnet33,1,110,NaN,dog,dog,0,0110_pow_dnn_0_dog_35_n02090622_1852.png,n02090622_1852.png,1.0,1.8858842,1.7569869,0.09114416
bagnet33,1,111,NaN,car,car,pow,0111_pow_dnn_pow_car_35_n03100240_24471.png,n03100240_24471.png,1.0,6.7746177,5.2333326,1.0898532
bagnet33,1,112,NaN,oven,boat,pow,0112_pow_dnn_pow_boat_35_n03344393_3519.png,n03344393_3519.png,0.0,1.3074286,4.551877,-2.2941716
bagnet33,1,113,NaN,bottle,keyboard,pow,0113_pow_dnn_pow_keyboard_35_n03085013_22713.png,n03085013_22713.png,0.0,2.1623743,10.36918,-5.8030877
bagnet33,1,114,NaN,elephant,elephant,0,0114_pow_dnn_0_elephant_35_n02504013_6615.png,n02504013_6615.png,1.0,9.755475,2.6967933,4.9912415
bagnet33,1,115,NaN,cat,cat,0,0115_pow_dnn_0_cat_35_n02123597_7081.png,n02123597_7081.png,1.0,8.085092,6.123558,1.3870137
bagnet33,1,116,NaN,clock,clock,pow,0116_pow_dnn_pow_clock_35_n04548280_5406.png,n04548280_5406.png,1.0,9.631126,4.5556684,3.5888908
bagnet33,1,117,NaN,keyboard,bottle,0,0117_pow_dnn_0_bottle_35_n03983396_21920.png,n03983396_21920.png,0.0,4.2065144,7.0879893,-2.0375106
bagnet33,1,118,NaN,knife,knife,0,0118_pow_dnn_0_knife_35_n03041632_48675.png,n03041632_48675.png,1.0,5.707732,4.053007,1.1700673
bagnet33,1,119,NaN,cat,cat,0,0119_pow_dnn_0_cat_35_n02125311_2103.png,n02125311_2103.png,1.0,3.095857,1.6830192,0.9990272
bagnet33,1,120,NaN,bear,bird,pow,0120_pow_dnn_pow_bird_35_n01798484_962.png,n01798484_962.png,0.0,0.3231726,1.5786756,-0.88777477
bagnet33,1,121,NaN,oven,oven,pow,0121_pow_dnn_pow_oven_35_n04111531_6393.png,n04111531_6393.png,1.0,6.4749393,4.031852,1.7275238
bagnet33,1,122,NaN,oven,oven,0,0122_pow_dnn_0_oven_35_n04111531_4418.png,n04111531_4418.png,1.0,12.979805,3.880434,6.434227
bagnet33,1,123,NaN,airplane,truck,pow,0123_pow_dnn_pow_truck_35_n03796401_296.png,n03796401_296.png,0.0,2.338664,4.864684,-1.786166
bagnet33,1,124,NaN,bicycle,bicycle,0,0124_pow_dnn_0_bicycle_35_n02835271_10738.png,n02835271_10738.png,1.0,11.879841,2.5712638,6.5821576
bagnet33,1,125,NaN,elephant,elephant,0,0125_pow_dnn_0_elephant_35_n02504013_4457.png,n02504013_4457.png,1.0,27.890116,5.059161,16.143923
bagnet33,1,126,NaN,knife,knife,0,0126_pow_dnn_0_knife_35_n03041632_30573.png,n03041632_30573.png,1.0,8.151836,5.1880374,2.0957224
bagnet33,1,127,NaN,boat,boat,0,0127_pow_dnn_0_boat_35_n03662601_19840.png,n03662601_19840.png,1.0,8.137998,7.521041,0.4362543
bagnet33,1,128,NaN,bear,bear,0,0128_pow_dnn_0_bear_35_n02133161_12167.png,n02133161_12167.png,1.0,12.132094,8.227313,2.7610974
bagnet33,1,129,NaN,bottle,bottle,0,0129_pow_dnn_0_bottle_35_n02823428_3028.png,n02823428_3028.png,1.0,20.925375,6.4245615,10.253624
bagnet33,1,130,NaN,airplane,boat,0,0130_pow_dnn_0_boat_35_n02951358_30149.png,n02951358_30149.png,0.0,6.365797,9.213752,-2.0138083
bagnet33,1,131,NaN,car,car,0,0131_pow_dnn_0_car_35_n02814533_75419.png,n02814533_75419.png,1.0,21.780066,15.09034,4.7303505
bagnet33,1,132,NaN,keyboard,keyboard,0,0132_pow_dnn_0_keyboard_35_n03085013_24449.png,n03085013_24449.png,1.0,15.604685,5.420157,7.201549
bagnet33,1,133,NaN,dog,dog,0,0133_pow_dnn_0_dog_35_n02086240_519.png,n02086240_519.png,1.0,7.417503,5.4139633,1.4167165
bagnet33,1,134,NaN,knife,bird,pow,0134_pow_dnn_pow_bird_35_n01582220_2882.png,n01582220_2882.png,0.0,0.87168175,6.3105073,-3.8458304
bagnet33,1,135,NaN,oven,oven,0,0135_pow_dnn_0_oven_35_n04111531_13277.png,n04111531_13277.png,1.0,13.649962,2.4942286,7.888295
bagnet33,1,136,NaN,elephant,bear,pow,0136_pow_dnn_pow_bear_35_n02134084_6901.png,n02134084_6901.png,0.0,2.7498214,5.397874,-1.8724558
bagnet33,1,137,NaN,airplane,bird,0,0137_pow_dnn_0_bird_35_n02002556_5447.png,n02002556_5447.png,0.0,1.1106075,4.66227,-2.5114048
bagnet33,1,138,NaN,keyboard,keyboard,0,0138_pow_dnn_0_keyboard_35_n03085013_20710.png,n03085013_20710.png,1.0,20.380201,5.7640347,10.335191
bagnet33,1,139,NaN,oven,oven,pow,0139_pow_dnn_pow_oven_35_n04111531_11405.png,n04111531_11405.png,1.0,5.8140926,3.365969,1.731085
bagnet33,1,140,NaN,bear,bear,pow,0140_pow_dnn_pow_bear_35_n02132136_8457.png,n02132136_8457.png,1.0,10.348437,7.067587,2.3199117
bagnet33,1,141,NaN,elephant,bird,pow,0141_pow_dnn_pow_bird_35_n02009912_6788.png,n02009912_6788.png,0.0,0.35630098,3.8229291,-2.4512763
bagnet33,1,142,NaN,clock,chair,pow,0142_pow_dnn_pow_chair_35_n04429376_9630.png,n04429376_9630.png,0.0,2.5271118,4.637634,-1.4923644
bagnet33,1,143,NaN,keyboard,keyboard,0,0143_pow_dnn_0_keyboard_35_n03085013_23658.png,n03085013_23658.png,1.0,15.0174465,7.1108837,5.590784
bagnet33,1,144,NaN,cat,cat,pow,0144_pow_dnn_pow_cat_35_n02123045_13199.png,n02123045_13199.png,1.0,11.086544,2.609959,5.993851
bagnet33,1,145,NaN,clock,clock,pow,0145_pow_dnn_pow_clock_35_n04548280_6411.png,n04548280_6411.png,1.0,16.256735,7.859053,5.938058
bagnet33,1,146,NaN,knife,bird,0,0146_pow_dnn_0_bird_35_n01820546_9729.png,n01820546_9729.png,0.0,-0.014405946,3.1035836,-2.2047515
bagnet33,1,147,NaN,airplane,boat,0,0147_pow_dnn_0_boat_35_n04273569_12651.png,n04273569_12651.png,0.0,9.328106,9.980701,-0.46145472
bagnet33,1,148,NaN,oven,elephant,pow,0148_pow_dnn_pow_elephant_35_n02504458_3143.png,n02504458_3143.png,0.0,2.343587,5.193563,-2.0152373
bagnet33,1,149,NaN,clock,clock,0,0149_pow_dnn_0_clock_35_n03196217_9786.png,n03196217_9786.png,1.0,26.917953,6.5079355,14.432063
bagnet33,1,150,NaN,chair,chair,0,0150_pow_dnn_0_chair_35_n03376595_6652.png,n03376595_6652.png,1.0,5.0392437,4.375228,0.46953008
bagnet33,1,151,NaN,oven,bottle,pow,0151_pow_dnn_pow_bottle_35_n03983396_2998.png,n03983396_2998.png,0.0,3.2915876,6.044079,-1.9463053
bagnet33,1,152,NaN,elephant,elephant,0,0152_pow_dnn_0_elephant_35_n02504458_5331.png,n02504458_5331.png,1.0,20.99665,4.842046,11.423032
bagnet33,1,153,NaN,car,car,0,0153_pow_dnn_0_car_35_n04285008_8052.png,n04285008_8052.png,1.0,17.531485,10.669052,4.852473
bagnet33,1,154,NaN,oven,bottle,pow,0154_pow_dnn_pow_bottle_35_n04591713_3402.png,n04591713_3402.png,0.0,4.743464,5.597627,-0.6039846
bagnet33,1,155,NaN,oven,bicycle,pow,0155_pow_dnn_pow_bicycle_35_n02835271_1701.png,n02835271_1701.png,0.0,2.2154028,4.424576,-1.5621212
bagnet33,1,156,NaN,bicycle,bicycle,0,0156_pow_dnn_0_bicycle_35_n02835271_5196.png,n02835271_5196.png,1.0,24.480774,6.5110593,12.706508
bagnet33,1,157,NaN,elephant,elephant,pow,0157_pow_dnn_pow_elephant_35_n02504458_5444.png,n02504458_5444.png,1.0,9.081959,2.72006,4.4985414
bagnet33,1,158,NaN,truck,truck,0,0158_pow_dnn_0_truck_35_n03417042_3422.png,n03417042_3422.png,1.0,8.430003,6.33784,1.4793828
bagnet33,1,159,NaN,elephant,dog,pow,0159_pow_dnn_pow_dog_35_n02088466_1537.png,n02088466_1537.png,0.0,0.9565814,5.8160114,-3.4361358
bagnet33,1,160,NaN,bear,dog,pow,0160_pow_dnn_pow_dog_35_n02088632_1732.png,n02088632_1732.png,0.0,5.2915187,7.2251115,-1.3672566
bagnet33,1,161,NaN,truck,truck,0,0161_pow_dnn_0_truck_35_n03796401_3326.png,n03796401_3326.png,1.0,5.059416,5.0237064,0.025250345
bagnet33,1,162,NaN,boat,boat,0,0162_pow_dnn_0_boat_35_n04273569_19796.png,n04273569_19796.png,1.0,13.177843,12.388102,0.55843157
bagnet33,1,163,NaN,keyboard,keyboard,pow,0163_pow_dnn_pow_keyboard_35_n04505470_5125.png,n04505470_5125.png,1.0,21.85218,9.973941,8.399184
bagnet33,1,164,NaN,cat,cat,pow,0164_pow_dnn_pow_cat_35_n02123394_1817.png,n02123394_1817.png,1.0,4.3309803,3.4626114,0.6140295
bagnet33,1,165,NaN,cat,cat,pow,0165_pow_dnn_pow_cat_35_n02123159_7465.png,n02123159_7465.png,1.0,6.3691506,3.3158665,2.158998
bagnet33,1,166,NaN,elephant,cat,0,0166_pow_dnn_0_cat_35_n02125311_33516.png,n02125311_33516.png,0.0,2.018033,5.289809,-2.3134952
bagnet33,1,167,NaN,oven,bicycle,pow,0167_pow_dnn_pow_bicycle_35_n03792782_30246.png,n03792782_30246.png,0.0,1.6123445,3.7814934,-1.5338199
bagnet33,1,168,NaN,airplane,truck,0,0168_pow_dnn_0_truck_35_n04467665_72639.png,n04467665_72639.png,0.0,8.749213,11.199648,-1.7327191
bagnet33,1,169,NaN,bicycle,bicycle,0,0169_pow_dnn_0_bicycle_35_n03792782_10395.png,n03792782_10395.png,1.0,12.899923,2.674093,7.230754
bagnet33,1,170,NaN,elephant,bicycle,pow,0170_pow_dnn_pow_bicycle_35_n02835271_840.png,n02835271_840.png,0.0,2.5225644,3.7011876,-0.83341247
bagnet33,1,171,NaN,knife,knife,pow,0171_pow_dnn_pow_knife_35_n03041632_82197.png,n03041632_82197.png,1.0,4.6980424,3.300689,0.9880781
bagnet33,1,172,NaN,oven,airplane,pow,0172_pow_dnn_pow_airplane_35_n02690373_8942.png,n02690373_8942.png,0.0,5.2077084,6.9644766,-1.2422228
bagnet33,1,173,NaN,keyboard,keyboard,0,0173_pow_dnn_0_keyboard_35_n03085013_21851.png,n03085013_21851.png,1.0,8.584963,5.240244,2.3650734
bagnet33,1,174,NaN,clock,clock,pow,0174_pow_dnn_pow_clock_35_n04548280_1106.png,n04548280_1106.png,1.0,20.653456,4.8035717,11.207561
bagnet33,1,175,NaN,chair,truck,0,0175_pow_dnn_0_truck_35_n03796401_4181.png,n03796401_4181.png,0.0,8.901955,9.062084,-0.11322869
bagnet33,1,176,NaN,knife,knife,pow,0176_pow_dnn_pow_knife_35_n03041632_44019.png,n03041632_44019.png,1.0,7.048286,4.8307686,1.5680217
bagnet33,1,177,NaN,truck,truck,0,0177_pow_dnn_0_truck_35_n03417042_1348.png,n03417042_1348.png,1.0,8.455206,5.7330813,1.9248328
bagnet33,1,178,NaN,chair,chair,0,0178_pow_dnn_0_chair_35_n04099969_10516.png,n04099969_10516.png,1.0,7.9839416,6.290433,1.1974914
bagnet33,1,179,NaN,clock,chair,pow,0179_pow_dnn_pow_chair_35_n04099969_24041.png,n04099969_24041.png,0.0,4.7025146,7.1210027,-1.7101293
bagnet33,1,180,NaN,airplane,truck,pow,0180_pow_dnn_pow_truck_35_n03796401_3618.png,n03796401_3618.png,0.0,2.7294407,3.8306122,-0.7786459
bagnet33,1,181,NaN,elephant,elephant,0,0181_pow_dnn_0_elephant_35_n02504458_4414.png,n02504458_4414.png,1.0,19.457867,1.5065745,12.6934805
bagnet33,1,182,NaN,airplane,truck,pow,0182_pow_dnn_pow_truck_35_n03796401_3427.png,n03796401_3427.png,0.0,6.9516025,8.519532,-1.1086937
bagnet33,1,183,NaN,cat,cat,0,0183_pow_dnn_0_cat_35_n02123045_9907.png,n02123045_9907.png,1.0,12.469533,2.0664299,7.356105
bagnet33,1,184,NaN,oven,oven,0,0184_pow_dnn_0_oven_35_n04111531_2156.png,n04111531_2156.png,1.0,6.2831078,1.7089906,3.2343893
bagnet33,1,185,NaN,knife,bird,pow,0185_pow_dnn_pow_bird_35_n02002556_12696.png,n02002556_12696.png,0.0,-1.1747674,2.0720267,-2.2958302
bagnet33,1,186,NaN,airplane,airplane,pow,0186_pow_dnn_pow_airplane_35_n02690373_8791.png,n02690373_8791.png,1.0,6.642411,5.158706,1.049138
bagnet33,1,187,NaN,knife,knife,pow,0187_pow_dnn_pow_knife_35_n03041632_27963.png,n03041632_27963.png,1.0,3.8938875,2.8100662,0.7663774
bagnet33,1,188,NaN,chair,chair,0,0188_pow_dnn_0_chair_35_n03376595_7772.png,n03376595_7772.png,1.0,7.0484943,5.7780952,0.8983078
bagnet33,1,189,NaN,knife,boat,pow,0189_pow_dnn_pow_boat_35_n04273569_3460.png,n04273569_3460.png,0.0,-0.19474629,2.183064,-1.6813657
bagnet33,1,190,NaN,oven,oven,0,0190_pow_dnn_0_oven_35_n04111531_5694.png,n04111531_5694.png,1.0,24.739517,7.6891756,12.056413
bagnet33,1,191,NaN,bear,bear,pow,0191_pow_dnn_pow_bear_35_n02134084_17218.png,n02134084_17218.png,1.0,6.695804,4.611963,1.4734983
bagnet33,1,192,NaN,oven,oven,pow,0192_pow_dnn_pow_oven_35_n04111531_2923.png,n04111531_2923.png,1.0,7.760332,4.6711245,2.1843996
bagnet33,1,193,NaN,elephant,keyboard,pow,0193_pow_dnn_pow_keyboard_35_n03085013_22669.png,n03085013_22669.png,0.0,-0.06538972,4.4761143,-3.2113283
bagnet33,1,194,NaN,bottle,bottle,pow,0194_pow_dnn_pow_bottle_35_n04557648_2282.png,n04557648_2282.png,1.0,6.936221,6.7491937,0.13224839
bagnet33,1,195,NaN,elephant,elephant,pow,0195_pow_dnn_pow_elephant_35_n02504013_6693.png,n02504013_6693.png,1.0,8.943576,3.9919882,3.5013013
bagnet33,1,196,NaN,chair,chair,0,0196_pow_dnn_0_chair_35_n04099969_39507.png,n04099969_39507.png,1.0,5.1847334,3.4702923,1.2122929
bagnet33,1,197,NaN,oven,car,pow,0197_pow_dnn_pow_car_35_n02814533_61184.png,n02814533_61184.png,0.0,2.88755,5.499107,-1.8466495
bagnet33,1,198,NaN,clock,keyboard,pow,0198_pow_dnn_pow_keyboard_35_n04505470_1358.png,n04505470_1358.png,0.0,1.3269565,5.34717,-2.84272
bagnet33,1,199,NaN,oven,truck,pow,0199_pow_dnn_pow_truck_35_n04467665_8824.png,n04467665_8824.png,0.0,6.0295305,6.4774346,-0.31671605
bagnet33,1,200,NaN,keyboard,keyboard,0,0200_pow_dnn_0_keyboard_35_n04505470_8937.png,n04505470_8937.png,1.0,16.665201,6.122128,7.455079
bagnet33,1,201,NaN,airplane,truck,pow,0201_pow_dnn_pow_truck_35_n03417042_7581.png,n03417042_7581.png,0.0,3.2345371,5.4280953,-1.5510799
bagnet33,1,202,NaN,bicycle,bicycle,pow,0202_pow_dnn_pow_bicycle_35_n02835271_13234.png,n02835271_13234.png,1.0,6.221658,2.900763,2.3482275
bagnet33,1,203,NaN,cat,cat,pow,0203_pow_dnn_pow_cat_35_n02124075_3383.png,n02124075_3383.png,1.0,15.167848,3.9631433,7.9229226
bagnet33,1,204,NaN,elephant,elephant,pow,0204_pow_dnn_pow_elephant_35_n02504013_474.png,n02504013_474.png,1.0,3.5544724,1.7144053,1.301124
bagnet33,1,205,NaN,oven,chair,pow,0205_pow_dnn_pow_chair_35_n04429376_1838.png,n04429376_1838.png,0.0,1.8184001,4.5773735,-1.9508888
bagnet33,1,206,NaN,oven,boat,pow,0206_pow_dnn_pow_boat_35_n02951358_5064.png,n02951358_5064.png,0.0,-0.071901485,4.1891212,-3.012998
bagnet33,1,207,NaN,elephant,knife,pow,0207_pow_dnn_pow_knife_35_n03041632_31037.png,n03041632_31037.png,0.0,5.648472,6.616512,-0.68450767
bagnet33,1,208,NaN,cat,cat,pow,0208_pow_dnn_pow_cat_35_n02123045_11501.png,n02123045_11501.png,1.0,6.903616,1.9089059,3.5317934
bagnet33,1,209,NaN,knife,keyboard,pow,0209_pow_dnn_pow_keyboard_35_n03085013_17937.png,n03085013_17937.png,0.0,0.43362615,8.931184,-6.008681
bagnet33,1,210,NaN,chair,chair,0,0210_pow_dnn_0_chair_35_n03376595_10881.png,n03376595_10881.png,1.0,10.03085,2.9736357,4.9902043
bagnet33,1,211,NaN,elephant,elephant,0,0211_pow_dnn_0_elephant_35_n02504458_7302.png,n02504458_7302.png,1.0,16.203207,3.4706929,9.003247
bagnet33,1,212,NaN,airplane,airplane,pow,0212_pow_dnn_pow_airplane_35_n02690373_4704.png,n02690373_4704.png,1.0,9.729493,5.0076156,3.3388717
bagnet33,1,213,NaN,car,car,0,0213_pow_dnn_0_car_35_n03100240_18756.png,n03100240_18756.png,1.0,21.561148,9.901113,8.24489
bagnet33,1,214,NaN,oven,keyboard,pow,0214_pow_dnn_pow_keyboard_35_n03085013_20732.png,n03085013_20732.png,0.0,0.38102275,3.9460416,-2.520849
bagnet33,1,215,NaN,bottle,bottle,pow,0215_pow_dnn_pow_bottle_35_n04579145_2999.png,n04579145_2999.png,1.0,5.2675786,4.975377,0.20661768
bagnet33,1,216,NaN,clock,clock,pow,0216_pow_dnn_pow_clock_35_n02708093_2546.png,n02708093_2546.png,1.0,19.422827,7.230204,8.621487
bagnet33,1,217,NaN,knife,boat,0,0217_pow_dnn_0_boat_35_n03662601_13847.png,n03662601_13847.png,0.0,2.5556617,2.7454696,-0.13421445
bagnet33,1,218,NaN,bicycle,bicycle,0,0218_pow_dnn_0_bicycle_35_n03792782_7878.png,n03792782_7878.png,1.0,25.734379,9.41385,11.540358
bagnet33,1,219,NaN,knife,knife,pow,0219_pow_dnn_pow_knife_35_n03041632_18959.png,n03041632_18959.png,1.0,3.6596084,2.5752833,0.76673365
bagnet33,1,220,NaN,bear,bear,0,0220_pow_dnn_0_bear_35_n02134418_10576.png,n02134418_10576.png,1.0,22.10096,10.76198,8.01787
bagnet33,1,221,NaN,elephant,elephant,pow,0221_pow_dnn_pow_elephant_35_n02504013_213.png,n02504013_213.png,1.0,7.0053415,2.795859,2.9765534
bagnet33,1,222,NaN,clock,bottle,pow,0222_pow_dnn_pow_bottle_35_n03983396_2944.png,n03983396_2944.png,0.0,2.5572011,4.2252936,-1.1795195
bagnet33,1,223,NaN,airplane,truck,0,0223_pow_dnn_0_truck_35_n03796401_8964.png,n03796401_8964.png,0.0,4.001642,5.4736495,-1.0408664
bagnet33,1,224,NaN,clock,knife,pow,0224_pow_dnn_pow_knife_35_n03041632_13509.png,n03041632_13509.png,0.0,4.702073,5.179312,-0.33745903
bagnet33,1,225,NaN,oven,bird,pow,0225_pow_dnn_pow_bird_35_n01537544_7301.png,n01537544_7301.png,0.0,-2.0261173,4.884022,-4.8862066
bagnet33,1,226,NaN,elephant,elephant,0,0226_pow_dnn_0_elephant_35_n02504013_9618.png,n02504013_9618.png,1.0,16.302057,3.2969065,9.196031
bagnet33,1,227,NaN,clock,keyboard,pow,0227_pow_dnn_pow_keyboard_35_n04505470_10191.png,n04505470_10191.png,0.0,3.854884,5.9140606,-1.4560578
bagnet33,1,228,NaN,bicycle,bicycle,pow,0228_pow_dnn_pow_bicycle_35_n02835271_20149.png,n02835271_20149.png,1.0,8.420204,6.0580535,1.6702927
bagnet33,1,229,NaN,truck,truck,0,0229_pow_dnn_0_truck_35_n04467665_2098.png,n04467665_2098.png,1.0,13.210529,8.834427,3.0943718
bagnet33,1,230,NaN,dog,bear,0,0230_pow_dnn_0_bear_35_n02133161_5274.png,n02133161_5274.png,0.0,5.8358555,7.041553,-0.85255694
bagnet33,1,231,NaN,oven,bird,pow,0231_pow_dnn_pow_bird_35_n01537544_20224.png,n01537544_20224.png,0.0,-0.30143473,1.8778806,-1.5410087
bagnet33,1,232,NaN,bear,dog,pow,0232_pow_dnn_pow_dog_35_n02094258_6800.png,n02094258_6800.png,0.0,6.5661035,6.785868,-0.15539712
bagnet33,1,233,NaN,truck,truck,0,0233_pow_dnn_0_truck_35_n03417042_27326.png,n03417042_27326.png,1.0,11.032566,6.583074,3.146266
bagnet33,1,234,NaN,oven,oven,pow,0234_pow_dnn_pow_oven_35_n04111531_6955.png,n04111531_6955.png,1.0,8.297435,5.871118,1.7156651
bagnet33,1,235,NaN,clock,clock,0,0235_pow_dnn_0_clock_35_n04548280_7135.png,n04548280_7135.png,1.0,13.659747,4.874578,6.2120533
bagnet33,1,236,NaN,elephant,dog,pow,0236_pow_dnn_pow_dog_35_n02113023_12143.png,n02113023_12143.png,0.0,0.034057286,4.1677866,-2.9229882
bagnet33,1,237,NaN,bicycle,bicycle,0,0237_pow_dnn_0_bicycle_35_n02835271_10832.png,n02835271_10832.png,1.0,10.522231,6.110373,3.119655
bagnet33,1,238,NaN,clock,chair,pow,0238_pow_dnn_pow_chair_35_n02791124_28.png,n02791124_28.png,0.0,3.8740292,7.295179,-2.4191182
bagnet33,1,239,NaN,bicycle,bicycle,pow,0239_pow_dnn_pow_bicycle_35_n03792782_1715.png,n03792782_1715.png,1.0,6.8552527,4.926164,1.3640716
bagnet33,1,240,NaN,bicycle,bicycle,0,0240_pow_dnn_0_bicycle_35_n02835271_19875.png,n02835271_19875.png,1.0,21.723997,4.404236,12.246921
bagnet33,1,241,NaN,bicycle,bird,0,0241_pow_dnn_0_bird_35_n02056570_8203.png,n02056570_8203.png,0.0,1.2914776,2.104736,-0.5750606
bagnet33,1,242,NaN,truck,car,pow,0242_pow_dnn_pow_car_35_n02814533_27588.png,n02814533_27588.png,0.0,2.35514,4.9701643,-1.8491014
bagnet33,1,243,NaN,bear,bear,0,0243_pow_dnn_0_bear_35_n02134418_2714.png,n02134418_2714.png,1.0,3.3992102,1.8469284,1.0976291
bagnet33,1,244,NaN,bear,bear,0,0244_pow_dnn_0_bear_35_n02132136_900.png,n02132136_900.png,1.0,12.58224,5.92414,4.707988
bagnet33,1,245,NaN,dog,dog,0,0245_pow_dnn_0_dog_35_n02095889_7413.png,n02095889_7413.png,1.0,6.9313865,3.3323858,2.5448778
bagnet33,1,246,NaN,clock,boat,0,0246_pow_dnn_0_boat_35_n02951358_14877.png,n02951358_14877.png,0.0,2.7230008,4.277752,-1.0993751
bagnet33,1,247,NaN,knife,knife,pow,0247_pow_dnn_pow_knife_35_n03041632_42472.png,n03041632_42472.png,1.0,5.323412,2.9319293,1.6910336
bagnet33,1,248,NaN,bottle,bottle,pow,0248_pow_dnn_pow_bottle_35_n02823428_12740.png,n02823428_12740.png,1.0,7.140963,6.9353347,0.14540124
bagnet33,1,249,NaN,boat,boat,0,0249_pow_dnn_0_boat_35_n02951358_2537.png,n02951358_2537.png,1.0,12.548651,7.098526,3.8538203
bagnet33,1,250,NaN,knife,dog,0,0250_pow_dnn_0_dog_35_n02106166_5135.png,n02106166_5135.png,0.0,5.846018,6.360141,-0.36353984
bagnet33,1,251,NaN,oven,oven,pow,0251_pow_dnn_pow_oven_35_n04111531_23046.png,n04111531_23046.png,1.0,4.4482384,4.1725655,0.1949302
bagnet33,1,252,NaN,elephant,dog,pow,0252_pow_dnn_pow_dog_35_n02105855_3310.png,n02105855_3310.png,0.0,-0.31974384,3.3008046,-2.5601144
bagnet33,1,253,NaN,knife,bird,0,0253_pow_dnn_0_bird_35_n01843383_2122.png,n01843383_2122.png,0.0,-0.011499186,2.9186234,-2.0719097
bagnet33,1,254,NaN,oven,boat,pow,0254_pow_dnn_pow_boat_35_n03344393_8407.png,n03344393_8407.png,0.0,-0.078256175,5.262586,-3.7765458
bagnet33,1,255,NaN,clock,clock,pow,0255_pow_dnn_pow_clock_35_n04548280_4739.png,n04548280_4739.png,1.0,8.646222,3.7803948,3.4406598
bagnet33,1,256,NaN,keyboard,keyboard,0,0256_pow_dnn_0_keyboard_35_n04505470_3531.png,n04505470_3531.png,1.0,24.47725,9.439143,10.633547
bagnet33,1,257,NaN,airplane,airplane,pow,0257_pow_dnn_pow_airplane_35_n02690373_7740.png,n02690373_7740.png,1.0,7.539625,3.181038,3.0819867
bagnet33,1,258,NaN,bear,bear,pow,0258_pow_dnn_pow_bear_35_n02132136_4699.png,n02132136_4699.png,1.0,11.874474,5.319377,4.6351533
bagnet33,1,259,NaN,airplane,airplane,pow,0259_pow_dnn_pow_airplane_35_n02690373_5277.png,n02690373_5277.png,1.0,9.148357,4.975721,2.9504995
bagnet33,1,260,NaN,clock,clock,pow,0260_pow_dnn_pow_clock_35_n04548280_8841.png,n04548280_8841.png,1.0,12.263997,4.4315166,5.5384
bagnet33,1,261,NaN,oven,truck,pow,0261_pow_dnn_pow_truck_35_n03796401_142.png,n03796401_142.png,0.0,3.640924,5.154155,-1.0700158
bagnet33,1,262,NaN,elephant,bear,pow,0262_pow_dnn_pow_bear_35_n02134418_4666.png,n02134418_4666.png,0.0,2.4143972,3.091122,-0.4785166
bagnet33,1,263,NaN,chair,chair,0,0263_pow_dnn_0_chair_35_n04429376_17074.png,n04429376_17074.png,1.0,7.3505735,5.7835245,1.108071
bagnet33,1,264,NaN,dog,dog,0,0264_pow_dnn_0_dog_35_n02107683_1934.png,n02107683_1934.png,1.0,10.696599,1.9617674,6.176459
bagnet33,1,265,NaN,knife,bicycle,0,0265_pow_dnn_0_bicycle_35_n03792782_3765.png,n03792782_3765.png,0.0,4.0158086,4.5725946,-0.39370722
bagnet33,1,266,NaN,elephant,elephant,pow,0266_pow_dnn_pow_elephant_35_n02504013_7026.png,n02504013_7026.png,1.0,8.605047,3.2142715,3.8118541
bagnet33,1,267,NaN,knife,clock,pow,0267_pow_dnn_pow_clock_35_n03196217_3063.png,n03196217_3063.png,0.0,0.2298305,3.2885277,-2.1628256
bagnet33,1,268,NaN,knife,bear,pow,0268_pow_dnn_pow_bear_35_n02134418_1041.png,n02134418_1041.png,0.0,1.6154503,4.467863,-2.0169604
bagnet33,1,269,NaN,clock,boat,pow,0269_pow_dnn_pow_boat_35_n03344393_8258.png,n03344393_8258.png,0.0,2.9196067,6.5493793,-2.5666368
bagnet33,1,270,NaN,oven,oven,0,0270_pow_dnn_0_oven_35_n04111531_10306.png,n04111531_10306.png,1.0,21.679146,5.2934265,11.586453
bagnet33,1,271,NaN,clock,bottle,0,0271_pow_dnn_0_bottle_35_n02823428_641.png,n02823428_641.png,0.0,4.3803153,5.7650123,-0.9791286
bagnet33,1,272,NaN,bottle,oven,pow,0272_pow_dnn_pow_oven_35_n04111531_1873.png,n04111531_1873.png,0.0,4.2403994,4.5485272,-0.21787931
bagnet33,1,273,NaN,bear,bear,0,0273_pow_dnn_0_bear_35_n02134418_559.png,n02134418_559.png,1.0,4.4846554,2.9839747,1.0611415
bagnet33,1,274,NaN,keyboard,keyboard,pow,0274_pow_dnn_pow_keyboard_35_n04505470_4844.png,n04505470_4844.png,1.0,18.727695,6.1415334,8.899761
bagnet33,1,275,NaN,keyboard,keyboard,0,0275_pow_dnn_0_keyboard_35_n03085013_23291.png,n03085013_23291.png,1.0,15.549744,8.940037,4.6737685
bagnet33,1,276,NaN,car,car,0,0276_pow_dnn_0_car_35_n03100240_5808.png,n03100240_5808.png,1.0,11.157342,9.225848,1.3657724
bagnet33,1,277,NaN,knife,bear,0,0277_pow_dnn_0_bear_35_n02134084_15968.png,n02134084_15968.png,0.0,1.2520247,2.8040128,-1.0974213
bagnet33,1,278,NaN,elephant,cat,0,0278_pow_dnn_0_cat_35_n02125311_20238.png,n02125311_20238.png,0.0,1.6058626,4.778832,-2.2436283
bagnet33,1,279,NaN,bird,bird,0,0279_pow_dnn_0_bird_35_n02028035_8994.png,n02028035_8994.png,1.0,7.697193,5.9573083,1.2302845
bagnet33,1,280,NaN,airplane,airplane,pow,0280_pow_dnn_pow_airplane_35_n02690373_4471.png,n02690373_4471.png,1.0,12.511578,7.9654303,3.2146118
bagnet33,1,281,NaN,truck,truck,0,0281_pow_dnn_0_truck_35_n03796401_322.png,n03796401_322.png,1.0,18.421453,16.350586,1.4643245
bagnet33,1,282,NaN,airplane,car,pow,0282_pow_dnn_pow_car_35_n04285008_402.png,n04285008_402.png,0.0,3.085287,4.7209783,-1.1566083
bagnet33,1,283,NaN,oven,oven,0,0283_pow_dnn_0_oven_35_n04111531_807.png,n04111531_807.png,1.0,14.802443,7.22665,5.356894
bagnet33,1,284,NaN,oven,oven,0,0284_pow_dnn_0_oven_35_n04111531_20369.png,n04111531_20369.png,1.0,8.114391,2.7719562,3.777672
bagnet33,1,285,NaN,knife,knife,pow,0285_pow_dnn_pow_knife_35_n03041632_24114.png,n03041632_24114.png,1.0,7.481693,5.138955,1.6565657
bagnet33,1,286,NaN,dog,dog,0,0286_pow_dnn_0_dog_35_n02093256_1102.png,n02093256_1102.png,1.0,6.536997,5.433758,0.78010786
bagnet33,1,287,NaN,bottle,bottle,0,0287_pow_dnn_0_bottle_35_n03983396_17636.png,n03983396_17636.png,1.0,14.697164,4.5881157,7.1481767
bagnet33,1,288,NaN,bird,bird,0,0288_pow_dnn_0_bird_35_n01855672_55167.png,n01855672_55167.png,1.0,4.9757857,4.6035147,0.2632354
bagnet33,1,289,NaN,bottle,bottle,0,0289_pow_dnn_0_bottle_35_n02823428_1149.png,n02823428_1149.png,1.0,11.083733,5.3045144,4.0865245
bagnet33,1,290,NaN,oven,truck,pow,0290_pow_dnn_pow_truck_35_n03417042_1182.png,n03417042_1182.png,0.0,2.4985561,4.8953185,-1.694767
bagnet33,1,291,NaN,bear,bear,0,0291_pow_dnn_0_bear_35_n02134084_22051.png,n02134084_22051.png,1.0,12.183962,8.371407,2.6958838
bagnet33,1,292,NaN,elephant,cat,pow,0292_pow_dnn_pow_cat_35_n02123159_5170.png,n02123159_5170.png,0.0,3.451874,6.8502083,-2.4029853
bagnet33,1,293,NaN,airplane,airplane,pow,0293_pow_dnn_pow_airplane_35_n02690373_4042.png,n02690373_4042.png,1.0,7.676573,3.9351947,2.6455538
bagnet33,1,294,NaN,airplane,airplane,pow,0294_pow_dnn_pow_airplane_35_n02690373_6231.png,n02690373_6231.png,1.0,9.936249,5.7452946,2.963452
bagnet33,1,295,NaN,elephant,bear,0,0295_pow_dnn_0_bear_35_n02134418_4657.png,n02134418_4657.png,0.0,1.9835753,3.4397144,-1.0296458
bagnet33,1,296,NaN,car,car,0,0296_pow_dnn_0_car_35_n03100240_24505.png,n03100240_24505.png,1.0,7.907246,5.067714,2.0078523
bagnet33,1,297,NaN,boat,bird,0,0297_pow_dnn_0_bird_35_n02006656_4031.png,n02006656_4031.png,0.0,2.6109684,3.4414062,-0.5872083
bagnet33,1,298,NaN,truck,truck,0,0298_pow_dnn_0_truck_35_n03796401_20861.png,n03796401_20861.png,1.0,9.010693,7.854741,0.81738114
bagnet33,1,299,NaN,truck,truck,0,0299_pow_dnn_0_truck_35_n03417042_4934.png,n03417042_4934.png,1.0,7.7394266,7.3852906,0.25041196
bagnet33,1,300,NaN,bicycle,bird,0,0300_pow_dnn_0_bird_35_n01824575_3046.png,n01824575_3046.png,0.0,-0.96133316,3.9335082,-3.4611754
bagnet33,1,301,NaN,elephant,elephant,pow,0301_pow_dnn_pow_elephant_35_n02504458_3463.png,n02504458_3463.png,1.0,9.040474,3.6113772,3.838951
bagnet33,1,302,NaN,airplane,airplane,0,0302_pow_dnn_0_airplane_35_n02690373_6914.png,n02690373_6914.png,1.0,15.184504,5.596923,6.7794433
bagnet33,1,303,NaN,bottle,bottle,0,0303_pow_dnn_0_bottle_35_n03983396_3675.png,n03983396_3675.png,1.0,8.291783,5.3786836,2.0598726
bagnet33,1,304,NaN,elephant,dog,pow,0304_pow_dnn_pow_dog_35_n02088364_12272.png,n02088364_12272.png,0.0,2.6477442,4.8117056,-1.5301518
bagnet33,1,305,NaN,dog,dog,0,0305_pow_dnn_0_dog_35_n02085936_1706.png,n02085936_1706.png,1.0,6.581125,2.6808338,2.7579222
bagnet33,1,306,NaN,elephant,bear,0,0306_pow_dnn_0_bear_35_n02134084_18372.png,n02134084_18372.png,0.0,3.9553058,6.16291,-1.5610119
bagnet33,1,307,NaN,keyboard,keyboard,0,0307_pow_dnn_0_keyboard_35_n04505470_751.png,n04505470_751.png,1.0,29.44151,6.6585107,16.110014
bagnet33,1,308,NaN,elephant,bird,0,0308_pow_dnn_0_bird_35_n02018207_19525.png,n02018207_19525.png,0.0,2.423915,4.6319227,-1.5612973
bagnet33,1,309,NaN,clock,bicycle,pow,0309_pow_dnn_pow_bicycle_35_n02835271_3329.png,n02835271_3329.png,0.0,2.668674,4.713612,-1.4459896
bagnet33,1,310,NaN,clock,clock,pow,0310_pow_dnn_pow_clock_35_n04548280_1960.png,n04548280_1960.png,1.0,11.858912,6.882722,3.5186982
bagnet33,1,311,NaN,chair,chair,0,0311_pow_dnn_0_chair_35_n03376595_6240.png,n03376595_6240.png,1.0,14.282241,6.3618674,5.6005497
bagnet33,1,312,NaN,knife,knife,pow,0312_pow_dnn_pow_knife_35_n03041632_13194.png,n03041632_13194.png,1.0,6.5847836,3.7575219,1.9991759
bagnet33,1,313,NaN,bicycle,knife,0,0313_pow_dnn_0_knife_35_n03041632_13465.png,n03041632_13465.png,0.0,1.3104024,4.837186,-2.4938126
bagnet33,1,314,NaN,cat,cat,pow,0314_pow_dnn_pow_cat_35_n02125311_10174.png,n02125311_10174.png,1.0,9.075614,3.504792,3.9391658
bagnet33,1,315,NaN,airplane,car,pow,0315_pow_dnn_pow_car_35_n02814533_7420.png,n02814533_7420.png,0.0,2.3167334,5.278827,-2.0945168
bagnet33,1,316,NaN,airplane,truck,pow,0316_pow_dnn_pow_truck_35_n04467665_3876.png,n04467665_3876.png,0.0,3.2247105,4.0361524,-0.57377607
bagnet33,1,317,NaN,airplane,airplane,0,0317_pow_dnn_0_airplane_35_n02690373_12976.png,n02690373_12976.png,1.0,12.264205,6.4909706,4.082293
bagnet33,1,318,NaN,knife,bear,pow,0318_pow_dnn_pow_bear_35_n02133161_10441.png,n02133161_10441.png,0.0,1.5173025,4.4841075,-2.097848
bagnet33,1,319,NaN,knife,chair,pow,0319_pow_dnn_pow_chair_35_n03376595_13703.png,n03376595_13703.png,0.0,2.9796321,4.8789754,-1.3430386
bagnet33,1,320,NaN,bicycle,bicycle,pow,0320_pow_dnn_pow_bicycle_35_n03792782_11625.png,n03792782_11625.png,1.0,4.861452,3.3616352,1.0605307
bagnet33,1,321,NaN,oven,oven,pow,0321_pow_dnn_pow_oven_35_n04111531_22797.png,n04111531_22797.png,1.0,6.706623,2.6639893,2.858574
bagnet33,1,322,NaN,oven,chair,pow,0322_pow_dnn_pow_chair_35_n03376595_9651.png,n03376595_9651.png,0.0,2.6646714,6.7680073,-2.9014966
bagnet33,1,323,NaN,knife,bicycle,pow,0323_pow_dnn_pow_bicycle_35_n03792782_4830.png,n03792782_4830.png,0.0,1.870101,2.910371,-0.73558205
bagnet33,1,324,NaN,knife,elephant,pow,0324_pow_dnn_pow_elephant_35_n02504013_7191.png,n02504013_7191.png,0.0,0.8192769,4.2149954,-2.4011357
bagnet33,1,325,NaN,knife,knife,0,0325_pow_dnn_0_knife_35_n03041632_120.png,n03041632_120.png,1.0,9.54059,2.5215116,4.9632382
bagnet33,1,326,NaN,airplane,airplane,pow,0326_pow_dnn_pow_airplane_35_n02690373_5465.png,n02690373_5465.png,1.0,5.4865685,4.8842835,0.42587975
bagnet33,1,327,NaN,airplane,car,pow,0327_pow_dnn_pow_car_35_n04285008_8443.png,n04285008_8443.png,0.0,5.172153,6.3524833,-0.8346196
bagnet33,1,328,NaN,bottle,bottle,0,0328_pow_dnn_0_bottle_35_n04557648_132.png,n04557648_132.png,1.0,15.715035,5.156124,7.466278
bagnet33,1,329,NaN,airplane,airplane,pow,0329_pow_dnn_pow_airplane_35_n02690373_18304.png,n02690373_18304.png,1.0,10.326737,4.163256,4.3582397
bagnet33,1,330,NaN,knife,knife,pow,0330_pow_dnn_pow_knife_35_n03041632_102764.png,n03041632_102764.png,1.0,4.3797746,2.890073,1.0533781
bagnet33,1,331,NaN,bottle,chair,pow,0331_pow_dnn_pow_chair_35_n02791124_16913.png,n02791124_16913.png,0.0,5.417654,5.8678374,-0.31832772
bagnet33,1,332,NaN,bicycle,bicycle,pow,0332_pow_dnn_pow_bicycle_35_n02835271_324.png,n02835271_324.png,1.0,8.474273,3.9350476,3.2097168
bagnet33,1,333,NaN,airplane,airplane,pow,0333_pow_dnn_pow_airplane_35_n02690373_12966.png,n02690373_12966.png,1.0,8.417879,3.0878873,3.7688735
bagnet33,1,334,NaN,knife,keyboard,pow,0334_pow_dnn_pow_keyboard_35_n03085013_24653.png,n03085013_24653.png,0.0,0.2871353,7.8250017,-5.3300767
bagnet33,1,335,NaN,bicycle,bicycle,0,0335_pow_dnn_0_bicycle_35_n03792782_18529.png,n03792782_18529.png,1.0,11.023805,4.797817,4.402438
bagnet33,1,336,NaN,airplane,airplane,pow,0336_pow_dnn_pow_airplane_35_n02690373_2433.png,n02690373_2433.png,1.0,11.814131,4.0316544,5.5030417
bagnet33,1,337,NaN,elephant,cat,0,0337_pow_dnn_0_cat_35_n02125311_28447.png,n02125311_28447.png,0.0,1.4904585,4.569068,-2.1769056
bagnet33,1,338,NaN,knife,knife,0,0338_pow_dnn_0_knife_35_n03041632_20504.png,n03041632_20504.png,1.0,13.882844,3.114775,7.614175
bagnet33,1,339,NaN,bicycle,bear,pow,0339_pow_dnn_pow_bear_35_n02132136_15870.png,n02132136_15870.png,0.0,1.3728657,1.8558371,-0.34151238
bagnet33,1,340,NaN,car,car,0,0340_pow_dnn_0_car_35_n02814533_11273.png,n02814533_11273.png,1.0,14.276439,10.991401,2.3228726
bagnet33,1,341,NaN,elephant,elephant,0,0341_pow_dnn_0_elephant_35_n02504013_2476.png,n02504013_2476.png,1.0,15.190903,1.9060135,9.393835
bagnet33,1,342,NaN,elephant,bear,0,0342_pow_dnn_0_bear_35_n02133161_14945.png,n02133161_14945.png,0.0,2.319829,4.1805143,-1.3157033
bagnet33,1,343,NaN,car,car,0,0343_pow_dnn_0_car_35_n04285008_7870.png,n04285008_7870.png,1.0,7.9809356,7.6772623,0.21472943
bagnet33,1,344,NaN,airplane,airplane,0,0344_pow_dnn_0_airplane_35_n02690373_10129.png,n02690373_10129.png,1.0,29.982845,9.609202,14.406341
bagnet33,1,345,NaN,oven,truck,pow,0345_pow_dnn_pow_truck_35_n03417042_1479.png,n03417042_1479.png,0.0,2.1522524,4.180594,-1.434254
bagnet33,1,346,NaN,knife,boat,pow,0346_pow_dnn_pow_boat_35_n04612504_10662.png,n04612504_10662.png,0.0,0.6304599,3.7718134,-2.2212725
bagnet33,1,347,NaN,knife,bird,0,0347_pow_dnn_0_bird_35_n02056570_5891.png,n02056570_5891.png,0.0,-0.051037848,4.0217648,-2.8799064
bagnet33,1,348,NaN,elephant,elephant,pow,0348_pow_dnn_pow_elephant_35_n02504458_5982.png,n02504458_5982.png,1.0,3.8373592,2.6689215,0.82621026
bagnet33,1,349,NaN,truck,truck,pow,0349_pow_dnn_pow_truck_35_n03417042_19955.png,n03417042_19955.png,1.0,6.026378,5.3533964,0.47586995
bagnet33,1,350,NaN,oven,oven,0,0350_pow_dnn_0_oven_35_n04111531_6120.png,n04111531_6120.png,1.0,12.328056,5.34743,4.936048
bagnet33,1,351,NaN,oven,oven,0,0351_pow_dnn_0_oven_35_n04111531_4750.png,n04111531_4750.png,1.0,12.313929,4.171822,5.757339
bagnet33,1,352,NaN,boat,boat,0,0352_pow_dnn_0_boat_35_n02951358_29779.png,n02951358_29779.png,1.0,7.083988,5.4762516,1.1368414
bagnet33,1,353,NaN,bottle,bear,0,0353_pow_dnn_0_bear_35_n02134084_14168.png,n02134084_14168.png,0.0,1.4898202,3.0638652,-1.1130179
bagnet33,1,354,NaN,cat,cat,0,0354_pow_dnn_0_cat_35_n02123597_6990.png,n02123597_6990.png,1.0,4.183492,4.0683002,0.081453
bagnet33,1,355,NaN,chair,chair,0,0355_pow_dnn_0_chair_35_n02791124_2008.png,n02791124_2008.png,1.0,11.44185,6.7531366,3.3154209
bagnet33,1,356,NaN,airplane,car,pow,0356_pow_dnn_pow_car_35_n04285008_2185.png,n04285008_2185.png,0.0,1.9056047,7.631813,-4.049041
bagnet33,1,357,NaN,elephant,bear,0,0357_pow_dnn_0_bear_35_n02134084_13205.png,n02134084_13205.png,0.0,5.8679924,6.1082563,-0.16989227
bagnet33,1,358,NaN,elephant,bird,pow,0358_pow_dnn_pow_bird_35_n01558993_6351.png,n01558993_6351.png,0.0,-0.6057315,2.5351882,-2.2209656
bagnet33,1,359,NaN,bicycle,bicycle,0,0359_pow_dnn_0_bicycle_35_n02835271_8017.png,n02835271_8017.png,1.0,12.147373,9.360719,1.9704623
bagnet33,1,360,NaN,cat,cat,0,0360_pow_dnn_0_cat_35_n02124075_4189.png,n02124075_4189.png,1.0,21.712938,4.941659,11.859085
bagnet33,1,361,NaN,elephant,elephant,pow,0361_pow_dnn_pow_elephant_35_n02504458_3616.png,n02504458_3616.png,1.0,9.033536,2.5477898,4.5861154
bagnet33,1,362,NaN,airplane,boat,pow,0362_pow_dnn_pow_boat_35_n04612504_8636.png,n04612504_8636.png,0.0,2.5309544,4.292204,-1.2453915
bagnet33,1,363,NaN,car,car,pow,0363_pow_dnn_pow_car_35_n03100240_10502.png,n03100240_10502.png,1.0,5.627211,5.5212274,0.07494182
bagnet33,1,364,NaN,bottle,bottle,0,0364_pow_dnn_0_bottle_35_n03983396_2271.png,n03983396_2271.png,1.0,13.111415,5.553356,5.3443546
bagnet33,1,365,NaN,clock,clock,0,0365_pow_dnn_0_clock_35_n04548280_280.png,n04548280_280.png,1.0,24.258951,4.746168,13.797622
bagnet33,1,366,NaN,airplane,truck,0,0366_pow_dnn_0_truck_35_n04467665_356.png,n04467665_356.png,0.0,5.7077885,12.637566,-4.9000926
bagnet33,1,367,NaN,airplane,airplane,0,0367_pow_dnn_0_airplane_35_n02690373_306.png,n02690373_306.png,1.0,26.959532,9.486507,12.355294
bagnet33,1,368,NaN,oven,bird,pow,0368_pow_dnn_pow_bird_35_n02007558_11331.png,n02007558_11331.png,0.0,0.32417026,7.058874,-4.762155
bagnet33,1,369,NaN,knife,dog,0,0369_pow_dnn_0_dog_35_n02105162_1003.png,n02105162_1003.png,0.0,2.5734787,3.3995733,-0.58413714
bagnet33,1,370,NaN,oven,bird,pow,0370_pow_dnn_pow_bird_35_n01534433_11695.png,n01534433_11695.png,0.0,-0.9019262,3.998176,-3.4648955
bagnet33,1,371,NaN,oven,oven,0,0371_pow_dnn_0_oven_35_n04111531_19631.png,n04111531_19631.png,1.0,22.841167,6.495875,11.557868
bagnet33,1,372,NaN,elephant,elephant,pow,0372_pow_dnn_pow_elephant_35_n02504013_8534.png,n02504013_8534.png,1.0,7.1700916,3.2011006,2.8065004
bagnet33,1,373,NaN,airplane,oven,0,0373_pow_dnn_0_oven_35_n04111531_10436.png,n04111531_10436.png,0.0,6.515258,6.9556327,-0.31139204
bagnet33,1,374,NaN,airplane,airplane,pow,0374_pow_dnn_pow_airplane_35_n02690373_1819.png,n02690373_1819.png,1.0,7.6433516,4.4556575,2.2540402
bagnet33,1,375,NaN,knife,cat,0,0375_pow_dnn_0_cat_35_n02123597_14032.png,n02123597_14032.png,0.0,1.1408433,2.7252455,-1.1203415
bagnet33,1,376,NaN,elephant,elephant,0,0376_pow_dnn_0_elephant_35_n02504013_10922.png,n02504013_10922.png,1.0,9.557552,2.3082645,5.1260204
bagnet33,1,377,NaN,boat,boat,0,0377_pow_dnn_0_boat_35_n03662601_81.png,n03662601_81.png,1.0,6.137323,5.6625376,0.33572394
bagnet33,1,378,NaN,knife,bottle,pow,0378_pow_dnn_pow_bottle_35_n03937543_11347.png,n03937543_11347.png,0.0,4.803454,5.4289675,-0.44230488
bagnet33,1,379,NaN,elephant,knife,pow,0379_pow_dnn_pow_knife_35_n03041632_85416.png,n03041632_85416.png,0.0,3.9194417,3.963525,-0.03117164
bagnet33,1,380,NaN,oven,car,pow,0380_pow_dnn_pow_car_35_n03100240_15676.png,n03100240_15676.png,0.0,1.737454,3.3190649,-1.1183678
bagnet33,1,381,NaN,oven,oven,0,0381_pow_dnn_0_oven_35_n04111531_4189.png,n04111531_4189.png,1.0,10.217993,6.1545115,2.8733153
bagnet33,1,382,NaN,airplane,car,pow,0382_pow_dnn_pow_car_35_n02814533_65623.png,n02814533_65623.png,0.0,4.813184,6.3462296,-1.084027
bagnet33,1,383,NaN,airplane,airplane,0,0383_pow_dnn_0_airplane_35_n02690373_4945.png,n02690373_4945.png,1.0,24.28422,5.506708,13.277706
bagnet33,1,384,NaN,bicycle,dog,0,0384_pow_dnn_0_dog_35_n02088364_5801.png,n02088364_5801.png,0.0,1.3611292,4.1168203,-1.9485679
bagnet33,1,385,NaN,elephant,dog,pow,0385_pow_dnn_pow_dog_35_n02108915_8164.png,n02108915_8164.png,0.0,-0.5161808,4.368515,-3.4540017
bagnet33,1,386,NaN,car,car,0,0386_pow_dnn_0_car_35_n03100240_1435.png,n03100240_1435.png,1.0,23.33468,17.934948,3.8181877
bagnet33,1,387,NaN,car,clock,0,0387_pow_dnn_0_clock_35_n03196217_412.png,n03196217_412.png,0.0,6.772644,8.468837,-1.1993895
bagnet33,1,388,NaN,clock,boat,pow,0388_pow_dnn_pow_boat_35_n03344393_6713.png,n03344393_6713.png,0.0,0.86264676,6.923322,-4.285545
bagnet33,1,389,NaN,knife,knife,0,0389_pow_dnn_0_knife_35_n03041632_4305.png,n03041632_4305.png,1.0,8.289352,4.200568,2.891207
bagnet33,1,390,NaN,airplane,car,pow,0390_pow_dnn_pow_car_35_n04285008_10287.png,n04285008_10287.png,0.0,0.40940213,5.4284916,-3.5490324
bagnet33,1,391,NaN,airplane,car,pow,0391_pow_dnn_pow_car_35_n04285008_15071.png,n04285008_15071.png,0.0,4.3208013,4.749612,-0.30321488
bagnet33,1,392,NaN,knife,knife,pow,0392_pow_dnn_pow_knife_35_n03041632_22214.png,n03041632_22214.png,1.0,9.453418,3.487862,4.218285
bagnet33,1,393,NaN,knife,boat,pow,0393_pow_dnn_pow_boat_35_n04612504_3064.png,n04612504_3064.png,0.0,0.6438235,3.6193237,-2.1039963
bagnet33,1,394,NaN,chair,chair,0,0394_pow_dnn_0_chair_35_n02791124_7193.png,n02791124_7193.png,1.0,10.917786,5.2757635,3.9895122
bagnet33,1,395,NaN,boat,boat,0,0395_pow_dnn_0_boat_35_n03344393_5511.png,n03344393_5511.png,1.0,9.207873,7.483268,1.2194803
bagnet33,1,396,NaN,boat,boat,pow,0396_pow_dnn_pow_boat_35_n04273569_11997.png,n04273569_11997.png,1.0,4.715371,4.145381,0.40304393
bagnet33,1,397,NaN,bicycle,bicycle,0,0397_pow_dnn_0_bicycle_35_n03792782_1424.png,n03792782_1424.png,1.0,3.586582,2.178238,0.9958496
bagnet33,1,398,NaN,clock,clock,pow,0398_pow_dnn_pow_clock_35_n03196217_3362.png,n03196217_3362.png,1.0,4.0081706,3.6161196,0.27722192
bagnet33,1,399,NaN,clock,truck,pow,0399_pow_dnn_pow_truck_35_n04467665_21942.png,n04467665_21942.png,0.0,2.289612,3.693683,-0.992828
bagnet33,1,400,NaN,oven,oven,0,0400_pow_dnn_0_oven_35_n04111531_6445.png,n04111531_6445.png,1.0,14.366278,7.015259,5.1979556
bagnet33,1,401,NaN,chair,chair,0,0401_pow_dnn_0_chair_35_n04099969_1163.png,n04099969_1163.png,1.0,13.87547,3.677479,7.211069
bagnet33,1,402,NaN,clock,clock,pow,0402_pow_dnn_pow_clock_35_n02708093_3645.png,n02708093_3645.png,1.0,17.261415,5.959542,7.991632
bagnet33,1,403,NaN,bicycle,bicycle,0,0403_pow_dnn_0_bicycle_35_n03792782_68319.png,n03792782_68319.png,1.0,25.110104,6.478546,13.1745
bagnet33,1,404,NaN,elephant,dog,pow,0404_pow_dnn_pow_dog_35_n02111129_513.png,n02111129_513.png,0.0,0.14588436,5.623226,-3.8730655
bagnet33,1,405,NaN,airplane,airplane,pow,0405_pow_dnn_pow_airplane_35_n02690373_2676.png,n02690373_2676.png,1.0,7.4531827,5.331263,1.5004238
bagnet33,1,406,NaN,airplane,airplane,0,0406_pow_dnn_0_airplane_35_n02690373_1206.png,n02690373_1206.png,1.0,7.4765377,3.4456058,2.8502994
bagnet33,1,407,NaN,dog,dog,0,0407_pow_dnn_0_dog_35_n02100735_1445.png,n02100735_1445.png,1.0,6.9188776,4.473709,1.7289952
bagnet33,1,408,NaN,knife,dog,pow,0408_pow_dnn_pow_dog_35_n02102040_312.png,n02102040_312.png,0.0,0.16274844,6.1660657,-4.2449865
bagnet33,1,409,NaN,keyboard,keyboard,0,0409_pow_dnn_0_keyboard_35_n03085013_22996.png,n03085013_22996.png,1.0,28.051506,8.242642,14.006983
bagnet33,1,410,NaN,boat,boat,0,0410_pow_dnn_0_boat_35_n04612504_434.png,n04612504_434.png,1.0,6.2057104,5.350317,0.60485446
bagnet33,1,411,NaN,cat,cat,0,0411_pow_dnn_0_cat_35_n02123597_14639.png,n02123597_14639.png,1.0,11.869021,4.1871247,5.4319215
bagnet33,1,412,NaN,cat,cat,pow,0412_pow_dnn_pow_cat_35_n02123159_2043.png,n02123159_2043.png,1.0,5.825275,3.1992154,1.8569045
bagnet33,1,413,NaN,oven,clock,pow,0413_pow_dnn_pow_clock_35_n03196217_3647.png,n03196217_3647.png,0.0,3.5947106,8.258583,-3.297856
bagnet33,1,414,NaN,oven,oven,0,0414_pow_dnn_0_oven_35_n04111531_19795.png,n04111531_19795.png,1.0,6.904977,3.7760868,2.2124593
bagnet33,1,415,NaN,knife,truck,pow,0415_pow_dnn_pow_truck_35_n03417042_18625.png,n03417042_18625.png,0.0,0.69037175,3.5063398,-1.9911901
bagnet33,1,416,NaN,elephant,elephant,pow,0416_pow_dnn_pow_elephant_35_n02504013_1763.png,n02504013_1763.png,1.0,7.7046437,3.6669075,2.8551104
bagnet33,1,417,NaN,chair,chair,0,0417_pow_dnn_0_chair_35_n04099969_13105.png,n04099969_13105.png,1.0,8.881098,6.973689,1.3487417
bagnet33,1,418,NaN,elephant,bicycle,pow,0418_pow_dnn_pow_bicycle_35_n03792782_4931.png,n03792782_4931.png,0.0,2.477808,4.881813,-1.6998883
bagnet33,1,419,NaN,bear,bear,0,0419_pow_dnn_0_bear_35_n02134418_4513.png,n02134418_4513.png,1.0,9.921479,8.378608,1.0909749
bagnet33,1,420,NaN,cat,cat,pow,0420_pow_dnn_pow_cat_35_n02123045_11224.png,n02123045_11224.png,1.0,18.309877,3.8839457,10.200674
bagnet33,1,421,NaN,chair,chair,0,0421_pow_dnn_0_chair_35_n02791124_359.png,n02791124_359.png,1.0,5.9277024,4.971422,0.6761922
bagnet33,1,422,NaN,knife,clock,pow,0422_pow_dnn_pow_clock_35_n04548280_2654.png,n04548280_2654.png,0.0,6.6803803,7.5399504,-0.6078078
bagnet33,1,423,NaN,bear,cat,pow,0423_pow_dnn_pow_cat_35_n02123394_4713.png,n02123394_4713.png,0.0,2.2108462,3.3393018,-0.79793864
bagnet33,1,424,NaN,clock,bottle,pow,0424_pow_dnn_pow_bottle_35_n04557648_94.png,n04557648_94.png,0.0,2.2138076,3.868767,-1.170233
bagnet33,1,425,NaN,chair,chair,0,0425_pow_dnn_0_chair_35_n04099969_15676.png,n04099969_15676.png,1.0,13.453522,5.800799,5.411292
bagnet33,1,426,NaN,knife,boat,pow,0426_pow_dnn_pow_boat_35_n02951358_537.png,n02951358_537.png,0.0,1.7124068,4.6426024,-2.0719614
bagnet33,1,427,NaN,truck,clock,0,0427_pow_dnn_0_clock_35_n03196217_1376.png,n03196217_1376.png,0.0,7.450952,8.660778,-0.8554762
bagnet33,1,428,NaN,oven,chair,pow,0428_pow_dnn_pow_chair_35_n02791124_1594.png,n02791124_1594.png,0.0,4.895676,5.6849174,-0.5580779
bagnet33,1,429,NaN,oven,bird,0,0429_pow_dnn_0_bird_35_n02007558_7112.png,n02007558_7112.png,0.0,-1.719509,9.292309,-7.7865314
bagnet33,1,430,NaN,bicycle,bicycle,0,0430_pow_dnn_0_bicycle_35_n02835271_6094.png,n02835271_6094.png,1.0,20.032784,5.710342,10.127496
bagnet33,1,431,NaN,airplane,airplane,pow,0431_pow_dnn_pow_airplane_35_n02690373_7676.png,n02690373_7676.png,1.0,7.7396145,2.3793232,3.7902985
bagnet33,1,432,NaN,cat,cat,pow,0432_pow_dnn_pow_cat_35_n02123045_3375.png,n02123045_3375.png,1.0,14.88916,4.63402,7.251479
bagnet33,1,433,NaN,bicycle,bicycle,0,0433_pow_dnn_0_bicycle_35_n02835271_15617.png,n02835271_15617.png,1.0,28.774258,5.6238832,16.369787
bagnet33,1,434,NaN,clock,oven,pow,0434_pow_dnn_pow_oven_35_n04111531_4904.png,n04111531_4904.png,0.0,4.2652416,7.1280766,-2.0243301
bagnet33,1,435,NaN,boat,boat,0,0435_pow_dnn_0_boat_35_n02951358_5718.png,n02951358_5718.png,1.0,6.3435845,3.4708786,2.0313098
bagnet33,1,436,NaN,elephant,elephant,pow,0436_pow_dnn_pow_elephant_35_n02504013_7467.png,n02504013_7467.png,1.0,7.5475006,2.9954028,3.2188194
bagnet33,1,437,NaN,elephant,elephant,pow,0437_pow_dnn_pow_elephant_35_n02504013_1830.png,n02504013_1830.png,1.0,17.81065,4.274926,9.571202
bagnet33,1,438,NaN,airplane,car,0,0438_pow_dnn_0_car_35_n02814533_59762.png,n02814533_59762.png,0.0,7.2207375,8.197896,-0.69095546
bagnet33,1,439,NaN,oven,bicycle,pow,0439_pow_dnn_pow_bicycle_35_n02835271_771.png,n02835271_771.png,0.0,1.2680151,8.836821,-5.351954
bagnet33,1,440,NaN,elephant,bicycle,pow,0440_pow_dnn_pow_bicycle_35_n02835271_4313.png,n02835271_4313.png,0.0,0.73443806,4.237442,-2.476998
bagnet33,1,441,NaN,bear,bear,0,0441_pow_dnn_0_bear_35_n02132136_891.png,n02132136_891.png,1.0,16.769167,14.187286,1.8256652
bagnet33,1,442,NaN,bear,bear,pow,0442_pow_dnn_pow_bear_35_n02132136_18276.png,n02132136_18276.png,1.0,6.9037237,3.3786082,2.492633
bagnet33,1,443,NaN,elephant,elephant,pow,0443_pow_dnn_pow_elephant_35_n02504013_2865.png,n02504013_2865.png,1.0,14.887405,3.5007138,8.051607
bagnet33,1,444,NaN,boat,boat,0,0444_pow_dnn_0_boat_35_n03662601_10120.png,n03662601_10120.png,1.0,11.247074,10.827854,0.2964333
bagnet33,1,445,NaN,elephant,bottle,pow,0445_pow_dnn_pow_bottle_35_n03983396_4241.png,n03983396_4241.png,0.0,1.7043053,5.022194,-2.3461018
bagnet33,1,446,NaN,elephant,elephant,pow,0446_pow_dnn_pow_elephant_35_n02504458_8254.png,n02504458_8254.png,1.0,4.2643976,2.778357,1.0507894
bagnet33,1,447,NaN,knife,boat,pow,0447_pow_dnn_pow_boat_35_n04612504_857.png,n04612504_857.png,0.0,2.7346196,5.208823,-1.7495261
bagnet33,1,448,NaN,clock,car,pow,0448_pow_dnn_pow_car_35_n04285008_6037.png,n04285008_6037.png,0.0,2.3183622,4.5180473,-1.5554123
bagnet33,1,449,NaN,elephant,elephant,pow,0449_pow_dnn_pow_elephant_35_n02504458_2888.png,n02504458_2888.png,1.0,11.597504,2.5411048,6.403841
bagnet33,1,450,NaN,elephant,elephant,0,0450_pow_dnn_0_elephant_35_n02504013_6257.png,n02504013_6257.png,1.0,11.467638,5.319327,4.3475127
bagnet33,1,451,NaN,car,car,0,0451_pow_dnn_0_car_35_n04285008_8616.png,n04285008_8616.png,1.0,20.716051,14.61775,4.31215
bagnet33,1,452,NaN,oven,bird,0,0452_pow_dnn_0_bird_35_n01537544_5372.png,n01537544_5372.png,0.0,2.4506273,7.097797,-3.286045
bagnet33,1,453,NaN,knife,airplane,pow,0453_pow_dnn_pow_airplane_35_n02690373_2498.png,n02690373_2498.png,0.0,4.9409437,7.5635834,-1.8544863
bagnet33,1,454,NaN,dog,dog,0,0454_pow_dnn_0_dog_35_n02099601_2980.png,n02099601_2980.png,1.0,6.866457,3.104348,2.6602128
bagnet33,1,455,NaN,oven,keyboard,pow,0455_pow_dnn_pow_keyboard_35_n04505470_1904.png,n04505470_1904.png,0.0,4.087057,7.2083373,-2.2070785
bagnet33,1,456,NaN,airplane,airplane,0,0456_pow_dnn_0_airplane_35_n02690373_2967.png,n02690373_2967.png,1.0,13.907438,5.061815,6.2548003
bagnet33,1,457,NaN,airplane,car,0,0457_pow_dnn_0_car_35_n04285008_7508.png,n04285008_7508.png,0.0,11.345074,14.300751,-2.0899794
bagnet33,1,458,NaN,bird,bird,0,0458_pow_dnn_0_bird_35_n02051845_6652.png,n02051845_6652.png,1.0,8.10299,4.934425,2.240514
bagnet33,1,459,NaN,oven,truck,pow,0459_pow_dnn_pow_truck_35_n03796401_6737.png,n03796401_6737.png,0.0,2.3686738,5.3163624,-2.0843306
bagnet33,1,460,NaN,airplane,bottle,pow,0460_pow_dnn_pow_bottle_35_n03937543_2177.png,n03937543_2177.png,0.0,2.1522431,7.2430983,-3.5997782
bagnet33,1,461,NaN,knife,keyboard,pow,0461_pow_dnn_pow_keyboard_35_n03085013_6432.png,n03085013_6432.png,0.0,1.7777956,5.648485,-2.736991
bagnet33,1,462,NaN,bird,bird,0,0462_pow_dnn_0_bird_35_n01530575_10212.png,n01530575_10212.png,1.0,3.6877675,3.065656,0.4398993
bagnet33,1,463,NaN,oven,boat,pow,0463_pow_dnn_pow_boat_35_n04273569_31649.png,n04273569_31649.png,0.0,1.710837,4.62362,-2.0596488
bagnet33,1,464,NaN,keyboard,keyboard,0,0464_pow_dnn_0_keyboard_35_n04505470_2869.png,n04505470_2869.png,1.0,43.34825,7.37128,25.43956
bagnet33,1,465,NaN,oven,oven,0,0465_pow_dnn_0_oven_35_n04111531_5110.png,n04111531_5110.png,1.0,13.810433,6.9456205,4.854156
bagnet33,1,466,NaN,bottle,bottle,pow,0466_pow_dnn_pow_bottle_35_n04579145_4389.png,n04579145_4389.png,1.0,4.542098,4.4570847,0.060113546
bagnet33,1,467,NaN,bottle,bottle,0,0467_pow_dnn_0_bottle_35_n04557648_9310.png,n04557648_9310.png,1.0,6.415172,4.0327864,1.6846012
bagnet33,1,468,NaN,knife,dog,pow,0468_pow_dnn_pow_dog_35_n02108000_6061.png,n02108000_6061.png,0.0,-1.4949311,3.1311047,-3.2711012
bagnet33,1,469,NaN,knife,knife,pow,0469_pow_dnn_pow_knife_35_n03041632_84240.png,n03041632_84240.png,1.0,5.1485114,2.5410452,1.843757
bagnet33,1,470,NaN,airplane,cat,pow,0470_pow_dnn_pow_cat_35_n02123394_3718.png,n02123394_3718.png,0.0,0.7891593,1.798539,-0.7137393
bagnet33,1,471,NaN,bear,dog,pow,0471_pow_dnn_pow_dog_35_n02098105_2157.png,n02098105_2157.png,0.0,4.206323,6.265503,-1.45606
bagnet33,1,472,NaN,clock,clock,0,0472_pow_dnn_0_clock_35_n04548280_2601.png,n04548280_2601.png,1.0,22.783218,7.081498,11.102793
bagnet33,1,473,NaN,dog,cat,0,0473_pow_dnn_0_cat_35_n02123394_4286.png,n02123394_4286.png,0.0,4.119202,5.160035,-0.7359801
bagnet33,1,474,NaN,bottle,bottle,0,0474_pow_dnn_0_bottle_35_n02823428_4569.png,n02823428_4569.png,1.0,23.340038,4.4394145,13.364759
bagnet33,1,475,NaN,elephant,bird,pow,0475_pow_dnn_pow_bird_35_n02017213_15747.png,n02017213_15747.png,0.0,-0.70479554,8.373367,-6.419231
bagnet33,1,476,NaN,elephant,bicycle,0,0476_pow_dnn_0_bicycle_35_n03792782_11390.png,n03792782_11390.png,0.0,2.0283194,3.7787864,-1.2377671
bagnet33,1,477,NaN,car,car,0,0477_pow_dnn_0_car_35_n02814533_4374.png,n02814533_4374.png,1.0,20.34201,15.626608,3.3342931
bagnet33,1,478,NaN,keyboard,keyboard,0,0478_pow_dnn_0_keyboard_35_n04505470_5137.png,n04505470_5137.png,1.0,37.309555,15.636582,15.325107
bagnet33,1,479,NaN,elephant,elephant,0,0479_pow_dnn_0_elephant_35_n02504013_306.png,n02504013_306.png,1.0,27.238605,1.8410052,17.958817
bagnet33,1,480,NaN,boat,boat,0,0480_pow_dnn_0_boat_35_n02951358_14624.png,n02951358_14624.png,1.0,5.1104584,4.756875,0.2500212
bagnet33,1,481,NaN,cat,cat,pow,0481_pow_dnn_pow_cat_35_n02125311_28114.png,n02125311_28114.png,1.0,3.3176944,2.4740138,0.5965723
bagnet33,1,482,NaN,truck,car,pow,0482_pow_dnn_pow_car_35_n03100240_6259.png,n03100240_6259.png,0.0,6.530188,7.6030197,-0.75860655
bagnet33,1,483,NaN,elephant,cat,pow,0483_pow_dnn_pow_cat_35_n02125311_12361.png,n02125311_12361.png,0.0,0.6205629,4.3561096,-2.6414304
bagnet33,1,484,NaN,chair,bird,0,0484_pow_dnn_0_bird_35_n01833805_16468.png,n01833805_16468.png,0.0,0.3742448,1.7694926,-0.9865892
bagnet33,1,485,NaN,cat,dog,pow,0485_pow_dnn_pow_dog_35_n02110063_6748.png,n02110063_6748.png,0.0,1.0431752,3.234108,-1.5492234
bagnet33,1,486,NaN,oven,clock,pow,0486_pow_dnn_pow_clock_35_n04548280_2943.png,n04548280_2943.png,0.0,4.5834455,7.551177,-2.098503
bagnet33,1,487,NaN,bottle,chair,pow,0487_pow_dnn_pow_chair_35_n03376595_14619.png,n03376595_14619.png,0.0,1.8519785,4.144607,-1.6211332
bagnet33,1,488,NaN,car,car,0,0488_pow_dnn_0_car_35_n03100240_5719.png,n03100240_5719.png,1.0,17.015274,10.71599,4.4542665
bagnet33,1,489,NaN,dog,dog,0,0489_pow_dnn_0_dog_35_n02093754_4677.png,n02093754_4677.png,1.0,4.436551,2.931724,1.0640734
bagnet33,1,490,NaN,clock,boat,pow,0490_pow_dnn_pow_boat_35_n04273569_113.png,n04273569_113.png,0.0,2.7166533,3.5234804,-0.5705129
bagnet33,1,491,NaN,clock,clock,pow,0491_pow_dnn_pow_clock_35_n02708093_148.png,n02708093_148.png,1.0,11.100116,4.560013,4.6245513
bagnet33,1,492,NaN,cat,cat,0,0492_pow_dnn_0_cat_35_n02125311_53223.png,n02125311_53223.png,1.0,11.06635,6.421467,3.2844284
bagnet33,1,493,NaN,clock,knife,0,0493_pow_dnn_0_knife_35_n03041632_7982.png,n03041632_7982.png,0.0,3.3290727,7.442327,-2.9085102
bagnet33,1,494,NaN,elephant,elephant,0,0494_pow_dnn_0_elephant_35_n02504013_7273.png,n02504013_7273.png,1.0,6.3681726,3.1100185,2.303863
bagnet33,1,495,NaN,oven,truck,pow,0495_pow_dnn_pow_truck_35_n03417042_26102.png,n03417042_26102.png,0.0,4.503891,6.968094,-1.7424546
bagnet33,1,496,NaN,clock,car,pow,0496_pow_dnn_pow_car_35_n02814533_874.png,n02814533_874.png,0.0,2.671275,4.3182178,-1.1645645
bagnet33,1,497,NaN,bicycle,bicycle,0,0497_pow_dnn_0_bicycle_35_n03792782_21148.png,n03792782_21148.png,1.0,9.219199,2.7652566,4.5636263
bagnet33,1,498,NaN,oven,oven,pow,0498_pow_dnn_pow_oven_35_n04111531_4146.png,n04111531_4146.png,1.0,10.271514,6.2173786,2.8667066
bagnet33,1,499,NaN,clock,keyboard,pow,0499_pow_dnn_pow_keyboard_35_n03085013_21183.png,n03085013_21183.png,0.0,9.814844,12.254097,-1.7248123
bagnet33,1,500,NaN,airplane,boat,0,0500_pow_dnn_0_boat_35_n04612504_19147.png,n04612504_19147.png,0.0,5.231523,6.348013,-0.7894776
bagnet33,1,501,NaN,elephant,bear,0,0501_pow_dnn_0_bear_35_n02133161_2044.png,n02133161_2044.png,0.0,5.7630377,6.6881166,-0.65412956
bagnet33,1,502,NaN,bottle,bottle,pow,0502_pow_dnn_pow_bottle_35_n04579145_3894.png,n04579145_3894.png,1.0,6.110543,3.906238,1.5586789
bagnet33,1,503,NaN,bicycle,bicycle,0,0503_pow_dnn_0_bicycle_35_n03792782_13399.png,n03792782_13399.png,1.0,24.56018,5.43902,13.520702
bagnet33,1,504,NaN,knife,knife,pow,0504_pow_dnn_pow_knife_35_n03041632_21818.png,n03041632_21818.png,1.0,6.951088,5.9395027,0.7152988
bagnet33,1,505,NaN,chair,chair,0,0505_pow_dnn_0_chair_35_n03376595_7010.png,n03376595_7010.png,1.0,11.532537,6.4141726,3.6192305
bagnet33,1,506,NaN,oven,oven,0,0506_pow_dnn_0_oven_35_n04111531_4.png,n04111531_4.png,1.0,5.0575905,4.9668374,0.06417212
bagnet33,1,507,NaN,elephant,bird,pow,0507_pow_dnn_pow_bird_35_n01820546_6471.png,n01820546_6471.png,0.0,2.4032826,6.599913,-2.9674659
bagnet33,1,508,NaN,bear,bear,pow,0508_pow_dnn_pow_bear_35_n02132136_10352.png,n02132136_10352.png,1.0,8.527058,4.596687,2.779192
bagnet33,1,509,NaN,clock,clock,pow,0509_pow_dnn_pow_clock_35_n04548280_8348.png,n04548280_8348.png,1.0,24.430845,8.410372,11.328186
bagnet33,1,510,NaN,elephant,elephant,0,0510_pow_dnn_0_elephant_35_n02504013_5087.png,n02504013_5087.png,1.0,31.3375,4.75451,18.797012
bagnet33,1,511,NaN,airplane,airplane,pow,0511_pow_dnn_pow_airplane_35_n02690373_60.png,n02690373_60.png,1.0,9.729816,5.0730987,3.2927969
bagnet33,1,512,NaN,clock,chair,pow,0512_pow_dnn_pow_chair_35_n02791124_16085.png,n02791124_16085.png,0.0,4.075719,6.2224545,-1.5179714
bagnet33,1,513,NaN,bottle,bottle,0,0513_pow_dnn_0_bottle_35_n02823428_3611.png,n02823428_3611.png,1.0,17.603209,8.386734,6.5170317
bagnet33,1,514,NaN,elephant,bird,pow,0514_pow_dnn_pow_bird_35_n01614925_8653.png,n01614925_8653.png,0.0,-2.187225,7.0026035,-6.4981904
bagnet33,1,515,NaN,oven,bird,pow,0515_pow_dnn_pow_bird_35_n01537544_9881.png,n01537544_9881.png,0.0,0.7014964,3.6161816,-2.0609937
bagnet33,1,516,NaN,knife,knife,0,0516_pow_dnn_0_knife_35_n03041632_35365.png,n03041632_35365.png,1.0,12.545015,4.2603316,5.8581557
bagnet33,1,517,NaN,bear,bear,0,0517_pow_dnn_0_bear_35_n02132136_23202.png,n02132136_23202.png,1.0,8.290101,7.6553874,0.44881034
bagnet33,1,518,NaN,oven,oven,0,0518_pow_dnn_0_oven_35_n04111531_3976.png,n04111531_3976.png,1.0,13.591633,4.235824,6.615556
bagnet33,1,519,NaN,bottle,chair,pow,0519_pow_dnn_pow_chair_35_n04429376_32124.png,n04429376_32124.png,0.0,3.2071183,4.5647964,-0.96002346
bagnet33,1,520,NaN,bear,bear,pow,0520_pow_dnn_pow_bear_35_n02134418_848.png,n02134418_848.png,1.0,2.6406677,2.246493,0.2787235
bagnet33,1,521,NaN,boat,boat,0,0521_pow_dnn_0_boat_35_n03344393_7374.png,n03344393_7374.png,1.0,6.888481,5.589122,0.9187858
bagnet33,1,522,NaN,oven,bird,pow,0522_pow_dnn_pow_bird_35_n01532829_3914.png,n01532829_3914.png,0.0,-0.777707,5.153224,-4.193802
bagnet33,1,523,NaN,keyboard,keyboard,0,0523_pow_dnn_0_keyboard_35_n04505470_5902.png,n04505470_5902.png,1.0,46.57099,9.379874,26.298092
bagnet33,1,524,NaN,clock,truck,pow,0524_pow_dnn_pow_truck_35_n03417042_11165.png,n03417042_11165.png,0.0,3.031396,4.4680066,-1.0158372
bagnet33,1,525,NaN,clock,clock,0,0525_pow_dnn_0_clock_35_n02708093_5.png,n02708093_5.png,1.0,15.89717,5.9362087,7.043463
bagnet33,1,526,NaN,elephant,elephant,pow,0526_pow_dnn_pow_elephant_35_n02504458_4187.png,n02504458_4187.png,1.0,6.8523045,2.9140315,2.7847795
bagnet33,1,527,NaN,knife,knife,0,0527_pow_dnn_0_knife_35_n03041632_10802.png,n03041632_10802.png,1.0,14.804698,4.132587,7.5463223
bagnet33,1,528,NaN,car,car,0,0528_pow_dnn_0_car_35_n04285008_16647.png,n04285008_16647.png,1.0,14.512836,11.549316,2.0955253
bagnet33,1,529,NaN,cat,dog,0,0529_pow_dnn_0_dog_35_n02104365_3004.png,n02104365_3004.png,0.0,5.6005335,6.836577,-0.87401474
bagnet33,1,530,NaN,elephant,elephant,pow,0530_pow_dnn_pow_elephant_35_n02504013_21616.png,n02504013_21616.png,1.0,9.516558,3.5342913,4.230101
bagnet33,1,531,NaN,keyboard,keyboard,0,0531_pow_dnn_0_keyboard_35_n03085013_23465.png,n03085013_23465.png,1.0,11.746017,7.2334666,3.1908553
bagnet33,1,532,NaN,airplane,airplane,pow,0532_pow_dnn_pow_airplane_35_n02690373_911.png,n02690373_911.png,1.0,4.8694725,4.3832917,0.34378174
bagnet33,1,533,NaN,elephant,elephant,0,0533_pow_dnn_0_elephant_35_n02504013_1454.png,n02504013_1454.png,1.0,12.225142,3.7631326,5.9835443
bagnet33,1,534,NaN,bicycle,bicycle,0,0534_pow_dnn_0_bicycle_35_n03792782_70690.png,n03792782_70690.png,1.0,12.454295,2.230086,7.2296076
bagnet33,1,535,NaN,chair,chair,0,0535_pow_dnn_0_chair_35_n04429376_31206.png,n04429376_31206.png,1.0,7.6579,7.513523,0.102089785
bagnet33,1,536,NaN,clock,clock,0,0536_pow_dnn_0_clock_35_n02708093_2498.png,n02708093_2498.png,1.0,12.269928,4.895545,5.214476
bagnet33,1,537,NaN,keyboard,keyboard,0,0537_pow_dnn_0_keyboard_35_n04505470_1728.png,n04505470_1728.png,1.0,21.911026,6.569749,10.847921
bagnet33,1,538,NaN,oven,truck,pow,0538_pow_dnn_pow_truck_35_n03417042_6608.png,n03417042_6608.png,0.0,3.2679296,5.8798265,-1.8468901
bagnet33,1,539,NaN,knife,bird,0,0539_pow_dnn_0_bird_35_n02013706_1016.png,n02013706_1016.png,0.0,1.5953548,1.7822105,-0.13212691
bagnet33,1,540,NaN,clock,clock,0,0540_pow_dnn_0_clock_35_n04548280_5011.png,n04548280_5011.png,1.0,19.720568,6.778758,9.151241
bagnet33,1,541,NaN,bicycle,bicycle,0,0541_pow_dnn_0_bicycle_35_n02835271_19557.png,n02835271_19557.png,1.0,8.486582,3.7369983,3.3584626
bagnet33,1,542,NaN,bear,bear,pow,0542_pow_dnn_pow_bear_35_n02134084_5827.png,n02134084_5827.png,1.0,6.597651,5.796237,0.5666853
bagnet33,1,543,NaN,elephant,dog,pow,0543_pow_dnn_pow_dog_35_n02096585_1894.png,n02096585_1894.png,0.0,-1.4375023,4.8010116,-4.4112954
bagnet33,1,544,NaN,elephant,boat,pow,0544_pow_dnn_pow_boat_35_n02951358_34234.png,n02951358_34234.png,0.0,2.2084098,3.7858398,-1.1154115
bagnet33,1,545,NaN,elephant,cat,pow,0545_pow_dnn_pow_cat_35_n02123597_5514.png,n02123597_5514.png,0.0,2.8476057,8.837345,-4.2353854
bagnet33,1,546,NaN,oven,oven,pow,0546_pow_dnn_pow_oven_35_n04111531_3580.png,n04111531_3580.png,1.0,3.1559484,2.3992262,0.5350834
bagnet33,1,547,NaN,airplane,airplane,0,0547_pow_dnn_0_airplane_35_n02690373_7107.png,n02690373_7107.png,1.0,13.282454,4.0621552,6.519736
bagnet33,1,548,NaN,chair,cat,0,0548_pow_dnn_0_cat_35_n02123159_5224.png,n02123159_5224.png,0.0,2.4128373,4.1971803,-1.261721
bagnet33,1,549,NaN,elephant,bear,pow,0549_pow_dnn_pow_bear_35_n02133161_6679.png,n02133161_6679.png,0.0,4.250632,4.2906485,-0.028296046
bagnet33,1,550,NaN,dog,dog,0,0550_pow_dnn_0_dog_35_n02106030_22.png,n02106030_22.png,1.0,5.272491,2.8775349,1.6934898
bagnet33,1,551,NaN,truck,truck,0,0551_pow_dnn_0_truck_35_n03417042_4574.png,n03417042_4574.png,1.0,12.408216,11.420761,0.6982364
bagnet33,1,552,NaN,clock,dog,pow,0552_pow_dnn_pow_dog_35_n02097298_7577.png,n02097298_7577.png,0.0,-1.7667865,3.9258282,-4.025286
bagnet33,1,553,NaN,elephant,dog,pow,0553_pow_dnn_pow_dog_35_n02093428_16873.png,n02093428_16873.png,0.0,-0.2756236,6.8247437,-5.020718
bagnet33,1,554,NaN,bear,bear,0,0554_pow_dnn_0_bear_35_n02132136_4157.png,n02132136_4157.png,1.0,7.868229,7.7016215,0.11780921
bagnet33,1,555,NaN,bottle,bottle,0,0555_pow_dnn_0_bottle_35_n02823428_2007.png,n02823428_2007.png,1.0,23.366087,8.379772,10.596925
bagnet33,1,556,NaN,keyboard,keyboard,0,0556_pow_dnn_0_keyboard_35_n03085013_24272.png,n03085013_24272.png,1.0,17.139683,4.657587,8.826175
bagnet33,1,557,NaN,oven,oven,0,0557_pow_dnn_0_oven_35_n04111531_2074.png,n04111531_2074.png,1.0,12.803915,5.1979895,5.3782015
bagnet33,1,558,NaN,oven,bird,pow,0558_pow_dnn_pow_bird_35_n01532829_4536.png,n01532829_4536.png,0.0,0.10051508,3.8815138,-2.67357
bagnet33,1,559,NaN,dog,dog,0,0559_pow_dnn_0_dog_35_n02109047_17100.png,n02109047_17100.png,1.0,5.5848155,1.6355636,2.792543
bagnet33,1,560,NaN,oven,oven,pow,0560_pow_dnn_pow_oven_35_n04111531_4407.png,n04111531_4407.png,1.0,9.883786,4.506681,3.8021877
bagnet33,1,561,NaN,airplane,airplane,0,0561_pow_dnn_0_airplane_35_n02690373_8069.png,n02690373_8069.png,1.0,19.877487,5.905429,9.879737
bagnet33,1,562,NaN,airplane,bottle,0,0562_pow_dnn_0_bottle_35_n04560804_8921.png,n04560804_8921.png,0.0,4.444201,5.5559435,-0.78612065
bagnet33,1,563,NaN,bottle,bottle,pow,0563_pow_dnn_pow_bottle_35_n03937543_2936.png,n03937543_2936.png,1.0,12.23483,4.111682,5.743933
bagnet33,1,564,NaN,cat,cat,0,0564_pow_dnn_0_cat_35_n02123045_8031.png,n02123045_8031.png,1.0,8.795945,2.9362683,4.1434174
bagnet33,1,565,NaN,oven,oven,0,0565_pow_dnn_0_oven_35_n04111531_3805.png,n04111531_3805.png,1.0,10.6518955,4.173439,4.5809608
bagnet33,1,566,NaN,truck,truck,0,0566_pow_dnn_0_truck_35_n03417042_27231.png,n03417042_27231.png,1.0,17.292063,11.453992,4.1281395
bagnet33,1,567,NaN,elephant,elephant,0,0567_pow_dnn_0_elephant_35_n02504013_7232.png,n02504013_7232.png,1.0,17.264206,5.3813353,8.402458
bagnet33,1,568,NaN,knife,knife,0,0568_pow_dnn_0_knife_35_n03041632_5102.png,n03041632_5102.png,1.0,5.167547,3.234309,1.367006
bagnet33,1,569,NaN,oven,dog,pow,0569_pow_dnn_pow_dog_35_n02110958_8916.png,n02110958_8916.png,0.0,1.9000171,5.18573,-2.3233497
bagnet33,1,570,NaN,knife,bottle,pow,0570_pow_dnn_pow_bottle_35_n04557648_9790.png,n04557648_9790.png,0.0,4.2420225,6.367065,-1.5026319
bagnet33,1,571,NaN,cat,cat,pow,0571_pow_dnn_pow_cat_35_n02123394_3786.png,n02123394_3786.png,1.0,12.250076,3.4086754,6.251815
bagnet33,1,572,NaN,airplane,truck,0,0572_pow_dnn_0_truck_35_n04467665_19132.png,n04467665_19132.png,0.0,7.5113926,7.9453173,-0.3068311
bagnet33,1,573,NaN,truck,truck,pow,0573_pow_dnn_pow_truck_35_n03796401_2934.png,n03796401_2934.png,1.0,6.481403,6.347994,0.09433442
bagnet33,1,574,NaN,bicycle,bicycle,0,0574_pow_dnn_0_bicycle_35_n02835271_12799.png,n02835271_12799.png,1.0,17.945604,5.228986,8.992007
bagnet33,1,575,NaN,car,car,0,0575_pow_dnn_0_car_35_n02814533_1297.png,n02814533_1297.png,1.0,10.573628,7.560999,2.1302507
bagnet33,1,576,NaN,bear,bear,pow,0576_pow_dnn_pow_bear_35_n02134418_1974.png,n02134418_1974.png,1.0,3.6580715,2.243677,1.000128
bagnet33,1,577,NaN,cat,cat,0,0577_pow_dnn_0_cat_35_n02124075_2843.png,n02124075_2843.png,1.0,9.017095,3.4867387,3.9105523
bagnet33,1,578,NaN,cat,cat,0,0578_pow_dnn_0_cat_35_n02123597_5697.png,n02123597_5697.png,1.0,12.897541,3.2165627,6.8454857
bagnet33,1,579,NaN,oven,bicycle,pow,0579_pow_dnn_pow_bicycle_35_n02835271_2315.png,n02835271_2315.png,0.0,1.0101933,6.193953,-3.6654718
bagnet33,1,580,NaN,keyboard,keyboard,0,0580_pow_dnn_0_keyboard_35_n04505470_4515.png,n04505470_4515.png,1.0,64.72781,13.100429,36.506073
bagnet33,1,581,NaN,knife,knife,pow,0581_pow_dnn_pow_knife_35_n03041632_4269.png,n03041632_4269.png,1.0,8.864027,4.801162,2.8728795
bagnet33,1,582,NaN,cat,cat,0,0582_pow_dnn_0_cat_35_n02123045_12010.png,n02123045_12010.png,1.0,31.248129,8.228627,16.277245
bagnet33,1,583,NaN,clock,clock,0,0583_pow_dnn_0_clock_35_n03196217_6467.png,n03196217_6467.png,1.0,5.8530216,5.185417,0.47206765
bagnet33,1,584,NaN,clock,bottle,pow,0584_pow_dnn_pow_bottle_35_n03983396_2864.png,n03983396_2864.png,0.0,3.3115597,7.207849,-2.7550926
bagnet33,1,585,NaN,boat,bottle,0,0585_pow_dnn_0_bottle_35_n04557648_10171.png,n04557648_10171.png,0.0,3.4910321,3.5545049,-0.04488201
bagnet33,1,586,NaN,knife,bird,pow,0586_pow_dnn_pow_bird_35_n01860187_2052.png,n01860187_2052.png,0.0,0.5767953,2.7757125,-1.5548693
bagnet33,1,587,NaN,car,car,0,0587_pow_dnn_0_car_35_n04285008_5897.png,n04285008_5897.png,1.0,18.640173,11.712613,4.8985248
bagnet33,1,588,NaN,elephant,elephant,0,0588_pow_dnn_0_elephant_35_n02504458_4721.png,n02504458_4721.png,1.0,25.672037,3.8630428,15.4212885
bagnet33,1,589,NaN,car,car,0,0589_pow_dnn_0_car_35_n02814533_93476.png,n02814533_93476.png,1.0,17.17734,12.446387,3.3452885
bagnet33,1,590,NaN,oven,bird,pow,0590_pow_dnn_pow_bird_35_n01824575_10337.png,n01824575_10337.png,0.0,-0.85213995,5.6068373,-4.567187
bagnet33,1,591,NaN,clock,dog,pow,0591_pow_dnn_pow_dog_35_n02100735_10683.png,n02100735_10683.png,0.0,-2.3671374,5.7210717,-5.719228
bagnet33,1,592,NaN,airplane,airplane,pow,0592_pow_dnn_pow_airplane_35_n02690373_4402.png,n02690373_4402.png,1.0,7.668121,7.6295004,0.027308797
bagnet33,1,593,NaN,airplane,airplane,0,0593_pow_dnn_0_airplane_35_n02690373_4350.png,n02690373_4350.png,1.0,13.930691,4.2204843,6.8661532
bagnet33,1,594,NaN,airplane,bottle,pow,0594_pow_dnn_pow_bottle_35_n02823428_6327.png,n02823428_6327.png,0.0,5.35934,5.9688334,-0.4309768
bagnet33,1,595,NaN,elephant,dog,pow,0595_pow_dnn_pow_dog_35_n02104029_3041.png,n02104029_3041.png,0.0,0.49930137,4.6530104,-2.937116
bagnet33,1,596,NaN,elephant,elephant,pow,0596_pow_dnn_pow_elephant_35_n02504013_24810.png,n02504013_24810.png,1.0,6.0445004,3.5237021,1.7824736
bagnet33,1,597,NaN,clock,clock,pow,0597_pow_dnn_pow_clock_35_n04548280_4473.png,n04548280_4473.png,1.0,8.864787,7.7497296,0.7884647
bagnet33,1,598,NaN,elephant,dog,pow,0598_pow_dnn_pow_dog_35_n02107908_5597.png,n02107908_5597.png,0.0,3.949696,7.5082664,-2.5162892
bagnet33,1,599,NaN,truck,truck,0,0599_pow_dnn_0_truck_35_n04467665_57697.png,n04467665_57697.png,1.0,12.877771,8.769052,2.9053037
bagnet33,1,600,NaN,knife,bottle,pow,0600_pow_dnn_pow_bottle_35_n03983396_6889.png,n03983396_6889.png,0.0,3.970688,8.275661,-3.044076
bagnet33,1,601,NaN,bear,bear,pow,0601_pow_dnn_pow_bear_35_n02134418_1826.png,n02134418_1826.png,1.0,7.378743,3.5586257,2.701231
bagnet33,1,602,NaN,cat,cat,pow,0602_pow_dnn_pow_cat_35_n02123159_4687.png,n02123159_4687.png,1.0,5.009779,3.8655071,0.8091224
bagnet33,1,603,NaN,airplane,boat,pow,0603_pow_dnn_pow_boat_35_n03344393_5798.png,n03344393_5798.png,0.0,3.3165016,5.990603,-1.8908752
bagnet33,1,604,NaN,airplane,car,pow,0604_pow_dnn_pow_car_35_n04285008_11745.png,n04285008_11745.png,0.0,-0.91568106,3.5035033,-3.1248353
bagnet33,1,605,NaN,clock,clock,0,0605_pow_dnn_0_clock_35_n02708093_353.png,n02708093_353.png,1.0,13.7773485,8.313324,3.863649
bagnet33,1,606,NaN,airplane,airplane,0,0606_pow_dnn_0_airplane_35_n02690373_4763.png,n02690373_4763.png,1.0,25.688015,5.2213335,14.47213
bagnet33,1,607,NaN,elephant,elephant,0,0607_pow_dnn_0_elephant_35_n02504013_18498.png,n02504013_18498.png,1.0,18.533909,5.9083843,8.927594
bagnet33,1,608,NaN,cat,cat,pow,0608_pow_dnn_pow_cat_35_n02123394_159.png,n02123394_159.png,1.0,3.3281434,2.9728243,0.2512485
bagnet33,1,609,NaN,boat,boat,0,0609_pow_dnn_0_boat_35_n03662601_18676.png,n03662601_18676.png,1.0,11.438891,7.15399,3.0298831
bagnet33,1,610,NaN,clock,truck,pow,0610_pow_dnn_pow_truck_35_n03796401_1789.png,n03796401_1789.png,0.0,2.6850944,5.368727,-1.8976151
bagnet33,1,611,NaN,chair,chair,0,0611_pow_dnn_0_chair_35_n04099969_4816.png,n04099969_4816.png,1.0,8.824249,6.0065093,1.9924431
bagnet33,1,612,NaN,elephant,elephant,0,0612_pow_dnn_0_elephant_35_n02504458_7013.png,n02504458_7013.png,1.0,31.070496,4.522813,18.772047
bagnet33,1,613,NaN,clock,knife,pow,0613_pow_dnn_pow_knife_35_n03041632_92637.png,n03041632_92637.png,0.0,1.5674886,1.658003,-0.06400336
bagnet33,1,614,NaN,keyboard,keyboard,0,0614_pow_dnn_0_keyboard_35_n03085013_19607.png,n03085013_19607.png,1.0,21.294533,8.4874325,9.055987
bagnet33,1,615,NaN,elephant,cat,pow,0615_pow_dnn_pow_cat_35_n02123597_1027.png,n02123597_1027.png,0.0,3.1830585,3.713471,-0.37505823
bagnet33,1,616,NaN,bicycle,bicycle,0,0616_pow_dnn_0_bicycle_35_n02835271_9135.png,n02835271_9135.png,1.0,9.178142,3.0732408,4.316817
bagnet33,1,617,NaN,knife,dog,pow,0617_pow_dnn_pow_dog_35_n02111500_3896.png,n02111500_3896.png,0.0,0.7034736,2.140304,-1.0159926
bagnet33,1,618,NaN,oven,oven,0,0618_pow_dnn_0_oven_35_n04111531_8398.png,n04111531_8398.png,1.0,5.5961514,4.079433,1.0724819
bagnet33,1,619,NaN,oven,oven,0,0619_pow_dnn_0_oven_35_n04111531_6049.png,n04111531_6049.png,1.0,13.043985,5.90621,5.0471697
bagnet33,1,620,NaN,knife,chair,pow,0620_pow_dnn_pow_chair_35_n03376595_6947.png,n03376595_6947.png,0.0,1.8381059,4.2116137,-1.6783234
bagnet33,1,621,NaN,elephant,dog,pow,0621_pow_dnn_pow_dog_35_n02097658_6717.png,n02097658_6717.png,0.0,1.8973751,5.6544905,-2.6566818
bagnet33,1,622,NaN,knife,knife,0,0622_pow_dnn_0_knife_35_n03041632_21560.png,n03041632_21560.png,1.0,5.7108035,3.3216648,1.6893762
bagnet33,1,623,NaN,clock,boat,pow,0623_pow_dnn_pow_boat_35_n03662601_7642.png,n03662601_7642.png,0.0,3.615274,4.8602195,-0.88030946
bagnet33,1,624,NaN,airplane,car,0,0624_pow_dnn_0_car_35_n04285008_1313.png,n04285008_1313.png,0.0,9.037576,9.597628,-0.3960165
bagnet33,1,625,NaN,oven,chair,pow,0625_pow_dnn_pow_chair_35_n03376595_6409.png,n03376595_6409.png,0.0,4.9052973,5.3198476,-0.29313132
bagnet33,1,626,NaN,elephant,bear,pow,0626_pow_dnn_pow_bear_35_n02133161_6028.png,n02133161_6028.png,0.0,1.8989155,1.9776264,-0.05565702
bagnet33,1,627,NaN,elephant,bear,pow,0627_pow_dnn_pow_bear_35_n02132136_29029.png,n02132136_29029.png,0.0,3.6114895,4.160969,-0.3885405
bagnet33,1,628,NaN,truck,truck,0,0628_pow_dnn_0_truck_35_n04467665_7290.png,n04467665_7290.png,1.0,12.902441,7.1711936,4.052604
bagnet33,1,629,NaN,elephant,bird,pow,0629_pow_dnn_pow_bird_35_n01537544_9745.png,n01537544_9745.png,0.0,0.70660305,3.7738824,-2.168894
bagnet33,1,630,NaN,bicycle,bicycle,0,0630_pow_dnn_0_bicycle_35_n03792782_15845.png,n03792782_15845.png,1.0,4.3550816,2.275989,1.4701405
bagnet33,1,631,NaN,oven,bear,pow,0631_pow_dnn_pow_bear_35_n02133161_8982.png,n02133161_8982.png,0.0,1.9558462,2.3190513,-0.25682476
bagnet33,1,632,NaN,knife,knife,0,0632_pow_dnn_0_knife_35_n03041632_6575.png,n03041632_6575.png,1.0,10.350027,3.8700829,4.5820127
bagnet33,1,633,NaN,knife,knife,0,0633_pow_dnn_0_knife_35_n03041632_32785.png,n03041632_32785.png,1.0,7.964747,3.22002,3.3550289
bagnet33,1,634,NaN,chair,chair,pow,0634_pow_dnn_pow_chair_35_n04429376_12691.png,n04429376_12691.png,1.0,3.73105,3.4842231,0.17453296
bagnet33,1,635,NaN,elephant,dog,pow,0635_pow_dnn_pow_dog_35_n02097298_6578.png,n02097298_6578.png,0.0,4.2113347,7.430064,-2.2759855
bagnet33,1,636,NaN,knife,knife,pow,0636_pow_dnn_pow_knife_35_n03041632_94995.png,n03041632_94995.png,1.0,3.5720105,2.2758775,0.9165045
bagnet33,1,637,NaN,clock,clock,0,0637_pow_dnn_0_clock_35_n02708093_41.png,n02708093_41.png,1.0,16.210932,10.409356,4.1023335
bagnet33,1,638,NaN,keyboard,keyboard,0,0638_pow_dnn_0_keyboard_35_n03085013_7892.png,n03085013_7892.png,1.0,18.285343,6.2704387,8.49582
bagnet33,1,639,NaN,knife,knife,pow,0639_pow_dnn_pow_knife_35_n03041632_84048.png,n03041632_84048.png,1.0,5.809478,3.7235653,1.4749628
bagnet33,1,640,NaN,airplane,airplane,0,0640_pow_dnn_0_airplane_35_n02690373_3415.png,n02690373_3415.png,1.0,18.403358,4.8232317,9.6026
bagnet33,1,641,NaN,oven,knife,0,0641_pow_dnn_0_knife_35_n03041632_31483.png,n03041632_31483.png,0.0,6.153543,6.943639,-0.5586821
bagnet33,1,642,NaN,cat,dog,0,0642_pow_dnn_0_dog_35_n02110958_368.png,n02110958_368.png,0.0,2.1439831,2.402816,-0.18302253
bagnet33,1,643,NaN,bicycle,bird,0,0643_pow_dnn_0_bird_35_n02051845_539.png,n02051845_539.png,0.0,1.8837452,3.4544196,-1.1106346
bagnet33,1,644,NaN,elephant,bear,0,0644_pow_dnn_0_bear_35_n02134084_11187.png,n02134084_11187.png,0.0,6.0188074,9.0183325,-2.1209846
bagnet33,1,645,NaN,bird,bird,0,0645_pow_dnn_0_bird_35_n01531178_17387.png,n01531178_17387.png,1.0,6.5032687,3.1423259,2.3765454
bagnet33,1,646,NaN,keyboard,keyboard,0,0646_pow_dnn_0_keyboard_35_n04505470_5131.png,n04505470_5131.png,1.0,10.124453,6.1253653,2.827782
bagnet33,1,647,NaN,cat,cat,0,0647_pow_dnn_0_cat_35_n02123159_2246.png,n02123159_2246.png,1.0,15.438466,5.1846595,7.2505364
bagnet33,1,648,NaN,oven,oven,0,0648_pow_dnn_0_oven_35_n04111531_1725.png,n04111531_1725.png,1.0,10.303459,4.2629604,4.271278
bagnet33,1,649,NaN,clock,clock,0,0649_pow_dnn_0_clock_35_n02708093_2295.png,n02708093_2295.png,1.0,21.110643,5.566662,10.991255
bagnet33,1,650,NaN,knife,cat,pow,0650_pow_dnn_pow_cat_35_n02125311_5013.png,n02125311_5013.png,0.0,1.4643122,3.854896,-1.6903982
bagnet33,1,651,NaN,bottle,keyboard,pow,0651_pow_dnn_pow_keyboard_35_n03085013_24665.png,n03085013_24665.png,0.0,-0.22506845,2.7702997,-2.118045
bagnet33,1,652,NaN,elephant,elephant,pow,0652_pow_dnn_pow_elephant_35_n02504013_9678.png,n02504013_9678.png,1.0,6.837451,3.7645555,2.1728654
bagnet33,1,653,NaN,keyboard,keyboard,0,0653_pow_dnn_0_keyboard_35_n03085013_7858.png,n03085013_7858.png,1.0,20.472342,7.1978316,9.386496
bagnet33,1,654,NaN,boat,boat,0,0654_pow_dnn_0_boat_35_n04612504_2089.png,n04612504_2089.png,1.0,5.5151863,3.921235,1.1270938
bagnet33,1,655,NaN,dog,dog,0,0655_pow_dnn_0_dog_35_n02091831_4183.png,n02091831_4183.png,1.0,8.261479,4.662933,2.5445566
bagnet33,1,656,NaN,cat,cat,0,0656_pow_dnn_0_cat_35_n02125311_475.png,n02125311_475.png,1.0,20.649221,4.270255,11.581679
bagnet33,1,657,NaN,clock,clock,0,0657_pow_dnn_0_clock_35_n03196217_2607.png,n03196217_2607.png,1.0,6.7758636,4.479812,1.6235536
bagnet33,1,658,NaN,car,car,0,0658_pow_dnn_0_car_35_n02814533_93487.png,n02814533_93487.png,1.0,14.649342,12.617919,1.4364327
bagnet33,1,659,NaN,dog,dog,0,0659_pow_dnn_0_dog_35_n02108000_6270.png,n02108000_6270.png,1.0,6.6065087,3.048224,2.5160873
bagnet33,1,660,NaN,oven,chair,pow,0660_pow_dnn_pow_chair_35_n04099969_20900.png,n04099969_20900.png,0.0,0.74229133,5.3560877,-3.2624466
bagnet33,1,661,NaN,car,car,0,0661_pow_dnn_0_car_35_n03100240_8483.png,n03100240_8483.png,1.0,15.497474,9.949025,3.9233456
bagnet33,1,662,NaN,clock,chair,0,0662_pow_dnn_0_chair_35_n03376595_2056.png,n03376595_2056.png,0.0,4.938647,5.1403756,-0.14264382
bagnet33,1,663,NaN,clock,boat,pow,0663_pow_dnn_pow_boat_35_n04612504_2479.png,n04612504_2479.png,0.0,2.2966673,4.130637,-1.2968125
bagnet33,1,664,NaN,cat,cat,pow,0664_pow_dnn_pow_cat_35_n02123045_5228.png,n02123045_5228.png,1.0,18.910559,6.0621333,9.085209
bagnet33,1,665,NaN,airplane,airplane,0,0665_pow_dnn_0_airplane_35_n02690373_10404.png,n02690373_10404.png,1.0,12.678265,3.8413322,6.248655
bagnet33,1,666,NaN,oven,knife,0,0666_pow_dnn_0_knife_35_n03041632_29427.png,n03041632_29427.png,0.0,4.4473076,10.44659,-4.2421336
bagnet33,1,667,NaN,bottle,oven,0,0667_pow_dnn_0_oven_35_n04111531_7355.png,n04111531_7355.png,0.0,6.530092,8.340166,-1.2799158
bagnet33,1,668,NaN,clock,clock,0,0668_pow_dnn_0_clock_35_n03196217_3333.png,n03196217_3333.png,1.0,12.659638,8.569049,2.8924837
bagnet33,1,669,NaN,bird,bird,0,0669_pow_dnn_0_bird_35_n02027492_9905.png,n02027492_9905.png,1.0,6.5264707,3.68677,2.0079718
bagnet33,1,670,NaN,airplane,airplane,0,0670_pow_dnn_0_airplane_35_n02690373_9709.png,n02690373_9709.png,1.0,10.898457,3.9023108,4.947022
bagnet33,1,671,NaN,airplane,clock,0,0671_pow_dnn_0_clock_35_n03196217_3558.png,n03196217_3558.png,0.0,3.0338154,3.456429,-0.29883295
bagnet33,1,672,NaN,elephant,elephant,pow,0672_pow_dnn_pow_elephant_35_n02504013_1854.png,n02504013_1854.png,1.0,3.5248184,2.9183776,0.4288184
bagnet33,1,673,NaN,oven,boat,pow,0673_pow_dnn_pow_boat_35_n03662601_15566.png,n03662601_15566.png,0.0,0.3383213,5.3759494,-3.5621412
bagnet33,1,674,NaN,oven,chair,pow,0674_pow_dnn_pow_chair_35_n03376595_235.png,n03376595_235.png,0.0,2.9788368,6.9116006,-2.780884
bagnet33,1,675,NaN,boat,boat,0,0675_pow_dnn_0_boat_35_n03344393_7669.png,n03344393_7669.png,1.0,8.783774,5.138437,2.577643
bagnet33,1,676,NaN,knife,cat,pow,0676_pow_dnn_pow_cat_35_n02123159_4952.png,n02123159_4952.png,0.0,0.8692479,4.5647306,-2.613101
bagnet33,1,677,NaN,truck,truck,pow,0677_pow_dnn_pow_truck_35_n03417042_16403.png,n03417042_16403.png,1.0,11.898993,10.07603,1.2890294
bagnet33,1,678,NaN,elephant,dog,pow,0678_pow_dnn_pow_dog_35_n02094258_794.png,n02094258_794.png,0.0,1.8310032,5.440851,-2.5525482
bagnet33,1,679,NaN,chair,knife,0,0679_pow_dnn_0_knife_35_n03041632_3504.png,n03041632_3504.png,0.0,4.657284,6.1951475,-1.0874339
bagnet33,1,680,NaN,truck,truck,0,0680_pow_dnn_0_truck_35_n03796401_10878.png,n03796401_10878.png,1.0,11.534853,7.067855,3.1586447
bagnet33,1,681,NaN,chair,bear,0,0681_pow_dnn_0_bear_35_n02134084_13029.png,n02134084_13029.png,0.0,2.4706771,5.959522,-2.4669857
bagnet33,1,682,NaN,elephant,bird,pow,0682_pow_dnn_pow_bird_35_n01534433_14336.png,n01534433_14336.png,0.0,-1.4975672,2.4965467,-2.824265
bagnet33,1,683,NaN,bottle,bottle,0,0683_pow_dnn_0_bottle_35_n04560804_647.png,n04560804_647.png,1.0,8.213046,6.34303,1.322301
bagnet33,1,684,NaN,airplane,airplane,0,0684_pow_dnn_0_airplane_35_n02690373_4107.png,n02690373_4107.png,1.0,23.8056,5.583406,12.885036
bagnet33,1,685,NaN,clock,chair,0,0685_pow_dnn_0_chair_35_n04429376_8069.png,n04429376_8069.png,0.0,4.4061112,4.5863943,-0.12747939
bagnet33,1,686,NaN,oven,oven,pow,0686_pow_dnn_pow_oven_35_n04111531_23668.png,n04111531_23668.png,1.0,7.062196,4.2573466,1.9833279
bagnet33,1,687,NaN,airplane,airplane,pow,0687_pow_dnn_pow_airplane_35_n02690373_1071.png,n02690373_1071.png,1.0,7.478935,5.404202,1.4670576
bagnet33,1,688,NaN,elephant,elephant,0,0688_pow_dnn_0_elephant_35_n02504458_7841.png,n02504458_7841.png,1.0,8.004832,4.5609016,2.4352267
bagnet33,1,689,NaN,elephant,elephant,0,0689_pow_dnn_0_elephant_35_n02504458_7777.png,n02504458_7777.png,1.0,12.660858,2.5526552,7.147579
bagnet33,1,690,NaN,clock,clock,0,0690_pow_dnn_0_clock_35_n02708093_8179.png,n02708093_8179.png,1.0,13.11568,8.820951,3.0368316
bagnet33,1,691,NaN,oven,oven,pow,0691_pow_dnn_pow_oven_35_n04111531_12702.png,n04111531_12702.png,1.0,5.4523153,3.4668937,1.4039052
bagnet33,1,692,NaN,oven,oven,pow,0692_pow_dnn_pow_oven_35_n04111531_14441.png,n04111531_14441.png,1.0,7.870866,3.2382538,3.2757516
bagnet33,1,693,NaN,bicycle,bicycle,0,0693_pow_dnn_0_bicycle_35_n03792782_2435.png,n03792782_2435.png,1.0,30.523664,8.670634,15.452427
bagnet33,1,694,NaN,airplane,boat,pow,0694_pow_dnn_pow_boat_35_n04273569_23162.png,n04273569_23162.png,0.0,0.45071453,5.05041,-3.2524757
bagnet33,1,695,NaN,cat,cat,0,0695_pow_dnn_0_cat_35_n02123159_5270.png,n02123159_5270.png,1.0,22.815577,4.1071978,13.228821
bagnet33,1,696,NaN,elephant,elephant,0,0696_pow_dnn_0_elephant_35_n02504013_3410.png,n02504013_3410.png,1.0,8.706386,3.528635,3.6612227
bagnet33,1,697,NaN,cat,cat,0,0697_pow_dnn_0_cat_35_n02123394_506.png,n02123394_506.png,1.0,11.0876,6.797904,3.033273
bagnet33,1,698,NaN,bottle,bottle,0,0698_pow_dnn_0_bottle_35_n04579145_2202.png,n04579145_2202.png,1.0,11.602951,7.7935286,2.6936686
bagnet33,1,699,NaN,clock,bicycle,pow,0699_pow_dnn_pow_bicycle_35_n03792782_3357.png,n03792782_3357.png,0.0,5.686496,6.6457844,-0.67831945
bagnet33,1,700,NaN,bicycle,bicycle,0,0700_pow_dnn_0_bicycle_35_n03792782_12751.png,n03792782_12751.png,1.0,17.262302,4.224476,9.219135
bagnet33,1,701,NaN,cat,cat,pow,0701_pow_dnn_pow_cat_35_n02125311_30246.png,n02125311_30246.png,1.0,13.06495,5.721753,5.1924243
bagnet33,1,702,NaN,keyboard,keyboard,0,0702_pow_dnn_0_keyboard_35_n04505470_2102.png,n04505470_2102.png,1.0,32.25032,10.538465,15.352601
bagnet33,1,703,NaN,bottle,bicycle,pow,0703_pow_dnn_pow_bicycle_35_n03792782_51296.png,n03792782_51296.png,0.0,2.1125,5.055239,-2.0808308
bagnet33,1,704,NaN,knife,keyboard,pow,0704_pow_dnn_pow_keyboard_35_n03085013_29452.png,n03085013_29452.png,0.0,2.5642397,8.603264,-4.270235
bagnet33,1,705,NaN,oven,oven,pow,0705_pow_dnn_pow_oven_35_n04111531_5967.png,n04111531_5967.png,1.0,7.1168976,3.4778829,2.573172
bagnet33,1,706,NaN,bottle,bottle,0,0706_pow_dnn_0_bottle_35_n02823428_5850.png,n02823428_5850.png,1.0,10.30982,5.9933887,3.0521781
bagnet33,1,707,NaN,bicycle,knife,0,0707_pow_dnn_0_knife_35_n03041632_16020.png,n03041632_16020.png,0.0,4.586739,4.781333,-0.13759868
bagnet33,1,708,NaN,bottle,bottle,pow,0708_pow_dnn_pow_bottle_35_n02823428_774.png,n02823428_774.png,1.0,6.962461,3.306291,2.5853026
bagnet33,1,709,NaN,knife,bottle,pow,0709_pow_dnn_pow_bottle_35_n04557648_85.png,n04557648_85.png,0.0,1.0877534,4.408564,-2.348168
bagnet33,1,710,NaN,clock,clock,0,0710_pow_dnn_0_clock_35_n02708093_7535.png,n02708093_7535.png,1.0,32.486084,10.059774,15.857796
bagnet33,1,711,NaN,cat,dog,0,0711_pow_dnn_0_dog_35_n02109961_66260.png,n02109961_66260.png,0.0,2.7861712,8.452998,-4.007052
bagnet33,1,712,NaN,cat,cat,0,0712_pow_dnn_0_cat_35_n02123045_9947.png,n02123045_9947.png,1.0,28.008614,8.934963,13.487107
bagnet33,1,713,NaN,clock,clock,0,0713_pow_dnn_0_clock_35_n03196217_1519.png,n03196217_1519.png,1.0,7.4614863,7.229,0.1643926
bagnet33,1,714,NaN,keyboard,keyboard,0,0714_pow_dnn_0_keyboard_35_n03085013_23354.png,n03085013_23354.png,1.0,11.05524,4.796128,4.4258604
bagnet33,1,715,NaN,oven,bicycle,pow,0715_pow_dnn_pow_bicycle_35_n02835271_3767.png,n02835271_3767.png,0.0,5.4267445,5.5080924,-0.057521682
bagnet33,1,716,NaN,bottle,bottle,0,0716_pow_dnn_0_bottle_35_n03937543_2941.png,n03937543_2941.png,1.0,5.40132,2.6189957,1.9674004
bagnet33,1,717,NaN,chair,chair,0,0717_pow_dnn_0_chair_35_n04099969_2113.png,n04099969_2113.png,1.0,7.8544717,3.9980657,2.7268908
bagnet33,1,718,NaN,clock,clock,0,0718_pow_dnn_0_clock_35_n03196217_4879.png,n03196217_4879.png,1.0,19.245354,7.484266,8.316345
bagnet33,1,719,NaN,clock,clock,0,0719_pow_dnn_0_clock_35_n04548280_16378.png,n04548280_16378.png,1.0,28.914871,10.782876,12.821258
bagnet33,1,720,NaN,oven,boat,pow,0720_pow_dnn_pow_boat_35_n03344393_6892.png,n03344393_6892.png,0.0,0.2611525,3.0957398,-2.004356
bagnet33,1,721,NaN,knife,knife,0,0721_pow_dnn_0_knife_35_n03041632_45312.png,n03041632_45312.png,1.0,18.779053,5.0765076,9.689163
bagnet33,1,722,NaN,airplane,boat,0,0722_pow_dnn_0_boat_35_n02951358_31965.png,n02951358_31965.png,0.0,5.273076,6.967991,-1.1984857
bagnet33,1,723,NaN,knife,cat,pow,0723_pow_dnn_pow_cat_35_n02123159_463.png,n02123159_463.png,0.0,-0.46680441,5.0039024,-3.868374
bagnet33,1,724,NaN,truck,truck,0,0724_pow_dnn_0_truck_35_n03417042_213.png,n03417042_213.png,1.0,6.2110877,5.692745,0.3665235
bagnet33,1,725,NaN,knife,knife,0,0725_pow_dnn_0_knife_35_n03041632_383.png,n03041632_383.png,1.0,12.61862,3.610386,6.3697834
bagnet33,1,726,NaN,boat,boat,0,0726_pow_dnn_0_boat_35_n03662601_4059.png,n03662601_4059.png,1.0,11.862822,7.6009545,3.013595
bagnet33,1,727,NaN,dog,dog,0,0727_pow_dnn_0_dog_35_n02088632_2321.png,n02088632_2321.png,1.0,5.9219127,5.0737133,0.5997675
bagnet33,1,728,NaN,airplane,car,pow,0728_pow_dnn_pow_car_35_n02814533_58196.png,n02814533_58196.png,0.0,5.7486243,7.022415,-0.9007062
bagnet33,1,729,NaN,bottle,bottle,0,0729_pow_dnn_0_bottle_35_n04591713_5129.png,n04591713_5129.png,1.0,13.431817,5.141178,5.862367
bagnet33,1,730,NaN,bicycle,bicycle,0,0730_pow_dnn_0_bicycle_35_n03792782_3333.png,n03792782_3333.png,1.0,10.2664795,5.886343,3.0972242
bagnet33,1,731,NaN,elephant,elephant,0,0731_pow_dnn_0_elephant_35_n02504013_6973.png,n02504013_6973.png,1.0,11.363798,4.142626,5.10614
bagnet33,1,732,NaN,airplane,airplane,0,0732_pow_dnn_0_airplane_35_n02690373_3493.png,n02690373_3493.png,1.0,26.264528,4.7897487,15.184962
bagnet33,1,733,NaN,elephant,bear,pow,0733_pow_dnn_pow_bear_35_n02134084_13588.png,n02134084_13588.png,0.0,4.8792334,6.471349,-1.1257956
bagnet33,1,734,NaN,clock,knife,pow,0734_pow_dnn_pow_knife_35_n03041632_29276.png,n03041632_29276.png,0.0,2.180161,2.510033,-0.23325466
bagnet33,1,735,NaN,elephant,elephant,0,0735_pow_dnn_0_elephant_35_n02504013_2778.png,n02504013_2778.png,1.0,13.03717,2.270894,7.612907
bagnet33,1,736,NaN,elephant,keyboard,pow,0736_pow_dnn_pow_keyboard_35_n03085013_22966.png,n03085013_22966.png,0.0,-2.3468285,5.4436955,-5.5087323
bagnet33,1,737,NaN,boat,boat,0,0737_pow_dnn_0_boat_35_n03662601_13754.png,n03662601_13754.png,1.0,7.33269,6.881194,0.31925565
bagnet33,1,738,NaN,elephant,bird,0,0738_pow_dnn_0_bird_35_n02009229_8793.png,n02009229_8793.png,0.0,5.2570114,7.3822584,-1.5027766
bagnet33,1,739,NaN,knife,oven,pow,0739_pow_dnn_pow_oven_35_n04111531_7283.png,n04111531_7283.png,0.0,3.6391187,4.999757,-0.9621165
bagnet33,1,740,NaN,elephant,bear,pow,0740_pow_dnn_pow_bear_35_n02133161_505.png,n02133161_505.png,0.0,2.8221242,3.3191266,-0.35143375
bagnet33,1,741,NaN,elephant,elephant,pow,0741_pow_dnn_pow_elephant_35_n02504458_5320.png,n02504458_5320.png,1.0,23.389006,2.8989658,14.4886465
bagnet33,1,742,NaN,oven,bird,pow,0742_pow_dnn_pow_bird_35_n01829413_943.png,n01829413_943.png,0.0,-0.5498677,3.5709567,-2.913863
bagnet33,1,743,NaN,knife,knife,pow,0743_pow_dnn_pow_knife_35_n03041632_4494.png,n03041632_4494.png,1.0,8.107665,2.1271274,4.2288785
bagnet33,1,744,NaN,knife,bird,0,0744_pow_dnn_0_bird_35_n01819313_2722.png,n01819313_2722.png,0.0,2.5208201,3.414661,-0.6320409
bagnet33,1,745,NaN,bottle,bottle,pow,0745_pow_dnn_pow_bottle_35_n04557648_1184.png,n04557648_1184.png,1.0,4.4048605,2.8328402,1.1115862
bagnet33,1,746,NaN,bottle,bottle,0,0746_pow_dnn_0_bottle_35_n03983396_16628.png,n03983396_16628.png,1.0,22.201918,7.9787874,10.057272
bagnet33,1,747,NaN,clock,car,pow,0747_pow_dnn_pow_car_35_n03100240_4065.png,n03100240_4065.png,0.0,5.0466504,6.2179565,-0.82823855
bagnet33,1,748,NaN,elephant,elephant,pow,0748_pow_dnn_pow_elephant_35_n02504013_6584.png,n02504013_6584.png,1.0,13.028327,4.7807827,5.8318944
bagnet33,1,749,NaN,knife,cat,pow,0749_pow_dnn_pow_cat_35_n02123597_111.png,n02123597_111.png,0.0,-0.49330187,5.973279,-4.572563
bagnet33,1,750,NaN,clock,clock,pow,0750_pow_dnn_pow_clock_35_n04548280_17907.png,n04548280_17907.png,1.0,4.2412834,3.0699716,0.82824254
bagnet33,1,751,NaN,bottle,airplane,pow,0751_pow_dnn_pow_airplane_35_n02690373_2147.png,n02690373_2147.png,0.0,4.5898743,5.075612,-0.3434685
bagnet33,1,752,NaN,airplane,airplane,pow,0752_pow_dnn_pow_airplane_35_n02690373_4225.png,n02690373_4225.png,1.0,10.92593,5.481409,3.8498578
bagnet33,1,753,NaN,elephant,bottle,pow,0753_pow_dnn_pow_bottle_35_n04591713_1767.png,n04591713_1767.png,0.0,4.3817925,4.6008263,-0.15488023
