subj,session,trial,rt,object_response,category,condition,imagename,filename,is_correct,targ_act,max_nontarg_act,decision_margin
vit_b_16,1,1,NaN,clock,clock,0,0001_pow_dnn_0_clock_35_n03196217_10246.png,n03196217_10246.png,1.0,5.481647,0.25026968,3.6991422
vit_b_16,1,2,NaN,elephant,dog,pow,0002_pow_dnn_pow_dog_35_n02091467_7264.png,n02091467_7264.png,0.0,0.09947043,1.1975946,-0.7764911
vit_b_16,1,3,NaN,clock,chair,pow,0003_pow_dnn_pow_chair_35_n02791124_713.png,n02791124_713.png,0.0,0.8351469,0.9258532,-0.06413903
vit_b_16,1,4,NaN,truck,car,0,0004_pow_dnn_0_car_35_n02814533_35174.png,n02814533_35174.png,0.0,1.8006426,3.2946162,-1.0563989
vit_b_16,1,5,NaN,knife,knife,pow,0005_pow_dnn_pow_knife_35_n03041632_46103.png,n03041632_46103.png,1.0,3.3231068,0.84322715,1.7535397
vit_b_16,1,6,NaN,bicycle,bicycle,0,0006_pow_dnn_0_bicycle_35_n03792782_11306.png,n03792782_11306.png,1.0,7.1041584,0.42667097,4.721697
vit_b_16,1,7,NaN,bird,bird,0,0007_pow_dnn_0_bird_35_n02002556_3463.png,n02002556_3463.png,1.0,0.43402192,0.35745448,0.054141358
vit_b_16,1,8,NaN,knife,keyboard,pow,0008_pow_dnn_pow_keyboard_35_n03085013_22813.png,n03085013_22813.png,0.0,0.025068805,2.2040439,-1.5407681
vit_b_16,1,9,NaN,bird,bird,0,0009_pow_dnn_0_bird_35_n02025239_2961.png,n02025239_2961.png,1.0,0.18559761,0.17206402,0.009569695
vit_b_16,1,10,NaN,boat,boat,pow,0010_pow_dnn_pow_boat_35_n02951358_14504.png,n02951358_14504.png,1.0,2.5661447,1.7047838,0.6090742
vit_b_16,1,11,NaN,oven,oven,0,0011_pow_dnn_0_oven_35_n04111531_19000.png,n04111531_19000.png,1.0,5.6952972,1.3514141,3.0715892
vit_b_16,1,12,NaN,airplane,bird,0,0012_pow_dnn_0_bird_35_n01614925_11281.png,n01614925_11281.png,0.0,0.30053124,0.35610563,-0.039297026
vit_b_16,1,13,NaN,knife,knife,0,0013_pow_dnn_0_knife_35_n03041632_52040.png,n03041632_52040.png,1.0,10.21841,0.23975618,7.0559735
vit_b_16,1,14,NaN,car,car,pow,0014_pow_dnn_pow_car_35_n03100240_14206.png,n03100240_14206.png,1.0,5.603314,0.73778594,3.440448
vit_b_16,1,15,NaN,elephant,bird,0,0015_pow_dnn_0_bird_35_n01817953_689.png,n01817953_689.png,0.0,-0.281897,0.6411209,-0.65267223
vit_b_16,1,16,NaN,chair,chair,pow,0016_pow_dnn_pow_chair_35_n04099969_7934.png,n04099969_7934.png,1.0,4.5044875,0.6766677,2.7066774
vit_b_16,1,17,NaN,knife,knife,0,0017_pow_dnn_0_knife_35_n03041632_30196.png,n03041632_30196.png,1.0,9.76719,0.5018716,6.5515695
vit_b_16,1,18,NaN,car,car,0,0018_pow_dnn_0_car_35_n02814533_18077.png,n02814533_18077.png,1.0,4.8348765,2.663611,1.5353167
vit_b_16,1,19,NaN,cat,cat,0,0019_pow_dnn_0_cat_35_n02123159_6927.png,n02123159_6927.png,1.0,4.036197,1.4056871,1.8600515
vit_b_16,1,20,NaN,oven,bird,pow,0020_pow_dnn_pow_bird_35_n01855672_8550.png,n01855672_8550.png,0.0,0.13801135,0.3555645,-0.15383331
vit_b_16,1,21,NaN,truck,truck,0,0021_pow_dnn_0_truck_35_n03417042_17888.png,n03417042_17888.png,1.0,1.5912967,0.2699576,0.9343279
vit_b_16,1,22,NaN,truck,truck,pow,0022_pow_dnn_pow_truck_35_n04467665_45611.png,n04467665_45611.png,1.0,2.1068857,1.0081816,0.7769011
vit_b_16,1,23,NaN,elephant,dog,pow,0023_pow_dnn_pow_dog_35_n02093256_1772.png,n02093256_1772.png,0.0,-0.2350816,2.613422,-2.0141962
vit_b_16,1,24,NaN,boat,boat,pow,0024_pow_dnn_pow_boat_35_n03344393_6260.png,n03344393_6260.png,1.0,1.851846,0.73344576,0.7908284
vit_b_16,1,25,NaN,chair,chair,0,0025_pow_dnn_0_chair_35_n04429376_24073.png,n04429376_24073.png,1.0,1.8542135,1.4367113,0.29521862
vit_b_16,1,26,NaN,knife,knife,0,0026_pow_dnn_0_knife_35_n03041632_29355.png,n03041632_29355.png,1.0,8.965218,0.34777832,6.09345
vit_b_16,1,27,NaN,clock,clock,0,0027_pow_dnn_0_clock_35_n03196217_5907.png,n03196217_5907.png,1.0,5.66476,0.74562305,3.4783552
vit_b_16,1,28,NaN,airplane,airplane,0,0028_pow_dnn_0_airplane_35_n02690373_7276.png,n02690373_7276.png,1.0,8.966387,0.25043198,6.1631107
vit_b_16,1,29,NaN,bicycle,bicycle,pow,0029_pow_dnn_pow_bicycle_35_n03792782_15561.png,n03792782_15561.png,1.0,7.1312017,0.53410816,4.6648498
vit_b_16,1,30,NaN,cat,cat,0,0030_pow_dnn_0_cat_35_n02123045_3505.png,n02123045_3505.png,1.0,3.975775,0.36400267,2.5539088
vit_b_16,1,31,NaN,knife,knife,0,0031_pow_dnn_0_knife_35_n03041632_34769.png,n03041632_34769.png,1.0,6.819981,2.752171,2.8763762
vit_b_16,1,32,NaN,clock,clock,pow,0032_pow_dnn_pow_clock_35_n03196217_5206.png,n03196217_5206.png,1.0,1.4280144,1.2901199,0.09750614
vit_b_16,1,33,NaN,truck,truck,0,0033_pow_dnn_0_truck_35_n04467665_58815.png,n04467665_58815.png,1.0,2.5707226,0.62439406,1.3762621
vit_b_16,1,34,NaN,keyboard,bird,0,0034_pow_dnn_0_bird_35_n01616318_2186.png,n01616318_2186.png,0.0,-0.07404925,0.2529858,-0.23124872
vit_b_16,1,35,NaN,bicycle,bicycle,pow,0035_pow_dnn_pow_bicycle_35_n03792782_12885.png,n03792782_12885.png,1.0,5.3708076,0.4175103,3.50251
vit_b_16,1,36,NaN,airplane,airplane,pow,0036_pow_dnn_pow_airplane_35_n02690373_9264.png,n02690373_9264.png,1.0,6.530382,0.7281192,4.1028194
vit_b_16,1,37,NaN,chair,chair,0,0037_pow_dnn_0_chair_35_n04099969_16079.png,n04099969_16079.png,1.0,3.7927954,0.7981909,2.1175053
vit_b_16,1,38,NaN,bicycle,bicycle,0,0038_pow_dnn_0_bicycle_35_n02835271_3027.png,n02835271_3027.png,1.0,5.378332,0.71644557,3.2964518
vit_b_16,1,39,NaN,airplane,airplane,0,0039_pow_dnn_0_airplane_35_n02690373_6614.png,n02690373_6614.png,1.0,9.075676,0.21313292,6.2667646
vit_b_16,1,40,NaN,chair,chair,pow,0040_pow_dnn_pow_chair_35_n03376595_9048.png,n03376595_9048.png,1.0,3.0108213,1.9248391,0.7679054
vit_b_16,1,41,NaN,oven,oven,0,0041_pow_dnn_0_oven_35_n04111531_6094.png,n04111531_6094.png,1.0,5.4166102,1.0413662,3.0937648
vit_b_16,1,42,NaN,clock,clock,pow,0042_pow_dnn_pow_clock_35_n02708093_687.png,n02708093_687.png,1.0,5.772573,1.2154279,3.2223883
vit_b_16,1,43,NaN,bicycle,bicycle,pow,0043_pow_dnn_pow_bicycle_35_n03792782_14931.png,n03792782_14931.png,1.0,7.405598,0.41907167,4.9402204
vit_b_16,1,44,NaN,bottle,bottle,0,0044_pow_dnn_0_bottle_35_n03937543_5567.png,n03937543_5567.png,1.0,0.79931945,0.47279936,0.23088457
vit_b_16,1,45,NaN,car,car,0,0045_pow_dnn_0_car_35_n03100240_3073.png,n03100240_3073.png,1.0,6.9238663,0.40440184,4.6099577
vit_b_16,1,46,NaN,knife,knife,0,0046_pow_dnn_0_knife_35_n03041632_18236.png,n03041632_18236.png,1.0,6.7685075,1.0113064,4.070956
vit_b_16,1,47,NaN,knife,knife,pow,0047_pow_dnn_pow_knife_35_n03041632_9302.png,n03041632_9302.png,1.0,3.8888178,0.54706323,2.3629773
vit_b_16,1,48,NaN,bear,bear,0,0048_pow_dnn_0_bear_35_n02134418_2590.png,n02134418_2590.png,1.0,4.4097476,0.12416776,3.0303626
vit_b_16,1,49,NaN,bottle,bottle,0,0049_pow_dnn_0_bottle_35_n03983396_24837.png,n03983396_24837.png,1.0,4.0667377,0.52203417,2.506484
vit_b_16,1,50,NaN,knife,knife,pow,0050_pow_dnn_pow_knife_35_n03041632_3617.png,n03041632_3617.png,1.0,7.586417,0.5894983,4.947569
vit_b_16,1,51,NaN,bicycle,bicycle,pow,0051_pow_dnn_pow_bicycle_35_n03792782_6735.png,n03792782_6735.png,1.0,6.519506,1.7863431,3.3468516
vit_b_16,1,52,NaN,car,car,0,0052_pow_dnn_0_car_35_n03100240_5387.png,n03100240_5387.png,1.0,5.647606,0.42531118,3.6927202
vit_b_16,1,53,NaN,chair,bottle,0,0053_pow_dnn_0_bottle_35_n03983396_4879.png,n03983396_4879.png,0.0,1.8089594,4.3261228,-1.7799033
vit_b_16,1,54,NaN,car,car,0,0054_pow_dnn_0_car_35_n03100240_6103.png,n03100240_6103.png,1.0,7.3643184,0.448943,4.889909
vit_b_16,1,55,NaN,bear,bird,pow,0055_pow_dnn_pow_bird_35_n01796340_9255.png,n01796340_9255.png,0.0,0.46180806,1.5706736,-0.78408635
vit_b_16,1,56,NaN,cat,cat,pow,0056_pow_dnn_pow_cat_35_n02123394_2448.png,n02123394_2448.png,1.0,1.9603914,0.9408454,0.72092795
vit_b_16,1,57,NaN,car,car,0,0057_pow_dnn_0_car_35_n04285008_13174.png,n04285008_13174.png,1.0,5.762169,1.3814869,3.09761
vit_b_16,1,58,NaN,chair,chair,pow,0058_pow_dnn_pow_chair_35_n04429376_353.png,n04429376_353.png,1.0,2.6999364,1.9944663,0.4988427
vit_b_16,1,59,NaN,elephant,boat,pow,0059_pow_dnn_pow_boat_35_n02951358_16261.png,n02951358_16261.png,0.0,-0.05830393,1.8298666,-1.3351382
vit_b_16,1,60,NaN,car,car,pow,0060_pow_dnn_pow_car_35_n04285008_15954.png,n04285008_15954.png,1.0,4.7010474,3.2633085,1.016635
vit_b_16,1,61,NaN,truck,truck,pow,0061_pow_dnn_pow_truck_35_n04467665_3411.png,n04467665_3411.png,1.0,1.9691765,1.2203027,0.52953374
vit_b_16,1,62,NaN,oven,oven,pow,0062_pow_dnn_pow_oven_35_n04111531_15743.png,n04111531_15743.png,1.0,8.28953,0.6083669,5.431402
vit_b_16,1,63,NaN,bicycle,dog,0,0063_pow_dnn_0_dog_35_n02088238_8653.png,n02088238_8653.png,0.0,-0.16455367,0.26314518,-0.30242875
vit_b_16,1,64,NaN,airplane,airplane,0,0064_pow_dnn_0_airplane_35_n02690373_4681.png,n02690373_4681.png,1.0,9.164644,0.5085252,6.120801
vit_b_16,1,65,NaN,bear,bear,pow,0065_pow_dnn_pow_bear_35_n02134418_5684.png,n02134418_5684.png,1.0,2.601076,1.4092461,0.84275097
vit_b_16,1,66,NaN,bear,bear,pow,0066_pow_dnn_pow_bear_35_n02134418_5830.png,n02134418_5830.png,1.0,4.6040306,0.5195558,2.8881598
vit_b_16,1,67,NaN,truck,truck,0,0067_pow_dnn_0_truck_35_n04467665_45983.png,n04467665_45983.png,1.0,2.367673,0.22690773,1.5137496
vit_b_16,1,68,NaN,bird,bird,0,0068_pow_dnn_0_bird_35_n01795545_14302.png,n01795545_14302.png,1.0,0.39476466,0.0399907,0.25086308
vit_b_16,1,69,NaN,oven,oven,pow,0069_pow_dnn_pow_oven_35_n04111531_19240.png,n04111531_19240.png,1.0,7.8793707,1.2382001,4.696017
vit_b_16,1,70,NaN,knife,knife,0,0070_pow_dnn_0_knife_35_n03041632_22241.png,n03041632_22241.png,1.0,7.7981806,2.2944908,3.8916965
vit_b_16,1,71,NaN,boat,boat,pow,0071_pow_dnn_pow_boat_35_n03344393_815.png,n03344393_815.png,1.0,2.494954,0.3433707,1.5213993
vit_b_16,1,72,NaN,airplane,boat,0,0072_pow_dnn_0_boat_35_n03662601_2120.png,n03662601_2120.png,0.0,1.1404124,1.2821757,-0.10024173
vit_b_16,1,73,NaN,knife,knife,pow,0073_pow_dnn_pow_knife_35_n03041632_2438.png,n03041632_2438.png,1.0,7.5686774,0.6981578,4.858191
vit_b_16,1,74,NaN,bear,bear,pow,0074_pow_dnn_pow_bear_35_n02134418_3073.png,n02134418_3073.png,1.0,2.9891806,0.48134598,1.773307
vit_b_16,1,75,NaN,bottle,bottle,pow,0075_pow_dnn_pow_bottle_35_n02823428_3328.png,n02823428_3328.png,1.0,3.9149334,1.0267453,2.0422575
vit_b_16,1,76,NaN,car,car,pow,0076_pow_dnn_pow_car_35_n04285008_13259.png,n04285008_13259.png,1.0,4.2859116,0.37145516,2.7679386
vit_b_16,1,77,NaN,oven,oven,0,0077_pow_dnn_0_oven_35_n04111531_15852.png,n04111531_15852.png,1.0,9.481064,0.6028439,6.277849
vit_b_16,1,78,NaN,elephant,dog,pow,0078_pow_dnn_pow_dog_35_n02099601_447.png,n02099601_447.png,0.0,0.75512,5.6115446,-3.434011
vit_b_16,1,79,NaN,oven,oven,pow,0079_pow_dnn_pow_oven_35_n04111531_18916.png,n04111531_18916.png,1.0,9.547161,1.3378162,5.8048835
vit_b_16,1,80,NaN,bottle,bottle,pow,0080_pow_dnn_pow_bottle_35_n04591713_1407.png,n04591713_1407.png,1.0,2.4633255,1.0274545,1.0153141
vit_b_16,1,81,NaN,oven,oven,0,0081_pow_dnn_0_oven_35_n04111531_4585.png,n04111531_4585.png,1.0,3.5800567,1.1753551,1.7003809
vit_b_16,1,82,NaN,keyboard,keyboard,pow,0082_pow_dnn_pow_keyboard_35_n03085013_8364.png,n03085013_8364.png,1.0,5.9190235,0.59292364,3.7661214
vit_b_16,1,83,NaN,bear,bear,pow,0083_pow_dnn_pow_bear_35_n02132136_15462.png,n02132136_15462.png,1.0,5.4485154,0.86874694,3.2383854
vit_b_16,1,84,NaN,bicycle,bicycle,pow,0084_pow_dnn_pow_bicycle_35_n03792782_4167.png,n03792782_4167.png,1.0,7.1265144,1.0556921,4.29272
vit_b_16,1,85,NaN,boat,boat,0,0085_pow_dnn_0_boat_35_n03662601_16106.png,n03662601_16106.png,1.0,4.2639465,0.6823197,2.5325928
vit_b_16,1,86,NaN,keyboard,keyboard,pow,0086_pow_dnn_pow_keyboard_35_n03085013_2277.png,n03085013_2277.png,1.0,5.370553,1.3979713,2.8090396
vit_b_16,1,87,NaN,airplane,airplane,pow,0087_pow_dnn_pow_airplane_35_n02690373_8461.png,n02690373_8461.png,1.0,7.8360066,0.40656242,5.2534103
vit_b_16,1,88,NaN,chair,chair,pow,0088_pow_dnn_pow_chair_35_n03376595_3304.png,n03376595_3304.png,1.0,2.954961,0.9702654,1.4033918
vit_b_16,1,89,NaN,bicycle,bicycle,0,0089_pow_dnn_0_bicycle_35_n03792782_19116.png,n03792782_19116.png,1.0,6.6395216,0.34049112,4.4540873
vit_b_16,1,90,NaN,clock,clock,0,0090_pow_dnn_0_clock_35_n02708093_6734.png,n02708093_6734.png,1.0,5.5979886,0.19920471,3.8175166
vit_b_16,1,91,NaN,chair,chair,0,0091_pow_dnn_0_chair_35_n04429376_6480.png,n04429376_6480.png,1.0,4.357453,1.833217,1.7849042
vit_b_16,1,92,NaN,bicycle,bicycle,pow,0092_pow_dnn_pow_bicycle_35_n02835271_21339.png,n02835271_21339.png,1.0,6.8054733,0.5643873,4.4131145
vit_b_16,1,93,NaN,keyboard,keyboard,pow,0093_pow_dnn_pow_keyboard_35_n03085013_3859.png,n03085013_3859.png,1.0,6.8903856,0.4608839,4.5463443
vit_b_16,1,94,NaN,chair,chair,pow,0094_pow_dnn_pow_chair_35_n03376595_360.png,n03376595_360.png,1.0,2.1105037,1.6353842,0.3359602
vit_b_16,1,95,NaN,elephant,elephant,pow,0095_pow_dnn_pow_elephant_35_n02504013_18988.png,n02504013_18988.png,1.0,7.5698085,0.5762718,4.9451776
vit_b_16,1,96,NaN,chair,chair,0,0096_pow_dnn_0_chair_35_n04429376_54570.png,n04429376_54570.png,1.0,1.8814622,1.7004046,0.12802704
vit_b_16,1,97,NaN,clock,clock,pow,0097_pow_dnn_pow_clock_35_n04548280_5189.png,n04548280_5189.png,1.0,4.4860005,2.706706,1.2581512
vit_b_16,1,98,NaN,truck,truck,pow,0098_pow_dnn_pow_truck_35_n04467665_6626.png,n04467665_6626.png,1.0,2.0635712,1.6519328,0.2910723
vit_b_16,1,99,NaN,boat,boat,0,0099_pow_dnn_0_boat_35_n03344393_3323.png,n03344393_3323.png,1.0,2.480587,0.123540804,1.6666833
vit_b_16,1,100,NaN,elephant,dog,pow,0100_pow_dnn_pow_dog_35_n02100583_3987.png,n02100583_3987.png,0.0,-0.05917781,2.8461995,-2.0544121
vit_b_16,1,101,NaN,elephant,elephant,pow,0101_pow_dnn_pow_elephant_35_n02504013_1702.png,n02504013_1702.png,1.0,6.563222,0.3482562,4.3946447
vit_b_16,1,102,NaN,airplane,truck,pow,0102_pow_dnn_pow_truck_35_n03417042_1841.png,n03417042_1841.png,0.0,2.939827,3.058375,-0.083826035
vit_b_16,1,103,NaN,truck,truck,0,0103_pow_dnn_0_truck_35_n03417042_2062.png,n03417042_2062.png,1.0,4.1490064,0.6845228,2.4497597
vit_b_16,1,104,NaN,bottle,bottle,0,0104_pow_dnn_0_bottle_35_n03983396_4178.png,n03983396_4178.png,1.0,5.119641,0.14972745,3.5142596
vit_b_16,1,105,NaN,chair,keyboard,pow,0105_pow_dnn_pow_keyboard_35_n03085013_1698.png,n03085013_1698.png,0.0,1.803042,3.2950382,-1.0550007
vit_b_16,1,106,NaN,car,car,pow,0106_pow_dnn_pow_car_35_n03100240_7056.png,n03100240_7056.png,1.0,5.288756,2.5661664,1.9251615
vit_b_16,1,107,NaN,bear,dog,pow,0107_pow_dnn_pow_dog_35_n02100735_3553.png,n02100735_3553.png,0.0,0.9699244,3.93709,-2.0981028
vit_b_16,1,108,NaN,oven,oven,pow,0108_pow_dnn_pow_oven_35_n04111531_11781.png,n04111531_11781.png,1.0,3.6457784,1.534433,1.4929466
vit_b_16,1,109,NaN,cat,cat,0,0109_pow_dnn_0_cat_35_n02123159_4914.png,n02123159_4914.png,1.0,3.7861414,0.5595584,2.2815387
vit_b_16,1,110,NaN,dog,dog,0,0110_pow_dnn_0_dog_35_n02090622_1852.png,n02090622_1852.png,1.0,1.3138344,0.16594781,0.8116784
vit_b_16,1,111,NaN,car,car,pow,0111_pow_dnn_pow_car_35_n03100240_24471.png,n03100240_24471.png,1.0,5.6794777,0.52387077,3.6455646
vit_b_16,1,112,NaN,airplane,boat,pow,0112_pow_dnn_pow_boat_35_n03344393_3519.png,n03344393_3519.png,0.0,1.5500779,1.7579955,-0.14701992
vit_b_16,1,113,NaN,keyboard,keyboard,pow,0113_pow_dnn_pow_keyboard_35_n03085013_22713.png,n03085013_22713.png,1.0,7.5926495,2.1568093,3.8437195
vit_b_16,1,114,NaN,elephant,elephant,0,0114_pow_dnn_0_elephant_35_n02504013_6615.png,n02504013_6615.png,1.0,7.5543942,0.18696499,5.2095594
vit_b_16,1,115,NaN,cat,cat,0,0115_pow_dnn_0_cat_35_n02123597_7081.png,n02123597_7081.png,1.0,3.1317406,1.4505472,1.1887833
vit_b_16,1,116,NaN,clock,clock,pow,0116_pow_dnn_pow_clock_35_n04548280_5406.png,n04548280_5406.png,1.0,5.7044086,0.14619695,3.9302492
vit_b_16,1,117,NaN,bottle,bottle,0,0117_pow_dnn_0_bottle_35_n03983396_21920.png,n03983396_21920.png,1.0,3.0228117,0.7839827,1.5830911
vit_b_16,1,118,NaN,knife,knife,0,0118_pow_dnn_0_knife_35_n03041632_48675.png,n03041632_48675.png,1.0,8.562056,1.0884873,5.284611
vit_b_16,1,119,NaN,cat,cat,0,0119_pow_dnn_0_cat_35_n02125311_2103.png,n02125311_2103.png,1.0,2.0839553,0.9826813,0.77871835
vit_b_16,1,120,NaN,elephant,bird,pow,0120_pow_dnn_pow_bird_35_n01798484_962.png,n01798484_962.png,0.0,-0.07376217,2.5364373,-1.8456898
vit_b_16,1,121,NaN,oven,oven,pow,0121_pow_dnn_pow_oven_35_n04111531_6393.png,n04111531_6393.png,1.0,9.537356,1.1371577,5.939838
vit_b_16,1,122,NaN,oven,oven,0,0122_pow_dnn_0_oven_35_n04111531_4418.png,n04111531_4418.png,1.0,9.199045,1.2517241,5.6196046
vit_b_16,1,123,NaN,car,truck,pow,0123_pow_dnn_pow_truck_35_n03796401_296.png,n03796401_296.png,0.0,2.8703127,4.269393,-0.9892992
vit_b_16,1,124,NaN,bicycle,bicycle,0,0124_pow_dnn_0_bicycle_35_n02835271_10738.png,n02835271_10738.png,1.0,5.946074,1.066996,3.4500291
vit_b_16,1,125,NaN,elephant,elephant,0,0125_pow_dnn_0_elephant_35_n02504013_4457.png,n02504013_4457.png,1.0,8.004213,0.23315488,5.4949684
vit_b_16,1,126,NaN,knife,knife,0,0126_pow_dnn_0_knife_35_n03041632_30573.png,n03041632_30573.png,1.0,7.687631,0.46023992,5.1105375
vit_b_16,1,127,NaN,boat,boat,0,0127_pow_dnn_0_boat_35_n03662601_19840.png,n03662601_19840.png,1.0,2.990439,1.608514,0.97716856
vit_b_16,1,128,NaN,bear,bear,0,0128_pow_dnn_0_bear_35_n02133161_12167.png,n02133161_12167.png,1.0,5.1988983,0.43777853,3.3666203
vit_b_16,1,129,NaN,bottle,bottle,0,0129_pow_dnn_0_bottle_35_n02823428_3028.png,n02823428_3028.png,1.0,2.707701,0.7920513,1.3545688
vit_b_16,1,130,NaN,boat,boat,0,0130_pow_dnn_0_boat_35_n02951358_30149.png,n02951358_30149.png,1.0,2.3131015,1.3311267,0.6943611
vit_b_16,1,131,NaN,car,car,0,0131_pow_dnn_0_car_35_n02814533_75419.png,n02814533_75419.png,1.0,2.6823254,0.3618493,1.6408244
vit_b_16,1,132,NaN,keyboard,keyboard,0,0132_pow_dnn_0_keyboard_35_n03085013_24449.png,n03085013_24449.png,1.0,6.2212167,1.2824887,3.492208
vit_b_16,1,133,NaN,knife,dog,0,0133_pow_dnn_0_dog_35_n02086240_519.png,n02086240_519.png,0.0,0.015714625,0.37450722,-0.2537047
vit_b_16,1,134,NaN,airplane,bird,pow,0134_pow_dnn_pow_bird_35_n01582220_2882.png,n01582220_2882.png,0.0,0.17884663,1.1469558,-0.6845566
vit_b_16,1,135,NaN,oven,oven,0,0135_pow_dnn_0_oven_35_n04111531_13277.png,n04111531_13277.png,1.0,9.167863,0.699435,5.988083
vit_b_16,1,136,NaN,elephant,bear,pow,0136_pow_dnn_pow_bear_35_n02134084_6901.png,n02134084_6901.png,0.0,1.6747589,1.933619,-0.18304174
vit_b_16,1,137,NaN,clock,bird,0,0137_pow_dnn_0_bird_35_n02002556_5447.png,n02002556_5447.png,0.0,0.3256009,0.48869786,-0.11532697
vit_b_16,1,138,NaN,keyboard,keyboard,0,0138_pow_dnn_0_keyboard_35_n03085013_20710.png,n03085013_20710.png,1.0,5.3549414,0.26810396,3.5969372
vit_b_16,1,139,NaN,oven,oven,pow,0139_pow_dnn_pow_oven_35_n04111531_11405.png,n04111531_11405.png,1.0,8.305671,1.598301,4.742827
vit_b_16,1,140,NaN,bear,bear,pow,0140_pow_dnn_pow_bear_35_n02132136_8457.png,n02132136_8457.png,1.0,5.140709,0.72681445,3.121095
vit_b_16,1,141,NaN,bird,bird,pow,0141_pow_dnn_pow_bird_35_n02009912_6788.png,n02009912_6788.png,1.0,0.38353145,0.21796279,0.11707473
vit_b_16,1,142,NaN,clock,chair,pow,0142_pow_dnn_pow_chair_35_n04429376_9630.png,n04429376_9630.png,0.0,1.3246771,1.6117834,-0.20301479
vit_b_16,1,143,NaN,keyboard,keyboard,0,0143_pow_dnn_0_keyboard_35_n03085013_23658.png,n03085013_23658.png,1.0,7.795722,0.42860016,5.209342
vit_b_16,1,144,NaN,cat,cat,pow,0144_pow_dnn_pow_cat_35_n02123045_13199.png,n02123045_13199.png,1.0,4.3214555,0.76289845,2.51628
vit_b_16,1,145,NaN,clock,clock,pow,0145_pow_dnn_pow_clock_35_n04548280_6411.png,n04548280_6411.png,1.0,6.11997,2.116538,2.830854
vit_b_16,1,146,NaN,bear,bird,0,0146_pow_dnn_0_bird_35_n01820546_9729.png,n01820546_9729.png,0.0,-0.13742429,1.1794177,-0.931148
vit_b_16,1,147,NaN,boat,boat,0,0147_pow_dnn_0_boat_35_n04273569_12651.png,n04273569_12651.png,1.0,2.4541326,1.1616522,0.91392165
vit_b_16,1,148,NaN,elephant,elephant,pow,0148_pow_dnn_pow_elephant_35_n02504458_3143.png,n02504458_3143.png,1.0,6.864979,0.30206245,4.6406827
vit_b_16,1,149,NaN,clock,clock,0,0149_pow_dnn_0_clock_35_n03196217_9786.png,n03196217_9786.png,1.0,4.6575527,0.5179517,2.9271398
vit_b_16,1,150,NaN,clock,chair,0,0150_pow_dnn_0_chair_35_n03376595_6652.png,n03376595_6652.png,0.0,2.0688195,2.2243264,-0.10995995
vit_b_16,1,151,NaN,bottle,bottle,pow,0151_pow_dnn_pow_bottle_35_n03983396_2998.png,n03983396_2998.png,1.0,4.787979,0.72811,2.8707612
vit_b_16,1,152,NaN,elephant,elephant,0,0152_pow_dnn_0_elephant_35_n02504458_5331.png,n02504458_5331.png,1.0,7.78687,0.35041565,5.2583675
vit_b_16,1,153,NaN,car,car,0,0153_pow_dnn_0_car_35_n04285008_8052.png,n04285008_8052.png,1.0,6.523724,0.34019896,4.3724127
vit_b_16,1,154,NaN,bottle,bottle,pow,0154_pow_dnn_pow_bottle_35_n04591713_3402.png,n04591713_3402.png,1.0,5.198419,0.25705582,3.4940715
vit_b_16,1,155,NaN,bicycle,bicycle,pow,0155_pow_dnn_pow_bicycle_35_n02835271_1701.png,n02835271_1701.png,1.0,4.474619,1.7035348,1.9594524
vit_b_16,1,156,NaN,bicycle,bicycle,0,0156_pow_dnn_0_bicycle_35_n02835271_5196.png,n02835271_5196.png,1.0,4.8890843,0.24661423,3.282722
vit_b_16,1,157,NaN,elephant,elephant,pow,0157_pow_dnn_pow_elephant_35_n02504458_5444.png,n02504458_5444.png,1.0,6.593004,0.4081049,4.3733845
vit_b_16,1,158,NaN,truck,truck,0,0158_pow_dnn_0_truck_35_n03417042_3422.png,n03417042_3422.png,1.0,1.4268386,0.11241614,0.92943704
vit_b_16,1,159,NaN,elephant,dog,pow,0159_pow_dnn_pow_dog_35_n02088466_1537.png,n02088466_1537.png,0.0,0.13419409,4.222872,-2.8911319
vit_b_16,1,160,NaN,boat,dog,pow,0160_pow_dnn_pow_dog_35_n02088632_1732.png,n02088632_1732.png,0.0,-0.18901896,0.44252253,-0.44656727
vit_b_16,1,161,NaN,truck,truck,0,0161_pow_dnn_0_truck_35_n03796401_3326.png,n03796401_3326.png,1.0,2.7056017,0.54319805,1.5290502
vit_b_16,1,162,NaN,boat,boat,0,0162_pow_dnn_0_boat_35_n04273569_19796.png,n04273569_19796.png,1.0,2.621834,0.26752958,1.6647447
vit_b_16,1,163,NaN,keyboard,keyboard,pow,0163_pow_dnn_pow_keyboard_35_n04505470_5125.png,n04505470_5125.png,1.0,3.5919628,1.041104,1.8037297
vit_b_16,1,164,NaN,cat,cat,pow,0164_pow_dnn_pow_cat_35_n02123394_1817.png,n02123394_1817.png,1.0,1.7528481,0.34224504,0.997447
vit_b_16,1,165,NaN,cat,cat,pow,0165_pow_dnn_pow_cat_35_n02123159_7465.png,n02123159_7465.png,1.0,2.465605,0.29431775,1.535332
vit_b_16,1,166,NaN,cat,cat,0,0166_pow_dnn_0_cat_35_n02125311_33516.png,n02125311_33516.png,1.0,2.6108592,2.0982113,0.3624968
vit_b_16,1,167,NaN,bicycle,bicycle,pow,0167_pow_dnn_pow_bicycle_35_n03792782_30246.png,n03792782_30246.png,1.0,4.5318418,1.0363537,2.4716835
vit_b_16,1,168,NaN,truck,truck,0,0168_pow_dnn_0_truck_35_n04467665_72639.png,n04467665_72639.png,1.0,1.7481822,0.5797271,0.82622254
vit_b_16,1,169,NaN,bicycle,bicycle,0,0169_pow_dnn_0_bicycle_35_n03792782_10395.png,n03792782_10395.png,1.0,8.546221,0.23044434,5.880142
vit_b_16,1,170,NaN,bicycle,bicycle,pow,0170_pow_dnn_pow_bicycle_35_n02835271_840.png,n02835271_840.png,1.0,4.289253,0.6513068,2.5724165
vit_b_16,1,171,NaN,knife,knife,pow,0171_pow_dnn_pow_knife_35_n03041632_82197.png,n03041632_82197.png,1.0,6.369156,0.98134583,3.8097572
vit_b_16,1,172,NaN,airplane,airplane,pow,0172_pow_dnn_pow_airplane_35_n02690373_8942.png,n02690373_8942.png,1.0,5.798838,1.8820609,2.7695796
vit_b_16,1,173,NaN,keyboard,keyboard,0,0173_pow_dnn_0_keyboard_35_n03085013_21851.png,n03085013_21851.png,1.0,3.271882,1.1078491,1.5302024
vit_b_16,1,174,NaN,clock,clock,pow,0174_pow_dnn_pow_clock_35_n04548280_1106.png,n04548280_1106.png,1.0,4.973243,1.630599,2.3636065
vit_b_16,1,175,NaN,truck,truck,0,0175_pow_dnn_0_truck_35_n03796401_4181.png,n03796401_4181.png,1.0,3.3344836,3.0701196,0.18693358
vit_b_16,1,176,NaN,knife,knife,pow,0176_pow_dnn_pow_knife_35_n03041632_44019.png,n03041632_44019.png,1.0,8.816461,1.5521334,5.136655
vit_b_16,1,177,NaN,truck,truck,0,0177_pow_dnn_0_truck_35_n03417042_1348.png,n03417042_1348.png,1.0,0.81850445,0.6652365,0.10837683
vit_b_16,1,178,NaN,chair,chair,0,0178_pow_dnn_0_chair_35_n04099969_10516.png,n04099969_10516.png,1.0,2.8358784,0.4023986,1.7207301
vit_b_16,1,179,NaN,chair,chair,pow,0179_pow_dnn_pow_chair_35_n04099969_24041.png,n04099969_24041.png,1.0,3.260269,2.4111004,0.60045284
vit_b_16,1,180,NaN,truck,truck,pow,0180_pow_dnn_pow_truck_35_n03796401_3618.png,n03796401_3618.png,1.0,4.8386765,2.9154391,1.3599342
vit_b_16,1,181,NaN,elephant,elephant,0,0181_pow_dnn_0_elephant_35_n02504458_4414.png,n02504458_4414.png,1.0,7.6790133,0.22207476,5.272852
vit_b_16,1,182,NaN,truck,truck,pow,0182_pow_dnn_pow_truck_35_n03796401_3427.png,n03796401_3427.png,1.0,1.6649331,0.26813042,0.98768866
vit_b_16,1,183,NaN,cat,cat,0,0183_pow_dnn_0_cat_35_n02123045_9907.png,n02123045_9907.png,1.0,3.9052935,0.22639777,2.6013722
vit_b_16,1,184,NaN,oven,oven,0,0184_pow_dnn_0_oven_35_n04111531_2156.png,n04111531_2156.png,1.0,8.945769,0.26430076,6.1387258
vit_b_16,1,185,NaN,elephant,bird,pow,0185_pow_dnn_pow_bird_35_n02002556_12696.png,n02002556_12696.png,0.0,0.536871,0.75669146,-0.15543653
vit_b_16,1,186,NaN,airplane,airplane,pow,0186_pow_dnn_pow_airplane_35_n02690373_8791.png,n02690373_8791.png,1.0,8.567054,0.12062752,5.9725256
vit_b_16,1,187,NaN,knife,knife,pow,0187_pow_dnn_pow_knife_35_n03041632_27963.png,n03041632_27963.png,1.0,5.0471625,0.6902546,3.080799
vit_b_16,1,188,NaN,chair,chair,0,0188_pow_dnn_0_chair_35_n03376595_7772.png,n03376595_7772.png,1.0,3.4801562,2.3667629,0.78728795
vit_b_16,1,189,NaN,airplane,boat,pow,0189_pow_dnn_pow_boat_35_n04273569_3460.png,n04273569_3460.png,0.0,1.7793134,1.8275336,-0.0340968
vit_b_16,1,190,NaN,oven,oven,0,0190_pow_dnn_0_oven_35_n04111531_5694.png,n04111531_5694.png,1.0,8.508468,1.2198614,5.153823
vit_b_16,1,191,NaN,bear,bear,pow,0191_pow_dnn_pow_bear_35_n02134084_17218.png,n02134084_17218.png,1.0,5.06995,0.60777134,3.155237
vit_b_16,1,192,NaN,knife,oven,pow,0192_pow_dnn_pow_oven_35_n04111531_2923.png,n04111531_2923.png,0.0,4.052876,4.628304,-0.40688905
vit_b_16,1,193,NaN,keyboard,keyboard,pow,0193_pow_dnn_pow_keyboard_35_n03085013_22669.png,n03085013_22669.png,1.0,5.2364187,1.085113,2.9354165
vit_b_16,1,194,NaN,bottle,bottle,pow,0194_pow_dnn_pow_bottle_35_n04557648_2282.png,n04557648_2282.png,1.0,3.9998097,1.1145355,2.0401971
vit_b_16,1,195,NaN,elephant,elephant,pow,0195_pow_dnn_pow_elephant_35_n02504013_6693.png,n02504013_6693.png,1.0,6.345257,0.29128557,4.280804
vit_b_16,1,196,NaN,chair,chair,0,0196_pow_dnn_0_chair_35_n04099969_39507.png,n04099969_39507.png,1.0,3.2713916,0.5628693,1.9152145
vit_b_16,1,197,NaN,car,car,pow,0197_pow_dnn_pow_car_35_n02814533_61184.png,n02814533_61184.png,1.0,4.6104026,2.0016592,1.8446602
vit_b_16,1,198,NaN,keyboard,keyboard,pow,0198_pow_dnn_pow_keyboard_35_n04505470_1358.png,n04505470_1358.png,1.0,5.1970134,0.39389026,3.3963208
vit_b_16,1,199,NaN,truck,truck,pow,0199_pow_dnn_pow_truck_35_n04467665_8824.png,n04467665_8824.png,1.0,3.728819,0.061838515,2.5929468
vit_b_16,1,200,NaN,keyboard,keyboard,0,0200_pow_dnn_0_keyboard_35_n04505470_8937.png,n04505470_8937.png,1.0,6.618349,0.13292876,4.5858846
vit_b_16,1,201,NaN,truck,truck,pow,0201_pow_dnn_pow_truck_35_n03417042_7581.png,n03417042_7581.png,1.0,2.8273244,1.5395867,0.9105681
vit_b_16,1,202,NaN,bicycle,bicycle,pow,0202_pow_dnn_pow_bicycle_35_n02835271_13234.png,n02835271_13234.png,1.0,6.2768507,0.39762673,4.157239
vit_b_16,1,203,NaN,cat,cat,pow,0203_pow_dnn_pow_cat_35_n02124075_3383.png,n02124075_3383.png,1.0,4.312061,0.4825286,2.7078881
vit_b_16,1,204,NaN,elephant,elephant,pow,0204_pow_dnn_pow_elephant_35_n02504013_474.png,n02504013_474.png,1.0,4.8783355,0.7047577,2.9511652
vit_b_16,1,205,NaN,chair,chair,pow,0205_pow_dnn_pow_chair_35_n04429376_1838.png,n04429376_1838.png,1.0,2.6110423,1.2806641,0.9407194
vit_b_16,1,206,NaN,boat,boat,pow,0206_pow_dnn_pow_boat_35_n02951358_5064.png,n02951358_5064.png,1.0,1.8334862,0.36404473,1.039052
vit_b_16,1,207,NaN,knife,knife,pow,0207_pow_dnn_pow_knife_35_n03041632_31037.png,n03041632_31037.png,1.0,9.021362,0.9225024,5.726759
vit_b_16,1,208,NaN,cat,cat,pow,0208_pow_dnn_pow_cat_35_n02123045_11501.png,n02123045_11501.png,1.0,3.3242342,2.0220356,0.92079353
vit_b_16,1,209,NaN,keyboard,keyboard,pow,0209_pow_dnn_pow_keyboard_35_n03085013_17937.png,n03085013_17937.png,1.0,3.58415,2.1156008,1.0384212
vit_b_16,1,210,NaN,chair,chair,0,0210_pow_dnn_0_chair_35_n03376595_10881.png,n03376595_10881.png,1.0,2.31522,0.06790004,1.5890954
vit_b_16,1,211,NaN,elephant,elephant,0,0211_pow_dnn_0_elephant_35_n02504458_7302.png,n02504458_7302.png,1.0,6.944908,0.3832507,4.6397924
vit_b_16,1,212,NaN,airplane,airplane,pow,0212_pow_dnn_pow_airplane_35_n02690373_4704.png,n02690373_4704.png,1.0,7.0988264,0.22849542,4.8580575
vit_b_16,1,213,NaN,car,car,0,0213_pow_dnn_0_car_35_n03100240_18756.png,n03100240_18756.png,1.0,6.5775204,0.2366419,4.4836783
vit_b_16,1,214,NaN,keyboard,keyboard,pow,0214_pow_dnn_pow_keyboard_35_n03085013_20732.png,n03085013_20732.png,1.0,1.6800406,1.1625538,0.36591843
vit_b_16,1,215,NaN,bottle,bottle,pow,0215_pow_dnn_pow_bottle_35_n04579145_2999.png,n04579145_2999.png,1.0,2.5952816,0.89239025,1.204126
vit_b_16,1,216,NaN,clock,clock,pow,0216_pow_dnn_pow_clock_35_n02708093_2546.png,n02708093_2546.png,1.0,5.29101,1.1324991,2.9405112
vit_b_16,1,217,NaN,boat,boat,0,0217_pow_dnn_0_boat_35_n03662601_13847.png,n03662601_13847.png,1.0,1.6486257,0.15435287,1.0566105
vit_b_16,1,218,NaN,bicycle,bicycle,0,0218_pow_dnn_0_bicycle_35_n03792782_7878.png,n03792782_7878.png,1.0,6.461487,0.5138796,4.205593
vit_b_16,1,219,NaN,knife,knife,pow,0219_pow_dnn_pow_knife_35_n03041632_18959.png,n03041632_18959.png,1.0,6.3987994,1.0133014,3.8081222
vit_b_16,1,220,NaN,bear,bear,0,0220_pow_dnn_0_bear_35_n02134418_10576.png,n02134418_10576.png,1.0,5.5711155,0.20332767,3.7955992
vit_b_16,1,221,NaN,elephant,elephant,pow,0221_pow_dnn_pow_elephant_35_n02504013_213.png,n02504013_213.png,1.0,6.2014284,0.5517362,3.9949358
vit_b_16,1,222,NaN,bottle,bottle,pow,0222_pow_dnn_pow_bottle_35_n03983396_2944.png,n03983396_2944.png,1.0,3.7726638,1.3710515,1.6981964
vit_b_16,1,223,NaN,oven,truck,0,0223_pow_dnn_0_truck_35_n03796401_8964.png,n03796401_8964.png,0.0,2.740572,4.853109,-1.4937892
vit_b_16,1,224,NaN,knife,knife,pow,0224_pow_dnn_pow_knife_35_n03041632_13509.png,n03041632_13509.png,1.0,7.4771852,1.7690045,4.0362935
vit_b_16,1,225,NaN,bear,bird,pow,0225_pow_dnn_pow_bird_35_n01537544_7301.png,n01537544_7301.png,0.0,0.36591572,0.74444246,-0.26765883
vit_b_16,1,226,NaN,elephant,elephant,0,0226_pow_dnn_0_elephant_35_n02504013_9618.png,n02504013_9618.png,1.0,7.6315355,0.32963663,5.1632223
vit_b_16,1,227,NaN,keyboard,keyboard,pow,0227_pow_dnn_pow_keyboard_35_n04505470_10191.png,n04505470_10191.png,1.0,4.8219604,1.1688547,2.5831358
vit_b_16,1,228,NaN,bicycle,bicycle,pow,0228_pow_dnn_pow_bicycle_35_n02835271_20149.png,n02835271_20149.png,1.0,6.556185,0.5935241,4.216238
vit_b_16,1,229,NaN,truck,truck,0,0229_pow_dnn_0_truck_35_n04467665_2098.png,n04467665_2098.png,1.0,2.7727497,0.48333314,1.618862
vit_b_16,1,230,NaN,bear,bear,0,0230_pow_dnn_0_bear_35_n02133161_5274.png,n02133161_5274.png,1.0,4.84758,0.78406286,2.8733406
vit_b_16,1,231,NaN,elephant,bird,pow,0231_pow_dnn_pow_bird_35_n01537544_20224.png,n01537544_20224.png,0.0,0.050886914,1.4863782,-1.0150456
vit_b_16,1,232,NaN,bicycle,dog,pow,0232_pow_dnn_pow_dog_35_n02094258_6800.png,n02094258_6800.png,0.0,0.08912262,0.37689614,-0.2034866
vit_b_16,1,233,NaN,truck,truck,0,0233_pow_dnn_0_truck_35_n03417042_27326.png,n03417042_27326.png,1.0,4.262083,0.34778473,2.767827
vit_b_16,1,234,NaN,oven,oven,pow,0234_pow_dnn_pow_oven_35_n04111531_6955.png,n04111531_6955.png,1.0,6.5245123,2.9367146,2.536956
vit_b_16,1,235,NaN,clock,clock,0,0235_pow_dnn_0_clock_35_n04548280_7135.png,n04548280_7135.png,1.0,5.9699802,0.49907804,3.8685124
vit_b_16,1,236,NaN,knife,dog,pow,0236_pow_dnn_pow_dog_35_n02113023_12143.png,n02113023_12143.png,0.0,0.092709,4.2829113,-2.9629204
vit_b_16,1,237,NaN,bicycle,bicycle,0,0237_pow_dnn_0_bicycle_35_n02835271_10832.png,n02835271_10832.png,1.0,5.1288533,0.63337433,3.178784
vit_b_16,1,238,NaN,chair,chair,pow,0238_pow_dnn_pow_chair_35_n02791124_28.png,n02791124_28.png,1.0,2.5118358,0.5011372,1.4217786
vit_b_16,1,239,NaN,bicycle,bicycle,pow,0239_pow_dnn_pow_bicycle_35_n03792782_1715.png,n03792782_1715.png,1.0,6.6540556,0.2741957,4.5112424
vit_b_16,1,240,NaN,bicycle,bicycle,0,0240_pow_dnn_0_bicycle_35_n02835271_19875.png,n02835271_19875.png,1.0,5.4336658,0.49335128,3.4933298
vit_b_16,1,241,NaN,bird,bird,0,0241_pow_dnn_0_bird_35_n02056570_8203.png,n02056570_8203.png,1.0,0.47216442,0.36275315,0.07736545
vit_b_16,1,242,NaN,car,car,pow,0242_pow_dnn_pow_car_35_n02814533_27588.png,n02814533_27588.png,1.0,4.0186963,2.6850572,0.9430253
vit_b_16,1,243,NaN,bear,bear,0,0243_pow_dnn_0_bear_35_n02134418_2714.png,n02134418_2714.png,1.0,4.0513506,0.47393036,2.5296183
vit_b_16,1,244,NaN,bear,bear,0,0244_pow_dnn_0_bear_35_n02132136_900.png,n02132136_900.png,1.0,4.939488,0.19040465,3.3581092
vit_b_16,1,245,NaN,bear,dog,0,0245_pow_dnn_0_dog_35_n02095889_7413.png,n02095889_7413.png,0.0,-0.11850392,0.15342489,-0.1922827
vit_b_16,1,246,NaN,boat,boat,0,0246_pow_dnn_0_boat_35_n02951358_14877.png,n02951358_14877.png,1.0,4.05353,0.5505725,2.4769652
vit_b_16,1,247,NaN,knife,knife,pow,0247_pow_dnn_pow_knife_35_n03041632_42472.png,n03041632_42472.png,1.0,9.215032,2.3162174,4.8781986
vit_b_16,1,248,NaN,bottle,bottle,pow,0248_pow_dnn_pow_bottle_35_n02823428_12740.png,n02823428_12740.png,1.0,3.870715,2.8301117,0.73581755
vit_b_16,1,249,NaN,boat,boat,0,0249_pow_dnn_0_boat_35_n02951358_2537.png,n02951358_2537.png,1.0,2.697625,0.20026588,1.7658995
vit_b_16,1,250,NaN,knife,dog,0,0250_pow_dnn_0_dog_35_n02106166_5135.png,n02106166_5135.png,0.0,0.29746896,0.8605411,-0.39815214
vit_b_16,1,251,NaN,oven,oven,pow,0251_pow_dnn_pow_oven_35_n04111531_23046.png,n04111531_23046.png,1.0,5.8784165,2.031322,2.7203066
vit_b_16,1,252,NaN,chair,dog,pow,0252_pow_dnn_pow_dog_35_n02105855_3310.png,n02105855_3310.png,0.0,0.62700415,0.70889306,-0.057904206
vit_b_16,1,253,NaN,oven,bird,0,0253_pow_dnn_0_bird_35_n01843383_2122.png,n01843383_2122.png,0.0,0.253325,0.32461783,-0.050411656
vit_b_16,1,254,NaN,boat,boat,pow,0254_pow_dnn_pow_boat_35_n03344393_8407.png,n03344393_8407.png,1.0,1.6797523,1.0802649,0.42390162
vit_b_16,1,255,NaN,clock,clock,pow,0255_pow_dnn_pow_clock_35_n04548280_4739.png,n04548280_4739.png,1.0,5.9751396,0.5195826,3.8576612
vit_b_16,1,256,NaN,keyboard,keyboard,0,0256_pow_dnn_0_keyboard_35_n04505470_3531.png,n04505470_3531.png,1.0,5.237212,0.27466846,3.5090482
vit_b_16,1,257,NaN,airplane,airplane,pow,0257_pow_dnn_pow_airplane_35_n02690373_7740.png,n02690373_7740.png,1.0,8.589874,0.19380137,5.9369206
vit_b_16,1,258,NaN,bear,bear,pow,0258_pow_dnn_pow_bear_35_n02132136_4699.png,n02132136_4699.png,1.0,4.965564,0.602556,3.0851123
vit_b_16,1,259,NaN,airplane,airplane,pow,0259_pow_dnn_pow_airplane_35_n02690373_5277.png,n02690373_5277.png,1.0,8.40907,0.380928,5.6767535
vit_b_16,1,260,NaN,clock,clock,pow,0260_pow_dnn_pow_clock_35_n04548280_8841.png,n04548280_8841.png,1.0,5.559553,0.5490818,3.5429382
vit_b_16,1,261,NaN,truck,truck,pow,0261_pow_dnn_pow_truck_35_n03796401_142.png,n03796401_142.png,1.0,3.7346683,2.000689,1.2261084
vit_b_16,1,262,NaN,bear,bear,pow,0262_pow_dnn_pow_bear_35_n02134418_4666.png,n02134418_4666.png,1.0,5.417988,2.5121903,2.0547092
vit_b_16,1,263,NaN,chair,chair,0,0263_pow_dnn_0_chair_35_n04429376_17074.png,n04429376_17074.png,1.0,3.8121743,1.9643834,1.3065856
vit_b_16,1,264,NaN,elephant,dog,0,0264_pow_dnn_0_dog_35_n02107683_1934.png,n02107683_1934.png,0.0,0.1098464,0.44661057,-0.23812823
vit_b_16,1,265,NaN,bicycle,bicycle,0,0265_pow_dnn_0_bicycle_35_n03792782_3765.png,n03792782_3765.png,1.0,5.4820566,2.1323092,2.3686292
vit_b_16,1,266,NaN,elephant,elephant,pow,0266_pow_dnn_pow_elephant_35_n02504013_7026.png,n02504013_7026.png,1.0,6.2220287,0.70390177,3.901905
vit_b_16,1,267,NaN,clock,clock,pow,0267_pow_dnn_pow_clock_35_n03196217_3063.png,n03196217_3063.png,1.0,1.5960226,0.5536509,0.7370681
vit_b_16,1,268,NaN,elephant,bear,pow,0268_pow_dnn_pow_bear_35_n02134418_1041.png,n02134418_1041.png,0.0,1.577902,1.9726025,-0.2790954
vit_b_16,1,269,NaN,boat,boat,pow,0269_pow_dnn_pow_boat_35_n03344393_8258.png,n03344393_8258.png,1.0,1.4883024,0.7145918,0.547096
vit_b_16,1,270,NaN,oven,oven,0,0270_pow_dnn_0_oven_35_n04111531_10306.png,n04111531_10306.png,1.0,8.764755,1.4881431,5.145342
vit_b_16,1,271,NaN,bottle,bottle,0,0271_pow_dnn_0_bottle_35_n02823428_641.png,n02823428_641.png,1.0,3.0734818,0.2390201,2.0042672
vit_b_16,1,272,NaN,oven,oven,pow,0272_pow_dnn_pow_oven_35_n04111531_1873.png,n04111531_1873.png,1.0,4.8193693,2.263306,1.8074098
vit_b_16,1,273,NaN,bear,bear,0,0273_pow_dnn_0_bear_35_n02134418_559.png,n02134418_559.png,1.0,3.5128262,0.623515,2.0430517
vit_b_16,1,274,NaN,keyboard,keyboard,pow,0274_pow_dnn_pow_keyboard_35_n04505470_4844.png,n04505470_4844.png,1.0,4.6063175,0.78438485,2.7025146
vit_b_16,1,275,NaN,keyboard,keyboard,0,0275_pow_dnn_0_keyboard_35_n03085013_23291.png,n03085013_23291.png,1.0,6.051999,0.21400687,4.1280837
vit_b_16,1,276,NaN,car,car,0,0276_pow_dnn_0_car_35_n03100240_5808.png,n03100240_5808.png,1.0,5.4492316,0.69089484,3.3646524
vit_b_16,1,277,NaN,bear,bear,0,0277_pow_dnn_0_bear_35_n02134084_15968.png,n02134084_15968.png,1.0,2.5157328,1.3979337,0.7904033
vit_b_16,1,278,NaN,cat,cat,0,0278_pow_dnn_0_cat_35_n02125311_20238.png,n02125311_20238.png,1.0,2.0459793,0.6393209,0.9946577
vit_b_16,1,279,NaN,bird,bird,0,0279_pow_dnn_0_bird_35_n02028035_8994.png,n02028035_8994.png,1.0,0.6426669,0.044970263,0.42263532
vit_b_16,1,280,NaN,airplane,airplane,pow,0280_pow_dnn_pow_airplane_35_n02690373_4471.png,n02690373_4471.png,1.0,7.1083913,0.5164292,4.661221
vit_b_16,1,281,NaN,truck,truck,0,0281_pow_dnn_0_truck_35_n03796401_322.png,n03796401_322.png,1.0,3.863165,0.7359428,2.2112799
vit_b_16,1,282,NaN,car,car,pow,0282_pow_dnn_pow_car_35_n04285008_402.png,n04285008_402.png,1.0,5.2613072,0.89878976,3.0847657
vit_b_16,1,283,NaN,oven,oven,0,0283_pow_dnn_0_oven_35_n04111531_807.png,n04111531_807.png,1.0,2.7508192,2.342148,0.28897414
vit_b_16,1,284,NaN,oven,oven,0,0284_pow_dnn_0_oven_35_n04111531_20369.png,n04111531_20369.png,1.0,8.948035,0.35196584,6.078339
vit_b_16,1,285,NaN,knife,knife,pow,0285_pow_dnn_pow_knife_35_n03041632_24114.png,n03041632_24114.png,1.0,7.0038924,1.243575,4.0731597
vit_b_16,1,286,NaN,knife,dog,0,0286_pow_dnn_0_dog_35_n02093256_1102.png,n02093256_1102.png,0.0,0.5964746,0.6659256,-0.0491093
vit_b_16,1,287,NaN,bottle,bottle,0,0287_pow_dnn_0_bottle_35_n03983396_17636.png,n03983396_17636.png,1.0,2.5900967,0.4857757,1.4879797
vit_b_16,1,288,NaN,bicycle,bird,0,0288_pow_dnn_0_bird_35_n01855672_55167.png,n01855672_55167.png,0.0,0.09505618,0.28200263,-0.1321911
vit_b_16,1,289,NaN,bottle,bottle,0,0289_pow_dnn_0_bottle_35_n02823428_1149.png,n02823428_1149.png,1.0,4.127996,1.37699,1.9452552
vit_b_16,1,290,NaN,truck,truck,pow,0290_pow_dnn_pow_truck_35_n03417042_1182.png,n03417042_1182.png,1.0,3.843422,1.2838207,1.8099115
vit_b_16,1,291,NaN,bear,bear,0,0291_pow_dnn_0_bear_35_n02134084_22051.png,n02134084_22051.png,1.0,3.448568,0.17987357,2.3113163
vit_b_16,1,292,NaN,cat,cat,pow,0292_pow_dnn_pow_cat_35_n02123159_5170.png,n02123159_5170.png,1.0,4.3741064,1.9401364,1.7210767
vit_b_16,1,293,NaN,airplane,airplane,pow,0293_pow_dnn_pow_airplane_35_n02690373_4042.png,n02690373_4042.png,1.0,7.00761,1.0223476,4.2322197
vit_b_16,1,294,NaN,airplane,airplane,pow,0294_pow_dnn_pow_airplane_35_n02690373_6231.png,n02690373_6231.png,1.0,8.90614,0.1529804,6.189419
vit_b_16,1,295,NaN,bear,bear,0,0295_pow_dnn_0_bear_35_n02134418_4657.png,n02134418_4657.png,1.0,2.858716,0.24255498,1.8499053
vit_b_16,1,296,NaN,car,car,0,0296_pow_dnn_0_car_35_n03100240_24505.png,n03100240_24505.png,1.0,6.478674,2.1483805,3.06198
vit_b_16,1,297,NaN,bird,bird,0,0297_pow_dnn_0_bird_35_n02006656_4031.png,n02006656_4031.png,1.0,0.38582557,0.33177334,0.0382207
vit_b_16,1,298,NaN,truck,truck,0,0298_pow_dnn_0_truck_35_n03796401_20861.png,n03796401_20861.png,1.0,2.6247678,0.411112,1.565291
vit_b_16,1,299,NaN,oven,truck,0,0299_pow_dnn_0_truck_35_n03417042_4934.png,n03417042_4934.png,0.0,1.9513755,1.9848231,-0.023651041
vit_b_16,1,300,NaN,bird,bird,0,0300_pow_dnn_0_bird_35_n01824575_3046.png,n01824575_3046.png,1.0,1.0652841,0.9384179,0.08970797
vit_b_16,1,301,NaN,elephant,elephant,pow,0301_pow_dnn_pow_elephant_35_n02504458_3463.png,n02504458_3463.png,1.0,7.3019576,0.18539046,5.032173
vit_b_16,1,302,NaN,airplane,airplane,0,0302_pow_dnn_0_airplane_35_n02690373_6914.png,n02690373_6914.png,1.0,9.002775,0.12786654,6.275508
vit_b_16,1,303,NaN,bottle,bottle,0,0303_pow_dnn_0_bottle_35_n03983396_3675.png,n03983396_3675.png,1.0,3.824718,2.627543,0.8465306
vit_b_16,1,304,NaN,elephant,dog,pow,0304_pow_dnn_pow_dog_35_n02088364_12272.png,n02088364_12272.png,0.0,0.3108002,0.59728783,-0.20257735
vit_b_16,1,305,NaN,elephant,dog,0,0305_pow_dnn_0_dog_35_n02085936_1706.png,n02085936_1706.png,0.0,-0.43374267,0.57807547,-0.7154635
vit_b_16,1,306,NaN,bear,bear,0,0306_pow_dnn_0_bear_35_n02134084_18372.png,n02134084_18372.png,1.0,3.4548836,0.32614413,2.2123528
vit_b_16,1,307,NaN,keyboard,keyboard,0,0307_pow_dnn_0_keyboard_35_n04505470_751.png,n04505470_751.png,1.0,7.506563,0.588944,4.8914957
vit_b_16,1,308,NaN,bear,bird,0,0308_pow_dnn_0_bird_35_n02018207_19525.png,n02018207_19525.png,0.0,0.17534818,1.4306715,-0.8876476
vit_b_16,1,309,NaN,bicycle,bicycle,pow,0309_pow_dnn_pow_bicycle_35_n02835271_3329.png,n02835271_3329.png,1.0,6.2914534,1.9827036,3.0467463
vit_b_16,1,310,NaN,clock,clock,pow,0310_pow_dnn_pow_clock_35_n04548280_1960.png,n04548280_1960.png,1.0,5.5635467,0.3033065,3.7195516
vit_b_16,1,311,NaN,chair,chair,0,0311_pow_dnn_0_chair_35_n03376595_6240.png,n03376595_6240.png,1.0,2.731051,0.35073137,1.6831402
vit_b_16,1,312,NaN,knife,knife,pow,0312_pow_dnn_pow_knife_35_n03041632_13194.png,n03041632_13194.png,1.0,3.1867952,1.9203676,0.8954996
vit_b_16,1,313,NaN,knife,knife,0,0313_pow_dnn_0_knife_35_n03041632_13465.png,n03041632_13465.png,1.0,3.616655,1.4231509,1.5510418
vit_b_16,1,314,NaN,cat,cat,pow,0314_pow_dnn_pow_cat_35_n02125311_10174.png,n02125311_10174.png,1.0,1.6533493,0.68846565,0.6822758
vit_b_16,1,315,NaN,car,car,pow,0315_pow_dnn_pow_car_35_n02814533_7420.png,n02814533_7420.png,1.0,4.56799,0.9600432,2.5512035
vit_b_16,1,316,NaN,truck,truck,pow,0316_pow_dnn_pow_truck_35_n04467665_3876.png,n04467665_3876.png,1.0,1.2319214,1.0684248,0.115609564
vit_b_16,1,317,NaN,airplane,airplane,0,0317_pow_dnn_0_airplane_35_n02690373_12976.png,n02690373_12976.png,1.0,9.037673,0.31463087,6.168123
vit_b_16,1,318,NaN,bear,bear,pow,0318_pow_dnn_pow_bear_35_n02133161_10441.png,n02133161_10441.png,1.0,4.69101,0.86382735,2.7062268
vit_b_16,1,319,NaN,chair,chair,pow,0319_pow_dnn_pow_chair_35_n03376595_13703.png,n03376595_13703.png,1.0,4.417325,0.63616556,2.6736834
vit_b_16,1,320,NaN,bicycle,bicycle,pow,0320_pow_dnn_pow_bicycle_35_n03792782_11625.png,n03792782_11625.png,1.0,5.1853914,1.077403,2.9047866
vit_b_16,1,321,NaN,oven,oven,pow,0321_pow_dnn_pow_oven_35_n04111531_22797.png,n04111531_22797.png,1.0,8.894894,0.54024345,5.90763
vit_b_16,1,322,NaN,chair,chair,pow,0322_pow_dnn_pow_chair_35_n03376595_9651.png,n03376595_9651.png,1.0,3.040464,1.0416627,1.413366
vit_b_16,1,323,NaN,bicycle,bicycle,pow,0323_pow_dnn_pow_bicycle_35_n03792782_4830.png,n03792782_4830.png,1.0,2.817782,1.5102539,0.9245619
vit_b_16,1,324,NaN,bicycle,elephant,pow,0324_pow_dnn_pow_elephant_35_n02504013_7191.png,n02504013_7191.png,0.0,2.2394063,2.7979407,-0.39494345
vit_b_16,1,325,NaN,knife,knife,0,0325_pow_dnn_0_knife_35_n03041632_120.png,n03041632_120.png,1.0,9.315111,0.45323366,6.2662935
vit_b_16,1,326,NaN,airplane,airplane,pow,0326_pow_dnn_pow_airplane_35_n02690373_5465.png,n02690373_5465.png,1.0,7.434737,0.40764508,4.9689045
vit_b_16,1,327,NaN,car,car,pow,0327_pow_dnn_pow_car_35_n04285008_8443.png,n04285008_8443.png,1.0,5.5956573,0.6088482,3.5262067
vit_b_16,1,328,NaN,bottle,bottle,0,0328_pow_dnn_0_bottle_35_n04557648_132.png,n04557648_132.png,1.0,3.3398383,2.5995407,0.52346945
vit_b_16,1,329,NaN,airplane,airplane,pow,0329_pow_dnn_pow_airplane_35_n02690373_18304.png,n02690373_18304.png,1.0,8.115979,0.22470559,5.579973
vit_b_16,1,330,NaN,knife,knife,pow,0330_pow_dnn_pow_knife_35_n03041632_102764.png,n03041632_102764.png,1.0,6.388992,0.38392875,4.246221
vit_b_16,1,331,NaN,chair,chair,pow,0331_pow_dnn_pow_chair_35_n02791124_16913.png,n02791124_16913.png,1.0,2.5575523,0.24149227,1.6377017
vit_b_16,1,332,NaN,bicycle,bicycle,pow,0332_pow_dnn_pow_bicycle_35_n02835271_324.png,n02835271_324.png,1.0,5.950017,1.1614362,3.386038
vit_b_16,1,333,NaN,airplane,airplane,pow,0333_pow_dnn_pow_airplane_35_n02690373_12966.png,n02690373_12966.png,1.0,8.900996,0.87811756,5.673032
vit_b_16,1,334,NaN,knife,keyboard,pow,0334_pow_dnn_pow_keyboard_35_n03085013_24653.png,n03085013_24653.png,0.0,2.453003,2.7538228,-0.21271178
vit_b_16,1,335,NaN,bicycle,bicycle,0,0335_pow_dnn_0_bicycle_35_n03792782_18529.png,n03792782_18529.png,1.0,7.3822575,0.5835832,4.807389
vit_b_16,1,336,NaN,airplane,airplane,pow,0336_pow_dnn_pow_airplane_35_n02690373_2433.png,n02690373_2433.png,1.0,8.102316,0.29094583,5.523473
vit_b_16,1,337,NaN,cat,cat,0,0337_pow_dnn_0_cat_35_n02125311_28447.png,n02125311_28447.png,1.0,3.8029022,0.09496632,2.6219065
vit_b_16,1,338,NaN,knife,knife,0,0338_pow_dnn_0_knife_35_n03041632_20504.png,n03041632_20504.png,1.0,9.247389,0.8554902,5.933969
vit_b_16,1,339,NaN,bear,bear,pow,0339_pow_dnn_pow_bear_35_n02132136_15870.png,n02132136_15870.png,1.0,2.7649848,0.91562384,1.3076956
vit_b_16,1,340,NaN,car,car,0,0340_pow_dnn_0_car_35_n02814533_11273.png,n02814533_11273.png,1.0,3.6568549,2.010905,1.1638623
vit_b_16,1,341,NaN,elephant,elephant,0,0341_pow_dnn_0_elephant_35_n02504013_2476.png,n02504013_2476.png,1.0,6.3916483,0.10160879,4.4477296
vit_b_16,1,342,NaN,bear,bear,0,0342_pow_dnn_0_bear_35_n02133161_14945.png,n02133161_14945.png,1.0,4.5196643,1.2567382,2.3072371
vit_b_16,1,343,NaN,car,car,0,0343_pow_dnn_0_car_35_n04285008_7870.png,n04285008_7870.png,1.0,6.5916505,0.27954295,4.463334
vit_b_16,1,344,NaN,airplane,airplane,0,0344_pow_dnn_0_airplane_35_n02690373_10129.png,n02690373_10129.png,1.0,8.880755,0.2675634,6.0904465
vit_b_16,1,345,NaN,oven,truck,pow,0345_pow_dnn_pow_truck_35_n03417042_1479.png,n03417042_1479.png,0.0,1.3707609,2.3241186,-0.67412573
vit_b_16,1,346,NaN,boat,boat,pow,0346_pow_dnn_pow_boat_35_n04612504_10662.png,n04612504_10662.png,1.0,1.4577674,0.37537685,0.7653657
vit_b_16,1,347,NaN,airplane,bird,0,0347_pow_dnn_0_bird_35_n02056570_5891.png,n02056570_5891.png,0.0,0.1602337,0.41209435,-0.17809238
vit_b_16,1,348,NaN,elephant,elephant,pow,0348_pow_dnn_pow_elephant_35_n02504458_5982.png,n02504458_5982.png,1.0,7.4275002,1.0837929,4.485678
vit_b_16,1,349,NaN,truck,truck,pow,0349_pow_dnn_pow_truck_35_n03417042_19955.png,n03417042_19955.png,1.0,2.4277663,0.114761956,1.635541
vit_b_16,1,350,NaN,oven,oven,0,0350_pow_dnn_0_oven_35_n04111531_6120.png,n04111531_6120.png,1.0,9.013137,0.5089932,6.0133376
vit_b_16,1,351,NaN,oven,oven,0,0351_pow_dnn_0_oven_35_n04111531_4750.png,n04111531_4750.png,1.0,8.959869,1.9244667,4.974781
vit_b_16,1,352,NaN,boat,boat,0,0352_pow_dnn_0_boat_35_n02951358_29779.png,n02951358_29779.png,1.0,2.0609536,1.0457697,0.7178435
vit_b_16,1,353,NaN,bear,bear,0,0353_pow_dnn_0_bear_35_n02134084_14168.png,n02134084_14168.png,1.0,3.2902873,1.1423836,1.5187973
vit_b_16,1,354,NaN,cat,cat,0,0354_pow_dnn_0_cat_35_n02123597_6990.png,n02123597_6990.png,1.0,2.5410964,0.7489658,1.2672278
vit_b_16,1,355,NaN,chair,chair,0,0355_pow_dnn_0_chair_35_n02791124_2008.png,n02791124_2008.png,1.0,2.9494886,0.06461314,2.039915
vit_b_16,1,356,NaN,car,car,pow,0356_pow_dnn_pow_car_35_n04285008_2185.png,n04285008_2185.png,1.0,5.2434716,1.5658689,2.600458
vit_b_16,1,357,NaN,bear,bear,0,0357_pow_dnn_0_bear_35_n02134084_13205.png,n02134084_13205.png,1.0,3.0928524,0.21949859,2.0317678
vit_b_16,1,358,NaN,bird,bird,pow,0358_pow_dnn_pow_bird_35_n01558993_6351.png,n01558993_6351.png,1.0,1.5628117,0.4799074,0.765729
vit_b_16,1,359,NaN,bicycle,bicycle,0,0359_pow_dnn_0_bicycle_35_n02835271_8017.png,n02835271_8017.png,1.0,5.278205,1.5918258,2.6066637
vit_b_16,1,360,NaN,cat,cat,0,0360_pow_dnn_0_cat_35_n02124075_4189.png,n02124075_4189.png,1.0,3.001894,0.34951922,1.8755122
vit_b_16,1,361,NaN,elephant,elephant,pow,0361_pow_dnn_pow_elephant_35_n02504458_3616.png,n02504458_3616.png,1.0,7.0395713,0.27752343,4.78149
vit_b_16,1,362,NaN,boat,boat,pow,0362_pow_dnn_pow_boat_35_n04612504_8636.png,n04612504_8636.png,1.0,2.7428372,0.20137087,1.797088
vit_b_16,1,363,NaN,car,car,pow,0363_pow_dnn_pow_car_35_n03100240_10502.png,n03100240_10502.png,1.0,6.6481843,1.5414863,3.610981
vit_b_16,1,364,NaN,bottle,bottle,0,0364_pow_dnn_0_bottle_35_n03983396_2271.png,n03983396_2271.png,1.0,3.2291183,0.65709794,1.8186932
vit_b_16,1,365,NaN,clock,clock,0,0365_pow_dnn_0_clock_35_n04548280_280.png,n04548280_280.png,1.0,5.5227523,1.0194209,3.1843362
vit_b_16,1,366,NaN,airplane,truck,0,0366_pow_dnn_0_truck_35_n04467665_356.png,n04467665_356.png,0.0,1.7962208,8.067618,-4.434548
vit_b_16,1,367,NaN,airplane,airplane,0,0367_pow_dnn_0_airplane_35_n02690373_306.png,n02690373_306.png,1.0,8.961694,0.18518531,6.205929
vit_b_16,1,368,NaN,elephant,bird,pow,0368_pow_dnn_pow_bird_35_n02007558_11331.png,n02007558_11331.png,0.0,2.0088332,2.207558,-0.14051962
vit_b_16,1,369,NaN,airplane,dog,0,0369_pow_dnn_0_dog_35_n02105162_1003.png,n02105162_1003.png,0.0,0.01975332,0.26766682,-0.17530131
vit_b_16,1,370,NaN,oven,bird,pow,0370_pow_dnn_pow_bird_35_n01534433_11695.png,n01534433_11695.png,0.0,-0.36509916,0.5377771,-0.63842994
vit_b_16,1,371,NaN,oven,oven,0,0371_pow_dnn_0_oven_35_n04111531_19631.png,n04111531_19631.png,1.0,8.949837,0.53400177,5.9508944
vit_b_16,1,372,NaN,elephant,elephant,pow,0372_pow_dnn_pow_elephant_35_n02504013_8534.png,n02504013_8534.png,1.0,6.492288,1.9929742,3.1814954
vit_b_16,1,373,NaN,oven,oven,0,0373_pow_dnn_0_oven_35_n04111531_10436.png,n04111531_10436.png,1.0,8.535761,1.105726,5.253828
vit_b_16,1,374,NaN,airplane,airplane,pow,0374_pow_dnn_pow_airplane_35_n02690373_1819.png,n02690373_1819.png,1.0,8.388876,0.36151606,5.676201
vit_b_16,1,375,NaN,cat,cat,0,0375_pow_dnn_0_cat_35_n02123597_14032.png,n02123597_14032.png,1.0,2.707674,0.6756454,1.4368613
vit_b_16,1,376,NaN,elephant,elephant,0,0376_pow_dnn_0_elephant_35_n02504013_10922.png,n02504013_10922.png,1.0,7.0728827,0.35532698,4.750029
vit_b_16,1,377,NaN,boat,boat,0,0377_pow_dnn_0_boat_35_n03662601_81.png,n03662601_81.png,1.0,4.035841,0.29811692,2.64297
vit_b_16,1,378,NaN,bottle,bottle,pow,0378_pow_dnn_pow_bottle_35_n03937543_11347.png,n03937543_11347.png,1.0,3.0441432,0.9011644,1.5153148
vit_b_16,1,379,NaN,knife,knife,pow,0379_pow_dnn_pow_knife_35_n03041632_85416.png,n03041632_85416.png,1.0,5.0390215,3.3398588,1.2014894
vit_b_16,1,380,NaN,car,car,pow,0380_pow_dnn_pow_car_35_n03100240_15676.png,n03100240_15676.png,1.0,5.455301,0.19502568,3.7195761
vit_b_16,1,381,NaN,oven,oven,0,0381_pow_dnn_0_oven_35_n04111531_4189.png,n04111531_4189.png,1.0,9.396694,0.34473976,6.400698
vit_b_16,1,382,NaN,airplane,car,pow,0382_pow_dnn_pow_car_35_n02814533_65623.png,n02814533_65623.png,0.0,3.1824782,3.228236,-0.03235563
vit_b_16,1,383,NaN,airplane,airplane,0,0383_pow_dnn_0_airplane_35_n02690373_4945.png,n02690373_4945.png,1.0,9.159776,0.3019306,6.2634425
vit_b_16,1,384,NaN,dog,dog,0,0384_pow_dnn_0_dog_35_n02088364_5801.png,n02088364_5801.png,1.0,1.3296735,0.5301688,0.5653353
vit_b_16,1,385,NaN,cat,dog,pow,0385_pow_dnn_pow_dog_35_n02108915_8164.png,n02108915_8164.png,0.0,0.3488131,0.5014711,-0.10794552
vit_b_16,1,386,NaN,car,car,0,0386_pow_dnn_0_car_35_n03100240_1435.png,n03100240_1435.png,1.0,6.6696014,0.41650188,4.421609
vit_b_16,1,387,NaN,clock,clock,0,0387_pow_dnn_0_clock_35_n03196217_412.png,n03196217_412.png,1.0,4.5911555,0.41180083,2.95525
vit_b_16,1,388,NaN,airplane,boat,pow,0388_pow_dnn_pow_boat_35_n03344393_6713.png,n03344393_6713.png,0.0,0.7033002,0.91468406,-0.14947097
vit_b_16,1,389,NaN,knife,knife,0,0389_pow_dnn_0_knife_35_n03041632_4305.png,n03041632_4305.png,1.0,7.3541446,1.0401868,4.4646425
vit_b_16,1,390,NaN,car,car,pow,0390_pow_dnn_pow_car_35_n04285008_10287.png,n04285008_10287.png,1.0,5.3490334,0.9785596,3.0903919
vit_b_16,1,391,NaN,car,car,pow,0391_pow_dnn_pow_car_35_n04285008_15071.png,n04285008_15071.png,1.0,3.7287683,2.6485503,0.7638295
vit_b_16,1,392,NaN,knife,knife,pow,0392_pow_dnn_pow_knife_35_n03041632_22214.png,n03041632_22214.png,1.0,8.389958,1.7259367,4.712175
vit_b_16,1,393,NaN,boat,boat,pow,0393_pow_dnn_pow_boat_35_n04612504_3064.png,n04612504_3064.png,1.0,2.0171056,0.23817874,1.2578913
vit_b_16,1,394,NaN,chair,chair,0,0394_pow_dnn_0_chair_35_n02791124_7193.png,n02791124_7193.png,1.0,2.8815417,0.5754087,1.6306823
vit_b_16,1,395,NaN,boat,boat,0,0395_pow_dnn_0_boat_35_n03344393_5511.png,n03344393_5511.png,1.0,4.969397,0.024741476,3.4963994
vit_b_16,1,396,NaN,boat,boat,pow,0396_pow_dnn_pow_boat_35_n04273569_11997.png,n04273569_11997.png,1.0,3.1844742,0.12093333,2.1662507
vit_b_16,1,397,NaN,bicycle,bicycle,0,0397_pow_dnn_0_bicycle_35_n03792782_1424.png,n03792782_1424.png,1.0,6.4444575,0.17228892,4.435093
vit_b_16,1,398,NaN,clock,clock,pow,0398_pow_dnn_pow_clock_35_n03196217_3362.png,n03196217_3362.png,1.0,2.2309818,0.9271823,0.9219255
vit_b_16,1,399,NaN,truck,truck,pow,0399_pow_dnn_pow_truck_35_n04467665_21942.png,n04467665_21942.png,1.0,1.7980511,0.2527245,1.092711
vit_b_16,1,400,NaN,oven,oven,0,0400_pow_dnn_0_oven_35_n04111531_6445.png,n04111531_6445.png,1.0,7.6423593,0.40571952,5.1170774
vit_b_16,1,401,NaN,chair,chair,0,0401_pow_dnn_0_chair_35_n04099969_1163.png,n04099969_1163.png,1.0,3.0041535,0.32158998,1.8968589
vit_b_16,1,402,NaN,clock,clock,pow,0402_pow_dnn_pow_clock_35_n02708093_3645.png,n02708093_3645.png,1.0,6.1771564,1.5574722,3.2666101
vit_b_16,1,403,NaN,bicycle,bicycle,0,0403_pow_dnn_0_bicycle_35_n03792782_68319.png,n03792782_68319.png,1.0,6.6820736,0.08359657,4.6658278
vit_b_16,1,404,NaN,dog,dog,pow,0404_pow_dnn_pow_dog_35_n02111129_513.png,n02111129_513.png,1.0,0.73569995,0.49401104,0.17089987
vit_b_16,1,405,NaN,airplane,airplane,pow,0405_pow_dnn_pow_airplane_35_n02690373_2676.png,n02690373_2676.png,1.0,8.29497,0.16882448,5.7460527
vit_b_16,1,406,NaN,airplane,airplane,0,0406_pow_dnn_0_airplane_35_n02690373_1206.png,n02690373_1206.png,1.0,7.718791,1.0730637,4.699239
vit_b_16,1,407,NaN,airplane,dog,0,0407_pow_dnn_0_dog_35_n02100735_1445.png,n02100735_1445.png,0.0,0.012698693,0.49185443,-0.3388143
vit_b_16,1,408,NaN,chair,dog,pow,0408_pow_dnn_pow_dog_35_n02102040_312.png,n02102040_312.png,0.0,-0.290907,0.7810065,-0.7579573
vit_b_16,1,409,NaN,keyboard,keyboard,0,0409_pow_dnn_0_keyboard_35_n03085013_22996.png,n03085013_22996.png,1.0,6.640864,0.3100208,4.476582
vit_b_16,1,410,NaN,boat,boat,0,0410_pow_dnn_0_boat_35_n04612504_434.png,n04612504_434.png,1.0,2.6102881,0.23019809,1.6829778
vit_b_16,1,411,NaN,cat,cat,0,0411_pow_dnn_0_cat_35_n02123597_14639.png,n02123597_14639.png,1.0,3.3554716,0.48171237,2.0320547
vit_b_16,1,412,NaN,cat,cat,pow,0412_pow_dnn_pow_cat_35_n02123159_2043.png,n02123159_2043.png,1.0,2.2307656,0.3693368,1.3162289
vit_b_16,1,413,NaN,clock,clock,pow,0413_pow_dnn_pow_clock_35_n03196217_3647.png,n03196217_3647.png,1.0,2.0181973,1.5513705,0.3300964
vit_b_16,1,414,NaN,oven,oven,0,0414_pow_dnn_0_oven_35_n04111531_19795.png,n04111531_19795.png,1.0,8.415039,2.0775607,4.481274
vit_b_16,1,415,NaN,knife,truck,pow,0415_pow_dnn_pow_truck_35_n03417042_18625.png,n03417042_18625.png,0.0,0.511171,1.3360486,-0.58327657
vit_b_16,1,416,NaN,elephant,elephant,pow,0416_pow_dnn_pow_elephant_35_n02504013_1763.png,n02504013_1763.png,1.0,7.105154,0.3429905,4.781572
vit_b_16,1,417,NaN,chair,chair,0,0417_pow_dnn_0_chair_35_n04099969_13105.png,n04099969_13105.png,1.0,2.679154,0.40599442,1.6073666
vit_b_16,1,418,NaN,bicycle,bicycle,pow,0418_pow_dnn_pow_bicycle_35_n03792782_4931.png,n03792782_4931.png,1.0,6.8272057,0.8649607,4.215944
vit_b_16,1,419,NaN,bear,bear,0,0419_pow_dnn_0_bear_35_n02134418_4513.png,n02134418_4513.png,1.0,2.9485645,0.16343845,1.9693815
vit_b_16,1,420,NaN,cat,cat,pow,0420_pow_dnn_pow_cat_35_n02123045_11224.png,n02123045_11224.png,1.0,3.660423,0.66814965,2.115857
vit_b_16,1,421,NaN,chair,chair,0,0421_pow_dnn_0_chair_35_n02791124_359.png,n02791124_359.png,1.0,1.2525449,0.30262214,0.67169684
vit_b_16,1,422,NaN,clock,clock,pow,0422_pow_dnn_pow_clock_35_n04548280_2654.png,n04548280_2654.png,1.0,4.9936595,1.7349511,2.304255
vit_b_16,1,423,NaN,cat,cat,pow,0423_pow_dnn_pow_cat_35_n02123394_4713.png,n02123394_4713.png,1.0,2.976319,0.71177626,1.6012737
vit_b_16,1,424,NaN,bottle,bottle,pow,0424_pow_dnn_pow_bottle_35_n04557648_94.png,n04557648_94.png,1.0,3.0923924,1.2847314,1.2782094
vit_b_16,1,425,NaN,chair,chair,0,0425_pow_dnn_0_chair_35_n04099969_15676.png,n04099969_15676.png,1.0,2.6380303,0.5535958,1.4739178
vit_b_16,1,426,NaN,airplane,boat,pow,0426_pow_dnn_pow_boat_35_n02951358_537.png,n02951358_537.png,0.0,2.6529145,3.3896823,-0.5209735
vit_b_16,1,427,NaN,clock,clock,0,0427_pow_dnn_0_clock_35_n03196217_1376.png,n03196217_1376.png,1.0,2.9870062,2.3899226,0.42220184
vit_b_16,1,428,NaN,chair,chair,pow,0428_pow_dnn_pow_chair_35_n02791124_1594.png,n02791124_1594.png,1.0,3.3536792,1.1637512,1.548513
vit_b_16,1,429,NaN,oven,bird,0,0429_pow_dnn_0_bird_35_n02007558_7112.png,n02007558_7112.png,0.0,0.033494405,0.775106,-0.5243986
vit_b_16,1,430,NaN,bicycle,bicycle,0,0430_pow_dnn_0_bicycle_35_n02835271_6094.png,n02835271_6094.png,1.0,5.398881,0.20324542,3.6738691
vit_b_16,1,431,NaN,airplane,airplane,pow,0431_pow_dnn_pow_airplane_35_n02690373_7676.png,n02690373_7676.png,1.0,8.261813,0.14058068,5.7425785
vit_b_16,1,432,NaN,cat,cat,pow,0432_pow_dnn_pow_cat_35_n02123045_3375.png,n02123045_3375.png,1.0,3.997917,0.2527997,2.648198
vit_b_16,1,433,NaN,bicycle,bicycle,0,0433_pow_dnn_0_bicycle_35_n02835271_15617.png,n02835271_15617.png,1.0,5.1385436,0.9349233,2.9724085
vit_b_16,1,434,NaN,bottle,oven,pow,0434_pow_dnn_pow_oven_35_n04111531_4904.png,n04111531_4904.png,0.0,0.98705226,2.1862786,-0.8479811
vit_b_16,1,435,NaN,boat,boat,0,0435_pow_dnn_0_boat_35_n02951358_5718.png,n02951358_5718.png,1.0,1.7238096,0.072746605,1.1674778
vit_b_16,1,436,NaN,elephant,elephant,pow,0436_pow_dnn_pow_elephant_35_n02504013_7467.png,n02504013_7467.png,1.0,7.637856,1.3512961,4.445269
vit_b_16,1,437,NaN,elephant,elephant,pow,0437_pow_dnn_pow_elephant_35_n02504013_1830.png,n02504013_1830.png,1.0,6.51019,0.27206516,4.4110203
vit_b_16,1,438,NaN,car,car,0,0438_pow_dnn_0_car_35_n02814533_59762.png,n02814533_59762.png,1.0,2.9914246,2.669369,0.22772768
vit_b_16,1,439,NaN,bicycle,bicycle,pow,0439_pow_dnn_pow_bicycle_35_n02835271_771.png,n02835271_771.png,1.0,4.5358434,2.8748307,1.1745133
vit_b_16,1,440,NaN,bicycle,bicycle,pow,0440_pow_dnn_pow_bicycle_35_n02835271_4313.png,n02835271_4313.png,1.0,3.4366431,0.4753116,2.0939777
vit_b_16,1,441,NaN,bear,bear,0,0441_pow_dnn_0_bear_35_n02132136_891.png,n02132136_891.png,1.0,4.318701,0.195754,2.9153636
vit_b_16,1,442,NaN,bear,bear,pow,0442_pow_dnn_pow_bear_35_n02132136_18276.png,n02132136_18276.png,1.0,5.7601304,0.41209346,3.7816331
vit_b_16,1,443,NaN,elephant,elephant,pow,0443_pow_dnn_pow_elephant_35_n02504013_2865.png,n02504013_2865.png,1.0,7.183091,0.41645122,4.784737
vit_b_16,1,444,NaN,boat,boat,0,0444_pow_dnn_0_boat_35_n03662601_10120.png,n03662601_10120.png,1.0,2.5195866,0.43737572,1.4723454
vit_b_16,1,445,NaN,bottle,bottle,pow,0445_pow_dnn_pow_bottle_35_n03983396_4241.png,n03983396_4241.png,1.0,2.7467828,1.4433995,0.92163116
vit_b_16,1,446,NaN,elephant,elephant,pow,0446_pow_dnn_pow_elephant_35_n02504458_8254.png,n02504458_8254.png,1.0,6.1579514,1.0041314,3.6443012
vit_b_16,1,447,NaN,boat,boat,pow,0447_pow_dnn_pow_boat_35_n04612504_857.png,n04612504_857.png,1.0,3.1569219,0.34814674,1.986104
vit_b_16,1,448,NaN,car,car,pow,0448_pow_dnn_pow_car_35_n04285008_6037.png,n04285008_6037.png,1.0,5.6224275,0.56604034,3.5754056
vit_b_16,1,449,NaN,elephant,elephant,pow,0449_pow_dnn_pow_elephant_35_n02504458_2888.png,n02504458_2888.png,1.0,7.004264,0.35729703,4.7001157
vit_b_16,1,450,NaN,elephant,elephant,0,0450_pow_dnn_0_elephant_35_n02504013_6257.png,n02504013_6257.png,1.0,7.640813,0.6601434,4.936079
vit_b_16,1,451,NaN,car,car,0,0451_pow_dnn_0_car_35_n04285008_8616.png,n04285008_8616.png,1.0,6.4206276,0.15019937,4.433862
vit_b_16,1,452,NaN,bird,bird,0,0452_pow_dnn_0_bird_35_n01537544_5372.png,n01537544_5372.png,1.0,1.1213148,0.15295434,0.6847342
vit_b_16,1,453,NaN,airplane,airplane,pow,0453_pow_dnn_pow_airplane_35_n02690373_2498.png,n02690373_2498.png,1.0,4.5765405,1.134978,2.4335523
vit_b_16,1,454,NaN,bear,dog,0,0454_pow_dnn_0_dog_35_n02099601_2980.png,n02099601_2980.png,0.0,0.25325045,0.4893486,-0.1669466
vit_b_16,1,455,NaN,keyboard,keyboard,pow,0455_pow_dnn_pow_keyboard_35_n04505470_1904.png,n04505470_1904.png,1.0,5.4368277,1.0178596,3.1246824
vit_b_16,1,456,NaN,airplane,airplane,0,0456_pow_dnn_0_airplane_35_n02690373_2967.png,n02690373_2967.png,1.0,8.896886,0.41821727,5.9953237
vit_b_16,1,457,NaN,car,car,0,0457_pow_dnn_0_car_35_n04285008_7508.png,n04285008_7508.png,1.0,5.5677104,1.3522142,2.9808059
vit_b_16,1,458,NaN,knife,bird,0,0458_pow_dnn_0_bird_35_n02051845_6652.png,n02051845_6652.png,0.0,0.12775013,0.14311697,-0.010865995
vit_b_16,1,459,NaN,chair,truck,pow,0459_pow_dnn_pow_truck_35_n03796401_6737.png,n03796401_6737.png,0.0,1.5467865,2.4096801,-0.6101579
vit_b_16,1,460,NaN,car,bottle,pow,0460_pow_dnn_pow_bottle_35_n03937543_2177.png,n03937543_2177.png,0.0,0.1718798,4.7019897,-3.2032714
vit_b_16,1,461,NaN,keyboard,keyboard,pow,0461_pow_dnn_pow_keyboard_35_n03085013_6432.png,n03085013_6432.png,1.0,3.957304,1.196431,1.9522319
vit_b_16,1,462,NaN,bird,bird,0,0462_pow_dnn_0_bird_35_n01530575_10212.png,n01530575_10212.png,1.0,0.21522312,0.09310186,0.08635277
vit_b_16,1,463,NaN,airplane,boat,pow,0463_pow_dnn_pow_boat_35_n04273569_31649.png,n04273569_31649.png,0.0,2.4218743,2.4555874,-0.023838764
vit_b_16,1,464,NaN,keyboard,keyboard,0,0464_pow_dnn_0_keyboard_35_n04505470_2869.png,n04505470_2869.png,1.0,5.7971034,0.27350873,3.9057715
vit_b_16,1,465,NaN,oven,oven,0,0465_pow_dnn_0_oven_35_n04111531_5110.png,n04111531_5110.png,1.0,9.214269,1.7348374,5.2887564
vit_b_16,1,466,NaN,bottle,bottle,pow,0466_pow_dnn_pow_bottle_35_n04579145_4389.png,n04579145_4389.png,1.0,2.2758563,0.3868675,1.3357167
vit_b_16,1,467,NaN,bottle,bottle,0,0467_pow_dnn_0_bottle_35_n04557648_9310.png,n04557648_9310.png,1.0,2.5322204,0.7397329,1.26748
vit_b_16,1,468,NaN,dog,dog,pow,0468_pow_dnn_pow_dog_35_n02108000_6061.png,n02108000_6061.png,1.0,1.212122,1.0234134,0.1334371
vit_b_16,1,469,NaN,oven,knife,pow,0469_pow_dnn_pow_knife_35_n03041632_84240.png,n03041632_84240.png,0.0,1.7145839,1.8628684,-0.10485302
vit_b_16,1,470,NaN,oven,cat,pow,0470_pow_dnn_pow_cat_35_n02123394_3718.png,n02123394_3718.png,0.0,0.34346995,1.5910026,-0.8821388
vit_b_16,1,471,NaN,dog,dog,pow,0471_pow_dnn_pow_dog_35_n02098105_2157.png,n02098105_2157.png,1.0,0.5447272,0.037344232,0.35877395
vit_b_16,1,472,NaN,clock,clock,0,0472_pow_dnn_0_clock_35_n04548280_2601.png,n04548280_2601.png,1.0,5.156483,0.2983182,3.4352412
vit_b_16,1,473,NaN,knife,cat,0,0473_pow_dnn_0_cat_35_n02123394_4286.png,n02123394_4286.png,0.0,0.98539525,1.1626333,-0.12532623
vit_b_16,1,474,NaN,bottle,bottle,0,0474_pow_dnn_0_bottle_35_n02823428_4569.png,n02823428_4569.png,1.0,1.9329274,0.33663622,1.1287483
vit_b_16,1,475,NaN,bird,bird,pow,0475_pow_dnn_pow_bird_35_n02017213_15747.png,n02017213_15747.png,1.0,0.46766075,0.1501493,0.2245145
vit_b_16,1,476,NaN,truck,bicycle,0,0476_pow_dnn_0_bicycle_35_n03792782_11390.png,n03792782_11390.png,0.0,0.60934806,0.8470812,-0.16810271
vit_b_16,1,477,NaN,car,car,0,0477_pow_dnn_0_car_35_n02814533_4374.png,n02814533_4374.png,1.0,4.021261,0.5780593,2.4347115
vit_b_16,1,478,NaN,keyboard,keyboard,0,0478_pow_dnn_0_keyboard_35_n04505470_5137.png,n04505470_5137.png,1.0,5.2927566,0.47138005,3.4092278
vit_b_16,1,479,NaN,elephant,elephant,0,0479_pow_dnn_0_elephant_35_n02504013_306.png,n02504013_306.png,1.0,7.0363493,0.1760058,4.8509955
vit_b_16,1,480,NaN,boat,boat,0,0480_pow_dnn_0_boat_35_n02951358_14624.png,n02951358_14624.png,1.0,1.7767937,0.63915396,0.8044328
vit_b_16,1,481,NaN,cat,cat,pow,0481_pow_dnn_pow_cat_35_n02125311_28114.png,n02125311_28114.png,1.0,2.434797,0.4174865,1.4264541
vit_b_16,1,482,NaN,car,car,pow,0482_pow_dnn_pow_car_35_n03100240_6259.png,n03100240_6259.png,1.0,4.4607415,0.62135,2.7148597
vit_b_16,1,483,NaN,bear,cat,pow,0483_pow_dnn_pow_cat_35_n02125311_12361.png,n02125311_12361.png,0.0,1.3290257,2.2574747,-0.65651256
vit_b_16,1,484,NaN,cat,bird,0,0484_pow_dnn_0_bird_35_n01833805_16468.png,n01833805_16468.png,0.0,-0.26024657,0.18663032,-0.31598967
vit_b_16,1,485,NaN,cat,dog,pow,0485_pow_dnn_pow_dog_35_n02110063_6748.png,n02110063_6748.png,0.0,0.98359275,3.7253952,-1.9387472
vit_b_16,1,486,NaN,oven,clock,pow,0486_pow_dnn_pow_clock_35_n04548280_2943.png,n04548280_2943.png,0.0,1.2653503,2.1534054,-0.6279498
vit_b_16,1,487,NaN,chair,chair,pow,0487_pow_dnn_pow_chair_35_n03376595_14619.png,n03376595_14619.png,1.0,2.7639813,1.1806769,1.1195652
vit_b_16,1,488,NaN,car,car,0,0488_pow_dnn_0_car_35_n03100240_5719.png,n03100240_5719.png,1.0,6.379973,0.25938195,4.3279114
vit_b_16,1,489,NaN,dog,dog,0,0489_pow_dnn_0_dog_35_n02093754_4677.png,n02093754_4677.png,1.0,1.3063813,1.0654947,0.17033261
vit_b_16,1,490,NaN,boat,boat,pow,0490_pow_dnn_pow_boat_35_n04273569_113.png,n04273569_113.png,1.0,1.5466626,1.0862833,0.3255373
vit_b_16,1,491,NaN,clock,clock,pow,0491_pow_dnn_pow_clock_35_n02708093_148.png,n02708093_148.png,1.0,5.2684984,0.38428438,3.453661
vit_b_16,1,492,NaN,cat,cat,0,0492_pow_dnn_0_cat_35_n02125311_53223.png,n02125311_53223.png,1.0,1.9929571,0.3383003,1.1700191
vit_b_16,1,493,NaN,knife,knife,0,0493_pow_dnn_0_knife_35_n03041632_7982.png,n03041632_7982.png,1.0,8.137809,1.1345195,4.9520736
vit_b_16,1,494,NaN,elephant,elephant,0,0494_pow_dnn_0_elephant_35_n02504013_7273.png,n02504013_7273.png,1.0,6.49595,0.22573467,4.433712
vit_b_16,1,495,NaN,truck,truck,pow,0495_pow_dnn_pow_truck_35_n03417042_26102.png,n03417042_26102.png,1.0,3.5340276,0.27436,2.304933
vit_b_16,1,496,NaN,car,car,pow,0496_pow_dnn_pow_car_35_n02814533_874.png,n02814533_874.png,1.0,5.8672185,2.393909,2.4560008
vit_b_16,1,497,NaN,bicycle,bicycle,0,0497_pow_dnn_0_bicycle_35_n03792782_21148.png,n03792782_21148.png,1.0,7.413267,0.3847908,4.9698834
vit_b_16,1,498,NaN,oven,oven,pow,0498_pow_dnn_pow_oven_35_n04111531_4146.png,n04111531_4146.png,1.0,8.905751,0.832775,5.708456
vit_b_16,1,499,NaN,keyboard,keyboard,pow,0499_pow_dnn_pow_keyboard_35_n03085013_21183.png,n03085013_21183.png,1.0,6.274666,2.8625095,2.4127588
vit_b_16,1,500,NaN,boat,boat,0,0500_pow_dnn_0_boat_35_n04612504_19147.png,n04612504_19147.png,1.0,2.6049838,0.10329489,1.7689613
vit_b_16,1,501,NaN,bear,bear,0,0501_pow_dnn_0_bear_35_n02133161_2044.png,n02133161_2044.png,1.0,4.184901,3.891281,0.20762095
vit_b_16,1,502,NaN,bottle,bottle,pow,0502_pow_dnn_pow_bottle_35_n04579145_3894.png,n04579145_3894.png,1.0,2.5054889,0.4963032,1.4207089
vit_b_16,1,503,NaN,bicycle,bicycle,0,0503_pow_dnn_0_bicycle_35_n03792782_13399.png,n03792782_13399.png,1.0,6.6870785,2.3543491,3.0637023
vit_b_16,1,504,NaN,knife,knife,pow,0504_pow_dnn_pow_knife_35_n03041632_21818.png,n03041632_21818.png,1.0,4.889481,2.5570955,1.6492456
vit_b_16,1,505,NaN,chair,chair,0,0505_pow_dnn_0_chair_35_n03376595_7010.png,n03376595_7010.png,1.0,2.7552993,0.7233277,1.436821
vit_b_16,1,506,NaN,oven,oven,0,0506_pow_dnn_0_oven_35_n04111531_4.png,n04111531_4.png,1.0,9.410587,0.19971508,6.5130706
vit_b_16,1,507,NaN,bird,bird,pow,0507_pow_dnn_pow_bird_35_n01820546_6471.png,n01820546_6471.png,1.0,2.0827756,1.4011286,0.4819972
vit_b_16,1,508,NaN,bear,bear,pow,0508_pow_dnn_pow_bear_35_n02132136_10352.png,n02132136_10352.png,1.0,4.6490993,0.4668365,2.9573066
vit_b_16,1,509,NaN,clock,clock,pow,0509_pow_dnn_pow_clock_35_n04548280_8348.png,n04548280_8348.png,1.0,4.9271913,2.253365,1.8906807
vit_b_16,1,510,NaN,elephant,elephant,0,0510_pow_dnn_0_elephant_35_n02504013_5087.png,n02504013_5087.png,1.0,7.662775,0.45619702,5.0958204
vit_b_16,1,511,NaN,airplane,airplane,pow,0511_pow_dnn_pow_airplane_35_n02690373_60.png,n02690373_60.png,1.0,8.949347,0.30920336,6.109504
vit_b_16,1,512,NaN,clock,chair,pow,0512_pow_dnn_pow_chair_35_n02791124_16085.png,n02791124_16085.png,0.0,0.8814944,1.2132393,-0.23457909
vit_b_16,1,513,NaN,bottle,bottle,0,0513_pow_dnn_0_bottle_35_n02823428_3611.png,n02823428_3611.png,1.0,3.4644814,0.42805332,2.1470788
vit_b_16,1,514,NaN,bear,bird,pow,0514_pow_dnn_pow_bird_35_n01614925_8653.png,n01614925_8653.png,0.0,0.6542317,1.8888211,-0.8729865
vit_b_16,1,515,NaN,bird,bird,pow,0515_pow_dnn_pow_bird_35_n01537544_9881.png,n01537544_9881.png,1.0,1.5216497,0.68910563,0.58869755
vit_b_16,1,516,NaN,knife,knife,0,0516_pow_dnn_0_knife_35_n03041632_35365.png,n03041632_35365.png,1.0,8.3762865,0.36051315,5.668008
vit_b_16,1,517,NaN,bear,bear,0,0517_pow_dnn_0_bear_35_n02132136_23202.png,n02132136_23202.png,1.0,1.627371,0.7823467,0.5975224
vit_b_16,1,518,NaN,oven,oven,0,0518_pow_dnn_0_oven_35_n04111531_3976.png,n04111531_3976.png,1.0,9.17201,0.5188585,6.1187024
vit_b_16,1,519,NaN,chair,chair,pow,0519_pow_dnn_pow_chair_35_n04429376_32124.png,n04429376_32124.png,1.0,4.56773,0.60807896,2.799896
vit_b_16,1,520,NaN,bear,bear,pow,0520_pow_dnn_pow_bear_35_n02134418_848.png,n02134418_848.png,1.0,3.951807,0.4614843,2.468031
vit_b_16,1,521,NaN,boat,boat,0,0521_pow_dnn_0_boat_35_n03344393_7374.png,n03344393_7374.png,1.0,2.3543527,0.12802206,1.5742536
vit_b_16,1,522,NaN,boat,bird,pow,0522_pow_dnn_pow_bird_35_n01532829_3914.png,n01532829_3914.png,0.0,-0.0029942926,1.2749687,-0.90365636
vit_b_16,1,523,NaN,keyboard,keyboard,0,0523_pow_dnn_0_keyboard_35_n04505470_5902.png,n04505470_5902.png,1.0,5.9402003,0.6604247,3.7333653
vit_b_16,1,524,NaN,truck,truck,pow,0524_pow_dnn_pow_truck_35_n03417042_11165.png,n03417042_11165.png,1.0,3.6901405,1.8805472,1.2795757
vit_b_16,1,525,NaN,clock,clock,0,0525_pow_dnn_0_clock_35_n02708093_5.png,n02708093_5.png,1.0,5.758657,0.6908946,3.5834491
vit_b_16,1,526,NaN,elephant,elephant,pow,0526_pow_dnn_pow_elephant_35_n02504458_4187.png,n02504458_4187.png,1.0,6.5083265,0.4709258,4.269087
vit_b_16,1,527,NaN,knife,knife,0,0527_pow_dnn_0_knife_35_n03041632_10802.png,n03041632_10802.png,1.0,9.536606,0.47789952,6.4054728
vit_b_16,1,528,NaN,car,car,0,0528_pow_dnn_0_car_35_n04285008_16647.png,n04285008_16647.png,1.0,6.594774,0.43555993,4.355222
vit_b_16,1,529,NaN,elephant,dog,0,0529_pow_dnn_0_dog_35_n02104365_3004.png,n02104365_3004.png,0.0,0.2218434,0.26173872,-0.028210245
vit_b_16,1,530,NaN,elephant,elephant,pow,0530_pow_dnn_pow_elephant_35_n02504013_21616.png,n02504013_21616.png,1.0,7.15825,0.4404567,4.750197
vit_b_16,1,531,NaN,keyboard,keyboard,0,0531_pow_dnn_0_keyboard_35_n03085013_23465.png,n03085013_23465.png,1.0,6.504836,0.50706047,4.241068
vit_b_16,1,532,NaN,airplane,airplane,pow,0532_pow_dnn_pow_airplane_35_n02690373_911.png,n02690373_911.png,1.0,4.9182577,0.32844895,3.245485
vit_b_16,1,533,NaN,elephant,elephant,0,0533_pow_dnn_0_elephant_35_n02504013_1454.png,n02504013_1454.png,1.0,7.816637,0.360012,5.27263
vit_b_16,1,534,NaN,bicycle,bicycle,0,0534_pow_dnn_0_bicycle_35_n03792782_70690.png,n03792782_70690.png,1.0,7.766844,0.28231925,5.2923584
vit_b_16,1,535,NaN,chair,chair,0,0535_pow_dnn_0_chair_35_n04429376_31206.png,n04429376_31206.png,1.0,3.5886312,2.020773,1.1086432
vit_b_16,1,536,NaN,clock,clock,0,0536_pow_dnn_0_clock_35_n02708093_2498.png,n02708093_2498.png,1.0,6.32407,0.42557013,4.1708694
vit_b_16,1,537,NaN,keyboard,keyboard,0,0537_pow_dnn_0_keyboard_35_n04505470_1728.png,n04505470_1728.png,1.0,6.685457,0.59481555,4.306734
vit_b_16,1,538,NaN,truck,truck,pow,0538_pow_dnn_pow_truck_35_n03417042_6608.png,n03417042_6608.png,1.0,3.6486547,0.7802439,2.0282729
vit_b_16,1,539,NaN,car,bird,0,0539_pow_dnn_0_bird_35_n02013706_1016.png,n02013706_1016.png,0.0,-0.39180195,0.7043106,-0.7750686
vit_b_16,1,540,NaN,clock,clock,0,0540_pow_dnn_0_clock_35_n04548280_5011.png,n04548280_5011.png,1.0,5.099378,1.3523095,2.6495776
vit_b_16,1,541,NaN,bicycle,bicycle,0,0541_pow_dnn_0_bicycle_35_n02835271_19557.png,n02835271_19557.png,1.0,5.0894775,0.8501484,2.9976585
vit_b_16,1,542,NaN,bear,bear,pow,0542_pow_dnn_pow_bear_35_n02134084_5827.png,n02134084_5827.png,1.0,3.5808988,0.13526812,2.4364288
vit_b_16,1,543,NaN,car,dog,pow,0543_pow_dnn_pow_dog_35_n02096585_1894.png,n02096585_1894.png,0.0,0.015268562,0.39601102,-0.26922557
vit_b_16,1,544,NaN,car,boat,pow,0544_pow_dnn_pow_boat_35_n02951358_34234.png,n02951358_34234.png,0.0,0.6211998,0.94508666,-0.2290226
vit_b_16,1,545,NaN,cat,cat,pow,0545_pow_dnn_pow_cat_35_n02123597_5514.png,n02123597_5514.png,1.0,4.023373,0.7385415,2.3227267
vit_b_16,1,546,NaN,oven,oven,pow,0546_pow_dnn_pow_oven_35_n04111531_3580.png,n04111531_3580.png,1.0,6.6423345,1.7367562,3.4687676
vit_b_16,1,547,NaN,airplane,airplane,0,0547_pow_dnn_0_airplane_35_n02690373_7107.png,n02690373_7107.png,1.0,8.994874,0.24635987,6.186134
vit_b_16,1,548,NaN,cat,cat,0,0548_pow_dnn_0_cat_35_n02123159_5224.png,n02123159_5224.png,1.0,3.8053186,0.795989,2.1279173
vit_b_16,1,549,NaN,bear,bear,pow,0549_pow_dnn_pow_bear_35_n02133161_6679.png,n02133161_6679.png,1.0,4.588155,0.33304986,3.0088136
vit_b_16,1,550,NaN,elephant,dog,0,0550_pow_dnn_0_dog_35_n02106030_22.png,n02106030_22.png,0.0,0.216955,0.3016831,-0.05991181
vit_b_16,1,551,NaN,truck,truck,0,0551_pow_dnn_0_truck_35_n03417042_4574.png,n03417042_4574.png,1.0,4.4392533,1.5348946,2.0536919
vit_b_16,1,552,NaN,cat,dog,pow,0552_pow_dnn_pow_dog_35_n02097298_7577.png,n02097298_7577.png,0.0,0.18009254,3.0790997,-2.0499077
vit_b_16,1,553,NaN,elephant,dog,pow,0553_pow_dnn_pow_dog_35_n02093428_16873.png,n02093428_16873.png,0.0,0.44113708,0.56736743,-0.08925834
vit_b_16,1,554,NaN,bear,bear,0,0554_pow_dnn_0_bear_35_n02132136_4157.png,n02132136_4157.png,1.0,5.1830335,0.812258,3.0906048
vit_b_16,1,555,NaN,bottle,bottle,0,0555_pow_dnn_0_bottle_35_n02823428_2007.png,n02823428_2007.png,1.0,2.5316672,0.48428974,1.4477146
vit_b_16,1,556,NaN,keyboard,keyboard,0,0556_pow_dnn_0_keyboard_35_n03085013_24272.png,n03085013_24272.png,1.0,6.0196123,1.5661792,3.1490529
vit_b_16,1,557,NaN,oven,oven,0,0557_pow_dnn_0_oven_35_n04111531_2074.png,n04111531_2074.png,1.0,9.174513,1.0959371,5.712416
vit_b_16,1,558,NaN,bird,bird,pow,0558_pow_dnn_pow_bird_35_n01532829_4536.png,n01532829_4536.png,1.0,1.1258945,0.6510342,0.33577698
vit_b_16,1,559,NaN,boat,dog,0,0559_pow_dnn_0_dog_35_n02109047_17100.png,n02109047_17100.png,0.0,-0.55353916,0.36746338,-0.65124714
vit_b_16,1,560,NaN,oven,oven,pow,0560_pow_dnn_pow_oven_35_n04111531_4407.png,n04111531_4407.png,1.0,7.0015225,1.7267383,3.7298357
vit_b_16,1,561,NaN,airplane,airplane,0,0561_pow_dnn_0_airplane_35_n02690373_8069.png,n02690373_8069.png,1.0,8.962584,0.43674433,6.0286784
vit_b_16,1,562,NaN,bottle,bottle,0,0562_pow_dnn_0_bottle_35_n04560804_8921.png,n04560804_8921.png,1.0,1.9289876,0.17777516,1.2382942
vit_b_16,1,563,NaN,bottle,bottle,pow,0563_pow_dnn_pow_bottle_35_n03937543_2936.png,n03937543_2936.png,1.0,2.6823332,0.27498436,1.7022527
vit_b_16,1,564,NaN,keyboard,cat,0,0564_pow_dnn_0_cat_35_n02123045_8031.png,n02123045_8031.png,0.0,2.96447,5.65409,-1.9018486
vit_b_16,1,565,NaN,oven,oven,0,0565_pow_dnn_0_oven_35_n04111531_3805.png,n04111531_3805.png,1.0,8.561425,0.43444732,5.746641
vit_b_16,1,566,NaN,truck,truck,0,0566_pow_dnn_0_truck_35_n03417042_27231.png,n03417042_27231.png,1.0,2.4467,0.21786018,1.5760279
vit_b_16,1,567,NaN,elephant,elephant,0,0567_pow_dnn_0_elephant_35_n02504013_7232.png,n02504013_7232.png,1.0,7.4624243,0.21919388,5.1217375
vit_b_16,1,568,NaN,knife,knife,0,0568_pow_dnn_0_knife_35_n03041632_5102.png,n03041632_5102.png,1.0,8.557801,0.14463271,5.949009
vit_b_16,1,569,NaN,airplane,dog,pow,0569_pow_dnn_pow_dog_35_n02110958_8916.png,n02110958_8916.png,0.0,-0.13657606,0.25492156,-0.2768306
vit_b_16,1,570,NaN,bottle,bottle,pow,0570_pow_dnn_pow_bottle_35_n04557648_9790.png,n04557648_9790.png,1.0,4.3640428,1.7466241,1.8507946
vit_b_16,1,571,NaN,cat,cat,pow,0571_pow_dnn_pow_cat_35_n02123394_3786.png,n02123394_3786.png,1.0,4.165497,1.1522996,2.1306522
vit_b_16,1,572,NaN,truck,truck,0,0572_pow_dnn_0_truck_35_n04467665_19132.png,n04467665_19132.png,1.0,3.2720108,0.82454026,1.7306231
vit_b_16,1,573,NaN,truck,truck,pow,0573_pow_dnn_pow_truck_35_n03796401_2934.png,n03796401_2934.png,1.0,2.1942735,0.39766112,1.2703968
vit_b_16,1,574,NaN,bicycle,bicycle,0,0574_pow_dnn_0_bicycle_35_n02835271_12799.png,n02835271_12799.png,1.0,4.726202,0.46047688,3.0163233
vit_b_16,1,575,NaN,car,car,0,0575_pow_dnn_0_car_35_n02814533_1297.png,n02814533_1297.png,1.0,4.1018605,2.3254676,1.2560995
vit_b_16,1,576,NaN,bear,bear,pow,0576_pow_dnn_pow_bear_35_n02134418_1974.png,n02134418_1974.png,1.0,5.4677267,0.26809362,3.6766958
vit_b_16,1,577,NaN,cat,cat,0,0577_pow_dnn_0_cat_35_n02124075_2843.png,n02124075_2843.png,1.0,3.7110384,0.4528892,2.3038595
vit_b_16,1,578,NaN,cat,cat,0,0578_pow_dnn_0_cat_35_n02123597_5697.png,n02123597_5697.png,1.0,1.8063011,0.4151586,0.9836863
vit_b_16,1,579,NaN,oven,bicycle,pow,0579_pow_dnn_pow_bicycle_35_n02835271_2315.png,n02835271_2315.png,0.0,2.8698893,3.2476542,-0.26712015
vit_b_16,1,580,NaN,keyboard,keyboard,0,0580_pow_dnn_0_keyboard_35_n04505470_4515.png,n04505470_4515.png,1.0,5.3033195,0.33839595,3.510731
vit_b_16,1,581,NaN,knife,knife,pow,0581_pow_dnn_pow_knife_35_n03041632_4269.png,n03041632_4269.png,1.0,5.929844,1.2492017,3.3097138
vit_b_16,1,582,NaN,cat,cat,0,0582_pow_dnn_0_cat_35_n02123045_12010.png,n02123045_12010.png,1.0,3.9382095,1.4512049,1.758578
vit_b_16,1,583,NaN,clock,clock,0,0583_pow_dnn_0_clock_35_n03196217_6467.png,n03196217_6467.png,1.0,3.9839418,3.120713,0.61039495
vit_b_16,1,584,NaN,clock,bottle,pow,0584_pow_dnn_pow_bottle_35_n03983396_2864.png,n03983396_2864.png,0.0,1.277178,2.4220035,-0.80951387
vit_b_16,1,585,NaN,bottle,bottle,0,0585_pow_dnn_0_bottle_35_n04557648_10171.png,n04557648_10171.png,1.0,1.9788685,0.94784963,0.72904044
vit_b_16,1,586,NaN,bird,bird,pow,0586_pow_dnn_pow_bird_35_n01860187_2052.png,n01860187_2052.png,1.0,1.112555,0.34920985,0.53976655
vit_b_16,1,587,NaN,car,car,0,0587_pow_dnn_0_car_35_n04285008_5897.png,n04285008_5897.png,1.0,6.4681225,0.18504111,4.4428096
vit_b_16,1,588,NaN,elephant,elephant,0,0588_pow_dnn_0_elephant_35_n02504458_4721.png,n02504458_4721.png,1.0,6.8831596,0.43965545,4.556246
vit_b_16,1,589,NaN,car,car,0,0589_pow_dnn_0_car_35_n02814533_93476.png,n02814533_93476.png,1.0,5.9335275,1.7825912,2.9351552
vit_b_16,1,590,NaN,bird,bird,pow,0590_pow_dnn_pow_bird_35_n01824575_10337.png,n01824575_10337.png,1.0,0.89376163,0.49697,0.28057405
vit_b_16,1,591,NaN,bear,dog,pow,0591_pow_dnn_pow_dog_35_n02100735_10683.png,n02100735_10683.png,0.0,0.65415007,1.1974003,-0.38413596
vit_b_16,1,592,NaN,airplane,airplane,pow,0592_pow_dnn_pow_airplane_35_n02690373_4402.png,n02690373_4402.png,1.0,6.050663,0.71660405,3.7717493
vit_b_16,1,593,NaN,airplane,airplane,0,0593_pow_dnn_0_airplane_35_n02690373_4350.png,n02690373_4350.png,1.0,8.922957,0.21081135,6.1604176
vit_b_16,1,594,NaN,elephant,bottle,pow,0594_pow_dnn_pow_bottle_35_n02823428_6327.png,n02823428_6327.png,0.0,2.7789457,2.9726663,-0.13698114
vit_b_16,1,595,NaN,clock,dog,pow,0595_pow_dnn_pow_dog_35_n02104029_3041.png,n02104029_3041.png,0.0,0.19704007,0.42685315,-0.1625024
vit_b_16,1,596,NaN,elephant,elephant,pow,0596_pow_dnn_pow_elephant_35_n02504013_24810.png,n02504013_24810.png,1.0,6.081867,0.54572177,3.914646
vit_b_16,1,597,NaN,clock,clock,pow,0597_pow_dnn_pow_clock_35_n04548280_4473.png,n04548280_4473.png,1.0,4.545673,2.2323022,1.6358001
vit_b_16,1,598,NaN,dog,dog,pow,0598_pow_dnn_pow_dog_35_n02107908_5597.png,n02107908_5597.png,1.0,0.5940866,0.3288026,0.18758412
vit_b_16,1,599,NaN,truck,truck,0,0599_pow_dnn_0_truck_35_n04467665_57697.png,n04467665_57697.png,1.0,2.8558927,0.38914222,1.7442559
vit_b_16,1,600,NaN,bottle,bottle,pow,0600_pow_dnn_pow_bottle_35_n03983396_6889.png,n03983396_6889.png,1.0,3.4449658,0.65393543,1.9735565
vit_b_16,1,601,NaN,bear,bear,pow,0601_pow_dnn_pow_bear_35_n02134418_1826.png,n02134418_1826.png,1.0,5.302063,0.5857984,3.3349028
vit_b_16,1,602,NaN,cat,cat,pow,0602_pow_dnn_pow_cat_35_n02123159_4687.png,n02123159_4687.png,1.0,4.4128194,0.63390535,2.6720958
vit_b_16,1,603,NaN,boat,boat,pow,0603_pow_dnn_pow_boat_35_n03344393_5798.png,n03344393_5798.png,1.0,2.9252133,2.0175104,0.6418429
vit_b_16,1,604,NaN,car,car,pow,0604_pow_dnn_pow_car_35_n04285008_11745.png,n04285008_11745.png,1.0,4.83868,1.1087345,2.6374695
vit_b_16,1,605,NaN,clock,clock,0,0605_pow_dnn_0_clock_35_n02708093_353.png,n02708093_353.png,1.0,7.3145885,0.4880177,4.8271146
vit_b_16,1,606,NaN,airplane,airplane,0,0606_pow_dnn_0_airplane_35_n02690373_4763.png,n02690373_4763.png,1.0,9.280007,0.17853105,6.435716
vit_b_16,1,607,NaN,elephant,elephant,0,0607_pow_dnn_0_elephant_35_n02504013_18498.png,n02504013_18498.png,1.0,8.009464,0.2849461,5.4620595
vit_b_16,1,608,NaN,cat,cat,pow,0608_pow_dnn_pow_cat_35_n02123394_159.png,n02123394_159.png,1.0,2.920873,1.66681,0.88675636
vit_b_16,1,609,NaN,boat,boat,0,0609_pow_dnn_0_boat_35_n03662601_18676.png,n03662601_18676.png,1.0,3.4769363,0.24189134,2.2875223
vit_b_16,1,610,NaN,truck,truck,pow,0610_pow_dnn_pow_truck_35_n03796401_1789.png,n03796401_1789.png,1.0,1.628658,1.4504229,0.1260313
vit_b_16,1,611,NaN,chair,chair,0,0611_pow_dnn_0_chair_35_n04099969_4816.png,n04099969_4816.png,1.0,2.5039163,1.2094773,0.91530657
vit_b_16,1,612,NaN,elephant,elephant,0,0612_pow_dnn_0_elephant_35_n02504458_7013.png,n02504458_7013.png,1.0,6.6933928,0.13796006,4.635391
vit_b_16,1,613,NaN,knife,knife,pow,0613_pow_dnn_pow_knife_35_n03041632_92637.png,n03041632_92637.png,1.0,3.0737815,0.4923126,1.8253741
vit_b_16,1,614,NaN,keyboard,keyboard,0,0614_pow_dnn_0_keyboard_35_n03085013_19607.png,n03085013_19607.png,1.0,7.252818,0.266468,4.9400954
vit_b_16,1,615,NaN,cat,cat,pow,0615_pow_dnn_pow_cat_35_n02123597_1027.png,n02123597_1027.png,1.0,2.4938304,1.9582218,0.3787325
vit_b_16,1,616,NaN,bicycle,bicycle,0,0616_pow_dnn_0_bicycle_35_n02835271_9135.png,n02835271_9135.png,1.0,5.457133,1.1057698,3.0768785
vit_b_16,1,617,NaN,oven,dog,pow,0617_pow_dnn_pow_dog_35_n02111500_3896.png,n02111500_3896.png,0.0,0.013742634,0.6091941,-0.42104778
vit_b_16,1,618,NaN,oven,oven,0,0618_pow_dnn_0_oven_35_n04111531_8398.png,n04111531_8398.png,1.0,7.574852,2.3723617,3.6787162
vit_b_16,1,619,NaN,oven,oven,0,0619_pow_dnn_0_oven_35_n04111531_6049.png,n04111531_6049.png,1.0,8.592657,0.65336764,5.6139255
vit_b_16,1,620,NaN,chair,chair,pow,0620_pow_dnn_pow_chair_35_n03376595_6947.png,n03376595_6947.png,1.0,3.2317095,3.1050103,0.08958987
vit_b_16,1,621,NaN,dog,dog,pow,0621_pow_dnn_pow_dog_35_n02097658_6717.png,n02097658_6717.png,1.0,0.48919773,0.39362943,0.067577
vit_b_16,1,622,NaN,knife,knife,0,0622_pow_dnn_0_knife_35_n03041632_21560.png,n03041632_21560.png,1.0,8.250205,1.4912815,4.7792807
vit_b_16,1,623,NaN,boat,boat,pow,0623_pow_dnn_pow_boat_35_n03662601_7642.png,n03662601_7642.png,1.0,2.5935493,1.5631409,0.7286088
vit_b_16,1,624,NaN,car,car,0,0624_pow_dnn_0_car_35_n04285008_1313.png,n04285008_1313.png,1.0,4.0606537,0.4194134,2.574746
vit_b_16,1,625,NaN,chair,chair,pow,0625_pow_dnn_pow_chair_35_n03376595_6409.png,n03376595_6409.png,1.0,4.6578374,2.3077507,1.6617622
vit_b_16,1,626,NaN,bear,bear,pow,0626_pow_dnn_pow_bear_35_n02133161_6028.png,n02133161_6028.png,1.0,2.5732741,0.42455545,1.5193735
vit_b_16,1,627,NaN,bear,bear,pow,0627_pow_dnn_pow_bear_35_n02132136_29029.png,n02132136_29029.png,1.0,6.0271726,2.013092,2.8383837
vit_b_16,1,628,NaN,truck,truck,0,0628_pow_dnn_0_truck_35_n04467665_7290.png,n04467665_7290.png,1.0,2.5317655,0.41531196,1.4965585
vit_b_16,1,629,NaN,bird,bird,pow,0629_pow_dnn_pow_bird_35_n01537544_9745.png,n01537544_9745.png,1.0,0.84111834,0.48848507,0.24934939
vit_b_16,1,630,NaN,bicycle,bicycle,0,0630_pow_dnn_0_bicycle_35_n03792782_15845.png,n03792782_15845.png,1.0,5.7646437,0.27765504,3.8798869
vit_b_16,1,631,NaN,bear,bear,pow,0631_pow_dnn_pow_bear_35_n02133161_8982.png,n02133161_8982.png,1.0,3.5793457,3.0998063,0.33908555
vit_b_16,1,632,NaN,knife,knife,0,0632_pow_dnn_0_knife_35_n03041632_6575.png,n03041632_6575.png,1.0,8.522046,0.7326326,5.507947
vit_b_16,1,633,NaN,knife,knife,0,0633_pow_dnn_0_knife_35_n03041632_32785.png,n03041632_32785.png,1.0,9.057643,0.9144569,5.758102
vit_b_16,1,634,NaN,chair,chair,pow,0634_pow_dnn_pow_chair_35_n04429376_12691.png,n04429376_12691.png,1.0,3.531167,0.74464196,1.9703708
vit_b_16,1,635,NaN,elephant,dog,pow,0635_pow_dnn_pow_dog_35_n02097298_6578.png,n02097298_6578.png,0.0,0.0658831,0.9592838,-0.6317297
vit_b_16,1,636,NaN,knife,knife,pow,0636_pow_dnn_pow_knife_35_n03041632_94995.png,n03041632_94995.png,1.0,6.1585507,0.08519635,4.29451
vit_b_16,1,637,NaN,clock,clock,0,0637_pow_dnn_0_clock_35_n02708093_41.png,n02708093_41.png,1.0,5.9063973,0.24506265,4.003168
vit_b_16,1,638,NaN,keyboard,keyboard,0,0638_pow_dnn_0_keyboard_35_n03085013_7892.png,n03085013_7892.png,1.0,8.051782,0.29385138,5.4856853
vit_b_16,1,639,NaN,knife,knife,pow,0639_pow_dnn_pow_knife_35_n03041632_84048.png,n03041632_84048.png,1.0,4.221688,3.6938648,0.3732272
vit_b_16,1,640,NaN,airplane,airplane,0,0640_pow_dnn_0_airplane_35_n02690373_3415.png,n02690373_3415.png,1.0,7.543639,0.31165066,5.113788
vit_b_16,1,641,NaN,knife,knife,0,0641_pow_dnn_0_knife_35_n03041632_31483.png,n03041632_31483.png,1.0,7.2284427,1.4589716,4.0796323
vit_b_16,1,642,NaN,cat,dog,0,0642_pow_dnn_0_dog_35_n02110958_368.png,n02110958_368.png,0.0,0.22254314,0.4155997,-0.13651161
vit_b_16,1,643,NaN,bird,bird,0,0643_pow_dnn_0_bird_35_n02051845_539.png,n02051845_539.png,1.0,0.16194999,0.14597397,0.011296757
vit_b_16,1,644,NaN,bear,bear,0,0644_pow_dnn_0_bear_35_n02134084_11187.png,n02134084_11187.png,1.0,2.6462193,0.90055406,1.2343717
vit_b_16,1,645,NaN,keyboard,bird,0,0645_pow_dnn_0_bird_35_n01531178_17387.png,n01531178_17387.png,0.0,0.57824653,0.6377351,-0.04206479
vit_b_16,1,646,NaN,keyboard,keyboard,0,0646_pow_dnn_0_keyboard_35_n04505470_5131.png,n04505470_5131.png,1.0,6.0432262,0.7168049,3.7663486
vit_b_16,1,647,NaN,cat,cat,0,0647_pow_dnn_0_cat_35_n02123159_2246.png,n02123159_2246.png,1.0,4.149441,1.2509718,2.0495272
vit_b_16,1,648,NaN,oven,oven,0,0648_pow_dnn_0_oven_35_n04111531_1725.png,n04111531_1725.png,1.0,9.016225,1.723008,5.157083
vit_b_16,1,649,NaN,clock,clock,0,0649_pow_dnn_0_clock_35_n02708093_2295.png,n02708093_2295.png,1.0,4.9253974,1.3421756,2.5337205
vit_b_16,1,650,NaN,bear,cat,pow,0650_pow_dnn_pow_cat_35_n02125311_5013.png,n02125311_5013.png,0.0,0.97127056,0.9882496,-0.012005993
vit_b_16,1,651,NaN,knife,keyboard,pow,0651_pow_dnn_pow_keyboard_35_n03085013_24665.png,n03085013_24665.png,0.0,0.6394934,4.86757,-2.9897015
vit_b_16,1,652,NaN,elephant,elephant,pow,0652_pow_dnn_pow_elephant_35_n02504013_9678.png,n02504013_9678.png,1.0,5.805523,0.3553981,3.8538203
vit_b_16,1,653,NaN,keyboard,keyboard,0,0653_pow_dnn_0_keyboard_35_n03085013_7858.png,n03085013_7858.png,1.0,7.329488,0.34921035,4.9358015
vit_b_16,1,654,NaN,boat,boat,0,0654_pow_dnn_0_boat_35_n04612504_2089.png,n04612504_2089.png,1.0,2.4770732,0.114302576,1.6707311
vit_b_16,1,655,NaN,dog,dog,0,0655_pow_dnn_0_dog_35_n02091831_4183.png,n02091831_4183.png,1.0,0.35614082,0.1035754,0.17859071
vit_b_16,1,656,NaN,cat,cat,0,0656_pow_dnn_0_cat_35_n02125311_475.png,n02125311_475.png,1.0,1.4677063,0.2943241,0.8297066
vit_b_16,1,657,NaN,clock,clock,0,0657_pow_dnn_0_clock_35_n03196217_2607.png,n03196217_2607.png,1.0,4.8262076,0.29325747,3.20528
vit_b_16,1,658,NaN,car,car,0,0658_pow_dnn_0_car_35_n02814533_93487.png,n02814533_93487.png,1.0,3.8286572,0.32594216,2.4767938
vit_b_16,1,659,NaN,dog,dog,0,0659_pow_dnn_0_dog_35_n02108000_6270.png,n02108000_6270.png,1.0,0.3024925,0.12518384,0.12537616
vit_b_16,1,660,NaN,chair,chair,pow,0660_pow_dnn_pow_chair_35_n04099969_20900.png,n04099969_20900.png,1.0,4.842141,1.2580299,2.5343494
vit_b_16,1,661,NaN,car,car,0,0661_pow_dnn_0_car_35_n03100240_8483.png,n03100240_8483.png,1.0,6.554816,0.24039795,4.4649677
vit_b_16,1,662,NaN,chair,chair,0,0662_pow_dnn_0_chair_35_n03376595_2056.png,n03376595_2056.png,1.0,1.3063731,0.36718938,0.6641032
vit_b_16,1,663,NaN,boat,boat,pow,0663_pow_dnn_pow_boat_35_n04612504_2479.png,n04612504_2479.png,1.0,3.8127275,0.7126746,2.1920683
vit_b_16,1,664,NaN,cat,cat,pow,0664_pow_dnn_pow_cat_35_n02123045_5228.png,n02123045_5228.png,1.0,3.2729332,1.5220431,1.2380663
vit_b_16,1,665,NaN,airplane,airplane,0,0665_pow_dnn_0_airplane_35_n02690373_10404.png,n02690373_10404.png,1.0,9.025844,0.34022123,6.1416626
vit_b_16,1,666,NaN,knife,knife,0,0666_pow_dnn_0_knife_35_n03041632_29427.png,n03041632_29427.png,1.0,8.020058,5.352112,1.8865227
vit_b_16,1,667,NaN,bottle,oven,0,0667_pow_dnn_0_oven_35_n04111531_7355.png,n04111531_7355.png,0.0,1.038634,2.8133795,-1.2549347
vit_b_16,1,668,NaN,clock,clock,0,0668_pow_dnn_0_clock_35_n03196217_3333.png,n03196217_3333.png,1.0,4.090818,0.6197854,2.4543908
vit_b_16,1,669,NaN,bird,bird,0,0669_pow_dnn_0_bird_35_n02027492_9905.png,n02027492_9905.png,1.0,0.9081208,0.30230325,0.42837772
vit_b_16,1,670,NaN,airplane,airplane,0,0670_pow_dnn_0_airplane_35_n02690373_9709.png,n02690373_9709.png,1.0,9.080216,0.25348788,6.24144
vit_b_16,1,671,NaN,clock,clock,0,0671_pow_dnn_0_clock_35_n03196217_3558.png,n03196217_3558.png,1.0,5.083195,0.8942545,2.9620283
vit_b_16,1,672,NaN,elephant,elephant,pow,0672_pow_dnn_pow_elephant_35_n02504013_1854.png,n02504013_1854.png,1.0,7.3827724,0.12978154,5.128639
vit_b_16,1,673,NaN,bottle,boat,pow,0673_pow_dnn_pow_boat_35_n03662601_15566.png,n03662601_15566.png,0.0,0.33445475,2.5485408,-1.5655953
vit_b_16,1,674,NaN,elephant,chair,pow,0674_pow_dnn_pow_chair_35_n03376595_235.png,n03376595_235.png,0.0,0.3349715,1.5886405,-0.8864779
vit_b_16,1,675,NaN,boat,boat,0,0675_pow_dnn_0_boat_35_n03344393_7669.png,n03344393_7669.png,1.0,2.5543094,0.17890052,1.6796677
vit_b_16,1,676,NaN,cat,cat,pow,0676_pow_dnn_pow_cat_35_n02123159_4952.png,n02123159_4952.png,1.0,3.1331956,2.191307,0.6660158
vit_b_16,1,677,NaN,truck,truck,pow,0677_pow_dnn_pow_truck_35_n03417042_16403.png,n03417042_16403.png,1.0,0.9969418,0.5162814,0.33987823
vit_b_16,1,678,NaN,dog,dog,pow,0678_pow_dnn_pow_dog_35_n02094258_794.png,n02094258_794.png,1.0,0.6873599,0.6065054,0.05717279
vit_b_16,1,679,NaN,knife,knife,0,0679_pow_dnn_0_knife_35_n03041632_3504.png,n03041632_3504.png,1.0,3.8543873,1.1198164,1.9336337
vit_b_16,1,680,NaN,truck,truck,0,0680_pow_dnn_0_truck_35_n03796401_10878.png,n03796401_10878.png,1.0,1.8260326,0.26594558,1.1031482
vit_b_16,1,681,NaN,bear,bear,0,0681_pow_dnn_0_bear_35_n02134084_13029.png,n02134084_13029.png,1.0,5.231432,1.7703334,2.4473665
vit_b_16,1,682,NaN,knife,bird,pow,0682_pow_dnn_pow_bird_35_n01534433_14336.png,n01534433_14336.png,0.0,0.77183414,0.9068721,-0.09548626
vit_b_16,1,683,NaN,bottle,bottle,0,0683_pow_dnn_0_bottle_35_n04560804_647.png,n04560804_647.png,1.0,2.0656455,1.3358747,0.5160259
vit_b_16,1,684,NaN,airplane,airplane,0,0684_pow_dnn_0_airplane_35_n02690373_4107.png,n02690373_4107.png,1.0,9.028393,0.9969471,5.6790895
vit_b_16,1,685,NaN,chair,chair,0,0685_pow_dnn_0_chair_35_n04429376_8069.png,n04429376_8069.png,1.0,3.161839,0.838041,1.6431733
vit_b_16,1,686,NaN,oven,oven,pow,0686_pow_dnn_pow_oven_35_n04111531_23668.png,n04111531_23668.png,1.0,3.8909137,1.821424,1.4633503
vit_b_16,1,687,NaN,airplane,airplane,pow,0687_pow_dnn_pow_airplane_35_n02690373_1071.png,n02690373_1071.png,1.0,4.5060544,1.4156376,2.1852548
vit_b_16,1,688,NaN,elephant,elephant,0,0688_pow_dnn_0_elephant_35_n02504458_7841.png,n02504458_7841.png,1.0,8.606131,0.8046622,5.5164714
vit_b_16,1,689,NaN,elephant,elephant,0,0689_pow_dnn_0_elephant_35_n02504458_7777.png,n02504458_7777.png,1.0,7.627201,0.17061664,5.2726016
vit_b_16,1,690,NaN,clock,clock,0,0690_pow_dnn_0_clock_35_n02708093_8179.png,n02708093_8179.png,1.0,6.3015385,0.5323561,4.0794277
vit_b_16,1,691,NaN,oven,oven,pow,0691_pow_dnn_pow_oven_35_n04111531_12702.png,n04111531_12702.png,1.0,5.629992,1.3797538,3.0053725
vit_b_16,1,692,NaN,oven,oven,pow,0692_pow_dnn_pow_oven_35_n04111531_14441.png,n04111531_14441.png,1.0,9.235405,0.7754318,5.982105
vit_b_16,1,693,NaN,bicycle,bicycle,0,0693_pow_dnn_0_bicycle_35_n03792782_2435.png,n03792782_2435.png,1.0,6.3952136,0.9990337,3.8156757
vit_b_16,1,694,NaN,airplane,boat,pow,0694_pow_dnn_pow_boat_35_n04273569_23162.png,n04273569_23162.png,0.0,1.9014759,4.1152716,-1.56539
vit_b_16,1,695,NaN,cat,cat,0,0695_pow_dnn_0_cat_35_n02123159_5270.png,n02123159_5270.png,1.0,3.8680837,0.20033777,2.5934882
vit_b_16,1,696,NaN,elephant,elephant,0,0696_pow_dnn_0_elephant_35_n02504013_3410.png,n02504013_3410.png,1.0,7.953452,0.751293,5.0926957
vit_b_16,1,697,NaN,cat,cat,0,0697_pow_dnn_0_cat_35_n02123394_506.png,n02123394_506.png,1.0,1.9592801,0.6065943,0.9564933
vit_b_16,1,698,NaN,bottle,bottle,0,0698_pow_dnn_0_bottle_35_n04579145_2202.png,n04579145_2202.png,1.0,2.426347,0.3234025,1.4870064
vit_b_16,1,699,NaN,bicycle,bicycle,pow,0699_pow_dnn_pow_bicycle_35_n03792782_3357.png,n03792782_3357.png,1.0,6.957952,1.1494277,4.107247
vit_b_16,1,700,NaN,bicycle,bicycle,0,0700_pow_dnn_0_bicycle_35_n03792782_12751.png,n03792782_12751.png,1.0,7.9255915,0.38643286,5.3309903
vit_b_16,1,701,NaN,cat,cat,pow,0701_pow_dnn_pow_cat_35_n02125311_30246.png,n02125311_30246.png,1.0,1.508334,0.33009958,0.8331376
vit_b_16,1,702,NaN,keyboard,keyboard,0,0702_pow_dnn_0_keyboard_35_n04505470_2102.png,n04505470_2102.png,1.0,8.151343,0.5466285,5.3773456
vit_b_16,1,703,NaN,bicycle,bicycle,pow,0703_pow_dnn_pow_bicycle_35_n03792782_51296.png,n03792782_51296.png,1.0,8.089289,0.9900543,5.019917
vit_b_16,1,704,NaN,knife,keyboard,pow,0704_pow_dnn_pow_keyboard_35_n03085013_29452.png,n03085013_29452.png,0.0,1.1580075,4.4941535,-2.3590114
vit_b_16,1,705,NaN,oven,oven,pow,0705_pow_dnn_pow_oven_35_n04111531_5967.png,n04111531_5967.png,1.0,6.6185126,1.2339756,3.8074424
vit_b_16,1,706,NaN,bottle,bottle,0,0706_pow_dnn_0_bottle_35_n02823428_5850.png,n02823428_5850.png,1.0,2.7845938,0.89013237,1.3395865
vit_b_16,1,707,NaN,knife,knife,0,0707_pow_dnn_0_knife_35_n03041632_16020.png,n03041632_16020.png,1.0,4.7158523,0.9251099,2.6804597
vit_b_16,1,708,NaN,bottle,bottle,pow,0708_pow_dnn_pow_bottle_35_n02823428_774.png,n02823428_774.png,1.0,3.2102163,0.28638157,2.0674634
vit_b_16,1,709,NaN,bottle,bottle,pow,0709_pow_dnn_pow_bottle_35_n04557648_85.png,n04557648_85.png,1.0,4.114919,0.49041334,2.5629127
vit_b_16,1,710,NaN,clock,clock,0,0710_pow_dnn_0_clock_35_n02708093_7535.png,n02708093_7535.png,1.0,6.497151,0.3593379,4.3400893
vit_b_16,1,711,NaN,cat,dog,0,0711_pow_dnn_0_dog_35_n02109961_66260.png,n02109961_66260.png,0.0,-0.31619036,1.3619523,-1.1866261
vit_b_16,1,712,NaN,cat,cat,0,0712_pow_dnn_0_cat_35_n02123045_9947.png,n02123045_9947.png,1.0,4.0236363,0.65438145,2.382423
vit_b_16,1,713,NaN,oven,clock,0,0713_pow_dnn_0_clock_35_n03196217_1519.png,n03196217_1519.png,0.0,2.6554663,3.590405,-0.66110146
vit_b_16,1,714,NaN,keyboard,keyboard,0,0714_pow_dnn_0_keyboard_35_n03085013_23354.png,n03085013_23354.png,1.0,8.014562,1.2293531,4.7978673
vit_b_16,1,715,NaN,bicycle,bicycle,pow,0715_pow_dnn_pow_bicycle_35_n02835271_3767.png,n02835271_3767.png,1.0,5.568132,0.5800397,3.5271142
vit_b_16,1,716,NaN,clock,bottle,0,0716_pow_dnn_0_bottle_35_n03937543_2941.png,n03937543_2941.png,0.0,2.0444007,2.8277233,-0.55389273
vit_b_16,1,717,NaN,chair,chair,0,0717_pow_dnn_0_chair_35_n04099969_2113.png,n04099969_2113.png,1.0,2.027377,0.7223542,0.9227904
vit_b_16,1,718,NaN,clock,clock,0,0718_pow_dnn_0_clock_35_n03196217_4879.png,n03196217_4879.png,1.0,4.560966,0.3308842,2.9911199
vit_b_16,1,719,NaN,clock,clock,0,0719_pow_dnn_0_clock_35_n04548280_16378.png,n04548280_16378.png,1.0,6.2235923,0.2645982,4.213645
vit_b_16,1,720,NaN,boat,boat,pow,0720_pow_dnn_pow_boat_35_n03344393_6892.png,n03344393_6892.png,1.0,2.0577788,1.4178715,0.45248285
vit_b_16,1,721,NaN,knife,knife,0,0721_pow_dnn_0_knife_35_n03041632_45312.png,n03041632_45312.png,1.0,10.45312,0.49622107,7.0405912
vit_b_16,1,722,NaN,boat,boat,0,0722_pow_dnn_0_boat_35_n02951358_31965.png,n02951358_31965.png,1.0,2.6726108,1.8918133,0.5521072
vit_b_16,1,723,NaN,cat,cat,pow,0723_pow_dnn_pow_cat_35_n02123159_463.png,n02123159_463.png,1.0,2.9259205,2.1711812,0.5336813
vit_b_16,1,724,NaN,cat,truck,0,0724_pow_dnn_0_truck_35_n03417042_213.png,n03417042_213.png,0.0,3.241177,3.4151354,-0.1230071
vit_b_16,1,725,NaN,knife,knife,0,0725_pow_dnn_0_knife_35_n03041632_383.png,n03041632_383.png,1.0,9.943669,0.5839974,6.6182876
vit_b_16,1,726,NaN,boat,boat,0,0726_pow_dnn_0_boat_35_n03662601_4059.png,n03662601_4059.png,1.0,4.7849355,0.889213,2.7546918
vit_b_16,1,727,NaN,boat,dog,0,0727_pow_dnn_0_dog_35_n02088632_2321.png,n02088632_2321.png,0.0,-0.2881178,0.270041,-0.39467785
vit_b_16,1,728,NaN,car,car,pow,0728_pow_dnn_pow_car_35_n02814533_58196.png,n02814533_58196.png,1.0,7.2117715,1.6311662,3.946084
vit_b_16,1,729,NaN,bottle,bottle,0,0729_pow_dnn_0_bottle_35_n04591713_5129.png,n04591713_5129.png,1.0,2.5151622,0.4439203,1.4645892
vit_b_16,1,730,NaN,bicycle,bicycle,0,0730_pow_dnn_0_bicycle_35_n03792782_3333.png,n03792782_3333.png,1.0,7.406666,0.23983106,5.0677176
vit_b_16,1,731,NaN,elephant,elephant,0,0731_pow_dnn_0_elephant_35_n02504013_6973.png,n02504013_6973.png,1.0,7.8496313,0.86690724,4.937532
vit_b_16,1,732,NaN,airplane,airplane,0,0732_pow_dnn_0_airplane_35_n02690373_3493.png,n02690373_3493.png,1.0,9.135728,0.26514184,6.272452
vit_b_16,1,733,NaN,bear,bear,pow,0733_pow_dnn_pow_bear_35_n02134084_13588.png,n02134084_13588.png,1.0,3.7298346,0.6063347,2.208648
vit_b_16,1,734,NaN,knife,knife,pow,0734_pow_dnn_pow_knife_35_n03041632_29276.png,n03041632_29276.png,1.0,6.862096,1.7281066,3.6302788
vit_b_16,1,735,NaN,elephant,elephant,0,0735_pow_dnn_0_elephant_35_n02504013_2778.png,n02504013_2778.png,1.0,7.6243153,0.26491964,5.2038784
vit_b_16,1,736,NaN,elephant,keyboard,pow,0736_pow_dnn_pow_keyboard_35_n03085013_22966.png,n03085013_22966.png,0.0,-0.86937755,3.4174414,-3.0312388
vit_b_16,1,737,NaN,boat,boat,0,0737_pow_dnn_0_boat_35_n03662601_13754.png,n03662601_13754.png,1.0,2.478007,0.38884568,1.4772602
vit_b_16,1,738,NaN,boat,bird,0,0738_pow_dnn_0_bird_35_n02009229_8793.png,n02009229_8793.png,0.0,-0.3499308,0.28092688,-0.44608378
vit_b_16,1,739,NaN,oven,oven,pow,0739_pow_dnn_pow_oven_35_n04111531_7283.png,n04111531_7283.png,1.0,3.4769137,1.8029592,1.1836646
vit_b_16,1,740,NaN,bear,bear,pow,0740_pow_dnn_pow_bear_35_n02133161_505.png,n02133161_505.png,1.0,3.124903,0.38462174,1.9376714
vit_b_16,1,741,NaN,elephant,elephant,pow,0741_pow_dnn_pow_elephant_35_n02504458_5320.png,n02504458_5320.png,1.0,7.2640495,0.38718084,4.8626804
vit_b_16,1,742,NaN,knife,bird,pow,0742_pow_dnn_pow_bird_35_n01829413_943.png,n01829413_943.png,0.0,-0.14085919,0.4794087,-0.43859562
vit_b_16,1,743,NaN,knife,knife,pow,0743_pow_dnn_pow_knife_35_n03041632_4494.png,n03041632_4494.png,1.0,8.517539,0.33098876,5.7887654
vit_b_16,1,744,NaN,bird,bird,0,0744_pow_dnn_0_bird_35_n01819313_2722.png,n01819313_2722.png,1.0,0.3759321,0.19101563,0.1307557
vit_b_16,1,745,NaN,bottle,bottle,pow,0745_pow_dnn_pow_bottle_35_n04557648_1184.png,n04557648_1184.png,1.0,2.9799516,0.905486,1.4668689
vit_b_16,1,746,NaN,bottle,bottle,0,0746_pow_dnn_0_bottle_35_n03983396_16628.png,n03983396_16628.png,1.0,2.5567589,0.16815256,1.6889998
vit_b_16,1,747,NaN,car,car,pow,0747_pow_dnn_pow_car_35_n03100240_4065.png,n03100240_4065.png,1.0,6.881811,0.87771946,4.245534
vit_b_16,1,748,NaN,elephant,elephant,pow,0748_pow_dnn_pow_elephant_35_n02504013_6584.png,n02504013_6584.png,1.0,6.351755,0.33884853,4.251767
vit_b_16,1,749,NaN,knife,cat,pow,0749_pow_dnn_pow_cat_35_n02123597_111.png,n02123597_111.png,0.0,2.2486289,2.9047518,-0.46394897
vit_b_16,1,750,NaN,clock,clock,pow,0750_pow_dnn_pow_clock_35_n04548280_17907.png,n04548280_17907.png,1.0,4.5431085,1.479187,2.1665196
vit_b_16,1,751,NaN,airplane,airplane,pow,0751_pow_dnn_pow_airplane_35_n02690373_2147.png,n02690373_2147.png,1.0,8.360512,0.89735156,5.2772512
