subj,session,trial,rt,object_response,category,condition,imagename,filename,is_correct,targ_act,max_nontarg_act,decision_margin
alexnet_w1_mlp_simclrhn_probe0,1,1,NaN,clock,clock,0,0001_pow_dnn_0_clock_35_n03196217_10246.png,n03196217_10246.png,1.0,3.0737207,2.626459,0.31626186
alexnet_w1_mlp_simclrhn_probe0,1,2,NaN,cat,dog,pow,0002_pow_dnn_pow_dog_35_n02091467_7264.png,n02091467_7264.png,0.0,-2.0487359,-0.32797423,-1.2167623
alexnet_w1_mlp_simclrhn_probe0,1,3,NaN,oven,chair,pow,0003_pow_dnn_pow_chair_35_n02791124_713.png,n02791124_713.png,0.0,-6.906845,-2.155021,-3.3600473
alexnet_w1_mlp_simclrhn_probe0,1,4,NaN,car,car,0,0004_pow_dnn_0_car_35_n02814533_35174.png,n02814533_35174.png,1.0,2.1410162,0.96172607,0.8338841
alexnet_w1_mlp_simclrhn_probe0,1,5,NaN,oven,knife,pow,0005_pow_dnn_pow_knife_35_n03041632_46103.png,n03041632_46103.png,0.0,-5.570638,-2.1732616,-2.402308
alexnet_w1_mlp_simclrhn_probe0,1,6,NaN,bicycle,bicycle,0,0006_pow_dnn_0_bicycle_35_n03792782_11306.png,n03792782_11306.png,1.0,6.2737865,-6.912262,9.323944
alexnet_w1_mlp_simclrhn_probe0,1,7,NaN,bird,bird,0,0007_pow_dnn_0_bird_35_n02002556_3463.png,n02002556_3463.png,1.0,-0.12336213,-4.803243,3.3091757
alexnet_w1_mlp_simclrhn_probe0,1,8,NaN,oven,keyboard,pow,0008_pow_dnn_pow_keyboard_35_n03085013_22813.png,n03085013_22813.png,0.0,-11.20076,-1.1716771,-7.091633
alexnet_w1_mlp_simclrhn_probe0,1,9,NaN,bird,bird,0,0009_pow_dnn_0_bird_35_n02025239_2961.png,n02025239_2961.png,1.0,-1.8796072,-6.6762204,3.3917177
alexnet_w1_mlp_simclrhn_probe0,1,10,NaN,oven,boat,pow,0010_pow_dnn_pow_boat_35_n02951358_14504.png,n02951358_14504.png,0.0,-4.6653395,0.2760255,-3.4940727
alexnet_w1_mlp_simclrhn_probe0,1,11,NaN,oven,oven,0,0011_pow_dnn_0_oven_35_n04111531_19000.png,n04111531_19000.png,1.0,-0.8184705,-3.7655678,2.0839126
alexnet_w1_mlp_simclrhn_probe0,1,12,NaN,bird,bird,0,0012_pow_dnn_0_bird_35_n01614925_11281.png,n01614925_11281.png,1.0,-4.5694118,-5.008627,0.31057203
alexnet_w1_mlp_simclrhn_probe0,1,13,NaN,knife,knife,0,0013_pow_dnn_0_knife_35_n03041632_52040.png,n03041632_52040.png,1.0,-1.4771233,-2.8087711,0.94161725
alexnet_w1_mlp_simclrhn_probe0,1,14,NaN,oven,car,pow,0014_pow_dnn_pow_car_35_n03100240_14206.png,n03100240_14206.png,0.0,-5.774321,-4.2619615,-1.0693997
alexnet_w1_mlp_simclrhn_probe0,1,15,NaN,elephant,bird,0,0015_pow_dnn_0_bird_35_n01817953_689.png,n01817953_689.png,0.0,-6.1980534,-4.1195784,-1.4697038
alexnet_w1_mlp_simclrhn_probe0,1,16,NaN,oven,chair,pow,0016_pow_dnn_pow_chair_35_n04099969_7934.png,n04099969_7934.png,0.0,-4.515436,0.2507919,-3.3702323
alexnet_w1_mlp_simclrhn_probe0,1,17,NaN,knife,knife,0,0017_pow_dnn_0_knife_35_n03041632_30196.png,n03041632_30196.png,1.0,-3.8809452,-4.5325766,0.46077296
alexnet_w1_mlp_simclrhn_probe0,1,18,NaN,car,car,0,0018_pow_dnn_0_car_35_n02814533_18077.png,n02814533_18077.png,1.0,0.3524592,-4.6271515,3.5211163
alexnet_w1_mlp_simclrhn_probe0,1,19,NaN,cat,cat,0,0019_pow_dnn_0_cat_35_n02123159_6927.png,n02123159_6927.png,1.0,-0.056849014,-3.1854727,2.212271
alexnet_w1_mlp_simclrhn_probe0,1,20,NaN,bear,bird,pow,0020_pow_dnn_pow_bird_35_n01855672_8550.png,n01855672_8550.png,0.0,-3.5810642,-1.4949753,-1.4750876
alexnet_w1_mlp_simclrhn_probe0,1,21,NaN,truck,truck,0,0021_pow_dnn_0_truck_35_n03417042_17888.png,n03417042_17888.png,1.0,3.2313447,-0.5422976,2.668368
alexnet_w1_mlp_simclrhn_probe0,1,22,NaN,elephant,truck,pow,0022_pow_dnn_pow_truck_35_n04467665_45611.png,n04467665_45611.png,0.0,-11.499882,-2.814345,-6.1416025
alexnet_w1_mlp_simclrhn_probe0,1,23,NaN,elephant,dog,pow,0023_pow_dnn_pow_dog_35_n02093256_1772.png,n02093256_1772.png,0.0,-5.5490017,-2.1059303,-2.4346192
alexnet_w1_mlp_simclrhn_probe0,1,24,NaN,oven,boat,pow,0024_pow_dnn_pow_boat_35_n03344393_6260.png,n03344393_6260.png,0.0,-5.848709,-3.5200534,-1.6466082
alexnet_w1_mlp_simclrhn_probe0,1,25,NaN,oven,chair,0,0025_pow_dnn_0_chair_35_n04429376_24073.png,n04429376_24073.png,0.0,-8.967133,-6.5323863,-1.7216256
alexnet_w1_mlp_simclrhn_probe0,1,26,NaN,knife,knife,0,0026_pow_dnn_0_knife_35_n03041632_29355.png,n03041632_29355.png,1.0,-0.8669466,-5.248749,3.098402
alexnet_w1_mlp_simclrhn_probe0,1,27,NaN,clock,clock,0,0027_pow_dnn_0_clock_35_n03196217_5907.png,n03196217_5907.png,1.0,2.7442274,-0.85900474,2.54787
alexnet_w1_mlp_simclrhn_probe0,1,28,NaN,airplane,airplane,0,0028_pow_dnn_0_airplane_35_n02690373_7276.png,n02690373_7276.png,1.0,10.077923,-0.7622857,7.665185
alexnet_w1_mlp_simclrhn_probe0,1,29,NaN,bicycle,bicycle,pow,0029_pow_dnn_pow_bicycle_35_n03792782_15561.png,n03792782_15561.png,1.0,1.6506343,-4.36677,4.254947
alexnet_w1_mlp_simclrhn_probe0,1,30,NaN,cat,cat,0,0030_pow_dnn_0_cat_35_n02123045_3505.png,n02123045_3505.png,1.0,0.6681873,-6.262767,4.9009247
alexnet_w1_mlp_simclrhn_probe0,1,31,NaN,oven,knife,0,0031_pow_dnn_0_knife_35_n03041632_34769.png,n03041632_34769.png,0.0,-8.351315,-3.5335388,-3.406682
alexnet_w1_mlp_simclrhn_probe0,1,32,NaN,elephant,clock,pow,0032_pow_dnn_pow_clock_35_n03196217_5206.png,n03196217_5206.png,0.0,-10.433524,-2.4426498,-5.6504016
alexnet_w1_mlp_simclrhn_probe0,1,33,NaN,truck,truck,0,0033_pow_dnn_0_truck_35_n04467665_58815.png,n04467665_58815.png,1.0,1.174772,0.86560917,0.21861115
alexnet_w1_mlp_simclrhn_probe0,1,34,NaN,bird,bird,0,0034_pow_dnn_0_bird_35_n01616318_2186.png,n01616318_2186.png,1.0,-2.1819177,-7.0583925,3.4481885
alexnet_w1_mlp_simclrhn_probe0,1,35,NaN,elephant,bicycle,pow,0035_pow_dnn_pow_bicycle_35_n03792782_12885.png,n03792782_12885.png,0.0,-6.270877,-3.73573,-1.7926196
alexnet_w1_mlp_simclrhn_probe0,1,36,NaN,boat,airplane,pow,0036_pow_dnn_pow_airplane_35_n02690373_9264.png,n02690373_9264.png,0.0,-4.7282033,-2.4770064,-1.5918366
alexnet_w1_mlp_simclrhn_probe0,1,37,NaN,chair,chair,0,0037_pow_dnn_0_chair_35_n04099969_16079.png,n04099969_16079.png,1.0,-2.1936214,-2.9191942,0.5130575
alexnet_w1_mlp_simclrhn_probe0,1,38,NaN,bicycle,bicycle,0,0038_pow_dnn_0_bicycle_35_n02835271_3027.png,n02835271_3027.png,1.0,-1.5197582,-5.756535,2.9958537
alexnet_w1_mlp_simclrhn_probe0,1,39,NaN,airplane,airplane,0,0039_pow_dnn_0_airplane_35_n02690373_6614.png,n02690373_6614.png,1.0,10.168624,-2.5582836,8.999283
alexnet_w1_mlp_simclrhn_probe0,1,40,NaN,elephant,chair,pow,0040_pow_dnn_pow_chair_35_n03376595_9048.png,n03376595_9048.png,0.0,-9.402863,-4.2918644,-3.6140215
alexnet_w1_mlp_simclrhn_probe0,1,41,NaN,oven,oven,0,0041_pow_dnn_0_oven_35_n04111531_6094.png,n04111531_6094.png,1.0,-0.5348865,-1.5933981,0.74848074
alexnet_w1_mlp_simclrhn_probe0,1,42,NaN,clock,clock,pow,0042_pow_dnn_pow_clock_35_n02708093_687.png,n02708093_687.png,1.0,-3.5328362,-3.8807068,0.24598166
alexnet_w1_mlp_simclrhn_probe0,1,43,NaN,bicycle,bicycle,pow,0043_pow_dnn_pow_bicycle_35_n03792782_14931.png,n03792782_14931.png,1.0,0.027428508,-1.8622313,1.3361913
alexnet_w1_mlp_simclrhn_probe0,1,44,NaN,keyboard,bottle,0,0044_pow_dnn_0_bottle_35_n03937543_5567.png,n03937543_5567.png,0.0,-2.3003066,-1.1276553,-0.8291897
alexnet_w1_mlp_simclrhn_probe0,1,45,NaN,car,car,0,0045_pow_dnn_0_car_35_n03100240_3073.png,n03100240_3073.png,1.0,9.3251295,1.6332825,5.438957
alexnet_w1_mlp_simclrhn_probe0,1,46,NaN,knife,knife,0,0046_pow_dnn_0_knife_35_n03041632_18236.png,n03041632_18236.png,1.0,-3.8118963,-7.425219,2.555005
alexnet_w1_mlp_simclrhn_probe0,1,47,NaN,cat,knife,pow,0047_pow_dnn_pow_knife_35_n03041632_9302.png,n03041632_9302.png,0.0,-6.55504,-5.8338103,-0.50998634
alexnet_w1_mlp_simclrhn_probe0,1,48,NaN,bear,bear,0,0048_pow_dnn_0_bear_35_n02134418_2590.png,n02134418_2590.png,1.0,3.0083723,-0.4149095,2.420626
alexnet_w1_mlp_simclrhn_probe0,1,49,NaN,bottle,bottle,0,0049_pow_dnn_0_bottle_35_n03983396_24837.png,n03983396_24837.png,1.0,-5.0668173,-6.538383,1.0405542
alexnet_w1_mlp_simclrhn_probe0,1,50,NaN,elephant,knife,pow,0050_pow_dnn_pow_knife_35_n03041632_3617.png,n03041632_3617.png,0.0,-6.8410172,-4.3535213,-1.7589252
alexnet_w1_mlp_simclrhn_probe0,1,51,NaN,elephant,bicycle,pow,0051_pow_dnn_pow_bicycle_35_n03792782_6735.png,n03792782_6735.png,0.0,-3.6920414,-2.4522097,-0.8766934
alexnet_w1_mlp_simclrhn_probe0,1,52,NaN,car,car,0,0052_pow_dnn_0_car_35_n03100240_5387.png,n03100240_5387.png,1.0,8.104793,0.6744162,5.25407
alexnet_w1_mlp_simclrhn_probe0,1,53,NaN,clock,bottle,0,0053_pow_dnn_0_bottle_35_n03983396_4879.png,n03983396_4879.png,0.0,-4.5606093,-3.4892023,-0.75759923
alexnet_w1_mlp_simclrhn_probe0,1,54,NaN,car,car,0,0054_pow_dnn_0_car_35_n03100240_6103.png,n03100240_6103.png,1.0,10.030513,5.46242,3.2301295
alexnet_w1_mlp_simclrhn_probe0,1,55,NaN,bear,bird,pow,0055_pow_dnn_pow_bird_35_n01796340_9255.png,n01796340_9255.png,0.0,-6.0915523,-2.611042,-2.4610925
alexnet_w1_mlp_simclrhn_probe0,1,56,NaN,oven,cat,pow,0056_pow_dnn_pow_cat_35_n02123394_2448.png,n02123394_2448.png,0.0,-2.9192286,-1.6733465,-0.88097167
alexnet_w1_mlp_simclrhn_probe0,1,57,NaN,car,car,0,0057_pow_dnn_0_car_35_n04285008_13174.png,n04285008_13174.png,1.0,10.303229,4.8160987,3.8799872
alexnet_w1_mlp_simclrhn_probe0,1,58,NaN,elephant,chair,pow,0058_pow_dnn_pow_chair_35_n04429376_353.png,n04429376_353.png,0.0,-6.3645053,-0.9914984,-3.7992897
alexnet_w1_mlp_simclrhn_probe0,1,59,NaN,bear,boat,pow,0059_pow_dnn_pow_boat_35_n02951358_16261.png,n02951358_16261.png,0.0,-7.4749093,-2.5280886,-3.4979305
alexnet_w1_mlp_simclrhn_probe0,1,60,NaN,elephant,car,pow,0060_pow_dnn_pow_car_35_n04285008_15954.png,n04285008_15954.png,0.0,-5.168174,-2.7053266,-1.741496
alexnet_w1_mlp_simclrhn_probe0,1,61,NaN,elephant,truck,pow,0061_pow_dnn_pow_truck_35_n04467665_3411.png,n04467665_3411.png,0.0,-7.9391727,-5.8081417,-1.5068666
alexnet_w1_mlp_simclrhn_probe0,1,62,NaN,oven,oven,pow,0062_pow_dnn_pow_oven_35_n04111531_15743.png,n04111531_15743.png,1.0,1.5018415,-1.9101424,2.412637
alexnet_w1_mlp_simclrhn_probe0,1,63,NaN,cat,dog,0,0063_pow_dnn_0_dog_35_n02088238_8653.png,n02088238_8653.png,0.0,-6.2188697,-5.302215,-0.6481727
alexnet_w1_mlp_simclrhn_probe0,1,64,NaN,airplane,airplane,0,0064_pow_dnn_0_airplane_35_n02690373_4681.png,n02690373_4681.png,1.0,6.6839433,-0.4325934,5.032151
alexnet_w1_mlp_simclrhn_probe0,1,65,NaN,oven,bear,pow,0065_pow_dnn_pow_bear_35_n02134418_5684.png,n02134418_5684.png,0.0,-1.0086812,-0.569772,-0.31035566
alexnet_w1_mlp_simclrhn_probe0,1,66,NaN,bear,bear,pow,0066_pow_dnn_pow_bear_35_n02134418_5830.png,n02134418_5830.png,1.0,2.4015203,-0.4759171,2.0346556
alexnet_w1_mlp_simclrhn_probe0,1,67,NaN,boat,truck,0,0067_pow_dnn_0_truck_35_n04467665_45983.png,n04467665_45983.png,0.0,-4.1476154,-1.4755397,-1.8894429
alexnet_w1_mlp_simclrhn_probe0,1,68,NaN,dog,bird,0,0068_pow_dnn_0_bird_35_n01795545_14302.png,n01795545_14302.png,0.0,-5.1582336,-4.9005203,-0.18223085
alexnet_w1_mlp_simclrhn_probe0,1,69,NaN,oven,oven,pow,0069_pow_dnn_pow_oven_35_n04111531_19240.png,n04111531_19240.png,1.0,0.78326344,0.028785825,0.53349626
alexnet_w1_mlp_simclrhn_probe0,1,70,NaN,oven,knife,0,0070_pow_dnn_0_knife_35_n03041632_22241.png,n03041632_22241.png,0.0,-5.2645636,-4.3421173,-0.652268
alexnet_w1_mlp_simclrhn_probe0,1,71,NaN,bear,boat,pow,0071_pow_dnn_pow_boat_35_n03344393_815.png,n03344393_815.png,0.0,-3.6466374,-0.57745194,-2.1702418
alexnet_w1_mlp_simclrhn_probe0,1,72,NaN,airplane,boat,0,0072_pow_dnn_0_boat_35_n03662601_2120.png,n03662601_2120.png,0.0,-1.5178759,2.0826128,-2.54593
alexnet_w1_mlp_simclrhn_probe0,1,73,NaN,bear,knife,pow,0073_pow_dnn_pow_knife_35_n03041632_2438.png,n03041632_2438.png,0.0,-6.0715084,-3.7101102,-1.6697607
alexnet_w1_mlp_simclrhn_probe0,1,74,NaN,bear,bear,pow,0074_pow_dnn_pow_bear_35_n02134418_3073.png,n02134418_3073.png,1.0,1.2043874,-0.9788387,1.543774
alexnet_w1_mlp_simclrhn_probe0,1,75,NaN,elephant,bottle,pow,0075_pow_dnn_pow_bottle_35_n02823428_3328.png,n02823428_3328.png,0.0,-6.9992194,-1.4093357,-3.9526448
alexnet_w1_mlp_simclrhn_probe0,1,76,NaN,car,car,pow,0076_pow_dnn_pow_car_35_n04285008_13259.png,n04285008_13259.png,1.0,-4.06452,-4.791102,0.5137711
alexnet_w1_mlp_simclrhn_probe0,1,77,NaN,oven,oven,0,0077_pow_dnn_0_oven_35_n04111531_15852.png,n04111531_15852.png,1.0,1.364193,-4.288286,3.9969065
alexnet_w1_mlp_simclrhn_probe0,1,78,NaN,elephant,dog,pow,0078_pow_dnn_pow_dog_35_n02099601_447.png,n02099601_447.png,0.0,-4.595747,2.980433,-5.357168
alexnet_w1_mlp_simclrhn_probe0,1,79,NaN,oven,oven,pow,0079_pow_dnn_pow_oven_35_n04111531_18916.png,n04111531_18916.png,1.0,0.6186856,-1.2657454,1.332494
alexnet_w1_mlp_simclrhn_probe0,1,80,NaN,elephant,bottle,pow,0080_pow_dnn_pow_bottle_35_n04591713_1407.png,n04591713_1407.png,0.0,-4.614221,-1.1544888,-2.4464002
alexnet_w1_mlp_simclrhn_probe0,1,81,NaN,knife,oven,0,0081_pow_dnn_0_oven_35_n04111531_4585.png,n04111531_4585.png,0.0,1.4338378,1.5278416,-0.06647072
alexnet_w1_mlp_simclrhn_probe0,1,82,NaN,oven,keyboard,pow,0082_pow_dnn_pow_keyboard_35_n03085013_8364.png,n03085013_8364.png,0.0,-9.378886,-2.4479485,-4.9009132
alexnet_w1_mlp_simclrhn_probe0,1,83,NaN,bear,bear,pow,0083_pow_dnn_pow_bear_35_n02132136_15462.png,n02132136_15462.png,1.0,2.0219312,0.6077663,0.9999656
alexnet_w1_mlp_simclrhn_probe0,1,84,NaN,oven,bicycle,pow,0084_pow_dnn_pow_bicycle_35_n03792782_4167.png,n03792782_4167.png,0.0,-2.6670341,-1.7558458,-0.6443075
alexnet_w1_mlp_simclrhn_probe0,1,85,NaN,boat,boat,0,0085_pow_dnn_0_boat_35_n03662601_16106.png,n03662601_16106.png,1.0,2.3348284,2.2476537,0.06164179
alexnet_w1_mlp_simclrhn_probe0,1,86,NaN,oven,keyboard,pow,0086_pow_dnn_pow_keyboard_35_n03085013_2277.png,n03085013_2277.png,0.0,-7.0318584,-0.16589826,-4.854967
alexnet_w1_mlp_simclrhn_probe0,1,87,NaN,elephant,airplane,pow,0087_pow_dnn_pow_airplane_35_n02690373_8461.png,n02690373_8461.png,0.0,-5.1650305,-3.7131155,-1.026659
alexnet_w1_mlp_simclrhn_probe0,1,88,NaN,elephant,chair,pow,0088_pow_dnn_pow_chair_35_n03376595_3304.png,n03376595_3304.png,0.0,-6.3159165,-4.4942484,-1.288114
alexnet_w1_mlp_simclrhn_probe0,1,89,NaN,bicycle,bicycle,0,0089_pow_dnn_0_bicycle_35_n03792782_19116.png,n03792782_19116.png,1.0,-1.634202,-3.5422392,1.3491861
alexnet_w1_mlp_simclrhn_probe0,1,90,NaN,clock,clock,0,0090_pow_dnn_0_clock_35_n02708093_6734.png,n02708093_6734.png,1.0,-0.50487137,-1.5009413,0.7043278
alexnet_w1_mlp_simclrhn_probe0,1,91,NaN,clock,chair,0,0091_pow_dnn_0_chair_35_n04429376_6480.png,n04429376_6480.png,0.0,-3.268991,-2.5783815,-0.48833463
alexnet_w1_mlp_simclrhn_probe0,1,92,NaN,elephant,bicycle,pow,0092_pow_dnn_pow_bicycle_35_n02835271_21339.png,n02835271_21339.png,0.0,-3.315491,-1.8981733,-1.0021949
alexnet_w1_mlp_simclrhn_probe0,1,93,NaN,oven,keyboard,pow,0093_pow_dnn_pow_keyboard_35_n03085013_3859.png,n03085013_3859.png,0.0,-8.48505,-2.3939347,-4.3070693
alexnet_w1_mlp_simclrhn_probe0,1,94,NaN,oven,chair,pow,0094_pow_dnn_pow_chair_35_n03376595_360.png,n03376595_360.png,0.0,-7.7169065,-0.25307098,-5.277729
alexnet_w1_mlp_simclrhn_probe0,1,95,NaN,bear,elephant,pow,0095_pow_dnn_pow_elephant_35_n02504013_18988.png,n02504013_18988.png,0.0,-3.4574678,-1.2953128,-1.5288746
alexnet_w1_mlp_simclrhn_probe0,1,96,NaN,bottle,chair,0,0096_pow_dnn_0_chair_35_n04429376_54570.png,n04429376_54570.png,0.0,-6.9797554,-4.7519593,-1.5752897
alexnet_w1_mlp_simclrhn_probe0,1,97,NaN,oven,clock,pow,0097_pow_dnn_pow_clock_35_n04548280_5189.png,n04548280_5189.png,0.0,-7.3534417,-4.9345245,-1.7104328
alexnet_w1_mlp_simclrhn_probe0,1,98,NaN,oven,truck,pow,0098_pow_dnn_pow_truck_35_n04467665_6626.png,n04467665_6626.png,0.0,-7.852517,-2.0504785,-4.102661
alexnet_w1_mlp_simclrhn_probe0,1,99,NaN,boat,boat,0,0099_pow_dnn_0_boat_35_n03344393_3323.png,n03344393_3323.png,1.0,1.7815783,-3.9834042,4.076458
alexnet_w1_mlp_simclrhn_probe0,1,100,NaN,elephant,dog,pow,0100_pow_dnn_pow_dog_35_n02100583_3987.png,n02100583_3987.png,0.0,-3.1947343,-1.4214029,-1.2539347
alexnet_w1_mlp_simclrhn_probe0,1,101,NaN,elephant,elephant,pow,0101_pow_dnn_pow_elephant_35_n02504013_1702.png,n02504013_1702.png,1.0,2.1883435,-0.94360566,2.2146225
alexnet_w1_mlp_simclrhn_probe0,1,102,NaN,elephant,truck,pow,0102_pow_dnn_pow_truck_35_n03417042_1841.png,n03417042_1841.png,0.0,-7.4140587,-4.8712587,-1.7980311
alexnet_w1_mlp_simclrhn_probe0,1,103,NaN,truck,truck,0,0103_pow_dnn_0_truck_35_n03417042_2062.png,n03417042_2062.png,1.0,3.3590975,-0.09527644,2.4426112
alexnet_w1_mlp_simclrhn_probe0,1,104,NaN,oven,bottle,0,0104_pow_dnn_0_bottle_35_n03983396_4178.png,n03983396_4178.png,0.0,-4.7976327,-1.3917211,-2.408343
alexnet_w1_mlp_simclrhn_probe0,1,105,NaN,knife,keyboard,pow,0105_pow_dnn_pow_keyboard_35_n03085013_1698.png,n03085013_1698.png,0.0,-10.563292,-2.5062695,-5.697175
alexnet_w1_mlp_simclrhn_probe0,1,106,NaN,oven,car,pow,0106_pow_dnn_pow_car_35_n03100240_7056.png,n03100240_7056.png,0.0,-5.575533,-2.9232762,-1.8754288
alexnet_w1_mlp_simclrhn_probe0,1,107,NaN,bear,dog,pow,0107_pow_dnn_pow_dog_35_n02100735_3553.png,n02100735_3553.png,0.0,-3.7465723,-0.16232929,-2.5344427
alexnet_w1_mlp_simclrhn_probe0,1,108,NaN,oven,oven,pow,0108_pow_dnn_pow_oven_35_n04111531_11781.png,n04111531_11781.png,1.0,2.6552272,-2.2808437,3.4903293
alexnet_w1_mlp_simclrhn_probe0,1,109,NaN,cat,cat,0,0109_pow_dnn_0_cat_35_n02123159_4914.png,n02123159_4914.png,1.0,2.0372322,-1.7645482,2.6882646
alexnet_w1_mlp_simclrhn_probe0,1,110,NaN,bear,dog,0,0110_pow_dnn_0_dog_35_n02090622_1852.png,n02090622_1852.png,0.0,-1.5125436,-1.4342214,-0.05538214
alexnet_w1_mlp_simclrhn_probe0,1,111,NaN,car,car,pow,0111_pow_dnn_pow_car_35_n03100240_24471.png,n03100240_24471.png,1.0,-2.7846096,-4.2515364,1.0372739
alexnet_w1_mlp_simclrhn_probe0,1,112,NaN,elephant,boat,pow,0112_pow_dnn_pow_boat_35_n03344393_3519.png,n03344393_3519.png,0.0,-5.4517174,-2.1937106,-2.3037589
alexnet_w1_mlp_simclrhn_probe0,1,113,NaN,oven,keyboard,pow,0113_pow_dnn_pow_keyboard_35_n03085013_22713.png,n03085013_22713.png,0.0,-8.2224045,-2.5380888,-4.0194182
alexnet_w1_mlp_simclrhn_probe0,1,114,NaN,elephant,elephant,0,0114_pow_dnn_0_elephant_35_n02504013_6615.png,n02504013_6615.png,1.0,0.08309245,-1.1807873,0.893698
alexnet_w1_mlp_simclrhn_probe0,1,115,NaN,cat,cat,0,0115_pow_dnn_0_cat_35_n02123597_7081.png,n02123597_7081.png,1.0,-3.5326707,-3.856083,0.22868694
alexnet_w1_mlp_simclrhn_probe0,1,116,NaN,clock,clock,pow,0116_pow_dnn_pow_clock_35_n04548280_5406.png,n04548280_5406.png,1.0,-2.6585867,-3.94993,0.9131175
alexnet_w1_mlp_simclrhn_probe0,1,117,NaN,oven,bottle,0,0117_pow_dnn_0_bottle_35_n03983396_21920.png,n03983396_21920.png,0.0,-4.6415405,-0.19356239,-3.1451955
alexnet_w1_mlp_simclrhn_probe0,1,118,NaN,knife,knife,0,0118_pow_dnn_0_knife_35_n03041632_48675.png,n03041632_48675.png,1.0,0.34213227,-2.7986274,2.2208526
alexnet_w1_mlp_simclrhn_probe0,1,119,NaN,bird,cat,0,0119_pow_dnn_0_cat_35_n02125311_2103.png,n02125311_2103.png,0.0,-4.7131014,-2.1841114,-1.7882661
alexnet_w1_mlp_simclrhn_probe0,1,120,NaN,bear,bird,pow,0120_pow_dnn_pow_bird_35_n01798484_962.png,n01798484_962.png,0.0,-6.109528,-1.8657718,-3.000789
alexnet_w1_mlp_simclrhn_probe0,1,121,NaN,oven,oven,pow,0121_pow_dnn_pow_oven_35_n04111531_6393.png,n04111531_6393.png,1.0,0.45686227,-1.7127507,1.534148
alexnet_w1_mlp_simclrhn_probe0,1,122,NaN,oven,oven,0,0122_pow_dnn_0_oven_35_n04111531_4418.png,n04111531_4418.png,1.0,-2.707436,-5.635236,2.070267
alexnet_w1_mlp_simclrhn_probe0,1,123,NaN,oven,truck,pow,0123_pow_dnn_pow_truck_35_n03796401_296.png,n03796401_296.png,0.0,-7.698715,-2.389501,-3.7541814
alexnet_w1_mlp_simclrhn_probe0,1,124,NaN,bicycle,bicycle,0,0124_pow_dnn_0_bicycle_35_n02835271_10738.png,n02835271_10738.png,1.0,1.9323139,-7.268679,6.5060844
alexnet_w1_mlp_simclrhn_probe0,1,125,NaN,elephant,elephant,0,0125_pow_dnn_0_elephant_35_n02504013_4457.png,n02504013_4457.png,1.0,8.284335,-1.2098911,6.713432
alexnet_w1_mlp_simclrhn_probe0,1,126,NaN,airplane,knife,0,0126_pow_dnn_0_knife_35_n03041632_30573.png,n03041632_30573.png,0.0,-1.2340206,-0.24151012,-0.7018109
alexnet_w1_mlp_simclrhn_probe0,1,127,NaN,boat,boat,0,0127_pow_dnn_0_boat_35_n03662601_19840.png,n03662601_19840.png,1.0,0.23759536,-0.14045969,0.26732528
alexnet_w1_mlp_simclrhn_probe0,1,128,NaN,elephant,bear,0,0128_pow_dnn_0_bear_35_n02133161_12167.png,n02133161_12167.png,0.0,0.042073674,2.9895957,-2.0842128
alexnet_w1_mlp_simclrhn_probe0,1,129,NaN,keyboard,bottle,0,0129_pow_dnn_0_bottle_35_n02823428_3028.png,n02823428_3028.png,0.0,-3.199486,-3.0067952,-0.13625301
alexnet_w1_mlp_simclrhn_probe0,1,130,NaN,boat,boat,0,0130_pow_dnn_0_boat_35_n02951358_30149.png,n02951358_30149.png,1.0,-1.5477294,-1.62291,0.05316075
alexnet_w1_mlp_simclrhn_probe0,1,131,NaN,car,car,0,0131_pow_dnn_0_car_35_n02814533_75419.png,n02814533_75419.png,1.0,3.5623188,0.6917246,2.0298166
alexnet_w1_mlp_simclrhn_probe0,1,132,NaN,keyboard,keyboard,0,0132_pow_dnn_0_keyboard_35_n03085013_24449.png,n03085013_24449.png,1.0,1.2045212,-0.53808945,1.2322118
alexnet_w1_mlp_simclrhn_probe0,1,133,NaN,dog,dog,0,0133_pow_dnn_0_dog_35_n02086240_519.png,n02086240_519.png,1.0,-1.5992936,-2.4556828,0.6055586
alexnet_w1_mlp_simclrhn_probe0,1,134,NaN,bird,bird,pow,0134_pow_dnn_pow_bird_35_n01582220_2882.png,n01582220_2882.png,1.0,-3.864608,-5.6573877,1.2676867
alexnet_w1_mlp_simclrhn_probe0,1,135,NaN,oven,oven,0,0135_pow_dnn_0_oven_35_n04111531_13277.png,n04111531_13277.png,1.0,2.8484786,-1.646534,3.1784537
alexnet_w1_mlp_simclrhn_probe0,1,136,NaN,bear,bear,pow,0136_pow_dnn_pow_bear_35_n02134084_6901.png,n02134084_6901.png,1.0,-0.049305707,-0.7456654,0.49240062
alexnet_w1_mlp_simclrhn_probe0,1,137,NaN,elephant,bird,0,0137_pow_dnn_0_bird_35_n02002556_5447.png,n02002556_5447.png,0.0,-5.757695,-2.1133378,-2.5769498
alexnet_w1_mlp_simclrhn_probe0,1,138,NaN,keyboard,keyboard,0,0138_pow_dnn_0_keyboard_35_n03085013_20710.png,n03085013_20710.png,1.0,1.7633929,-2.52643,3.0333626
alexnet_w1_mlp_simclrhn_probe0,1,139,NaN,oven,oven,pow,0139_pow_dnn_pow_oven_35_n04111531_11405.png,n04111531_11405.png,1.0,2.3198934,-1.7269654,2.8615613
alexnet_w1_mlp_simclrhn_probe0,1,140,NaN,bear,bear,pow,0140_pow_dnn_pow_bear_35_n02132136_8457.png,n02132136_8457.png,1.0,0.0042468905,-1.1623027,0.8248752
alexnet_w1_mlp_simclrhn_probe0,1,141,NaN,elephant,bird,pow,0141_pow_dnn_pow_bird_35_n02009912_6788.png,n02009912_6788.png,0.0,-3.7934396,-2.7714946,-0.72262424
alexnet_w1_mlp_simclrhn_probe0,1,142,NaN,elephant,chair,pow,0142_pow_dnn_pow_chair_35_n04429376_9630.png,n04429376_9630.png,0.0,-6.205556,-0.7452513,-3.8610187
alexnet_w1_mlp_simclrhn_probe0,1,143,NaN,keyboard,keyboard,0,0143_pow_dnn_0_keyboard_35_n03085013_23658.png,n03085013_23658.png,1.0,1.843138,-3.7593307,3.9615436
alexnet_w1_mlp_simclrhn_probe0,1,144,NaN,cat,cat,pow,0144_pow_dnn_pow_cat_35_n02123045_13199.png,n02123045_13199.png,1.0,-1.3668131,-1.575093,0.14727618
alexnet_w1_mlp_simclrhn_probe0,1,145,NaN,bicycle,clock,pow,0145_pow_dnn_pow_clock_35_n04548280_6411.png,n04548280_6411.png,0.0,-5.955527,-5.7008295,-0.1800982
alexnet_w1_mlp_simclrhn_probe0,1,146,NaN,bird,bird,0,0146_pow_dnn_0_bird_35_n01820546_9729.png,n01820546_9729.png,1.0,-2.1360629,-2.503079,0.25951955
alexnet_w1_mlp_simclrhn_probe0,1,147,NaN,boat,boat,0,0147_pow_dnn_0_boat_35_n04273569_12651.png,n04273569_12651.png,1.0,1.070764,-2.0007162,2.1718645
alexnet_w1_mlp_simclrhn_probe0,1,148,NaN,elephant,elephant,pow,0148_pow_dnn_pow_elephant_35_n02504458_3143.png,n02504458_3143.png,1.0,0.8927428,-0.4849639,0.9741858
alexnet_w1_mlp_simclrhn_probe0,1,149,NaN,clock,clock,0,0149_pow_dnn_0_clock_35_n03196217_9786.png,n03196217_9786.png,1.0,4.2529826,0.12055957,2.9220643
alexnet_w1_mlp_simclrhn_probe0,1,150,NaN,airplane,chair,0,0150_pow_dnn_0_chair_35_n03376595_6652.png,n03376595_6652.png,0.0,-2.4932637,-1.6382203,-0.604607
alexnet_w1_mlp_simclrhn_probe0,1,151,NaN,oven,bottle,pow,0151_pow_dnn_pow_bottle_35_n03983396_2998.png,n03983396_2998.png,0.0,-2.8294861,0.027534068,-2.0202184
alexnet_w1_mlp_simclrhn_probe0,1,152,NaN,elephant,elephant,0,0152_pow_dnn_0_elephant_35_n02504458_5331.png,n02504458_5331.png,1.0,5.019592,-0.9166072,4.197527
alexnet_w1_mlp_simclrhn_probe0,1,153,NaN,car,car,0,0153_pow_dnn_0_car_35_n04285008_8052.png,n04285008_8052.png,1.0,8.394714,1.2856913,5.0268383
alexnet_w1_mlp_simclrhn_probe0,1,154,NaN,elephant,bottle,pow,0154_pow_dnn_pow_bottle_35_n04591713_3402.png,n04591713_3402.png,0.0,-5.2407026,-1.9130771,-2.3529866
alexnet_w1_mlp_simclrhn_probe0,1,155,NaN,elephant,bicycle,pow,0155_pow_dnn_pow_bicycle_35_n02835271_1701.png,n02835271_1701.png,0.0,-2.1387904,-1.0730172,-0.75361544
alexnet_w1_mlp_simclrhn_probe0,1,156,NaN,bicycle,bicycle,0,0156_pow_dnn_0_bicycle_35_n02835271_5196.png,n02835271_5196.png,1.0,8.727803,-5.668049,10.179405
alexnet_w1_mlp_simclrhn_probe0,1,157,NaN,bear,elephant,pow,0157_pow_dnn_pow_elephant_35_n02504458_5444.png,n02504458_5444.png,0.0,0.03599465,0.5235512,-0.34475458
alexnet_w1_mlp_simclrhn_probe0,1,158,NaN,oven,truck,0,0158_pow_dnn_0_truck_35_n03417042_3422.png,n03417042_3422.png,0.0,-5.6642265,-3.6864026,-1.3985327
alexnet_w1_mlp_simclrhn_probe0,1,159,NaN,elephant,dog,pow,0159_pow_dnn_pow_dog_35_n02088466_1537.png,n02088466_1537.png,0.0,-1.9564755,0.593391,-1.8030279
alexnet_w1_mlp_simclrhn_probe0,1,160,NaN,bear,dog,pow,0160_pow_dnn_pow_dog_35_n02088632_1732.png,n02088632_1732.png,0.0,-3.4563243,-1.7121017,-1.2333517
alexnet_w1_mlp_simclrhn_probe0,1,161,NaN,truck,truck,0,0161_pow_dnn_0_truck_35_n03796401_3326.png,n03796401_3326.png,1.0,-3.646391,-3.8706174,0.15855207
alexnet_w1_mlp_simclrhn_probe0,1,162,NaN,boat,boat,0,0162_pow_dnn_0_boat_35_n04273569_19796.png,n04273569_19796.png,1.0,1.3104037,-3.1262803,3.1372094
alexnet_w1_mlp_simclrhn_probe0,1,163,NaN,bottle,keyboard,pow,0163_pow_dnn_pow_keyboard_35_n04505470_5125.png,n04505470_5125.png,0.0,-2.2444425,0.18465653,-1.7176324
alexnet_w1_mlp_simclrhn_probe0,1,164,NaN,bear,cat,pow,0164_pow_dnn_pow_cat_35_n02123394_1817.png,n02123394_1817.png,0.0,-1.5389315,-0.2878517,-0.884647
alexnet_w1_mlp_simclrhn_probe0,1,165,NaN,cat,cat,pow,0165_pow_dnn_pow_cat_35_n02123159_7465.png,n02123159_7465.png,1.0,-2.0289094,-3.925396,1.3410186
alexnet_w1_mlp_simclrhn_probe0,1,166,NaN,elephant,cat,0,0166_pow_dnn_0_cat_35_n02125311_33516.png,n02125311_33516.png,0.0,-12.671669,-4.2021446,-5.988858
alexnet_w1_mlp_simclrhn_probe0,1,167,NaN,elephant,bicycle,pow,0167_pow_dnn_pow_bicycle_35_n03792782_30246.png,n03792782_30246.png,0.0,-3.2714584,-1.2210733,-1.4498411
alexnet_w1_mlp_simclrhn_probe0,1,168,NaN,airplane,truck,0,0168_pow_dnn_0_truck_35_n04467665_72639.png,n04467665_72639.png,0.0,-0.39495015,2.4085987,-1.9824084
alexnet_w1_mlp_simclrhn_probe0,1,169,NaN,bicycle,bicycle,0,0169_pow_dnn_0_bicycle_35_n03792782_10395.png,n03792782_10395.png,1.0,-3.32407,-8.361463,3.5619745
alexnet_w1_mlp_simclrhn_probe0,1,170,NaN,elephant,bicycle,pow,0170_pow_dnn_pow_bicycle_35_n02835271_840.png,n02835271_840.png,0.0,-3.5243068,-1.0131899,-1.7756279
alexnet_w1_mlp_simclrhn_probe0,1,171,NaN,elephant,knife,pow,0171_pow_dnn_pow_knife_35_n03041632_82197.png,n03041632_82197.png,0.0,-6.2255015,-4.252604,-1.3950492
alexnet_w1_mlp_simclrhn_probe0,1,172,NaN,oven,airplane,pow,0172_pow_dnn_pow_airplane_35_n02690373_8942.png,n02690373_8942.png,0.0,-6.3438344,-1.7967906,-3.2152455
alexnet_w1_mlp_simclrhn_probe0,1,173,NaN,keyboard,keyboard,0,0173_pow_dnn_0_keyboard_35_n03085013_21851.png,n03085013_21851.png,1.0,0.09251112,0.07699767,0.010969666
alexnet_w1_mlp_simclrhn_probe0,1,174,NaN,clock,clock,pow,0174_pow_dnn_pow_clock_35_n04548280_1106.png,n04548280_1106.png,1.0,-5.129506,-6.7070723,1.1155077
alexnet_w1_mlp_simclrhn_probe0,1,175,NaN,oven,truck,0,0175_pow_dnn_0_truck_35_n03796401_4181.png,n03796401_4181.png,0.0,-2.9357278,-2.448732,-0.34435815
alexnet_w1_mlp_simclrhn_probe0,1,176,NaN,elephant,knife,pow,0176_pow_dnn_pow_knife_35_n03041632_44019.png,n03041632_44019.png,0.0,-3.9591012,-3.0507784,-0.64228123
alexnet_w1_mlp_simclrhn_probe0,1,177,NaN,truck,truck,0,0177_pow_dnn_0_truck_35_n03417042_1348.png,n03417042_1348.png,1.0,-2.017838,-5.275828,2.3037467
alexnet_w1_mlp_simclrhn_probe0,1,178,NaN,chair,chair,0,0178_pow_dnn_0_chair_35_n04099969_10516.png,n04099969_10516.png,1.0,-0.70338637,-1.3012372,0.4227444
alexnet_w1_mlp_simclrhn_probe0,1,179,NaN,oven,chair,pow,0179_pow_dnn_pow_chair_35_n04099969_24041.png,n04099969_24041.png,0.0,-7.419346,-3.448492,-2.8078177
alexnet_w1_mlp_simclrhn_probe0,1,180,NaN,oven,truck,pow,0180_pow_dnn_pow_truck_35_n03796401_3618.png,n03796401_3618.png,0.0,-8.558115,-3.5696266,-3.5273938
alexnet_w1_mlp_simclrhn_probe0,1,181,NaN,elephant,elephant,0,0181_pow_dnn_0_elephant_35_n02504458_4414.png,n02504458_4414.png,1.0,6.1403904,-1.7292762,5.564695
alexnet_w1_mlp_simclrhn_probe0,1,182,NaN,oven,truck,pow,0182_pow_dnn_pow_truck_35_n03796401_3427.png,n03796401_3427.png,0.0,-5.690161,-4.9068236,-0.55390334
alexnet_w1_mlp_simclrhn_probe0,1,183,NaN,cat,cat,0,0183_pow_dnn_0_cat_35_n02123045_9907.png,n02123045_9907.png,1.0,-2.3358753,-3.8493366,1.0701787
alexnet_w1_mlp_simclrhn_probe0,1,184,NaN,oven,oven,0,0184_pow_dnn_0_oven_35_n04111531_2156.png,n04111531_2156.png,1.0,3.0222409,-4.6887894,5.452522
alexnet_w1_mlp_simclrhn_probe0,1,185,NaN,bear,bird,pow,0185_pow_dnn_pow_bird_35_n02002556_12696.png,n02002556_12696.png,0.0,-3.5891972,-0.18336312,-2.4082882
alexnet_w1_mlp_simclrhn_probe0,1,186,NaN,airplane,airplane,pow,0186_pow_dnn_pow_airplane_35_n02690373_8791.png,n02690373_8791.png,1.0,-4.175873,-4.9600935,0.55452776
alexnet_w1_mlp_simclrhn_probe0,1,187,NaN,elephant,knife,pow,0187_pow_dnn_pow_knife_35_n03041632_27963.png,n03041632_27963.png,0.0,-6.8955927,-4.992218,-1.3458892
alexnet_w1_mlp_simclrhn_probe0,1,188,NaN,chair,chair,0,0188_pow_dnn_0_chair_35_n03376595_7772.png,n03376595_7772.png,1.0,-4.117774,-4.322784,0.14496392
alexnet_w1_mlp_simclrhn_probe0,1,189,NaN,bear,boat,pow,0189_pow_dnn_pow_boat_35_n04273569_3460.png,n04273569_3460.png,0.0,-5.291751,-2.6724663,-1.852114
alexnet_w1_mlp_simclrhn_probe0,1,190,NaN,oven,oven,0,0190_pow_dnn_0_oven_35_n04111531_5694.png,n04111531_5694.png,1.0,4.503209,-4.55589,6.4057508
alexnet_w1_mlp_simclrhn_probe0,1,191,NaN,bear,bear,pow,0191_pow_dnn_pow_bear_35_n02134084_17218.png,n02134084_17218.png,1.0,1.3743705,0.3113114,0.7516963
alexnet_w1_mlp_simclrhn_probe0,1,192,NaN,oven,oven,pow,0192_pow_dnn_pow_oven_35_n04111531_2923.png,n04111531_2923.png,1.0,-1.0783591,-4.2924485,2.2727044
alexnet_w1_mlp_simclrhn_probe0,1,193,NaN,elephant,keyboard,pow,0193_pow_dnn_pow_keyboard_35_n03085013_22669.png,n03085013_22669.png,0.0,-11.450634,-3.609662,-5.5444045
alexnet_w1_mlp_simclrhn_probe0,1,194,NaN,elephant,bottle,pow,0194_pow_dnn_pow_bottle_35_n04557648_2282.png,n04557648_2282.png,0.0,-3.9626164,-2.3876982,-1.1136354
alexnet_w1_mlp_simclrhn_probe0,1,195,NaN,elephant,elephant,pow,0195_pow_dnn_pow_elephant_35_n02504013_6693.png,n02504013_6693.png,1.0,2.5938673,-1.4599241,2.8664634
alexnet_w1_mlp_simclrhn_probe0,1,196,NaN,boat,chair,0,0196_pow_dnn_0_chair_35_n04099969_39507.png,n04099969_39507.png,0.0,-4.6202326,-2.6912224,-1.3640162
alexnet_w1_mlp_simclrhn_probe0,1,197,NaN,oven,car,pow,0197_pow_dnn_pow_car_35_n02814533_61184.png,n02814533_61184.png,0.0,-8.4376,-0.09623638,-5.8982353
alexnet_w1_mlp_simclrhn_probe0,1,198,NaN,oven,keyboard,pow,0198_pow_dnn_pow_keyboard_35_n04505470_1358.png,n04505470_1358.png,0.0,-6.2019534,-0.78905404,-3.827498
alexnet_w1_mlp_simclrhn_probe0,1,199,NaN,oven,truck,pow,0199_pow_dnn_pow_truck_35_n04467665_8824.png,n04467665_8824.png,0.0,-6.3154716,-2.736271,-2.530877
alexnet_w1_mlp_simclrhn_probe0,1,200,NaN,keyboard,keyboard,0,0200_pow_dnn_0_keyboard_35_n04505470_8937.png,n04505470_8937.png,1.0,-2.710267,-3.5827577,0.6169441
alexnet_w1_mlp_simclrhn_probe0,1,201,NaN,bear,truck,pow,0201_pow_dnn_pow_truck_35_n03417042_7581.png,n03417042_7581.png,0.0,-8.413158,-3.7435064,-3.3019426
alexnet_w1_mlp_simclrhn_probe0,1,202,NaN,bicycle,bicycle,pow,0202_pow_dnn_pow_bicycle_35_n02835271_13234.png,n02835271_13234.png,1.0,-1.485396,-2.8024108,0.9312701
alexnet_w1_mlp_simclrhn_probe0,1,203,NaN,cat,cat,pow,0203_pow_dnn_pow_cat_35_n02124075_3383.png,n02124075_3383.png,1.0,1.5036176,-2.1447415,2.5797796
alexnet_w1_mlp_simclrhn_probe0,1,204,NaN,elephant,elephant,pow,0204_pow_dnn_pow_elephant_35_n02504013_474.png,n02504013_474.png,1.0,3.210339,1.6980593,1.0693433
alexnet_w1_mlp_simclrhn_probe0,1,205,NaN,elephant,chair,pow,0205_pow_dnn_pow_chair_35_n04429376_1838.png,n04429376_1838.png,0.0,-6.440459,-0.5704897,-4.150695
alexnet_w1_mlp_simclrhn_probe0,1,206,NaN,bear,boat,pow,0206_pow_dnn_pow_boat_35_n02951358_5064.png,n02951358_5064.png,0.0,-5.9084454,-0.7795931,-3.6266463
alexnet_w1_mlp_simclrhn_probe0,1,207,NaN,elephant,knife,pow,0207_pow_dnn_pow_knife_35_n03041632_31037.png,n03041632_31037.png,0.0,-5.037389,-1.064481,-2.8092701
alexnet_w1_mlp_simclrhn_probe0,1,208,NaN,cat,cat,pow,0208_pow_dnn_pow_cat_35_n02123045_11501.png,n02123045_11501.png,1.0,-3.2148807,-4.000425,0.5554636
alexnet_w1_mlp_simclrhn_probe0,1,209,NaN,elephant,keyboard,pow,0209_pow_dnn_pow_keyboard_35_n03085013_17937.png,n03085013_17937.png,0.0,-12.3607,-1.920013,-7.382681
alexnet_w1_mlp_simclrhn_probe0,1,210,NaN,chair,chair,0,0210_pow_dnn_0_chair_35_n03376595_10881.png,n03376595_10881.png,1.0,-3.531938,-4.308297,0.5489688
alexnet_w1_mlp_simclrhn_probe0,1,211,NaN,elephant,elephant,0,0211_pow_dnn_0_elephant_35_n02504458_7302.png,n02504458_7302.png,1.0,7.0002427,-1.0883467,5.7194967
alexnet_w1_mlp_simclrhn_probe0,1,212,NaN,elephant,airplane,pow,0212_pow_dnn_pow_airplane_35_n02690373_4704.png,n02690373_4704.png,0.0,-4.6216297,-2.0524936,-1.8166536
alexnet_w1_mlp_simclrhn_probe0,1,213,NaN,car,car,0,0213_pow_dnn_0_car_35_n03100240_18756.png,n03100240_18756.png,1.0,9.761605,2.3812325,5.218712
alexnet_w1_mlp_simclrhn_probe0,1,214,NaN,elephant,keyboard,pow,0214_pow_dnn_pow_keyboard_35_n03085013_20732.png,n03085013_20732.png,0.0,-9.821299,-1.7638766,-5.697458
alexnet_w1_mlp_simclrhn_probe0,1,215,NaN,bottle,bottle,pow,0215_pow_dnn_pow_bottle_35_n04579145_2999.png,n04579145_2999.png,1.0,-2.6531346,-2.8689084,0.15257514
alexnet_w1_mlp_simclrhn_probe0,1,216,NaN,clock,clock,pow,0216_pow_dnn_pow_clock_35_n02708093_2546.png,n02708093_2546.png,1.0,-4.3931904,-4.513301,0.08493096
alexnet_w1_mlp_simclrhn_probe0,1,217,NaN,boat,boat,0,0217_pow_dnn_0_boat_35_n03662601_13847.png,n03662601_13847.png,1.0,1.0026133,-1.6394087,1.8681918
alexnet_w1_mlp_simclrhn_probe0,1,218,NaN,bicycle,bicycle,0,0218_pow_dnn_0_bicycle_35_n03792782_7878.png,n03792782_7878.png,1.0,8.225286,-5.47914,9.690493
alexnet_w1_mlp_simclrhn_probe0,1,219,NaN,bear,knife,pow,0219_pow_dnn_pow_knife_35_n03041632_18959.png,n03041632_18959.png,0.0,-4.736216,-3.1222034,-1.1412793
alexnet_w1_mlp_simclrhn_probe0,1,220,NaN,bear,bear,0,0220_pow_dnn_0_bear_35_n02134418_10576.png,n02134418_10576.png,1.0,1.5481567,-0.41727328,1.389769
alexnet_w1_mlp_simclrhn_probe0,1,221,NaN,elephant,elephant,pow,0221_pow_dnn_pow_elephant_35_n02504013_213.png,n02504013_213.png,1.0,2.3191495,0.8040861,1.0713116
alexnet_w1_mlp_simclrhn_probe0,1,222,NaN,oven,bottle,pow,0222_pow_dnn_pow_bottle_35_n03983396_2944.png,n03983396_2944.png,0.0,-6.40914,-1.044913,-3.7930815
alexnet_w1_mlp_simclrhn_probe0,1,223,NaN,knife,truck,0,0223_pow_dnn_0_truck_35_n03796401_8964.png,n03796401_8964.png,0.0,-6.1431475,-1.275033,-3.4422767
alexnet_w1_mlp_simclrhn_probe0,1,224,NaN,elephant,knife,pow,0224_pow_dnn_pow_knife_35_n03041632_13509.png,n03041632_13509.png,0.0,-3.9077291,-3.5331182,-0.26488993
alexnet_w1_mlp_simclrhn_probe0,1,225,NaN,elephant,bird,pow,0225_pow_dnn_pow_bird_35_n01537544_7301.png,n01537544_7301.png,0.0,-7.544313,-1.0863686,-4.5664563
alexnet_w1_mlp_simclrhn_probe0,1,226,NaN,elephant,elephant,0,0226_pow_dnn_0_elephant_35_n02504013_9618.png,n02504013_9618.png,1.0,3.1019635,-2.491713,3.9553268
alexnet_w1_mlp_simclrhn_probe0,1,227,NaN,oven,keyboard,pow,0227_pow_dnn_pow_keyboard_35_n04505470_10191.png,n04505470_10191.png,0.0,-10.48312,-2.933588,-5.3383255
alexnet_w1_mlp_simclrhn_probe0,1,228,NaN,bicycle,bicycle,pow,0228_pow_dnn_pow_bicycle_35_n02835271_20149.png,n02835271_20149.png,1.0,-1.6770351,-3.3695765,1.1968075
alexnet_w1_mlp_simclrhn_probe0,1,229,NaN,truck,truck,0,0229_pow_dnn_0_truck_35_n04467665_2098.png,n04467665_2098.png,1.0,-1.6773653,-4.029722,1.6633675
alexnet_w1_mlp_simclrhn_probe0,1,230,NaN,bear,bear,0,0230_pow_dnn_0_bear_35_n02133161_5274.png,n02133161_5274.png,1.0,-1.1683564,-2.2325494,0.7524981
alexnet_w1_mlp_simclrhn_probe0,1,231,NaN,oven,bird,pow,0231_pow_dnn_pow_bird_35_n01537544_20224.png,n01537544_20224.png,0.0,-4.5046935,-0.23995912,-3.0156226
alexnet_w1_mlp_simclrhn_probe0,1,232,NaN,bear,dog,pow,0232_pow_dnn_pow_dog_35_n02094258_6800.png,n02094258_6800.png,0.0,-1.1259133,1.6751333,-1.9806391
alexnet_w1_mlp_simclrhn_probe0,1,233,NaN,truck,truck,0,0233_pow_dnn_0_truck_35_n03417042_27326.png,n03417042_27326.png,1.0,3.7122493,-1.7490575,3.861727
alexnet_w1_mlp_simclrhn_probe0,1,234,NaN,oven,oven,pow,0234_pow_dnn_pow_oven_35_n04111531_6955.png,n04111531_6955.png,1.0,-0.7636322,-3.5308998,1.9567538
alexnet_w1_mlp_simclrhn_probe0,1,235,NaN,clock,clock,0,0235_pow_dnn_0_clock_35_n04548280_7135.png,n04548280_7135.png,1.0,-2.2470226,-5.163601,2.0623324
alexnet_w1_mlp_simclrhn_probe0,1,236,NaN,oven,dog,pow,0236_pow_dnn_pow_dog_35_n02113023_12143.png,n02113023_12143.png,0.0,-4.520447,-1.6300457,-2.0438223
alexnet_w1_mlp_simclrhn_probe0,1,237,NaN,bicycle,bicycle,0,0237_pow_dnn_0_bicycle_35_n02835271_10832.png,n02835271_10832.png,1.0,0.3809307,-5.7282834,4.319867
alexnet_w1_mlp_simclrhn_probe0,1,238,NaN,oven,chair,pow,0238_pow_dnn_pow_chair_35_n02791124_28.png,n02791124_28.png,0.0,-6.3535047,-3.7426684,-1.84614
alexnet_w1_mlp_simclrhn_probe0,1,239,NaN,bicycle,bicycle,pow,0239_pow_dnn_pow_bicycle_35_n03792782_1715.png,n03792782_1715.png,1.0,-3.3091722,-4.4613924,0.81474274
alexnet_w1_mlp_simclrhn_probe0,1,240,NaN,bicycle,bicycle,0,0240_pow_dnn_0_bicycle_35_n02835271_19875.png,n02835271_19875.png,1.0,2.163868,-5.994179,5.7686105
alexnet_w1_mlp_simclrhn_probe0,1,241,NaN,bird,bird,0,0241_pow_dnn_0_bird_35_n02056570_8203.png,n02056570_8203.png,1.0,0.46162567,-6.1582603,4.6809664
alexnet_w1_mlp_simclrhn_probe0,1,242,NaN,elephant,car,pow,0242_pow_dnn_pow_car_35_n02814533_27588.png,n02814533_27588.png,0.0,-7.3682647,-3.6190445,-2.651099
alexnet_w1_mlp_simclrhn_probe0,1,243,NaN,bear,bear,0,0243_pow_dnn_0_bear_35_n02134418_2714.png,n02134418_2714.png,1.0,-7.0649424,-7.276995,0.14994399
alexnet_w1_mlp_simclrhn_probe0,1,244,NaN,bear,bear,0,0244_pow_dnn_0_bear_35_n02132136_900.png,n02132136_900.png,1.0,2.6930416,-1.2250575,2.7705142
alexnet_w1_mlp_simclrhn_probe0,1,245,NaN,dog,dog,0,0245_pow_dnn_0_dog_35_n02095889_7413.png,n02095889_7413.png,1.0,-3.1262314,-3.8108757,0.48411658
alexnet_w1_mlp_simclrhn_probe0,1,246,NaN,bicycle,boat,0,0246_pow_dnn_0_boat_35_n02951358_14877.png,n02951358_14877.png,0.0,-5.4525023,-3.2813978,-1.5352027
alexnet_w1_mlp_simclrhn_probe0,1,247,NaN,elephant,knife,pow,0247_pow_dnn_pow_knife_35_n03041632_42472.png,n03041632_42472.png,0.0,-2.1860085,-0.6246706,-1.1040326
alexnet_w1_mlp_simclrhn_probe0,1,248,NaN,bottle,bottle,pow,0248_pow_dnn_pow_bottle_35_n02823428_12740.png,n02823428_12740.png,1.0,-3.4919202,-7.43663,2.789331
alexnet_w1_mlp_simclrhn_probe0,1,249,NaN,car,boat,0,0249_pow_dnn_0_boat_35_n02951358_2537.png,n02951358_2537.png,0.0,-2.101144,-0.21605949,-1.3329562
alexnet_w1_mlp_simclrhn_probe0,1,250,NaN,dog,dog,0,0250_pow_dnn_0_dog_35_n02106166_5135.png,n02106166_5135.png,1.0,-5.633128,-5.6939135,0.042981695
alexnet_w1_mlp_simclrhn_probe0,1,251,NaN,oven,oven,pow,0251_pow_dnn_pow_oven_35_n04111531_23046.png,n04111531_23046.png,1.0,0.39496052,-3.6351008,2.8496838
alexnet_w1_mlp_simclrhn_probe0,1,252,NaN,bear,dog,pow,0252_pow_dnn_pow_dog_35_n02105855_3310.png,n02105855_3310.png,0.0,-3.8442562,-3.1809883,-0.4690012
alexnet_w1_mlp_simclrhn_probe0,1,253,NaN,bird,bird,0,0253_pow_dnn_0_bird_35_n01843383_2122.png,n01843383_2122.png,1.0,-5.1732388,-5.916318,0.52543634
alexnet_w1_mlp_simclrhn_probe0,1,254,NaN,elephant,boat,pow,0254_pow_dnn_pow_boat_35_n03344393_8407.png,n03344393_8407.png,0.0,-6.007534,-1.4037559,-3.2553625
alexnet_w1_mlp_simclrhn_probe0,1,255,NaN,elephant,clock,pow,0255_pow_dnn_pow_clock_35_n04548280_4739.png,n04548280_4739.png,0.0,-5.5982857,-2.856947,-1.9384192
alexnet_w1_mlp_simclrhn_probe0,1,256,NaN,keyboard,keyboard,0,0256_pow_dnn_0_keyboard_35_n04505470_3531.png,n04505470_3531.png,1.0,3.4695911,-2.5273051,4.240446
alexnet_w1_mlp_simclrhn_probe0,1,257,NaN,elephant,airplane,pow,0257_pow_dnn_pow_airplane_35_n02690373_7740.png,n02690373_7740.png,0.0,-4.9961348,-2.9188871,-1.468836
alexnet_w1_mlp_simclrhn_probe0,1,258,NaN,bear,bear,pow,0258_pow_dnn_pow_bear_35_n02132136_4699.png,n02132136_4699.png,1.0,4.8405995,0.24866354,3.2469893
alexnet_w1_mlp_simclrhn_probe0,1,259,NaN,airplane,airplane,pow,0259_pow_dnn_pow_airplane_35_n02690373_5277.png,n02690373_5277.png,1.0,-0.9068523,-2.9453824,1.4414585
alexnet_w1_mlp_simclrhn_probe0,1,260,NaN,bottle,clock,pow,0260_pow_dnn_pow_clock_35_n04548280_8841.png,n04548280_8841.png,0.0,-3.5270185,-2.910712,-0.43579453
alexnet_w1_mlp_simclrhn_probe0,1,261,NaN,oven,truck,pow,0261_pow_dnn_pow_truck_35_n03796401_142.png,n03796401_142.png,0.0,-8.273436,-0.32746428,-5.6186504
alexnet_w1_mlp_simclrhn_probe0,1,262,NaN,bear,bear,pow,0262_pow_dnn_pow_bear_35_n02134418_4666.png,n02134418_4666.png,1.0,-0.83825624,-1.9031563,0.75299805
alexnet_w1_mlp_simclrhn_probe0,1,263,NaN,chair,chair,0,0263_pow_dnn_0_chair_35_n04429376_17074.png,n04429376_17074.png,1.0,-7.695792,-8.6675825,0.68715954
alexnet_w1_mlp_simclrhn_probe0,1,264,NaN,dog,dog,0,0264_pow_dnn_0_dog_35_n02107683_1934.png,n02107683_1934.png,1.0,-2.8671331,-6.9845786,2.9114738
alexnet_w1_mlp_simclrhn_probe0,1,265,NaN,chair,bicycle,0,0265_pow_dnn_0_bicycle_35_n03792782_3765.png,n03792782_3765.png,0.0,-5.2537117,-4.9309826,-0.22820395
alexnet_w1_mlp_simclrhn_probe0,1,266,NaN,elephant,elephant,pow,0266_pow_dnn_pow_elephant_35_n02504013_7026.png,n02504013_7026.png,1.0,3.99725,0.5929748,2.4071863
alexnet_w1_mlp_simclrhn_probe0,1,267,NaN,elephant,clock,pow,0267_pow_dnn_pow_clock_35_n03196217_3063.png,n03196217_3063.png,0.0,-12.108478,-4.612565,-5.3004107
alexnet_w1_mlp_simclrhn_probe0,1,268,NaN,bear,bear,pow,0268_pow_dnn_pow_bear_35_n02134418_1041.png,n02134418_1041.png,1.0,0.67127794,0.5784004,0.06567436
alexnet_w1_mlp_simclrhn_probe0,1,269,NaN,boat,boat,pow,0269_pow_dnn_pow_boat_35_n03344393_8258.png,n03344393_8258.png,1.0,-4.8005805,-5.229952,0.3036114
alexnet_w1_mlp_simclrhn_probe0,1,270,NaN,oven,oven,0,0270_pow_dnn_0_oven_35_n04111531_10306.png,n04111531_10306.png,1.0,2.4052136,-3.2711804,4.013817
alexnet_w1_mlp_simclrhn_probe0,1,271,NaN,car,bottle,0,0271_pow_dnn_0_bottle_35_n02823428_641.png,n02823428_641.png,0.0,-3.7014318,-1.5918614,-1.4916916
alexnet_w1_mlp_simclrhn_probe0,1,272,NaN,oven,oven,pow,0272_pow_dnn_pow_oven_35_n04111531_1873.png,n04111531_1873.png,1.0,-1.3580738,-3.5521998,1.5514815
alexnet_w1_mlp_simclrhn_probe0,1,273,NaN,bear,bear,0,0273_pow_dnn_0_bear_35_n02134418_559.png,n02134418_559.png,1.0,-1.2393064,-3.2509456,1.4224436
alexnet_w1_mlp_simclrhn_probe0,1,274,NaN,oven,keyboard,pow,0274_pow_dnn_pow_keyboard_35_n04505470_4844.png,n04505470_4844.png,0.0,-4.1728134,-1.3755821,-1.9779412
alexnet_w1_mlp_simclrhn_probe0,1,275,NaN,keyboard,keyboard,0,0275_pow_dnn_0_keyboard_35_n03085013_23291.png,n03085013_23291.png,1.0,3.1064434,-1.1744477,3.0270472
alexnet_w1_mlp_simclrhn_probe0,1,276,NaN,car,car,0,0276_pow_dnn_0_car_35_n03100240_5808.png,n03100240_5808.png,1.0,7.459152,2.4383655,3.5502324
alexnet_w1_mlp_simclrhn_probe0,1,277,NaN,boat,bear,0,0277_pow_dnn_0_bear_35_n02134084_15968.png,n02134084_15968.png,0.0,-3.1317563,-1.9052814,-0.8672487
alexnet_w1_mlp_simclrhn_probe0,1,278,NaN,bear,cat,0,0278_pow_dnn_0_cat_35_n02125311_20238.png,n02125311_20238.png,0.0,-3.796397,-0.1806773,-2.5567
alexnet_w1_mlp_simclrhn_probe0,1,279,NaN,elephant,bird,0,0279_pow_dnn_0_bird_35_n02028035_8994.png,n02028035_8994.png,0.0,-2.154486,-1.4327264,-0.5103611
alexnet_w1_mlp_simclrhn_probe0,1,280,NaN,airplane,airplane,pow,0280_pow_dnn_pow_airplane_35_n02690373_4471.png,n02690373_4471.png,1.0,-4.299457,-4.36667,0.04752681
alexnet_w1_mlp_simclrhn_probe0,1,281,NaN,car,truck,0,0281_pow_dnn_0_truck_35_n03796401_322.png,n03796401_322.png,0.0,3.6136441,4.6426606,-0.72762454
alexnet_w1_mlp_simclrhn_probe0,1,282,NaN,oven,car,pow,0282_pow_dnn_pow_car_35_n04285008_402.png,n04285008_402.png,0.0,-9.0059595,-3.9737551,-3.558306
alexnet_w1_mlp_simclrhn_probe0,1,283,NaN,oven,oven,0,0283_pow_dnn_0_oven_35_n04111531_807.png,n04111531_807.png,1.0,1.2072469,-1.7749474,2.1087298
alexnet_w1_mlp_simclrhn_probe0,1,284,NaN,oven,oven,0,0284_pow_dnn_0_oven_35_n04111531_20369.png,n04111531_20369.png,1.0,1.667485,-8.426555,7.137564
alexnet_w1_mlp_simclrhn_probe0,1,285,NaN,elephant,knife,pow,0285_pow_dnn_pow_knife_35_n03041632_24114.png,n03041632_24114.png,0.0,-5.379248,-2.9891424,-1.69006
alexnet_w1_mlp_simclrhn_probe0,1,286,NaN,elephant,dog,0,0286_pow_dnn_0_dog_35_n02093256_1102.png,n02093256_1102.png,0.0,-5.806054,-4.985081,-0.5805155
alexnet_w1_mlp_simclrhn_probe0,1,287,NaN,bottle,bottle,0,0287_pow_dnn_0_bottle_35_n03983396_17636.png,n03983396_17636.png,1.0,3.4775429,-2.897779,4.5080333
alexnet_w1_mlp_simclrhn_probe0,1,288,NaN,elephant,bird,0,0288_pow_dnn_0_bird_35_n01855672_55167.png,n01855672_55167.png,0.0,-6.3642864,-5.94285,-0.29800048
alexnet_w1_mlp_simclrhn_probe0,1,289,NaN,bottle,bottle,0,0289_pow_dnn_0_bottle_35_n02823428_1149.png,n02823428_1149.png,1.0,-3.062908,-3.7894988,0.5137773
alexnet_w1_mlp_simclrhn_probe0,1,290,NaN,oven,truck,pow,0290_pow_dnn_pow_truck_35_n03417042_1182.png,n03417042_1182.png,0.0,-5.944113,-0.74266315,-3.6779802
alexnet_w1_mlp_simclrhn_probe0,1,291,NaN,bear,bear,0,0291_pow_dnn_0_bear_35_n02134084_22051.png,n02134084_22051.png,1.0,-0.28233075,-2.6042113,1.6418176
alexnet_w1_mlp_simclrhn_probe0,1,292,NaN,bear,cat,pow,0292_pow_dnn_pow_cat_35_n02123159_5170.png,n02123159_5170.png,0.0,-3.70215,-2.1086123,-1.1268014
alexnet_w1_mlp_simclrhn_probe0,1,293,NaN,airplane,airplane,pow,0293_pow_dnn_pow_airplane_35_n02690373_4042.png,n02690373_4042.png,1.0,-0.5961298,-3.3707187,1.9619308
alexnet_w1_mlp_simclrhn_probe0,1,294,NaN,airplane,airplane,pow,0294_pow_dnn_pow_airplane_35_n02690373_6231.png,n02690373_6231.png,1.0,-4.786473,-5.457561,0.47453102
alexnet_w1_mlp_simclrhn_probe0,1,295,NaN,bear,bear,0,0295_pow_dnn_0_bear_35_n02134418_4657.png,n02134418_4657.png,1.0,1.5881227,0.56019473,0.72685486
alexnet_w1_mlp_simclrhn_probe0,1,296,NaN,car,car,0,0296_pow_dnn_0_car_35_n03100240_24505.png,n03100240_24505.png,1.0,3.2402127,-1.4027706,3.283085
alexnet_w1_mlp_simclrhn_probe0,1,297,NaN,bird,bird,0,0297_pow_dnn_0_bird_35_n02006656_4031.png,n02006656_4031.png,1.0,-1.1306852,-1.9863987,0.60508084
alexnet_w1_mlp_simclrhn_probe0,1,298,NaN,truck,truck,0,0298_pow_dnn_0_truck_35_n03796401_20861.png,n03796401_20861.png,1.0,0.94607806,-1.2630409,1.5620829
alexnet_w1_mlp_simclrhn_probe0,1,299,NaN,oven,truck,0,0299_pow_dnn_0_truck_35_n03417042_4934.png,n03417042_4934.png,0.0,-2.1774766,2.5864596,-3.3686116
alexnet_w1_mlp_simclrhn_probe0,1,300,NaN,bicycle,bird,0,0300_pow_dnn_0_bird_35_n01824575_3046.png,n01824575_3046.png,0.0,-6.4858546,-4.129079,-1.6664921
alexnet_w1_mlp_simclrhn_probe0,1,301,NaN,elephant,elephant,pow,0301_pow_dnn_pow_elephant_35_n02504458_3463.png,n02504458_3463.png,1.0,-1.6121261,-3.792897,1.5420378
alexnet_w1_mlp_simclrhn_probe0,1,302,NaN,airplane,airplane,0,0302_pow_dnn_0_airplane_35_n02690373_6914.png,n02690373_6914.png,1.0,4.8643208,-0.93117315,4.0980334
alexnet_w1_mlp_simclrhn_probe0,1,303,NaN,truck,bottle,0,0303_pow_dnn_0_bottle_35_n03983396_3675.png,n03983396_3675.png,0.0,-4.303971,-3.7985463,-0.3573891
alexnet_w1_mlp_simclrhn_probe0,1,304,NaN,dog,dog,pow,0304_pow_dnn_pow_dog_35_n02088364_12272.png,n02088364_12272.png,1.0,-3.1393225,-3.2854776,0.10334728
alexnet_w1_mlp_simclrhn_probe0,1,305,NaN,dog,dog,0,0305_pow_dnn_0_dog_35_n02085936_1706.png,n02085936_1706.png,1.0,-3.2030282,-4.964765,1.2457361
alexnet_w1_mlp_simclrhn_probe0,1,306,NaN,elephant,bear,0,0306_pow_dnn_0_bear_35_n02134084_18372.png,n02134084_18372.png,0.0,-1.6315141,-1.2958767,-0.23733144
alexnet_w1_mlp_simclrhn_probe0,1,307,NaN,keyboard,keyboard,0,0307_pow_dnn_0_keyboard_35_n04505470_751.png,n04505470_751.png,1.0,2.5817494,0.35224056,1.5765009
alexnet_w1_mlp_simclrhn_probe0,1,308,NaN,elephant,bird,0,0308_pow_dnn_0_bird_35_n02018207_19525.png,n02018207_19525.png,0.0,-4.5072412,-3.2162323,-0.9128812
alexnet_w1_mlp_simclrhn_probe0,1,309,NaN,oven,bicycle,pow,0309_pow_dnn_pow_bicycle_35_n02835271_3329.png,n02835271_3329.png,0.0,-4.3797665,-2.7395813,-1.159786
alexnet_w1_mlp_simclrhn_probe0,1,310,NaN,cat,clock,pow,0310_pow_dnn_pow_clock_35_n04548280_1960.png,n04548280_1960.png,0.0,-8.480919,-4.3132763,-2.9469683
alexnet_w1_mlp_simclrhn_probe0,1,311,NaN,chair,chair,0,0311_pow_dnn_0_chair_35_n03376595_6240.png,n03376595_6240.png,1.0,0.10812688,-3.8665996,2.8105562
alexnet_w1_mlp_simclrhn_probe0,1,312,NaN,bear,knife,pow,0312_pow_dnn_pow_knife_35_n03041632_13194.png,n03041632_13194.png,0.0,-4.9891806,-1.3066413,-2.6039486
alexnet_w1_mlp_simclrhn_probe0,1,313,NaN,bicycle,knife,0,0313_pow_dnn_0_knife_35_n03041632_13465.png,n03041632_13465.png,0.0,-11.273554,-3.8134863,-5.2750645
alexnet_w1_mlp_simclrhn_probe0,1,314,NaN,cat,cat,pow,0314_pow_dnn_pow_cat_35_n02125311_10174.png,n02125311_10174.png,1.0,-1.8032547,-4.081493,1.6109577
alexnet_w1_mlp_simclrhn_probe0,1,315,NaN,oven,car,pow,0315_pow_dnn_pow_car_35_n02814533_7420.png,n02814533_7420.png,0.0,-5.529465,-1.3615336,-2.9471726
alexnet_w1_mlp_simclrhn_probe0,1,316,NaN,elephant,truck,pow,0316_pow_dnn_pow_truck_35_n04467665_3876.png,n04467665_3876.png,0.0,-6.166262,-2.0721989,-2.89494
alexnet_w1_mlp_simclrhn_probe0,1,317,NaN,airplane,airplane,0,0317_pow_dnn_0_airplane_35_n02690373_12976.png,n02690373_12976.png,1.0,6.7992043,-0.46162194,5.1341796
alexnet_w1_mlp_simclrhn_probe0,1,318,NaN,elephant,bear,pow,0318_pow_dnn_pow_bear_35_n02133161_10441.png,n02133161_10441.png,0.0,0.21114907,0.5952662,-0.27161184
alexnet_w1_mlp_simclrhn_probe0,1,319,NaN,cat,chair,pow,0319_pow_dnn_pow_chair_35_n03376595_13703.png,n03376595_13703.png,0.0,-6.8361115,-2.4465523,-3.103887
alexnet_w1_mlp_simclrhn_probe0,1,320,NaN,bicycle,bicycle,pow,0320_pow_dnn_pow_bicycle_35_n03792782_11625.png,n03792782_11625.png,1.0,-0.6240011,-3.4153206,1.9737611
alexnet_w1_mlp_simclrhn_probe0,1,321,NaN,oven,oven,pow,0321_pow_dnn_pow_oven_35_n04111531_22797.png,n04111531_22797.png,1.0,0.592361,-2.0230925,1.8494049
alexnet_w1_mlp_simclrhn_probe0,1,322,NaN,elephant,chair,pow,0322_pow_dnn_pow_chair_35_n03376595_9651.png,n03376595_9651.png,0.0,-8.268824,-2.794323,-3.8710566
alexnet_w1_mlp_simclrhn_probe0,1,323,NaN,bicycle,bicycle,pow,0323_pow_dnn_pow_bicycle_35_n03792782_4830.png,n03792782_4830.png,1.0,-1.490834,-3.106377,1.1423614
alexnet_w1_mlp_simclrhn_probe0,1,324,NaN,elephant,elephant,pow,0324_pow_dnn_pow_elephant_35_n02504013_7191.png,n02504013_7191.png,1.0,-2.062161,-3.55742,1.0573078
alexnet_w1_mlp_simclrhn_probe0,1,325,NaN,knife,knife,0,0325_pow_dnn_0_knife_35_n03041632_120.png,n03041632_120.png,1.0,0.8560355,-1.7600796,1.8498727
alexnet_w1_mlp_simclrhn_probe0,1,326,NaN,knife,airplane,pow,0326_pow_dnn_pow_airplane_35_n02690373_5465.png,n02690373_5465.png,0.0,-7.025531,-4.1757326,-2.0151117
alexnet_w1_mlp_simclrhn_probe0,1,327,NaN,elephant,car,pow,0327_pow_dnn_pow_car_35_n04285008_8443.png,n04285008_8443.png,0.0,-3.7137403,-3.5871983,-0.089478776
alexnet_w1_mlp_simclrhn_probe0,1,328,NaN,bottle,bottle,0,0328_pow_dnn_0_bottle_35_n04557648_132.png,n04557648_132.png,1.0,4.722326,-2.0053804,4.7572064
alexnet_w1_mlp_simclrhn_probe0,1,329,NaN,airplane,airplane,pow,0329_pow_dnn_pow_airplane_35_n02690373_18304.png,n02690373_18304.png,1.0,-2.3363328,-4.2082953,1.3236774
alexnet_w1_mlp_simclrhn_probe0,1,330,NaN,oven,knife,pow,0330_pow_dnn_pow_knife_35_n03041632_102764.png,n03041632_102764.png,0.0,-4.598522,-2.8808696,-1.2145638
alexnet_w1_mlp_simclrhn_probe0,1,331,NaN,oven,chair,pow,0331_pow_dnn_pow_chair_35_n02791124_16913.png,n02791124_16913.png,0.0,-4.5887065,-2.5493906,-1.4420141
alexnet_w1_mlp_simclrhn_probe0,1,332,NaN,elephant,bicycle,pow,0332_pow_dnn_pow_bicycle_35_n02835271_324.png,n02835271_324.png,0.0,-4.179004,-3.5899987,-0.41648978
alexnet_w1_mlp_simclrhn_probe0,1,333,NaN,airplane,airplane,pow,0333_pow_dnn_pow_airplane_35_n02690373_12966.png,n02690373_12966.png,1.0,-1.6012381,-3.9713807,1.6759439
alexnet_w1_mlp_simclrhn_probe0,1,334,NaN,knife,keyboard,pow,0334_pow_dnn_pow_keyboard_35_n03085013_24653.png,n03085013_24653.png,0.0,-11.278794,-4.563288,-4.74858
alexnet_w1_mlp_simclrhn_probe0,1,335,NaN,bicycle,bicycle,0,0335_pow_dnn_0_bicycle_35_n03792782_18529.png,n03792782_18529.png,1.0,-0.7530579,-7.6566343,4.8815656
alexnet_w1_mlp_simclrhn_probe0,1,336,NaN,airplane,airplane,pow,0336_pow_dnn_pow_airplane_35_n02690373_2433.png,n02690373_2433.png,1.0,-0.4265139,-3.211448,1.9692458
alexnet_w1_mlp_simclrhn_probe0,1,337,NaN,elephant,cat,0,0337_pow_dnn_0_cat_35_n02125311_28447.png,n02125311_28447.png,0.0,-7.740139,-3.9459782,-2.6828768
alexnet_w1_mlp_simclrhn_probe0,1,338,NaN,knife,knife,0,0338_pow_dnn_0_knife_35_n03041632_20504.png,n03041632_20504.png,1.0,-1.3031459,-1.5537333,0.17719209
alexnet_w1_mlp_simclrhn_probe0,1,339,NaN,bear,bear,pow,0339_pow_dnn_pow_bear_35_n02132136_15870.png,n02132136_15870.png,1.0,0.09272453,-1.6253998,1.2148974
alexnet_w1_mlp_simclrhn_probe0,1,340,NaN,car,car,0,0340_pow_dnn_0_car_35_n02814533_11273.png,n02814533_11273.png,1.0,3.9004393,1.9634962,1.3696256
alexnet_w1_mlp_simclrhn_probe0,1,341,NaN,elephant,elephant,0,0341_pow_dnn_0_elephant_35_n02504013_2476.png,n02504013_2476.png,1.0,6.475645,-4.637997,7.8585315
alexnet_w1_mlp_simclrhn_probe0,1,342,NaN,bear,bear,0,0342_pow_dnn_0_bear_35_n02133161_14945.png,n02133161_14945.png,1.0,-2.7763934,-3.0528476,0.19548266
alexnet_w1_mlp_simclrhn_probe0,1,343,NaN,car,car,0,0343_pow_dnn_0_car_35_n04285008_7870.png,n04285008_7870.png,1.0,-0.08856841,-0.33203962,0.17216015
alexnet_w1_mlp_simclrhn_probe0,1,344,NaN,airplane,airplane,0,0344_pow_dnn_0_airplane_35_n02690373_10129.png,n02690373_10129.png,1.0,6.8123546,-0.33878496,5.0566196
alexnet_w1_mlp_simclrhn_probe0,1,345,NaN,oven,truck,pow,0345_pow_dnn_pow_truck_35_n03417042_1479.png,n03417042_1479.png,0.0,-9.325817,-1.3214201,-5.6599636
alexnet_w1_mlp_simclrhn_probe0,1,346,NaN,bear,boat,pow,0346_pow_dnn_pow_boat_35_n04612504_10662.png,n04612504_10662.png,0.0,-5.953157,-2.5243325,-2.424545
alexnet_w1_mlp_simclrhn_probe0,1,347,NaN,knife,bird,0,0347_pow_dnn_0_bird_35_n02056570_5891.png,n02056570_5891.png,0.0,-5.984404,-4.1250625,-1.314753
alexnet_w1_mlp_simclrhn_probe0,1,348,NaN,elephant,elephant,pow,0348_pow_dnn_pow_elephant_35_n02504458_5982.png,n02504458_5982.png,1.0,1.6813593,-2.1641977,2.7192194
alexnet_w1_mlp_simclrhn_probe0,1,349,NaN,elephant,truck,pow,0349_pow_dnn_pow_truck_35_n03417042_19955.png,n03417042_19955.png,0.0,-5.040592,-3.0771132,-1.3883893
alexnet_w1_mlp_simclrhn_probe0,1,350,NaN,oven,oven,0,0350_pow_dnn_0_oven_35_n04111531_6120.png,n04111531_6120.png,1.0,1.6324272,-5.7570996,5.2251844
alexnet_w1_mlp_simclrhn_probe0,1,351,NaN,oven,oven,0,0351_pow_dnn_0_oven_35_n04111531_4750.png,n04111531_4750.png,1.0,-3.7054586,-5.872693,1.5324662
alexnet_w1_mlp_simclrhn_probe0,1,352,NaN,boat,boat,0,0352_pow_dnn_0_boat_35_n02951358_29779.png,n02951358_29779.png,1.0,-0.65050685,-1.8257985,0.8310567
alexnet_w1_mlp_simclrhn_probe0,1,353,NaN,bear,bear,0,0353_pow_dnn_0_bear_35_n02134084_14168.png,n02134084_14168.png,1.0,-1.2109184,-1.8786055,0.47212607
alexnet_w1_mlp_simclrhn_probe0,1,354,NaN,cat,cat,0,0354_pow_dnn_0_cat_35_n02123597_6990.png,n02123597_6990.png,1.0,-1.7248453,-3.3268194,1.1327668
alexnet_w1_mlp_simclrhn_probe0,1,355,NaN,chair,chair,0,0355_pow_dnn_0_chair_35_n02791124_2008.png,n02791124_2008.png,1.0,-0.8149434,-6.4550524,3.9881594
alexnet_w1_mlp_simclrhn_probe0,1,356,NaN,knife,car,pow,0356_pow_dnn_pow_car_35_n04285008_2185.png,n04285008_2185.png,0.0,-6.953507,-4.272023,-1.8960954
alexnet_w1_mlp_simclrhn_probe0,1,357,NaN,bear,bear,0,0357_pow_dnn_0_bear_35_n02134084_13205.png,n02134084_13205.png,1.0,-1.9981802,-3.263082,0.8944207
alexnet_w1_mlp_simclrhn_probe0,1,358,NaN,elephant,bird,pow,0358_pow_dnn_pow_bird_35_n01558993_6351.png,n01558993_6351.png,0.0,-6.775508,-1.105221,-4.0094986
alexnet_w1_mlp_simclrhn_probe0,1,359,NaN,bicycle,bicycle,0,0359_pow_dnn_0_bicycle_35_n02835271_8017.png,n02835271_8017.png,1.0,-2.6640131,-4.816863,1.5222948
alexnet_w1_mlp_simclrhn_probe0,1,360,NaN,cat,cat,0,0360_pow_dnn_0_cat_35_n02124075_4189.png,n02124075_4189.png,1.0,-0.60040444,-8.1555805,5.3423166
alexnet_w1_mlp_simclrhn_probe0,1,361,NaN,elephant,elephant,pow,0361_pow_dnn_pow_elephant_35_n02504458_3616.png,n02504458_3616.png,1.0,3.7654204,-0.9612504,3.342261
alexnet_w1_mlp_simclrhn_probe0,1,362,NaN,elephant,boat,pow,0362_pow_dnn_pow_boat_35_n04612504_8636.png,n04612504_8636.png,0.0,-3.6584098,0.50432336,-2.943497
alexnet_w1_mlp_simclrhn_probe0,1,363,NaN,oven,car,pow,0363_pow_dnn_pow_car_35_n03100240_10502.png,n03100240_10502.png,0.0,-5.2215877,-2.5002542,-1.9242734
alexnet_w1_mlp_simclrhn_probe0,1,364,NaN,bottle,bottle,0,0364_pow_dnn_0_bottle_35_n03983396_2271.png,n03983396_2271.png,1.0,-5.878612,-8.716551,2.0067258
alexnet_w1_mlp_simclrhn_probe0,1,365,NaN,clock,clock,0,0365_pow_dnn_0_clock_35_n04548280_280.png,n04548280_280.png,1.0,2.3343222,-0.23652129,1.8178608
alexnet_w1_mlp_simclrhn_probe0,1,366,NaN,airplane,truck,0,0366_pow_dnn_0_truck_35_n04467665_356.png,n04467665_356.png,0.0,0.18724103,2.5348153,-1.6599857
alexnet_w1_mlp_simclrhn_probe0,1,367,NaN,airplane,airplane,0,0367_pow_dnn_0_airplane_35_n02690373_306.png,n02690373_306.png,1.0,4.099355,-4.3601546,5.9817767
alexnet_w1_mlp_simclrhn_probe0,1,368,NaN,elephant,bird,pow,0368_pow_dnn_pow_bird_35_n02007558_11331.png,n02007558_11331.png,0.0,-6.375435,0.6533929,-4.970132
alexnet_w1_mlp_simclrhn_probe0,1,369,NaN,knife,dog,0,0369_pow_dnn_0_dog_35_n02105162_1003.png,n02105162_1003.png,0.0,-4.6521554,-2.986067,-1.1781024
alexnet_w1_mlp_simclrhn_probe0,1,370,NaN,oven,bird,pow,0370_pow_dnn_pow_bird_35_n01534433_11695.png,n01534433_11695.png,0.0,-6.0670733,-2.3234503,-2.6471412
alexnet_w1_mlp_simclrhn_probe0,1,371,NaN,oven,oven,0,0371_pow_dnn_0_oven_35_n04111531_19631.png,n04111531_19631.png,1.0,5.3197136,-1.5520254,4.859053
alexnet_w1_mlp_simclrhn_probe0,1,372,NaN,elephant,elephant,pow,0372_pow_dnn_pow_elephant_35_n02504013_8534.png,n02504013_8534.png,1.0,0.7697672,-1.7456067,1.778638
alexnet_w1_mlp_simclrhn_probe0,1,373,NaN,oven,oven,0,0373_pow_dnn_0_oven_35_n04111531_10436.png,n04111531_10436.png,1.0,3.6963298,3.1258335,0.40340182
alexnet_w1_mlp_simclrhn_probe0,1,374,NaN,bear,airplane,pow,0374_pow_dnn_pow_airplane_35_n02690373_1819.png,n02690373_1819.png,0.0,-3.1178932,-2.9042044,-0.15110084
alexnet_w1_mlp_simclrhn_probe0,1,375,NaN,knife,cat,0,0375_pow_dnn_0_cat_35_n02123597_14032.png,n02123597_14032.png,0.0,-5.5279746,-2.0949297,-2.4275293
alexnet_w1_mlp_simclrhn_probe0,1,376,NaN,elephant,elephant,0,0376_pow_dnn_0_elephant_35_n02504013_10922.png,n02504013_10922.png,1.0,-1.6979814,-5.420461,2.6321907
alexnet_w1_mlp_simclrhn_probe0,1,377,NaN,boat,boat,0,0377_pow_dnn_0_boat_35_n03662601_81.png,n03662601_81.png,1.0,1.0451006,-0.4167248,1.0336666
alexnet_w1_mlp_simclrhn_probe0,1,378,NaN,oven,bottle,pow,0378_pow_dnn_pow_bottle_35_n03937543_11347.png,n03937543_11347.png,0.0,-4.1775374,-3.7276714,-0.31810334
alexnet_w1_mlp_simclrhn_probe0,1,379,NaN,cat,knife,pow,0379_pow_dnn_pow_knife_35_n03041632_85416.png,n03041632_85416.png,0.0,-5.438196,-2.1247675,-2.342948
alexnet_w1_mlp_simclrhn_probe0,1,380,NaN,elephant,car,pow,0380_pow_dnn_pow_car_35_n03100240_15676.png,n03100240_15676.png,0.0,-2.568385,-1.7182837,-0.60111237
alexnet_w1_mlp_simclrhn_probe0,1,381,NaN,oven,oven,0,0381_pow_dnn_0_oven_35_n04111531_4189.png,n04111531_4189.png,1.0,3.8575563,-1.9371495,4.097476
alexnet_w1_mlp_simclrhn_probe0,1,382,NaN,oven,car,pow,0382_pow_dnn_pow_car_35_n02814533_65623.png,n02814533_65623.png,0.0,-7.3566017,-5.7814302,-1.1138145
alexnet_w1_mlp_simclrhn_probe0,1,383,NaN,airplane,airplane,0,0383_pow_dnn_0_airplane_35_n02690373_4945.png,n02690373_4945.png,1.0,11.798741,-5.1027446,11.951155
alexnet_w1_mlp_simclrhn_probe0,1,384,NaN,bicycle,dog,0,0384_pow_dnn_0_dog_35_n02088364_5801.png,n02088364_5801.png,0.0,-6.536645,-5.3767004,-0.8202047
alexnet_w1_mlp_simclrhn_probe0,1,385,NaN,bear,dog,pow,0385_pow_dnn_pow_dog_35_n02108915_8164.png,n02108915_8164.png,0.0,-4.0952682,-2.2623193,-1.2960906
alexnet_w1_mlp_simclrhn_probe0,1,386,NaN,car,car,0,0386_pow_dnn_0_car_35_n03100240_1435.png,n03100240_1435.png,1.0,6.12297,3.0940633,2.1417606
alexnet_w1_mlp_simclrhn_probe0,1,387,NaN,chair,clock,0,0387_pow_dnn_0_clock_35_n03196217_412.png,n03196217_412.png,0.0,-5.6076837,-4.6406746,-0.6837787
alexnet_w1_mlp_simclrhn_probe0,1,388,NaN,bicycle,boat,pow,0388_pow_dnn_pow_boat_35_n03344393_6713.png,n03344393_6713.png,0.0,-4.823967,-3.8799753,-0.66750294
alexnet_w1_mlp_simclrhn_probe0,1,389,NaN,knife,knife,0,0389_pow_dnn_0_knife_35_n03041632_4305.png,n03041632_4305.png,1.0,-4.097121,-5.454609,0.9598891
alexnet_w1_mlp_simclrhn_probe0,1,390,NaN,oven,car,pow,0390_pow_dnn_pow_car_35_n04285008_10287.png,n04285008_10287.png,0.0,-8.002683,-2.354304,-3.9940066
alexnet_w1_mlp_simclrhn_probe0,1,391,NaN,elephant,car,pow,0391_pow_dnn_pow_car_35_n04285008_15071.png,n04285008_15071.png,0.0,-7.346275,-1.6687944,-4.014585
alexnet_w1_mlp_simclrhn_probe0,1,392,NaN,knife,knife,pow,0392_pow_dnn_pow_knife_35_n03041632_22214.png,n03041632_22214.png,1.0,-4.153389,-6.633853,1.753953
alexnet_w1_mlp_simclrhn_probe0,1,393,NaN,elephant,boat,pow,0393_pow_dnn_pow_boat_35_n04612504_3064.png,n04612504_3064.png,0.0,-2.794993,-0.850908,-1.3746756
alexnet_w1_mlp_simclrhn_probe0,1,394,NaN,chair,chair,0,0394_pow_dnn_0_chair_35_n02791124_7193.png,n02791124_7193.png,1.0,-1.904208,-5.081053,2.2463686
alexnet_w1_mlp_simclrhn_probe0,1,395,NaN,boat,boat,0,0395_pow_dnn_0_boat_35_n03344393_5511.png,n03344393_5511.png,1.0,3.7190118,-1.7017184,3.833035
alexnet_w1_mlp_simclrhn_probe0,1,396,NaN,cat,boat,pow,0396_pow_dnn_pow_boat_35_n04273569_11997.png,n04273569_11997.png,0.0,-3.5187683,-2.0454276,-1.0418092
alexnet_w1_mlp_simclrhn_probe0,1,397,NaN,bicycle,bicycle,0,0397_pow_dnn_0_bicycle_35_n03792782_1424.png,n03792782_1424.png,1.0,-3.262866,-3.2702124,0.0051946836
alexnet_w1_mlp_simclrhn_probe0,1,398,NaN,oven,clock,pow,0398_pow_dnn_pow_clock_35_n03196217_3362.png,n03196217_3362.png,0.0,-11.0914345,-3.7113023,-5.2185416
alexnet_w1_mlp_simclrhn_probe0,1,399,NaN,elephant,truck,pow,0399_pow_dnn_pow_truck_35_n04467665_21942.png,n04467665_21942.png,0.0,-7.1342416,0.8302863,-5.631772
alexnet_w1_mlp_simclrhn_probe0,1,400,NaN,oven,oven,0,0400_pow_dnn_0_oven_35_n04111531_6445.png,n04111531_6445.png,1.0,2.79431,-2.7439463,3.916139
alexnet_w1_mlp_simclrhn_probe0,1,401,NaN,chair,chair,0,0401_pow_dnn_0_chair_35_n04099969_1163.png,n04099969_1163.png,1.0,2.3448908,-3.7923477,4.339683
alexnet_w1_mlp_simclrhn_probe0,1,402,NaN,clock,clock,pow,0402_pow_dnn_pow_clock_35_n02708093_3645.png,n02708093_3645.png,1.0,-4.3262043,-5.2042403,0.6208652
alexnet_w1_mlp_simclrhn_probe0,1,403,NaN,bicycle,bicycle,0,0403_pow_dnn_0_bicycle_35_n03792782_68319.png,n03792782_68319.png,1.0,3.518674,-6.2613926,6.9155517
alexnet_w1_mlp_simclrhn_probe0,1,404,NaN,elephant,dog,pow,0404_pow_dnn_pow_dog_35_n02111129_513.png,n02111129_513.png,0.0,-3.1326323,1.0224051,-2.9380553
alexnet_w1_mlp_simclrhn_probe0,1,405,NaN,airplane,airplane,pow,0405_pow_dnn_pow_airplane_35_n02690373_2676.png,n02690373_2676.png,1.0,-0.014466297,-4.3102226,3.0375586
alexnet_w1_mlp_simclrhn_probe0,1,406,NaN,airplane,airplane,0,0406_pow_dnn_0_airplane_35_n02690373_1206.png,n02690373_1206.png,1.0,-0.6253178,-0.9337472,0.2180925
alexnet_w1_mlp_simclrhn_probe0,1,407,NaN,dog,dog,0,0407_pow_dnn_0_dog_35_n02100735_1445.png,n02100735_1445.png,1.0,-0.4492787,-6.2277985,4.0860305
alexnet_w1_mlp_simclrhn_probe0,1,408,NaN,dog,dog,pow,0408_pow_dnn_pow_dog_35_n02102040_312.png,n02102040_312.png,1.0,-5.3657975,-5.5265656,0.11368017
alexnet_w1_mlp_simclrhn_probe0,1,409,NaN,keyboard,keyboard,0,0409_pow_dnn_0_keyboard_35_n03085013_22996.png,n03085013_22996.png,1.0,1.921101,-4.173943,4.309847
alexnet_w1_mlp_simclrhn_probe0,1,410,NaN,boat,boat,0,0410_pow_dnn_0_boat_35_n04612504_434.png,n04612504_434.png,1.0,2.8635876,-2.1224308,3.5256474
alexnet_w1_mlp_simclrhn_probe0,1,411,NaN,cat,cat,0,0411_pow_dnn_0_cat_35_n02123597_14639.png,n02123597_14639.png,1.0,0.7371343,-2.9614203,2.615273
alexnet_w1_mlp_simclrhn_probe0,1,412,NaN,cat,cat,pow,0412_pow_dnn_pow_cat_35_n02123159_2043.png,n02123159_2043.png,1.0,-0.5803135,-1.9416138,0.9625846
alexnet_w1_mlp_simclrhn_probe0,1,413,NaN,oven,clock,pow,0413_pow_dnn_pow_clock_35_n03196217_3647.png,n03196217_3647.png,0.0,-10.966575,-0.42849573,-7.4515476
alexnet_w1_mlp_simclrhn_probe0,1,414,NaN,oven,oven,0,0414_pow_dnn_0_oven_35_n04111531_19795.png,n04111531_19795.png,1.0,0.102095306,-6.6720276,4.790028
alexnet_w1_mlp_simclrhn_probe0,1,415,NaN,oven,truck,pow,0415_pow_dnn_pow_truck_35_n03417042_18625.png,n03417042_18625.png,0.0,-10.108784,-2.8817248,-5.1103024
alexnet_w1_mlp_simclrhn_probe0,1,416,NaN,elephant,elephant,pow,0416_pow_dnn_pow_elephant_35_n02504013_1763.png,n02504013_1763.png,1.0,0.872318,-0.82620996,1.2010407
alexnet_w1_mlp_simclrhn_probe0,1,417,NaN,chair,chair,0,0417_pow_dnn_0_chair_35_n04099969_13105.png,n04099969_13105.png,1.0,-0.54559636,-1.9980026,1.0270064
alexnet_w1_mlp_simclrhn_probe0,1,418,NaN,elephant,bicycle,pow,0418_pow_dnn_pow_bicycle_35_n03792782_4931.png,n03792782_4931.png,0.0,-3.821281,0.2411546,-2.8725758
alexnet_w1_mlp_simclrhn_probe0,1,419,NaN,bear,bear,0,0419_pow_dnn_0_bear_35_n02134418_4513.png,n02134418_4513.png,1.0,-1.9816887,-4.001138,1.4279665
alexnet_w1_mlp_simclrhn_probe0,1,420,NaN,cat,cat,pow,0420_pow_dnn_pow_cat_35_n02123045_11224.png,n02123045_11224.png,1.0,0.064891934,-2.8989677,2.095765
alexnet_w1_mlp_simclrhn_probe0,1,421,NaN,chair,chair,0,0421_pow_dnn_0_chair_35_n02791124_359.png,n02791124_359.png,1.0,-4.2400517,-4.465293,0.15926957
alexnet_w1_mlp_simclrhn_probe0,1,422,NaN,knife,clock,pow,0422_pow_dnn_pow_clock_35_n04548280_2654.png,n04548280_2654.png,0.0,-9.70161,-3.7007775,-4.243229
alexnet_w1_mlp_simclrhn_probe0,1,423,NaN,bear,cat,pow,0423_pow_dnn_pow_cat_35_n02123394_4713.png,n02123394_4713.png,0.0,-3.0152197,0.8996843,-2.7682552
alexnet_w1_mlp_simclrhn_probe0,1,424,NaN,elephant,bottle,pow,0424_pow_dnn_pow_bottle_35_n04557648_94.png,n04557648_94.png,0.0,-9.302901,-1.1493878,-5.765404
alexnet_w1_mlp_simclrhn_probe0,1,425,NaN,chair,chair,0,0425_pow_dnn_0_chair_35_n04099969_15676.png,n04099969_15676.png,1.0,1.35965,-2.4621816,2.7024431
alexnet_w1_mlp_simclrhn_probe0,1,426,NaN,oven,boat,pow,0426_pow_dnn_pow_boat_35_n02951358_537.png,n02951358_537.png,0.0,-4.2190666,-1.2750106,-2.081762
alexnet_w1_mlp_simclrhn_probe0,1,427,NaN,clock,clock,0,0427_pow_dnn_0_clock_35_n03196217_1376.png,n03196217_1376.png,1.0,2.285847,0.3866836,1.3429114
alexnet_w1_mlp_simclrhn_probe0,1,428,NaN,bear,chair,pow,0428_pow_dnn_pow_chair_35_n02791124_1594.png,n02791124_1594.png,0.0,-7.010632,-1.7242885,-3.7380095
alexnet_w1_mlp_simclrhn_probe0,1,429,NaN,bicycle,bird,0,0429_pow_dnn_0_bird_35_n02007558_7112.png,n02007558_7112.png,0.0,-7.590296,-6.15286,-1.0164205
alexnet_w1_mlp_simclrhn_probe0,1,430,NaN,bicycle,bicycle,0,0430_pow_dnn_0_bicycle_35_n02835271_6094.png,n02835271_6094.png,1.0,2.9520893,-6.6184063,6.7673626
alexnet_w1_mlp_simclrhn_probe0,1,431,NaN,elephant,airplane,pow,0431_pow_dnn_pow_airplane_35_n02690373_7676.png,n02690373_7676.png,0.0,-3.963914,-2.4342027,-1.0816692
alexnet_w1_mlp_simclrhn_probe0,1,432,NaN,cat,cat,pow,0432_pow_dnn_pow_cat_35_n02123045_3375.png,n02123045_3375.png,1.0,1.4089214,-1.7261729,2.2168465
alexnet_w1_mlp_simclrhn_probe0,1,433,NaN,bicycle,bicycle,0,0433_pow_dnn_0_bicycle_35_n02835271_15617.png,n02835271_15617.png,1.0,1.7011561,-7.4399867,6.463764
alexnet_w1_mlp_simclrhn_probe0,1,434,NaN,elephant,oven,pow,0434_pow_dnn_pow_oven_35_n04111531_4904.png,n04111531_4904.png,0.0,-3.8823273,-2.1099057,-1.2532914
alexnet_w1_mlp_simclrhn_probe0,1,435,NaN,boat,boat,0,0435_pow_dnn_0_boat_35_n02951358_5718.png,n02951358_5718.png,1.0,-0.7841574,-2.8672676,1.4729815
alexnet_w1_mlp_simclrhn_probe0,1,436,NaN,elephant,elephant,pow,0436_pow_dnn_pow_elephant_35_n02504013_7467.png,n02504013_7467.png,1.0,-0.46423987,-1.6189622,0.816512
alexnet_w1_mlp_simclrhn_probe0,1,437,NaN,elephant,elephant,pow,0437_pow_dnn_pow_elephant_35_n02504013_1830.png,n02504013_1830.png,1.0,7.805758,-0.14744744,5.6237655
alexnet_w1_mlp_simclrhn_probe0,1,438,NaN,car,car,0,0438_pow_dnn_0_car_35_n02814533_59762.png,n02814533_59762.png,1.0,-1.2778468,-2.6093583,0.9415208
alexnet_w1_mlp_simclrhn_probe0,1,439,NaN,elephant,bicycle,pow,0439_pow_dnn_pow_bicycle_35_n02835271_771.png,n02835271_771.png,0.0,-6.7300777,0.60843486,-5.189112
alexnet_w1_mlp_simclrhn_probe0,1,440,NaN,elephant,bicycle,pow,0440_pow_dnn_pow_bicycle_35_n02835271_4313.png,n02835271_4313.png,0.0,-5.074393,-3.3229132,-1.2384832
alexnet_w1_mlp_simclrhn_probe0,1,441,NaN,bear,bear,0,0441_pow_dnn_0_bear_35_n02132136_891.png,n02132136_891.png,1.0,4.795004,4.4451065,0.24741481
alexnet_w1_mlp_simclrhn_probe0,1,442,NaN,bear,bear,pow,0442_pow_dnn_pow_bear_35_n02132136_18276.png,n02132136_18276.png,1.0,1.4574409,0.009232864,1.0240377
alexnet_w1_mlp_simclrhn_probe0,1,443,NaN,elephant,elephant,pow,0443_pow_dnn_pow_elephant_35_n02504013_2865.png,n02504013_2865.png,1.0,3.275839,0.60262054,1.8902509
alexnet_w1_mlp_simclrhn_probe0,1,444,NaN,airplane,boat,0,0444_pow_dnn_0_boat_35_n03662601_10120.png,n03662601_10120.png,0.0,-0.4060347,0.26699567,-0.47590435
alexnet_w1_mlp_simclrhn_probe0,1,445,NaN,oven,bottle,pow,0445_pow_dnn_pow_bottle_35_n03983396_4241.png,n03983396_4241.png,0.0,-7.1782494,-4.946356,-1.5781871
alexnet_w1_mlp_simclrhn_probe0,1,446,NaN,elephant,elephant,pow,0446_pow_dnn_pow_elephant_35_n02504458_8254.png,n02504458_8254.png,1.0,0.9485344,-0.48982292,1.0170722
alexnet_w1_mlp_simclrhn_probe0,1,447,NaN,elephant,boat,pow,0447_pow_dnn_pow_boat_35_n04612504_857.png,n04612504_857.png,0.0,-6.8006716,-2.5746508,-2.988248
alexnet_w1_mlp_simclrhn_probe0,1,448,NaN,elephant,car,pow,0448_pow_dnn_pow_car_35_n04285008_6037.png,n04285008_6037.png,0.0,-7.590162,-3.0256732,-3.2275808
alexnet_w1_mlp_simclrhn_probe0,1,449,NaN,elephant,elephant,pow,0449_pow_dnn_pow_elephant_35_n02504458_2888.png,n02504458_2888.png,1.0,0.88018596,-2.1556375,2.1466513
alexnet_w1_mlp_simclrhn_probe0,1,450,NaN,elephant,elephant,0,0450_pow_dnn_0_elephant_35_n02504013_6257.png,n02504013_6257.png,1.0,-4.658022,-7.056719,1.6961349
alexnet_w1_mlp_simclrhn_probe0,1,451,NaN,car,car,0,0451_pow_dnn_0_car_35_n04285008_8616.png,n04285008_8616.png,1.0,12.595937,7.4856734,3.613502
alexnet_w1_mlp_simclrhn_probe0,1,452,NaN,elephant,bird,0,0452_pow_dnn_0_bird_35_n01537544_5372.png,n01537544_5372.png,0.0,-6.293134,-4.4534497,-1.3008534
alexnet_w1_mlp_simclrhn_probe0,1,453,NaN,airplane,airplane,pow,0453_pow_dnn_pow_airplane_35_n02690373_2498.png,n02690373_2498.png,1.0,-3.067432,-4.481956,1.0002196
alexnet_w1_mlp_simclrhn_probe0,1,454,NaN,dog,dog,0,0454_pow_dnn_0_dog_35_n02099601_2980.png,n02099601_2980.png,1.0,-4.806369,-5.896454,0.77080655
alexnet_w1_mlp_simclrhn_probe0,1,455,NaN,oven,keyboard,pow,0455_pow_dnn_pow_keyboard_35_n04505470_1904.png,n04505470_1904.png,0.0,-12.221859,-4.4175024,-5.5185137
alexnet_w1_mlp_simclrhn_probe0,1,456,NaN,airplane,airplane,0,0456_pow_dnn_0_airplane_35_n02690373_2967.png,n02690373_2967.png,1.0,2.7523103,-1.2595323,2.8368013
alexnet_w1_mlp_simclrhn_probe0,1,457,NaN,car,car,0,0457_pow_dnn_0_car_35_n04285008_7508.png,n04285008_7508.png,1.0,6.8320603,3.6530752,2.247882
alexnet_w1_mlp_simclrhn_probe0,1,458,NaN,airplane,bird,0,0458_pow_dnn_0_bird_35_n02051845_6652.png,n02051845_6652.png,0.0,-7.498456,-6.942282,-0.39327428
alexnet_w1_mlp_simclrhn_probe0,1,459,NaN,oven,truck,pow,0459_pow_dnn_pow_truck_35_n03796401_6737.png,n03796401_6737.png,0.0,-7.990713,-0.36254704,-5.393928
alexnet_w1_mlp_simclrhn_probe0,1,460,NaN,bottle,bottle,pow,0460_pow_dnn_pow_bottle_35_n03937543_2177.png,n03937543_2177.png,1.0,-4.5021505,-4.7530847,0.17743723
alexnet_w1_mlp_simclrhn_probe0,1,461,NaN,knife,keyboard,pow,0461_pow_dnn_pow_keyboard_35_n03085013_6432.png,n03085013_6432.png,0.0,-10.305881,-3.4895246,-4.8198915
alexnet_w1_mlp_simclrhn_probe0,1,462,NaN,bird,bird,0,0462_pow_dnn_0_bird_35_n01530575_10212.png,n01530575_10212.png,1.0,-1.9296188,-5.4642234,2.499343
alexnet_w1_mlp_simclrhn_probe0,1,463,NaN,oven,boat,pow,0463_pow_dnn_pow_boat_35_n04273569_31649.png,n04273569_31649.png,0.0,-5.2376914,-2.5040023,-1.9330101
alexnet_w1_mlp_simclrhn_probe0,1,464,NaN,keyboard,keyboard,0,0464_pow_dnn_0_keyboard_35_n04505470_2869.png,n04505470_2869.png,1.0,19.018944,3.4923565,10.978955
alexnet_w1_mlp_simclrhn_probe0,1,465,NaN,oven,oven,0,0465_pow_dnn_0_oven_35_n04111531_5110.png,n04111531_5110.png,1.0,-0.6466603,-5.96154,3.7581878
alexnet_w1_mlp_simclrhn_probe0,1,466,NaN,bottle,bottle,pow,0466_pow_dnn_pow_bottle_35_n04579145_4389.png,n04579145_4389.png,1.0,-2.1643677,-5.688751,2.4921155
alexnet_w1_mlp_simclrhn_probe0,1,467,NaN,clock,bottle,0,0467_pow_dnn_0_bottle_35_n04557648_9310.png,n04557648_9310.png,0.0,-1.0931143,-0.8985143,-0.13760297
alexnet_w1_mlp_simclrhn_probe0,1,468,NaN,bear,dog,pow,0468_pow_dnn_pow_dog_35_n02108000_6061.png,n02108000_6061.png,0.0,-3.2033312,-1.2621658,-1.3726113
alexnet_w1_mlp_simclrhn_probe0,1,469,NaN,elephant,knife,pow,0469_pow_dnn_pow_knife_35_n03041632_84240.png,n03041632_84240.png,0.0,-5.178871,-1.9744805,-2.2658463
alexnet_w1_mlp_simclrhn_probe0,1,470,NaN,bear,cat,pow,0470_pow_dnn_pow_cat_35_n02123394_3718.png,n02123394_3718.png,0.0,-3.866376,-2.9319763,-0.6607203
alexnet_w1_mlp_simclrhn_probe0,1,471,NaN,bear,dog,pow,0471_pow_dnn_pow_dog_35_n02098105_2157.png,n02098105_2157.png,0.0,-1.7890683,0.995801,-1.9691999
alexnet_w1_mlp_simclrhn_probe0,1,472,NaN,clock,clock,0,0472_pow_dnn_0_clock_35_n04548280_2601.png,n04548280_2601.png,1.0,0.427097,-6.5433087,4.928821
alexnet_w1_mlp_simclrhn_probe0,1,473,NaN,dog,cat,0,0473_pow_dnn_0_cat_35_n02123394_4286.png,n02123394_4286.png,0.0,-7.919851,-5.3461905,-1.8198527
alexnet_w1_mlp_simclrhn_probe0,1,474,NaN,bottle,bottle,0,0474_pow_dnn_0_bottle_35_n02823428_4569.png,n02823428_4569.png,1.0,2.1984875,-4.0437174,4.413905
alexnet_w1_mlp_simclrhn_probe0,1,475,NaN,elephant,bird,pow,0475_pow_dnn_pow_bird_35_n02017213_15747.png,n02017213_15747.png,0.0,-6.142189,-1.7357721,-3.1158073
alexnet_w1_mlp_simclrhn_probe0,1,476,NaN,elephant,bicycle,0,0476_pow_dnn_0_bicycle_35_n03792782_11390.png,n03792782_11390.png,0.0,-5.6616373,-1.779619,-2.7450016
alexnet_w1_mlp_simclrhn_probe0,1,477,NaN,car,car,0,0477_pow_dnn_0_car_35_n02814533_4374.png,n02814533_4374.png,1.0,8.491675,2.3421223,4.348391
alexnet_w1_mlp_simclrhn_probe0,1,478,NaN,keyboard,keyboard,0,0478_pow_dnn_0_keyboard_35_n04505470_5137.png,n04505470_5137.png,1.0,-1.3795038,-6.0089173,3.2734897
alexnet_w1_mlp_simclrhn_probe0,1,479,NaN,elephant,elephant,0,0479_pow_dnn_0_elephant_35_n02504013_306.png,n02504013_306.png,1.0,3.2370033,-3.225367,4.569586
alexnet_w1_mlp_simclrhn_probe0,1,480,NaN,bicycle,boat,0,0480_pow_dnn_0_boat_35_n02951358_14624.png,n02951358_14624.png,0.0,-3.9513416,-0.62811315,-2.3498774
alexnet_w1_mlp_simclrhn_probe0,1,481,NaN,bear,cat,pow,0481_pow_dnn_pow_cat_35_n02125311_28114.png,n02125311_28114.png,0.0,-2.7919605,-1.3179475,-1.0422846
alexnet_w1_mlp_simclrhn_probe0,1,482,NaN,car,car,pow,0482_pow_dnn_pow_car_35_n03100240_6259.png,n03100240_6259.png,1.0,-2.4820654,-4.1303062,1.1654823
alexnet_w1_mlp_simclrhn_probe0,1,483,NaN,elephant,cat,pow,0483_pow_dnn_pow_cat_35_n02125311_12361.png,n02125311_12361.png,0.0,-3.8583813,0.5510155,-3.1179144
alexnet_w1_mlp_simclrhn_probe0,1,484,NaN,bicycle,bird,0,0484_pow_dnn_0_bird_35_n01833805_16468.png,n01833805_16468.png,0.0,-4.3753285,-2.8822408,-1.0557725
alexnet_w1_mlp_simclrhn_probe0,1,485,NaN,bear,dog,pow,0485_pow_dnn_pow_dog_35_n02110063_6748.png,n02110063_6748.png,0.0,-2.6981328,-0.6794653,-1.4274135
alexnet_w1_mlp_simclrhn_probe0,1,486,NaN,oven,clock,pow,0486_pow_dnn_pow_clock_35_n04548280_2943.png,n04548280_2943.png,0.0,-9.843125,0.38387886,-7.231584
alexnet_w1_mlp_simclrhn_probe0,1,487,NaN,bear,chair,pow,0487_pow_dnn_pow_chair_35_n03376595_14619.png,n03376595_14619.png,0.0,-8.839495,-2.1247263,-4.7480583
alexnet_w1_mlp_simclrhn_probe0,1,488,NaN,car,car,0,0488_pow_dnn_0_car_35_n03100240_5719.png,n03100240_5719.png,1.0,5.437403,2.3340366,2.1944115
alexnet_w1_mlp_simclrhn_probe0,1,489,NaN,bicycle,dog,0,0489_pow_dnn_0_dog_35_n02093754_4677.png,n02093754_4677.png,0.0,-4.757661,-3.2796173,-1.0451347
alexnet_w1_mlp_simclrhn_probe0,1,490,NaN,boat,boat,pow,0490_pow_dnn_pow_boat_35_n04273569_113.png,n04273569_113.png,1.0,-1.9720509,-4.4426737,1.7469941
alexnet_w1_mlp_simclrhn_probe0,1,491,NaN,cat,clock,pow,0491_pow_dnn_pow_clock_35_n02708093_148.png,n02708093_148.png,0.0,-6.0631104,-3.510547,-1.804935
alexnet_w1_mlp_simclrhn_probe0,1,492,NaN,cat,cat,0,0492_pow_dnn_0_cat_35_n02125311_53223.png,n02125311_53223.png,1.0,1.0939412,-1.6585023,1.9462715
alexnet_w1_mlp_simclrhn_probe0,1,493,NaN,bottle,knife,0,0493_pow_dnn_0_knife_35_n03041632_7982.png,n03041632_7982.png,0.0,-4.024539,-3.714964,-0.21890265
alexnet_w1_mlp_simclrhn_probe0,1,494,NaN,elephant,elephant,0,0494_pow_dnn_0_elephant_35_n02504013_7273.png,n02504013_7273.png,1.0,-2.8744621,-8.490114,3.9708657
alexnet_w1_mlp_simclrhn_probe0,1,495,NaN,elephant,truck,pow,0495_pow_dnn_pow_truck_35_n03417042_26102.png,n03417042_26102.png,0.0,-5.223199,-0.5562408,-3.3000376
alexnet_w1_mlp_simclrhn_probe0,1,496,NaN,elephant,car,pow,0496_pow_dnn_pow_car_35_n02814533_874.png,n02814533_874.png,0.0,-6.3846765,-3.3806052,-2.1241992
alexnet_w1_mlp_simclrhn_probe0,1,497,NaN,bicycle,bicycle,0,0497_pow_dnn_0_bicycle_35_n03792782_21148.png,n03792782_21148.png,1.0,-0.13709426,-3.1708152,2.1451647
alexnet_w1_mlp_simclrhn_probe0,1,498,NaN,oven,oven,pow,0498_pow_dnn_pow_oven_35_n04111531_4146.png,n04111531_4146.png,1.0,0.09669238,-4.009553,2.9035542
alexnet_w1_mlp_simclrhn_probe0,1,499,NaN,bottle,keyboard,pow,0499_pow_dnn_pow_keyboard_35_n03085013_21183.png,n03085013_21183.png,0.0,-4.2994556,-0.73338825,-2.5215905
alexnet_w1_mlp_simclrhn_probe0,1,500,NaN,boat,boat,0,0500_pow_dnn_0_boat_35_n04612504_19147.png,n04612504_19147.png,1.0,-1.5172005,-3.912033,1.6934024
alexnet_w1_mlp_simclrhn_probe0,1,501,NaN,elephant,bear,0,0501_pow_dnn_0_bear_35_n02133161_2044.png,n02133161_2044.png,0.0,-1.8068161,0.0594272,-1.3196334
alexnet_w1_mlp_simclrhn_probe0,1,502,NaN,oven,bottle,pow,0502_pow_dnn_pow_bottle_35_n04579145_3894.png,n04579145_3894.png,0.0,-5.608829,-2.8160212,-1.9748133
alexnet_w1_mlp_simclrhn_probe0,1,503,NaN,bicycle,bicycle,0,0503_pow_dnn_0_bicycle_35_n03792782_13399.png,n03792782_13399.png,1.0,-1.724913,-8.173778,4.5600357
alexnet_w1_mlp_simclrhn_probe0,1,504,NaN,bear,knife,pow,0504_pow_dnn_pow_knife_35_n03041632_21818.png,n03041632_21818.png,0.0,-6.687537,-3.7626767,-2.0681887
alexnet_w1_mlp_simclrhn_probe0,1,505,NaN,chair,chair,0,0505_pow_dnn_0_chair_35_n03376595_7010.png,n03376595_7010.png,1.0,-4.525593,-5.5761437,0.74285173
alexnet_w1_mlp_simclrhn_probe0,1,506,NaN,oven,oven,0,0506_pow_dnn_0_oven_35_n04111531_4.png,n04111531_4.png,1.0,-2.000041,-2.6081576,0.4300034
alexnet_w1_mlp_simclrhn_probe0,1,507,NaN,bear,bird,pow,0507_pow_dnn_pow_bird_35_n01820546_6471.png,n01820546_6471.png,0.0,-5.8241553,-0.7446445,-3.5917566
alexnet_w1_mlp_simclrhn_probe0,1,508,NaN,bear,bear,pow,0508_pow_dnn_pow_bear_35_n02132136_10352.png,n02132136_10352.png,1.0,1.4107605,-0.96720403,1.6814748
alexnet_w1_mlp_simclrhn_probe0,1,509,NaN,elephant,clock,pow,0509_pow_dnn_pow_clock_35_n04548280_8348.png,n04548280_8348.png,0.0,-9.502294,-4.653798,-3.428404
alexnet_w1_mlp_simclrhn_probe0,1,510,NaN,elephant,elephant,0,0510_pow_dnn_0_elephant_35_n02504013_5087.png,n02504013_5087.png,1.0,5.2080445,-4.838505,7.103983
alexnet_w1_mlp_simclrhn_probe0,1,511,NaN,boat,airplane,pow,0511_pow_dnn_pow_airplane_35_n02690373_60.png,n02690373_60.png,0.0,-2.415169,-1.7778089,-0.45068166
alexnet_w1_mlp_simclrhn_probe0,1,512,NaN,oven,chair,pow,0512_pow_dnn_pow_chair_35_n02791124_16085.png,n02791124_16085.png,0.0,-6.694338,-3.380172,-2.3434691
alexnet_w1_mlp_simclrhn_probe0,1,513,NaN,bottle,bottle,0,0513_pow_dnn_0_bottle_35_n02823428_3611.png,n02823428_3611.png,1.0,-0.90189254,-4.6248946,2.63256
alexnet_w1_mlp_simclrhn_probe0,1,514,NaN,oven,bird,pow,0514_pow_dnn_pow_bird_35_n01614925_8653.png,n01614925_8653.png,0.0,-5.0712223,-1.7986802,-2.3140366
alexnet_w1_mlp_simclrhn_probe0,1,515,NaN,bear,bird,pow,0515_pow_dnn_pow_bird_35_n01537544_9881.png,n01537544_9881.png,0.0,-4.7844944,-4.1188297,-0.470696
alexnet_w1_mlp_simclrhn_probe0,1,516,NaN,knife,knife,0,0516_pow_dnn_0_knife_35_n03041632_35365.png,n03041632_35365.png,1.0,-0.23869795,-4.129279,2.7510564
alexnet_w1_mlp_simclrhn_probe0,1,517,NaN,bear,bear,0,0517_pow_dnn_0_bear_35_n02132136_23202.png,n02132136_23202.png,1.0,-1.5224018,-3.8089578,1.6168393
alexnet_w1_mlp_simclrhn_probe0,1,518,NaN,oven,oven,0,0518_pow_dnn_0_oven_35_n04111531_3976.png,n04111531_3976.png,1.0,1.5888174,-4.850257,4.5531135
alexnet_w1_mlp_simclrhn_probe0,1,519,NaN,oven,chair,pow,0519_pow_dnn_pow_chair_35_n04429376_32124.png,n04429376_32124.png,0.0,-6.3180423,-1.5574843,-3.366223
alexnet_w1_mlp_simclrhn_probe0,1,520,NaN,bear,bear,pow,0520_pow_dnn_pow_bear_35_n02134418_848.png,n02134418_848.png,1.0,1.210842,-0.8469029,1.4550455
alexnet_w1_mlp_simclrhn_probe0,1,521,NaN,boat,boat,0,0521_pow_dnn_0_boat_35_n03344393_7374.png,n03344393_7374.png,1.0,2.7091477,0.7166493,1.4089092
alexnet_w1_mlp_simclrhn_probe0,1,522,NaN,oven,bird,pow,0522_pow_dnn_pow_bird_35_n01532829_3914.png,n01532829_3914.png,0.0,-6.4130397,0.24281162,-4.7063975
alexnet_w1_mlp_simclrhn_probe0,1,523,NaN,keyboard,keyboard,0,0523_pow_dnn_0_keyboard_35_n04505470_5902.png,n04505470_5902.png,1.0,13.177555,3.6678138,6.7244024
alexnet_w1_mlp_simclrhn_probe0,1,524,NaN,oven,truck,pow,0524_pow_dnn_pow_truck_35_n03417042_11165.png,n03417042_11165.png,0.0,-7.7667303,-3.215107,-3.2184837
alexnet_w1_mlp_simclrhn_probe0,1,525,NaN,clock,clock,0,0525_pow_dnn_0_clock_35_n02708093_5.png,n02708093_5.png,1.0,-4.0515575,-4.1096506,0.041078005
alexnet_w1_mlp_simclrhn_probe0,1,526,NaN,elephant,elephant,pow,0526_pow_dnn_pow_elephant_35_n02504458_4187.png,n02504458_4187.png,1.0,-0.17921732,-1.574245,0.9864335
alexnet_w1_mlp_simclrhn_probe0,1,527,NaN,knife,knife,0,0527_pow_dnn_0_knife_35_n03041632_10802.png,n03041632_10802.png,1.0,3.9876328,-2.847618,4.8332524
alexnet_w1_mlp_simclrhn_probe0,1,528,NaN,car,car,0,0528_pow_dnn_0_car_35_n04285008_16647.png,n04285008_16647.png,1.0,4.6501317,-1.5681598,4.396996
alexnet_w1_mlp_simclrhn_probe0,1,529,NaN,bear,dog,0,0529_pow_dnn_0_dog_35_n02104365_3004.png,n02104365_3004.png,0.0,-1.8711449,-0.5058425,-0.9654145
alexnet_w1_mlp_simclrhn_probe0,1,530,NaN,bear,elephant,pow,0530_pow_dnn_pow_elephant_35_n02504013_21616.png,n02504013_21616.png,0.0,-0.095974445,0.25293168,-0.24671389
alexnet_w1_mlp_simclrhn_probe0,1,531,NaN,keyboard,keyboard,0,0531_pow_dnn_0_keyboard_35_n03085013_23465.png,n03085013_23465.png,1.0,-0.763029,-1.1870171,0.29980487
alexnet_w1_mlp_simclrhn_probe0,1,532,NaN,boat,airplane,pow,0532_pow_dnn_pow_airplane_35_n02690373_911.png,n02690373_911.png,0.0,-5.1547565,-2.5601513,-1.8346629
alexnet_w1_mlp_simclrhn_probe0,1,533,NaN,elephant,elephant,0,0533_pow_dnn_0_elephant_35_n02504013_1454.png,n02504013_1454.png,1.0,2.7373042,-5.910241,6.1147375
alexnet_w1_mlp_simclrhn_probe0,1,534,NaN,bicycle,bicycle,0,0534_pow_dnn_0_bicycle_35_n03792782_70690.png,n03792782_70690.png,1.0,-0.97695625,-7.4016137,4.5429187
alexnet_w1_mlp_simclrhn_probe0,1,535,NaN,truck,chair,0,0535_pow_dnn_0_chair_35_n04429376_31206.png,n04429376_31206.png,0.0,-2.9655573,-0.15479851,-1.9875066
alexnet_w1_mlp_simclrhn_probe0,1,536,NaN,airplane,clock,0,0536_pow_dnn_0_clock_35_n02708093_2498.png,n02708093_2498.png,0.0,-5.636177,-3.7124498,-1.3602806
alexnet_w1_mlp_simclrhn_probe0,1,537,NaN,keyboard,keyboard,0,0537_pow_dnn_0_keyboard_35_n04505470_1728.png,n04505470_1728.png,1.0,6.706501,-0.6308994,5.188326
alexnet_w1_mlp_simclrhn_probe0,1,538,NaN,oven,truck,pow,0538_pow_dnn_pow_truck_35_n03417042_6608.png,n03417042_6608.png,0.0,-6.02474,-3.8981903,-1.5036979
alexnet_w1_mlp_simclrhn_probe0,1,539,NaN,elephant,bird,0,0539_pow_dnn_0_bird_35_n02013706_1016.png,n02013706_1016.png,0.0,-7.6529827,-5.0778065,-1.8209246
alexnet_w1_mlp_simclrhn_probe0,1,540,NaN,clock,clock,0,0540_pow_dnn_0_clock_35_n04548280_5011.png,n04548280_5011.png,1.0,-2.0744953,-4.569676,1.7643591
alexnet_w1_mlp_simclrhn_probe0,1,541,NaN,bicycle,bicycle,0,0541_pow_dnn_0_bicycle_35_n02835271_19557.png,n02835271_19557.png,1.0,-0.16907656,-7.555819,5.223216
alexnet_w1_mlp_simclrhn_probe0,1,542,NaN,bear,bear,pow,0542_pow_dnn_pow_bear_35_n02134084_5827.png,n02134084_5827.png,1.0,1.8583282,-0.17457424,1.4374791
alexnet_w1_mlp_simclrhn_probe0,1,543,NaN,bear,dog,pow,0543_pow_dnn_pow_dog_35_n02096585_1894.png,n02096585_1894.png,0.0,-5.381462,-3.6393769,-1.2318403
alexnet_w1_mlp_simclrhn_probe0,1,544,NaN,bear,boat,pow,0544_pow_dnn_pow_boat_35_n02951358_34234.png,n02951358_34234.png,0.0,-2.5120807,-0.54426587,-1.3914552
alexnet_w1_mlp_simclrhn_probe0,1,545,NaN,cat,cat,pow,0545_pow_dnn_pow_cat_35_n02123597_5514.png,n02123597_5514.png,1.0,-0.7643593,-1.4657446,0.49595433
alexnet_w1_mlp_simclrhn_probe0,1,546,NaN,oven,oven,pow,0546_pow_dnn_pow_oven_35_n04111531_3580.png,n04111531_3580.png,1.0,1.2881327,-0.74421746,1.4370885
alexnet_w1_mlp_simclrhn_probe0,1,547,NaN,airplane,airplane,0,0547_pow_dnn_0_airplane_35_n02690373_7107.png,n02690373_7107.png,1.0,2.7706273,-1.7500527,3.1966035
alexnet_w1_mlp_simclrhn_probe0,1,548,NaN,oven,cat,0,0548_pow_dnn_0_cat_35_n02123159_5224.png,n02123159_5224.png,0.0,-3.7879162,-1.6926236,-1.4815956
alexnet_w1_mlp_simclrhn_probe0,1,549,NaN,elephant,bear,pow,0549_pow_dnn_pow_bear_35_n02133161_6679.png,n02133161_6679.png,0.0,1.8969067,2.941251,-0.7384629
alexnet_w1_mlp_simclrhn_probe0,1,550,NaN,dog,dog,0,0550_pow_dnn_0_dog_35_n02106030_22.png,n02106030_22.png,1.0,-1.4328433,-1.8063415,0.2641031
alexnet_w1_mlp_simclrhn_probe0,1,551,NaN,truck,truck,0,0551_pow_dnn_0_truck_35_n03417042_4574.png,n03417042_4574.png,1.0,6.2805133,5.4083447,0.6167163
alexnet_w1_mlp_simclrhn_probe0,1,552,NaN,oven,dog,pow,0552_pow_dnn_pow_dog_35_n02097298_7577.png,n02097298_7577.png,0.0,-5.3365083,-2.6648126,-1.8891742
alexnet_w1_mlp_simclrhn_probe0,1,553,NaN,elephant,dog,pow,0553_pow_dnn_pow_dog_35_n02093428_16873.png,n02093428_16873.png,0.0,-4.1032567,-2.573534,-1.0816773
alexnet_w1_mlp_simclrhn_probe0,1,554,NaN,bear,bear,0,0554_pow_dnn_0_bear_35_n02132136_4157.png,n02132136_4157.png,1.0,1.0504819,-0.33778375,0.981652
alexnet_w1_mlp_simclrhn_probe0,1,555,NaN,bottle,bottle,0,0555_pow_dnn_0_bottle_35_n02823428_2007.png,n02823428_2007.png,1.0,2.8117032,1.6882071,0.7944317
alexnet_w1_mlp_simclrhn_probe0,1,556,NaN,knife,keyboard,0,0556_pow_dnn_0_keyboard_35_n03085013_24272.png,n03085013_24272.png,0.0,-4.158291,-3.3565972,-0.566883
alexnet_w1_mlp_simclrhn_probe0,1,557,NaN,oven,oven,0,0557_pow_dnn_0_oven_35_n04111531_2074.png,n04111531_2074.png,1.0,-5.020265,-6.9060316,1.3334383
alexnet_w1_mlp_simclrhn_probe0,1,558,NaN,oven,bird,pow,0558_pow_dnn_pow_bird_35_n01532829_4536.png,n01532829_4536.png,0.0,-6.4589725,-2.2295449,-2.9906569
alexnet_w1_mlp_simclrhn_probe0,1,559,NaN,cat,dog,0,0559_pow_dnn_0_dog_35_n02109047_17100.png,n02109047_17100.png,0.0,-6.7359037,-5.387217,-0.9536655
alexnet_w1_mlp_simclrhn_probe0,1,560,NaN,oven,oven,pow,0560_pow_dnn_pow_oven_35_n04111531_4407.png,n04111531_4407.png,1.0,-0.21976906,-2.1204624,1.3439932
alexnet_w1_mlp_simclrhn_probe0,1,561,NaN,airplane,airplane,0,0561_pow_dnn_0_airplane_35_n02690373_8069.png,n02690373_8069.png,1.0,5.617297,-0.13603035,4.068217
alexnet_w1_mlp_simclrhn_probe0,1,562,NaN,clock,bottle,0,0562_pow_dnn_0_bottle_35_n04560804_8921.png,n04560804_8921.png,0.0,-1.1223794,-0.8642449,-0.18252869
alexnet_w1_mlp_simclrhn_probe0,1,563,NaN,bottle,bottle,pow,0563_pow_dnn_pow_bottle_35_n03937543_2936.png,n03937543_2936.png,1.0,2.4977992,-7.0671806,6.763462
alexnet_w1_mlp_simclrhn_probe0,1,564,NaN,cat,cat,0,0564_pow_dnn_0_cat_35_n02123045_8031.png,n02123045_8031.png,1.0,-4.550143,-6.305757,1.2414068
alexnet_w1_mlp_simclrhn_probe0,1,565,NaN,oven,oven,0,0565_pow_dnn_0_oven_35_n04111531_3805.png,n04111531_3805.png,1.0,2.4719114,-5.2463098,5.457607
alexnet_w1_mlp_simclrhn_probe0,1,566,NaN,truck,truck,0,0566_pow_dnn_0_truck_35_n03417042_27231.png,n03417042_27231.png,1.0,3.5344505,2.0837185,1.0258224
alexnet_w1_mlp_simclrhn_probe0,1,567,NaN,elephant,elephant,0,0567_pow_dnn_0_elephant_35_n02504013_7232.png,n02504013_7232.png,1.0,0.470161,0.07172561,0.28173637
alexnet_w1_mlp_simclrhn_probe0,1,568,NaN,oven,knife,0,0568_pow_dnn_0_knife_35_n03041632_5102.png,n03041632_5102.png,0.0,-6.472295,-4.586412,-1.3335205
alexnet_w1_mlp_simclrhn_probe0,1,569,NaN,cat,dog,pow,0569_pow_dnn_pow_dog_35_n02110958_8916.png,n02110958_8916.png,0.0,-3.0762422,-1.4423805,-1.1553147
alexnet_w1_mlp_simclrhn_probe0,1,570,NaN,bear,bottle,pow,0570_pow_dnn_pow_bottle_35_n04557648_9790.png,n04557648_9790.png,0.0,-4.3608356,-1.6453503,-1.920138
alexnet_w1_mlp_simclrhn_probe0,1,571,NaN,cat,cat,pow,0571_pow_dnn_pow_cat_35_n02123394_3786.png,n02123394_3786.png,1.0,2.7802937,-0.05169335,2.0025175
alexnet_w1_mlp_simclrhn_probe0,1,572,NaN,airplane,truck,0,0572_pow_dnn_0_truck_35_n04467665_19132.png,n04467665_19132.png,0.0,-0.4410948,0.7737795,-0.85904586
alexnet_w1_mlp_simclrhn_probe0,1,573,NaN,elephant,truck,pow,0573_pow_dnn_pow_truck_35_n03796401_2934.png,n03796401_2934.png,0.0,-6.3754807,-1.7920184,-3.2409973
alexnet_w1_mlp_simclrhn_probe0,1,574,NaN,bicycle,bicycle,0,0574_pow_dnn_0_bicycle_35_n02835271_12799.png,n02835271_12799.png,1.0,4.8223696,-5.186853,7.077589
alexnet_w1_mlp_simclrhn_probe0,1,575,NaN,car,car,0,0575_pow_dnn_0_car_35_n02814533_1297.png,n02814533_1297.png,1.0,-1.9999789,-5.0651464,2.1674006
alexnet_w1_mlp_simclrhn_probe0,1,576,NaN,bear,bear,pow,0576_pow_dnn_pow_bear_35_n02134418_1974.png,n02134418_1974.png,1.0,0.76564556,-1.1519413,1.3559387
alexnet_w1_mlp_simclrhn_probe0,1,577,NaN,cat,cat,0,0577_pow_dnn_0_cat_35_n02124075_2843.png,n02124075_2843.png,1.0,-0.8365031,-5.2917595,3.1503422
alexnet_w1_mlp_simclrhn_probe0,1,578,NaN,cat,cat,0,0578_pow_dnn_0_cat_35_n02123597_5697.png,n02123597_5697.png,1.0,-5.4668727,-6.0287156,0.39728296
alexnet_w1_mlp_simclrhn_probe0,1,579,NaN,oven,bicycle,pow,0579_pow_dnn_pow_bicycle_35_n02835271_2315.png,n02835271_2315.png,0.0,-4.9714074,-0.87629974,-2.8956783
alexnet_w1_mlp_simclrhn_probe0,1,580,NaN,keyboard,keyboard,0,0580_pow_dnn_0_keyboard_35_n04505470_4515.png,n04505470_4515.png,1.0,13.370707,2.9763832,7.3498964
alexnet_w1_mlp_simclrhn_probe0,1,581,NaN,elephant,knife,pow,0581_pow_dnn_pow_knife_35_n03041632_4269.png,n03041632_4269.png,0.0,-4.552642,-1.9488703,-1.8411447
alexnet_w1_mlp_simclrhn_probe0,1,582,NaN,cat,cat,0,0582_pow_dnn_0_cat_35_n02123045_12010.png,n02123045_12010.png,1.0,-0.06688646,-6.210803,4.344405
alexnet_w1_mlp_simclrhn_probe0,1,583,NaN,keyboard,clock,0,0583_pow_dnn_0_clock_35_n03196217_6467.png,n03196217_6467.png,0.0,0.16347449,1.2703106,-0.7826514
alexnet_w1_mlp_simclrhn_probe0,1,584,NaN,bottle,bottle,pow,0584_pow_dnn_pow_bottle_35_n03983396_2864.png,n03983396_2864.png,1.0,-2.642873,-3.0554817,0.29175836
alexnet_w1_mlp_simclrhn_probe0,1,585,NaN,airplane,bottle,0,0585_pow_dnn_0_bottle_35_n04557648_10171.png,n04557648_10171.png,0.0,-2.69887,0.7175007,-2.4157388
alexnet_w1_mlp_simclrhn_probe0,1,586,NaN,bear,bird,pow,0586_pow_dnn_pow_bird_35_n01860187_2052.png,n01860187_2052.png,0.0,-5.8329124,-1.8274922,-2.83226
alexnet_w1_mlp_simclrhn_probe0,1,587,NaN,car,car,0,0587_pow_dnn_0_car_35_n04285008_5897.png,n04285008_5897.png,1.0,11.657714,3.8951116,5.488989
alexnet_w1_mlp_simclrhn_probe0,1,588,NaN,elephant,elephant,0,0588_pow_dnn_0_elephant_35_n02504458_4721.png,n02504458_4721.png,1.0,6.0929813,-6.306172,8.767525
alexnet_w1_mlp_simclrhn_probe0,1,589,NaN,car,car,0,0589_pow_dnn_0_car_35_n02814533_93476.png,n02814533_93476.png,1.0,5.1946273,0.9151459,3.0260503
alexnet_w1_mlp_simclrhn_probe0,1,590,NaN,elephant,bird,pow,0590_pow_dnn_pow_bird_35_n01824575_10337.png,n01824575_10337.png,0.0,-6.90885,-1.9350578,-3.5170026
alexnet_w1_mlp_simclrhn_probe0,1,591,NaN,oven,dog,pow,0591_pow_dnn_pow_dog_35_n02100735_10683.png,n02100735_10683.png,0.0,-5.250871,-0.93314505,-3.0530934
alexnet_w1_mlp_simclrhn_probe0,1,592,NaN,airplane,airplane,pow,0592_pow_dnn_pow_airplane_35_n02690373_4402.png,n02690373_4402.png,1.0,-4.140386,-5.535454,0.9864618
alexnet_w1_mlp_simclrhn_probe0,1,593,NaN,airplane,airplane,0,0593_pow_dnn_0_airplane_35_n02690373_4350.png,n02690373_4350.png,1.0,6.234683,-3.6982028,7.023611
alexnet_w1_mlp_simclrhn_probe0,1,594,NaN,elephant,bottle,pow,0594_pow_dnn_pow_bottle_35_n02823428_6327.png,n02823428_6327.png,0.0,-4.6256256,-3.8405304,-0.55514616
alexnet_w1_mlp_simclrhn_probe0,1,595,NaN,elephant,dog,pow,0595_pow_dnn_pow_dog_35_n02104029_3041.png,n02104029_3041.png,0.0,-2.642596,0.7013509,-2.3645277
alexnet_w1_mlp_simclrhn_probe0,1,596,NaN,elephant,elephant,pow,0596_pow_dnn_pow_elephant_35_n02504013_24810.png,n02504013_24810.png,1.0,0.23510551,-2.4926937,1.9288453
alexnet_w1_mlp_simclrhn_probe0,1,597,NaN,oven,clock,pow,0597_pow_dnn_pow_clock_35_n04548280_4473.png,n04548280_4473.png,0.0,-7.95278,-3.9059434,-2.8615456
alexnet_w1_mlp_simclrhn_probe0,1,598,NaN,bear,dog,pow,0598_pow_dnn_pow_dog_35_n02107908_5597.png,n02107908_5597.png,0.0,-4.0751867,-4.011579,-0.04497743
alexnet_w1_mlp_simclrhn_probe0,1,599,NaN,truck,truck,0,0599_pow_dnn_0_truck_35_n04467665_57697.png,n04467665_57697.png,1.0,0.6961826,-2.258657,2.0893872
alexnet_w1_mlp_simclrhn_probe0,1,600,NaN,elephant,bottle,pow,0600_pow_dnn_pow_bottle_35_n03983396_6889.png,n03983396_6889.png,0.0,-4.1214175,-3.0187159,-0.7797278
alexnet_w1_mlp_simclrhn_probe0,1,601,NaN,bear,bear,pow,0601_pow_dnn_pow_bear_35_n02134418_1826.png,n02134418_1826.png,1.0,1.488205,-0.58486676,1.4658831
alexnet_w1_mlp_simclrhn_probe0,1,602,NaN,elephant,cat,pow,0602_pow_dnn_pow_cat_35_n02123159_4687.png,n02123159_4687.png,0.0,-3.667879,-3.6441681,-0.016766185
alexnet_w1_mlp_simclrhn_probe0,1,603,NaN,bear,boat,pow,0603_pow_dnn_pow_boat_35_n03344393_5798.png,n03344393_5798.png,0.0,-4.191496,-3.021362,-0.82740957
alexnet_w1_mlp_simclrhn_probe0,1,604,NaN,oven,car,pow,0604_pow_dnn_pow_car_35_n04285008_11745.png,n04285008_11745.png,0.0,-10.283008,-3.0395055,-5.1219296
alexnet_w1_mlp_simclrhn_probe0,1,605,NaN,clock,clock,0,0605_pow_dnn_0_clock_35_n02708093_353.png,n02708093_353.png,1.0,2.9825013,2.4689474,0.36313742
alexnet_w1_mlp_simclrhn_probe0,1,606,NaN,airplane,airplane,0,0606_pow_dnn_0_airplane_35_n02690373_4763.png,n02690373_4763.png,1.0,3.4128444,-5.285737,6.150826
alexnet_w1_mlp_simclrhn_probe0,1,607,NaN,elephant,elephant,0,0607_pow_dnn_0_elephant_35_n02504013_18498.png,n02504013_18498.png,1.0,3.3041956,-3.049631,4.492834
alexnet_w1_mlp_simclrhn_probe0,1,608,NaN,bear,cat,pow,0608_pow_dnn_pow_cat_35_n02123394_159.png,n02123394_159.png,0.0,-1.5220858,0.11576277,-1.1581339
alexnet_w1_mlp_simclrhn_probe0,1,609,NaN,boat,boat,0,0609_pow_dnn_0_boat_35_n03662601_18676.png,n03662601_18676.png,1.0,4.6172647,-0.88139796,3.8881419
alexnet_w1_mlp_simclrhn_probe0,1,610,NaN,elephant,truck,pow,0610_pow_dnn_pow_truck_35_n03796401_1789.png,n03796401_1789.png,0.0,-7.970743,-3.8488631,-2.9146094
alexnet_w1_mlp_simclrhn_probe0,1,611,NaN,chair,chair,0,0611_pow_dnn_0_chair_35_n04099969_4816.png,n04099969_4816.png,1.0,0.090301156,-2.7218382,1.988483
alexnet_w1_mlp_simclrhn_probe0,1,612,NaN,elephant,elephant,0,0612_pow_dnn_0_elephant_35_n02504458_7013.png,n02504458_7013.png,1.0,8.009924,-7.105139,10.6879635
alexnet_w1_mlp_simclrhn_probe0,1,613,NaN,bear,knife,pow,0613_pow_dnn_pow_knife_35_n03041632_92637.png,n03041632_92637.png,0.0,-4.4359684,-3.6378121,-0.5643817
alexnet_w1_mlp_simclrhn_probe0,1,614,NaN,keyboard,keyboard,0,0614_pow_dnn_0_keyboard_35_n03085013_19607.png,n03085013_19607.png,1.0,5.7358713,-1.7916604,5.3227687
alexnet_w1_mlp_simclrhn_probe0,1,615,NaN,cat,cat,pow,0615_pow_dnn_pow_cat_35_n02123597_1027.png,n02123597_1027.png,1.0,-2.76357,-3.0753024,0.22042802
alexnet_w1_mlp_simclrhn_probe0,1,616,NaN,bicycle,bicycle,0,0616_pow_dnn_0_bicycle_35_n02835271_9135.png,n02835271_9135.png,1.0,0.500193,-5.364017,4.1466227
alexnet_w1_mlp_simclrhn_probe0,1,617,NaN,bear,dog,pow,0617_pow_dnn_pow_dog_35_n02111500_3896.png,n02111500_3896.png,0.0,-3.0238023,-2.345555,-0.47959322
alexnet_w1_mlp_simclrhn_probe0,1,618,NaN,keyboard,oven,0,0618_pow_dnn_0_oven_35_n04111531_8398.png,n04111531_8398.png,0.0,-8.411217,-1.3482082,-4.9943013
alexnet_w1_mlp_simclrhn_probe0,1,619,NaN,oven,oven,0,0619_pow_dnn_0_oven_35_n04111531_6049.png,n04111531_6049.png,1.0,6.757,-3.7763305,7.4481897
alexnet_w1_mlp_simclrhn_probe0,1,620,NaN,elephant,chair,pow,0620_pow_dnn_pow_chair_35_n03376595_6947.png,n03376595_6947.png,0.0,-6.509262,-3.3668642,-2.2220109
alexnet_w1_mlp_simclrhn_probe0,1,621,NaN,bear,dog,pow,0621_pow_dnn_pow_dog_35_n02097658_6717.png,n02097658_6717.png,0.0,-2.0652583,-1.5045888,-0.39645317
alexnet_w1_mlp_simclrhn_probe0,1,622,NaN,knife,knife,0,0622_pow_dnn_0_knife_35_n03041632_21560.png,n03041632_21560.png,1.0,-1.5533797,-3.7144842,1.5281318
alexnet_w1_mlp_simclrhn_probe0,1,623,NaN,boat,boat,pow,0623_pow_dnn_pow_boat_35_n03662601_7642.png,n03662601_7642.png,1.0,-3.793425,-3.8001785,0.004775407
alexnet_w1_mlp_simclrhn_probe0,1,624,NaN,car,car,0,0624_pow_dnn_0_car_35_n04285008_1313.png,n04285008_1313.png,1.0,0.17697704,0.088562675,0.062518395
alexnet_w1_mlp_simclrhn_probe0,1,625,NaN,elephant,chair,pow,0625_pow_dnn_pow_chair_35_n03376595_6409.png,n03376595_6409.png,0.0,-5.9983115,-0.95810884,-3.5639615
alexnet_w1_mlp_simclrhn_probe0,1,626,NaN,bear,bear,pow,0626_pow_dnn_pow_bear_35_n02133161_6028.png,n02133161_6028.png,1.0,0.92478484,-1.5102215,1.7218095
alexnet_w1_mlp_simclrhn_probe0,1,627,NaN,elephant,bear,pow,0627_pow_dnn_pow_bear_35_n02132136_29029.png,n02132136_29029.png,0.0,-0.5640006,0.14579211,-0.50189924
alexnet_w1_mlp_simclrhn_probe0,1,628,NaN,truck,truck,0,0628_pow_dnn_0_truck_35_n04467665_7290.png,n04467665_7290.png,1.0,0.3123554,-2.422343,1.9337237
alexnet_w1_mlp_simclrhn_probe0,1,629,NaN,bear,bird,pow,0629_pow_dnn_pow_bird_35_n01537544_9745.png,n01537544_9745.png,0.0,-6.0255256,-2.7882562,-2.2890952
alexnet_w1_mlp_simclrhn_probe0,1,630,NaN,bicycle,bicycle,0,0630_pow_dnn_0_bicycle_35_n03792782_15845.png,n03792782_15845.png,1.0,-0.1383915,-5.1252384,3.5262334
alexnet_w1_mlp_simclrhn_probe0,1,631,NaN,bear,bear,pow,0631_pow_dnn_pow_bear_35_n02133161_8982.png,n02133161_8982.png,1.0,-0.608319,-0.8774234,0.19028556
alexnet_w1_mlp_simclrhn_probe0,1,632,NaN,knife,knife,0,0632_pow_dnn_0_knife_35_n03041632_6575.png,n03041632_6575.png,1.0,-5.9823236,-8.791651,1.9864943
alexnet_w1_mlp_simclrhn_probe0,1,633,NaN,knife,knife,0,0633_pow_dnn_0_knife_35_n03041632_32785.png,n03041632_32785.png,1.0,-0.94928974,-3.4749856,1.7859367
alexnet_w1_mlp_simclrhn_probe0,1,634,NaN,oven,chair,pow,0634_pow_dnn_pow_chair_35_n04429376_12691.png,n04429376_12691.png,0.0,-5.530682,-3.3169127,-1.5653714
alexnet_w1_mlp_simclrhn_probe0,1,635,NaN,bear,dog,pow,0635_pow_dnn_pow_dog_35_n02097298_6578.png,n02097298_6578.png,0.0,-2.7413604,-1.1764147,-1.1065837
alexnet_w1_mlp_simclrhn_probe0,1,636,NaN,cat,knife,pow,0636_pow_dnn_pow_knife_35_n03041632_94995.png,n03041632_94995.png,0.0,-5.6667356,-5.117291,-0.38851607
alexnet_w1_mlp_simclrhn_probe0,1,637,NaN,clock,clock,0,0637_pow_dnn_0_clock_35_n02708093_41.png,n02708093_41.png,1.0,0.8123242,-4.4676576,3.733511
