subj,session,trial,rt,object_response,category,condition,imagename,filename,is_correct,targ_act,max_nontarg_act,decision_margin
alexnet_w1_mlp_simclrhn_probe2,1,1,NaN,clock,clock,0,0001_pow_dnn_0_clock_35_n03196217_10246.png,n03196217_10246.png,1.0,3.0880659,2.4971433,0.41784537
alexnet_w1_mlp_simclrhn_probe2,1,2,NaN,cat,dog,pow,0002_pow_dnn_pow_dog_35_n02091467_7264.png,n02091467_7264.png,0.0,-0.53454494,0.64706916,-0.8355274
alexnet_w1_mlp_simclrhn_probe2,1,3,NaN,oven,chair,pow,0003_pow_dnn_pow_chair_35_n02791124_713.png,n02791124_713.png,0.0,-1.3135544,1.4624783,-1.9629515
alexnet_w1_mlp_simclrhn_probe2,1,4,NaN,truck,car,0,0004_pow_dnn_0_car_35_n02814533_35174.png,n02814533_35174.png,0.0,4.9366207,5.204052,-0.18910246
alexnet_w1_mlp_simclrhn_probe2,1,5,NaN,oven,knife,pow,0005_pow_dnn_pow_knife_35_n03041632_46103.png,n03041632_46103.png,0.0,-1.543051,0.48036706,-1.4307725
alexnet_w1_mlp_simclrhn_probe2,1,6,NaN,bicycle,bicycle,0,0006_pow_dnn_0_bicycle_35_n03792782_11306.png,n03792782_11306.png,1.0,13.764779,0.12585467,9.6441765
alexnet_w1_mlp_simclrhn_probe2,1,7,NaN,bird,bird,0,0007_pow_dnn_0_bird_35_n02002556_3463.png,n02002556_3463.png,1.0,4.3546352,-2.928226,5.1497607
alexnet_w1_mlp_simclrhn_probe2,1,8,NaN,oven,keyboard,pow,0008_pow_dnn_pow_keyboard_35_n03085013_22813.png,n03085013_22813.png,0.0,-4.35579,-0.30196765,-2.8664854
alexnet_w1_mlp_simclrhn_probe2,1,9,NaN,bird,bird,0,0009_pow_dnn_0_bird_35_n02025239_2961.png,n02025239_2961.png,1.0,5.436993,-5.456234,7.7026744
alexnet_w1_mlp_simclrhn_probe2,1,10,NaN,oven,boat,pow,0010_pow_dnn_pow_boat_35_n02951358_14504.png,n02951358_14504.png,0.0,-1.5949514,1.412615,-2.1266706
alexnet_w1_mlp_simclrhn_probe2,1,11,NaN,oven,oven,0,0011_pow_dnn_0_oven_35_n04111531_19000.png,n04111531_19000.png,1.0,0.97873056,0.049879998,0.6567965
alexnet_w1_mlp_simclrhn_probe2,1,12,NaN,bird,bird,0,0012_pow_dnn_0_bird_35_n01614925_11281.png,n01614925_11281.png,1.0,0.8712123,-1.1633478,1.4386513
alexnet_w1_mlp_simclrhn_probe2,1,13,NaN,knife,knife,0,0013_pow_dnn_0_knife_35_n03041632_52040.png,n03041632_52040.png,1.0,1.0098703,0.6146321,0.2794756
alexnet_w1_mlp_simclrhn_probe2,1,14,NaN,oven,car,pow,0014_pow_dnn_pow_car_35_n03100240_14206.png,n03100240_14206.png,0.0,-2.2641356,1.3982648,-2.589708
alexnet_w1_mlp_simclrhn_probe2,1,15,NaN,cat,bird,0,0015_pow_dnn_0_bird_35_n01817953_689.png,n01817953_689.png,0.0,-3.0508366,-0.47697708,-1.8199935
alexnet_w1_mlp_simclrhn_probe2,1,16,NaN,oven,chair,pow,0016_pow_dnn_pow_chair_35_n04099969_7934.png,n04099969_7934.png,0.0,-0.8546103,1.6369402,-1.7617923
alexnet_w1_mlp_simclrhn_probe2,1,17,NaN,knife,knife,0,0017_pow_dnn_0_knife_35_n03041632_30196.png,n03041632_30196.png,1.0,0.79379463,-1.613262,1.7020463
alexnet_w1_mlp_simclrhn_probe2,1,18,NaN,car,car,0,0018_pow_dnn_0_car_35_n02814533_18077.png,n02814533_18077.png,1.0,5.7579613,2.4346588,2.3499298
alexnet_w1_mlp_simclrhn_probe2,1,19,NaN,cat,cat,0,0019_pow_dnn_0_cat_35_n02123159_6927.png,n02123159_6927.png,1.0,1.1837871,-1.1791809,1.6708707
alexnet_w1_mlp_simclrhn_probe2,1,20,NaN,bird,bird,pow,0020_pow_dnn_pow_bird_35_n01855672_8550.png,n01855672_8550.png,1.0,0.39744,-0.29673308,0.4908545
alexnet_w1_mlp_simclrhn_probe2,1,21,NaN,truck,truck,0,0021_pow_dnn_0_truck_35_n03417042_17888.png,n03417042_17888.png,1.0,7.785253,1.7686253,4.2543983
alexnet_w1_mlp_simclrhn_probe2,1,22,NaN,oven,truck,pow,0022_pow_dnn_pow_truck_35_n04467665_45611.png,n04467665_45611.png,0.0,-4.1118155,0.90769136,-3.5493274
alexnet_w1_mlp_simclrhn_probe2,1,23,NaN,bear,dog,pow,0023_pow_dnn_pow_dog_35_n02093256_1772.png,n02093256_1772.png,0.0,-2.2961903,0.36923763,-1.8847421
alexnet_w1_mlp_simclrhn_probe2,1,24,NaN,oven,boat,pow,0024_pow_dnn_pow_boat_35_n03344393_6260.png,n03344393_6260.png,0.0,-1.9825895,1.6612881,-2.5766106
alexnet_w1_mlp_simclrhn_probe2,1,25,NaN,oven,chair,0,0025_pow_dnn_0_chair_35_n04429376_24073.png,n04429376_24073.png,0.0,-0.84489596,0.56701326,-0.9983706
alexnet_w1_mlp_simclrhn_probe2,1,26,NaN,knife,knife,0,0026_pow_dnn_0_knife_35_n03041632_29355.png,n03041632_29355.png,1.0,2.044931,-0.16680562,1.5639341
alexnet_w1_mlp_simclrhn_probe2,1,27,NaN,clock,clock,0,0027_pow_dnn_0_clock_35_n03196217_5907.png,n03196217_5907.png,1.0,2.6096454,1.3001552,0.9259494
alexnet_w1_mlp_simclrhn_probe2,1,28,NaN,airplane,airplane,0,0028_pow_dnn_0_airplane_35_n02690373_7276.png,n02690373_7276.png,1.0,14.255758,2.002619,8.664278
alexnet_w1_mlp_simclrhn_probe2,1,29,NaN,bicycle,bicycle,pow,0029_pow_dnn_pow_bicycle_35_n03792782_15561.png,n03792782_15561.png,1.0,4.069202,-1.1371927,3.681477
alexnet_w1_mlp_simclrhn_probe2,1,30,NaN,cat,cat,0,0030_pow_dnn_0_cat_35_n02123045_3505.png,n02123045_3505.png,1.0,7.541145,-1.8696982,6.654471
alexnet_w1_mlp_simclrhn_probe2,1,31,NaN,oven,knife,0,0031_pow_dnn_0_knife_35_n03041632_34769.png,n03041632_34769.png,0.0,-0.58000416,2.7788858,-2.375094
alexnet_w1_mlp_simclrhn_probe2,1,32,NaN,oven,clock,pow,0032_pow_dnn_pow_clock_35_n03196217_5206.png,n03196217_5206.png,0.0,-2.1830578,0.60106957,-1.9686753
alexnet_w1_mlp_simclrhn_probe2,1,33,NaN,truck,truck,0,0033_pow_dnn_0_truck_35_n04467665_58815.png,n04467665_58815.png,1.0,4.5604973,0.74565667,2.6974998
alexnet_w1_mlp_simclrhn_probe2,1,34,NaN,bird,bird,0,0034_pow_dnn_0_bird_35_n01616318_2186.png,n01616318_2186.png,1.0,5.506749,-4.6658206,7.193093
alexnet_w1_mlp_simclrhn_probe2,1,35,NaN,elephant,bicycle,pow,0035_pow_dnn_pow_bicycle_35_n03792782_12885.png,n03792782_12885.png,0.0,-2.6491518,1.3463548,-2.82525
alexnet_w1_mlp_simclrhn_probe2,1,36,NaN,oven,airplane,pow,0036_pow_dnn_pow_airplane_35_n02690373_9264.png,n02690373_9264.png,0.0,-2.072453,1.1362388,-2.2688878
alexnet_w1_mlp_simclrhn_probe2,1,37,NaN,chair,chair,0,0037_pow_dnn_0_chair_35_n04099969_16079.png,n04099969_16079.png,1.0,0.5229971,-0.2164509,0.5228687
alexnet_w1_mlp_simclrhn_probe2,1,38,NaN,bicycle,bicycle,0,0038_pow_dnn_0_bicycle_35_n02835271_3027.png,n02835271_3027.png,1.0,3.5772135,0.20926079,2.3815024
alexnet_w1_mlp_simclrhn_probe2,1,39,NaN,airplane,airplane,0,0039_pow_dnn_0_airplane_35_n02690373_6614.png,n02690373_6614.png,1.0,12.084935,-0.6605602,9.012426
alexnet_w1_mlp_simclrhn_probe2,1,40,NaN,elephant,chair,pow,0040_pow_dnn_pow_chair_35_n03376595_9048.png,n03376595_9048.png,0.0,-2.535932,-0.38902462,-1.5180928
alexnet_w1_mlp_simclrhn_probe2,1,41,NaN,oven,oven,0,0041_pow_dnn_0_oven_35_n04111531_6094.png,n04111531_6094.png,1.0,3.7129688,3.5748827,0.0976416
alexnet_w1_mlp_simclrhn_probe2,1,42,NaN,clock,clock,pow,0042_pow_dnn_pow_clock_35_n02708093_687.png,n02708093_687.png,1.0,0.74600023,-0.85075814,1.1290787
alexnet_w1_mlp_simclrhn_probe2,1,43,NaN,bicycle,bicycle,pow,0043_pow_dnn_pow_bicycle_35_n03792782_14931.png,n03792782_14931.png,1.0,2.8518434,-0.74183327,2.5411131
alexnet_w1_mlp_simclrhn_probe2,1,44,NaN,keyboard,bottle,0,0044_pow_dnn_0_bottle_35_n03937543_5567.png,n03937543_5567.png,0.0,0.828349,1.8033959,-0.68946224
alexnet_w1_mlp_simclrhn_probe2,1,45,NaN,car,car,0,0045_pow_dnn_0_car_35_n03100240_3073.png,n03100240_3073.png,1.0,14.450599,6.9169655,5.327083
alexnet_w1_mlp_simclrhn_probe2,1,46,NaN,knife,knife,0,0046_pow_dnn_0_knife_35_n03041632_18236.png,n03041632_18236.png,1.0,1.3454385,-0.93910444,1.6154159
alexnet_w1_mlp_simclrhn_probe2,1,47,NaN,elephant,knife,pow,0047_pow_dnn_pow_knife_35_n03041632_9302.png,n03041632_9302.png,0.0,-1.4979622,-1.4418935,-0.039646614
alexnet_w1_mlp_simclrhn_probe2,1,48,NaN,bear,bear,0,0048_pow_dnn_0_bear_35_n02134418_2590.png,n02134418_2590.png,1.0,5.767435,-1.0382882,4.812373
alexnet_w1_mlp_simclrhn_probe2,1,49,NaN,bottle,bottle,0,0049_pow_dnn_0_bottle_35_n03983396_24837.png,n03983396_24837.png,1.0,0.14112505,-2.3712347,1.7765065
alexnet_w1_mlp_simclrhn_probe2,1,50,NaN,knife,knife,pow,0050_pow_dnn_pow_knife_35_n03041632_3617.png,n03041632_3617.png,1.0,-0.5879989,-1.1391886,0.38975
alexnet_w1_mlp_simclrhn_probe2,1,51,NaN,elephant,bicycle,pow,0051_pow_dnn_pow_bicycle_35_n03792782_6735.png,n03792782_6735.png,0.0,-0.5892452,0.15801182,-0.52839047
alexnet_w1_mlp_simclrhn_probe2,1,52,NaN,car,car,0,0052_pow_dnn_0_car_35_n03100240_5387.png,n03100240_5387.png,1.0,11.229924,5.497301,4.053577
alexnet_w1_mlp_simclrhn_probe2,1,53,NaN,clock,bottle,0,0053_pow_dnn_0_bottle_35_n03983396_4879.png,n03983396_4879.png,0.0,-0.95929474,0.5471317,-1.0652044
alexnet_w1_mlp_simclrhn_probe2,1,54,NaN,car,car,0,0054_pow_dnn_0_car_35_n03100240_6103.png,n03100240_6103.png,1.0,12.672802,7.6571302,3.5466156
alexnet_w1_mlp_simclrhn_probe2,1,55,NaN,oven,bird,pow,0055_pow_dnn_pow_bird_35_n01796340_9255.png,n01796340_9255.png,0.0,-2.4822588,0.8922314,-2.386125
alexnet_w1_mlp_simclrhn_probe2,1,56,NaN,oven,cat,pow,0056_pow_dnn_pow_cat_35_n02123394_2448.png,n02123394_2448.png,0.0,-1.017002,0.49784663,-1.0711597
alexnet_w1_mlp_simclrhn_probe2,1,57,NaN,car,car,0,0057_pow_dnn_0_car_35_n04285008_13174.png,n04285008_13174.png,1.0,15.477226,9.459736,4.255008
alexnet_w1_mlp_simclrhn_probe2,1,58,NaN,oven,chair,pow,0058_pow_dnn_pow_chair_35_n04429376_353.png,n04429376_353.png,0.0,-0.5987998,1.6293198,-1.5755185
alexnet_w1_mlp_simclrhn_probe2,1,59,NaN,bear,boat,pow,0059_pow_dnn_pow_boat_35_n02951358_16261.png,n02951358_16261.png,0.0,-3.1851842,-0.36092216,-1.9970549
alexnet_w1_mlp_simclrhn_probe2,1,60,NaN,oven,car,pow,0060_pow_dnn_pow_car_35_n04285008_15954.png,n04285008_15954.png,0.0,-3.1898735,1.1880755,-3.0956774
alexnet_w1_mlp_simclrhn_probe2,1,61,NaN,oven,truck,pow,0061_pow_dnn_pow_truck_35_n04467665_3411.png,n04467665_3411.png,0.0,-1.3095585,-0.82210565,-0.34468123
alexnet_w1_mlp_simclrhn_probe2,1,62,NaN,oven,oven,pow,0062_pow_dnn_pow_oven_35_n04111531_15743.png,n04111531_15743.png,1.0,1.1300821,-0.71969366,1.307989
alexnet_w1_mlp_simclrhn_probe2,1,63,NaN,dog,dog,0,0063_pow_dnn_0_dog_35_n02088238_8653.png,n02088238_8653.png,1.0,0.09401312,-0.27669823,0.26213253
alexnet_w1_mlp_simclrhn_probe2,1,64,NaN,airplane,airplane,0,0064_pow_dnn_0_airplane_35_n02690373_4681.png,n02690373_4681.png,1.0,7.8096886,2.8214588,3.5272112
alexnet_w1_mlp_simclrhn_probe2,1,65,NaN,oven,bear,pow,0065_pow_dnn_pow_bear_35_n02134418_5684.png,n02134418_5684.png,0.0,0.8758849,1.1868834,-0.21990919
alexnet_w1_mlp_simclrhn_probe2,1,66,NaN,bear,bear,pow,0066_pow_dnn_pow_bear_35_n02134418_5830.png,n02134418_5830.png,1.0,2.6548948,1.0269353,1.1511412
alexnet_w1_mlp_simclrhn_probe2,1,67,NaN,boat,truck,0,0067_pow_dnn_0_truck_35_n04467665_45983.png,n04467665_45983.png,0.0,-0.5567639,1.9469858,-1.7704185
alexnet_w1_mlp_simclrhn_probe2,1,68,NaN,bird,bird,0,0068_pow_dnn_0_bird_35_n01795545_14302.png,n01795545_14302.png,1.0,1.5116816,-0.5561578,1.4621832
alexnet_w1_mlp_simclrhn_probe2,1,69,NaN,oven,oven,pow,0069_pow_dnn_pow_oven_35_n04111531_19240.png,n04111531_19240.png,1.0,2.4967437,0.17100689,1.6445442
alexnet_w1_mlp_simclrhn_probe2,1,70,NaN,oven,knife,0,0070_pow_dnn_0_knife_35_n03041632_22241.png,n03041632_22241.png,0.0,-0.1208769,1.6363602,-1.2425543
alexnet_w1_mlp_simclrhn_probe2,1,71,NaN,bear,boat,pow,0071_pow_dnn_pow_boat_35_n03344393_815.png,n03344393_815.png,0.0,-1.4280365,0.3452626,-1.2539117
alexnet_w1_mlp_simclrhn_probe2,1,72,NaN,airplane,boat,0,0072_pow_dnn_0_boat_35_n03662601_2120.png,n03662601_2120.png,0.0,-0.54029334,2.625052,-2.2382371
alexnet_w1_mlp_simclrhn_probe2,1,73,NaN,oven,knife,pow,0073_pow_dnn_pow_knife_35_n03041632_2438.png,n03041632_2438.png,0.0,-2.3705454,1.0915438,-2.4480667
alexnet_w1_mlp_simclrhn_probe2,1,74,NaN,bear,bear,pow,0074_pow_dnn_pow_bear_35_n02134418_3073.png,n02134418_3073.png,1.0,3.1557975,1.5202496,1.156507
alexnet_w1_mlp_simclrhn_probe2,1,75,NaN,oven,bottle,pow,0075_pow_dnn_pow_bottle_35_n02823428_3328.png,n02823428_3328.png,0.0,-2.06747,0.745227,-1.988877
alexnet_w1_mlp_simclrhn_probe2,1,76,NaN,oven,car,pow,0076_pow_dnn_pow_car_35_n04285008_13259.png,n04285008_13259.png,0.0,-0.211567,0.2975297,-0.3599857
alexnet_w1_mlp_simclrhn_probe2,1,77,NaN,oven,oven,0,0077_pow_dnn_0_oven_35_n04111531_15852.png,n04111531_15852.png,1.0,0.57978034,-2.4186969,2.1202435
alexnet_w1_mlp_simclrhn_probe2,1,78,NaN,elephant,dog,pow,0078_pow_dnn_pow_dog_35_n02099601_447.png,n02099601_447.png,0.0,-1.2994626,3.5297265,-3.4147525
alexnet_w1_mlp_simclrhn_probe2,1,79,NaN,oven,oven,pow,0079_pow_dnn_pow_oven_35_n04111531_18916.png,n04111531_18916.png,1.0,0.8153813,-0.38481712,0.84866846
alexnet_w1_mlp_simclrhn_probe2,1,80,NaN,knife,bottle,pow,0080_pow_dnn_pow_bottle_35_n04591713_1407.png,n04591713_1407.png,0.0,-0.44710478,0.5727578,-0.7211517
alexnet_w1_mlp_simclrhn_probe2,1,81,NaN,clock,oven,0,0081_pow_dnn_0_oven_35_n04111531_4585.png,n04111531_4585.png,0.0,0.57462376,1.43053,-0.6052171
alexnet_w1_mlp_simclrhn_probe2,1,82,NaN,oven,keyboard,pow,0082_pow_dnn_pow_keyboard_35_n03085013_8364.png,n03085013_8364.png,0.0,-4.517911,0.5064318,-3.5527468
alexnet_w1_mlp_simclrhn_probe2,1,83,NaN,bear,bear,pow,0083_pow_dnn_pow_bear_35_n02132136_15462.png,n02132136_15462.png,1.0,2.9419036,2.2601597,0.4820657
alexnet_w1_mlp_simclrhn_probe2,1,84,NaN,oven,bicycle,pow,0084_pow_dnn_pow_bicycle_35_n03792782_4167.png,n03792782_4167.png,0.0,-1.9471784,2.0115306,-2.79923
alexnet_w1_mlp_simclrhn_probe2,1,85,NaN,boat,boat,0,0085_pow_dnn_0_boat_35_n03662601_16106.png,n03662601_16106.png,1.0,7.8948884,2.9569867,3.4916236
alexnet_w1_mlp_simclrhn_probe2,1,86,NaN,oven,keyboard,pow,0086_pow_dnn_pow_keyboard_35_n03085013_2277.png,n03085013_2277.png,0.0,-2.5776882,1.8703127,-3.1452117
alexnet_w1_mlp_simclrhn_probe2,1,87,NaN,oven,airplane,pow,0087_pow_dnn_pow_airplane_35_n02690373_8461.png,n02690373_8461.png,0.0,-2.9536424,0.564908,-2.4879909
alexnet_w1_mlp_simclrhn_probe2,1,88,NaN,knife,chair,pow,0088_pow_dnn_pow_chair_35_n03376595_3304.png,n03376595_3304.png,0.0,-0.7921804,-0.057942078,-0.5191849
alexnet_w1_mlp_simclrhn_probe2,1,89,NaN,bicycle,bicycle,0,0089_pow_dnn_0_bicycle_35_n03792782_19116.png,n03792782_19116.png,1.0,2.2810154,-0.68071973,2.094263
alexnet_w1_mlp_simclrhn_probe2,1,90,NaN,clock,clock,0,0090_pow_dnn_0_clock_35_n02708093_6734.png,n02708093_6734.png,1.0,1.9951415,0.19691025,1.2715415
alexnet_w1_mlp_simclrhn_probe2,1,91,NaN,oven,chair,0,0091_pow_dnn_0_chair_35_n04429376_6480.png,n04429376_6480.png,0.0,0.75952995,1.3088591,-0.38843438
alexnet_w1_mlp_simclrhn_probe2,1,92,NaN,oven,bicycle,pow,0092_pow_dnn_pow_bicycle_35_n02835271_21339.png,n02835271_21339.png,0.0,-0.84801006,0.5324261,-0.9761158
alexnet_w1_mlp_simclrhn_probe2,1,93,NaN,oven,keyboard,pow,0093_pow_dnn_pow_keyboard_35_n03085013_3859.png,n03085013_3859.png,0.0,-3.376015,2.2268531,-3.961826
alexnet_w1_mlp_simclrhn_probe2,1,94,NaN,oven,chair,pow,0094_pow_dnn_pow_chair_35_n03376595_360.png,n03376595_360.png,0.0,-2.4268756,1.1639184,-2.539075
alexnet_w1_mlp_simclrhn_probe2,1,95,NaN,bear,elephant,pow,0095_pow_dnn_pow_elephant_35_n02504013_18988.png,n02504013_18988.png,0.0,0.8507538,1.0027708,-0.10749225
alexnet_w1_mlp_simclrhn_probe2,1,96,NaN,oven,chair,0,0096_pow_dnn_0_chair_35_n04429376_54570.png,n04429376_54570.png,0.0,-0.62156296,0.7285763,-0.95469266
alexnet_w1_mlp_simclrhn_probe2,1,97,NaN,clock,clock,pow,0097_pow_dnn_pow_clock_35_n04548280_5189.png,n04548280_5189.png,1.0,-0.38217616,-1.1534632,0.5453823
alexnet_w1_mlp_simclrhn_probe2,1,98,NaN,oven,truck,pow,0098_pow_dnn_pow_truck_35_n04467665_6626.png,n04467665_6626.png,0.0,-3.0711346,1.9663296,-3.562025
alexnet_w1_mlp_simclrhn_probe2,1,99,NaN,boat,boat,0,0099_pow_dnn_0_boat_35_n03344393_3323.png,n03344393_3323.png,1.0,7.474205,0.7690092,4.7412896
alexnet_w1_mlp_simclrhn_probe2,1,100,NaN,elephant,dog,pow,0100_pow_dnn_pow_dog_35_n02100583_3987.png,n02100583_3987.png,0.0,-0.77177495,0.5190932,-0.91278166
alexnet_w1_mlp_simclrhn_probe2,1,101,NaN,elephant,elephant,pow,0101_pow_dnn_pow_elephant_35_n02504013_1702.png,n02504013_1702.png,1.0,3.6990476,1.6583982,1.442957
alexnet_w1_mlp_simclrhn_probe2,1,102,NaN,oven,truck,pow,0102_pow_dnn_pow_truck_35_n03417042_1841.png,n03417042_1841.png,0.0,-2.0738482,0.93408847,-2.1269324
alexnet_w1_mlp_simclrhn_probe2,1,103,NaN,truck,truck,0,0103_pow_dnn_0_truck_35_n03417042_2062.png,n03417042_2062.png,1.0,7.291072,3.9982483,2.328378
alexnet_w1_mlp_simclrhn_probe2,1,104,NaN,bottle,bottle,0,0104_pow_dnn_0_bottle_35_n03983396_4178.png,n03983396_4178.png,1.0,3.6801398,0.33362743,2.3663416
alexnet_w1_mlp_simclrhn_probe2,1,105,NaN,knife,keyboard,pow,0105_pow_dnn_pow_keyboard_35_n03085013_1698.png,n03085013_1698.png,0.0,-4.92178,1.1103634,-4.26537
alexnet_w1_mlp_simclrhn_probe2,1,106,NaN,oven,car,pow,0106_pow_dnn_pow_car_35_n03100240_7056.png,n03100240_7056.png,0.0,-3.0958736,1.1434972,-2.9976878
alexnet_w1_mlp_simclrhn_probe2,1,107,NaN,bear,dog,pow,0107_pow_dnn_pow_dog_35_n02100735_3553.png,n02100735_3553.png,0.0,-1.2723956,0.8652061,-1.5115128
alexnet_w1_mlp_simclrhn_probe2,1,108,NaN,oven,oven,pow,0108_pow_dnn_pow_oven_35_n04111531_11781.png,n04111531_11781.png,1.0,2.8429797,-0.15028824,2.1165602
alexnet_w1_mlp_simclrhn_probe2,1,109,NaN,cat,cat,0,0109_pow_dnn_0_cat_35_n02123159_4914.png,n02123159_4914.png,1.0,2.7656147,0.026313778,1.9369783
alexnet_w1_mlp_simclrhn_probe2,1,110,NaN,elephant,dog,0,0110_pow_dnn_0_dog_35_n02090622_1852.png,n02090622_1852.png,0.0,-0.53617626,0.25829655,-0.5617771
alexnet_w1_mlp_simclrhn_probe2,1,111,NaN,car,car,pow,0111_pow_dnn_pow_car_35_n03100240_24471.png,n03100240_24471.png,1.0,1.2604672,0.1642049,0.77517444
alexnet_w1_mlp_simclrhn_probe2,1,112,NaN,oven,boat,pow,0112_pow_dnn_pow_boat_35_n03344393_3519.png,n03344393_3519.png,0.0,-0.6576525,0.4913651,-0.8124781
alexnet_w1_mlp_simclrhn_probe2,1,113,NaN,oven,keyboard,pow,0113_pow_dnn_pow_keyboard_35_n03085013_22713.png,n03085013_22713.png,0.0,-2.2224824,2.2866082,-3.1884084
alexnet_w1_mlp_simclrhn_probe2,1,114,NaN,bear,elephant,0,0114_pow_dnn_0_elephant_35_n02504013_6615.png,n02504013_6615.png,0.0,2.5643091,2.7128832,-0.10505777
alexnet_w1_mlp_simclrhn_probe2,1,115,NaN,dog,cat,0,0115_pow_dnn_0_cat_35_n02123597_7081.png,n02123597_7081.png,0.0,-0.2831293,0.6118583,-0.6328518
alexnet_w1_mlp_simclrhn_probe2,1,116,NaN,clock,clock,pow,0116_pow_dnn_pow_clock_35_n04548280_5406.png,n04548280_5406.png,1.0,1.9142004,-0.19981085,1.4948318
alexnet_w1_mlp_simclrhn_probe2,1,117,NaN,oven,bottle,0,0117_pow_dnn_0_bottle_35_n03983396_21920.png,n03983396_21920.png,0.0,-0.498522,3.8208838,-3.054281
alexnet_w1_mlp_simclrhn_probe2,1,118,NaN,knife,knife,0,0118_pow_dnn_0_knife_35_n03041632_48675.png,n03041632_48675.png,1.0,2.7897859,-0.65032184,2.4325237
alexnet_w1_mlp_simclrhn_probe2,1,119,NaN,bird,cat,0,0119_pow_dnn_0_cat_35_n02125311_2103.png,n02125311_2103.png,0.0,-2.8660603,-0.838316,-1.4338318
alexnet_w1_mlp_simclrhn_probe2,1,120,NaN,bird,bird,pow,0120_pow_dnn_pow_bird_35_n01798484_962.png,n01798484_962.png,1.0,-0.52660084,-1.0142266,0.34480345
alexnet_w1_mlp_simclrhn_probe2,1,121,NaN,oven,oven,pow,0121_pow_dnn_pow_oven_35_n04111531_6393.png,n04111531_6393.png,1.0,1.5254381,0.4665785,0.7487268
alexnet_w1_mlp_simclrhn_probe2,1,122,NaN,oven,oven,0,0122_pow_dnn_0_oven_35_n04111531_4418.png,n04111531_4418.png,1.0,3.9494972,-0.44871002,3.1100023
alexnet_w1_mlp_simclrhn_probe2,1,123,NaN,oven,truck,pow,0123_pow_dnn_pow_truck_35_n03796401_296.png,n03796401_296.png,0.0,-3.5646453,1.2704122,-3.418902
alexnet_w1_mlp_simclrhn_probe2,1,124,NaN,bicycle,bicycle,0,0124_pow_dnn_0_bicycle_35_n02835271_10738.png,n02835271_10738.png,1.0,5.3135147,-2.3811226,5.4409304
alexnet_w1_mlp_simclrhn_probe2,1,125,NaN,elephant,elephant,0,0125_pow_dnn_0_elephant_35_n02504013_4457.png,n02504013_4457.png,1.0,17.612541,4.193593,9.488629
alexnet_w1_mlp_simclrhn_probe2,1,126,NaN,knife,knife,0,0126_pow_dnn_0_knife_35_n03041632_30573.png,n03041632_30573.png,1.0,2.5862298,-0.78796566,2.3859167
alexnet_w1_mlp_simclrhn_probe2,1,127,NaN,boat,boat,0,0127_pow_dnn_0_boat_35_n03662601_19840.png,n03662601_19840.png,1.0,5.187946,4.5545077,0.4479084
alexnet_w1_mlp_simclrhn_probe2,1,128,NaN,elephant,bear,0,0128_pow_dnn_0_bear_35_n02133161_12167.png,n02133161_12167.png,0.0,3.7436414,4.5127764,-0.54386055
alexnet_w1_mlp_simclrhn_probe2,1,129,NaN,bottle,bottle,0,0129_pow_dnn_0_bottle_35_n02823428_3028.png,n02823428_3028.png,1.0,1.5398772,0.92761946,0.4329316
alexnet_w1_mlp_simclrhn_probe2,1,130,NaN,boat,boat,0,0130_pow_dnn_0_boat_35_n02951358_30149.png,n02951358_30149.png,1.0,4.4990163,1.4116325,2.18311
alexnet_w1_mlp_simclrhn_probe2,1,131,NaN,car,car,0,0131_pow_dnn_0_car_35_n02814533_75419.png,n02814533_75419.png,1.0,10.207431,6.988263,2.2762954
alexnet_w1_mlp_simclrhn_probe2,1,132,NaN,keyboard,keyboard,0,0132_pow_dnn_0_keyboard_35_n03085013_24449.png,n03085013_24449.png,1.0,1.972526,0.7998964,0.82917434
alexnet_w1_mlp_simclrhn_probe2,1,133,NaN,dog,dog,0,0133_pow_dnn_0_dog_35_n02086240_519.png,n02086240_519.png,1.0,2.670621,-0.6644048,2.3582194
alexnet_w1_mlp_simclrhn_probe2,1,134,NaN,bird,bird,pow,0134_pow_dnn_pow_bird_35_n01582220_2882.png,n01582220_2882.png,1.0,-0.36041135,-1.0637743,0.49735275
alexnet_w1_mlp_simclrhn_probe2,1,135,NaN,oven,oven,0,0135_pow_dnn_0_oven_35_n04111531_13277.png,n04111531_13277.png,1.0,4.286416,0.07250733,2.9796834
alexnet_w1_mlp_simclrhn_probe2,1,136,NaN,bear,bear,pow,0136_pow_dnn_pow_bear_35_n02134084_6901.png,n02134084_6901.png,1.0,1.4731677,0.406026,0.7545831
alexnet_w1_mlp_simclrhn_probe2,1,137,NaN,elephant,bird,0,0137_pow_dnn_0_bird_35_n02002556_5447.png,n02002556_5447.png,0.0,-2.4823148,-0.6517787,-1.2943845
alexnet_w1_mlp_simclrhn_probe2,1,138,NaN,keyboard,keyboard,0,0138_pow_dnn_0_keyboard_35_n03085013_20710.png,n03085013_20710.png,1.0,6.700888,1.1443243,3.929084
alexnet_w1_mlp_simclrhn_probe2,1,139,NaN,oven,oven,pow,0139_pow_dnn_pow_oven_35_n04111531_11405.png,n04111531_11405.png,1.0,3.028748,-0.8305013,2.7289014
alexnet_w1_mlp_simclrhn_probe2,1,140,NaN,bear,bear,pow,0140_pow_dnn_pow_bear_35_n02132136_8457.png,n02132136_8457.png,1.0,2.058335,0.92149895,0.8038645
alexnet_w1_mlp_simclrhn_probe2,1,141,NaN,bird,bird,pow,0141_pow_dnn_pow_bird_35_n02009912_6788.png,n02009912_6788.png,1.0,0.22371532,-0.0700458,0.20772049
alexnet_w1_mlp_simclrhn_probe2,1,142,NaN,oven,chair,pow,0142_pow_dnn_pow_chair_35_n04429376_9630.png,n04429376_9630.png,0.0,-1.5270511,0.6797771,-1.5604632
alexnet_w1_mlp_simclrhn_probe2,1,143,NaN,keyboard,keyboard,0,0143_pow_dnn_0_keyboard_35_n03085013_23658.png,n03085013_23658.png,1.0,5.2384863,0.59414685,3.284044
alexnet_w1_mlp_simclrhn_probe2,1,144,NaN,cat,cat,pow,0144_pow_dnn_pow_cat_35_n02123045_13199.png,n02123045_13199.png,1.0,1.221014,0.25950146,0.67989206
alexnet_w1_mlp_simclrhn_probe2,1,145,NaN,bicycle,clock,pow,0145_pow_dnn_pow_clock_35_n04548280_6411.png,n04548280_6411.png,0.0,-0.641884,-0.46475333,-0.12525032
alexnet_w1_mlp_simclrhn_probe2,1,146,NaN,bird,bird,0,0146_pow_dnn_0_bird_35_n01820546_9729.png,n01820546_9729.png,1.0,-0.48947614,-0.88368624,0.27874863
alexnet_w1_mlp_simclrhn_probe2,1,147,NaN,boat,boat,0,0147_pow_dnn_0_boat_35_n04273569_12651.png,n04273569_12651.png,1.0,4.6173277,1.5345082,2.1798825
alexnet_w1_mlp_simclrhn_probe2,1,148,NaN,elephant,elephant,pow,0148_pow_dnn_pow_elephant_35_n02504458_3143.png,n02504458_3143.png,1.0,0.7815491,0.51745313,0.18674405
alexnet_w1_mlp_simclrhn_probe2,1,149,NaN,clock,clock,0,0149_pow_dnn_0_clock_35_n03196217_9786.png,n03196217_9786.png,1.0,6.9843802,2.4942825,3.1749787
alexnet_w1_mlp_simclrhn_probe2,1,150,NaN,airplane,chair,0,0150_pow_dnn_0_chair_35_n03376595_6652.png,n03376595_6652.png,0.0,0.14065602,0.24362358,-0.07280906
alexnet_w1_mlp_simclrhn_probe2,1,151,NaN,oven,bottle,pow,0151_pow_dnn_pow_bottle_35_n03983396_2998.png,n03983396_2998.png,0.0,-0.6596648,1.748353,-1.7027258
alexnet_w1_mlp_simclrhn_probe2,1,152,NaN,elephant,elephant,0,0152_pow_dnn_0_elephant_35_n02504458_5331.png,n02504458_5331.png,1.0,12.048882,1.758024,7.2767353
alexnet_w1_mlp_simclrhn_probe2,1,153,NaN,car,car,0,0153_pow_dnn_0_car_35_n04285008_8052.png,n04285008_8052.png,1.0,12.347626,5.993435,4.4930916
alexnet_w1_mlp_simclrhn_probe2,1,154,NaN,oven,bottle,pow,0154_pow_dnn_pow_bottle_35_n04591713_3402.png,n04591713_3402.png,0.0,-0.7032118,1.0022466,-1.2059412
alexnet_w1_mlp_simclrhn_probe2,1,155,NaN,oven,bicycle,pow,0155_pow_dnn_pow_bicycle_35_n02835271_1701.png,n02835271_1701.png,0.0,-0.17472345,1.2659435,-1.0187054
alexnet_w1_mlp_simclrhn_probe2,1,156,NaN,bicycle,bicycle,0,0156_pow_dnn_0_bicycle_35_n02835271_5196.png,n02835271_5196.png,1.0,13.499155,2.2710094,7.939498
alexnet_w1_mlp_simclrhn_probe2,1,157,NaN,elephant,elephant,pow,0157_pow_dnn_pow_elephant_35_n02504458_5444.png,n02504458_5444.png,1.0,2.4647708,1.1561927,0.9253045
alexnet_w1_mlp_simclrhn_probe2,1,158,NaN,chair,truck,0,0158_pow_dnn_0_truck_35_n03417042_3422.png,n03417042_3422.png,0.0,0.6757757,1.6289678,-0.67400855
alexnet_w1_mlp_simclrhn_probe2,1,159,NaN,elephant,dog,pow,0159_pow_dnn_pow_dog_35_n02088466_1537.png,n02088466_1537.png,0.0,0.043631654,1.3279707,-0.90816486
alexnet_w1_mlp_simclrhn_probe2,1,160,NaN,bear,dog,pow,0160_pow_dnn_pow_dog_35_n02088632_1732.png,n02088632_1732.png,0.0,-0.2130641,0.44385183,-0.4645097
alexnet_w1_mlp_simclrhn_probe2,1,161,NaN,truck,truck,0,0161_pow_dnn_0_truck_35_n03796401_3326.png,n03796401_3326.png,1.0,1.3755201,0.94733906,0.30276972
alexnet_w1_mlp_simclrhn_probe2,1,162,NaN,boat,boat,0,0162_pow_dnn_0_boat_35_n04273569_19796.png,n04273569_19796.png,1.0,7.82162,-2.0498276,6.980168
alexnet_w1_mlp_simclrhn_probe2,1,163,NaN,keyboard,keyboard,pow,0163_pow_dnn_pow_keyboard_35_n04505470_5125.png,n04505470_5125.png,1.0,2.1322062,0.48484674,1.164859
alexnet_w1_mlp_simclrhn_probe2,1,164,NaN,cat,cat,pow,0164_pow_dnn_pow_cat_35_n02123394_1817.png,n02123394_1817.png,1.0,0.22848953,-0.04803758,0.1955342
alexnet_w1_mlp_simclrhn_probe2,1,165,NaN,cat,cat,pow,0165_pow_dnn_pow_cat_35_n02123159_7465.png,n02123159_7465.png,1.0,2.26752,-1.0579726,2.3514783
alexnet_w1_mlp_simclrhn_probe2,1,166,NaN,elephant,cat,0,0166_pow_dnn_0_cat_35_n02125311_33516.png,n02125311_33516.png,0.0,-4.1924667,1.5689197,-4.0739155
alexnet_w1_mlp_simclrhn_probe2,1,167,NaN,oven,bicycle,pow,0167_pow_dnn_pow_bicycle_35_n03792782_30246.png,n03792782_30246.png,0.0,-0.8234591,0.24697146,-0.7569087
alexnet_w1_mlp_simclrhn_probe2,1,168,NaN,airplane,truck,0,0168_pow_dnn_0_truck_35_n04467665_72639.png,n04467665_72639.png,0.0,0.59767354,4.8657856,-3.018011
alexnet_w1_mlp_simclrhn_probe2,1,169,NaN,bicycle,bicycle,0,0169_pow_dnn_0_bicycle_35_n03792782_10395.png,n03792782_10395.png,1.0,6.9674196,-1.3780023,5.9011045
alexnet_w1_mlp_simclrhn_probe2,1,170,NaN,bicycle,bicycle,pow,0170_pow_dnn_pow_bicycle_35_n02835271_840.png,n02835271_840.png,1.0,0.83014894,0.3074482,0.36960524
alexnet_w1_mlp_simclrhn_probe2,1,171,NaN,elephant,knife,pow,0171_pow_dnn_pow_knife_35_n03041632_82197.png,n03041632_82197.png,0.0,-3.4655836,0.23533885,-2.6169474
alexnet_w1_mlp_simclrhn_probe2,1,172,NaN,oven,airplane,pow,0172_pow_dnn_pow_airplane_35_n02690373_8942.png,n02690373_8942.png,0.0,-4.68802,2.3663917,-4.9882226
alexnet_w1_mlp_simclrhn_probe2,1,173,NaN,oven,keyboard,0,0173_pow_dnn_0_keyboard_35_n03085013_21851.png,n03085013_21851.png,0.0,1.1466941,1.8494046,-0.49689138
alexnet_w1_mlp_simclrhn_probe2,1,174,NaN,clock,clock,pow,0174_pow_dnn_pow_clock_35_n04548280_1106.png,n04548280_1106.png,1.0,1.8501819,-0.29325077,1.5156357
alexnet_w1_mlp_simclrhn_probe2,1,175,NaN,chair,truck,0,0175_pow_dnn_0_truck_35_n03796401_4181.png,n03796401_4181.png,0.0,-0.078235544,1.1297071,-0.8541444
alexnet_w1_mlp_simclrhn_probe2,1,176,NaN,oven,knife,pow,0176_pow_dnn_pow_knife_35_n03041632_44019.png,n03041632_44019.png,0.0,-0.95528483,0.7441084,-1.2016525
alexnet_w1_mlp_simclrhn_probe2,1,177,NaN,truck,truck,0,0177_pow_dnn_0_truck_35_n03417042_1348.png,n03417042_1348.png,1.0,3.0490072,2.1449974,0.6392315
alexnet_w1_mlp_simclrhn_probe2,1,178,NaN,chair,chair,0,0178_pow_dnn_0_chair_35_n04099969_10516.png,n04099969_10516.png,1.0,3.1111906,0.7105925,1.6974792
alexnet_w1_mlp_simclrhn_probe2,1,179,NaN,oven,chair,pow,0179_pow_dnn_pow_chair_35_n04099969_24041.png,n04099969_24041.png,0.0,-0.29574323,1.393343,-1.1943643
alexnet_w1_mlp_simclrhn_probe2,1,180,NaN,oven,truck,pow,0180_pow_dnn_pow_truck_35_n03796401_3618.png,n03796401_3618.png,0.0,-3.509038,2.2918918,-4.101877
alexnet_w1_mlp_simclrhn_probe2,1,181,NaN,elephant,elephant,0,0181_pow_dnn_0_elephant_35_n02504458_4414.png,n02504458_4414.png,1.0,12.215082,2.4120939,6.9317594
alexnet_w1_mlp_simclrhn_probe2,1,182,NaN,truck,truck,pow,0182_pow_dnn_pow_truck_35_n03796401_3427.png,n03796401_3427.png,1.0,0.92920417,-0.020655096,0.67165196
alexnet_w1_mlp_simclrhn_probe2,1,183,NaN,cat,cat,0,0183_pow_dnn_0_cat_35_n02123045_9907.png,n02123045_9907.png,1.0,1.5127438,-2.4983053,2.8362403
alexnet_w1_mlp_simclrhn_probe2,1,184,NaN,oven,oven,0,0184_pow_dnn_0_oven_35_n04111531_2156.png,n04111531_2156.png,1.0,3.9385839,-1.0100186,3.4991906
alexnet_w1_mlp_simclrhn_probe2,1,185,NaN,bear,bird,pow,0185_pow_dnn_pow_bird_35_n02002556_12696.png,n02002556_12696.png,0.0,-0.43080202,1.0023608,-1.0133991
alexnet_w1_mlp_simclrhn_probe2,1,186,NaN,elephant,airplane,pow,0186_pow_dnn_pow_airplane_35_n02690373_8791.png,n02690373_8791.png,0.0,-1.4199412,-0.36292303,-0.7474247
alexnet_w1_mlp_simclrhn_probe2,1,187,NaN,oven,knife,pow,0187_pow_dnn_pow_knife_35_n03041632_27963.png,n03041632_27963.png,0.0,-2.106977,0.58009434,-1.9000463
alexnet_w1_mlp_simclrhn_probe2,1,188,NaN,knife,chair,0,0188_pow_dnn_0_chair_35_n03376595_7772.png,n03376595_7772.png,0.0,-0.26420736,0.5076854,-0.54581064
alexnet_w1_mlp_simclrhn_probe2,1,189,NaN,bear,boat,pow,0189_pow_dnn_pow_boat_35_n04273569_3460.png,n04273569_3460.png,0.0,-2.9755406,0.068963766,-2.1527898
alexnet_w1_mlp_simclrhn_probe2,1,190,NaN,oven,oven,0,0190_pow_dnn_0_oven_35_n04111531_5694.png,n04111531_5694.png,1.0,5.367721,-2.8631139,5.8200793
alexnet_w1_mlp_simclrhn_probe2,1,191,NaN,bear,bear,pow,0191_pow_dnn_pow_bear_35_n02134084_17218.png,n02134084_17218.png,1.0,1.5260881,0.8390677,0.4857968
alexnet_w1_mlp_simclrhn_probe2,1,192,NaN,oven,oven,pow,0192_pow_dnn_pow_oven_35_n04111531_2923.png,n04111531_2923.png,1.0,1.900208,-0.06272264,1.3880016
alexnet_w1_mlp_simclrhn_probe2,1,193,NaN,bottle,keyboard,pow,0193_pow_dnn_pow_keyboard_35_n03085013_22669.png,n03085013_22669.png,0.0,-3.2268054,-1.8858048,-0.9482307
alexnet_w1_mlp_simclrhn_probe2,1,194,NaN,bottle,bottle,pow,0194_pow_dnn_pow_bottle_35_n04557648_2282.png,n04557648_2282.png,1.0,1.4345537,-0.47558278,1.3506705
alexnet_w1_mlp_simclrhn_probe2,1,195,NaN,elephant,elephant,pow,0195_pow_dnn_pow_elephant_35_n02504013_6693.png,n02504013_6693.png,1.0,4.5342607,1.2691318,2.308795
alexnet_w1_mlp_simclrhn_probe2,1,196,NaN,boat,chair,0,0196_pow_dnn_0_chair_35_n04099969_39507.png,n04099969_39507.png,0.0,-0.61305493,-0.2626466,-0.24777612
alexnet_w1_mlp_simclrhn_probe2,1,197,NaN,oven,car,pow,0197_pow_dnn_pow_car_35_n02814533_61184.png,n02814533_61184.png,0.0,-4.591142,1.8596846,-4.5614233
alexnet_w1_mlp_simclrhn_probe2,1,198,NaN,oven,keyboard,pow,0198_pow_dnn_pow_keyboard_35_n04505470_1358.png,n04505470_1358.png,0.0,-3.0166225,2.2268424,-3.7076898
alexnet_w1_mlp_simclrhn_probe2,1,199,NaN,oven,truck,pow,0199_pow_dnn_pow_truck_35_n04467665_8824.png,n04467665_8824.png,0.0,-1.9565017,2.0315633,-2.8199878
alexnet_w1_mlp_simclrhn_probe2,1,200,NaN,keyboard,keyboard,0,0200_pow_dnn_0_keyboard_35_n04505470_8937.png,n04505470_8937.png,1.0,1.6123178,0.5304405,0.7650027
alexnet_w1_mlp_simclrhn_probe2,1,201,NaN,oven,truck,pow,0201_pow_dnn_pow_truck_35_n03417042_7581.png,n03417042_7581.png,0.0,-1.8390899,-0.47799382,-0.96244025
alexnet_w1_mlp_simclrhn_probe2,1,202,NaN,bicycle,bicycle,pow,0202_pow_dnn_pow_bicycle_35_n02835271_13234.png,n02835271_13234.png,1.0,1.7969278,0.10095887,1.1992311
alexnet_w1_mlp_simclrhn_probe2,1,203,NaN,cat,cat,pow,0203_pow_dnn_pow_cat_35_n02124075_3383.png,n02124075_3383.png,1.0,4.156688,-0.8228941,3.5210965
alexnet_w1_mlp_simclrhn_probe2,1,204,NaN,elephant,elephant,pow,0204_pow_dnn_pow_elephant_35_n02504013_474.png,n02504013_474.png,1.0,2.4087777,1.4870853,0.65173495
alexnet_w1_mlp_simclrhn_probe2,1,205,NaN,oven,chair,pow,0205_pow_dnn_pow_chair_35_n04429376_1838.png,n04429376_1838.png,0.0,-1.5659021,1.7749588,-2.3623455
alexnet_w1_mlp_simclrhn_probe2,1,206,NaN,bear,boat,pow,0206_pow_dnn_pow_boat_35_n02951358_5064.png,n02951358_5064.png,0.0,-2.4080071,1.1217254,-2.495898
alexnet_w1_mlp_simclrhn_probe2,1,207,NaN,elephant,knife,pow,0207_pow_dnn_pow_knife_35_n03041632_31037.png,n03041632_31037.png,0.0,-1.343658,0.60028404,-1.3745747
alexnet_w1_mlp_simclrhn_probe2,1,208,NaN,bear,cat,pow,0208_pow_dnn_pow_cat_35_n02123045_11501.png,n02123045_11501.png,0.0,-0.5779504,-0.46135497,-0.082445435
alexnet_w1_mlp_simclrhn_probe2,1,209,NaN,oven,keyboard,pow,0209_pow_dnn_pow_keyboard_35_n03085013_17937.png,n03085013_17937.png,0.0,-5.054208,0.0673015,-3.6214538
alexnet_w1_mlp_simclrhn_probe2,1,210,NaN,chair,chair,0,0210_pow_dnn_0_chair_35_n03376595_10881.png,n03376595_10881.png,1.0,2.3747914,1.6758152,0.4942508
alexnet_w1_mlp_simclrhn_probe2,1,211,NaN,elephant,elephant,0,0211_pow_dnn_0_elephant_35_n02504458_7302.png,n02504458_7302.png,1.0,14.007435,4.3998084,6.7936177
alexnet_w1_mlp_simclrhn_probe2,1,212,NaN,bear,airplane,pow,0212_pow_dnn_pow_airplane_35_n02690373_4704.png,n02690373_4704.png,0.0,-3.0919542,-0.0933478,-2.120335
alexnet_w1_mlp_simclrhn_probe2,1,213,NaN,car,car,0,0213_pow_dnn_0_car_35_n03100240_18756.png,n03100240_18756.png,1.0,11.789048,6.3338103,3.8574357
alexnet_w1_mlp_simclrhn_probe2,1,214,NaN,elephant,keyboard,pow,0214_pow_dnn_pow_keyboard_35_n03085013_20732.png,n03085013_20732.png,0.0,-4.2656946,-0.73603284,-2.4958477
alexnet_w1_mlp_simclrhn_probe2,1,215,NaN,bottle,bottle,pow,0215_pow_dnn_pow_bottle_35_n04579145_2999.png,n04579145_2999.png,1.0,0.7982954,0.72851574,0.049341653
alexnet_w1_mlp_simclrhn_probe2,1,216,NaN,clock,clock,pow,0216_pow_dnn_pow_clock_35_n02708093_2546.png,n02708093_2546.png,1.0,0.8328622,-0.38021687,0.85777646
alexnet_w1_mlp_simclrhn_probe2,1,217,NaN,boat,boat,0,0217_pow_dnn_0_boat_35_n03662601_13847.png,n03662601_13847.png,1.0,3.110262,1.0705214,1.4423144
alexnet_w1_mlp_simclrhn_probe2,1,218,NaN,bicycle,bicycle,0,0218_pow_dnn_0_bicycle_35_n03792782_7878.png,n03792782_7878.png,1.0,13.810237,0.48790812,9.420309
alexnet_w1_mlp_simclrhn_probe2,1,219,NaN,bear,knife,pow,0219_pow_dnn_pow_knife_35_n03041632_18959.png,n03041632_18959.png,0.0,-3.1663108,0.5028538,-2.5944912
alexnet_w1_mlp_simclrhn_probe2,1,220,NaN,bear,bear,0,0220_pow_dnn_0_bear_35_n02134418_10576.png,n02134418_10576.png,1.0,3.4415164,1.0145644,1.7161142
alexnet_w1_mlp_simclrhn_probe2,1,221,NaN,elephant,elephant,pow,0221_pow_dnn_pow_elephant_35_n02504013_213.png,n02504013_213.png,1.0,3.476728,2.5471427,0.657316
alexnet_w1_mlp_simclrhn_probe2,1,222,NaN,oven,bottle,pow,0222_pow_dnn_pow_bottle_35_n03983396_2944.png,n03983396_2944.png,0.0,-1.978296,1.9701945,-2.7920046
alexnet_w1_mlp_simclrhn_probe2,1,223,NaN,knife,truck,0,0223_pow_dnn_0_truck_35_n03796401_8964.png,n03796401_8964.png,0.0,-1.6439551,1.8725867,-2.4865706
alexnet_w1_mlp_simclrhn_probe2,1,224,NaN,oven,knife,pow,0224_pow_dnn_pow_knife_35_n03041632_13509.png,n03041632_13509.png,0.0,-0.7467387,0.3867089,-0.80146843
alexnet_w1_mlp_simclrhn_probe2,1,225,NaN,bear,bird,pow,0225_pow_dnn_pow_bird_35_n01537544_7301.png,n01537544_7301.png,0.0,-1.7003704,0.1557093,-1.3124466
alexnet_w1_mlp_simclrhn_probe2,1,226,NaN,elephant,elephant,0,0226_pow_dnn_0_elephant_35_n02504013_9618.png,n02504013_9618.png,1.0,6.8301735,2.7798238,2.86403
alexnet_w1_mlp_simclrhn_probe2,1,227,NaN,oven,keyboard,pow,0227_pow_dnn_pow_keyboard_35_n04505470_10191.png,n04505470_10191.png,0.0,-4.5968885,0.28116268,-3.4493032
alexnet_w1_mlp_simclrhn_probe2,1,228,NaN,bicycle,bicycle,pow,0228_pow_dnn_pow_bicycle_35_n02835271_20149.png,n02835271_20149.png,1.0,1.566944,-0.50907207,1.467965
alexnet_w1_mlp_simclrhn_probe2,1,229,NaN,truck,truck,0,0229_pow_dnn_0_truck_35_n04467665_2098.png,n04467665_2098.png,1.0,5.658683,1.4376159,2.984745
alexnet_w1_mlp_simclrhn_probe2,1,230,NaN,bear,bear,0,0230_pow_dnn_0_bear_35_n02133161_5274.png,n02133161_5274.png,1.0,2.3858843,0.20189674,1.5443125
alexnet_w1_mlp_simclrhn_probe2,1,231,NaN,bear,bird,pow,0231_pow_dnn_pow_bird_35_n01537544_20224.png,n01537544_20224.png,0.0,-1.4598551,-0.06117849,-0.98901373
alexnet_w1_mlp_simclrhn_probe2,1,232,NaN,dog,dog,pow,0232_pow_dnn_pow_dog_35_n02094258_6800.png,n02094258_6800.png,1.0,-0.26226965,-1.6554327,0.9851151
alexnet_w1_mlp_simclrhn_probe2,1,233,NaN,truck,truck,0,0233_pow_dnn_0_truck_35_n03417042_27326.png,n03417042_27326.png,1.0,7.071639,2.1670742,3.4680512
alexnet_w1_mlp_simclrhn_probe2,1,234,NaN,oven,oven,pow,0234_pow_dnn_pow_oven_35_n04111531_6955.png,n04111531_6955.png,1.0,2.1830976,-0.1598838,1.656738
alexnet_w1_mlp_simclrhn_probe2,1,235,NaN,clock,clock,0,0235_pow_dnn_0_clock_35_n04548280_7135.png,n04548280_7135.png,1.0,1.8085386,-0.77805096,1.8289951
alexnet_w1_mlp_simclrhn_probe2,1,236,NaN,oven,dog,pow,0236_pow_dnn_pow_dog_35_n02113023_12143.png,n02113023_12143.png,0.0,-2.4934103,0.41996196,-2.0600653
alexnet_w1_mlp_simclrhn_probe2,1,237,NaN,bicycle,bicycle,0,0237_pow_dnn_0_bicycle_35_n02835271_10832.png,n02835271_10832.png,1.0,7.042349,0.8708113,4.363936
alexnet_w1_mlp_simclrhn_probe2,1,238,NaN,oven,chair,pow,0238_pow_dnn_pow_chair_35_n02791124_28.png,n02791124_28.png,0.0,-0.093259275,2.247902,-1.655451
alexnet_w1_mlp_simclrhn_probe2,1,239,NaN,bicycle,bicycle,pow,0239_pow_dnn_pow_bicycle_35_n03792782_1715.png,n03792782_1715.png,1.0,3.067215,-0.07896389,2.2246845
alexnet_w1_mlp_simclrhn_probe2,1,240,NaN,bicycle,bicycle,0,0240_pow_dnn_0_bicycle_35_n02835271_19875.png,n02835271_19875.png,1.0,6.762571,-1.6171043,5.925325
alexnet_w1_mlp_simclrhn_probe2,1,241,NaN,bird,bird,0,0241_pow_dnn_0_bird_35_n02056570_8203.png,n02056570_8203.png,1.0,2.2872314,-2.404874,3.3178196
alexnet_w1_mlp_simclrhn_probe2,1,242,NaN,oven,car,pow,0242_pow_dnn_pow_car_35_n02814533_27588.png,n02814533_27588.png,0.0,-3.499258,0.8263932,-3.0586972
alexnet_w1_mlp_simclrhn_probe2,1,243,NaN,bear,bear,0,0243_pow_dnn_0_bear_35_n02134418_2714.png,n02134418_2714.png,1.0,2.2429338,1.3617368,0.62310034
alexnet_w1_mlp_simclrhn_probe2,1,244,NaN,bear,bear,0,0244_pow_dnn_0_bear_35_n02132136_900.png,n02132136_900.png,1.0,4.898361,-0.051178295,3.4998531
alexnet_w1_mlp_simclrhn_probe2,1,245,NaN,dog,dog,0,0245_pow_dnn_0_dog_35_n02095889_7413.png,n02095889_7413.png,1.0,0.50341636,-1.7232246,1.5744729
alexnet_w1_mlp_simclrhn_probe2,1,246,NaN,boat,boat,0,0246_pow_dnn_0_boat_35_n02951358_14877.png,n02951358_14877.png,1.0,0.43163055,-0.21698597,0.45864117
alexnet_w1_mlp_simclrhn_probe2,1,247,NaN,knife,knife,pow,0247_pow_dnn_pow_knife_35_n03041632_42472.png,n03041632_42472.png,1.0,0.42013875,-0.8164288,0.8743853
alexnet_w1_mlp_simclrhn_probe2,1,248,NaN,bottle,bottle,pow,0248_pow_dnn_pow_bottle_35_n02823428_12740.png,n02823428_12740.png,1.0,2.674281,-0.64881176,2.3497815
alexnet_w1_mlp_simclrhn_probe2,1,249,NaN,airplane,boat,0,0249_pow_dnn_0_boat_35_n02951358_2537.png,n02951358_2537.png,0.0,1.0616343,1.1425478,-0.057214517
alexnet_w1_mlp_simclrhn_probe2,1,250,NaN,dog,dog,0,0250_pow_dnn_0_dog_35_n02106166_5135.png,n02106166_5135.png,1.0,0.5016734,-1.9828581,1.756829
alexnet_w1_mlp_simclrhn_probe2,1,251,NaN,oven,oven,pow,0251_pow_dnn_pow_oven_35_n04111531_23046.png,n04111531_23046.png,1.0,2.877605,-1.2553718,2.9224558
alexnet_w1_mlp_simclrhn_probe2,1,252,NaN,dog,dog,pow,0252_pow_dnn_pow_dog_35_n02105855_3310.png,n02105855_3310.png,1.0,0.32610804,0.32384962,0.0015969442
alexnet_w1_mlp_simclrhn_probe2,1,253,NaN,bird,bird,0,0253_pow_dnn_0_bird_35_n01843383_2122.png,n01843383_2122.png,1.0,0.5436196,-2.9644737,2.4805965
alexnet_w1_mlp_simclrhn_probe2,1,254,NaN,oven,boat,pow,0254_pow_dnn_pow_boat_35_n03344393_8407.png,n03344393_8407.png,0.0,-1.6613817,-0.16933358,-1.0550374
alexnet_w1_mlp_simclrhn_probe2,1,255,NaN,clock,clock,pow,0255_pow_dnn_pow_clock_35_n04548280_4739.png,n04548280_4739.png,1.0,0.27453053,-0.7828607,0.7476885
alexnet_w1_mlp_simclrhn_probe2,1,256,NaN,keyboard,keyboard,0,0256_pow_dnn_0_keyboard_35_n04505470_3531.png,n04505470_3531.png,1.0,7.1156473,1.7617234,3.785796
alexnet_w1_mlp_simclrhn_probe2,1,257,NaN,elephant,airplane,pow,0257_pow_dnn_pow_airplane_35_n02690373_7740.png,n02690373_7740.png,0.0,-3.3793623,1.1096731,-3.1742275
alexnet_w1_mlp_simclrhn_probe2,1,258,NaN,bear,bear,pow,0258_pow_dnn_pow_bear_35_n02132136_4699.png,n02132136_4699.png,1.0,2.8124945,-0.93422323,2.6493294
alexnet_w1_mlp_simclrhn_probe2,1,259,NaN,bear,airplane,pow,0259_pow_dnn_pow_airplane_35_n02690373_5277.png,n02690373_5277.png,0.0,-0.4268621,-0.0077642053,-0.29634696
alexnet_w1_mlp_simclrhn_probe2,1,260,NaN,clock,clock,pow,0260_pow_dnn_pow_clock_35_n04548280_8841.png,n04548280_8841.png,1.0,0.047175486,-0.2136673,0.18444371
alexnet_w1_mlp_simclrhn_probe2,1,261,NaN,oven,truck,pow,0261_pow_dnn_pow_truck_35_n03796401_142.png,n03796401_142.png,0.0,-5.0352526,2.5346336,-5.352718
alexnet_w1_mlp_simclrhn_probe2,1,262,NaN,bear,bear,pow,0262_pow_dnn_pow_bear_35_n02134418_4666.png,n02134418_4666.png,1.0,0.4471695,-0.55718905,0.71018875
alexnet_w1_mlp_simclrhn_probe2,1,263,NaN,chair,chair,0,0263_pow_dnn_0_chair_35_n04429376_17074.png,n04429376_17074.png,1.0,-0.3846904,-0.7489578,0.25757596
alexnet_w1_mlp_simclrhn_probe2,1,264,NaN,dog,dog,0,0264_pow_dnn_0_dog_35_n02107683_1934.png,n02107683_1934.png,1.0,3.455216,-2.491605,4.2050376
alexnet_w1_mlp_simclrhn_probe2,1,265,NaN,bicycle,bicycle,0,0265_pow_dnn_0_bicycle_35_n03792782_3765.png,n03792782_3765.png,1.0,1.2734158,-1.8079948,2.1788864
alexnet_w1_mlp_simclrhn_probe2,1,266,NaN,elephant,elephant,pow,0266_pow_dnn_pow_elephant_35_n02504013_7026.png,n02504013_7026.png,1.0,5.728381,1.9023411,2.7054188
alexnet_w1_mlp_simclrhn_probe2,1,267,NaN,oven,clock,pow,0267_pow_dnn_pow_clock_35_n03196217_3063.png,n03196217_3063.png,0.0,-4.6154237,0.0108220875,-3.27125
alexnet_w1_mlp_simclrhn_probe2,1,268,NaN,bear,bear,pow,0268_pow_dnn_pow_bear_35_n02134418_1041.png,n02134418_1041.png,1.0,0.770316,0.45323446,0.22421052
alexnet_w1_mlp_simclrhn_probe2,1,269,NaN,boat,boat,pow,0269_pow_dnn_pow_boat_35_n03344393_8258.png,n03344393_8258.png,1.0,0.12671065,-1.300374,1.0091013
alexnet_w1_mlp_simclrhn_probe2,1,270,NaN,oven,oven,0,0270_pow_dnn_0_oven_35_n04111531_10306.png,n04111531_10306.png,1.0,5.795462,0.58346003,3.6854422
alexnet_w1_mlp_simclrhn_probe2,1,271,NaN,clock,bottle,0,0271_pow_dnn_0_bottle_35_n02823428_641.png,n02823428_641.png,0.0,1.129037,2.4204075,-0.91313684
alexnet_w1_mlp_simclrhn_probe2,1,272,NaN,oven,oven,pow,0272_pow_dnn_pow_oven_35_n04111531_1873.png,n04111531_1873.png,1.0,2.5548592,-0.40792704,2.0950062
alexnet_w1_mlp_simclrhn_probe2,1,273,NaN,bear,bear,0,0273_pow_dnn_0_bear_35_n02134418_559.png,n02134418_559.png,1.0,3.6208417,-0.10553977,2.6349497
alexnet_w1_mlp_simclrhn_probe2,1,274,NaN,oven,keyboard,pow,0274_pow_dnn_pow_keyboard_35_n04505470_4844.png,n04505470_4844.png,0.0,-1.2653787,1.3667161,-1.8611722
alexnet_w1_mlp_simclrhn_probe2,1,275,NaN,keyboard,keyboard,0,0275_pow_dnn_0_keyboard_35_n03085013_23291.png,n03085013_23291.png,1.0,6.1105013,2.6574423,2.4416814
alexnet_w1_mlp_simclrhn_probe2,1,276,NaN,car,car,0,0276_pow_dnn_0_car_35_n03100240_5808.png,n03100240_5808.png,1.0,9.118434,4.943214,2.9523265
alexnet_w1_mlp_simclrhn_probe2,1,277,NaN,boat,bear,0,0277_pow_dnn_0_bear_35_n02134084_15968.png,n02134084_15968.png,0.0,-2.0368927,-0.64461154,-0.9844914
alexnet_w1_mlp_simclrhn_probe2,1,278,NaN,bear,cat,0,0278_pow_dnn_0_cat_35_n02125311_20238.png,n02125311_20238.png,0.0,-1.8455616,0.60900044,-1.7356375
alexnet_w1_mlp_simclrhn_probe2,1,279,NaN,bird,bird,0,0279_pow_dnn_0_bird_35_n02028035_8994.png,n02028035_8994.png,1.0,1.5076207,-1.2479781,1.9485027
alexnet_w1_mlp_simclrhn_probe2,1,280,NaN,knife,airplane,pow,0280_pow_dnn_pow_airplane_35_n02690373_4471.png,n02690373_4471.png,0.0,-0.881843,0.14021538,-0.7227044
alexnet_w1_mlp_simclrhn_probe2,1,281,NaN,car,truck,0,0281_pow_dnn_0_truck_35_n03796401_322.png,n03796401_322.png,0.0,7.05749,10.29412,-2.2886431
alexnet_w1_mlp_simclrhn_probe2,1,282,NaN,oven,car,pow,0282_pow_dnn_pow_car_35_n04285008_402.png,n04285008_402.png,0.0,-4.065569,0.56894976,-3.2770996
alexnet_w1_mlp_simclrhn_probe2,1,283,NaN,oven,oven,0,0283_pow_dnn_0_oven_35_n04111531_807.png,n04111531_807.png,1.0,4.515577,1.6171038,2.04953
alexnet_w1_mlp_simclrhn_probe2,1,284,NaN,oven,oven,0,0284_pow_dnn_0_oven_35_n04111531_20369.png,n04111531_20369.png,1.0,7.442511,-3.1880665,7.5169535
alexnet_w1_mlp_simclrhn_probe2,1,285,NaN,bear,knife,pow,0285_pow_dnn_pow_knife_35_n03041632_24114.png,n03041632_24114.png,0.0,-1.8285435,1.039516,-2.0280244
alexnet_w1_mlp_simclrhn_probe2,1,286,NaN,dog,dog,0,0286_pow_dnn_0_dog_35_n02093256_1102.png,n02093256_1102.png,1.0,-0.13353974,-1.5438257,0.9972228
alexnet_w1_mlp_simclrhn_probe2,1,287,NaN,bottle,bottle,0,0287_pow_dnn_0_bottle_35_n03983396_17636.png,n03983396_17636.png,1.0,7.497215,-0.692077,5.790704
alexnet_w1_mlp_simclrhn_probe2,1,288,NaN,bird,bird,0,0288_pow_dnn_0_bird_35_n01855672_55167.png,n01855672_55167.png,1.0,0.7515594,-0.25108784,0.7089786
alexnet_w1_mlp_simclrhn_probe2,1,289,NaN,keyboard,bottle,0,0289_pow_dnn_0_bottle_35_n02823428_1149.png,n02823428_1149.png,0.0,-0.31769806,1.1950641,-1.0696844
alexnet_w1_mlp_simclrhn_probe2,1,290,NaN,oven,truck,pow,0290_pow_dnn_pow_truck_35_n03417042_1182.png,n03417042_1182.png,0.0,-2.7256722,2.4694777,-3.6735258
alexnet_w1_mlp_simclrhn_probe2,1,291,NaN,bear,bear,0,0291_pow_dnn_0_bear_35_n02134084_22051.png,n02134084_22051.png,1.0,2.5327103,-0.30509093,2.0066285
alexnet_w1_mlp_simclrhn_probe2,1,292,NaN,oven,cat,pow,0292_pow_dnn_pow_cat_35_n02123159_5170.png,n02123159_5170.png,0.0,-1.5430897,0.0805705,-1.1481012
alexnet_w1_mlp_simclrhn_probe2,1,293,NaN,airplane,airplane,pow,0293_pow_dnn_pow_airplane_35_n02690373_4042.png,n02690373_4042.png,1.0,-0.295394,-0.68951935,0.2786887
alexnet_w1_mlp_simclrhn_probe2,1,294,NaN,oven,airplane,pow,0294_pow_dnn_pow_airplane_35_n02690373_6231.png,n02690373_6231.png,0.0,-4.076646,0.9674843,-3.5667388
alexnet_w1_mlp_simclrhn_probe2,1,295,NaN,bear,bear,0,0295_pow_dnn_0_bear_35_n02134418_4657.png,n02134418_4657.png,1.0,2.9873204,1.6943328,0.9142803
alexnet_w1_mlp_simclrhn_probe2,1,296,NaN,car,car,0,0296_pow_dnn_0_car_35_n03100240_24505.png,n03100240_24505.png,1.0,5.4207764,3.4786065,1.3733215
alexnet_w1_mlp_simclrhn_probe2,1,297,NaN,bird,bird,0,0297_pow_dnn_0_bird_35_n02006656_4031.png,n02006656_4031.png,1.0,2.3672583,-3.3139489,4.01722
alexnet_w1_mlp_simclrhn_probe2,1,298,NaN,truck,truck,0,0298_pow_dnn_0_truck_35_n03796401_20861.png,n03796401_20861.png,1.0,4.3328943,2.1622055,1.5349089
alexnet_w1_mlp_simclrhn_probe2,1,299,NaN,oven,truck,0,0299_pow_dnn_0_truck_35_n03417042_4934.png,n03417042_4934.png,0.0,-0.15206116,3.8759823,-2.8482568
alexnet_w1_mlp_simclrhn_probe2,1,300,NaN,bird,bird,0,0300_pow_dnn_0_bird_35_n01824575_3046.png,n01824575_3046.png,1.0,0.95624775,-3.1259193,2.886528
alexnet_w1_mlp_simclrhn_probe2,1,301,NaN,elephant,elephant,pow,0301_pow_dnn_pow_elephant_35_n02504458_3463.png,n02504458_3463.png,1.0,1.9739127,-0.2983681,1.6067451
alexnet_w1_mlp_simclrhn_probe2,1,302,NaN,airplane,airplane,0,0302_pow_dnn_0_airplane_35_n02690373_6914.png,n02690373_6914.png,1.0,7.6013007,1.9383278,4.004327
alexnet_w1_mlp_simclrhn_probe2,1,303,NaN,bottle,bottle,0,0303_pow_dnn_0_bottle_35_n03983396_3675.png,n03983396_3675.png,1.0,1.5757864,0.040964484,1.0852829
alexnet_w1_mlp_simclrhn_probe2,1,304,NaN,dog,dog,pow,0304_pow_dnn_pow_dog_35_n02088364_12272.png,n02088364_12272.png,1.0,0.99577814,-0.46464992,1.0326786
alexnet_w1_mlp_simclrhn_probe2,1,305,NaN,dog,dog,0,0305_pow_dnn_0_dog_35_n02085936_1706.png,n02085936_1706.png,1.0,0.52734774,-2.7157526,2.2932184
alexnet_w1_mlp_simclrhn_probe2,1,306,NaN,elephant,bear,0,0306_pow_dnn_0_bear_35_n02134084_18372.png,n02134084_18372.png,0.0,2.0242383,2.564487,-0.38201347
alexnet_w1_mlp_simclrhn_probe2,1,307,NaN,keyboard,keyboard,0,0307_pow_dnn_0_keyboard_35_n04505470_751.png,n04505470_751.png,1.0,4.411277,1.4692606,2.0803196
alexnet_w1_mlp_simclrhn_probe2,1,308,NaN,bird,bird,0,0308_pow_dnn_0_bird_35_n02018207_19525.png,n02018207_19525.png,1.0,0.66206354,-0.6034224,0.89483374
alexnet_w1_mlp_simclrhn_probe2,1,309,NaN,oven,bicycle,pow,0309_pow_dnn_pow_bicycle_35_n02835271_3329.png,n02835271_3329.png,0.0,-1.3053762,1.0334324,-1.6537874
alexnet_w1_mlp_simclrhn_probe2,1,310,NaN,clock,clock,pow,0310_pow_dnn_pow_clock_35_n04548280_1960.png,n04548280_1960.png,1.0,-0.9091027,-3.0181167,1.4912982
alexnet_w1_mlp_simclrhn_probe2,1,311,NaN,chair,chair,0,0311_pow_dnn_0_chair_35_n03376595_6240.png,n03376595_6240.png,1.0,2.7523344,0.84122634,1.3513575
alexnet_w1_mlp_simclrhn_probe2,1,312,NaN,bear,knife,pow,0312_pow_dnn_pow_knife_35_n03041632_13194.png,n03041632_13194.png,0.0,-1.1661575,-0.1748093,-0.700989
alexnet_w1_mlp_simclrhn_probe2,1,313,NaN,bicycle,knife,0,0313_pow_dnn_0_knife_35_n03041632_13465.png,n03041632_13465.png,0.0,-3.3828063,1.5385076,-3.4798944
alexnet_w1_mlp_simclrhn_probe2,1,314,NaN,cat,cat,pow,0314_pow_dnn_pow_cat_35_n02125311_10174.png,n02125311_10174.png,1.0,1.303799,0.1837227,0.7920136
alexnet_w1_mlp_simclrhn_probe2,1,315,NaN,oven,car,pow,0315_pow_dnn_pow_car_35_n02814533_7420.png,n02814533_7420.png,0.0,-3.6966107,2.890054,-4.6574755
alexnet_w1_mlp_simclrhn_probe2,1,316,NaN,elephant,truck,pow,0316_pow_dnn_pow_truck_35_n04467665_3876.png,n04467665_3876.png,0.0,-1.8547529,0.36794615,-1.5716857
alexnet_w1_mlp_simclrhn_probe2,1,317,NaN,airplane,airplane,0,0317_pow_dnn_0_airplane_35_n02690373_12976.png,n02690373_12976.png,1.0,9.416428,3.2993321,4.32544
alexnet_w1_mlp_simclrhn_probe2,1,318,NaN,bear,bear,pow,0318_pow_dnn_pow_bear_35_n02133161_10441.png,n02133161_10441.png,1.0,2.3259838,1.537461,0.5575698
alexnet_w1_mlp_simclrhn_probe2,1,319,NaN,oven,chair,pow,0319_pow_dnn_pow_chair_35_n03376595_13703.png,n03376595_13703.png,0.0,-1.9688116,0.19557075,-1.5304495
alexnet_w1_mlp_simclrhn_probe2,1,320,NaN,bicycle,bicycle,pow,0320_pow_dnn_pow_bicycle_35_n03792782_11625.png,n03792782_11625.png,1.0,1.400337,-0.050853275,1.0261465
alexnet_w1_mlp_simclrhn_probe2,1,321,NaN,oven,oven,pow,0321_pow_dnn_pow_oven_35_n04111531_22797.png,n04111531_22797.png,1.0,0.9668836,-0.21020772,0.8323293
alexnet_w1_mlp_simclrhn_probe2,1,322,NaN,oven,chair,pow,0322_pow_dnn_pow_chair_35_n03376595_9651.png,n03376595_9651.png,0.0,-0.9817209,0.9375507,-1.35713
alexnet_w1_mlp_simclrhn_probe2,1,323,NaN,bear,bicycle,pow,0323_pow_dnn_pow_bicycle_35_n03792782_4830.png,n03792782_4830.png,0.0,-0.30715364,-0.18301648,-0.08777823
alexnet_w1_mlp_simclrhn_probe2,1,324,NaN,elephant,elephant,pow,0324_pow_dnn_pow_elephant_35_n02504013_7191.png,n02504013_7191.png,1.0,0.8135081,0.22758803,0.41430807
alexnet_w1_mlp_simclrhn_probe2,1,325,NaN,knife,knife,0,0325_pow_dnn_0_knife_35_n03041632_120.png,n03041632_120.png,1.0,3.2022326,-0.0025830667,2.266147
alexnet_w1_mlp_simclrhn_probe2,1,326,NaN,knife,airplane,pow,0326_pow_dnn_pow_airplane_35_n02690373_5465.png,n02690373_5465.png,0.0,-4.705566,-0.44256684,-3.0143955
alexnet_w1_mlp_simclrhn_probe2,1,327,NaN,oven,car,pow,0327_pow_dnn_pow_car_35_n04285008_8443.png,n04285008_8443.png,0.0,-1.5559031,0.50633806,-1.4582247
alexnet_w1_mlp_simclrhn_probe2,1,328,NaN,bottle,bottle,0,0328_pow_dnn_0_bottle_35_n04557648_132.png,n04557648_132.png,1.0,8.736823,-1.8917971,7.5155697
alexnet_w1_mlp_simclrhn_probe2,1,329,NaN,airplane,airplane,pow,0329_pow_dnn_pow_airplane_35_n02690373_18304.png,n02690373_18304.png,1.0,-0.60848975,-0.8094481,0.14209902
alexnet_w1_mlp_simclrhn_probe2,1,330,NaN,oven,knife,pow,0330_pow_dnn_pow_knife_35_n03041632_102764.png,n03041632_102764.png,0.0,-0.8873255,0.23888257,-0.79634935
alexnet_w1_mlp_simclrhn_probe2,1,331,NaN,oven,chair,pow,0331_pow_dnn_pow_chair_35_n02791124_16913.png,n02791124_16913.png,0.0,-0.7445648,1.3967667,-1.51415
alexnet_w1_mlp_simclrhn_probe2,1,332,NaN,bicycle,bicycle,pow,0332_pow_dnn_pow_bicycle_35_n02835271_324.png,n02835271_324.png,1.0,1.5277895,-0.3482359,1.3265504
alexnet_w1_mlp_simclrhn_probe2,1,333,NaN,airplane,airplane,pow,0333_pow_dnn_pow_airplane_35_n02690373_12966.png,n02690373_12966.png,1.0,-0.47152507,-1.3926287,0.6513186
alexnet_w1_mlp_simclrhn_probe2,1,334,NaN,elephant,keyboard,pow,0334_pow_dnn_pow_keyboard_35_n03085013_24653.png,n03085013_24653.png,0.0,-4.45938,-0.16738561,-3.0348985
alexnet_w1_mlp_simclrhn_probe2,1,335,NaN,bicycle,bicycle,0,0335_pow_dnn_0_bicycle_35_n03792782_18529.png,n03792782_18529.png,1.0,3.6123023,-1.6928451,3.7513056
alexnet_w1_mlp_simclrhn_probe2,1,336,NaN,elephant,airplane,pow,0336_pow_dnn_pow_airplane_35_n02690373_2433.png,n02690373_2433.png,0.0,-0.7336105,0.8204068,-1.0988562
alexnet_w1_mlp_simclrhn_probe2,1,337,NaN,elephant,cat,0,0337_pow_dnn_0_cat_35_n02125311_28447.png,n02125311_28447.png,0.0,-2.1370528,1.320183,-2.444635
alexnet_w1_mlp_simclrhn_probe2,1,338,NaN,knife,knife,0,0338_pow_dnn_0_knife_35_n03041632_20504.png,n03041632_20504.png,1.0,0.97097623,-0.58973217,1.1035875
alexnet_w1_mlp_simclrhn_probe2,1,339,NaN,bear,bear,pow,0339_pow_dnn_pow_bear_35_n02132136_15870.png,n02132136_15870.png,1.0,0.40093163,0.19359961,0.14660588
alexnet_w1_mlp_simclrhn_probe2,1,340,NaN,car,car,0,0340_pow_dnn_0_car_35_n02814533_11273.png,n02814533_11273.png,1.0,4.8191094,4.0979853,0.5099118
alexnet_w1_mlp_simclrhn_probe2,1,341,NaN,elephant,elephant,0,0341_pow_dnn_0_elephant_35_n02504013_2476.png,n02504013_2476.png,1.0,12.69704,1.7676109,7.7282734
alexnet_w1_mlp_simclrhn_probe2,1,342,NaN,bird,bear,0,0342_pow_dnn_0_bear_35_n02133161_14945.png,n02133161_14945.png,0.0,-0.12202595,0.42420033,-0.3862403
alexnet_w1_mlp_simclrhn_probe2,1,343,NaN,car,car,0,0343_pow_dnn_0_car_35_n04285008_7870.png,n04285008_7870.png,1.0,3.37517,2.7352529,0.45248976
alexnet_w1_mlp_simclrhn_probe2,1,344,NaN,airplane,airplane,0,0344_pow_dnn_0_airplane_35_n02690373_10129.png,n02690373_10129.png,1.0,7.780709,2.4451842,3.7727857
alexnet_w1_mlp_simclrhn_probe2,1,345,NaN,oven,truck,pow,0345_pow_dnn_pow_truck_35_n03417042_1479.png,n03417042_1479.png,0.0,-2.7266545,0.4530795,-2.2484114
alexnet_w1_mlp_simclrhn_probe2,1,346,NaN,elephant,boat,pow,0346_pow_dnn_pow_boat_35_n04612504_10662.png,n04612504_10662.png,0.0,-0.99872094,0.31516033,-0.9290544
alexnet_w1_mlp_simclrhn_probe2,1,347,NaN,bird,bird,0,0347_pow_dnn_0_bird_35_n02056570_5891.png,n02056570_5891.png,1.0,1.4369735,-2.3935947,2.7086208
alexnet_w1_mlp_simclrhn_probe2,1,348,NaN,elephant,elephant,pow,0348_pow_dnn_pow_elephant_35_n02504458_5982.png,n02504458_5982.png,1.0,3.6015701,1.4702806,1.5070493
alexnet_w1_mlp_simclrhn_probe2,1,349,NaN,oven,truck,pow,0349_pow_dnn_pow_truck_35_n03417042_19955.png,n03417042_19955.png,0.0,-0.5289283,0.10824497,-0.4505495
alexnet_w1_mlp_simclrhn_probe2,1,350,NaN,oven,oven,0,0350_pow_dnn_0_oven_35_n04111531_6120.png,n04111531_6120.png,1.0,7.2162714,-0.3393677,5.3426437
alexnet_w1_mlp_simclrhn_probe2,1,351,NaN,oven,oven,0,0351_pow_dnn_0_oven_35_n04111531_4750.png,n04111531_4750.png,1.0,2.9986048,-1.9588658,3.505461
alexnet_w1_mlp_simclrhn_probe2,1,352,NaN,boat,boat,0,0352_pow_dnn_0_boat_35_n02951358_29779.png,n02951358_29779.png,1.0,5.543916,-0.09734632,3.988975
alexnet_w1_mlp_simclrhn_probe2,1,353,NaN,bear,bear,0,0353_pow_dnn_0_bear_35_n02134084_14168.png,n02134084_14168.png,1.0,1.3649418,0.6194284,0.5271576
alexnet_w1_mlp_simclrhn_probe2,1,354,NaN,cat,cat,0,0354_pow_dnn_0_cat_35_n02123597_6990.png,n02123597_6990.png,1.0,1.7715508,0.6246042,0.8110137
alexnet_w1_mlp_simclrhn_probe2,1,355,NaN,chair,chair,0,0355_pow_dnn_0_chair_35_n02791124_2008.png,n02791124_2008.png,1.0,3.6803818,-0.40356922,2.8877895
alexnet_w1_mlp_simclrhn_probe2,1,356,NaN,knife,car,pow,0356_pow_dnn_pow_car_35_n04285008_2185.png,n04285008_2185.png,0.0,-5.2276273,0.09176788,-3.7613804
alexnet_w1_mlp_simclrhn_probe2,1,357,NaN,bear,bear,0,0357_pow_dnn_0_bear_35_n02134084_13205.png,n02134084_13205.png,1.0,-0.31632614,-0.5968853,0.1983853
alexnet_w1_mlp_simclrhn_probe2,1,358,NaN,elephant,bird,pow,0358_pow_dnn_pow_bird_35_n01558993_6351.png,n01558993_6351.png,0.0,-1.8590574,0.50308263,-1.6702853
alexnet_w1_mlp_simclrhn_probe2,1,359,NaN,car,bicycle,0,0359_pow_dnn_0_bicycle_35_n02835271_8017.png,n02835271_8017.png,0.0,1.4559978,4.259134,-1.9821165
alexnet_w1_mlp_simclrhn_probe2,1,360,NaN,cat,cat,0,0360_pow_dnn_0_cat_35_n02124075_4189.png,n02124075_4189.png,1.0,8.479971,-2.2559524,7.5914445
alexnet_w1_mlp_simclrhn_probe2,1,361,NaN,elephant,elephant,pow,0361_pow_dnn_pow_elephant_35_n02504458_3616.png,n02504458_3616.png,1.0,7.04609,2.6480083,3.1099136
alexnet_w1_mlp_simclrhn_probe2,1,362,NaN,boat,boat,pow,0362_pow_dnn_pow_boat_35_n04612504_8636.png,n04612504_8636.png,1.0,1.9372966,0.209061,1.2220471
alexnet_w1_mlp_simclrhn_probe2,1,363,NaN,oven,car,pow,0363_pow_dnn_pow_car_35_n03100240_10502.png,n03100240_10502.png,0.0,-4.3225856,2.149976,-4.5767922
alexnet_w1_mlp_simclrhn_probe2,1,364,NaN,bottle,bottle,0,0364_pow_dnn_0_bottle_35_n03983396_2271.png,n03983396_2271.png,1.0,-0.34822002,-2.927739,1.8239952
alexnet_w1_mlp_simclrhn_probe2,1,365,NaN,clock,clock,0,0365_pow_dnn_0_clock_35_n04548280_280.png,n04548280_280.png,1.0,3.385666,0.54330385,2.0098534
alexnet_w1_mlp_simclrhn_probe2,1,366,NaN,airplane,truck,0,0366_pow_dnn_0_truck_35_n04467665_356.png,n04467665_356.png,0.0,0.7846316,4.1280785,-2.364174
alexnet_w1_mlp_simclrhn_probe2,1,367,NaN,airplane,airplane,0,0367_pow_dnn_0_airplane_35_n02690373_306.png,n02690373_306.png,1.0,10.430161,0.5961882,6.953669
alexnet_w1_mlp_simclrhn_probe2,1,368,NaN,elephant,bird,pow,0368_pow_dnn_pow_bird_35_n02007558_11331.png,n02007558_11331.png,0.0,-1.5981023,2.2759733,-2.7393851
alexnet_w1_mlp_simclrhn_probe2,1,369,NaN,cat,dog,0,0369_pow_dnn_0_dog_35_n02105162_1003.png,n02105162_1003.png,0.0,-0.008952488,0.25845358,-0.18908465
alexnet_w1_mlp_simclrhn_probe2,1,370,NaN,oven,bird,pow,0370_pow_dnn_pow_bird_35_n01534433_11695.png,n01534433_11695.png,0.0,-1.5277668,1.32512,-2.0172956
alexnet_w1_mlp_simclrhn_probe2,1,371,NaN,oven,oven,0,0371_pow_dnn_0_oven_35_n04111531_19631.png,n04111531_19631.png,1.0,6.5281487,1.2152029,3.7568202
alexnet_w1_mlp_simclrhn_probe2,1,372,NaN,elephant,elephant,pow,0372_pow_dnn_pow_elephant_35_n02504013_8534.png,n02504013_8534.png,1.0,2.6661334,0.6482632,1.4268497
alexnet_w1_mlp_simclrhn_probe2,1,373,NaN,keyboard,oven,0,0373_pow_dnn_0_oven_35_n04111531_10436.png,n04111531_10436.png,0.0,0.791513,1.8873541,-0.7748767
alexnet_w1_mlp_simclrhn_probe2,1,374,NaN,airplane,airplane,pow,0374_pow_dnn_pow_airplane_35_n02690373_1819.png,n02690373_1819.png,1.0,0.12199552,-1.1037068,0.8667025
alexnet_w1_mlp_simclrhn_probe2,1,375,NaN,cat,cat,0,0375_pow_dnn_0_cat_35_n02123597_14032.png,n02123597_14032.png,1.0,-0.75638217,-1.7217537,0.68262076
alexnet_w1_mlp_simclrhn_probe2,1,376,NaN,elephant,elephant,0,0376_pow_dnn_0_elephant_35_n02504013_10922.png,n02504013_10922.png,1.0,3.4987478,-0.1321412,2.5674262
alexnet_w1_mlp_simclrhn_probe2,1,377,NaN,boat,boat,0,0377_pow_dnn_0_boat_35_n03662601_81.png,n03662601_81.png,1.0,3.6170406,1.6313878,1.4040686
alexnet_w1_mlp_simclrhn_probe2,1,378,NaN,bottle,bottle,pow,0378_pow_dnn_pow_bottle_35_n03937543_11347.png,n03937543_11347.png,1.0,0.7156195,0.4822415,0.16502316
alexnet_w1_mlp_simclrhn_probe2,1,379,NaN,bear,knife,pow,0379_pow_dnn_pow_knife_35_n03041632_85416.png,n03041632_85416.png,0.0,-2.2313244,0.72667015,-2.091618
alexnet_w1_mlp_simclrhn_probe2,1,380,NaN,car,car,pow,0380_pow_dnn_pow_car_35_n03100240_15676.png,n03100240_15676.png,1.0,1.5748702,1.2796519,0.2087509
alexnet_w1_mlp_simclrhn_probe2,1,381,NaN,oven,oven,0,0381_pow_dnn_0_oven_35_n04111531_4189.png,n04111531_4189.png,1.0,3.774919,-0.73693335,3.1903615
alexnet_w1_mlp_simclrhn_probe2,1,382,NaN,oven,car,pow,0382_pow_dnn_pow_car_35_n02814533_65623.png,n02814533_65623.png,0.0,-1.3381127,0.52866447,-1.3200108
alexnet_w1_mlp_simclrhn_probe2,1,383,NaN,airplane,airplane,0,0383_pow_dnn_0_airplane_35_n02690373_4945.png,n02690373_4945.png,1.0,15.865171,-1.6545013,12.388279
alexnet_w1_mlp_simclrhn_probe2,1,384,NaN,bicycle,dog,0,0384_pow_dnn_0_dog_35_n02088364_5801.png,n02088364_5801.png,0.0,-0.731669,-0.13998145,-0.41838628
alexnet_w1_mlp_simclrhn_probe2,1,385,NaN,bear,dog,pow,0385_pow_dnn_pow_dog_35_n02108915_8164.png,n02108915_8164.png,0.0,-0.9939151,0.05228007,-0.7397717
alexnet_w1_mlp_simclrhn_probe2,1,386,NaN,car,car,0,0386_pow_dnn_0_car_35_n03100240_1435.png,n03100240_1435.png,1.0,11.722397,9.452904,1.604774
alexnet_w1_mlp_simclrhn_probe2,1,387,NaN,clock,clock,0,0387_pow_dnn_0_clock_35_n03196217_412.png,n03196217_412.png,1.0,0.14025427,-0.062519744,0.14338289
alexnet_w1_mlp_simclrhn_probe2,1,388,NaN,bicycle,boat,pow,0388_pow_dnn_pow_boat_35_n03344393_6713.png,n03344393_6713.png,0.0,-1.7195667,-0.79702306,-0.6523369
alexnet_w1_mlp_simclrhn_probe2,1,389,NaN,knife,knife,0,0389_pow_dnn_0_knife_35_n03041632_4305.png,n03041632_4305.png,1.0,-0.33891386,-0.37345463,0.024424015
alexnet_w1_mlp_simclrhn_probe2,1,390,NaN,oven,car,pow,0390_pow_dnn_pow_car_35_n04285008_10287.png,n04285008_10287.png,0.0,-4.98047,2.1262953,-5.0252423
alexnet_w1_mlp_simclrhn_probe2,1,391,NaN,bottle,car,pow,0391_pow_dnn_pow_car_35_n04285008_15071.png,n04285008_15071.png,0.0,-3.8462064,-0.07002359,-2.6701646
alexnet_w1_mlp_simclrhn_probe2,1,392,NaN,oven,knife,pow,0392_pow_dnn_pow_knife_35_n03041632_22214.png,n03041632_22214.png,0.0,-0.016392767,-0.013195485,-0.0022608202
alexnet_w1_mlp_simclrhn_probe2,1,393,NaN,boat,boat,pow,0393_pow_dnn_pow_boat_35_n04612504_3064.png,n04612504_3064.png,1.0,0.60791475,-0.6193163,0.86778337
alexnet_w1_mlp_simclrhn_probe2,1,394,NaN,chair,chair,0,0394_pow_dnn_0_chair_35_n02791124_7193.png,n02791124_7193.png,1.0,3.3709702,-0.95153445,3.0564723
alexnet_w1_mlp_simclrhn_probe2,1,395,NaN,boat,boat,0,0395_pow_dnn_0_boat_35_n03344393_5511.png,n03344393_5511.png,1.0,11.310249,3.1569028,5.765287
alexnet_w1_mlp_simclrhn_probe2,1,396,NaN,boat,boat,pow,0396_pow_dnn_pow_boat_35_n04273569_11997.png,n04273569_11997.png,1.0,0.46244422,0.3357889,0.08955883
alexnet_w1_mlp_simclrhn_probe2,1,397,NaN,bicycle,bicycle,0,0397_pow_dnn_0_bicycle_35_n03792782_1424.png,n03792782_1424.png,1.0,0.119680166,-1.2811542,0.9905395
alexnet_w1_mlp_simclrhn_probe2,1,398,NaN,oven,clock,pow,0398_pow_dnn_pow_clock_35_n03196217_3362.png,n03196217_3362.png,0.0,-3.2668478,1.1666379,-3.134948
alexnet_w1_mlp_simclrhn_probe2,1,399,NaN,oven,truck,pow,0399_pow_dnn_pow_truck_35_n04467665_21942.png,n04467665_21942.png,0.0,-2.5096548,0.00020284951,-1.7747374
alexnet_w1_mlp_simclrhn_probe2,1,400,NaN,oven,oven,0,0400_pow_dnn_0_oven_35_n04111531_6445.png,n04111531_6445.png,1.0,6.0373764,0.70511675,3.770477
alexnet_w1_mlp_simclrhn_probe2,1,401,NaN,chair,chair,0,0401_pow_dnn_0_chair_35_n04099969_1163.png,n04099969_1163.png,1.0,4.794401,-0.15595528,3.5004306
alexnet_w1_mlp_simclrhn_probe2,1,402,NaN,clock,clock,pow,0402_pow_dnn_pow_clock_35_n02708093_3645.png,n02708093_3645.png,1.0,1.9271177,-0.392406,1.640151
alexnet_w1_mlp_simclrhn_probe2,1,403,NaN,bicycle,bicycle,0,0403_pow_dnn_0_bicycle_35_n03792782_68319.png,n03792782_68319.png,1.0,9.63509,-2.3871753,8.501025
alexnet_w1_mlp_simclrhn_probe2,1,404,NaN,dog,dog,pow,0404_pow_dnn_pow_dog_35_n02111129_513.png,n02111129_513.png,1.0,0.1087511,-0.13165036,0.16998951
alexnet_w1_mlp_simclrhn_probe2,1,405,NaN,airplane,airplane,pow,0405_pow_dnn_pow_airplane_35_n02690373_2676.png,n02690373_2676.png,1.0,0.759305,-0.80777895,1.1080958
alexnet_w1_mlp_simclrhn_probe2,1,406,NaN,airplane,airplane,0,0406_pow_dnn_0_airplane_35_n02690373_1206.png,n02690373_1206.png,1.0,2.2746847,0.9171931,0.95989144
alexnet_w1_mlp_simclrhn_probe2,1,407,NaN,dog,dog,0,0407_pow_dnn_0_dog_35_n02100735_1445.png,n02100735_1445.png,1.0,5.725679,-7.039877,9.026611
alexnet_w1_mlp_simclrhn_probe2,1,408,NaN,bear,dog,pow,0408_pow_dnn_pow_dog_35_n02102040_312.png,n02102040_312.png,0.0,-0.6844967,-0.4907934,-0.13696891
alexnet_w1_mlp_simclrhn_probe2,1,409,NaN,keyboard,keyboard,0,0409_pow_dnn_0_keyboard_35_n03085013_22996.png,n03085013_22996.png,1.0,7.65771,0.913321,4.7690034
alexnet_w1_mlp_simclrhn_probe2,1,410,NaN,boat,boat,0,0410_pow_dnn_0_boat_35_n04612504_434.png,n04612504_434.png,1.0,4.784772,2.083976,1.9097512
alexnet_w1_mlp_simclrhn_probe2,1,411,NaN,cat,cat,0,0411_pow_dnn_0_cat_35_n02123597_14639.png,n02123597_14639.png,1.0,2.7212818,0.049418982,1.8892924
alexnet_w1_mlp_simclrhn_probe2,1,412,NaN,cat,cat,pow,0412_pow_dnn_pow_cat_35_n02123159_2043.png,n02123159_2043.png,1.0,1.7498182,-0.46867067,1.5687085
alexnet_w1_mlp_simclrhn_probe2,1,413,NaN,oven,clock,pow,0413_pow_dnn_pow_clock_35_n03196217_3647.png,n03196217_3647.png,0.0,-2.6561873,2.1602502,-3.4057357
alexnet_w1_mlp_simclrhn_probe2,1,414,NaN,oven,oven,0,0414_pow_dnn_0_oven_35_n04111531_19795.png,n04111531_19795.png,1.0,3.6186428,-1.6997308,3.7606583
alexnet_w1_mlp_simclrhn_probe2,1,415,NaN,oven,truck,pow,0415_pow_dnn_pow_truck_35_n03417042_18625.png,n03417042_18625.png,0.0,-4.6667128,0.5028722,-3.655449
alexnet_w1_mlp_simclrhn_probe2,1,416,NaN,elephant,elephant,pow,0416_pow_dnn_pow_elephant_35_n02504013_1763.png,n02504013_1763.png,1.0,1.0176748,0.23218553,0.5554248
alexnet_w1_mlp_simclrhn_probe2,1,417,NaN,chair,chair,0,0417_pow_dnn_0_chair_35_n04099969_13105.png,n04099969_13105.png,1.0,2.63049,0.54076433,1.4776592
alexnet_w1_mlp_simclrhn_probe2,1,418,NaN,elephant,bicycle,pow,0418_pow_dnn_pow_bicycle_35_n03792782_4931.png,n03792782_4931.png,0.0,-0.30138212,0.8626777,-0.82311463
alexnet_w1_mlp_simclrhn_probe2,1,419,NaN,bear,bear,0,0419_pow_dnn_0_bear_35_n02134418_4513.png,n02134418_4513.png,1.0,2.543629,-0.73186684,2.3161254
alexnet_w1_mlp_simclrhn_probe2,1,420,NaN,cat,cat,pow,0420_pow_dnn_pow_cat_35_n02123045_11224.png,n02123045_11224.png,1.0,4.2091265,-0.028014034,2.996111
alexnet_w1_mlp_simclrhn_probe2,1,421,NaN,oven,chair,0,0421_pow_dnn_0_chair_35_n02791124_359.png,n02791124_359.png,0.0,0.9182,1.3114148,-0.27804488
alexnet_w1_mlp_simclrhn_probe2,1,422,NaN,knife,clock,pow,0422_pow_dnn_pow_clock_35_n04548280_2654.png,n04548280_2654.png,0.0,-1.2339226,0.55130184,-1.2623444
alexnet_w1_mlp_simclrhn_probe2,1,423,NaN,bear,cat,pow,0423_pow_dnn_pow_cat_35_n02123394_4713.png,n02123394_4713.png,0.0,-0.17116566,0.6616486,-0.5888886
alexnet_w1_mlp_simclrhn_probe2,1,424,NaN,boat,bottle,pow,0424_pow_dnn_pow_bottle_35_n04557648_94.png,n04557648_94.png,0.0,-3.6327763,0.321559,-2.7961373
alexnet_w1_mlp_simclrhn_probe2,1,425,NaN,chair,chair,0,0425_pow_dnn_0_chair_35_n04099969_15676.png,n04099969_15676.png,1.0,4.3270326,0.56835985,2.657783
alexnet_w1_mlp_simclrhn_probe2,1,426,NaN,oven,boat,pow,0426_pow_dnn_pow_boat_35_n02951358_537.png,n02951358_537.png,0.0,-1.5306143,1.3988825,-2.0714672
alexnet_w1_mlp_simclrhn_probe2,1,427,NaN,clock,clock,0,0427_pow_dnn_0_clock_35_n03196217_1376.png,n03196217_1376.png,1.0,1.5694976,1.0979363,0.3334442
alexnet_w1_mlp_simclrhn_probe2,1,428,NaN,oven,chair,pow,0428_pow_dnn_pow_chair_35_n02791124_1594.png,n02791124_1594.png,0.0,-0.748266,1.264534,-1.4232645
alexnet_w1_mlp_simclrhn_probe2,1,429,NaN,elephant,bird,0,0429_pow_dnn_0_bird_35_n02007558_7112.png,n02007558_7112.png,0.0,-2.06989,-1.3026478,-0.5425222
alexnet_w1_mlp_simclrhn_probe2,1,430,NaN,bicycle,bicycle,0,0430_pow_dnn_0_bicycle_35_n02835271_6094.png,n02835271_6094.png,1.0,9.538361,-2.3743923,8.423589
alexnet_w1_mlp_simclrhn_probe2,1,431,NaN,oven,airplane,pow,0431_pow_dnn_pow_airplane_35_n02690373_7676.png,n02690373_7676.png,0.0,-0.8238922,0.02613157,-0.6010576
alexnet_w1_mlp_simclrhn_probe2,1,432,NaN,cat,cat,pow,0432_pow_dnn_pow_cat_35_n02123045_3375.png,n02123045_3375.png,1.0,3.5172129,-0.37410766,2.751579
alexnet_w1_mlp_simclrhn_probe2,1,433,NaN,bicycle,bicycle,0,0433_pow_dnn_0_bicycle_35_n02835271_15617.png,n02835271_15617.png,1.0,11.516752,2.9829628,6.034301
alexnet_w1_mlp_simclrhn_probe2,1,434,NaN,oven,oven,pow,0434_pow_dnn_pow_oven_35_n04111531_4904.png,n04111531_4904.png,1.0,0.80193913,0.14860423,0.46197757
alexnet_w1_mlp_simclrhn_probe2,1,435,NaN,boat,boat,0,0435_pow_dnn_0_boat_35_n02951358_5718.png,n02951358_5718.png,1.0,2.4637518,-0.60294163,2.1684797
alexnet_w1_mlp_simclrhn_probe2,1,436,NaN,elephant,elephant,pow,0436_pow_dnn_pow_elephant_35_n02504013_7467.png,n02504013_7467.png,1.0,0.68644035,0.4854433,0.14212638
alexnet_w1_mlp_simclrhn_probe2,1,437,NaN,elephant,elephant,pow,0437_pow_dnn_pow_elephant_35_n02504013_1830.png,n02504013_1830.png,1.0,11.245992,3.9229326,5.178185
alexnet_w1_mlp_simclrhn_probe2,1,438,NaN,truck,car,0,0438_pow_dnn_0_car_35_n02814533_59762.png,n02814533_59762.png,0.0,3.6286914,4.10306,-0.33542907
alexnet_w1_mlp_simclrhn_probe2,1,439,NaN,oven,bicycle,pow,0439_pow_dnn_pow_bicycle_35_n02835271_771.png,n02835271_771.png,0.0,-2.2364762,1.7024412,-2.7852352
alexnet_w1_mlp_simclrhn_probe2,1,440,NaN,oven,bicycle,pow,0440_pow_dnn_pow_bicycle_35_n02835271_4313.png,n02835271_4313.png,0.0,-1.9849505,0.1567125,-1.5143845
alexnet_w1_mlp_simclrhn_probe2,1,441,NaN,bear,bear,0,0441_pow_dnn_0_bear_35_n02132136_891.png,n02132136_891.png,1.0,7.4396296,3.6921592,2.6498618
alexnet_w1_mlp_simclrhn_probe2,1,442,NaN,bear,bear,pow,0442_pow_dnn_pow_bear_35_n02132136_18276.png,n02132136_18276.png,1.0,1.9462414,0.6386728,0.9245906
alexnet_w1_mlp_simclrhn_probe2,1,443,NaN,elephant,elephant,pow,0443_pow_dnn_pow_elephant_35_n02504013_2865.png,n02504013_2865.png,1.0,4.4178047,1.3132694,2.195238
alexnet_w1_mlp_simclrhn_probe2,1,444,NaN,boat,boat,0,0444_pow_dnn_0_boat_35_n03662601_10120.png,n03662601_10120.png,1.0,7.5180764,2.3643265,3.6442516
alexnet_w1_mlp_simclrhn_probe2,1,445,NaN,knife,bottle,pow,0445_pow_dnn_pow_bottle_35_n03983396_4241.png,n03983396_4241.png,0.0,-1.8590473,-1.1429842,-0.5063331
alexnet_w1_mlp_simclrhn_probe2,1,446,NaN,elephant,elephant,pow,0446_pow_dnn_pow_elephant_35_n02504458_8254.png,n02504458_8254.png,1.0,0.84501576,0.5106708,0.2364176
alexnet_w1_mlp_simclrhn_probe2,1,447,NaN,elephant,boat,pow,0447_pow_dnn_pow_boat_35_n04612504_857.png,n04612504_857.png,0.0,-1.9470246,-0.012836557,-1.3676775
alexnet_w1_mlp_simclrhn_probe2,1,448,NaN,oven,car,pow,0448_pow_dnn_pow_car_35_n04285008_6037.png,n04285008_6037.png,0.0,-5.4555793,1.8585196,-5.171849
alexnet_w1_mlp_simclrhn_probe2,1,449,NaN,elephant,elephant,pow,0449_pow_dnn_pow_elephant_35_n02504458_2888.png,n02504458_2888.png,1.0,3.428263,0.45316115,2.1037147
alexnet_w1_mlp_simclrhn_probe2,1,450,NaN,elephant,elephant,0,0450_pow_dnn_0_elephant_35_n02504013_6257.png,n02504013_6257.png,1.0,4.70338,-1.202868,4.176348
alexnet_w1_mlp_simclrhn_probe2,1,451,NaN,car,car,0,0451_pow_dnn_0_car_35_n04285008_8616.png,n04285008_8616.png,1.0,16.553932,12.33509,2.9831722
alexnet_w1_mlp_simclrhn_probe2,1,452,NaN,bird,bird,0,0452_pow_dnn_0_bird_35_n01537544_5372.png,n01537544_5372.png,1.0,-0.16426203,-1.9084448,1.2333235
alexnet_w1_mlp_simclrhn_probe2,1,453,NaN,bird,airplane,pow,0453_pow_dnn_pow_airplane_35_n02690373_2498.png,n02690373_2498.png,0.0,-1.354354,0.20954755,-1.1058455
alexnet_w1_mlp_simclrhn_probe2,1,454,NaN,dog,dog,0,0454_pow_dnn_0_dog_35_n02099601_2980.png,n02099601_2980.png,1.0,0.94942343,-0.7508635,1.2022843
alexnet_w1_mlp_simclrhn_probe2,1,455,NaN,oven,keyboard,pow,0455_pow_dnn_pow_keyboard_35_n04505470_1904.png,n04505470_1904.png,0.0,-5.3528805,1.4483232,-4.8091774
alexnet_w1_mlp_simclrhn_probe2,1,456,NaN,airplane,airplane,0,0456_pow_dnn_0_airplane_35_n02690373_2967.png,n02690373_2967.png,1.0,5.073242,1.0367315,2.854244
alexnet_w1_mlp_simclrhn_probe2,1,457,NaN,car,car,0,0457_pow_dnn_0_car_35_n04285008_7508.png,n04285008_7508.png,1.0,9.501954,8.166617,0.94422567
alexnet_w1_mlp_simclrhn_probe2,1,458,NaN,bird,bird,0,0458_pow_dnn_0_bird_35_n02051845_6652.png,n02051845_6652.png,1.0,1.742018,-2.3876734,2.9201326
alexnet_w1_mlp_simclrhn_probe2,1,459,NaN,oven,truck,pow,0459_pow_dnn_pow_truck_35_n03796401_6737.png,n03796401_6737.png,0.0,-2.3995953,1.5971625,-2.8261344
alexnet_w1_mlp_simclrhn_probe2,1,460,NaN,oven,bottle,pow,0460_pow_dnn_pow_bottle_35_n03937543_2177.png,n03937543_2177.png,0.0,-1.6022073,-0.6749677,-0.6556574
alexnet_w1_mlp_simclrhn_probe2,1,461,NaN,oven,keyboard,pow,0461_pow_dnn_pow_keyboard_35_n03085013_6432.png,n03085013_6432.png,0.0,-4.874348,0.31367937,-3.6684895
alexnet_w1_mlp_simclrhn_probe2,1,462,NaN,bird,bird,0,0462_pow_dnn_0_bird_35_n01530575_10212.png,n01530575_10212.png,1.0,2.0668788,-3.5300448,3.9576228
alexnet_w1_mlp_simclrhn_probe2,1,463,NaN,oven,boat,pow,0463_pow_dnn_pow_boat_35_n04273569_31649.png,n04273569_31649.png,0.0,-1.6083975,1.161431,-1.9585644
alexnet_w1_mlp_simclrhn_probe2,1,464,NaN,keyboard,keyboard,0,0464_pow_dnn_0_keyboard_35_n04505470_2869.png,n04505470_2869.png,1.0,14.577351,0.7152273,9.802002
alexnet_w1_mlp_simclrhn_probe2,1,465,NaN,oven,oven,0,0465_pow_dnn_0_oven_35_n04111531_5110.png,n04111531_5110.png,1.0,4.8341575,-0.1476705,3.5226843
alexnet_w1_mlp_simclrhn_probe2,1,466,NaN,bottle,bottle,pow,0466_pow_dnn_pow_bottle_35_n04579145_4389.png,n04579145_4389.png,1.0,1.6493491,-0.69392365,1.656944
alexnet_w1_mlp_simclrhn_probe2,1,467,NaN,bottle,bottle,0,0467_pow_dnn_0_bottle_35_n04557648_9310.png,n04557648_9310.png,1.0,1.198789,-0.049226213,0.88248
alexnet_w1_mlp_simclrhn_probe2,1,468,NaN,bear,dog,pow,0468_pow_dnn_pow_dog_35_n02108000_6061.png,n02108000_6061.png,0.0,-1.2837684,1.1424196,-1.715574
alexnet_w1_mlp_simclrhn_probe2,1,469,NaN,elephant,knife,pow,0469_pow_dnn_pow_knife_35_n03041632_84240.png,n03041632_84240.png,0.0,-1.0644686,0.7374032,-1.2741158
alexnet_w1_mlp_simclrhn_probe2,1,470,NaN,oven,cat,pow,0470_pow_dnn_pow_cat_35_n02123394_3718.png,n02123394_3718.png,0.0,-1.4561378,0.8141706,-1.6053506
alexnet_w1_mlp_simclrhn_probe2,1,471,NaN,bear,dog,pow,0471_pow_dnn_pow_dog_35_n02098105_2157.png,n02098105_2157.png,0.0,-0.5898313,0.50992477,-0.77764493
alexnet_w1_mlp_simclrhn_probe2,1,472,NaN,clock,clock,0,0472_pow_dnn_0_clock_35_n04548280_2601.png,n04548280_2601.png,1.0,5.318951,-1.4267554,4.769935
alexnet_w1_mlp_simclrhn_probe2,1,473,NaN,dog,cat,0,0473_pow_dnn_0_cat_35_n02123394_4286.png,n02123394_4286.png,0.0,-0.8644039,0.7279929,-1.1259946
alexnet_w1_mlp_simclrhn_probe2,1,474,NaN,bottle,bottle,0,0474_pow_dnn_0_bottle_35_n02823428_4569.png,n02823428_4569.png,1.0,11.291213,-0.09362733,8.050298
alexnet_w1_mlp_simclrhn_probe2,1,475,NaN,oven,bird,pow,0475_pow_dnn_pow_bird_35_n02017213_15747.png,n02017213_15747.png,0.0,-2.3285608,0.83498645,-2.2369657
alexnet_w1_mlp_simclrhn_probe2,1,476,NaN,bicycle,bicycle,0,0476_pow_dnn_0_bicycle_35_n03792782_11390.png,n03792782_11390.png,1.0,0.21055278,-0.73368365,0.667676
alexnet_w1_mlp_simclrhn_probe2,1,477,NaN,car,car,0,0477_pow_dnn_0_car_35_n02814533_4374.png,n02814533_4374.png,1.0,15.056736,9.1711235,4.1617565
alexnet_w1_mlp_simclrhn_probe2,1,478,NaN,keyboard,keyboard,0,0478_pow_dnn_0_keyboard_35_n04505470_5137.png,n04505470_5137.png,1.0,5.757822,0.60293114,3.6450584
alexnet_w1_mlp_simclrhn_probe2,1,479,NaN,elephant,elephant,0,0479_pow_dnn_0_elephant_35_n02504013_306.png,n02504013_306.png,1.0,10.840544,3.1694412,5.4242887
alexnet_w1_mlp_simclrhn_probe2,1,480,NaN,bicycle,boat,0,0480_pow_dnn_0_boat_35_n02951358_14624.png,n02951358_14624.png,0.0,1.31897,5.6986136,-3.0968757
alexnet_w1_mlp_simclrhn_probe2,1,481,NaN,bear,cat,pow,0481_pow_dnn_pow_cat_35_n02125311_28114.png,n02125311_28114.png,0.0,-0.4232547,0.49303216,-0.6479126
alexnet_w1_mlp_simclrhn_probe2,1,482,NaN,car,car,pow,0482_pow_dnn_pow_car_35_n03100240_6259.png,n03100240_6259.png,1.0,0.3833281,0.17013942,0.15074718
alexnet_w1_mlp_simclrhn_probe2,1,483,NaN,elephant,cat,pow,0483_pow_dnn_pow_cat_35_n02125311_12361.png,n02125311_12361.png,0.0,-1.0470288,1.5497735,-1.8362164
alexnet_w1_mlp_simclrhn_probe2,1,484,NaN,bird,bird,0,0484_pow_dnn_0_bird_35_n01833805_16468.png,n01833805_16468.png,1.0,-0.84569544,-2.134705,0.91146743
alexnet_w1_mlp_simclrhn_probe2,1,485,NaN,bear,dog,pow,0485_pow_dnn_pow_dog_35_n02110063_6748.png,n02110063_6748.png,0.0,-1.0223534,0.588766,-1.1392335
alexnet_w1_mlp_simclrhn_probe2,1,486,NaN,oven,clock,pow,0486_pow_dnn_pow_clock_35_n04548280_2943.png,n04548280_2943.png,0.0,-2.4263895,2.3399823,-3.370334
alexnet_w1_mlp_simclrhn_probe2,1,487,NaN,oven,chair,pow,0487_pow_dnn_pow_chair_35_n03376595_14619.png,n03376595_14619.png,0.0,-1.9918766,0.63650894,-1.8585492
alexnet_w1_mlp_simclrhn_probe2,1,488,NaN,car,car,0,0488_pow_dnn_0_car_35_n03100240_5719.png,n03100240_5719.png,1.0,13.001148,8.148323,3.4314656
alexnet_w1_mlp_simclrhn_probe2,1,489,NaN,bicycle,dog,0,0489_pow_dnn_0_dog_35_n02093754_4677.png,n02093754_4677.png,0.0,-0.43053836,0.006727636,-0.30919376
alexnet_w1_mlp_simclrhn_probe2,1,490,NaN,boat,boat,pow,0490_pow_dnn_pow_boat_35_n04273569_113.png,n04273569_113.png,1.0,1.0174844,0.057039596,0.67913705
alexnet_w1_mlp_simclrhn_probe2,1,491,NaN,clock,clock,pow,0491_pow_dnn_pow_clock_35_n02708093_148.png,n02708093_148.png,1.0,-0.7520928,-1.3095499,0.39418173
alexnet_w1_mlp_simclrhn_probe2,1,492,NaN,cat,cat,0,0492_pow_dnn_0_cat_35_n02125311_53223.png,n02125311_53223.png,1.0,4.7157474,0.9150897,2.687471
alexnet_w1_mlp_simclrhn_probe2,1,493,NaN,bottle,knife,0,0493_pow_dnn_0_knife_35_n03041632_7982.png,n03041632_7982.png,0.0,-0.445544,0.68434274,-0.7989506
alexnet_w1_mlp_simclrhn_probe2,1,494,NaN,elephant,elephant,0,0494_pow_dnn_0_elephant_35_n02504013_7273.png,n02504013_7273.png,1.0,4.5589046,-2.0177808,4.6504188
alexnet_w1_mlp_simclrhn_probe2,1,495,NaN,oven,truck,pow,0495_pow_dnn_pow_truck_35_n03417042_26102.png,n03417042_26102.png,0.0,-1.8955175,1.3339322,-2.2835658
alexnet_w1_mlp_simclrhn_probe2,1,496,NaN,car,car,pow,0496_pow_dnn_pow_car_35_n02814533_874.png,n02814533_874.png,1.0,-0.18789612,-0.29730093,0.07736089
alexnet_w1_mlp_simclrhn_probe2,1,497,NaN,bicycle,bicycle,0,0497_pow_dnn_0_bicycle_35_n03792782_21148.png,n03792782_21148.png,1.0,3.3398373,-0.5297727,2.7362275
alexnet_w1_mlp_simclrhn_probe2,1,498,NaN,oven,oven,pow,0498_pow_dnn_pow_oven_35_n04111531_4146.png,n04111531_4146.png,1.0,2.7674263,-0.4774286,2.2944589
alexnet_w1_mlp_simclrhn_probe2,1,499,NaN,oven,keyboard,pow,0499_pow_dnn_pow_keyboard_35_n03085013_21183.png,n03085013_21183.png,0.0,-1.0467968,1.5291812,-1.8214916
alexnet_w1_mlp_simclrhn_probe2,1,500,NaN,boat,boat,0,0500_pow_dnn_0_boat_35_n04612504_19147.png,n04612504_19147.png,1.0,6.0655594,1.5378484,3.201575
alexnet_w1_mlp_simclrhn_probe2,1,501,NaN,elephant,bear,0,0501_pow_dnn_0_bear_35_n02133161_2044.png,n02133161_2044.png,0.0,1.1100032,1.8126092,-0.49681744
alexnet_w1_mlp_simclrhn_probe2,1,502,NaN,oven,bottle,pow,0502_pow_dnn_pow_bottle_35_n04579145_3894.png,n04579145_3894.png,0.0,-1.0603105,0.40906894,-1.0390081
alexnet_w1_mlp_simclrhn_probe2,1,503,NaN,bicycle,bicycle,0,0503_pow_dnn_0_bicycle_35_n03792782_13399.png,n03792782_13399.png,1.0,4.093357,-0.7922565,3.4546504
alexnet_w1_mlp_simclrhn_probe2,1,504,NaN,elephant,knife,pow,0504_pow_dnn_pow_knife_35_n03041632_21818.png,n03041632_21818.png,0.0,-2.257113,1.1835918,-2.4329457
alexnet_w1_mlp_simclrhn_probe2,1,505,NaN,chair,chair,0,0505_pow_dnn_0_chair_35_n03376595_7010.png,n03376595_7010.png,1.0,3.1252403,-0.7236699,2.7215908
alexnet_w1_mlp_simclrhn_probe2,1,506,NaN,oven,oven,0,0506_pow_dnn_0_oven_35_n04111531_4.png,n04111531_4.png,1.0,1.6027423,0.7265854,0.6195365
alexnet_w1_mlp_simclrhn_probe2,1,507,NaN,oven,bird,pow,0507_pow_dnn_pow_bird_35_n01820546_6471.png,n01820546_6471.png,0.0,-2.421759,0.7384745,-2.2346225
alexnet_w1_mlp_simclrhn_probe2,1,508,NaN,bear,bear,pow,0508_pow_dnn_pow_bear_35_n02132136_10352.png,n02132136_10352.png,1.0,2.5227141,-0.008061707,1.7895287
alexnet_w1_mlp_simclrhn_probe2,1,509,NaN,bottle,clock,pow,0509_pow_dnn_pow_clock_35_n04548280_8348.png,n04548280_8348.png,0.0,-1.1150408,1.3930787,-1.7735084
alexnet_w1_mlp_simclrhn_probe2,1,510,NaN,elephant,elephant,0,0510_pow_dnn_0_elephant_35_n02504013_5087.png,n02504013_5087.png,1.0,8.885237,1.2362664,5.408639
alexnet_w1_mlp_simclrhn_probe2,1,511,NaN,boat,airplane,pow,0511_pow_dnn_pow_airplane_35_n02690373_60.png,n02690373_60.png,0.0,0.12571618,0.1748795,-0.034763724
alexnet_w1_mlp_simclrhn_probe2,1,512,NaN,oven,chair,pow,0512_pow_dnn_pow_chair_35_n02791124_16085.png,n02791124_16085.png,0.0,-0.77809703,2.4392,-2.2749727
alexnet_w1_mlp_simclrhn_probe2,1,513,NaN,bottle,bottle,0,0513_pow_dnn_0_bottle_35_n02823428_3611.png,n02823428_3611.png,1.0,3.5663083,-0.3945212,2.8007295
alexnet_w1_mlp_simclrhn_probe2,1,514,NaN,bear,bird,pow,0514_pow_dnn_pow_bird_35_n01614925_8653.png,n01614925_8653.png,0.0,-0.5027984,-0.30621675,-0.1390042
alexnet_w1_mlp_simclrhn_probe2,1,515,NaN,bird,bird,pow,0515_pow_dnn_pow_bird_35_n01537544_9881.png,n01537544_9881.png,1.0,0.8539714,-1.6289843,1.7557149
alexnet_w1_mlp_simclrhn_probe2,1,516,NaN,knife,knife,0,0516_pow_dnn_0_knife_35_n03041632_35365.png,n03041632_35365.png,1.0,1.650116,-1.6862903,2.3591955
alexnet_w1_mlp_simclrhn_probe2,1,517,NaN,bear,bear,0,0517_pow_dnn_0_bear_35_n02132136_23202.png,n02132136_23202.png,1.0,1.1937815,-0.21511483,0.99624014
alexnet_w1_mlp_simclrhn_probe2,1,518,NaN,oven,oven,0,0518_pow_dnn_0_oven_35_n04111531_3976.png,n04111531_3976.png,1.0,5.624263,-1.0235572,4.700719
alexnet_w1_mlp_simclrhn_probe2,1,519,NaN,oven,chair,pow,0519_pow_dnn_pow_chair_35_n04429376_32124.png,n04429376_32124.png,0.0,-0.8358264,2.7961886,-2.5682225
alexnet_w1_mlp_simclrhn_probe2,1,520,NaN,bear,bear,pow,0520_pow_dnn_pow_bear_35_n02134418_848.png,n02134418_848.png,1.0,0.9128447,0.5193404,0.2782496
alexnet_w1_mlp_simclrhn_probe2,1,521,NaN,boat,boat,0,0521_pow_dnn_0_boat_35_n03344393_7374.png,n03344393_7374.png,1.0,7.9652123,5.4485674,1.7795367
alexnet_w1_mlp_simclrhn_probe2,1,522,NaN,oven,bird,pow,0522_pow_dnn_pow_bird_35_n01532829_3914.png,n01532829_3914.png,0.0,-1.817333,0.8200799,-1.8649327
alexnet_w1_mlp_simclrhn_probe2,1,523,NaN,keyboard,keyboard,0,0523_pow_dnn_0_keyboard_35_n04505470_5902.png,n04505470_5902.png,1.0,10.85932,1.6705357,6.4974513
alexnet_w1_mlp_simclrhn_probe2,1,524,NaN,oven,truck,pow,0524_pow_dnn_pow_truck_35_n03417042_11165.png,n03417042_11165.png,0.0,-2.70167,1.1406581,-2.7169363
alexnet_w1_mlp_simclrhn_probe2,1,525,NaN,clock,clock,0,0525_pow_dnn_0_clock_35_n02708093_5.png,n02708093_5.png,1.0,0.88927776,-0.018111954,0.6416214
alexnet_w1_mlp_simclrhn_probe2,1,526,NaN,elephant,elephant,pow,0526_pow_dnn_pow_elephant_35_n02504458_4187.png,n02504458_4187.png,1.0,2.287253,0.7782813,1.0670041
alexnet_w1_mlp_simclrhn_probe2,1,527,NaN,knife,knife,0,0527_pow_dnn_0_knife_35_n03041632_10802.png,n03041632_10802.png,1.0,3.8600445,0.3389672,2.4897776
alexnet_w1_mlp_simclrhn_probe2,1,528,NaN,car,car,0,0528_pow_dnn_0_car_35_n04285008_16647.png,n04285008_16647.png,1.0,11.343713,6.608924,3.3480015
alexnet_w1_mlp_simclrhn_probe2,1,529,NaN,bear,dog,0,0529_pow_dnn_0_dog_35_n02104365_3004.png,n02104365_3004.png,0.0,0.8725689,2.515482,-1.161715
alexnet_w1_mlp_simclrhn_probe2,1,530,NaN,elephant,elephant,pow,0530_pow_dnn_pow_elephant_35_n02504013_21616.png,n02504013_21616.png,1.0,2.2005138,1.0233185,0.8324028
alexnet_w1_mlp_simclrhn_probe2,1,531,NaN,knife,keyboard,0,0531_pow_dnn_0_keyboard_35_n03085013_23465.png,n03085013_23465.png,0.0,2.116102,2.6518025,-0.3787975
alexnet_w1_mlp_simclrhn_probe2,1,532,NaN,boat,airplane,pow,0532_pow_dnn_pow_airplane_35_n02690373_911.png,n02690373_911.png,0.0,-1.3111483,0.7065022,-1.4266944
alexnet_w1_mlp_simclrhn_probe2,1,533,NaN,elephant,elephant,0,0533_pow_dnn_0_elephant_35_n02504013_1454.png,n02504013_1454.png,1.0,10.115023,0.45757756,6.828845
alexnet_w1_mlp_simclrhn_probe2,1,534,NaN,bicycle,bicycle,0,0534_pow_dnn_0_bicycle_35_n03792782_70690.png,n03792782_70690.png,1.0,4.4361124,-0.7862817,3.6927903
alexnet_w1_mlp_simclrhn_probe2,1,535,NaN,clock,chair,0,0535_pow_dnn_0_chair_35_n04429376_31206.png,n04429376_31206.png,0.0,0.24111032,0.9131952,-0.4752358
alexnet_w1_mlp_simclrhn_probe2,1,536,NaN,airplane,clock,0,0536_pow_dnn_0_clock_35_n02708093_2498.png,n02708093_2498.png,0.0,-0.9474234,1.5760527,-1.7843671
alexnet_w1_mlp_simclrhn_probe2,1,537,NaN,keyboard,keyboard,0,0537_pow_dnn_0_keyboard_35_n04505470_1728.png,n04505470_1728.png,1.0,8.979467,2.0800545,4.878622
alexnet_w1_mlp_simclrhn_probe2,1,538,NaN,oven,truck,pow,0538_pow_dnn_pow_truck_35_n03417042_6608.png,n03417042_6608.png,0.0,-1.9107218,1.0847384,-2.1181102
alexnet_w1_mlp_simclrhn_probe2,1,539,NaN,bird,bird,0,0539_pow_dnn_0_bird_35_n02013706_1016.png,n02013706_1016.png,1.0,0.34129345,-2.0011444,1.6563536
alexnet_w1_mlp_simclrhn_probe2,1,540,NaN,clock,clock,0,0540_pow_dnn_0_clock_35_n04548280_5011.png,n04548280_5011.png,1.0,1.9659128,0.30728823,1.1728247
alexnet_w1_mlp_simclrhn_probe2,1,541,NaN,bicycle,bicycle,0,0541_pow_dnn_0_bicycle_35_n02835271_19557.png,n02835271_19557.png,1.0,8.674442,-2.326009,7.778494
alexnet_w1_mlp_simclrhn_probe2,1,542,NaN,bear,bear,pow,0542_pow_dnn_pow_bear_35_n02134084_5827.png,n02134084_5827.png,1.0,1.8324353,1.1014428,0.5168897
alexnet_w1_mlp_simclrhn_probe2,1,543,NaN,elephant,dog,pow,0543_pow_dnn_pow_dog_35_n02096585_1894.png,n02096585_1894.png,0.0,-1.6531563,-0.0064382404,-1.1644055
alexnet_w1_mlp_simclrhn_probe2,1,544,NaN,bear,boat,pow,0544_pow_dnn_pow_boat_35_n02951358_34234.png,n02951358_34234.png,0.0,-0.67576516,1.108675,-1.2617898
alexnet_w1_mlp_simclrhn_probe2,1,545,NaN,cat,cat,pow,0545_pow_dnn_pow_cat_35_n02123597_5514.png,n02123597_5514.png,1.0,2.2570372,-0.003730476,1.5986042
alexnet_w1_mlp_simclrhn_probe2,1,546,NaN,oven,oven,pow,0546_pow_dnn_pow_oven_35_n04111531_3580.png,n04111531_3580.png,1.0,1.132109,0.15762278,0.6890658
alexnet_w1_mlp_simclrhn_probe2,1,547,NaN,airplane,airplane,0,0547_pow_dnn_0_airplane_35_n02690373_7107.png,n02690373_7107.png,1.0,4.685526,1.3267746,2.374996
alexnet_w1_mlp_simclrhn_probe2,1,548,NaN,chair,cat,0,0548_pow_dnn_0_cat_35_n02123159_5224.png,n02123159_5224.png,0.0,-1.4881153,0.2015929,-1.1948042
alexnet_w1_mlp_simclrhn_probe2,1,549,NaN,bear,bear,pow,0549_pow_dnn_pow_bear_35_n02133161_6679.png,n02133161_6679.png,1.0,1.7627894,1.465637,0.21011849
alexnet_w1_mlp_simclrhn_probe2,1,550,NaN,dog,dog,0,0550_pow_dnn_0_dog_35_n02106030_22.png,n02106030_22.png,1.0,1.0964745,-0.023537517,0.7919681
alexnet_w1_mlp_simclrhn_probe2,1,551,NaN,truck,truck,0,0551_pow_dnn_0_truck_35_n03417042_4574.png,n03417042_4574.png,1.0,6.462031,4.358984,1.4870788
alexnet_w1_mlp_simclrhn_probe2,1,552,NaN,bear,dog,pow,0552_pow_dnn_pow_dog_35_n02097298_7577.png,n02097298_7577.png,0.0,-1.58901,0.54754424,-1.510772
alexnet_w1_mlp_simclrhn_probe2,1,553,NaN,cat,dog,pow,0553_pow_dnn_pow_dog_35_n02093428_16873.png,n02093428_16873.png,0.0,-0.41532743,-0.24011278,-0.12389547
alexnet_w1_mlp_simclrhn_probe2,1,554,NaN,bear,bear,0,0554_pow_dnn_0_bear_35_n02132136_4157.png,n02132136_4157.png,1.0,5.5221186,1.6919383,2.7083464
alexnet_w1_mlp_simclrhn_probe2,1,555,NaN,bottle,bottle,0,0555_pow_dnn_0_bottle_35_n02823428_2007.png,n02823428_2007.png,1.0,7.633228,4.4347935,2.2616346
alexnet_w1_mlp_simclrhn_probe2,1,556,NaN,oven,keyboard,0,0556_pow_dnn_0_keyboard_35_n03085013_24272.png,n03085013_24272.png,0.0,-0.786533,0.7319694,-1.0737435
alexnet_w1_mlp_simclrhn_probe2,1,557,NaN,oven,oven,0,0557_pow_dnn_0_oven_35_n04111531_2074.png,n04111531_2074.png,1.0,1.5122948,-1.1860495,1.9080175
alexnet_w1_mlp_simclrhn_probe2,1,558,NaN,oven,bird,pow,0558_pow_dnn_pow_bird_35_n01532829_4536.png,n01532829_4536.png,0.0,-1.9552329,1.183861,-2.2196746
alexnet_w1_mlp_simclrhn_probe2,1,559,NaN,dog,dog,0,0559_pow_dnn_0_dog_35_n02109047_17100.png,n02109047_17100.png,1.0,0.7328219,-0.6982874,1.0119472
alexnet_w1_mlp_simclrhn_probe2,1,560,NaN,oven,oven,pow,0560_pow_dnn_pow_oven_35_n04111531_4407.png,n04111531_4407.png,1.0,2.8789492,-0.99601614,2.7400143
alexnet_w1_mlp_simclrhn_probe2,1,561,NaN,airplane,airplane,0,0561_pow_dnn_0_airplane_35_n02690373_8069.png,n02690373_8069.png,1.0,6.4763575,1.7005867,3.3769798
alexnet_w1_mlp_simclrhn_probe2,1,562,NaN,clock,bottle,0,0562_pow_dnn_0_bottle_35_n04560804_8921.png,n04560804_8921.png,0.0,0.6055988,1.1670743,-0.39702314
alexnet_w1_mlp_simclrhn_probe2,1,563,NaN,bottle,bottle,pow,0563_pow_dnn_pow_bottle_35_n03937543_2936.png,n03937543_2936.png,1.0,9.764893,-4.4022293,10.017668
alexnet_w1_mlp_simclrhn_probe2,1,564,NaN,cat,cat,0,0564_pow_dnn_0_cat_35_n02123045_8031.png,n02123045_8031.png,1.0,0.76587296,0.29103512,0.33576107
alexnet_w1_mlp_simclrhn_probe2,1,565,NaN,oven,oven,0,0565_pow_dnn_0_oven_35_n04111531_3805.png,n04111531_3805.png,1.0,4.859063,-0.8335594,4.025292
alexnet_w1_mlp_simclrhn_probe2,1,566,NaN,truck,truck,0,0566_pow_dnn_0_truck_35_n03417042_27231.png,n03417042_27231.png,1.0,8.7607,6.016424,1.9404962
alexnet_w1_mlp_simclrhn_probe2,1,567,NaN,elephant,elephant,0,0567_pow_dnn_0_elephant_35_n02504013_7232.png,n02504013_7232.png,1.0,4.4933796,2.5631537,1.3648758
alexnet_w1_mlp_simclrhn_probe2,1,568,NaN,oven,knife,0,0568_pow_dnn_0_knife_35_n03041632_5102.png,n03041632_5102.png,0.0,-2.2161577,0.4557289,-1.889309
alexnet_w1_mlp_simclrhn_probe2,1,569,NaN,cat,dog,pow,0569_pow_dnn_pow_dog_35_n02110958_8916.png,n02110958_8916.png,0.0,0.767539,0.81265086,-0.031898886
alexnet_w1_mlp_simclrhn_probe2,1,570,NaN,knife,bottle,pow,0570_pow_dnn_pow_bottle_35_n04557648_9790.png,n04557648_9790.png,0.0,-1.2158995,-0.33402202,-0.6235815
alexnet_w1_mlp_simclrhn_probe2,1,571,NaN,cat,cat,pow,0571_pow_dnn_pow_cat_35_n02123394_3786.png,n02123394_3786.png,1.0,3.0630436,-0.41893557,2.462131
alexnet_w1_mlp_simclrhn_probe2,1,572,NaN,airplane,truck,0,0572_pow_dnn_0_truck_35_n04467665_19132.png,n04467665_19132.png,0.0,1.6609855,2.3318486,-0.47437188
alexnet_w1_mlp_simclrhn_probe2,1,573,NaN,oven,truck,pow,0573_pow_dnn_pow_truck_35_n03796401_2934.png,n03796401_2934.png,0.0,-1.7541757,1.6115655,-2.3799386
alexnet_w1_mlp_simclrhn_probe2,1,574,NaN,bicycle,bicycle,0,0574_pow_dnn_0_bicycle_35_n02835271_12799.png,n02835271_12799.png,1.0,8.88985,-0.23269016,6.4506097
alexnet_w1_mlp_simclrhn_probe2,1,575,NaN,car,car,0,0575_pow_dnn_0_car_35_n02814533_1297.png,n02814533_1297.png,1.0,2.0686579,0.5055725,1.1052682
alexnet_w1_mlp_simclrhn_probe2,1,576,NaN,bear,bear,pow,0576_pow_dnn_pow_bear_35_n02134418_1974.png,n02134418_1974.png,1.0,1.1869069,-0.26428267,1.026146
alexnet_w1_mlp_simclrhn_probe2,1,577,NaN,cat,cat,0,0577_pow_dnn_0_cat_35_n02124075_2843.png,n02124075_2843.png,1.0,3.883352,-0.83859605,3.3389215
alexnet_w1_mlp_simclrhn_probe2,1,578,NaN,cat,cat,0,0578_pow_dnn_0_cat_35_n02123597_5697.png,n02123597_5697.png,1.0,1.2035724,-0.3009645,1.0638683
alexnet_w1_mlp_simclrhn_probe2,1,579,NaN,oven,bicycle,pow,0579_pow_dnn_pow_bicycle_35_n02835271_2315.png,n02835271_2315.png,0.0,-0.40224493,0.27091658,-0.47599706
alexnet_w1_mlp_simclrhn_probe2,1,580,NaN,keyboard,keyboard,0,0580_pow_dnn_0_keyboard_35_n04505470_4515.png,n04505470_4515.png,1.0,11.994907,0.51394814,8.118264
alexnet_w1_mlp_simclrhn_probe2,1,581,NaN,oven,knife,pow,0581_pow_dnn_pow_knife_35_n03041632_4269.png,n03041632_4269.png,0.0,-0.54067826,0.7379983,-0.90416086
alexnet_w1_mlp_simclrhn_probe2,1,582,NaN,cat,cat,0,0582_pow_dnn_0_cat_35_n02123045_12010.png,n02123045_12010.png,1.0,8.377014,-2.6962981,7.8300147
alexnet_w1_mlp_simclrhn_probe2,1,583,NaN,clock,clock,0,0583_pow_dnn_0_clock_35_n03196217_6467.png,n03196217_6467.png,1.0,1.5683123,1.3512292,0.15350093
alexnet_w1_mlp_simclrhn_probe2,1,584,NaN,oven,bottle,pow,0584_pow_dnn_pow_bottle_35_n03983396_2864.png,n03983396_2864.png,0.0,0.6436543,1.8053992,-0.82147765
alexnet_w1_mlp_simclrhn_probe2,1,585,NaN,airplane,bottle,0,0585_pow_dnn_0_bottle_35_n04557648_10171.png,n04557648_10171.png,0.0,-2.2267432,0.83500737,-2.1649847
alexnet_w1_mlp_simclrhn_probe2,1,586,NaN,elephant,bird,pow,0586_pow_dnn_pow_bird_35_n01860187_2052.png,n01860187_2052.png,0.0,-1.8592263,-0.21761301,-1.1607959
alexnet_w1_mlp_simclrhn_probe2,1,587,NaN,car,car,0,0587_pow_dnn_0_car_35_n04285008_5897.png,n04285008_5897.png,1.0,15.078224,8.349352,4.7580314
alexnet_w1_mlp_simclrhn_probe2,1,588,NaN,elephant,elephant,0,0588_pow_dnn_0_elephant_35_n02504458_4721.png,n02504458_4721.png,1.0,15.870928,2.1799498,9.680984
alexnet_w1_mlp_simclrhn_probe2,1,589,NaN,car,car,0,0589_pow_dnn_0_car_35_n02814533_93476.png,n02814533_93476.png,1.0,7.7695503,4.587262,2.2502177
alexnet_w1_mlp_simclrhn_probe2,1,590,NaN,elephant,bird,pow,0590_pow_dnn_pow_bird_35_n01824575_10337.png,n01824575_10337.png,0.0,-1.6047678,0.60340846,-1.5614164
alexnet_w1_mlp_simclrhn_probe2,1,591,NaN,oven,dog,pow,0591_pow_dnn_pow_dog_35_n02100735_10683.png,n02100735_10683.png,0.0,-2.1021066,1.634516,-2.6421912
alexnet_w1_mlp_simclrhn_probe2,1,592,NaN,knife,airplane,pow,0592_pow_dnn_pow_airplane_35_n02690373_4402.png,n02690373_4402.png,0.0,-1.6920255,-0.15338573,-1.0879827
alexnet_w1_mlp_simclrhn_probe2,1,593,NaN,airplane,airplane,0,0593_pow_dnn_0_airplane_35_n02690373_4350.png,n02690373_4350.png,1.0,8.366058,-1.0478079,6.6566086
alexnet_w1_mlp_simclrhn_probe2,1,594,NaN,oven,bottle,pow,0594_pow_dnn_pow_bottle_35_n02823428_6327.png,n02823428_6327.png,0.0,0.22854589,0.31327057,-0.059909396
alexnet_w1_mlp_simclrhn_probe2,1,595,NaN,dog,dog,pow,0595_pow_dnn_pow_dog_35_n02104029_3041.png,n02104029_3041.png,1.0,0.36892813,0.17230134,0.13903615
alexnet_w1_mlp_simclrhn_probe2,1,596,NaN,elephant,elephant,pow,0596_pow_dnn_pow_elephant_35_n02504013_24810.png,n02504013_24810.png,1.0,2.54609,0.83287007,1.2114294
alexnet_w1_mlp_simclrhn_probe2,1,597,NaN,oven,clock,pow,0597_pow_dnn_pow_clock_35_n04548280_4473.png,n04548280_4473.png,0.0,-2.4507349,3.128129,-3.9448526
alexnet_w1_mlp_simclrhn_probe2,1,598,NaN,dog,dog,pow,0598_pow_dnn_pow_dog_35_n02107908_5597.png,n02107908_5597.png,1.0,0.07429164,-1.6902859,1.2477448
alexnet_w1_mlp_simclrhn_probe2,1,599,NaN,truck,truck,0,0599_pow_dnn_0_truck_35_n04467665_57697.png,n04467665_57697.png,1.0,7.3171854,2.0985281,3.690148
alexnet_w1_mlp_simclrhn_probe2,1,600,NaN,bottle,bottle,pow,0600_pow_dnn_pow_bottle_35_n03983396_6889.png,n03983396_6889.png,1.0,0.2158383,-0.16128308,0.2666651
alexnet_w1_mlp_simclrhn_probe2,1,601,NaN,bear,bear,pow,0601_pow_dnn_pow_bear_35_n02134418_1826.png,n02134418_1826.png,1.0,3.4779654,0.36987638,2.1977508
alexnet_w1_mlp_simclrhn_probe2,1,602,NaN,cat,cat,pow,0602_pow_dnn_pow_cat_35_n02123159_4687.png,n02123159_4687.png,1.0,0.17691875,-0.56062824,0.5215245
alexnet_w1_mlp_simclrhn_probe2,1,603,NaN,boat,boat,pow,0603_pow_dnn_pow_boat_35_n03344393_5798.png,n03344393_5798.png,1.0,-0.1825405,-0.51275873,0.23349956
alexnet_w1_mlp_simclrhn_probe2,1,604,NaN,oven,car,pow,0604_pow_dnn_pow_car_35_n04285008_11745.png,n04285008_11745.png,0.0,-5.8586097,0.73898625,-4.665205
alexnet_w1_mlp_simclrhn_probe2,1,605,NaN,clock,clock,0,0605_pow_dnn_0_clock_35_n02708093_353.png,n02708093_353.png,1.0,3.378321,0.32833633,2.1566648
alexnet_w1_mlp_simclrhn_probe2,1,606,NaN,airplane,airplane,0,0606_pow_dnn_0_airplane_35_n02690373_4763.png,n02690373_4763.png,1.0,7.7436795,-0.9949746,6.1791615
alexnet_w1_mlp_simclrhn_probe2,1,607,NaN,elephant,elephant,0,0607_pow_dnn_0_elephant_35_n02504013_18498.png,n02504013_18498.png,1.0,8.966635,3.4972801,3.8674178
alexnet_w1_mlp_simclrhn_probe2,1,608,NaN,bear,cat,pow,0608_pow_dnn_pow_cat_35_n02123394_159.png,n02123394_159.png,0.0,-0.025424698,0.68250704,-0.50058335
alexnet_w1_mlp_simclrhn_probe2,1,609,NaN,boat,boat,0,0609_pow_dnn_0_boat_35_n03662601_18676.png,n03662601_18676.png,1.0,9.557253,4.57658,3.5218675
alexnet_w1_mlp_simclrhn_probe2,1,610,NaN,elephant,truck,pow,0610_pow_dnn_pow_truck_35_n03796401_1789.png,n03796401_1789.png,0.0,-1.6333358,-0.843842,-0.55825645
alexnet_w1_mlp_simclrhn_probe2,1,611,NaN,chair,chair,0,0611_pow_dnn_0_chair_35_n04099969_4816.png,n04099969_4816.png,1.0,3.0427926,-0.80400103,2.720094
alexnet_w1_mlp_simclrhn_probe2,1,612,NaN,elephant,elephant,0,0612_pow_dnn_0_elephant_35_n02504458_7013.png,n02504458_7013.png,1.0,19.689846,1.8882488,12.58763
alexnet_w1_mlp_simclrhn_probe2,1,613,NaN,oven,knife,pow,0613_pow_dnn_pow_knife_35_n03041632_92637.png,n03041632_92637.png,0.0,-1.7939638,-0.9036354,-0.62955725
alexnet_w1_mlp_simclrhn_probe2,1,614,NaN,keyboard,keyboard,0,0614_pow_dnn_0_keyboard_35_n03085013_19607.png,n03085013_19607.png,1.0,9.138939,3.254437,4.160971
alexnet_w1_mlp_simclrhn_probe2,1,615,NaN,bear,cat,pow,0615_pow_dnn_pow_cat_35_n02123597_1027.png,n02123597_1027.png,0.0,0.28895888,1.2148517,-0.6547051
alexnet_w1_mlp_simclrhn_probe2,1,616,NaN,bicycle,bicycle,0,0616_pow_dnn_0_bicycle_35_n02835271_9135.png,n02835271_9135.png,1.0,3.0063818,-0.7944905,2.6876225
alexnet_w1_mlp_simclrhn_probe2,1,617,NaN,dog,dog,pow,0617_pow_dnn_pow_dog_35_n02111500_3896.png,n02111500_3896.png,1.0,-0.48284295,-1.0472395,0.39908868
alexnet_w1_mlp_simclrhn_probe2,1,618,NaN,keyboard,oven,0,0618_pow_dnn_0_oven_35_n04111531_8398.png,n04111531_8398.png,0.0,-1.9325212,2.4006715,-3.0640302
alexnet_w1_mlp_simclrhn_probe2,1,619,NaN,oven,oven,0,0619_pow_dnn_0_oven_35_n04111531_6049.png,n04111531_6049.png,1.0,7.810511,-0.8078959,6.0941343
alexnet_w1_mlp_simclrhn_probe2,1,620,NaN,oven,chair,pow,0620_pow_dnn_pow_chair_35_n03376595_6947.png,n03376595_6947.png,0.0,-2.3118162,0.43686205,-1.943609
alexnet_w1_mlp_simclrhn_probe2,1,621,NaN,bear,dog,pow,0621_pow_dnn_pow_dog_35_n02097658_6717.png,n02097658_6717.png,0.0,-0.34789893,0.45213312,-0.5657081
alexnet_w1_mlp_simclrhn_probe2,1,622,NaN,knife,knife,0,0622_pow_dnn_0_knife_35_n03041632_21560.png,n03041632_21560.png,1.0,0.9930119,-0.37381345,0.96649146
alexnet_w1_mlp_simclrhn_probe2,1,623,NaN,boat,boat,pow,0623_pow_dnn_pow_boat_35_n03662601_7642.png,n03662601_7642.png,1.0,-0.5298492,-0.59090036,0.04316971
alexnet_w1_mlp_simclrhn_probe2,1,624,NaN,car,car,0,0624_pow_dnn_0_car_35_n04285008_1313.png,n04285008_1313.png,1.0,3.259552,3.1176786,0.10031962
alexnet_w1_mlp_simclrhn_probe2,1,625,NaN,elephant,chair,pow,0625_pow_dnn_pow_chair_35_n03376595_6409.png,n03376595_6409.png,0.0,-0.7147993,0.7048347,-1.0038328
alexnet_w1_mlp_simclrhn_probe2,1,626,NaN,bear,bear,pow,0626_pow_dnn_pow_bear_35_n02133161_6028.png,n02133161_6028.png,1.0,1.1078655,0.29768458,0.57288444
alexnet_w1_mlp_simclrhn_probe2,1,627,NaN,elephant,bear,pow,0627_pow_dnn_pow_bear_35_n02132136_29029.png,n02132136_29029.png,0.0,1.0326135,1.1275342,-0.067119025
alexnet_w1_mlp_simclrhn_probe2,1,628,NaN,truck,truck,0,0628_pow_dnn_0_truck_35_n04467665_7290.png,n04467665_7290.png,1.0,2.90872,-0.23426192,2.222424
alexnet_w1_mlp_simclrhn_probe2,1,629,NaN,elephant,bird,pow,0629_pow_dnn_pow_bird_35_n01537544_9745.png,n01537544_9745.png,0.0,-1.9693274,1.0375938,-2.1262145
alexnet_w1_mlp_simclrhn_probe2,1,630,NaN,bicycle,bicycle,0,0630_pow_dnn_0_bicycle_35_n03792782_15845.png,n03792782_15845.png,1.0,3.9448352,-1.0152061,3.5072787
alexnet_w1_mlp_simclrhn_probe2,1,631,NaN,bear,bear,pow,0631_pow_dnn_pow_bear_35_n02133161_8982.png,n02133161_8982.png,1.0,0.61732495,0.28894287,0.23220119
alexnet_w1_mlp_simclrhn_probe2,1,632,NaN,knife,knife,0,0632_pow_dnn_0_knife_35_n03041632_6575.png,n03041632_6575.png,1.0,0.8155304,-2.4533315,2.3114343
alexnet_w1_mlp_simclrhn_probe2,1,633,NaN,knife,knife,0,0633_pow_dnn_0_knife_35_n03041632_32785.png,n03041632_32785.png,1.0,2.1227121,-1.3420322,2.4499443
alexnet_w1_mlp_simclrhn_probe2,1,634,NaN,oven,chair,pow,0634_pow_dnn_pow_chair_35_n04429376_12691.png,n04429376_12691.png,0.0,-1.0023286,0.62406826,-1.1500363
alexnet_w1_mlp_simclrhn_probe2,1,635,NaN,bear,dog,pow,0635_pow_dnn_pow_dog_35_n02097298_6578.png,n02097298_6578.png,0.0,-0.6561939,1.3170335,-1.3952826
alexnet_w1_mlp_simclrhn_probe2,1,636,NaN,oven,knife,pow,0636_pow_dnn_pow_knife_35_n03041632_94995.png,n03041632_94995.png,0.0,-1.787848,-0.56680083,-0.8634108
alexnet_w1_mlp_simclrhn_probe2,1,637,NaN,clock,clock,0,0637_pow_dnn_0_clock_35_n02708093_41.png,n02708093_41.png,1.0,4.0761685,-0.14381488,2.983979
alexnet_w1_mlp_simclrhn_probe2,1,638,NaN,keyboard,keyboard,0,0638_pow_dnn_0_keyboard_35_n03085013_7892.png,n03085013_7892.png,1.0,5.322134,0.89449656,3.1308126
alexnet_w1_mlp_simclrhn_probe2,1,639,NaN,oven,knife,pow,0639_pow_dnn_pow_knife_35_n03041632_84048.png,n03041632_84048.png,0.0,-1.699055,0.036871582,-1.2274854
alexnet_w1_mlp_simclrhn_probe2,1,640,NaN,airplane,airplane,0,0640_pow_dnn_0_airplane_35_n02690373_3415.png,n02690373_3415.png,1.0,7.0751576,1.4184905,3.999868
