subj,session,trial,rt,object_response,category,condition,imagename,filename,is_correct,targ_act,max_nontarg_act,decision_margin
alexnet,1,1,NaN,clock,clock,0,0001_pow_dnn_0_clock_35_n03196217_10246.png,n03196217_10246.png,1.0,8.615081,8.455876,0.11257457
alexnet,1,2,NaN,cat,dog,pow,0002_pow_dnn_pow_dog_35_n02091467_7264.png,n02091467_7264.png,0.0,3.468644,4.865498,-0.9877251
alexnet,1,3,NaN,chair,chair,pow,0003_pow_dnn_pow_chair_35_n02791124_713.png,n02791124_713.png,1.0,3.9498878,2.6753392,0.9012419
alexnet,1,4,NaN,car,car,0,0004_pow_dnn_0_car_35_n02814533_35174.png,n02814533_35174.png,1.0,10.219663,8.742845,1.0442681
alexnet,1,5,NaN,chair,knife,pow,0005_pow_dnn_pow_knife_35_n03041632_46103.png,n03041632_46103.png,0.0,1.059016,2.8476985,-1.2647895
alexnet,1,6,NaN,bicycle,bicycle,0,0006_pow_dnn_0_bicycle_35_n03792782_11306.png,n03792782_11306.png,1.0,14.397019,3.5782385,7.6500335
alexnet,1,7,NaN,bird,bird,0,0007_pow_dnn_0_bird_35_n02002556_3463.png,n02002556_3463.png,1.0,6.9298143,4.1099086,1.9939746
alexnet,1,8,NaN,oven,keyboard,pow,0008_pow_dnn_pow_keyboard_35_n03085013_22813.png,n03085013_22813.png,0.0,-1.1453546,3.7912142,-3.4906812
alexnet,1,9,NaN,bird,bird,0,0009_pow_dnn_0_bird_35_n02025239_2961.png,n02025239_2961.png,1.0,6.145392,0.91136664,3.701015
alexnet,1,10,NaN,oven,boat,pow,0010_pow_dnn_pow_boat_35_n02951358_14504.png,n02951358_14504.png,0.0,1.6429186,4.24012,-1.8364987
alexnet,1,11,NaN,oven,oven,0,0011_pow_dnn_0_oven_35_n04111531_19000.png,n04111531_19000.png,1.0,6.7920747,5.2109766,1.1180052
alexnet,1,12,NaN,bear,bird,0,0012_pow_dnn_0_bird_35_n01614925_11281.png,n01614925_11281.png,0.0,2.585825,4.8203745,-1.5800651
alexnet,1,13,NaN,knife,knife,0,0013_pow_dnn_0_knife_35_n03041632_52040.png,n03041632_52040.png,1.0,11.6128645,4.13923,5.284658
alexnet,1,14,NaN,car,car,pow,0014_pow_dnn_pow_car_35_n03100240_14206.png,n03100240_14206.png,1.0,5.890372,5.3457184,0.38512814
alexnet,1,15,NaN,elephant,bird,0,0015_pow_dnn_0_bird_35_n01817953_689.png,n01817953_689.png,0.0,-1.4499767,4.517083,-4.219349
alexnet,1,16,NaN,chair,chair,pow,0016_pow_dnn_pow_chair_35_n04099969_7934.png,n04099969_7934.png,1.0,5.4022627,3.7797186,1.1473119
alexnet,1,17,NaN,knife,knife,0,0017_pow_dnn_0_knife_35_n03041632_30196.png,n03041632_30196.png,1.0,9.323368,3.434066,4.164366
alexnet,1,18,NaN,car,car,0,0018_pow_dnn_0_car_35_n02814533_18077.png,n02814533_18077.png,1.0,13.904935,8.007261,4.170285
alexnet,1,19,NaN,cat,cat,0,0019_pow_dnn_0_cat_35_n02123159_6927.png,n02123159_6927.png,1.0,6.893188,3.3531735,2.5031683
alexnet,1,20,NaN,elephant,bird,pow,0020_pow_dnn_pow_bird_35_n01855672_8550.png,n01855672_8550.png,0.0,0.50195545,3.9863663,-2.4638505
alexnet,1,21,NaN,truck,truck,0,0021_pow_dnn_0_truck_35_n03417042_17888.png,n03417042_17888.png,1.0,14.206558,6.410946,5.5123305
alexnet,1,22,NaN,oven,truck,pow,0022_pow_dnn_pow_truck_35_n04467665_45611.png,n04467665_45611.png,0.0,0.90737903,4.2859163,-2.3889866
alexnet,1,23,NaN,elephant,dog,pow,0023_pow_dnn_pow_dog_35_n02093256_1772.png,n02093256_1772.png,0.0,-0.893533,3.6250122,-3.1950939
alexnet,1,24,NaN,boat,boat,pow,0024_pow_dnn_pow_boat_35_n03344393_6260.png,n03344393_6260.png,1.0,2.976963,2.8958147,0.057380576
alexnet,1,25,NaN,airplane,chair,0,0025_pow_dnn_0_chair_35_n04429376_24073.png,n04429376_24073.png,0.0,3.1693711,4.2140326,-0.7386873
alexnet,1,26,NaN,knife,knife,0,0026_pow_dnn_0_knife_35_n03041632_29355.png,n03041632_29355.png,1.0,7.5962634,4.603865,2.115945
alexnet,1,27,NaN,clock,clock,0,0027_pow_dnn_0_clock_35_n03196217_5907.png,n03196217_5907.png,1.0,8.119685,7.0907373,0.727576
alexnet,1,28,NaN,airplane,airplane,0,0028_pow_dnn_0_airplane_35_n02690373_7276.png,n02690373_7276.png,1.0,28.815926,7.771029,14.88099
alexnet,1,29,NaN,bicycle,bicycle,pow,0029_pow_dnn_pow_bicycle_35_n03792782_15561.png,n03792782_15561.png,1.0,8.176994,4.575767,2.5464523
alexnet,1,30,NaN,cat,cat,0,0030_pow_dnn_0_cat_35_n02123045_3505.png,n02123045_3505.png,1.0,9.394317,3.547034,4.134653
alexnet,1,31,NaN,knife,knife,0,0031_pow_dnn_0_knife_35_n03041632_34769.png,n03041632_34769.png,1.0,6.7741494,4.887308,1.3341984
alexnet,1,32,NaN,chair,clock,pow,0032_pow_dnn_pow_clock_35_n03196217_5206.png,n03196217_5206.png,0.0,2.3763547,4.48974,-1.494389
alexnet,1,33,NaN,truck,truck,0,0033_pow_dnn_0_truck_35_n04467665_58815.png,n04467665_58815.png,1.0,12.561443,9.725156,2.0055583
alexnet,1,34,NaN,bird,bird,0,0034_pow_dnn_0_bird_35_n01616318_2186.png,n01616318_2186.png,1.0,10.560294,2.1945405,5.915481
alexnet,1,35,NaN,elephant,bicycle,pow,0035_pow_dnn_pow_bicycle_35_n03792782_12885.png,n03792782_12885.png,0.0,2.5884266,4.1811895,-1.1262535
alexnet,1,36,NaN,boat,airplane,pow,0036_pow_dnn_pow_airplane_35_n02690373_9264.png,n02690373_9264.png,0.0,3.2081535,4.909021,-1.2026949
alexnet,1,37,NaN,chair,chair,0,0037_pow_dnn_0_chair_35_n04099969_16079.png,n04099969_16079.png,1.0,9.528423,4.0186353,3.8960085
alexnet,1,38,NaN,bicycle,bicycle,0,0038_pow_dnn_0_bicycle_35_n02835271_3027.png,n02835271_3027.png,1.0,9.781541,4.570554,3.6847243
alexnet,1,39,NaN,airplane,airplane,0,0039_pow_dnn_0_airplane_35_n02690373_6614.png,n02690373_6614.png,1.0,24.741137,4.9626904,13.985474
alexnet,1,40,NaN,bicycle,chair,pow,0040_pow_dnn_pow_chair_35_n03376595_9048.png,n03376595_9048.png,0.0,4.9861813,7.275667,-1.618911
alexnet,1,41,NaN,oven,oven,0,0041_pow_dnn_0_oven_35_n04111531_6094.png,n04111531_6094.png,1.0,7.5898795,5.371409,1.5686957
alexnet,1,42,NaN,clock,clock,pow,0042_pow_dnn_pow_clock_35_n02708093_687.png,n02708093_687.png,1.0,13.580246,4.601384,6.3490143
alexnet,1,43,NaN,bicycle,bicycle,pow,0043_pow_dnn_pow_bicycle_35_n03792782_14931.png,n03792782_14931.png,1.0,9.899147,3.0214186,4.8632884
alexnet,1,44,NaN,keyboard,bottle,0,0044_pow_dnn_0_bottle_35_n03937543_5567.png,n03937543_5567.png,0.0,6.0316625,6.5623846,-0.37527722
alexnet,1,45,NaN,car,car,0,0045_pow_dnn_0_car_35_n03100240_3073.png,n03100240_3073.png,1.0,18.053423,8.749144,6.579119
alexnet,1,46,NaN,knife,knife,0,0046_pow_dnn_0_knife_35_n03041632_18236.png,n03041632_18236.png,1.0,6.199577,3.0589302,2.2207725
alexnet,1,47,NaN,clock,knife,pow,0047_pow_dnn_pow_knife_35_n03041632_9302.png,n03041632_9302.png,0.0,2.2100208,5.3901076,-2.248661
alexnet,1,48,NaN,bear,bear,0,0048_pow_dnn_0_bear_35_n02134418_2590.png,n02134418_2590.png,1.0,18.301199,5.4958405,9.054756
alexnet,1,49,NaN,bottle,bottle,0,0049_pow_dnn_0_bottle_35_n03983396_24837.png,n03983396_24837.png,1.0,8.993301,7.6636524,0.94020385
alexnet,1,50,NaN,knife,knife,pow,0050_pow_dnn_pow_knife_35_n03041632_3617.png,n03041632_3617.png,1.0,7.199886,4.88251,1.638632
alexnet,1,51,NaN,clock,bicycle,pow,0051_pow_dnn_pow_bicycle_35_n03792782_6735.png,n03792782_6735.png,0.0,3.0052469,3.6687024,-0.46913388
alexnet,1,52,NaN,car,car,0,0052_pow_dnn_0_car_35_n03100240_5387.png,n03100240_5387.png,1.0,16.737219,8.406952,5.8903885
alexnet,1,53,NaN,chair,bottle,0,0053_pow_dnn_0_bottle_35_n03983396_4879.png,n03983396_4879.png,0.0,4.1029615,6.0498023,-1.3766243
alexnet,1,54,NaN,car,car,0,0054_pow_dnn_0_car_35_n03100240_6103.png,n03100240_6103.png,1.0,20.885536,11.097635,6.921091
alexnet,1,55,NaN,oven,bird,pow,0055_pow_dnn_pow_bird_35_n01796340_9255.png,n01796340_9255.png,0.0,-0.8835998,3.6947184,-3.2373598
alexnet,1,56,NaN,oven,cat,pow,0056_pow_dnn_pow_cat_35_n02123394_2448.png,n02123394_2448.png,0.0,-0.022460938,3.3431919,-2.379876
alexnet,1,57,NaN,car,car,0,0057_pow_dnn_0_car_35_n04285008_13174.png,n04285008_13174.png,1.0,14.946805,10.009656,3.4910917
alexnet,1,58,NaN,clock,chair,pow,0058_pow_dnn_pow_chair_35_n04429376_353.png,n04429376_353.png,0.0,4.080739,4.336204,-0.18064106
alexnet,1,59,NaN,bicycle,boat,pow,0059_pow_dnn_pow_boat_35_n02951358_16261.png,n02951358_16261.png,0.0,-0.62656754,2.936258,-2.5192983
alexnet,1,60,NaN,truck,car,pow,0060_pow_dnn_pow_car_35_n04285008_15954.png,n04285008_15954.png,0.0,2.276665,3.7190895,-1.0199482
alexnet,1,61,NaN,truck,truck,pow,0061_pow_dnn_pow_truck_35_n04467665_3411.png,n04467665_3411.png,1.0,7.239083,5.6142426,1.1489356
alexnet,1,62,NaN,oven,oven,pow,0062_pow_dnn_pow_oven_35_n04111531_15743.png,n04111531_15743.png,1.0,4.833582,3.5652127,0.89687246
alexnet,1,63,NaN,elephant,dog,0,0063_pow_dnn_0_dog_35_n02088238_8653.png,n02088238_8653.png,0.0,1.8486322,3.2007756,-0.95610976
alexnet,1,64,NaN,airplane,airplane,0,0064_pow_dnn_0_airplane_35_n02690373_4681.png,n02690373_4681.png,1.0,13.102657,7.6812744,3.8334966
alexnet,1,65,NaN,bicycle,bear,pow,0065_pow_dnn_pow_bear_35_n02134418_5684.png,n02134418_5684.png,0.0,1.6690323,2.6794133,-0.71444726
alexnet,1,66,NaN,bear,bear,pow,0066_pow_dnn_pow_bear_35_n02134418_5830.png,n02134418_5830.png,1.0,8.705626,3.4199085,3.7375665
alexnet,1,67,NaN,boat,truck,0,0067_pow_dnn_0_truck_35_n04467665_45983.png,n04467665_45983.png,0.0,5.9061136,6.47184,-0.40002888
alexnet,1,68,NaN,bird,bird,0,0068_pow_dnn_0_bird_35_n01795545_14302.png,n01795545_14302.png,1.0,5.2069683,3.6889467,1.0734034
alexnet,1,69,NaN,knife,oven,pow,0069_pow_dnn_pow_oven_35_n04111531_19240.png,n04111531_19240.png,0.0,3.3067489,3.4081483,-0.07170022
alexnet,1,70,NaN,knife,knife,0,0070_pow_dnn_0_knife_35_n03041632_22241.png,n03041632_22241.png,1.0,3.9557343,3.7548125,0.14207315
alexnet,1,71,NaN,truck,boat,pow,0071_pow_dnn_pow_boat_35_n03344393_815.png,n03344393_815.png,0.0,2.6844318,2.728537,-0.03118715
alexnet,1,72,NaN,airplane,boat,0,0072_pow_dnn_0_boat_35_n03662601_2120.png,n03662601_2120.png,0.0,5.9927225,7.6100774,-1.1436427
alexnet,1,73,NaN,chair,knife,pow,0073_pow_dnn_pow_knife_35_n03041632_2438.png,n03041632_2438.png,0.0,3.6499038,4.10666,-0.32297534
alexnet,1,74,NaN,bear,bear,pow,0074_pow_dnn_pow_bear_35_n02134418_3073.png,n02134418_3073.png,1.0,6.0064645,4.674366,0.9419359
alexnet,1,75,NaN,elephant,bottle,pow,0075_pow_dnn_pow_bottle_35_n02823428_3328.png,n02823428_3328.png,0.0,4.757839,6.085733,-0.9389627
alexnet,1,76,NaN,car,car,pow,0076_pow_dnn_pow_car_35_n04285008_13259.png,n04285008_13259.png,1.0,6.4589057,4.330661,1.5048964
alexnet,1,77,NaN,oven,oven,0,0077_pow_dnn_0_oven_35_n04111531_15852.png,n04111531_15852.png,1.0,8.878338,4.1216965,3.3634534
alexnet,1,78,NaN,elephant,dog,pow,0078_pow_dnn_pow_dog_35_n02099601_447.png,n02099601_447.png,0.0,0.40195578,6.9734745,-4.6467657
alexnet,1,79,NaN,chair,oven,pow,0079_pow_dnn_pow_oven_35_n04111531_18916.png,n04111531_18916.png,0.0,2.447288,3.0556827,-0.43019998
alexnet,1,80,NaN,knife,bottle,pow,0080_pow_dnn_pow_bottle_35_n04591713_1407.png,n04591713_1407.png,0.0,6.184022,7.334176,-0.8132818
alexnet,1,81,NaN,oven,oven,0,0081_pow_dnn_0_oven_35_n04111531_4585.png,n04111531_4585.png,1.0,9.043281,5.6544657,2.396254
alexnet,1,82,NaN,oven,keyboard,pow,0082_pow_dnn_pow_keyboard_35_n03085013_8364.png,n03085013_8364.png,0.0,0.27243444,2.1376612,-1.3189145
alexnet,1,83,NaN,bear,bear,pow,0083_pow_dnn_pow_bear_35_n02132136_15462.png,n02132136_15462.png,1.0,10.008289,8.110756,1.3417587
alexnet,1,84,NaN,oven,bicycle,pow,0084_pow_dnn_pow_bicycle_35_n03792782_4167.png,n03792782_4167.png,0.0,2.9839845,4.38844,-0.99310017
alexnet,1,85,NaN,boat,boat,0,0085_pow_dnn_0_boat_35_n03662601_16106.png,n03662601_16106.png,1.0,7.455434,7.149194,0.21654445
alexnet,1,86,NaN,oven,keyboard,pow,0086_pow_dnn_pow_keyboard_35_n03085013_2277.png,n03085013_2277.png,0.0,1.019296,4.605891,-2.5361056
alexnet,1,87,NaN,airplane,airplane,pow,0087_pow_dnn_pow_airplane_35_n02690373_8461.png,n02690373_8461.png,1.0,3.2220054,3.0365367,0.13114616
alexnet,1,88,NaN,chair,chair,pow,0088_pow_dnn_pow_chair_35_n03376595_3304.png,n03376595_3304.png,1.0,4.764683,3.82831,0.6621155
alexnet,1,89,NaN,bicycle,bicycle,0,0089_pow_dnn_0_bicycle_35_n03792782_19116.png,n03792782_19116.png,1.0,7.616659,4.0877647,2.4953053
alexnet,1,90,NaN,oven,clock,0,0090_pow_dnn_0_clock_35_n02708093_6734.png,n02708093_6734.png,0.0,12.037236,13.076681,-0.7349986
alexnet,1,91,NaN,chair,chair,0,0091_pow_dnn_0_chair_35_n04429376_6480.png,n04429376_6480.png,1.0,7.174446,6.026406,0.81178707
alexnet,1,92,NaN,bicycle,bicycle,pow,0092_pow_dnn_pow_bicycle_35_n02835271_21339.png,n02835271_21339.png,1.0,3.7806501,2.6705267,0.78497577
alexnet,1,93,NaN,bottle,keyboard,pow,0093_pow_dnn_pow_keyboard_35_n03085013_3859.png,n03085013_3859.png,0.0,2.7056623,3.990816,-0.90874106
alexnet,1,94,NaN,oven,chair,pow,0094_pow_dnn_pow_chair_35_n03376595_360.png,n03376595_360.png,0.0,3.36998,4.988046,-1.1441455
alexnet,1,95,NaN,elephant,elephant,pow,0095_pow_dnn_pow_elephant_35_n02504013_18988.png,n02504013_18988.png,1.0,7.6254454,5.3567767,1.6041911
alexnet,1,96,NaN,bottle,chair,0,0096_pow_dnn_0_chair_35_n04429376_54570.png,n04429376_54570.png,0.0,4.708187,4.744053,-0.02536094
alexnet,1,97,NaN,clock,clock,pow,0097_pow_dnn_pow_clock_35_n04548280_5189.png,n04548280_5189.png,1.0,5.335026,5.0150943,0.22622575
alexnet,1,98,NaN,chair,truck,pow,0098_pow_dnn_pow_truck_35_n04467665_6626.png,n04467665_6626.png,0.0,2.860489,3.1591613,-0.21119331
alexnet,1,99,NaN,boat,boat,0,0099_pow_dnn_0_boat_35_n03344393_3323.png,n03344393_3323.png,1.0,8.804491,3.936296,3.4423337
alexnet,1,100,NaN,elephant,dog,pow,0100_pow_dnn_pow_dog_35_n02100583_3987.png,n02100583_3987.png,0.0,3.1089408,5.1950903,-1.4751304
alexnet,1,101,NaN,elephant,elephant,pow,0101_pow_dnn_pow_elephant_35_n02504013_1702.png,n02504013_1702.png,1.0,11.639441,4.0907817,5.337708
alexnet,1,102,NaN,truck,truck,pow,0102_pow_dnn_pow_truck_35_n03417042_1841.png,n03417042_1841.png,1.0,6.67881,2.6261544,2.8656604
alexnet,1,103,NaN,truck,truck,0,0103_pow_dnn_0_truck_35_n03417042_2062.png,n03417042_2062.png,1.0,12.540146,6.9521527,3.951308
alexnet,1,104,NaN,bottle,bottle,0,0104_pow_dnn_0_bottle_35_n03983396_4178.png,n03983396_4178.png,1.0,11.802711,4.264487,5.3303294
alexnet,1,105,NaN,chair,keyboard,pow,0105_pow_dnn_pow_keyboard_35_n03085013_1698.png,n03085013_1698.png,0.0,-0.50974524,5.182453,-4.024992
alexnet,1,106,NaN,bicycle,car,pow,0106_pow_dnn_pow_car_35_n03100240_7056.png,n03100240_7056.png,0.0,2.947004,3.3558722,-0.2891134
alexnet,1,107,NaN,bear,dog,pow,0107_pow_dnn_pow_dog_35_n02100735_3553.png,n02100735_3553.png,0.0,1.9983284,4.212791,-1.5658615
alexnet,1,108,NaN,oven,oven,pow,0108_pow_dnn_pow_oven_35_n04111531_11781.png,n04111531_11781.png,1.0,4.076616,2.2901855,1.2631971
alexnet,1,109,NaN,cat,cat,0,0109_pow_dnn_0_cat_35_n02123159_4914.png,n02123159_4914.png,1.0,8.536636,2.8192737,4.0427856
alexnet,1,110,NaN,boat,dog,0,0110_pow_dnn_0_dog_35_n02090622_1852.png,n02090622_1852.png,0.0,2.9935908,5.3316913,-1.6532867
alexnet,1,111,NaN,car,car,pow,0111_pow_dnn_pow_car_35_n03100240_24471.png,n03100240_24471.png,1.0,8.542055,5.2374487,2.3367097
alexnet,1,112,NaN,oven,boat,pow,0112_pow_dnn_pow_boat_35_n03344393_3519.png,n03344393_3519.png,0.0,2.140757,3.4762807,-0.9443578
alexnet,1,113,NaN,bottle,keyboard,pow,0113_pow_dnn_pow_keyboard_35_n03085013_22713.png,n03085013_22713.png,0.0,4.7773747,6.7022657,-1.3611035
alexnet,1,114,NaN,elephant,elephant,0,0114_pow_dnn_0_elephant_35_n02504013_6615.png,n02504013_6615.png,1.0,14.408276,5.1509447,6.5459213
alexnet,1,115,NaN,cat,cat,0,0115_pow_dnn_0_cat_35_n02123597_7081.png,n02123597_7081.png,1.0,7.6390057,5.7963023,1.302988
alexnet,1,116,NaN,clock,clock,pow,0116_pow_dnn_pow_clock_35_n04548280_5406.png,n04548280_5406.png,1.0,7.812122,2.0473807,4.0762873
alexnet,1,117,NaN,keyboard,bottle,0,0117_pow_dnn_0_bottle_35_n03983396_21920.png,n03983396_21920.png,0.0,4.694791,6.5514355,-1.3128461
alexnet,1,118,NaN,knife,knife,0,0118_pow_dnn_0_knife_35_n03041632_48675.png,n03041632_48675.png,1.0,8.182386,3.6585596,3.1988285
alexnet,1,119,NaN,bicycle,cat,0,0119_pow_dnn_0_cat_35_n02125311_2103.png,n02125311_2103.png,0.0,0.37327456,1.8745162,-1.0615382
alexnet,1,120,NaN,elephant,bird,pow,0120_pow_dnn_pow_bird_35_n01798484_962.png,n01798484_962.png,0.0,-1.1725658,3.0265696,-2.969237
alexnet,1,121,NaN,oven,oven,pow,0121_pow_dnn_pow_oven_35_n04111531_6393.png,n04111531_6393.png,1.0,7.2096148,3.8133624,2.401513
alexnet,1,122,NaN,oven,oven,0,0122_pow_dnn_0_oven_35_n04111531_4418.png,n04111531_4418.png,1.0,5.719883,4.1905227,1.081421
alexnet,1,123,NaN,bottle,truck,pow,0123_pow_dnn_pow_truck_35_n03796401_296.png,n03796401_296.png,0.0,2.8313763,4.1717825,-0.9478103
alexnet,1,124,NaN,bicycle,bicycle,0,0124_pow_dnn_0_bicycle_35_n02835271_10738.png,n02835271_10738.png,1.0,12.093352,2.6603954,6.670108
alexnet,1,125,NaN,elephant,elephant,0,0125_pow_dnn_0_elephant_35_n02504013_4457.png,n02504013_4457.png,1.0,19.560635,7.8926196,8.250532
alexnet,1,126,NaN,knife,knife,0,0126_pow_dnn_0_knife_35_n03041632_30573.png,n03041632_30573.png,1.0,6.4641137,4.358255,1.4890671
alexnet,1,127,NaN,boat,boat,0,0127_pow_dnn_0_boat_35_n03662601_19840.png,n03662601_19840.png,1.0,6.316326,5.841318,0.33588138
alexnet,1,128,NaN,bear,bear,0,0128_pow_dnn_0_bear_35_n02133161_12167.png,n02133161_12167.png,1.0,12.764909,8.952133,2.6960394
alexnet,1,129,NaN,bottle,bottle,0,0129_pow_dnn_0_bottle_35_n02823428_3028.png,n02823428_3028.png,1.0,6.4856315,6.1203947,0.25826138
alexnet,1,130,NaN,elephant,boat,0,0130_pow_dnn_0_boat_35_n02951358_30149.png,n02951358_30149.png,0.0,4.3061595,6.5823984,-1.609544
alexnet,1,131,NaN,car,car,0,0131_pow_dnn_0_car_35_n02814533_75419.png,n02814533_75419.png,1.0,16.862501,10.865692,4.2403846
alexnet,1,132,NaN,keyboard,keyboard,0,0132_pow_dnn_0_keyboard_35_n03085013_24449.png,n03085013_24449.png,1.0,8.244743,4.8438935,2.404764
alexnet,1,133,NaN,dog,dog,0,0133_pow_dnn_0_dog_35_n02086240_519.png,n02086240_519.png,1.0,5.8983674,1.7590045,2.9269717
alexnet,1,134,NaN,knife,bird,pow,0134_pow_dnn_pow_bird_35_n01582220_2882.png,n01582220_2882.png,0.0,0.9818738,8.438516,-5.272642
alexnet,1,135,NaN,oven,oven,0,0135_pow_dnn_0_oven_35_n04111531_13277.png,n04111531_13277.png,1.0,8.755846,3.3444064,3.8264658
alexnet,1,136,NaN,elephant,bear,pow,0136_pow_dnn_pow_bear_35_n02134084_6901.png,n02134084_6901.png,0.0,3.309309,4.7619376,-1.0271635
alexnet,1,137,NaN,elephant,bird,0,0137_pow_dnn_0_bird_35_n02002556_5447.png,n02002556_5447.png,0.0,2.558334,4.427302,-1.3215598
alexnet,1,138,NaN,keyboard,keyboard,0,0138_pow_dnn_0_keyboard_35_n03085013_20710.png,n03085013_20710.png,1.0,14.893843,6.1785774,6.1626234
alexnet,1,139,NaN,oven,oven,pow,0139_pow_dnn_pow_oven_35_n04111531_11405.png,n04111531_11405.png,1.0,5.4803066,3.3497596,1.5065243
alexnet,1,140,NaN,bear,bear,pow,0140_pow_dnn_pow_bear_35_n02132136_8457.png,n02132136_8457.png,1.0,8.884103,4.629487,3.0084677
alexnet,1,141,NaN,elephant,bird,pow,0141_pow_dnn_pow_bird_35_n02009912_6788.png,n02009912_6788.png,0.0,2.6779199,5.7231045,-2.1532707
alexnet,1,142,NaN,chair,chair,pow,0142_pow_dnn_pow_chair_35_n04429376_9630.png,n04429376_9630.png,1.0,3.5743835,3.1781268,0.2801958
alexnet,1,143,NaN,keyboard,keyboard,0,0143_pow_dnn_0_keyboard_35_n03085013_23658.png,n03085013_23658.png,1.0,16.423035,6.6815786,6.88825
alexnet,1,144,NaN,cat,cat,pow,0144_pow_dnn_pow_cat_35_n02123045_13199.png,n02123045_13199.png,1.0,9.681234,2.565405,5.0316515
alexnet,1,145,NaN,clock,clock,pow,0145_pow_dnn_pow_clock_35_n04548280_6411.png,n04548280_6411.png,1.0,9.5865135,6.900451,1.8993329
alexnet,1,146,NaN,knife,bird,0,0146_pow_dnn_0_bird_35_n01820546_9729.png,n01820546_9729.png,0.0,0.98936784,6.078536,-3.5985854
alexnet,1,147,NaN,boat,boat,0,0147_pow_dnn_0_boat_35_n04273569_12651.png,n04273569_12651.png,1.0,10.761937,7.042358,2.6301398
alexnet,1,148,NaN,oven,elephant,pow,0148_pow_dnn_pow_elephant_35_n02504458_3143.png,n02504458_3143.png,0.0,2.8424177,3.1094952,-0.18885228
alexnet,1,149,NaN,clock,clock,0,0149_pow_dnn_0_clock_35_n03196217_9786.png,n03196217_9786.png,1.0,11.069749,6.59299,3.1655467
alexnet,1,150,NaN,chair,chair,0,0150_pow_dnn_0_chair_35_n03376595_6652.png,n03376595_6652.png,1.0,4.594667,4.14867,0.31536734
alexnet,1,151,NaN,oven,bottle,pow,0151_pow_dnn_pow_bottle_35_n03983396_2998.png,n03983396_2998.png,0.0,3.1480887,4.3336325,-0.83830607
alexnet,1,152,NaN,elephant,elephant,0,0152_pow_dnn_0_elephant_35_n02504458_5331.png,n02504458_5331.png,1.0,17.318256,6.7003093,7.5080223
alexnet,1,153,NaN,car,car,0,0153_pow_dnn_0_car_35_n04285008_8052.png,n04285008_8052.png,1.0,21.329205,10.106544,7.93562
alexnet,1,154,NaN,bottle,bottle,pow,0154_pow_dnn_pow_bottle_35_n04591713_3402.png,n04591713_3402.png,1.0,4.002597,3.461834,0.38237712
alexnet,1,155,NaN,oven,bicycle,pow,0155_pow_dnn_pow_bicycle_35_n02835271_1701.png,n02835271_1701.png,0.0,4.743163,5.447199,-0.49782845
alexnet,1,156,NaN,bicycle,bicycle,0,0156_pow_dnn_0_bicycle_35_n02835271_5196.png,n02835271_5196.png,1.0,17.416664,6.5859065,7.658502
alexnet,1,157,NaN,elephant,elephant,pow,0157_pow_dnn_pow_elephant_35_n02504458_5444.png,n02504458_5444.png,1.0,8.082688,6.530602,1.0974908
alexnet,1,158,NaN,chair,truck,0,0158_pow_dnn_0_truck_35_n03417042_3422.png,n03417042_3422.png,0.0,3.37962,4.7286897,-0.9539363
alexnet,1,159,NaN,dog,dog,pow,0159_pow_dnn_pow_dog_35_n02088466_1537.png,n02088466_1537.png,1.0,4.514336,3.761662,0.53222096
alexnet,1,160,NaN,dog,dog,pow,0160_pow_dnn_pow_dog_35_n02088632_1732.png,n02088632_1732.png,1.0,5.9876556,5.8126917,0.1237182
alexnet,1,161,NaN,truck,truck,0,0161_pow_dnn_0_truck_35_n03796401_3326.png,n03796401_3326.png,1.0,4.9677515,4.5469227,0.2975709
alexnet,1,162,NaN,boat,boat,0,0162_pow_dnn_0_boat_35_n04273569_19796.png,n04273569_19796.png,1.0,11.909257,4.87813,4.9717574
alexnet,1,163,NaN,keyboard,keyboard,pow,0163_pow_dnn_pow_keyboard_35_n04505470_5125.png,n04505470_5125.png,1.0,8.362996,4.757007,2.5498192
alexnet,1,164,NaN,cat,cat,pow,0164_pow_dnn_pow_cat_35_n02123394_1817.png,n02123394_1817.png,1.0,5.379879,2.470358,2.057342
alexnet,1,165,NaN,elephant,cat,pow,0165_pow_dnn_pow_cat_35_n02123159_7465.png,n02123159_7465.png,0.0,4.9273276,5.231287,-0.21493174
alexnet,1,166,NaN,bear,cat,0,0166_pow_dnn_0_cat_35_n02125311_33516.png,n02125311_33516.png,0.0,2.3863332,6.355259,-2.8064544
alexnet,1,167,NaN,chair,bicycle,pow,0167_pow_dnn_pow_bicycle_35_n03792782_30246.png,n03792782_30246.png,0.0,1.3957019,3.055644,-1.1737564
alexnet,1,168,NaN,airplane,truck,0,0168_pow_dnn_0_truck_35_n04467665_72639.png,n04467665_72639.png,0.0,7.0360427,12.572842,-3.9151082
alexnet,1,169,NaN,bicycle,bicycle,0,0169_pow_dnn_0_bicycle_35_n03792782_10395.png,n03792782_10395.png,1.0,6.691028,2.3935614,3.038768
alexnet,1,170,NaN,bicycle,bicycle,pow,0170_pow_dnn_pow_bicycle_35_n02835271_840.png,n02835271_840.png,1.0,4.742822,3.1279583,1.1418812
alexnet,1,171,NaN,chair,knife,pow,0171_pow_dnn_pow_knife_35_n03041632_82197.png,n03041632_82197.png,0.0,1.8669577,3.2484894,-0.97689044
alexnet,1,172,NaN,chair,airplane,pow,0172_pow_dnn_pow_airplane_35_n02690373_8942.png,n02690373_8942.png,0.0,-0.35359213,5.9250984,-4.4397044
alexnet,1,173,NaN,keyboard,keyboard,0,0173_pow_dnn_0_keyboard_35_n03085013_21851.png,n03085013_21851.png,1.0,7.736405,6.0230446,1.2115287
alexnet,1,174,NaN,clock,clock,pow,0174_pow_dnn_pow_clock_35_n04548280_1106.png,n04548280_1106.png,1.0,11.304013,5.501718,4.1028423
alexnet,1,175,NaN,oven,truck,0,0175_pow_dnn_0_truck_35_n03796401_4181.png,n03796401_4181.png,0.0,2.306961,4.0387707,-1.2245743
alexnet,1,176,NaN,knife,knife,pow,0176_pow_dnn_pow_knife_35_n03041632_44019.png,n03041632_44019.png,1.0,4.346851,3.1646752,0.83592445
alexnet,1,177,NaN,truck,truck,0,0177_pow_dnn_0_truck_35_n03417042_1348.png,n03417042_1348.png,1.0,7.377509,5.467331,1.3507
alexnet,1,178,NaN,chair,chair,0,0178_pow_dnn_0_chair_35_n04099969_10516.png,n04099969_10516.png,1.0,8.311704,3.8863118,3.1292248
alexnet,1,179,NaN,oven,chair,pow,0179_pow_dnn_pow_chair_35_n04099969_24041.png,n04099969_24041.png,0.0,5.2934,5.380577,-0.061643645
alexnet,1,180,NaN,clock,truck,pow,0180_pow_dnn_pow_truck_35_n03796401_3618.png,n03796401_3618.png,0.0,3.0834603,5.4257755,-1.656267
alexnet,1,181,NaN,elephant,elephant,0,0181_pow_dnn_0_elephant_35_n02504458_4414.png,n02504458_4414.png,1.0,13.748396,2.7237477,7.7956038
alexnet,1,182,NaN,truck,truck,pow,0182_pow_dnn_pow_truck_35_n03796401_3427.png,n03796401_3427.png,1.0,7.798913,4.289829,2.4812973
alexnet,1,183,NaN,cat,cat,0,0183_pow_dnn_0_cat_35_n02123045_9907.png,n02123045_9907.png,1.0,3.6134841,2.085966,1.0801184
alexnet,1,184,NaN,oven,oven,0,0184_pow_dnn_0_oven_35_n04111531_2156.png,n04111531_2156.png,1.0,7.1309447,5.7323275,0.98897177
alexnet,1,185,NaN,bear,bird,pow,0185_pow_dnn_pow_bird_35_n02002556_12696.png,n02002556_12696.png,0.0,-0.7887372,4.973716,-4.07467
alexnet,1,186,NaN,airplane,airplane,pow,0186_pow_dnn_pow_airplane_35_n02690373_8791.png,n02690373_8791.png,1.0,5.9590206,4.7991476,0.8201541
alexnet,1,187,NaN,knife,knife,pow,0187_pow_dnn_pow_knife_35_n03041632_27963.png,n03041632_27963.png,1.0,3.8934338,3.5953484,0.21077825
alexnet,1,188,NaN,knife,chair,0,0188_pow_dnn_0_chair_35_n03376595_7772.png,n03376595_7772.png,0.0,3.5377314,4.8938665,-0.95893234
alexnet,1,189,NaN,bear,boat,pow,0189_pow_dnn_pow_boat_35_n04273569_3460.png,n04273569_3460.png,0.0,1.8825213,4.4812675,-1.8375912
alexnet,1,190,NaN,oven,oven,0,0190_pow_dnn_0_oven_35_n04111531_5694.png,n04111531_5694.png,1.0,7.6200275,3.2368903,3.0993462
alexnet,1,191,NaN,bear,bear,pow,0191_pow_dnn_pow_bear_35_n02134084_17218.png,n02134084_17218.png,1.0,9.397793,6.817688,1.8244096
alexnet,1,192,NaN,bear,oven,pow,0192_pow_dnn_pow_oven_35_n04111531_2923.png,n04111531_2923.png,0.0,4.8513603,5.376445,-0.3712908
alexnet,1,193,NaN,elephant,keyboard,pow,0193_pow_dnn_pow_keyboard_35_n03085013_22669.png,n03085013_22669.png,0.0,-0.255244,4.110673,-3.0871694
alexnet,1,194,NaN,bottle,bottle,pow,0194_pow_dnn_pow_bottle_35_n04557648_2282.png,n04557648_2282.png,1.0,7.7236853,5.6717935,1.4509066
alexnet,1,195,NaN,elephant,elephant,pow,0195_pow_dnn_pow_elephant_35_n02504013_6693.png,n02504013_6693.png,1.0,8.705848,4.3711805,3.0650725
alexnet,1,196,NaN,boat,chair,0,0196_pow_dnn_0_chair_35_n04099969_39507.png,n04099969_39507.png,0.0,3.607593,4.826399,-0.8618259
alexnet,1,197,NaN,bottle,car,pow,0197_pow_dnn_pow_car_35_n02814533_61184.png,n02814533_61184.png,0.0,1.2549988,4.498989,-2.2938476
alexnet,1,198,NaN,knife,keyboard,pow,0198_pow_dnn_pow_keyboard_35_n04505470_1358.png,n04505470_1358.png,0.0,2.5439286,4.6458855,-1.486308
alexnet,1,199,NaN,truck,truck,pow,0199_pow_dnn_pow_truck_35_n04467665_8824.png,n04467665_8824.png,1.0,6.1109943,2.9500082,2.2351549
alexnet,1,200,NaN,keyboard,keyboard,0,0200_pow_dnn_0_keyboard_35_n04505470_8937.png,n04505470_8937.png,1.0,9.004303,5.918058,2.1823049
alexnet,1,201,NaN,boat,truck,pow,0201_pow_dnn_pow_truck_35_n03417042_7581.png,n03417042_7581.png,0.0,2.7572389,2.8556721,-0.069602825
alexnet,1,202,NaN,bicycle,bicycle,pow,0202_pow_dnn_pow_bicycle_35_n02835271_13234.png,n02835271_13234.png,1.0,7.4684024,2.452312,3.5469115
alexnet,1,203,NaN,cat,cat,pow,0203_pow_dnn_pow_cat_35_n02124075_3383.png,n02124075_3383.png,1.0,7.4712048,3.2280414,3.0003695
alexnet,1,204,NaN,elephant,elephant,pow,0204_pow_dnn_pow_elephant_35_n02504013_474.png,n02504013_474.png,1.0,10.52954,6.7633495,2.6630988
alexnet,1,205,NaN,oven,chair,pow,0205_pow_dnn_pow_chair_35_n04429376_1838.png,n04429376_1838.png,0.0,3.6963089,4.3377414,-0.4535613
alexnet,1,206,NaN,bear,boat,pow,0206_pow_dnn_pow_boat_35_n02951358_5064.png,n02951358_5064.png,0.0,2.1107247,4.2604394,-1.5200778
alexnet,1,207,NaN,knife,knife,pow,0207_pow_dnn_pow_knife_35_n03041632_31037.png,n03041632_31037.png,1.0,5.606174,4.540482,0.75355804
alexnet,1,208,NaN,cat,cat,pow,0208_pow_dnn_pow_cat_35_n02123045_11501.png,n02123045_11501.png,1.0,2.7486181,2.1503131,0.4230655
alexnet,1,209,NaN,elephant,keyboard,pow,0209_pow_dnn_pow_keyboard_35_n03085013_17937.png,n03085013_17937.png,0.0,-3.3810253,4.2749443,-5.413588
alexnet,1,210,NaN,chair,chair,0,0210_pow_dnn_0_chair_35_n03376595_10881.png,n03376595_10881.png,1.0,8.212513,4.710351,2.4764025
alexnet,1,211,NaN,elephant,elephant,0,0211_pow_dnn_0_elephant_35_n02504458_7302.png,n02504458_7302.png,1.0,18.776747,8.643303,7.165427
alexnet,1,212,NaN,airplane,airplane,pow,0212_pow_dnn_pow_airplane_35_n02690373_4704.png,n02690373_4704.png,1.0,5.8908052,4.0660377,1.2903056
alexnet,1,213,NaN,car,car,0,0213_pow_dnn_0_car_35_n03100240_18756.png,n03100240_18756.png,1.0,20.996187,9.028136,8.46269
alexnet,1,214,NaN,knife,keyboard,pow,0214_pow_dnn_pow_keyboard_35_n03085013_20732.png,n03085013_20732.png,0.0,1.5773364,2.8211265,-0.8794924
alexnet,1,215,NaN,bottle,bottle,pow,0215_pow_dnn_pow_bottle_35_n04579145_2999.png,n04579145_2999.png,1.0,5.138133,3.868446,0.89780426
alexnet,1,216,NaN,clock,clock,pow,0216_pow_dnn_pow_clock_35_n02708093_2546.png,n02708093_2546.png,1.0,8.246315,3.625227,3.2676027
alexnet,1,217,NaN,boat,boat,0,0217_pow_dnn_0_boat_35_n03662601_13847.png,n03662601_13847.png,1.0,6.884244,5.1564393,1.2217424
alexnet,1,218,NaN,bicycle,bicycle,0,0218_pow_dnn_0_bicycle_35_n03792782_7878.png,n03792782_7878.png,1.0,19.966516,4.940658,10.6248865
alexnet,1,219,NaN,knife,knife,pow,0219_pow_dnn_pow_knife_35_n03041632_18959.png,n03041632_18959.png,1.0,4.0532856,3.414264,0.45185655
alexnet,1,220,NaN,bear,bear,0,0220_pow_dnn_0_bear_35_n02134418_10576.png,n02134418_10576.png,1.0,17.782465,6.63441,7.8828654
alexnet,1,221,NaN,elephant,elephant,pow,0221_pow_dnn_pow_elephant_35_n02504013_213.png,n02504013_213.png,1.0,9.455281,5.460549,2.8247025
alexnet,1,222,NaN,bear,bottle,pow,0222_pow_dnn_pow_bottle_35_n03983396_2944.png,n03983396_2944.png,0.0,1.7871393,3.427569,-1.159959
alexnet,1,223,NaN,keyboard,truck,0,0223_pow_dnn_0_truck_35_n03796401_8964.png,n03796401_8964.png,0.0,2.5386145,6.122023,-2.5338526
alexnet,1,224,NaN,knife,knife,pow,0224_pow_dnn_pow_knife_35_n03041632_13509.png,n03041632_13509.png,1.0,4.985242,2.2447252,1.937838
alexnet,1,225,NaN,bicycle,bird,pow,0225_pow_dnn_pow_bird_35_n01537544_7301.png,n01537544_7301.png,0.0,-1.688695,4.2658124,-4.2104726
alexnet,1,226,NaN,elephant,elephant,0,0226_pow_dnn_0_elephant_35_n02504013_9618.png,n02504013_9618.png,1.0,13.99131,6.131118,5.5579953
alexnet,1,227,NaN,clock,keyboard,pow,0227_pow_dnn_pow_keyboard_35_n04505470_10191.png,n04505470_10191.png,0.0,0.35870183,5.1226325,-3.3686078
alexnet,1,228,NaN,bicycle,bicycle,pow,0228_pow_dnn_pow_bicycle_35_n02835271_20149.png,n02835271_20149.png,1.0,5.8750553,3.3517585,1.7842404
alexnet,1,229,NaN,truck,truck,0,0229_pow_dnn_0_truck_35_n04467665_2098.png,n04467665_2098.png,1.0,8.632365,6.6550765,1.3981543
alexnet,1,230,NaN,bear,bear,0,0230_pow_dnn_0_bear_35_n02133161_5274.png,n02133161_5274.png,1.0,7.9463553,7.358992,0.41532853
alexnet,1,231,NaN,oven,bird,pow,0231_pow_dnn_pow_bird_35_n01537544_20224.png,n01537544_20224.png,0.0,-1.9220791,3.0640895,-3.525754
alexnet,1,232,NaN,bear,dog,pow,0232_pow_dnn_pow_dog_35_n02094258_6800.png,n02094258_6800.png,0.0,6.2628913,8.372611,-1.4917972
alexnet,1,233,NaN,truck,truck,0,0233_pow_dnn_0_truck_35_n03417042_27326.png,n03417042_27326.png,1.0,10.62803,4.720308,4.1773906
alexnet,1,234,NaN,knife,oven,pow,0234_pow_dnn_pow_oven_35_n04111531_6955.png,n04111531_6955.png,0.0,6.5394564,7.803787,-0.8940169
alexnet,1,235,NaN,clock,clock,0,0235_pow_dnn_0_clock_35_n04548280_7135.png,n04548280_7135.png,1.0,8.630589,5.3609686,2.3119705
alexnet,1,236,NaN,cat,dog,pow,0236_pow_dnn_pow_dog_35_n02113023_12143.png,n02113023_12143.png,0.0,1.8654613,3.816595,-1.3796599
alexnet,1,237,NaN,bicycle,bicycle,0,0237_pow_dnn_0_bicycle_35_n02835271_10832.png,n02835271_10832.png,1.0,12.210888,4.823845,5.2234282
alexnet,1,238,NaN,clock,chair,pow,0238_pow_dnn_pow_chair_35_n02791124_28.png,n02791124_28.png,0.0,6.153371,6.48374,-0.23360616
alexnet,1,239,NaN,bicycle,bicycle,pow,0239_pow_dnn_pow_bicycle_35_n03792782_1715.png,n03792782_1715.png,1.0,8.483319,4.6397667,2.717802
alexnet,1,240,NaN,bicycle,bicycle,0,0240_pow_dnn_0_bicycle_35_n02835271_19875.png,n02835271_19875.png,1.0,10.988428,4.42913,4.638124
alexnet,1,241,NaN,bird,bird,0,0241_pow_dnn_0_bird_35_n02056570_8203.png,n02056570_8203.png,1.0,4.275558,1.6559776,1.852323
alexnet,1,242,NaN,truck,car,pow,0242_pow_dnn_pow_car_35_n02814533_27588.png,n02814533_27588.png,0.0,0.39289537,3.2787805,-2.040629
alexnet,1,243,NaN,bear,bear,0,0243_pow_dnn_0_bear_35_n02134418_2714.png,n02134418_2714.png,1.0,3.0195248,3.0014176,0.012803707
alexnet,1,244,NaN,bear,bear,0,0244_pow_dnn_0_bear_35_n02132136_900.png,n02132136_900.png,1.0,11.412287,4.9296517,4.583915
alexnet,1,245,NaN,dog,dog,0,0245_pow_dnn_0_dog_35_n02095889_7413.png,n02095889_7413.png,1.0,6.682528,3.524451,2.2330978
alexnet,1,246,NaN,knife,boat,0,0246_pow_dnn_0_boat_35_n02951358_14877.png,n02951358_14877.png,0.0,2.300321,4.317559,-1.4264024
alexnet,1,247,NaN,knife,knife,pow,0247_pow_dnn_pow_knife_35_n03041632_42472.png,n03041632_42472.png,1.0,6.7583203,1.8650173,3.4600878
alexnet,1,248,NaN,bottle,bottle,pow,0248_pow_dnn_pow_bottle_35_n02823428_12740.png,n02823428_12740.png,1.0,11.1351,10.722619,0.29166833
alexnet,1,249,NaN,boat,boat,0,0249_pow_dnn_0_boat_35_n02951358_2537.png,n02951358_2537.png,1.0,5.7650833,4.6193748,0.8101383
alexnet,1,250,NaN,dog,dog,0,0250_pow_dnn_0_dog_35_n02106166_5135.png,n02106166_5135.png,1.0,6.2421637,4.2145753,1.4337215
alexnet,1,251,NaN,oven,oven,pow,0251_pow_dnn_pow_oven_35_n04111531_23046.png,n04111531_23046.png,1.0,6.805667,3.0608401,2.6479924
alexnet,1,252,NaN,chair,dog,pow,0252_pow_dnn_pow_dog_35_n02105855_3310.png,n02105855_3310.png,0.0,0.8794067,2.3991978,-1.0746546
alexnet,1,253,NaN,knife,bird,0,0253_pow_dnn_0_bird_35_n01843383_2122.png,n01843383_2122.png,0.0,-0.08754565,4.352172,-3.1393547
alexnet,1,254,NaN,chair,boat,pow,0254_pow_dnn_pow_boat_35_n03344393_8407.png,n03344393_8407.png,0.0,0.7881648,4.990508,-2.9715056
alexnet,1,255,NaN,clock,clock,pow,0255_pow_dnn_pow_clock_35_n04548280_4739.png,n04548280_4739.png,1.0,7.0191483,3.7319562,2.324396
alexnet,1,256,NaN,keyboard,keyboard,0,0256_pow_dnn_0_keyboard_35_n04505470_3531.png,n04505470_3531.png,1.0,18.907154,7.714775,7.9142075
alexnet,1,257,NaN,boat,airplane,pow,0257_pow_dnn_pow_airplane_35_n02690373_7740.png,n02690373_7740.png,0.0,4.026334,5.302085,-0.9020923
alexnet,1,258,NaN,bear,bear,pow,0258_pow_dnn_pow_bear_35_n02132136_4699.png,n02132136_4699.png,1.0,9.062631,3.7845862,3.7321413
alexnet,1,259,NaN,airplane,airplane,pow,0259_pow_dnn_pow_airplane_35_n02690373_5277.png,n02690373_5277.png,1.0,8.651209,3.9684606,3.3112032
alexnet,1,260,NaN,clock,clock,pow,0260_pow_dnn_pow_clock_35_n04548280_8841.png,n04548280_8841.png,1.0,12.816499,6.196484,4.6810575
alexnet,1,261,NaN,bottle,truck,pow,0261_pow_dnn_pow_truck_35_n03796401_142.png,n03796401_142.png,0.0,0.5960362,5.508857,-3.4738889
alexnet,1,262,NaN,bear,bear,pow,0262_pow_dnn_pow_bear_35_n02134418_4666.png,n02134418_4666.png,1.0,6.692475,6.085141,0.42944977
alexnet,1,263,NaN,keyboard,chair,0,0263_pow_dnn_0_chair_35_n04429376_17074.png,n04429376_17074.png,0.0,4.4222956,4.859482,-0.30913737
alexnet,1,264,NaN,dog,dog,0,0264_pow_dnn_0_dog_35_n02107683_1934.png,n02107683_1934.png,1.0,4.6777196,2.6325932,1.4461228
alexnet,1,265,NaN,chair,bicycle,0,0265_pow_dnn_0_bicycle_35_n03792782_3765.png,n03792782_3765.png,0.0,1.1085062,5.567159,-3.1527438
alexnet,1,266,NaN,elephant,elephant,pow,0266_pow_dnn_pow_elephant_35_n02504013_7026.png,n02504013_7026.png,1.0,12.951857,4.477869,5.9920144
alexnet,1,267,NaN,knife,clock,pow,0267_pow_dnn_pow_clock_35_n03196217_3063.png,n03196217_3063.png,0.0,1.634936,4.580405,-2.0827615
alexnet,1,268,NaN,elephant,bear,pow,0268_pow_dnn_pow_bear_35_n02134418_1041.png,n02134418_1041.png,0.0,3.245927,4.1775365,-0.6587473
alexnet,1,269,NaN,clock,boat,pow,0269_pow_dnn_pow_boat_35_n03344393_8258.png,n03344393_8258.png,0.0,2.9767556,6.271765,-2.3299236
alexnet,1,270,NaN,oven,oven,0,0270_pow_dnn_0_oven_35_n04111531_10306.png,n04111531_10306.png,1.0,11.401872,5.0473127,4.493352
alexnet,1,271,NaN,clock,bottle,0,0271_pow_dnn_0_bottle_35_n02823428_641.png,n02823428_641.png,0.0,3.4863799,5.6554203,-1.5337433
alexnet,1,272,NaN,oven,oven,pow,0272_pow_dnn_pow_oven_35_n04111531_1873.png,n04111531_1873.png,1.0,5.58224,3.399228,1.5436226
alexnet,1,273,NaN,bear,bear,0,0273_pow_dnn_0_bear_35_n02134418_559.png,n02134418_559.png,1.0,7.74014,3.6686594,2.8789718
alexnet,1,274,NaN,clock,keyboard,pow,0274_pow_dnn_pow_keyboard_35_n04505470_4844.png,n04505470_4844.png,0.0,4.7242727,4.7769594,-0.037255116
alexnet,1,275,NaN,keyboard,keyboard,0,0275_pow_dnn_0_keyboard_35_n03085013_23291.png,n03085013_23291.png,1.0,15.130161,10.909119,2.9847279
alexnet,1,276,NaN,car,car,0,0276_pow_dnn_0_car_35_n03100240_5808.png,n03100240_5808.png,1.0,17.754797,9.418302,5.8947926
alexnet,1,277,NaN,boat,bear,0,0277_pow_dnn_0_bear_35_n02134084_15968.png,n02134084_15968.png,0.0,0.9724757,5.28618,-3.0502498
alexnet,1,278,NaN,bear,cat,0,0278_pow_dnn_0_cat_35_n02125311_20238.png,n02125311_20238.png,0.0,4.6525455,5.164392,-0.36193016
alexnet,1,279,NaN,elephant,bird,0,0279_pow_dnn_0_bird_35_n02028035_8994.png,n02028035_8994.png,0.0,2.5001962,4.763837,-1.6006356
alexnet,1,280,NaN,knife,airplane,pow,0280_pow_dnn_pow_airplane_35_n02690373_4471.png,n02690373_4471.png,0.0,4.354169,5.1360693,-0.5528871
alexnet,1,281,NaN,car,truck,0,0281_pow_dnn_0_truck_35_n03796401_322.png,n03796401_322.png,0.0,11.7073345,13.506778,-1.2723986
alexnet,1,282,NaN,oven,car,pow,0282_pow_dnn_pow_car_35_n04285008_402.png,n04285008_402.png,0.0,1.5647134,4.9913187,-2.4229758
alexnet,1,283,NaN,oven,oven,0,0283_pow_dnn_0_oven_35_n04111531_807.png,n04111531_807.png,1.0,10.375092,3.9531887,4.540971
alexnet,1,284,NaN,oven,oven,0,0284_pow_dnn_0_oven_35_n04111531_20369.png,n04111531_20369.png,1.0,9.946411,4.0305033,4.1831784
alexnet,1,285,NaN,chair,knife,pow,0285_pow_dnn_pow_knife_35_n03041632_24114.png,n03041632_24114.png,0.0,4.3298182,4.8169475,-0.34445238
alexnet,1,286,NaN,knife,dog,0,0286_pow_dnn_0_dog_35_n02093256_1102.png,n02093256_1102.png,0.0,2.882314,4.1656494,-0.9074552
alexnet,1,287,NaN,bottle,bottle,0,0287_pow_dnn_0_bottle_35_n03983396_17636.png,n03983396_17636.png,1.0,10.069524,4.258992,4.1086664
alexnet,1,288,NaN,elephant,bird,0,0288_pow_dnn_0_bird_35_n01855672_55167.png,n01855672_55167.png,0.0,1.096133,3.043259,-1.3768259
alexnet,1,289,NaN,bottle,bottle,0,0289_pow_dnn_0_bottle_35_n02823428_1149.png,n02823428_1149.png,1.0,8.759634,5.6666536,2.1870675
alexnet,1,290,NaN,truck,truck,pow,0290_pow_dnn_pow_truck_35_n03417042_1182.png,n03417042_1182.png,1.0,3.6679854,3.3582497,0.21901627
alexnet,1,291,NaN,bear,bear,0,0291_pow_dnn_0_bear_35_n02134084_22051.png,n02134084_22051.png,1.0,12.749983,7.5771923,3.6577153
alexnet,1,292,NaN,elephant,cat,pow,0292_pow_dnn_pow_cat_35_n02123159_5170.png,n02123159_5170.png,0.0,2.564461,3.0830328,-0.3666857
alexnet,1,293,NaN,airplane,airplane,pow,0293_pow_dnn_pow_airplane_35_n02690373_4042.png,n02690373_4042.png,1.0,10.175387,6.3255167,2.7222698
alexnet,1,294,NaN,airplane,airplane,pow,0294_pow_dnn_pow_airplane_35_n02690373_6231.png,n02690373_6231.png,1.0,3.9386785,3.653799,0.20144019
alexnet,1,295,NaN,bear,bear,0,0295_pow_dnn_0_bear_35_n02134418_4657.png,n02134418_4657.png,1.0,6.8543158,5.869068,0.6966753
alexnet,1,296,NaN,car,car,0,0296_pow_dnn_0_car_35_n03100240_24505.png,n03100240_24505.png,1.0,7.4568458,6.3810325,0.7607149
alexnet,1,297,NaN,airplane,bird,0,0297_pow_dnn_0_bird_35_n02006656_4031.png,n02006656_4031.png,0.0,5.096804,5.2817183,-0.13075402
alexnet,1,298,NaN,truck,truck,0,0298_pow_dnn_0_truck_35_n03796401_20861.png,n03796401_20861.png,1.0,9.10035,6.255384,2.0116951
alexnet,1,299,NaN,oven,truck,0,0299_pow_dnn_0_truck_35_n03417042_4934.png,n03417042_4934.png,0.0,4.5114512,5.7517214,-0.87700343
alexnet,1,300,NaN,oven,bird,0,0300_pow_dnn_0_bird_35_n01824575_3046.png,n01824575_3046.png,0.0,0.43883374,3.4083807,-2.099787
alexnet,1,301,NaN,elephant,elephant,pow,0301_pow_dnn_pow_elephant_35_n02504458_3463.png,n02504458_3463.png,1.0,11.119436,3.4059806,5.454237
alexnet,1,302,NaN,airplane,airplane,0,0302_pow_dnn_0_airplane_35_n02690373_6914.png,n02690373_6914.png,1.0,15.052427,10.958729,2.894682
alexnet,1,303,NaN,bottle,bottle,0,0303_pow_dnn_0_bottle_35_n03983396_3675.png,n03983396_3675.png,1.0,5.844285,4.3282924,1.0719687
alexnet,1,304,NaN,dog,dog,pow,0304_pow_dnn_pow_dog_35_n02088364_12272.png,n02088364_12272.png,1.0,4.4425197,4.035564,0.28776115
alexnet,1,305,NaN,dog,dog,0,0305_pow_dnn_0_dog_35_n02085936_1706.png,n02085936_1706.png,1.0,5.6585784,3.2418468,1.7088873
alexnet,1,306,NaN,elephant,bear,0,0306_pow_dnn_0_bear_35_n02134084_18372.png,n02134084_18372.png,0.0,5.5431247,6.474209,-0.6583759
alexnet,1,307,NaN,keyboard,keyboard,0,0307_pow_dnn_0_keyboard_35_n04505470_751.png,n04505470_751.png,1.0,15.64108,7.1251864,6.0216465
alexnet,1,308,NaN,bear,bird,0,0308_pow_dnn_0_bird_35_n02018207_19525.png,n02018207_19525.png,0.0,1.4214354,5.992424,-3.232177
alexnet,1,309,NaN,bottle,bicycle,pow,0309_pow_dnn_pow_bicycle_35_n02835271_3329.png,n02835271_3329.png,0.0,1.7014315,5.1995826,-2.4735663
alexnet,1,310,NaN,elephant,clock,pow,0310_pow_dnn_pow_clock_35_n04548280_1960.png,n04548280_1960.png,0.0,5.5066037,5.717384,-0.14904407
alexnet,1,311,NaN,chair,chair,0,0311_pow_dnn_0_chair_35_n03376595_6240.png,n03376595_6240.png,1.0,11.213971,3.298586,5.5970225
alexnet,1,312,NaN,knife,knife,pow,0312_pow_dnn_pow_knife_35_n03041632_13194.png,n03041632_13194.png,1.0,4.1313944,3.1542556,0.69094145
alexnet,1,313,NaN,knife,knife,0,0313_pow_dnn_0_knife_35_n03041632_13465.png,n03041632_13465.png,1.0,6.686493,3.325397,2.3766537
alexnet,1,314,NaN,cat,cat,pow,0314_pow_dnn_pow_cat_35_n02125311_10174.png,n02125311_10174.png,1.0,6.009168,2.6350265,2.3858786
alexnet,1,315,NaN,truck,car,pow,0315_pow_dnn_pow_car_35_n02814533_7420.png,n02814533_7420.png,0.0,2.405265,4.1024303,-1.200077
alexnet,1,316,NaN,truck,truck,pow,0316_pow_dnn_pow_truck_35_n04467665_3876.png,n04467665_3876.png,1.0,4.2636585,3.3468614,0.6482735
alexnet,1,317,NaN,airplane,airplane,0,0317_pow_dnn_0_airplane_35_n02690373_12976.png,n02690373_12976.png,1.0,14.32337,8.259273,4.2879643
alexnet,1,318,NaN,bear,bear,pow,0318_pow_dnn_pow_bear_35_n02133161_10441.png,n02133161_10441.png,1.0,6.3782635,3.3995564,2.106264
alexnet,1,319,NaN,chair,chair,pow,0319_pow_dnn_pow_chair_35_n03376595_13703.png,n03376595_13703.png,1.0,3.8758805,3.6724212,0.14386743
alexnet,1,320,NaN,bicycle,bicycle,pow,0320_pow_dnn_pow_bicycle_35_n03792782_11625.png,n03792782_11625.png,1.0,6.8295636,3.900927,2.0708587
alexnet,1,321,NaN,chair,oven,pow,0321_pow_dnn_pow_oven_35_n04111531_22797.png,n04111531_22797.png,0.0,1.5570225,3.7722425,-1.5663971
alexnet,1,322,NaN,chair,chair,pow,0322_pow_dnn_pow_chair_35_n03376595_9651.png,n03376595_9651.png,1.0,6.682477,4.032867,1.8735572
alexnet,1,323,NaN,dog,bicycle,pow,0323_pow_dnn_pow_bicycle_35_n03792782_4830.png,n03792782_4830.png,0.0,3.1343923,3.2964442,-0.11458801
alexnet,1,324,NaN,bicycle,elephant,pow,0324_pow_dnn_pow_elephant_35_n02504013_7191.png,n02504013_7191.png,0.0,2.799138,3.4407516,-0.45368925
alexnet,1,325,NaN,knife,knife,0,0325_pow_dnn_0_knife_35_n03041632_120.png,n03041632_120.png,1.0,13.926321,4.9096956,6.375717
alexnet,1,326,NaN,knife,airplane,pow,0326_pow_dnn_pow_airplane_35_n02690373_5465.png,n02690373_5465.png,0.0,1.8456517,5.103471,-2.303626
alexnet,1,327,NaN,car,car,pow,0327_pow_dnn_pow_car_35_n04285008_8443.png,n04285008_8443.png,1.0,7.809462,4.767955,2.1506705
alexnet,1,328,NaN,bottle,bottle,0,0328_pow_dnn_0_bottle_35_n04557648_132.png,n04557648_132.png,1.0,13.365548,5.07154,5.8647494
alexnet,1,329,NaN,airplane,airplane,pow,0329_pow_dnn_pow_airplane_35_n02690373_18304.png,n02690373_18304.png,1.0,10.219875,3.4003153,4.8221574
alexnet,1,330,NaN,oven,knife,pow,0330_pow_dnn_pow_knife_35_n03041632_102764.png,n03041632_102764.png,0.0,4.8756847,5.095689,-0.15556638
alexnet,1,331,NaN,oven,chair,pow,0331_pow_dnn_pow_chair_35_n02791124_16913.png,n02791124_16913.png,0.0,5.8563313,6.113638,-0.18194322
alexnet,1,332,NaN,bicycle,bicycle,pow,0332_pow_dnn_pow_bicycle_35_n02835271_324.png,n02835271_324.png,1.0,6.5904617,3.5741346,2.1328654
alexnet,1,333,NaN,airplane,airplane,pow,0333_pow_dnn_pow_airplane_35_n02690373_12966.png,n02690373_12966.png,1.0,12.917694,5.6002407,5.174221
alexnet,1,334,NaN,knife,keyboard,pow,0334_pow_dnn_pow_keyboard_35_n03085013_24653.png,n03085013_24653.png,0.0,1.6150118,5.201401,-2.5359604
alexnet,1,335,NaN,bicycle,bicycle,0,0335_pow_dnn_0_bicycle_35_n03792782_18529.png,n03792782_18529.png,1.0,7.886834,5.5692363,1.6387892
alexnet,1,336,NaN,airplane,airplane,pow,0336_pow_dnn_pow_airplane_35_n02690373_2433.png,n02690373_2433.png,1.0,11.496745,4.2351384,5.1347313
alexnet,1,337,NaN,elephant,cat,0,0337_pow_dnn_0_cat_35_n02125311_28447.png,n02125311_28447.png,0.0,3.3510952,4.8799324,-1.0810512
alexnet,1,338,NaN,knife,knife,0,0338_pow_dnn_0_knife_35_n03041632_20504.png,n03041632_20504.png,1.0,11.423859,2.670009,6.1899066
alexnet,1,339,NaN,bicycle,bear,pow,0339_pow_dnn_pow_bear_35_n02132136_15870.png,n02132136_15870.png,0.0,3.2363436,3.823346,-0.4150733
alexnet,1,340,NaN,car,car,0,0340_pow_dnn_0_car_35_n02814533_11273.png,n02814533_11273.png,1.0,10.531994,8.825072,1.2069758
alexnet,1,341,NaN,elephant,elephant,0,0341_pow_dnn_0_elephant_35_n02504013_2476.png,n02504013_2476.png,1.0,14.75589,3.2851439,8.111042
alexnet,1,342,NaN,bear,bear,0,0342_pow_dnn_0_bear_35_n02133161_14945.png,n02133161_14945.png,1.0,2.8835778,2.3510842,0.37652984
alexnet,1,343,NaN,car,car,0,0343_pow_dnn_0_car_35_n04285008_7870.png,n04285008_7870.png,1.0,13.836422,11.723068,1.4943668
alexnet,1,344,NaN,airplane,airplane,0,0344_pow_dnn_0_airplane_35_n02690373_10129.png,n02690373_10129.png,1.0,18.964529,9.389287,6.7707186
alexnet,1,345,NaN,chair,truck,pow,0345_pow_dnn_pow_truck_35_n03417042_1479.png,n03417042_1479.png,0.0,3.3076324,4.3984194,-0.7713029
alexnet,1,346,NaN,boat,boat,pow,0346_pow_dnn_pow_boat_35_n04612504_10662.png,n04612504_10662.png,1.0,2.974403,2.9632428,0.007891407
alexnet,1,347,NaN,knife,bird,0,0347_pow_dnn_0_bird_35_n02056570_5891.png,n02056570_5891.png,0.0,-0.81560546,4.284192,-3.6061015
alexnet,1,348,NaN,elephant,elephant,pow,0348_pow_dnn_pow_elephant_35_n02504458_5982.png,n02504458_5982.png,1.0,7.3802247,3.109523,3.019842
alexnet,1,349,NaN,truck,truck,pow,0349_pow_dnn_pow_truck_35_n03417042_19955.png,n03417042_19955.png,1.0,7.784324,3.1434774,3.2815742
alexnet,1,350,NaN,oven,oven,0,0350_pow_dnn_0_oven_35_n04111531_6120.png,n04111531_6120.png,1.0,10.808675,5.7344513,3.588018
alexnet,1,351,NaN,oven,oven,0,0351_pow_dnn_0_oven_35_n04111531_4750.png,n04111531_4750.png,1.0,5.102273,4.538038,0.39897454
alexnet,1,352,NaN,boat,boat,0,0352_pow_dnn_0_boat_35_n02951358_29779.png,n02951358_29779.png,1.0,6.617119,3.7865086,2.0015438
alexnet,1,353,NaN,bear,bear,0,0353_pow_dnn_0_bear_35_n02134084_14168.png,n02134084_14168.png,1.0,4.097997,3.998878,0.07008785
alexnet,1,354,NaN,cat,cat,0,0354_pow_dnn_0_cat_35_n02123597_6990.png,n02123597_6990.png,1.0,5.338629,2.974489,1.6716993
alexnet,1,355,NaN,chair,chair,0,0355_pow_dnn_0_chair_35_n02791124_2008.png,n02791124_2008.png,1.0,10.23827,5.7359242,3.183639
alexnet,1,356,NaN,knife,car,pow,0356_pow_dnn_pow_car_35_n04285008_2185.png,n04285008_2185.png,0.0,2.0694685,3.4908023,-1.0050348
alexnet,1,357,NaN,bear,bear,0,0357_pow_dnn_0_bear_35_n02134084_13205.png,n02134084_13205.png,1.0,6.8176208,4.8629994,1.382126
alexnet,1,358,NaN,elephant,bird,pow,0358_pow_dnn_pow_bird_35_n01558993_6351.png,n01558993_6351.png,0.0,-2.544039,5.067769,-5.382361
alexnet,1,359,NaN,chair,bicycle,0,0359_pow_dnn_0_bicycle_35_n02835271_8017.png,n02835271_8017.png,0.0,5.115924,5.1962357,-0.056789003
alexnet,1,360,NaN,cat,cat,0,0360_pow_dnn_0_cat_35_n02124075_4189.png,n02124075_4189.png,1.0,7.581345,2.9800875,3.2535803
alexnet,1,361,NaN,elephant,elephant,pow,0361_pow_dnn_pow_elephant_35_n02504458_3616.png,n02504458_3616.png,1.0,12.273239,5.0031424,5.1407347
alexnet,1,362,NaN,chair,boat,pow,0362_pow_dnn_pow_boat_35_n04612504_8636.png,n04612504_8636.png,0.0,3.6357918,3.6714602,-0.02522135
alexnet,1,363,NaN,car,car,pow,0363_pow_dnn_pow_car_35_n03100240_10502.png,n03100240_10502.png,1.0,6.3301697,5.173753,0.8177102
alexnet,1,364,NaN,bottle,bottle,0,0364_pow_dnn_0_bottle_35_n03983396_2271.png,n03983396_2271.png,1.0,7.3218026,3.9033494,2.4172115
alexnet,1,365,NaN,clock,clock,0,0365_pow_dnn_0_clock_35_n04548280_280.png,n04548280_280.png,1.0,11.200905,4.4843965,4.7492886
alexnet,1,366,NaN,airplane,truck,0,0366_pow_dnn_0_truck_35_n04467665_356.png,n04467665_356.png,0.0,6.8668776,10.638739,-2.6671085
alexnet,1,367,NaN,airplane,airplane,0,0367_pow_dnn_0_airplane_35_n02690373_306.png,n02690373_306.png,1.0,17.816442,6.7300725,7.8392477
alexnet,1,368,NaN,bear,bird,pow,0368_pow_dnn_pow_bird_35_n02007558_11331.png,n02007558_11331.png,0.0,-0.57140833,5.65196,-4.400586
alexnet,1,369,NaN,cat,dog,0,0369_pow_dnn_0_dog_35_n02105162_1003.png,n02105162_1003.png,0.0,6.4408593,7.009691,-0.40222493
alexnet,1,370,NaN,bear,bird,pow,0370_pow_dnn_pow_bird_35_n01534433_11695.png,n01534433_11695.png,0.0,-1.1776124,3.2752495,-3.1486487
alexnet,1,371,NaN,oven,oven,0,0371_pow_dnn_0_oven_35_n04111531_19631.png,n04111531_19631.png,1.0,11.659252,7.7628517,2.7551713
alexnet,1,372,NaN,elephant,elephant,pow,0372_pow_dnn_pow_elephant_35_n02504013_8534.png,n02504013_8534.png,1.0,6.174843,3.919682,1.5946395
alexnet,1,373,NaN,oven,oven,0,0373_pow_dnn_0_oven_35_n04111531_10436.png,n04111531_10436.png,1.0,10.481163,9.228874,0.8855019
alexnet,1,374,NaN,airplane,airplane,pow,0374_pow_dnn_pow_airplane_35_n02690373_1819.png,n02690373_1819.png,1.0,9.652718,4.7729783,3.450497
alexnet,1,375,NaN,clock,cat,0,0375_pow_dnn_0_cat_35_n02123597_14032.png,n02123597_14032.png,0.0,2.1324022,4.3828263,-1.5912902
alexnet,1,376,NaN,elephant,elephant,0,0376_pow_dnn_0_elephant_35_n02504013_10922.png,n02504013_10922.png,1.0,10.801891,2.4808896,5.883837
alexnet,1,377,NaN,boat,boat,0,0377_pow_dnn_0_boat_35_n03662601_81.png,n03662601_81.png,1.0,7.4211264,3.2600112,2.9423528
alexnet,1,378,NaN,bottle,bottle,pow,0378_pow_dnn_pow_bottle_35_n03937543_11347.png,n03937543_11347.png,1.0,6.6720285,4.2308416,1.7261798
alexnet,1,379,NaN,elephant,knife,pow,0379_pow_dnn_pow_knife_35_n03041632_85416.png,n03041632_85416.png,0.0,2.3066611,4.6897907,-1.6851271
alexnet,1,380,NaN,truck,car,pow,0380_pow_dnn_pow_car_35_n03100240_15676.png,n03100240_15676.png,0.0,7.820883,8.824639,-0.70976305
alexnet,1,381,NaN,oven,oven,0,0381_pow_dnn_0_oven_35_n04111531_4189.png,n04111531_4189.png,1.0,10.875793,4.690076,4.373963
alexnet,1,382,NaN,truck,car,pow,0382_pow_dnn_pow_car_35_n02814533_65623.png,n02814533_65623.png,0.0,2.7925224,3.768805,-0.69033605
alexnet,1,383,NaN,airplane,airplane,0,0383_pow_dnn_0_airplane_35_n02690373_4945.png,n02690373_4945.png,1.0,27.682571,6.9327593,14.672334
alexnet,1,384,NaN,elephant,dog,0,0384_pow_dnn_0_dog_35_n02088364_5801.png,n02088364_5801.png,0.0,3.5671792,4.0235705,-0.3227174
alexnet,1,385,NaN,elephant,dog,pow,0385_pow_dnn_pow_dog_35_n02108915_8164.png,n02108915_8164.png,0.0,2.6407177,2.842249,-0.14250407
alexnet,1,386,NaN,car,car,0,0386_pow_dnn_0_car_35_n03100240_1435.png,n03100240_1435.png,1.0,15.866287,11.198906,3.300337
alexnet,1,387,NaN,clock,clock,0,0387_pow_dnn_0_clock_35_n03196217_412.png,n03196217_412.png,1.0,4.9286284,3.397912,1.0823799
alexnet,1,388,NaN,chair,boat,pow,0388_pow_dnn_pow_boat_35_n03344393_6713.png,n03344393_6713.png,0.0,1.630709,4.8170385,-2.2530751
alexnet,1,389,NaN,knife,knife,0,0389_pow_dnn_0_knife_35_n03041632_4305.png,n03041632_4305.png,1.0,8.300209,6.0716677,1.5758168
alexnet,1,390,NaN,oven,car,pow,0390_pow_dnn_pow_car_35_n04285008_10287.png,n04285008_10287.png,0.0,0.28949848,4.4816666,-2.9643106
alexnet,1,391,NaN,elephant,car,pow,0391_pow_dnn_pow_car_35_n04285008_15071.png,n04285008_15071.png,0.0,1.7636371,6.4122,-3.2870305
alexnet,1,392,NaN,knife,knife,pow,0392_pow_dnn_pow_knife_35_n03041632_22214.png,n03041632_22214.png,1.0,5.444384,5.132596,0.22046748
alexnet,1,393,NaN,boat,boat,pow,0393_pow_dnn_pow_boat_35_n04612504_3064.png,n04612504_3064.png,1.0,4.694454,4.450938,0.1721918
alexnet,1,394,NaN,chair,chair,0,0394_pow_dnn_0_chair_35_n02791124_7193.png,n02791124_7193.png,1.0,7.92479,5.7873206,1.511419
alexnet,1,395,NaN,boat,boat,0,0395_pow_dnn_0_boat_35_n03344393_5511.png,n03344393_5511.png,1.0,12.091916,5.2475514,4.839697
alexnet,1,396,NaN,boat,boat,pow,0396_pow_dnn_pow_boat_35_n04273569_11997.png,n04273569_11997.png,1.0,8.064854,3.2134256,3.4304776
alexnet,1,397,NaN,bicycle,bicycle,0,0397_pow_dnn_0_bicycle_35_n03792782_1424.png,n03792782_1424.png,1.0,5.318719,3.4998045,1.2861668
alexnet,1,398,NaN,oven,clock,pow,0398_pow_dnn_pow_clock_35_n03196217_3362.png,n03196217_3362.png,0.0,1.4722978,5.47682,-2.831625
alexnet,1,399,NaN,chair,truck,pow,0399_pow_dnn_pow_truck_35_n04467665_21942.png,n04467665_21942.png,0.0,4.023225,5.2607265,-0.8750458
alexnet,1,400,NaN,oven,oven,0,0400_pow_dnn_0_oven_35_n04111531_6445.png,n04111531_6445.png,1.0,9.471993,5.579844,2.7521653
alexnet,1,401,NaN,chair,chair,0,0401_pow_dnn_0_chair_35_n04099969_1163.png,n04099969_1163.png,1.0,11.018071,4.0474873,4.9289474
alexnet,1,402,NaN,clock,clock,pow,0402_pow_dnn_pow_clock_35_n02708093_3645.png,n02708093_3645.png,1.0,10.323346,3.7988176,4.6135383
alexnet,1,403,NaN,bicycle,bicycle,0,0403_pow_dnn_0_bicycle_35_n03792782_68319.png,n03792782_68319.png,1.0,10.774237,3.5428104,5.1133904
alexnet,1,404,NaN,oven,dog,pow,0404_pow_dnn_pow_dog_35_n02111129_513.png,n02111129_513.png,0.0,2.403813,5.0147886,-1.8462387
alexnet,1,405,NaN,airplane,airplane,pow,0405_pow_dnn_pow_airplane_35_n02690373_2676.png,n02690373_2676.png,1.0,14.743177,5.47476,6.553761
alexnet,1,406,NaN,airplane,airplane,0,0406_pow_dnn_0_airplane_35_n02690373_1206.png,n02690373_1206.png,1.0,9.075747,5.1933017,2.7453032
alexnet,1,407,NaN,dog,dog,0,0407_pow_dnn_0_dog_35_n02100735_1445.png,n02100735_1445.png,1.0,6.761938,1.5900699,3.6570632
alexnet,1,408,NaN,bear,dog,pow,0408_pow_dnn_pow_dog_35_n02102040_312.png,n02102040_312.png,0.0,2.00783,2.602743,-0.42066702
alexnet,1,409,NaN,keyboard,keyboard,0,0409_pow_dnn_0_keyboard_35_n03085013_22996.png,n03085013_22996.png,1.0,17.154392,5.9398837,7.929855
alexnet,1,410,NaN,boat,boat,0,0410_pow_dnn_0_boat_35_n04612504_434.png,n04612504_434.png,1.0,9.619479,5.475953,2.9299154
alexnet,1,411,NaN,cat,cat,0,0411_pow_dnn_0_cat_35_n02123597_14639.png,n02123597_14639.png,1.0,10.36313,4.4929576,4.1508384
alexnet,1,412,NaN,cat,cat,pow,0412_pow_dnn_pow_cat_35_n02123159_2043.png,n02123159_2043.png,1.0,6.9896073,5.090805,1.342656
alexnet,1,413,NaN,bottle,clock,pow,0413_pow_dnn_pow_clock_35_n03196217_3647.png,n03196217_3647.png,0.0,4.3905263,7.2837143,-2.0457928
alexnet,1,414,NaN,oven,oven,0,0414_pow_dnn_0_oven_35_n04111531_19795.png,n04111531_19795.png,1.0,8.6509695,4.500541,2.934796
alexnet,1,415,NaN,knife,truck,pow,0415_pow_dnn_pow_truck_35_n03417042_18625.png,n03417042_18625.png,0.0,0.9260869,3.670292,-1.940446
alexnet,1,416,NaN,elephant,elephant,pow,0416_pow_dnn_pow_elephant_35_n02504013_1763.png,n02504013_1763.png,1.0,5.5504904,3.206959,1.6571269
alexnet,1,417,NaN,chair,chair,0,0417_pow_dnn_0_chair_35_n04099969_13105.png,n04099969_13105.png,1.0,7.356557,3.9279063,2.424422
alexnet,1,418,NaN,elephant,bicycle,pow,0418_pow_dnn_pow_bicycle_35_n03792782_4931.png,n03792782_4931.png,0.0,1.7761631,3.2741246,-1.0592188
alexnet,1,419,NaN,bear,bear,0,0419_pow_dnn_0_bear_35_n02134418_4513.png,n02134418_4513.png,1.0,9.209292,5.698898,2.4822237
alexnet,1,420,NaN,cat,cat,pow,0420_pow_dnn_pow_cat_35_n02123045_11224.png,n02123045_11224.png,1.0,6.6406426,1.813159,3.4135466
alexnet,1,421,NaN,chair,chair,0,0421_pow_dnn_0_chair_35_n02791124_359.png,n02791124_359.png,1.0,7.922364,5.229443,1.9041828
alexnet,1,422,NaN,knife,clock,pow,0422_pow_dnn_pow_clock_35_n04548280_2654.png,n04548280_2654.png,0.0,4.8959165,5.0328207,-0.096805915
alexnet,1,423,NaN,bear,cat,pow,0423_pow_dnn_pow_cat_35_n02123394_4713.png,n02123394_4713.png,0.0,2.4958048,4.66465,-1.5336051
alexnet,1,424,NaN,boat,bottle,pow,0424_pow_dnn_pow_bottle_35_n04557648_94.png,n04557648_94.png,0.0,1.492851,3.5018392,-1.4205692
alexnet,1,425,NaN,chair,chair,0,0425_pow_dnn_0_chair_35_n04099969_15676.png,n04099969_15676.png,1.0,12.149701,5.8784294,4.4344587
alexnet,1,426,NaN,boat,boat,pow,0426_pow_dnn_pow_boat_35_n02951358_537.png,n02951358_537.png,1.0,3.5381522,3.4847183,0.03778347
alexnet,1,427,NaN,clock,clock,0,0427_pow_dnn_0_clock_35_n03196217_1376.png,n03196217_1376.png,1.0,10.216931,8.442326,1.2548357
alexnet,1,428,NaN,chair,chair,pow,0428_pow_dnn_pow_chair_35_n02791124_1594.png,n02791124_1594.png,1.0,6.6423783,5.619715,0.723132
alexnet,1,429,NaN,oven,bird,0,0429_pow_dnn_0_bird_35_n02007558_7112.png,n02007558_7112.png,0.0,-0.38112742,6.322639,-4.7402787
alexnet,1,430,NaN,bicycle,bicycle,0,0430_pow_dnn_0_bicycle_35_n02835271_6094.png,n02835271_6094.png,1.0,15.319971,4.294463,7.7962117
alexnet,1,431,NaN,airplane,airplane,pow,0431_pow_dnn_pow_airplane_35_n02690373_7676.png,n02690373_7676.png,1.0,11.244898,6.6971407,3.21575
alexnet,1,432,NaN,cat,cat,pow,0432_pow_dnn_pow_cat_35_n02123045_3375.png,n02123045_3375.png,1.0,7.869867,4.7438173,2.210451
alexnet,1,433,NaN,bicycle,bicycle,0,0433_pow_dnn_0_bicycle_35_n02835271_15617.png,n02835271_15617.png,1.0,13.573489,4.3755703,6.503911
alexnet,1,434,NaN,oven,oven,pow,0434_pow_dnn_pow_oven_35_n04111531_4904.png,n04111531_4904.png,1.0,5.847619,5.005929,0.5951648
alexnet,1,435,NaN,boat,boat,0,0435_pow_dnn_0_boat_35_n02951358_5718.png,n02951358_5718.png,1.0,10.294864,3.0113056,5.1502533
alexnet,1,436,NaN,elephant,elephant,pow,0436_pow_dnn_pow_elephant_35_n02504013_7467.png,n02504013_7467.png,1.0,3.4465206,2.996381,0.3182967
alexnet,1,437,NaN,elephant,elephant,pow,0437_pow_dnn_pow_elephant_35_n02504013_1830.png,n02504013_1830.png,1.0,15.703634,6.221866,6.7046223
alexnet,1,438,NaN,car,car,0,0438_pow_dnn_0_car_35_n02814533_59762.png,n02814533_59762.png,1.0,6.2338047,5.3279476,0.6405377
alexnet,1,439,NaN,elephant,bicycle,pow,0439_pow_dnn_pow_bicycle_35_n02835271_771.png,n02835271_771.png,0.0,-0.4631251,4.76985,-3.700272
alexnet,1,440,NaN,elephant,bicycle,pow,0440_pow_dnn_pow_bicycle_35_n02835271_4313.png,n02835271_4313.png,0.0,2.190384,2.853304,-0.46875525
alexnet,1,441,NaN,bear,bear,0,0441_pow_dnn_0_bear_35_n02132136_891.png,n02132136_891.png,1.0,18.705282,10.3173485,5.9311647
alexnet,1,442,NaN,bear,bear,pow,0442_pow_dnn_pow_bear_35_n02132136_18276.png,n02132136_18276.png,1.0,5.8715005,4.5104823,0.9623852
alexnet,1,443,NaN,elephant,elephant,pow,0443_pow_dnn_pow_elephant_35_n02504013_2865.png,n02504013_2865.png,1.0,16.347822,5.1670856,7.905975
alexnet,1,444,NaN,boat,boat,0,0444_pow_dnn_0_boat_35_n03662601_10120.png,n03662601_10120.png,1.0,9.385182,6.1672707,2.2754073
alexnet,1,445,NaN,knife,bottle,pow,0445_pow_dnn_pow_bottle_35_n03983396_4241.png,n03983396_4241.png,0.0,2.8672543,4.045772,-0.83333796
alexnet,1,446,NaN,elephant,elephant,pow,0446_pow_dnn_pow_elephant_35_n02504458_8254.png,n02504458_8254.png,1.0,2.7128806,1.8890225,0.5825557
alexnet,1,447,NaN,chair,boat,pow,0447_pow_dnn_pow_boat_35_n04612504_857.png,n04612504_857.png,0.0,1.0123223,3.0574336,-1.446112
alexnet,1,448,NaN,clock,car,pow,0448_pow_dnn_pow_car_35_n04285008_6037.png,n04285008_6037.png,0.0,2.1722019,3.0853508,-0.6456938
alexnet,1,449,NaN,elephant,elephant,pow,0449_pow_dnn_pow_elephant_35_n02504458_2888.png,n02504458_2888.png,1.0,12.577479,4.4896,5.718994
alexnet,1,450,NaN,elephant,elephant,0,0450_pow_dnn_0_elephant_35_n02504013_6257.png,n02504013_6257.png,1.0,8.691834,2.6042087,4.304601
alexnet,1,451,NaN,car,car,0,0451_pow_dnn_0_car_35_n04285008_8616.png,n04285008_8616.png,1.0,16.149187,10.092236,4.282912
alexnet,1,452,NaN,oven,bird,0,0452_pow_dnn_0_bird_35_n01537544_5372.png,n01537544_5372.png,0.0,-0.89944476,2.5108328,-2.4114304
alexnet,1,453,NaN,airplane,airplane,pow,0453_pow_dnn_pow_airplane_35_n02690373_2498.png,n02690373_2498.png,1.0,8.617302,4.5949388,2.8442404
alexnet,1,454,NaN,dog,dog,0,0454_pow_dnn_0_dog_35_n02099601_2980.png,n02099601_2980.png,1.0,4.8013425,1.8312379,2.100181
alexnet,1,455,NaN,oven,keyboard,pow,0455_pow_dnn_pow_keyboard_35_n04505470_1904.png,n04505470_1904.png,0.0,0.7103894,4.516643,-2.691428
alexnet,1,456,NaN,airplane,airplane,0,0456_pow_dnn_0_airplane_35_n02690373_2967.png,n02690373_2967.png,1.0,9.052332,5.1946306,2.7278068
alexnet,1,457,NaN,car,car,0,0457_pow_dnn_0_car_35_n04285008_7508.png,n04285008_7508.png,1.0,13.024101,10.081862,2.080477
alexnet,1,458,NaN,boat,bird,0,0458_pow_dnn_0_bird_35_n02051845_6652.png,n02051845_6652.png,0.0,1.3432907,2.9987168,-1.1705631
alexnet,1,459,NaN,chair,truck,pow,0459_pow_dnn_pow_truck_35_n03796401_6737.png,n03796401_6737.png,0.0,3.0356283,4.991579,-1.383066
alexnet,1,460,NaN,truck,bottle,pow,0460_pow_dnn_pow_bottle_35_n03937543_2177.png,n03937543_2177.png,0.0,3.4496973,5.843362,-1.6925765
alexnet,1,461,NaN,oven,keyboard,pow,0461_pow_dnn_pow_keyboard_35_n03085013_6432.png,n03085013_6432.png,0.0,1.1908858,5.436678,-3.0022287
alexnet,1,462,NaN,bird,bird,0,0462_pow_dnn_0_bird_35_n01530575_10212.png,n01530575_10212.png,1.0,4.607719,2.9344485,1.1831809
alexnet,1,463,NaN,boat,boat,pow,0463_pow_dnn_pow_boat_35_n04273569_31649.png,n04273569_31649.png,1.0,3.2952602,2.9527588,0.24218507
alexnet,1,464,NaN,keyboard,keyboard,0,0464_pow_dnn_0_keyboard_35_n04505470_2869.png,n04505470_2869.png,1.0,22.048122,5.4787354,11.716327
alexnet,1,465,NaN,oven,oven,0,0465_pow_dnn_0_oven_35_n04111531_5110.png,n04111531_5110.png,1.0,8.81929,4.4362593,3.0992708
alexnet,1,466,NaN,bottle,bottle,pow,0466_pow_dnn_pow_bottle_35_n04579145_4389.png,n04579145_4389.png,1.0,7.125379,3.9713194,2.230257
alexnet,1,467,NaN,bottle,bottle,0,0467_pow_dnn_0_bottle_35_n04557648_9310.png,n04557648_9310.png,1.0,8.592269,5.08242,2.4818382
alexnet,1,468,NaN,bear,dog,pow,0468_pow_dnn_pow_dog_35_n02108000_6061.png,n02108000_6061.png,0.0,2.8413026,4.707316,-1.3194706
alexnet,1,469,NaN,elephant,knife,pow,0469_pow_dnn_pow_knife_35_n03041632_84240.png,n03041632_84240.png,0.0,3.3243957,5.599018,-1.608401
alexnet,1,470,NaN,bicycle,cat,pow,0470_pow_dnn_pow_cat_35_n02123394_3718.png,n02123394_3718.png,0.0,0.6887111,2.0256996,-0.9453936
alexnet,1,471,NaN,bear,dog,pow,0471_pow_dnn_pow_dog_35_n02098105_2157.png,n02098105_2157.png,0.0,2.6880987,3.5242827,-0.5912714
alexnet,1,472,NaN,clock,clock,0,0472_pow_dnn_0_clock_35_n04548280_2601.png,n04548280_2601.png,1.0,9.498181,6.9244585,1.8198969
alexnet,1,473,NaN,bear,cat,0,0473_pow_dnn_0_cat_35_n02123394_4286.png,n02123394_4286.png,0.0,3.443432,4.7994494,-0.9588491
alexnet,1,474,NaN,bottle,bottle,0,0474_pow_dnn_0_bottle_35_n02823428_4569.png,n02823428_4569.png,1.0,11.065651,6.3233643,3.3533032
alexnet,1,475,NaN,elephant,bird,pow,0475_pow_dnn_pow_bird_35_n02017213_15747.png,n02017213_15747.png,0.0,-1.8895081,4.7223015,-4.675256
alexnet,1,476,NaN,truck,bicycle,0,0476_pow_dnn_0_bicycle_35_n03792782_11390.png,n03792782_11390.png,0.0,4.9253244,5.7207403,-0.562444
alexnet,1,477,NaN,car,car,0,0477_pow_dnn_0_car_35_n02814533_4374.png,n02814533_4374.png,1.0,15.449883,7.6709366,5.500546
alexnet,1,478,NaN,keyboard,keyboard,0,0478_pow_dnn_0_keyboard_35_n04505470_5137.png,n04505470_5137.png,1.0,12.490509,6.1779556,4.4636493
alexnet,1,479,NaN,elephant,elephant,0,0479_pow_dnn_0_elephant_35_n02504013_306.png,n02504013_306.png,1.0,14.228139,1.7848867,8.798708
alexnet,1,480,NaN,bicycle,boat,0,0480_pow_dnn_0_boat_35_n02951358_14624.png,n02951358_14624.png,0.0,4.6536756,6.453454,-1.2726356
alexnet,1,481,NaN,elephant,cat,pow,0481_pow_dnn_pow_cat_35_n02125311_28114.png,n02125311_28114.png,0.0,2.6358178,3.2471442,-0.4322731
alexnet,1,482,NaN,car,car,pow,0482_pow_dnn_pow_car_35_n03100240_6259.png,n03100240_6259.png,1.0,8.766415,8.191039,0.40685198
alexnet,1,483,NaN,elephant,cat,pow,0483_pow_dnn_pow_cat_35_n02125311_12361.png,n02125311_12361.png,0.0,1.2300969,4.8323298,-2.5471635
alexnet,1,484,NaN,knife,bird,0,0484_pow_dnn_0_bird_35_n01833805_16468.png,n01833805_16468.png,0.0,-0.30810773,1.9325832,-1.5844078
alexnet,1,485,NaN,cat,dog,pow,0485_pow_dnn_pow_dog_35_n02110063_6748.png,n02110063_6748.png,0.0,2.0325413,3.3888385,-0.959047
alexnet,1,486,NaN,oven,clock,pow,0486_pow_dnn_pow_clock_35_n04548280_2943.png,n04548280_2943.png,0.0,2.788887,4.513688,-1.2196186
alexnet,1,487,NaN,bottle,chair,pow,0487_pow_dnn_pow_chair_35_n03376595_14619.png,n03376595_14619.png,0.0,0.6938079,2.6077702,-1.3533758
alexnet,1,488,NaN,car,car,0,0488_pow_dnn_0_car_35_n03100240_5719.png,n03100240_5719.png,1.0,16.741415,12.306545,3.1359265
alexnet,1,489,NaN,bicycle,dog,0,0489_pow_dnn_0_dog_35_n02093754_4677.png,n02093754_4677.png,0.0,4.064989,6.397524,-1.6493512
alexnet,1,490,NaN,boat,boat,pow,0490_pow_dnn_pow_boat_35_n04273569_113.png,n04273569_113.png,1.0,4.1096497,3.3808074,0.5153693
alexnet,1,491,NaN,clock,clock,pow,0491_pow_dnn_pow_clock_35_n02708093_148.png,n02708093_148.png,1.0,12.59007,6.550292,4.2707677
alexnet,1,492,NaN,elephant,cat,0,0492_pow_dnn_0_cat_35_n02125311_53223.png,n02125311_53223.png,0.0,6.178183,6.6498294,-0.33350432
alexnet,1,493,NaN,knife,knife,0,0493_pow_dnn_0_knife_35_n03041632_7982.png,n03041632_7982.png,1.0,7.0921,6.2439733,0.5997163
alexnet,1,494,NaN,elephant,elephant,0,0494_pow_dnn_0_elephant_35_n02504013_7273.png,n02504013_7273.png,1.0,7.674002,4.858706,1.990715
alexnet,1,495,NaN,clock,truck,pow,0495_pow_dnn_pow_truck_35_n03417042_26102.png,n03417042_26102.png,0.0,3.8615823,4.800088,-0.6636237
alexnet,1,496,NaN,truck,car,pow,0496_pow_dnn_pow_car_35_n02814533_874.png,n02814533_874.png,0.0,4.9268,6.566854,-1.1596935
alexnet,1,497,NaN,bicycle,bicycle,0,0497_pow_dnn_0_bicycle_35_n03792782_21148.png,n03792782_21148.png,1.0,9.496815,3.477411,4.256361
alexnet,1,498,NaN,oven,oven,pow,0498_pow_dnn_pow_oven_35_n04111531_4146.png,n04111531_4146.png,1.0,5.9306974,4.8861094,0.73863536
alexnet,1,499,NaN,clock,keyboard,pow,0499_pow_dnn_pow_keyboard_35_n03085013_21183.png,n03085013_21183.png,0.0,7.03693,9.445703,-1.7032593
alexnet,1,500,NaN,boat,boat,0,0500_pow_dnn_0_boat_35_n04612504_19147.png,n04612504_19147.png,1.0,8.921557,3.032058,4.164505
alexnet,1,501,NaN,elephant,bear,0,0501_pow_dnn_0_bear_35_n02133161_2044.png,n02133161_2044.png,0.0,7.1290817,10.314908,-2.2527194
alexnet,1,502,NaN,bottle,bottle,pow,0502_pow_dnn_pow_bottle_35_n04579145_3894.png,n04579145_3894.png,1.0,6.3054357,3.1713233,2.2161522
alexnet,1,503,NaN,bicycle,bicycle,0,0503_pow_dnn_0_bicycle_35_n03792782_13399.png,n03792782_13399.png,1.0,10.289072,3.9583309,4.47651
alexnet,1,504,NaN,knife,knife,pow,0504_pow_dnn_pow_knife_35_n03041632_21818.png,n03041632_21818.png,1.0,5.152776,3.1323133,1.4286828
alexnet,1,505,NaN,chair,chair,0,0505_pow_dnn_0_chair_35_n03376595_7010.png,n03376595_7010.png,1.0,9.661037,5.1299825,3.2039397
alexnet,1,506,NaN,oven,oven,0,0506_pow_dnn_0_oven_35_n04111531_4.png,n04111531_4.png,1.0,6.0425973,5.4945855,0.38750285
alexnet,1,507,NaN,elephant,bird,pow,0507_pow_dnn_pow_bird_35_n01820546_6471.png,n01820546_6471.png,0.0,-2.231425,4.2547398,-4.5864115
alexnet,1,508,NaN,bear,bear,pow,0508_pow_dnn_pow_bear_35_n02132136_10352.png,n02132136_10352.png,1.0,9.946707,6.585776,2.376537
alexnet,1,509,NaN,clock,clock,pow,0509_pow_dnn_pow_clock_35_n04548280_8348.png,n04548280_8348.png,1.0,8.39326,6.993911,0.9894893
alexnet,1,510,NaN,elephant,elephant,0,0510_pow_dnn_0_elephant_35_n02504013_5087.png,n02504013_5087.png,1.0,14.607773,5.062644,6.7494254
alexnet,1,511,NaN,airplane,airplane,pow,0511_pow_dnn_pow_airplane_35_n02690373_60.png,n02690373_60.png,1.0,9.055258,4.88114,2.951547
alexnet,1,512,NaN,bottle,chair,pow,0512_pow_dnn_pow_chair_35_n02791124_16085.png,n02791124_16085.png,0.0,4.177023,6.685716,-1.773914
alexnet,1,513,NaN,bottle,bottle,0,0513_pow_dnn_0_bottle_35_n02823428_3611.png,n02823428_3611.png,1.0,8.603775,7.81713,0.556242
alexnet,1,514,NaN,elephant,bird,pow,0514_pow_dnn_pow_bird_35_n01614925_8653.png,n01614925_8653.png,0.0,-0.039996244,7.3514442,-5.2265377
alexnet,1,515,NaN,oven,bird,pow,0515_pow_dnn_pow_bird_35_n01537544_9881.png,n01537544_9881.png,0.0,-0.7909353,4.616783,-3.8238347
alexnet,1,516,NaN,knife,knife,0,0516_pow_dnn_0_knife_35_n03041632_35365.png,n03041632_35365.png,1.0,11.995621,3.8833475,5.7362437
alexnet,1,517,NaN,bear,bear,0,0517_pow_dnn_0_bear_35_n02132136_23202.png,n02132136_23202.png,1.0,5.072843,3.5470245,1.0789167
alexnet,1,518,NaN,oven,oven,0,0518_pow_dnn_0_oven_35_n04111531_3976.png,n04111531_3976.png,1.0,9.398683,5.0890303,3.0473845
alexnet,1,519,NaN,oven,chair,pow,0519_pow_dnn_pow_chair_35_n04429376_32124.png,n04429376_32124.png,0.0,3.754368,5.076095,-0.93460214
alexnet,1,520,NaN,bicycle,bear,pow,0520_pow_dnn_pow_bear_35_n02134418_848.png,n02134418_848.png,0.0,3.0935302,3.2921383,-0.14043719
alexnet,1,521,NaN,boat,boat,0,0521_pow_dnn_0_boat_35_n03344393_7374.png,n03344393_7374.png,1.0,12.701965,7.1779594,3.9060621
alexnet,1,522,NaN,elephant,bird,pow,0522_pow_dnn_pow_bird_35_n01532829_3914.png,n01532829_3914.png,0.0,-0.8669395,3.61776,-3.1711614
alexnet,1,523,NaN,keyboard,keyboard,0,0523_pow_dnn_0_keyboard_35_n04505470_5902.png,n04505470_5902.png,1.0,16.361494,7.4294853,6.315884
alexnet,1,524,NaN,chair,truck,pow,0524_pow_dnn_pow_truck_35_n03417042_11165.png,n03417042_11165.png,0.0,2.3566878,4.286342,-1.3644717
alexnet,1,525,NaN,clock,clock,0,0525_pow_dnn_0_clock_35_n02708093_5.png,n02708093_5.png,1.0,6.4451385,5.0074067,1.0166299
alexnet,1,526,NaN,elephant,elephant,pow,0526_pow_dnn_pow_elephant_35_n02504458_4187.png,n02504458_4187.png,1.0,6.8609705,2.2907016,3.231668
alexnet,1,527,NaN,knife,knife,0,0527_pow_dnn_0_knife_35_n03041632_10802.png,n03041632_10802.png,1.0,13.531212,3.1697838,7.3266363
alexnet,1,528,NaN,car,car,0,0528_pow_dnn_0_car_35_n04285008_16647.png,n04285008_16647.png,1.0,12.824916,8.69384,2.9211118
alexnet,1,529,NaN,bear,dog,0,0529_pow_dnn_0_dog_35_n02104365_3004.png,n02104365_3004.png,0.0,5.0521846,8.583492,-2.4970117
alexnet,1,530,NaN,elephant,elephant,pow,0530_pow_dnn_pow_elephant_35_n02504013_21616.png,n02504013_21616.png,1.0,8.360943,7.5067153,0.6040301
alexnet,1,531,NaN,keyboard,keyboard,0,0531_pow_dnn_0_keyboard_35_n03085013_23465.png,n03085013_23465.png,1.0,11.853034,9.069524,1.968239
alexnet,1,532,NaN,boat,airplane,pow,0532_pow_dnn_pow_airplane_35_n02690373_911.png,n02690373_911.png,0.0,4.6572924,6.8814483,-1.5727158
alexnet,1,533,NaN,elephant,elephant,0,0533_pow_dnn_0_elephant_35_n02504013_1454.png,n02504013_1454.png,1.0,10.738941,3.9328303,4.8126473
alexnet,1,534,NaN,bicycle,bicycle,0,0534_pow_dnn_0_bicycle_35_n03792782_70690.png,n03792782_70690.png,1.0,9.409041,1.5560622,5.552895
alexnet,1,535,NaN,chair,chair,0,0535_pow_dnn_0_chair_35_n04429376_31206.png,n04429376_31206.png,1.0,8.896481,8.399054,0.351734
alexnet,1,536,NaN,clock,clock,0,0536_pow_dnn_0_clock_35_n02708093_2498.png,n02708093_2498.png,1.0,8.358336,3.2855039,3.5870345
alexnet,1,537,NaN,keyboard,keyboard,0,0537_pow_dnn_0_keyboard_35_n04505470_1728.png,n04505470_1728.png,1.0,15.623648,10.452528,3.656534
alexnet,1,538,NaN,truck,truck,pow,0538_pow_dnn_pow_truck_35_n03417042_6608.png,n03417042_6608.png,1.0,3.191941,2.4440916,0.5288094
alexnet,1,539,NaN,elephant,bird,0,0539_pow_dnn_0_bird_35_n02013706_1016.png,n02013706_1016.png,0.0,0.027732791,3.0681386,-2.1498916
alexnet,1,540,NaN,clock,clock,0,0540_pow_dnn_0_clock_35_n04548280_5011.png,n04548280_5011.png,1.0,8.478875,5.94387,1.7925193
alexnet,1,541,NaN,bicycle,bicycle,0,0541_pow_dnn_0_bicycle_35_n02835271_19557.png,n02835271_19557.png,1.0,10.564312,4.1573215,4.5304265
alexnet,1,542,NaN,bear,bear,pow,0542_pow_dnn_pow_bear_35_n02134084_5827.png,n02134084_5827.png,1.0,9.132783,6.23818,2.0467932
alexnet,1,543,NaN,elephant,dog,pow,0543_pow_dnn_pow_dog_35_n02096585_1894.png,n02096585_1894.png,0.0,1.7061977,3.1757092,-1.0391016
alexnet,1,544,NaN,boat,boat,pow,0544_pow_dnn_pow_boat_35_n02951358_34234.png,n02951358_34234.png,1.0,4.351438,3.1785724,0.82934123
alexnet,1,545,NaN,elephant,cat,pow,0545_pow_dnn_pow_cat_35_n02123597_5514.png,n02123597_5514.png,0.0,6.646057,8.177046,-1.0825725
alexnet,1,546,NaN,oven,oven,pow,0546_pow_dnn_pow_oven_35_n04111531_3580.png,n04111531_3580.png,1.0,3.3059034,2.6080682,0.49344403
alexnet,1,547,NaN,airplane,airplane,0,0547_pow_dnn_0_airplane_35_n02690373_7107.png,n02690373_7107.png,1.0,12.807468,6.210058,4.6650734
alexnet,1,548,NaN,clock,cat,0,0548_pow_dnn_0_cat_35_n02123159_5224.png,n02123159_5224.png,0.0,1.9222025,3.9889028,-1.461378
alexnet,1,549,NaN,bear,bear,pow,0549_pow_dnn_pow_bear_35_n02133161_6679.png,n02133161_6679.png,1.0,9.468217,9.447666,0.014531559
alexnet,1,550,NaN,dog,dog,0,0550_pow_dnn_0_dog_35_n02106030_22.png,n02106030_22.png,1.0,3.2885456,2.3516107,0.6625131
alexnet,1,551,NaN,car,truck,0,0551_pow_dnn_0_truck_35_n03417042_4574.png,n03417042_4574.png,0.0,11.853188,12.046422,-0.13663739
alexnet,1,552,NaN,chair,dog,pow,0552_pow_dnn_pow_dog_35_n02097298_7577.png,n02097298_7577.png,0.0,0.86637384,3.6712143,-1.9833218
alexnet,1,553,NaN,oven,dog,pow,0553_pow_dnn_pow_dog_35_n02093428_16873.png,n02093428_16873.png,0.0,1.9879863,5.544861,-2.5150902
alexnet,1,554,NaN,bear,bear,0,0554_pow_dnn_0_bear_35_n02132136_4157.png,n02132136_4157.png,1.0,9.912407,9.732195,0.12742914
alexnet,1,555,NaN,bottle,bottle,0,0555_pow_dnn_0_bottle_35_n02823428_2007.png,n02823428_2007.png,1.0,15.322279,12.060905,2.3061395
alexnet,1,556,NaN,keyboard,keyboard,0,0556_pow_dnn_0_keyboard_35_n03085013_24272.png,n03085013_24272.png,1.0,8.60809,5.535044,2.172972
alexnet,1,557,NaN,oven,oven,0,0557_pow_dnn_0_oven_35_n04111531_2074.png,n04111531_2074.png,1.0,5.9597864,2.1127748,2.720248
alexnet,1,558,NaN,oven,bird,pow,0558_pow_dnn_pow_bird_35_n01532829_4536.png,n01532829_4536.png,0.0,-1.6854379,3.915598,-3.9605308
alexnet,1,559,NaN,knife,dog,0,0559_pow_dnn_0_dog_35_n02109047_17100.png,n02109047_17100.png,0.0,3.467806,4.4154687,-0.67009866
alexnet,1,560,NaN,oven,oven,pow,0560_pow_dnn_pow_oven_35_n04111531_4407.png,n04111531_4407.png,1.0,4.9684496,3.729663,0.8759545
alexnet,1,561,NaN,airplane,airplane,0,0561_pow_dnn_0_airplane_35_n02690373_8069.png,n02690373_8069.png,1.0,13.970142,6.0332117,5.6122575
alexnet,1,562,NaN,clock,bottle,0,0562_pow_dnn_0_bottle_35_n04560804_8921.png,n04560804_8921.png,0.0,3.8823411,5.342289,-1.032339
alexnet,1,563,NaN,bottle,bottle,pow,0563_pow_dnn_pow_bottle_35_n03937543_2936.png,n03937543_2936.png,1.0,11.765413,3.0983558,6.128535
alexnet,1,564,NaN,cat,cat,0,0564_pow_dnn_0_cat_35_n02123045_8031.png,n02123045_8031.png,1.0,3.819625,2.7842698,0.7321066
alexnet,1,565,NaN,oven,oven,0,0565_pow_dnn_0_oven_35_n04111531_3805.png,n04111531_3805.png,1.0,10.158464,3.2374718,4.893881
alexnet,1,566,NaN,truck,truck,0,0566_pow_dnn_0_truck_35_n03417042_27231.png,n03417042_27231.png,1.0,13.301056,6.5787463,4.753391
alexnet,1,567,NaN,elephant,elephant,0,0567_pow_dnn_0_elephant_35_n02504013_7232.png,n02504013_7232.png,1.0,13.398048,4.029903,6.624279
alexnet,1,568,NaN,knife,knife,0,0568_pow_dnn_0_knife_35_n03041632_5102.png,n03041632_5102.png,1.0,5.504495,3.3879979,1.4965897
alexnet,1,569,NaN,dog,dog,pow,0569_pow_dnn_pow_dog_35_n02110958_8916.png,n02110958_8916.png,1.0,3.5762749,2.0842767,1.0550021
alexnet,1,570,NaN,oven,bottle,pow,0570_pow_dnn_pow_bottle_35_n04557648_9790.png,n04557648_9790.png,0.0,2.9104671,3.9864275,-0.7608189
alexnet,1,571,NaN,cat,cat,pow,0571_pow_dnn_pow_cat_35_n02123394_3786.png,n02123394_3786.png,1.0,7.708416,2.363579,3.7793708
alexnet,1,572,NaN,truck,truck,0,0572_pow_dnn_0_truck_35_n04467665_19132.png,n04467665_19132.png,1.0,9.068745,6.2370358,2.0023205
alexnet,1,573,NaN,truck,truck,pow,0573_pow_dnn_pow_truck_35_n03796401_2934.png,n03796401_2934.png,1.0,4.7488103,3.3939831,0.9580075
alexnet,1,574,NaN,bicycle,bicycle,0,0574_pow_dnn_0_bicycle_35_n02835271_12799.png,n02835271_12799.png,1.0,13.414404,5.271904,5.757617
alexnet,1,575,NaN,car,car,0,0575_pow_dnn_0_car_35_n02814533_1297.png,n02814533_1297.png,1.0,7.2742324,5.4294195,1.3044797
alexnet,1,576,NaN,bear,bear,pow,0576_pow_dnn_pow_bear_35_n02134418_1974.png,n02134418_1974.png,1.0,4.5322804,3.5626216,0.6856524
alexnet,1,577,NaN,cat,cat,0,0577_pow_dnn_0_cat_35_n02124075_2843.png,n02124075_2843.png,1.0,9.837409,3.0962093,4.766748
alexnet,1,578,NaN,cat,cat,0,0578_pow_dnn_0_cat_35_n02123597_5697.png,n02123597_5697.png,1.0,5.690824,3.043241,1.872124
alexnet,1,579,NaN,chair,bicycle,pow,0579_pow_dnn_pow_bicycle_35_n02835271_2315.png,n02835271_2315.png,0.0,3.1601653,3.2447762,-0.05982897
alexnet,1,580,NaN,keyboard,keyboard,0,0580_pow_dnn_0_keyboard_35_n04505470_4515.png,n04505470_4515.png,1.0,19.040064,6.241715,9.0498
alexnet,1,581,NaN,bottle,knife,pow,0581_pow_dnn_pow_knife_35_n03041632_4269.png,n03041632_4269.png,0.0,4.846178,4.9507937,-0.07397446
alexnet,1,582,NaN,cat,cat,0,0582_pow_dnn_0_cat_35_n02123045_12010.png,n02123045_12010.png,1.0,9.03819,5.0615597,2.8119023
alexnet,1,583,NaN,keyboard,clock,0,0583_pow_dnn_0_clock_35_n03196217_6467.png,n03196217_6467.png,0.0,6.45776,6.9779067,-0.36779937
alexnet,1,584,NaN,clock,bottle,pow,0584_pow_dnn_pow_bottle_35_n03983396_2864.png,n03983396_2864.png,0.0,2.628449,3.9712067,-0.9494731
alexnet,1,585,NaN,airplane,bottle,0,0585_pow_dnn_0_bottle_35_n04557648_10171.png,n04557648_10171.png,0.0,1.400925,7.9694114,-4.6446214
alexnet,1,586,NaN,elephant,bird,pow,0586_pow_dnn_pow_bird_35_n01860187_2052.png,n01860187_2052.png,0.0,-1.4030267,4.1221294,-3.9068754
alexnet,1,587,NaN,car,car,0,0587_pow_dnn_0_car_35_n04285008_5897.png,n04285008_5897.png,1.0,13.162198,8.243727,3.4778845
alexnet,1,588,NaN,elephant,elephant,0,0588_pow_dnn_0_elephant_35_n02504458_4721.png,n02504458_4721.png,1.0,18.786423,1.8572881,11.970706
alexnet,1,589,NaN,car,car,0,0589_pow_dnn_0_car_35_n02814533_93476.png,n02814533_93476.png,1.0,14.120769,9.899373,2.9849775
alexnet,1,590,NaN,oven,bird,pow,0590_pow_dnn_pow_bird_35_n01824575_10337.png,n01824575_10337.png,0.0,-1.0436571,4.142953,-3.6674874
alexnet,1,591,NaN,clock,dog,pow,0591_pow_dnn_pow_dog_35_n02100735_10683.png,n02100735_10683.png,0.0,1.4403691,3.2712984,-1.2946625
alexnet,1,592,NaN,airplane,airplane,pow,0592_pow_dnn_pow_airplane_35_n02690373_4402.png,n02690373_4402.png,1.0,3.9088993,3.7557747,0.10827542
alexnet,1,593,NaN,airplane,airplane,0,0593_pow_dnn_0_airplane_35_n02690373_4350.png,n02690373_4350.png,1.0,17.372334,5.2342405,8.582928
alexnet,1,594,NaN,bottle,bottle,pow,0594_pow_dnn_pow_bottle_35_n02823428_6327.png,n02823428_6327.png,1.0,6.249711,4.9999967,0.88368154
alexnet,1,595,NaN,dog,dog,pow,0595_pow_dnn_pow_dog_35_n02104029_3041.png,n02104029_3041.png,1.0,4.6255245,4.4970484,0.09084635
alexnet,1,596,NaN,elephant,elephant,pow,0596_pow_dnn_pow_elephant_35_n02504013_24810.png,n02504013_24810.png,1.0,4.434532,1.6801922,1.9476125
alexnet,1,597,NaN,clock,clock,pow,0597_pow_dnn_pow_clock_35_n04548280_4473.png,n04548280_4473.png,1.0,5.486851,4.904572,0.41173357
alexnet,1,598,NaN,dog,dog,pow,0598_pow_dnn_pow_dog_35_n02107908_5597.png,n02107908_5597.png,1.0,4.1133943,3.937379,0.124461666
alexnet,1,599,NaN,truck,truck,0,0599_pow_dnn_0_truck_35_n04467665_57697.png,n04467665_57697.png,1.0,14.379194,7.349035,4.9710736
alexnet,1,600,NaN,knife,bottle,pow,0600_pow_dnn_pow_bottle_35_n03983396_6889.png,n03983396_6889.png,0.0,4.29267,4.9221683,-0.44512266
alexnet,1,601,NaN,bear,bear,pow,0601_pow_dnn_pow_bear_35_n02134418_1826.png,n02134418_1826.png,1.0,8.057961,4.0411496,2.8403149
alexnet,1,602,NaN,cat,cat,pow,0602_pow_dnn_pow_cat_35_n02123159_4687.png,n02123159_4687.png,1.0,3.731369,2.0340886,1.2001585
alexnet,1,603,NaN,boat,boat,pow,0603_pow_dnn_pow_boat_35_n03344393_5798.png,n03344393_5798.png,1.0,5.651921,2.987269,1.8841934
alexnet,1,604,NaN,oven,car,pow,0604_pow_dnn_pow_car_35_n04285008_11745.png,n04285008_11745.png,0.0,0.050664026,4.800463,-3.3586154
alexnet,1,605,NaN,clock,clock,0,0605_pow_dnn_0_clock_35_n02708093_353.png,n02708093_353.png,1.0,9.544848,8.277459,0.89617956
alexnet,1,606,NaN,airplane,airplane,0,0606_pow_dnn_0_airplane_35_n02690373_4763.png,n02690373_4763.png,1.0,14.824684,4.919986,7.0036793
alexnet,1,607,NaN,elephant,elephant,0,0607_pow_dnn_0_elephant_35_n02504013_18498.png,n02504013_18498.png,1.0,15.422733,6.5134544,6.299812
alexnet,1,608,NaN,bear,cat,pow,0608_pow_dnn_pow_cat_35_n02123394_159.png,n02123394_159.png,0.0,2.977495,4.3991313,-1.0052487
alexnet,1,609,NaN,boat,boat,0,0609_pow_dnn_0_boat_35_n03662601_18676.png,n03662601_18676.png,1.0,11.700182,6.3389907,3.7909348
alexnet,1,610,NaN,clock,truck,pow,0610_pow_dnn_pow_truck_35_n03796401_1789.png,n03796401_1789.png,0.0,4.213526,4.564388,-0.24809693
alexnet,1,611,NaN,chair,chair,0,0611_pow_dnn_0_chair_35_n04099969_4816.png,n04099969_4816.png,1.0,5.3700933,4.8891125,0.34010485
alexnet,1,612,NaN,elephant,elephant,0,0612_pow_dnn_0_elephant_35_n02504458_7013.png,n02504458_7013.png,1.0,21.775835,2.2043715,13.839115
alexnet,1,613,NaN,knife,knife,pow,0613_pow_dnn_pow_knife_35_n03041632_92637.png,n03041632_92637.png,1.0,1.9341943,1.8986075,0.025163691
alexnet,1,614,NaN,keyboard,keyboard,0,0614_pow_dnn_0_keyboard_35_n03085013_19607.png,n03085013_19607.png,1.0,21.425554,9.650019,8.326561
alexnet,1,615,NaN,cat,cat,pow,0615_pow_dnn_pow_cat_35_n02123597_1027.png,n02123597_1027.png,1.0,6.815574,2.9170392,2.7566805
alexnet,1,616,NaN,bicycle,bicycle,0,0616_pow_dnn_0_bicycle_35_n02835271_9135.png,n02835271_9135.png,1.0,7.832176,3.9509568,2.7444365
alexnet,1,617,NaN,dog,dog,pow,0617_pow_dnn_pow_dog_35_n02111500_3896.png,n02111500_3896.png,1.0,2.91094,1.4936774,1.002156
alexnet,1,618,NaN,knife,oven,0,0618_pow_dnn_0_oven_35_n04111531_8398.png,n04111531_8398.png,0.0,2.7348356,4.924798,-1.5485373
alexnet,1,619,NaN,oven,oven,0,0619_pow_dnn_0_oven_35_n04111531_6049.png,n04111531_6049.png,1.0,8.444776,7.6163836,0.5857616
alexnet,1,620,NaN,chair,chair,pow,0620_pow_dnn_pow_chair_35_n03376595_6947.png,n03376595_6947.png,1.0,4.2940717,3.7729452,0.3684921
alexnet,1,621,NaN,dog,dog,pow,0621_pow_dnn_pow_dog_35_n02097658_6717.png,n02097658_6717.png,1.0,2.8552806,2.6625197,0.13630258
alexnet,1,622,NaN,chair,knife,0,0622_pow_dnn_0_knife_35_n03041632_21560.png,n03041632_21560.png,0.0,2.7054188,3.178099,-0.3342353
alexnet,1,623,NaN,boat,boat,pow,0623_pow_dnn_pow_boat_35_n03662601_7642.png,n03662601_7642.png,1.0,4.515883,2.9916604,1.0777881
alexnet,1,624,NaN,car,car,0,0624_pow_dnn_0_car_35_n04285008_1313.png,n04285008_1313.png,1.0,10.691376,6.067808,3.269356
alexnet,1,625,NaN,chair,chair,pow,0625_pow_dnn_pow_chair_35_n03376595_6409.png,n03376595_6409.png,1.0,4.0428467,3.7125463,0.23355761
alexnet,1,626,NaN,bear,bear,pow,0626_pow_dnn_pow_bear_35_n02133161_6028.png,n02133161_6028.png,1.0,5.069923,2.5307302,1.7954804
alexnet,1,627,NaN,elephant,bear,pow,0627_pow_dnn_pow_bear_35_n02132136_29029.png,n02132136_29029.png,0.0,6.2995396,10.807878,-3.1878765
alexnet,1,628,NaN,truck,truck,0,0628_pow_dnn_0_truck_35_n04467665_7290.png,n04467665_7290.png,1.0,10.155973,6.4391875,2.6281645
alexnet,1,629,NaN,elephant,bird,pow,0629_pow_dnn_pow_bird_35_n01537544_9745.png,n01537544_9745.png,0.0,0.3141614,6.1121693,-4.0998106
alexnet,1,630,NaN,bicycle,bicycle,0,0630_pow_dnn_0_bicycle_35_n03792782_15845.png,n03792782_15845.png,1.0,5.897647,3.235828,1.8821902
alexnet,1,631,NaN,bear,bear,pow,0631_pow_dnn_pow_bear_35_n02133161_8982.png,n02133161_8982.png,1.0,2.7515633,2.4513776,0.21226333
alexnet,1,632,NaN,knife,knife,0,0632_pow_dnn_0_knife_35_n03041632_6575.png,n03041632_6575.png,1.0,6.3997054,3.0544488,2.3654537
alexnet,1,633,NaN,knife,knife,0,0633_pow_dnn_0_knife_35_n03041632_32785.png,n03041632_32785.png,1.0,10.108764,2.2128816,5.583232
alexnet,1,634,NaN,chair,chair,pow,0634_pow_dnn_pow_chair_35_n04429376_12691.png,n04429376_12691.png,1.0,3.866836,3.487403,0.26829976
alexnet,1,635,NaN,elephant,dog,pow,0635_pow_dnn_pow_dog_35_n02097298_6578.png,n02097298_6578.png,0.0,3.8953123,6.2417464,-1.6591794
alexnet,1,636,NaN,elephant,knife,pow,0636_pow_dnn_pow_knife_35_n03041632_94995.png,n03041632_94995.png,0.0,2.826737,7.0443635,-2.9823124
alexnet,1,637,NaN,clock,clock,0,0637_pow_dnn_0_clock_35_n02708093_41.png,n02708093_41.png,1.0,8.895089,4.0118237,3.4529903
alexnet,1,638,NaN,keyboard,keyboard,0,0638_pow_dnn_0_keyboard_35_n03085013_7892.png,n03085013_7892.png,1.0,15.165987,5.840672,6.593994
alexnet,1,639,NaN,oven,knife,pow,0639_pow_dnn_pow_knife_35_n03041632_84048.png,n03041632_84048.png,0.0,3.9381764,4.193943,-0.18085432
alexnet,1,640,NaN,airplane,airplane,0,0640_pow_dnn_0_airplane_35_n02690373_3415.png,n02690373_3415.png,1.0,15.545008,5.6238885,7.015291
alexnet,1,641,NaN,knife,knife,0,0641_pow_dnn_0_knife_35_n03041632_31483.png,n03041632_31483.png,1.0,7.7741246,3.1473067,3.2716541
alexnet,1,642,NaN,clock,dog,0,0642_pow_dnn_0_dog_35_n02110958_368.png,n02110958_368.png,0.0,2.697142,3.1693687,-0.33391482
alexnet,1,643,NaN,elephant,bird,0,0643_pow_dnn_0_bird_35_n02051845_539.png,n02051845_539.png,0.0,2.0002646,7.7648106,-4.0761495
alexnet,1,644,NaN,elephant,bear,0,0644_pow_dnn_0_bear_35_n02134084_11187.png,n02134084_11187.png,0.0,7.1304984,8.007313,-0.6200014
alexnet,1,645,NaN,bicycle,bird,0,0645_pow_dnn_0_bird_35_n01531178_17387.png,n01531178_17387.png,0.0,2.3119478,2.9759142,-0.46949518
alexnet,1,646,NaN,keyboard,keyboard,0,0646_pow_dnn_0_keyboard_35_n04505470_5131.png,n04505470_5131.png,1.0,8.131378,4.662881,2.452598
alexnet,1,647,NaN,cat,cat,0,0647_pow_dnn_0_cat_35_n02123159_2246.png,n02123159_2246.png,1.0,10.526633,4.1114826,4.5361967
alexnet,1,648,NaN,oven,oven,0,0648_pow_dnn_0_oven_35_n04111531_1725.png,n04111531_1725.png,1.0,7.9584017,3.9634767,2.8248386
alexnet,1,649,NaN,clock,clock,0,0649_pow_dnn_0_clock_35_n02708093_2295.png,n02708093_2295.png,1.0,7.811069,3.145309,3.2991905
alexnet,1,650,NaN,bear,cat,pow,0650_pow_dnn_pow_cat_35_n02125311_5013.png,n02125311_5013.png,0.0,2.0093877,4.784922,-1.9625993
alexnet,1,651,NaN,bear,keyboard,pow,0651_pow_dnn_pow_keyboard_35_n03085013_24665.png,n03085013_24665.png,0.0,0.29201406,1.6292734,-0.94558513
alexnet,1,652,NaN,elephant,elephant,pow,0652_pow_dnn_pow_elephant_35_n02504013_9678.png,n02504013_9678.png,1.0,7.7076645,6.1718855,1.0859598
alexnet,1,653,NaN,keyboard,keyboard,0,0653_pow_dnn_0_keyboard_35_n03085013_7858.png,n03085013_7858.png,1.0,16.164764,5.645142,7.4384966
alexnet,1,654,NaN,boat,boat,0,0654_pow_dnn_0_boat_35_n04612504_2089.png,n04612504_2089.png,1.0,8.247962,5.283039,2.096517
alexnet,1,655,NaN,dog,dog,0,0655_pow_dnn_0_dog_35_n02091831_4183.png,n02091831_4183.png,1.0,5.5339704,2.2109196,2.3497517
alexnet,1,656,NaN,cat,cat,0,0656_pow_dnn_0_cat_35_n02125311_475.png,n02125311_475.png,1.0,11.634229,3.6370935,5.6548285
alexnet,1,657,NaN,oven,clock,0,0657_pow_dnn_0_clock_35_n03196217_2607.png,n03196217_2607.png,0.0,4.6574407,5.575687,-0.6492982
alexnet,1,658,NaN,car,car,0,0658_pow_dnn_0_car_35_n02814533_93487.png,n02814533_93487.png,1.0,12.7514305,9.335739,2.4152586
alexnet,1,659,NaN,dog,dog,0,0659_pow_dnn_0_dog_35_n02108000_6270.png,n02108000_6270.png,1.0,5.267582,3.2288363,1.4416109
alexnet,1,660,NaN,oven,chair,pow,0660_pow_dnn_pow_chair_35_n04099969_20900.png,n04099969_20900.png,0.0,2.3343086,3.973535,-1.1591082
alexnet,1,661,NaN,car,car,0,0661_pow_dnn_0_car_35_n03100240_8483.png,n03100240_8483.png,1.0,12.5077715,6.929394,3.9445088
alexnet,1,662,NaN,chair,chair,0,0662_pow_dnn_0_chair_35_n03376595_2056.png,n03376595_2056.png,1.0,4.4195285,3.766762,0.4615756
alexnet,1,663,NaN,boat,boat,pow,0663_pow_dnn_pow_boat_35_n04612504_2479.png,n04612504_2479.png,1.0,4.2774897,3.421006,0.60562545
alexnet,1,664,NaN,cat,cat,pow,0664_pow_dnn_pow_cat_35_n02123045_5228.png,n02123045_5228.png,1.0,9.835679,2.948958,4.8696475
alexnet,1,665,NaN,airplane,airplane,0,0665_pow_dnn_0_airplane_35_n02690373_10404.png,n02690373_10404.png,1.0,13.187603,6.9639664,4.400776
alexnet,1,666,NaN,knife,knife,0,0666_pow_dnn_0_knife_35_n03041632_29427.png,n03041632_29427.png,1.0,6.013318,4.4085245,1.1347604
alexnet,1,667,NaN,oven,oven,0,0667_pow_dnn_0_oven_35_n04111531_7355.png,n04111531_7355.png,1.0,5.9704413,5.3497066,0.4389257
alexnet,1,668,NaN,keyboard,clock,0,0668_pow_dnn_0_clock_35_n03196217_3333.png,n03196217_3333.png,0.0,6.343876,6.7393913,-0.27967167
alexnet,1,669,NaN,bird,bird,0,0669_pow_dnn_0_bird_35_n02027492_9905.png,n02027492_9905.png,1.0,5.868331,2.7237115,2.2235818
alexnet,1,670,NaN,airplane,airplane,0,0670_pow_dnn_0_airplane_35_n02690373_9709.png,n02690373_9709.png,1.0,11.760603,3.6704001,5.720637
alexnet,1,671,NaN,clock,clock,0,0671_pow_dnn_0_clock_35_n03196217_3558.png,n03196217_3558.png,1.0,4.360548,3.8974876,0.32743314
alexnet,1,672,NaN,bear,elephant,pow,0672_pow_dnn_pow_elephant_35_n02504013_1854.png,n02504013_1854.png,0.0,3.8497858,3.9625337,-0.07972481
alexnet,1,673,NaN,oven,boat,pow,0673_pow_dnn_pow_boat_35_n03662601_15566.png,n03662601_15566.png,0.0,-1.4841763,4.095619,-3.945511
alexnet,1,674,NaN,elephant,chair,pow,0674_pow_dnn_pow_chair_35_n03376595_235.png,n03376595_235.png,0.0,3.3344748,7.257835,-2.7742345
alexnet,1,675,NaN,boat,boat,0,0675_pow_dnn_0_boat_35_n03344393_7669.png,n03344393_7669.png,1.0,8.500485,5.6105137,2.0435185
alexnet,1,676,NaN,cat,cat,pow,0676_pow_dnn_pow_cat_35_n02123159_4952.png,n02123159_4952.png,1.0,3.585038,3.1995306,0.27259487
alexnet,1,677,NaN,truck,truck,pow,0677_pow_dnn_pow_truck_35_n03417042_16403.png,n03417042_16403.png,1.0,10.3624115,4.4472528,4.182649
alexnet,1,678,NaN,dog,dog,pow,0678_pow_dnn_pow_dog_35_n02094258_794.png,n02094258_794.png,1.0,4.7398973,4.0010633,0.5224345
alexnet,1,679,NaN,knife,knife,0,0679_pow_dnn_0_knife_35_n03041632_3504.png,n03041632_3504.png,1.0,4.4151654,2.844251,1.1108043
alexnet,1,680,NaN,truck,truck,0,0680_pow_dnn_0_truck_35_n03796401_10878.png,n03796401_10878.png,1.0,17.099405,6.0733414,7.7966046
alexnet,1,681,NaN,bear,bear,0,0681_pow_dnn_0_bear_35_n02134084_13029.png,n02134084_13029.png,1.0,6.6629887,5.48765,0.83109003
alexnet,1,682,NaN,bear,bird,pow,0682_pow_dnn_pow_bird_35_n01534433_14336.png,n01534433_14336.png,0.0,-0.78510505,4.5858374,-3.79783
alexnet,1,683,NaN,oven,bottle,0,0683_pow_dnn_0_bottle_35_n04560804_647.png,n04560804_647.png,0.0,5.3352203,6.6142387,-0.9044026
alexnet,1,684,NaN,airplane,airplane,0,0684_pow_dnn_0_airplane_35_n02690373_4107.png,n02690373_4107.png,1.0,11.607794,5.608768,4.241952
alexnet,1,685,NaN,chair,chair,0,0685_pow_dnn_0_chair_35_n04429376_8069.png,n04429376_8069.png,1.0,6.4024467,6.146885,0.18070951
alexnet,1,686,NaN,chair,oven,pow,0686_pow_dnn_pow_oven_35_n04111531_23668.png,n04111531_23668.png,0.0,5.5276275,5.7172713,-0.13409846
alexnet,1,687,NaN,knife,airplane,pow,0687_pow_dnn_pow_airplane_35_n02690373_1071.png,n02690373_1071.png,0.0,-0.39232397,2.4189274,-1.987855
alexnet,1,688,NaN,elephant,elephant,0,0688_pow_dnn_0_elephant_35_n02504458_7841.png,n02504458_7841.png,1.0,10.917881,4.4712343,4.558468
alexnet,1,689,NaN,elephant,elephant,0,0689_pow_dnn_0_elephant_35_n02504458_7777.png,n02504458_7777.png,1.0,12.795862,3.0972435,6.8579593
alexnet,1,690,NaN,clock,clock,0,0690_pow_dnn_0_clock_35_n02708093_8179.png,n02708093_8179.png,1.0,10.602433,6.1597614,3.1414435
alexnet,1,691,NaN,chair,oven,pow,0691_pow_dnn_pow_oven_35_n04111531_12702.png,n04111531_12702.png,0.0,4.2283306,4.394913,-0.117791675
alexnet,1,692,NaN,oven,oven,pow,0692_pow_dnn_pow_oven_35_n04111531_14441.png,n04111531_14441.png,1.0,5.596236,3.5018892,1.480927
alexnet,1,693,NaN,bicycle,bicycle,0,0693_pow_dnn_0_bicycle_35_n03792782_2435.png,n03792782_2435.png,1.0,14.047835,3.0578372,7.771102
alexnet,1,694,NaN,car,boat,pow,0694_pow_dnn_pow_boat_35_n04273569_23162.png,n04273569_23162.png,0.0,2.0220146,8.070549,-4.27696
alexnet,1,695,NaN,cat,cat,0,0695_pow_dnn_0_cat_35_n02123159_5270.png,n02123159_5270.png,1.0,14.157802,1.4249479,9.003488
alexnet,1,696,NaN,elephant,elephant,0,0696_pow_dnn_0_elephant_35_n02504013_3410.png,n02504013_3410.png,1.0,4.67828,2.8092084,1.3216331
alexnet,1,697,NaN,cat,cat,0,0697_pow_dnn_0_cat_35_n02123394_506.png,n02123394_506.png,1.0,9.282826,5.0889153,2.965543
alexnet,1,698,NaN,bottle,bottle,0,0698_pow_dnn_0_bottle_35_n04579145_2202.png,n04579145_2202.png,1.0,5.8998823,5.084186,0.5767844
alexnet,1,699,NaN,bicycle,bicycle,pow,0699_pow_dnn_pow_bicycle_35_n03792782_3357.png,n03792782_3357.png,1.0,9.148489,3.5958512,3.9263082
alexnet,1,700,NaN,bicycle,bicycle,0,0700_pow_dnn_0_bicycle_35_n03792782_12751.png,n03792782_12751.png,1.0,8.678612,2.8587723,4.115248
alexnet,1,701,NaN,elephant,cat,pow,0701_pow_dnn_pow_cat_35_n02125311_30246.png,n02125311_30246.png,0.0,3.7524242,8.292706,-3.2104638
alexnet,1,702,NaN,keyboard,keyboard,0,0702_pow_dnn_0_keyboard_35_n04505470_2102.png,n04505470_2102.png,1.0,16.62653,7.5511966,6.417229
alexnet,1,703,NaN,clock,bicycle,pow,0703_pow_dnn_pow_bicycle_35_n03792782_51296.png,n03792782_51296.png,0.0,3.4971688,3.90404,-0.2877015
alexnet,1,704,NaN,clock,keyboard,pow,0704_pow_dnn_pow_keyboard_35_n03085013_29452.png,n03085013_29452.png,0.0,0.99895215,3.5964782,-1.8367283
alexnet,1,705,NaN,oven,oven,pow,0705_pow_dnn_pow_oven_35_n04111531_5967.png,n04111531_5967.png,1.0,5.56647,3.7032008,1.3175304
alexnet,1,706,NaN,bottle,bottle,0,0706_pow_dnn_0_bottle_35_n02823428_5850.png,n02823428_5850.png,1.0,5.9575434,4.6357512,0.9346482
alexnet,1,707,NaN,knife,knife,0,0707_pow_dnn_0_knife_35_n03041632_16020.png,n03041632_16020.png,1.0,7.0516205,2.9396453,2.9076056
alexnet,1,708,NaN,bottle,bottle,pow,0708_pow_dnn_pow_bottle_35_n02823428_774.png,n02823428_774.png,1.0,6.266622,2.7693238,2.4729633
alexnet,1,709,NaN,elephant,bottle,pow,0709_pow_dnn_pow_bottle_35_n04557648_85.png,n04557648_85.png,0.0,3.4765685,3.5606477,-0.05945302
alexnet,1,710,NaN,clock,clock,0,0710_pow_dnn_0_clock_35_n02708093_7535.png,n02708093_7535.png,1.0,19.788515,6.356331,9.497989
alexnet,1,711,NaN,cat,dog,0,0711_pow_dnn_0_dog_35_n02109961_66260.png,n02109961_66260.png,0.0,3.6412368,8.881955,-3.7057476
alexnet,1,712,NaN,cat,cat,0,0712_pow_dnn_0_cat_35_n02123045_9947.png,n02123045_9947.png,1.0,11.838828,3.7946131,5.6881194
alexnet,1,713,NaN,oven,clock,0,0713_pow_dnn_0_clock_35_n03196217_1519.png,n03196217_1519.png,0.0,4.535583,7.096758,-1.8110242
alexnet,1,714,NaN,keyboard,keyboard,0,0714_pow_dnn_0_keyboard_35_n03085013_23354.png,n03085013_23354.png,1.0,5.189597,3.8200917,0.9683866
alexnet,1,715,NaN,bicycle,bicycle,pow,0715_pow_dnn_pow_bicycle_35_n02835271_3767.png,n02835271_3767.png,1.0,8.13151,5.8529444,1.6111891
alexnet,1,716,NaN,bottle,bottle,0,0716_pow_dnn_0_bottle_35_n03937543_2941.png,n03937543_2941.png,1.0,6.3880258,5.1393566,0.88294244
alexnet,1,717,NaN,chair,chair,0,0717_pow_dnn_0_chair_35_n04099969_2113.png,n04099969_2113.png,1.0,9.129717,4.3699327,3.3656757
alexnet,1,718,NaN,clock,clock,0,0718_pow_dnn_0_clock_35_n03196217_4879.png,n03196217_4879.png,1.0,9.904908,7.3122187,1.8333083
alexnet,1,719,NaN,clock,clock,0,0719_pow_dnn_0_clock_35_n04548280_16378.png,n04548280_16378.png,1.0,11.710946,2.9577599,6.1894374
alexnet,1,720,NaN,chair,boat,pow,0720_pow_dnn_pow_boat_35_n03344393_6892.png,n03344393_6892.png,0.0,0.75650084,4.421339,-2.591432
alexnet,1,721,NaN,knife,knife,0,0721_pow_dnn_0_knife_35_n03041632_45312.png,n03041632_45312.png,1.0,14.673049,4.4117193,7.255856
alexnet,1,722,NaN,car,boat,0,0722_pow_dnn_0_boat_35_n02951358_31965.png,n02951358_31965.png,0.0,2.6764607,5.6485996,-2.1016195
alexnet,1,723,NaN,knife,cat,pow,0723_pow_dnn_pow_cat_35_n02123159_463.png,n02123159_463.png,0.0,-0.10315243,3.8321743,-2.7826962
alexnet,1,724,NaN,dog,truck,0,0724_pow_dnn_0_truck_35_n03417042_213.png,n03417042_213.png,0.0,2.762916,4.669507,-1.3481634
alexnet,1,725,NaN,knife,knife,0,0725_pow_dnn_0_knife_35_n03041632_383.png,n03041632_383.png,1.0,6.8292155,3.4909544,2.360507
alexnet,1,726,NaN,boat,boat,0,0726_pow_dnn_0_boat_35_n03662601_4059.png,n03662601_4059.png,1.0,7.3059564,6.6462145,0.46650797
alexnet,1,727,NaN,elephant,dog,0,0727_pow_dnn_0_dog_35_n02088632_2321.png,n02088632_2321.png,0.0,2.2935178,2.7369106,-0.31352603
alexnet,1,728,NaN,car,car,pow,0728_pow_dnn_pow_car_35_n02814533_58196.png,n02814533_58196.png,1.0,9.498763,6.910636,1.8300823
alexnet,1,729,NaN,bottle,bottle,0,0729_pow_dnn_0_bottle_35_n04591713_5129.png,n04591713_5129.png,1.0,7.8016686,5.4917026,1.6333927
alexnet,1,730,NaN,bicycle,bicycle,0,0730_pow_dnn_0_bicycle_35_n03792782_3333.png,n03792782_3333.png,1.0,6.0634046,1.294714,3.3719735
alexnet,1,731,NaN,elephant,elephant,0,0731_pow_dnn_0_elephant_35_n02504013_6973.png,n02504013_6973.png,1.0,16.053293,4.7328053,8.004794
alexnet,1,732,NaN,airplane,airplane,0,0732_pow_dnn_0_airplane_35_n02690373_3493.png,n02690373_3493.png,1.0,12.923096,7.451579,3.8689466
alexnet,1,733,NaN,bear,bear,pow,0733_pow_dnn_pow_bear_35_n02134084_13588.png,n02134084_13588.png,1.0,7.5316234,6.810108,0.5101883
alexnet,1,734,NaN,clock,knife,pow,0734_pow_dnn_pow_knife_35_n03041632_29276.png,n03041632_29276.png,0.0,2.3003266,3.267285,-0.68374294
alexnet,1,735,NaN,elephant,elephant,0,0735_pow_dnn_0_elephant_35_n02504013_2778.png,n02504013_2778.png,1.0,13.201309,1.9630868,7.9466233
alexnet,1,736,NaN,oven,keyboard,pow,0736_pow_dnn_pow_keyboard_35_n03085013_22966.png,n03085013_22966.png,0.0,-2.6481996,4.596859,-5.12303
alexnet,1,737,NaN,boat,boat,0,0737_pow_dnn_0_boat_35_n03662601_13754.png,n03662601_13754.png,1.0,6.5085588,4.6441236,1.3183548
alexnet,1,738,NaN,bird,bird,0,0738_pow_dnn_0_bird_35_n02009229_8793.png,n02009229_8793.png,1.0,4.267713,3.5454178,0.5107399
alexnet,1,739,NaN,elephant,oven,pow,0739_pow_dnn_pow_oven_35_n04111531_7283.png,n04111531_7283.png,0.0,3.204533,6.946933,-2.6462762
alexnet,1,740,NaN,bear,bear,pow,0740_pow_dnn_pow_bear_35_n02133161_505.png,n02133161_505.png,1.0,2.2632694,1.7972441,0.3295297
alexnet,1,741,NaN,elephant,elephant,pow,0741_pow_dnn_pow_elephant_35_n02504458_5320.png,n02504458_5320.png,1.0,12.120947,2.0154178,7.145688
alexnet,1,742,NaN,elephant,bird,pow,0742_pow_dnn_pow_bird_35_n01829413_943.png,n01829413_943.png,0.0,-0.2569338,4.973015,-3.698132
alexnet,1,743,NaN,knife,knife,pow,0743_pow_dnn_pow_knife_35_n03041632_4494.png,n03041632_4494.png,1.0,4.942937,3.3601813,1.1191772
alexnet,1,744,NaN,oven,bird,0,0744_pow_dnn_0_bird_35_n01819313_2722.png,n01819313_2722.png,0.0,2.2821717,4.4495187,-1.5325458
alexnet,1,745,NaN,bottle,bottle,pow,0745_pow_dnn_pow_bottle_35_n04557648_1184.png,n04557648_1184.png,1.0,7.9732413,3.8453324,2.9188724
alexnet,1,746,NaN,bottle,bottle,0,0746_pow_dnn_0_bottle_35_n03983396_16628.png,n03983396_16628.png,1.0,18.811676,3.3660145,10.921732
alexnet,1,747,NaN,bottle,car,pow,0747_pow_dnn_pow_car_35_n03100240_4065.png,n03100240_4065.png,0.0,3.407644,4.4762816,-0.7556409
alexnet,1,748,NaN,elephant,elephant,pow,0748_pow_dnn_pow_elephant_35_n02504013_6584.png,n02504013_6584.png,1.0,10.684274,4.1215587,4.6405406
alexnet,1,749,NaN,bear,cat,pow,0749_pow_dnn_pow_cat_35_n02123597_111.png,n02123597_111.png,0.0,1.3579811,3.0964053,-1.2292515
alexnet,1,750,NaN,chair,clock,pow,0750_pow_dnn_pow_clock_35_n04548280_17907.png,n04548280_17907.png,0.0,2.0096006,3.4221954,-0.99885535
alexnet,1,751,NaN,airplane,airplane,pow,0751_pow_dnn_pow_airplane_35_n02690373_2147.png,n02690373_2147.png,1.0,5.6863956,5.064845,0.43950263
alexnet,1,752,NaN,airplane,airplane,pow,0752_pow_dnn_pow_airplane_35_n02690373_4225.png,n02690373_4225.png,1.0,6.5995383,3.3756094,2.2796621
alexnet,1,753,NaN,bottle,bottle,pow,0753_pow_dnn_pow_bottle_35_n04591713_1767.png,n04591713_1767.png,1.0,6.4644175,3.5042026,2.093188
alexnet,1,754,NaN,boat,boat,0,0754_pow_dnn_0_boat_35_n04273569_5767.png,n04273569_5767.png,1.0,6.2460413,3.4975226,1.9434962
alexnet,1,755,NaN,dog,dog,0,0755_pow_dnn_0_dog_35_n02106550_4880.png,n02106550_4880.png,1.0,5.415873,2.7171516,1.9082842
alexnet,1,756,NaN,airplane,truck,0,0756_pow_dnn_0_truck_35_n03417042_3327.png,n03417042_3327.png,0.0,3.7645793,4.621911,-0.60622513
alexnet,1,757,NaN,bottle,keyboard,pow,0757_pow_dnn_pow_keyboard_35_n03085013_21325.png,n03085013_21325.png,0.0,-0.43751493,2.6360455,-2.1733356
alexnet,1,758,NaN,airplane,airplane,pow,0758_pow_dnn_pow_airplane_35_n02690373_6755.png,n02690373_6755.png,1.0,3.9895287,2.4970028,1.0553751
alexnet,1,759,NaN,elephant,elephant,0,0759_pow_dnn_0_elephant_35_n02504013_1715.png,n02504013_1715.png,1.0,12.678831,3.73275,6.3258348
