subj,session,trial,rt,object_response,category,condition,imagename,filename,is_correct,targ_act,max_nontarg_act,decision_margin
convnext_large,1,1,NaN,clock,clock,0,0001_pow_dnn_0_clock_35_n03196217_10246.png,n03196217_10246.png,1.0,4.6029725,0.34900704,3.0080078
convnext_large,1,2,NaN,cat,dog,pow,0002_pow_dnn_pow_dog_35_n02091467_7264.png,n02091467_7264.png,0.0,0.11006194,0.4527898,-0.2423452
convnext_large,1,3,NaN,chair,chair,pow,0003_pow_dnn_pow_chair_35_n02791124_713.png,n02791124_713.png,1.0,2.1205184,0.3140003,1.2774012
convnext_large,1,4,NaN,car,car,0,0004_pow_dnn_0_car_35_n02814533_35174.png,n02814533_35174.png,1.0,2.138266,1.0512048,0.7686684
convnext_large,1,5,NaN,knife,knife,pow,0005_pow_dnn_pow_knife_35_n03041632_46103.png,n03041632_46103.png,1.0,6.9264007,0.14720395,4.7936163
convnext_large,1,6,NaN,bicycle,bicycle,0,0006_pow_dnn_0_bicycle_35_n03792782_11306.png,n03792782_11306.png,1.0,6.5838103,0.53589076,4.276525
convnext_large,1,7,NaN,bird,bird,0,0007_pow_dnn_0_bird_35_n02002556_3463.png,n02002556_3463.png,1.0,0.495098,0.26387095,0.16350222
convnext_large,1,8,NaN,bottle,keyboard,pow,0008_pow_dnn_pow_keyboard_35_n03085013_22813.png,n03085013_22813.png,0.0,0.2826026,0.6711558,-0.27474862
convnext_large,1,9,NaN,bird,bird,0,0009_pow_dnn_0_bird_35_n02025239_2961.png,n02025239_2961.png,1.0,0.41937673,0.21440253,0.14493865
convnext_large,1,10,NaN,boat,boat,pow,0010_pow_dnn_pow_boat_35_n02951358_14504.png,n02951358_14504.png,1.0,2.4820888,0.59178334,1.3366479
convnext_large,1,11,NaN,oven,oven,0,0011_pow_dnn_0_oven_35_n04111531_19000.png,n04111531_19000.png,1.0,2.2852478,1.6013594,0.48358217
convnext_large,1,12,NaN,bird,bird,0,0012_pow_dnn_0_bird_35_n01614925_11281.png,n01614925_11281.png,1.0,0.674955,0.27334127,0.2839838
convnext_large,1,13,NaN,knife,knife,0,0013_pow_dnn_0_knife_35_n03041632_52040.png,n03041632_52040.png,1.0,8.636541,0.4232956,5.8076415
convnext_large,1,14,NaN,car,car,pow,0014_pow_dnn_pow_car_35_n03100240_14206.png,n03100240_14206.png,1.0,4.9573045,1.1138309,2.7177463
convnext_large,1,15,NaN,knife,bird,0,0015_pow_dnn_0_bird_35_n01817953_689.png,n01817953_689.png,0.0,-0.14112854,0.71913373,-0.6082973
convnext_large,1,16,NaN,chair,chair,pow,0016_pow_dnn_pow_chair_35_n04099969_7934.png,n04099969_7934.png,1.0,4.142482,0.70684475,2.4293623
convnext_large,1,17,NaN,knife,knife,0,0017_pow_dnn_0_knife_35_n03041632_30196.png,n03041632_30196.png,1.0,8.42342,0.14276546,5.855307
convnext_large,1,18,NaN,car,car,0,0018_pow_dnn_0_car_35_n02814533_18077.png,n02814533_18077.png,1.0,4.265844,2.0856767,1.5416111
convnext_large,1,19,NaN,cat,cat,0,0019_pow_dnn_0_cat_35_n02123159_6927.png,n02123159_6927.png,1.0,4.147967,1.5613828,1.8289912
convnext_large,1,20,NaN,bird,bird,pow,0020_pow_dnn_pow_bird_35_n01855672_8550.png,n01855672_8550.png,1.0,0.30900717,0.22741154,0.057696823
convnext_large,1,21,NaN,truck,truck,0,0021_pow_dnn_0_truck_35_n03417042_17888.png,n03417042_17888.png,1.0,2.907281,1.4190854,1.0523132
convnext_large,1,22,NaN,truck,truck,pow,0022_pow_dnn_pow_truck_35_n04467665_45611.png,n04467665_45611.png,1.0,3.1969938,1.0813613,1.4959781
convnext_large,1,23,NaN,knife,dog,pow,0023_pow_dnn_pow_dog_35_n02093256_1772.png,n02093256_1772.png,0.0,0.54653984,2.1189954,-1.111894
convnext_large,1,24,NaN,boat,boat,pow,0024_pow_dnn_pow_boat_35_n03344393_6260.png,n03344393_6260.png,1.0,2.039002,0.6482262,0.9834269
convnext_large,1,25,NaN,chair,chair,0,0025_pow_dnn_0_chair_35_n04429376_24073.png,n04429376_24073.png,1.0,2.2565312,1.1258545,0.7995092
convnext_large,1,26,NaN,knife,knife,0,0026_pow_dnn_0_knife_35_n03041632_29355.png,n03041632_29355.png,1.0,7.998674,0.050688673,5.6200743
convnext_large,1,27,NaN,clock,clock,0,0027_pow_dnn_0_clock_35_n03196217_5907.png,n03196217_5907.png,1.0,5.1570477,0.34963852,3.3993518
convnext_large,1,28,NaN,airplane,airplane,0,0028_pow_dnn_0_airplane_35_n02690373_7276.png,n02690373_7276.png,1.0,8.658148,0.23563068,5.955619
convnext_large,1,29,NaN,bicycle,bicycle,pow,0029_pow_dnn_pow_bicycle_35_n03792782_15561.png,n03792782_15561.png,1.0,5.7636185,0.30915034,3.8568916
convnext_large,1,30,NaN,cat,cat,0,0030_pow_dnn_0_cat_35_n02123045_3505.png,n02123045_3505.png,1.0,4.1795588,0.3069246,2.738366
convnext_large,1,31,NaN,knife,knife,0,0031_pow_dnn_0_knife_35_n03041632_34769.png,n03041632_34769.png,1.0,7.511614,3.2378998,3.0219722
convnext_large,1,32,NaN,clock,clock,pow,0032_pow_dnn_pow_clock_35_n03196217_5206.png,n03196217_5206.png,1.0,3.841521,1.0805528,1.9522994
convnext_large,1,33,NaN,truck,truck,0,0033_pow_dnn_0_truck_35_n04467665_58815.png,n04467665_58815.png,1.0,3.0356987,0.40781483,1.8581946
convnext_large,1,34,NaN,bird,bird,0,0034_pow_dnn_0_bird_35_n01616318_2186.png,n01616318_2186.png,1.0,0.37882337,0.3467062,0.02271026
convnext_large,1,35,NaN,bicycle,bicycle,pow,0035_pow_dnn_pow_bicycle_35_n03792782_12885.png,n03792782_12885.png,1.0,4.846283,0.21392165,3.2755742
convnext_large,1,36,NaN,airplane,airplane,pow,0036_pow_dnn_pow_airplane_35_n02690373_9264.png,n02690373_9264.png,1.0,3.1237707,1.9407591,0.83651555
convnext_large,1,37,NaN,chair,chair,0,0037_pow_dnn_0_chair_35_n04099969_16079.png,n04099969_16079.png,1.0,3.308511,0.76796764,1.7964355
convnext_large,1,38,NaN,bicycle,bicycle,0,0038_pow_dnn_0_bicycle_35_n02835271_3027.png,n02835271_3027.png,1.0,5.058632,0.56416225,3.17807
convnext_large,1,39,NaN,airplane,airplane,0,0039_pow_dnn_0_airplane_35_n02690373_6614.png,n02690373_6614.png,1.0,8.064487,0.2415055,5.5316834
convnext_large,1,40,NaN,chair,chair,pow,0040_pow_dnn_pow_chair_35_n03376595_9048.png,n03376595_9048.png,1.0,2.9471455,1.2750746,1.1823326
convnext_large,1,41,NaN,oven,oven,0,0041_pow_dnn_0_oven_35_n04111531_6094.png,n04111531_6094.png,1.0,8.508148,1.8032938,4.7410483
convnext_large,1,42,NaN,clock,clock,pow,0042_pow_dnn_pow_clock_35_n02708093_687.png,n02708093_687.png,1.0,4.7212825,0.4063721,3.0511024
convnext_large,1,43,NaN,bicycle,bicycle,pow,0043_pow_dnn_pow_bicycle_35_n03792782_14931.png,n03792782_14931.png,1.0,6.0761185,0.52661836,3.9240892
convnext_large,1,44,NaN,bottle,bottle,0,0044_pow_dnn_0_bottle_35_n03937543_5567.png,n03937543_5567.png,1.0,1.5595847,0.35221034,0.8537426
convnext_large,1,45,NaN,car,car,0,0045_pow_dnn_0_car_35_n03100240_3073.png,n03100240_3073.png,1.0,6.487784,0.25458977,4.407534
convnext_large,1,46,NaN,knife,knife,0,0046_pow_dnn_0_knife_35_n03041632_18236.png,n03041632_18236.png,1.0,8.323586,0.1655037,5.7686357
convnext_large,1,47,NaN,knife,knife,pow,0047_pow_dnn_pow_knife_35_n03041632_9302.png,n03041632_9302.png,1.0,4.095663,0.055328123,2.8569484
convnext_large,1,48,NaN,bear,bear,0,0048_pow_dnn_0_bear_35_n02134418_2590.png,n02134418_2590.png,1.0,4.1794024,0.7904755,2.3963332
convnext_large,1,49,NaN,bottle,bottle,0,0049_pow_dnn_0_bottle_35_n03983396_24837.png,n03983396_24837.png,1.0,3.644516,0.8876245,1.9494168
convnext_large,1,50,NaN,knife,knife,pow,0050_pow_dnn_pow_knife_35_n03041632_3617.png,n03041632_3617.png,1.0,7.6818523,1.1843432,4.594433
convnext_large,1,51,NaN,bicycle,bicycle,pow,0051_pow_dnn_pow_bicycle_35_n03792782_6735.png,n03792782_6735.png,1.0,4.4992614,1.8616513,1.8650719
convnext_large,1,52,NaN,car,car,0,0052_pow_dnn_0_car_35_n03100240_5387.png,n03100240_5387.png,1.0,5.970989,0.23776436,4.0540023
convnext_large,1,53,NaN,bottle,bottle,0,0053_pow_dnn_0_bottle_35_n03983396_4879.png,n03983396_4879.png,1.0,2.5575917,2.3249135,0.16452833
convnext_large,1,54,NaN,car,car,0,0054_pow_dnn_0_car_35_n03100240_6103.png,n03100240_6103.png,1.0,7.2564435,0.5427788,4.7472777
convnext_large,1,55,NaN,elephant,bird,pow,0055_pow_dnn_pow_bird_35_n01796340_9255.png,n01796340_9255.png,0.0,0.7658345,2.5138135,-1.2360078
convnext_large,1,56,NaN,cat,cat,pow,0056_pow_dnn_pow_cat_35_n02123394_2448.png,n02123394_2448.png,1.0,2.49874,1.5206255,0.6916314
convnext_large,1,57,NaN,car,car,0,0057_pow_dnn_0_car_35_n04285008_13174.png,n04285008_13174.png,1.0,4.5647583,0.95469415,2.5527008
convnext_large,1,58,NaN,chair,chair,pow,0058_pow_dnn_pow_chair_35_n04429376_353.png,n04429376_353.png,1.0,2.292122,0.8324938,1.032113
convnext_large,1,59,NaN,elephant,boat,pow,0059_pow_dnn_pow_boat_35_n02951358_16261.png,n02951358_16261.png,0.0,1.1168814,2.4130352,-0.91651917
convnext_large,1,60,NaN,car,car,pow,0060_pow_dnn_pow_car_35_n04285008_15954.png,n04285008_15954.png,1.0,6.4052315,0.98688173,3.831352
convnext_large,1,61,NaN,truck,truck,pow,0061_pow_dnn_pow_truck_35_n04467665_3411.png,n04467665_3411.png,1.0,1.7637154,0.48191175,0.906372
convnext_large,1,62,NaN,oven,oven,pow,0062_pow_dnn_pow_oven_35_n04111531_15743.png,n04111531_15743.png,1.0,5.078531,0.52998,3.216311
convnext_large,1,63,NaN,dog,dog,0,0063_pow_dnn_0_dog_35_n02088238_8653.png,n02088238_8653.png,1.0,0.515588,0.3234949,0.13583031
convnext_large,1,64,NaN,airplane,airplane,0,0064_pow_dnn_0_airplane_35_n02690373_4681.png,n02690373_4681.png,1.0,8.348979,0.83235306,5.3150573
convnext_large,1,65,NaN,elephant,bear,pow,0065_pow_dnn_pow_bear_35_n02134418_5684.png,n02134418_5684.png,0.0,2.3748202,4.6321125,-1.5961467
convnext_large,1,66,NaN,bear,bear,pow,0066_pow_dnn_pow_bear_35_n02134418_5830.png,n02134418_5830.png,1.0,3.4026284,0.38425764,2.1343105
convnext_large,1,67,NaN,truck,truck,0,0067_pow_dnn_0_truck_35_n04467665_45983.png,n04467665_45983.png,1.0,2.3798938,0.5516362,1.2927734
convnext_large,1,68,NaN,bird,bird,0,0068_pow_dnn_0_bird_35_n01795545_14302.png,n01795545_14302.png,1.0,0.26942155,0.22169985,0.03374434
convnext_large,1,69,NaN,oven,oven,pow,0069_pow_dnn_pow_oven_35_n04111531_19240.png,n04111531_19240.png,1.0,5.0703464,0.8579409,2.9786203
convnext_large,1,70,NaN,knife,knife,0,0070_pow_dnn_0_knife_35_n03041632_22241.png,n03041632_22241.png,1.0,8.848375,0.8767349,5.6368012
convnext_large,1,71,NaN,boat,boat,pow,0071_pow_dnn_pow_boat_35_n03344393_815.png,n03344393_815.png,1.0,3.2498043,0.30973592,2.0789423
convnext_large,1,72,NaN,airplane,boat,0,0072_pow_dnn_0_boat_35_n03662601_2120.png,n03662601_2120.png,0.0,1.7482926,1.8832197,-0.0954079
convnext_large,1,73,NaN,knife,knife,pow,0073_pow_dnn_pow_knife_35_n03041632_2438.png,n03041632_2438.png,1.0,8.780938,0.9663038,5.525781
convnext_large,1,74,NaN,bear,bear,pow,0074_pow_dnn_pow_bear_35_n02134418_3073.png,n02134418_3073.png,1.0,3.3335295,0.4991091,2.004238
convnext_large,1,75,NaN,bottle,bottle,pow,0075_pow_dnn_pow_bottle_35_n02823428_3328.png,n02823428_3328.png,1.0,3.6202009,1.1122286,1.7734042
convnext_large,1,76,NaN,car,car,pow,0076_pow_dnn_pow_car_35_n04285008_13259.png,n04285008_13259.png,1.0,4.8087893,0.82476616,2.8171299
convnext_large,1,77,NaN,oven,oven,0,0077_pow_dnn_0_oven_35_n04111531_15852.png,n04111531_15852.png,1.0,9.247293,0.78391194,5.9845147
convnext_large,1,78,NaN,elephant,dog,pow,0078_pow_dnn_pow_dog_35_n02099601_447.png,n02099601_447.png,0.0,0.5998976,4.2721987,-2.596709
convnext_large,1,79,NaN,oven,oven,pow,0079_pow_dnn_pow_oven_35_n04111531_18916.png,n04111531_18916.png,1.0,8.685068,1.172779,5.3119907
convnext_large,1,80,NaN,bottle,bottle,pow,0080_pow_dnn_pow_bottle_35_n04591713_1407.png,n04591713_1407.png,1.0,1.9703361,0.38795418,1.118913
convnext_large,1,81,NaN,oven,oven,0,0081_pow_dnn_0_oven_35_n04111531_4585.png,n04111531_4585.png,1.0,4.0648074,1.511098,1.8057454
convnext_large,1,82,NaN,keyboard,keyboard,pow,0082_pow_dnn_pow_keyboard_35_n03085013_8364.png,n03085013_8364.png,1.0,4.770308,1.0392287,2.6382716
convnext_large,1,83,NaN,bear,bear,pow,0083_pow_dnn_pow_bear_35_n02132136_15462.png,n02132136_15462.png,1.0,4.8411393,0.40289766,3.1383107
convnext_large,1,84,NaN,bicycle,bicycle,pow,0084_pow_dnn_pow_bicycle_35_n03792782_4167.png,n03792782_4167.png,1.0,6.7419796,0.5210049,4.398894
convnext_large,1,85,NaN,boat,boat,0,0085_pow_dnn_0_boat_35_n03662601_16106.png,n03662601_16106.png,1.0,3.0760913,0.52086353,1.806819
convnext_large,1,86,NaN,keyboard,keyboard,pow,0086_pow_dnn_pow_keyboard_35_n03085013_2277.png,n03085013_2277.png,1.0,3.7350101,0.8620654,2.031479
convnext_large,1,87,NaN,airplane,airplane,pow,0087_pow_dnn_pow_airplane_35_n02690373_8461.png,n02690373_8461.png,1.0,8.233453,0.38317114,5.5509877
convnext_large,1,88,NaN,chair,chair,pow,0088_pow_dnn_pow_chair_35_n03376595_3304.png,n03376595_3304.png,1.0,3.0209165,0.46119148,1.809999
convnext_large,1,89,NaN,bicycle,bicycle,0,0089_pow_dnn_0_bicycle_35_n03792782_19116.png,n03792782_19116.png,1.0,5.167531,0.24210888,3.4827995
convnext_large,1,90,NaN,clock,clock,0,0090_pow_dnn_0_clock_35_n02708093_6734.png,n02708093_6734.png,1.0,4.804665,0.8720714,2.7807639
convnext_large,1,91,NaN,chair,chair,0,0091_pow_dnn_0_chair_35_n04429376_6480.png,n04429376_6480.png,1.0,3.5430176,0.7786069,1.9547336
convnext_large,1,92,NaN,bicycle,bicycle,pow,0092_pow_dnn_pow_bicycle_35_n02835271_21339.png,n02835271_21339.png,1.0,6.721424,0.87592673,4.133391
convnext_large,1,93,NaN,keyboard,keyboard,pow,0093_pow_dnn_pow_keyboard_35_n03085013_3859.png,n03085013_3859.png,1.0,6.7370234,0.5623252,4.3661714
convnext_large,1,94,NaN,chair,chair,pow,0094_pow_dnn_pow_chair_35_n03376595_360.png,n03376595_360.png,1.0,3.0667498,1.7167416,0.9546
convnext_large,1,95,NaN,elephant,elephant,pow,0095_pow_dnn_pow_elephant_35_n02504013_18988.png,n02504013_18988.png,1.0,5.920903,0.32309383,3.958249
convnext_large,1,96,NaN,chair,chair,0,0096_pow_dnn_0_chair_35_n04429376_54570.png,n04429376_54570.png,1.0,2.5697124,1.0591694,1.0681152
convnext_large,1,97,NaN,clock,clock,pow,0097_pow_dnn_pow_clock_35_n04548280_5189.png,n04548280_5189.png,1.0,3.9948628,0.47729424,2.4872966
convnext_large,1,98,NaN,truck,truck,pow,0098_pow_dnn_pow_truck_35_n04467665_6626.png,n04467665_6626.png,1.0,2.6012938,1.0597099,1.0900644
convnext_large,1,99,NaN,boat,boat,0,0099_pow_dnn_0_boat_35_n03344393_3323.png,n03344393_3323.png,1.0,2.544806,0.90103334,1.1623228
convnext_large,1,100,NaN,elephant,dog,pow,0100_pow_dnn_pow_dog_35_n02100583_3987.png,n02100583_3987.png,0.0,0.049848188,1.5617602,-1.0690832
convnext_large,1,101,NaN,elephant,elephant,pow,0101_pow_dnn_pow_elephant_35_n02504013_1702.png,n02504013_1702.png,1.0,5.9982347,0.42827037,3.9385598
convnext_large,1,102,NaN,truck,truck,pow,0102_pow_dnn_pow_truck_35_n03417042_1841.png,n03417042_1841.png,1.0,1.852289,1.5581474,0.20798947
convnext_large,1,103,NaN,truck,truck,0,0103_pow_dnn_0_truck_35_n03417042_2062.png,n03417042_2062.png,1.0,3.2631876,0.7823987,1.7541827
convnext_large,1,104,NaN,bottle,bottle,0,0104_pow_dnn_0_bottle_35_n03983396_4178.png,n03983396_4178.png,1.0,4.3008323,0.26205355,2.8558478
convnext_large,1,105,NaN,keyboard,keyboard,pow,0105_pow_dnn_pow_keyboard_35_n03085013_1698.png,n03085013_1698.png,1.0,3.698934,2.000246,1.2011539
convnext_large,1,106,NaN,car,car,pow,0106_pow_dnn_pow_car_35_n03100240_7056.png,n03100240_7056.png,1.0,6.3064265,1.6964815,3.2597237
convnext_large,1,107,NaN,bear,dog,pow,0107_pow_dnn_pow_dog_35_n02100735_3553.png,n02100735_3553.png,0.0,0.996913,4.4127197,-2.4153402
convnext_large,1,108,NaN,chair,oven,pow,0108_pow_dnn_pow_oven_35_n04111531_11781.png,n04111531_11781.png,0.0,1.3763559,2.4140713,-0.7337756
convnext_large,1,109,NaN,cat,cat,0,0109_pow_dnn_0_cat_35_n02123159_4914.png,n02123159_4914.png,1.0,4.448255,0.50355816,2.789322
convnext_large,1,110,NaN,boat,dog,0,0110_pow_dnn_0_dog_35_n02090622_1852.png,n02090622_1852.png,0.0,0.84829915,0.95417273,-0.07486393
convnext_large,1,111,NaN,car,car,pow,0111_pow_dnn_pow_car_35_n03100240_24471.png,n03100240_24471.png,1.0,5.3949637,0.63847893,3.3633428
convnext_large,1,112,NaN,boat,boat,pow,0112_pow_dnn_pow_boat_35_n03344393_3519.png,n03344393_3519.png,1.0,2.133077,0.95081687,0.8359841
convnext_large,1,113,NaN,keyboard,keyboard,pow,0113_pow_dnn_pow_keyboard_35_n03085013_22713.png,n03085013_22713.png,1.0,6.3442097,0.30839947,4.2679625
convnext_large,1,114,NaN,elephant,elephant,0,0114_pow_dnn_0_elephant_35_n02504013_6615.png,n02504013_6615.png,1.0,6.1446147,1.3753606,3.3723722
convnext_large,1,115,NaN,cat,cat,0,0115_pow_dnn_0_cat_35_n02123597_7081.png,n02123597_7081.png,1.0,3.174551,1.3300185,1.3042815
convnext_large,1,116,NaN,clock,clock,pow,0116_pow_dnn_pow_clock_35_n04548280_5406.png,n04548280_5406.png,1.0,5.1285157,0.72837496,3.1113694
convnext_large,1,117,NaN,bottle,bottle,0,0117_pow_dnn_0_bottle_35_n03983396_21920.png,n03983396_21920.png,1.0,2.9420698,0.44544774,1.7653785
convnext_large,1,118,NaN,knife,knife,0,0118_pow_dnn_0_knife_35_n03041632_48675.png,n03041632_48675.png,1.0,8.716786,0.695262,5.6720743
convnext_large,1,119,NaN,cat,cat,0,0119_pow_dnn_0_cat_35_n02125311_2103.png,n02125311_2103.png,1.0,1.2292943,0.7167707,0.3624089
convnext_large,1,120,NaN,clock,bird,pow,0120_pow_dnn_pow_bird_35_n01798484_962.png,n01798484_962.png,0.0,0.60713536,0.8326459,-0.15946004
convnext_large,1,121,NaN,oven,oven,pow,0121_pow_dnn_pow_oven_35_n04111531_6393.png,n04111531_6393.png,1.0,8.258425,0.52563775,5.4679065
convnext_large,1,122,NaN,oven,oven,0,0122_pow_dnn_0_oven_35_n04111531_4418.png,n04111531_4418.png,1.0,7.9229674,0.4552214,5.2804937
convnext_large,1,123,NaN,car,truck,pow,0123_pow_dnn_pow_truck_35_n03796401_296.png,n03796401_296.png,0.0,3.5374148,4.2144094,-0.47870746
convnext_large,1,124,NaN,bicycle,bicycle,0,0124_pow_dnn_0_bicycle_35_n02835271_10738.png,n02835271_10738.png,1.0,5.431993,0.6529065,3.3793247
convnext_large,1,125,NaN,elephant,elephant,0,0125_pow_dnn_0_elephant_35_n02504013_4457.png,n02504013_4457.png,1.0,6.488315,0.2058273,4.44239
convnext_large,1,126,NaN,knife,knife,0,0126_pow_dnn_0_knife_35_n03041632_30573.png,n03041632_30573.png,1.0,7.563719,0.09210018,5.283232
convnext_large,1,127,NaN,boat,boat,0,0127_pow_dnn_0_boat_35_n03662601_19840.png,n03662601_19840.png,1.0,3.6125731,0.5529868,2.1634543
convnext_large,1,128,NaN,bear,bear,0,0128_pow_dnn_0_bear_35_n02133161_12167.png,n02133161_12167.png,1.0,4.4521284,0.5066382,2.789883
convnext_large,1,129,NaN,bottle,bottle,0,0129_pow_dnn_0_bottle_35_n02823428_3028.png,n02823428_3028.png,1.0,2.4362798,0.52199996,1.3536003
convnext_large,1,130,NaN,boat,boat,0,0130_pow_dnn_0_boat_35_n02951358_30149.png,n02951358_30149.png,1.0,2.2479563,0.4318783,1.2841611
convnext_large,1,131,NaN,car,car,0,0131_pow_dnn_0_car_35_n02814533_75419.png,n02814533_75419.png,1.0,3.8357828,0.90961885,2.0691104
convnext_large,1,132,NaN,keyboard,keyboard,0,0132_pow_dnn_0_keyboard_35_n03085013_24449.png,n03085013_24449.png,1.0,5.8687334,0.8835442,3.5250614
convnext_large,1,133,NaN,dog,dog,0,0133_pow_dnn_0_dog_35_n02086240_519.png,n02086240_519.png,1.0,0.7215733,0.64508134,0.054087978
convnext_large,1,134,NaN,airplane,bird,pow,0134_pow_dnn_pow_bird_35_n01582220_2882.png,n01582220_2882.png,0.0,-0.03498081,1.5001181,-1.0854789
convnext_large,1,135,NaN,oven,oven,0,0135_pow_dnn_0_oven_35_n04111531_13277.png,n04111531_13277.png,1.0,8.847276,0.1946209,6.118351
convnext_large,1,136,NaN,bear,bear,pow,0136_pow_dnn_pow_bear_35_n02134084_6901.png,n02134084_6901.png,1.0,3.3120916,3.0811405,0.16330707
convnext_large,1,137,NaN,car,bird,0,0137_pow_dnn_0_bird_35_n02002556_5447.png,n02002556_5447.png,0.0,-0.024832493,0.39881995,-0.29956752
convnext_large,1,138,NaN,keyboard,keyboard,0,0138_pow_dnn_0_keyboard_35_n03085013_20710.png,n03085013_20710.png,1.0,4.419034,0.53308916,2.747778
convnext_large,1,139,NaN,oven,oven,pow,0139_pow_dnn_pow_oven_35_n04111531_11405.png,n04111531_11405.png,1.0,6.607594,2.2416372,3.0871978
convnext_large,1,140,NaN,bear,bear,pow,0140_pow_dnn_pow_bear_35_n02132136_8457.png,n02132136_8457.png,1.0,4.2654824,0.35542887,2.7648253
convnext_large,1,141,NaN,bird,bird,pow,0141_pow_dnn_pow_bird_35_n02009912_6788.png,n02009912_6788.png,1.0,0.81571025,0.66681063,0.10528793
convnext_large,1,142,NaN,chair,chair,pow,0142_pow_dnn_pow_chair_35_n04429376_9630.png,n04429376_9630.png,1.0,1.172355,1.0290185,0.101354234
convnext_large,1,143,NaN,keyboard,keyboard,0,0143_pow_dnn_0_keyboard_35_n03085013_23658.png,n03085013_23658.png,1.0,7.174805,0.2530605,4.894413
convnext_large,1,144,NaN,cat,cat,pow,0144_pow_dnn_pow_cat_35_n02123045_13199.png,n02123045_13199.png,1.0,4.129198,0.63079405,2.4737453
convnext_large,1,145,NaN,clock,clock,pow,0145_pow_dnn_pow_clock_35_n04548280_6411.png,n04548280_6411.png,1.0,5.073667,0.9390594,2.9236093
convnext_large,1,146,NaN,bear,bird,0,0146_pow_dnn_0_bird_35_n01820546_9729.png,n01820546_9729.png,0.0,-0.70074266,1.0544127,-1.2410823
convnext_large,1,147,NaN,boat,boat,0,0147_pow_dnn_0_boat_35_n04273569_12651.png,n04273569_12651.png,1.0,2.7938738,0.8157842,1.3987206
convnext_large,1,148,NaN,elephant,elephant,pow,0148_pow_dnn_pow_elephant_35_n02504458_3143.png,n02504458_3143.png,1.0,5.107261,0.67118573,3.1367788
convnext_large,1,149,NaN,clock,clock,0,0149_pow_dnn_0_clock_35_n03196217_9786.png,n03196217_9786.png,1.0,5.4556994,0.29545993,3.6488404
convnext_large,1,150,NaN,chair,chair,0,0150_pow_dnn_0_chair_35_n03376595_6652.png,n03376595_6652.png,1.0,2.7204452,1.018444,1.2034966
convnext_large,1,151,NaN,bottle,bottle,pow,0151_pow_dnn_pow_bottle_35_n03983396_2998.png,n03983396_2998.png,1.0,3.7553554,1.0859395,1.8875622
convnext_large,1,152,NaN,elephant,elephant,0,0152_pow_dnn_0_elephant_35_n02504458_5331.png,n02504458_5331.png,1.0,6.882413,0.88339823,4.2419443
convnext_large,1,153,NaN,car,car,0,0153_pow_dnn_0_car_35_n04285008_8052.png,n04285008_8052.png,1.0,6.0207763,0.1474984,4.1530347
convnext_large,1,154,NaN,bottle,bottle,pow,0154_pow_dnn_pow_bottle_35_n04591713_3402.png,n04591713_3402.png,1.0,4.901583,0.051831245,3.4292924
convnext_large,1,155,NaN,bicycle,bicycle,pow,0155_pow_dnn_pow_bicycle_35_n02835271_1701.png,n02835271_1701.png,1.0,5.236455,0.48476452,3.3599524
convnext_large,1,156,NaN,bicycle,bicycle,0,0156_pow_dnn_0_bicycle_35_n02835271_5196.png,n02835271_5196.png,1.0,5.1675735,0.725825,3.1407907
convnext_large,1,157,NaN,elephant,elephant,pow,0157_pow_dnn_pow_elephant_35_n02504458_5444.png,n02504458_5444.png,1.0,6.1269426,0.32820594,4.100326
convnext_large,1,158,NaN,truck,truck,0,0158_pow_dnn_0_truck_35_n03417042_3422.png,n03417042_3422.png,1.0,1.5871197,0.6791507,0.6420311
convnext_large,1,159,NaN,elephant,dog,pow,0159_pow_dnn_pow_dog_35_n02088466_1537.png,n02088466_1537.png,0.0,0.031077119,1.6589252,-1.1510624
convnext_large,1,160,NaN,boat,dog,pow,0160_pow_dnn_pow_dog_35_n02088632_1732.png,n02088632_1732.png,0.0,0.18733776,0.3543064,-0.118064664
convnext_large,1,161,NaN,truck,truck,0,0161_pow_dnn_0_truck_35_n03796401_3326.png,n03796401_3326.png,1.0,1.6953131,0.38633078,0.92559034
convnext_large,1,162,NaN,boat,boat,0,0162_pow_dnn_0_boat_35_n04273569_19796.png,n04273569_19796.png,1.0,3.243691,0.77123034,1.7482938
convnext_large,1,163,NaN,keyboard,keyboard,pow,0163_pow_dnn_pow_keyboard_35_n04505470_5125.png,n04505470_5125.png,1.0,5.1389832,0.7675994,3.0910351
convnext_large,1,164,NaN,cat,cat,pow,0164_pow_dnn_pow_cat_35_n02123394_1817.png,n02123394_1817.png,1.0,1.8997098,0.28435832,1.142226
convnext_large,1,165,NaN,cat,cat,pow,0165_pow_dnn_pow_cat_35_n02123159_7465.png,n02123159_7465.png,1.0,2.0575435,0.7549772,0.92105347
convnext_large,1,166,NaN,cat,cat,0,0166_pow_dnn_0_cat_35_n02125311_33516.png,n02125311_33516.png,1.0,1.990918,1.1682067,0.5817448
convnext_large,1,167,NaN,bicycle,bicycle,pow,0167_pow_dnn_pow_bicycle_35_n03792782_30246.png,n03792782_30246.png,1.0,4.696119,0.5636954,2.9220645
convnext_large,1,168,NaN,truck,truck,0,0168_pow_dnn_0_truck_35_n04467665_72639.png,n04467665_72639.png,1.0,2.1909246,1.6404192,0.3892661
convnext_large,1,169,NaN,bicycle,bicycle,0,0169_pow_dnn_0_bicycle_35_n03792782_10395.png,n03792782_10395.png,1.0,7.9468703,0.24783862,5.444038
convnext_large,1,170,NaN,bicycle,bicycle,pow,0170_pow_dnn_pow_bicycle_35_n02835271_840.png,n02835271_840.png,1.0,5.9819098,0.89245874,3.5987852
convnext_large,1,171,NaN,knife,knife,pow,0171_pow_dnn_pow_knife_35_n03041632_82197.png,n03041632_82197.png,1.0,6.330188,1.4965271,3.4179142
convnext_large,1,172,NaN,airplane,airplane,pow,0172_pow_dnn_pow_airplane_35_n02690373_8942.png,n02690373_8942.png,1.0,7.691311,1.1235799,4.6440873
convnext_large,1,173,NaN,keyboard,keyboard,0,0173_pow_dnn_0_keyboard_35_n03085013_21851.png,n03085013_21851.png,1.0,3.154438,0.8697095,1.6155471
convnext_large,1,174,NaN,clock,clock,pow,0174_pow_dnn_pow_clock_35_n04548280_1106.png,n04548280_1106.png,1.0,4.5356812,0.23863499,3.0384705
convnext_large,1,175,NaN,truck,truck,0,0175_pow_dnn_0_truck_35_n03796401_4181.png,n03796401_4181.png,1.0,2.6407762,2.3310914,0.2189802
convnext_large,1,176,NaN,knife,knife,pow,0176_pow_dnn_pow_knife_35_n03041632_44019.png,n03041632_44019.png,1.0,6.6803684,0.28462273,4.5224752
convnext_large,1,177,NaN,truck,truck,0,0177_pow_dnn_0_truck_35_n03417042_1348.png,n03417042_1348.png,1.0,1.4449222,0.33128214,0.7874625
convnext_large,1,178,NaN,chair,chair,0,0178_pow_dnn_0_chair_35_n04099969_10516.png,n04099969_10516.png,1.0,2.8596263,0.5732331,1.6167241
convnext_large,1,179,NaN,chair,chair,pow,0179_pow_dnn_pow_chair_35_n04099969_24041.png,n04099969_24041.png,1.0,4.0148287,2.7305586,0.9081161
convnext_large,1,180,NaN,truck,truck,pow,0180_pow_dnn_pow_truck_35_n03796401_3618.png,n03796401_3618.png,1.0,3.2916503,2.155408,0.8034447
convnext_large,1,181,NaN,elephant,elephant,0,0181_pow_dnn_0_elephant_35_n02504458_4414.png,n02504458_4414.png,1.0,6.8796964,0.46170476,4.5382056
convnext_large,1,182,NaN,truck,truck,pow,0182_pow_dnn_pow_truck_35_n03796401_3427.png,n03796401_3427.png,1.0,1.5635924,0.4980899,0.75342405
convnext_large,1,183,NaN,cat,cat,0,0183_pow_dnn_0_cat_35_n02123045_9907.png,n02123045_9907.png,1.0,3.7978497,0.67078173,2.2111712
convnext_large,1,184,NaN,oven,oven,0,0184_pow_dnn_0_oven_35_n04111531_2156.png,n04111531_2156.png,1.0,8.891533,0.768313,5.7439837
convnext_large,1,185,NaN,elephant,bird,pow,0185_pow_dnn_pow_bird_35_n02002556_12696.png,n02002556_12696.png,0.0,0.08692508,0.27357888,-0.13198416
convnext_large,1,186,NaN,airplane,airplane,pow,0186_pow_dnn_pow_airplane_35_n02690373_8791.png,n02690373_8791.png,1.0,7.5979805,0.4799629,5.033199
convnext_large,1,187,NaN,knife,knife,pow,0187_pow_dnn_pow_knife_35_n03041632_27963.png,n03041632_27963.png,1.0,2.2393007,0.18031493,1.4559228
convnext_large,1,188,NaN,chair,chair,0,0188_pow_dnn_0_chair_35_n03376595_7772.png,n03376595_7772.png,1.0,3.630702,1.5170903,1.4945492
convnext_large,1,189,NaN,boat,boat,pow,0189_pow_dnn_pow_boat_35_n04273569_3460.png,n04273569_3460.png,1.0,2.5219707,0.88339263,1.1586498
convnext_large,1,190,NaN,oven,oven,0,0190_pow_dnn_0_oven_35_n04111531_5694.png,n04111531_5694.png,1.0,8.936585,0.41953307,6.0224657
convnext_large,1,191,NaN,bear,bear,pow,0191_pow_dnn_pow_bear_35_n02134084_17218.png,n02134084_17218.png,1.0,4.0991383,0.6210521,2.4593785
convnext_large,1,192,NaN,oven,oven,pow,0192_pow_dnn_pow_oven_35_n04111531_2923.png,n04111531_2923.png,1.0,2.8585482,2.3049433,0.39145774
convnext_large,1,193,NaN,keyboard,keyboard,pow,0193_pow_dnn_pow_keyboard_35_n03085013_22669.png,n03085013_22669.png,1.0,3.2072732,0.75535464,1.7337683
convnext_large,1,194,NaN,bottle,bottle,pow,0194_pow_dnn_pow_bottle_35_n04557648_2282.png,n04557648_2282.png,1.0,2.5738204,0.18170053,1.6914842
convnext_large,1,195,NaN,elephant,elephant,pow,0195_pow_dnn_pow_elephant_35_n02504013_6693.png,n02504013_6693.png,1.0,5.803644,0.4320234,3.7983096
convnext_large,1,196,NaN,chair,chair,0,0196_pow_dnn_0_chair_35_n04099969_39507.png,n04099969_39507.png,1.0,3.2515574,0.39619884,2.0190434
convnext_large,1,197,NaN,car,car,pow,0197_pow_dnn_pow_car_35_n02814533_61184.png,n02814533_61184.png,1.0,6.084408,1.4123871,3.3036177
convnext_large,1,198,NaN,keyboard,keyboard,pow,0198_pow_dnn_pow_keyboard_35_n04505470_1358.png,n04505470_1358.png,1.0,5.325101,0.40949932,3.4758554
convnext_large,1,199,NaN,truck,truck,pow,0199_pow_dnn_pow_truck_35_n04467665_8824.png,n04467665_8824.png,1.0,4.098632,0.7602178,2.3606153
convnext_large,1,200,NaN,keyboard,keyboard,0,0200_pow_dnn_0_keyboard_35_n04505470_8937.png,n04505470_8937.png,1.0,5.7880588,0.40355545,3.8074188
convnext_large,1,201,NaN,truck,truck,pow,0201_pow_dnn_pow_truck_35_n03417042_7581.png,n03417042_7581.png,1.0,2.291247,0.41781437,1.3247168
convnext_large,1,202,NaN,bicycle,bicycle,pow,0202_pow_dnn_pow_bicycle_35_n02835271_13234.png,n02835271_13234.png,1.0,5.316744,0.5671699,3.358456
convnext_large,1,203,NaN,cat,cat,pow,0203_pow_dnn_pow_cat_35_n02124075_3383.png,n02124075_3383.png,1.0,4.9202805,0.41081777,3.1886718
convnext_large,1,204,NaN,elephant,elephant,pow,0204_pow_dnn_pow_elephant_35_n02504013_474.png,n02504013_474.png,1.0,4.991196,1.3347597,2.585491
convnext_large,1,205,NaN,chair,chair,pow,0205_pow_dnn_pow_chair_35_n04429376_1838.png,n04429376_1838.png,1.0,2.186575,0.984424,0.8500491
convnext_large,1,206,NaN,boat,boat,pow,0206_pow_dnn_pow_boat_35_n02951358_5064.png,n02951358_5064.png,1.0,1.9414358,0.32268795,1.1446276
convnext_large,1,207,NaN,knife,knife,pow,0207_pow_dnn_pow_knife_35_n03041632_31037.png,n03041632_31037.png,1.0,7.1902685,0.5275046,4.7112856
convnext_large,1,208,NaN,cat,cat,pow,0208_pow_dnn_pow_cat_35_n02123045_11501.png,n02123045_11501.png,1.0,3.6432097,1.020097,1.8548208
convnext_large,1,209,NaN,keyboard,keyboard,pow,0209_pow_dnn_pow_keyboard_35_n03085013_17937.png,n03085013_17937.png,1.0,3.8582792,2.8642898,0.7028567
convnext_large,1,210,NaN,chair,chair,0,0210_pow_dnn_0_chair_35_n03376595_10881.png,n03376595_10881.png,1.0,2.578024,0.18720083,1.6905673
convnext_large,1,211,NaN,elephant,elephant,0,0211_pow_dnn_0_elephant_35_n02504458_7302.png,n02504458_7302.png,1.0,6.9846587,0.66027606,4.472014
convnext_large,1,212,NaN,airplane,airplane,pow,0212_pow_dnn_pow_airplane_35_n02690373_4704.png,n02690373_4704.png,1.0,6.6184926,0.48279464,4.3385935
convnext_large,1,213,NaN,car,car,0,0213_pow_dnn_0_car_35_n03100240_18756.png,n03100240_18756.png,1.0,5.8588276,0.18965906,4.0087075
convnext_large,1,214,NaN,keyboard,keyboard,pow,0214_pow_dnn_pow_keyboard_35_n03085013_20732.png,n03085013_20732.png,1.0,1.2768025,1.2310103,0.032379992
convnext_large,1,215,NaN,bottle,bottle,pow,0215_pow_dnn_pow_bottle_35_n04579145_2999.png,n04579145_2999.png,1.0,2.9887166,0.47652164,1.7763901
convnext_large,1,216,NaN,clock,clock,pow,0216_pow_dnn_pow_clock_35_n02708093_2546.png,n02708093_2546.png,1.0,5.5528293,0.67867136,3.4465501
convnext_large,1,217,NaN,boat,boat,0,0217_pow_dnn_0_boat_35_n03662601_13847.png,n03662601_13847.png,1.0,3.4810863,0.544526,2.0764616
convnext_large,1,218,NaN,bicycle,bicycle,0,0218_pow_dnn_0_bicycle_35_n03792782_7878.png,n03792782_7878.png,1.0,6.2465415,0.5457078,4.0310984
convnext_large,1,219,NaN,knife,knife,pow,0219_pow_dnn_pow_knife_35_n03041632_18959.png,n03041632_18959.png,1.0,7.297512,1.6252161,4.010919
convnext_large,1,220,NaN,bear,bear,0,0220_pow_dnn_0_bear_35_n02134418_10576.png,n02134418_10576.png,1.0,4.5441074,0.533733,2.835763
convnext_large,1,221,NaN,elephant,elephant,pow,0221_pow_dnn_pow_elephant_35_n02504013_213.png,n02504013_213.png,1.0,5.137782,0.53932774,3.2515984
convnext_large,1,222,NaN,bottle,bottle,pow,0222_pow_dnn_pow_bottle_35_n03983396_2944.png,n03983396_2944.png,1.0,2.1680057,1.2481565,0.6504316
convnext_large,1,223,NaN,truck,truck,0,0223_pow_dnn_0_truck_35_n03796401_8964.png,n03796401_8964.png,1.0,1.8033762,1.7352796,0.048151594
convnext_large,1,224,NaN,knife,knife,pow,0224_pow_dnn_pow_knife_35_n03041632_13509.png,n03041632_13509.png,1.0,7.341853,1.0695919,4.4351583
convnext_large,1,225,NaN,bear,bird,pow,0225_pow_dnn_pow_bird_35_n01537544_7301.png,n01537544_7301.png,0.0,0.12130492,0.96522987,-0.5967451
convnext_large,1,226,NaN,elephant,elephant,0,0226_pow_dnn_0_elephant_35_n02504013_9618.png,n02504013_9618.png,1.0,6.367674,0.29007864,4.2975087
convnext_large,1,227,NaN,keyboard,keyboard,pow,0227_pow_dnn_pow_keyboard_35_n04505470_10191.png,n04505470_10191.png,1.0,4.2386904,1.2057134,2.1446388
convnext_large,1,228,NaN,bicycle,bicycle,pow,0228_pow_dnn_pow_bicycle_35_n02835271_20149.png,n02835271_20149.png,1.0,5.0315905,0.5153388,3.1934721
convnext_large,1,229,NaN,truck,truck,0,0229_pow_dnn_0_truck_35_n04467665_2098.png,n04467665_2098.png,1.0,2.4950671,0.30745646,1.5468743
convnext_large,1,230,NaN,bear,bear,0,0230_pow_dnn_0_bear_35_n02133161_5274.png,n02133161_5274.png,1.0,5.3190374,0.555068,3.3686352
convnext_large,1,231,NaN,cat,bird,pow,0231_pow_dnn_pow_bird_35_n01537544_20224.png,n01537544_20224.png,0.0,0.2000882,1.1074544,-0.64160484
convnext_large,1,232,NaN,dog,dog,pow,0232_pow_dnn_pow_dog_35_n02094258_6800.png,n02094258_6800.png,1.0,0.68649495,0.41023916,0.19534235
convnext_large,1,233,NaN,truck,truck,0,0233_pow_dnn_0_truck_35_n03417042_27326.png,n03417042_27326.png,1.0,1.9940524,0.6456557,0.9534605
convnext_large,1,234,NaN,oven,oven,pow,0234_pow_dnn_pow_oven_35_n04111531_6955.png,n04111531_6955.png,1.0,7.0908804,1.3026994,4.092862
convnext_large,1,235,NaN,clock,clock,0,0235_pow_dnn_0_clock_35_n04548280_7135.png,n04548280_7135.png,1.0,5.16541,0.55010986,3.2635102
convnext_large,1,236,NaN,knife,dog,pow,0236_pow_dnn_pow_dog_35_n02113023_12143.png,n02113023_12143.png,0.0,0.046155278,1.7466555,-1.2024351
convnext_large,1,237,NaN,bicycle,bicycle,0,0237_pow_dnn_0_bicycle_35_n02835271_10832.png,n02835271_10832.png,1.0,5.2467055,0.83246964,3.1213362
convnext_large,1,238,NaN,chair,chair,pow,0238_pow_dnn_pow_chair_35_n02791124_28.png,n02791124_28.png,1.0,2.1667244,0.9298374,0.8746112
convnext_large,1,239,NaN,bicycle,bicycle,pow,0239_pow_dnn_pow_bicycle_35_n03792782_1715.png,n03792782_1715.png,1.0,6.3735003,1.1321242,3.7062125
convnext_large,1,240,NaN,bicycle,bicycle,0,0240_pow_dnn_0_bicycle_35_n02835271_19875.png,n02835271_19875.png,1.0,4.763363,0.5439051,2.983607
convnext_large,1,241,NaN,bird,bird,0,0241_pow_dnn_0_bird_35_n02056570_8203.png,n02056570_8203.png,1.0,0.28112453,0.18337637,0.06911839
convnext_large,1,242,NaN,car,car,pow,0242_pow_dnn_pow_car_35_n02814533_27588.png,n02814533_27588.png,1.0,3.220004,2.256154,0.6815449
convnext_large,1,243,NaN,bear,bear,0,0243_pow_dnn_0_bear_35_n02134418_2714.png,n02134418_2714.png,1.0,3.2912571,0.51096296,1.9659649
convnext_large,1,244,NaN,bear,bear,0,0244_pow_dnn_0_bear_35_n02132136_900.png,n02132136_900.png,1.0,4.691129,0.4869917,2.972774
convnext_large,1,245,NaN,car,dog,0,0245_pow_dnn_0_dog_35_n02095889_7413.png,n02095889_7413.png,0.0,0.11501093,0.25297338,-0.097554184
convnext_large,1,246,NaN,boat,boat,0,0246_pow_dnn_0_boat_35_n02951358_14877.png,n02951358_14877.png,1.0,4.3489966,1.5067284,2.009787
convnext_large,1,247,NaN,knife,knife,pow,0247_pow_dnn_pow_knife_35_n03041632_42472.png,n03041632_42472.png,1.0,7.401818,2.1012094,3.7480965
convnext_large,1,248,NaN,bottle,bottle,pow,0248_pow_dnn_pow_bottle_35_n02823428_12740.png,n02823428_12740.png,1.0,3.7135205,0.30024487,2.4135504
convnext_large,1,249,NaN,boat,boat,0,0249_pow_dnn_0_boat_35_n02951358_2537.png,n02951358_2537.png,1.0,2.5579836,0.3022305,1.5950583
convnext_large,1,250,NaN,dog,dog,0,0250_pow_dnn_0_dog_35_n02106166_5135.png,n02106166_5135.png,1.0,0.6035147,0.39223722,0.14939572
convnext_large,1,251,NaN,oven,oven,pow,0251_pow_dnn_pow_oven_35_n04111531_23046.png,n04111531_23046.png,1.0,5.77977,1.1414456,3.2797906
convnext_large,1,252,NaN,chair,dog,pow,0252_pow_dnn_pow_dog_35_n02105855_3310.png,n02105855_3310.png,0.0,0.4998913,0.5893866,-0.06328271
convnext_large,1,253,NaN,clock,bird,0,0253_pow_dnn_0_bird_35_n01843383_2122.png,n01843383_2122.png,0.0,0.2805677,0.3743185,-0.06629183
convnext_large,1,254,NaN,boat,boat,pow,0254_pow_dnn_pow_boat_35_n03344393_8407.png,n03344393_8407.png,1.0,1.8622414,0.5511949,0.9270499
convnext_large,1,255,NaN,clock,clock,pow,0255_pow_dnn_pow_clock_35_n04548280_4739.png,n04548280_4739.png,1.0,3.9289162,0.5288267,2.4042263
convnext_large,1,256,NaN,keyboard,keyboard,0,0256_pow_dnn_0_keyboard_35_n04505470_3531.png,n04505470_3531.png,1.0,5.114708,0.33289593,3.3812518
convnext_large,1,257,NaN,airplane,airplane,pow,0257_pow_dnn_pow_airplane_35_n02690373_7740.png,n02690373_7740.png,1.0,7.4551744,0.6712435,4.7969637
convnext_large,1,258,NaN,bear,bear,pow,0258_pow_dnn_pow_bear_35_n02132136_4699.png,n02132136_4699.png,1.0,3.929941,0.33589655,2.5413733
convnext_large,1,259,NaN,airplane,airplane,pow,0259_pow_dnn_pow_airplane_35_n02690373_5277.png,n02690373_5277.png,1.0,7.6638427,0.51322865,5.0562477
convnext_large,1,260,NaN,clock,clock,pow,0260_pow_dnn_pow_clock_35_n04548280_8841.png,n04548280_8841.png,1.0,4.8915143,0.65224636,2.997615
convnext_large,1,261,NaN,truck,truck,pow,0261_pow_dnn_pow_truck_35_n03796401_142.png,n03796401_142.png,1.0,3.1800702,1.9390746,0.8775164
convnext_large,1,262,NaN,bear,bear,pow,0262_pow_dnn_pow_bear_35_n02134418_4666.png,n02134418_4666.png,1.0,4.6169367,1.0018188,2.5562744
convnext_large,1,263,NaN,chair,chair,0,0263_pow_dnn_0_chair_35_n04429376_17074.png,n04429376_17074.png,1.0,2.9820797,0.5956775,1.6874411
convnext_large,1,264,NaN,dog,dog,0,0264_pow_dnn_0_dog_35_n02107683_1934.png,n02107683_1934.png,1.0,0.81479716,0.21081573,0.42707938
convnext_large,1,265,NaN,bicycle,bicycle,0,0265_pow_dnn_0_bicycle_35_n03792782_3765.png,n03792782_3765.png,1.0,5.3638773,1.6504025,2.6258233
convnext_large,1,266,NaN,elephant,elephant,pow,0266_pow_dnn_pow_elephant_35_n02504013_7026.png,n02504013_7026.png,1.0,6.340242,0.40563184,4.196403
convnext_large,1,267,NaN,keyboard,clock,pow,0267_pow_dnn_pow_clock_35_n03196217_3063.png,n03196217_3063.png,0.0,0.87961704,1.040778,-0.11395804
convnext_large,1,268,NaN,chair,bear,pow,0268_pow_dnn_pow_bear_35_n02134418_1041.png,n02134418_1041.png,0.0,0.9247833,1.7379737,-0.57501245
convnext_large,1,269,NaN,boat,boat,pow,0269_pow_dnn_pow_boat_35_n03344393_8258.png,n03344393_8258.png,1.0,1.0507966,0.5950759,0.3222432
convnext_large,1,270,NaN,oven,oven,0,0270_pow_dnn_0_oven_35_n04111531_10306.png,n04111531_10306.png,1.0,8.953781,1.224076,5.465727
convnext_large,1,271,NaN,bottle,bottle,0,0271_pow_dnn_0_bottle_35_n02823428_641.png,n02823428_641.png,1.0,2.9587421,1.0084677,1.3790523
convnext_large,1,272,NaN,oven,oven,pow,0272_pow_dnn_pow_oven_35_n04111531_1873.png,n04111531_1873.png,1.0,2.9731646,2.2451518,0.5147828
convnext_large,1,273,NaN,bear,bear,0,0273_pow_dnn_0_bear_35_n02134418_559.png,n02134418_559.png,1.0,2.8980355,0.50368905,1.6930586
convnext_large,1,274,NaN,keyboard,keyboard,pow,0274_pow_dnn_pow_keyboard_35_n04505470_4844.png,n04505470_4844.png,1.0,4.686566,0.7289623,2.7984483
convnext_large,1,275,NaN,keyboard,keyboard,0,0275_pow_dnn_0_keyboard_35_n03085013_23291.png,n03085013_23291.png,1.0,6.573576,0.31838766,4.423086
convnext_large,1,276,NaN,car,car,0,0276_pow_dnn_0_car_35_n03100240_5808.png,n03100240_5808.png,1.0,5.700644,0.6303162,3.5852633
convnext_large,1,277,NaN,bear,bear,0,0277_pow_dnn_0_bear_35_n02134084_15968.png,n02134084_15968.png,1.0,1.8252244,1.217035,0.4300548
convnext_large,1,278,NaN,bear,cat,0,0278_pow_dnn_0_cat_35_n02125311_20238.png,n02125311_20238.png,0.0,1.4217764,1.6627376,-0.1703853
convnext_large,1,279,NaN,oven,bird,0,0279_pow_dnn_0_bird_35_n02028035_8994.png,n02028035_8994.png,0.0,0.2991491,0.5146289,-0.15236722
convnext_large,1,280,NaN,airplane,airplane,pow,0280_pow_dnn_pow_airplane_35_n02690373_4471.png,n02690373_4471.png,1.0,7.932976,0.65005094,5.1498055
convnext_large,1,281,NaN,truck,truck,0,0281_pow_dnn_0_truck_35_n03796401_322.png,n03796401_322.png,1.0,4.251556,0.7377095,2.4846647
convnext_large,1,282,NaN,car,car,pow,0282_pow_dnn_pow_car_35_n04285008_402.png,n04285008_402.png,1.0,4.7484355,0.68094295,2.8761516
convnext_large,1,283,NaN,oven,oven,0,0283_pow_dnn_0_oven_35_n04111531_807.png,n04111531_807.png,1.0,7.9806223,1.6529213,4.4743605
convnext_large,1,284,NaN,oven,oven,0,0284_pow_dnn_0_oven_35_n04111531_20369.png,n04111531_20369.png,1.0,7.728869,0.3819682,5.1950436
convnext_large,1,285,NaN,knife,knife,pow,0285_pow_dnn_pow_knife_35_n03041632_24114.png,n03041632_24114.png,1.0,8.110345,1.9644912,4.3457747
convnext_large,1,286,NaN,dog,dog,0,0286_pow_dnn_0_dog_35_n02093256_1102.png,n02093256_1102.png,1.0,0.6090281,0.3708765,0.16839862
convnext_large,1,287,NaN,bottle,bottle,0,0287_pow_dnn_0_bottle_35_n03983396_17636.png,n03983396_17636.png,1.0,3.5271764,0.20260035,2.3508303
convnext_large,1,288,NaN,chair,bird,0,0288_pow_dnn_0_bird_35_n01855672_55167.png,n01855672_55167.png,0.0,0.4870445,0.5135773,-0.0187615
convnext_large,1,289,NaN,bottle,bottle,0,0289_pow_dnn_0_bottle_35_n02823428_1149.png,n02823428_1149.png,1.0,2.599641,0.619929,1.3998678
convnext_large,1,290,NaN,truck,truck,pow,0290_pow_dnn_pow_truck_35_n03417042_1182.png,n03417042_1182.png,1.0,2.119863,0.608883,1.0684242
convnext_large,1,291,NaN,bear,bear,0,0291_pow_dnn_0_bear_35_n02134084_22051.png,n02134084_22051.png,1.0,2.9295547,0.36762214,1.8115599
convnext_large,1,292,NaN,cat,cat,pow,0292_pow_dnn_pow_cat_35_n02123159_5170.png,n02123159_5170.png,1.0,4.9090767,1.0382435,2.7370925
convnext_large,1,293,NaN,airplane,airplane,pow,0293_pow_dnn_pow_airplane_35_n02690373_4042.png,n02690373_4042.png,1.0,8.2196245,0.5524896,5.421483
convnext_large,1,294,NaN,airplane,airplane,pow,0294_pow_dnn_pow_airplane_35_n02690373_6231.png,n02690373_6231.png,1.0,8.198053,0.25225133,5.6185308
convnext_large,1,295,NaN,bear,bear,0,0295_pow_dnn_0_bear_35_n02134418_4657.png,n02134418_4657.png,1.0,3.010048,0.34751734,1.8826935
convnext_large,1,296,NaN,car,car,0,0296_pow_dnn_0_car_35_n03100240_24505.png,n03100240_24505.png,1.0,5.8234353,1.1304443,3.318446
convnext_large,1,297,NaN,bird,bird,0,0297_pow_dnn_0_bird_35_n02006656_4031.png,n02006656_4031.png,1.0,0.65728986,0.31990397,0.23856786
convnext_large,1,298,NaN,truck,truck,0,0298_pow_dnn_0_truck_35_n03796401_20861.png,n03796401_20861.png,1.0,2.1153464,0.44258803,1.1828188
convnext_large,1,299,NaN,truck,truck,0,0299_pow_dnn_0_truck_35_n03417042_4934.png,n03417042_4934.png,1.0,1.8020298,0.666372,0.8030313
convnext_large,1,300,NaN,bird,bird,0,0300_pow_dnn_0_bird_35_n01824575_3046.png,n01824575_3046.png,1.0,1.0105253,0.6684323,0.24189632
convnext_large,1,301,NaN,elephant,elephant,pow,0301_pow_dnn_pow_elephant_35_n02504458_3463.png,n02504458_3463.png,1.0,7.017068,0.4276394,4.6594296
convnext_large,1,302,NaN,airplane,airplane,0,0302_pow_dnn_0_airplane_35_n02690373_6914.png,n02690373_6914.png,1.0,8.2347,0.4517599,5.50337
convnext_large,1,303,NaN,bottle,bottle,0,0303_pow_dnn_0_bottle_35_n03983396_3675.png,n03983396_3675.png,1.0,2.604508,0.4410668,1.529784
convnext_large,1,304,NaN,keyboard,dog,pow,0304_pow_dnn_pow_dog_35_n02088364_12272.png,n02088364_12272.png,0.0,0.5279664,0.85907894,-0.23413195
convnext_large,1,305,NaN,dog,dog,0,0305_pow_dnn_0_dog_35_n02085936_1706.png,n02085936_1706.png,1.0,0.4052511,0.21900535,0.13169563
convnext_large,1,306,NaN,bear,bear,0,0306_pow_dnn_0_bear_35_n02134084_18372.png,n02134084_18372.png,1.0,2.9003289,0.43837887,1.7408617
convnext_large,1,307,NaN,keyboard,keyboard,0,0307_pow_dnn_0_keyboard_35_n04505470_751.png,n04505470_751.png,1.0,7.483664,0.47660235,4.954741
convnext_large,1,308,NaN,bear,bird,0,0308_pow_dnn_0_bird_35_n02018207_19525.png,n02018207_19525.png,0.0,0.067653984,0.77207947,-0.49810404
convnext_large,1,309,NaN,bicycle,bicycle,pow,0309_pow_dnn_pow_bicycle_35_n02835271_3329.png,n02835271_3329.png,1.0,5.8734226,1.0714831,3.395484
convnext_large,1,310,NaN,clock,clock,pow,0310_pow_dnn_pow_clock_35_n04548280_1960.png,n04548280_1960.png,1.0,4.855312,0.44267938,3.1202023
convnext_large,1,311,NaN,chair,chair,0,0311_pow_dnn_0_chair_35_n03376595_6240.png,n03376595_6240.png,1.0,2.7926831,0.47543055,1.638545
convnext_large,1,312,NaN,knife,knife,pow,0312_pow_dnn_pow_knife_35_n03041632_13194.png,n03041632_13194.png,1.0,2.7826881,1.1527467,1.1525427
convnext_large,1,313,NaN,knife,knife,0,0313_pow_dnn_0_knife_35_n03041632_13465.png,n03041632_13465.png,1.0,7.32827,1.9368013,3.812344
convnext_large,1,314,NaN,cat,cat,pow,0314_pow_dnn_pow_cat_35_n02125311_10174.png,n02125311_10174.png,1.0,3.2660472,0.55463123,1.9172606
convnext_large,1,315,NaN,car,car,pow,0315_pow_dnn_pow_car_35_n02814533_7420.png,n02814533_7420.png,1.0,4.624105,0.8517505,2.6674576
convnext_large,1,316,NaN,airplane,truck,pow,0316_pow_dnn_pow_truck_35_n04467665_3876.png,n04467665_3876.png,0.0,1.3768914,1.8797822,-0.35559753
convnext_large,1,317,NaN,airplane,airplane,0,0317_pow_dnn_0_airplane_35_n02690373_12976.png,n02690373_12976.png,1.0,8.034171,0.44521245,5.3662043
convnext_large,1,318,NaN,bear,bear,pow,0318_pow_dnn_pow_bear_35_n02133161_10441.png,n02133161_10441.png,1.0,4.413771,1.0392201,2.386168
convnext_large,1,319,NaN,chair,chair,pow,0319_pow_dnn_pow_chair_35_n03376595_13703.png,n03376595_13703.png,1.0,3.881399,0.9546836,2.0695002
convnext_large,1,320,NaN,bicycle,bicycle,pow,0320_pow_dnn_pow_bicycle_35_n03792782_11625.png,n03792782_11625.png,1.0,6.5011845,0.5241294,4.226416
convnext_large,1,321,NaN,oven,oven,pow,0321_pow_dnn_pow_oven_35_n04111531_22797.png,n04111531_22797.png,1.0,7.9434223,0.805492,5.047279
convnext_large,1,322,NaN,chair,chair,pow,0322_pow_dnn_pow_chair_35_n03376595_9651.png,n03376595_9651.png,1.0,2.8555007,0.7872359,1.462484
convnext_large,1,323,NaN,bicycle,bicycle,pow,0323_pow_dnn_pow_bicycle_35_n03792782_4830.png,n03792782_4830.png,1.0,6.1563683,1.2598155,3.462386
convnext_large,1,324,NaN,elephant,elephant,pow,0324_pow_dnn_pow_elephant_35_n02504013_7191.png,n02504013_7191.png,1.0,4.025838,1.5911925,1.7215543
convnext_large,1,325,NaN,knife,knife,0,0325_pow_dnn_0_knife_35_n03041632_120.png,n03041632_120.png,1.0,8.330567,0.3835191,5.619412
convnext_large,1,326,NaN,airplane,airplane,pow,0326_pow_dnn_pow_airplane_35_n02690373_5465.png,n02690373_5465.png,1.0,8.106062,0.6028631,5.3055625
convnext_large,1,327,NaN,car,car,pow,0327_pow_dnn_pow_car_35_n04285008_8443.png,n04285008_8443.png,1.0,5.9424667,0.54425573,3.8171117
convnext_large,1,328,NaN,bottle,bottle,0,0328_pow_dnn_0_bottle_35_n04557648_132.png,n04557648_132.png,1.0,4.0177264,1.0829104,2.0752282
convnext_large,1,329,NaN,airplane,airplane,pow,0329_pow_dnn_pow_airplane_35_n02690373_18304.png,n02690373_18304.png,1.0,7.838398,0.69742817,5.049428
convnext_large,1,330,NaN,knife,knife,pow,0330_pow_dnn_pow_knife_35_n03041632_102764.png,n03041632_102764.png,1.0,4.891517,0.39727274,3.1779108
convnext_large,1,331,NaN,chair,chair,pow,0331_pow_dnn_pow_chair_35_n02791124_16913.png,n02791124_16913.png,1.0,3.3513496,0.17370102,2.2469368
convnext_large,1,332,NaN,bicycle,bicycle,pow,0332_pow_dnn_pow_bicycle_35_n02835271_324.png,n02835271_324.png,1.0,5.4628277,1.4824142,2.8145773
convnext_large,1,333,NaN,airplane,airplane,pow,0333_pow_dnn_pow_airplane_35_n02690373_12966.png,n02690373_12966.png,1.0,7.10174,0.7206403,4.512119
convnext_large,1,334,NaN,knife,keyboard,pow,0334_pow_dnn_pow_keyboard_35_n03085013_24653.png,n03085013_24653.png,0.0,1.5941519,4.5516996,-2.0913022
convnext_large,1,335,NaN,bicycle,bicycle,0,0335_pow_dnn_0_bicycle_35_n03792782_18529.png,n03792782_18529.png,1.0,6.1881227,0.2663867,4.1872997
convnext_large,1,336,NaN,airplane,airplane,pow,0336_pow_dnn_pow_airplane_35_n02690373_2433.png,n02690373_2433.png,1.0,8.132752,0.34945136,5.503625
convnext_large,1,337,NaN,cat,cat,0,0337_pow_dnn_0_cat_35_n02125311_28447.png,n02125311_28447.png,1.0,2.8484821,0.3509146,1.766047
convnext_large,1,338,NaN,knife,knife,0,0338_pow_dnn_0_knife_35_n03041632_20504.png,n03041632_20504.png,1.0,8.46175,0.20295468,5.8398504
convnext_large,1,339,NaN,bear,bear,pow,0339_pow_dnn_pow_bear_35_n02132136_15870.png,n02132136_15870.png,1.0,2.7693326,1.0512209,1.2148885
convnext_large,1,340,NaN,car,car,0,0340_pow_dnn_0_car_35_n02814533_11273.png,n02814533_11273.png,1.0,5.1988654,2.4058678,1.9749476
convnext_large,1,341,NaN,elephant,elephant,0,0341_pow_dnn_0_elephant_35_n02504013_2476.png,n02504013_2476.png,1.0,5.4721003,0.41393146,3.5766656
convnext_large,1,342,NaN,bear,bear,0,0342_pow_dnn_0_bear_35_n02133161_14945.png,n02133161_14945.png,1.0,3.900517,1.129835,1.959168
convnext_large,1,343,NaN,car,car,0,0343_pow_dnn_0_car_35_n04285008_7870.png,n04285008_7870.png,1.0,5.6110587,0.62393737,3.5264275
convnext_large,1,344,NaN,airplane,airplane,0,0344_pow_dnn_0_airplane_35_n02690373_10129.png,n02690373_10129.png,1.0,8.857424,0.4662733,5.9334397
convnext_large,1,345,NaN,truck,truck,pow,0345_pow_dnn_pow_truck_35_n03417042_1479.png,n03417042_1479.png,1.0,2.5462925,1.2090161,0.9455973
convnext_large,1,346,NaN,boat,boat,pow,0346_pow_dnn_pow_boat_35_n04612504_10662.png,n04612504_10662.png,1.0,2.1386666,0.338922,1.2726116
convnext_large,1,347,NaN,elephant,bird,0,0347_pow_dnn_0_bird_35_n02056570_5891.png,n02056570_5891.png,0.0,0.27437037,0.4854231,-0.14923681
convnext_large,1,348,NaN,elephant,elephant,pow,0348_pow_dnn_pow_elephant_35_n02504458_5982.png,n02504458_5982.png,1.0,6.808915,0.9386915,4.150875
convnext_large,1,349,NaN,truck,truck,pow,0349_pow_dnn_pow_truck_35_n03417042_19955.png,n03417042_19955.png,1.0,1.951116,0.30204877,1.1660666
convnext_large,1,350,NaN,oven,oven,0,0350_pow_dnn_0_oven_35_n04111531_6120.png,n04111531_6120.png,1.0,8.420672,0.6923069,5.46478
convnext_large,1,351,NaN,oven,oven,0,0351_pow_dnn_0_oven_35_n04111531_4750.png,n04111531_4750.png,1.0,9.269234,0.7710978,6.0090895
convnext_large,1,352,NaN,boat,boat,0,0352_pow_dnn_0_boat_35_n02951358_29779.png,n02951358_29779.png,1.0,2.4619954,0.2818385,1.5416038
convnext_large,1,353,NaN,bear,bear,0,0353_pow_dnn_0_bear_35_n02134084_14168.png,n02134084_14168.png,1.0,1.8557793,1.4023573,0.32061774
convnext_large,1,354,NaN,cat,cat,0,0354_pow_dnn_0_cat_35_n02123597_6990.png,n02123597_6990.png,1.0,2.3881114,0.9495278,1.0172323
convnext_large,1,355,NaN,chair,chair,0,0355_pow_dnn_0_chair_35_n02791124_2008.png,n02791124_2008.png,1.0,3.3246546,0.25925836,2.1675625
convnext_large,1,356,NaN,car,car,pow,0356_pow_dnn_pow_car_35_n04285008_2185.png,n04285008_2185.png,1.0,4.5156746,1.1770673,2.3607519
convnext_large,1,357,NaN,bear,bear,0,0357_pow_dnn_0_bear_35_n02134084_13205.png,n02134084_13205.png,1.0,3.0500958,0.21160719,2.0071146
convnext_large,1,358,NaN,bird,bird,pow,0358_pow_dnn_pow_bird_35_n01558993_6351.png,n01558993_6351.png,1.0,1.6117767,0.6872632,0.6537298
convnext_large,1,359,NaN,bicycle,bicycle,0,0359_pow_dnn_0_bicycle_35_n02835271_8017.png,n02835271_8017.png,1.0,5.094063,0.93703985,2.939459
convnext_large,1,360,NaN,cat,cat,0,0360_pow_dnn_0_cat_35_n02124075_4189.png,n02124075_4189.png,1.0,3.522302,0.6945415,1.9995286
convnext_large,1,361,NaN,elephant,elephant,pow,0361_pow_dnn_pow_elephant_35_n02504458_3616.png,n02504458_3616.png,1.0,7.1576014,0.40054166,4.7779627
convnext_large,1,362,NaN,boat,boat,pow,0362_pow_dnn_pow_boat_35_n04612504_8636.png,n04612504_8636.png,1.0,2.0888348,0.3598358,1.2225869
convnext_large,1,363,NaN,car,car,pow,0363_pow_dnn_pow_car_35_n03100240_10502.png,n03100240_10502.png,1.0,5.8407516,0.96516836,3.447558
convnext_large,1,364,NaN,bottle,bottle,0,0364_pow_dnn_0_bottle_35_n03983396_2271.png,n03983396_2271.png,1.0,3.098766,0.5256652,1.819457
convnext_large,1,365,NaN,clock,clock,0,0365_pow_dnn_0_clock_35_n04548280_280.png,n04548280_280.png,1.0,5.895201,1.0513844,3.4250958
convnext_large,1,366,NaN,airplane,truck,0,0366_pow_dnn_0_truck_35_n04467665_356.png,n04467665_356.png,0.0,1.768025,4.3444204,-1.8217868
convnext_large,1,367,NaN,airplane,airplane,0,0367_pow_dnn_0_airplane_35_n02690373_306.png,n02690373_306.png,1.0,8.954997,0.44130653,6.0200887
convnext_large,1,368,NaN,elephant,bird,pow,0368_pow_dnn_pow_bird_35_n02007558_11331.png,n02007558_11331.png,0.0,0.8263792,2.7448049,-1.3565319
convnext_large,1,369,NaN,knife,dog,0,0369_pow_dnn_0_dog_35_n02105162_1003.png,n02105162_1003.png,0.0,0.13399011,0.14962104,-0.011052737
convnext_large,1,370,NaN,knife,bird,pow,0370_pow_dnn_pow_bird_35_n01534433_11695.png,n01534433_11695.png,0.0,0.23374435,0.63967156,-0.2870339
convnext_large,1,371,NaN,oven,oven,0,0371_pow_dnn_0_oven_35_n04111531_19631.png,n04111531_19631.png,1.0,8.4743805,0.3902329,5.716356
convnext_large,1,372,NaN,elephant,elephant,pow,0372_pow_dnn_pow_elephant_35_n02504013_8534.png,n02504013_8534.png,1.0,5.928882,0.23894054,4.023396
convnext_large,1,373,NaN,oven,oven,0,0373_pow_dnn_0_oven_35_n04111531_10436.png,n04111531_10436.png,1.0,8.883637,0.41883975,5.985516
convnext_large,1,374,NaN,airplane,airplane,pow,0374_pow_dnn_pow_airplane_35_n02690373_1819.png,n02690373_1819.png,1.0,7.366722,0.27025658,5.017959
convnext_large,1,375,NaN,cat,cat,0,0375_pow_dnn_0_cat_35_n02123597_14032.png,n02123597_14032.png,1.0,1.8559035,0.79194754,0.75233054
convnext_large,1,376,NaN,elephant,elephant,0,0376_pow_dnn_0_elephant_35_n02504013_10922.png,n02504013_10922.png,1.0,6.6212463,0.17909613,4.5552883
convnext_large,1,377,NaN,boat,boat,0,0377_pow_dnn_0_boat_35_n03662601_81.png,n03662601_81.png,1.0,4.1059613,0.68552333,2.4186149
convnext_large,1,378,NaN,bottle,bottle,pow,0378_pow_dnn_pow_bottle_35_n03937543_11347.png,n03937543_11347.png,1.0,2.5618384,2.0809267,0.34005594
convnext_large,1,379,NaN,knife,knife,pow,0379_pow_dnn_pow_knife_35_n03041632_85416.png,n03041632_85416.png,1.0,4.1500125,1.0382059,2.2003796
convnext_large,1,380,NaN,car,car,pow,0380_pow_dnn_pow_car_35_n03100240_15676.png,n03100240_15676.png,1.0,5.076822,0.33521813,3.3528204
convnext_large,1,381,NaN,oven,oven,0,0381_pow_dnn_0_oven_35_n04111531_4189.png,n04111531_4189.png,1.0,9.067523,0.39353433,6.133436
convnext_large,1,382,NaN,car,car,pow,0382_pow_dnn_pow_car_35_n02814533_65623.png,n02814533_65623.png,1.0,3.5063283,1.0106239,1.7647295
convnext_large,1,383,NaN,airplane,airplane,0,0383_pow_dnn_0_airplane_35_n02690373_4945.png,n02690373_4945.png,1.0,8.401461,0.27695715,5.744891
convnext_large,1,384,NaN,dog,dog,0,0384_pow_dnn_0_dog_35_n02088364_5801.png,n02088364_5801.png,1.0,1.0519005,-0.012117679,0.7523745
convnext_large,1,385,NaN,cat,dog,pow,0385_pow_dnn_pow_dog_35_n02108915_8164.png,n02108915_8164.png,0.0,0.10687492,0.25674346,-0.105973065
convnext_large,1,386,NaN,car,car,0,0386_pow_dnn_0_car_35_n03100240_1435.png,n03100240_1435.png,1.0,6.0830307,0.5279759,3.928017
convnext_large,1,387,NaN,clock,clock,0,0387_pow_dnn_0_clock_35_n03196217_412.png,n03196217_412.png,1.0,4.3851295,0.32170954,2.8732717
convnext_large,1,388,NaN,boat,boat,pow,0388_pow_dnn_pow_boat_35_n03344393_6713.png,n03344393_6713.png,1.0,0.9030382,0.6276064,0.19475971
convnext_large,1,389,NaN,knife,knife,0,0389_pow_dnn_0_knife_35_n03041632_4305.png,n03041632_4305.png,1.0,7.7155786,0.08105614,5.3984227
convnext_large,1,390,NaN,car,car,pow,0390_pow_dnn_pow_car_35_n04285008_10287.png,n04285008_10287.png,1.0,3.9177597,0.99560297,2.066277
convnext_large,1,391,NaN,car,car,pow,0391_pow_dnn_pow_car_35_n04285008_15071.png,n04285008_15071.png,1.0,5.5346794,2.6473517,2.041649
convnext_large,1,392,NaN,knife,knife,pow,0392_pow_dnn_pow_knife_35_n03041632_22214.png,n03041632_22214.png,1.0,3.0882764,0.56502175,1.7842104
convnext_large,1,393,NaN,boat,boat,pow,0393_pow_dnn_pow_boat_35_n04612504_3064.png,n04612504_3064.png,1.0,2.2224278,0.5375513,1.1913877
convnext_large,1,394,NaN,chair,chair,0,0394_pow_dnn_0_chair_35_n02791124_7193.png,n02791124_7193.png,1.0,2.6898575,0.20359434,1.7580535
convnext_large,1,395,NaN,boat,boat,0,0395_pow_dnn_0_boat_35_n03344393_5511.png,n03344393_5511.png,1.0,3.7000709,0.28665373,2.4136505
convnext_large,1,396,NaN,boat,boat,pow,0396_pow_dnn_pow_boat_35_n04273569_11997.png,n04273569_11997.png,1.0,2.9481745,0.45856363,1.7604208
convnext_large,1,397,NaN,bicycle,bicycle,0,0397_pow_dnn_0_bicycle_35_n03792782_1424.png,n03792782_1424.png,1.0,5.4853516,0.4254264,3.5779073
convnext_large,1,398,NaN,clock,clock,pow,0398_pow_dnn_pow_clock_35_n03196217_3362.png,n03196217_3362.png,1.0,2.9987214,0.9705676,1.4341214
convnext_large,1,399,NaN,truck,truck,pow,0399_pow_dnn_pow_truck_35_n04467665_21942.png,n04467665_21942.png,1.0,1.8593972,0.6308764,0.8686954
convnext_large,1,400,NaN,oven,oven,0,0400_pow_dnn_0_oven_35_n04111531_6445.png,n04111531_6445.png,1.0,8.184679,0.47603825,5.450832
convnext_large,1,401,NaN,chair,chair,0,0401_pow_dnn_0_chair_35_n04099969_1163.png,n04099969_1163.png,1.0,3.5827703,0.42094776,2.2357461
convnext_large,1,402,NaN,clock,clock,pow,0402_pow_dnn_pow_clock_35_n02708093_3645.png,n02708093_3645.png,1.0,5.2002316,0.27894837,3.4798727
convnext_large,1,403,NaN,bicycle,bicycle,0,0403_pow_dnn_0_bicycle_35_n03792782_68319.png,n03792782_68319.png,1.0,7.296289,0.43884578,4.8489447
convnext_large,1,404,NaN,keyboard,dog,pow,0404_pow_dnn_pow_dog_35_n02111129_513.png,n02111129_513.png,0.0,0.6241605,0.76516676,-0.09970646
convnext_large,1,405,NaN,airplane,airplane,pow,0405_pow_dnn_pow_airplane_35_n02690373_2676.png,n02690373_2676.png,1.0,7.900814,0.26373106,5.4002333
convnext_large,1,406,NaN,airplane,airplane,0,0406_pow_dnn_0_airplane_35_n02690373_1206.png,n02690373_1206.png,1.0,6.2233047,2.2979887,2.7756176
convnext_large,1,407,NaN,airplane,dog,0,0407_pow_dnn_0_dog_35_n02100735_1445.png,n02100735_1445.png,0.0,0.29602963,0.4223029,-0.08928869
convnext_large,1,408,NaN,chair,dog,pow,0408_pow_dnn_pow_dog_35_n02102040_312.png,n02102040_312.png,0.0,0.081049904,0.31105375,-0.16263728
convnext_large,1,409,NaN,keyboard,keyboard,0,0409_pow_dnn_0_keyboard_35_n03085013_22996.png,n03085013_22996.png,1.0,7.0111437,0.3812602,4.6880355
convnext_large,1,410,NaN,boat,boat,0,0410_pow_dnn_0_boat_35_n04612504_434.png,n04612504_434.png,1.0,3.1834626,0.557462,1.8568629
convnext_large,1,411,NaN,cat,cat,0,0411_pow_dnn_0_cat_35_n02123597_14639.png,n02123597_14639.png,1.0,3.340129,0.28166848,2.1626582
convnext_large,1,412,NaN,cat,cat,pow,0412_pow_dnn_pow_cat_35_n02123159_2043.png,n02123159_2043.png,1.0,4.4390383,0.48274437,2.7975223
convnext_large,1,413,NaN,clock,clock,pow,0413_pow_dnn_pow_clock_35_n03196217_3647.png,n03196217_3647.png,1.0,2.7342875,1.551616,0.8362751
convnext_large,1,414,NaN,oven,oven,0,0414_pow_dnn_0_oven_35_n04111531_19795.png,n04111531_19795.png,1.0,9.040159,1.0186318,5.672076
convnext_large,1,415,NaN,truck,truck,pow,0415_pow_dnn_pow_truck_35_n03417042_18625.png,n03417042_18625.png,1.0,2.238406,1.580289,0.46535894
convnext_large,1,416,NaN,elephant,elephant,pow,0416_pow_dnn_pow_elephant_35_n02504013_1763.png,n02504013_1763.png,1.0,6.5313816,0.5249312,4.247202
convnext_large,1,417,NaN,chair,chair,0,0417_pow_dnn_0_chair_35_n04099969_13105.png,n04099969_13105.png,1.0,3.1680822,0.59443384,1.8198442
convnext_large,1,418,NaN,bicycle,bicycle,pow,0418_pow_dnn_pow_bicycle_35_n03792782_4931.png,n03792782_4931.png,1.0,5.8168793,1.3448603,3.1621952
convnext_large,1,419,NaN,bear,bear,0,0419_pow_dnn_0_bear_35_n02134418_4513.png,n02134418_4513.png,1.0,2.9039056,0.2631976,1.8672626
convnext_large,1,420,NaN,cat,cat,pow,0420_pow_dnn_pow_cat_35_n02123045_11224.png,n02123045_11224.png,1.0,4.615393,0.70914114,2.7621372
convnext_large,1,421,NaN,chair,chair,0,0421_pow_dnn_0_chair_35_n02791124_359.png,n02791124_359.png,1.0,1.9284259,0.66094726,0.8962428
convnext_large,1,422,NaN,clock,clock,pow,0422_pow_dnn_pow_clock_35_n04548280_2654.png,n04548280_2654.png,1.0,3.736079,0.46312276,2.3143296
convnext_large,1,423,NaN,cat,cat,pow,0423_pow_dnn_pow_cat_35_n02123394_4713.png,n02123394_4713.png,1.0,1.6518558,0.4646572,0.8394762
convnext_large,1,424,NaN,bottle,bottle,pow,0424_pow_dnn_pow_bottle_35_n04557648_94.png,n04557648_94.png,1.0,2.5694904,2.5527112,0.011864675
convnext_large,1,425,NaN,chair,chair,0,0425_pow_dnn_0_chair_35_n04099969_15676.png,n04099969_15676.png,1.0,2.8630114,0.40586436,1.7374654
convnext_large,1,426,NaN,boat,boat,pow,0426_pow_dnn_pow_boat_35_n02951358_537.png,n02951358_537.png,1.0,2.0216575,1.7426076,0.19731806
convnext_large,1,427,NaN,clock,clock,0,0427_pow_dnn_0_clock_35_n03196217_1376.png,n03196217_1376.png,1.0,1.7617849,1.2821219,0.339173
convnext_large,1,428,NaN,chair,chair,pow,0428_pow_dnn_pow_chair_35_n02791124_1594.png,n02791124_1594.png,1.0,3.3820322,1.3508245,1.4362806
convnext_large,1,429,NaN,elephant,bird,0,0429_pow_dnn_0_bird_35_n02007558_7112.png,n02007558_7112.png,0.0,0.30583346,0.37652904,-0.049989324
convnext_large,1,430,NaN,bicycle,bicycle,0,0430_pow_dnn_0_bicycle_35_n02835271_6094.png,n02835271_6094.png,1.0,5.258264,0.8005724,3.152064
convnext_large,1,431,NaN,airplane,airplane,pow,0431_pow_dnn_pow_airplane_35_n02690373_7676.png,n02690373_7676.png,1.0,8.125576,0.20542125,5.600395
convnext_large,1,432,NaN,cat,cat,pow,0432_pow_dnn_pow_cat_35_n02123045_3375.png,n02123045_3375.png,1.0,4.342135,0.47058457,2.7375996
convnext_large,1,433,NaN,bicycle,bicycle,0,0433_pow_dnn_0_bicycle_35_n02835271_15617.png,n02835271_15617.png,1.0,5.389493,0.45947695,3.4860477
convnext_large,1,434,NaN,oven,oven,pow,0434_pow_dnn_pow_oven_35_n04111531_4904.png,n04111531_4904.png,1.0,1.676393,0.4985624,0.83285207
convnext_large,1,435,NaN,boat,boat,0,0435_pow_dnn_0_boat_35_n02951358_5718.png,n02951358_5718.png,1.0,2.4207673,0.5468268,1.325076
convnext_large,1,436,NaN,elephant,elephant,pow,0436_pow_dnn_pow_elephant_35_n02504013_7467.png,n02504013_7467.png,1.0,5.647011,0.71308154,3.488815
convnext_large,1,437,NaN,elephant,elephant,pow,0437_pow_dnn_pow_elephant_35_n02504013_1830.png,n02504013_1830.png,1.0,6.209111,0.3115789,4.170185
convnext_large,1,438,NaN,car,car,0,0438_pow_dnn_0_car_35_n02814533_59762.png,n02814533_59762.png,1.0,3.1637948,1.5314345,1.154253
convnext_large,1,439,NaN,bicycle,bicycle,pow,0439_pow_dnn_pow_bicycle_35_n02835271_771.png,n02835271_771.png,1.0,4.121675,0.7627677,2.375106
convnext_large,1,440,NaN,bicycle,bicycle,pow,0440_pow_dnn_pow_bicycle_35_n02835271_4313.png,n02835271_4313.png,1.0,7.009713,1.108564,4.172743
convnext_large,1,441,NaN,bear,bear,0,0441_pow_dnn_0_bear_35_n02132136_891.png,n02132136_891.png,1.0,4.5608835,0.7315371,2.7077568
convnext_large,1,442,NaN,bear,bear,pow,0442_pow_dnn_pow_bear_35_n02132136_18276.png,n02132136_18276.png,1.0,5.348594,0.44496718,3.467388
convnext_large,1,443,NaN,elephant,elephant,pow,0443_pow_dnn_pow_elephant_35_n02504013_2865.png,n02504013_2865.png,1.0,5.9042606,0.36688164,3.915518
convnext_large,1,444,NaN,boat,boat,0,0444_pow_dnn_0_boat_35_n03662601_10120.png,n03662601_10120.png,1.0,2.6018872,0.5430661,1.4558065
convnext_large,1,445,NaN,bottle,bottle,pow,0445_pow_dnn_pow_bottle_35_n03983396_4241.png,n03983396_4241.png,1.0,1.6264801,1.3058184,0.22674204
convnext_large,1,446,NaN,elephant,elephant,pow,0446_pow_dnn_pow_elephant_35_n02504458_8254.png,n02504458_8254.png,1.0,6.848179,0.7356294,4.322225
convnext_large,1,447,NaN,boat,boat,pow,0447_pow_dnn_pow_boat_35_n04612504_857.png,n04612504_857.png,1.0,3.2767258,0.2953319,2.1081638
convnext_large,1,448,NaN,car,car,pow,0448_pow_dnn_pow_car_35_n04285008_6037.png,n04285008_6037.png,1.0,6.1180205,1.282319,3.4193573
convnext_large,1,449,NaN,elephant,elephant,pow,0449_pow_dnn_pow_elephant_35_n02504458_2888.png,n02504458_2888.png,1.0,7.238744,0.554288,4.726624
convnext_large,1,450,NaN,elephant,elephant,0,0450_pow_dnn_0_elephant_35_n02504013_6257.png,n02504013_6257.png,1.0,7.325887,0.83848834,4.587284
convnext_large,1,451,NaN,car,car,0,0451_pow_dnn_0_car_35_n04285008_8616.png,n04285008_8616.png,1.0,5.9695106,0.20553999,4.0757427
convnext_large,1,452,NaN,bear,bird,0,0452_pow_dnn_0_bird_35_n01537544_5372.png,n01537544_5372.png,0.0,0.84246206,0.9165288,-0.052373108
convnext_large,1,453,NaN,airplane,airplane,pow,0453_pow_dnn_pow_airplane_35_n02690373_2498.png,n02690373_2498.png,1.0,6.2138944,0.23788233,4.225679
convnext_large,1,454,NaN,dog,dog,0,0454_pow_dnn_0_dog_35_n02099601_2980.png,n02099601_2980.png,1.0,0.8892857,0.5371883,0.24897046
convnext_large,1,455,NaN,keyboard,keyboard,pow,0455_pow_dnn_pow_keyboard_35_n04505470_1904.png,n04505470_1904.png,1.0,4.4361525,0.57019037,2.733648
convnext_large,1,456,NaN,airplane,airplane,0,0456_pow_dnn_0_airplane_35_n02690373_2967.png,n02690373_2967.png,1.0,8.263976,0.42002955,5.546508
convnext_large,1,457,NaN,car,car,0,0457_pow_dnn_0_car_35_n04285008_7508.png,n04285008_7508.png,1.0,4.383528,1.356452,2.1404662
convnext_large,1,458,NaN,airplane,bird,0,0458_pow_dnn_0_bird_35_n02051845_6652.png,n02051845_6652.png,0.0,0.32797217,0.5264971,-0.14037834
convnext_large,1,459,NaN,chair,truck,pow,0459_pow_dnn_pow_truck_35_n03796401_6737.png,n03796401_6737.png,0.0,1.7402589,3.0798757,-0.9472521
convnext_large,1,460,NaN,truck,bottle,pow,0460_pow_dnn_pow_bottle_35_n03937543_2177.png,n03937543_2177.png,0.0,1.6394904,2.7257266,-0.768085
convnext_large,1,461,NaN,keyboard,keyboard,pow,0461_pow_dnn_pow_keyboard_35_n03085013_6432.png,n03085013_6432.png,1.0,5.8868427,0.82874566,3.5766146
convnext_large,1,462,NaN,bird,bird,0,0462_pow_dnn_0_bird_35_n01530575_10212.png,n01530575_10212.png,1.0,0.4199059,0.37256673,0.03347385
convnext_large,1,463,NaN,boat,boat,pow,0463_pow_dnn_pow_boat_35_n04273569_31649.png,n04273569_31649.png,1.0,3.3382645,2.2550282,0.7659637
convnext_large,1,464,NaN,keyboard,keyboard,0,0464_pow_dnn_0_keyboard_35_n04505470_2869.png,n04505470_2869.png,1.0,6.156465,0.8909004,3.7233167
convnext_large,1,465,NaN,oven,oven,0,0465_pow_dnn_0_oven_35_n04111531_5110.png,n04111531_5110.png,1.0,8.796484,0.58564204,5.805942
convnext_large,1,466,NaN,bottle,bottle,pow,0466_pow_dnn_pow_bottle_35_n04579145_4389.png,n04579145_4389.png,1.0,1.6254386,0.50261194,0.7939583
convnext_large,1,467,NaN,bottle,bottle,0,0467_pow_dnn_0_bottle_35_n04557648_9310.png,n04557648_9310.png,1.0,2.8840778,0.55423677,1.6474465
convnext_large,1,468,NaN,cat,dog,pow,0468_pow_dnn_pow_dog_35_n02108000_6061.png,n02108000_6061.png,0.0,1.0150253,1.2478293,-0.16461733
convnext_large,1,469,NaN,knife,knife,pow,0469_pow_dnn_pow_knife_35_n03041632_84240.png,n03041632_84240.png,1.0,3.1541514,1.553721,1.1316752
convnext_large,1,470,NaN,airplane,cat,pow,0470_pow_dnn_pow_cat_35_n02123394_3718.png,n02123394_3718.png,0.0,0.7040782,1.8133459,-0.7843707
convnext_large,1,471,NaN,dog,dog,pow,0471_pow_dnn_pow_dog_35_n02098105_2157.png,n02098105_2157.png,1.0,1.0705636,0.2353129,0.5906114
convnext_large,1,472,NaN,clock,clock,0,0472_pow_dnn_0_clock_35_n04548280_2601.png,n04548280_2601.png,1.0,5.031993,0.043973103,3.527063
convnext_large,1,473,NaN,cat,cat,0,0473_pow_dnn_0_cat_35_n02123394_4286.png,n02123394_4286.png,1.0,1.272787,0.8180108,0.3215753
convnext_large,1,474,NaN,bottle,bottle,0,0474_pow_dnn_0_bottle_35_n02823428_4569.png,n02823428_4569.png,1.0,2.305704,0.4489926,1.3128933
convnext_large,1,475,NaN,airplane,bird,pow,0475_pow_dnn_pow_bird_35_n02017213_15747.png,n02017213_15747.png,0.0,0.7559557,1.160975,-0.28639188
convnext_large,1,476,NaN,bicycle,bicycle,0,0476_pow_dnn_0_bicycle_35_n03792782_11390.png,n03792782_11390.png,1.0,2.8255386,0.8023053,1.4306421
convnext_large,1,477,NaN,car,car,0,0477_pow_dnn_0_car_35_n02814533_4374.png,n02814533_4374.png,1.0,4.3833013,0.77304256,2.5528383
convnext_large,1,478,NaN,keyboard,keyboard,0,0478_pow_dnn_0_keyboard_35_n04505470_5137.png,n04505470_5137.png,1.0,5.3106413,0.31617624,3.53162
convnext_large,1,479,NaN,elephant,elephant,0,0479_pow_dnn_0_elephant_35_n02504013_306.png,n02504013_306.png,1.0,6.841532,0.19674064,4.6985774
convnext_large,1,480,NaN,boat,boat,0,0480_pow_dnn_0_boat_35_n02951358_14624.png,n02951358_14624.png,1.0,1.7436787,0.37370777,0.9687157
convnext_large,1,481,NaN,cat,cat,pow,0481_pow_dnn_pow_cat_35_n02125311_28114.png,n02125311_28114.png,1.0,3.3136427,0.6952214,1.8515035
convnext_large,1,482,NaN,car,car,pow,0482_pow_dnn_pow_car_35_n03100240_6259.png,n03100240_6259.png,1.0,4.863438,1.0481935,2.6977854
convnext_large,1,483,NaN,cat,cat,pow,0483_pow_dnn_pow_cat_35_n02125311_12361.png,n02125311_12361.png,1.0,1.8937496,1.3452877,0.38782114
convnext_large,1,484,NaN,car,bird,0,0484_pow_dnn_0_bird_35_n01833805_16468.png,n01833805_16468.png,0.0,0.28269082,0.443229,-0.11351763
convnext_large,1,485,NaN,cat,dog,pow,0485_pow_dnn_pow_dog_35_n02110063_6748.png,n02110063_6748.png,0.0,0.6803891,0.90642,-0.15982798
convnext_large,1,486,NaN,clock,clock,pow,0486_pow_dnn_pow_clock_35_n04548280_2943.png,n04548280_2943.png,1.0,4.648499,0.36925465,3.0258827
convnext_large,1,487,NaN,chair,chair,pow,0487_pow_dnn_pow_chair_35_n03376595_14619.png,n03376595_14619.png,1.0,3.1382155,0.9998163,1.5120765
convnext_large,1,488,NaN,car,car,0,0488_pow_dnn_0_car_35_n03100240_5719.png,n03100240_5719.png,1.0,6.2561507,1.1678909,3.597943
convnext_large,1,489,NaN,dog,dog,0,0489_pow_dnn_0_dog_35_n02093754_4677.png,n02093754_4677.png,1.0,0.81665856,0.23649824,0.41023532
convnext_large,1,490,NaN,boat,boat,pow,0490_pow_dnn_pow_boat_35_n04273569_113.png,n04273569_113.png,1.0,2.7832975,0.97334254,1.2798315
convnext_large,1,491,NaN,clock,clock,pow,0491_pow_dnn_pow_clock_35_n02708093_148.png,n02708093_148.png,1.0,5.2123384,0.5849896,3.2720299
convnext_large,1,492,NaN,cat,cat,0,0492_pow_dnn_0_cat_35_n02125311_53223.png,n02125311_53223.png,1.0,1.9879771,0.7465851,0.8777968
convnext_large,1,493,NaN,knife,knife,0,0493_pow_dnn_0_knife_35_n03041632_7982.png,n03041632_7982.png,1.0,9.157282,0.4522165,6.1554112
convnext_large,1,494,NaN,elephant,elephant,0,0494_pow_dnn_0_elephant_35_n02504013_7273.png,n02504013_7273.png,1.0,6.18988,0.2330538,4.2121124
convnext_large,1,495,NaN,truck,truck,pow,0495_pow_dnn_pow_truck_35_n03417042_26102.png,n03417042_26102.png,1.0,1.7359174,0.6099144,0.7962044
convnext_large,1,496,NaN,car,car,pow,0496_pow_dnn_pow_car_35_n02814533_874.png,n02814533_874.png,1.0,3.9663193,1.6501122,1.6378058
convnext_large,1,497,NaN,bicycle,bicycle,0,0497_pow_dnn_0_bicycle_35_n03792782_21148.png,n03792782_21148.png,1.0,5.7070665,0.88284874,3.4112372
convnext_large,1,498,NaN,oven,oven,pow,0498_pow_dnn_pow_oven_35_n04111531_4146.png,n04111531_4146.png,1.0,8.354446,0.69273823,5.417646
convnext_large,1,499,NaN,keyboard,keyboard,pow,0499_pow_dnn_pow_keyboard_35_n03085013_21183.png,n03085013_21183.png,1.0,6.9018,2.9374437,2.8032234
convnext_large,1,500,NaN,boat,boat,0,0500_pow_dnn_0_boat_35_n04612504_19147.png,n04612504_19147.png,1.0,2.3813014,0.54585177,1.297859
convnext_large,1,501,NaN,bear,bear,0,0501_pow_dnn_0_bear_35_n02133161_2044.png,n02133161_2044.png,1.0,4.144794,2.7816072,0.9639187
convnext_large,1,502,NaN,bottle,bottle,pow,0502_pow_dnn_pow_bottle_35_n04579145_3894.png,n04579145_3894.png,1.0,2.581183,0.66974527,1.3515906
convnext_large,1,503,NaN,bicycle,bicycle,0,0503_pow_dnn_0_bicycle_35_n03792782_13399.png,n03792782_13399.png,1.0,5.6165075,1.4595709,2.939398
convnext_large,1,504,NaN,knife,knife,pow,0504_pow_dnn_pow_knife_35_n03041632_21818.png,n03041632_21818.png,1.0,5.70395,3.2417552,1.7410346
convnext_large,1,505,NaN,chair,chair,0,0505_pow_dnn_0_chair_35_n03376595_7010.png,n03376595_7010.png,1.0,2.6962252,0.17985266,1.7793441
convnext_large,1,506,NaN,oven,oven,0,0506_pow_dnn_0_oven_35_n04111531_4.png,n04111531_4.png,1.0,7.3467083,0.5474223,4.8078213
convnext_large,1,507,NaN,bird,bird,pow,0507_pow_dnn_pow_bird_35_n01820546_6471.png,n01820546_6471.png,1.0,0.98566616,0.5794407,0.28724477
convnext_large,1,508,NaN,bear,bear,pow,0508_pow_dnn_pow_bear_35_n02132136_10352.png,n02132136_10352.png,1.0,4.486477,0.4890347,2.8266187
convnext_large,1,509,NaN,clock,clock,pow,0509_pow_dnn_pow_clock_35_n04548280_8348.png,n04548280_8348.png,1.0,4.533687,0.47310176,2.8712676
convnext_large,1,510,NaN,elephant,elephant,0,0510_pow_dnn_0_elephant_35_n02504013_5087.png,n02504013_5087.png,1.0,6.8226,0.24819833,4.6488037
convnext_large,1,511,NaN,airplane,airplane,pow,0511_pow_dnn_pow_airplane_35_n02690373_60.png,n02690373_60.png,1.0,6.890749,0.5405489,4.4902697
convnext_large,1,512,NaN,chair,chair,pow,0512_pow_dnn_pow_chair_35_n02791124_16085.png,n02791124_16085.png,1.0,1.6681418,1.3965931,0.19201396
convnext_large,1,513,NaN,bottle,bottle,0,0513_pow_dnn_0_bottle_35_n02823428_3611.png,n02823428_3611.png,1.0,2.6899838,0.28600746,1.6998681
convnext_large,1,514,NaN,bear,bird,pow,0514_pow_dnn_pow_bird_35_n01614925_8653.png,n01614925_8653.png,0.0,0.4598445,2.1534915,-1.1975893
convnext_large,1,515,NaN,airplane,bird,pow,0515_pow_dnn_pow_bird_35_n01537544_9881.png,n01537544_9881.png,0.0,1.112517,1.8423889,-0.51609737
convnext_large,1,516,NaN,knife,knife,0,0516_pow_dnn_0_knife_35_n03041632_35365.png,n03041632_35365.png,1.0,7.9701567,0.336415,5.3978705
convnext_large,1,517,NaN,bear,bear,0,0517_pow_dnn_0_bear_35_n02132136_23202.png,n02132136_23202.png,1.0,5.0045033,0.34425136,3.295296
convnext_large,1,518,NaN,oven,oven,0,0518_pow_dnn_0_oven_35_n04111531_3976.png,n04111531_3976.png,1.0,8.614396,0.399963,5.808481
convnext_large,1,519,NaN,chair,chair,pow,0519_pow_dnn_pow_chair_35_n04429376_32124.png,n04429376_32124.png,1.0,3.211403,0.5287394,1.8969295
convnext_large,1,520,NaN,bear,bear,pow,0520_pow_dnn_pow_bear_35_n02134418_848.png,n02134418_848.png,1.0,2.7766893,1.5097651,0.89585066
convnext_large,1,521,NaN,boat,boat,0,0521_pow_dnn_0_boat_35_n03344393_7374.png,n03344393_7374.png,1.0,2.3022566,0.68960476,1.1403171
convnext_large,1,522,NaN,bear,bird,pow,0522_pow_dnn_pow_bird_35_n01532829_3914.png,n01532829_3914.png,0.0,-0.044038672,0.84764296,-0.63051414
convnext_large,1,523,NaN,keyboard,keyboard,0,0523_pow_dnn_0_keyboard_35_n04505470_5902.png,n04505470_5902.png,1.0,6.3647313,0.521926,4.1314874
convnext_large,1,524,NaN,truck,truck,pow,0524_pow_dnn_pow_truck_35_n03417042_11165.png,n03417042_11165.png,1.0,2.7180188,1.0356097,1.1896429
convnext_large,1,525,NaN,clock,clock,0,0525_pow_dnn_0_clock_35_n02708093_5.png,n02708093_5.png,1.0,4.666596,0.3182562,3.0747404
convnext_large,1,526,NaN,elephant,elephant,pow,0526_pow_dnn_pow_elephant_35_n02504458_4187.png,n02504458_4187.png,1.0,6.70572,0.41388878,4.4489965
convnext_large,1,527,NaN,knife,knife,0,0527_pow_dnn_0_knife_35_n03041632_10802.png,n03041632_10802.png,1.0,8.4986315,0.22905025,5.847477
convnext_large,1,528,NaN,car,car,0,0528_pow_dnn_0_car_35_n04285008_16647.png,n04285008_16647.png,1.0,6.0545363,0.49876878,3.928521
convnext_large,1,529,NaN,truck,dog,0,0529_pow_dnn_0_dog_35_n02104365_3004.png,n02104365_3004.png,0.0,0.23105839,0.80106217,-0.40305352
convnext_large,1,530,NaN,elephant,elephant,pow,0530_pow_dnn_pow_elephant_35_n02504013_21616.png,n02504013_21616.png,1.0,7.237705,0.3973063,4.8368926
convnext_large,1,531,NaN,keyboard,keyboard,0,0531_pow_dnn_0_keyboard_35_n03085013_23465.png,n03085013_23465.png,1.0,6.8293047,0.7987468,4.2642484
convnext_large,1,532,NaN,airplane,airplane,pow,0532_pow_dnn_pow_airplane_35_n02690373_911.png,n02690373_911.png,1.0,3.7841797,0.40034842,2.39273
convnext_large,1,533,NaN,elephant,elephant,0,0533_pow_dnn_0_elephant_35_n02504013_1454.png,n02504013_1454.png,1.0,6.8079295,0.19439216,4.676477
convnext_large,1,534,NaN,bicycle,bicycle,0,0534_pow_dnn_0_bicycle_35_n03792782_70690.png,n03792782_70690.png,1.0,7.3227806,0.5408701,4.795535
convnext_large,1,535,NaN,chair,chair,0,0535_pow_dnn_0_chair_35_n04429376_31206.png,n04429376_31206.png,1.0,3.3368063,0.42228475,2.060878
convnext_large,1,536,NaN,clock,clock,0,0536_pow_dnn_0_clock_35_n02708093_2498.png,n02708093_2498.png,1.0,4.422647,0.3241319,2.8980877
convnext_large,1,537,NaN,keyboard,keyboard,0,0537_pow_dnn_0_keyboard_35_n04505470_1728.png,n04505470_1728.png,1.0,6.3270826,1.356515,3.514722
convnext_large,1,538,NaN,truck,truck,pow,0538_pow_dnn_pow_truck_35_n03417042_6608.png,n03417042_6608.png,1.0,1.2365341,1.1615498,0.053021915
convnext_large,1,539,NaN,car,bird,0,0539_pow_dnn_0_bird_35_n02013706_1016.png,n02013706_1016.png,0.0,0.14797658,0.5211418,-0.26386768
convnext_large,1,540,NaN,clock,clock,0,0540_pow_dnn_0_clock_35_n04548280_5011.png,n04548280_5011.png,1.0,4.481055,0.5396519,2.7869928
convnext_large,1,541,NaN,bicycle,bicycle,0,0541_pow_dnn_0_bicycle_35_n02835271_19557.png,n02835271_19557.png,1.0,5.262302,0.59305745,3.3016543
convnext_large,1,542,NaN,bear,bear,pow,0542_pow_dnn_pow_bear_35_n02134084_5827.png,n02134084_5827.png,1.0,3.5468633,0.3341447,2.271735
convnext_large,1,543,NaN,bottle,dog,pow,0543_pow_dnn_pow_dog_35_n02096585_1894.png,n02096585_1894.png,0.0,0.115780495,0.25816387,-0.10068025
convnext_large,1,544,NaN,boat,boat,pow,0544_pow_dnn_pow_boat_35_n02951358_34234.png,n02951358_34234.png,1.0,1.7460957,0.18457407,1.1041625
convnext_large,1,545,NaN,cat,cat,pow,0545_pow_dnn_pow_cat_35_n02123597_5514.png,n02123597_5514.png,1.0,4.035104,0.6813451,2.3714657
convnext_large,1,546,NaN,oven,oven,pow,0546_pow_dnn_pow_oven_35_n04111531_3580.png,n04111531_3580.png,1.0,5.994621,1.2757002,3.3367808
convnext_large,1,547,NaN,airplane,airplane,0,0547_pow_dnn_0_airplane_35_n02690373_7107.png,n02690373_7107.png,1.0,8.303128,0.33134788,5.6369
convnext_large,1,548,NaN,cat,cat,0,0548_pow_dnn_0_cat_35_n02123159_5224.png,n02123159_5224.png,1.0,3.0560722,0.7473817,1.6324908
convnext_large,1,549,NaN,bear,bear,pow,0549_pow_dnn_pow_bear_35_n02133161_6679.png,n02133161_6679.png,1.0,4.973322,0.3117374,3.296238
convnext_large,1,550,NaN,dog,dog,0,0550_pow_dnn_0_dog_35_n02106030_22.png,n02106030_22.png,1.0,0.9402586,0.5019745,0.30991367
convnext_large,1,551,NaN,truck,truck,0,0551_pow_dnn_0_truck_35_n03417042_4574.png,n03417042_4574.png,1.0,1.8222475,0.47614777,0.9518363
convnext_large,1,552,NaN,cat,dog,pow,0552_pow_dnn_pow_dog_35_n02097298_7577.png,n02097298_7577.png,0.0,-0.26301402,3.1008446,-2.3786073
convnext_large,1,553,NaN,dog,dog,pow,0553_pow_dnn_pow_dog_35_n02093428_16873.png,n02093428_16873.png,1.0,0.5827256,0.4101802,0.122008
convnext_large,1,554,NaN,bear,bear,0,0554_pow_dnn_0_bear_35_n02132136_4157.png,n02132136_4157.png,1.0,5.4797597,0.7250494,3.362088
convnext_large,1,555,NaN,bottle,bottle,0,0555_pow_dnn_0_bottle_35_n02823428_2007.png,n02823428_2007.png,1.0,2.028272,0.5950819,1.0134184
convnext_large,1,556,NaN,keyboard,keyboard,0,0556_pow_dnn_0_keyboard_35_n03085013_24272.png,n03085013_24272.png,1.0,6.7567606,1.2673889,3.881572
convnext_large,1,557,NaN,oven,oven,0,0557_pow_dnn_0_oven_35_n04111531_2074.png,n04111531_2074.png,1.0,9.350252,0.81920266,6.0323634
convnext_large,1,558,NaN,bird,bird,pow,0558_pow_dnn_pow_bird_35_n01532829_4536.png,n01532829_4536.png,1.0,1.485564,0.96131974,0.37069666
convnext_large,1,559,NaN,airplane,dog,0,0559_pow_dnn_0_dog_35_n02109047_17100.png,n02109047_17100.png,0.0,-0.031979006,0.36097026,-0.2778571
convnext_large,1,560,NaN,oven,oven,pow,0560_pow_dnn_pow_oven_35_n04111531_4407.png,n04111531_4407.png,1.0,7.3201327,0.94499856,4.5079007
convnext_large,1,561,NaN,airplane,airplane,0,0561_pow_dnn_0_airplane_35_n02690373_8069.png,n02690373_8069.png,1.0,8.610546,0.42660534,5.78692
convnext_large,1,562,NaN,bottle,bottle,0,0562_pow_dnn_0_bottle_35_n04560804_8921.png,n04560804_8921.png,1.0,1.2572333,0.20631559,0.743111
convnext_large,1,563,NaN,bottle,bottle,pow,0563_pow_dnn_pow_bottle_35_n03937543_2936.png,n03937543_2936.png,1.0,2.8112278,0.22201961,1.8308467
convnext_large,1,564,NaN,cat,cat,0,0564_pow_dnn_0_cat_35_n02123045_8031.png,n02123045_8031.png,1.0,4.0933537,2.6270502,1.0368333
convnext_large,1,565,NaN,oven,oven,0,0565_pow_dnn_0_oven_35_n04111531_3805.png,n04111531_3805.png,1.0,9.101077,0.50513446,6.0782495
convnext_large,1,566,NaN,truck,truck,0,0566_pow_dnn_0_truck_35_n03417042_27231.png,n03417042_27231.png,1.0,1.9568341,0.29466683,1.1753298
convnext_large,1,567,NaN,elephant,elephant,0,0567_pow_dnn_0_elephant_35_n02504013_7232.png,n02504013_7232.png,1.0,6.323109,0.2932272,4.2637706
convnext_large,1,568,NaN,knife,knife,0,0568_pow_dnn_0_knife_35_n03041632_5102.png,n03041632_5102.png,1.0,7.762151,0.18813173,5.3556404
convnext_large,1,569,NaN,dog,dog,pow,0569_pow_dnn_pow_dog_35_n02110958_8916.png,n02110958_8916.png,1.0,0.36832166,0.18267989,0.13126856
convnext_large,1,570,NaN,bottle,bottle,pow,0570_pow_dnn_pow_bottle_35_n04557648_9790.png,n04557648_9790.png,1.0,2.9701924,2.0426078,0.65590143
convnext_large,1,571,NaN,cat,cat,pow,0571_pow_dnn_pow_cat_35_n02123394_3786.png,n02123394_3786.png,1.0,1.9867839,0.42697063,1.1029545
convnext_large,1,572,NaN,truck,truck,0,0572_pow_dnn_0_truck_35_n04467665_19132.png,n04467665_19132.png,1.0,2.7546453,1.2113395,1.091282
convnext_large,1,573,NaN,truck,truck,pow,0573_pow_dnn_pow_truck_35_n03796401_2934.png,n03796401_2934.png,1.0,2.4403253,0.79877615,1.1607505
convnext_large,1,574,NaN,bicycle,bicycle,0,0574_pow_dnn_0_bicycle_35_n02835271_12799.png,n02835271_12799.png,1.0,4.467335,0.69811225,2.6652431
convnext_large,1,575,NaN,car,car,0,0575_pow_dnn_0_car_35_n02814533_1297.png,n02814533_1297.png,1.0,3.712885,2.7597451,0.6739716
convnext_large,1,576,NaN,bear,bear,pow,0576_pow_dnn_pow_bear_35_n02134418_1974.png,n02134418_1974.png,1.0,4.4925003,0.3812942,2.9070618
convnext_large,1,577,NaN,cat,cat,0,0577_pow_dnn_0_cat_35_n02124075_2843.png,n02124075_2843.png,1.0,3.4685795,0.5120989,2.0905476
convnext_large,1,578,NaN,cat,cat,0,0578_pow_dnn_0_cat_35_n02123597_5697.png,n02123597_5697.png,1.0,2.2165995,0.780426,1.015528
convnext_large,1,579,NaN,bicycle,bicycle,pow,0579_pow_dnn_pow_bicycle_35_n02835271_2315.png,n02835271_2315.png,1.0,4.2928524,0.91093016,2.3913803
convnext_large,1,580,NaN,keyboard,keyboard,0,0580_pow_dnn_0_keyboard_35_n04505470_4515.png,n04505470_4515.png,1.0,5.550542,0.76300657,3.3852987
convnext_large,1,581,NaN,knife,knife,pow,0581_pow_dnn_pow_knife_35_n03041632_4269.png,n03041632_4269.png,1.0,8.124732,1.1481819,4.933166
convnext_large,1,582,NaN,cat,cat,0,0582_pow_dnn_0_cat_35_n02123045_12010.png,n02123045_12010.png,1.0,4.3311133,0.6660061,2.5916224
convnext_large,1,583,NaN,clock,clock,0,0583_pow_dnn_0_clock_35_n03196217_6467.png,n03196217_6467.png,1.0,3.6286478,2.42544,0.85079634
convnext_large,1,584,NaN,bottle,bottle,pow,0584_pow_dnn_pow_bottle_35_n03983396_2864.png,n03983396_2864.png,1.0,0.99056655,0.46948314,0.3684616
convnext_large,1,585,NaN,boat,bottle,0,0585_pow_dnn_0_bottle_35_n04557648_10171.png,n04557648_10171.png,0.0,0.9933286,1.8908002,-0.6346083
convnext_large,1,586,NaN,elephant,bird,pow,0586_pow_dnn_pow_bird_35_n01860187_2052.png,n01860187_2052.png,0.0,0.3317615,0.3455919,-0.009779565
convnext_large,1,587,NaN,car,car,0,0587_pow_dnn_0_car_35_n04285008_5897.png,n04285008_5897.png,1.0,5.310224,0.48058203,3.4150724
convnext_large,1,588,NaN,elephant,elephant,0,0588_pow_dnn_0_elephant_35_n02504458_4721.png,n02504458_4721.png,1.0,5.8319225,0.41143775,3.8328614
convnext_large,1,589,NaN,car,car,0,0589_pow_dnn_0_car_35_n02814533_93476.png,n02814533_93476.png,1.0,6.07197,2.9620247,2.1990635
convnext_large,1,590,NaN,bird,bird,pow,0590_pow_dnn_pow_bird_35_n01824575_10337.png,n01824575_10337.png,1.0,1.2123318,0.8917712,0.22667056
convnext_large,1,591,NaN,bear,dog,pow,0591_pow_dnn_pow_dog_35_n02100735_10683.png,n02100735_10683.png,0.0,0.82639045,1.8387791,-0.7158669
convnext_large,1,592,NaN,airplane,airplane,pow,0592_pow_dnn_pow_airplane_35_n02690373_4402.png,n02690373_4402.png,1.0,7.92632,0.8965911,4.970769
convnext_large,1,593,NaN,airplane,airplane,0,0593_pow_dnn_0_airplane_35_n02690373_4350.png,n02690373_4350.png,1.0,8.384662,0.74304855,5.4034367
convnext_large,1,594,NaN,bottle,bottle,pow,0594_pow_dnn_pow_bottle_35_n02823428_6327.png,n02823428_6327.png,1.0,2.8298876,0.8498381,1.4001065
convnext_large,1,595,NaN,elephant,dog,pow,0595_pow_dnn_pow_dog_35_n02104029_3041.png,n02104029_3041.png,0.0,0.33595484,0.65080374,-0.2226318
convnext_large,1,596,NaN,elephant,elephant,pow,0596_pow_dnn_pow_elephant_35_n02504013_24810.png,n02504013_24810.png,1.0,5.174139,0.85344577,3.0551913
convnext_large,1,597,NaN,clock,clock,pow,0597_pow_dnn_pow_clock_35_n04548280_4473.png,n04548280_4473.png,1.0,3.4031613,1.6925806,1.2095633
convnext_large,1,598,NaN,dog,dog,pow,0598_pow_dnn_pow_dog_35_n02107908_5597.png,n02107908_5597.png,1.0,0.9250855,0.24924704,0.47788998
convnext_large,1,599,NaN,truck,truck,0,0599_pow_dnn_0_truck_35_n04467665_57697.png,n04467665_57697.png,1.0,2.2511783,0.62435645,1.1503367
convnext_large,1,600,NaN,bottle,bottle,pow,0600_pow_dnn_pow_bottle_35_n03983396_6889.png,n03983396_6889.png,1.0,2.8508255,0.2988398,1.8045264
convnext_large,1,601,NaN,bear,bear,pow,0601_pow_dnn_pow_bear_35_n02134418_1826.png,n02134418_1826.png,1.0,3.12144,0.38904512,1.9320948
convnext_large,1,602,NaN,cat,cat,pow,0602_pow_dnn_pow_cat_35_n02123159_4687.png,n02123159_4687.png,1.0,3.1036808,1.0029144,1.4854662
convnext_large,1,603,NaN,boat,boat,pow,0603_pow_dnn_pow_boat_35_n03344393_5798.png,n03344393_5798.png,1.0,1.4771208,0.9285411,0.38790438
convnext_large,1,604,NaN,car,car,pow,0604_pow_dnn_pow_car_35_n04285008_11745.png,n04285008_11745.png,1.0,4.57982,0.8634993,2.6278358
convnext_large,1,605,NaN,clock,clock,0,0605_pow_dnn_0_clock_35_n02708093_353.png,n02708093_353.png,1.0,4.602316,1.1523734,2.439478
convnext_large,1,606,NaN,airplane,airplane,0,0606_pow_dnn_0_airplane_35_n02690373_4763.png,n02690373_4763.png,1.0,8.2885275,0.54408586,5.476147
convnext_large,1,607,NaN,elephant,elephant,0,0607_pow_dnn_0_elephant_35_n02504013_18498.png,n02504013_18498.png,1.0,6.4276676,0.52610105,4.1730375
convnext_large,1,608,NaN,cat,cat,pow,0608_pow_dnn_pow_cat_35_n02123394_159.png,n02123394_159.png,1.0,4.6214523,1.4605163,2.2351193
convnext_large,1,609,NaN,boat,boat,0,0609_pow_dnn_0_boat_35_n03662601_18676.png,n03662601_18676.png,1.0,2.4814618,0.5523325,1.3641003
convnext_large,1,610,NaN,truck,truck,pow,0610_pow_dnn_pow_truck_35_n03796401_1789.png,n03796401_1789.png,1.0,2.154876,0.4474124,1.2073591
convnext_large,1,611,NaN,chair,chair,0,0611_pow_dnn_0_chair_35_n04099969_4816.png,n04099969_4816.png,1.0,3.3623111,0.98676044,1.6797681
convnext_large,1,612,NaN,elephant,elephant,0,0612_pow_dnn_0_elephant_35_n02504458_7013.png,n02504458_7013.png,1.0,5.9037733,0.30035624,3.9622142
convnext_large,1,613,NaN,knife,knife,pow,0613_pow_dnn_pow_knife_35_n03041632_92637.png,n03041632_92637.png,1.0,1.6842643,1.0024276,0.4821314
convnext_large,1,614,NaN,keyboard,keyboard,0,0614_pow_dnn_0_keyboard_35_n03085013_19607.png,n03085013_19607.png,1.0,7.146225,0.26392856,4.8665185
convnext_large,1,615,NaN,cat,cat,pow,0615_pow_dnn_pow_cat_35_n02123597_1027.png,n02123597_1027.png,1.0,2.5844092,0.779572,1.2762127
convnext_large,1,616,NaN,bicycle,bicycle,0,0616_pow_dnn_0_bicycle_35_n02835271_9135.png,n02835271_9135.png,1.0,4.822216,0.71570307,2.9037433
convnext_large,1,617,NaN,airplane,dog,pow,0617_pow_dnn_pow_dog_35_n02111500_3896.png,n02111500_3896.png,0.0,0.18509078,0.99000543,-0.56916064
convnext_large,1,618,NaN,oven,oven,0,0618_pow_dnn_0_oven_35_n04111531_8398.png,n04111531_8398.png,1.0,8.690876,0.47734106,5.8078465
convnext_large,1,619,NaN,oven,oven,0,0619_pow_dnn_0_oven_35_n04111531_6049.png,n04111531_6049.png,1.0,8.1456375,0.31768674,5.5351973
convnext_large,1,620,NaN,chair,chair,pow,0620_pow_dnn_pow_chair_35_n03376595_6947.png,n03376595_6947.png,1.0,2.285562,1.324194,0.6797899
convnext_large,1,621,NaN,dog,dog,pow,0621_pow_dnn_pow_dog_35_n02097658_6717.png,n02097658_6717.png,1.0,0.9052457,0.48643163,0.2961463
convnext_large,1,622,NaN,knife,knife,0,0622_pow_dnn_0_knife_35_n03041632_21560.png,n03041632_21560.png,1.0,8.296653,0.29365838,5.658972
convnext_large,1,623,NaN,boat,boat,pow,0623_pow_dnn_pow_boat_35_n03662601_7642.png,n03662601_7642.png,1.0,3.0572827,1.4859464,1.1111026
convnext_large,1,624,NaN,car,car,0,0624_pow_dnn_0_car_35_n04285008_1313.png,n04285008_1313.png,1.0,3.5940983,0.47708517,2.2040613
convnext_large,1,625,NaN,chair,chair,pow,0625_pow_dnn_pow_chair_35_n03376595_6409.png,n03376595_6409.png,1.0,4.7509804,0.8893729,2.730569
convnext_large,1,626,NaN,bear,bear,pow,0626_pow_dnn_pow_bear_35_n02133161_6028.png,n02133161_6028.png,1.0,3.1325626,0.493984,1.8657569
convnext_large,1,627,NaN,bear,bear,pow,0627_pow_dnn_pow_bear_35_n02132136_29029.png,n02132136_29029.png,1.0,5.153286,3.7802243,0.97090125
convnext_large,1,628,NaN,truck,truck,0,0628_pow_dnn_0_truck_35_n04467665_7290.png,n04467665_7290.png,1.0,3.037872,0.2904945,1.9426894
convnext_large,1,629,NaN,bird,bird,pow,0629_pow_dnn_pow_bird_35_n01537544_9745.png,n01537544_9745.png,1.0,1.1374851,0.7244328,0.2920721
convnext_large,1,630,NaN,bicycle,bicycle,0,0630_pow_dnn_0_bicycle_35_n03792782_15845.png,n03792782_15845.png,1.0,6.317007,0.35362774,4.216746
convnext_large,1,631,NaN,bear,bear,pow,0631_pow_dnn_pow_bear_35_n02133161_8982.png,n02133161_8982.png,1.0,3.5705433,1.5222576,1.4483567
convnext_large,1,632,NaN,knife,knife,0,0632_pow_dnn_0_knife_35_n03041632_6575.png,n03041632_6575.png,1.0,8.671055,0.2935078,5.9238205
convnext_large,1,633,NaN,knife,knife,0,0633_pow_dnn_0_knife_35_n03041632_32785.png,n03041632_32785.png,1.0,7.845389,0.52423286,5.1768394
convnext_large,1,634,NaN,chair,chair,pow,0634_pow_dnn_pow_chair_35_n04429376_12691.png,n04429376_12691.png,1.0,2.1287165,0.7950858,0.94301933
convnext_large,1,635,NaN,elephant,dog,pow,0635_pow_dnn_pow_dog_35_n02097298_6578.png,n02097298_6578.png,0.0,0.22598769,0.692842,-0.33011588
convnext_large,1,636,NaN,knife,knife,pow,0636_pow_dnn_pow_knife_35_n03041632_94995.png,n03041632_94995.png,1.0,4.3592067,0.34550747,2.8381138
convnext_large,1,637,NaN,clock,clock,0,0637_pow_dnn_0_clock_35_n02708093_41.png,n02708093_41.png,1.0,4.2986455,0.32204786,2.8118792
convnext_large,1,638,NaN,keyboard,keyboard,0,0638_pow_dnn_0_keyboard_35_n03085013_7892.png,n03085013_7892.png,1.0,6.859603,0.9804321,4.157202
convnext_large,1,639,NaN,knife,knife,pow,0639_pow_dnn_pow_knife_35_n03041632_84048.png,n03041632_84048.png,1.0,5.603127,2.9532776,1.8737265
convnext_large,1,640,NaN,airplane,airplane,0,0640_pow_dnn_0_airplane_35_n02690373_3415.png,n02690373_3415.png,1.0,8.699026,0.49262714,5.8028007
convnext_large,1,641,NaN,knife,knife,0,0641_pow_dnn_0_knife_35_n03041632_31483.png,n03041632_31483.png,1.0,6.843084,1.2338996,3.9662924
convnext_large,1,642,NaN,airplane,dog,0,0642_pow_dnn_0_dog_35_n02110958_368.png,n02110958_368.png,0.0,0.10751478,0.8026809,-0.49155667
convnext_large,1,643,NaN,airplane,bird,0,0643_pow_dnn_0_bird_35_n02051845_539.png,n02051845_539.png,0.0,0.32587272,0.60362834,-0.19640288
convnext_large,1,644,NaN,bear,bear,0,0644_pow_dnn_0_bear_35_n02134084_11187.png,n02134084_11187.png,1.0,2.9132953,0.77404773,1.5126764
convnext_large,1,645,NaN,airplane,bird,0,0645_pow_dnn_0_bird_35_n01531178_17387.png,n01531178_17387.png,0.0,0.5083952,0.7428207,-0.16576385
convnext_large,1,646,NaN,keyboard,keyboard,0,0646_pow_dnn_0_keyboard_35_n04505470_5131.png,n04505470_5131.png,1.0,6.3255596,1.0566888,3.7256544
convnext_large,1,647,NaN,cat,cat,0,0647_pow_dnn_0_cat_35_n02123159_2246.png,n02123159_2246.png,1.0,4.8077555,1.2126555,2.5421195
convnext_large,1,648,NaN,oven,oven,0,0648_pow_dnn_0_oven_35_n04111531_1725.png,n04111531_1725.png,1.0,8.636133,0.5734064,5.701209
convnext_large,1,649,NaN,clock,clock,0,0649_pow_dnn_0_clock_35_n02708093_2295.png,n02708093_2295.png,1.0,4.204727,0.1946314,2.8355658
convnext_large,1,650,NaN,cat,cat,pow,0650_pow_dnn_pow_cat_35_n02125311_5013.png,n02125311_5013.png,1.0,2.255079,0.3501134,1.3470142
convnext_large,1,651,NaN,knife,keyboard,pow,0651_pow_dnn_pow_keyboard_35_n03085013_24665.png,n03085013_24665.png,0.0,1.8005329,2.099265,-0.21123554
convnext_large,1,652,NaN,elephant,elephant,pow,0652_pow_dnn_pow_elephant_35_n02504013_9678.png,n02504013_9678.png,1.0,5.8921514,0.41537726,3.8726642
convnext_large,1,653,NaN,keyboard,keyboard,0,0653_pow_dnn_0_keyboard_35_n03085013_7858.png,n03085013_7858.png,1.0,6.8398666,0.41871038,4.5404434
convnext_large,1,654,NaN,boat,boat,0,0654_pow_dnn_0_boat_35_n04612504_2089.png,n04612504_2089.png,1.0,2.791535,0.3324967,1.7388027
convnext_large,1,655,NaN,chair,dog,0,0655_pow_dnn_0_dog_35_n02091831_4183.png,n02091831_4183.png,0.0,0.25610796,0.36319906,-0.07572484
convnext_large,1,656,NaN,cat,cat,0,0656_pow_dnn_0_cat_35_n02125311_475.png,n02125311_475.png,1.0,1.7816628,0.43922085,0.94924986
convnext_large,1,657,NaN,clock,clock,0,0657_pow_dnn_0_clock_35_n03196217_2607.png,n03196217_2607.png,1.0,4.194033,0.6635619,2.4964201
convnext_large,1,658,NaN,car,car,0,0658_pow_dnn_0_car_35_n02814533_93487.png,n02814533_93487.png,1.0,3.399326,0.7276951,1.8891283
convnext_large,1,659,NaN,airplane,dog,0,0659_pow_dnn_0_dog_35_n02108000_6270.png,n02108000_6270.png,0.0,0.10459635,0.52673876,-0.29849976
convnext_large,1,660,NaN,chair,chair,pow,0660_pow_dnn_pow_chair_35_n04099969_20900.png,n04099969_20900.png,1.0,4.374668,0.87128854,2.4772635
convnext_large,1,661,NaN,car,car,0,0661_pow_dnn_0_car_35_n03100240_8483.png,n03100240_8483.png,1.0,6.5611014,0.18906894,4.5057077
convnext_large,1,662,NaN,chair,chair,0,0662_pow_dnn_0_chair_35_n03376595_2056.png,n03376595_2056.png,1.0,2.7094812,0.6018093,1.4903492
convnext_large,1,663,NaN,boat,boat,pow,0663_pow_dnn_pow_boat_35_n04612504_2479.png,n04612504_2479.png,1.0,2.700985,0.584105,1.4968601
convnext_large,1,664,NaN,cat,cat,pow,0664_pow_dnn_pow_cat_35_n02123045_5228.png,n02123045_5228.png,1.0,4.034968,0.57539654,2.4462864
convnext_large,1,665,NaN,airplane,airplane,0,0665_pow_dnn_0_airplane_35_n02690373_10404.png,n02690373_10404.png,1.0,8.485681,0.53725755,5.6203837
convnext_large,1,666,NaN,knife,knife,0,0666_pow_dnn_0_knife_35_n03041632_29427.png,n03041632_29427.png,1.0,6.774232,4.8357716,1.3706985
convnext_large,1,667,NaN,oven,oven,0,0667_pow_dnn_0_oven_35_n04111531_7355.png,n04111531_7355.png,1.0,6.493601,1.6042347,3.457304
convnext_large,1,668,NaN,clock,clock,0,0668_pow_dnn_0_clock_35_n03196217_3333.png,n03196217_3333.png,1.0,4.2243986,0.1904319,2.8524451
convnext_large,1,669,NaN,bird,bird,0,0669_pow_dnn_0_bird_35_n02027492_9905.png,n02027492_9905.png,1.0,0.752462,0.36294758,0.27542832
convnext_large,1,670,NaN,airplane,airplane,0,0670_pow_dnn_0_airplane_35_n02690373_9709.png,n02690373_9709.png,1.0,8.368366,0.28698143,5.714402
convnext_large,1,671,NaN,clock,clock,0,0671_pow_dnn_0_clock_35_n03196217_3558.png,n03196217_3558.png,1.0,3.9106941,0.56438184,2.3662002
convnext_large,1,672,NaN,elephant,elephant,pow,0672_pow_dnn_pow_elephant_35_n02504013_1854.png,n02504013_1854.png,1.0,6.000363,0.4032468,3.9577587
convnext_large,1,673,NaN,boat,boat,pow,0673_pow_dnn_pow_boat_35_n03662601_15566.png,n03662601_15566.png,1.0,2.6091666,1.5441115,0.7531077
convnext_large,1,674,NaN,elephant,chair,pow,0674_pow_dnn_pow_chair_35_n03376595_235.png,n03376595_235.png,0.0,0.4823051,0.8913138,-0.28921282
convnext_large,1,675,NaN,boat,boat,0,0675_pow_dnn_0_boat_35_n03344393_7669.png,n03344393_7669.png,1.0,2.467841,0.6848211,1.2607853
convnext_large,1,676,NaN,cat,cat,pow,0676_pow_dnn_pow_cat_35_n02123159_4952.png,n02123159_4952.png,1.0,2.5061252,1.6023753,0.63904774
convnext_large,1,677,NaN,truck,truck,pow,0677_pow_dnn_pow_truck_35_n03417042_16403.png,n03417042_16403.png,1.0,1.8685695,0.6301111,0.87572235
convnext_large,1,678,NaN,dog,dog,pow,0678_pow_dnn_pow_dog_35_n02094258_794.png,n02094258_794.png,1.0,0.53522307,0.14201641,0.2780391
convnext_large,1,679,NaN,knife,knife,0,0679_pow_dnn_0_knife_35_n03041632_3504.png,n03041632_3504.png,1.0,8.688091,0.5634862,5.7449636
convnext_large,1,680,NaN,truck,truck,0,0680_pow_dnn_0_truck_35_n03796401_10878.png,n03796401_10878.png,1.0,2.0656385,0.47467116,1.1249839
convnext_large,1,681,NaN,bear,bear,0,0681_pow_dnn_0_bear_35_n02134084_13029.png,n02134084_13029.png,1.0,3.7768638,1.4412713,1.6515133
convnext_large,1,682,NaN,bear,bird,pow,0682_pow_dnn_pow_bird_35_n01534433_14336.png,n01534433_14336.png,0.0,1.4361199,1.8067297,-0.26206067
convnext_large,1,683,NaN,bottle,bottle,0,0683_pow_dnn_0_bottle_35_n04560804_647.png,n04560804_647.png,1.0,1.1852967,0.2413153,0.6674956
convnext_large,1,684,NaN,airplane,airplane,0,0684_pow_dnn_0_airplane_35_n02690373_4107.png,n02690373_4107.png,1.0,9.167024,0.8666812,5.869229
convnext_large,1,685,NaN,chair,chair,0,0685_pow_dnn_0_chair_35_n04429376_8069.png,n04429376_8069.png,1.0,2.2628489,0.66394216,1.1305978
convnext_large,1,686,NaN,oven,oven,pow,0686_pow_dnn_pow_oven_35_n04111531_23668.png,n04111531_23668.png,1.0,6.8856406,1.3466961,3.916625
convnext_large,1,687,NaN,airplane,airplane,pow,0687_pow_dnn_pow_airplane_35_n02690373_1071.png,n02690373_1071.png,1.0,7.0356426,0.4725083,4.6408367
convnext_large,1,688,NaN,elephant,elephant,0,0688_pow_dnn_0_elephant_35_n02504458_7841.png,n02504458_7841.png,1.0,7.2052517,0.8219875,4.5136495
convnext_large,1,689,NaN,elephant,elephant,0,0689_pow_dnn_0_elephant_35_n02504458_7777.png,n02504458_7777.png,1.0,5.8137813,0.3256826,3.8806717
convnext_large,1,690,NaN,clock,clock,0,0690_pow_dnn_0_clock_35_n02708093_8179.png,n02708093_8179.png,1.0,5.691858,0.1452418,3.92205
convnext_large,1,691,NaN,oven,oven,pow,0691_pow_dnn_pow_oven_35_n04111531_12702.png,n04111531_12702.png,1.0,6.439817,1.8983583,3.2112963
convnext_large,1,692,NaN,oven,oven,pow,0692_pow_dnn_pow_oven_35_n04111531_14441.png,n04111531_14441.png,1.0,8.34714,0.48025602,5.5627275
convnext_large,1,693,NaN,bicycle,bicycle,0,0693_pow_dnn_0_bicycle_35_n03792782_2435.png,n03792782_2435.png,1.0,5.9705033,0.9611676,3.5421352
convnext_large,1,694,NaN,truck,boat,pow,0694_pow_dnn_pow_boat_35_n04273569_23162.png,n04273569_23162.png,0.0,0.30203566,2.1042054,-1.2743264
convnext_large,1,695,NaN,cat,cat,0,0695_pow_dnn_0_cat_35_n02123159_5270.png,n02123159_5270.png,1.0,3.7521477,0.4281935,2.3503904
convnext_large,1,696,NaN,elephant,elephant,0,0696_pow_dnn_0_elephant_35_n02504013_3410.png,n02504013_3410.png,1.0,7.4735055,0.25332114,5.1054416
convnext_large,1,697,NaN,cat,cat,0,0697_pow_dnn_0_cat_35_n02123394_506.png,n02123394_506.png,1.0,2.2493973,0.28957102,1.3858064
convnext_large,1,698,NaN,bottle,bottle,0,0698_pow_dnn_0_bottle_35_n04579145_2202.png,n04579145_2202.png,1.0,1.5881096,0.5880247,0.7071668
convnext_large,1,699,NaN,bicycle,bicycle,pow,0699_pow_dnn_pow_bicycle_35_n03792782_3357.png,n03792782_3357.png,1.0,6.4573507,0.391744,4.2890315
convnext_large,1,700,NaN,bicycle,bicycle,0,0700_pow_dnn_0_bicycle_35_n03792782_12751.png,n03792782_12751.png,1.0,6.873032,0.3179799,4.635122
convnext_large,1,701,NaN,cat,cat,pow,0701_pow_dnn_pow_cat_35_n02125311_30246.png,n02125311_30246.png,1.0,1.9174515,0.40874457,1.0668169
convnext_large,1,702,NaN,keyboard,keyboard,0,0702_pow_dnn_0_keyboard_35_n04505470_2102.png,n04505470_2102.png,1.0,7.7597036,0.67031676,5.0129538
convnext_large,1,703,NaN,bicycle,bicycle,pow,0703_pow_dnn_pow_bicycle_35_n03792782_51296.png,n03792782_51296.png,1.0,6.3312335,1.0053791,3.7659478
convnext_large,1,704,NaN,knife,keyboard,pow,0704_pow_dnn_pow_keyboard_35_n03085013_29452.png,n03085013_29452.png,0.0,1.94263,6.1557484,-2.9791248
convnext_large,1,705,NaN,oven,oven,pow,0705_pow_dnn_pow_oven_35_n04111531_5967.png,n04111531_5967.png,1.0,7.8976307,3.0705755,3.4132433
convnext_large,1,706,NaN,bottle,bottle,0,0706_pow_dnn_0_bottle_35_n02823428_5850.png,n02823428_5850.png,1.0,2.8497136,0.805121,1.4457453
convnext_large,1,707,NaN,knife,knife,0,0707_pow_dnn_0_knife_35_n03041632_16020.png,n03041632_16020.png,1.0,7.2987466,0.63796985,4.7098804
convnext_large,1,708,NaN,bottle,bottle,pow,0708_pow_dnn_pow_bottle_35_n02823428_774.png,n02823428_774.png,1.0,3.0343702,0.37386617,1.8812605
convnext_large,1,709,NaN,bottle,bottle,pow,0709_pow_dnn_pow_bottle_35_n04557648_85.png,n04557648_85.png,1.0,4.336959,0.013533592,3.0571234
convnext_large,1,710,NaN,clock,clock,0,0710_pow_dnn_0_clock_35_n02708093_7535.png,n02708093_7535.png,1.0,5.8591685,1.0167307,3.4241207
convnext_large,1,711,NaN,cat,dog,0,0711_pow_dnn_0_dog_35_n02109961_66260.png,n02109961_66260.png,0.0,0.09973673,0.6085819,-0.35980785
convnext_large,1,712,NaN,cat,cat,0,0712_pow_dnn_0_cat_35_n02123045_9947.png,n02123045_9947.png,1.0,4.832006,0.99813074,2.7109592
convnext_large,1,713,NaN,oven,clock,0,0713_pow_dnn_0_clock_35_n03196217_1519.png,n03196217_1519.png,0.0,2.4029677,2.469818,-0.047270387
convnext_large,1,714,NaN,keyboard,keyboard,0,0714_pow_dnn_0_keyboard_35_n03085013_23354.png,n03085013_23354.png,1.0,6.8236685,0.8069437,4.254467
convnext_large,1,715,NaN,bicycle,bicycle,pow,0715_pow_dnn_pow_bicycle_35_n02835271_3767.png,n02835271_3767.png,1.0,5.115101,0.6241549,3.1755784
convnext_large,1,716,NaN,knife,bottle,0,0716_pow_dnn_0_bottle_35_n03937543_2941.png,n03937543_2941.png,0.0,2.0862384,4.3153715,-1.5762352
convnext_large,1,717,NaN,chair,chair,0,0717_pow_dnn_0_chair_35_n04099969_2113.png,n04099969_2113.png,1.0,2.5929108,0.41837686,1.5376277
convnext_large,1,718,NaN,clock,clock,0,0718_pow_dnn_0_clock_35_n03196217_4879.png,n03196217_4879.png,1.0,4.447489,0.25897193,2.9617286
convnext_large,1,719,NaN,clock,clock,0,0719_pow_dnn_0_clock_35_n04548280_16378.png,n04548280_16378.png,1.0,5.078942,0.3734386,3.3272934
