subj,session,trial,rt,object_response,category,condition,imagename,filename,is_correct,targ_act,max_nontarg_act,decision_margin
alexnet_w3_mlp_simclrhn_probe3,1,1,NaN,clock,clock,0,0001_pow_dnn_0_clock_35_n03196217_10246.png,n03196217_10246.png,1.0,3.3443863,2.2394571,0.7813029
alexnet_w3_mlp_simclrhn_probe3,1,2,NaN,cat,dog,pow,0002_pow_dnn_pow_dog_35_n02091467_7264.png,n02091467_7264.png,0.0,0.16357613,1.0611287,-0.63466555
alexnet_w3_mlp_simclrhn_probe3,1,3,NaN,oven,chair,pow,0003_pow_dnn_pow_chair_35_n02791124_713.png,n02791124_713.png,0.0,0.268523,2.0503006,-1.259907
alexnet_w3_mlp_simclrhn_probe3,1,4,NaN,truck,car,0,0004_pow_dnn_0_car_35_n02814533_35174.png,n02814533_35174.png,0.0,5.9010816,6.2922816,-0.2766202
alexnet_w3_mlp_simclrhn_probe3,1,5,NaN,oven,knife,pow,0005_pow_dnn_pow_knife_35_n03041632_46103.png,n03041632_46103.png,0.0,0.4243257,1.3935668,-0.685357
alexnet_w3_mlp_simclrhn_probe3,1,6,NaN,bicycle,bicycle,0,0006_pow_dnn_0_bicycle_35_n03792782_11306.png,n03792782_11306.png,1.0,16.138527,4.177299,8.457865
alexnet_w3_mlp_simclrhn_probe3,1,7,NaN,bird,bird,0,0007_pow_dnn_0_bird_35_n02002556_3463.png,n02002556_3463.png,1.0,4.093783,0.6170946,2.45839
alexnet_w3_mlp_simclrhn_probe3,1,8,NaN,oven,keyboard,pow,0008_pow_dnn_pow_keyboard_35_n03085013_22813.png,n03085013_22813.png,0.0,-0.64620733,1.2887061,-1.3681904
alexnet_w3_mlp_simclrhn_probe3,1,9,NaN,bird,bird,0,0009_pow_dnn_0_bird_35_n02025239_2961.png,n02025239_2961.png,1.0,3.7651482,1.0344303,1.9309092
alexnet_w3_mlp_simclrhn_probe3,1,10,NaN,oven,boat,pow,0010_pow_dnn_pow_boat_35_n02951358_14504.png,n02951358_14504.png,0.0,0.64139336,2.3368478,-1.1988673
alexnet_w3_mlp_simclrhn_probe3,1,11,NaN,oven,oven,0,0011_pow_dnn_0_oven_35_n04111531_19000.png,n04111531_19000.png,1.0,1.9802738,1.0618623,0.649415
alexnet_w3_mlp_simclrhn_probe3,1,12,NaN,bear,bird,0,0012_pow_dnn_0_bird_35_n01614925_11281.png,n01614925_11281.png,0.0,2.9377675,3.00834,-0.04990221
alexnet_w3_mlp_simclrhn_probe3,1,13,NaN,bottle,knife,0,0013_pow_dnn_0_knife_35_n03041632_52040.png,n03041632_52040.png,0.0,1.5331471,1.6943674,-0.11399998
alexnet_w3_mlp_simclrhn_probe3,1,14,NaN,oven,car,pow,0014_pow_dnn_pow_car_35_n03100240_14206.png,n03100240_14206.png,0.0,0.20891733,2.1946788,-1.4041454
alexnet_w3_mlp_simclrhn_probe3,1,15,NaN,cat,bird,0,0015_pow_dnn_0_bird_35_n01817953_689.png,n01817953_689.png,0.0,0.13274062,0.9629602,-0.5870539
alexnet_w3_mlp_simclrhn_probe3,1,16,NaN,oven,chair,pow,0016_pow_dnn_pow_chair_35_n04099969_7934.png,n04099969_7934.png,0.0,0.43659508,2.508377,-1.4649712
alexnet_w3_mlp_simclrhn_probe3,1,17,NaN,knife,knife,0,0017_pow_dnn_0_knife_35_n03041632_30196.png,n03041632_30196.png,1.0,2.2779188,0.5437448,1.2262462
alexnet_w3_mlp_simclrhn_probe3,1,18,NaN,car,car,0,0018_pow_dnn_0_car_35_n02814533_18077.png,n02814533_18077.png,1.0,6.2196946,1.6296699,3.245638
alexnet_w3_mlp_simclrhn_probe3,1,19,NaN,cat,cat,0,0019_pow_dnn_0_cat_35_n02123159_6927.png,n02123159_6927.png,1.0,2.3415968,0.74652934,1.1278831
alexnet_w3_mlp_simclrhn_probe3,1,20,NaN,bird,bird,pow,0020_pow_dnn_pow_bird_35_n01855672_8550.png,n01855672_8550.png,1.0,1.2469198,0.7922783,0.32148007
alexnet_w3_mlp_simclrhn_probe3,1,21,NaN,truck,truck,0,0021_pow_dnn_0_truck_35_n03417042_17888.png,n03417042_17888.png,1.0,8.704885,0.54486775,5.7700033
alexnet_w3_mlp_simclrhn_probe3,1,22,NaN,elephant,truck,pow,0022_pow_dnn_pow_truck_35_n04467665_45611.png,n04467665_45611.png,0.0,-0.45249504,2.2197075,-1.8895326
alexnet_w3_mlp_simclrhn_probe3,1,23,NaN,bear,dog,pow,0023_pow_dnn_pow_dog_35_n02093256_1772.png,n02093256_1772.png,0.0,0.060401272,1.8487674,-1.2645658
alexnet_w3_mlp_simclrhn_probe3,1,24,NaN,oven,boat,pow,0024_pow_dnn_pow_boat_35_n03344393_6260.png,n03344393_6260.png,0.0,0.87230366,3.1560667,-1.6148642
alexnet_w3_mlp_simclrhn_probe3,1,25,NaN,oven,chair,0,0025_pow_dnn_0_chair_35_n04429376_24073.png,n04429376_24073.png,0.0,0.5726415,1.6797597,-0.78285086
alexnet_w3_mlp_simclrhn_probe3,1,26,NaN,knife,knife,0,0026_pow_dnn_0_knife_35_n03041632_29355.png,n03041632_29355.png,1.0,2.9116442,1.8764538,0.7319902
alexnet_w3_mlp_simclrhn_probe3,1,27,NaN,clock,clock,0,0027_pow_dnn_0_clock_35_n03196217_5907.png,n03196217_5907.png,1.0,2.1775436,0.8603286,0.9314116
alexnet_w3_mlp_simclrhn_probe3,1,28,NaN,airplane,airplane,0,0028_pow_dnn_0_airplane_35_n02690373_7276.png,n02690373_7276.png,1.0,16.973785,2.309994,10.368867
alexnet_w3_mlp_simclrhn_probe3,1,29,NaN,bicycle,bicycle,pow,0029_pow_dnn_pow_bicycle_35_n03792782_15561.png,n03792782_15561.png,1.0,6.464011,1.4664456,3.5338128
alexnet_w3_mlp_simclrhn_probe3,1,30,NaN,cat,cat,0,0030_pow_dnn_0_cat_35_n02123045_3505.png,n02123045_3505.png,1.0,12.563445,2.3277688,7.2377157
alexnet_w3_mlp_simclrhn_probe3,1,31,NaN,oven,knife,0,0031_pow_dnn_0_knife_35_n03041632_34769.png,n03041632_34769.png,0.0,1.3526382,3.9995794,-1.8716701
alexnet_w3_mlp_simclrhn_probe3,1,32,NaN,oven,clock,pow,0032_pow_dnn_pow_clock_35_n03196217_5206.png,n03196217_5206.png,0.0,0.245421,1.8736647,-1.1513422
alexnet_w3_mlp_simclrhn_probe3,1,33,NaN,truck,truck,0,0033_pow_dnn_0_truck_35_n04467665_58815.png,n04467665_58815.png,1.0,6.8215322,1.5334247,3.7392566
alexnet_w3_mlp_simclrhn_probe3,1,34,NaN,bird,bird,0,0034_pow_dnn_0_bird_35_n01616318_2186.png,n01616318_2186.png,1.0,5.294496,0.039784025,3.7156427
alexnet_w3_mlp_simclrhn_probe3,1,35,NaN,elephant,bicycle,pow,0035_pow_dnn_pow_bicycle_35_n03792782_12885.png,n03792782_12885.png,0.0,-0.3963378,2.047059,-1.7277424
alexnet_w3_mlp_simclrhn_probe3,1,36,NaN,oven,airplane,pow,0036_pow_dnn_pow_airplane_35_n02690373_9264.png,n02690373_9264.png,0.0,0.43681908,1.7172124,-0.9053748
alexnet_w3_mlp_simclrhn_probe3,1,37,NaN,chair,chair,0,0037_pow_dnn_0_chair_35_n04099969_16079.png,n04099969_16079.png,1.0,1.4104179,0.70345396,0.49989903
alexnet_w3_mlp_simclrhn_probe3,1,38,NaN,bicycle,bicycle,0,0038_pow_dnn_0_bicycle_35_n02835271_3027.png,n02835271_3027.png,1.0,5.2784443,2.108478,2.2415047
alexnet_w3_mlp_simclrhn_probe3,1,39,NaN,airplane,airplane,0,0039_pow_dnn_0_airplane_35_n02690373_6614.png,n02690373_6614.png,1.0,14.600377,0.8338697,9.73439
alexnet_w3_mlp_simclrhn_probe3,1,40,NaN,airplane,chair,pow,0040_pow_dnn_pow_chair_35_n03376595_9048.png,n03376595_9048.png,0.0,-0.10315562,1.2831125,-0.9802396
alexnet_w3_mlp_simclrhn_probe3,1,41,NaN,oven,oven,0,0041_pow_dnn_0_oven_35_n04111531_6094.png,n04111531_6094.png,1.0,5.4258575,4.8410277,0.4135371
alexnet_w3_mlp_simclrhn_probe3,1,42,NaN,oven,clock,pow,0042_pow_dnn_pow_clock_35_n02708093_687.png,n02708093_687.png,0.0,1.7140955,1.8811193,-0.118103646
alexnet_w3_mlp_simclrhn_probe3,1,43,NaN,bicycle,bicycle,pow,0043_pow_dnn_pow_bicycle_35_n03792782_14931.png,n03792782_14931.png,1.0,3.5487938,0.81453025,1.9334162
alexnet_w3_mlp_simclrhn_probe3,1,44,NaN,keyboard,bottle,0,0044_pow_dnn_0_bottle_35_n03937543_5567.png,n03937543_5567.png,0.0,1.8331563,2.6903982,-0.60616153
alexnet_w3_mlp_simclrhn_probe3,1,45,NaN,car,car,0,0045_pow_dnn_0_car_35_n03100240_3073.png,n03100240_3073.png,1.0,14.251065,1.6672789,8.898081
alexnet_w3_mlp_simclrhn_probe3,1,46,NaN,knife,knife,0,0046_pow_dnn_0_knife_35_n03041632_18236.png,n03041632_18236.png,1.0,2.4658945,0.8968797,1.1094611
alexnet_w3_mlp_simclrhn_probe3,1,47,NaN,elephant,knife,pow,0047_pow_dnn_pow_knife_35_n03041632_9302.png,n03041632_9302.png,0.0,0.446612,0.91631526,-0.33213037
alexnet_w3_mlp_simclrhn_probe3,1,48,NaN,bear,bear,0,0048_pow_dnn_0_bear_35_n02134418_2590.png,n02134418_2590.png,1.0,7.141394,1.0930703,4.2768106
alexnet_w3_mlp_simclrhn_probe3,1,49,NaN,airplane,bottle,0,0049_pow_dnn_0_bottle_35_n03983396_24837.png,n03983396_24837.png,0.0,0.5418559,1.0758263,-0.37757412
alexnet_w3_mlp_simclrhn_probe3,1,50,NaN,knife,knife,pow,0050_pow_dnn_pow_knife_35_n03041632_3617.png,n03041632_3617.png,1.0,0.98779315,0.6710781,0.22395137
alexnet_w3_mlp_simclrhn_probe3,1,51,NaN,elephant,bicycle,pow,0051_pow_dnn_pow_bicycle_35_n03792782_6735.png,n03792782_6735.png,0.0,0.48450807,0.9831234,-0.35257432
alexnet_w3_mlp_simclrhn_probe3,1,52,NaN,car,car,0,0052_pow_dnn_0_car_35_n03100240_5387.png,n03100240_5387.png,1.0,11.13194,1.8659128,6.552071
alexnet_w3_mlp_simclrhn_probe3,1,53,NaN,chair,bottle,0,0053_pow_dnn_0_bottle_35_n03983396_4879.png,n03983396_4879.png,0.0,0.41971537,1.6337887,-0.8584795
alexnet_w3_mlp_simclrhn_probe3,1,54,NaN,car,car,0,0054_pow_dnn_0_car_35_n03100240_6103.png,n03100240_6103.png,1.0,14.90895,6.034857,6.2749314
alexnet_w3_mlp_simclrhn_probe3,1,55,NaN,oven,bird,pow,0055_pow_dnn_pow_bird_35_n01796340_9255.png,n01796340_9255.png,0.0,-0.16247496,2.052219,-1.566025
alexnet_w3_mlp_simclrhn_probe3,1,56,NaN,oven,cat,pow,0056_pow_dnn_pow_cat_35_n02123394_2448.png,n02123394_2448.png,0.0,0.47776818,1.8368274,-0.961
alexnet_w3_mlp_simclrhn_probe3,1,57,NaN,car,car,0,0057_pow_dnn_0_car_35_n04285008_13174.png,n04285008_13174.png,1.0,16.97957,5.8301864,7.883805
alexnet_w3_mlp_simclrhn_probe3,1,58,NaN,oven,chair,pow,0058_pow_dnn_pow_chair_35_n04429376_353.png,n04429376_353.png,0.0,0.8073742,2.4030018,-1.1282791
alexnet_w3_mlp_simclrhn_probe3,1,59,NaN,bicycle,boat,pow,0059_pow_dnn_pow_boat_35_n02951358_16261.png,n02951358_16261.png,0.0,0.09283421,1.2364845,-0.8086829
alexnet_w3_mlp_simclrhn_probe3,1,60,NaN,oven,car,pow,0060_pow_dnn_pow_car_35_n04285008_15954.png,n04285008_15954.png,0.0,-0.10180339,1.9923568,-1.4807948
alexnet_w3_mlp_simclrhn_probe3,1,61,NaN,airplane,truck,pow,0061_pow_dnn_pow_truck_35_n04467665_3411.png,n04467665_3411.png,0.0,0.8957709,1.3654201,-0.33209214
alexnet_w3_mlp_simclrhn_probe3,1,62,NaN,oven,oven,pow,0062_pow_dnn_pow_oven_35_n04111531_15743.png,n04111531_15743.png,1.0,1.3590133,0.43345612,0.65446776
alexnet_w3_mlp_simclrhn_probe3,1,63,NaN,dog,dog,0,0063_pow_dnn_0_dog_35_n02088238_8653.png,n02088238_8653.png,1.0,1.2958782,1.1933382,0.07250674
alexnet_w3_mlp_simclrhn_probe3,1,64,NaN,airplane,airplane,0,0064_pow_dnn_0_airplane_35_n02690373_4681.png,n02690373_4681.png,1.0,8.824616,2.9348884,4.1646667
alexnet_w3_mlp_simclrhn_probe3,1,65,NaN,oven,bear,pow,0065_pow_dnn_pow_bear_35_n02134418_5684.png,n02134418_5684.png,0.0,1.5485264,1.682071,-0.09443027
alexnet_w3_mlp_simclrhn_probe3,1,66,NaN,bear,bear,pow,0066_pow_dnn_pow_bear_35_n02134418_5830.png,n02134418_5830.png,1.0,3.2541854,2.0229416,0.8706209
alexnet_w3_mlp_simclrhn_probe3,1,67,NaN,airplane,truck,0,0067_pow_dnn_0_truck_35_n04467665_45983.png,n04467665_45983.png,0.0,0.49509436,2.9580886,-1.7416
alexnet_w3_mlp_simclrhn_probe3,1,68,NaN,bird,bird,0,0068_pow_dnn_0_bird_35_n01795545_14302.png,n01795545_14302.png,1.0,3.5133939,1.2342986,1.6115637
alexnet_w3_mlp_simclrhn_probe3,1,69,NaN,oven,oven,pow,0069_pow_dnn_pow_oven_35_n04111531_19240.png,n04111531_19240.png,1.0,2.6168232,1.2400464,0.97352827
alexnet_w3_mlp_simclrhn_probe3,1,70,NaN,oven,knife,0,0070_pow_dnn_0_knife_35_n03041632_22241.png,n03041632_22241.png,0.0,0.9665969,2.2048542,-0.87558025
alexnet_w3_mlp_simclrhn_probe3,1,71,NaN,bear,boat,pow,0071_pow_dnn_pow_boat_35_n03344393_815.png,n03344393_815.png,0.0,0.67874986,1.3041648,-0.44223514
alexnet_w3_mlp_simclrhn_probe3,1,72,NaN,airplane,boat,0,0072_pow_dnn_0_boat_35_n03662601_2120.png,n03662601_2120.png,0.0,0.39253867,3.5601974,-2.2398732
alexnet_w3_mlp_simclrhn_probe3,1,73,NaN,oven,knife,pow,0073_pow_dnn_pow_knife_35_n03041632_2438.png,n03041632_2438.png,0.0,0.5092754,2.313339,-1.2756656
alexnet_w3_mlp_simclrhn_probe3,1,74,NaN,bear,bear,pow,0074_pow_dnn_pow_bear_35_n02134418_3073.png,n02134418_3073.png,1.0,4.6519322,3.0046449,1.164808
alexnet_w3_mlp_simclrhn_probe3,1,75,NaN,oven,bottle,pow,0075_pow_dnn_pow_bottle_35_n02823428_3328.png,n02823428_3328.png,0.0,0.48316213,1.8857324,-0.9917669
alexnet_w3_mlp_simclrhn_probe3,1,76,NaN,oven,car,pow,0076_pow_dnn_pow_car_35_n04285008_13259.png,n04285008_13259.png,0.0,0.77415496,1.4476643,-0.476243
alexnet_w3_mlp_simclrhn_probe3,1,77,NaN,oven,oven,0,0077_pow_dnn_0_oven_35_n04111531_15852.png,n04111531_15852.png,1.0,1.3538581,0.4288004,0.6541146
alexnet_w3_mlp_simclrhn_probe3,1,78,NaN,elephant,dog,pow,0078_pow_dnn_pow_dog_35_n02099601_447.png,n02099601_447.png,0.0,0.32611802,4.9228296,-3.250366
alexnet_w3_mlp_simclrhn_probe3,1,79,NaN,oven,oven,pow,0079_pow_dnn_pow_oven_35_n04111531_18916.png,n04111531_18916.png,1.0,1.5216447,0.96454537,0.39392874
alexnet_w3_mlp_simclrhn_probe3,1,80,NaN,knife,bottle,pow,0080_pow_dnn_pow_bottle_35_n04591713_1407.png,n04591713_1407.png,0.0,0.78900915,1.5380325,-0.52963954
alexnet_w3_mlp_simclrhn_probe3,1,81,NaN,clock,oven,0,0081_pow_dnn_0_oven_35_n04111531_4585.png,n04111531_4585.png,0.0,1.3866725,1.8152772,-0.30306932
alexnet_w3_mlp_simclrhn_probe3,1,82,NaN,oven,keyboard,pow,0082_pow_dnn_pow_keyboard_35_n03085013_8364.png,n03085013_8364.png,0.0,-0.29355228,1.5223758,-1.2840551
alexnet_w3_mlp_simclrhn_probe3,1,83,NaN,bear,bear,pow,0083_pow_dnn_pow_bear_35_n02132136_15462.png,n02132136_15462.png,1.0,3.8810751,2.945299,0.66169375
alexnet_w3_mlp_simclrhn_probe3,1,84,NaN,oven,bicycle,pow,0084_pow_dnn_pow_bicycle_35_n03792782_4167.png,n03792782_4167.png,0.0,-0.08456653,2.4567618,-1.7969906
alexnet_w3_mlp_simclrhn_probe3,1,85,NaN,boat,boat,0,0085_pow_dnn_0_boat_35_n03662601_16106.png,n03662601_16106.png,1.0,8.638831,2.558004,4.299794
alexnet_w3_mlp_simclrhn_probe3,1,86,NaN,oven,keyboard,pow,0086_pow_dnn_pow_keyboard_35_n03085013_2277.png,n03085013_2277.png,0.0,-0.12429068,2.1458583,-1.6052377
alexnet_w3_mlp_simclrhn_probe3,1,87,NaN,oven,airplane,pow,0087_pow_dnn_pow_airplane_35_n02690373_8461.png,n02690373_8461.png,0.0,0.9788134,2.0334558,-0.7457448
alexnet_w3_mlp_simclrhn_probe3,1,88,NaN,knife,chair,pow,0088_pow_dnn_pow_chair_35_n03376595_3304.png,n03376595_3304.png,0.0,1.0344937,1.5923636,-0.3944736
alexnet_w3_mlp_simclrhn_probe3,1,89,NaN,bicycle,bicycle,0,0089_pow_dnn_0_bicycle_35_n03792782_19116.png,n03792782_19116.png,1.0,3.1116753,0.39482743,1.9211016
alexnet_w3_mlp_simclrhn_probe3,1,90,NaN,clock,clock,0,0090_pow_dnn_0_clock_35_n02708093_6734.png,n02708093_6734.png,1.0,3.6183758,1.6734952,1.3752383
alexnet_w3_mlp_simclrhn_probe3,1,91,NaN,oven,chair,0,0091_pow_dnn_0_chair_35_n04429376_6480.png,n04429376_6480.png,0.0,1.4314299,2.08991,-0.4656158
alexnet_w3_mlp_simclrhn_probe3,1,92,NaN,oven,bicycle,pow,0092_pow_dnn_pow_bicycle_35_n02835271_21339.png,n02835271_21339.png,0.0,0.6852313,1.4370127,-0.5315897
alexnet_w3_mlp_simclrhn_probe3,1,93,NaN,oven,keyboard,pow,0093_pow_dnn_pow_keyboard_35_n03085013_3859.png,n03085013_3859.png,0.0,1.0079525,3.226713,-1.5689006
alexnet_w3_mlp_simclrhn_probe3,1,94,NaN,oven,chair,pow,0094_pow_dnn_pow_chair_35_n03376595_360.png,n03376595_360.png,0.0,-0.27285415,1.628322,-1.3443346
alexnet_w3_mlp_simclrhn_probe3,1,95,NaN,bear,elephant,pow,0095_pow_dnn_pow_elephant_35_n02504013_18988.png,n02504013_18988.png,0.0,2.8098683,3.0188046,-0.14774022
alexnet_w3_mlp_simclrhn_probe3,1,96,NaN,oven,chair,0,0096_pow_dnn_0_chair_35_n04429376_54570.png,n04429376_54570.png,0.0,0.7398083,2.4577527,-1.2147702
alexnet_w3_mlp_simclrhn_probe3,1,97,NaN,oven,clock,pow,0097_pow_dnn_pow_clock_35_n04548280_5189.png,n04548280_5189.png,0.0,0.75410014,1.2400997,-0.34365356
alexnet_w3_mlp_simclrhn_probe3,1,98,NaN,oven,truck,pow,0098_pow_dnn_pow_truck_35_n04467665_6626.png,n04467665_6626.png,0.0,-0.15229598,2.4767709,-1.8590311
alexnet_w3_mlp_simclrhn_probe3,1,99,NaN,boat,boat,0,0099_pow_dnn_0_boat_35_n03344393_3323.png,n03344393_3323.png,1.0,8.604486,1.364388,5.119523
alexnet_w3_mlp_simclrhn_probe3,1,100,NaN,elephant,dog,pow,0100_pow_dnn_pow_dog_35_n02100583_3987.png,n02100583_3987.png,0.0,0.58884895,3.0342233,-1.7291409
alexnet_w3_mlp_simclrhn_probe3,1,101,NaN,elephant,elephant,pow,0101_pow_dnn_pow_elephant_35_n02504013_1702.png,n02504013_1702.png,1.0,4.969433,2.798316,1.5352114
alexnet_w3_mlp_simclrhn_probe3,1,102,NaN,oven,truck,pow,0102_pow_dnn_pow_truck_35_n03417042_1841.png,n03417042_1841.png,0.0,0.040602222,2.2339725,-1.5509471
alexnet_w3_mlp_simclrhn_probe3,1,103,NaN,truck,truck,0,0103_pow_dnn_0_truck_35_n03417042_2062.png,n03417042_2062.png,1.0,10.380999,4.526123,4.1400223
alexnet_w3_mlp_simclrhn_probe3,1,104,NaN,bottle,bottle,0,0104_pow_dnn_0_bottle_35_n03983396_4178.png,n03983396_4178.png,1.0,4.8207994,2.9903507,1.2943226
alexnet_w3_mlp_simclrhn_probe3,1,105,NaN,knife,keyboard,pow,0105_pow_dnn_pow_keyboard_35_n03085013_1698.png,n03085013_1698.png,0.0,-1.2236416,1.990409,-2.2726772
alexnet_w3_mlp_simclrhn_probe3,1,106,NaN,oven,car,pow,0106_pow_dnn_pow_car_35_n03100240_7056.png,n03100240_7056.png,0.0,0.18280531,1.8010559,-1.144276
alexnet_w3_mlp_simclrhn_probe3,1,107,NaN,bear,dog,pow,0107_pow_dnn_pow_dog_35_n02100735_3553.png,n02100735_3553.png,0.0,0.030003702,1.3797228,-0.9543956
alexnet_w3_mlp_simclrhn_probe3,1,108,NaN,oven,oven,pow,0108_pow_dnn_pow_oven_35_n04111531_11781.png,n04111531_11781.png,1.0,2.689603,1.1024504,1.1222864
alexnet_w3_mlp_simclrhn_probe3,1,109,NaN,cat,cat,0,0109_pow_dnn_0_cat_35_n02123159_4914.png,n02123159_4914.png,1.0,3.2026455,0.7923037,1.7043691
alexnet_w3_mlp_simclrhn_probe3,1,110,NaN,bear,dog,0,0110_pow_dnn_0_dog_35_n02090622_1852.png,n02090622_1852.png,0.0,0.34576562,0.8972583,-0.38996422
alexnet_w3_mlp_simclrhn_probe3,1,111,NaN,car,car,pow,0111_pow_dnn_pow_car_35_n03100240_24471.png,n03100240_24471.png,1.0,2.3245723,1.7802877,0.38486734
alexnet_w3_mlp_simclrhn_probe3,1,112,NaN,oven,boat,pow,0112_pow_dnn_pow_boat_35_n03344393_3519.png,n03344393_3519.png,0.0,0.8520025,1.433011,-0.4108351
alexnet_w3_mlp_simclrhn_probe3,1,113,NaN,oven,keyboard,pow,0113_pow_dnn_pow_keyboard_35_n03085013_22713.png,n03085013_22713.png,0.0,0.1253438,2.7975996,-1.8895702
alexnet_w3_mlp_simclrhn_probe3,1,114,NaN,bear,elephant,0,0114_pow_dnn_0_elephant_35_n02504013_6615.png,n02504013_6615.png,0.0,3.556252,4.5558963,-0.70685524
alexnet_w3_mlp_simclrhn_probe3,1,115,NaN,dog,cat,0,0115_pow_dnn_0_cat_35_n02123597_7081.png,n02123597_7081.png,0.0,0.5500407,1.290195,-0.5233681
alexnet_w3_mlp_simclrhn_probe3,1,116,NaN,clock,clock,pow,0116_pow_dnn_pow_clock_35_n04548280_5406.png,n04548280_5406.png,1.0,2.6309032,0.810011,1.2875652
alexnet_w3_mlp_simclrhn_probe3,1,117,NaN,oven,bottle,0,0117_pow_dnn_0_bottle_35_n03983396_21920.png,n03983396_21920.png,0.0,0.64087754,4.304689,-2.5907059
alexnet_w3_mlp_simclrhn_probe3,1,118,NaN,knife,knife,0,0118_pow_dnn_0_knife_35_n03041632_48675.png,n03041632_48675.png,1.0,3.085527,0.8189147,1.602737
alexnet_w3_mlp_simclrhn_probe3,1,119,NaN,bird,cat,0,0119_pow_dnn_0_cat_35_n02125311_2103.png,n02125311_2103.png,0.0,0.394135,0.7156359,-0.22733547
alexnet_w3_mlp_simclrhn_probe3,1,120,NaN,airplane,bird,pow,0120_pow_dnn_pow_bird_35_n01798484_962.png,n01798484_962.png,0.0,0.54986846,0.57891697,-0.020540394
alexnet_w3_mlp_simclrhn_probe3,1,121,NaN,oven,oven,pow,0121_pow_dnn_pow_oven_35_n04111531_6393.png,n04111531_6393.png,1.0,2.2514288,1.6201867,0.4463556
alexnet_w3_mlp_simclrhn_probe3,1,122,NaN,oven,oven,0,0122_pow_dnn_0_oven_35_n04111531_4418.png,n04111531_4418.png,1.0,5.2108946,1.311796,2.7570791
alexnet_w3_mlp_simclrhn_probe3,1,123,NaN,oven,truck,pow,0123_pow_dnn_pow_truck_35_n03796401_296.png,n03796401_296.png,0.0,-0.44939405,2.2373855,-1.89984
alexnet_w3_mlp_simclrhn_probe3,1,124,NaN,bicycle,bicycle,0,0124_pow_dnn_0_bicycle_35_n02835271_10738.png,n02835271_10738.png,1.0,7.2649612,0.67720544,4.658247
alexnet_w3_mlp_simclrhn_probe3,1,125,NaN,elephant,elephant,0,0125_pow_dnn_0_elephant_35_n02504013_4457.png,n02504013_4457.png,1.0,22.494398,6.461469,11.336992
alexnet_w3_mlp_simclrhn_probe3,1,126,NaN,knife,knife,0,0126_pow_dnn_0_knife_35_n03041632_30573.png,n03041632_30573.png,1.0,2.8748753,1.1993546,1.184772
alexnet_w3_mlp_simclrhn_probe3,1,127,NaN,boat,boat,0,0127_pow_dnn_0_boat_35_n03662601_19840.png,n03662601_19840.png,1.0,6.3964567,4.0975246,1.6255904
alexnet_w3_mlp_simclrhn_probe3,1,128,NaN,elephant,bear,0,0128_pow_dnn_0_bear_35_n02133161_12167.png,n02133161_12167.png,0.0,4.5162582,5.5230756,-0.71192735
alexnet_w3_mlp_simclrhn_probe3,1,129,NaN,keyboard,bottle,0,0129_pow_dnn_0_bottle_35_n02823428_3028.png,n02823428_3028.png,0.0,2.4580252,2.5811753,-0.08708028
alexnet_w3_mlp_simclrhn_probe3,1,130,NaN,boat,boat,0,0130_pow_dnn_0_boat_35_n02951358_30149.png,n02951358_30149.png,1.0,6.7795944,2.933671,2.7194786
alexnet_w3_mlp_simclrhn_probe3,1,131,NaN,car,car,0,0131_pow_dnn_0_car_35_n02814533_75419.png,n02814533_75419.png,1.0,10.6632185,3.7030754,4.9215646
alexnet_w3_mlp_simclrhn_probe3,1,132,NaN,keyboard,keyboard,0,0132_pow_dnn_0_keyboard_35_n03085013_24449.png,n03085013_24449.png,1.0,2.8499947,1.1621981,1.1934525
alexnet_w3_mlp_simclrhn_probe3,1,133,NaN,dog,dog,0,0133_pow_dnn_0_dog_35_n02086240_519.png,n02086240_519.png,1.0,2.5489914,0.73158616,1.2850996
alexnet_w3_mlp_simclrhn_probe3,1,134,NaN,bird,bird,pow,0134_pow_dnn_pow_bird_35_n01582220_2882.png,n01582220_2882.png,1.0,0.9451981,0.9275863,0.012453425
alexnet_w3_mlp_simclrhn_probe3,1,135,NaN,oven,oven,0,0135_pow_dnn_0_oven_35_n04111531_13277.png,n04111531_13277.png,1.0,4.777115,1.0798343,2.614372
alexnet_w3_mlp_simclrhn_probe3,1,136,NaN,bear,bear,pow,0136_pow_dnn_pow_bear_35_n02134084_6901.png,n02134084_6901.png,1.0,2.8021429,1.5404143,0.8921768
alexnet_w3_mlp_simclrhn_probe3,1,137,NaN,bear,bird,0,0137_pow_dnn_0_bird_35_n02002556_5447.png,n02002556_5447.png,0.0,0.81655777,0.9787037,-0.114654474
alexnet_w3_mlp_simclrhn_probe3,1,138,NaN,keyboard,keyboard,0,0138_pow_dnn_0_keyboard_35_n03085013_20710.png,n03085013_20710.png,1.0,5.834988,0.9911545,3.4251075
alexnet_w3_mlp_simclrhn_probe3,1,139,NaN,oven,oven,pow,0139_pow_dnn_pow_oven_35_n04111531_11405.png,n04111531_11405.png,1.0,2.8510318,0.7800097,1.4644338
alexnet_w3_mlp_simclrhn_probe3,1,140,NaN,elephant,bear,pow,0140_pow_dnn_pow_bear_35_n02132136_8457.png,n02132136_8457.png,0.0,2.65697,3.0020423,-0.24400295
alexnet_w3_mlp_simclrhn_probe3,1,141,NaN,bird,bird,pow,0141_pow_dnn_pow_bird_35_n02009912_6788.png,n02009912_6788.png,1.0,1.6747268,1.5478935,0.0896847
alexnet_w3_mlp_simclrhn_probe3,1,142,NaN,oven,chair,pow,0142_pow_dnn_pow_chair_35_n04429376_9630.png,n04429376_9630.png,0.0,0.035208493,1.5563558,-1.0756136
alexnet_w3_mlp_simclrhn_probe3,1,143,NaN,keyboard,keyboard,0,0143_pow_dnn_0_keyboard_35_n03085013_23658.png,n03085013_23658.png,1.0,5.7013855,2.0126429,2.608335
alexnet_w3_mlp_simclrhn_probe3,1,144,NaN,cat,cat,pow,0144_pow_dnn_pow_cat_35_n02123045_13199.png,n02123045_13199.png,1.0,2.4426582,1.4436979,0.7063716
alexnet_w3_mlp_simclrhn_probe3,1,145,NaN,bicycle,clock,pow,0145_pow_dnn_pow_clock_35_n04548280_6411.png,n04548280_6411.png,0.0,1.1956447,1.3435767,-0.10460368
alexnet_w3_mlp_simclrhn_probe3,1,146,NaN,bird,bird,0,0146_pow_dnn_0_bird_35_n01820546_9729.png,n01820546_9729.png,1.0,0.6297077,0.47108662,0.11216204
alexnet_w3_mlp_simclrhn_probe3,1,147,NaN,boat,boat,0,0147_pow_dnn_0_boat_35_n04273569_12651.png,n04273569_12651.png,1.0,5.360536,2.3506866,2.1282852
alexnet_w3_mlp_simclrhn_probe3,1,148,NaN,elephant,elephant,pow,0148_pow_dnn_pow_elephant_35_n02504458_3143.png,n02504458_3143.png,1.0,1.3370245,1.2101235,0.0897325
alexnet_w3_mlp_simclrhn_probe3,1,149,NaN,clock,clock,0,0149_pow_dnn_0_clock_35_n03196217_9786.png,n03196217_9786.png,1.0,7.6335883,3.1128647,3.1966343
alexnet_w3_mlp_simclrhn_probe3,1,150,NaN,airplane,chair,0,0150_pow_dnn_0_chair_35_n03376595_6652.png,n03376595_6652.png,0.0,0.6000215,1.0643022,-0.32829607
alexnet_w3_mlp_simclrhn_probe3,1,151,NaN,oven,bottle,pow,0151_pow_dnn_pow_bottle_35_n03983396_2998.png,n03983396_2998.png,0.0,0.3925763,1.831672,-1.0175943
alexnet_w3_mlp_simclrhn_probe3,1,152,NaN,elephant,elephant,0,0152_pow_dnn_0_elephant_35_n02504458_5331.png,n02504458_5331.png,1.0,14.521635,3.8597999,7.539056
alexnet_w3_mlp_simclrhn_probe3,1,153,NaN,car,car,0,0153_pow_dnn_0_car_35_n04285008_8052.png,n04285008_8052.png,1.0,9.781346,1.3012698,5.99632
alexnet_w3_mlp_simclrhn_probe3,1,154,NaN,oven,bottle,pow,0154_pow_dnn_pow_bottle_35_n04591713_3402.png,n04591713_3402.png,0.0,0.64347494,1.8777639,-0.87277406
alexnet_w3_mlp_simclrhn_probe3,1,155,NaN,oven,bicycle,pow,0155_pow_dnn_pow_bicycle_35_n02835271_1701.png,n02835271_1701.png,0.0,1.151831,1.7895616,-0.45094365
alexnet_w3_mlp_simclrhn_probe3,1,156,NaN,bicycle,bicycle,0,0156_pow_dnn_0_bicycle_35_n02835271_5196.png,n02835271_5196.png,1.0,15.349632,5.3584085,7.0648627
alexnet_w3_mlp_simclrhn_probe3,1,157,NaN,elephant,elephant,pow,0157_pow_dnn_pow_elephant_35_n02504458_5444.png,n02504458_5444.png,1.0,3.5352552,2.1544797,0.97635573
alexnet_w3_mlp_simclrhn_probe3,1,158,NaN,chair,truck,0,0158_pow_dnn_0_truck_35_n03417042_3422.png,n03417042_3422.png,0.0,1.9781518,3.294819,-0.93102443
alexnet_w3_mlp_simclrhn_probe3,1,159,NaN,elephant,dog,pow,0159_pow_dnn_pow_dog_35_n02088466_1537.png,n02088466_1537.png,0.0,0.72342247,1.4592857,-0.52033395
alexnet_w3_mlp_simclrhn_probe3,1,160,NaN,elephant,dog,pow,0160_pow_dnn_pow_dog_35_n02088632_1732.png,n02088632_1732.png,0.0,0.64856726,2.8925636,-1.5867451
alexnet_w3_mlp_simclrhn_probe3,1,161,NaN,car,truck,0,0161_pow_dnn_0_truck_35_n03796401_3326.png,n03796401_3326.png,0.0,1.9858146,2.5561588,-0.40329427
alexnet_w3_mlp_simclrhn_probe3,1,162,NaN,boat,boat,0,0162_pow_dnn_0_boat_35_n04273569_19796.png,n04273569_19796.png,1.0,10.637256,1.8475819,6.215238
alexnet_w3_mlp_simclrhn_probe3,1,163,NaN,keyboard,keyboard,pow,0163_pow_dnn_pow_keyboard_35_n04505470_5125.png,n04505470_5125.png,1.0,3.753047,1.216756,1.7934287
alexnet_w3_mlp_simclrhn_probe3,1,164,NaN,cat,cat,pow,0164_pow_dnn_pow_cat_35_n02123394_1817.png,n02123394_1817.png,1.0,1.3122109,1.1745248,0.0973588
alexnet_w3_mlp_simclrhn_probe3,1,165,NaN,cat,cat,pow,0165_pow_dnn_pow_cat_35_n02123159_7465.png,n02123159_7465.png,1.0,4.3820157,0.8831301,2.4740858
alexnet_w3_mlp_simclrhn_probe3,1,166,NaN,bear,cat,0,0166_pow_dnn_0_cat_35_n02125311_33516.png,n02125311_33516.png,0.0,-0.916133,1.9604952,-2.0340834
alexnet_w3_mlp_simclrhn_probe3,1,167,NaN,oven,bicycle,pow,0167_pow_dnn_pow_bicycle_35_n03792782_30246.png,n03792782_30246.png,0.0,0.36491317,0.96164286,-0.42195162
alexnet_w3_mlp_simclrhn_probe3,1,168,NaN,airplane,truck,0,0168_pow_dnn_0_truck_35_n04467665_72639.png,n04467665_72639.png,0.0,1.9408284,4.488472,-1.8014561
alexnet_w3_mlp_simclrhn_probe3,1,169,NaN,bicycle,bicycle,0,0169_pow_dnn_0_bicycle_35_n03792782_10395.png,n03792782_10395.png,1.0,9.209768,1.9882152,5.106409
alexnet_w3_mlp_simclrhn_probe3,1,170,NaN,bicycle,bicycle,pow,0170_pow_dnn_pow_bicycle_35_n02835271_840.png,n02835271_840.png,1.0,2.0229688,1.3637854,0.46611306
alexnet_w3_mlp_simclrhn_probe3,1,171,NaN,elephant,knife,pow,0171_pow_dnn_pow_knife_35_n03041632_82197.png,n03041632_82197.png,0.0,0.51695085,1.7513814,-0.8728742
alexnet_w3_mlp_simclrhn_probe3,1,172,NaN,oven,airplane,pow,0172_pow_dnn_pow_airplane_35_n02690373_8942.png,n02690373_8942.png,0.0,0.43533412,3.586151,-2.227964
alexnet_w3_mlp_simclrhn_probe3,1,173,NaN,oven,keyboard,0,0173_pow_dnn_0_keyboard_35_n03085013_21851.png,n03085013_21851.png,0.0,1.8166724,2.6047838,-0.5572789
alexnet_w3_mlp_simclrhn_probe3,1,174,NaN,clock,clock,pow,0174_pow_dnn_pow_clock_35_n04548280_1106.png,n04548280_1106.png,1.0,2.9100113,2.188389,0.510264
alexnet_w3_mlp_simclrhn_probe3,1,175,NaN,chair,truck,0,0175_pow_dnn_0_truck_35_n03796401_4181.png,n03796401_4181.png,0.0,1.5079942,2.127978,-0.43839484
alexnet_w3_mlp_simclrhn_probe3,1,176,NaN,oven,knife,pow,0176_pow_dnn_pow_knife_35_n03041632_44019.png,n03041632_44019.png,0.0,1.1076567,2.234546,-0.796831
alexnet_w3_mlp_simclrhn_probe3,1,177,NaN,truck,truck,0,0177_pow_dnn_0_truck_35_n03417042_1348.png,n03417042_1348.png,1.0,4.1628838,2.992705,0.8274413
alexnet_w3_mlp_simclrhn_probe3,1,178,NaN,chair,chair,0,0178_pow_dnn_0_chair_35_n04099969_10516.png,n04099969_10516.png,1.0,4.312204,1.3740261,2.0776055
alexnet_w3_mlp_simclrhn_probe3,1,179,NaN,oven,chair,pow,0179_pow_dnn_pow_chair_35_n04099969_24041.png,n04099969_24041.png,0.0,0.52352816,2.8102612,-1.6169646
alexnet_w3_mlp_simclrhn_probe3,1,180,NaN,oven,truck,pow,0180_pow_dnn_pow_truck_35_n03796401_3618.png,n03796401_3618.png,0.0,-0.1686545,3.6128664,-2.673939
alexnet_w3_mlp_simclrhn_probe3,1,181,NaN,elephant,elephant,0,0181_pow_dnn_0_elephant_35_n02504458_4414.png,n02504458_4414.png,1.0,15.578581,4.3470993,7.941857
alexnet_w3_mlp_simclrhn_probe3,1,182,NaN,oven,truck,pow,0182_pow_dnn_pow_truck_35_n03796401_3427.png,n03796401_3427.png,0.0,1.8774966,2.4329164,-0.3927411
alexnet_w3_mlp_simclrhn_probe3,1,183,NaN,cat,cat,0,0183_pow_dnn_0_cat_35_n02123045_9907.png,n02123045_9907.png,1.0,4.3263288,0.5720948,2.6546443
alexnet_w3_mlp_simclrhn_probe3,1,184,NaN,oven,oven,0,0184_pow_dnn_0_oven_35_n04111531_2156.png,n04111531_2156.png,1.0,4.178687,0.48983154,2.608415
alexnet_w3_mlp_simclrhn_probe3,1,185,NaN,bear,bird,pow,0185_pow_dnn_pow_bird_35_n02002556_12696.png,n02002556_12696.png,0.0,0.8537045,1.9567894,-0.7799988
alexnet_w3_mlp_simclrhn_probe3,1,186,NaN,oven,airplane,pow,0186_pow_dnn_pow_airplane_35_n02690373_8791.png,n02690373_8791.png,0.0,0.36219162,1.4114552,-0.74194133
alexnet_w3_mlp_simclrhn_probe3,1,187,NaN,oven,knife,pow,0187_pow_dnn_pow_knife_35_n03041632_27963.png,n03041632_27963.png,0.0,0.2971483,1.6102301,-0.928489
alexnet_w3_mlp_simclrhn_probe3,1,188,NaN,knife,chair,0,0188_pow_dnn_0_chair_35_n03376595_7772.png,n03376595_7772.png,0.0,1.2358732,1.7865039,-0.3893547
alexnet_w3_mlp_simclrhn_probe3,1,189,NaN,bear,boat,pow,0189_pow_dnn_pow_boat_35_n04273569_3460.png,n04273569_3460.png,0.0,-0.24219422,0.7518157,-0.70287114
alexnet_w3_mlp_simclrhn_probe3,1,190,NaN,oven,oven,0,0190_pow_dnn_0_oven_35_n04111531_5694.png,n04111531_5694.png,1.0,3.8667388,0.07758926,2.6793334
alexnet_w3_mlp_simclrhn_probe3,1,191,NaN,bear,bear,pow,0191_pow_dnn_pow_bear_35_n02134084_17218.png,n02134084_17218.png,1.0,2.2099323,2.0654979,0.102130584
alexnet_w3_mlp_simclrhn_probe3,1,192,NaN,oven,oven,pow,0192_pow_dnn_pow_oven_35_n04111531_2923.png,n04111531_2923.png,1.0,2.7591045,1.4328711,0.93778867
alexnet_w3_mlp_simclrhn_probe3,1,193,NaN,cat,keyboard,pow,0193_pow_dnn_pow_keyboard_35_n03085013_22669.png,n03085013_22669.png,0.0,0.2821642,0.4591463,-0.12514524
alexnet_w3_mlp_simclrhn_probe3,1,194,NaN,bottle,bottle,pow,0194_pow_dnn_pow_bottle_35_n04557648_2282.png,n04557648_2282.png,1.0,2.263046,1.5244787,0.522246
alexnet_w3_mlp_simclrhn_probe3,1,195,NaN,elephant,elephant,pow,0195_pow_dnn_pow_elephant_35_n02504013_6693.png,n02504013_6693.png,1.0,6.1359124,2.92572,2.269949
alexnet_w3_mlp_simclrhn_probe3,1,196,NaN,chair,chair,0,0196_pow_dnn_0_chair_35_n04099969_39507.png,n04099969_39507.png,1.0,1.5813124,0.99289113,0.4160767
alexnet_w3_mlp_simclrhn_probe3,1,197,NaN,oven,car,pow,0197_pow_dnn_pow_car_35_n02814533_61184.png,n02814533_61184.png,0.0,-0.7057039,2.714419,-2.4183922
alexnet_w3_mlp_simclrhn_probe3,1,198,NaN,oven,keyboard,pow,0198_pow_dnn_pow_keyboard_35_n04505470_1358.png,n04505470_1358.png,0.0,0.036201745,3.0514534,-2.1321049
alexnet_w3_mlp_simclrhn_probe3,1,199,NaN,oven,truck,pow,0199_pow_dnn_pow_truck_35_n04467665_8824.png,n04467665_8824.png,0.0,-0.16296528,2.8675847,-2.1429224
alexnet_w3_mlp_simclrhn_probe3,1,200,NaN,keyboard,keyboard,0,0200_pow_dnn_0_keyboard_35_n04505470_8937.png,n04505470_8937.png,1.0,3.4333944,1.7887198,1.1629606
alexnet_w3_mlp_simclrhn_probe3,1,201,NaN,oven,truck,pow,0201_pow_dnn_pow_truck_35_n03417042_7581.png,n03417042_7581.png,0.0,0.3384508,1.3150496,-0.6905597
alexnet_w3_mlp_simclrhn_probe3,1,202,NaN,bicycle,bicycle,pow,0202_pow_dnn_pow_bicycle_35_n02835271_13234.png,n02835271_13234.png,1.0,3.0625203,1.1427641,1.3574727
alexnet_w3_mlp_simclrhn_probe3,1,203,NaN,cat,cat,pow,0203_pow_dnn_pow_cat_35_n02124075_3383.png,n02124075_3383.png,1.0,5.673376,0.8295241,3.4251206
alexnet_w3_mlp_simclrhn_probe3,1,204,NaN,elephant,elephant,pow,0204_pow_dnn_pow_elephant_35_n02504013_474.png,n02504013_474.png,1.0,3.1273952,1.9303262,0.8464556
alexnet_w3_mlp_simclrhn_probe3,1,205,NaN,oven,chair,pow,0205_pow_dnn_pow_chair_35_n04429376_1838.png,n04429376_1838.png,0.0,0.07685952,2.1769354,-1.484978
alexnet_w3_mlp_simclrhn_probe3,1,206,NaN,bear,boat,pow,0206_pow_dnn_pow_boat_35_n02951358_5064.png,n02951358_5064.png,0.0,0.5841416,2.1932847,-1.1378361
alexnet_w3_mlp_simclrhn_probe3,1,207,NaN,elephant,knife,pow,0207_pow_dnn_pow_knife_35_n03041632_31037.png,n03041632_31037.png,0.0,0.4425426,1.4752567,-0.73023915
alexnet_w3_mlp_simclrhn_probe3,1,208,NaN,bear,cat,pow,0208_pow_dnn_pow_cat_35_n02123045_11501.png,n02123045_11501.png,0.0,0.40628755,0.80994046,-0.28542572
alexnet_w3_mlp_simclrhn_probe3,1,209,NaN,oven,keyboard,pow,0209_pow_dnn_pow_keyboard_35_n03085013_17937.png,n03085013_17937.png,0.0,-0.7524996,1.2917604,-1.4455101
alexnet_w3_mlp_simclrhn_probe3,1,210,NaN,chair,chair,0,0210_pow_dnn_0_chair_35_n03376595_10881.png,n03376595_10881.png,1.0,3.728069,3.6260135,0.07216417
alexnet_w3_mlp_simclrhn_probe3,1,211,NaN,elephant,elephant,0,0211_pow_dnn_0_elephant_35_n02504458_7302.png,n02504458_7302.png,1.0,17.502596,6.405367,7.846926
alexnet_w3_mlp_simclrhn_probe3,1,212,NaN,bear,airplane,pow,0212_pow_dnn_pow_airplane_35_n02690373_4704.png,n02690373_4704.png,0.0,0.71570194,1.8212138,-0.781715
alexnet_w3_mlp_simclrhn_probe3,1,213,NaN,car,car,0,0213_pow_dnn_0_car_35_n03100240_18756.png,n03100240_18756.png,1.0,13.048472,4.520925,6.029887
alexnet_w3_mlp_simclrhn_probe3,1,214,NaN,elephant,keyboard,pow,0214_pow_dnn_pow_keyboard_35_n03085013_20732.png,n03085013_20732.png,0.0,-0.3639071,1.2062604,-1.1102761
alexnet_w3_mlp_simclrhn_probe3,1,215,NaN,oven,bottle,pow,0215_pow_dnn_pow_bottle_35_n04579145_2999.png,n04579145_2999.png,0.0,2.0215821,2.5132868,-0.34768772
alexnet_w3_mlp_simclrhn_probe3,1,216,NaN,clock,clock,pow,0216_pow_dnn_pow_clock_35_n02708093_2546.png,n02708093_2546.png,1.0,1.7951599,0.84053594,0.6750211
alexnet_w3_mlp_simclrhn_probe3,1,217,NaN,boat,boat,0,0217_pow_dnn_0_boat_35_n03662601_13847.png,n03662601_13847.png,1.0,4.2091465,1.9224639,1.6169288
alexnet_w3_mlp_simclrhn_probe3,1,218,NaN,bicycle,bicycle,0,0218_pow_dnn_0_bicycle_35_n03792782_7878.png,n03792782_7878.png,1.0,15.48665,4.462018,7.7955923
alexnet_w3_mlp_simclrhn_probe3,1,219,NaN,bear,knife,pow,0219_pow_dnn_pow_knife_35_n03041632_18959.png,n03041632_18959.png,0.0,0.09502348,1.6638811,-1.1093498
alexnet_w3_mlp_simclrhn_probe3,1,220,NaN,bear,bear,0,0220_pow_dnn_0_bear_35_n02134418_10576.png,n02134418_10576.png,1.0,2.4774017,1.3603296,0.7898893
alexnet_w3_mlp_simclrhn_probe3,1,221,NaN,elephant,elephant,pow,0221_pow_dnn_pow_elephant_35_n02504013_213.png,n02504013_213.png,1.0,4.3891916,3.9937086,0.27964872
alexnet_w3_mlp_simclrhn_probe3,1,222,NaN,oven,bottle,pow,0222_pow_dnn_pow_bottle_35_n03983396_2944.png,n03983396_2944.png,0.0,0.068952695,2.4617264,-1.6919465
alexnet_w3_mlp_simclrhn_probe3,1,223,NaN,knife,truck,0,0223_pow_dnn_0_truck_35_n03796401_8964.png,n03796401_8964.png,0.0,0.2485649,2.8504338,-1.8397992
alexnet_w3_mlp_simclrhn_probe3,1,224,NaN,oven,knife,pow,0224_pow_dnn_pow_knife_35_n03041632_13509.png,n03041632_13509.png,0.0,0.7193869,1.6866518,-0.6839596
alexnet_w3_mlp_simclrhn_probe3,1,225,NaN,bear,bird,pow,0225_pow_dnn_pow_bird_35_n01537544_7301.png,n01537544_7301.png,0.0,-0.034076273,1.1480749,-0.83590704
alexnet_w3_mlp_simclrhn_probe3,1,226,NaN,elephant,elephant,0,0226_pow_dnn_0_elephant_35_n02504013_9618.png,n02504013_9618.png,1.0,8.869349,4.042657,3.4129865
alexnet_w3_mlp_simclrhn_probe3,1,227,NaN,oven,keyboard,pow,0227_pow_dnn_pow_keyboard_35_n04505470_10191.png,n04505470_10191.png,0.0,-0.7867266,1.6658076,-1.7342036
alexnet_w3_mlp_simclrhn_probe3,1,228,NaN,bicycle,bicycle,pow,0228_pow_dnn_pow_bicycle_35_n02835271_20149.png,n02835271_20149.png,1.0,2.823504,0.5341813,1.6187955
alexnet_w3_mlp_simclrhn_probe3,1,229,NaN,truck,truck,0,0229_pow_dnn_0_truck_35_n04467665_2098.png,n04467665_2098.png,1.0,7.4976463,1.6418464,4.1406755
alexnet_w3_mlp_simclrhn_probe3,1,230,NaN,bear,bear,0,0230_pow_dnn_0_bear_35_n02133161_5274.png,n02133161_5274.png,1.0,3.6688414,1.563662,1.4885865
alexnet_w3_mlp_simclrhn_probe3,1,231,NaN,oven,bird,pow,0231_pow_dnn_pow_bird_35_n01537544_20224.png,n01537544_20224.png,0.0,0.010216968,0.8456511,-0.59074116
alexnet_w3_mlp_simclrhn_probe3,1,232,NaN,airplane,dog,pow,0232_pow_dnn_pow_dog_35_n02094258_6800.png,n02094258_6800.png,0.0,-0.76397735,0.9837027,-1.2357965
alexnet_w3_mlp_simclrhn_probe3,1,233,NaN,truck,truck,0,0233_pow_dnn_0_truck_35_n03417042_27326.png,n03417042_27326.png,1.0,8.501568,0.6206329,5.5726624
alexnet_w3_mlp_simclrhn_probe3,1,234,NaN,oven,oven,pow,0234_pow_dnn_pow_oven_35_n04111531_6955.png,n04111531_6955.png,1.0,3.5599098,1.1566539,1.6993586
alexnet_w3_mlp_simclrhn_probe3,1,235,NaN,clock,clock,0,0235_pow_dnn_0_clock_35_n04548280_7135.png,n04548280_7135.png,1.0,3.0989268,1.544911,1.0988551
alexnet_w3_mlp_simclrhn_probe3,1,236,NaN,oven,dog,pow,0236_pow_dnn_pow_dog_35_n02113023_12143.png,n02113023_12143.png,0.0,-0.11931108,1.0795375,-0.847714
alexnet_w3_mlp_simclrhn_probe3,1,237,NaN,bicycle,bicycle,0,0237_pow_dnn_0_bicycle_35_n02835271_10832.png,n02835271_10832.png,1.0,8.793444,2.988586,4.1046543
alexnet_w3_mlp_simclrhn_probe3,1,238,NaN,oven,chair,pow,0238_pow_dnn_pow_chair_35_n02791124_28.png,n02791124_28.png,0.0,1.0275264,3.220004,-1.5503159
alexnet_w3_mlp_simclrhn_probe3,1,239,NaN,bicycle,bicycle,pow,0239_pow_dnn_pow_bicycle_35_n03792782_1715.png,n03792782_1715.png,1.0,4.032448,1.3320963,1.9094368
alexnet_w3_mlp_simclrhn_probe3,1,240,NaN,bicycle,bicycle,0,0240_pow_dnn_0_bicycle_35_n02835271_19875.png,n02835271_19875.png,1.0,8.68646,1.3138534,5.21322
alexnet_w3_mlp_simclrhn_probe3,1,241,NaN,bird,bird,0,0241_pow_dnn_0_bird_35_n02056570_8203.png,n02056570_8203.png,1.0,2.79244,0.39588177,1.6946226
alexnet_w3_mlp_simclrhn_probe3,1,242,NaN,oven,car,pow,0242_pow_dnn_pow_car_35_n02814533_27588.png,n02814533_27588.png,0.0,-0.21839714,2.1750531,-1.6924249
alexnet_w3_mlp_simclrhn_probe3,1,243,NaN,bear,bear,0,0243_pow_dnn_0_bear_35_n02134418_2714.png,n02134418_2714.png,1.0,4.6199837,3.244874,0.9723494
alexnet_w3_mlp_simclrhn_probe3,1,244,NaN,bear,bear,0,0244_pow_dnn_0_bear_35_n02132136_900.png,n02132136_900.png,1.0,4.819681,2.0290937,1.9732434
alexnet_w3_mlp_simclrhn_probe3,1,245,NaN,dog,dog,0,0245_pow_dnn_0_dog_35_n02095889_7413.png,n02095889_7413.png,1.0,1.4600613,0.80499315,0.46320313
alexnet_w3_mlp_simclrhn_probe3,1,246,NaN,boat,boat,0,0246_pow_dnn_0_boat_35_n02951358_14877.png,n02951358_14877.png,1.0,1.2146717,0.5955178,0.43780795
alexnet_w3_mlp_simclrhn_probe3,1,247,NaN,knife,knife,pow,0247_pow_dnn_pow_knife_35_n03041632_42472.png,n03041632_42472.png,1.0,1.2946041,1.1280336,0.11778308
alexnet_w3_mlp_simclrhn_probe3,1,248,NaN,bottle,bottle,pow,0248_pow_dnn_pow_bottle_35_n02823428_12740.png,n02823428_12740.png,1.0,3.3563447,1.5359523,1.2872118
alexnet_w3_mlp_simclrhn_probe3,1,249,NaN,boat,boat,0,0249_pow_dnn_0_boat_35_n02951358_2537.png,n02951358_2537.png,1.0,1.7341394,1.4871849,0.17462325
alexnet_w3_mlp_simclrhn_probe3,1,250,NaN,dog,dog,0,0250_pow_dnn_0_dog_35_n02106166_5135.png,n02106166_5135.png,1.0,2.4204957,1.7254765,0.49145284
alexnet_w3_mlp_simclrhn_probe3,1,251,NaN,oven,oven,pow,0251_pow_dnn_pow_oven_35_n04111531_23046.png,n04111531_23046.png,1.0,3.2370744,1.0523467,1.5448358
alexnet_w3_mlp_simclrhn_probe3,1,252,NaN,bear,dog,pow,0252_pow_dnn_pow_dog_35_n02105855_3310.png,n02105855_3310.png,0.0,1.3244855,1.7455032,-0.29770443
alexnet_w3_mlp_simclrhn_probe3,1,253,NaN,bird,bird,0,0253_pow_dnn_0_bird_35_n01843383_2122.png,n01843383_2122.png,1.0,2.3573573,0.4220264,1.3684856
alexnet_w3_mlp_simclrhn_probe3,1,254,NaN,oven,boat,pow,0254_pow_dnn_pow_boat_35_n03344393_8407.png,n03344393_8407.png,0.0,0.3931614,1.1321158,-0.5225197
alexnet_w3_mlp_simclrhn_probe3,1,255,NaN,clock,clock,pow,0255_pow_dnn_pow_clock_35_n04548280_4739.png,n04548280_4739.png,1.0,1.046316,0.25752813,0.55775726
alexnet_w3_mlp_simclrhn_probe3,1,256,NaN,keyboard,keyboard,0,0256_pow_dnn_0_keyboard_35_n04505470_3531.png,n04505470_3531.png,1.0,6.0585055,1.2542717,3.3971062
alexnet_w3_mlp_simclrhn_probe3,1,257,NaN,elephant,airplane,pow,0257_pow_dnn_pow_airplane_35_n02690373_7740.png,n02690373_7740.png,0.0,0.49228427,2.4815488,-1.4066224
alexnet_w3_mlp_simclrhn_probe3,1,258,NaN,bear,bear,pow,0258_pow_dnn_pow_bear_35_n02132136_4699.png,n02132136_4699.png,1.0,3.2090368,1.0306735,1.5403355
alexnet_w3_mlp_simclrhn_probe3,1,259,NaN,bear,airplane,pow,0259_pow_dnn_pow_airplane_35_n02690373_5277.png,n02690373_5277.png,0.0,1.3905816,1.797329,-0.2876138
alexnet_w3_mlp_simclrhn_probe3,1,260,NaN,knife,clock,pow,0260_pow_dnn_pow_clock_35_n04548280_8841.png,n04548280_8841.png,0.0,0.7601002,1.021494,-0.18483336
alexnet_w3_mlp_simclrhn_probe3,1,261,NaN,oven,truck,pow,0261_pow_dnn_pow_truck_35_n03796401_142.png,n03796401_142.png,0.0,-0.68517184,3.4910433,-2.95303
alexnet_w3_mlp_simclrhn_probe3,1,262,NaN,bear,bear,pow,0262_pow_dnn_pow_bear_35_n02134418_4666.png,n02134418_4666.png,1.0,0.98565036,0.44680014,0.38102463
alexnet_w3_mlp_simclrhn_probe3,1,263,NaN,chair,chair,0,0263_pow_dnn_0_chair_35_n04429376_17074.png,n04429376_17074.png,1.0,2.1764848,1.659676,0.36543906
alexnet_w3_mlp_simclrhn_probe3,1,264,NaN,dog,dog,0,0264_pow_dnn_0_dog_35_n02107683_1934.png,n02107683_1934.png,1.0,1.9684908,1.5264559,0.31256592
alexnet_w3_mlp_simclrhn_probe3,1,265,NaN,bicycle,bicycle,0,0265_pow_dnn_0_bicycle_35_n03792782_3765.png,n03792782_3765.png,1.0,3.1400528,0.79217744,1.6601986
alexnet_w3_mlp_simclrhn_probe3,1,266,NaN,elephant,elephant,pow,0266_pow_dnn_pow_elephant_35_n02504013_7026.png,n02504013_7026.png,1.0,7.4996448,2.9315088,3.2301602
alexnet_w3_mlp_simclrhn_probe3,1,267,NaN,oven,clock,pow,0267_pow_dnn_pow_clock_35_n03196217_3063.png,n03196217_3063.png,0.0,0.101079054,1.2117667,-0.78537476
alexnet_w3_mlp_simclrhn_probe3,1,268,NaN,bear,bear,pow,0268_pow_dnn_pow_bear_35_n02134418_1041.png,n02134418_1041.png,1.0,1.883335,1.5281118,0.2511807
alexnet_w3_mlp_simclrhn_probe3,1,269,NaN,boat,boat,pow,0269_pow_dnn_pow_boat_35_n03344393_8258.png,n03344393_8258.png,1.0,1.6020206,1.3487495,0.17908971
alexnet_w3_mlp_simclrhn_probe3,1,270,NaN,oven,oven,0,0270_pow_dnn_0_oven_35_n04111531_10306.png,n04111531_10306.png,1.0,6.509556,1.8630214,3.2855961
alexnet_w3_mlp_simclrhn_probe3,1,271,NaN,clock,bottle,0,0271_pow_dnn_0_bottle_35_n02823428_641.png,n02823428_641.png,0.0,2.782905,4.0181575,-0.87345535
alexnet_w3_mlp_simclrhn_probe3,1,272,NaN,oven,oven,pow,0272_pow_dnn_pow_oven_35_n04111531_1873.png,n04111531_1873.png,1.0,3.5781472,1.5489259,1.4348762
alexnet_w3_mlp_simclrhn_probe3,1,273,NaN,bear,bear,0,0273_pow_dnn_0_bear_35_n02134418_559.png,n02134418_559.png,1.0,4.9710245,1.5231295,2.43803
alexnet_w3_mlp_simclrhn_probe3,1,274,NaN,oven,keyboard,pow,0274_pow_dnn_pow_keyboard_35_n04505470_4844.png,n04505470_4844.png,0.0,1.1907846,2.483613,-0.91416776
alexnet_w3_mlp_simclrhn_probe3,1,275,NaN,keyboard,keyboard,0,0275_pow_dnn_0_keyboard_35_n03085013_23291.png,n03085013_23291.png,1.0,6.660802,3.0143692,2.5784173
alexnet_w3_mlp_simclrhn_probe3,1,276,NaN,car,car,0,0276_pow_dnn_0_car_35_n03100240_5808.png,n03100240_5808.png,1.0,9.741969,4.2134237,3.909272
alexnet_w3_mlp_simclrhn_probe3,1,277,NaN,boat,bear,0,0277_pow_dnn_0_bear_35_n02134084_15968.png,n02134084_15968.png,0.0,0.16324234,1.6663983,-1.0628917
alexnet_w3_mlp_simclrhn_probe3,1,278,NaN,bear,cat,0,0278_pow_dnn_0_cat_35_n02125311_20238.png,n02125311_20238.png,0.0,0.14582686,1.6128733,-1.0373585
alexnet_w3_mlp_simclrhn_probe3,1,279,NaN,bird,bird,0,0279_pow_dnn_0_bird_35_n02028035_8994.png,n02028035_8994.png,1.0,2.5335035,1.0466245,1.0513822
alexnet_w3_mlp_simclrhn_probe3,1,280,NaN,knife,airplane,pow,0280_pow_dnn_pow_airplane_35_n02690373_4471.png,n02690373_4471.png,0.0,0.49148428,1.21352,-0.5105564
alexnet_w3_mlp_simclrhn_probe3,1,281,NaN,car,truck,0,0281_pow_dnn_0_truck_35_n03796401_322.png,n03796401_322.png,0.0,2.0881455,9.299394,-5.0991225
alexnet_w3_mlp_simclrhn_probe3,1,282,NaN,oven,car,pow,0282_pow_dnn_pow_car_35_n04285008_402.png,n04285008_402.png,0.0,-0.8118265,2.2990227,-2.1997025
alexnet_w3_mlp_simclrhn_probe3,1,283,NaN,oven,oven,0,0283_pow_dnn_0_oven_35_n04111531_807.png,n04111531_807.png,1.0,3.989761,1.2146928,1.9622697
alexnet_w3_mlp_simclrhn_probe3,1,284,NaN,oven,oven,0,0284_pow_dnn_0_oven_35_n04111531_20369.png,n04111531_20369.png,1.0,6.356696,0.3671231,4.2352676
alexnet_w3_mlp_simclrhn_probe3,1,285,NaN,bear,knife,pow,0285_pow_dnn_pow_knife_35_n03041632_24114.png,n03041632_24114.png,0.0,0.41249126,2.300139,-1.3347684
alexnet_w3_mlp_simclrhn_probe3,1,286,NaN,elephant,dog,0,0286_pow_dnn_0_dog_35_n02093256_1102.png,n02093256_1102.png,0.0,0.63440144,1.4628282,-0.58578616
alexnet_w3_mlp_simclrhn_probe3,1,287,NaN,bottle,bottle,0,0287_pow_dnn_0_bottle_35_n03983396_17636.png,n03983396_17636.png,1.0,7.6583533,1.1731946,4.5857
alexnet_w3_mlp_simclrhn_probe3,1,288,NaN,bird,bird,0,0288_pow_dnn_0_bird_35_n01855672_55167.png,n01855672_55167.png,1.0,3.2702782,2.135482,0.80242205
alexnet_w3_mlp_simclrhn_probe3,1,289,NaN,keyboard,bottle,0,0289_pow_dnn_0_bottle_35_n02823428_1149.png,n02823428_1149.png,0.0,1.7907755,2.2258978,-0.3076779
alexnet_w3_mlp_simclrhn_probe3,1,290,NaN,oven,truck,pow,0290_pow_dnn_pow_truck_35_n03417042_1182.png,n03417042_1182.png,0.0,-0.16068467,3.0523837,-2.2719824
alexnet_w3_mlp_simclrhn_probe3,1,291,NaN,bear,bear,0,0291_pow_dnn_0_bear_35_n02134084_22051.png,n02134084_22051.png,1.0,4.1954527,4.038457,0.11101278
alexnet_w3_mlp_simclrhn_probe3,1,292,NaN,oven,cat,pow,0292_pow_dnn_pow_cat_35_n02123159_5170.png,n02123159_5170.png,0.0,0.3248265,1.3653088,-0.7357321
alexnet_w3_mlp_simclrhn_probe3,1,293,NaN,boat,airplane,pow,0293_pow_dnn_pow_airplane_35_n02690373_4042.png,n02690373_4042.png,0.0,1.3702904,1.4207245,-0.035662305
alexnet_w3_mlp_simclrhn_probe3,1,294,NaN,oven,airplane,pow,0294_pow_dnn_pow_airplane_35_n02690373_6231.png,n02690373_6231.png,0.0,0.3447637,2.363928,-1.4277648
alexnet_w3_mlp_simclrhn_probe3,1,295,NaN,bear,bear,0,0295_pow_dnn_0_bear_35_n02134418_4657.png,n02134418_4657.png,1.0,3.9799368,2.4284756,1.0970488
alexnet_w3_mlp_simclrhn_probe3,1,296,NaN,car,car,0,0296_pow_dnn_0_car_35_n03100240_24505.png,n03100240_24505.png,1.0,6.493879,4.2384996,1.5947939
alexnet_w3_mlp_simclrhn_probe3,1,297,NaN,bird,bird,0,0297_pow_dnn_0_bird_35_n02006656_4031.png,n02006656_4031.png,1.0,2.4411893,0.5338789,1.3486722
alexnet_w3_mlp_simclrhn_probe3,1,298,NaN,truck,truck,0,0298_pow_dnn_0_truck_35_n03796401_20861.png,n03796401_20861.png,1.0,5.9440384,2.3591413,2.534905
alexnet_w3_mlp_simclrhn_probe3,1,299,NaN,oven,truck,0,0299_pow_dnn_0_truck_35_n03417042_4934.png,n03417042_4934.png,0.0,1.6264064,4.9077015,-2.320226
alexnet_w3_mlp_simclrhn_probe3,1,300,NaN,bird,bird,0,0300_pow_dnn_0_bird_35_n01824575_3046.png,n01824575_3046.png,1.0,1.9545379,0.36322653,1.1252271
alexnet_w3_mlp_simclrhn_probe3,1,301,NaN,elephant,elephant,pow,0301_pow_dnn_pow_elephant_35_n02504458_3463.png,n02504458_3463.png,1.0,3.0940857,1.231136,1.3173044
alexnet_w3_mlp_simclrhn_probe3,1,302,NaN,airplane,airplane,0,0302_pow_dnn_0_airplane_35_n02690373_6914.png,n02690373_6914.png,1.0,9.428097,3.7874453,3.988543
alexnet_w3_mlp_simclrhn_probe3,1,303,NaN,bottle,bottle,0,0303_pow_dnn_0_bottle_35_n03983396_3675.png,n03983396_3675.png,1.0,2.7111852,0.78442067,1.3624283
alexnet_w3_mlp_simclrhn_probe3,1,304,NaN,elephant,dog,pow,0304_pow_dnn_pow_dog_35_n02088364_12272.png,n02088364_12272.png,0.0,0.64444846,1.9733438,-0.9396709
alexnet_w3_mlp_simclrhn_probe3,1,305,NaN,dog,dog,0,0305_pow_dnn_0_dog_35_n02085936_1706.png,n02085936_1706.png,1.0,1.0548825,1.0220472,0.023218108
alexnet_w3_mlp_simclrhn_probe3,1,306,NaN,elephant,bear,0,0306_pow_dnn_0_bear_35_n02134084_18372.png,n02134084_18372.png,0.0,3.6446319,3.9210227,-0.1954378
alexnet_w3_mlp_simclrhn_probe3,1,307,NaN,keyboard,keyboard,0,0307_pow_dnn_0_keyboard_35_n04505470_751.png,n04505470_751.png,1.0,4.1703596,1.3671647,1.9821582
alexnet_w3_mlp_simclrhn_probe3,1,308,NaN,bird,bird,0,0308_pow_dnn_0_bird_35_n02018207_19525.png,n02018207_19525.png,1.0,2.2009342,2.0214586,0.12690838
alexnet_w3_mlp_simclrhn_probe3,1,309,NaN,oven,bicycle,pow,0309_pow_dnn_pow_bicycle_35_n02835271_3329.png,n02835271_3329.png,0.0,-0.033927172,1.783181,-1.2848896
alexnet_w3_mlp_simclrhn_probe3,1,310,NaN,clock,clock,pow,0310_pow_dnn_pow_clock_35_n04548280_1960.png,n04548280_1960.png,1.0,2.7317288,1.0963455,1.1563905
alexnet_w3_mlp_simclrhn_probe3,1,311,NaN,chair,chair,0,0311_pow_dnn_0_chair_35_n03376595_6240.png,n03376595_6240.png,1.0,3.8790128,2.5747917,0.9222236
alexnet_w3_mlp_simclrhn_probe3,1,312,NaN,bear,knife,pow,0312_pow_dnn_pow_knife_35_n03041632_13194.png,n03041632_13194.png,0.0,0.5371227,1.3820782,-0.59747374
alexnet_w3_mlp_simclrhn_probe3,1,313,NaN,bicycle,knife,0,0313_pow_dnn_0_knife_35_n03041632_13465.png,n03041632_13465.png,0.0,-1.1678194,2.6699228,-2.7136936
alexnet_w3_mlp_simclrhn_probe3,1,314,NaN,cat,cat,pow,0314_pow_dnn_pow_cat_35_n02125311_10174.png,n02125311_10174.png,1.0,2.343875,1.542902,0.5663734
alexnet_w3_mlp_simclrhn_probe3,1,315,NaN,oven,car,pow,0315_pow_dnn_pow_car_35_n02814533_7420.png,n02814533_7420.png,0.0,-0.51735634,3.416623,-2.7817435
alexnet_w3_mlp_simclrhn_probe3,1,316,NaN,elephant,truck,pow,0316_pow_dnn_pow_truck_35_n04467665_3876.png,n04467665_3876.png,0.0,-0.48172382,1.4354535,-1.3556491
alexnet_w3_mlp_simclrhn_probe3,1,317,NaN,airplane,airplane,0,0317_pow_dnn_0_airplane_35_n02690373_12976.png,n02690373_12976.png,1.0,9.8178835,3.38067,4.5517974
alexnet_w3_mlp_simclrhn_probe3,1,318,NaN,bear,bear,pow,0318_pow_dnn_pow_bear_35_n02133161_10441.png,n02133161_10441.png,1.0,3.9458537,2.9422414,0.70966107
alexnet_w3_mlp_simclrhn_probe3,1,319,NaN,oven,chair,pow,0319_pow_dnn_pow_chair_35_n03376595_13703.png,n03376595_13703.png,0.0,0.29939047,1.085418,-0.55580544
alexnet_w3_mlp_simclrhn_probe3,1,320,NaN,bicycle,bicycle,pow,0320_pow_dnn_pow_bicycle_35_n03792782_11625.png,n03792782_11625.png,1.0,2.2935708,1.095954,0.846843
alexnet_w3_mlp_simclrhn_probe3,1,321,NaN,oven,oven,pow,0321_pow_dnn_pow_oven_35_n04111531_22797.png,n04111531_22797.png,1.0,1.618848,0.9987489,0.43847626
alexnet_w3_mlp_simclrhn_probe3,1,322,NaN,oven,chair,pow,0322_pow_dnn_pow_chair_35_n03376595_9651.png,n03376595_9651.png,0.0,0.48942792,2.1610682,-1.1820282
alexnet_w3_mlp_simclrhn_probe3,1,323,NaN,bicycle,bicycle,pow,0323_pow_dnn_pow_bicycle_35_n03792782_4830.png,n03792782_4830.png,1.0,0.88405985,0.87125957,0.009051163
alexnet_w3_mlp_simclrhn_probe3,1,324,NaN,elephant,elephant,pow,0324_pow_dnn_pow_elephant_35_n02504013_7191.png,n02504013_7191.png,1.0,1.4521085,1.2209145,0.16347887
alexnet_w3_mlp_simclrhn_probe3,1,325,NaN,knife,knife,0,0325_pow_dnn_0_knife_35_n03041632_120.png,n03041632_120.png,1.0,3.2475986,0.90376925,1.6573377
alexnet_w3_mlp_simclrhn_probe3,1,326,NaN,elephant,airplane,pow,0326_pow_dnn_pow_airplane_35_n02690373_5465.png,n02690373_5465.png,0.0,-0.24807107,1.1583744,-0.9945072
alexnet_w3_mlp_simclrhn_probe3,1,327,NaN,oven,car,pow,0327_pow_dnn_pow_car_35_n04285008_8443.png,n04285008_8443.png,0.0,1.4959415,2.0059376,-0.3606217
alexnet_w3_mlp_simclrhn_probe3,1,328,NaN,bottle,bottle,0,0328_pow_dnn_0_bottle_35_n04557648_132.png,n04557648_132.png,1.0,8.223655,0.33555728,5.5777273
alexnet_w3_mlp_simclrhn_probe3,1,329,NaN,airplane,airplane,pow,0329_pow_dnn_pow_airplane_35_n02690373_18304.png,n02690373_18304.png,1.0,1.054858,0.93647563,0.08370895
alexnet_w3_mlp_simclrhn_probe3,1,330,NaN,oven,knife,pow,0330_pow_dnn_pow_knife_35_n03041632_102764.png,n03041632_102764.png,0.0,0.6354233,1.1059234,-0.33269382
alexnet_w3_mlp_simclrhn_probe3,1,331,NaN,oven,chair,pow,0331_pow_dnn_pow_chair_35_n02791124_16913.png,n02791124_16913.png,0.0,1.1400578,2.861533,-1.2172668
alexnet_w3_mlp_simclrhn_probe3,1,332,NaN,bicycle,bicycle,pow,0332_pow_dnn_pow_bicycle_35_n02835271_324.png,n02835271_324.png,1.0,2.9266243,1.0691314,1.3134458
alexnet_w3_mlp_simclrhn_probe3,1,333,NaN,boat,airplane,pow,0333_pow_dnn_pow_airplane_35_n02690373_12966.png,n02690373_12966.png,0.0,1.5706218,1.7327379,-0.11463336
alexnet_w3_mlp_simclrhn_probe3,1,334,NaN,elephant,keyboard,pow,0334_pow_dnn_pow_keyboard_35_n03085013_24653.png,n03085013_24653.png,0.0,-0.8216726,1.3233074,-1.51673
alexnet_w3_mlp_simclrhn_probe3,1,335,NaN,bicycle,bicycle,0,0335_pow_dnn_0_bicycle_35_n03792782_18529.png,n03792782_18529.png,1.0,4.870507,1.0370404,2.7106702
alexnet_w3_mlp_simclrhn_probe3,1,336,NaN,elephant,airplane,pow,0336_pow_dnn_pow_airplane_35_n02690373_2433.png,n02690373_2433.png,0.0,1.8059983,1.9923863,-0.13179623
alexnet_w3_mlp_simclrhn_probe3,1,337,NaN,elephant,cat,0,0337_pow_dnn_0_cat_35_n02125311_28447.png,n02125311_28447.png,0.0,1.0322098,2.9331656,-1.3441788
alexnet_w3_mlp_simclrhn_probe3,1,338,NaN,knife,knife,0,0338_pow_dnn_0_knife_35_n03041632_20504.png,n03041632_20504.png,1.0,1.4664251,0.6681334,0.56447744
alexnet_w3_mlp_simclrhn_probe3,1,339,NaN,bear,bear,pow,0339_pow_dnn_pow_bear_35_n02132136_15870.png,n02132136_15870.png,1.0,0.85669005,0.35572386,0.3542366
alexnet_w3_mlp_simclrhn_probe3,1,340,NaN,car,car,0,0340_pow_dnn_0_car_35_n02814533_11273.png,n02814533_11273.png,1.0,6.8407655,4.8535,1.405209
alexnet_w3_mlp_simclrhn_probe3,1,341,NaN,elephant,elephant,0,0341_pow_dnn_0_elephant_35_n02504013_2476.png,n02504013_2476.png,1.0,17.259792,4.3598657,9.121626
alexnet_w3_mlp_simclrhn_probe3,1,342,NaN,bear,bear,0,0342_pow_dnn_0_bear_35_n02133161_14945.png,n02133161_14945.png,1.0,0.9587506,0.7676728,0.13511243
alexnet_w3_mlp_simclrhn_probe3,1,343,NaN,car,car,0,0343_pow_dnn_0_car_35_n04285008_7870.png,n04285008_7870.png,1.0,4.2924805,3.8343046,0.3239793
alexnet_w3_mlp_simclrhn_probe3,1,344,NaN,airplane,airplane,0,0344_pow_dnn_0_airplane_35_n02690373_10129.png,n02690373_10129.png,1.0,7.8789964,4.342688,2.5005476
alexnet_w3_mlp_simclrhn_probe3,1,345,NaN,oven,truck,pow,0345_pow_dnn_pow_truck_35_n03417042_1479.png,n03417042_1479.png,0.0,-0.37130904,1.3220494,-1.1973852
alexnet_w3_mlp_simclrhn_probe3,1,346,NaN,bear,boat,pow,0346_pow_dnn_pow_boat_35_n04612504_10662.png,n04612504_10662.png,0.0,0.8364232,1.1475692,-0.22001342
alexnet_w3_mlp_simclrhn_probe3,1,347,NaN,bird,bird,0,0347_pow_dnn_0_bird_35_n02056570_5891.png,n02056570_5891.png,1.0,3.6057692,0.52844244,2.1759987
alexnet_w3_mlp_simclrhn_probe3,1,348,NaN,elephant,elephant,pow,0348_pow_dnn_pow_elephant_35_n02504458_5982.png,n02504458_5982.png,1.0,4.572715,2.5845966,1.4058119
alexnet_w3_mlp_simclrhn_probe3,1,349,NaN,oven,truck,pow,0349_pow_dnn_pow_truck_35_n03417042_19955.png,n03417042_19955.png,0.0,0.80313814,1.5086584,-0.49887818
alexnet_w3_mlp_simclrhn_probe3,1,350,NaN,oven,oven,0,0350_pow_dnn_0_oven_35_n04111531_6120.png,n04111531_6120.png,1.0,8.037199,1.2954872,4.76711
alexnet_w3_mlp_simclrhn_probe3,1,351,NaN,oven,oven,0,0351_pow_dnn_0_oven_35_n04111531_4750.png,n04111531_4750.png,1.0,2.3162713,0.7047131,1.1395438
alexnet_w3_mlp_simclrhn_probe3,1,352,NaN,boat,boat,0,0352_pow_dnn_0_boat_35_n02951358_29779.png,n02951358_29779.png,1.0,8.67523,2.7630765,4.180524
alexnet_w3_mlp_simclrhn_probe3,1,353,NaN,bear,bear,0,0353_pow_dnn_0_bear_35_n02134084_14168.png,n02134084_14168.png,1.0,2.5934453,1.4689972,0.79510486
alexnet_w3_mlp_simclrhn_probe3,1,354,NaN,cat,cat,0,0354_pow_dnn_0_cat_35_n02123597_6990.png,n02123597_6990.png,1.0,2.3306053,0.9575682,0.97088385
alexnet_w3_mlp_simclrhn_probe3,1,355,NaN,chair,chair,0,0355_pow_dnn_0_chair_35_n02791124_2008.png,n02791124_2008.png,1.0,4.689106,1.0117239,2.6003017
alexnet_w3_mlp_simclrhn_probe3,1,356,NaN,oven,car,pow,0356_pow_dnn_pow_car_35_n04285008_2185.png,n04285008_2185.png,0.0,-0.69192094,2.3978944,-2.1848295
alexnet_w3_mlp_simclrhn_probe3,1,357,NaN,bear,bear,0,0357_pow_dnn_0_bear_35_n02134084_13205.png,n02134084_13205.png,1.0,2.0933888,1.7627842,0.23377272
alexnet_w3_mlp_simclrhn_probe3,1,358,NaN,elephant,bird,pow,0358_pow_dnn_pow_bird_35_n01558993_6351.png,n01558993_6351.png,0.0,-0.016848097,1.5186343,-1.08575
alexnet_w3_mlp_simclrhn_probe3,1,359,NaN,car,bicycle,0,0359_pow_dnn_0_bicycle_35_n02835271_8017.png,n02835271_8017.png,0.0,2.803101,5.8499813,-2.1544697
alexnet_w3_mlp_simclrhn_probe3,1,360,NaN,cat,cat,0,0360_pow_dnn_0_cat_35_n02124075_4189.png,n02124075_4189.png,1.0,12.171634,1.0884764,7.836976
alexnet_w3_mlp_simclrhn_probe3,1,361,NaN,elephant,elephant,pow,0361_pow_dnn_pow_elephant_35_n02504458_3616.png,n02504458_3616.png,1.0,9.336235,4.0219736,3.7577503
alexnet_w3_mlp_simclrhn_probe3,1,362,NaN,boat,boat,pow,0362_pow_dnn_pow_boat_35_n04612504_8636.png,n04612504_8636.png,1.0,2.655243,1.1939077,1.0333201
alexnet_w3_mlp_simclrhn_probe3,1,363,NaN,oven,car,pow,0363_pow_dnn_pow_car_35_n03100240_10502.png,n03100240_10502.png,0.0,-0.68044496,3.3630147,-2.859158
alexnet_w3_mlp_simclrhn_probe3,1,364,NaN,bottle,bottle,0,0364_pow_dnn_0_bottle_35_n03983396_2271.png,n03983396_2271.png,1.0,1.1246091,0.7315353,0.27794516
alexnet_w3_mlp_simclrhn_probe3,1,365,NaN,clock,clock,0,0365_pow_dnn_0_clock_35_n04548280_280.png,n04548280_280.png,1.0,3.9861364,1.868803,1.4971808
alexnet_w3_mlp_simclrhn_probe3,1,366,NaN,airplane,truck,0,0366_pow_dnn_0_truck_35_n04467665_356.png,n04467665_356.png,0.0,0.73404324,4.127015,-2.3991935
alexnet_w3_mlp_simclrhn_probe3,1,367,NaN,airplane,airplane,0,0367_pow_dnn_0_airplane_35_n02690373_306.png,n02690373_306.png,1.0,13.469655,3.3939402,7.1246066
alexnet_w3_mlp_simclrhn_probe3,1,368,NaN,elephant,bird,pow,0368_pow_dnn_pow_bird_35_n02007558_11331.png,n02007558_11331.png,0.0,0.87416357,3.4625692,-1.8302792
alexnet_w3_mlp_simclrhn_probe3,1,369,NaN,cat,dog,0,0369_pow_dnn_0_dog_35_n02105162_1003.png,n02105162_1003.png,0.0,0.4473992,0.81425923,-0.25940922
alexnet_w3_mlp_simclrhn_probe3,1,370,NaN,oven,bird,pow,0370_pow_dnn_pow_bird_35_n01534433_11695.png,n01534433_11695.png,0.0,0.1036892,2.321437,-1.5681845
alexnet_w3_mlp_simclrhn_probe3,1,371,NaN,oven,oven,0,0371_pow_dnn_0_oven_35_n04111531_19631.png,n04111531_19631.png,1.0,7.1851435,3.090441,2.8953922
alexnet_w3_mlp_simclrhn_probe3,1,372,NaN,elephant,elephant,pow,0372_pow_dnn_pow_elephant_35_n02504013_8534.png,n02504013_8534.png,1.0,3.2671525,1.740725,1.0793473
alexnet_w3_mlp_simclrhn_probe3,1,373,NaN,keyboard,oven,0,0373_pow_dnn_0_oven_35_n04111531_10436.png,n04111531_10436.png,0.0,0.57253504,2.325162,-1.2392944
alexnet_w3_mlp_simclrhn_probe3,1,374,NaN,airplane,airplane,pow,0374_pow_dnn_pow_airplane_35_n02690373_1819.png,n02690373_1819.png,1.0,1.8212745,1.3787436,0.31291658
alexnet_w3_mlp_simclrhn_probe3,1,375,NaN,cat,cat,0,0375_pow_dnn_0_cat_35_n02123597_14032.png,n02123597_14032.png,1.0,1.5289243,1.0321131,0.35129863
alexnet_w3_mlp_simclrhn_probe3,1,376,NaN,elephant,elephant,0,0376_pow_dnn_0_elephant_35_n02504013_10922.png,n02504013_10922.png,1.0,3.9409282,2.511734,1.0105929
alexnet_w3_mlp_simclrhn_probe3,1,377,NaN,boat,boat,0,0377_pow_dnn_0_boat_35_n03662601_81.png,n03662601_81.png,1.0,4.254718,1.9065692,1.6603918
alexnet_w3_mlp_simclrhn_probe3,1,378,NaN,oven,bottle,pow,0378_pow_dnn_pow_bottle_35_n03937543_11347.png,n03937543_11347.png,0.0,1.8771118,2.2151682,-0.23904201
alexnet_w3_mlp_simclrhn_probe3,1,379,NaN,bear,knife,pow,0379_pow_dnn_pow_knife_35_n03041632_85416.png,n03041632_85416.png,0.0,0.26546228,1.86206,-1.128965
alexnet_w3_mlp_simclrhn_probe3,1,380,NaN,car,car,pow,0380_pow_dnn_pow_car_35_n03100240_15676.png,n03100240_15676.png,1.0,1.7555437,1.2410922,0.36377215
alexnet_w3_mlp_simclrhn_probe3,1,381,NaN,oven,oven,0,0381_pow_dnn_0_oven_35_n04111531_4189.png,n04111531_4189.png,1.0,4.204056,1.4720094,1.9318485
alexnet_w3_mlp_simclrhn_probe3,1,382,NaN,oven,car,pow,0382_pow_dnn_pow_car_35_n02814533_65623.png,n02814533_65623.png,0.0,1.2655176,1.889156,-0.44097894
alexnet_w3_mlp_simclrhn_probe3,1,383,NaN,airplane,airplane,0,0383_pow_dnn_0_airplane_35_n02690373_4945.png,n02690373_4945.png,1.0,18.028133,1.2828807,11.840682
alexnet_w3_mlp_simclrhn_probe3,1,384,NaN,bicycle,dog,0,0384_pow_dnn_0_dog_35_n02088364_5801.png,n02088364_5801.png,0.0,0.721415,2.5725236,-1.3089315
alexnet_w3_mlp_simclrhn_probe3,1,385,NaN,bear,dog,pow,0385_pow_dnn_pow_dog_35_n02108915_8164.png,n02108915_8164.png,0.0,0.43509215,1.0381842,-0.42645046
alexnet_w3_mlp_simclrhn_probe3,1,386,NaN,car,car,0,0386_pow_dnn_0_car_35_n03100240_1435.png,n03100240_1435.png,1.0,14.799309,12.265289,1.7918224
alexnet_w3_mlp_simclrhn_probe3,1,387,NaN,clock,clock,0,0387_pow_dnn_0_clock_35_n03196217_412.png,n03196217_412.png,1.0,1.4475803,1.0893266,0.25332364
alexnet_w3_mlp_simclrhn_probe3,1,388,NaN,oven,boat,pow,0388_pow_dnn_pow_boat_35_n03344393_6713.png,n03344393_6713.png,0.0,0.32883462,0.60761607,-0.19712825
alexnet_w3_mlp_simclrhn_probe3,1,389,NaN,keyboard,knife,0,0389_pow_dnn_0_knife_35_n03041632_4305.png,n03041632_4305.png,0.0,0.9053505,1.341903,-0.3086892
alexnet_w3_mlp_simclrhn_probe3,1,390,NaN,oven,car,pow,0390_pow_dnn_pow_car_35_n04285008_10287.png,n04285008_10287.png,0.0,-0.7050033,2.8748755,-2.5313566
alexnet_w3_mlp_simclrhn_probe3,1,391,NaN,oven,car,pow,0391_pow_dnn_pow_car_35_n04285008_15071.png,n04285008_15071.png,0.0,-0.5784328,1.7834605,-1.6701107
alexnet_w3_mlp_simclrhn_probe3,1,392,NaN,oven,knife,pow,0392_pow_dnn_pow_knife_35_n03041632_22214.png,n03041632_22214.png,0.0,1.2087579,1.5751061,-0.25904736
alexnet_w3_mlp_simclrhn_probe3,1,393,NaN,boat,boat,pow,0393_pow_dnn_pow_boat_35_n04612504_3064.png,n04612504_3064.png,1.0,2.134852,0.9317564,0.85071707
alexnet_w3_mlp_simclrhn_probe3,1,394,NaN,chair,chair,0,0394_pow_dnn_0_chair_35_n02791124_7193.png,n02791124_7193.png,1.0,4.551024,0.7931525,2.6572163
alexnet_w3_mlp_simclrhn_probe3,1,395,NaN,boat,boat,0,0395_pow_dnn_0_boat_35_n03344393_5511.png,n03344393_5511.png,1.0,12.321884,2.6582706,6.8332067
alexnet_w3_mlp_simclrhn_probe3,1,396,NaN,boat,boat,pow,0396_pow_dnn_pow_boat_35_n04273569_11997.png,n04273569_11997.png,1.0,1.9952425,1.7202079,0.1944788
alexnet_w3_mlp_simclrhn_probe3,1,397,NaN,bicycle,bicycle,0,0397_pow_dnn_0_bicycle_35_n03792782_1424.png,n03792782_1424.png,1.0,2.8835073,0.52505046,1.6676809
alexnet_w3_mlp_simclrhn_probe3,1,398,NaN,oven,clock,pow,0398_pow_dnn_pow_clock_35_n03196217_3362.png,n03196217_3362.png,0.0,0.0059862235,2.359668,-1.6643044
alexnet_w3_mlp_simclrhn_probe3,1,399,NaN,oven,truck,pow,0399_pow_dnn_pow_truck_35_n04467665_21942.png,n04467665_21942.png,0.0,-0.218025,1.436238,-1.1697407
alexnet_w3_mlp_simclrhn_probe3,1,400,NaN,oven,oven,0,0400_pow_dnn_0_oven_35_n04111531_6445.png,n04111531_6445.png,1.0,6.9771338,2.2696943,3.3286624
alexnet_w3_mlp_simclrhn_probe3,1,401,NaN,chair,chair,0,0401_pow_dnn_0_chair_35_n04099969_1163.png,n04099969_1163.png,1.0,5.560006,1.2055387,3.0790734
alexnet_w3_mlp_simclrhn_probe3,1,402,NaN,clock,clock,pow,0402_pow_dnn_pow_clock_35_n02708093_3645.png,n02708093_3645.png,1.0,3.3831527,1.1817372,1.5566359
alexnet_w3_mlp_simclrhn_probe3,1,403,NaN,bicycle,bicycle,0,0403_pow_dnn_0_bicycle_35_n03792782_68319.png,n03792782_68319.png,1.0,12.389489,2.0256338,7.3283525
alexnet_w3_mlp_simclrhn_probe3,1,404,NaN,elephant,dog,pow,0404_pow_dnn_pow_dog_35_n02111129_513.png,n02111129_513.png,0.0,0.8408748,1.2225132,-0.2698591
alexnet_w3_mlp_simclrhn_probe3,1,405,NaN,airplane,airplane,pow,0405_pow_dnn_pow_airplane_35_n02690373_2676.png,n02690373_2676.png,1.0,2.307176,1.1916023,0.7888298
alexnet_w3_mlp_simclrhn_probe3,1,406,NaN,airplane,airplane,0,0406_pow_dnn_0_airplane_35_n02690373_1206.png,n02690373_1206.png,1.0,2.0458963,0.49893862,1.0938643
alexnet_w3_mlp_simclrhn_probe3,1,407,NaN,dog,dog,0,0407_pow_dnn_0_dog_35_n02100735_1445.png,n02100735_1445.png,1.0,2.5813224,1.5189011,0.7512453
alexnet_w3_mlp_simclrhn_probe3,1,408,NaN,bear,dog,pow,0408_pow_dnn_pow_dog_35_n02102040_312.png,n02102040_312.png,0.0,0.8539875,1.3166858,-0.3271771
alexnet_w3_mlp_simclrhn_probe3,1,409,NaN,keyboard,keyboard,0,0409_pow_dnn_0_keyboard_35_n03085013_22996.png,n03085013_22996.png,1.0,9.941307,2.6553845,5.151925
alexnet_w3_mlp_simclrhn_probe3,1,410,NaN,boat,boat,0,0410_pow_dnn_0_boat_35_n04612504_434.png,n04612504_434.png,1.0,5.8133974,3.2005649,1.8475516
alexnet_w3_mlp_simclrhn_probe3,1,411,NaN,cat,cat,0,0411_pow_dnn_0_cat_35_n02123597_14639.png,n02123597_14639.png,1.0,3.4729757,1.9044492,1.1091157
alexnet_w3_mlp_simclrhn_probe3,1,412,NaN,cat,cat,pow,0412_pow_dnn_pow_cat_35_n02123159_2043.png,n02123159_2043.png,1.0,2.7179043,0.59320235,1.5023912
alexnet_w3_mlp_simclrhn_probe3,1,413,NaN,oven,clock,pow,0413_pow_dnn_pow_clock_35_n03196217_3647.png,n03196217_3647.png,0.0,-0.16881418,3.3674202,-2.5004954
alexnet_w3_mlp_simclrhn_probe3,1,414,NaN,oven,oven,0,0414_pow_dnn_0_oven_35_n04111531_19795.png,n04111531_19795.png,1.0,3.8293512,0.45815325,2.383797
alexnet_w3_mlp_simclrhn_probe3,1,415,NaN,oven,truck,pow,0415_pow_dnn_pow_truck_35_n03417042_18625.png,n03417042_18625.png,0.0,-0.597626,1.976855,-1.820433
alexnet_w3_mlp_simclrhn_probe3,1,416,NaN,elephant,elephant,pow,0416_pow_dnn_pow_elephant_35_n02504013_1763.png,n02504013_1763.png,1.0,1.8200552,1.0244205,0.5625987
alexnet_w3_mlp_simclrhn_probe3,1,417,NaN,chair,chair,0,0417_pow_dnn_0_chair_35_n04099969_13105.png,n04099969_13105.png,1.0,3.3502266,1.7107651,1.1592743
alexnet_w3_mlp_simclrhn_probe3,1,418,NaN,elephant,bicycle,pow,0418_pow_dnn_pow_bicycle_35_n03792782_4931.png,n03792782_4931.png,0.0,0.6300619,1.3402593,-0.5021854
alexnet_w3_mlp_simclrhn_probe3,1,419,NaN,bear,bear,0,0419_pow_dnn_0_bear_35_n02134418_4513.png,n02134418_4513.png,1.0,3.325143,0.81185335,1.7771642
alexnet_w3_mlp_simclrhn_probe3,1,420,NaN,cat,cat,pow,0420_pow_dnn_pow_cat_35_n02123045_11224.png,n02123045_11224.png,1.0,5.6539435,1.4218754,2.9925241
alexnet_w3_mlp_simclrhn_probe3,1,421,NaN,oven,chair,0,0421_pow_dnn_0_chair_35_n02791124_359.png,n02791124_359.png,0.0,1.5158535,2.4879625,-0.68738484
alexnet_w3_mlp_simclrhn_probe3,1,422,NaN,knife,clock,pow,0422_pow_dnn_pow_clock_35_n04548280_2654.png,n04548280_2654.png,0.0,0.27645102,1.9606485,-1.1909075
alexnet_w3_mlp_simclrhn_probe3,1,423,NaN,bear,cat,pow,0423_pow_dnn_pow_cat_35_n02123394_4713.png,n02123394_4713.png,0.0,0.7424454,1.0917177,-0.24697283
alexnet_w3_mlp_simclrhn_probe3,1,424,NaN,bear,bottle,pow,0424_pow_dnn_pow_bottle_35_n04557648_94.png,n04557648_94.png,0.0,-0.2156194,2.517129,-1.9323449
alexnet_w3_mlp_simclrhn_probe3,1,425,NaN,chair,chair,0,0425_pow_dnn_0_chair_35_n04099969_15676.png,n04099969_15676.png,1.0,4.62711,1.3173976,2.34032
alexnet_w3_mlp_simclrhn_probe3,1,426,NaN,oven,boat,pow,0426_pow_dnn_pow_boat_35_n02951358_537.png,n02951358_537.png,0.0,0.66312015,2.3091125,-1.1638924
alexnet_w3_mlp_simclrhn_probe3,1,427,NaN,clock,clock,0,0427_pow_dnn_0_clock_35_n03196217_1376.png,n03196217_1376.png,1.0,1.9817818,1.4166064,0.39963937
alexnet_w3_mlp_simclrhn_probe3,1,428,NaN,oven,chair,pow,0428_pow_dnn_pow_chair_35_n02791124_1594.png,n02791124_1594.png,0.0,0.38805223,2.8241498,-1.7225811
alexnet_w3_mlp_simclrhn_probe3,1,429,NaN,bird,bird,0,0429_pow_dnn_0_bird_35_n02007558_7112.png,n02007558_7112.png,1.0,2.5380003,2.0049324,0.37693596
alexnet_w3_mlp_simclrhn_probe3,1,430,NaN,bicycle,bicycle,0,0430_pow_dnn_0_bicycle_35_n02835271_6094.png,n02835271_6094.png,1.0,12.146355,0.2804947,8.39043
alexnet_w3_mlp_simclrhn_probe3,1,431,NaN,oven,airplane,pow,0431_pow_dnn_pow_airplane_35_n02690373_7676.png,n02690373_7676.png,0.0,1.0275433,1.608917,-0.4110933
alexnet_w3_mlp_simclrhn_probe3,1,432,NaN,cat,cat,pow,0432_pow_dnn_pow_cat_35_n02123045_3375.png,n02123045_3375.png,1.0,5.0182905,1.0546967,2.8026843
alexnet_w3_mlp_simclrhn_probe3,1,433,NaN,bicycle,bicycle,0,0433_pow_dnn_0_bicycle_35_n02835271_15617.png,n02835271_15617.png,1.0,14.478214,6.433459,5.6885014
alexnet_w3_mlp_simclrhn_probe3,1,434,NaN,oven,oven,pow,0434_pow_dnn_pow_oven_35_n04111531_4904.png,n04111531_4904.png,1.0,2.3743355,1.2732942,0.7785538
alexnet_w3_mlp_simclrhn_probe3,1,435,NaN,boat,boat,0,0435_pow_dnn_0_boat_35_n02951358_5718.png,n02951358_5718.png,1.0,2.7094848,0.6350727,1.4668308
alexnet_w3_mlp_simclrhn_probe3,1,436,NaN,bear,elephant,pow,0436_pow_dnn_pow_elephant_35_n02504013_7467.png,n02504013_7467.png,0.0,1.3455398,1.5358148,-0.13454472
alexnet_w3_mlp_simclrhn_probe3,1,437,NaN,elephant,elephant,pow,0437_pow_dnn_pow_elephant_35_n02504013_1830.png,n02504013_1830.png,1.0,14.660387,5.4570775,6.507723
alexnet_w3_mlp_simclrhn_probe3,1,438,NaN,truck,car,0,0438_pow_dnn_0_car_35_n02814533_59762.png,n02814533_59762.png,0.0,4.74877,5.593494,-0.5973099
alexnet_w3_mlp_simclrhn_probe3,1,439,NaN,oven,bicycle,pow,0439_pow_dnn_pow_bicycle_35_n02835271_771.png,n02835271_771.png,0.0,-0.13014448,2.1355252,-1.6020706
alexnet_w3_mlp_simclrhn_probe3,1,440,NaN,oven,bicycle,pow,0440_pow_dnn_pow_bicycle_35_n02835271_4313.png,n02835271_4313.png,0.0,0.30494744,1.5110487,-0.85284233
alexnet_w3_mlp_simclrhn_probe3,1,441,NaN,bear,bear,0,0441_pow_dnn_0_bear_35_n02132136_891.png,n02132136_891.png,1.0,8.903803,7.129466,1.2546456
alexnet_w3_mlp_simclrhn_probe3,1,442,NaN,bear,bear,pow,0442_pow_dnn_pow_bear_35_n02132136_18276.png,n02132136_18276.png,1.0,2.495694,1.1809688,0.9296511
alexnet_w3_mlp_simclrhn_probe3,1,443,NaN,elephant,elephant,pow,0443_pow_dnn_pow_elephant_35_n02504013_2865.png,n02504013_2865.png,1.0,5.6019893,2.9050608,1.9070165
alexnet_w3_mlp_simclrhn_probe3,1,444,NaN,boat,boat,0,0444_pow_dnn_0_boat_35_n03662601_10120.png,n03662601_10120.png,1.0,8.127787,1.8429819,4.4440284
alexnet_w3_mlp_simclrhn_probe3,1,445,NaN,knife,bottle,pow,0445_pow_dnn_pow_bottle_35_n03983396_4241.png,n03983396_4241.png,0.0,0.51564866,0.90034413,-0.2720208
alexnet_w3_mlp_simclrhn_probe3,1,446,NaN,elephant,elephant,pow,0446_pow_dnn_pow_elephant_35_n02504458_8254.png,n02504458_8254.png,1.0,1.2497512,1.2494586,0.00020694103
alexnet_w3_mlp_simclrhn_probe3,1,447,NaN,bear,boat,pow,0447_pow_dnn_pow_boat_35_n04612504_857.png,n04612504_857.png,0.0,0.71567875,1.5857003,-0.61519814
alexnet_w3_mlp_simclrhn_probe3,1,448,NaN,oven,car,pow,0448_pow_dnn_pow_car_35_n04285008_6037.png,n04285008_6037.png,0.0,-0.94831866,3.2092443,-2.9398408
alexnet_w3_mlp_simclrhn_probe3,1,449,NaN,elephant,elephant,pow,0449_pow_dnn_pow_elephant_35_n02504458_2888.png,n02504458_2888.png,1.0,4.9195223,1.6082455,2.3414264
alexnet_w3_mlp_simclrhn_probe3,1,450,NaN,elephant,elephant,0,0450_pow_dnn_0_elephant_35_n02504013_6257.png,n02504013_6257.png,1.0,7.3575525,2.0993245,3.718129
alexnet_w3_mlp_simclrhn_probe3,1,451,NaN,car,car,0,0451_pow_dnn_0_car_35_n04285008_8616.png,n04285008_8616.png,1.0,18.283875,10.90331,5.2188473
alexnet_w3_mlp_simclrhn_probe3,1,452,NaN,bird,bird,0,0452_pow_dnn_0_bird_35_n01537544_5372.png,n01537544_5372.png,1.0,1.6066293,1.0331497,0.40551126
alexnet_w3_mlp_simclrhn_probe3,1,453,NaN,bird,airplane,pow,0453_pow_dnn_pow_airplane_35_n02690373_2498.png,n02690373_2498.png,0.0,1.3445168,1.8528197,-0.35942444
alexnet_w3_mlp_simclrhn_probe3,1,454,NaN,oven,dog,0,0454_pow_dnn_0_dog_35_n02099601_2980.png,n02099601_2980.png,0.0,1.9382209,2.536451,-0.42301267
alexnet_w3_mlp_simclrhn_probe3,1,455,NaN,oven,keyboard,pow,0455_pow_dnn_pow_keyboard_35_n04505470_1904.png,n04505470_1904.png,0.0,-0.35364938,2.231998,-1.8283288
alexnet_w3_mlp_simclrhn_probe3,1,456,NaN,airplane,airplane,0,0456_pow_dnn_0_airplane_35_n02690373_2967.png,n02690373_2967.png,1.0,5.3475413,1.7960957,2.5112512
alexnet_w3_mlp_simclrhn_probe3,1,457,NaN,car,car,0,0457_pow_dnn_0_car_35_n04285008_7508.png,n04285008_7508.png,1.0,9.25058,8.024407,0.86703485
alexnet_w3_mlp_simclrhn_probe3,1,458,NaN,bird,bird,0,0458_pow_dnn_0_bird_35_n02051845_6652.png,n02051845_6652.png,1.0,3.9308045,1.0930524,2.0065937
alexnet_w3_mlp_simclrhn_probe3,1,459,NaN,oven,truck,pow,0459_pow_dnn_pow_truck_35_n03796401_6737.png,n03796401_6737.png,0.0,-0.29445818,2.2348347,-1.7884802
alexnet_w3_mlp_simclrhn_probe3,1,460,NaN,oven,bottle,pow,0460_pow_dnn_pow_bottle_35_n03937543_2177.png,n03937543_2177.png,0.0,0.22575036,1.4748653,-0.8832577
alexnet_w3_mlp_simclrhn_probe3,1,461,NaN,oven,keyboard,pow,0461_pow_dnn_pow_keyboard_35_n03085013_6432.png,n03085013_6432.png,0.0,-0.9215075,1.9546951,-2.0337825
alexnet_w3_mlp_simclrhn_probe3,1,462,NaN,bird,bird,0,0462_pow_dnn_0_bird_35_n01530575_10212.png,n01530575_10212.png,1.0,1.9309291,0.8941655,0.73310256
alexnet_w3_mlp_simclrhn_probe3,1,463,NaN,oven,boat,pow,0463_pow_dnn_pow_boat_35_n04273569_31649.png,n04273569_31649.png,0.0,0.61169726,2.3308215,-1.2156044
alexnet_w3_mlp_simclrhn_probe3,1,464,NaN,keyboard,keyboard,0,0464_pow_dnn_0_keyboard_35_n04505470_2869.png,n04505470_2869.png,1.0,15.180941,1.5351698,9.649017
alexnet_w3_mlp_simclrhn_probe3,1,465,NaN,oven,oven,0,0465_pow_dnn_0_oven_35_n04111531_5110.png,n04111531_5110.png,1.0,6.235985,1.2316213,3.5386195
alexnet_w3_mlp_simclrhn_probe3,1,466,NaN,bottle,bottle,pow,0466_pow_dnn_pow_bottle_35_n04579145_4389.png,n04579145_4389.png,1.0,2.7110574,1.0189722,1.196485
alexnet_w3_mlp_simclrhn_probe3,1,467,NaN,bottle,bottle,0,0467_pow_dnn_0_bottle_35_n04557648_9310.png,n04557648_9310.png,1.0,1.9182132,0.98615617,0.6590639
alexnet_w3_mlp_simclrhn_probe3,1,468,NaN,bear,dog,pow,0468_pow_dnn_pow_dog_35_n02108000_6061.png,n02108000_6061.png,0.0,0.58459824,2.1370823,-1.097772
alexnet_w3_mlp_simclrhn_probe3,1,469,NaN,elephant,knife,pow,0469_pow_dnn_pow_knife_35_n03041632_84240.png,n03041632_84240.png,0.0,0.59526396,1.7928219,-0.84680134
alexnet_w3_mlp_simclrhn_probe3,1,470,NaN,oven,cat,pow,0470_pow_dnn_pow_cat_35_n02123394_3718.png,n02123394_3718.png,0.0,0.2645664,1.6809626,-1.0015433
alexnet_w3_mlp_simclrhn_probe3,1,471,NaN,cat,dog,pow,0471_pow_dnn_pow_dog_35_n02098105_2157.png,n02098105_2157.png,0.0,0.31498244,0.97964025,-0.46998405
alexnet_w3_mlp_simclrhn_probe3,1,472,NaN,clock,clock,0,0472_pow_dnn_0_clock_35_n04548280_2601.png,n04548280_2601.png,1.0,8.607242,2.0013638,4.671061
alexnet_w3_mlp_simclrhn_probe3,1,473,NaN,bear,cat,0,0473_pow_dnn_0_cat_35_n02123394_4286.png,n02123394_4286.png,0.0,0.60695946,1.5550015,-0.67036694
alexnet_w3_mlp_simclrhn_probe3,1,474,NaN,bottle,bottle,0,0474_pow_dnn_0_bottle_35_n02823428_4569.png,n02823428_4569.png,1.0,11.454125,4.4258633,4.969732
alexnet_w3_mlp_simclrhn_probe3,1,475,NaN,oven,bird,pow,0475_pow_dnn_pow_bird_35_n02017213_15747.png,n02017213_15747.png,0.0,0.030917564,1.905436,-1.3254848
alexnet_w3_mlp_simclrhn_probe3,1,476,NaN,bicycle,bicycle,0,0476_pow_dnn_0_bicycle_35_n03792782_11390.png,n03792782_11390.png,1.0,1.2582005,0.80924845,0.31745705
alexnet_w3_mlp_simclrhn_probe3,1,477,NaN,car,car,0,0477_pow_dnn_0_car_35_n02814533_4374.png,n02814533_4374.png,1.0,15.297643,3.853064,8.092539
alexnet_w3_mlp_simclrhn_probe3,1,478,NaN,keyboard,keyboard,0,0478_pow_dnn_0_keyboard_35_n04505470_5137.png,n04505470_5137.png,1.0,7.974574,2.4652157,3.8957047
alexnet_w3_mlp_simclrhn_probe3,1,479,NaN,elephant,elephant,0,0479_pow_dnn_0_elephant_35_n02504013_306.png,n02504013_306.png,1.0,13.511362,5.1783023,5.892363
alexnet_w3_mlp_simclrhn_probe3,1,480,NaN,bicycle,boat,0,0480_pow_dnn_0_boat_35_n02951358_14624.png,n02951358_14624.png,0.0,4.016467,6.392344,-1.6799988
alexnet_w3_mlp_simclrhn_probe3,1,481,NaN,bear,cat,pow,0481_pow_dnn_pow_cat_35_n02125311_28114.png,n02125311_28114.png,0.0,0.5351402,0.88670975,-0.2485972
alexnet_w3_mlp_simclrhn_probe3,1,482,NaN,oven,car,pow,0482_pow_dnn_pow_car_35_n03100240_6259.png,n03100240_6259.png,0.0,1.7171116,1.727527,-0.007364825
alexnet_w3_mlp_simclrhn_probe3,1,483,NaN,bear,cat,pow,0483_pow_dnn_pow_cat_35_n02125311_12361.png,n02125311_12361.png,0.0,0.54348725,2.2034104,-1.1737429
alexnet_w3_mlp_simclrhn_probe3,1,484,NaN,bird,bird,0,0484_pow_dnn_0_bird_35_n01833805_16468.png,n01833805_16468.png,1.0,0.5913918,0.23350593,0.25306353
alexnet_w3_mlp_simclrhn_probe3,1,485,NaN,bear,dog,pow,0485_pow_dnn_pow_dog_35_n02110063_6748.png,n02110063_6748.png,0.0,0.38953018,1.5601099,-0.8277248
alexnet_w3_mlp_simclrhn_probe3,1,486,NaN,oven,clock,pow,0486_pow_dnn_pow_clock_35_n04548280_2943.png,n04548280_2943.png,0.0,0.3638393,2.709869,-1.6588935
alexnet_w3_mlp_simclrhn_probe3,1,487,NaN,oven,chair,pow,0487_pow_dnn_pow_chair_35_n03376595_14619.png,n03376595_14619.png,0.0,0.027686115,1.3876547,-0.961643
alexnet_w3_mlp_simclrhn_probe3,1,488,NaN,car,car,0,0488_pow_dnn_0_car_35_n03100240_5719.png,n03100240_5719.png,1.0,13.1975355,4.3779125,6.2364154
alexnet_w3_mlp_simclrhn_probe3,1,489,NaN,bicycle,dog,0,0489_pow_dnn_0_dog_35_n02093754_4677.png,n02093754_4677.png,0.0,1.0671908,2.9286613,-1.3162585
alexnet_w3_mlp_simclrhn_probe3,1,490,NaN,boat,boat,pow,0490_pow_dnn_pow_boat_35_n04273569_113.png,n04273569_113.png,1.0,2.8277593,1.7005299,0.7970715
alexnet_w3_mlp_simclrhn_probe3,1,491,NaN,cat,clock,pow,0491_pow_dnn_pow_clock_35_n02708093_148.png,n02708093_148.png,0.0,0.84338707,0.9821953,-0.09815226
alexnet_w3_mlp_simclrhn_probe3,1,492,NaN,cat,cat,0,0492_pow_dnn_0_cat_35_n02125311_53223.png,n02125311_53223.png,1.0,5.5117984,2.4238238,2.1835277
alexnet_w3_mlp_simclrhn_probe3,1,493,NaN,bottle,knife,0,0493_pow_dnn_0_knife_35_n03041632_7982.png,n03041632_7982.png,0.0,0.8543434,2.00553,-0.81401193
alexnet_w3_mlp_simclrhn_probe3,1,494,NaN,elephant,elephant,0,0494_pow_dnn_0_elephant_35_n02504013_7273.png,n02504013_7273.png,1.0,7.8593836,2.4899232,3.7967818
alexnet_w3_mlp_simclrhn_probe3,1,495,NaN,oven,truck,pow,0495_pow_dnn_pow_truck_35_n03417042_26102.png,n03417042_26102.png,0.0,-0.19856589,2.4139326,-1.8473154
alexnet_w3_mlp_simclrhn_probe3,1,496,NaN,car,car,pow,0496_pow_dnn_pow_car_35_n02814533_874.png,n02814533_874.png,1.0,1.5137316,1.2331392,0.19840883
alexnet_w3_mlp_simclrhn_probe3,1,497,NaN,bicycle,bicycle,0,0497_pow_dnn_0_bicycle_35_n03792782_21148.png,n03792782_21148.png,1.0,3.8306968,0.62458575,2.267063
alexnet_w3_mlp_simclrhn_probe3,1,498,NaN,oven,oven,pow,0498_pow_dnn_pow_oven_35_n04111531_4146.png,n04111531_4146.png,1.0,3.8160598,0.8697072,2.083386
alexnet_w3_mlp_simclrhn_probe3,1,499,NaN,oven,keyboard,pow,0499_pow_dnn_pow_keyboard_35_n03085013_21183.png,n03085013_21183.png,0.0,0.63972807,2.9630737,-1.6428535
alexnet_w3_mlp_simclrhn_probe3,1,500,NaN,boat,boat,0,0500_pow_dnn_0_boat_35_n04612504_19147.png,n04612504_19147.png,1.0,9.620212,4.6275854,3.53032
alexnet_w3_mlp_simclrhn_probe3,1,501,NaN,elephant,bear,0,0501_pow_dnn_0_bear_35_n02133161_2044.png,n02133161_2044.png,0.0,1.8371788,1.8691173,-0.022583883
alexnet_w3_mlp_simclrhn_probe3,1,502,NaN,oven,bottle,pow,0502_pow_dnn_pow_bottle_35_n04579145_3894.png,n04579145_3894.png,0.0,0.4373915,1.4322283,-0.70345587
alexnet_w3_mlp_simclrhn_probe3,1,503,NaN,bicycle,bicycle,0,0503_pow_dnn_0_bicycle_35_n03792782_13399.png,n03792782_13399.png,1.0,4.9128256,1.9269153,2.1113575
alexnet_w3_mlp_simclrhn_probe3,1,504,NaN,elephant,knife,pow,0504_pow_dnn_pow_knife_35_n03041632_21818.png,n03041632_21818.png,0.0,0.35884738,2.7104187,-1.6628121
alexnet_w3_mlp_simclrhn_probe3,1,505,NaN,chair,chair,0,0505_pow_dnn_0_chair_35_n03376595_7010.png,n03376595_7010.png,1.0,4.5449514,2.192751,1.663257
alexnet_w3_mlp_simclrhn_probe3,1,506,NaN,oven,oven,0,0506_pow_dnn_0_oven_35_n04111531_4.png,n04111531_4.png,1.0,2.93104,1.9050279,0.72550017
alexnet_w3_mlp_simclrhn_probe3,1,507,NaN,bear,bird,pow,0507_pow_dnn_pow_bird_35_n01820546_6471.png,n01820546_6471.png,0.0,-0.32091334,1.8213863,-1.5148346
alexnet_w3_mlp_simclrhn_probe3,1,508,NaN,bear,bear,pow,0508_pow_dnn_pow_bear_35_n02132136_10352.png,n02132136_10352.png,1.0,3.5676813,2.316956,0.8843963
alexnet_w3_mlp_simclrhn_probe3,1,509,NaN,bottle,clock,pow,0509_pow_dnn_pow_clock_35_n04548280_8348.png,n04548280_8348.png,0.0,0.16855039,1.9460298,-1.2568678
alexnet_w3_mlp_simclrhn_probe3,1,510,NaN,elephant,elephant,0,0510_pow_dnn_0_elephant_35_n02504013_5087.png,n02504013_5087.png,1.0,10.554729,3.8976836,4.7072425
alexnet_w3_mlp_simclrhn_probe3,1,511,NaN,boat,airplane,pow,0511_pow_dnn_pow_airplane_35_n02690373_60.png,n02690373_60.png,0.0,1.6040654,2.2566326,-0.46143466
alexnet_w3_mlp_simclrhn_probe3,1,512,NaN,oven,chair,pow,0512_pow_dnn_pow_chair_35_n02791124_16085.png,n02791124_16085.png,0.0,0.91911423,3.801734,-2.03832
alexnet_w3_mlp_simclrhn_probe3,1,513,NaN,bottle,bottle,0,0513_pow_dnn_0_bottle_35_n02823428_3611.png,n02823428_3611.png,1.0,4.4274616,2.4047132,1.4302992
alexnet_w3_mlp_simclrhn_probe3,1,514,NaN,bear,bird,pow,0514_pow_dnn_pow_bird_35_n01614925_8653.png,n01614925_8653.png,0.0,0.5544502,0.81436944,-0.18379065
alexnet_w3_mlp_simclrhn_probe3,1,515,NaN,bird,bird,pow,0515_pow_dnn_pow_bird_35_n01537544_9881.png,n01537544_9881.png,1.0,1.8448415,1.2650952,0.4099425
alexnet_w3_mlp_simclrhn_probe3,1,516,NaN,knife,knife,0,0516_pow_dnn_0_knife_35_n03041632_35365.png,n03041632_35365.png,1.0,2.1989803,1.2637779,0.661288
alexnet_w3_mlp_simclrhn_probe3,1,517,NaN,bear,bear,0,0517_pow_dnn_0_bear_35_n02132136_23202.png,n02132136_23202.png,1.0,2.553122,0.7548079,1.2716001
alexnet_w3_mlp_simclrhn_probe3,1,518,NaN,oven,oven,0,0518_pow_dnn_0_oven_35_n04111531_3976.png,n04111531_3976.png,1.0,5.7655087,1.2775273,3.1734822
alexnet_w3_mlp_simclrhn_probe3,1,519,NaN,oven,chair,pow,0519_pow_dnn_pow_chair_35_n04429376_32124.png,n04429376_32124.png,0.0,0.60721666,3.5963738,-2.1136534
alexnet_w3_mlp_simclrhn_probe3,1,520,NaN,bear,bear,pow,0520_pow_dnn_pow_bear_35_n02134418_848.png,n02134418_848.png,1.0,1.5787115,1.1494771,0.30351454
alexnet_w3_mlp_simclrhn_probe3,1,521,NaN,boat,boat,0,0521_pow_dnn_0_boat_35_n03344393_7374.png,n03344393_7374.png,1.0,8.111446,7.0843387,0.72627485
alexnet_w3_mlp_simclrhn_probe3,1,522,NaN,oven,bird,pow,0522_pow_dnn_pow_bird_35_n01532829_3914.png,n01532829_3914.png,0.0,-0.14264598,1.2209301,-0.9641939
alexnet_w3_mlp_simclrhn_probe3,1,523,NaN,keyboard,keyboard,0,0523_pow_dnn_0_keyboard_35_n04505470_5902.png,n04505470_5902.png,1.0,11.4010315,1.9727398,6.6668086
alexnet_w3_mlp_simclrhn_probe3,1,524,NaN,oven,truck,pow,0524_pow_dnn_pow_truck_35_n03417042_11165.png,n03417042_11165.png,0.0,0.044672176,2.2518296,-1.560696
alexnet_w3_mlp_simclrhn_probe3,1,525,NaN,keyboard,clock,0,0525_pow_dnn_0_clock_35_n02708093_5.png,n02708093_5.png,0.0,1.7368898,1.7398956,-0.0021253813
alexnet_w3_mlp_simclrhn_probe3,1,526,NaN,elephant,elephant,pow,0526_pow_dnn_pow_elephant_35_n02504458_4187.png,n02504458_4187.png,1.0,2.6488924,1.7024946,0.6692043
alexnet_w3_mlp_simclrhn_probe3,1,527,NaN,knife,knife,0,0527_pow_dnn_0_knife_35_n03041632_10802.png,n03041632_10802.png,1.0,3.0338035,1.0917497,1.3732394
alexnet_w3_mlp_simclrhn_probe3,1,528,NaN,car,car,0,0528_pow_dnn_0_car_35_n04285008_16647.png,n04285008_16647.png,1.0,13.976069,7.1066394,4.8574204
alexnet_w3_mlp_simclrhn_probe3,1,529,NaN,bear,dog,0,0529_pow_dnn_0_dog_35_n02104365_3004.png,n02104365_3004.png,0.0,0.68292266,3.2659874,-1.8265027
alexnet_w3_mlp_simclrhn_probe3,1,530,NaN,elephant,elephant,pow,0530_pow_dnn_pow_elephant_35_n02504013_21616.png,n02504013_21616.png,1.0,2.7675362,2.1490347,0.43734655
alexnet_w3_mlp_simclrhn_probe3,1,531,NaN,knife,keyboard,0,0531_pow_dnn_0_keyboard_35_n03085013_23465.png,n03085013_23465.png,0.0,2.312258,2.5072613,-0.13788813
alexnet_w3_mlp_simclrhn_probe3,1,532,NaN,boat,airplane,pow,0532_pow_dnn_pow_airplane_35_n02690373_911.png,n02690373_911.png,0.0,0.70228827,2.1454062,-1.0204386
alexnet_w3_mlp_simclrhn_probe3,1,533,NaN,elephant,elephant,0,0533_pow_dnn_0_elephant_35_n02504013_1454.png,n02504013_1454.png,1.0,13.204344,3.257488,7.033489
alexnet_w3_mlp_simclrhn_probe3,1,534,NaN,bicycle,bicycle,0,0534_pow_dnn_0_bicycle_35_n03792782_70690.png,n03792782_70690.png,1.0,6.168027,1.1525328,3.5464902
alexnet_w3_mlp_simclrhn_probe3,1,535,NaN,oven,chair,0,0535_pow_dnn_0_chair_35_n04429376_31206.png,n04429376_31206.png,0.0,1.5868895,2.0837631,-0.3513427
alexnet_w3_mlp_simclrhn_probe3,1,536,NaN,airplane,clock,0,0536_pow_dnn_0_clock_35_n02708093_2498.png,n02708093_2498.png,0.0,0.23636244,2.557783,-1.6414921
alexnet_w3_mlp_simclrhn_probe3,1,537,NaN,keyboard,keyboard,0,0537_pow_dnn_0_keyboard_35_n04505470_1728.png,n04505470_1728.png,1.0,9.465338,1.8030264,5.4180727
alexnet_w3_mlp_simclrhn_probe3,1,538,NaN,oven,truck,pow,0538_pow_dnn_pow_truck_35_n03417042_6608.png,n03417042_6608.png,0.0,-0.17410289,1.8763638,-1.4498988
alexnet_w3_mlp_simclrhn_probe3,1,539,NaN,bird,bird,0,0539_pow_dnn_0_bird_35_n02013706_1016.png,n02013706_1016.png,1.0,1.452287,-0.008202523,1.032722
alexnet_w3_mlp_simclrhn_probe3,1,540,NaN,oven,clock,0,0540_pow_dnn_0_clock_35_n04548280_5011.png,n04548280_5011.png,0.0,2.7929585,3.7255042,-0.65940934
alexnet_w3_mlp_simclrhn_probe3,1,541,NaN,bicycle,bicycle,0,0541_pow_dnn_0_bicycle_35_n02835271_19557.png,n02835271_19557.png,1.0,11.571251,1.6847852,6.9907875
alexnet_w3_mlp_simclrhn_probe3,1,542,NaN,bear,bear,pow,0542_pow_dnn_pow_bear_35_n02134084_5827.png,n02134084_5827.png,1.0,2.007978,1.9453087,0.04431387
alexnet_w3_mlp_simclrhn_probe3,1,543,NaN,elephant,dog,pow,0543_pow_dnn_pow_dog_35_n02096585_1894.png,n02096585_1894.png,0.0,0.30494624,1.4815305,-0.8319707
alexnet_w3_mlp_simclrhn_probe3,1,544,NaN,bear,boat,pow,0544_pow_dnn_pow_boat_35_n02951358_34234.png,n02951358_34234.png,0.0,2.6150205,2.9526677,-0.23875263
alexnet_w3_mlp_simclrhn_probe3,1,545,NaN,cat,cat,pow,0545_pow_dnn_pow_cat_35_n02123597_5514.png,n02123597_5514.png,1.0,3.020964,1.3889093,1.1540369
alexnet_w3_mlp_simclrhn_probe3,1,546,NaN,oven,oven,pow,0546_pow_dnn_pow_oven_35_n04111531_3580.png,n04111531_3580.png,1.0,1.5701059,0.8992798,0.4743457
alexnet_w3_mlp_simclrhn_probe3,1,547,NaN,airplane,airplane,0,0547_pow_dnn_0_airplane_35_n02690373_7107.png,n02690373_7107.png,1.0,5.592696,1.2888117,3.0433059
alexnet_w3_mlp_simclrhn_probe3,1,548,NaN,oven,cat,0,0548_pow_dnn_0_cat_35_n02123159_5224.png,n02123159_5224.png,0.0,0.11835886,0.96911705,-0.6015769
alexnet_w3_mlp_simclrhn_probe3,1,549,NaN,bear,bear,pow,0549_pow_dnn_pow_bear_35_n02133161_6679.png,n02133161_6679.png,1.0,1.9596207,1.5382264,0.2979708
alexnet_w3_mlp_simclrhn_probe3,1,550,NaN,dog,dog,0,0550_pow_dnn_0_dog_35_n02106030_22.png,n02106030_22.png,1.0,1.9529558,1.5337062,0.29645428
alexnet_w3_mlp_simclrhn_probe3,1,551,NaN,truck,truck,0,0551_pow_dnn_0_truck_35_n03417042_4574.png,n03417042_4574.png,1.0,7.5129023,3.918525,2.5416086
alexnet_w3_mlp_simclrhn_probe3,1,552,NaN,bear,dog,pow,0552_pow_dnn_pow_dog_35_n02097298_7577.png,n02097298_7577.png,0.0,0.26402408,1.8105867,-1.093585
alexnet_w3_mlp_simclrhn_probe3,1,553,NaN,elephant,dog,pow,0553_pow_dnn_pow_dog_35_n02093428_16873.png,n02093428_16873.png,0.0,0.6345063,1.2479665,-0.4337819
alexnet_w3_mlp_simclrhn_probe3,1,554,NaN,bear,bear,0,0554_pow_dnn_0_bear_35_n02132136_4157.png,n02132136_4157.png,1.0,6.9452014,3.1367893,2.692954
alexnet_w3_mlp_simclrhn_probe3,1,555,NaN,bottle,bottle,0,0555_pow_dnn_0_bottle_35_n02823428_2007.png,n02823428_2007.png,1.0,6.9416847,6.6119995,0.23312265
alexnet_w3_mlp_simclrhn_probe3,1,556,NaN,oven,keyboard,0,0556_pow_dnn_0_keyboard_35_n03085013_24272.png,n03085013_24272.png,0.0,2.9628482,4.003266,-0.7356864
alexnet_w3_mlp_simclrhn_probe3,1,557,NaN,oven,oven,0,0557_pow_dnn_0_oven_35_n04111531_2074.png,n04111531_2074.png,1.0,1.9772309,1.0831889,0.6321832
alexnet_w3_mlp_simclrhn_probe3,1,558,NaN,oven,bird,pow,0558_pow_dnn_pow_bird_35_n01532829_4536.png,n01532829_4536.png,0.0,-0.107087985,1.6980264,-1.2764087
alexnet_w3_mlp_simclrhn_probe3,1,559,NaN,dog,dog,0,0559_pow_dnn_0_dog_35_n02109047_17100.png,n02109047_17100.png,1.0,1.767627,0.8766277,0.63003165
alexnet_w3_mlp_simclrhn_probe3,1,560,NaN,oven,oven,pow,0560_pow_dnn_pow_oven_35_n04111531_4407.png,n04111531_4407.png,1.0,3.518362,0.9574827,1.8108151
alexnet_w3_mlp_simclrhn_probe3,1,561,NaN,airplane,airplane,0,0561_pow_dnn_0_airplane_35_n02690373_8069.png,n02690373_8069.png,1.0,6.9955416,2.2147827,3.380507
alexnet_w3_mlp_simclrhn_probe3,1,562,NaN,clock,bottle,0,0562_pow_dnn_0_bottle_35_n04560804_8921.png,n04560804_8921.png,0.0,1.194602,1.9415135,-0.5281462
alexnet_w3_mlp_simclrhn_probe3,1,563,NaN,bottle,bottle,pow,0563_pow_dnn_pow_bottle_35_n03937543_2936.png,n03937543_2936.png,1.0,8.406112,0.8039684,5.3755274
alexnet_w3_mlp_simclrhn_probe3,1,564,NaN,elephant,cat,0,0564_pow_dnn_0_cat_35_n02123045_8031.png,n02123045_8031.png,0.0,2.6047468,3.8701174,-0.89475214
alexnet_w3_mlp_simclrhn_probe3,1,565,NaN,oven,oven,0,0565_pow_dnn_0_oven_35_n04111531_3805.png,n04111531_3805.png,1.0,4.930424,0.33906108,3.246584
alexnet_w3_mlp_simclrhn_probe3,1,566,NaN,truck,truck,0,0566_pow_dnn_0_truck_35_n03417042_27231.png,n03417042_27231.png,1.0,8.703149,3.9894218,3.3331084
alexnet_w3_mlp_simclrhn_probe3,1,567,NaN,elephant,elephant,0,0567_pow_dnn_0_elephant_35_n02504013_7232.png,n02504013_7232.png,1.0,5.5354886,4.6177135,0.64896506
alexnet_w3_mlp_simclrhn_probe3,1,568,NaN,oven,knife,0,0568_pow_dnn_0_knife_35_n03041632_5102.png,n03041632_5102.png,0.0,-0.34820122,1.5285358,-1.3270535
alexnet_w3_mlp_simclrhn_probe3,1,569,NaN,cat,dog,pow,0569_pow_dnn_pow_dog_35_n02110958_8916.png,n02110958_8916.png,0.0,1.0293787,1.4507688,-0.29796785
alexnet_w3_mlp_simclrhn_probe3,1,570,NaN,bear,bottle,pow,0570_pow_dnn_pow_bottle_35_n04557648_9790.png,n04557648_9790.png,0.0,0.07216243,0.9286198,-0.6056068
alexnet_w3_mlp_simclrhn_probe3,1,571,NaN,cat,cat,pow,0571_pow_dnn_pow_cat_35_n02123394_3786.png,n02123394_3786.png,1.0,3.6476173,0.897761,1.9444422
alexnet_w3_mlp_simclrhn_probe3,1,572,NaN,airplane,truck,0,0572_pow_dnn_0_truck_35_n04467665_19132.png,n04467665_19132.png,0.0,1.5138912,2.9502525,-1.0156609
alexnet_w3_mlp_simclrhn_probe3,1,573,NaN,oven,truck,pow,0573_pow_dnn_pow_truck_35_n03796401_2934.png,n03796401_2934.png,0.0,0.10692369,2.5271409,-1.7113521
alexnet_w3_mlp_simclrhn_probe3,1,574,NaN,bicycle,bicycle,0,0574_pow_dnn_0_bicycle_35_n02835271_12799.png,n02835271_12799.png,1.0,10.615395,2.3001816,5.8797436
alexnet_w3_mlp_simclrhn_probe3,1,575,NaN,car,car,0,0575_pow_dnn_0_car_35_n02814533_1297.png,n02814533_1297.png,1.0,5.240072,3.7138104,1.0792297
alexnet_w3_mlp_simclrhn_probe3,1,576,NaN,bear,bear,pow,0576_pow_dnn_pow_bear_35_n02134418_1974.png,n02134418_1974.png,1.0,1.600697,0.6751275,0.6544765
alexnet_w3_mlp_simclrhn_probe3,1,577,NaN,cat,cat,0,0577_pow_dnn_0_cat_35_n02124075_2843.png,n02124075_2843.png,1.0,6.2230983,1.4704314,3.3606431
alexnet_w3_mlp_simclrhn_probe3,1,578,NaN,cat,cat,0,0578_pow_dnn_0_cat_35_n02123597_5697.png,n02123597_5697.png,1.0,2.478823,1.2789196,0.84845984
alexnet_w3_mlp_simclrhn_probe3,1,579,NaN,oven,bicycle,pow,0579_pow_dnn_pow_bicycle_35_n02835271_2315.png,n02835271_2315.png,0.0,1.1001986,1.5054553,-0.2865597
alexnet_w3_mlp_simclrhn_probe3,1,580,NaN,keyboard,keyboard,0,0580_pow_dnn_0_keyboard_35_n04505470_4515.png,n04505470_4515.png,1.0,13.163258,1.9594799,7.922267
alexnet_w3_mlp_simclrhn_probe3,1,581,NaN,oven,knife,pow,0581_pow_dnn_pow_knife_35_n03041632_4269.png,n03041632_4269.png,0.0,0.61619,1.7326835,-0.7894801
alexnet_w3_mlp_simclrhn_probe3,1,582,NaN,cat,cat,0,0582_pow_dnn_0_cat_35_n02123045_12010.png,n02123045_12010.png,1.0,12.646205,1.2885962,8.031042
alexnet_w3_mlp_simclrhn_probe3,1,583,NaN,clock,clock,0,0583_pow_dnn_0_clock_35_n03196217_6467.png,n03196217_6467.png,1.0,2.1063845,1.7065668,0.2827138
alexnet_w3_mlp_simclrhn_probe3,1,584,NaN,oven,bottle,pow,0584_pow_dnn_pow_bottle_35_n03983396_2864.png,n03983396_2864.png,0.0,1.4009657,3.103076,-1.2035737
alexnet_w3_mlp_simclrhn_probe3,1,585,NaN,airplane,bottle,0,0585_pow_dnn_0_bottle_35_n04557648_10171.png,n04557648_10171.png,0.0,-0.06114934,1.7218249,-1.2607532
alexnet_w3_mlp_simclrhn_probe3,1,586,NaN,bear,bird,pow,0586_pow_dnn_pow_bird_35_n01860187_2052.png,n01860187_2052.png,0.0,0.1307592,1.3080893,-0.8324981
alexnet_w3_mlp_simclrhn_probe3,1,587,NaN,car,car,0,0587_pow_dnn_0_car_35_n04285008_5897.png,n04285008_5897.png,1.0,16.03116,4.475178,8.171314
alexnet_w3_mlp_simclrhn_probe3,1,588,NaN,elephant,elephant,0,0588_pow_dnn_0_elephant_35_n02504458_4721.png,n02504458_4721.png,1.0,20.888426,6.0474257,10.494172
alexnet_w3_mlp_simclrhn_probe3,1,589,NaN,car,car,0,0589_pow_dnn_0_car_35_n02814533_93476.png,n02814533_93476.png,1.0,10.432776,5.464121,3.51337
alexnet_w3_mlp_simclrhn_probe3,1,590,NaN,oven,bird,pow,0590_pow_dnn_pow_bird_35_n01824575_10337.png,n01824575_10337.png,0.0,0.08579249,1.4568775,-0.96950346
alexnet_w3_mlp_simclrhn_probe3,1,591,NaN,oven,dog,pow,0591_pow_dnn_pow_dog_35_n02100735_10683.png,n02100735_10683.png,0.0,-0.06281608,2.333803,-1.6946657
alexnet_w3_mlp_simclrhn_probe3,1,592,NaN,oven,airplane,pow,0592_pow_dnn_pow_airplane_35_n02690373_4402.png,n02690373_4402.png,0.0,0.5648957,1.1410446,-0.40739882
alexnet_w3_mlp_simclrhn_probe3,1,593,NaN,airplane,airplane,0,0593_pow_dnn_0_airplane_35_n02690373_4350.png,n02690373_4350.png,1.0,9.6615505,1.2281015,5.963349
alexnet_w3_mlp_simclrhn_probe3,1,594,NaN,oven,bottle,pow,0594_pow_dnn_pow_bottle_35_n02823428_6327.png,n02823428_6327.png,0.0,1.1873976,1.3342134,-0.10381443
alexnet_w3_mlp_simclrhn_probe3,1,595,NaN,elephant,dog,pow,0595_pow_dnn_pow_dog_35_n02104029_3041.png,n02104029_3041.png,0.0,0.64030045,1.536516,-0.63372004
alexnet_w3_mlp_simclrhn_probe3,1,596,NaN,elephant,elephant,pow,0596_pow_dnn_pow_elephant_35_n02504013_24810.png,n02504013_24810.png,1.0,3.498071,1.8552725,1.161634
alexnet_w3_mlp_simclrhn_probe3,1,597,NaN,oven,clock,pow,0597_pow_dnn_pow_clock_35_n04548280_4473.png,n04548280_4473.png,0.0,0.43125367,4.3199983,-2.7497578
alexnet_w3_mlp_simclrhn_probe3,1,598,NaN,airplane,dog,pow,0598_pow_dnn_pow_dog_35_n02107908_5597.png,n02107908_5597.png,0.0,0.4548344,0.7456766,-0.20565648
alexnet_w3_mlp_simclrhn_probe3,1,599,NaN,truck,truck,0,0599_pow_dnn_0_truck_35_n04467665_57697.png,n04467665_57697.png,1.0,5.2247286,0.39622182,3.4142702
alexnet_w3_mlp_simclrhn_probe3,1,600,NaN,elephant,bottle,pow,0600_pow_dnn_pow_bottle_35_n03983396_6889.png,n03983396_6889.png,0.0,1.0932797,1.2977746,-0.14459969
alexnet_w3_mlp_simclrhn_probe3,1,601,NaN,bear,bear,pow,0601_pow_dnn_pow_bear_35_n02134418_1826.png,n02134418_1826.png,1.0,4.8369703,2.6173553,1.5695049
alexnet_w3_mlp_simclrhn_probe3,1,602,NaN,cat,cat,pow,0602_pow_dnn_pow_cat_35_n02123159_4687.png,n02123159_4687.png,1.0,1.2157841,1.0091403,0.14611925
alexnet_w3_mlp_simclrhn_probe3,1,603,NaN,boat,boat,pow,0603_pow_dnn_pow_boat_35_n03344393_5798.png,n03344393_5798.png,1.0,1.7927153,1.5293078,0.18625721
alexnet_w3_mlp_simclrhn_probe3,1,604,NaN,oven,car,pow,0604_pow_dnn_pow_car_35_n04285008_11745.png,n04285008_11745.png,0.0,-0.66524506,2.0534759,-1.922426
alexnet_w3_mlp_simclrhn_probe3,1,605,NaN,clock,clock,0,0605_pow_dnn_0_clock_35_n02708093_353.png,n02708093_353.png,1.0,3.445982,1.5171992,1.3638555
alexnet_w3_mlp_simclrhn_probe3,1,606,NaN,airplane,airplane,0,0606_pow_dnn_0_airplane_35_n02690373_4763.png,n02690373_4763.png,1.0,9.626608,1.0016568,6.0987616
alexnet_w3_mlp_simclrhn_probe3,1,607,NaN,elephant,elephant,0,0607_pow_dnn_0_elephant_35_n02504013_18498.png,n02504013_18498.png,1.0,10.969339,5.771014,3.675771
alexnet_w3_mlp_simclrhn_probe3,1,608,NaN,bear,cat,pow,0608_pow_dnn_pow_cat_35_n02123394_159.png,n02123394_159.png,0.0,0.9103989,1.2591705,-0.24661879
alexnet_w3_mlp_simclrhn_probe3,1,609,NaN,boat,boat,0,0609_pow_dnn_0_boat_35_n03662601_18676.png,n03662601_18676.png,1.0,10.251325,3.6001484,4.703092
alexnet_w3_mlp_simclrhn_probe3,1,610,NaN,bear,truck,pow,0610_pow_dnn_pow_truck_35_n03796401_1789.png,n03796401_1789.png,0.0,0.21188,1.2468094,-0.7318056
alexnet_w3_mlp_simclrhn_probe3,1,611,NaN,chair,chair,0,0611_pow_dnn_0_chair_35_n04099969_4816.png,n04099969_4816.png,1.0,4.1750617,0.507547,2.5933247
alexnet_w3_mlp_simclrhn_probe3,1,612,NaN,elephant,elephant,0,0612_pow_dnn_0_elephant_35_n02504458_7013.png,n02504458_7013.png,1.0,25.784351,6.030227,13.968275
alexnet_w3_mlp_simclrhn_probe3,1,613,NaN,bear,knife,pow,0613_pow_dnn_pow_knife_35_n03041632_92637.png,n03041632_92637.png,0.0,0.098112956,0.20964521,-0.078865215
alexnet_w3_mlp_simclrhn_probe3,1,614,NaN,keyboard,keyboard,0,0614_pow_dnn_0_keyboard_35_n03085013_19607.png,n03085013_19607.png,1.0,10.267546,4.045865,4.3993926
alexnet_w3_mlp_simclrhn_probe3,1,615,NaN,bear,cat,pow,0615_pow_dnn_pow_cat_35_n02123597_1027.png,n02123597_1027.png,0.0,1.8581623,2.740332,-0.6237881
alexnet_w3_mlp_simclrhn_probe3,1,616,NaN,bicycle,bicycle,0,0616_pow_dnn_0_bicycle_35_n02835271_9135.png,n02835271_9135.png,1.0,4.2896338,1.1258813,2.2371109
alexnet_w3_mlp_simclrhn_probe3,1,617,NaN,dog,dog,pow,0617_pow_dnn_pow_dog_35_n02111500_3896.png,n02111500_3896.png,1.0,0.6480584,0.30111003,0.24532956
alexnet_w3_mlp_simclrhn_probe3,1,618,NaN,keyboard,oven,0,0618_pow_dnn_0_oven_35_n04111531_8398.png,n04111531_8398.png,0.0,0.16327812,2.197718,-1.4385662
alexnet_w3_mlp_simclrhn_probe3,1,619,NaN,oven,oven,0,0619_pow_dnn_0_oven_35_n04111531_6049.png,n04111531_6049.png,1.0,7.4758296,1.8010055,4.0127068
alexnet_w3_mlp_simclrhn_probe3,1,620,NaN,oven,chair,pow,0620_pow_dnn_pow_chair_35_n03376595_6947.png,n03376595_6947.png,0.0,0.5422477,1.6762459,-0.8018578
alexnet_w3_mlp_simclrhn_probe3,1,621,NaN,bear,dog,pow,0621_pow_dnn_pow_dog_35_n02097658_6717.png,n02097658_6717.png,0.0,0.56150746,1.1570969,-0.42114532
alexnet_w3_mlp_simclrhn_probe3,1,622,NaN,knife,knife,0,0622_pow_dnn_0_knife_35_n03041632_21560.png,n03041632_21560.png,1.0,1.4348447,0.65956235,0.54820746
alexnet_w3_mlp_simclrhn_probe3,1,623,NaN,bear,boat,pow,0623_pow_dnn_pow_boat_35_n03662601_7642.png,n03662601_7642.png,0.0,1.3107588,1.362694,-0.03672373
alexnet_w3_mlp_simclrhn_probe3,1,624,NaN,car,car,0,0624_pow_dnn_0_car_35_n04285008_1313.png,n04285008_1313.png,1.0,5.8652034,5.115942,0.5298078
alexnet_w3_mlp_simclrhn_probe3,1,625,NaN,elephant,chair,pow,0625_pow_dnn_pow_chair_35_n03376595_6409.png,n03376595_6409.png,0.0,0.6507712,1.5918584,-0.66544914
alexnet_w3_mlp_simclrhn_probe3,1,626,NaN,bear,bear,pow,0626_pow_dnn_pow_bear_35_n02133161_6028.png,n02133161_6028.png,1.0,1.3771116,0.309233,0.7551041
alexnet_w3_mlp_simclrhn_probe3,1,627,NaN,bear,bear,pow,0627_pow_dnn_pow_bear_35_n02132136_29029.png,n02132136_29029.png,1.0,1.8107597,1.756643,0.03826622
alexnet_w3_mlp_simclrhn_probe3,1,628,NaN,truck,truck,0,0628_pow_dnn_0_truck_35_n04467665_7290.png,n04467665_7290.png,1.0,3.8749082,0.5855931,2.3258972
alexnet_w3_mlp_simclrhn_probe3,1,629,NaN,bear,bird,pow,0629_pow_dnn_pow_bird_35_n01537544_9745.png,n01537544_9745.png,0.0,1.0178156,2.8499255,-1.2954974
alexnet_w3_mlp_simclrhn_probe3,1,630,NaN,bicycle,bicycle,0,0630_pow_dnn_0_bicycle_35_n03792782_15845.png,n03792782_15845.png,1.0,4.631404,0.5155167,2.9103718
alexnet_w3_mlp_simclrhn_probe3,1,631,NaN,bear,bear,pow,0631_pow_dnn_pow_bear_35_n02133161_8982.png,n02133161_8982.png,1.0,1.0596308,0.75258,0.21711768
alexnet_w3_mlp_simclrhn_probe3,1,632,NaN,knife,knife,0,0632_pow_dnn_0_knife_35_n03041632_6575.png,n03041632_6575.png,1.0,2.103997,0.7061972,0.98839366
alexnet_w3_mlp_simclrhn_probe3,1,633,NaN,knife,knife,0,0633_pow_dnn_0_knife_35_n03041632_32785.png,n03041632_32785.png,1.0,2.5643718,0.5333434,1.436154
alexnet_w3_mlp_simclrhn_probe3,1,634,NaN,oven,chair,pow,0634_pow_dnn_pow_chair_35_n04429376_12691.png,n04429376_12691.png,0.0,0.35004324,1.7176728,-0.96706015
alexnet_w3_mlp_simclrhn_probe3,1,635,NaN,bear,dog,pow,0635_pow_dnn_pow_dog_35_n02097298_6578.png,n02097298_6578.png,0.0,0.3834784,2.525435,-1.514592
alexnet_w3_mlp_simclrhn_probe3,1,636,NaN,oven,knife,pow,0636_pow_dnn_pow_knife_35_n03041632_94995.png,n03041632_94995.png,0.0,0.17270073,0.92141676,-0.52942216
alexnet_w3_mlp_simclrhn_probe3,1,637,NaN,clock,clock,0,0637_pow_dnn_0_clock_35_n02708093_41.png,n02708093_41.png,1.0,3.6832523,1.3477093,1.6514784
alexnet_w3_mlp_simclrhn_probe3,1,638,NaN,keyboard,keyboard,0,0638_pow_dnn_0_keyboard_35_n03085013_7892.png,n03085013_7892.png,1.0,4.236615,0.9489827,2.3247073
alexnet_w3_mlp_simclrhn_probe3,1,639,NaN,oven,knife,pow,0639_pow_dnn_pow_knife_35_n03041632_84048.png,n03041632_84048.png,0.0,0.46946257,1.4876627,-0.71997625
alexnet_w3_mlp_simclrhn_probe3,1,640,NaN,airplane,airplane,0,0640_pow_dnn_0_airplane_35_n02690373_3415.png,n02690373_3415.png,1.0,8.190777,1.3988731,4.8026013
alexnet_w3_mlp_simclrhn_probe3,1,641,NaN,oven,knife,0,0641_pow_dnn_0_knife_35_n03041632_31483.png,n03041632_31483.png,0.0,1.2079486,2.0277474,-0.57968533
alexnet_w3_mlp_simclrhn_probe3,1,642,NaN,clock,dog,0,0642_pow_dnn_0_dog_35_n02110958_368.png,n02110958_368.png,0.0,0.79818654,0.8293465,-0.022033403
alexnet_w3_mlp_simclrhn_probe3,1,643,NaN,bird,bird,0,0643_pow_dnn_0_bird_35_n02051845_539.png,n02051845_539.png,1.0,3.9930427,1.201102,1.9742002
