subj,session,trial,rt,object_response,category,condition,imagename,filename,is_correct,targ_act,max_nontarg_act,decision_margin
alexnet_w3_mlp_simclrhn_probe0,1,1,NaN,clock,clock,0,0001_pow_dnn_0_clock_35_n03196217_10246.png,n03196217_10246.png,1.0,3.3711338,2.2953053,0.7607257
alexnet_w3_mlp_simclrhn_probe0,1,2,NaN,cat,dog,pow,0002_pow_dnn_pow_dog_35_n02091467_7264.png,n02091467_7264.png,0.0,-1.6621792,0.17177069,-1.2967985
alexnet_w3_mlp_simclrhn_probe0,1,3,NaN,oven,chair,pow,0003_pow_dnn_pow_chair_35_n02791124_713.png,n02791124_713.png,0.0,-4.6502514,-1.3672894,-2.3214047
alexnet_w3_mlp_simclrhn_probe0,1,4,NaN,car,car,0,0004_pow_dnn_0_car_35_n02814533_35174.png,n02814533_35174.png,1.0,4.049276,3.0249228,0.72432697
alexnet_w3_mlp_simclrhn_probe0,1,5,NaN,cat,knife,pow,0005_pow_dnn_pow_knife_35_n03041632_46103.png,n03041632_46103.png,0.0,-4.1269994,-2.26893,-1.3138535
alexnet_w3_mlp_simclrhn_probe0,1,6,NaN,bicycle,bicycle,0,0006_pow_dnn_0_bicycle_35_n03792782_11306.png,n03792782_11306.png,1.0,9.490322,-3.5741043,9.237945
alexnet_w3_mlp_simclrhn_probe0,1,7,NaN,bird,bird,0,0007_pow_dnn_0_bird_35_n02002556_3463.png,n02002556_3463.png,1.0,0.2821714,-4.1972866,3.1674552
alexnet_w3_mlp_simclrhn_probe0,1,8,NaN,elephant,keyboard,pow,0008_pow_dnn_pow_keyboard_35_n03085013_22813.png,n03085013_22813.png,0.0,-8.709291,-1.9541675,-4.776594
alexnet_w3_mlp_simclrhn_probe0,1,9,NaN,bird,bird,0,0009_pow_dnn_0_bird_35_n02025239_2961.png,n02025239_2961.png,1.0,0.3553259,-5.573832,4.192548
alexnet_w3_mlp_simclrhn_probe0,1,10,NaN,oven,boat,pow,0010_pow_dnn_pow_boat_35_n02951358_14504.png,n02951358_14504.png,0.0,-3.9463859,-0.30417508,-2.575432
alexnet_w3_mlp_simclrhn_probe0,1,11,NaN,oven,oven,0,0011_pow_dnn_0_oven_35_n04111531_19000.png,n04111531_19000.png,1.0,0.8433531,-1.4008169,1.5868678
alexnet_w3_mlp_simclrhn_probe0,1,12,NaN,oven,bird,0,0012_pow_dnn_0_bird_35_n01614925_11281.png,n01614925_11281.png,0.0,-3.9217374,-3.6244187,-0.21023607
alexnet_w3_mlp_simclrhn_probe0,1,13,NaN,knife,knife,0,0013_pow_dnn_0_knife_35_n03041632_52040.png,n03041632_52040.png,1.0,-1.0367445,-2.3952382,0.96060014
alexnet_w3_mlp_simclrhn_probe0,1,14,NaN,oven,car,pow,0014_pow_dnn_pow_car_35_n03100240_14206.png,n03100240_14206.png,0.0,-4.800348,-3.1864023,-1.1412318
alexnet_w3_mlp_simclrhn_probe0,1,15,NaN,elephant,bird,0,0015_pow_dnn_0_bird_35_n01817953_689.png,n01817953_689.png,0.0,-6.0588136,-3.0376368,-2.1362946
alexnet_w3_mlp_simclrhn_probe0,1,16,NaN,oven,chair,pow,0016_pow_dnn_pow_chair_35_n04099969_7934.png,n04099969_7934.png,0.0,-3.0749989,0.23296392,-2.339083
alexnet_w3_mlp_simclrhn_probe0,1,17,NaN,knife,knife,0,0017_pow_dnn_0_knife_35_n03041632_30196.png,n03041632_30196.png,1.0,-2.5545468,-5.1558523,1.8394008
alexnet_w3_mlp_simclrhn_probe0,1,18,NaN,car,car,0,0018_pow_dnn_0_car_35_n02814533_18077.png,n02814533_18077.png,1.0,2.808463,-1.9090999,3.335821
alexnet_w3_mlp_simclrhn_probe0,1,19,NaN,cat,cat,0,0019_pow_dnn_0_cat_35_n02123159_6927.png,n02123159_6927.png,1.0,0.31127462,-2.1921167,1.770165
alexnet_w3_mlp_simclrhn_probe0,1,20,NaN,bear,bird,pow,0020_pow_dnn_pow_bird_35_n01855672_8550.png,n01855672_8550.png,0.0,-2.1260312,-1.2000339,-0.65477896
alexnet_w3_mlp_simclrhn_probe0,1,21,NaN,truck,truck,0,0021_pow_dnn_0_truck_35_n03417042_17888.png,n03417042_17888.png,1.0,5.105222,0.42015043,3.3128462
alexnet_w3_mlp_simclrhn_probe0,1,22,NaN,elephant,truck,pow,0022_pow_dnn_pow_truck_35_n04467665_45611.png,n04467665_45611.png,0.0,-8.523716,-0.37019706,-5.7654085
alexnet_w3_mlp_simclrhn_probe0,1,23,NaN,elephant,dog,pow,0023_pow_dnn_pow_dog_35_n02093256_1772.png,n02093256_1772.png,0.0,-4.592553,-0.49304453,-2.8987906
alexnet_w3_mlp_simclrhn_probe0,1,24,NaN,oven,boat,pow,0024_pow_dnn_pow_boat_35_n03344393_6260.png,n03344393_6260.png,0.0,-3.6697106,-2.627866,-0.7366954
alexnet_w3_mlp_simclrhn_probe0,1,25,NaN,oven,chair,0,0025_pow_dnn_0_chair_35_n04429376_24073.png,n04429376_24073.png,0.0,-6.8349557,-4.7013354,-1.5086974
alexnet_w3_mlp_simclrhn_probe0,1,26,NaN,knife,knife,0,0026_pow_dnn_0_knife_35_n03041632_29355.png,n03041632_29355.png,1.0,-0.6533481,-4.5241456,2.7370672
alexnet_w3_mlp_simclrhn_probe0,1,27,NaN,clock,clock,0,0027_pow_dnn_0_clock_35_n03196217_5907.png,n03196217_5907.png,1.0,2.6654363,0.07719806,1.8301609
alexnet_w3_mlp_simclrhn_probe0,1,28,NaN,airplane,airplane,0,0028_pow_dnn_0_airplane_35_n02690373_7276.png,n02690373_7276.png,1.0,12.3268795,-0.044617962,8.74797
alexnet_w3_mlp_simclrhn_probe0,1,29,NaN,bicycle,bicycle,pow,0029_pow_dnn_pow_bicycle_35_n03792782_15561.png,n03792782_15561.png,1.0,2.7944908,-3.8298113,4.6840887
alexnet_w3_mlp_simclrhn_probe0,1,30,NaN,cat,cat,0,0030_pow_dnn_0_cat_35_n02123045_3505.png,n02123045_3505.png,1.0,2.681138,-4.425925,5.0254526
alexnet_w3_mlp_simclrhn_probe0,1,31,NaN,oven,knife,0,0031_pow_dnn_0_knife_35_n03041632_34769.png,n03041632_34769.png,0.0,-5.4550157,-1.9420652,-2.4840312
alexnet_w3_mlp_simclrhn_probe0,1,32,NaN,elephant,clock,pow,0032_pow_dnn_pow_clock_35_n03196217_5206.png,n03196217_5206.png,0.0,-8.071137,-1.3082775,-4.782064
alexnet_w3_mlp_simclrhn_probe0,1,33,NaN,truck,truck,0,0033_pow_dnn_0_truck_35_n04467665_58815.png,n04467665_58815.png,1.0,2.616702,0.7595593,1.3131983
alexnet_w3_mlp_simclrhn_probe0,1,34,NaN,bird,bird,0,0034_pow_dnn_0_bird_35_n01616318_2186.png,n01616318_2186.png,1.0,1.0892593,-6.474386,5.348305
alexnet_w3_mlp_simclrhn_probe0,1,35,NaN,elephant,bicycle,pow,0035_pow_dnn_pow_bicycle_35_n03792782_12885.png,n03792782_12885.png,0.0,-4.480133,-0.7577377,-2.632131
alexnet_w3_mlp_simclrhn_probe0,1,36,NaN,oven,airplane,pow,0036_pow_dnn_pow_airplane_35_n02690373_9264.png,n02690373_9264.png,0.0,-3.7700493,-0.579702,-2.255916
alexnet_w3_mlp_simclrhn_probe0,1,37,NaN,chair,chair,0,0037_pow_dnn_0_chair_35_n04099969_16079.png,n04099969_16079.png,1.0,-0.23892534,-2.2053914,1.3905015
alexnet_w3_mlp_simclrhn_probe0,1,38,NaN,bicycle,bicycle,0,0038_pow_dnn_0_bicycle_35_n02835271_3027.png,n02835271_3027.png,1.0,0.805801,-4.3289185,3.630795
alexnet_w3_mlp_simclrhn_probe0,1,39,NaN,airplane,airplane,0,0039_pow_dnn_0_airplane_35_n02690373_6614.png,n02690373_6614.png,1.0,11.298969,-1.2504458,8.873777
alexnet_w3_mlp_simclrhn_probe0,1,40,NaN,elephant,chair,pow,0040_pow_dnn_pow_chair_35_n03376595_9048.png,n03376595_9048.png,0.0,-6.1681776,-1.6565955,-3.1901705
alexnet_w3_mlp_simclrhn_probe0,1,41,NaN,oven,oven,0,0041_pow_dnn_0_oven_35_n04111531_6094.png,n04111531_6094.png,1.0,1.7720752,-0.48825765,1.5982966
alexnet_w3_mlp_simclrhn_probe0,1,42,NaN,clock,clock,pow,0042_pow_dnn_pow_clock_35_n02708093_687.png,n02708093_687.png,1.0,-1.3175517,-3.1623178,1.3044466
alexnet_w3_mlp_simclrhn_probe0,1,43,NaN,bicycle,bicycle,pow,0043_pow_dnn_pow_bicycle_35_n03792782_14931.png,n03792782_14931.png,1.0,0.73778856,-1.4174719,1.5239993
alexnet_w3_mlp_simclrhn_probe0,1,44,NaN,keyboard,bottle,0,0044_pow_dnn_0_bottle_35_n03937543_5567.png,n03937543_5567.png,0.0,-1.6282526,-0.12741521,-1.0612524
alexnet_w3_mlp_simclrhn_probe0,1,45,NaN,car,car,0,0045_pow_dnn_0_car_35_n03100240_3073.png,n03100240_3073.png,1.0,9.764732,2.6263125,5.0476255
alexnet_w3_mlp_simclrhn_probe0,1,46,NaN,knife,knife,0,0046_pow_dnn_0_knife_35_n03041632_18236.png,n03041632_18236.png,1.0,-1.9067005,-5.095431,2.254773
alexnet_w3_mlp_simclrhn_probe0,1,47,NaN,elephant,knife,pow,0047_pow_dnn_pow_knife_35_n03041632_9302.png,n03041632_9302.png,0.0,-4.757194,-4.705004,-0.03690378
alexnet_w3_mlp_simclrhn_probe0,1,48,NaN,bear,bear,0,0048_pow_dnn_0_bear_35_n02134418_2590.png,n02134418_2590.png,1.0,3.3173919,-1.5606775,3.449316
alexnet_w3_mlp_simclrhn_probe0,1,49,NaN,bottle,bottle,0,0049_pow_dnn_0_bottle_35_n03983396_24837.png,n03983396_24837.png,1.0,-3.6878216,-4.9855933,0.91766316
alexnet_w3_mlp_simclrhn_probe0,1,50,NaN,elephant,knife,pow,0050_pow_dnn_pow_knife_35_n03041632_3617.png,n03041632_3617.png,0.0,-4.2438526,-2.303884,-1.371765
alexnet_w3_mlp_simclrhn_probe0,1,51,NaN,elephant,bicycle,pow,0051_pow_dnn_pow_bicycle_35_n03792782_6735.png,n03792782_6735.png,0.0,-3.2983885,-1.1154168,-1.5435941
alexnet_w3_mlp_simclrhn_probe0,1,52,NaN,car,car,0,0052_pow_dnn_0_car_35_n03100240_5387.png,n03100240_5387.png,1.0,8.472703,1.7863193,4.7279873
alexnet_w3_mlp_simclrhn_probe0,1,53,NaN,clock,bottle,0,0053_pow_dnn_0_bottle_35_n03983396_4879.png,n03983396_4879.png,0.0,-3.3696043,-2.1360962,-0.87222195
alexnet_w3_mlp_simclrhn_probe0,1,54,NaN,car,car,0,0054_pow_dnn_0_car_35_n03100240_6103.png,n03100240_6103.png,1.0,9.638225,4.7380595,3.46494
alexnet_w3_mlp_simclrhn_probe0,1,55,NaN,bear,bird,pow,0055_pow_dnn_pow_bird_35_n01796340_9255.png,n01796340_9255.png,0.0,-5.466824,-2.7525887,-1.9192542
alexnet_w3_mlp_simclrhn_probe0,1,56,NaN,bear,cat,pow,0056_pow_dnn_pow_cat_35_n02123394_2448.png,n02123394_2448.png,0.0,-2.781644,-1.0109478,-1.2520714
alexnet_w3_mlp_simclrhn_probe0,1,57,NaN,car,car,0,0057_pow_dnn_0_car_35_n04285008_13174.png,n04285008_13174.png,1.0,12.484584,6.656042,4.1214013
alexnet_w3_mlp_simclrhn_probe0,1,58,NaN,oven,chair,pow,0058_pow_dnn_pow_chair_35_n04429376_353.png,n04429376_353.png,0.0,-5.242503,-0.7839395,-3.1526806
alexnet_w3_mlp_simclrhn_probe0,1,59,NaN,elephant,boat,pow,0059_pow_dnn_pow_boat_35_n02951358_16261.png,n02951358_16261.png,0.0,-4.537243,-0.9934555,-2.5058362
alexnet_w3_mlp_simclrhn_probe0,1,60,NaN,elephant,car,pow,0060_pow_dnn_pow_car_35_n04285008_15954.png,n04285008_15954.png,0.0,-4.4372106,-1.1344616,-2.3353963
alexnet_w3_mlp_simclrhn_probe0,1,61,NaN,knife,truck,pow,0061_pow_dnn_pow_truck_35_n04467665_3411.png,n04467665_3411.png,0.0,-5.1493893,-4.1274304,-0.722634
alexnet_w3_mlp_simclrhn_probe0,1,62,NaN,oven,oven,pow,0062_pow_dnn_pow_oven_35_n04111531_15743.png,n04111531_15743.png,1.0,0.6597296,-1.1860542,1.3051662
alexnet_w3_mlp_simclrhn_probe0,1,63,NaN,elephant,dog,0,0063_pow_dnn_0_dog_35_n02088238_8653.png,n02088238_8653.png,0.0,-4.330353,-3.5764208,-0.53311044
alexnet_w3_mlp_simclrhn_probe0,1,64,NaN,airplane,airplane,0,0064_pow_dnn_0_airplane_35_n02690373_4681.png,n02690373_4681.png,1.0,7.977885,1.4324961,4.6282887
alexnet_w3_mlp_simclrhn_probe0,1,65,NaN,bear,bear,pow,0065_pow_dnn_pow_bear_35_n02134418_5684.png,n02134418_5684.png,1.0,0.11821398,-0.41200653,0.3749225
alexnet_w3_mlp_simclrhn_probe0,1,66,NaN,bear,bear,pow,0066_pow_dnn_pow_bear_35_n02134418_5830.png,n02134418_5830.png,1.0,3.1276283,-0.09811339,2.2809439
alexnet_w3_mlp_simclrhn_probe0,1,67,NaN,boat,truck,0,0067_pow_dnn_0_truck_35_n04467665_45983.png,n04467665_45983.png,0.0,-2.4502463,0.14241615,-1.8332893
alexnet_w3_mlp_simclrhn_probe0,1,68,NaN,bird,bird,0,0068_pow_dnn_0_bird_35_n01795545_14302.png,n01795545_14302.png,1.0,-2.1567485,-2.950232,0.5610776
alexnet_w3_mlp_simclrhn_probe0,1,69,NaN,oven,oven,pow,0069_pow_dnn_pow_oven_35_n04111531_19240.png,n04111531_19240.png,1.0,1.8355086,-0.27542007,1.4926519
alexnet_w3_mlp_simclrhn_probe0,1,70,NaN,oven,knife,0,0070_pow_dnn_0_knife_35_n03041632_22241.png,n03041632_22241.png,0.0,-3.7801847,-2.7073758,-0.7585905
alexnet_w3_mlp_simclrhn_probe0,1,71,NaN,bear,boat,pow,0071_pow_dnn_pow_boat_35_n03344393_815.png,n03344393_815.png,0.0,-2.3070288,-0.37891436,-1.3633828
alexnet_w3_mlp_simclrhn_probe0,1,72,NaN,airplane,boat,0,0072_pow_dnn_0_boat_35_n03662601_2120.png,n03662601_2120.png,0.0,-1.1322837,2.7265248,-2.7285898
alexnet_w3_mlp_simclrhn_probe0,1,73,NaN,elephant,knife,pow,0073_pow_dnn_pow_knife_35_n03041632_2438.png,n03041632_2438.png,0.0,-5.2428427,-2.279646,-2.0952966
alexnet_w3_mlp_simclrhn_probe0,1,74,NaN,bear,bear,pow,0074_pow_dnn_pow_bear_35_n02134418_3073.png,n02134418_3073.png,1.0,1.3847252,-0.2805837,1.1775513
alexnet_w3_mlp_simclrhn_probe0,1,75,NaN,elephant,bottle,pow,0075_pow_dnn_pow_bottle_35_n02823428_3328.png,n02823428_3328.png,0.0,-5.3716383,-0.7476872,-3.269627
alexnet_w3_mlp_simclrhn_probe0,1,76,NaN,car,car,pow,0076_pow_dnn_pow_car_35_n04285008_13259.png,n04285008_13259.png,1.0,-3.6879501,-4.7513723,0.75195307
alexnet_w3_mlp_simclrhn_probe0,1,77,NaN,oven,oven,0,0077_pow_dnn_0_oven_35_n04111531_15852.png,n04111531_15852.png,1.0,0.58055353,-4.610668,3.6707482
alexnet_w3_mlp_simclrhn_probe0,1,78,NaN,elephant,dog,pow,0078_pow_dnn_pow_dog_35_n02099601_447.png,n02099601_447.png,0.0,-3.5794635,2.8855898,-4.571483
alexnet_w3_mlp_simclrhn_probe0,1,79,NaN,oven,oven,pow,0079_pow_dnn_pow_oven_35_n04111531_18916.png,n04111531_18916.png,1.0,0.2994251,-1.271993,1.1111605
alexnet_w3_mlp_simclrhn_probe0,1,80,NaN,elephant,bottle,pow,0080_pow_dnn_pow_bottle_35_n04591713_1407.png,n04591713_1407.png,0.0,-3.2534602,-0.25389868,-2.1210103
alexnet_w3_mlp_simclrhn_probe0,1,81,NaN,oven,oven,0,0081_pow_dnn_0_oven_35_n04111531_4585.png,n04111531_4585.png,1.0,2.0020525,1.5156015,0.34397283
alexnet_w3_mlp_simclrhn_probe0,1,82,NaN,oven,keyboard,pow,0082_pow_dnn_pow_keyboard_35_n03085013_8364.png,n03085013_8364.png,0.0,-6.9482965,-1.7505174,-3.675385
alexnet_w3_mlp_simclrhn_probe0,1,83,NaN,bear,bear,pow,0083_pow_dnn_pow_bear_35_n02132136_15462.png,n02132136_15462.png,1.0,3.208793,2.1700487,0.7345031
alexnet_w3_mlp_simclrhn_probe0,1,84,NaN,oven,bicycle,pow,0084_pow_dnn_pow_bicycle_35_n03792782_4167.png,n03792782_4167.png,0.0,-2.9614325,-0.98364997,-1.3985034
alexnet_w3_mlp_simclrhn_probe0,1,85,NaN,boat,boat,0,0085_pow_dnn_0_boat_35_n03662601_16106.png,n03662601_16106.png,1.0,4.893951,2.2349172,1.8802209
alexnet_w3_mlp_simclrhn_probe0,1,86,NaN,oven,keyboard,pow,0086_pow_dnn_pow_keyboard_35_n03085013_2277.png,n03085013_2277.png,0.0,-5.6919475,0.15497714,-4.1344004
alexnet_w3_mlp_simclrhn_probe0,1,87,NaN,elephant,airplane,pow,0087_pow_dnn_pow_airplane_35_n02690373_8461.png,n02690373_8461.png,0.0,-3.6800375,-1.9930017,-1.1929145
alexnet_w3_mlp_simclrhn_probe0,1,88,NaN,elephant,chair,pow,0088_pow_dnn_pow_chair_35_n03376595_3304.png,n03376595_3304.png,0.0,-4.4559917,-1.5407114,-2.0614145
alexnet_w3_mlp_simclrhn_probe0,1,89,NaN,bicycle,bicycle,0,0089_pow_dnn_0_bicycle_35_n03792782_19116.png,n03792782_19116.png,1.0,0.011697292,-2.7891684,1.9805111
alexnet_w3_mlp_simclrhn_probe0,1,90,NaN,clock,clock,0,0090_pow_dnn_0_clock_35_n02708093_6734.png,n02708093_6734.png,1.0,0.3241097,-1.8526701,1.5392158
alexnet_w3_mlp_simclrhn_probe0,1,91,NaN,chair,chair,0,0091_pow_dnn_0_chair_35_n04429376_6480.png,n04429376_6480.png,1.0,-1.0849991,-1.4058306,0.22686216
alexnet_w3_mlp_simclrhn_probe0,1,92,NaN,elephant,bicycle,pow,0092_pow_dnn_pow_bicycle_35_n02835271_21339.png,n02835271_21339.png,0.0,-3.1768546,-0.67506456,-1.7690327
alexnet_w3_mlp_simclrhn_probe0,1,93,NaN,oven,keyboard,pow,0093_pow_dnn_pow_keyboard_35_n03085013_3859.png,n03085013_3859.png,0.0,-6.9783344,-1.9347392,-3.5663605
alexnet_w3_mlp_simclrhn_probe0,1,94,NaN,oven,chair,pow,0094_pow_dnn_pow_chair_35_n03376595_360.png,n03376595_360.png,0.0,-6.1739187,-0.23103595,-4.2022524
alexnet_w3_mlp_simclrhn_probe0,1,95,NaN,elephant,elephant,pow,0095_pow_dnn_pow_elephant_35_n02504013_18988.png,n02504013_18988.png,1.0,-0.9956602,-1.148613,0.108153954
alexnet_w3_mlp_simclrhn_probe0,1,96,NaN,bottle,chair,0,0096_pow_dnn_0_chair_35_n04429376_54570.png,n04429376_54570.png,0.0,-4.966007,-3.293883,-1.1823703
alexnet_w3_mlp_simclrhn_probe0,1,97,NaN,elephant,clock,pow,0097_pow_dnn_pow_clock_35_n04548280_5189.png,n04548280_5189.png,0.0,-4.45936,-4.1075907,-0.24873857
alexnet_w3_mlp_simclrhn_probe0,1,98,NaN,oven,truck,pow,0098_pow_dnn_pow_truck_35_n04467665_6626.png,n04467665_6626.png,0.0,-5.8659496,-0.2026546,-4.0045543
alexnet_w3_mlp_simclrhn_probe0,1,99,NaN,boat,boat,0,0099_pow_dnn_0_boat_35_n03344393_3323.png,n03344393_3323.png,1.0,4.0386333,-1.0195565,3.5766804
alexnet_w3_mlp_simclrhn_probe0,1,100,NaN,elephant,dog,pow,0100_pow_dnn_pow_dog_35_n02100583_3987.png,n02100583_3987.png,0.0,-3.2176588,0.39908755,-2.557426
alexnet_w3_mlp_simclrhn_probe0,1,101,NaN,elephant,elephant,pow,0101_pow_dnn_pow_elephant_35_n02504013_1702.png,n02504013_1702.png,1.0,3.2755485,0.6448094,1.8602134
alexnet_w3_mlp_simclrhn_probe0,1,102,NaN,oven,truck,pow,0102_pow_dnn_pow_truck_35_n03417042_1841.png,n03417042_1841.png,0.0,-4.567785,-3.473519,-0.7737627
alexnet_w3_mlp_simclrhn_probe0,1,103,NaN,truck,truck,0,0103_pow_dnn_0_truck_35_n03417042_2062.png,n03417042_2062.png,1.0,4.353117,1.5747309,1.9646157
alexnet_w3_mlp_simclrhn_probe0,1,104,NaN,oven,bottle,0,0104_pow_dnn_0_bottle_35_n03983396_4178.png,n03983396_4178.png,0.0,-1.7352129,0.18113852,-1.3550651
alexnet_w3_mlp_simclrhn_probe0,1,105,NaN,knife,keyboard,pow,0105_pow_dnn_pow_keyboard_35_n03085013_1698.png,n03085013_1698.png,0.0,-8.606466,-1.0404632,-5.3499722
alexnet_w3_mlp_simclrhn_probe0,1,106,NaN,oven,car,pow,0106_pow_dnn_pow_car_35_n03100240_7056.png,n03100240_7056.png,0.0,-5.6367307,-3.069351,-1.8154117
alexnet_w3_mlp_simclrhn_probe0,1,107,NaN,bear,dog,pow,0107_pow_dnn_pow_dog_35_n02100735_3553.png,n02100735_3553.png,0.0,-2.8274434,0.6519882,-2.4603298
alexnet_w3_mlp_simclrhn_probe0,1,108,NaN,oven,oven,pow,0108_pow_dnn_pow_oven_35_n04111531_11781.png,n04111531_11781.png,1.0,3.1352205,-1.9117599,3.5687542
alexnet_w3_mlp_simclrhn_probe0,1,109,NaN,cat,cat,0,0109_pow_dnn_0_cat_35_n02123159_4914.png,n02123159_4914.png,1.0,2.6364167,-1.672311,3.0467308
alexnet_w3_mlp_simclrhn_probe0,1,110,NaN,bear,dog,0,0110_pow_dnn_0_dog_35_n02090622_1852.png,n02090622_1852.png,0.0,-1.5017238,-0.79606,-0.49897963
alexnet_w3_mlp_simclrhn_probe0,1,111,NaN,car,car,pow,0111_pow_dnn_pow_car_35_n03100240_24471.png,n03100240_24471.png,1.0,-0.4009302,-3.0798159,1.8942583
alexnet_w3_mlp_simclrhn_probe0,1,112,NaN,elephant,boat,pow,0112_pow_dnn_pow_boat_35_n03344393_3519.png,n03344393_3519.png,0.0,-4.20396,-1.3871402,-1.9917923
alexnet_w3_mlp_simclrhn_probe0,1,113,NaN,oven,keyboard,pow,0113_pow_dnn_pow_keyboard_35_n03085013_22713.png,n03085013_22713.png,0.0,-5.9277544,0.16651905,-4.3093023
alexnet_w3_mlp_simclrhn_probe0,1,114,NaN,elephant,elephant,0,0114_pow_dnn_0_elephant_35_n02504013_6615.png,n02504013_6615.png,1.0,1.5264493,-0.007814527,1.0848883
alexnet_w3_mlp_simclrhn_probe0,1,115,NaN,cat,cat,0,0115_pow_dnn_0_cat_35_n02123597_7081.png,n02123597_7081.png,1.0,-2.3342597,-2.4232454,0.06292238
alexnet_w3_mlp_simclrhn_probe0,1,116,NaN,clock,clock,pow,0116_pow_dnn_pow_clock_35_n04548280_5406.png,n04548280_5406.png,1.0,-1.7126278,-2.8324075,0.79180384
alexnet_w3_mlp_simclrhn_probe0,1,117,NaN,oven,bottle,0,0117_pow_dnn_0_bottle_35_n03983396_21920.png,n03983396_21920.png,0.0,-3.9696271,1.11477,-3.595212
alexnet_w3_mlp_simclrhn_probe0,1,118,NaN,knife,knife,0,0118_pow_dnn_0_knife_35_n03041632_48675.png,n03041632_48675.png,1.0,1.4363034,-2.7262208,2.9433491
alexnet_w3_mlp_simclrhn_probe0,1,119,NaN,bird,cat,0,0119_pow_dnn_0_cat_35_n02125311_2103.png,n02125311_2103.png,0.0,-4.645304,-2.1433935,-1.7691181
alexnet_w3_mlp_simclrhn_probe0,1,120,NaN,bear,bird,pow,0120_pow_dnn_pow_bird_35_n01798484_962.png,n01798484_962.png,0.0,-3.7379732,-1.6111958,-1.5038588
alexnet_w3_mlp_simclrhn_probe0,1,121,NaN,oven,oven,pow,0121_pow_dnn_pow_oven_35_n04111531_6393.png,n04111531_6393.png,1.0,0.6618556,-0.8926732,1.0992178
alexnet_w3_mlp_simclrhn_probe0,1,122,NaN,oven,oven,0,0122_pow_dnn_0_oven_35_n04111531_4418.png,n04111531_4418.png,1.0,-0.011767559,-4.8636117,3.430772
alexnet_w3_mlp_simclrhn_probe0,1,123,NaN,elephant,truck,pow,0123_pow_dnn_pow_truck_35_n03796401_296.png,n03796401_296.png,0.0,-6.3753986,-0.7637247,-3.9680526
alexnet_w3_mlp_simclrhn_probe0,1,124,NaN,bicycle,bicycle,0,0124_pow_dnn_0_bicycle_35_n02835271_10738.png,n02835271_10738.png,1.0,2.4906526,-4.9756484,5.2794724
alexnet_w3_mlp_simclrhn_probe0,1,125,NaN,elephant,elephant,0,0125_pow_dnn_0_elephant_35_n02504013_4457.png,n02504013_4457.png,1.0,10.459701,-0.2598279,7.579851
alexnet_w3_mlp_simclrhn_probe0,1,126,NaN,knife,knife,0,0126_pow_dnn_0_knife_35_n03041632_30573.png,n03041632_30573.png,1.0,0.13363388,-0.06299142,0.13903508
alexnet_w3_mlp_simclrhn_probe0,1,127,NaN,boat,boat,0,0127_pow_dnn_0_boat_35_n03662601_19840.png,n03662601_19840.png,1.0,2.7245765,0.88380915,1.3016192
alexnet_w3_mlp_simclrhn_probe0,1,128,NaN,elephant,bear,0,0128_pow_dnn_0_bear_35_n02133161_12167.png,n02133161_12167.png,0.0,2.122366,4.344486,-1.5712763
alexnet_w3_mlp_simclrhn_probe0,1,129,NaN,bottle,bottle,0,0129_pow_dnn_0_bottle_35_n02823428_3028.png,n02823428_3028.png,1.0,-0.8610807,-1.2871168,0.301253
alexnet_w3_mlp_simclrhn_probe0,1,130,NaN,boat,boat,0,0130_pow_dnn_0_boat_35_n02951358_30149.png,n02951358_30149.png,1.0,0.8299947,-0.6989695,1.081141
alexnet_w3_mlp_simclrhn_probe0,1,131,NaN,car,car,0,0131_pow_dnn_0_car_35_n02814533_75419.png,n02814533_75419.png,1.0,6.6780477,3.0709546,2.5506
alexnet_w3_mlp_simclrhn_probe0,1,132,NaN,keyboard,keyboard,0,0132_pow_dnn_0_keyboard_35_n03085013_24449.png,n03085013_24449.png,1.0,1.7145474,-0.7019709,1.7087364
alexnet_w3_mlp_simclrhn_probe0,1,133,NaN,dog,dog,0,0133_pow_dnn_0_dog_35_n02086240_519.png,n02086240_519.png,1.0,-0.5363953,-1.9565645,1.0042113
alexnet_w3_mlp_simclrhn_probe0,1,134,NaN,knife,bird,pow,0134_pow_dnn_pow_bird_35_n01582220_2882.png,n01582220_2882.png,0.0,-3.0971344,-3.0849183,-0.008638081
alexnet_w3_mlp_simclrhn_probe0,1,135,NaN,oven,oven,0,0135_pow_dnn_0_oven_35_n04111531_13277.png,n04111531_13277.png,1.0,3.4778411,-1.4596899,3.4913616
alexnet_w3_mlp_simclrhn_probe0,1,136,NaN,bear,bear,pow,0136_pow_dnn_pow_bear_35_n02134084_6901.png,n02134084_6901.png,1.0,0.36027306,0.2933581,0.047316033
alexnet_w3_mlp_simclrhn_probe0,1,137,NaN,elephant,bird,0,0137_pow_dnn_0_bird_35_n02002556_5447.png,n02002556_5447.png,0.0,-2.7095673,-2.3665152,-0.2425745
alexnet_w3_mlp_simclrhn_probe0,1,138,NaN,keyboard,keyboard,0,0138_pow_dnn_0_keyboard_35_n03085013_20710.png,n03085013_20710.png,1.0,4.4926805,-1.6793138,4.3642592
alexnet_w3_mlp_simclrhn_probe0,1,139,NaN,oven,oven,pow,0139_pow_dnn_pow_oven_35_n04111531_11405.png,n04111531_11405.png,1.0,2.4020312,-1.4403344,2.7169628
alexnet_w3_mlp_simclrhn_probe0,1,140,NaN,bear,bear,pow,0140_pow_dnn_pow_bear_35_n02132136_8457.png,n02132136_8457.png,1.0,0.51021206,0.13809016,0.26312992
alexnet_w3_mlp_simclrhn_probe0,1,141,NaN,elephant,bird,pow,0141_pow_dnn_pow_bird_35_n02009912_6788.png,n02009912_6788.png,0.0,-2.8641355,-1.3167933,-1.0941361
alexnet_w3_mlp_simclrhn_probe0,1,142,NaN,oven,chair,pow,0142_pow_dnn_pow_chair_35_n04429376_9630.png,n04429376_9630.png,0.0,-4.956187,-0.17792012,-3.3787446
alexnet_w3_mlp_simclrhn_probe0,1,143,NaN,keyboard,keyboard,0,0143_pow_dnn_0_keyboard_35_n03085013_23658.png,n03085013_23658.png,1.0,2.7841883,-1.1300972,2.7678177
alexnet_w3_mlp_simclrhn_probe0,1,144,NaN,cat,cat,pow,0144_pow_dnn_pow_cat_35_n02123045_13199.png,n02123045_13199.png,1.0,-1.0095339,-1.3784429,0.26085806
alexnet_w3_mlp_simclrhn_probe0,1,145,NaN,bicycle,clock,pow,0145_pow_dnn_pow_clock_35_n04548280_6411.png,n04548280_6411.png,0.0,-3.6023715,-2.8294988,-0.54650354
alexnet_w3_mlp_simclrhn_probe0,1,146,NaN,knife,bird,0,0146_pow_dnn_0_bird_35_n01820546_9729.png,n01820546_9729.png,0.0,-1.7888173,-1.5856601,-0.14365382
alexnet_w3_mlp_simclrhn_probe0,1,147,NaN,boat,boat,0,0147_pow_dnn_0_boat_35_n04273569_12651.png,n04273569_12651.png,1.0,2.1364756,-1.1132454,2.2978997
alexnet_w3_mlp_simclrhn_probe0,1,148,NaN,elephant,elephant,pow,0148_pow_dnn_pow_elephant_35_n02504458_3143.png,n02504458_3143.png,1.0,1.1060781,-0.23399846,0.94757724
alexnet_w3_mlp_simclrhn_probe0,1,149,NaN,clock,clock,0,0149_pow_dnn_0_clock_35_n03196217_9786.png,n03196217_9786.png,1.0,6.1552186,1.4189427,3.3490527
alexnet_w3_mlp_simclrhn_probe0,1,150,NaN,airplane,chair,0,0150_pow_dnn_0_chair_35_n03376595_6652.png,n03376595_6652.png,0.0,-1.5260483,-0.22773595,-0.91804546
alexnet_w3_mlp_simclrhn_probe0,1,151,NaN,oven,bottle,pow,0151_pow_dnn_pow_bottle_35_n03983396_2998.png,n03983396_2998.png,0.0,-2.7121906,0.89799577,-2.5527873
alexnet_w3_mlp_simclrhn_probe0,1,152,NaN,elephant,elephant,0,0152_pow_dnn_0_elephant_35_n02504458_5331.png,n02504458_5331.png,1.0,6.4493175,-0.741766,5.084864
alexnet_w3_mlp_simclrhn_probe0,1,153,NaN,car,car,0,0153_pow_dnn_0_car_35_n04285008_8052.png,n04285008_8052.png,1.0,10.231925,2.70163,5.324723
alexnet_w3_mlp_simclrhn_probe0,1,154,NaN,elephant,bottle,pow,0154_pow_dnn_pow_bottle_35_n04591713_3402.png,n04591713_3402.png,0.0,-4.055173,-1.080572,-2.1033604
alexnet_w3_mlp_simclrhn_probe0,1,155,NaN,elephant,bicycle,pow,0155_pow_dnn_pow_bicycle_35_n02835271_1701.png,n02835271_1701.png,0.0,-0.9498997,-0.6938491,-0.18105511
alexnet_w3_mlp_simclrhn_probe0,1,156,NaN,bicycle,bicycle,0,0156_pow_dnn_0_bicycle_35_n02835271_5196.png,n02835271_5196.png,1.0,9.978986,-2.6933146,8.9606695
alexnet_w3_mlp_simclrhn_probe0,1,157,NaN,elephant,elephant,pow,0157_pow_dnn_pow_elephant_35_n02504458_5444.png,n02504458_5444.png,1.0,2.1095784,0.3880713,1.2172893
alexnet_w3_mlp_simclrhn_probe0,1,158,NaN,oven,truck,0,0158_pow_dnn_0_truck_35_n03417042_3422.png,n03417042_3422.png,0.0,-3.23732,-0.709905,-1.7871522
alexnet_w3_mlp_simclrhn_probe0,1,159,NaN,elephant,dog,pow,0159_pow_dnn_pow_dog_35_n02088466_1537.png,n02088466_1537.png,0.0,-1.3969765,1.3924167,-1.9723989
alexnet_w3_mlp_simclrhn_probe0,1,160,NaN,elephant,dog,pow,0160_pow_dnn_pow_dog_35_n02088632_1732.png,n02088632_1732.png,0.0,-2.306744,-0.032898545,-1.6078517
alexnet_w3_mlp_simclrhn_probe0,1,161,NaN,truck,truck,0,0161_pow_dnn_0_truck_35_n03796401_3326.png,n03796401_3326.png,1.0,-1.5927677,-1.723416,0.09238227
alexnet_w3_mlp_simclrhn_probe0,1,162,NaN,boat,boat,0,0162_pow_dnn_0_boat_35_n04273569_19796.png,n04273569_19796.png,1.0,3.0123355,-2.628342,3.9885614
alexnet_w3_mlp_simclrhn_probe0,1,163,NaN,keyboard,keyboard,pow,0163_pow_dnn_pow_keyboard_35_n04505470_5125.png,n04505470_5125.png,1.0,0.07986587,-0.041505355,0.08582242
alexnet_w3_mlp_simclrhn_probe0,1,164,NaN,bear,cat,pow,0164_pow_dnn_pow_cat_35_n02123394_1817.png,n02123394_1817.png,0.0,-1.9047679,-1.3978945,-0.3584136
alexnet_w3_mlp_simclrhn_probe0,1,165,NaN,cat,cat,pow,0165_pow_dnn_pow_cat_35_n02123159_7465.png,n02123159_7465.png,1.0,0.016266664,-4.012233,2.8485794
alexnet_w3_mlp_simclrhn_probe0,1,166,NaN,elephant,cat,0,0166_pow_dnn_0_cat_35_n02125311_33516.png,n02125311_33516.png,0.0,-9.412882,-2.5938725,-4.821768
alexnet_w3_mlp_simclrhn_probe0,1,167,NaN,elephant,bicycle,pow,0167_pow_dnn_pow_bicycle_35_n03792782_30246.png,n03792782_30246.png,0.0,-2.912232,-0.9780459,-1.367676
alexnet_w3_mlp_simclrhn_probe0,1,168,NaN,airplane,truck,0,0168_pow_dnn_0_truck_35_n04467665_72639.png,n04467665_72639.png,0.0,-0.061637014,3.969735,-2.8506105
alexnet_w3_mlp_simclrhn_probe0,1,169,NaN,bicycle,bicycle,0,0169_pow_dnn_0_bicycle_35_n03792782_10395.png,n03792782_10395.png,1.0,-0.14674297,-5.811498,4.005587
alexnet_w3_mlp_simclrhn_probe0,1,170,NaN,elephant,bicycle,pow,0170_pow_dnn_pow_bicycle_35_n02835271_840.png,n02835271_840.png,0.0,-1.5139923,0.44022584,-1.381841
alexnet_w3_mlp_simclrhn_probe0,1,171,NaN,elephant,knife,pow,0171_pow_dnn_pow_knife_35_n03041632_82197.png,n03041632_82197.png,0.0,-5.249299,-1.3577566,-2.7517362
alexnet_w3_mlp_simclrhn_probe0,1,172,NaN,oven,airplane,pow,0172_pow_dnn_pow_airplane_35_n02690373_8942.png,n02690373_8942.png,0.0,-6.076688,-0.7673841,-3.7542448
alexnet_w3_mlp_simclrhn_probe0,1,173,NaN,truck,keyboard,0,0173_pow_dnn_0_keyboard_35_n03085013_21851.png,n03085013_21851.png,0.0,0.6502761,1.6322191,-0.69433856
alexnet_w3_mlp_simclrhn_probe0,1,174,NaN,clock,clock,pow,0174_pow_dnn_pow_clock_35_n04548280_1106.png,n04548280_1106.png,1.0,-1.738957,-4.305627,1.8149097
alexnet_w3_mlp_simclrhn_probe0,1,175,NaN,truck,truck,0,0175_pow_dnn_0_truck_35_n03796401_4181.png,n03796401_4181.png,1.0,-0.9209794,-1.3798459,0.3244676
alexnet_w3_mlp_simclrhn_probe0,1,176,NaN,elephant,knife,pow,0176_pow_dnn_pow_knife_35_n03041632_44019.png,n03041632_44019.png,0.0,-2.7219563,-1.9991202,-0.5111223
alexnet_w3_mlp_simclrhn_probe0,1,177,NaN,truck,truck,0,0177_pow_dnn_0_truck_35_n03417042_1348.png,n03417042_1348.png,1.0,-0.013217807,-1.6306087,1.143668
alexnet_w3_mlp_simclrhn_probe0,1,178,NaN,chair,chair,0,0178_pow_dnn_0_chair_35_n04099969_10516.png,n04099969_10516.png,1.0,0.7743596,-0.90281206,1.1859396
alexnet_w3_mlp_simclrhn_probe0,1,179,NaN,oven,chair,pow,0179_pow_dnn_pow_chair_35_n04099969_24041.png,n04099969_24041.png,0.0,-4.8594594,-2.0108619,-2.0142627
alexnet_w3_mlp_simclrhn_probe0,1,180,NaN,oven,truck,pow,0180_pow_dnn_pow_truck_35_n03796401_3618.png,n03796401_3618.png,0.0,-6.694737,-2.1976306,-3.1799345
alexnet_w3_mlp_simclrhn_probe0,1,181,NaN,elephant,elephant,0,0181_pow_dnn_0_elephant_35_n02504458_4414.png,n02504458_4414.png,1.0,7.5912704,-1.1770804,6.2001605
alexnet_w3_mlp_simclrhn_probe0,1,182,NaN,oven,truck,pow,0182_pow_dnn_pow_truck_35_n03796401_3427.png,n03796401_3427.png,0.0,-3.359425,-3.0664675,-0.20715226
alexnet_w3_mlp_simclrhn_probe0,1,183,NaN,cat,cat,0,0183_pow_dnn_0_cat_35_n02123045_9907.png,n02123045_9907.png,1.0,-0.29584223,-2.8350456,1.795488
alexnet_w3_mlp_simclrhn_probe0,1,184,NaN,oven,oven,0,0184_pow_dnn_0_oven_35_n04111531_2156.png,n04111531_2156.png,1.0,3.0940073,-3.1558192,4.419295
alexnet_w3_mlp_simclrhn_probe0,1,185,NaN,bear,bird,pow,0185_pow_dnn_pow_bird_35_n02002556_12696.png,n02002556_12696.png,0.0,-1.8465054,0.20466909,-1.4503994
alexnet_w3_mlp_simclrhn_probe0,1,186,NaN,airplane,airplane,pow,0186_pow_dnn_pow_airplane_35_n02690373_8791.png,n02690373_8791.png,1.0,-2.5401103,-3.2249937,0.48428568
alexnet_w3_mlp_simclrhn_probe0,1,187,NaN,elephant,knife,pow,0187_pow_dnn_pow_knife_35_n03041632_27963.png,n03041632_27963.png,0.0,-5.600281,-3.113686,-1.758288
alexnet_w3_mlp_simclrhn_probe0,1,188,NaN,airplane,chair,0,0188_pow_dnn_0_chair_35_n03376595_7772.png,n03376595_7772.png,0.0,-3.0933883,-2.290638,-0.56763023
alexnet_w3_mlp_simclrhn_probe0,1,189,NaN,bear,boat,pow,0189_pow_dnn_pow_boat_35_n04273569_3460.png,n04273569_3460.png,0.0,-3.3235183,-0.92033124,-1.6993098
alexnet_w3_mlp_simclrhn_probe0,1,190,NaN,oven,oven,0,0190_pow_dnn_0_oven_35_n04111531_5694.png,n04111531_5694.png,1.0,5.3936663,-4.5782304,7.051196
alexnet_w3_mlp_simclrhn_probe0,1,191,NaN,bear,bear,pow,0191_pow_dnn_pow_bear_35_n02134084_17218.png,n02134084_17218.png,1.0,1.9152045,0.6775283,0.8751692
alexnet_w3_mlp_simclrhn_probe0,1,192,NaN,oven,oven,pow,0192_pow_dnn_pow_oven_35_n04111531_2923.png,n04111531_2923.png,1.0,0.43713343,-2.5491943,2.1116526
alexnet_w3_mlp_simclrhn_probe0,1,193,NaN,elephant,keyboard,pow,0193_pow_dnn_pow_keyboard_35_n03085013_22669.png,n03085013_22669.png,0.0,-6.8505316,-1.6159607,-3.7014008
alexnet_w3_mlp_simclrhn_probe0,1,194,NaN,bottle,bottle,pow,0194_pow_dnn_pow_bottle_35_n04557648_2282.png,n04557648_2282.png,1.0,-1.6208591,-2.1064034,0.3433316
alexnet_w3_mlp_simclrhn_probe0,1,195,NaN,elephant,elephant,pow,0195_pow_dnn_pow_elephant_35_n02504013_6693.png,n02504013_6693.png,1.0,3.8782349,-0.35228157,2.991427
alexnet_w3_mlp_simclrhn_probe0,1,196,NaN,boat,chair,0,0196_pow_dnn_0_chair_35_n04099969_39507.png,n04099969_39507.png,0.0,-2.65189,-1.3972305,-0.8871783
alexnet_w3_mlp_simclrhn_probe0,1,197,NaN,oven,car,pow,0197_pow_dnn_pow_car_35_n02814533_61184.png,n02814533_61184.png,0.0,-7.0698714,0.71301717,-5.503333
alexnet_w3_mlp_simclrhn_probe0,1,198,NaN,oven,keyboard,pow,0198_pow_dnn_pow_keyboard_35_n04505470_1358.png,n04505470_1358.png,0.0,-4.4269004,-0.16526951,-3.0134282
alexnet_w3_mlp_simclrhn_probe0,1,199,NaN,oven,truck,pow,0199_pow_dnn_pow_truck_35_n04467665_8824.png,n04467665_8824.png,0.0,-4.3070393,-0.95595527,-2.3695743
alexnet_w3_mlp_simclrhn_probe0,1,200,NaN,keyboard,keyboard,0,0200_pow_dnn_0_keyboard_35_n04505470_8937.png,n04505470_8937.png,1.0,-0.8679681,-2.7113922,1.3034977
alexnet_w3_mlp_simclrhn_probe0,1,201,NaN,elephant,truck,pow,0201_pow_dnn_pow_truck_35_n03417042_7581.png,n03417042_7581.png,0.0,-5.6395464,-3.238986,-1.6974525
alexnet_w3_mlp_simclrhn_probe0,1,202,NaN,bicycle,bicycle,pow,0202_pow_dnn_pow_bicycle_35_n02835271_13234.png,n02835271_13234.png,1.0,0.005775988,-2.260123,1.6022326
alexnet_w3_mlp_simclrhn_probe0,1,203,NaN,cat,cat,pow,0203_pow_dnn_pow_cat_35_n02124075_3383.png,n02124075_3383.png,1.0,2.7179015,-2.6849546,3.8203962
alexnet_w3_mlp_simclrhn_probe0,1,204,NaN,elephant,elephant,pow,0204_pow_dnn_pow_elephant_35_n02504013_474.png,n02504013_474.png,1.0,3.3680203,1.7609937,1.1363394
alexnet_w3_mlp_simclrhn_probe0,1,205,NaN,elephant,chair,pow,0205_pow_dnn_pow_chair_35_n04429376_1838.png,n04429376_1838.png,0.0,-5.3566484,-0.103188336,-3.7147572
alexnet_w3_mlp_simclrhn_probe0,1,206,NaN,bear,boat,pow,0206_pow_dnn_pow_boat_35_n02951358_5064.png,n02951358_5064.png,0.0,-5.0555325,-0.15787388,-3.4631674
alexnet_w3_mlp_simclrhn_probe0,1,207,NaN,elephant,knife,pow,0207_pow_dnn_pow_knife_35_n03041632_31037.png,n03041632_31037.png,0.0,-4.254162,-0.54487157,-2.6228642
alexnet_w3_mlp_simclrhn_probe0,1,208,NaN,cat,cat,pow,0208_pow_dnn_pow_cat_35_n02123045_11501.png,n02123045_11501.png,1.0,-1.4111209,-1.844291,0.3062975
alexnet_w3_mlp_simclrhn_probe0,1,209,NaN,elephant,keyboard,pow,0209_pow_dnn_pow_keyboard_35_n03085013_17937.png,n03085013_17937.png,0.0,-10.043713,-0.32543385,-6.871861
alexnet_w3_mlp_simclrhn_probe0,1,210,NaN,chair,chair,0,0210_pow_dnn_0_chair_35_n03376595_10881.png,n03376595_10881.png,1.0,-1.3805208,-1.8865535,0.35781917
alexnet_w3_mlp_simclrhn_probe0,1,211,NaN,elephant,elephant,0,0211_pow_dnn_0_elephant_35_n02504458_7302.png,n02504458_7302.png,1.0,8.549147,0.63270605,5.597769
alexnet_w3_mlp_simclrhn_probe0,1,212,NaN,elephant,airplane,pow,0212_pow_dnn_pow_airplane_35_n02690373_4704.png,n02690373_4704.png,0.0,-3.7436452,-0.90893143,-2.0044453
alexnet_w3_mlp_simclrhn_probe0,1,213,NaN,car,car,0,0213_pow_dnn_0_car_35_n03100240_18756.png,n03100240_18756.png,1.0,10.988899,3.348232,5.4027677
alexnet_w3_mlp_simclrhn_probe0,1,214,NaN,elephant,keyboard,pow,0214_pow_dnn_pow_keyboard_35_n03085013_20732.png,n03085013_20732.png,0.0,-8.064947,-1.0473137,-4.9622164
alexnet_w3_mlp_simclrhn_probe0,1,215,NaN,bottle,bottle,pow,0215_pow_dnn_pow_bottle_35_n04579145_2999.png,n04579145_2999.png,1.0,-1.7411478,-2.989957,0.88304156
alexnet_w3_mlp_simclrhn_probe0,1,216,NaN,elephant,clock,pow,0216_pow_dnn_pow_clock_35_n02708093_2546.png,n02708093_2546.png,0.0,-2.632523,-2.5965674,-0.025424497
alexnet_w3_mlp_simclrhn_probe0,1,217,NaN,boat,boat,0,0217_pow_dnn_0_boat_35_n03662601_13847.png,n03662601_13847.png,1.0,1.6260798,-0.844838,1.7472026
alexnet_w3_mlp_simclrhn_probe0,1,218,NaN,bicycle,bicycle,0,0218_pow_dnn_0_bicycle_35_n03792782_7878.png,n03792782_7878.png,1.0,11.392696,-1.882337,9.386866
alexnet_w3_mlp_simclrhn_probe0,1,219,NaN,bear,knife,pow,0219_pow_dnn_pow_knife_35_n03041632_18959.png,n03041632_18959.png,0.0,-3.9510338,-1.7660599,-1.54501
alexnet_w3_mlp_simclrhn_probe0,1,220,NaN,bear,bear,0,0220_pow_dnn_0_bear_35_n02134418_10576.png,n02134418_10576.png,1.0,2.6633334,-2.2274332,3.4582944
alexnet_w3_mlp_simclrhn_probe0,1,221,NaN,elephant,elephant,pow,0221_pow_dnn_pow_elephant_35_n02504013_213.png,n02504013_213.png,1.0,2.8873005,0.39509672,1.7622541
alexnet_w3_mlp_simclrhn_probe0,1,222,NaN,oven,bottle,pow,0222_pow_dnn_pow_bottle_35_n03983396_2944.png,n03983396_2944.png,0.0,-4.619766,-0.17176127,-3.1452143
alexnet_w3_mlp_simclrhn_probe0,1,223,NaN,knife,truck,0,0223_pow_dnn_0_truck_35_n03796401_8964.png,n03796401_8964.png,0.0,-3.9110088,0.78947,-3.3237407
alexnet_w3_mlp_simclrhn_probe0,1,224,NaN,knife,knife,pow,0224_pow_dnn_pow_knife_35_n03041632_13509.png,n03041632_13509.png,1.0,-2.8338165,-2.844157,0.007311804
alexnet_w3_mlp_simclrhn_probe0,1,225,NaN,elephant,bird,pow,0225_pow_dnn_pow_bird_35_n01537544_7301.png,n01537544_7301.png,0.0,-5.513491,-0.72942966,-3.3828423
alexnet_w3_mlp_simclrhn_probe0,1,226,NaN,elephant,elephant,0,0226_pow_dnn_0_elephant_35_n02504013_9618.png,n02504013_9618.png,1.0,4.555124,-1.0131568,3.937369
alexnet_w3_mlp_simclrhn_probe0,1,227,NaN,oven,keyboard,pow,0227_pow_dnn_pow_keyboard_35_n04505470_10191.png,n04505470_10191.png,0.0,-9.542706,-0.9947354,-6.0443277
alexnet_w3_mlp_simclrhn_probe0,1,228,NaN,bicycle,bicycle,pow,0228_pow_dnn_pow_bicycle_35_n02835271_20149.png,n02835271_20149.png,1.0,0.46246696,-2.0823264,1.7994406
alexnet_w3_mlp_simclrhn_probe0,1,229,NaN,truck,truck,0,0229_pow_dnn_0_truck_35_n04467665_2098.png,n04467665_2098.png,1.0,0.50197315,-2.9607556,2.448519
alexnet_w3_mlp_simclrhn_probe0,1,230,NaN,bear,bear,0,0230_pow_dnn_0_bear_35_n02133161_5274.png,n02133161_5274.png,1.0,0.31953478,-0.41103733,0.5165925
alexnet_w3_mlp_simclrhn_probe0,1,231,NaN,bear,bird,pow,0231_pow_dnn_pow_bird_35_n01537544_20224.png,n01537544_20224.png,0.0,-3.8255775,-0.6870107,-2.219302
alexnet_w3_mlp_simclrhn_probe0,1,232,NaN,bear,dog,pow,0232_pow_dnn_pow_dog_35_n02094258_6800.png,n02094258_6800.png,0.0,-2.093683,0.4224732,-1.7791911
alexnet_w3_mlp_simclrhn_probe0,1,233,NaN,truck,truck,0,0233_pow_dnn_0_truck_35_n03417042_27326.png,n03417042_27326.png,1.0,5.1253242,-0.47522056,3.9601834
alexnet_w3_mlp_simclrhn_probe0,1,234,NaN,oven,oven,pow,0234_pow_dnn_pow_oven_35_n04111531_6955.png,n04111531_6955.png,1.0,0.679126,-1.942346,1.8536606
alexnet_w3_mlp_simclrhn_probe0,1,235,NaN,clock,clock,0,0235_pow_dnn_0_clock_35_n04548280_7135.png,n04548280_7135.png,1.0,-0.3131536,-3.1755931,2.0240505
alexnet_w3_mlp_simclrhn_probe0,1,236,NaN,oven,dog,pow,0236_pow_dnn_pow_dog_35_n02113023_12143.png,n02113023_12143.png,0.0,-3.473694,-1.5200849,-1.3814104
alexnet_w3_mlp_simclrhn_probe0,1,237,NaN,bicycle,bicycle,0,0237_pow_dnn_0_bicycle_35_n02835271_10832.png,n02835271_10832.png,1.0,3.764872,-2.3242247,4.3056417
alexnet_w3_mlp_simclrhn_probe0,1,238,NaN,oven,chair,pow,0238_pow_dnn_pow_chair_35_n02791124_28.png,n02791124_28.png,0.0,-4.239559,-2.4012675,-1.2998685
alexnet_w3_mlp_simclrhn_probe0,1,239,NaN,bicycle,bicycle,pow,0239_pow_dnn_pow_bicycle_35_n03792782_1715.png,n03792782_1715.png,1.0,-1.2591572,-2.188637,0.6572415
alexnet_w3_mlp_simclrhn_probe0,1,240,NaN,bicycle,bicycle,0,0240_pow_dnn_0_bicycle_35_n02835271_19875.png,n02835271_19875.png,1.0,4.071724,-4.1754723,5.8316483
alexnet_w3_mlp_simclrhn_probe0,1,241,NaN,bird,bird,0,0241_pow_dnn_0_bird_35_n02056570_8203.png,n02056570_8203.png,1.0,0.42901674,-4.0511723,3.1679718
alexnet_w3_mlp_simclrhn_probe0,1,242,NaN,elephant,car,pow,0242_pow_dnn_pow_car_35_n02814533_27588.png,n02814533_27588.png,0.0,-6.042606,-2.4153066,-2.564888
alexnet_w3_mlp_simclrhn_probe0,1,243,NaN,bear,bear,0,0243_pow_dnn_0_bear_35_n02134418_2714.png,n02134418_2714.png,1.0,-3.12976,-4.090286,0.6791943
alexnet_w3_mlp_simclrhn_probe0,1,244,NaN,bear,bear,0,0244_pow_dnn_0_bear_35_n02132136_900.png,n02132136_900.png,1.0,2.6383772,-1.3607681,2.8278227
alexnet_w3_mlp_simclrhn_probe0,1,245,NaN,dog,dog,0,0245_pow_dnn_0_dog_35_n02095889_7413.png,n02095889_7413.png,1.0,-2.060961,-2.9078577,0.5988464
alexnet_w3_mlp_simclrhn_probe0,1,246,NaN,boat,boat,0,0246_pow_dnn_0_boat_35_n02951358_14877.png,n02951358_14877.png,1.0,-2.2626793,-2.3611827,0.069652386
alexnet_w3_mlp_simclrhn_probe0,1,247,NaN,knife,knife,pow,0247_pow_dnn_pow_knife_35_n03041632_42472.png,n03041632_42472.png,1.0,-0.63113576,-1.2613624,0.44563755
alexnet_w3_mlp_simclrhn_probe0,1,248,NaN,bottle,bottle,pow,0248_pow_dnn_pow_bottle_35_n02823428_12740.png,n02823428_12740.png,1.0,-0.7650313,-4.798562,2.8521369
alexnet_w3_mlp_simclrhn_probe0,1,249,NaN,airplane,boat,0,0249_pow_dnn_0_boat_35_n02951358_2537.png,n02951358_2537.png,0.0,-0.35181227,1.6830461,-1.4388622
alexnet_w3_mlp_simclrhn_probe0,1,250,NaN,bear,dog,0,0250_pow_dnn_0_dog_35_n02106166_5135.png,n02106166_5135.png,0.0,-3.7281702,-3.5322142,-0.13856182
alexnet_w3_mlp_simclrhn_probe0,1,251,NaN,oven,oven,pow,0251_pow_dnn_pow_oven_35_n04111531_23046.png,n04111531_23046.png,1.0,1.5772071,-2.73142,3.0466595
alexnet_w3_mlp_simclrhn_probe0,1,252,NaN,bear,dog,pow,0252_pow_dnn_pow_dog_35_n02105855_3310.png,n02105855_3310.png,0.0,-2.6527755,-2.2355347,-0.29503384
alexnet_w3_mlp_simclrhn_probe0,1,253,NaN,bird,bird,0,0253_pow_dnn_0_bird_35_n01843383_2122.png,n01843383_2122.png,1.0,-3.138981,-4.2376657,0.7768873
alexnet_w3_mlp_simclrhn_probe0,1,254,NaN,elephant,boat,pow,0254_pow_dnn_pow_boat_35_n03344393_8407.png,n03344393_8407.png,0.0,-4.457464,-1.4618256,-2.1182363
alexnet_w3_mlp_simclrhn_probe0,1,255,NaN,elephant,clock,pow,0255_pow_dnn_pow_clock_35_n04548280_4739.png,n04548280_4739.png,0.0,-3.2138193,-2.8217335,-0.27724653
alexnet_w3_mlp_simclrhn_probe0,1,256,NaN,keyboard,keyboard,0,0256_pow_dnn_0_keyboard_35_n04505470_3531.png,n04505470_3531.png,1.0,4.7936215,-0.71719,3.8967326
alexnet_w3_mlp_simclrhn_probe0,1,257,NaN,elephant,airplane,pow,0257_pow_dnn_pow_airplane_35_n02690373_7740.png,n02690373_7740.png,0.0,-2.4664035,-1.2998729,-0.8248617
alexnet_w3_mlp_simclrhn_probe0,1,258,NaN,bear,bear,pow,0258_pow_dnn_pow_bear_35_n02132136_4699.png,n02132136_4699.png,1.0,3.6638715,-1.3051993,3.5136638
alexnet_w3_mlp_simclrhn_probe0,1,259,NaN,airplane,airplane,pow,0259_pow_dnn_pow_airplane_35_n02690373_5277.png,n02690373_5277.png,1.0,-0.25879198,-1.6466404,0.98135704
alexnet_w3_mlp_simclrhn_probe0,1,260,NaN,knife,clock,pow,0260_pow_dnn_pow_clock_35_n04548280_8841.png,n04548280_8841.png,0.0,-3.0280209,-2.4056687,-0.4400694
alexnet_w3_mlp_simclrhn_probe0,1,261,NaN,oven,truck,pow,0261_pow_dnn_pow_truck_35_n03796401_142.png,n03796401_142.png,0.0,-6.350086,1.2152212,-5.3494806
alexnet_w3_mlp_simclrhn_probe0,1,262,NaN,bear,bear,pow,0262_pow_dnn_pow_bear_35_n02134418_4666.png,n02134418_4666.png,1.0,0.4007956,-0.75435066,0.81681174
alexnet_w3_mlp_simclrhn_probe0,1,263,NaN,chair,chair,0,0263_pow_dnn_0_chair_35_n04429376_17074.png,n04429376_17074.png,1.0,-5.510491,-5.6483912,0.09751028
alexnet_w3_mlp_simclrhn_probe0,1,264,NaN,dog,dog,0,0264_pow_dnn_0_dog_35_n02107683_1934.png,n02107683_1934.png,1.0,-2.172387,-6.7543926,3.239967
alexnet_w3_mlp_simclrhn_probe0,1,265,NaN,bicycle,bicycle,0,0265_pow_dnn_0_bicycle_35_n03792782_3765.png,n03792782_3765.png,1.0,-2.575559,-4.287833,1.2107608
alexnet_w3_mlp_simclrhn_probe0,1,266,NaN,elephant,elephant,pow,0266_pow_dnn_pow_elephant_35_n02504013_7026.png,n02504013_7026.png,1.0,5.3015,0.5319569,3.372576
alexnet_w3_mlp_simclrhn_probe0,1,267,NaN,knife,clock,pow,0267_pow_dnn_pow_clock_35_n03196217_3063.png,n03196217_3063.png,0.0,-9.016365,-3.5165293,-3.8889713
alexnet_w3_mlp_simclrhn_probe0,1,268,NaN,bear,bear,pow,0268_pow_dnn_pow_bear_35_n02134418_1041.png,n02134418_1041.png,1.0,0.83845174,0.36087608,0.337697
alexnet_w3_mlp_simclrhn_probe0,1,269,NaN,boat,boat,pow,0269_pow_dnn_pow_boat_35_n03344393_8258.png,n03344393_8258.png,1.0,-2.8846855,-3.79575,0.6442198
alexnet_w3_mlp_simclrhn_probe0,1,270,NaN,oven,oven,0,0270_pow_dnn_0_oven_35_n04111531_10306.png,n04111531_10306.png,1.0,5.103687,-1.3184235,4.541118
alexnet_w3_mlp_simclrhn_probe0,1,271,NaN,clock,bottle,0,0271_pow_dnn_0_bottle_35_n02823428_641.png,n02823428_641.png,0.0,-1.8967922,0.14195101,-1.4416093
alexnet_w3_mlp_simclrhn_probe0,1,272,NaN,oven,oven,pow,0272_pow_dnn_pow_oven_35_n04111531_1873.png,n04111531_1873.png,1.0,-0.021803059,-2.6135745,1.8326591
alexnet_w3_mlp_simclrhn_probe0,1,273,NaN,bear,bear,0,0273_pow_dnn_0_bear_35_n02134418_559.png,n02134418_559.png,1.0,-0.79635525,-2.6602447,1.3179688
alexnet_w3_mlp_simclrhn_probe0,1,274,NaN,oven,keyboard,pow,0274_pow_dnn_pow_keyboard_35_n04505470_4844.png,n04505470_4844.png,0.0,-3.122993,-1.2258153,-1.3415072
alexnet_w3_mlp_simclrhn_probe0,1,275,NaN,keyboard,keyboard,0,0275_pow_dnn_0_keyboard_35_n03085013_23291.png,n03085013_23291.png,1.0,4.0840206,0.9653514,2.2052321
alexnet_w3_mlp_simclrhn_probe0,1,276,NaN,car,car,0,0276_pow_dnn_0_car_35_n03100240_5808.png,n03100240_5808.png,1.0,7.535978,3.259993,3.023578
alexnet_w3_mlp_simclrhn_probe0,1,277,NaN,boat,bear,0,0277_pow_dnn_0_bear_35_n02134084_15968.png,n02134084_15968.png,0.0,-1.8811373,-0.4835708,-0.98822874
alexnet_w3_mlp_simclrhn_probe0,1,278,NaN,bear,cat,0,0278_pow_dnn_0_cat_35_n02125311_20238.png,n02125311_20238.png,0.0,-2.441099,0.60352004,-2.152871
alexnet_w3_mlp_simclrhn_probe0,1,279,NaN,elephant,bird,0,0279_pow_dnn_0_bird_35_n02028035_8994.png,n02028035_8994.png,0.0,-1.2392572,-0.8411376,-0.2815131
alexnet_w3_mlp_simclrhn_probe0,1,280,NaN,airplane,airplane,pow,0280_pow_dnn_pow_airplane_35_n02690373_4471.png,n02690373_4471.png,1.0,-2.2255464,-2.4480097,0.15730536
alexnet_w3_mlp_simclrhn_probe0,1,281,NaN,car,truck,0,0281_pow_dnn_0_truck_35_n03796401_322.png,n03796401_322.png,0.0,6.0252934,7.6561217,-1.1531699
alexnet_w3_mlp_simclrhn_probe0,1,282,NaN,elephant,car,pow,0282_pow_dnn_pow_car_35_n04285008_402.png,n04285008_402.png,0.0,-7.4583344,-1.9084061,-3.924392
alexnet_w3_mlp_simclrhn_probe0,1,283,NaN,oven,oven,0,0283_pow_dnn_0_oven_35_n04111531_807.png,n04111531_807.png,1.0,2.8561618,0.944685,1.3516183
alexnet_w3_mlp_simclrhn_probe0,1,284,NaN,oven,oven,0,0284_pow_dnn_0_oven_35_n04111531_20369.png,n04111531_20369.png,1.0,2.8577695,-6.8146873,6.83946
alexnet_w3_mlp_simclrhn_probe0,1,285,NaN,elephant,knife,pow,0285_pow_dnn_pow_knife_35_n03041632_24114.png,n03041632_24114.png,0.0,-3.3018537,-1.6795675,-1.1471295
alexnet_w3_mlp_simclrhn_probe0,1,286,NaN,elephant,dog,0,0286_pow_dnn_0_dog_35_n02093256_1102.png,n02093256_1102.png,0.0,-3.4108346,-3.272439,-0.09786043
alexnet_w3_mlp_simclrhn_probe0,1,287,NaN,bottle,bottle,0,0287_pow_dnn_0_bottle_35_n03983396_17636.png,n03983396_17636.png,1.0,4.4341426,-2.2525442,4.7282014
alexnet_w3_mlp_simclrhn_probe0,1,288,NaN,elephant,bird,0,0288_pow_dnn_0_bird_35_n01855672_55167.png,n01855672_55167.png,0.0,-4.5495415,-4.4986115,-0.036012966
alexnet_w3_mlp_simclrhn_probe0,1,289,NaN,keyboard,bottle,0,0289_pow_dnn_0_bottle_35_n02823428_1149.png,n02823428_1149.png,0.0,-3.3704505,-2.9854076,-0.27226645
alexnet_w3_mlp_simclrhn_probe0,1,290,NaN,oven,truck,pow,0290_pow_dnn_pow_truck_35_n03417042_1182.png,n03417042_1182.png,0.0,-5.431982,-0.21891984,-3.6861918
alexnet_w3_mlp_simclrhn_probe0,1,291,NaN,bear,bear,0,0291_pow_dnn_0_bear_35_n02134084_22051.png,n02134084_22051.png,1.0,0.8862183,-0.4364084,0.93523836
alexnet_w3_mlp_simclrhn_probe0,1,292,NaN,bear,cat,pow,0292_pow_dnn_pow_cat_35_n02123159_5170.png,n02123159_5170.png,0.0,-3.0906851,-1.0542294,-1.4399916
alexnet_w3_mlp_simclrhn_probe0,1,293,NaN,airplane,airplane,pow,0293_pow_dnn_pow_airplane_35_n02690373_4042.png,n02690373_4042.png,1.0,0.045366153,-1.8316412,1.3272446
alexnet_w3_mlp_simclrhn_probe0,1,294,NaN,airplane,airplane,pow,0294_pow_dnn_pow_airplane_35_n02690373_6231.png,n02690373_6231.png,1.0,-3.3987353,-4.9676814,1.1094124
alexnet_w3_mlp_simclrhn_probe0,1,295,NaN,bear,bear,0,0295_pow_dnn_0_bear_35_n02134418_4657.png,n02134418_4657.png,1.0,1.6185797,0.7630779,0.6049312
alexnet_w3_mlp_simclrhn_probe0,1,296,NaN,car,car,0,0296_pow_dnn_0_car_35_n03100240_24505.png,n03100240_24505.png,1.0,2.665634,-0.15342255,1.993374
alexnet_w3_mlp_simclrhn_probe0,1,297,NaN,bird,bird,0,0297_pow_dnn_0_bird_35_n02006656_4031.png,n02006656_4031.png,1.0,-0.27472228,-0.8209006,0.38620642
alexnet_w3_mlp_simclrhn_probe0,1,298,NaN,truck,truck,0,0298_pow_dnn_0_truck_35_n03796401_20861.png,n03796401_20861.png,1.0,2.9976392,0.816926,1.5419971
alexnet_w3_mlp_simclrhn_probe0,1,299,NaN,oven,truck,0,0299_pow_dnn_0_truck_35_n03417042_4934.png,n03417042_4934.png,0.0,-1.3094575,2.200168,-2.48168
alexnet_w3_mlp_simclrhn_probe0,1,300,NaN,bicycle,bird,0,0300_pow_dnn_0_bird_35_n01824575_3046.png,n01824575_3046.png,0.0,-2.9858346,-2.15511,-0.5874111
alexnet_w3_mlp_simclrhn_probe0,1,301,NaN,elephant,elephant,pow,0301_pow_dnn_pow_elephant_35_n02504458_3463.png,n02504458_3463.png,1.0,0.5283624,-2.9353147,2.4491894
alexnet_w3_mlp_simclrhn_probe0,1,302,NaN,airplane,airplane,0,0302_pow_dnn_0_airplane_35_n02690373_6914.png,n02690373_6914.png,1.0,5.811485,0.40478542,3.8231137
alexnet_w3_mlp_simclrhn_probe0,1,303,NaN,bottle,bottle,0,0303_pow_dnn_0_bottle_35_n03983396_3675.png,n03983396_3675.png,1.0,-1.7903813,-2.4928145,0.4966953
alexnet_w3_mlp_simclrhn_probe0,1,304,NaN,dog,dog,pow,0304_pow_dnn_pow_dog_35_n02088364_12272.png,n02088364_12272.png,1.0,-2.9325094,-3.2563896,0.22901788
alexnet_w3_mlp_simclrhn_probe0,1,305,NaN,dog,dog,0,0305_pow_dnn_0_dog_35_n02085936_1706.png,n02085936_1706.png,1.0,-2.3166888,-4.366578,1.4494907
alexnet_w3_mlp_simclrhn_probe0,1,306,NaN,elephant,bear,0,0306_pow_dnn_0_bear_35_n02134084_18372.png,n02134084_18372.png,0.0,0.31879213,0.7497272,-0.3047171
alexnet_w3_mlp_simclrhn_probe0,1,307,NaN,keyboard,keyboard,0,0307_pow_dnn_0_keyboard_35_n04505470_751.png,n04505470_751.png,1.0,4.369794,0.9080517,2.4478214
alexnet_w3_mlp_simclrhn_probe0,1,308,NaN,elephant,bird,0,0308_pow_dnn_0_bird_35_n02018207_19525.png,n02018207_19525.png,0.0,-3.116791,-2.9065595,-0.14865614
alexnet_w3_mlp_simclrhn_probe0,1,309,NaN,oven,bicycle,pow,0309_pow_dnn_pow_bicycle_35_n02835271_3329.png,n02835271_3329.png,0.0,-2.7011256,-2.0001929,-0.49563432
alexnet_w3_mlp_simclrhn_probe0,1,310,NaN,cat,clock,pow,0310_pow_dnn_pow_clock_35_n04548280_1960.png,n04548280_1960.png,0.0,-5.51615,-3.2252767,-1.6198921
alexnet_w3_mlp_simclrhn_probe0,1,311,NaN,chair,chair,0,0311_pow_dnn_0_chair_35_n03376595_6240.png,n03376595_6240.png,1.0,1.6404519,-2.473516,2.9090147
alexnet_w3_mlp_simclrhn_probe0,1,312,NaN,bear,knife,pow,0312_pow_dnn_pow_knife_35_n03041632_13194.png,n03041632_13194.png,0.0,-2.936203,-1.0414617,-1.3397844
alexnet_w3_mlp_simclrhn_probe0,1,313,NaN,bicycle,knife,0,0313_pow_dnn_0_knife_35_n03041632_13465.png,n03041632_13465.png,0.0,-7.1679955,-1.1661382,-4.243954
alexnet_w3_mlp_simclrhn_probe0,1,314,NaN,cat,cat,pow,0314_pow_dnn_pow_cat_35_n02125311_10174.png,n02125311_10174.png,1.0,-0.7760486,-2.5672114,1.2665434
alexnet_w3_mlp_simclrhn_probe0,1,315,NaN,oven,car,pow,0315_pow_dnn_pow_car_35_n02814533_7420.png,n02814533_7420.png,0.0,-4.23122,-0.43485966,-2.684432
alexnet_w3_mlp_simclrhn_probe0,1,316,NaN,elephant,truck,pow,0316_pow_dnn_pow_truck_35_n04467665_3876.png,n04467665_3876.png,0.0,-4.237107,0.45854354,-3.320326
alexnet_w3_mlp_simclrhn_probe0,1,317,NaN,airplane,airplane,0,0317_pow_dnn_0_airplane_35_n02690373_12976.png,n02690373_12976.png,1.0,9.447012,1.3448095,5.729122
alexnet_w3_mlp_simclrhn_probe0,1,318,NaN,bear,bear,pow,0318_pow_dnn_pow_bear_35_n02133161_10441.png,n02133161_10441.png,1.0,-0.46112797,-0.6507076,0.13405305
alexnet_w3_mlp_simclrhn_probe0,1,319,NaN,elephant,chair,pow,0319_pow_dnn_pow_chair_35_n03376595_13703.png,n03376595_13703.png,0.0,-5.01122,-2.0354984,-2.104153
alexnet_w3_mlp_simclrhn_probe0,1,320,NaN,bicycle,bicycle,pow,0320_pow_dnn_pow_bicycle_35_n03792782_11625.png,n03792782_11625.png,1.0,0.5435424,-1.7733103,1.6382622
alexnet_w3_mlp_simclrhn_probe0,1,321,NaN,oven,oven,pow,0321_pow_dnn_pow_oven_35_n04111531_22797.png,n04111531_22797.png,1.0,0.1874097,-2.3239107,1.7757717
alexnet_w3_mlp_simclrhn_probe0,1,322,NaN,elephant,chair,pow,0322_pow_dnn_pow_chair_35_n03376595_9651.png,n03376595_9651.png,0.0,-5.559032,-1.5302212,-2.8487992
alexnet_w3_mlp_simclrhn_probe0,1,323,NaN,bear,bicycle,pow,0323_pow_dnn_pow_bicycle_35_n03792782_4830.png,n03792782_4830.png,0.0,-1.9187418,-1.7827394,-0.096168235
alexnet_w3_mlp_simclrhn_probe0,1,324,NaN,elephant,elephant,pow,0324_pow_dnn_pow_elephant_35_n02504013_7191.png,n02504013_7191.png,1.0,-0.24797076,-1.8000946,1.0975173
alexnet_w3_mlp_simclrhn_probe0,1,325,NaN,knife,knife,0,0325_pow_dnn_0_knife_35_n03041632_120.png,n03041632_120.png,1.0,2.1795185,-1.3333832,2.4839966
alexnet_w3_mlp_simclrhn_probe0,1,326,NaN,elephant,airplane,pow,0326_pow_dnn_pow_airplane_35_n02690373_5465.png,n02690373_5465.png,0.0,-5.9004483,-2.6263926,-2.315107
alexnet_w3_mlp_simclrhn_probe0,1,327,NaN,elephant,car,pow,0327_pow_dnn_pow_car_35_n04285008_8443.png,n04285008_8443.png,0.0,-3.5553615,-3.322679,-0.16453135
alexnet_w3_mlp_simclrhn_probe0,1,328,NaN,bottle,bottle,0,0328_pow_dnn_0_bottle_35_n04557648_132.png,n04557648_132.png,1.0,4.9646654,-1.5119351,4.5796485
alexnet_w3_mlp_simclrhn_probe0,1,329,NaN,airplane,airplane,pow,0329_pow_dnn_pow_airplane_35_n02690373_18304.png,n02690373_18304.png,1.0,-0.92787975,-3.1878204,1.5980194
alexnet_w3_mlp_simclrhn_probe0,1,330,NaN,oven,knife,pow,0330_pow_dnn_pow_knife_35_n03041632_102764.png,n03041632_102764.png,0.0,-2.963015,-2.2480612,-0.5055488
alexnet_w3_mlp_simclrhn_probe0,1,331,NaN,oven,chair,pow,0331_pow_dnn_pow_chair_35_n02791124_16913.png,n02791124_16913.png,0.0,-2.824827,-1.17217,-1.168605
alexnet_w3_mlp_simclrhn_probe0,1,332,NaN,bicycle,bicycle,pow,0332_pow_dnn_pow_bicycle_35_n02835271_324.png,n02835271_324.png,1.0,-2.4102976,-3.2796137,0.6146993
alexnet_w3_mlp_simclrhn_probe0,1,333,NaN,airplane,airplane,pow,0333_pow_dnn_pow_airplane_35_n02690373_12966.png,n02690373_12966.png,1.0,0.39613014,-2.9187284,2.3439589
alexnet_w3_mlp_simclrhn_probe0,1,334,NaN,elephant,keyboard,pow,0334_pow_dnn_pow_keyboard_35_n03085013_24653.png,n03085013_24653.png,0.0,-8.977052,-1.5680579,-5.23895
alexnet_w3_mlp_simclrhn_probe0,1,335,NaN,bicycle,bicycle,0,0335_pow_dnn_0_bicycle_35_n03792782_18529.png,n03792782_18529.png,1.0,1.0565631,-5.8584533,4.889655
alexnet_w3_mlp_simclrhn_probe0,1,336,NaN,airplane,airplane,pow,0336_pow_dnn_pow_airplane_35_n02690373_2433.png,n02690373_2433.png,1.0,2.603831,-2.1783485,3.381512
alexnet_w3_mlp_simclrhn_probe0,1,337,NaN,elephant,cat,0,0337_pow_dnn_0_cat_35_n02125311_28447.png,n02125311_28447.png,0.0,-5.90984,-1.949713,-2.800233
alexnet_w3_mlp_simclrhn_probe0,1,338,NaN,knife,knife,0,0338_pow_dnn_0_knife_35_n03041632_20504.png,n03041632_20504.png,1.0,0.3021994,-1.911792,1.5655284
alexnet_w3_mlp_simclrhn_probe0,1,339,NaN,bear,bear,pow,0339_pow_dnn_pow_bear_35_n02132136_15870.png,n02132136_15870.png,1.0,0.30644205,-0.9279884,0.87287414
alexnet_w3_mlp_simclrhn_probe0,1,340,NaN,car,car,0,0340_pow_dnn_0_car_35_n02814533_11273.png,n02814533_11273.png,1.0,4.039909,2.3081396,1.2245458
alexnet_w3_mlp_simclrhn_probe0,1,341,NaN,elephant,elephant,0,0341_pow_dnn_0_elephant_35_n02504013_2476.png,n02504013_2476.png,1.0,6.6407657,-1.880095,6.0251584
alexnet_w3_mlp_simclrhn_probe0,1,342,NaN,bear,bear,0,0342_pow_dnn_0_bear_35_n02133161_14945.png,n02133161_14945.png,1.0,-0.9516078,-1.4839168,0.37639928
alexnet_w3_mlp_simclrhn_probe0,1,343,NaN,car,car,0,0343_pow_dnn_0_car_35_n04285008_7870.png,n04285008_7870.png,1.0,0.74581355,-0.03182198,0.5498713
alexnet_w3_mlp_simclrhn_probe0,1,344,NaN,airplane,airplane,0,0344_pow_dnn_0_airplane_35_n02690373_10129.png,n02690373_10129.png,1.0,7.782034,0.42909852,5.1993103
alexnet_w3_mlp_simclrhn_probe0,1,345,NaN,elephant,truck,pow,0345_pow_dnn_pow_truck_35_n03417042_1479.png,n03417042_1479.png,0.0,-6.811048,-0.045582652,-4.7839065
alexnet_w3_mlp_simclrhn_probe0,1,346,NaN,elephant,boat,pow,0346_pow_dnn_pow_boat_35_n04612504_10662.png,n04612504_10662.png,0.0,-2.6589553,-0.6974541,-1.3869909
alexnet_w3_mlp_simclrhn_probe0,1,347,NaN,knife,bird,0,0347_pow_dnn_0_bird_35_n02056570_5891.png,n02056570_5891.png,0.0,-3.3601918,-2.527656,-0.58869165
alexnet_w3_mlp_simclrhn_probe0,1,348,NaN,elephant,elephant,pow,0348_pow_dnn_pow_elephant_35_n02504458_5982.png,n02504458_5982.png,1.0,2.9267302,-0.7191991,2.5780613
alexnet_w3_mlp_simclrhn_probe0,1,349,NaN,elephant,truck,pow,0349_pow_dnn_pow_truck_35_n03417042_19955.png,n03417042_19955.png,0.0,-2.889093,-2.0938413,-0.5623278
alexnet_w3_mlp_simclrhn_probe0,1,350,NaN,oven,oven,0,0350_pow_dnn_0_oven_35_n04111531_6120.png,n04111531_6120.png,1.0,3.7398765,-4.8454723,6.070759
alexnet_w3_mlp_simclrhn_probe0,1,351,NaN,oven,oven,0,0351_pow_dnn_0_oven_35_n04111531_4750.png,n04111531_4750.png,1.0,-0.670546,-4.629049,2.7990842
alexnet_w3_mlp_simclrhn_probe0,1,352,NaN,boat,boat,0,0352_pow_dnn_0_boat_35_n02951358_29779.png,n02951358_29779.png,1.0,1.8665478,-1.1347065,2.1222074
alexnet_w3_mlp_simclrhn_probe0,1,353,NaN,bear,bear,0,0353_pow_dnn_0_bear_35_n02134084_14168.png,n02134084_14168.png,1.0,0.39950305,-0.4901839,0.62910366
alexnet_w3_mlp_simclrhn_probe0,1,354,NaN,cat,cat,0,0354_pow_dnn_0_cat_35_n02123597_6990.png,n02123597_6990.png,1.0,-0.4131738,-2.2464333,1.2963102
alexnet_w3_mlp_simclrhn_probe0,1,355,NaN,chair,chair,0,0355_pow_dnn_0_chair_35_n02791124_2008.png,n02791124_2008.png,1.0,0.36793572,-4.567654,3.489989
alexnet_w3_mlp_simclrhn_probe0,1,356,NaN,knife,car,pow,0356_pow_dnn_pow_car_35_n04285008_2185.png,n04285008_2185.png,0.0,-5.651375,-2.0976062,-2.512894
alexnet_w3_mlp_simclrhn_probe0,1,357,NaN,bear,bear,0,0357_pow_dnn_0_bear_35_n02134084_13205.png,n02134084_13205.png,1.0,-0.47866637,-2.350797,1.3237963
alexnet_w3_mlp_simclrhn_probe0,1,358,NaN,elephant,bird,pow,0358_pow_dnn_pow_bird_35_n01558993_6351.png,n01558993_6351.png,0.0,-4.903393,-0.13749848,-3.3699963
alexnet_w3_mlp_simclrhn_probe0,1,359,NaN,car,bicycle,0,0359_pow_dnn_0_bicycle_35_n02835271_8017.png,n02835271_8017.png,0.0,-1.0750728,-0.8981716,-0.125088
alexnet_w3_mlp_simclrhn_probe0,1,360,NaN,cat,cat,0,0360_pow_dnn_0_cat_35_n02124075_4189.png,n02124075_4189.png,1.0,2.7589657,-7.172872,7.02287
alexnet_w3_mlp_simclrhn_probe0,1,361,NaN,elephant,elephant,pow,0361_pow_dnn_pow_elephant_35_n02504458_3616.png,n02504458_3616.png,1.0,5.520052,0.3527431,3.653839
alexnet_w3_mlp_simclrhn_probe0,1,362,NaN,elephant,boat,pow,0362_pow_dnn_pow_boat_35_n04612504_8636.png,n04612504_8636.png,0.0,-1.2074015,0.5202191,-1.2216122
alexnet_w3_mlp_simclrhn_probe0,1,363,NaN,elephant,car,pow,0363_pow_dnn_pow_car_35_n03100240_10502.png,n03100240_10502.png,0.0,-4.794444,-1.5585651,-2.288112
alexnet_w3_mlp_simclrhn_probe0,1,364,NaN,bottle,bottle,0,0364_pow_dnn_0_bottle_35_n03983396_2271.png,n03983396_2271.png,1.0,-4.4975114,-7.5017643,2.1243277
alexnet_w3_mlp_simclrhn_probe0,1,365,NaN,clock,clock,0,0365_pow_dnn_0_clock_35_n04548280_280.png,n04548280_280.png,1.0,3.3943965,-0.044394713,2.4315927
alexnet_w3_mlp_simclrhn_probe0,1,366,NaN,airplane,truck,0,0366_pow_dnn_0_truck_35_n04467665_356.png,n04467665_356.png,0.0,0.34980044,3.9347062,-2.5349114
alexnet_w3_mlp_simclrhn_probe0,1,367,NaN,airplane,airplane,0,0367_pow_dnn_0_airplane_35_n02690373_306.png,n02690373_306.png,1.0,6.1341248,-1.1794671,5.1714907
alexnet_w3_mlp_simclrhn_probe0,1,368,NaN,elephant,bird,pow,0368_pow_dnn_pow_bird_35_n02007558_11331.png,n02007558_11331.png,0.0,-4.2038774,1.0723524,-3.730858
alexnet_w3_mlp_simclrhn_probe0,1,369,NaN,dog,dog,0,0369_pow_dnn_0_dog_35_n02105162_1003.png,n02105162_1003.png,1.0,-2.8886247,-2.9560854,0.047701973
alexnet_w3_mlp_simclrhn_probe0,1,370,NaN,oven,bird,pow,0370_pow_dnn_pow_bird_35_n01534433_11695.png,n01534433_11695.png,0.0,-4.5749784,-1.1578159,-2.4162989
alexnet_w3_mlp_simclrhn_probe0,1,371,NaN,oven,oven,0,0371_pow_dnn_0_oven_35_n04111531_19631.png,n04111531_19631.png,1.0,6.0310535,-0.8223714,4.846103
alexnet_w3_mlp_simclrhn_probe0,1,372,NaN,elephant,elephant,pow,0372_pow_dnn_pow_elephant_35_n02504013_8534.png,n02504013_8534.png,1.0,2.656651,-0.7302436,2.3948963
alexnet_w3_mlp_simclrhn_probe0,1,373,NaN,oven,oven,0,0373_pow_dnn_0_oven_35_n04111531_10436.png,n04111531_10436.png,1.0,3.573304,2.9101148,0.46894556
alexnet_w3_mlp_simclrhn_probe0,1,374,NaN,airplane,airplane,pow,0374_pow_dnn_pow_airplane_35_n02690373_1819.png,n02690373_1819.png,1.0,-0.39954996,-3.0122356,1.8474478
alexnet_w3_mlp_simclrhn_probe0,1,375,NaN,knife,cat,0,0375_pow_dnn_0_cat_35_n02123597_14032.png,n02123597_14032.png,0.0,-3.8079681,-2.3563666,-1.0264373
alexnet_w3_mlp_simclrhn_probe0,1,376,NaN,elephant,elephant,0,0376_pow_dnn_0_elephant_35_n02504013_10922.png,n02504013_10922.png,1.0,0.39299238,-3.9308596,3.0574253
alexnet_w3_mlp_simclrhn_probe0,1,377,NaN,boat,boat,0,0377_pow_dnn_0_boat_35_n03662601_81.png,n03662601_81.png,1.0,1.9965725,-0.027703136,1.431379
alexnet_w3_mlp_simclrhn_probe0,1,378,NaN,oven,bottle,pow,0378_pow_dnn_pow_bottle_35_n03937543_11347.png,n03937543_11347.png,0.0,-2.8163815,-2.3118482,-0.35675892
alexnet_w3_mlp_simclrhn_probe0,1,379,NaN,oven,knife,pow,0379_pow_dnn_pow_knife_35_n03041632_85416.png,n03041632_85416.png,0.0,-4.044581,-1.5256381,-1.7811615
alexnet_w3_mlp_simclrhn_probe0,1,380,NaN,car,car,pow,0380_pow_dnn_pow_car_35_n03100240_15676.png,n03100240_15676.png,1.0,-0.8105116,-1.6244473,0.5755395
alexnet_w3_mlp_simclrhn_probe0,1,381,NaN,oven,oven,0,0381_pow_dnn_0_oven_35_n04111531_4189.png,n04111531_4189.png,1.0,3.92839,-1.9524565,4.1583867
alexnet_w3_mlp_simclrhn_probe0,1,382,NaN,oven,car,pow,0382_pow_dnn_pow_car_35_n02814533_65623.png,n02814533_65623.png,0.0,-5.3817983,-4.502205,-0.6219664
alexnet_w3_mlp_simclrhn_probe0,1,383,NaN,airplane,airplane,0,0383_pow_dnn_0_airplane_35_n02690373_4945.png,n02690373_4945.png,1.0,14.536892,-3.175668,12.524672
alexnet_w3_mlp_simclrhn_probe0,1,384,NaN,bicycle,dog,0,0384_pow_dnn_0_dog_35_n02088364_5801.png,n02088364_5801.png,0.0,-4.7740254,-4.3632154,-0.29048654
alexnet_w3_mlp_simclrhn_probe0,1,385,NaN,bear,dog,pow,0385_pow_dnn_pow_dog_35_n02108915_8164.png,n02108915_8164.png,0.0,-2.8373673,-1.4159794,-1.0050731
alexnet_w3_mlp_simclrhn_probe0,1,386,NaN,car,car,0,0386_pow_dnn_0_car_35_n03100240_1435.png,n03100240_1435.png,1.0,8.054309,5.9819593,1.4653724
alexnet_w3_mlp_simclrhn_probe0,1,387,NaN,chair,clock,0,0387_pow_dnn_0_clock_35_n03196217_412.png,n03196217_412.png,0.0,-3.4452822,-3.0892346,-0.2517637
alexnet_w3_mlp_simclrhn_probe0,1,388,NaN,bicycle,boat,pow,0388_pow_dnn_pow_boat_35_n03344393_6713.png,n03344393_6713.png,0.0,-3.2825363,-1.9781907,-0.92231166
alexnet_w3_mlp_simclrhn_probe0,1,389,NaN,knife,knife,0,0389_pow_dnn_0_knife_35_n03041632_4305.png,n03041632_4305.png,1.0,-2.4992006,-3.625814,0.796636
alexnet_w3_mlp_simclrhn_probe0,1,390,NaN,oven,car,pow,0390_pow_dnn_pow_car_35_n04285008_10287.png,n04285008_10287.png,0.0,-5.387424,-0.82468355,-3.2263446
alexnet_w3_mlp_simclrhn_probe0,1,391,NaN,elephant,car,pow,0391_pow_dnn_pow_car_35_n04285008_15071.png,n04285008_15071.png,0.0,-6.715282,0.07436134,-4.801003
alexnet_w3_mlp_simclrhn_probe0,1,392,NaN,knife,knife,pow,0392_pow_dnn_pow_knife_35_n03041632_22214.png,n03041632_22214.png,1.0,-2.381399,-5.4570823,2.1748366
alexnet_w3_mlp_simclrhn_probe0,1,393,NaN,elephant,boat,pow,0393_pow_dnn_pow_boat_35_n04612504_3064.png,n04612504_3064.png,0.0,-2.2080147,0.30777198,-1.7789298
alexnet_w3_mlp_simclrhn_probe0,1,394,NaN,chair,chair,0,0394_pow_dnn_0_chair_35_n02791124_7193.png,n02791124_7193.png,1.0,0.88209516,-2.7489789,2.567557
alexnet_w3_mlp_simclrhn_probe0,1,395,NaN,boat,boat,0,0395_pow_dnn_0_boat_35_n03344393_5511.png,n03344393_5511.png,1.0,5.007171,-0.36783814,3.8007057
alexnet_w3_mlp_simclrhn_probe0,1,396,NaN,boat,boat,pow,0396_pow_dnn_pow_boat_35_n04273569_11997.png,n04273569_11997.png,1.0,-1.0345173,-1.6746082,0.45261267
alexnet_w3_mlp_simclrhn_probe0,1,397,NaN,bicycle,bicycle,0,0397_pow_dnn_0_bicycle_35_n03792782_1424.png,n03792782_1424.png,1.0,-2.298129,-2.7796893,0.3405145
alexnet_w3_mlp_simclrhn_probe0,1,398,NaN,oven,clock,pow,0398_pow_dnn_pow_clock_35_n03196217_3362.png,n03196217_3362.png,0.0,-8.6546545,-2.6230133,-4.265014
alexnet_w3_mlp_simclrhn_probe0,1,399,NaN,elephant,truck,pow,0399_pow_dnn_pow_truck_35_n04467665_21942.png,n04467665_21942.png,0.0,-5.1054525,0.28389952,-3.8108473
alexnet_w3_mlp_simclrhn_probe0,1,400,NaN,oven,oven,0,0400_pow_dnn_0_oven_35_n04111531_6445.png,n04111531_6445.png,1.0,4.2039814,-1.663871,4.149198
alexnet_w3_mlp_simclrhn_probe0,1,401,NaN,chair,chair,0,0401_pow_dnn_0_chair_35_n04099969_1163.png,n04099969_1163.png,1.0,3.651953,-2.2004936,4.1383047
alexnet_w3_mlp_simclrhn_probe0,1,402,NaN,clock,clock,pow,0402_pow_dnn_pow_clock_35_n02708093_3645.png,n02708093_3645.png,1.0,-1.924043,-3.1566556,0.87158865
alexnet_w3_mlp_simclrhn_probe0,1,403,NaN,bicycle,bicycle,0,0403_pow_dnn_0_bicycle_35_n03792782_68319.png,n03792782_68319.png,1.0,6.7224226,-6.3122697,9.21692
alexnet_w3_mlp_simclrhn_probe0,1,404,NaN,elephant,dog,pow,0404_pow_dnn_pow_dog_35_n02111129_513.png,n02111129_513.png,0.0,-2.4034157,1.3209422,-2.6335187
alexnet_w3_mlp_simclrhn_probe0,1,405,NaN,airplane,airplane,pow,0405_pow_dnn_pow_airplane_35_n02690373_2676.png,n02690373_2676.png,1.0,2.045597,-3.058951,3.6094606
alexnet_w3_mlp_simclrhn_probe0,1,406,NaN,airplane,airplane,0,0406_pow_dnn_0_airplane_35_n02690373_1206.png,n02690373_1206.png,1.0,-0.16949916,-1.5123377,0.94953024
alexnet_w3_mlp_simclrhn_probe0,1,407,NaN,dog,dog,0,0407_pow_dnn_0_dog_35_n02100735_1445.png,n02100735_1445.png,1.0,0.76074284,-4.671285,3.8410237
alexnet_w3_mlp_simclrhn_probe0,1,408,NaN,bear,dog,pow,0408_pow_dnn_pow_dog_35_n02102040_312.png,n02102040_312.png,0.0,-4.3246403,-3.8330903,-0.34757832
alexnet_w3_mlp_simclrhn_probe0,1,409,NaN,keyboard,keyboard,0,0409_pow_dnn_0_keyboard_35_n03085013_22996.png,n03085013_22996.png,1.0,3.8082888,-1.7600371,3.937401
alexnet_w3_mlp_simclrhn_probe0,1,410,NaN,boat,boat,0,0410_pow_dnn_0_boat_35_n04612504_434.png,n04612504_434.png,1.0,3.5747745,-0.3698095,2.789242
alexnet_w3_mlp_simclrhn_probe0,1,411,NaN,cat,cat,0,0411_pow_dnn_0_cat_35_n02123597_14639.png,n02123597_14639.png,1.0,0.5112067,-2.4075189,2.0638506
alexnet_w3_mlp_simclrhn_probe0,1,412,NaN,cat,cat,pow,0412_pow_dnn_pow_cat_35_n02123159_2043.png,n02123159_2043.png,1.0,0.36803636,-2.0917604,1.7393389
alexnet_w3_mlp_simclrhn_probe0,1,413,NaN,oven,clock,pow,0413_pow_dnn_pow_clock_35_n03196217_3647.png,n03196217_3647.png,0.0,-8.235131,0.45910743,-6.147755
alexnet_w3_mlp_simclrhn_probe0,1,414,NaN,oven,oven,0,0414_pow_dnn_0_oven_35_n04111531_19795.png,n04111531_19795.png,1.0,2.625562,-5.1477747,5.496579
alexnet_w3_mlp_simclrhn_probe0,1,415,NaN,bear,truck,pow,0415_pow_dnn_pow_truck_35_n03417042_18625.png,n03417042_18625.png,0.0,-7.430783,-1.8899002,-3.9179957
alexnet_w3_mlp_simclrhn_probe0,1,416,NaN,elephant,elephant,pow,0416_pow_dnn_pow_elephant_35_n02504013_1763.png,n02504013_1763.png,1.0,1.1400663,-0.34628284,1.0510075
alexnet_w3_mlp_simclrhn_probe0,1,417,NaN,chair,chair,0,0417_pow_dnn_0_chair_35_n04099969_13105.png,n04099969_13105.png,1.0,0.096532464,-0.9033209,0.7070031
alexnet_w3_mlp_simclrhn_probe0,1,418,NaN,elephant,bicycle,pow,0418_pow_dnn_pow_bicycle_35_n03792782_4931.png,n03792782_4931.png,0.0,-2.6766646,0.62204415,-2.3325393
alexnet_w3_mlp_simclrhn_probe0,1,419,NaN,bear,bear,0,0419_pow_dnn_0_bear_35_n02134418_4513.png,n02134418_4513.png,1.0,0.1604611,-2.3281279,1.7596983
alexnet_w3_mlp_simclrhn_probe0,1,420,NaN,cat,cat,pow,0420_pow_dnn_pow_cat_35_n02123045_11224.png,n02123045_11224.png,1.0,1.3893715,-2.034732,2.421207
alexnet_w3_mlp_simclrhn_probe0,1,421,NaN,chair,chair,0,0421_pow_dnn_0_chair_35_n02791124_359.png,n02791124_359.png,1.0,-2.1858535,-2.5217905,0.23754334
alexnet_w3_mlp_simclrhn_probe0,1,422,NaN,knife,clock,pow,0422_pow_dnn_pow_clock_35_n04548280_2654.png,n04548280_2654.png,0.0,-6.240626,-2.6482406,-2.5402
alexnet_w3_mlp_simclrhn_probe0,1,423,NaN,bear,cat,pow,0423_pow_dnn_pow_cat_35_n02123394_4713.png,n02123394_4713.png,0.0,-1.8509611,0.7829238,-1.862438
alexnet_w3_mlp_simclrhn_probe0,1,424,NaN,elephant,bottle,pow,0424_pow_dnn_pow_bottle_35_n04557648_94.png,n04557648_94.png,0.0,-7.989091,-0.59537196,-5.228149
alexnet_w3_mlp_simclrhn_probe0,1,425,NaN,chair,chair,0,0425_pow_dnn_0_chair_35_n04099969_15676.png,n04099969_15676.png,1.0,2.2522774,-1.1654704,2.4167128
alexnet_w3_mlp_simclrhn_probe0,1,426,NaN,oven,boat,pow,0426_pow_dnn_pow_boat_35_n02951358_537.png,n02951358_537.png,0.0,-4.198619,-0.8996493,-2.3327239
alexnet_w3_mlp_simclrhn_probe0,1,427,NaN,clock,clock,0,0427_pow_dnn_0_clock_35_n03196217_1376.png,n03196217_1376.png,1.0,1.7210903,0.5021617,0.86191267
alexnet_w3_mlp_simclrhn_probe0,1,428,NaN,bear,chair,pow,0428_pow_dnn_pow_chair_35_n02791124_1594.png,n02791124_1594.png,0.0,-3.6994352,-0.8691663,-2.0013022
alexnet_w3_mlp_simclrhn_probe0,1,429,NaN,bicycle,bird,0,0429_pow_dnn_0_bird_35_n02007558_7112.png,n02007558_7112.png,0.0,-5.9120946,-3.9245975,-1.4053727
alexnet_w3_mlp_simclrhn_probe0,1,430,NaN,bicycle,bicycle,0,0430_pow_dnn_0_bicycle_35_n02835271_6094.png,n02835271_6094.png,1.0,5.7026777,-4.424734,7.161162
alexnet_w3_mlp_simclrhn_probe0,1,431,NaN,airplane,airplane,pow,0431_pow_dnn_pow_airplane_35_n02690373_7676.png,n02690373_7676.png,1.0,-1.6549149,-2.9626956,0.9247407
alexnet_w3_mlp_simclrhn_probe0,1,432,NaN,cat,cat,pow,0432_pow_dnn_pow_cat_35_n02123045_3375.png,n02123045_3375.png,1.0,1.7535719,-2.345582,2.8985395
alexnet_w3_mlp_simclrhn_probe0,1,433,NaN,bicycle,bicycle,0,0433_pow_dnn_0_bicycle_35_n02835271_15617.png,n02835271_15617.png,1.0,5.3091335,-3.6449935,6.3315244
alexnet_w3_mlp_simclrhn_probe0,1,434,NaN,elephant,oven,pow,0434_pow_dnn_pow_oven_35_n04111531_4904.png,n04111531_4904.png,0.0,-2.3681219,-1.5360603,-0.5883564
alexnet_w3_mlp_simclrhn_probe0,1,435,NaN,boat,boat,0,0435_pow_dnn_0_boat_35_n02951358_5718.png,n02951358_5718.png,1.0,0.6860305,-1.4338353,1.4989716
alexnet_w3_mlp_simclrhn_probe0,1,436,NaN,elephant,elephant,pow,0436_pow_dnn_pow_elephant_35_n02504013_7467.png,n02504013_7467.png,1.0,0.22236171,-0.8401067,0.75127864
alexnet_w3_mlp_simclrhn_probe0,1,437,NaN,elephant,elephant,pow,0437_pow_dnn_pow_elephant_35_n02504013_1830.png,n02504013_1830.png,1.0,8.884238,1.2828243,5.3750114
alexnet_w3_mlp_simclrhn_probe0,1,438,NaN,car,car,0,0438_pow_dnn_0_car_35_n02814533_59762.png,n02814533_59762.png,1.0,0.9284361,-0.20154124,0.7990146
alexnet_w3_mlp_simclrhn_probe0,1,439,NaN,elephant,bicycle,pow,0439_pow_dnn_pow_bicycle_35_n02835271_771.png,n02835271_771.png,0.0,-5.3536377,1.654053,-4.9551854
alexnet_w3_mlp_simclrhn_probe0,1,440,NaN,cat,bicycle,pow,0440_pow_dnn_pow_bicycle_35_n02835271_4313.png,n02835271_4313.png,0.0,-4.301759,-3.184191,-0.79023975
alexnet_w3_mlp_simclrhn_probe0,1,441,NaN,bear,bear,0,0441_pow_dnn_0_bear_35_n02132136_891.png,n02132136_891.png,1.0,5.997715,4.5155506,1.0480485
alexnet_w3_mlp_simclrhn_probe0,1,442,NaN,bear,bear,pow,0442_pow_dnn_pow_bear_35_n02132136_18276.png,n02132136_18276.png,1.0,2.019464,1.1351146,0.6253295
alexnet_w3_mlp_simclrhn_probe0,1,443,NaN,elephant,elephant,pow,0443_pow_dnn_pow_elephant_35_n02504013_2865.png,n02504013_2865.png,1.0,4.1678834,0.82880104,2.3610878
alexnet_w3_mlp_simclrhn_probe0,1,444,NaN,boat,boat,0,0444_pow_dnn_0_boat_35_n03662601_10120.png,n03662601_10120.png,1.0,2.887954,1.5048208,0.9780229
alexnet_w3_mlp_simclrhn_probe0,1,445,NaN,elephant,bottle,pow,0445_pow_dnn_pow_bottle_35_n03983396_4241.png,n03983396_4241.png,0.0,-4.837452,-3.4772267,-0.9618245
alexnet_w3_mlp_simclrhn_probe0,1,446,NaN,elephant,elephant,pow,0446_pow_dnn_pow_elephant_35_n02504458_8254.png,n02504458_8254.png,1.0,1.7044497,0.71385765,0.70045435
alexnet_w3_mlp_simclrhn_probe0,1,447,NaN,elephant,boat,pow,0447_pow_dnn_pow_boat_35_n04612504_857.png,n04612504_857.png,0.0,-4.699808,-1.4617813,-2.289631
alexnet_w3_mlp_simclrhn_probe0,1,448,NaN,elephant,car,pow,0448_pow_dnn_pow_car_35_n04285008_6037.png,n04285008_6037.png,0.0,-5.4471536,-2.7951484,-1.8752509
alexnet_w3_mlp_simclrhn_probe0,1,449,NaN,elephant,elephant,pow,0449_pow_dnn_pow_elephant_35_n02504458_2888.png,n02504458_2888.png,1.0,2.550559,-2.412153,3.5091677
alexnet_w3_mlp_simclrhn_probe0,1,450,NaN,elephant,elephant,0,0450_pow_dnn_0_elephant_35_n02504013_6257.png,n02504013_6257.png,1.0,-0.11325017,-4.481385,3.088738
alexnet_w3_mlp_simclrhn_probe0,1,451,NaN,car,car,0,0451_pow_dnn_0_car_35_n04285008_8616.png,n04285008_8616.png,1.0,13.900584,9.175583,3.3410804
alexnet_w3_mlp_simclrhn_probe0,1,452,NaN,bird,bird,0,0452_pow_dnn_0_bird_35_n01537544_5372.png,n01537544_5372.png,1.0,-3.385557,-3.4898987,0.07378076
alexnet_w3_mlp_simclrhn_probe0,1,453,NaN,airplane,airplane,pow,0453_pow_dnn_pow_airplane_35_n02690373_2498.png,n02690373_2498.png,1.0,-0.51855594,-2.6856325,1.5323546
alexnet_w3_mlp_simclrhn_probe0,1,454,NaN,dog,dog,0,0454_pow_dnn_0_dog_35_n02099601_2980.png,n02099601_2980.png,1.0,-2.9501166,-4.471903,1.0760654
alexnet_w3_mlp_simclrhn_probe0,1,455,NaN,oven,keyboard,pow,0455_pow_dnn_pow_keyboard_35_n04505470_1904.png,n04505470_1904.png,0.0,-8.805289,-2.1645708,-4.6956973
alexnet_w3_mlp_simclrhn_probe0,1,456,NaN,airplane,airplane,0,0456_pow_dnn_0_airplane_35_n02690373_2967.png,n02690373_2967.png,1.0,4.123311,-0.07101456,2.965836
alexnet_w3_mlp_simclrhn_probe0,1,457,NaN,car,car,0,0457_pow_dnn_0_car_35_n04285008_7508.png,n04285008_7508.png,1.0,6.460631,4.6864357,1.2545455
alexnet_w3_mlp_simclrhn_probe0,1,458,NaN,bird,bird,0,0458_pow_dnn_0_bird_35_n02051845_6652.png,n02051845_6652.png,1.0,-3.613408,-4.319205,0.49907365
alexnet_w3_mlp_simclrhn_probe0,1,459,NaN,oven,truck,pow,0459_pow_dnn_pow_truck_35_n03796401_6737.png,n03796401_6737.png,0.0,-5.5674047,-0.3894781,-3.6613472
alexnet_w3_mlp_simclrhn_probe0,1,460,NaN,elephant,bottle,pow,0460_pow_dnn_pow_bottle_35_n03937543_2177.png,n03937543_2177.png,0.0,-3.787105,-2.5815773,-0.8524369
alexnet_w3_mlp_simclrhn_probe0,1,461,NaN,knife,keyboard,pow,0461_pow_dnn_pow_keyboard_35_n03085013_6432.png,n03085013_6432.png,0.0,-8.83151,-2.6429462,-4.375975
alexnet_w3_mlp_simclrhn_probe0,1,462,NaN,bird,bird,0,0462_pow_dnn_0_bird_35_n01530575_10212.png,n01530575_10212.png,1.0,-0.13333191,-4.3640223,2.99155
alexnet_w3_mlp_simclrhn_probe0,1,463,NaN,oven,boat,pow,0463_pow_dnn_pow_boat_35_n04273569_31649.png,n04273569_31649.png,0.0,-3.8301225,-1.3733675,-1.7371881
alexnet_w3_mlp_simclrhn_probe0,1,464,NaN,keyboard,keyboard,0,0464_pow_dnn_0_keyboard_35_n04505470_2869.png,n04505470_2869.png,1.0,15.592954,0.2504704,10.848774
alexnet_w3_mlp_simclrhn_probe0,1,465,NaN,oven,oven,0,0465_pow_dnn_0_oven_35_n04111531_5110.png,n04111531_5110.png,1.0,1.6247691,-4.017635,3.9897823
alexnet_w3_mlp_simclrhn_probe0,1,466,NaN,bottle,bottle,pow,0466_pow_dnn_pow_bottle_35_n04579145_4389.png,n04579145_4389.png,1.0,-1.4321164,-4.9317193,2.474593
alexnet_w3_mlp_simclrhn_probe0,1,467,NaN,bottle,bottle,0,0467_pow_dnn_0_bottle_35_n04557648_9310.png,n04557648_9310.png,1.0,-0.60166216,-1.4138392,0.57429594
alexnet_w3_mlp_simclrhn_probe0,1,468,NaN,bear,dog,pow,0468_pow_dnn_pow_dog_35_n02108000_6061.png,n02108000_6061.png,0.0,-3.3218606,-0.7119383,-1.8454937
alexnet_w3_mlp_simclrhn_probe0,1,469,NaN,elephant,knife,pow,0469_pow_dnn_pow_knife_35_n03041632_84240.png,n03041632_84240.png,0.0,-3.4106467,-0.48301402,-2.070149
alexnet_w3_mlp_simclrhn_probe0,1,470,NaN,bear,cat,pow,0470_pow_dnn_pow_cat_35_n02123394_3718.png,n02123394_3718.png,0.0,-3.3431532,-2.0112774,-0.9417784
alexnet_w3_mlp_simclrhn_probe0,1,471,NaN,bear,dog,pow,0471_pow_dnn_pow_dog_35_n02098105_2157.png,n02098105_2157.png,0.0,-1.3705435,1.0732956,-1.7280552
alexnet_w3_mlp_simclrhn_probe0,1,472,NaN,clock,clock,0,0472_pow_dnn_0_clock_35_n04548280_2601.png,n04548280_2601.png,1.0,3.0652382,-5.037112,5.729227
alexnet_w3_mlp_simclrhn_probe0,1,473,NaN,dog,cat,0,0473_pow_dnn_0_cat_35_n02123394_4286.png,n02123394_4286.png,0.0,-4.7000113,-2.6098013,-1.4780017
alexnet_w3_mlp_simclrhn_probe0,1,474,NaN,bottle,bottle,0,0474_pow_dnn_0_bottle_35_n02823428_4569.png,n02823428_4569.png,1.0,5.754466,-2.668403,5.955868
alexnet_w3_mlp_simclrhn_probe0,1,475,NaN,elephant,bird,pow,0475_pow_dnn_pow_bird_35_n02017213_15747.png,n02017213_15747.png,0.0,-4.9863563,-1.004037,-2.8159251
alexnet_w3_mlp_simclrhn_probe0,1,476,NaN,elephant,bicycle,0,0476_pow_dnn_0_bicycle_35_n03792782_11390.png,n03792782_11390.png,0.0,-2.2236965,-0.6202536,-1.1338054
alexnet_w3_mlp_simclrhn_probe0,1,477,NaN,car,car,0,0477_pow_dnn_0_car_35_n02814533_4374.png,n02814533_4374.png,1.0,10.835992,5.398344,3.8449976
alexnet_w3_mlp_simclrhn_probe0,1,478,NaN,keyboard,keyboard,0,0478_pow_dnn_0_keyboard_35_n04505470_5137.png,n04505470_5137.png,1.0,2.2876534,-2.488684,3.3773808
alexnet_w3_mlp_simclrhn_probe0,1,479,NaN,elephant,elephant,0,0479_pow_dnn_0_elephant_35_n02504013_306.png,n02504013_306.png,1.0,5.2556176,-2.016108,5.1418867
alexnet_w3_mlp_simclrhn_probe0,1,480,NaN,bicycle,boat,0,0480_pow_dnn_0_boat_35_n02951358_14624.png,n02951358_14624.png,0.0,-0.7111274,1.5584506,-1.604834
alexnet_w3_mlp_simclrhn_probe0,1,481,NaN,bear,cat,pow,0481_pow_dnn_pow_cat_35_n02125311_28114.png,n02125311_28114.png,0.0,-1.8513098,-0.42061856,-1.0116515
alexnet_w3_mlp_simclrhn_probe0,1,482,NaN,car,car,pow,0482_pow_dnn_pow_car_35_n03100240_6259.png,n03100240_6259.png,1.0,-2.6373787,-2.9027004,0.1876108
alexnet_w3_mlp_simclrhn_probe0,1,483,NaN,elephant,cat,pow,0483_pow_dnn_pow_cat_35_n02125311_12361.png,n02125311_12361.png,0.0,-2.6137402,0.7131467,-2.3524644
alexnet_w3_mlp_simclrhn_probe0,1,484,NaN,bicycle,bird,0,0484_pow_dnn_0_bird_35_n01833805_16468.png,n01833805_16468.png,0.0,-2.9305112,-2.1316595,-0.56487346
alexnet_w3_mlp_simclrhn_probe0,1,485,NaN,bear,dog,pow,0485_pow_dnn_pow_dog_35_n02110063_6748.png,n02110063_6748.png,0.0,-2.5180163,-0.41559982,-1.486633
alexnet_w3_mlp_simclrhn_probe0,1,486,NaN,oven,clock,pow,0486_pow_dnn_pow_clock_35_n04548280_2943.png,n04548280_2943.png,0.0,-6.978452,0.12346575,-5.0218143
alexnet_w3_mlp_simclrhn_probe0,1,487,NaN,oven,chair,pow,0487_pow_dnn_pow_chair_35_n03376595_14619.png,n03376595_14619.png,0.0,-6.062056,-2.4113836,-2.5814152
alexnet_w3_mlp_simclrhn_probe0,1,488,NaN,car,car,0,0488_pow_dnn_0_car_35_n03100240_5719.png,n03100240_5719.png,1.0,7.876676,4.213562,2.5902128
alexnet_w3_mlp_simclrhn_probe0,1,489,NaN,bicycle,dog,0,0489_pow_dnn_0_dog_35_n02093754_4677.png,n02093754_4677.png,0.0,-2.9453378,-1.1068395,-1.3000146
alexnet_w3_mlp_simclrhn_probe0,1,490,NaN,boat,boat,pow,0490_pow_dnn_pow_boat_35_n04273569_113.png,n04273569_113.png,1.0,-0.69165736,-2.8219407,1.5063379
alexnet_w3_mlp_simclrhn_probe0,1,491,NaN,cat,clock,pow,0491_pow_dnn_pow_clock_35_n02708093_148.png,n02708093_148.png,0.0,-3.5344837,-2.4802415,-0.74546176
alexnet_w3_mlp_simclrhn_probe0,1,492,NaN,cat,cat,0,0492_pow_dnn_0_cat_35_n02125311_53223.png,n02125311_53223.png,1.0,2.5450263,-1.3849247,2.778895
alexnet_w3_mlp_simclrhn_probe0,1,493,NaN,knife,knife,0,0493_pow_dnn_0_knife_35_n03041632_7982.png,n03041632_7982.png,1.0,-2.245076,-2.896138,0.46037036
alexnet_w3_mlp_simclrhn_probe0,1,494,NaN,elephant,elephant,0,0494_pow_dnn_0_elephant_35_n02504013_7273.png,n02504013_7273.png,1.0,-0.40715328,-5.9646792,3.9297645
alexnet_w3_mlp_simclrhn_probe0,1,495,NaN,oven,truck,pow,0495_pow_dnn_pow_truck_35_n03417042_26102.png,n03417042_26102.png,0.0,-3.737133,-0.09224829,-2.5773227
alexnet_w3_mlp_simclrhn_probe0,1,496,NaN,elephant,car,pow,0496_pow_dnn_pow_car_35_n02814533_874.png,n02814533_874.png,0.0,-4.8518724,-2.9799786,-1.3236289
alexnet_w3_mlp_simclrhn_probe0,1,497,NaN,bicycle,bicycle,0,0497_pow_dnn_0_bicycle_35_n03792782_21148.png,n03792782_21148.png,1.0,0.61308074,-1.4435294,1.454243
alexnet_w3_mlp_simclrhn_probe0,1,498,NaN,oven,oven,pow,0498_pow_dnn_pow_oven_35_n04111531_4146.png,n04111531_4146.png,1.0,0.9835869,-2.7602644,2.6473026
alexnet_w3_mlp_simclrhn_probe0,1,499,NaN,oven,keyboard,pow,0499_pow_dnn_pow_keyboard_35_n03085013_21183.png,n03085013_21183.png,0.0,-4.1881113,0.64292425,-3.416058
alexnet_w3_mlp_simclrhn_probe0,1,500,NaN,boat,boat,0,0500_pow_dnn_0_boat_35_n04612504_19147.png,n04612504_19147.png,1.0,0.083943985,-3.0125446,2.1895483
alexnet_w3_mlp_simclrhn_probe0,1,501,NaN,elephant,bear,0,0501_pow_dnn_0_bear_35_n02133161_2044.png,n02133161_2044.png,0.0,-0.29080427,0.9450098,-0.87385255
alexnet_w3_mlp_simclrhn_probe0,1,502,NaN,elephant,bottle,pow,0502_pow_dnn_pow_bottle_35_n04579145_3894.png,n04579145_3894.png,0.0,-4.642882,-1.4432487,-2.2624824
alexnet_w3_mlp_simclrhn_probe0,1,503,NaN,bicycle,bicycle,0,0503_pow_dnn_0_bicycle_35_n03792782_13399.png,n03792782_13399.png,1.0,0.88407636,-4.345637,3.6979659
alexnet_w3_mlp_simclrhn_probe0,1,504,NaN,elephant,knife,pow,0504_pow_dnn_pow_knife_35_n03041632_21818.png,n03041632_21818.png,0.0,-3.939135,-1.7838011,-1.5240513
alexnet_w3_mlp_simclrhn_probe0,1,505,NaN,chair,chair,0,0505_pow_dnn_0_chair_35_n03376595_7010.png,n03376595_7010.png,1.0,-1.4141462,-3.745605,1.6485903
alexnet_w3_mlp_simclrhn_probe0,1,506,NaN,oven,oven,0,0506_pow_dnn_0_oven_35_n04111531_4.png,n04111531_4.png,1.0,-0.72296435,-1.5775305,0.60426956
alexnet_w3_mlp_simclrhn_probe0,1,507,NaN,bear,bird,pow,0507_pow_dnn_pow_bird_35_n01820546_6471.png,n01820546_6471.png,0.0,-4.5700116,-0.818586,-2.6526587
alexnet_w3_mlp_simclrhn_probe0,1,508,NaN,bear,bear,pow,0508_pow_dnn_pow_bear_35_n02132136_10352.png,n02132136_10352.png,1.0,2.1587832,-0.3431841,1.7691581
alexnet_w3_mlp_simclrhn_probe0,1,509,NaN,bottle,clock,pow,0509_pow_dnn_pow_clock_35_n04548280_8348.png,n04548280_8348.png,0.0,-6.515516,-2.6218507,-2.753237
alexnet_w3_mlp_simclrhn_probe0,1,510,NaN,elephant,elephant,0,0510_pow_dnn_0_elephant_35_n02504013_5087.png,n02504013_5087.png,1.0,4.720597,-3.060882,5.5023365
alexnet_w3_mlp_simclrhn_probe0,1,511,NaN,airplane,airplane,pow,0511_pow_dnn_pow_airplane_35_n02690373_60.png,n02690373_60.png,1.0,-0.012304053,-1.6056759,1.1266841
alexnet_w3_mlp_simclrhn_probe0,1,512,NaN,oven,chair,pow,0512_pow_dnn_pow_chair_35_n02791124_16085.png,n02791124_16085.png,0.0,-4.843985,-2.2064784,-1.8649989
alexnet_w3_mlp_simclrhn_probe0,1,513,NaN,bottle,bottle,0,0513_pow_dnn_0_bottle_35_n02823428_3611.png,n02823428_3611.png,1.0,1.1690617,-2.9945612,2.944126
alexnet_w3_mlp_simclrhn_probe0,1,514,NaN,elephant,bird,pow,0514_pow_dnn_pow_bird_35_n01614925_8653.png,n01614925_8653.png,0.0,-2.449158,-0.8850385,-1.1059995
alexnet_w3_mlp_simclrhn_probe0,1,515,NaN,bird,bird,pow,0515_pow_dnn_pow_bird_35_n01537544_9881.png,n01537544_9881.png,1.0,-3.4149792,-3.7479722,0.23546164
alexnet_w3_mlp_simclrhn_probe0,1,516,NaN,knife,knife,0,0516_pow_dnn_0_knife_35_n03041632_35365.png,n03041632_35365.png,1.0,0.96292734,-2.9305062,2.7530732
alexnet_w3_mlp_simclrhn_probe0,1,517,NaN,bear,bear,0,0517_pow_dnn_0_bear_35_n02132136_23202.png,n02132136_23202.png,1.0,-1.1920061,-2.6674414,1.0432903
alexnet_w3_mlp_simclrhn_probe0,1,518,NaN,oven,oven,0,0518_pow_dnn_0_oven_35_n04111531_3976.png,n04111531_3976.png,1.0,3.101091,-3.0943947,4.38087
alexnet_w3_mlp_simclrhn_probe0,1,519,NaN,oven,chair,pow,0519_pow_dnn_pow_chair_35_n04429376_32124.png,n04429376_32124.png,0.0,-4.597863,-0.78563863,-2.6956499
alexnet_w3_mlp_simclrhn_probe0,1,520,NaN,bear,bear,pow,0520_pow_dnn_pow_bear_35_n02134418_848.png,n02134418_848.png,1.0,1.0474455,-0.20334437,0.88444203
alexnet_w3_mlp_simclrhn_probe0,1,521,NaN,boat,boat,0,0521_pow_dnn_0_boat_35_n03344393_7374.png,n03344393_7374.png,1.0,5.0127363,1.8797494,2.2153563
alexnet_w3_mlp_simclrhn_probe0,1,522,NaN,oven,bird,pow,0522_pow_dnn_pow_bird_35_n01532829_3914.png,n01532829_3914.png,0.0,-5.1788573,-0.072135575,-3.6109977
alexnet_w3_mlp_simclrhn_probe0,1,523,NaN,keyboard,keyboard,0,0523_pow_dnn_0_keyboard_35_n04505470_5902.png,n04505470_5902.png,1.0,12.49402,0.89092225,8.204629
alexnet_w3_mlp_simclrhn_probe0,1,524,NaN,oven,truck,pow,0524_pow_dnn_pow_truck_35_n03417042_11165.png,n03417042_11165.png,0.0,-5.4811497,-1.7304568,-2.6521404
alexnet_w3_mlp_simclrhn_probe0,1,525,NaN,clock,clock,0,0525_pow_dnn_0_clock_35_n02708093_5.png,n02708093_5.png,1.0,-1.1898899,-2.6957545,1.064807
alexnet_w3_mlp_simclrhn_probe0,1,526,NaN,elephant,elephant,pow,0526_pow_dnn_pow_elephant_35_n02504458_4187.png,n02504458_4187.png,1.0,1.3062247,-1.2098825,1.7791564
alexnet_w3_mlp_simclrhn_probe0,1,527,NaN,knife,knife,0,0527_pow_dnn_0_knife_35_n03041632_10802.png,n03041632_10802.png,1.0,3.912308,-1.9519613,4.1466646
alexnet_w3_mlp_simclrhn_probe0,1,528,NaN,car,car,0,0528_pow_dnn_0_car_35_n04285008_16647.png,n04285008_16647.png,1.0,5.9898915,-0.7662607,4.777321
alexnet_w3_mlp_simclrhn_probe0,1,529,NaN,bear,dog,0,0529_pow_dnn_0_dog_35_n02104365_3004.png,n02104365_3004.png,0.0,-0.3366422,1.0366516,-0.9710654
alexnet_w3_mlp_simclrhn_probe0,1,530,NaN,elephant,elephant,pow,0530_pow_dnn_pow_elephant_35_n02504013_21616.png,n02504013_21616.png,1.0,0.6486162,0.09247172,0.39325354
alexnet_w3_mlp_simclrhn_probe0,1,531,NaN,keyboard,keyboard,0,0531_pow_dnn_0_keyboard_35_n03085013_23465.png,n03085013_23465.png,1.0,0.5473738,-0.2239772,0.5454275
alexnet_w3_mlp_simclrhn_probe0,1,532,NaN,bear,airplane,pow,0532_pow_dnn_pow_airplane_35_n02690373_911.png,n02690373_911.png,0.0,-2.658032,-1.7994055,-0.6071406
alexnet_w3_mlp_simclrhn_probe0,1,533,NaN,elephant,elephant,0,0533_pow_dnn_0_elephant_35_n02504013_1454.png,n02504013_1454.png,1.0,4.2903495,-4.499147,6.2151127
alexnet_w3_mlp_simclrhn_probe0,1,534,NaN,bicycle,bicycle,0,0534_pow_dnn_0_bicycle_35_n03792782_70690.png,n03792782_70690.png,1.0,1.4903835,-5.9810185,5.283079
alexnet_w3_mlp_simclrhn_probe0,1,535,NaN,truck,chair,0,0535_pow_dnn_0_chair_35_n04429376_31206.png,n04429376_31206.png,0.0,-1.6228201,-0.4260073,-0.8462745
alexnet_w3_mlp_simclrhn_probe0,1,536,NaN,airplane,clock,0,0536_pow_dnn_0_clock_35_n02708093_2498.png,n02708093_2498.png,0.0,-3.2238204,-2.235649,-0.6987427
alexnet_w3_mlp_simclrhn_probe0,1,537,NaN,keyboard,keyboard,0,0537_pow_dnn_0_keyboard_35_n04505470_1728.png,n04505470_1728.png,1.0,8.399811,0.33656442,5.7015767
alexnet_w3_mlp_simclrhn_probe0,1,538,NaN,bicycle,truck,pow,0538_pow_dnn_pow_truck_35_n03417042_6608.png,n03417042_6608.png,0.0,-4.704399,-2.5763912,-1.5047288
alexnet_w3_mlp_simclrhn_probe0,1,539,NaN,elephant,bird,0,0539_pow_dnn_0_bird_35_n02013706_1016.png,n02013706_1016.png,0.0,-4.6828527,-3.5183377,-0.8234365
alexnet_w3_mlp_simclrhn_probe0,1,540,NaN,clock,clock,0,0540_pow_dnn_0_clock_35_n04548280_5011.png,n04548280_5011.png,1.0,-0.21696155,-3.4017577,2.251991
alexnet_w3_mlp_simclrhn_probe0,1,541,NaN,bicycle,bicycle,0,0541_pow_dnn_0_bicycle_35_n02835271_19557.png,n02835271_19557.png,1.0,3.1296568,-5.632358,6.1956797
alexnet_w3_mlp_simclrhn_probe0,1,542,NaN,bear,bear,pow,0542_pow_dnn_pow_bear_35_n02134084_5827.png,n02134084_5827.png,1.0,2.2717407,1.522481,0.5298066
alexnet_w3_mlp_simclrhn_probe0,1,543,NaN,elephant,dog,pow,0543_pow_dnn_pow_dog_35_n02096585_1894.png,n02096585_1894.png,0.0,-3.809098,-2.7882948,-0.7218169
alexnet_w3_mlp_simclrhn_probe0,1,544,NaN,bear,boat,pow,0544_pow_dnn_pow_boat_35_n02951358_34234.png,n02951358_34234.png,0.0,-1.5618871,-0.84304786,-0.50829613
alexnet_w3_mlp_simclrhn_probe0,1,545,NaN,cat,cat,pow,0545_pow_dnn_pow_cat_35_n02123597_5514.png,n02123597_5514.png,1.0,0.042718727,-1.6165574,1.1732854
alexnet_w3_mlp_simclrhn_probe0,1,546,NaN,oven,oven,pow,0546_pow_dnn_pow_oven_35_n04111531_3580.png,n04111531_3580.png,1.0,1.1674778,-0.720823,1.3352304
alexnet_w3_mlp_simclrhn_probe0,1,547,NaN,airplane,airplane,0,0547_pow_dnn_0_airplane_35_n02690373_7107.png,n02690373_7107.png,1.0,3.4582772,-0.9652192,3.1278841
alexnet_w3_mlp_simclrhn_probe0,1,548,NaN,knife,cat,0,0548_pow_dnn_0_cat_35_n02123159_5224.png,n02123159_5224.png,0.0,-2.5878909,-0.85674834,-1.2241026
alexnet_w3_mlp_simclrhn_probe0,1,549,NaN,elephant,bear,pow,0549_pow_dnn_pow_bear_35_n02133161_6679.png,n02133161_6679.png,0.0,2.1034951,2.9688869,-0.61192435
alexnet_w3_mlp_simclrhn_probe0,1,550,NaN,dog,dog,0,0550_pow_dnn_0_dog_35_n02106030_22.png,n02106030_22.png,1.0,-0.69974285,-0.83277524,0.0940681
alexnet_w3_mlp_simclrhn_probe0,1,551,NaN,truck,truck,0,0551_pow_dnn_0_truck_35_n03417042_4574.png,n03417042_4574.png,1.0,5.8007736,4.9705424,0.5870621
alexnet_w3_mlp_simclrhn_probe0,1,552,NaN,bear,dog,pow,0552_pow_dnn_pow_dog_35_n02097298_7577.png,n02097298_7577.png,0.0,-3.7366388,-1.2828326,-1.735103
alexnet_w3_mlp_simclrhn_probe0,1,553,NaN,elephant,dog,pow,0553_pow_dnn_pow_dog_35_n02093428_16873.png,n02093428_16873.png,0.0,-3.3000097,-0.7991292,-1.7683896
alexnet_w3_mlp_simclrhn_probe0,1,554,NaN,bear,bear,0,0554_pow_dnn_0_bear_35_n02132136_4157.png,n02132136_4157.png,1.0,2.447009,1.2508321,0.8458249
alexnet_w3_mlp_simclrhn_probe0,1,555,NaN,bottle,bottle,0,0555_pow_dnn_0_bottle_35_n02823428_2007.png,n02823428_2007.png,1.0,4.1227603,1.5480272,1.8206114
alexnet_w3_mlp_simclrhn_probe0,1,556,NaN,keyboard,keyboard,0,0556_pow_dnn_0_keyboard_35_n03085013_24272.png,n03085013_24272.png,1.0,-3.0281637,-3.5823023,0.3918352
alexnet_w3_mlp_simclrhn_probe0,1,557,NaN,oven,oven,0,0557_pow_dnn_0_oven_35_n04111531_2074.png,n04111531_2074.png,1.0,-2.3984747,-4.7395806,1.655412
alexnet_w3_mlp_simclrhn_probe0,1,558,NaN,oven,bird,pow,0558_pow_dnn_pow_bird_35_n01532829_4536.png,n01532829_4536.png,0.0,-4.6055536,-1.326733,-2.3184762
alexnet_w3_mlp_simclrhn_probe0,1,559,NaN,dog,dog,0,0559_pow_dnn_0_dog_35_n02109047_17100.png,n02109047_17100.png,1.0,-4.580254,-4.700146,0.084776536
alexnet_w3_mlp_simclrhn_probe0,1,560,NaN,oven,oven,pow,0560_pow_dnn_pow_oven_35_n04111531_4407.png,n04111531_4407.png,1.0,1.0751945,-1.8038303,2.035778
alexnet_w3_mlp_simclrhn_probe0,1,561,NaN,airplane,airplane,0,0561_pow_dnn_0_airplane_35_n02690373_8069.png,n02690373_8069.png,1.0,7.0301986,0.47780734,4.63324
alexnet_w3_mlp_simclrhn_probe0,1,562,NaN,clock,bottle,0,0562_pow_dnn_0_bottle_35_n04560804_8921.png,n04560804_8921.png,0.0,-0.72835857,-0.23147206,-0.35135183
alexnet_w3_mlp_simclrhn_probe0,1,563,NaN,bottle,bottle,pow,0563_pow_dnn_pow_bottle_35_n03937543_2936.png,n03937543_2936.png,1.0,4.004467,-5.0936403,6.4333334
alexnet_w3_mlp_simclrhn_probe0,1,564,NaN,cat,cat,0,0564_pow_dnn_0_cat_35_n02123045_8031.png,n02123045_8031.png,1.0,-2.9970505,-4.0785074,0.76470554
alexnet_w3_mlp_simclrhn_probe0,1,565,NaN,oven,oven,0,0565_pow_dnn_0_oven_35_n04111531_3805.png,n04111531_3805.png,1.0,4.419695,-3.9181373,5.895738
alexnet_w3_mlp_simclrhn_probe0,1,566,NaN,truck,truck,0,0566_pow_dnn_0_truck_35_n03417042_27231.png,n03417042_27231.png,1.0,5.7360744,3.728378,1.4196558
alexnet_w3_mlp_simclrhn_probe0,1,567,NaN,elephant,elephant,0,0567_pow_dnn_0_elephant_35_n02504013_7232.png,n02504013_7232.png,1.0,1.4721756,-0.7957076,1.6036357
alexnet_w3_mlp_simclrhn_probe0,1,568,NaN,oven,knife,0,0568_pow_dnn_0_knife_35_n03041632_5102.png,n03041632_5102.png,0.0,-4.0144367,-2.3897746,-1.1488097
alexnet_w3_mlp_simclrhn_probe0,1,569,NaN,cat,dog,pow,0569_pow_dnn_pow_dog_35_n02110958_8916.png,n02110958_8916.png,0.0,-2.5319684,-1.2032025,-0.93957937
alexnet_w3_mlp_simclrhn_probe0,1,570,NaN,bear,bottle,pow,0570_pow_dnn_pow_bottle_35_n04557648_9790.png,n04557648_9790.png,0.0,-3.8085637,-0.92940104,-2.0358756
alexnet_w3_mlp_simclrhn_probe0,1,571,NaN,cat,cat,pow,0571_pow_dnn_pow_cat_35_n02123394_3786.png,n02123394_3786.png,1.0,2.7428916,-0.06988466,1.9889331
alexnet_w3_mlp_simclrhn_probe0,1,572,NaN,airplane,truck,0,0572_pow_dnn_0_truck_35_n04467665_19132.png,n04467665_19132.png,0.0,1.1951094,2.1252108,-0.657681
alexnet_w3_mlp_simclrhn_probe0,1,573,NaN,elephant,truck,pow,0573_pow_dnn_pow_truck_35_n03796401_2934.png,n03796401_2934.png,0.0,-4.8805537,-2.0360847,-2.0113435
alexnet_w3_mlp_simclrhn_probe0,1,574,NaN,bicycle,bicycle,0,0574_pow_dnn_0_bicycle_35_n02835271_12799.png,n02835271_12799.png,1.0,6.4819164,-3.3167114,6.928676
alexnet_w3_mlp_simclrhn_probe0,1,575,NaN,car,car,0,0575_pow_dnn_0_car_35_n02814533_1297.png,n02814533_1297.png,1.0,-0.7593312,-3.0179915,1.5971141
alexnet_w3_mlp_simclrhn_probe0,1,576,NaN,bear,bear,pow,0576_pow_dnn_pow_bear_35_n02134418_1974.png,n02134418_1974.png,1.0,1.2599382,-0.84551895,1.4887831
alexnet_w3_mlp_simclrhn_probe0,1,577,NaN,cat,cat,0,0577_pow_dnn_0_cat_35_n02124075_2843.png,n02124075_2843.png,1.0,0.5511568,-4.034876,3.242815
alexnet_w3_mlp_simclrhn_probe0,1,578,NaN,cat,cat,0,0578_pow_dnn_0_cat_35_n02123597_5697.png,n02123597_5697.png,1.0,-2.3383503,-3.2020073,0.61069775
alexnet_w3_mlp_simclrhn_probe0,1,579,NaN,elephant,bicycle,pow,0579_pow_dnn_pow_bicycle_35_n02835271_2315.png,n02835271_2315.png,0.0,-2.5889015,-1.2699516,-0.93263847
alexnet_w3_mlp_simclrhn_probe0,1,580,NaN,keyboard,keyboard,0,0580_pow_dnn_0_keyboard_35_n04505470_4515.png,n04505470_4515.png,1.0,11.683481,0.51487076,7.8974004
alexnet_w3_mlp_simclrhn_probe0,1,581,NaN,elephant,knife,pow,0581_pow_dnn_pow_knife_35_n03041632_4269.png,n03041632_4269.png,0.0,-3.4137645,-0.84836435,-1.8140118
alexnet_w3_mlp_simclrhn_probe0,1,582,NaN,cat,cat,0,0582_pow_dnn_0_cat_35_n02123045_12010.png,n02123045_12010.png,1.0,2.666621,-6.4098163,6.41801
alexnet_w3_mlp_simclrhn_probe0,1,583,NaN,car,clock,0,0583_pow_dnn_0_clock_35_n03196217_6467.png,n03196217_6467.png,0.0,1.0833254,1.8693357,-0.5557932
alexnet_w3_mlp_simclrhn_probe0,1,584,NaN,oven,bottle,pow,0584_pow_dnn_pow_bottle_35_n03983396_2864.png,n03983396_2864.png,0.0,-1.6886245,-1.6726406,-0.011302352
alexnet_w3_mlp_simclrhn_probe0,1,585,NaN,airplane,bottle,0,0585_pow_dnn_0_bottle_35_n04557648_10171.png,n04557648_10171.png,0.0,-2.7825084,0.7292273,-2.4831722
alexnet_w3_mlp_simclrhn_probe0,1,586,NaN,bear,bird,pow,0586_pow_dnn_pow_bird_35_n01860187_2052.png,n01860187_2052.png,0.0,-4.042506,-0.8392989,-2.2650096
alexnet_w3_mlp_simclrhn_probe0,1,587,NaN,car,car,0,0587_pow_dnn_0_car_35_n04285008_5897.png,n04285008_5897.png,1.0,12.048317,4.1081,5.6145816
alexnet_w3_mlp_simclrhn_probe0,1,588,NaN,elephant,elephant,0,0588_pow_dnn_0_elephant_35_n02504458_4721.png,n02504458_4721.png,1.0,8.934907,-3.682718,8.9220085
alexnet_w3_mlp_simclrhn_probe0,1,589,NaN,car,car,0,0589_pow_dnn_0_car_35_n02814533_93476.png,n02814533_93476.png,1.0,5.1874456,0.7879231,3.1109324
alexnet_w3_mlp_simclrhn_probe0,1,590,NaN,elephant,bird,pow,0590_pow_dnn_pow_bird_35_n01824575_10337.png,n01824575_10337.png,0.0,-5.882119,-1.0976139,-3.3831563
alexnet_w3_mlp_simclrhn_probe0,1,591,NaN,oven,dog,pow,0591_pow_dnn_pow_dog_35_n02100735_10683.png,n02100735_10683.png,0.0,-4.396167,-1.0938544,-2.3350875
alexnet_w3_mlp_simclrhn_probe0,1,592,NaN,elephant,airplane,pow,0592_pow_dnn_pow_airplane_35_n02690373_4402.png,n02690373_4402.png,0.0,-3.4038513,-2.7810054,-0.44041857
alexnet_w3_mlp_simclrhn_probe0,1,593,NaN,airplane,airplane,0,0593_pow_dnn_0_airplane_35_n02690373_4350.png,n02690373_4350.png,1.0,5.543341,-2.7992651,5.8991137
alexnet_w3_mlp_simclrhn_probe0,1,594,NaN,elephant,bottle,pow,0594_pow_dnn_pow_bottle_35_n02823428_6327.png,n02823428_6327.png,0.0,-3.3360543,-2.471713,-0.61118156
alexnet_w3_mlp_simclrhn_probe0,1,595,NaN,elephant,dog,pow,0595_pow_dnn_pow_dog_35_n02104029_3041.png,n02104029_3041.png,0.0,-1.5319256,1.4221847,-2.0888712
alexnet_w3_mlp_simclrhn_probe0,1,596,NaN,elephant,elephant,pow,0596_pow_dnn_pow_elephant_35_n02504013_24810.png,n02504013_24810.png,1.0,2.6542845,-1.5271899,2.9567487
alexnet_w3_mlp_simclrhn_probe0,1,597,NaN,oven,clock,pow,0597_pow_dnn_pow_clock_35_n04548280_4473.png,n04548280_4473.png,0.0,-6.5756927,-1.6262956,-3.4997523
alexnet_w3_mlp_simclrhn_probe0,1,598,NaN,bear,dog,pow,0598_pow_dnn_pow_dog_35_n02107908_5597.png,n02107908_5597.png,0.0,-3.0470874,-2.8066292,-0.17002966
alexnet_w3_mlp_simclrhn_probe0,1,599,NaN,truck,truck,0,0599_pow_dnn_0_truck_35_n04467665_57697.png,n04467665_57697.png,1.0,3.7561579,-0.27064782,2.8473818
alexnet_w3_mlp_simclrhn_probe0,1,600,NaN,elephant,bottle,pow,0600_pow_dnn_pow_bottle_35_n03983396_6889.png,n03983396_6889.png,0.0,-2.7960835,-1.6428411,-0.8154655
alexnet_w3_mlp_simclrhn_probe0,1,601,NaN,bear,bear,pow,0601_pow_dnn_pow_bear_35_n02134418_1826.png,n02134418_1826.png,1.0,1.9695303,-1.0457807,2.1321468
alexnet_w3_mlp_simclrhn_probe0,1,602,NaN,elephant,cat,pow,0602_pow_dnn_pow_cat_35_n02123159_4687.png,n02123159_4687.png,0.0,-2.299238,-1.8939843,-0.2865576
alexnet_w3_mlp_simclrhn_probe0,1,603,NaN,bear,boat,pow,0603_pow_dnn_pow_boat_35_n03344393_5798.png,n03344393_5798.png,0.0,-2.1794143,-1.9170594,-0.1855129
alexnet_w3_mlp_simclrhn_probe0,1,604,NaN,oven,car,pow,0604_pow_dnn_pow_car_35_n04285008_11745.png,n04285008_11745.png,0.0,-8.005642,-2.3507724,-3.9985967
alexnet_w3_mlp_simclrhn_probe0,1,605,NaN,clock,clock,0,0605_pow_dnn_0_clock_35_n02708093_353.png,n02708093_353.png,1.0,2.88472,2.7435894,0.09979447
alexnet_w3_mlp_simclrhn_probe0,1,606,NaN,airplane,airplane,0,0606_pow_dnn_0_airplane_35_n02690373_4763.png,n02690373_4763.png,1.0,4.7686505,-3.5262966,5.865413
alexnet_w3_mlp_simclrhn_probe0,1,607,NaN,elephant,elephant,0,0607_pow_dnn_0_elephant_35_n02504013_18498.png,n02504013_18498.png,1.0,5.1500177,-1.0145884,4.359035
alexnet_w3_mlp_simclrhn_probe0,1,608,NaN,bear,cat,pow,0608_pow_dnn_pow_cat_35_n02123394_159.png,n02123394_159.png,0.0,-1.429853,0.8104458,-1.5841304
alexnet_w3_mlp_simclrhn_probe0,1,609,NaN,boat,boat,0,0609_pow_dnn_0_boat_35_n03662601_18676.png,n03662601_18676.png,1.0,7.031415,1.8893071,3.6360195
alexnet_w3_mlp_simclrhn_probe0,1,610,NaN,elephant,truck,pow,0610_pow_dnn_pow_truck_35_n03796401_1789.png,n03796401_1789.png,0.0,-4.657915,-1.6248229,-2.14472
alexnet_w3_mlp_simclrhn_probe0,1,611,NaN,chair,chair,0,0611_pow_dnn_0_chair_35_n04099969_4816.png,n04099969_4816.png,1.0,1.6961203,-2.2315023,2.7772486
alexnet_w3_mlp_simclrhn_probe0,1,612,NaN,elephant,elephant,0,0612_pow_dnn_0_elephant_35_n02504458_7013.png,n02504458_7013.png,1.0,11.74819,-5.030049,11.864006
alexnet_w3_mlp_simclrhn_probe0,1,613,NaN,bear,knife,pow,0613_pow_dnn_pow_knife_35_n03041632_92637.png,n03041632_92637.png,0.0,-3.8024275,-2.6403728,-0.8216968
alexnet_w3_mlp_simclrhn_probe0,1,614,NaN,keyboard,keyboard,0,0614_pow_dnn_0_keyboard_35_n03085013_19607.png,n03085013_19607.png,1.0,5.481448,-0.4299685,4.1800027
alexnet_w3_mlp_simclrhn_probe0,1,615,NaN,bear,cat,pow,0615_pow_dnn_pow_cat_35_n02123597_1027.png,n02123597_1027.png,0.0,-1.65913,-1.2005882,-0.32423797
alexnet_w3_mlp_simclrhn_probe0,1,616,NaN,bicycle,bicycle,0,0616_pow_dnn_0_bicycle_35_n02835271_9135.png,n02835271_9135.png,1.0,2.814825,-2.5706558,3.80811
alexnet_w3_mlp_simclrhn_probe0,1,617,NaN,bear,dog,pow,0617_pow_dnn_pow_dog_35_n02111500_3896.png,n02111500_3896.png,0.0,-2.2857819,-1.7193973,-0.40049437
alexnet_w3_mlp_simclrhn_probe0,1,618,NaN,knife,oven,0,0618_pow_dnn_0_oven_35_n04111531_8398.png,n04111531_8398.png,0.0,-5.238433,-0.6401015,-3.2515113
alexnet_w3_mlp_simclrhn_probe0,1,619,NaN,oven,oven,0,0619_pow_dnn_0_oven_35_n04111531_6049.png,n04111531_6049.png,1.0,7.0530143,-3.021244,7.1235766
alexnet_w3_mlp_simclrhn_probe0,1,620,NaN,elephant,chair,pow,0620_pow_dnn_pow_chair_35_n03376595_6947.png,n03376595_6947.png,0.0,-5.1449065,-1.9522796,-2.2575283
alexnet_w3_mlp_simclrhn_probe0,1,621,NaN,bear,dog,pow,0621_pow_dnn_pow_dog_35_n02097658_6717.png,n02097658_6717.png,0.0,-1.6292285,-0.7363739,-0.63134354
alexnet_w3_mlp_simclrhn_probe0,1,622,NaN,knife,knife,0,0622_pow_dnn_0_knife_35_n03041632_21560.png,n03041632_21560.png,1.0,-0.1738524,-2.94959,1.9627428
alexnet_w3_mlp_simclrhn_probe0,1,623,NaN,boat,boat,pow,0623_pow_dnn_pow_boat_35_n03662601_7642.png,n03662601_7642.png,1.0,-2.0187347,-2.110537,0.06491407
alexnet_w3_mlp_simclrhn_probe0,1,624,NaN,car,car,0,0624_pow_dnn_0_car_35_n04285008_1313.png,n04285008_1313.png,1.0,1.9742829,1.3456738,0.44449374
alexnet_w3_mlp_simclrhn_probe0,1,625,NaN,elephant,chair,pow,0625_pow_dnn_pow_chair_35_n03376595_6409.png,n03376595_6409.png,0.0,-3.6373596,0.41170746,-2.8631227
alexnet_w3_mlp_simclrhn_probe0,1,626,NaN,bear,bear,pow,0626_pow_dnn_pow_bear_35_n02133161_6028.png,n02133161_6028.png,1.0,0.8290296,-1.1727358,1.415462
alexnet_w3_mlp_simclrhn_probe0,1,627,NaN,elephant,bear,pow,0627_pow_dnn_pow_bear_35_n02132136_29029.png,n02132136_29029.png,0.0,0.9262632,1.8867872,-0.679193
alexnet_w3_mlp_simclrhn_probe0,1,628,NaN,truck,truck,0,0628_pow_dnn_0_truck_35_n04467665_7290.png,n04467665_7290.png,1.0,1.809514,-0.68597615,1.764578
alexnet_w3_mlp_simclrhn_probe0,1,629,NaN,bear,bird,pow,0629_pow_dnn_pow_bird_35_n01537544_9745.png,n01537544_9745.png,0.0,-4.9713793,-1.5857054,-2.3940332
alexnet_w3_mlp_simclrhn_probe0,1,630,NaN,bicycle,bicycle,0,0630_pow_dnn_0_bicycle_35_n03792782_15845.png,n03792782_15845.png,1.0,1.9613243,-3.4506238,3.8268254
alexnet_w3_mlp_simclrhn_probe0,1,631,NaN,bear,bear,pow,0631_pow_dnn_pow_bear_35_n02133161_8982.png,n02133161_8982.png,1.0,0.88326573,-0.005234927,0.62826484
alexnet_w3_mlp_simclrhn_probe0,1,632,NaN,knife,knife,0,0632_pow_dnn_0_knife_35_n03041632_6575.png,n03041632_6575.png,1.0,-2.9874265,-5.428709,1.7262474
alexnet_w3_mlp_simclrhn_probe0,1,633,NaN,knife,knife,0,0633_pow_dnn_0_knife_35_n03041632_32785.png,n03041632_32785.png,1.0,0.2063316,-3.226354,2.4272752
alexnet_w3_mlp_simclrhn_probe0,1,634,NaN,oven,chair,pow,0634_pow_dnn_pow_chair_35_n04429376_12691.png,n04429376_12691.png,0.0,-4.647045,-2.031162,-1.8497087
alexnet_w3_mlp_simclrhn_probe0,1,635,NaN,bear,dog,pow,0635_pow_dnn_pow_dog_35_n02097298_6578.png,n02097298_6578.png,0.0,-2.320142,-0.10141814,-1.5688746
alexnet_w3_mlp_simclrhn_probe0,1,636,NaN,elephant,knife,pow,0636_pow_dnn_pow_knife_35_n03041632_94995.png,n03041632_94995.png,0.0,-4.4038925,-3.1446295,-0.89043343
alexnet_w3_mlp_simclrhn_probe0,1,637,NaN,clock,clock,0,0637_pow_dnn_0_clock_35_n02708093_41.png,n02708093_41.png,1.0,1.5617547,-3.4281857,3.528421
