subj,session,trial,rt,object_response,category,condition,imagename,filename,is_correct,targ_act,max_nontarg_act,decision_margin
alexnet_w1_mlp_simclrhn_probe1,1,1,NaN,clock,clock,0,0001_pow_dnn_0_clock_35_n03196217_10246.png,n03196217_10246.png,1.0,3.1489437,1.5507591,1.1300871
alexnet_w1_mlp_simclrhn_probe1,1,2,NaN,cat,dog,pow,0002_pow_dnn_pow_dog_35_n02091467_7264.png,n02091467_7264.png,0.0,-0.63224816,1.3508793,-1.402283
alexnet_w1_mlp_simclrhn_probe1,1,3,NaN,oven,chair,pow,0003_pow_dnn_pow_chair_35_n02791124_713.png,n02791124_713.png,0.0,-2.8073146,0.8726394,-2.6021204
alexnet_w1_mlp_simclrhn_probe1,1,4,NaN,car,car,0,0004_pow_dnn_0_car_35_n02814533_35174.png,n02814533_35174.png,1.0,6.619456,5.881762,0.52162826
alexnet_w1_mlp_simclrhn_probe1,1,5,NaN,oven,knife,pow,0005_pow_dnn_pow_knife_35_n03041632_46103.png,n03041632_46103.png,0.0,-2.0349154,-1.54911,-0.3435163
alexnet_w1_mlp_simclrhn_probe1,1,6,NaN,bicycle,bicycle,0,0006_pow_dnn_0_bicycle_35_n03792782_11306.png,n03792782_11306.png,1.0,14.079137,-2.493121,11.718356
alexnet_w1_mlp_simclrhn_probe1,1,7,NaN,bird,bird,0,0007_pow_dnn_0_bird_35_n02002556_3463.png,n02002556_3463.png,1.0,3.2374997,-5.376789,6.091222
alexnet_w1_mlp_simclrhn_probe1,1,8,NaN,oven,keyboard,pow,0008_pow_dnn_pow_keyboard_35_n03085013_22813.png,n03085013_22813.png,0.0,-5.5855637,-0.99400175,-3.2467246
alexnet_w1_mlp_simclrhn_probe1,1,9,NaN,bird,bird,0,0009_pow_dnn_0_bird_35_n02025239_2961.png,n02025239_2961.png,1.0,5.1342883,-9.02177,10.009845
alexnet_w1_mlp_simclrhn_probe1,1,10,NaN,oven,boat,pow,0010_pow_dnn_pow_boat_35_n02951358_14504.png,n02951358_14504.png,0.0,-4.0947313,-0.019135684,-2.8818815
alexnet_w1_mlp_simclrhn_probe1,1,11,NaN,oven,oven,0,0011_pow_dnn_0_oven_35_n04111531_19000.png,n04111531_19000.png,1.0,1.7024193,-0.5041944,1.5603114
alexnet_w1_mlp_simclrhn_probe1,1,12,NaN,bird,bird,0,0012_pow_dnn_0_bird_35_n01614925_11281.png,n01614925_11281.png,1.0,-0.026807124,-1.9463491,1.3573213
alexnet_w1_mlp_simclrhn_probe1,1,13,NaN,knife,knife,0,0013_pow_dnn_0_knife_35_n03041632_52040.png,n03041632_52040.png,1.0,-0.08681369,-1.7985182,1.2103579
alexnet_w1_mlp_simclrhn_probe1,1,14,NaN,oven,car,pow,0014_pow_dnn_pow_car_35_n03100240_14206.png,n03100240_14206.png,0.0,-2.6410992,-0.764241,-1.3271393
alexnet_w1_mlp_simclrhn_probe1,1,15,NaN,cat,bird,0,0015_pow_dnn_0_bird_35_n01817953_689.png,n01817953_689.png,0.0,-4.4405184,-1.4135604,-2.1403825
alexnet_w1_mlp_simclrhn_probe1,1,16,NaN,oven,chair,pow,0016_pow_dnn_pow_chair_35_n04099969_7934.png,n04099969_7934.png,0.0,-2.5932086,0.4128798,-2.1256254
alexnet_w1_mlp_simclrhn_probe1,1,17,NaN,knife,knife,0,0017_pow_dnn_0_knife_35_n03041632_30196.png,n03041632_30196.png,1.0,-0.33170953,-2.1040354,1.2532237
alexnet_w1_mlp_simclrhn_probe1,1,18,NaN,car,car,0,0018_pow_dnn_0_car_35_n02814533_18077.png,n02814533_18077.png,1.0,6.462326,1.2689315,3.6722846
alexnet_w1_mlp_simclrhn_probe1,1,19,NaN,cat,cat,0,0019_pow_dnn_0_cat_35_n02123159_6927.png,n02123159_6927.png,1.0,1.1292318,-1.9542515,2.180352
alexnet_w1_mlp_simclrhn_probe1,1,20,NaN,bird,bird,pow,0020_pow_dnn_pow_bird_35_n01855672_8550.png,n01855672_8550.png,1.0,-0.35881016,-1.0461735,0.48603922
alexnet_w1_mlp_simclrhn_probe1,1,21,NaN,truck,truck,0,0021_pow_dnn_0_truck_35_n03417042_17888.png,n03417042_17888.png,1.0,7.926716,1.7475382,4.3693385
alexnet_w1_mlp_simclrhn_probe1,1,22,NaN,elephant,truck,pow,0022_pow_dnn_pow_truck_35_n04467665_45611.png,n04467665_45611.png,0.0,-5.9430895,1.1279917,-5.0000095
alexnet_w1_mlp_simclrhn_probe1,1,23,NaN,elephant,dog,pow,0023_pow_dnn_pow_dog_35_n02093256_1772.png,n02093256_1772.png,0.0,-3.4247384,0.7699647,-2.966103
alexnet_w1_mlp_simclrhn_probe1,1,24,NaN,oven,boat,pow,0024_pow_dnn_pow_boat_35_n03344393_6260.png,n03344393_6260.png,0.0,-2.7213414,-0.64474535,-1.4683752
alexnet_w1_mlp_simclrhn_probe1,1,25,NaN,oven,chair,0,0025_pow_dnn_0_chair_35_n04429376_24073.png,n04429376_24073.png,0.0,-3.1143954,-2.2535582,-0.60870385
alexnet_w1_mlp_simclrhn_probe1,1,26,NaN,knife,knife,0,0026_pow_dnn_0_knife_35_n03041632_29355.png,n03041632_29355.png,1.0,0.0617373,-2.3729396,1.7215766
alexnet_w1_mlp_simclrhn_probe1,1,27,NaN,clock,clock,0,0027_pow_dnn_0_clock_35_n03196217_5907.png,n03196217_5907.png,1.0,2.205087,-0.5694171,1.9618708
alexnet_w1_mlp_simclrhn_probe1,1,28,NaN,airplane,airplane,0,0028_pow_dnn_0_airplane_35_n02690373_7276.png,n02690373_7276.png,1.0,14.927568,1.8326775,9.259486
alexnet_w1_mlp_simclrhn_probe1,1,29,NaN,bicycle,bicycle,pow,0029_pow_dnn_pow_bicycle_35_n03792782_15561.png,n03792782_15561.png,1.0,5.272598,-2.0534265,5.180281
alexnet_w1_mlp_simclrhn_probe1,1,30,NaN,cat,cat,0,0030_pow_dnn_0_cat_35_n02123045_3505.png,n02123045_3505.png,1.0,8.02297,-2.083012,7.1460085
alexnet_w1_mlp_simclrhn_probe1,1,31,NaN,oven,knife,0,0031_pow_dnn_0_knife_35_n03041632_34769.png,n03041632_34769.png,0.0,-3.1015198,1.13859,-2.9982104
alexnet_w1_mlp_simclrhn_probe1,1,32,NaN,elephant,clock,pow,0032_pow_dnn_pow_clock_35_n03196217_5206.png,n03196217_5206.png,0.0,-4.3139415,-1.0494846,-2.3083196
alexnet_w1_mlp_simclrhn_probe1,1,33,NaN,truck,truck,0,0033_pow_dnn_0_truck_35_n04467665_58815.png,n04467665_58815.png,1.0,4.7250743,1.0917919,2.5691187
alexnet_w1_mlp_simclrhn_probe1,1,34,NaN,bird,bird,0,0034_pow_dnn_0_bird_35_n01616318_2186.png,n01616318_2186.png,1.0,5.262809,-9.143425,10.186746
alexnet_w1_mlp_simclrhn_probe1,1,35,NaN,elephant,bicycle,pow,0035_pow_dnn_pow_bicycle_35_n03792782_12885.png,n03792782_12885.png,0.0,-4.794402,0.90285397,-4.0285683
alexnet_w1_mlp_simclrhn_probe1,1,36,NaN,oven,airplane,pow,0036_pow_dnn_pow_airplane_35_n02690373_9264.png,n02690373_9264.png,0.0,-4.1874714,-0.2771857,-2.7649896
alexnet_w1_mlp_simclrhn_probe1,1,37,NaN,chair,chair,0,0037_pow_dnn_0_chair_35_n04099969_16079.png,n04099969_16079.png,1.0,0.102182865,-1.8729702,1.3966441
alexnet_w1_mlp_simclrhn_probe1,1,38,NaN,bicycle,bicycle,0,0038_pow_dnn_0_bicycle_35_n02835271_3027.png,n02835271_3027.png,1.0,3.9571486,-1.5692062,3.907723
alexnet_w1_mlp_simclrhn_probe1,1,39,NaN,airplane,airplane,0,0039_pow_dnn_0_airplane_35_n02690373_6614.png,n02690373_6614.png,1.0,12.908289,-1.2010962,9.976842
alexnet_w1_mlp_simclrhn_probe1,1,40,NaN,elephant,chair,pow,0040_pow_dnn_pow_chair_35_n03376595_9048.png,n03376595_9048.png,0.0,-5.349843,-0.98176837,-3.088695
alexnet_w1_mlp_simclrhn_probe1,1,41,NaN,oven,oven,0,0041_pow_dnn_0_oven_35_n04111531_6094.png,n04111531_6094.png,1.0,3.5952654,2.1659207,1.0106993
alexnet_w1_mlp_simclrhn_probe1,1,42,NaN,clock,clock,pow,0042_pow_dnn_pow_clock_35_n02708093_687.png,n02708093_687.png,1.0,0.83294624,-3.0754604,2.763661
alexnet_w1_mlp_simclrhn_probe1,1,43,NaN,bicycle,bicycle,pow,0043_pow_dnn_pow_bicycle_35_n03792782_14931.png,n03792782_14931.png,1.0,2.1325483,-2.7729263,3.4686944
alexnet_w1_mlp_simclrhn_probe1,1,44,NaN,keyboard,bottle,0,0044_pow_dnn_0_bottle_35_n03937543_5567.png,n03937543_5567.png,0.0,-0.60620165,1.4479802,-1.452526
alexnet_w1_mlp_simclrhn_probe1,1,45,NaN,car,car,0,0045_pow_dnn_0_car_35_n03100240_3073.png,n03100240_3073.png,1.0,16.36194,7.771784,6.074158
alexnet_w1_mlp_simclrhn_probe1,1,46,NaN,knife,knife,0,0046_pow_dnn_0_knife_35_n03041632_18236.png,n03041632_18236.png,1.0,1.355962,-2.357429,2.6257641
alexnet_w1_mlp_simclrhn_probe1,1,47,NaN,elephant,knife,pow,0047_pow_dnn_pow_knife_35_n03041632_9302.png,n03041632_9302.png,0.0,-1.9278919,-1.2750099,-0.4616573
alexnet_w1_mlp_simclrhn_probe1,1,48,NaN,bear,bear,0,0048_pow_dnn_0_bear_35_n02134418_2590.png,n02134418_2590.png,1.0,7.226263,-0.9510551,5.7822375
alexnet_w1_mlp_simclrhn_probe1,1,49,NaN,bottle,bottle,0,0049_pow_dnn_0_bottle_35_n03983396_24837.png,n03983396_24837.png,1.0,-1.4746265,-6.513105,3.5627422
alexnet_w1_mlp_simclrhn_probe1,1,50,NaN,elephant,knife,pow,0050_pow_dnn_pow_knife_35_n03041632_3617.png,n03041632_3617.png,0.0,-1.8074386,-0.9388027,-0.61421835
alexnet_w1_mlp_simclrhn_probe1,1,51,NaN,elephant,bicycle,pow,0051_pow_dnn_pow_bicycle_35_n03792782_6735.png,n03792782_6735.png,0.0,-1.290923,0.38216218,-1.1830499
alexnet_w1_mlp_simclrhn_probe1,1,52,NaN,car,car,0,0052_pow_dnn_0_car_35_n03100240_5387.png,n03100240_5387.png,1.0,12.944908,6.003238,4.908502
alexnet_w1_mlp_simclrhn_probe1,1,53,NaN,clock,bottle,0,0053_pow_dnn_0_bottle_35_n03983396_4879.png,n03983396_4879.png,0.0,-1.9453793,0.7919614,-1.9355922
alexnet_w1_mlp_simclrhn_probe1,1,54,NaN,car,car,0,0054_pow_dnn_0_car_35_n03100240_6103.png,n03100240_6103.png,1.0,15.2219515,9.558339,4.004779
alexnet_w1_mlp_simclrhn_probe1,1,55,NaN,oven,bird,pow,0055_pow_dnn_pow_bird_35_n01796340_9255.png,n01796340_9255.png,0.0,-3.12678,-1.1506722,-1.3973193
alexnet_w1_mlp_simclrhn_probe1,1,56,NaN,oven,cat,pow,0056_pow_dnn_pow_cat_35_n02123394_2448.png,n02123394_2448.png,0.0,-1.8247762,0.4075688,-1.5785064
alexnet_w1_mlp_simclrhn_probe1,1,57,NaN,car,car,0,0057_pow_dnn_0_car_35_n04285008_13174.png,n04285008_13174.png,1.0,19.088629,12.334257,4.776062
alexnet_w1_mlp_simclrhn_probe1,1,58,NaN,oven,chair,pow,0058_pow_dnn_pow_chair_35_n04429376_353.png,n04429376_353.png,0.0,-3.6156762,0.7648264,-3.0974832
alexnet_w1_mlp_simclrhn_probe1,1,59,NaN,bicycle,boat,pow,0059_pow_dnn_pow_boat_35_n02951358_16261.png,n02951358_16261.png,0.0,-5.6999288,-0.3368767,-3.7922504
alexnet_w1_mlp_simclrhn_probe1,1,60,NaN,oven,car,pow,0060_pow_dnn_pow_car_35_n04285008_15954.png,n04285008_15954.png,0.0,-3.777357,0.3621362,-2.927064
alexnet_w1_mlp_simclrhn_probe1,1,61,NaN,truck,truck,pow,0061_pow_dnn_pow_truck_35_n04467665_3411.png,n04467665_3411.png,1.0,-1.7554933,-2.3324,0.40793473
alexnet_w1_mlp_simclrhn_probe1,1,62,NaN,oven,oven,pow,0062_pow_dnn_pow_oven_35_n04111531_15743.png,n04111531_15743.png,1.0,1.1583018,-1.2235609,1.6842313
alexnet_w1_mlp_simclrhn_probe1,1,63,NaN,elephant,dog,0,0063_pow_dnn_0_dog_35_n02088238_8653.png,n02088238_8653.png,0.0,-1.3253058,-0.6134092,-0.5033869
alexnet_w1_mlp_simclrhn_probe1,1,64,NaN,airplane,airplane,0,0064_pow_dnn_0_airplane_35_n02690373_4681.png,n02690373_4681.png,1.0,8.472883,2.1747234,4.4534717
alexnet_w1_mlp_simclrhn_probe1,1,65,NaN,bear,bear,pow,0065_pow_dnn_pow_bear_35_n02134418_5684.png,n02134418_5684.png,1.0,-0.0043099076,-0.27113956,0.18867707
alexnet_w1_mlp_simclrhn_probe1,1,66,NaN,bear,bear,pow,0066_pow_dnn_pow_bear_35_n02134418_5830.png,n02134418_5830.png,1.0,4.0796022,0.7029737,2.387637
alexnet_w1_mlp_simclrhn_probe1,1,67,NaN,boat,truck,0,0067_pow_dnn_0_truck_35_n04467665_45983.png,n04467665_45983.png,0.0,-2.2030387,0.62016904,-1.9963094
alexnet_w1_mlp_simclrhn_probe1,1,68,NaN,bird,bird,0,0068_pow_dnn_0_bird_35_n01795545_14302.png,n01795545_14302.png,1.0,-0.49636358,-2.602675,1.489387
alexnet_w1_mlp_simclrhn_probe1,1,69,NaN,oven,oven,pow,0069_pow_dnn_pow_oven_35_n04111531_19240.png,n04111531_19240.png,1.0,3.1643467,-0.7091701,2.73899
alexnet_w1_mlp_simclrhn_probe1,1,70,NaN,oven,knife,0,0070_pow_dnn_0_knife_35_n03041632_22241.png,n03041632_22241.png,0.0,-1.2537875,0.38943696,-1.1619352
alexnet_w1_mlp_simclrhn_probe1,1,71,NaN,bear,boat,pow,0071_pow_dnn_pow_boat_35_n03344393_815.png,n03344393_815.png,0.0,-2.4131188,-0.2796733,-1.5085738
alexnet_w1_mlp_simclrhn_probe1,1,72,NaN,airplane,boat,0,0072_pow_dnn_0_boat_35_n03662601_2120.png,n03662601_2120.png,0.0,-1.642072,2.2116945,-2.7250245
alexnet_w1_mlp_simclrhn_probe1,1,73,NaN,oven,knife,pow,0073_pow_dnn_pow_knife_35_n03041632_2438.png,n03041632_2438.png,0.0,-3.049516,0.56640786,-2.5568442
alexnet_w1_mlp_simclrhn_probe1,1,74,NaN,bear,bear,pow,0074_pow_dnn_pow_bear_35_n02134418_3073.png,n02134418_3073.png,1.0,2.8773239,0.8771068,1.414367
alexnet_w1_mlp_simclrhn_probe1,1,75,NaN,elephant,bottle,pow,0075_pow_dnn_pow_bottle_35_n02823428_3328.png,n02823428_3328.png,0.0,-2.401457,0.7752428,-2.2462661
alexnet_w1_mlp_simclrhn_probe1,1,76,NaN,car,car,pow,0076_pow_dnn_pow_car_35_n04285008_13259.png,n04285008_13259.png,1.0,-0.084919214,-1.7748296,1.1949471
alexnet_w1_mlp_simclrhn_probe1,1,77,NaN,oven,oven,0,0077_pow_dnn_0_oven_35_n04111531_15852.png,n04111531_15852.png,1.0,1.0974288,-3.7379253,3.4191115
alexnet_w1_mlp_simclrhn_probe1,1,78,NaN,elephant,dog,pow,0078_pow_dnn_pow_dog_35_n02099601_447.png,n02099601_447.png,0.0,-2.0587115,5.1928434,-5.1276236
alexnet_w1_mlp_simclrhn_probe1,1,79,NaN,oven,oven,pow,0079_pow_dnn_pow_oven_35_n04111531_18916.png,n04111531_18916.png,1.0,1.0276102,-0.75774324,1.2624356
alexnet_w1_mlp_simclrhn_probe1,1,80,NaN,elephant,bottle,pow,0080_pow_dnn_pow_bottle_35_n04591713_1407.png,n04591713_1407.png,0.0,-1.8910749,-0.3961379,-1.05708
alexnet_w1_mlp_simclrhn_probe1,1,81,NaN,oven,oven,0,0081_pow_dnn_0_oven_35_n04111531_4585.png,n04111531_4585.png,1.0,0.682107,0.4803059,0.1426949
alexnet_w1_mlp_simclrhn_probe1,1,82,NaN,oven,keyboard,pow,0082_pow_dnn_pow_keyboard_35_n03085013_8364.png,n03085013_8364.png,0.0,-6.43433,-1.0581911,-3.8015041
alexnet_w1_mlp_simclrhn_probe1,1,83,NaN,bear,bear,pow,0083_pow_dnn_pow_bear_35_n02132136_15462.png,n02132136_15462.png,1.0,4.006862,2.676993,0.9403596
alexnet_w1_mlp_simclrhn_probe1,1,84,NaN,oven,bicycle,pow,0084_pow_dnn_pow_bicycle_35_n03792782_4167.png,n03792782_4167.png,0.0,-1.7752223,0.74536,-1.7823207
alexnet_w1_mlp_simclrhn_probe1,1,85,NaN,boat,boat,0,0085_pow_dnn_0_boat_35_n03662601_16106.png,n03662601_16106.png,1.0,6.64388,1.6090835,3.5601387
alexnet_w1_mlp_simclrhn_probe1,1,86,NaN,oven,keyboard,pow,0086_pow_dnn_pow_keyboard_35_n03085013_2277.png,n03085013_2277.png,0.0,-3.6089172,1.0547082,-3.2976813
alexnet_w1_mlp_simclrhn_probe1,1,87,NaN,elephant,airplane,pow,0087_pow_dnn_pow_airplane_35_n02690373_8461.png,n02690373_8461.png,0.0,-2.3844047,-0.5476784,-1.2987616
alexnet_w1_mlp_simclrhn_probe1,1,88,NaN,knife,chair,pow,0088_pow_dnn_pow_chair_35_n03376595_3304.png,n03376595_3304.png,0.0,-2.0926323,-0.28725344,-1.2765957
alexnet_w1_mlp_simclrhn_probe1,1,89,NaN,bicycle,bicycle,0,0089_pow_dnn_0_bicycle_35_n03792782_19116.png,n03792782_19116.png,1.0,1.7749125,-1.8733053,2.5796795
alexnet_w1_mlp_simclrhn_probe1,1,90,NaN,clock,clock,0,0090_pow_dnn_0_clock_35_n02708093_6734.png,n02708093_6734.png,1.0,1.0381712,-1.4479423,1.7579478
alexnet_w1_mlp_simclrhn_probe1,1,91,NaN,oven,chair,0,0091_pow_dnn_0_chair_35_n04429376_6480.png,n04429376_6480.png,0.0,-1.0625834,-0.7483363,-0.22220628
alexnet_w1_mlp_simclrhn_probe1,1,92,NaN,elephant,bicycle,pow,0092_pow_dnn_pow_bicycle_35_n02835271_21339.png,n02835271_21339.png,0.0,-1.9167737,-0.4434591,-1.0417907
alexnet_w1_mlp_simclrhn_probe1,1,93,NaN,oven,keyboard,pow,0093_pow_dnn_pow_keyboard_35_n03085013_3859.png,n03085013_3859.png,0.0,-3.60108,-0.011259794,-2.538386
alexnet_w1_mlp_simclrhn_probe1,1,94,NaN,oven,chair,pow,0094_pow_dnn_pow_chair_35_n03376595_360.png,n03376595_360.png,0.0,-5.477821,0.13293579,-3.9674044
alexnet_w1_mlp_simclrhn_probe1,1,95,NaN,elephant,elephant,pow,0095_pow_dnn_pow_elephant_35_n02504013_18988.png,n02504013_18988.png,1.0,0.8845883,0.19599843,0.4869066
alexnet_w1_mlp_simclrhn_probe1,1,96,NaN,bottle,chair,0,0096_pow_dnn_0_chair_35_n04429376_54570.png,n04429376_54570.png,0.0,-1.6880295,-0.41559887,-0.8997444
alexnet_w1_mlp_simclrhn_probe1,1,97,NaN,clock,clock,pow,0097_pow_dnn_pow_clock_35_n04548280_5189.png,n04548280_5189.png,1.0,-1.1201075,-2.905487,1.262454
alexnet_w1_mlp_simclrhn_probe1,1,98,NaN,oven,truck,pow,0098_pow_dnn_pow_truck_35_n04467665_6626.png,n04467665_6626.png,0.0,-5.521598,0.1843281,-4.034699
alexnet_w1_mlp_simclrhn_probe1,1,99,NaN,boat,boat,0,0099_pow_dnn_0_boat_35_n03344393_3323.png,n03344393_3323.png,1.0,6.4663277,-1.4996723,5.632813
alexnet_w1_mlp_simclrhn_probe1,1,100,NaN,elephant,dog,pow,0100_pow_dnn_pow_dog_35_n02100583_3987.png,n02100583_3987.png,0.0,-1.509791,1.1347651,-1.8699836
alexnet_w1_mlp_simclrhn_probe1,1,101,NaN,elephant,elephant,pow,0101_pow_dnn_pow_elephant_35_n02504013_1702.png,n02504013_1702.png,1.0,4.5537834,1.4593352,2.1881053
alexnet_w1_mlp_simclrhn_probe1,1,102,NaN,oven,truck,pow,0102_pow_dnn_pow_truck_35_n03417042_1841.png,n03417042_1841.png,0.0,-3.057576,-1.7193365,-0.9462782
alexnet_w1_mlp_simclrhn_probe1,1,103,NaN,truck,truck,0,0103_pow_dnn_0_truck_35_n03417042_2062.png,n03417042_2062.png,1.0,7.232374,4.447396,1.9692771
alexnet_w1_mlp_simclrhn_probe1,1,104,NaN,oven,bottle,0,0104_pow_dnn_0_bottle_35_n03983396_4178.png,n03983396_4178.png,0.0,0.47083783,0.6475473,-0.124952465
alexnet_w1_mlp_simclrhn_probe1,1,105,NaN,knife,keyboard,pow,0105_pow_dnn_pow_keyboard_35_n03085013_1698.png,n03085013_1698.png,0.0,-7.3260937,0.94191796,-5.8463674
alexnet_w1_mlp_simclrhn_probe1,1,106,NaN,oven,car,pow,0106_pow_dnn_pow_car_35_n03100240_7056.png,n03100240_7056.png,0.0,-2.3746736,-0.3504632,-1.431333
alexnet_w1_mlp_simclrhn_probe1,1,107,NaN,bear,dog,pow,0107_pow_dnn_pow_dog_35_n02100735_3553.png,n02100735_3553.png,0.0,-2.788537,1.0996752,-2.7493813
alexnet_w1_mlp_simclrhn_probe1,1,108,NaN,oven,oven,pow,0108_pow_dnn_pow_oven_35_n04111531_11781.png,n04111531_11781.png,1.0,3.6462831,-2.4269087,4.294395
alexnet_w1_mlp_simclrhn_probe1,1,109,NaN,cat,cat,0,0109_pow_dnn_0_cat_35_n02123159_4914.png,n02123159_4914.png,1.0,4.460652,0.4339643,2.8472981
alexnet_w1_mlp_simclrhn_probe1,1,110,NaN,bear,dog,0,0110_pow_dnn_0_dog_35_n02090622_1852.png,n02090622_1852.png,0.0,-1.1144491,-0.2618834,-0.602855
alexnet_w1_mlp_simclrhn_probe1,1,111,NaN,car,car,pow,0111_pow_dnn_pow_car_35_n03100240_24471.png,n03100240_24471.png,1.0,2.0649767,-1.353058,2.4169154
alexnet_w1_mlp_simclrhn_probe1,1,112,NaN,elephant,boat,pow,0112_pow_dnn_pow_boat_35_n03344393_3519.png,n03344393_3519.png,0.0,-3.1820934,-0.8820502,-1.6263762
alexnet_w1_mlp_simclrhn_probe1,1,113,NaN,oven,keyboard,pow,0113_pow_dnn_pow_keyboard_35_n03085013_22713.png,n03085013_22713.png,0.0,-6.187807,0.7209405,-4.8852224
alexnet_w1_mlp_simclrhn_probe1,1,114,NaN,elephant,elephant,0,0114_pow_dnn_0_elephant_35_n02504013_6615.png,n02504013_6615.png,1.0,2.8359828,1.8348358,0.70791787
alexnet_w1_mlp_simclrhn_probe1,1,115,NaN,cat,cat,0,0115_pow_dnn_0_cat_35_n02123597_7081.png,n02123597_7081.png,1.0,-0.03170668,-0.11574811,0.059426267
alexnet_w1_mlp_simclrhn_probe1,1,116,NaN,clock,clock,pow,0116_pow_dnn_pow_clock_35_n04548280_5406.png,n04548280_5406.png,1.0,0.50897723,-1.3775336,1.3339646
alexnet_w1_mlp_simclrhn_probe1,1,117,NaN,oven,bottle,0,0117_pow_dnn_0_bottle_35_n03983396_21920.png,n03983396_21920.png,0.0,-2.8749166,2.434097,-3.7540395
alexnet_w1_mlp_simclrhn_probe1,1,118,NaN,knife,knife,0,0118_pow_dnn_0_knife_35_n03041632_48675.png,n03041632_48675.png,1.0,2.3272538,-2.1725972,3.1818755
alexnet_w1_mlp_simclrhn_probe1,1,119,NaN,bird,cat,0,0119_pow_dnn_0_cat_35_n02125311_2103.png,n02125311_2103.png,0.0,-4.4295373,-2.4324129,-1.4121803
alexnet_w1_mlp_simclrhn_probe1,1,120,NaN,bear,bird,pow,0120_pow_dnn_pow_bird_35_n01798484_962.png,n01798484_962.png,0.0,-2.4982872,-2.1503258,-0.24604589
alexnet_w1_mlp_simclrhn_probe1,1,121,NaN,oven,oven,pow,0121_pow_dnn_pow_oven_35_n04111531_6393.png,n04111531_6393.png,1.0,1.6264099,-0.07486805,1.2029852
alexnet_w1_mlp_simclrhn_probe1,1,122,NaN,oven,oven,0,0122_pow_dnn_0_oven_35_n04111531_4418.png,n04111531_4418.png,1.0,3.2529364,-1.8485043,3.607263
alexnet_w1_mlp_simclrhn_probe1,1,123,NaN,oven,truck,pow,0123_pow_dnn_pow_truck_35_n03796401_296.png,n03796401_296.png,0.0,-6.0312204,0.31669274,-4.4886527
alexnet_w1_mlp_simclrhn_probe1,1,124,NaN,bicycle,bicycle,0,0124_pow_dnn_0_bicycle_35_n02835271_10738.png,n02835271_10738.png,1.0,5.116825,-2.8141553,5.6080503
alexnet_w1_mlp_simclrhn_probe1,1,125,NaN,elephant,elephant,0,0125_pow_dnn_0_elephant_35_n02504013_4457.png,n02504013_4457.png,1.0,16.852268,2.2132683,10.3513365
alexnet_w1_mlp_simclrhn_probe1,1,126,NaN,knife,knife,0,0126_pow_dnn_0_knife_35_n03041632_30573.png,n03041632_30573.png,1.0,1.759628,-0.8317687,1.8323942
alexnet_w1_mlp_simclrhn_probe1,1,127,NaN,boat,boat,0,0127_pow_dnn_0_boat_35_n03662601_19840.png,n03662601_19840.png,1.0,4.372404,2.986803,0.9797679
alexnet_w1_mlp_simclrhn_probe1,1,128,NaN,elephant,bear,0,0128_pow_dnn_0_bear_35_n02133161_12167.png,n02133161_12167.png,0.0,3.3248801,4.7142515,-0.982434
alexnet_w1_mlp_simclrhn_probe1,1,129,NaN,bottle,bottle,0,0129_pow_dnn_0_bottle_35_n02823428_3028.png,n02823428_3028.png,1.0,1.0402421,-0.24935493,0.9118828
alexnet_w1_mlp_simclrhn_probe1,1,130,NaN,boat,boat,0,0130_pow_dnn_0_boat_35_n02951358_30149.png,n02951358_30149.png,1.0,2.3338752,0.21620603,1.4974182
alexnet_w1_mlp_simclrhn_probe1,1,131,NaN,car,car,0,0131_pow_dnn_0_car_35_n02814533_75419.png,n02814533_75419.png,1.0,11.808,8.150646,2.5861394
alexnet_w1_mlp_simclrhn_probe1,1,132,NaN,keyboard,keyboard,0,0132_pow_dnn_0_keyboard_35_n03085013_24449.png,n03085013_24449.png,1.0,0.9562266,-0.6636686,1.1454389
alexnet_w1_mlp_simclrhn_probe1,1,133,NaN,dog,dog,0,0133_pow_dnn_0_dog_35_n02086240_519.png,n02086240_519.png,1.0,2.7068608,0.13951819,1.8153853
alexnet_w1_mlp_simclrhn_probe1,1,134,NaN,bird,bird,pow,0134_pow_dnn_pow_bird_35_n01582220_2882.png,n01582220_2882.png,1.0,-0.7568406,-2.0194342,0.8927885
alexnet_w1_mlp_simclrhn_probe1,1,135,NaN,oven,oven,0,0135_pow_dnn_0_oven_35_n04111531_13277.png,n04111531_13277.png,1.0,4.476722,-1.4149704,4.1660557
alexnet_w1_mlp_simclrhn_probe1,1,136,NaN,bear,bear,pow,0136_pow_dnn_pow_bear_35_n02134084_6901.png,n02134084_6901.png,1.0,1.2176173,0.52249324,0.49152693
alexnet_w1_mlp_simclrhn_probe1,1,137,NaN,elephant,bird,0,0137_pow_dnn_0_bird_35_n02002556_5447.png,n02002556_5447.png,0.0,-3.841744,-1.5572286,-1.6153964
alexnet_w1_mlp_simclrhn_probe1,1,138,NaN,keyboard,keyboard,0,0138_pow_dnn_0_keyboard_35_n03085013_20710.png,n03085013_20710.png,1.0,5.834625,-1.738586,5.3550687
alexnet_w1_mlp_simclrhn_probe1,1,139,NaN,oven,oven,pow,0139_pow_dnn_pow_oven_35_n04111531_11405.png,n04111531_11405.png,1.0,3.2215133,-2.4941707,4.041599
alexnet_w1_mlp_simclrhn_probe1,1,140,NaN,bear,bear,pow,0140_pow_dnn_pow_bear_35_n02132136_8457.png,n02132136_8457.png,1.0,2.9347892,1.8920536,0.73732543
alexnet_w1_mlp_simclrhn_probe1,1,141,NaN,bird,bird,pow,0141_pow_dnn_pow_bird_35_n02009912_6788.png,n02009912_6788.png,1.0,-1.53449,-1.616741,0.05816021
alexnet_w1_mlp_simclrhn_probe1,1,142,NaN,oven,chair,pow,0142_pow_dnn_pow_chair_35_n04429376_9630.png,n04429376_9630.png,0.0,-3.9871569,-0.109672695,-2.7417953
alexnet_w1_mlp_simclrhn_probe1,1,143,NaN,keyboard,keyboard,0,0143_pow_dnn_0_keyboard_35_n03085013_23658.png,n03085013_23658.png,1.0,4.106405,-0.33018392,3.137142
alexnet_w1_mlp_simclrhn_probe1,1,144,NaN,cat,cat,pow,0144_pow_dnn_pow_cat_35_n02123045_13199.png,n02123045_13199.png,1.0,1.3297585,-0.059016705,0.9820124
alexnet_w1_mlp_simclrhn_probe1,1,145,NaN,bicycle,clock,pow,0145_pow_dnn_pow_clock_35_n04548280_6411.png,n04548280_6411.png,0.0,-1.0195832,0.14997149,-0.8270001
alexnet_w1_mlp_simclrhn_probe1,1,146,NaN,knife,bird,0,0146_pow_dnn_0_bird_35_n01820546_9729.png,n01820546_9729.png,0.0,-1.6710967,-1.5670686,-0.07355898
alexnet_w1_mlp_simclrhn_probe1,1,147,NaN,boat,boat,0,0147_pow_dnn_0_boat_35_n04273569_12651.png,n04273569_12651.png,1.0,2.9780538,-0.8708241,2.7215676
alexnet_w1_mlp_simclrhn_probe1,1,148,NaN,elephant,elephant,pow,0148_pow_dnn_pow_elephant_35_n02504458_3143.png,n02504458_3143.png,1.0,1.525832,0.2502815,0.9019505
alexnet_w1_mlp_simclrhn_probe1,1,149,NaN,clock,clock,0,0149_pow_dnn_0_clock_35_n03196217_9786.png,n03196217_9786.png,1.0,7.791965,2.477467,3.7579176
alexnet_w1_mlp_simclrhn_probe1,1,150,NaN,airplane,chair,0,0150_pow_dnn_0_chair_35_n03376595_6652.png,n03376595_6652.png,0.0,-0.7283703,-0.07299746,-0.4634186
alexnet_w1_mlp_simclrhn_probe1,1,151,NaN,oven,bottle,pow,0151_pow_dnn_pow_bottle_35_n03983396_2998.png,n03983396_2998.png,0.0,-2.3567274,1.146188,-2.4769351
alexnet_w1_mlp_simclrhn_probe1,1,152,NaN,elephant,elephant,0,0152_pow_dnn_0_elephant_35_n02504458_5331.png,n02504458_5331.png,1.0,10.24942,-0.264436,7.434419
alexnet_w1_mlp_simclrhn_probe1,1,153,NaN,car,car,0,0153_pow_dnn_0_car_35_n04285008_8052.png,n04285008_8052.png,1.0,15.591751,7.249065,5.89917
alexnet_w1_mlp_simclrhn_probe1,1,154,NaN,elephant,bottle,pow,0154_pow_dnn_pow_bottle_35_n04591713_3402.png,n04591713_3402.png,0.0,-1.7045981,0.08278029,-1.2638674
alexnet_w1_mlp_simclrhn_probe1,1,155,NaN,bicycle,bicycle,pow,0155_pow_dnn_pow_bicycle_35_n02835271_1701.png,n02835271_1701.png,1.0,-0.056563914,-0.4632221,0.28755075
alexnet_w1_mlp_simclrhn_probe1,1,156,NaN,bicycle,bicycle,0,0156_pow_dnn_0_bicycle_35_n02835271_5196.png,n02835271_5196.png,1.0,14.682249,-1.908614,11.731511
alexnet_w1_mlp_simclrhn_probe1,1,157,NaN,elephant,elephant,pow,0157_pow_dnn_pow_elephant_35_n02504458_5444.png,n02504458_5444.png,1.0,3.4805183,1.0156543,1.7429221
alexnet_w1_mlp_simclrhn_probe1,1,158,NaN,oven,truck,0,0158_pow_dnn_0_truck_35_n03417042_3422.png,n03417042_3422.png,0.0,-0.59839344,1.67064,-1.6044489
alexnet_w1_mlp_simclrhn_probe1,1,159,NaN,elephant,dog,pow,0159_pow_dnn_pow_dog_35_n02088466_1537.png,n02088466_1537.png,0.0,-1.0047649,2.6472173,-2.5823414
alexnet_w1_mlp_simclrhn_probe1,1,160,NaN,elephant,dog,pow,0160_pow_dnn_pow_dog_35_n02088632_1732.png,n02088632_1732.png,0.0,-0.7534026,1.5478518,-1.6272326
alexnet_w1_mlp_simclrhn_probe1,1,161,NaN,truck,truck,0,0161_pow_dnn_0_truck_35_n03796401_3326.png,n03796401_3326.png,1.0,0.039315164,-1.6909995,1.2235173
alexnet_w1_mlp_simclrhn_probe1,1,162,NaN,boat,boat,0,0162_pow_dnn_0_boat_35_n04273569_19796.png,n04273569_19796.png,1.0,4.946025,-4.956817,7.0023665
alexnet_w1_mlp_simclrhn_probe1,1,163,NaN,keyboard,keyboard,pow,0163_pow_dnn_pow_keyboard_35_n04505470_5125.png,n04505470_5125.png,1.0,1.0553629,0.03696337,0.7201173
alexnet_w1_mlp_simclrhn_probe1,1,164,NaN,elephant,cat,pow,0164_pow_dnn_pow_cat_35_n02123394_1817.png,n02123394_1817.png,0.0,-0.50830656,-0.22181384,-0.20258094
alexnet_w1_mlp_simclrhn_probe1,1,165,NaN,cat,cat,pow,0165_pow_dnn_pow_cat_35_n02123159_7465.png,n02123159_7465.png,1.0,2.400245,-3.5568542,4.212305
alexnet_w1_mlp_simclrhn_probe1,1,166,NaN,elephant,cat,0,0166_pow_dnn_0_cat_35_n02125311_33516.png,n02125311_33516.png,0.0,-7.162009,0.58212554,-5.47593
alexnet_w1_mlp_simclrhn_probe1,1,167,NaN,elephant,bicycle,pow,0167_pow_dnn_pow_bicycle_35_n03792782_30246.png,n03792782_30246.png,0.0,-2.8073468,-0.8276668,-1.3998452
alexnet_w1_mlp_simclrhn_probe1,1,168,NaN,airplane,truck,0,0168_pow_dnn_0_truck_35_n04467665_72639.png,n04467665_72639.png,0.0,-0.06928629,4.5866594,-3.2922509
alexnet_w1_mlp_simclrhn_probe1,1,169,NaN,bicycle,bicycle,0,0169_pow_dnn_0_bicycle_35_n03792782_10395.png,n03792782_10395.png,1.0,4.6027613,-2.0444329,4.700276
alexnet_w1_mlp_simclrhn_probe1,1,170,NaN,elephant,bicycle,pow,0170_pow_dnn_pow_bicycle_35_n02835271_840.png,n02835271_840.png,0.0,-0.58065176,0.028607994,-0.4308117
alexnet_w1_mlp_simclrhn_probe1,1,171,NaN,elephant,knife,pow,0171_pow_dnn_pow_knife_35_n03041632_82197.png,n03041632_82197.png,0.0,-3.491133,0.01997149,-2.4827259
alexnet_w1_mlp_simclrhn_probe1,1,172,NaN,oven,airplane,pow,0172_pow_dnn_pow_airplane_35_n02690373_8942.png,n02690373_8942.png,0.0,-5.9252596,1.2214514,-5.053488
alexnet_w1_mlp_simclrhn_probe1,1,173,NaN,keyboard,keyboard,0,0173_pow_dnn_0_keyboard_35_n03085013_21851.png,n03085013_21851.png,1.0,1.3882577,0.7930972,0.42084205
alexnet_w1_mlp_simclrhn_probe1,1,174,NaN,clock,clock,pow,0174_pow_dnn_pow_clock_35_n04548280_1106.png,n04548280_1106.png,1.0,1.4090906,-1.4283428,2.0063684
alexnet_w1_mlp_simclrhn_probe1,1,175,NaN,truck,truck,0,0175_pow_dnn_0_truck_35_n03796401_4181.png,n03796401_4181.png,1.0,-1.3961482,-2.0895624,0.4903179
alexnet_w1_mlp_simclrhn_probe1,1,176,NaN,knife,knife,pow,0176_pow_dnn_pow_knife_35_n03041632_44019.png,n03041632_44019.png,1.0,-0.82879925,-1.042457,0.15107884
alexnet_w1_mlp_simclrhn_probe1,1,177,NaN,truck,truck,0,0177_pow_dnn_0_truck_35_n03417042_1348.png,n03417042_1348.png,1.0,2.5348158,0.5284698,1.4187009
alexnet_w1_mlp_simclrhn_probe1,1,178,NaN,chair,chair,0,0178_pow_dnn_0_chair_35_n04099969_10516.png,n04099969_10516.png,1.0,1.8117862,-1.3665264,2.2474065
alexnet_w1_mlp_simclrhn_probe1,1,179,NaN,oven,chair,pow,0179_pow_dnn_pow_chair_35_n04099969_24041.png,n04099969_24041.png,0.0,-2.470208,-0.73104763,-1.2297721
alexnet_w1_mlp_simclrhn_probe1,1,180,NaN,oven,truck,pow,0180_pow_dnn_pow_truck_35_n03796401_3618.png,n03796401_3618.png,0.0,-4.6184025,0.50272465,-3.6211839
alexnet_w1_mlp_simclrhn_probe1,1,181,NaN,elephant,elephant,0,0181_pow_dnn_0_elephant_35_n02504458_4414.png,n02504458_4414.png,1.0,11.158693,0.6702062,7.4164805
alexnet_w1_mlp_simclrhn_probe1,1,182,NaN,truck,truck,pow,0182_pow_dnn_pow_truck_35_n03796401_3427.png,n03796401_3427.png,1.0,1.0231649,-1.2713675,1.6224793
alexnet_w1_mlp_simclrhn_probe1,1,183,NaN,cat,cat,0,0183_pow_dnn_0_cat_35_n02123045_9907.png,n02123045_9907.png,1.0,1.8069696,-2.4302578,2.9961722
alexnet_w1_mlp_simclrhn_probe1,1,184,NaN,oven,oven,0,0184_pow_dnn_0_oven_35_n04111531_2156.png,n04111531_2156.png,1.0,4.056082,-2.3830724,4.5531697
alexnet_w1_mlp_simclrhn_probe1,1,185,NaN,bear,bird,pow,0185_pow_dnn_pow_bird_35_n02002556_12696.png,n02002556_12696.png,0.0,-1.2321987,1.1288778,-1.6695331
alexnet_w1_mlp_simclrhn_probe1,1,186,NaN,airplane,airplane,pow,0186_pow_dnn_pow_airplane_35_n02690373_8791.png,n02690373_8791.png,1.0,-0.9419105,-2.011526,0.75633246
alexnet_w1_mlp_simclrhn_probe1,1,187,NaN,elephant,knife,pow,0187_pow_dnn_pow_knife_35_n03041632_27963.png,n03041632_27963.png,0.0,-2.667931,-0.38304687,-1.6156571
alexnet_w1_mlp_simclrhn_probe1,1,188,NaN,knife,chair,0,0188_pow_dnn_0_chair_35_n03376595_7772.png,n03376595_7772.png,0.0,-1.5807002,-0.19916677,-0.97689164
alexnet_w1_mlp_simclrhn_probe1,1,189,NaN,bear,boat,pow,0189_pow_dnn_pow_boat_35_n04273569_3460.png,n04273569_3460.png,0.0,-3.4001975,-1.0885408,-1.6345881
alexnet_w1_mlp_simclrhn_probe1,1,190,NaN,oven,oven,0,0190_pow_dnn_0_oven_35_n04111531_5694.png,n04111531_5694.png,1.0,7.653243,-4.5018644,8.594959
alexnet_w1_mlp_simclrhn_probe1,1,191,NaN,bear,bear,pow,0191_pow_dnn_pow_bear_35_n02134084_17218.png,n02134084_17218.png,1.0,2.7633376,1.7013581,0.75093293
alexnet_w1_mlp_simclrhn_probe1,1,192,NaN,oven,oven,pow,0192_pow_dnn_pow_oven_35_n04111531_2923.png,n04111531_2923.png,1.0,1.2364185,-2.0057907,2.2925882
alexnet_w1_mlp_simclrhn_probe1,1,193,NaN,elephant,keyboard,pow,0193_pow_dnn_pow_keyboard_35_n03085013_22669.png,n03085013_22669.png,0.0,-4.273125,-2.3129249,-1.386071
alexnet_w1_mlp_simclrhn_probe1,1,194,NaN,bottle,bottle,pow,0194_pow_dnn_pow_bottle_35_n04557648_2282.png,n04557648_2282.png,1.0,0.4355708,-2.7729702,2.2687812
alexnet_w1_mlp_simclrhn_probe1,1,195,NaN,elephant,elephant,pow,0195_pow_dnn_pow_elephant_35_n02504013_6693.png,n02504013_6693.png,1.0,5.7948394,0.9194445,3.447425
alexnet_w1_mlp_simclrhn_probe1,1,196,NaN,chair,chair,0,0196_pow_dnn_0_chair_35_n04099969_39507.png,n04099969_39507.png,1.0,-1.4638618,-1.7109352,0.1747073
alexnet_w1_mlp_simclrhn_probe1,1,197,NaN,oven,car,pow,0197_pow_dnn_pow_car_35_n02814533_61184.png,n02814533_61184.png,0.0,-7.3318496,1.4959139,-6.242172
alexnet_w1_mlp_simclrhn_probe1,1,198,NaN,oven,keyboard,pow,0198_pow_dnn_pow_keyboard_35_n04505470_1358.png,n04505470_1358.png,0.0,-3.6033306,1.2440623,-3.4276245
alexnet_w1_mlp_simclrhn_probe1,1,199,NaN,oven,truck,pow,0199_pow_dnn_pow_truck_35_n04467665_8824.png,n04467665_8824.png,0.0,-3.2400472,0.85869086,-2.8982456
alexnet_w1_mlp_simclrhn_probe1,1,200,NaN,keyboard,keyboard,0,0200_pow_dnn_0_keyboard_35_n04505470_8937.png,n04505470_8937.png,1.0,1.7145109,-0.65300983,1.67409
alexnet_w1_mlp_simclrhn_probe1,1,201,NaN,airplane,truck,pow,0201_pow_dnn_pow_truck_35_n03417042_7581.png,n03417042_7581.png,0.0,-2.4985414,-1.5396492,-0.67803913
alexnet_w1_mlp_simclrhn_probe1,1,202,NaN,bicycle,bicycle,pow,0202_pow_dnn_pow_bicycle_35_n02835271_13234.png,n02835271_13234.png,1.0,2.4641113,-0.79316366,2.3032413
alexnet_w1_mlp_simclrhn_probe1,1,203,NaN,cat,cat,pow,0203_pow_dnn_pow_cat_35_n02124075_3383.png,n02124075_3383.png,1.0,5.953009,-1.9297714,5.5739675
alexnet_w1_mlp_simclrhn_probe1,1,204,NaN,elephant,elephant,pow,0204_pow_dnn_pow_elephant_35_n02504013_474.png,n02504013_474.png,1.0,4.0308595,2.1150098,1.3547103
alexnet_w1_mlp_simclrhn_probe1,1,205,NaN,oven,chair,pow,0205_pow_dnn_pow_chair_35_n04429376_1838.png,n04429376_1838.png,0.0,-4.7162075,1.1965507,-4.1809516
alexnet_w1_mlp_simclrhn_probe1,1,206,NaN,bear,boat,pow,0206_pow_dnn_pow_boat_35_n02951358_5064.png,n02951358_5064.png,0.0,-3.3187473,0.3063029,-2.5632975
alexnet_w1_mlp_simclrhn_probe1,1,207,NaN,elephant,knife,pow,0207_pow_dnn_pow_knife_35_n03041632_31037.png,n03041632_31037.png,0.0,-1.9541487,1.1189029,-2.1729755
alexnet_w1_mlp_simclrhn_probe1,1,208,NaN,cat,cat,pow,0208_pow_dnn_pow_cat_35_n02123045_11501.png,n02123045_11501.png,1.0,-0.91595006,-1.2969385,0.26939955
alexnet_w1_mlp_simclrhn_probe1,1,209,NaN,elephant,keyboard,pow,0209_pow_dnn_pow_keyboard_35_n03085013_17937.png,n03085013_17937.png,0.0,-7.486197,-0.3828587,-5.0228186
alexnet_w1_mlp_simclrhn_probe1,1,210,NaN,chair,chair,0,0210_pow_dnn_0_chair_35_n03376595_10881.png,n03376595_10881.png,1.0,0.8230059,-0.6544879,1.0447459
alexnet_w1_mlp_simclrhn_probe1,1,211,NaN,elephant,elephant,0,0211_pow_dnn_0_elephant_35_n02504458_7302.png,n02504458_7302.png,1.0,13.232617,2.6432872,7.4877877
alexnet_w1_mlp_simclrhn_probe1,1,212,NaN,elephant,airplane,pow,0212_pow_dnn_pow_airplane_35_n02690373_4704.png,n02690373_4704.png,0.0,-4.031047,-1.199068,-2.0025115
alexnet_w1_mlp_simclrhn_probe1,1,213,NaN,car,car,0,0213_pow_dnn_0_car_35_n03100240_18756.png,n03100240_18756.png,1.0,16.36387,7.568117,6.2195373
alexnet_w1_mlp_simclrhn_probe1,1,214,NaN,elephant,keyboard,pow,0214_pow_dnn_pow_keyboard_35_n03085013_20732.png,n03085013_20732.png,0.0,-6.7555695,-1.6720726,-3.5945754
alexnet_w1_mlp_simclrhn_probe1,1,215,NaN,bottle,bottle,pow,0215_pow_dnn_pow_bottle_35_n04579145_2999.png,n04579145_2999.png,1.0,0.72804403,-1.3095951,1.4408284
alexnet_w1_mlp_simclrhn_probe1,1,216,NaN,clock,clock,pow,0216_pow_dnn_pow_clock_35_n02708093_2546.png,n02708093_2546.png,1.0,0.47384438,-1.48575,1.3856425
alexnet_w1_mlp_simclrhn_probe1,1,217,NaN,boat,boat,0,0217_pow_dnn_0_boat_35_n03662601_13847.png,n03662601_13847.png,1.0,2.5586812,-1.0983279,2.585896
alexnet_w1_mlp_simclrhn_probe1,1,218,NaN,bicycle,bicycle,0,0218_pow_dnn_0_bicycle_35_n03792782_7878.png,n03792782_7878.png,1.0,16.58269,-1.6801394,12.913771
alexnet_w1_mlp_simclrhn_probe1,1,219,NaN,bear,knife,pow,0219_pow_dnn_pow_knife_35_n03041632_18959.png,n03041632_18959.png,0.0,-3.5684018,-0.2353324,-2.356836
alexnet_w1_mlp_simclrhn_probe1,1,220,NaN,bear,bear,0,0220_pow_dnn_0_bear_35_n02134418_10576.png,n02134418_10576.png,1.0,4.163918,-1.7891008,4.2094197
alexnet_w1_mlp_simclrhn_probe1,1,221,NaN,elephant,elephant,pow,0221_pow_dnn_pow_elephant_35_n02504013_213.png,n02504013_213.png,1.0,5.090905,2.5062807,1.8276056
alexnet_w1_mlp_simclrhn_probe1,1,222,NaN,oven,bottle,pow,0222_pow_dnn_pow_bottle_35_n03983396_2944.png,n03983396_2944.png,0.0,-3.6014323,0.9250418,-3.2007005
alexnet_w1_mlp_simclrhn_probe1,1,223,NaN,knife,truck,0,0223_pow_dnn_0_truck_35_n03796401_8964.png,n03796401_8964.png,0.0,-3.0184495,1.0444665,-2.8729153
alexnet_w1_mlp_simclrhn_probe1,1,224,NaN,oven,knife,pow,0224_pow_dnn_pow_knife_35_n03041632_13509.png,n03041632_13509.png,0.0,-1.4685941,-1.336448,-0.09344142
alexnet_w1_mlp_simclrhn_probe1,1,225,NaN,bear,bird,pow,0225_pow_dnn_pow_bird_35_n01537544_7301.png,n01537544_7301.png,0.0,-4.4990635,-0.93356836,-2.5211856
alexnet_w1_mlp_simclrhn_probe1,1,226,NaN,elephant,elephant,0,0226_pow_dnn_0_elephant_35_n02504013_9618.png,n02504013_9618.png,1.0,7.279227,1.4714327,4.1067305
alexnet_w1_mlp_simclrhn_probe1,1,227,NaN,bottle,keyboard,pow,0227_pow_dnn_pow_keyboard_35_n04505470_10191.png,n04505470_10191.png,0.0,-6.973177,-0.9530934,-4.2568417
alexnet_w1_mlp_simclrhn_probe1,1,228,NaN,bicycle,bicycle,pow,0228_pow_dnn_pow_bicycle_35_n02835271_20149.png,n02835271_20149.png,1.0,2.42009,-2.8916073,3.755937
alexnet_w1_mlp_simclrhn_probe1,1,229,NaN,truck,truck,0,0229_pow_dnn_0_truck_35_n04467665_2098.png,n04467665_2098.png,1.0,4.8674297,0.8476322,2.842426
alexnet_w1_mlp_simclrhn_probe1,1,230,NaN,bear,bear,0,0230_pow_dnn_0_bear_35_n02133161_5274.png,n02133161_5274.png,1.0,2.1487749,1.0657402,0.76582116
alexnet_w1_mlp_simclrhn_probe1,1,231,NaN,oven,bird,pow,0231_pow_dnn_pow_bird_35_n01537544_20224.png,n01537544_20224.png,0.0,-2.6485074,0.21729173,-2.026426
alexnet_w1_mlp_simclrhn_probe1,1,232,NaN,bear,dog,pow,0232_pow_dnn_pow_dog_35_n02094258_6800.png,n02094258_6800.png,0.0,-1.5590999,0.075556755,-1.1558769
alexnet_w1_mlp_simclrhn_probe1,1,233,NaN,truck,truck,0,0233_pow_dnn_0_truck_35_n03417042_27326.png,n03417042_27326.png,1.0,8.44606,1.7659878,4.7235246
alexnet_w1_mlp_simclrhn_probe1,1,234,NaN,oven,oven,pow,0234_pow_dnn_pow_oven_35_n04111531_6955.png,n04111531_6955.png,1.0,2.8272395,-1.0896069,2.7696285
alexnet_w1_mlp_simclrhn_probe1,1,235,NaN,clock,clock,0,0235_pow_dnn_0_clock_35_n04548280_7135.png,n04548280_7135.png,1.0,1.3753157,-2.3471897,2.6322088
alexnet_w1_mlp_simclrhn_probe1,1,236,NaN,oven,dog,pow,0236_pow_dnn_pow_dog_35_n02113023_12143.png,n02113023_12143.png,0.0,-3.4740264,-0.07088861,-2.4063818
alexnet_w1_mlp_simclrhn_probe1,1,237,NaN,bicycle,bicycle,0,0237_pow_dnn_0_bicycle_35_n02835271_10832.png,n02835271_10832.png,1.0,7.320503,-0.5342749,5.5541673
alexnet_w1_mlp_simclrhn_probe1,1,238,NaN,oven,chair,pow,0238_pow_dnn_pow_chair_35_n02791124_28.png,n02791124_28.png,0.0,-2.368115,1.2444456,-2.554466
alexnet_w1_mlp_simclrhn_probe1,1,239,NaN,bicycle,bicycle,pow,0239_pow_dnn_pow_bicycle_35_n03792782_1715.png,n03792782_1715.png,1.0,2.4673846,-2.1060731,3.233923
alexnet_w1_mlp_simclrhn_probe1,1,240,NaN,bicycle,bicycle,0,0240_pow_dnn_0_bicycle_35_n02835271_19875.png,n02835271_19875.png,1.0,6.929161,-1.634111,6.055148
alexnet_w1_mlp_simclrhn_probe1,1,241,NaN,bird,bird,0,0241_pow_dnn_0_bird_35_n02056570_8203.png,n02056570_8203.png,1.0,0.8937662,-5.708551,4.6685433
alexnet_w1_mlp_simclrhn_probe1,1,242,NaN,elephant,car,pow,0242_pow_dnn_pow_car_35_n02814533_27588.png,n02814533_27588.png,0.0,-4.3320413,-1.8166231,-1.7786692
alexnet_w1_mlp_simclrhn_probe1,1,243,NaN,bear,bear,0,0243_pow_dnn_0_bear_35_n02134418_2714.png,n02134418_2714.png,1.0,1.6821966,-1.055656,1.9359542
alexnet_w1_mlp_simclrhn_probe1,1,244,NaN,bear,bear,0,0244_pow_dnn_0_bear_35_n02132136_900.png,n02132136_900.png,1.0,5.7787294,0.17724228,3.9608495
alexnet_w1_mlp_simclrhn_probe1,1,245,NaN,dog,dog,0,0245_pow_dnn_0_dog_35_n02095889_7413.png,n02095889_7413.png,1.0,-0.029974377,-2.1873438,1.5254905
alexnet_w1_mlp_simclrhn_probe1,1,246,NaN,boat,boat,0,0246_pow_dnn_0_boat_35_n02951358_14877.png,n02951358_14877.png,1.0,-1.8433269,-2.3278084,0.34258014
alexnet_w1_mlp_simclrhn_probe1,1,247,NaN,knife,knife,pow,0247_pow_dnn_pow_knife_35_n03041632_42472.png,n03041632_42472.png,1.0,1.3078386,-0.13543619,1.0205494
alexnet_w1_mlp_simclrhn_probe1,1,248,NaN,bottle,bottle,pow,0248_pow_dnn_pow_bottle_35_n02823428_12740.png,n02823428_12740.png,1.0,2.136757,-2.2838974,3.1258748
alexnet_w1_mlp_simclrhn_probe1,1,249,NaN,airplane,boat,0,0249_pow_dnn_0_boat_35_n02951358_2537.png,n02951358_2537.png,0.0,0.22305231,1.1672561,-0.6676529
alexnet_w1_mlp_simclrhn_probe1,1,250,NaN,dog,dog,0,0250_pow_dnn_0_dog_35_n02106166_5135.png,n02106166_5135.png,1.0,-0.7120689,-2.8652644,1.5225391
alexnet_w1_mlp_simclrhn_probe1,1,251,NaN,oven,oven,pow,0251_pow_dnn_pow_oven_35_n04111531_23046.png,n04111531_23046.png,1.0,2.5717049,-3.0940018,4.0062594
alexnet_w1_mlp_simclrhn_probe1,1,252,NaN,bear,dog,pow,0252_pow_dnn_pow_dog_35_n02105855_3310.png,n02105855_3310.png,0.0,0.5079995,0.6524075,-0.10211191
alexnet_w1_mlp_simclrhn_probe1,1,253,NaN,bird,bird,0,0253_pow_dnn_0_bird_35_n01843383_2122.png,n01843383_2122.png,1.0,-0.72259974,-4.667123,2.789199
alexnet_w1_mlp_simclrhn_probe1,1,254,NaN,bicycle,boat,pow,0254_pow_dnn_pow_boat_35_n03344393_8407.png,n03344393_8407.png,0.0,-3.893148,-1.3580407,-1.7925915
alexnet_w1_mlp_simclrhn_probe1,1,255,NaN,clock,clock,pow,0255_pow_dnn_pow_clock_35_n04548280_4739.png,n04548280_4739.png,1.0,-1.3152051,-2.4274995,0.78651094
alexnet_w1_mlp_simclrhn_probe1,1,256,NaN,keyboard,keyboard,0,0256_pow_dnn_0_keyboard_35_n04505470_3531.png,n04505470_3531.png,1.0,5.705272,-0.21006125,4.182772
alexnet_w1_mlp_simclrhn_probe1,1,257,NaN,bear,airplane,pow,0257_pow_dnn_pow_airplane_35_n02690373_7740.png,n02690373_7740.png,0.0,-3.1976206,-0.526455,-1.8887994
alexnet_w1_mlp_simclrhn_probe1,1,258,NaN,bear,bear,pow,0258_pow_dnn_pow_bear_35_n02132136_4699.png,n02132136_4699.png,1.0,4.7436996,-0.18039592,3.4818614
alexnet_w1_mlp_simclrhn_probe1,1,259,NaN,airplane,airplane,pow,0259_pow_dnn_pow_airplane_35_n02690373_5277.png,n02690373_5277.png,1.0,0.7261474,-1.1575282,1.3319598
alexnet_w1_mlp_simclrhn_probe1,1,260,NaN,knife,clock,pow,0260_pow_dnn_pow_clock_35_n04548280_8841.png,n04548280_8841.png,0.0,-1.0861958,-0.9948516,-0.064590134
alexnet_w1_mlp_simclrhn_probe1,1,261,NaN,oven,truck,pow,0261_pow_dnn_pow_truck_35_n03796401_142.png,n03796401_142.png,0.0,-6.339464,2.1430836,-5.9980674
alexnet_w1_mlp_simclrhn_probe1,1,262,NaN,bear,bear,pow,0262_pow_dnn_pow_bear_35_n02134418_4666.png,n02134418_4666.png,1.0,0.86032057,-0.78854483,1.165924
alexnet_w1_mlp_simclrhn_probe1,1,263,NaN,chair,chair,0,0263_pow_dnn_0_chair_35_n04429376_17074.png,n04429376_17074.png,1.0,-1.4859442,-2.8327472,0.9523336
alexnet_w1_mlp_simclrhn_probe1,1,264,NaN,dog,dog,0,0264_pow_dnn_0_dog_35_n02107683_1934.png,n02107683_1934.png,1.0,2.2019334,-4.023279,4.4018903
alexnet_w1_mlp_simclrhn_probe1,1,265,NaN,bicycle,bicycle,0,0265_pow_dnn_0_bicycle_35_n03792782_3765.png,n03792782_3765.png,1.0,-0.1455138,-3.2376387,2.1864626
alexnet_w1_mlp_simclrhn_probe1,1,266,NaN,elephant,elephant,pow,0266_pow_dnn_pow_elephant_35_n02504013_7026.png,n02504013_7026.png,1.0,7.2310305,1.2912893,4.2000313
alexnet_w1_mlp_simclrhn_probe1,1,267,NaN,knife,clock,pow,0267_pow_dnn_pow_clock_35_n03196217_3063.png,n03196217_3063.png,0.0,-5.2926545,-0.8046318,-3.1735115
alexnet_w1_mlp_simclrhn_probe1,1,268,NaN,elephant,bear,pow,0268_pow_dnn_pow_bear_35_n02134418_1041.png,n02134418_1041.png,0.0,0.8263047,0.90082973,-0.052697174
alexnet_w1_mlp_simclrhn_probe1,1,269,NaN,boat,boat,pow,0269_pow_dnn_pow_boat_35_n03344393_8258.png,n03344393_8258.png,1.0,-1.4442695,-2.6289096,0.83766705
alexnet_w1_mlp_simclrhn_probe1,1,270,NaN,oven,oven,0,0270_pow_dnn_0_oven_35_n04111531_10306.png,n04111531_10306.png,1.0,6.2034674,-0.2965607,4.596214
alexnet_w1_mlp_simclrhn_probe1,1,271,NaN,clock,bottle,0,0271_pow_dnn_0_bottle_35_n02823428_641.png,n02823428_641.png,0.0,-0.65813124,1.0686694,-1.2210325
alexnet_w1_mlp_simclrhn_probe1,1,272,NaN,oven,oven,pow,0272_pow_dnn_pow_oven_35_n04111531_1873.png,n04111531_1873.png,1.0,1.4037989,-1.941666,2.365601
alexnet_w1_mlp_simclrhn_probe1,1,273,NaN,bear,bear,0,0273_pow_dnn_0_bear_35_n02134418_559.png,n02134418_559.png,1.0,2.2201986,-1.061282,2.3203573
alexnet_w1_mlp_simclrhn_probe1,1,274,NaN,oven,keyboard,pow,0274_pow_dnn_pow_keyboard_35_n04505470_4844.png,n04505470_4844.png,0.0,-2.0612128,0.6250028,-1.8994414
alexnet_w1_mlp_simclrhn_probe1,1,275,NaN,keyboard,keyboard,0,0275_pow_dnn_0_keyboard_35_n03085013_23291.png,n03085013_23291.png,1.0,6.2152114,1.1634703,3.5721204
alexnet_w1_mlp_simclrhn_probe1,1,276,NaN,car,car,0,0276_pow_dnn_0_car_35_n03100240_5808.png,n03100240_5808.png,1.0,11.841221,5.981722,4.1432915
alexnet_w1_mlp_simclrhn_probe1,1,277,NaN,boat,bear,0,0277_pow_dnn_0_bear_35_n02134084_15968.png,n02134084_15968.png,0.0,-2.1894846,-1.0896237,-0.77771914
alexnet_w1_mlp_simclrhn_probe1,1,278,NaN,bear,cat,0,0278_pow_dnn_0_cat_35_n02125311_20238.png,n02125311_20238.png,0.0,-2.2536752,1.0345995,-2.3251615
alexnet_w1_mlp_simclrhn_probe1,1,279,NaN,bird,bird,0,0279_pow_dnn_0_bird_35_n02028035_8994.png,n02028035_8994.png,1.0,0.5403336,-0.7883191,0.9394994
alexnet_w1_mlp_simclrhn_probe1,1,280,NaN,knife,airplane,pow,0280_pow_dnn_pow_airplane_35_n02690373_4471.png,n02690373_4471.png,0.0,-0.5898763,-0.022719026,-0.40104076
alexnet_w1_mlp_simclrhn_probe1,1,281,NaN,car,truck,0,0281_pow_dnn_0_truck_35_n03796401_322.png,n03796401_322.png,0.0,10.159645,12.382228,-1.5716034
alexnet_w1_mlp_simclrhn_probe1,1,282,NaN,knife,car,pow,0282_pow_dnn_pow_car_35_n04285008_402.png,n04285008_402.png,0.0,-5.75683,-1.424759,-3.063237
alexnet_w1_mlp_simclrhn_probe1,1,283,NaN,oven,oven,0,0283_pow_dnn_0_oven_35_n04111531_807.png,n04111531_807.png,1.0,3.15877,-0.5220647,2.6027434
alexnet_w1_mlp_simclrhn_probe1,1,284,NaN,oven,oven,0,0284_pow_dnn_0_oven_35_n04111531_20369.png,n04111531_20369.png,1.0,6.5138407,-5.293732,8.3492155
alexnet_w1_mlp_simclrhn_probe1,1,285,NaN,bear,knife,pow,0285_pow_dnn_pow_knife_35_n03041632_24114.png,n03041632_24114.png,0.0,-1.822369,-0.3292365,-1.0558041
alexnet_w1_mlp_simclrhn_probe1,1,286,NaN,dog,dog,0,0286_pow_dnn_0_dog_35_n02093256_1102.png,n02093256_1102.png,1.0,-1.5078517,-1.9616706,0.32089844
alexnet_w1_mlp_simclrhn_probe1,1,287,NaN,bottle,bottle,0,0287_pow_dnn_0_bottle_35_n03983396_17636.png,n03983396_17636.png,1.0,6.3510985,-1.5710946,5.6018367
alexnet_w1_mlp_simclrhn_probe1,1,288,NaN,bird,bird,0,0288_pow_dnn_0_bird_35_n01855672_55167.png,n01855672_55167.png,1.0,-1.559644,-2.4565868,0.63423437
alexnet_w1_mlp_simclrhn_probe1,1,289,NaN,keyboard,bottle,0,0289_pow_dnn_0_bottle_35_n02823428_1149.png,n02823428_1149.png,0.0,-2.092769,-0.62250376,-1.0396345
alexnet_w1_mlp_simclrhn_probe1,1,290,NaN,oven,truck,pow,0290_pow_dnn_pow_truck_35_n03417042_1182.png,n03417042_1182.png,0.0,-4.9368773,1.5406293,-4.580289
alexnet_w1_mlp_simclrhn_probe1,1,291,NaN,bear,bear,0,0291_pow_dnn_0_bear_35_n02134084_22051.png,n02134084_22051.png,1.0,3.8238502,-0.29821017,2.9147367
alexnet_w1_mlp_simclrhn_probe1,1,292,NaN,elephant,cat,pow,0292_pow_dnn_pow_cat_35_n02123159_5170.png,n02123159_5170.png,0.0,-2.748924,-0.58101046,-1.5329463
alexnet_w1_mlp_simclrhn_probe1,1,293,NaN,airplane,airplane,pow,0293_pow_dnn_pow_airplane_35_n02690373_4042.png,n02690373_4042.png,1.0,1.1078316,-0.8830718,1.4077814
alexnet_w1_mlp_simclrhn_probe1,1,294,NaN,oven,airplane,pow,0294_pow_dnn_pow_airplane_35_n02690373_6231.png,n02690373_6231.png,0.0,-4.5280733,-1.8103166,-1.9217442
alexnet_w1_mlp_simclrhn_probe1,1,295,NaN,bear,bear,0,0295_pow_dnn_0_bear_35_n02134418_4657.png,n02134418_4657.png,1.0,2.9684258,1.660571,0.924793
alexnet_w1_mlp_simclrhn_probe1,1,296,NaN,car,car,0,0296_pow_dnn_0_car_35_n03100240_24505.png,n03100240_24505.png,1.0,4.4502654,2.9030282,1.0940619
alexnet_w1_mlp_simclrhn_probe1,1,297,NaN,bird,bird,0,0297_pow_dnn_0_bird_35_n02006656_4031.png,n02006656_4031.png,1.0,0.6950356,-5.2796326,4.2247286
alexnet_w1_mlp_simclrhn_probe1,1,298,NaN,truck,truck,0,0298_pow_dnn_0_truck_35_n03796401_20861.png,n03796401_20861.png,1.0,4.4494686,2.534683,1.3539579
alexnet_w1_mlp_simclrhn_probe1,1,299,NaN,oven,truck,0,0299_pow_dnn_0_truck_35_n03417042_4934.png,n03417042_4934.png,0.0,-0.11490655,3.8230405,-2.784549
alexnet_w1_mlp_simclrhn_probe1,1,300,NaN,bird,bird,0,0300_pow_dnn_0_bird_35_n01824575_3046.png,n01824575_3046.png,1.0,-1.2635378,-4.3300114,2.1683242
alexnet_w1_mlp_simclrhn_probe1,1,301,NaN,elephant,elephant,pow,0301_pow_dnn_pow_elephant_35_n02504458_3463.png,n02504458_3463.png,1.0,2.1493526,-1.4319032,2.5323303
alexnet_w1_mlp_simclrhn_probe1,1,302,NaN,airplane,airplane,0,0302_pow_dnn_0_airplane_35_n02690373_6914.png,n02690373_6914.png,1.0,8.105555,1.8601513,4.4161673
alexnet_w1_mlp_simclrhn_probe1,1,303,NaN,bottle,bottle,0,0303_pow_dnn_0_bottle_35_n03983396_3675.png,n03983396_3675.png,1.0,-0.13214724,-3.1070366,2.1035645
alexnet_w1_mlp_simclrhn_probe1,1,304,NaN,dog,dog,pow,0304_pow_dnn_pow_dog_35_n02088364_12272.png,n02088364_12272.png,1.0,-0.41481712,-2.0644932,1.1664971
alexnet_w1_mlp_simclrhn_probe1,1,305,NaN,dog,dog,0,0305_pow_dnn_0_dog_35_n02085936_1706.png,n02085936_1706.png,1.0,0.53111213,-3.0806234,2.5538828
alexnet_w1_mlp_simclrhn_probe1,1,306,NaN,elephant,bear,0,0306_pow_dnn_0_bear_35_n02134084_18372.png,n02134084_18372.png,0.0,2.4596202,2.4774737,-0.01262433
alexnet_w1_mlp_simclrhn_probe1,1,307,NaN,keyboard,keyboard,0,0307_pow_dnn_0_keyboard_35_n04505470_751.png,n04505470_751.png,1.0,2.0685134,-1.4773458,2.5073013
alexnet_w1_mlp_simclrhn_probe1,1,308,NaN,bird,bird,0,0308_pow_dnn_0_bird_35_n02018207_19525.png,n02018207_19525.png,1.0,-1.0738121,-2.0129242,0.66405255
alexnet_w1_mlp_simclrhn_probe1,1,309,NaN,oven,bicycle,pow,0309_pow_dnn_pow_bicycle_35_n02835271_3329.png,n02835271_3329.png,0.0,-2.7757518,-1.3675513,-0.99574816
alexnet_w1_mlp_simclrhn_probe1,1,310,NaN,clock,clock,pow,0310_pow_dnn_pow_clock_35_n04548280_1960.png,n04548280_1960.png,1.0,-1.6572853,-6.2947946,3.2792144
alexnet_w1_mlp_simclrhn_probe1,1,311,NaN,chair,chair,0,0311_pow_dnn_0_chair_35_n03376595_6240.png,n03376595_6240.png,1.0,1.5612259,-1.977505,2.5022607
alexnet_w1_mlp_simclrhn_probe1,1,312,NaN,bear,knife,pow,0312_pow_dnn_pow_knife_35_n03041632_13194.png,n03041632_13194.png,0.0,-1.3016635,-0.3900021,-0.64464194
alexnet_w1_mlp_simclrhn_probe1,1,313,NaN,bicycle,knife,0,0313_pow_dnn_0_knife_35_n03041632_13465.png,n03041632_13465.png,0.0,-7.7045307,-1.791909,-4.180855
alexnet_w1_mlp_simclrhn_probe1,1,314,NaN,cat,cat,pow,0314_pow_dnn_pow_cat_35_n02125311_10174.png,n02125311_10174.png,1.0,1.2260971,-0.52791166,1.2402716
alexnet_w1_mlp_simclrhn_probe1,1,315,NaN,oven,car,pow,0315_pow_dnn_pow_car_35_n02814533_7420.png,n02814533_7420.png,0.0,-3.604288,1.6058177,-3.6841013
alexnet_w1_mlp_simclrhn_probe1,1,316,NaN,elephant,truck,pow,0316_pow_dnn_pow_truck_35_n04467665_3876.png,n04467665_3876.png,0.0,-3.575057,-0.8104888,-1.9548451
alexnet_w1_mlp_simclrhn_probe1,1,317,NaN,airplane,airplane,0,0317_pow_dnn_0_airplane_35_n02690373_12976.png,n02690373_12976.png,1.0,10.112604,1.3046868,6.2281384
alexnet_w1_mlp_simclrhn_probe1,1,318,NaN,bear,bear,pow,0318_pow_dnn_pow_bear_35_n02133161_10441.png,n02133161_10441.png,1.0,1.9885306,0.6654632,0.93555
alexnet_w1_mlp_simclrhn_probe1,1,319,NaN,oven,chair,pow,0319_pow_dnn_pow_chair_35_n03376595_13703.png,n03376595_13703.png,0.0,-3.3656597,-0.6421478,-1.9258138
alexnet_w1_mlp_simclrhn_probe1,1,320,NaN,bicycle,bicycle,pow,0320_pow_dnn_pow_bicycle_35_n03792782_11625.png,n03792782_11625.png,1.0,2.1491377,-1.5393066,2.608124
alexnet_w1_mlp_simclrhn_probe1,1,321,NaN,oven,oven,pow,0321_pow_dnn_pow_oven_35_n04111531_22797.png,n04111531_22797.png,1.0,0.08077371,-1.5687056,1.166358
alexnet_w1_mlp_simclrhn_probe1,1,322,NaN,elephant,chair,pow,0322_pow_dnn_pow_chair_35_n03376595_9651.png,n03376595_9651.png,0.0,-3.4293501,-0.31088334,-2.205089
alexnet_w1_mlp_simclrhn_probe1,1,323,NaN,bear,bicycle,pow,0323_pow_dnn_pow_bicycle_35_n03792782_4830.png,n03792782_4830.png,0.0,-1.3855962,-1.0764759,-0.21858107
alexnet_w1_mlp_simclrhn_probe1,1,324,NaN,elephant,elephant,pow,0324_pow_dnn_pow_elephant_35_n02504013_7191.png,n02504013_7191.png,1.0,-0.06872575,-1.3377688,0.897349
alexnet_w1_mlp_simclrhn_probe1,1,325,NaN,knife,knife,0,0325_pow_dnn_0_knife_35_n03041632_120.png,n03041632_120.png,1.0,2.999989,-1.6289072,3.273124
alexnet_w1_mlp_simclrhn_probe1,1,326,NaN,knife,airplane,pow,0326_pow_dnn_pow_airplane_35_n02690373_5465.png,n02690373_5465.png,0.0,-3.8515158,-0.46125886,-2.3972738
alexnet_w1_mlp_simclrhn_probe1,1,327,NaN,car,car,pow,0327_pow_dnn_pow_car_35_n04285008_8443.png,n04285008_8443.png,1.0,-0.091700435,-2.2892637,1.5539118
alexnet_w1_mlp_simclrhn_probe1,1,328,NaN,bottle,bottle,0,0328_pow_dnn_0_bottle_35_n04557648_132.png,n04557648_132.png,1.0,6.755687,-1.9679275,6.168527
alexnet_w1_mlp_simclrhn_probe1,1,329,NaN,airplane,airplane,pow,0329_pow_dnn_pow_airplane_35_n02690373_18304.png,n02690373_18304.png,1.0,0.84845924,-1.7947834,1.8690548
alexnet_w1_mlp_simclrhn_probe1,1,330,NaN,knife,knife,pow,0330_pow_dnn_pow_knife_35_n03041632_102764.png,n03041632_102764.png,1.0,-0.7213864,-0.8703717,0.105348535
alexnet_w1_mlp_simclrhn_probe1,1,331,NaN,oven,chair,pow,0331_pow_dnn_pow_chair_35_n02791124_16913.png,n02791124_16913.png,0.0,-2.186329,-0.1589835,-1.4335498
alexnet_w1_mlp_simclrhn_probe1,1,332,NaN,bicycle,bicycle,pow,0332_pow_dnn_pow_bicycle_35_n02835271_324.png,n02835271_324.png,1.0,-0.112510055,-2.3995264,1.6171649
alexnet_w1_mlp_simclrhn_probe1,1,333,NaN,airplane,airplane,pow,0333_pow_dnn_pow_airplane_35_n02690373_12966.png,n02690373_12966.png,1.0,0.41996393,-1.2516397,1.1820023
alexnet_w1_mlp_simclrhn_probe1,1,334,NaN,elephant,keyboard,pow,0334_pow_dnn_pow_keyboard_35_n03085013_24653.png,n03085013_24653.png,0.0,-6.5891857,0.5776657,-5.0677295
alexnet_w1_mlp_simclrhn_probe1,1,335,NaN,bicycle,bicycle,0,0335_pow_dnn_0_bicycle_35_n03792782_18529.png,n03792782_18529.png,1.0,3.8319602,-3.0329552,4.8542285
alexnet_w1_mlp_simclrhn_probe1,1,336,NaN,airplane,airplane,pow,0336_pow_dnn_pow_airplane_35_n02690373_2433.png,n02690373_2433.png,1.0,2.4295235,-1.2804921,2.623377
alexnet_w1_mlp_simclrhn_probe1,1,337,NaN,elephant,cat,0,0337_pow_dnn_0_cat_35_n02125311_28447.png,n02125311_28447.png,0.0,-3.668906,0.48260757,-2.9355636
alexnet_w1_mlp_simclrhn_probe1,1,338,NaN,knife,knife,0,0338_pow_dnn_0_knife_35_n03041632_20504.png,n03041632_20504.png,1.0,1.0823371,-2.6010952,2.60458
alexnet_w1_mlp_simclrhn_probe1,1,339,NaN,bear,bear,pow,0339_pow_dnn_pow_bear_35_n02132136_15870.png,n02132136_15870.png,1.0,0.03705453,-0.40687627,0.3139065
alexnet_w1_mlp_simclrhn_probe1,1,340,NaN,car,car,0,0340_pow_dnn_0_car_35_n02814533_11273.png,n02814533_11273.png,1.0,6.2459908,4.8559504,0.982907
alexnet_w1_mlp_simclrhn_probe1,1,341,NaN,elephant,elephant,0,0341_pow_dnn_0_elephant_35_n02504013_2476.png,n02504013_2476.png,1.0,10.922848,-0.75547224,8.257819
alexnet_w1_mlp_simclrhn_probe1,1,342,NaN,bird,bear,0,0342_pow_dnn_0_bear_35_n02133161_14945.png,n02133161_14945.png,0.0,-2.6932912,-2.4841115,-0.14791234
alexnet_w1_mlp_simclrhn_probe1,1,343,NaN,car,car,0,0343_pow_dnn_0_car_35_n04285008_7870.png,n04285008_7870.png,1.0,3.8441582,2.716156,0.797618
alexnet_w1_mlp_simclrhn_probe1,1,344,NaN,airplane,airplane,0,0344_pow_dnn_0_airplane_35_n02690373_10129.png,n02690373_10129.png,1.0,9.321595,3.169239,4.350373
alexnet_w1_mlp_simclrhn_probe1,1,345,NaN,elephant,truck,pow,0345_pow_dnn_pow_truck_35_n03417042_1479.png,n03417042_1479.png,0.0,-5.103691,0.44286793,-3.9220095
alexnet_w1_mlp_simclrhn_probe1,1,346,NaN,elephant,boat,pow,0346_pow_dnn_pow_boat_35_n04612504_10662.png,n04612504_10662.png,0.0,-2.5672078,-0.35478425,-1.5644197
alexnet_w1_mlp_simclrhn_probe1,1,347,NaN,bird,bird,0,0347_pow_dnn_0_bird_35_n02056570_5891.png,n02056570_5891.png,1.0,-0.06299996,-2.9326105,2.0291212
alexnet_w1_mlp_simclrhn_probe1,1,348,NaN,elephant,elephant,pow,0348_pow_dnn_pow_elephant_35_n02504458_5982.png,n02504458_5982.png,1.0,5.0815687,0.9352073,2.9319203
alexnet_w1_mlp_simclrhn_probe1,1,349,NaN,truck,truck,pow,0349_pow_dnn_pow_truck_35_n03417042_19955.png,n03417042_19955.png,1.0,-0.8152049,-1.812571,0.70524436
alexnet_w1_mlp_simclrhn_probe1,1,350,NaN,oven,oven,0,0350_pow_dnn_0_oven_35_n04111531_6120.png,n04111531_6120.png,1.0,6.5272183,-2.3391764,6.2694883
alexnet_w1_mlp_simclrhn_probe1,1,351,NaN,oven,oven,0,0351_pow_dnn_0_oven_35_n04111531_4750.png,n04111531_4750.png,1.0,3.2437658,-3.0721579,4.4660325
alexnet_w1_mlp_simclrhn_probe1,1,352,NaN,boat,boat,0,0352_pow_dnn_0_boat_35_n02951358_29779.png,n02951358_29779.png,1.0,2.5344527,-3.2197466,4.0688334
alexnet_w1_mlp_simclrhn_probe1,1,353,NaN,bear,bear,0,0353_pow_dnn_0_bear_35_n02134084_14168.png,n02134084_14168.png,1.0,-0.19589218,-1.301863,0.7820394
alexnet_w1_mlp_simclrhn_probe1,1,354,NaN,cat,cat,0,0354_pow_dnn_0_cat_35_n02123597_6990.png,n02123597_6990.png,1.0,1.8151478,-0.1338909,1.3781785
alexnet_w1_mlp_simclrhn_probe1,1,355,NaN,chair,chair,0,0355_pow_dnn_0_chair_35_n02791124_2008.png,n02791124_2008.png,1.0,4.3046417,-1.8101368,4.3238015
alexnet_w1_mlp_simclrhn_probe1,1,356,NaN,knife,car,pow,0356_pow_dnn_pow_car_35_n04285008_2185.png,n04285008_2185.png,0.0,-4.801496,-0.06599915,-3.3485022
alexnet_w1_mlp_simclrhn_probe1,1,357,NaN,bear,bear,0,0357_pow_dnn_0_bear_35_n02134084_13205.png,n02134084_13205.png,1.0,0.39140177,-0.89962804,0.912896
alexnet_w1_mlp_simclrhn_probe1,1,358,NaN,elephant,bird,pow,0358_pow_dnn_pow_bird_35_n01558993_6351.png,n01558993_6351.png,0.0,-2.8350267,1.2808464,-2.910362
alexnet_w1_mlp_simclrhn_probe1,1,359,NaN,car,bicycle,0,0359_pow_dnn_0_bicycle_35_n02835271_8017.png,n02835271_8017.png,0.0,0.4272955,2.8182585,-1.6906662
alexnet_w1_mlp_simclrhn_probe1,1,360,NaN,cat,cat,0,0360_pow_dnn_0_cat_35_n02124075_4189.png,n02124075_4189.png,1.0,8.897671,-4.5652533,9.519725
alexnet_w1_mlp_simclrhn_probe1,1,361,NaN,elephant,elephant,pow,0361_pow_dnn_pow_elephant_35_n02504458_3616.png,n02504458_3616.png,1.0,8.833507,2.4883075,4.4867334
alexnet_w1_mlp_simclrhn_probe1,1,362,NaN,boat,boat,pow,0362_pow_dnn_pow_boat_35_n04612504_8636.png,n04612504_8636.png,1.0,1.1141586,-0.16130067,0.9018859
alexnet_w1_mlp_simclrhn_probe1,1,363,NaN,oven,car,pow,0363_pow_dnn_pow_car_35_n03100240_10502.png,n03100240_10502.png,0.0,-4.6283746,-0.20898348,-3.1249814
alexnet_w1_mlp_simclrhn_probe1,1,364,NaN,bottle,bottle,0,0364_pow_dnn_0_bottle_35_n03983396_2271.png,n03983396_2271.png,1.0,-1.9877421,-5.688557,2.6168716
alexnet_w1_mlp_simclrhn_probe1,1,365,NaN,clock,clock,0,0365_pow_dnn_0_clock_35_n04548280_280.png,n04548280_280.png,1.0,3.4006665,-0.3876111,2.678717
alexnet_w1_mlp_simclrhn_probe1,1,366,NaN,airplane,truck,0,0366_pow_dnn_0_truck_35_n04467665_356.png,n04467665_356.png,0.0,0.08408405,3.885046,-2.687686
alexnet_w1_mlp_simclrhn_probe1,1,367,NaN,airplane,airplane,0,0367_pow_dnn_0_airplane_35_n02690373_306.png,n02690373_306.png,1.0,10.809289,1.080639,6.8791947
alexnet_w1_mlp_simclrhn_probe1,1,368,NaN,elephant,bird,pow,0368_pow_dnn_pow_bird_35_n02007558_11331.png,n02007558_11331.png,0.0,-1.9515849,2.439015,-3.1046228
alexnet_w1_mlp_simclrhn_probe1,1,369,NaN,dog,dog,0,0369_pow_dnn_0_dog_35_n02105162_1003.png,n02105162_1003.png,1.0,-0.62896407,-0.64706343,0.012798185
alexnet_w1_mlp_simclrhn_probe1,1,370,NaN,bear,bird,pow,0370_pow_dnn_pow_bird_35_n01534433_11695.png,n01534433_11695.png,0.0,-2.995905,-0.22842814,-1.9569017
alexnet_w1_mlp_simclrhn_probe1,1,371,NaN,oven,oven,0,0371_pow_dnn_0_oven_35_n04111531_19631.png,n04111531_19631.png,1.0,7.641435,0.6617895,4.9353547
alexnet_w1_mlp_simclrhn_probe1,1,372,NaN,elephant,elephant,pow,0372_pow_dnn_pow_elephant_35_n02504013_8534.png,n02504013_8534.png,1.0,3.458692,0.12775338,2.3553295
alexnet_w1_mlp_simclrhn_probe1,1,373,NaN,keyboard,oven,0,0373_pow_dnn_0_oven_35_n04111531_10436.png,n04111531_10436.png,0.0,0.87311524,1.4270157,-0.39166674
alexnet_w1_mlp_simclrhn_probe1,1,374,NaN,airplane,airplane,pow,0374_pow_dnn_pow_airplane_35_n02690373_1819.png,n02690373_1819.png,1.0,0.5027443,-2.5936024,2.1894479
alexnet_w1_mlp_simclrhn_probe1,1,375,NaN,cat,cat,0,0375_pow_dnn_0_cat_35_n02123597_14032.png,n02123597_14032.png,1.0,-1.4657055,-2.1199844,0.46264502
alexnet_w1_mlp_simclrhn_probe1,1,376,NaN,elephant,elephant,0,0376_pow_dnn_0_elephant_35_n02504013_10922.png,n02504013_10922.png,1.0,3.2074168,-2.7075872,4.1825395
alexnet_w1_mlp_simclrhn_probe1,1,377,NaN,boat,boat,0,0377_pow_dnn_0_boat_35_n03662601_81.png,n03662601_81.png,1.0,2.4826221,-0.3675099,2.0153477
alexnet_w1_mlp_simclrhn_probe1,1,378,NaN,bottle,bottle,pow,0378_pow_dnn_pow_bottle_35_n03937543_11347.png,n03937543_11347.png,1.0,-0.2399331,-0.6967584,0.32302427
alexnet_w1_mlp_simclrhn_probe1,1,379,NaN,oven,knife,pow,0379_pow_dnn_pow_knife_35_n03041632_85416.png,n03041632_85416.png,0.0,-2.0708432,0.0943646,-1.5310332
alexnet_w1_mlp_simclrhn_probe1,1,380,NaN,car,car,pow,0380_pow_dnn_pow_car_35_n03100240_15676.png,n03100240_15676.png,1.0,2.3519042,1.5649195,0.5564822
alexnet_w1_mlp_simclrhn_probe1,1,381,NaN,oven,oven,0,0381_pow_dnn_0_oven_35_n04111531_4189.png,n04111531_4189.png,1.0,3.3339336,-1.114101,3.1452355
alexnet_w1_mlp_simclrhn_probe1,1,382,NaN,car,car,pow,0382_pow_dnn_pow_car_35_n02814533_65623.png,n02814533_65623.png,1.0,-2.23005,-2.7246976,0.3497686
alexnet_w1_mlp_simclrhn_probe1,1,383,NaN,airplane,airplane,0,0383_pow_dnn_0_airplane_35_n02690373_4945.png,n02690373_4945.png,1.0,16.933712,-2.8332255,13.977336
alexnet_w1_mlp_simclrhn_probe1,1,384,NaN,bicycle,dog,0,0384_pow_dnn_0_dog_35_n02088364_5801.png,n02088364_5801.png,0.0,-2.595566,-2.1995811,-0.2800036
alexnet_w1_mlp_simclrhn_probe1,1,385,NaN,elephant,dog,pow,0385_pow_dnn_pow_dog_35_n02108915_8164.png,n02108915_8164.png,0.0,-2.2522507,-0.40792614,-1.3041345
alexnet_w1_mlp_simclrhn_probe1,1,386,NaN,car,car,0,0386_pow_dnn_0_car_35_n03100240_1435.png,n03100240_1435.png,1.0,13.372617,10.524555,2.0138836
alexnet_w1_mlp_simclrhn_probe1,1,387,NaN,chair,clock,0,0387_pow_dnn_0_clock_35_n03196217_412.png,n03196217_412.png,0.0,-1.4512159,-0.2213606,-0.86963904
alexnet_w1_mlp_simclrhn_probe1,1,388,NaN,bicycle,boat,pow,0388_pow_dnn_pow_boat_35_n03344393_6713.png,n03344393_6713.png,0.0,-3.6278272,-1.2815051,-1.6591003
alexnet_w1_mlp_simclrhn_probe1,1,389,NaN,knife,knife,0,0389_pow_dnn_0_knife_35_n03041632_4305.png,n03041632_4305.png,1.0,-1.2248042,-1.7172986,0.3482462
alexnet_w1_mlp_simclrhn_probe1,1,390,NaN,oven,car,pow,0390_pow_dnn_pow_car_35_n04285008_10287.png,n04285008_10287.png,0.0,-5.0258303,0.79383516,-4.115125
alexnet_w1_mlp_simclrhn_probe1,1,391,NaN,elephant,car,pow,0391_pow_dnn_pow_car_35_n04285008_15071.png,n04285008_15071.png,0.0,-5.1390133,-0.6875874,-3.1476336
alexnet_w1_mlp_simclrhn_probe1,1,392,NaN,knife,knife,pow,0392_pow_dnn_pow_knife_35_n03041632_22214.png,n03041632_22214.png,1.0,-0.89165956,-3.1762002,1.6154143
alexnet_w1_mlp_simclrhn_probe1,1,393,NaN,boat,boat,pow,0393_pow_dnn_pow_boat_35_n04612504_3064.png,n04612504_3064.png,1.0,-0.65028447,-0.81413835,0.11586219
alexnet_w1_mlp_simclrhn_probe1,1,394,NaN,chair,chair,0,0394_pow_dnn_0_chair_35_n02791124_7193.png,n02791124_7193.png,1.0,3.1277134,-2.2240994,3.7843032
alexnet_w1_mlp_simclrhn_probe1,1,395,NaN,boat,boat,0,0395_pow_dnn_0_boat_35_n03344393_5511.png,n03344393_5511.png,1.0,8.915178,0.65530795,5.8406105
alexnet_w1_mlp_simclrhn_probe1,1,396,NaN,boat,boat,pow,0396_pow_dnn_pow_boat_35_n04273569_11997.png,n04273569_11997.png,1.0,-0.1291788,-2.5486844,1.7108488
alexnet_w1_mlp_simclrhn_probe1,1,397,NaN,bicycle,bicycle,0,0397_pow_dnn_0_bicycle_35_n03792782_1424.png,n03792782_1424.png,1.0,-0.7327342,-3.0455818,1.6354302
alexnet_w1_mlp_simclrhn_probe1,1,398,NaN,oven,clock,pow,0398_pow_dnn_pow_clock_35_n03196217_3362.png,n03196217_3362.png,0.0,-4.7507167,-0.47706866,-3.0219257
alexnet_w1_mlp_simclrhn_probe1,1,399,NaN,elephant,truck,pow,0399_pow_dnn_pow_truck_35_n04467665_21942.png,n04467665_21942.png,0.0,-3.913002,-0.6280033,-2.322845
alexnet_w1_mlp_simclrhn_probe1,1,400,NaN,oven,oven,0,0400_pow_dnn_0_oven_35_n04111531_6445.png,n04111531_6445.png,1.0,6.5123744,-0.89387596,5.23701
alexnet_w1_mlp_simclrhn_probe1,1,401,NaN,chair,chair,0,0401_pow_dnn_0_chair_35_n04099969_1163.png,n04099969_1163.png,1.0,4.3385534,-1.5269746,4.147555
alexnet_w1_mlp_simclrhn_probe1,1,402,NaN,clock,clock,pow,0402_pow_dnn_pow_clock_35_n02708093_3645.png,n02708093_3645.png,1.0,1.7100745,-1.0552422,1.9553742
alexnet_w1_mlp_simclrhn_probe1,1,403,NaN,bicycle,bicycle,0,0403_pow_dnn_0_bicycle_35_n03792782_68319.png,n03792782_68319.png,1.0,10.722942,-6.197862,11.964816
alexnet_w1_mlp_simclrhn_probe1,1,404,NaN,elephant,dog,pow,0404_pow_dnn_pow_dog_35_n02111129_513.png,n02111129_513.png,0.0,-0.57028866,2.324191,-2.0467062
alexnet_w1_mlp_simclrhn_probe1,1,405,NaN,airplane,airplane,pow,0405_pow_dnn_pow_airplane_35_n02690373_2676.png,n02690373_2676.png,1.0,1.8448209,-0.76893187,1.8482023
alexnet_w1_mlp_simclrhn_probe1,1,406,NaN,airplane,airplane,0,0406_pow_dnn_0_airplane_35_n02690373_1206.png,n02690373_1206.png,1.0,1.5940777,-0.91739666,1.7758806
alexnet_w1_mlp_simclrhn_probe1,1,407,NaN,dog,dog,0,0407_pow_dnn_0_dog_35_n02100735_1445.png,n02100735_1445.png,1.0,5.124197,-5.3680167,7.419116
alexnet_w1_mlp_simclrhn_probe1,1,408,NaN,bear,dog,pow,0408_pow_dnn_pow_dog_35_n02102040_312.png,n02102040_312.png,0.0,-1.9239192,-1.6361473,-0.20348549
alexnet_w1_mlp_simclrhn_probe1,1,409,NaN,keyboard,keyboard,0,0409_pow_dnn_0_keyboard_35_n03085013_22996.png,n03085013_22996.png,1.0,7.6077223,1.0340271,4.6483045
alexnet_w1_mlp_simclrhn_probe1,1,410,NaN,boat,boat,0,0410_pow_dnn_0_boat_35_n04612504_434.png,n04612504_434.png,1.0,3.959755,-0.048312366,2.8341315
alexnet_w1_mlp_simclrhn_probe1,1,411,NaN,cat,cat,0,0411_pow_dnn_0_cat_35_n02123597_14639.png,n02123597_14639.png,1.0,2.6468203,-0.826005,2.4556584
alexnet_w1_mlp_simclrhn_probe1,1,412,NaN,cat,cat,pow,0412_pow_dnn_pow_cat_35_n02123159_2043.png,n02123159_2043.png,1.0,2.0137396,-0.19595933,1.5624931
alexnet_w1_mlp_simclrhn_probe1,1,413,NaN,oven,clock,pow,0413_pow_dnn_pow_clock_35_n03196217_3647.png,n03196217_3647.png,0.0,-4.4867544,1.9252858,-4.533997
alexnet_w1_mlp_simclrhn_probe1,1,414,NaN,oven,oven,0,0414_pow_dnn_0_oven_35_n04111531_19795.png,n04111531_19795.png,1.0,4.1189337,-3.7043452,5.5318937
alexnet_w1_mlp_simclrhn_probe1,1,415,NaN,oven,truck,pow,0415_pow_dnn_pow_truck_35_n03417042_18625.png,n03417042_18625.png,0.0,-6.2304916,-0.13138908,-4.312717
alexnet_w1_mlp_simclrhn_probe1,1,416,NaN,elephant,elephant,pow,0416_pow_dnn_pow_elephant_35_n02504013_1763.png,n02504013_1763.png,1.0,1.5475587,-0.15298271,1.2024643
alexnet_w1_mlp_simclrhn_probe1,1,417,NaN,chair,chair,0,0417_pow_dnn_0_chair_35_n04099969_13105.png,n04099969_13105.png,1.0,1.8400314,0.5298536,0.92643565
alexnet_w1_mlp_simclrhn_probe1,1,418,NaN,elephant,bicycle,pow,0418_pow_dnn_pow_bicycle_35_n03792782_4931.png,n03792782_4931.png,0.0,-2.366906,1.0937757,-2.4470716
alexnet_w1_mlp_simclrhn_probe1,1,419,NaN,bear,bear,0,0419_pow_dnn_0_bear_35_n02134418_4513.png,n02134418_4513.png,1.0,2.3384902,-1.5067339,2.7189841
alexnet_w1_mlp_simclrhn_probe1,1,420,NaN,cat,cat,pow,0420_pow_dnn_pow_cat_35_n02123045_11224.png,n02123045_11224.png,1.0,5.844477,0.25386888,3.953157
alexnet_w1_mlp_simclrhn_probe1,1,421,NaN,chair,chair,0,0421_pow_dnn_0_chair_35_n02791124_359.png,n02791124_359.png,1.0,-0.29485416,-0.53189766,0.16761507
alexnet_w1_mlp_simclrhn_probe1,1,422,NaN,knife,clock,pow,0422_pow_dnn_pow_clock_35_n04548280_2654.png,n04548280_2654.png,0.0,-4.930316,-1.1335999,-2.6846838
alexnet_w1_mlp_simclrhn_probe1,1,423,NaN,bear,cat,pow,0423_pow_dnn_pow_cat_35_n02123394_4713.png,n02123394_4713.png,0.0,-0.44039145,1.1222622,-1.1049631
alexnet_w1_mlp_simclrhn_probe1,1,424,NaN,bear,bottle,pow,0424_pow_dnn_pow_bottle_35_n04557648_94.png,n04557648_94.png,0.0,-5.539225,-0.5188235,-3.54996
alexnet_w1_mlp_simclrhn_probe1,1,425,NaN,chair,chair,0,0425_pow_dnn_0_chair_35_n04099969_15676.png,n04099969_15676.png,1.0,2.8976717,-2.0799854,3.5197353
alexnet_w1_mlp_simclrhn_probe1,1,426,NaN,oven,boat,pow,0426_pow_dnn_pow_boat_35_n02951358_537.png,n02951358_537.png,0.0,-3.1102371,0.22497554,-2.3583515
alexnet_w1_mlp_simclrhn_probe1,1,427,NaN,clock,clock,0,0427_pow_dnn_0_clock_35_n03196217_1376.png,n03196217_1376.png,1.0,1.737171,0.0813669,1.1708304
alexnet_w1_mlp_simclrhn_probe1,1,428,NaN,bear,chair,pow,0428_pow_dnn_pow_chair_35_n02791124_1594.png,n02791124_1594.png,0.0,-3.057531,-0.49232563,-1.8138742
alexnet_w1_mlp_simclrhn_probe1,1,429,NaN,elephant,bird,0,0429_pow_dnn_0_bird_35_n02007558_7112.png,n02007558_7112.png,0.0,-6.809754,-4.285453,-1.7849504
alexnet_w1_mlp_simclrhn_probe1,1,430,NaN,bicycle,bicycle,0,0430_pow_dnn_0_bicycle_35_n02835271_6094.png,n02835271_6094.png,1.0,9.34457,-4.2479157,9.611339
alexnet_w1_mlp_simclrhn_probe1,1,431,NaN,airplane,airplane,pow,0431_pow_dnn_pow_airplane_35_n02690373_7676.png,n02690373_7676.png,1.0,0.4259619,-2.0510638,1.7515217
alexnet_w1_mlp_simclrhn_probe1,1,432,NaN,cat,cat,pow,0432_pow_dnn_pow_cat_35_n02123045_3375.png,n02123045_3375.png,1.0,4.450725,-0.62350225,3.5880206
alexnet_w1_mlp_simclrhn_probe1,1,433,NaN,bicycle,bicycle,0,0433_pow_dnn_0_bicycle_35_n02835271_15617.png,n02835271_15617.png,1.0,10.988806,0.53142333,7.394486
alexnet_w1_mlp_simclrhn_probe1,1,434,NaN,oven,oven,pow,0434_pow_dnn_pow_oven_35_n04111531_4904.png,n04111531_4904.png,1.0,-1.1230493,-1.1962818,0.05178322
alexnet_w1_mlp_simclrhn_probe1,1,435,NaN,boat,boat,0,0435_pow_dnn_0_boat_35_n02951358_5718.png,n02951358_5718.png,1.0,1.3198564,-2.2277043,2.5085042
alexnet_w1_mlp_simclrhn_probe1,1,436,NaN,elephant,elephant,pow,0436_pow_dnn_pow_elephant_35_n02504013_7467.png,n02504013_7467.png,1.0,1.3870542,0.14910774,0.87536037
alexnet_w1_mlp_simclrhn_probe1,1,437,NaN,elephant,elephant,pow,0437_pow_dnn_pow_elephant_35_n02504013_1830.png,n02504013_1830.png,1.0,12.756312,3.1662226,6.7812176
alexnet_w1_mlp_simclrhn_probe1,1,438,NaN,car,car,0,0438_pow_dnn_0_car_35_n02814533_59762.png,n02814533_59762.png,1.0,4.281854,3.5759733,0.49913317
alexnet_w1_mlp_simclrhn_probe1,1,439,NaN,elephant,bicycle,pow,0439_pow_dnn_pow_bicycle_35_n02835271_771.png,n02835271_771.png,0.0,-3.8932948,3.1577508,-4.985842
alexnet_w1_mlp_simclrhn_probe1,1,440,NaN,oven,bicycle,pow,0440_pow_dnn_pow_bicycle_35_n02835271_4313.png,n02835271_4313.png,0.0,-2.2739854,-0.35501602,-1.3569163
alexnet_w1_mlp_simclrhn_probe1,1,441,NaN,bear,bear,0,0441_pow_dnn_0_bear_35_n02132136_891.png,n02132136_891.png,1.0,8.677354,5.9504642,1.9282022
alexnet_w1_mlp_simclrhn_probe1,1,442,NaN,bear,bear,pow,0442_pow_dnn_pow_bear_35_n02132136_18276.png,n02132136_18276.png,1.0,2.8256812,1.2727277,1.098104
alexnet_w1_mlp_simclrhn_probe1,1,443,NaN,elephant,elephant,pow,0443_pow_dnn_pow_elephant_35_n02504013_2865.png,n02504013_2865.png,1.0,6.1916084,1.4852479,3.3278997
alexnet_w1_mlp_simclrhn_probe1,1,444,NaN,boat,boat,0,0444_pow_dnn_0_boat_35_n03662601_10120.png,n03662601_10120.png,1.0,5.436391,0.42925406,3.5405805
alexnet_w1_mlp_simclrhn_probe1,1,445,NaN,knife,bottle,pow,0445_pow_dnn_pow_bottle_35_n03983396_4241.png,n03983396_4241.png,0.0,-2.9736059,-2.2169466,-0.5350389
alexnet_w1_mlp_simclrhn_probe1,1,446,NaN,elephant,elephant,pow,0446_pow_dnn_pow_elephant_35_n02504458_8254.png,n02504458_8254.png,1.0,2.1255405,0.7058218,1.0038928
alexnet_w1_mlp_simclrhn_probe1,1,447,NaN,elephant,boat,pow,0447_pow_dnn_pow_boat_35_n04612504_857.png,n04612504_857.png,0.0,-2.7186208,-0.15105703,-1.8155417
alexnet_w1_mlp_simclrhn_probe1,1,448,NaN,oven,car,pow,0448_pow_dnn_pow_car_35_n04285008_6037.png,n04285008_6037.png,0.0,-4.854839,-0.1385997,-3.3348846
alexnet_w1_mlp_simclrhn_probe1,1,449,NaN,elephant,elephant,pow,0449_pow_dnn_pow_elephant_35_n02504458_2888.png,n02504458_2888.png,1.0,5.073185,-0.1617122,3.7016313
alexnet_w1_mlp_simclrhn_probe1,1,450,NaN,elephant,elephant,0,0450_pow_dnn_0_elephant_35_n02504013_6257.png,n02504013_6257.png,1.0,3.8472133,-3.1900084,4.9760675
alexnet_w1_mlp_simclrhn_probe1,1,451,NaN,car,car,0,0451_pow_dnn_0_car_35_n04285008_8616.png,n04285008_8616.png,1.0,20.251877,15.387108,3.4399111
alexnet_w1_mlp_simclrhn_probe1,1,452,NaN,bird,bird,0,0452_pow_dnn_0_bird_35_n01537544_5372.png,n01537544_5372.png,1.0,-0.56276554,-2.227336,1.177029
alexnet_w1_mlp_simclrhn_probe1,1,453,NaN,airplane,airplane,pow,0453_pow_dnn_pow_airplane_35_n02690373_2498.png,n02690373_2498.png,1.0,-0.6855201,-1.6244292,0.663909
alexnet_w1_mlp_simclrhn_probe1,1,454,NaN,dog,dog,0,0454_pow_dnn_0_dog_35_n02099601_2980.png,n02099601_2980.png,1.0,0.7423456,-1.3427143,1.47436
alexnet_w1_mlp_simclrhn_probe1,1,455,NaN,oven,keyboard,pow,0455_pow_dnn_pow_keyboard_35_n04505470_1904.png,n04505470_1904.png,0.0,-6.9572234,-0.08971676,-4.8560605
alexnet_w1_mlp_simclrhn_probe1,1,456,NaN,airplane,airplane,0,0456_pow_dnn_0_airplane_35_n02690373_2967.png,n02690373_2967.png,1.0,5.1290054,-0.19676733,3.7658901
alexnet_w1_mlp_simclrhn_probe1,1,457,NaN,car,car,0,0457_pow_dnn_0_car_35_n04285008_7508.png,n04285008_7508.png,1.0,11.081405,8.280402,1.9806079
alexnet_w1_mlp_simclrhn_probe1,1,458,NaN,bird,bird,0,0458_pow_dnn_0_bird_35_n02051845_6652.png,n02051845_6652.png,1.0,-0.036571775,-5.156797,3.6205459
alexnet_w1_mlp_simclrhn_probe1,1,459,NaN,oven,truck,pow,0459_pow_dnn_pow_truck_35_n03796401_6737.png,n03796401_6737.png,0.0,-4.16374,1.1518482,-3.7586887
alexnet_w1_mlp_simclrhn_probe1,1,460,NaN,truck,bottle,pow,0460_pow_dnn_pow_bottle_35_n03937543_2177.png,n03937543_2177.png,0.0,-2.7970102,-1.9717882,-0.5835201
alexnet_w1_mlp_simclrhn_probe1,1,461,NaN,knife,keyboard,pow,0461_pow_dnn_pow_keyboard_35_n03085013_6432.png,n03085013_6432.png,0.0,-6.012437,-0.29894912,-4.0400457
alexnet_w1_mlp_simclrhn_probe1,1,462,NaN,bird,bird,0,0462_pow_dnn_0_bird_35_n01530575_10212.png,n01530575_10212.png,1.0,1.2589303,-5.2427883,4.5974092
alexnet_w1_mlp_simclrhn_probe1,1,463,NaN,oven,boat,pow,0463_pow_dnn_pow_boat_35_n04273569_31649.png,n04273569_31649.png,0.0,-2.830645,-0.85930514,-1.3939478
alexnet_w1_mlp_simclrhn_probe1,1,464,NaN,keyboard,keyboard,0,0464_pow_dnn_0_keyboard_35_n04505470_2869.png,n04505470_2869.png,1.0,14.768404,-1.5555,11.542744
alexnet_w1_mlp_simclrhn_probe1,1,465,NaN,oven,oven,0,0465_pow_dnn_0_oven_35_n04111531_5110.png,n04111531_5110.png,1.0,5.0257025,-1.4021516,4.5451794
alexnet_w1_mlp_simclrhn_probe1,1,466,NaN,bottle,bottle,pow,0466_pow_dnn_pow_bottle_35_n04579145_4389.png,n04579145_4389.png,1.0,1.0718863,-1.4410812,1.7769364
alexnet_w1_mlp_simclrhn_probe1,1,467,NaN,bottle,bottle,0,0467_pow_dnn_0_bottle_35_n04557648_9310.png,n04557648_9310.png,1.0,0.53426385,-1.1111181,1.1634607
alexnet_w1_mlp_simclrhn_probe1,1,468,NaN,bear,dog,pow,0468_pow_dnn_pow_dog_35_n02108000_6061.png,n02108000_6061.png,0.0,-2.6471071,0.20580995,-2.017317
alexnet_w1_mlp_simclrhn_probe1,1,469,NaN,elephant,knife,pow,0469_pow_dnn_pow_knife_35_n03041632_84240.png,n03041632_84240.png,0.0,-2.1552544,1.0547626,-2.2698247
alexnet_w1_mlp_simclrhn_probe1,1,470,NaN,oven,cat,pow,0470_pow_dnn_pow_cat_35_n02123394_3718.png,n02123394_3718.png,0.0,-2.3074226,-0.12441003,-1.543623
alexnet_w1_mlp_simclrhn_probe1,1,471,NaN,bear,dog,pow,0471_pow_dnn_pow_dog_35_n02098105_2157.png,n02098105_2157.png,0.0,-0.9684777,0.8546152,-1.2891214
alexnet_w1_mlp_simclrhn_probe1,1,472,NaN,clock,clock,0,0472_pow_dnn_0_clock_35_n04548280_2601.png,n04548280_2601.png,1.0,5.651707,-5.095652,7.5995307
alexnet_w1_mlp_simclrhn_probe1,1,473,NaN,dog,cat,0,0473_pow_dnn_0_cat_35_n02123394_4286.png,n02123394_4286.png,0.0,-1.3963207,0.6478307,-1.4454333
alexnet_w1_mlp_simclrhn_probe1,1,474,NaN,bottle,bottle,0,0474_pow_dnn_0_bottle_35_n02823428_4569.png,n02823428_4569.png,1.0,9.901383,-0.9378102,7.6644673
alexnet_w1_mlp_simclrhn_probe1,1,475,NaN,oven,bird,pow,0475_pow_dnn_pow_bird_35_n02017213_15747.png,n02017213_15747.png,0.0,-3.0323422,0.56263334,-2.5420315
alexnet_w1_mlp_simclrhn_probe1,1,476,NaN,truck,bicycle,0,0476_pow_dnn_0_bicycle_35_n03792782_11390.png,n03792782_11390.png,0.0,-3.973097,-2.9244547,-0.74150217
alexnet_w1_mlp_simclrhn_probe1,1,477,NaN,car,car,0,0477_pow_dnn_0_car_35_n02814533_4374.png,n02814533_4374.png,1.0,16.889505,10.913444,4.2257137
alexnet_w1_mlp_simclrhn_probe1,1,478,NaN,keyboard,keyboard,0,0478_pow_dnn_0_keyboard_35_n04505470_5137.png,n04505470_5137.png,1.0,5.04797,-0.93544203,4.2309113
alexnet_w1_mlp_simclrhn_probe1,1,479,NaN,elephant,elephant,0,0479_pow_dnn_0_elephant_35_n02504013_306.png,n02504013_306.png,1.0,10.093361,1.5433966,6.0457377
alexnet_w1_mlp_simclrhn_probe1,1,480,NaN,bicycle,boat,0,0480_pow_dnn_0_boat_35_n02951358_14624.png,n02951358_14624.png,0.0,-0.17274852,3.7022195,-2.7400162
alexnet_w1_mlp_simclrhn_probe1,1,481,NaN,bear,cat,pow,0481_pow_dnn_pow_cat_35_n02125311_28114.png,n02125311_28114.png,0.0,-1.1250926,0.120950125,-0.8810853
alexnet_w1_mlp_simclrhn_probe1,1,482,NaN,car,car,pow,0482_pow_dnn_pow_car_35_n03100240_6259.png,n03100240_6259.png,1.0,0.9313543,0.29924625,0.44696787
alexnet_w1_mlp_simclrhn_probe1,1,483,NaN,elephant,cat,pow,0483_pow_dnn_pow_cat_35_n02125311_12361.png,n02125311_12361.png,0.0,-1.9896235,2.0480556,-2.8550704
alexnet_w1_mlp_simclrhn_probe1,1,484,NaN,bird,bird,0,0484_pow_dnn_0_bird_35_n01833805_16468.png,n01833805_16468.png,1.0,-2.802414,-3.446256,0.45526505
alexnet_w1_mlp_simclrhn_probe1,1,485,NaN,bear,dog,pow,0485_pow_dnn_pow_dog_35_n02110063_6748.png,n02110063_6748.png,0.0,-1.8642385,0.3362128,-1.5559541
alexnet_w1_mlp_simclrhn_probe1,1,486,NaN,oven,clock,pow,0486_pow_dnn_pow_clock_35_n04548280_2943.png,n04548280_2943.png,0.0,-4.5369515,1.9528391,-4.5889754
alexnet_w1_mlp_simclrhn_probe1,1,487,NaN,oven,chair,pow,0487_pow_dnn_pow_chair_35_n03376595_14619.png,n03376595_14619.png,0.0,-4.693565,-0.9335706,-2.6587174
alexnet_w1_mlp_simclrhn_probe1,1,488,NaN,car,car,0,0488_pow_dnn_0_car_35_n03100240_5719.png,n03100240_5719.png,1.0,14.608956,9.10973,3.8885405
alexnet_w1_mlp_simclrhn_probe1,1,489,NaN,bicycle,dog,0,0489_pow_dnn_0_dog_35_n02093754_4677.png,n02093754_4677.png,0.0,-2.1061797,-1.752001,-0.25044215
alexnet_w1_mlp_simclrhn_probe1,1,490,NaN,boat,boat,pow,0490_pow_dnn_pow_boat_35_n04273569_113.png,n04273569_113.png,1.0,-0.41650677,-1.9125197,1.057841
alexnet_w1_mlp_simclrhn_probe1,1,491,NaN,clock,clock,pow,0491_pow_dnn_pow_clock_35_n02708093_148.png,n02708093_148.png,1.0,-1.0260257,-3.077424,1.4505577
alexnet_w1_mlp_simclrhn_probe1,1,492,NaN,cat,cat,0,0492_pow_dnn_0_cat_35_n02125311_53223.png,n02125311_53223.png,1.0,6.070433,0.36544585,4.034035
alexnet_w1_mlp_simclrhn_probe1,1,493,NaN,bottle,knife,0,0493_pow_dnn_0_knife_35_n03041632_7982.png,n03041632_7982.png,0.0,-1.4213947,-0.56796956,-0.6034627
alexnet_w1_mlp_simclrhn_probe1,1,494,NaN,elephant,elephant,0,0494_pow_dnn_0_elephant_35_n02504013_7273.png,n02504013_7273.png,1.0,3.6621256,-3.2380204,4.87914
alexnet_w1_mlp_simclrhn_probe1,1,495,NaN,oven,truck,pow,0495_pow_dnn_pow_truck_35_n03417042_26102.png,n03417042_26102.png,0.0,-3.1173625,0.7896378,-2.7626665
alexnet_w1_mlp_simclrhn_probe1,1,496,NaN,car,car,pow,0496_pow_dnn_pow_car_35_n02814533_874.png,n02814533_874.png,1.0,-0.04800995,-0.3701124,0.22776082
alexnet_w1_mlp_simclrhn_probe1,1,497,NaN,bicycle,bicycle,0,0497_pow_dnn_0_bicycle_35_n03792782_21148.png,n03792782_21148.png,1.0,2.5968187,-2.34766,3.4962747
alexnet_w1_mlp_simclrhn_probe1,1,498,NaN,oven,oven,pow,0498_pow_dnn_pow_oven_35_n04111531_4146.png,n04111531_4146.png,1.0,2.3503401,-1.7564805,2.9039607
alexnet_w1_mlp_simclrhn_probe1,1,499,NaN,bottle,keyboard,pow,0499_pow_dnn_pow_keyboard_35_n03085013_21183.png,n03085013_21183.png,0.0,-3.3969693,1.233111,-3.273961
alexnet_w1_mlp_simclrhn_probe1,1,500,NaN,boat,boat,0,0500_pow_dnn_0_boat_35_n04612504_19147.png,n04612504_19147.png,1.0,4.6308436,-0.39026722,3.5504618
alexnet_w1_mlp_simclrhn_probe1,1,501,NaN,elephant,bear,0,0501_pow_dnn_0_bear_35_n02133161_2044.png,n02133161_2044.png,0.0,0.42732865,1.5997279,-0.8290115
alexnet_w1_mlp_simclrhn_probe1,1,502,NaN,oven,bottle,pow,0502_pow_dnn_pow_bottle_35_n04579145_3894.png,n04579145_3894.png,0.0,-2.0220823,-0.15663159,-1.3190728
alexnet_w1_mlp_simclrhn_probe1,1,503,NaN,bicycle,bicycle,0,0503_pow_dnn_0_bicycle_35_n03792782_13399.png,n03792782_13399.png,1.0,4.0011473,-1.4652491,3.865326
alexnet_w1_mlp_simclrhn_probe1,1,504,NaN,elephant,knife,pow,0504_pow_dnn_pow_knife_35_n03041632_21818.png,n03041632_21818.png,0.0,-1.9243425,0.3126758,-1.5818108
alexnet_w1_mlp_simclrhn_probe1,1,505,NaN,chair,chair,0,0505_pow_dnn_0_chair_35_n03376595_7010.png,n03376595_7010.png,1.0,1.6413072,-1.9855653,2.5645862
alexnet_w1_mlp_simclrhn_probe1,1,506,NaN,oven,oven,0,0506_pow_dnn_0_oven_35_n04111531_4.png,n04111531_4.png,1.0,0.28151262,-0.7233792,0.71056587
alexnet_w1_mlp_simclrhn_probe1,1,507,NaN,bear,bird,pow,0507_pow_dnn_pow_bird_35_n01820546_6471.png,n01820546_6471.png,0.0,-2.504817,0.5322406,-2.147524
alexnet_w1_mlp_simclrhn_probe1,1,508,NaN,bear,bear,pow,0508_pow_dnn_pow_bear_35_n02132136_10352.png,n02132136_10352.png,1.0,3.7897987,0.935758,2.0181115
alexnet_w1_mlp_simclrhn_probe1,1,509,NaN,bottle,clock,pow,0509_pow_dnn_pow_clock_35_n04548280_8348.png,n04548280_8348.png,0.0,-4.096698,0.5049495,-3.2538562
alexnet_w1_mlp_simclrhn_probe1,1,510,NaN,elephant,elephant,0,0510_pow_dnn_0_elephant_35_n02504013_5087.png,n02504013_5087.png,1.0,9.200136,-1.6912287,7.7013583
alexnet_w1_mlp_simclrhn_probe1,1,511,NaN,airplane,airplane,pow,0511_pow_dnn_pow_airplane_35_n02690373_60.png,n02690373_60.png,1.0,1.5453718,-0.5728399,1.4978019
alexnet_w1_mlp_simclrhn_probe1,1,512,NaN,oven,chair,pow,0512_pow_dnn_pow_chair_35_n02791124_16085.png,n02791124_16085.png,0.0,-2.0925665,0.6916262,-1.9687215
alexnet_w1_mlp_simclrhn_probe1,1,513,NaN,bottle,bottle,0,0513_pow_dnn_0_bottle_35_n02823428_3611.png,n02823428_3611.png,1.0,3.1924078,-1.1413748,3.0644472
alexnet_w1_mlp_simclrhn_probe1,1,514,NaN,bear,bird,pow,0514_pow_dnn_pow_bird_35_n01614925_8653.png,n01614925_8653.png,0.0,-2.088562,-0.86325157,-0.86642534
alexnet_w1_mlp_simclrhn_probe1,1,515,NaN,bird,bird,pow,0515_pow_dnn_pow_bird_35_n01537544_9881.png,n01537544_9881.png,1.0,-0.6487262,-1.72998,0.7645619
alexnet_w1_mlp_simclrhn_probe1,1,516,NaN,knife,knife,0,0516_pow_dnn_0_knife_35_n03041632_35365.png,n03041632_35365.png,1.0,1.2358623,-3.566919,3.396079
alexnet_w1_mlp_simclrhn_probe1,1,517,NaN,bear,bear,0,0517_pow_dnn_0_bear_35_n02132136_23202.png,n02132136_23202.png,1.0,0.46067,-0.65831524,0.791242
alexnet_w1_mlp_simclrhn_probe1,1,518,NaN,oven,oven,0,0518_pow_dnn_0_oven_35_n04111531_3976.png,n04111531_3976.png,1.0,5.94284,-1.6963106,5.4016953
alexnet_w1_mlp_simclrhn_probe1,1,519,NaN,oven,chair,pow,0519_pow_dnn_pow_chair_35_n04429376_32124.png,n04429376_32124.png,0.0,-2.914419,1.2942419,-2.975973
alexnet_w1_mlp_simclrhn_probe1,1,520,NaN,bear,bear,pow,0520_pow_dnn_pow_bear_35_n02134418_848.png,n02134418_848.png,1.0,1.1571167,0.36636978,0.5591425
alexnet_w1_mlp_simclrhn_probe1,1,521,NaN,boat,boat,0,0521_pow_dnn_0_boat_35_n03344393_7374.png,n03344393_7374.png,1.0,6.9261236,2.999426,2.7765946
alexnet_w1_mlp_simclrhn_probe1,1,522,NaN,oven,bird,pow,0522_pow_dnn_pow_bird_35_n01532829_3914.png,n01532829_3914.png,0.0,-5.2773623,0.3720192,-3.9947162
alexnet_w1_mlp_simclrhn_probe1,1,523,NaN,keyboard,keyboard,0,0523_pow_dnn_0_keyboard_35_n04505470_5902.png,n04505470_5902.png,1.0,10.705835,-0.77293634,8.116717
alexnet_w1_mlp_simclrhn_probe1,1,524,NaN,oven,truck,pow,0524_pow_dnn_pow_truck_35_n03417042_11165.png,n03417042_11165.png,0.0,-3.1633482,-0.55022067,-1.8477602
alexnet_w1_mlp_simclrhn_probe1,1,525,NaN,clock,clock,0,0525_pow_dnn_0_clock_35_n02708093_5.png,n02708093_5.png,1.0,-0.13143249,-0.93720996,0.56977075
alexnet_w1_mlp_simclrhn_probe1,1,526,NaN,elephant,elephant,pow,0526_pow_dnn_pow_elephant_35_n02504458_4187.png,n02504458_4187.png,1.0,3.3910387,0.48675057,2.0536418
alexnet_w1_mlp_simclrhn_probe1,1,527,NaN,knife,knife,0,0527_pow_dnn_0_knife_35_n03041632_10802.png,n03041632_10802.png,1.0,4.0489993,-2.2710714,4.468965
alexnet_w1_mlp_simclrhn_probe1,1,528,NaN,car,car,0,0528_pow_dnn_0_car_35_n04285008_16647.png,n04285008_16647.png,1.0,10.859245,4.5449095,4.4649096
alexnet_w1_mlp_simclrhn_probe1,1,529,NaN,bear,dog,0,0529_pow_dnn_0_dog_35_n02104365_3004.png,n02104365_3004.png,0.0,0.29326513,2.2207813,-1.3629599
alexnet_w1_mlp_simclrhn_probe1,1,530,NaN,elephant,elephant,pow,0530_pow_dnn_pow_elephant_35_n02504013_21616.png,n02504013_21616.png,1.0,3.447219,1.5700423,1.3273643
alexnet_w1_mlp_simclrhn_probe1,1,531,NaN,knife,keyboard,0,0531_pow_dnn_0_keyboard_35_n03085013_23465.png,n03085013_23465.png,0.0,1.2357812,1.7453989,-0.36035413
alexnet_w1_mlp_simclrhn_probe1,1,532,NaN,boat,airplane,pow,0532_pow_dnn_pow_airplane_35_n02690373_911.png,n02690373_911.png,0.0,-2.9198835,-1.1166862,-1.275053
alexnet_w1_mlp_simclrhn_probe1,1,533,NaN,elephant,elephant,0,0533_pow_dnn_0_elephant_35_n02504013_1454.png,n02504013_1454.png,1.0,9.407688,-2.0801582,8.123135
alexnet_w1_mlp_simclrhn_probe1,1,534,NaN,bicycle,bicycle,0,0534_pow_dnn_0_bicycle_35_n03792782_70690.png,n03792782_70690.png,1.0,4.311948,-3.7358098,5.690624
alexnet_w1_mlp_simclrhn_probe1,1,535,NaN,clock,chair,0,0535_pow_dnn_0_chair_35_n04429376_31206.png,n04429376_31206.png,0.0,-0.31158495,0.35255095,-0.46961504
alexnet_w1_mlp_simclrhn_probe1,1,536,NaN,airplane,clock,0,0536_pow_dnn_0_clock_35_n02708093_2498.png,n02708093_2498.png,0.0,-1.7785982,-0.63446325,-0.80902565
alexnet_w1_mlp_simclrhn_probe1,1,537,NaN,keyboard,keyboard,0,0537_pow_dnn_0_keyboard_35_n04505470_1728.png,n04505470_1728.png,1.0,10.061018,1.1021008,6.3349113
alexnet_w1_mlp_simclrhn_probe1,1,538,NaN,oven,truck,pow,0538_pow_dnn_pow_truck_35_n03417042_6608.png,n03417042_6608.png,0.0,-3.350933,-0.88836145,-1.7413012
alexnet_w1_mlp_simclrhn_probe1,1,539,NaN,bird,bird,0,0539_pow_dnn_0_bird_35_n02013706_1016.png,n02013706_1016.png,1.0,-1.6218482,-2.5802875,0.6777189
alexnet_w1_mlp_simclrhn_probe1,1,540,NaN,clock,clock,0,0540_pow_dnn_0_clock_35_n04548280_5011.png,n04548280_5011.png,1.0,1.3835346,-2.464436,2.720926
alexnet_w1_mlp_simclrhn_probe1,1,541,NaN,bicycle,bicycle,0,0541_pow_dnn_0_bicycle_35_n02835271_19557.png,n02835271_19557.png,1.0,7.618101,-3.1588256,7.620438
alexnet_w1_mlp_simclrhn_probe1,1,542,NaN,bear,bear,pow,0542_pow_dnn_pow_bear_35_n02134084_5827.png,n02134084_5827.png,1.0,3.0674229,1.8926437,0.8306943
alexnet_w1_mlp_simclrhn_probe1,1,543,NaN,elephant,dog,pow,0543_pow_dnn_pow_dog_35_n02096585_1894.png,n02096585_1894.png,0.0,-2.357364,-0.26428592,-1.4800298
alexnet_w1_mlp_simclrhn_probe1,1,544,NaN,bear,boat,pow,0544_pow_dnn_pow_boat_35_n02951358_34234.png,n02951358_34234.png,0.0,-1.1950121,-0.8002125,-0.27916548
alexnet_w1_mlp_simclrhn_probe1,1,545,NaN,cat,cat,pow,0545_pow_dnn_pow_cat_35_n02123597_5514.png,n02123597_5514.png,1.0,2.815733,-0.48617518,2.3348017
alexnet_w1_mlp_simclrhn_probe1,1,546,NaN,oven,oven,pow,0546_pow_dnn_pow_oven_35_n04111531_3580.png,n04111531_3580.png,1.0,1.5025759,-0.5134531,1.4255477
alexnet_w1_mlp_simclrhn_probe1,1,547,NaN,airplane,airplane,0,0547_pow_dnn_0_airplane_35_n02690373_7107.png,n02690373_7107.png,1.0,4.3897147,-0.19239399,3.24004
alexnet_w1_mlp_simclrhn_probe1,1,548,NaN,knife,cat,0,0548_pow_dnn_0_cat_35_n02123159_5224.png,n02123159_5224.png,0.0,-2.6280632,-1.3568195,-0.89890504
alexnet_w1_mlp_simclrhn_probe1,1,549,NaN,elephant,bear,pow,0549_pow_dnn_pow_bear_35_n02133161_6679.png,n02133161_6679.png,0.0,2.5825067,3.0437078,-0.3261185
alexnet_w1_mlp_simclrhn_probe1,1,550,NaN,dog,dog,0,0550_pow_dnn_0_dog_35_n02106030_22.png,n02106030_22.png,1.0,0.6962904,-0.9778003,1.1837609
alexnet_w1_mlp_simclrhn_probe1,1,551,NaN,truck,truck,0,0551_pow_dnn_0_truck_35_n03417042_4574.png,n03417042_4574.png,1.0,9.150543,7.001019,1.5199431
alexnet_w1_mlp_simclrhn_probe1,1,552,NaN,bear,dog,pow,0552_pow_dnn_pow_dog_35_n02097298_7577.png,n02097298_7577.png,0.0,-3.0741644,-0.12748021,-2.0836203
alexnet_w1_mlp_simclrhn_probe1,1,553,NaN,elephant,dog,pow,0553_pow_dnn_pow_dog_35_n02093428_16873.png,n02093428_16873.png,0.0,-1.6184775,0.20487708,-1.2893063
alexnet_w1_mlp_simclrhn_probe1,1,554,NaN,bear,bear,0,0554_pow_dnn_0_bear_35_n02132136_4157.png,n02132136_4157.png,1.0,4.98067,1.8479218,2.2151875
alexnet_w1_mlp_simclrhn_probe1,1,555,NaN,bottle,bottle,0,0555_pow_dnn_0_bottle_35_n02823428_2007.png,n02823428_2007.png,1.0,6.3688617,3.588331,1.9661322
alexnet_w1_mlp_simclrhn_probe1,1,556,NaN,oven,keyboard,0,0556_pow_dnn_0_keyboard_35_n03085013_24272.png,n03085013_24272.png,0.0,-0.52913535,-0.10410008,-0.30054533
alexnet_w1_mlp_simclrhn_probe1,1,557,NaN,oven,oven,0,0557_pow_dnn_0_oven_35_n04111531_2074.png,n04111531_2074.png,1.0,1.3581781,-3.577535,3.490076
alexnet_w1_mlp_simclrhn_probe1,1,558,NaN,oven,bird,pow,0558_pow_dnn_pow_bird_35_n01532829_4536.png,n01532829_4536.png,0.0,-3.8897257,0.58570445,-3.164607
alexnet_w1_mlp_simclrhn_probe1,1,559,NaN,dog,dog,0,0559_pow_dnn_0_dog_35_n02109047_17100.png,n02109047_17100.png,1.0,-0.22001669,-1.0037007,0.5541483
alexnet_w1_mlp_simclrhn_probe1,1,560,NaN,oven,oven,pow,0560_pow_dnn_pow_oven_35_n04111531_4407.png,n04111531_4407.png,1.0,2.957298,-2.8836746,4.130192
alexnet_w1_mlp_simclrhn_probe1,1,561,NaN,airplane,airplane,0,0561_pow_dnn_0_airplane_35_n02690373_8069.png,n02690373_8069.png,1.0,7.6180964,1.0576932,4.6389055
alexnet_w1_mlp_simclrhn_probe1,1,562,NaN,clock,bottle,0,0562_pow_dnn_0_bottle_35_n04560804_8921.png,n04560804_8921.png,0.0,-0.44068286,0.6538395,-0.7739442
alexnet_w1_mlp_simclrhn_probe1,1,563,NaN,bottle,bottle,pow,0563_pow_dnn_pow_bottle_35_n03937543_2936.png,n03937543_2936.png,1.0,8.738304,-7.595851,11.549993
alexnet_w1_mlp_simclrhn_probe1,1,564,NaN,cat,cat,0,0564_pow_dnn_0_cat_35_n02123045_8031.png,n02123045_8031.png,1.0,0.69207454,0.23835689,0.32082683
alexnet_w1_mlp_simclrhn_probe1,1,565,NaN,oven,oven,0,0565_pow_dnn_0_oven_35_n04111531_3805.png,n04111531_3805.png,1.0,4.817984,-4.1108465,6.3136373
alexnet_w1_mlp_simclrhn_probe1,1,566,NaN,truck,truck,0,0566_pow_dnn_0_truck_35_n03417042_27231.png,n03417042_27231.png,1.0,10.172274,7.251978,2.064961
alexnet_w1_mlp_simclrhn_probe1,1,567,NaN,elephant,elephant,0,0567_pow_dnn_0_elephant_35_n02504013_7232.png,n02504013_7232.png,1.0,3.5840783,1.3585076,1.5737162
alexnet_w1_mlp_simclrhn_probe1,1,568,NaN,oven,knife,0,0568_pow_dnn_0_knife_35_n03041632_5102.png,n03041632_5102.png,0.0,-3.3703613,-0.71270794,-1.8792447
alexnet_w1_mlp_simclrhn_probe1,1,569,NaN,cat,dog,pow,0569_pow_dnn_pow_dog_35_n02110958_8916.png,n02110958_8916.png,0.0,-0.44296393,0.9117368,-0.95791805
alexnet_w1_mlp_simclrhn_probe1,1,570,NaN,knife,bottle,pow,0570_pow_dnn_pow_bottle_35_n04557648_9790.png,n04557648_9790.png,0.0,-2.9414215,-1.2339232,-1.2073836
alexnet_w1_mlp_simclrhn_probe1,1,571,NaN,cat,cat,pow,0571_pow_dnn_pow_cat_35_n02123394_3786.png,n02123394_3786.png,1.0,3.785291,-0.31012285,2.8958948
alexnet_w1_mlp_simclrhn_probe1,1,572,NaN,airplane,truck,0,0572_pow_dnn_0_truck_35_n04467665_19132.png,n04467665_19132.png,0.0,1.2255514,1.4639168,-0.1685498
alexnet_w1_mlp_simclrhn_probe1,1,573,NaN,oven,truck,pow,0573_pow_dnn_pow_truck_35_n03796401_2934.png,n03796401_2934.png,0.0,-2.8895419,-0.087996125,-1.980992
alexnet_w1_mlp_simclrhn_probe1,1,574,NaN,bicycle,bicycle,0,0574_pow_dnn_0_bicycle_35_n02835271_12799.png,n02835271_12799.png,1.0,8.06936,-1.5391814,6.794265
alexnet_w1_mlp_simclrhn_probe1,1,575,NaN,car,car,0,0575_pow_dnn_0_car_35_n02814533_1297.png,n02814533_1297.png,1.0,1.4389399,-0.41517448,1.3110569
alexnet_w1_mlp_simclrhn_probe1,1,576,NaN,bear,bear,pow,0576_pow_dnn_pow_bear_35_n02134418_1974.png,n02134418_1974.png,1.0,1.6584268,-0.48684967,1.5169396
alexnet_w1_mlp_simclrhn_probe1,1,577,NaN,cat,cat,0,0577_pow_dnn_0_cat_35_n02124075_2843.png,n02124075_2843.png,1.0,3.7423203,-2.4088926,4.349564
alexnet_w1_mlp_simclrhn_probe1,1,578,NaN,cat,cat,0,0578_pow_dnn_0_cat_35_n02123597_5697.png,n02123597_5697.png,1.0,0.0373622,-1.0763446,0.7875097
alexnet_w1_mlp_simclrhn_probe1,1,579,NaN,oven,bicycle,pow,0579_pow_dnn_pow_bicycle_35_n02835271_2315.png,n02835271_2315.png,0.0,-1.5999806,-0.8499682,-0.5303389
alexnet_w1_mlp_simclrhn_probe1,1,580,NaN,keyboard,keyboard,0,0580_pow_dnn_0_keyboard_35_n04505470_4515.png,n04505470_4515.png,1.0,12.237101,-0.64554536,9.109406
alexnet_w1_mlp_simclrhn_probe1,1,581,NaN,knife,knife,pow,0581_pow_dnn_pow_knife_35_n03041632_4269.png,n03041632_4269.png,1.0,-0.96865433,-1.6416229,0.47586066
alexnet_w1_mlp_simclrhn_probe1,1,582,NaN,cat,cat,0,0582_pow_dnn_0_cat_35_n02123045_12010.png,n02123045_12010.png,1.0,9.112839,-5.601568,10.404657
alexnet_w1_mlp_simclrhn_probe1,1,583,NaN,clock,clock,0,0583_pow_dnn_0_clock_35_n03196217_6467.png,n03196217_6467.png,1.0,0.75926226,0.4203236,0.23966582
alexnet_w1_mlp_simclrhn_probe1,1,584,NaN,oven,bottle,pow,0584_pow_dnn_pow_bottle_35_n03983396_2864.png,n03983396_2864.png,0.0,-0.20113862,-0.07476695,-0.08935826
alexnet_w1_mlp_simclrhn_probe1,1,585,NaN,airplane,bottle,0,0585_pow_dnn_0_bottle_35_n04557648_10171.png,n04557648_10171.png,0.0,-3.6730444,-0.124763325,-2.5090137
alexnet_w1_mlp_simclrhn_probe1,1,586,NaN,bear,bird,pow,0586_pow_dnn_pow_bird_35_n01860187_2052.png,n01860187_2052.png,0.0,-2.1914034,-0.004684478,-1.5462438
alexnet_w1_mlp_simclrhn_probe1,1,587,NaN,car,car,0,0587_pow_dnn_0_car_35_n04285008_5897.png,n04285008_5897.png,1.0,16.492573,8.707646,5.5047746
alexnet_w1_mlp_simclrhn_probe1,1,588,NaN,elephant,elephant,0,0588_pow_dnn_0_elephant_35_n02504458_4721.png,n02504458_4721.png,1.0,14.411346,-1.5062876,11.255467
alexnet_w1_mlp_simclrhn_probe1,1,589,NaN,car,car,0,0589_pow_dnn_0_car_35_n02814533_93476.png,n02814533_93476.png,1.0,8.642299,4.215082,3.1305149
alexnet_w1_mlp_simclrhn_probe1,1,590,NaN,elephant,bird,pow,0590_pow_dnn_pow_bird_35_n01824575_10337.png,n01824575_10337.png,0.0,-4.8596883,-0.016905487,-3.4243648
alexnet_w1_mlp_simclrhn_probe1,1,591,NaN,oven,dog,pow,0591_pow_dnn_pow_dog_35_n02100735_10683.png,n02100735_10683.png,0.0,-3.420665,0.9120861,-3.0637178
alexnet_w1_mlp_simclrhn_probe1,1,592,NaN,knife,airplane,pow,0592_pow_dnn_pow_airplane_35_n02690373_4402.png,n02690373_4402.png,0.0,-2.4197743,-2.2378929,-0.1286096
alexnet_w1_mlp_simclrhn_probe1,1,593,NaN,airplane,airplane,0,0593_pow_dnn_0_airplane_35_n02690373_4350.png,n02690373_4350.png,1.0,7.0659685,-3.7216904,7.628027
alexnet_w1_mlp_simclrhn_probe1,1,594,NaN,bottle,bottle,pow,0594_pow_dnn_pow_bottle_35_n02823428_6327.png,n02823428_6327.png,1.0,-0.33117777,-1.8732116,1.0903827
alexnet_w1_mlp_simclrhn_probe1,1,595,NaN,elephant,dog,pow,0595_pow_dnn_pow_dog_35_n02104029_3041.png,n02104029_3041.png,0.0,-0.24554321,1.7287593,-1.3960427
alexnet_w1_mlp_simclrhn_probe1,1,596,NaN,elephant,elephant,pow,0596_pow_dnn_pow_elephant_35_n02504013_24810.png,n02504013_24810.png,1.0,3.8244817,-0.35229185,2.953425
alexnet_w1_mlp_simclrhn_probe1,1,597,NaN,oven,clock,pow,0597_pow_dnn_pow_clock_35_n04548280_4473.png,n04548280_4473.png,0.0,-4.0736322,0.3453578,-3.124698
alexnet_w1_mlp_simclrhn_probe1,1,598,NaN,dog,dog,pow,0598_pow_dnn_pow_dog_35_n02107908_5597.png,n02107908_5597.png,1.0,-1.4670415,-2.3707943,0.63904977
alexnet_w1_mlp_simclrhn_probe1,1,599,NaN,truck,truck,0,0599_pow_dnn_0_truck_35_n04467665_57697.png,n04467665_57697.png,1.0,8.598082,3.2455733,3.784795
alexnet_w1_mlp_simclrhn_probe1,1,600,NaN,bottle,bottle,pow,0600_pow_dnn_pow_bottle_35_n03983396_6889.png,n03983396_6889.png,1.0,-0.69918287,-2.5114317,1.2814535
alexnet_w1_mlp_simclrhn_probe1,1,601,NaN,bear,bear,pow,0601_pow_dnn_pow_bear_35_n02134418_1826.png,n02134418_1826.png,1.0,4.2163644,0.25031304,2.804422
alexnet_w1_mlp_simclrhn_probe1,1,602,NaN,cat,cat,pow,0602_pow_dnn_pow_cat_35_n02123159_4687.png,n02123159_4687.png,1.0,0.39713356,-1.1547014,1.097313
alexnet_w1_mlp_simclrhn_probe1,1,603,NaN,boat,boat,pow,0603_pow_dnn_pow_boat_35_n03344393_5798.png,n03344393_5798.png,1.0,-1.6004906,-2.1061108,0.3575275
alexnet_w1_mlp_simclrhn_probe1,1,604,NaN,oven,car,pow,0604_pow_dnn_pow_car_35_n04285008_11745.png,n04285008_11745.png,0.0,-6.2918143,0.2873068,-4.652141
alexnet_w1_mlp_simclrhn_probe1,1,605,NaN,clock,clock,0,0605_pow_dnn_0_clock_35_n02708093_353.png,n02708093_353.png,1.0,3.2169864,0.75165147,1.743255
alexnet_w1_mlp_simclrhn_probe1,1,606,NaN,airplane,airplane,0,0606_pow_dnn_0_airplane_35_n02690373_4763.png,n02690373_4763.png,1.0,7.610084,-1.6193842,6.52622
alexnet_w1_mlp_simclrhn_probe1,1,607,NaN,elephant,elephant,0,0607_pow_dnn_0_elephant_35_n02504013_18498.png,n02504013_18498.png,1.0,9.143618,1.9425604,5.0919166
alexnet_w1_mlp_simclrhn_probe1,1,608,NaN,bear,cat,pow,0608_pow_dnn_pow_cat_35_n02123394_159.png,n02123394_159.png,0.0,-0.5202061,0.8701147,-0.98310524
alexnet_w1_mlp_simclrhn_probe1,1,609,NaN,boat,boat,0,0609_pow_dnn_0_boat_35_n03662601_18676.png,n03662601_18676.png,1.0,9.83718,3.6747215,4.3575163
alexnet_w1_mlp_simclrhn_probe1,1,610,NaN,boat,truck,pow,0610_pow_dnn_pow_truck_35_n03796401_1789.png,n03796401_1789.png,0.0,-2.8890824,-2.1673498,-0.51034206
alexnet_w1_mlp_simclrhn_probe1,1,611,NaN,chair,chair,0,0611_pow_dnn_0_chair_35_n04099969_4816.png,n04099969_4816.png,1.0,2.4756355,-2.5593991,3.5603073
alexnet_w1_mlp_simclrhn_probe1,1,612,NaN,elephant,elephant,0,0612_pow_dnn_0_elephant_35_n02504458_7013.png,n02504458_7013.png,1.0,18.28152,-3.9567084,15.724803
alexnet_w1_mlp_simclrhn_probe1,1,613,NaN,knife,knife,pow,0613_pow_dnn_pow_knife_35_n03041632_92637.png,n03041632_92637.png,1.0,-2.4624224,-3.3368554,0.61831754
alexnet_w1_mlp_simclrhn_probe1,1,614,NaN,keyboard,keyboard,0,0614_pow_dnn_0_keyboard_35_n03085013_19607.png,n03085013_19607.png,1.0,8.620752,1.2888209,5.1844587
alexnet_w1_mlp_simclrhn_probe1,1,615,NaN,bear,cat,pow,0615_pow_dnn_pow_cat_35_n02123597_1027.png,n02123597_1027.png,0.0,0.3033456,0.996111,-0.48985907
alexnet_w1_mlp_simclrhn_probe1,1,616,NaN,bicycle,bicycle,0,0616_pow_dnn_0_bicycle_35_n02835271_9135.png,n02835271_9135.png,1.0,4.085621,-1.4940543,3.9454262
alexnet_w1_mlp_simclrhn_probe1,1,617,NaN,bear,dog,pow,0617_pow_dnn_pow_dog_35_n02111500_3896.png,n02111500_3896.png,0.0,-1.4433938,-1.3529453,-0.063956745
alexnet_w1_mlp_simclrhn_probe1,1,618,NaN,knife,oven,0,0618_pow_dnn_0_oven_35_n04111531_8398.png,n04111531_8398.png,0.0,-4.9702888,0.64991486,-3.9740841
alexnet_w1_mlp_simclrhn_probe1,1,619,NaN,oven,oven,0,0619_pow_dnn_0_oven_35_n04111531_6049.png,n04111531_6049.png,1.0,8.629091,-2.4935253,7.8648777
alexnet_w1_mlp_simclrhn_probe1,1,620,NaN,oven,chair,pow,0620_pow_dnn_pow_chair_35_n03376595_6947.png,n03376595_6947.png,0.0,-3.8313525,-0.87109697,-2.093217
alexnet_w1_mlp_simclrhn_probe1,1,621,NaN,oven,dog,pow,0621_pow_dnn_pow_dog_35_n02097658_6717.png,n02097658_6717.png,0.0,-1.0184611,-0.19494082,-0.5823168
alexnet_w1_mlp_simclrhn_probe1,1,622,NaN,knife,knife,0,0622_pow_dnn_0_knife_35_n03041632_21560.png,n03041632_21560.png,1.0,0.83950704,-1.4277155,1.6031685
alexnet_w1_mlp_simclrhn_probe1,1,623,NaN,boat,boat,pow,0623_pow_dnn_pow_boat_35_n03662601_7642.png,n03662601_7642.png,1.0,-0.82185537,-1.1226139,0.2126684
alexnet_w1_mlp_simclrhn_probe1,1,624,NaN,car,car,0,0624_pow_dnn_0_car_35_n04285008_1313.png,n04285008_1313.png,1.0,5.1606855,3.2744718,1.3337545
alexnet_w1_mlp_simclrhn_probe1,1,625,NaN,elephant,chair,pow,0625_pow_dnn_pow_chair_35_n03376595_6409.png,n03376595_6409.png,0.0,-2.4574237,0.43830776,-2.0475914
alexnet_w1_mlp_simclrhn_probe1,1,626,NaN,bear,bear,pow,0626_pow_dnn_pow_bear_35_n02133161_6028.png,n02133161_6028.png,1.0,1.2823532,-0.524858,1.2778913
alexnet_w1_mlp_simclrhn_probe1,1,627,NaN,elephant,bear,pow,0627_pow_dnn_pow_bear_35_n02132136_29029.png,n02132136_29029.png,0.0,0.8987266,1.8517884,-0.67391646
alexnet_w1_mlp_simclrhn_probe1,1,628,NaN,truck,truck,0,0628_pow_dnn_0_truck_35_n04467665_7290.png,n04467665_7290.png,1.0,3.683199,0.25880417,2.421413
alexnet_w1_mlp_simclrhn_probe1,1,629,NaN,elephant,bird,pow,0629_pow_dnn_pow_bird_35_n01537544_9745.png,n01537544_9745.png,0.0,-1.7663558,1.3383673,-2.1953707
alexnet_w1_mlp_simclrhn_probe1,1,630,NaN,bicycle,bicycle,0,0630_pow_dnn_0_bicycle_35_n03792782_15845.png,n03792782_15845.png,1.0,3.252378,-3.9471428,5.0908303
alexnet_w1_mlp_simclrhn_probe1,1,631,NaN,bear,bear,pow,0631_pow_dnn_pow_bear_35_n02133161_8982.png,n02133161_8982.png,1.0,0.19078317,-0.51028943,0.49573317
alexnet_w1_mlp_simclrhn_probe1,1,632,NaN,knife,knife,0,0632_pow_dnn_0_knife_35_n03041632_6575.png,n03041632_6575.png,1.0,-0.6796422,-3.0715802,1.6913556
alexnet_w1_mlp_simclrhn_probe1,1,633,NaN,knife,knife,0,0633_pow_dnn_0_knife_35_n03041632_32785.png,n03041632_32785.png,1.0,1.8182282,-3.367705,3.6670086
alexnet_w1_mlp_simclrhn_probe1,1,634,NaN,oven,chair,pow,0634_pow_dnn_pow_chair_35_n04429376_12691.png,n04429376_12691.png,0.0,-2.3834293,-1.2127557,-0.8277913
alexnet_w1_mlp_simclrhn_probe1,1,635,NaN,bear,dog,pow,0635_pow_dnn_pow_dog_35_n02097298_6578.png,n02097298_6578.png,0.0,-1.5601943,1.078659,-1.8659511
alexnet_w1_mlp_simclrhn_probe1,1,636,NaN,cat,knife,pow,0636_pow_dnn_pow_knife_35_n03041632_94995.png,n03041632_94995.png,0.0,-3.0181048,-1.2517496,-1.2490017
alexnet_w1_mlp_simclrhn_probe1,1,637,NaN,clock,clock,0,0637_pow_dnn_0_clock_35_n02708093_41.png,n02708093_41.png,1.0,4.9384646,-2.4654944,5.2353897
alexnet_w1_mlp_simclrhn_probe1,1,638,NaN,keyboard,keyboard,0,0638_pow_dnn_0_keyboard_35_n03085013_7892.png,n03085013_7892.png,1.0,5.072793,-0.8734472,4.204627
alexnet_w1_mlp_simclrhn_probe1,1,639,NaN,oven,knife,pow,0639_pow_dnn_pow_knife_35_n03041632_84048.png,n03041632_84048.png,0.0,-1.341675,-1.140653,-0.14214404
