subj,session,trial,rt,object_response,category,condition,imagename,filename,is_correct,targ_act,max_nontarg_act,decision_margin
bagnet33,1,1,NaN,airplane,airplane,0,0001_sty_dnn_0_airplane_00_airplane-0001-ILSVRC2012-val-00000631.png,airplane-0001-ILSVRC2012-val-00000631.png,1.0,7.459865,3.7713397,2.6081815
bagnet33,1,2,NaN,bottle,airplane,0,0002_sty_dnn_0_airplane_00_airplane-0002-ILSVRC2012-val-00001390.png,airplane-0002-ILSVRC2012-val-00001390.png,0.0,0.443961,1.0908986,-0.45745397
bagnet33,1,3,NaN,airplane,airplane,0,0003_sty_dnn_0_airplane_00_airplane-0003-ILSVRC2012-val-00001506.png,airplane-0003-ILSVRC2012-val-00001506.png,1.0,4.417754,2.485384,1.3663921
bagnet33,1,4,NaN,bear,airplane,0,0004_sty_dnn_0_airplane_00_airplane-0004-ILSVRC2012-val-00001952.png,airplane-0004-ILSVRC2012-val-00001952.png,0.0,1.6439934,2.5850644,-0.6654377
bagnet33,1,5,NaN,airplane,airplane,0,0005_sty_dnn_0_airplane_00_airplane-0005-ILSVRC2012-val-00003960.png,airplane-0005-ILSVRC2012-val-00003960.png,1.0,3.4014025,2.5322437,0.6145881
bagnet33,1,6,NaN,elephant,airplane,0,0006_sty_dnn_0_airplane_00_airplane-0006-ILSVRC2012-val-00008292.png,airplane-0006-ILSVRC2012-val-00008292.png,0.0,-3.757836,2.9368873,-4.7338843
bagnet33,1,7,NaN,airplane,airplane,0,0007_sty_dnn_0_airplane_00_airplane-0007-ILSVRC2012-val-00009537.png,airplane-0007-ILSVRC2012-val-00009537.png,1.0,2.9292266,1.7895195,0.8058946
bagnet33,1,8,NaN,elephant,airplane,0,0008_sty_dnn_0_airplane_00_airplane-0008-ILSVRC2012-val-00010597.png,airplane-0008-ILSVRC2012-val-00010597.png,0.0,-1.3180784,4.2897615,-3.9653418
bagnet33,1,9,NaN,airplane,airplane,0,0009_sty_dnn_0_airplane_00_airplane-0009-ILSVRC2012-val-00011168.png,airplane-0009-ILSVRC2012-val-00011168.png,1.0,4.3751493,4.1607795,0.15158233
bagnet33,1,10,NaN,cat,airplane,0,0010_sty_dnn_0_airplane_00_airplane-0010-ILSVRC2012-val-00012263.png,airplane-0010-ILSVRC2012-val-00012263.png,0.0,0.62454456,3.8711748,-2.2957144
bagnet33,1,11,NaN,oven,airplane,0,0011_sty_dnn_0_airplane_00_airplane-0011-ILSVRC2012-val-00014425.png,airplane-0011-ILSVRC2012-val-00014425.png,0.0,-3.498219,5.146073,-6.1124377
bagnet33,1,12,NaN,elephant,airplane,0,0012_sty_dnn_0_airplane_00_airplane-0012-ILSVRC2012-val-00015498.png,airplane-0012-ILSVRC2012-val-00015498.png,0.0,-3.7862744,6.021254,-6.93497
bagnet33,1,13,NaN,clock,airplane,0,0013_sty_dnn_0_airplane_00_airplane-0013-ILSVRC2012-val-00015636.png,airplane-0013-ILSVRC2012-val-00015636.png,0.0,-0.07167935,3.4166985,-2.4666557
bagnet33,1,14,NaN,oven,airplane,0,0014_sty_dnn_0_airplane_00_airplane-0014-ILSVRC2012-val-00016995.png,airplane-0014-ILSVRC2012-val-00016995.png,0.0,-0.43621016,5.203882,-3.9881477
bagnet33,1,15,NaN,elephant,airplane,0,0015_sty_dnn_0_airplane_00_airplane-0015-ILSVRC2012-val-00018616.png,airplane-0015-ILSVRC2012-val-00018616.png,0.0,0.88392913,3.7820773,-2.0493002
bagnet33,1,16,NaN,knife,airplane,0,0016_sty_dnn_0_airplane_00_airplane-0016-ILSVRC2012-val-00018685.png,airplane-0016-ILSVRC2012-val-00018685.png,0.0,-0.80644256,2.881012,-2.607424
bagnet33,1,17,NaN,knife,airplane,0,0017_sty_dnn_0_airplane_00_airplane-0017-ILSVRC2012-val-00019179.png,airplane-0017-ILSVRC2012-val-00019179.png,0.0,-1.4080147,2.7463045,-2.9375474
bagnet33,1,18,NaN,oven,airplane,0,0018_sty_dnn_0_airplane_00_airplane-0018-ILSVRC2012-val-00019677.png,airplane-0018-ILSVRC2012-val-00019677.png,0.0,0.2853154,2.6010613,-1.6374797
bagnet33,1,19,NaN,knife,airplane,0,0019_sty_dnn_0_airplane_00_airplane-0019-ILSVRC2012-val-00022532.png,airplane-0019-ILSVRC2012-val-00022532.png,0.0,1.6617448,2.4808228,-0.5791756
bagnet33,1,20,NaN,knife,airplane,0,0020_sty_dnn_0_airplane_00_airplane-0020-ILSVRC2012-val-00022975.png,airplane-0020-ILSVRC2012-val-00022975.png,0.0,-2.172986,4.615569,-4.8002334
bagnet33,1,21,NaN,airplane,airplane,0,0021_sty_dnn_0_airplane_00_airplane-0021-ILSVRC2012-val-00023316.png,airplane-0021-ILSVRC2012-val-00023316.png,1.0,3.7788658,3.3397589,0.3104955
bagnet33,1,22,NaN,knife,airplane,0,0022_sty_dnn_0_airplane_00_airplane-0022-ILSVRC2012-val-00023781.png,airplane-0022-ILSVRC2012-val-00023781.png,0.0,0.5178618,2.4661846,-1.3776723
bagnet33,1,23,NaN,airplane,airplane,0,0023_sty_dnn_0_airplane_00_airplane-0023-ILSVRC2012-val-00023863.png,airplane-0023-ILSVRC2012-val-00023863.png,1.0,10.807203,5.104426,4.0324726
bagnet33,1,24,NaN,elephant,airplane,0,0024_sty_dnn_0_airplane_00_airplane-0024-ILSVRC2012-val-00024108.png,airplane-0024-ILSVRC2012-val-00024108.png,0.0,2.0546963,3.1670978,-0.78658664
bagnet33,1,25,NaN,airplane,airplane,0,0025_sty_dnn_0_airplane_00_airplane-0025-ILSVRC2012-val-00024747.png,airplane-0025-ILSVRC2012-val-00024747.png,1.0,3.8283288,3.2792392,0.38826504
bagnet33,1,26,NaN,bottle,airplane,0,0026_sty_dnn_0_airplane_00_airplane-0026-ILSVRC2012-val-00026189.png,airplane-0026-ILSVRC2012-val-00026189.png,0.0,-2.9625301,2.690026,-3.996961
bagnet33,1,27,NaN,clock,airplane,0,0027_sty_dnn_0_airplane_00_airplane-0027-ILSVRC2012-val-00026859.png,airplane-0027-ILSVRC2012-val-00026859.png,0.0,2.562389,2.6598701,-0.06892966
bagnet33,1,28,NaN,knife,airplane,0,0028_sty_dnn_0_airplane_00_airplane-0028-ILSVRC2012-val-00028019.png,airplane-0028-ILSVRC2012-val-00028019.png,0.0,1.3087738,2.9140983,-1.1351359
bagnet33,1,29,NaN,clock,airplane,0,0029_sty_dnn_0_airplane_00_airplane-0029-ILSVRC2012-val-00030319.png,airplane-0029-ILSVRC2012-val-00030319.png,0.0,-1.8831544,4.0275774,-4.1795187
bagnet33,1,30,NaN,elephant,airplane,0,0030_sty_dnn_0_airplane_00_airplane-0030-ILSVRC2012-val-00030411.png,airplane-0030-ILSVRC2012-val-00030411.png,0.0,1.3514851,2.318766,-0.6839709
bagnet33,1,31,NaN,airplane,airplane,0,0031_sty_dnn_0_airplane_00_airplane-0031-ILSVRC2012-val-00030531.png,airplane-0031-ILSVRC2012-val-00030531.png,1.0,9.120492,5.2213883,2.7570827
bagnet33,1,32,NaN,airplane,airplane,0,0032_sty_dnn_0_airplane_00_airplane-0032-ILSVRC2012-val-00032804.png,airplane-0032-ILSVRC2012-val-00032804.png,1.0,3.4778643,2.6189947,0.6073125
bagnet33,1,33,NaN,oven,airplane,0,0033_sty_dnn_0_airplane_00_airplane-0033-ILSVRC2012-val-00033161.png,airplane-0033-ILSVRC2012-val-00033161.png,0.0,-0.8297199,3.747135,-3.236325
bagnet33,1,34,NaN,airplane,airplane,0,0034_sty_dnn_0_airplane_00_airplane-0034-ILSVRC2012-val-00033441.png,airplane-0034-ILSVRC2012-val-00033441.png,1.0,3.20428,2.661122,0.38407058
bagnet33,1,35,NaN,elephant,airplane,0,0035_sty_dnn_0_airplane_00_airplane-0035-ILSVRC2012-val-00033920.png,airplane-0035-ILSVRC2012-val-00033920.png,0.0,2.6423593,4.128702,-1.0510032
bagnet33,1,36,NaN,airplane,airplane,0,0036_sty_dnn_0_airplane_00_airplane-0036-ILSVRC2012-val-00034342.png,airplane-0036-ILSVRC2012-val-00034342.png,1.0,3.7178466,2.3307977,0.98079175
bagnet33,1,37,NaN,boat,airplane,0,0037_sty_dnn_0_airplane_00_airplane-0037-ILSVRC2012-val-00035783.png,airplane-0037-ILSVRC2012-val-00035783.png,0.0,1.8802077,6.148246,-3.0179589
bagnet33,1,38,NaN,bear,airplane,0,0038_sty_dnn_0_airplane_00_airplane-0038-ILSVRC2012-val-00036394.png,airplane-0038-ILSVRC2012-val-00036394.png,0.0,0.73118734,1.4908719,-0.5371781
bagnet33,1,39,NaN,bicycle,airplane,0,0039_sty_dnn_0_airplane_00_airplane-0039-ILSVRC2012-val-00037801.png,airplane-0039-ILSVRC2012-val-00037801.png,0.0,-0.38705242,2.2410607,-1.8583567
bagnet33,1,40,NaN,elephant,airplane,0,0040_sty_dnn_0_airplane_00_airplane-0040-ILSVRC2012-val-00039213.png,airplane-0040-ILSVRC2012-val-00039213.png,0.0,1.8565656,5.075148,-2.2758815
bagnet33,1,41,NaN,knife,airplane,0,0041_sty_dnn_0_airplane_00_airplane-0041-ILSVRC2012-val-00040136.png,airplane-0041-ILSVRC2012-val-00040136.png,0.0,2.3254366,4.1777534,-1.3097858
bagnet33,1,42,NaN,cat,airplane,0,0042_sty_dnn_0_airplane_00_airplane-0042-ILSVRC2012-val-00040547.png,airplane-0042-ILSVRC2012-val-00040547.png,0.0,-2.0125482,3.0773535,-3.5991042
bagnet33,1,43,NaN,elephant,airplane,0,0043_sty_dnn_0_airplane_00_airplane-0043-ILSVRC2012-val-00041518.png,airplane-0043-ILSVRC2012-val-00041518.png,0.0,0.811131,3.4123623,-1.8393483
bagnet33,1,44,NaN,airplane,airplane,0,0044_sty_dnn_0_airplane_00_airplane-0044-ILSVRC2012-val-00043242.png,airplane-0044-ILSVRC2012-val-00043242.png,1.0,6.131052,4.244431,1.3340425
bagnet33,1,45,NaN,knife,airplane,0,0045_sty_dnn_0_airplane_00_airplane-0045-ILSVRC2012-val-00044253.png,airplane-0045-ILSVRC2012-val-00044253.png,0.0,-0.91734767,2.8806095,-2.6855614
bagnet33,1,46,NaN,airplane,airplane,0,0046_sty_dnn_0_airplane_00_airplane-0046-ILSVRC2012-val-00046862.png,airplane-0046-ILSVRC2012-val-00046862.png,1.0,2.6093948,1.5944828,0.7176512
bagnet33,1,47,NaN,bottle,airplane,0,0047_sty_dnn_0_airplane_00_airplane-0047-ILSVRC2012-val-00046971.png,airplane-0047-ILSVRC2012-val-00046971.png,0.0,-0.6304743,3.0572646,-2.6076252
bagnet33,1,48,NaN,oven,airplane,0,0048_sty_dnn_0_airplane_00_airplane-0048-ILSVRC2012-val-00047829.png,airplane-0048-ILSVRC2012-val-00047829.png,0.0,1.8143889,10.223896,-5.9464192
bagnet33,1,49,NaN,knife,airplane,0,0049_sty_dnn_0_airplane_00_airplane-0049-ILSVRC2012-val-00048111.png,airplane-0049-ILSVRC2012-val-00048111.png,0.0,-1.1633581,2.5312927,-2.6125126
bagnet33,1,50,NaN,boat,airplane,0,0050_sty_dnn_0_airplane_00_airplane-0050-ILSVRC2012-val-00049097.png,airplane-0050-ILSVRC2012-val-00049097.png,0.0,1.985563,3.0171983,-0.72947633
bagnet33,1,51,NaN,knife,bear,0,0051_sty_dnn_0_bear_00_bear-0003-ILSVRC2012-val-00003044.png,bear-0003-ILSVRC2012-val-00003044.png,0.0,-2.8992748,1.7894305,-3.3154154
bagnet33,1,52,NaN,bear,bear,0,0052_sty_dnn_0_bear_00_bear-0005-ILSVRC2012-val-00006703.png,bear-0005-ILSVRC2012-val-00006703.png,1.0,2.7941217,1.292886,1.0615339
bagnet33,1,53,NaN,elephant,bear,0,0053_sty_dnn_0_bear_00_bear-0009-ILSVRC2012-val-00011967.png,bear-0009-ILSVRC2012-val-00011967.png,0.0,1.6320585,4.6669173,-2.1459692
bagnet33,1,54,NaN,elephant,bear,0,0054_sty_dnn_0_bear_00_bear-0010-ILSVRC2012-val-00013390.png,bear-0010-ILSVRC2012-val-00013390.png,0.0,3.2250676,6.4219365,-2.2605276
bagnet33,1,55,NaN,elephant,bear,0,0055_sty_dnn_0_bear_00_bear-0021-ILSVRC2012-val-00031253.png,bear-0021-ILSVRC2012-val-00031253.png,0.0,3.580596,4.326145,-0.5271829
bagnet33,1,56,NaN,elephant,bear,0,0056_sty_dnn_0_bear_00_bear-0031-ILSVRC2012-val-00039777.png,bear-0031-ILSVRC2012-val-00039777.png,0.0,-0.41976115,4.41401,-3.4179926
bagnet33,1,57,NaN,elephant,bear,0,0057_sty_dnn_0_bear_00_bear-0035-ILSVRC2012-val-00042274.png,bear-0035-ILSVRC2012-val-00042274.png,0.0,-0.37390372,5.2763605,-3.9953403
bagnet33,1,58,NaN,clock,bear,0,0058_sty_dnn_0_bear_00_bear-0043-ILSVRC2012-val-00046763.png,bear-0043-ILSVRC2012-val-00046763.png,0.0,-1.052591,2.866727,-2.7713766
bagnet33,1,59,NaN,elephant,bear,0,0059_sty_dnn_0_bear_00_bear-0049-ILSVRC2012-val-00049822.png,bear-0049-ILSVRC2012-val-00049822.png,0.0,1.3415163,1.7541413,-0.29176998
bagnet33,1,60,NaN,elephant,bear,0,0060_sty_dnn_0_bear_00_bear-0052-ILSVRC2012-val-00000865.png,bear-0052-ILSVRC2012-val-00000865.png,0.0,5.433806,6.0577,-0.44115984
bagnet33,1,61,NaN,knife,bear,0,0061_sty_dnn_0_bear_00_bear-0056-ILSVRC2012-val-00007093.png,bear-0056-ILSVRC2012-val-00007093.png,0.0,-3.6425457,3.6726995,-5.1726594
bagnet33,1,62,NaN,elephant,bear,0,0062_sty_dnn_0_bear_00_bear-0058-ILSVRC2012-val-00011726.png,bear-0058-ILSVRC2012-val-00011726.png,0.0,3.6107714,4.824458,-0.8582061
bagnet33,1,63,NaN,oven,bear,0,0063_sty_dnn_0_bear_00_bear-0062-ILSVRC2012-val-00014029.png,bear-0062-ILSVRC2012-val-00014029.png,0.0,3.110471,5.2133746,-1.4869775
bagnet33,1,64,NaN,keyboard,bear,0,0064_sty_dnn_0_bear_00_bear-0064-ILSVRC2012-val-00016050.png,bear-0064-ILSVRC2012-val-00016050.png,0.0,-4.171379,1.7734171,-4.2036057
bagnet33,1,65,NaN,bottle,bear,0,0065_sty_dnn_0_bear_00_bear-0066-ILSVRC2012-val-00016621.png,bear-0066-ILSVRC2012-val-00016621.png,0.0,-4.6844053,4.160671,-6.2544136
bagnet33,1,66,NaN,knife,bear,0,0066_sty_dnn_0_bear_00_bear-0067-ILSVRC2012-val-00017273.png,bear-0067-ILSVRC2012-val-00017273.png,0.0,-0.6623635,2.828123,-2.4681468
bagnet33,1,67,NaN,knife,bear,0,0067_sty_dnn_0_bear_00_bear-0069-ILSVRC2012-val-00018788.png,bear-0069-ILSVRC2012-val-00018788.png,0.0,-2.560935,3.394388,-4.2110496
bagnet33,1,68,NaN,bear,bear,0,0068_sty_dnn_0_bear_00_bear-0071-ILSVRC2012-val-00020050.png,bear-0071-ILSVRC2012-val-00020050.png,1.0,2.3061266,1.7484868,0.39431092
bagnet33,1,69,NaN,elephant,bear,0,0069_sty_dnn_0_bear_00_bear-0073-ILSVRC2012-val-00024289.png,bear-0073-ILSVRC2012-val-00024289.png,0.0,-1.7062752,2.6044984,-3.0481775
bagnet33,1,70,NaN,clock,bear,0,0070_sty_dnn_0_bear_00_bear-0074-ILSVRC2012-val-00026962.png,bear-0074-ILSVRC2012-val-00026962.png,0.0,-1.199892,2.6055756,-2.690872
bagnet33,1,71,NaN,elephant,bear,0,0071_sty_dnn_0_bear_00_bear-0078-ILSVRC2012-val-00030951.png,bear-0078-ILSVRC2012-val-00030951.png,0.0,0.91074866,2.9679046,-1.4546288
bagnet33,1,72,NaN,clock,bear,0,0072_sty_dnn_0_bear_00_bear-0085-ILSVRC2012-val-00035292.png,bear-0085-ILSVRC2012-val-00035292.png,0.0,0.26153013,2.0755045,-1.2826736
bagnet33,1,73,NaN,elephant,bear,0,0073_sty_dnn_0_bear_00_bear-0091-ILSVRC2012-val-00041813.png,bear-0091-ILSVRC2012-val-00041813.png,0.0,0.91197383,4.2301536,-2.3463073
bagnet33,1,74,NaN,chair,bear,0,0074_sty_dnn_0_bear_00_bear-0094-ILSVRC2012-val-00043648.png,bear-0094-ILSVRC2012-val-00043648.png,0.0,-0.82064015,2.9357088,-2.6561399
bagnet33,1,75,NaN,knife,bear,0,0075_sty_dnn_0_bear_00_bear-0106-ILSVRC2012-val-00007578.png,bear-0106-ILSVRC2012-val-00007578.png,0.0,-3.5251234,2.5514936,-4.2968173
bagnet33,1,76,NaN,chair,bear,0,0076_sty_dnn_0_bear_00_bear-0112-ILSVRC2012-val-00016340.png,bear-0112-ILSVRC2012-val-00016340.png,0.0,1.1910796,2.4526167,-0.89204144
bagnet33,1,77,NaN,bear,bear,0,0077_sty_dnn_0_bear_00_bear-0113-ILSVRC2012-val-00016459.png,bear-0113-ILSVRC2012-val-00016459.png,1.0,3.5274327,3.1741676,0.2497961
bagnet33,1,78,NaN,elephant,bear,0,0078_sty_dnn_0_bear_00_bear-0114-ILSVRC2012-val-00017605.png,bear-0114-ILSVRC2012-val-00017605.png,0.0,-1.6955416,3.3420005,-3.5620804
bagnet33,1,79,NaN,bear,bear,0,0079_sty_dnn_0_bear_00_bear-0116-ILSVRC2012-val-00020332.png,bear-0116-ILSVRC2012-val-00020332.png,1.0,2.5439153,2.3769372,0.11807136
bagnet33,1,80,NaN,oven,bear,0,0080_sty_dnn_0_bear_00_bear-0125-ILSVRC2012-val-00028222.png,bear-0125-ILSVRC2012-val-00028222.png,0.0,0.21608174,4.330032,-2.909002
bagnet33,1,81,NaN,knife,bear,0,0081_sty_dnn_0_bear_00_bear-0129-ILSVRC2012-val-00030485.png,bear-0129-ILSVRC2012-val-00030485.png,0.0,1.1870989,1.5799093,-0.27775896
bagnet33,1,82,NaN,bear,bear,0,0082_sty_dnn_0_bear_00_bear-0131-ILSVRC2012-val-00031877.png,bear-0131-ILSVRC2012-val-00031877.png,1.0,4.7172413,3.4016023,0.9302973
bagnet33,1,83,NaN,boat,bear,0,0083_sty_dnn_0_bear_00_bear-0132-ILSVRC2012-val-00036763.png,bear-0132-ILSVRC2012-val-00036763.png,0.0,-6.5320168,1.5465633,-5.7124186
bagnet33,1,84,NaN,bottle,bear,0,0084_sty_dnn_0_bear_00_bear-0139-ILSVRC2012-val-00041156.png,bear-0139-ILSVRC2012-val-00041156.png,0.0,-5.5385094,3.549194,-6.425977
bagnet33,1,85,NaN,elephant,bear,0,0085_sty_dnn_0_bear_00_bear-0141-ILSVRC2012-val-00042320.png,bear-0141-ILSVRC2012-val-00042320.png,0.0,1.1748447,3.8519619,-1.8930076
bagnet33,1,86,NaN,oven,bear,0,0086_sty_dnn_0_bear_00_bear-0143-ILSVRC2012-val-00044126.png,bear-0143-ILSVRC2012-val-00044126.png,0.0,-0.48975605,1.9686805,-1.7383771
bagnet33,1,87,NaN,clock,bear,0,0087_sty_dnn_0_bear_00_bear-0149-ILSVRC2012-val-00048105.png,bear-0149-ILSVRC2012-val-00048105.png,0.0,0.71387494,1.5155487,-0.56686896
bagnet33,1,88,NaN,chair,bear,0,0088_sty_dnn_0_bear_00_bear-0154-ILSVRC2012-val-00003499.png,bear-0154-ILSVRC2012-val-00003499.png,0.0,-3.5638733,1.738714,-3.7494957
bagnet33,1,89,NaN,elephant,bear,0,0089_sty_dnn_0_bear_00_bear-0160-ILSVRC2012-val-00013052.png,bear-0160-ILSVRC2012-val-00013052.png,0.0,-0.2649448,5.0771737,-3.7774482
bagnet33,1,90,NaN,chair,bear,0,0090_sty_dnn_0_bear_00_bear-0163-ILSVRC2012-val-00016513.png,bear-0163-ILSVRC2012-val-00016513.png,0.0,-1.0200919,1.886153,-2.0550253
bagnet33,1,91,NaN,knife,bear,0,0091_sty_dnn_0_bear_00_bear-0164-ILSVRC2012-val-00018303.png,bear-0164-ILSVRC2012-val-00018303.png,0.0,-1.3131585,1.7206589,-2.145233
bagnet33,1,92,NaN,bottle,bear,0,0092_sty_dnn_0_bear_00_bear-0165-ILSVRC2012-val-00019901.png,bear-0165-ILSVRC2012-val-00019901.png,0.0,-0.056853503,3.5593534,-2.5570445
bagnet33,1,93,NaN,elephant,bear,0,0093_sty_dnn_0_bear_00_bear-0166-ILSVRC2012-val-00022111.png,bear-0166-ILSVRC2012-val-00022111.png,0.0,-0.8164624,5.2430606,-4.28473
bagnet33,1,94,NaN,elephant,bear,0,0094_sty_dnn_0_bear_00_bear-0167-ILSVRC2012-val-00022112.png,bear-0167-ILSVRC2012-val-00022112.png,0.0,1.5721158,6.958398,-3.8086765
bagnet33,1,95,NaN,bottle,bear,0,0095_sty_dnn_0_bear_00_bear-0168-ILSVRC2012-val-00022698.png,bear-0168-ILSVRC2012-val-00022698.png,0.0,0.69441617,1.5428795,-0.5999542
bagnet33,1,96,NaN,truck,bear,0,0096_sty_dnn_0_bear_00_bear-0180-ILSVRC2012-val-00034637.png,bear-0180-ILSVRC2012-val-00034637.png,0.0,-1.3331242,3.9165306,-3.7120667
bagnet33,1,97,NaN,chair,bear,0,0097_sty_dnn_0_bear_00_bear-0184-ILSVRC2012-val-00038961.png,bear-0184-ILSVRC2012-val-00038961.png,0.0,-4.367838,3.9959898,-5.9141192
bagnet33,1,98,NaN,knife,bear,0,0098_sty_dnn_0_bear_00_bear-0188-ILSVRC2012-val-00043016.png,bear-0188-ILSVRC2012-val-00043016.png,0.0,-1.6603987,3.7330146,-3.8137193
bagnet33,1,99,NaN,clock,bear,0,0099_sty_dnn_0_bear_00_bear-0191-ILSVRC2012-val-00044349.png,bear-0191-ILSVRC2012-val-00044349.png,0.0,-1.4571574,2.5350938,-2.822948
bagnet33,1,100,NaN,elephant,bear,0,0100_sty_dnn_0_bear_00_bear-0195-ILSVRC2012-val-00045672.png,bear-0195-ILSVRC2012-val-00045672.png,0.0,0.049645603,5.9883003,-4.199263
bagnet33,1,101,NaN,bird,bicycle,0,0101_sty_dnn_0_bicycle_00_bicycle-0005-ILSVRC2012-val-00005274.png,bicycle-0005-ILSVRC2012-val-00005274.png,0.0,-1.3033323,2.0662534,-2.382657
bagnet33,1,102,NaN,oven,bicycle,0,0102_sty_dnn_0_bicycle_00_bicycle-0007-ILSVRC2012-val-00006395.png,bicycle-0007-ILSVRC2012-val-00006395.png,0.0,0.9555642,2.1911519,-0.8736924
bagnet33,1,103,NaN,cat,bicycle,0,0103_sty_dnn_0_bicycle_00_bicycle-0008-ILSVRC2012-val-00008007.png,bicycle-0008-ILSVRC2012-val-00008007.png,0.0,-0.8678767,2.462267,-2.3547673
bagnet33,1,104,NaN,airplane,bicycle,0,0104_sty_dnn_0_bicycle_00_bicycle-0010-ILSVRC2012-val-00010544.png,bicycle-0010-ILSVRC2012-val-00010544.png,0.0,0.2560297,3.8236184,-2.5226662
bagnet33,1,105,NaN,bottle,bicycle,0,0105_sty_dnn_0_bicycle_00_bicycle-0011-ILSVRC2012-val-00011821.png,bicycle-0011-ILSVRC2012-val-00011821.png,0.0,-2.7754943,3.350095,-4.3314457
bagnet33,1,106,NaN,bicycle,bicycle,0,0106_sty_dnn_0_bicycle_00_bicycle-0013-ILSVRC2012-val-00012667.png,bicycle-0013-ILSVRC2012-val-00012667.png,1.0,4.321631,3.8486462,0.33445075
bagnet33,1,107,NaN,knife,bicycle,0,0107_sty_dnn_0_bicycle_00_bicycle-0014-ILSVRC2012-val-00015483.png,bicycle-0014-ILSVRC2012-val-00015483.png,0.0,-1.8242162,5.628442,-5.2698255
bagnet33,1,108,NaN,airplane,bicycle,0,0108_sty_dnn_0_bicycle_00_bicycle-0015-ILSVRC2012-val-00015618.png,bicycle-0015-ILSVRC2012-val-00015618.png,0.0,1.9853979,2.1639001,-0.12622012
bagnet33,1,109,NaN,elephant,bicycle,0,0109_sty_dnn_0_bicycle_00_bicycle-0016-ILSVRC2012-val-00016532.png,bicycle-0016-ILSVRC2012-val-00016532.png,0.0,-2.954195,5.376147,-5.890441
bagnet33,1,110,NaN,bicycle,bicycle,0,0110_sty_dnn_0_bicycle_00_bicycle-0018-ILSVRC2012-val-00018975.png,bicycle-0018-ILSVRC2012-val-00018975.png,1.0,2.8285213,1.473128,0.9584078
bagnet33,1,111,NaN,elephant,bicycle,0,0111_sty_dnn_0_bicycle_00_bicycle-0020-ILSVRC2012-val-00022027.png,bicycle-0020-ILSVRC2012-val-00022027.png,0.0,-0.112042606,3.3223624,-2.428491
bagnet33,1,112,NaN,chair,bicycle,0,0112_sty_dnn_0_bicycle_00_bicycle-0022-ILSVRC2012-val-00023266.png,bicycle-0022-ILSVRC2012-val-00023266.png,0.0,-0.40912354,3.4991105,-2.7635388
bagnet33,1,113,NaN,oven,bicycle,0,0113_sty_dnn_0_bicycle_00_bicycle-0024-ILSVRC2012-val-00025915.png,bicycle-0024-ILSVRC2012-val-00025915.png,0.0,-1.8348974,3.356521,-3.670887
bagnet33,1,114,NaN,bottle,bicycle,0,0114_sty_dnn_0_bicycle_00_bicycle-0026-ILSVRC2012-val-00026292.png,bicycle-0026-ILSVRC2012-val-00026292.png,0.0,0.7116777,1.1170542,-0.28664452
bagnet33,1,115,NaN,knife,bicycle,0,0115_sty_dnn_0_bicycle_00_bicycle-0030-ILSVRC2012-val-00027620.png,bicycle-0030-ILSVRC2012-val-00027620.png,0.0,-1.0533098,1.4714518,-1.7852762
bagnet33,1,116,NaN,boat,bicycle,0,0116_sty_dnn_0_bicycle_00_bicycle-0032-ILSVRC2012-val-00030070.png,bicycle-0032-ILSVRC2012-val-00030070.png,0.0,0.57594174,5.9985332,-3.8343513
bagnet33,1,117,NaN,chair,bicycle,0,0117_sty_dnn_0_bicycle_00_bicycle-0033-ILSVRC2012-val-00031498.png,bicycle-0033-ILSVRC2012-val-00031498.png,0.0,2.4705625,2.5934072,-0.08686432
bagnet33,1,118,NaN,bicycle,bicycle,0,0118_sty_dnn_0_bicycle_00_bicycle-0035-ILSVRC2012-val-00033559.png,bicycle-0035-ILSVRC2012-val-00033559.png,1.0,3.7938938,2.162881,1.1533003
bagnet33,1,119,NaN,knife,bicycle,0,0119_sty_dnn_0_bicycle_00_bicycle-0037-ILSVRC2012-val-00036009.png,bicycle-0037-ILSVRC2012-val-00036009.png,0.0,1.1642257,2.6472502,-1.0486567
bagnet33,1,120,NaN,chair,bicycle,0,0120_sty_dnn_0_bicycle_00_bicycle-0038-ILSVRC2012-val-00036903.png,bicycle-0038-ILSVRC2012-val-00036903.png,0.0,-2.200449,3.705379,-4.176051
bagnet33,1,121,NaN,truck,bicycle,0,0121_sty_dnn_0_bicycle_00_bicycle-0039-ILSVRC2012-val-00037292.png,bicycle-0039-ILSVRC2012-val-00037292.png,0.0,3.847374,4.704793,-0.6062868
bagnet33,1,122,NaN,elephant,bicycle,0,0122_sty_dnn_0_bicycle_00_bicycle-0040-ILSVRC2012-val-00037433.png,bicycle-0040-ILSVRC2012-val-00037433.png,0.0,2.0525317,4.0956883,-1.4447299
bagnet33,1,123,NaN,bicycle,bicycle,0,0123_sty_dnn_0_bicycle_00_bicycle-0043-ILSVRC2012-val-00038415.png,bicycle-0043-ILSVRC2012-val-00038415.png,1.0,4.8339286,2.859941,1.39582
bagnet33,1,124,NaN,boat,bicycle,0,0124_sty_dnn_0_bicycle_00_bicycle-0044-ILSVRC2012-val-00040027.png,bicycle-0044-ILSVRC2012-val-00040027.png,0.0,-0.29639235,2.2728913,-1.8167579
bagnet33,1,125,NaN,bear,bicycle,0,0125_sty_dnn_0_bicycle_00_bicycle-0046-ILSVRC2012-val-00042496.png,bicycle-0046-ILSVRC2012-val-00042496.png,0.0,-0.5958434,2.0294445,-1.8563588
bagnet33,1,126,NaN,clock,bicycle,0,0126_sty_dnn_0_bicycle_00_bicycle-0047-ILSVRC2012-val-00043435.png,bicycle-0047-ILSVRC2012-val-00043435.png,0.0,0.4597811,2.611519,-1.5215085
bagnet33,1,127,NaN,boat,bicycle,0,0127_sty_dnn_0_bicycle_00_bicycle-0048-ILSVRC2012-val-00045400.png,bicycle-0048-ILSVRC2012-val-00045400.png,0.0,0.17433763,3.3548646,-2.2489722
bagnet33,1,128,NaN,knife,bicycle,0,0128_sty_dnn_0_bicycle_00_bicycle-0050-ILSVRC2012-val-00049382.png,bicycle-0050-ILSVRC2012-val-00049382.png,0.0,-0.90258706,4.587439,-3.8820348
bagnet33,1,129,NaN,bottle,bicycle,0,0129_sty_dnn_0_bicycle_00_bicycle-0054-ILSVRC2012-val-00004147.png,bicycle-0054-ILSVRC2012-val-00004147.png,0.0,1.4979532,2.1148279,-0.4361963
bagnet33,1,130,NaN,elephant,bicycle,0,0130_sty_dnn_0_bicycle_00_bicycle-0056-ILSVRC2012-val-00005330.png,bicycle-0056-ILSVRC2012-val-00005330.png,0.0,-0.44443563,3.2915707,-2.6417553
bagnet33,1,131,NaN,bicycle,bicycle,0,0131_sty_dnn_0_bicycle_00_bicycle-0059-ILSVRC2012-val-00011329.png,bicycle-0059-ILSVRC2012-val-00011329.png,1.0,3.9196117,2.4125905,1.065625
bagnet33,1,132,NaN,oven,bicycle,0,0132_sty_dnn_0_bicycle_00_bicycle-0060-ILSVRC2012-val-00011330.png,bicycle-0060-ILSVRC2012-val-00011330.png,0.0,0.80354077,5.613835,-3.4013917
bagnet33,1,133,NaN,knife,bicycle,0,0133_sty_dnn_0_bicycle_00_bicycle-0061-ILSVRC2012-val-00012096.png,bicycle-0061-ILSVRC2012-val-00012096.png,0.0,0.3054381,3.3041296,-2.1203952
bagnet33,1,134,NaN,airplane,bicycle,0,0134_sty_dnn_0_bicycle_00_bicycle-0062-ILSVRC2012-val-00015867.png,bicycle-0062-ILSVRC2012-val-00015867.png,0.0,0.78103304,3.873087,-2.1864123
bagnet33,1,135,NaN,bottle,bicycle,0,0135_sty_dnn_0_bicycle_00_bicycle-0064-ILSVRC2012-val-00017103.png,bicycle-0064-ILSVRC2012-val-00017103.png,0.0,0.3474542,6.25409,-4.1766224
bagnet33,1,136,NaN,bird,bicycle,0,0136_sty_dnn_0_bicycle_00_bicycle-0067-ILSVRC2012-val-00018304.png,bicycle-0067-ILSVRC2012-val-00018304.png,0.0,-0.70628303,6.436692,-5.0508466
bagnet33,1,137,NaN,bottle,bicycle,0,0137_sty_dnn_0_bicycle_00_bicycle-0070-ILSVRC2012-val-00020631.png,bicycle-0070-ILSVRC2012-val-00020631.png,0.0,-1.6546916,3.030864,-3.313188
bagnet33,1,138,NaN,chair,bicycle,0,0138_sty_dnn_0_bicycle_00_bicycle-0073-ILSVRC2012-val-00027449.png,bicycle-0073-ILSVRC2012-val-00027449.png,0.0,0.78318644,1.1173346,-0.23627844
bagnet33,1,139,NaN,cat,bicycle,0,0139_sty_dnn_0_bicycle_00_bicycle-0074-ILSVRC2012-val-00028824.png,bicycle-0074-ILSVRC2012-val-00028824.png,0.0,-2.0557847,3.2511947,-3.7526011
bagnet33,1,140,NaN,bicycle,bicycle,0,0140_sty_dnn_0_bicycle_00_bicycle-0077-ILSVRC2012-val-00030112.png,bicycle-0077-ILSVRC2012-val-00030112.png,1.0,3.4115753,1.6394675,1.2530695
bagnet33,1,141,NaN,truck,bicycle,0,0141_sty_dnn_0_bicycle_00_bicycle-0078-ILSVRC2012-val-00030892.png,bicycle-0078-ILSVRC2012-val-00030892.png,0.0,0.15252486,4.6208167,-3.1595595
bagnet33,1,142,NaN,bicycle,bicycle,0,0142_sty_dnn_0_bicycle_00_bicycle-0079-ILSVRC2012-val-00031485.png,bicycle-0079-ILSVRC2012-val-00031485.png,1.0,4.9521923,2.0641623,2.0421457
bagnet33,1,143,NaN,oven,bicycle,0,0143_sty_dnn_0_bicycle_00_bicycle-0080-ILSVRC2012-val-00032009.png,bicycle-0080-ILSVRC2012-val-00032009.png,0.0,-0.62688303,4.2472763,-3.446551
bagnet33,1,144,NaN,bottle,bicycle,0,0144_sty_dnn_0_bicycle_00_bicycle-0081-ILSVRC2012-val-00032967.png,bicycle-0081-ILSVRC2012-val-00032967.png,0.0,0.05413562,2.767247,-1.9184595
bagnet33,1,145,NaN,elephant,bicycle,0,0145_sty_dnn_0_bicycle_00_bicycle-0085-ILSVRC2012-val-00037438.png,bicycle-0085-ILSVRC2012-val-00037438.png,0.0,1.2520387,1.5332212,-0.19882607
bagnet33,1,146,NaN,bicycle,bicycle,0,0146_sty_dnn_0_bicycle_00_bicycle-0089-ILSVRC2012-val-00042393.png,bicycle-0089-ILSVRC2012-val-00042393.png,1.0,4.1138544,2.887941,0.8668518
bagnet33,1,147,NaN,bicycle,bicycle,0,0147_sty_dnn_0_bicycle_00_bicycle-0092-ILSVRC2012-val-00043207.png,bicycle-0092-ILSVRC2012-val-00043207.png,1.0,4.4013786,1.5982157,1.9821357
bagnet33,1,148,NaN,bicycle,bicycle,0,0148_sty_dnn_0_bicycle_00_bicycle-0094-ILSVRC2012-val-00044080.png,bicycle-0094-ILSVRC2012-val-00044080.png,1.0,3.4026737,3.3808885,0.015404505
bagnet33,1,149,NaN,truck,bicycle,0,0149_sty_dnn_0_bicycle_00_bicycle-0096-ILSVRC2012-val-00045152.png,bicycle-0096-ILSVRC2012-val-00045152.png,0.0,1.5570291,2.3608487,-0.56838626
bagnet33,1,150,NaN,chair,bicycle,0,0150_sty_dnn_0_bicycle_00_bicycle-0100-ILSVRC2012-val-00049750.png,bicycle-0100-ILSVRC2012-val-00049750.png,0.0,0.26894534,2.6381726,-1.6752968
bagnet33,1,151,NaN,knife,bird,0,0151_sty_dnn_0_bird_00_bird-0009-ILSVRC2012-val-00007530.png,bird-0009-ILSVRC2012-val-00007530.png,0.0,-1.7687494,3.0637121,-3.4170663
bagnet33,1,152,NaN,cat,bird,0,0152_sty_dnn_0_bird_00_bird-0045-ILSVRC2012-val-00045547.png,bird-0045-ILSVRC2012-val-00045547.png,0.0,-0.13078147,4.9940352,-3.623793
bagnet33,1,153,NaN,knife,bird,0,0153_sty_dnn_0_bird_00_bird-0119-ILSVRC2012-val-00016252.png,bird-0119-ILSVRC2012-val-00016252.png,0.0,1.354846,1.652573,-0.21052478
bagnet33,1,154,NaN,clock,bird,0,0154_sty_dnn_0_bird_00_bird-0122-ILSVRC2012-val-00019236.png,bird-0122-ILSVRC2012-val-00019236.png,0.0,-1.1967497,2.5622108,-2.6579864
bagnet33,1,155,NaN,oven,bird,0,0155_sty_dnn_0_bird_00_bird-0157-ILSVRC2012-val-00005336.png,bird-0157-ILSVRC2012-val-00005336.png,0.0,2.259224,4.124008,-1.3186016
bagnet33,1,156,NaN,bird,bird,0,0156_sty_dnn_0_bird_00_bird-0175-ILSVRC2012-val-00018699.png,bird-0175-ILSVRC2012-val-00018699.png,1.0,3.1930041,1.6925625,1.0609725
bagnet33,1,157,NaN,oven,bird,0,0157_sty_dnn_0_bird_00_bird-0228-ILSVRC2012-val-00017712.png,bird-0228-ILSVRC2012-val-00017712.png,0.0,-1.2426507,3.1501875,-3.106206
bagnet33,1,158,NaN,knife,bird,0,0158_sty_dnn_0_bird_00_bird-0238-ILSVRC2012-val-00030657.png,bird-0238-ILSVRC2012-val-00030657.png,0.0,0.9797289,4.662589,-2.6041753
bagnet33,1,159,NaN,elephant,bird,0,0159_sty_dnn_0_bird_00_bird-0426-ILSVRC2012-val-00030017.png,bird-0426-ILSVRC2012-val-00030017.png,0.0,-1.9547962,3.8699183,-4.1186953
bagnet33,1,160,NaN,airplane,bird,0,0160_sty_dnn_0_bird_00_bird-0486-ILSVRC2012-val-00037420.png,bird-0486-ILSVRC2012-val-00037420.png,0.0,0.106964804,3.529309,-2.419963
bagnet33,1,161,NaN,bear,bird,0,0161_sty_dnn_0_bird_00_bird-0513-ILSVRC2012-val-00013223.png,bird-0513-ILSVRC2012-val-00013223.png,0.0,1.0510206,4.726445,-2.5989177
bagnet33,1,162,NaN,elephant,bird,0,0162_sty_dnn_0_bird_00_bird-0522-ILSVRC2012-val-00020730.png,bird-0522-ILSVRC2012-val-00020730.png,0.0,0.61084515,2.7290726,-1.497813
bagnet33,1,163,NaN,oven,bird,0,0163_sty_dnn_0_bird_00_bird-0532-ILSVRC2012-val-00028181.png,bird-0532-ILSVRC2012-val-00028181.png,0.0,1.657193,3.0847511,-1.0094361
bagnet33,1,164,NaN,elephant,bird,0,0164_sty_dnn_0_bird_00_bird-0624-ILSVRC2012-val-00024514.png,bird-0624-ILSVRC2012-val-00024514.png,0.0,-1.048511,3.5255818,-3.2343721
bagnet33,1,165,NaN,oven,bird,0,0165_sty_dnn_0_bird_00_bird-0701-ILSVRC2012-val-00000075.png,bird-0701-ILSVRC2012-val-00000075.png,0.0,-0.8667657,3.9371834,-3.396905
bagnet33,1,166,NaN,airplane,bird,0,0166_sty_dnn_0_bird_00_bird-0752-ILSVRC2012-val-00001596.png,bird-0752-ILSVRC2012-val-00001596.png,0.0,0.7274755,3.8359654,-2.1980343
bagnet33,1,167,NaN,elephant,bird,0,0167_sty_dnn_0_bird_00_bird-0754-ILSVRC2012-val-00002846.png,bird-0754-ILSVRC2012-val-00002846.png,0.0,-1.2315387,4.7068796,-4.199096
bagnet33,1,168,NaN,oven,bird,0,0168_sty_dnn_0_bird_00_bird-0822-ILSVRC2012-val-00025200.png,bird-0822-ILSVRC2012-val-00025200.png,0.0,-1.4902587,2.9179935,-3.117105
bagnet33,1,169,NaN,knife,bird,0,0169_sty_dnn_0_bird_00_bird-0896-ILSVRC2012-val-00046621.png,bird-0896-ILSVRC2012-val-00046621.png,0.0,-0.9289069,3.2375197,-2.9461086
bagnet33,1,170,NaN,oven,bird,0,0170_sty_dnn_0_bird_00_bird-0995-ILSVRC2012-val-00046534.png,bird-0995-ILSVRC2012-val-00046534.png,0.0,1.127752,2.3764868,-0.88298887
bagnet33,1,171,NaN,oven,bird,0,0171_sty_dnn_0_bird_00_bird-1052-ILSVRC2012-val-00003884.png,bird-1052-ILSVRC2012-val-00003884.png,0.0,-0.6727013,5.097204,-4.0799394
bagnet33,1,172,NaN,bottle,bird,0,0172_sty_dnn_0_bird_00_bird-1093-ILSVRC2012-val-00044082.png,bird-1093-ILSVRC2012-val-00044082.png,0.0,-1.2473904,2.393593,-2.5745642
bagnet33,1,173,NaN,airplane,bird,0,0173_sty_dnn_0_bird_00_bird-1172-ILSVRC2012-val-00022442.png,bird-1172-ILSVRC2012-val-00022442.png,0.0,-0.4366037,4.3462157,-3.381964
bagnet33,1,174,NaN,elephant,bird,0,0174_sty_dnn_0_bird_00_bird-1188-ILSVRC2012-val-00040014.png,bird-1188-ILSVRC2012-val-00040014.png,0.0,-1.2386723,6.7431707,-5.6440153
bagnet33,1,175,NaN,elephant,bird,0,0175_sty_dnn_0_bird_00_bird-1198-ILSVRC2012-val-00048142.png,bird-1198-ILSVRC2012-val-00048142.png,0.0,-1.432053,3.9128284,-3.779402
bagnet33,1,176,NaN,airplane,bird,0,0176_sty_dnn_0_bird_00_bird-1256-ILSVRC2012-val-00005779.png,bird-1256-ILSVRC2012-val-00005779.png,0.0,-0.58247435,2.2746,-2.0202565
bagnet33,1,177,NaN,bear,bird,0,0177_sty_dnn_0_bird_00_bird-1274-ILSVRC2012-val-00025449.png,bird-1274-ILSVRC2012-val-00025449.png,0.0,0.652,3.4930842,-2.00895
bagnet33,1,178,NaN,elephant,bird,0,0178_sty_dnn_0_bird_00_bird-1326-ILSVRC2012-val-00025658.png,bird-1326-ILSVRC2012-val-00025658.png,0.0,0.004128101,3.8959742,-2.7519507
bagnet33,1,179,NaN,knife,bird,0,0179_sty_dnn_0_bird_00_bird-1394-ILSVRC2012-val-00040051.png,bird-1394-ILSVRC2012-val-00040051.png,0.0,1.0685303,4.375288,-2.3382308
bagnet33,1,180,NaN,elephant,bird,0,0180_sty_dnn_0_bird_00_bird-1452-ILSVRC2012-val-00002997.png,bird-1452-ILSVRC2012-val-00002997.png,0.0,0.22718176,3.0038452,-1.9633976
bagnet33,1,181,NaN,airplane,bird,0,0181_sty_dnn_0_bird_00_bird-1551-ILSVRC2012-val-00000690.png,bird-1551-ILSVRC2012-val-00000690.png,0.0,1.4904497,3.0731394,-1.1191307
bagnet33,1,182,NaN,boat,bird,0,0182_sty_dnn_0_bird_00_bird-1646-ILSVRC2012-val-00039398.png,bird-1646-ILSVRC2012-val-00039398.png,0.0,1.0270461,3.0355291,-1.4202119
bagnet33,1,183,NaN,bird,bird,0,0183_sty_dnn_0_bird_00_bird-1861-ILSVRC2012-val-00007811.png,bird-1861-ILSVRC2012-val-00007811.png,1.0,3.7932706,1.3730735,1.7113378
bagnet33,1,184,NaN,clock,bird,0,0184_sty_dnn_0_bird_00_bird-1865-ILSVRC2012-val-00009672.png,bird-1865-ILSVRC2012-val-00009672.png,0.0,1.4121919,3.7987576,-1.6875569
bagnet33,1,185,NaN,oven,bird,0,0185_sty_dnn_0_bird_00_bird-1913-ILSVRC2012-val-00012475.png,bird-1913-ILSVRC2012-val-00012475.png,0.0,-0.44033182,2.5103064,-2.0864165
bagnet33,1,186,NaN,elephant,bird,0,0186_sty_dnn_0_bird_00_bird-1941-ILSVRC2012-val-00042829.png,bird-1941-ILSVRC2012-val-00042829.png,0.0,0.08778395,2.733221,-1.8706064
bagnet33,1,187,NaN,bear,bird,0,0187_sty_dnn_0_bird_00_bird-1971-ILSVRC2012-val-00023024.png,bird-1971-ILSVRC2012-val-00023024.png,0.0,1.1564538,2.4856749,-0.93990123
bagnet33,1,188,NaN,knife,bird,0,0188_sty_dnn_0_bird_00_bird-2011-ILSVRC2012-val-00008842.png,bird-2011-ILSVRC2012-val-00008842.png,0.0,-1.8488117,5.52728,-5.2156844
bagnet33,1,189,NaN,elephant,bird,0,0189_sty_dnn_0_bird_00_bird-2082-ILSVRC2012-val-00036457.png,bird-2082-ILSVRC2012-val-00036457.png,0.0,1.3012598,5.6500807,-3.0750806
bagnet33,1,190,NaN,chair,bird,0,0190_sty_dnn_0_bird_00_bird-2118-ILSVRC2012-val-00021926.png,bird-2118-ILSVRC2012-val-00021926.png,0.0,-2.0117326,3.4161756,-3.8381107
bagnet33,1,191,NaN,oven,bird,0,0191_sty_dnn_0_bird_00_bird-2144-ILSVRC2012-val-00044377.png,bird-2144-ILSVRC2012-val-00044377.png,0.0,-1.4620026,1.9777397,-2.4322653
bagnet33,1,192,NaN,boat,bird,0,0192_sty_dnn_0_bird_00_bird-2178-ILSVRC2012-val-00026510.png,bird-2178-ILSVRC2012-val-00026510.png,0.0,1.9960291,2.721031,-0.5126537
bagnet33,1,193,NaN,bottle,bird,0,0193_sty_dnn_0_bird_00_bird-2184-ILSVRC2012-val-00034910.png,bird-2184-ILSVRC2012-val-00034910.png,0.0,-0.9441132,1.5046571,-1.7315421
bagnet33,1,194,NaN,keyboard,bird,0,0194_sty_dnn_0_bird_00_bird-2221-ILSVRC2012-val-00014977.png,bird-2221-ILSVRC2012-val-00014977.png,0.0,-1.5540597,8.620277,-7.194343
bagnet33,1,195,NaN,airplane,bird,0,0195_sty_dnn_0_bird_00_bird-2222-ILSVRC2012-val-00015392.png,bird-2222-ILSVRC2012-val-00015392.png,0.0,0.3088579,3.9590597,-2.5810826
bagnet33,1,196,NaN,dog,bird,0,0196_sty_dnn_0_bird_00_bird-2248-ILSVRC2012-val-00044992.png,bird-2248-ILSVRC2012-val-00044992.png,0.0,0.007253535,6.951932,-4.9106293
bagnet33,1,197,NaN,bird,bird,0,0197_sty_dnn_0_bird_00_bird-2322-ILSVRC2012-val-00023492.png,bird-2322-ILSVRC2012-val-00023492.png,1.0,6.862114,1.765798,3.6036396
bagnet33,1,198,NaN,knife,bird,0,0198_sty_dnn_0_bird_00_bird-2405-ILSVRC2012-val-00007988.png,bird-2405-ILSVRC2012-val-00007988.png,0.0,-0.6154726,2.3998308,-2.1321416
bagnet33,1,199,NaN,elephant,bird,0,0199_sty_dnn_0_bird_00_bird-2410-ILSVRC2012-val-00010355.png,bird-2410-ILSVRC2012-val-00010355.png,0.0,0.9455348,3.302858,-1.6668792
bagnet33,1,200,NaN,bear,bird,0,0200_sty_dnn_0_bird_00_bird-2433-ILSVRC2012-val-00028670.png,bird-2433-ILSVRC2012-val-00028670.png,0.0,-0.61474085,3.0270746,-2.5751524
bagnet33,1,201,NaN,elephant,boat,0,0201_sty_dnn_0_boat_00_boat-0005-ILSVRC2012-val-00004909.png,boat-0005-ILSVRC2012-val-00004909.png,0.0,-1.4164406,1.8330957,-2.297769
bagnet33,1,202,NaN,boat,boat,0,0202_sty_dnn_0_boat_00_boat-0011-ILSVRC2012-val-00011563.png,boat-0011-ILSVRC2012-val-00011563.png,1.0,3.5792046,2.5110092,0.7553282
bagnet33,1,203,NaN,elephant,boat,0,0203_sty_dnn_0_boat_00_boat-0026-ILSVRC2012-val-00026341.png,boat-0026-ILSVRC2012-val-00026341.png,0.0,-2.2136467,3.0219438,-3.7021215
bagnet33,1,204,NaN,bird,boat,0,0204_sty_dnn_0_boat_00_boat-0033-ILSVRC2012-val-00030824.png,boat-0033-ILSVRC2012-val-00030824.png,0.0,-0.17376265,1.8332798,-1.4191933
bagnet33,1,205,NaN,knife,boat,0,0205_sty_dnn_0_boat_00_boat-0036-ILSVRC2012-val-00032433.png,boat-0036-ILSVRC2012-val-00032433.png,0.0,0.48287576,4.0160575,-2.4983368
bagnet33,1,206,NaN,boat,boat,0,0206_sty_dnn_0_boat_00_boat-0039-ILSVRC2012-val-00033883.png,boat-0039-ILSVRC2012-val-00033883.png,1.0,2.5659542,2.5588217,0.0050434605
bagnet33,1,207,NaN,oven,boat,0,0207_sty_dnn_0_boat_00_boat-0042-ILSVRC2012-val-00039945.png,boat-0042-ILSVRC2012-val-00039945.png,0.0,0.5900248,5.159011,-3.230761
bagnet33,1,208,NaN,boat,boat,0,0208_sty_dnn_0_boat_00_boat-0044-ILSVRC2012-val-00041227.png,boat-0044-ILSVRC2012-val-00041227.png,1.0,2.6521935,2.5317879,0.08513967
bagnet33,1,209,NaN,elephant,boat,0,0209_sty_dnn_0_boat_00_boat-0048-ILSVRC2012-val-00046387.png,boat-0048-ILSVRC2012-val-00046387.png,0.0,-0.09779112,3.8199363,-2.7702518
bagnet33,1,210,NaN,elephant,boat,0,0210_sty_dnn_0_boat_00_boat-0053-ILSVRC2012-val-00005918.png,boat-0053-ILSVRC2012-val-00005918.png,0.0,-0.10053468,3.118305,-2.2760634
bagnet33,1,211,NaN,elephant,boat,0,0211_sty_dnn_0_boat_00_boat-0061-ILSVRC2012-val-00011292.png,boat-0061-ILSVRC2012-val-00011292.png,0.0,0.11136391,4.7234564,-3.261242
bagnet33,1,212,NaN,elephant,boat,0,0212_sty_dnn_0_boat_00_boat-0064-ILSVRC2012-val-00013366.png,boat-0064-ILSVRC2012-val-00013366.png,0.0,0.71662474,3.2851336,-1.81621
bagnet33,1,213,NaN,boat,boat,0,0213_sty_dnn_0_boat_00_boat-0066-ILSVRC2012-val-00013961.png,boat-0066-ILSVRC2012-val-00013961.png,1.0,1.9239365,1.7151685,0.14762127
bagnet33,1,214,NaN,elephant,boat,0,0214_sty_dnn_0_boat_00_boat-0070-ILSVRC2012-val-00017026.png,boat-0070-ILSVRC2012-val-00017026.png,0.0,-2.14608,4.0385647,-4.373204
bagnet33,1,215,NaN,bottle,boat,0,0215_sty_dnn_0_boat_00_boat-0073-ILSVRC2012-val-00018158.png,boat-0073-ILSVRC2012-val-00018158.png,0.0,-0.0020159245,2.8956585,-2.0489652
bagnet33,1,216,NaN,bird,boat,0,0216_sty_dnn_0_boat_00_boat-0076-ILSVRC2012-val-00020486.png,boat-0076-ILSVRC2012-val-00020486.png,0.0,-0.28307194,1.7514449,-1.4386207
bagnet33,1,217,NaN,airplane,boat,0,0217_sty_dnn_0_boat_00_boat-0077-ILSVRC2012-val-00021948.png,boat-0077-ILSVRC2012-val-00021948.png,0.0,2.2863681,5.2525773,-2.0974267
bagnet33,1,218,NaN,chair,boat,0,0218_sty_dnn_0_boat_00_boat-0079-ILSVRC2012-val-00025681.png,boat-0079-ILSVRC2012-val-00025681.png,0.0,-0.06663792,2.6848056,-1.9455645
bagnet33,1,219,NaN,keyboard,boat,0,0219_sty_dnn_0_boat_00_boat-0082-ILSVRC2012-val-00027612.png,boat-0082-ILSVRC2012-val-00027612.png,0.0,-1.4171388,2.4820595,-2.7571497
bagnet33,1,220,NaN,oven,boat,0,0220_sty_dnn_0_boat_00_boat-0083-ILSVRC2012-val-00034455.png,boat-0083-ILSVRC2012-val-00034455.png,0.0,-1.0064086,5.3177204,-4.4718347
bagnet33,1,221,NaN,knife,boat,0,0221_sty_dnn_0_boat_00_boat-0086-ILSVRC2012-val-00039559.png,boat-0086-ILSVRC2012-val-00039559.png,0.0,0.50124526,2.2576056,-1.2419343
bagnet33,1,222,NaN,dog,boat,0,0222_sty_dnn_0_boat_00_boat-0098-ILSVRC2012-val-00047961.png,boat-0098-ILSVRC2012-val-00047961.png,0.0,-2.8913493,4.3438025,-5.116025
bagnet33,1,223,NaN,knife,boat,0,0223_sty_dnn_0_boat_00_boat-0100-ILSVRC2012-val-00048371.png,boat-0100-ILSVRC2012-val-00048371.png,0.0,-1.4796536,3.0823221,-3.2258039
bagnet33,1,224,NaN,elephant,boat,0,0224_sty_dnn_0_boat_00_boat-0103-ILSVRC2012-val-00002308.png,boat-0103-ILSVRC2012-val-00002308.png,0.0,-0.90931827,4.8129883,-4.046282
bagnet33,1,225,NaN,boat,boat,0,0225_sty_dnn_0_boat_00_boat-0107-ILSVRC2012-val-00004492.png,boat-0107-ILSVRC2012-val-00004492.png,1.0,4.2870955,1.594174,1.9041831
bagnet33,1,226,NaN,oven,boat,0,0226_sty_dnn_0_boat_00_boat-0111-ILSVRC2012-val-00009680.png,boat-0111-ILSVRC2012-val-00009680.png,0.0,0.9386848,5.610506,-3.3034763
bagnet33,1,227,NaN,boat,boat,0,0227_sty_dnn_0_boat_00_boat-0121-ILSVRC2012-val-00016970.png,boat-0121-ILSVRC2012-val-00016970.png,1.0,4.101106,2.7440026,0.95961714
bagnet33,1,228,NaN,oven,boat,0,0228_sty_dnn_0_boat_00_boat-0129-ILSVRC2012-val-00027504.png,boat-0129-ILSVRC2012-val-00027504.png,0.0,0.5776265,4.7009172,-2.9156067
bagnet33,1,229,NaN,bicycle,boat,0,0229_sty_dnn_0_boat_00_boat-0137-ILSVRC2012-val-00035374.png,boat-0137-ILSVRC2012-val-00035374.png,0.0,1.1075095,3.0613346,-1.3815631
bagnet33,1,230,NaN,oven,boat,0,0230_sty_dnn_0_boat_00_boat-0142-ILSVRC2012-val-00040889.png,boat-0142-ILSVRC2012-val-00040889.png,0.0,0.7747754,4.191914,-2.416282
bagnet33,1,231,NaN,truck,boat,0,0231_sty_dnn_0_boat_00_boat-0153-ILSVRC2012-val-00002696.png,boat-0153-ILSVRC2012-val-00002696.png,0.0,2.075073,2.5053167,-0.30422828
bagnet33,1,232,NaN,boat,boat,0,0232_sty_dnn_0_boat_00_boat-0160-ILSVRC2012-val-00008630.png,boat-0160-ILSVRC2012-val-00008630.png,1.0,2.4686017,1.8653712,0.42654836
bagnet33,1,233,NaN,oven,boat,0,0233_sty_dnn_0_boat_00_boat-0165-ILSVRC2012-val-00014242.png,boat-0165-ILSVRC2012-val-00014242.png,0.0,1.5208521,2.9336245,-0.998981
bagnet33,1,234,NaN,elephant,boat,0,0234_sty_dnn_0_boat_00_boat-0169-ILSVRC2012-val-00019970.png,boat-0169-ILSVRC2012-val-00019970.png,0.0,-3.134952,4.599844,-5.469327
bagnet33,1,235,NaN,elephant,boat,0,0235_sty_dnn_0_boat_00_boat-0170-ILSVRC2012-val-00020353.png,boat-0170-ILSVRC2012-val-00020353.png,0.0,0.97340095,2.5429986,-1.1098732
bagnet33,1,236,NaN,cat,boat,0,0236_sty_dnn_0_boat_00_boat-0172-ILSVRC2012-val-00020894.png,boat-0172-ILSVRC2012-val-00020894.png,0.0,-1.9501822,2.0455737,-2.825426
bagnet33,1,237,NaN,bicycle,boat,0,0237_sty_dnn_0_boat_00_boat-0179-ILSVRC2012-val-00026763.png,boat-0179-ILSVRC2012-val-00026763.png,0.0,-0.39480606,1.4140496,-1.2790542
bagnet33,1,238,NaN,elephant,boat,0,0238_sty_dnn_0_boat_00_boat-0181-ILSVRC2012-val-00031072.png,boat-0181-ILSVRC2012-val-00031072.png,0.0,0.030778492,1.8467889,-1.2841133
bagnet33,1,239,NaN,boat,boat,0,0239_sty_dnn_0_boat_00_boat-0195-ILSVRC2012-val-00042203.png,boat-0195-ILSVRC2012-val-00042203.png,1.0,5.7959337,5.05153,0.526373
bagnet33,1,240,NaN,boat,boat,0,0240_sty_dnn_0_boat_00_boat-0196-ILSVRC2012-val-00042675.png,boat-0196-ILSVRC2012-val-00042675.png,1.0,4.2023706,4.0690556,0.094268
bagnet33,1,241,NaN,boat,boat,0,0241_sty_dnn_0_boat_00_boat-0215-ILSVRC2012-val-00013403.png,boat-0215-ILSVRC2012-val-00013403.png,1.0,3.1706564,1.6707023,1.0606277
bagnet33,1,242,NaN,bottle,boat,0,0242_sty_dnn_0_boat_00_boat-0217-ILSVRC2012-val-00015089.png,boat-0217-ILSVRC2012-val-00015089.png,0.0,-0.05647726,4.013122,-2.8776412
bagnet33,1,243,NaN,bottle,boat,0,0243_sty_dnn_0_boat_00_boat-0218-ILSVRC2012-val-00015121.png,boat-0218-ILSVRC2012-val-00015121.png,0.0,-1.796901,4.47004,-4.4313965
bagnet33,1,244,NaN,knife,boat,0,0244_sty_dnn_0_boat_00_boat-0222-ILSVRC2012-val-00019246.png,boat-0222-ILSVRC2012-val-00019246.png,0.0,-1.7497118,2.293684,-2.8591127
bagnet33,1,245,NaN,elephant,boat,0,0245_sty_dnn_0_boat_00_boat-0223-ILSVRC2012-val-00020544.png,boat-0223-ILSVRC2012-val-00020544.png,0.0,-1.9059309,2.3460636,-3.0066142
bagnet33,1,246,NaN,elephant,boat,0,0246_sty_dnn_0_boat_00_boat-0225-ILSVRC2012-val-00022075.png,boat-0225-ILSVRC2012-val-00022075.png,0.0,0.29271284,2.9631104,-1.8882562
bagnet33,1,247,NaN,chair,boat,0,0247_sty_dnn_0_boat_00_boat-0235-ILSVRC2012-val-00032371.png,boat-0235-ILSVRC2012-val-00032371.png,0.0,2.705906,3.6994393,-0.7025342
bagnet33,1,248,NaN,bird,boat,0,0248_sty_dnn_0_boat_00_boat-0236-ILSVRC2012-val-00032584.png,boat-0236-ILSVRC2012-val-00032584.png,0.0,-0.047798015,2.9947245,-2.1513882
bagnet33,1,249,NaN,airplane,boat,0,0249_sty_dnn_0_boat_00_boat-0243-ILSVRC2012-val-00039131.png,boat-0243-ILSVRC2012-val-00039131.png,0.0,0.84971654,2.9835,-1.5088127
bagnet33,1,250,NaN,bear,boat,0,0250_sty_dnn_0_boat_00_boat-0244-ILSVRC2012-val-00040974.png,boat-0244-ILSVRC2012-val-00040974.png,0.0,1.037261,2.355362,-0.9320381
bagnet33,1,251,NaN,elephant,bottle,0,0251_sty_dnn_0_bottle_00_bottle-0002-ILSVRC2012-val-00002968.png,bottle-0002-ILSVRC2012-val-00002968.png,0.0,-0.49301496,3.4914346,-2.8174314
bagnet33,1,252,NaN,elephant,bottle,0,0252_sty_dnn_0_bottle_00_bottle-0003-ILSVRC2012-val-00003622.png,bottle-0003-ILSVRC2012-val-00003622.png,0.0,0.87671363,4.5103264,-2.5693521
bagnet33,1,253,NaN,keyboard,bottle,0,0253_sty_dnn_0_bottle_00_bottle-0005-ILSVRC2012-val-00004521.png,bottle-0005-ILSVRC2012-val-00004521.png,0.0,2.7270052,4.382353,-1.1705076
bagnet33,1,254,NaN,bottle,bottle,0,0254_sty_dnn_0_bottle_00_bottle-0006-ILSVRC2012-val-00004888.png,bottle-0006-ILSVRC2012-val-00004888.png,1.0,4.758416,2.9018476,1.3127923
bagnet33,1,255,NaN,oven,bottle,0,0255_sty_dnn_0_bottle_00_bottle-0011-ILSVRC2012-val-00009225.png,bottle-0011-ILSVRC2012-val-00009225.png,0.0,1.6939939,3.0227256,-0.93955517
bagnet33,1,256,NaN,elephant,bottle,0,0256_sty_dnn_0_bottle_00_bottle-0022-ILSVRC2012-val-00022396.png,bottle-0022-ILSVRC2012-val-00022396.png,0.0,1.8588196,2.1638947,-0.21572064
bagnet33,1,257,NaN,elephant,bottle,0,0257_sty_dnn_0_bottle_00_bottle-0030-ILSVRC2012-val-00032921.png,bottle-0030-ILSVRC2012-val-00032921.png,0.0,0.3626833,5.243269,-3.4510953
bagnet33,1,258,NaN,oven,bottle,0,0258_sty_dnn_0_bottle_00_bottle-0031-ILSVRC2012-val-00033822.png,bottle-0031-ILSVRC2012-val-00033822.png,0.0,1.2884195,2.7496057,-1.0332147
bagnet33,1,259,NaN,bear,bottle,0,0259_sty_dnn_0_bottle_00_bottle-0032-ILSVRC2012-val-00034979.png,bottle-0032-ILSVRC2012-val-00034979.png,0.0,1.4141797,2.9580703,-1.0916955
bagnet33,1,260,NaN,airplane,bottle,0,0260_sty_dnn_0_bottle_00_bottle-0037-ILSVRC2012-val-00036359.png,bottle-0037-ILSVRC2012-val-00036359.png,0.0,3.3748226,4.228621,-0.6037266
bagnet33,1,261,NaN,elephant,bottle,0,0261_sty_dnn_0_bottle_00_bottle-0039-ILSVRC2012-val-00038570.png,bottle-0039-ILSVRC2012-val-00038570.png,0.0,2.6303654,3.2317429,-0.4252381
bagnet33,1,262,NaN,oven,bottle,0,0262_sty_dnn_0_bottle_00_bottle-0047-ILSVRC2012-val-00044787.png,bottle-0047-ILSVRC2012-val-00044787.png,0.0,-1.8444655,9.9352,-8.329481
bagnet33,1,263,NaN,bottle,bottle,0,0263_sty_dnn_0_bottle_00_bottle-0052-ILSVRC2012-val-00000252.png,bottle-0052-ILSVRC2012-val-00000252.png,1.0,1.9378359,1.0803957,0.6063018
bagnet33,1,264,NaN,bottle,bottle,0,0264_sty_dnn_0_bottle_00_bottle-0055-ILSVRC2012-val-00003066.png,bottle-0055-ILSVRC2012-val-00003066.png,1.0,4.5779204,2.769768,1.2785568
bagnet33,1,265,NaN,oven,bottle,0,0265_sty_dnn_0_bottle_00_bottle-0057-ILSVRC2012-val-00005967.png,bottle-0057-ILSVRC2012-val-00005967.png,0.0,-0.032622423,2.2948198,-1.6457502
bagnet33,1,266,NaN,chair,bottle,0,0266_sty_dnn_0_bottle_00_bottle-0059-ILSVRC2012-val-00008984.png,bottle-0059-ILSVRC2012-val-00008984.png,0.0,1.2864171,2.8255088,-1.0883023
bagnet33,1,267,NaN,bottle,bottle,0,0267_sty_dnn_0_bottle_00_bottle-0066-ILSVRC2012-val-00016336.png,bottle-0066-ILSVRC2012-val-00016336.png,1.0,5.7796364,4.940387,0.5934391
bagnet33,1,268,NaN,oven,bottle,0,0268_sty_dnn_0_bottle_00_bottle-0085-ILSVRC2012-val-00036422.png,bottle-0085-ILSVRC2012-val-00036422.png,0.0,0.4989357,3.5880494,-2.1843333
bagnet33,1,269,NaN,chair,bottle,0,0269_sty_dnn_0_bottle_00_bottle-0086-ILSVRC2012-val-00036795.png,bottle-0086-ILSVRC2012-val-00036795.png,0.0,0.6155852,1.6381707,-0.7230772
bagnet33,1,270,NaN,boat,bottle,0,0270_sty_dnn_0_bottle_00_bottle-0107-ILSVRC2012-val-00008313.png,bottle-0107-ILSVRC2012-val-00008313.png,0.0,1.6192464,2.7744803,-0.8168738
bagnet33,1,271,NaN,airplane,bottle,0,0271_sty_dnn_0_bottle_00_bottle-0108-ILSVRC2012-val-00008437.png,bottle-0108-ILSVRC2012-val-00008437.png,0.0,0.6277389,2.9911518,-1.6711853
bagnet33,1,272,NaN,bear,bottle,0,0272_sty_dnn_0_bottle_00_bottle-0126-ILSVRC2012-val-00022079.png,bottle-0126-ILSVRC2012-val-00022079.png,0.0,1.1127193,2.7063332,-1.1268551
bagnet33,1,273,NaN,bottle,bottle,0,0273_sty_dnn_0_bottle_00_bottle-0127-ILSVRC2012-val-00023580.png,bottle-0127-ILSVRC2012-val-00023580.png,1.0,1.7772154,0.9033637,0.61790645
bagnet33,1,274,NaN,boat,bottle,0,0274_sty_dnn_0_bottle_00_bottle-0138-ILSVRC2012-val-00032559.png,bottle-0138-ILSVRC2012-val-00032559.png,0.0,0.4123443,2.6175022,-1.5592822
bagnet33,1,275,NaN,knife,bottle,0,0275_sty_dnn_0_bottle_00_bottle-0153-ILSVRC2012-val-00003318.png,bottle-0153-ILSVRC2012-val-00003318.png,0.0,2.1358318,3.237628,-0.77908754
bagnet33,1,276,NaN,oven,bottle,0,0276_sty_dnn_0_bottle_00_bottle-0154-ILSVRC2012-val-00003340.png,bottle-0154-ILSVRC2012-val-00003340.png,0.0,-1.4402441,5.483392,-4.89575
bagnet33,1,277,NaN,knife,bottle,0,0277_sty_dnn_0_bottle_00_bottle-0170-ILSVRC2012-val-00020948.png,bottle-0170-ILSVRC2012-val-00020948.png,0.0,1.8460029,2.270926,-0.30046597
bagnet33,1,278,NaN,chair,bottle,0,0278_sty_dnn_0_bottle_00_bottle-0172-ILSVRC2012-val-00021707.png,bottle-0172-ILSVRC2012-val-00021707.png,0.0,1.9158171,2.7066548,-0.55920666
bagnet33,1,279,NaN,clock,bottle,0,0279_sty_dnn_0_bottle_00_bottle-0180-ILSVRC2012-val-00027613.png,bottle-0180-ILSVRC2012-val-00027613.png,0.0,1.6826514,2.329274,-0.4572312
bagnet33,1,280,NaN,elephant,bottle,0,0280_sty_dnn_0_bottle_00_bottle-0189-ILSVRC2012-val-00040070.png,bottle-0189-ILSVRC2012-val-00040070.png,0.0,0.4363274,4.5606318,-2.9163237
bagnet33,1,281,NaN,knife,bottle,0,0281_sty_dnn_0_bottle_00_bottle-0195-ILSVRC2012-val-00045644.png,bottle-0195-ILSVRC2012-val-00045644.png,0.0,1.7891922,4.140349,-1.6625189
bagnet33,1,282,NaN,knife,bottle,0,0282_sty_dnn_0_bottle_00_bottle-0204-ILSVRC2012-val-00002597.png,bottle-0204-ILSVRC2012-val-00002597.png,0.0,0.8794518,4.0189,-2.2199252
bagnet33,1,283,NaN,bottle,bottle,0,0283_sty_dnn_0_bottle_00_bottle-0205-ILSVRC2012-val-00003263.png,bottle-0205-ILSVRC2012-val-00003263.png,1.0,3.5968738,2.590105,0.71189296
bagnet33,1,284,NaN,elephant,bottle,0,0284_sty_dnn_0_bottle_00_bottle-0214-ILSVRC2012-val-00012572.png,bottle-0214-ILSVRC2012-val-00012572.png,0.0,-0.39897922,1.9551489,-1.66462
bagnet33,1,285,NaN,cat,bottle,0,0285_sty_dnn_0_bottle_00_bottle-0216-ILSVRC2012-val-00013262.png,bottle-0216-ILSVRC2012-val-00013262.png,0.0,1.2572129,3.023276,-1.2487953
bagnet33,1,286,NaN,bottle,bottle,0,0286_sty_dnn_0_bottle_00_bottle-0218-ILSVRC2012-val-00013667.png,bottle-0218-ILSVRC2012-val-00013667.png,1.0,4.5265293,2.2805874,1.5881208
bagnet33,1,287,NaN,boat,bottle,0,0287_sty_dnn_0_bottle_00_bottle-0220-ILSVRC2012-val-00014146.png,bottle-0220-ILSVRC2012-val-00014146.png,0.0,0.58781254,1.6412485,-0.7448917
bagnet33,1,288,NaN,oven,bottle,0,0288_sty_dnn_0_bottle_00_bottle-0222-ILSVRC2012-val-00018657.png,bottle-0222-ILSVRC2012-val-00018657.png,0.0,0.9836926,3.8436487,-2.0222943
bagnet33,1,289,NaN,elephant,bottle,0,0289_sty_dnn_0_bottle_00_bottle-0224-ILSVRC2012-val-00020102.png,bottle-0224-ILSVRC2012-val-00020102.png,0.0,1.6099449,2.9410043,-0.9412011
bagnet33,1,290,NaN,oven,bottle,0,0290_sty_dnn_0_bottle_00_bottle-0233-ILSVRC2012-val-00031504.png,bottle-0233-ILSVRC2012-val-00031504.png,0.0,1.3308023,5.2417283,-2.7654421
bagnet33,1,291,NaN,knife,bottle,0,0291_sty_dnn_0_bottle_00_bottle-0243-ILSVRC2012-val-00040157.png,bottle-0243-ILSVRC2012-val-00040157.png,0.0,1.8626431,2.378065,-0.36445838
bagnet33,1,292,NaN,bottle,bottle,0,0292_sty_dnn_0_bottle_00_bottle-0254-ILSVRC2012-val-00005933.png,bottle-0254-ILSVRC2012-val-00005933.png,1.0,4.7733483,1.4606171,2.3424547
bagnet33,1,293,NaN,bottle,bottle,0,0293_sty_dnn_0_bottle_00_bottle-0283-ILSVRC2012-val-00036864.png,bottle-0283-ILSVRC2012-val-00036864.png,1.0,5.912919,2.7109268,2.2641504
bagnet33,1,294,NaN,bottle,bottle,0,0294_sty_dnn_0_bottle_00_bottle-0294-ILSVRC2012-val-00044222.png,bottle-0294-ILSVRC2012-val-00044222.png,1.0,4.7511168,3.680098,0.7573246
bagnet33,1,295,NaN,oven,bottle,0,0295_sty_dnn_0_bottle_00_bottle-0296-ILSVRC2012-val-00044906.png,bottle-0296-ILSVRC2012-val-00044906.png,0.0,1.0329186,4.3558397,-2.3496602
bagnet33,1,296,NaN,truck,bottle,0,0296_sty_dnn_0_bottle_00_bottle-0325-ILSVRC2012-val-00027316.png,bottle-0325-ILSVRC2012-val-00027316.png,0.0,3.2933464,3.4533048,-0.113107644
bagnet33,1,297,NaN,bottle,bottle,0,0297_sty_dnn_0_bottle_00_bottle-0331-ILSVRC2012-val-00033990.png,bottle-0331-ILSVRC2012-val-00033990.png,1.0,5.989269,4.065953,1.3599898
bagnet33,1,298,NaN,oven,bottle,0,0298_sty_dnn_0_bottle_00_bottle-0334-ILSVRC2012-val-00036776.png,bottle-0334-ILSVRC2012-val-00036776.png,0.0,2.2671084,4.8983984,-1.860603
bagnet33,1,299,NaN,bottle,bottle,0,0299_sty_dnn_0_bottle_00_bottle-0345-ILSVRC2012-val-00044614.png,bottle-0345-ILSVRC2012-val-00044614.png,1.0,4.88252,3.6985154,0.8372178
bagnet33,1,300,NaN,bottle,bottle,0,0300_sty_dnn_0_bottle_00_bottle-0347-ILSVRC2012-val-00048539.png,bottle-0347-ILSVRC2012-val-00048539.png,1.0,3.3988779,3.225435,0.122642614
bagnet33,1,301,NaN,knife,car,0,0301_sty_dnn_0_car_00_car-0001-ILSVRC2012-val-00000175.png,car-0001-ILSVRC2012-val-00000175.png,0.0,0.09584678,2.3776493,-1.613478
bagnet33,1,302,NaN,truck,car,0,0302_sty_dnn_0_car_00_car-0004-ILSVRC2012-val-00006084.png,car-0004-ILSVRC2012-val-00006084.png,0.0,3.0752575,4.2883177,-0.85776305
bagnet33,1,303,NaN,car,car,0,0303_sty_dnn_0_car_00_car-0005-ILSVRC2012-val-00006220.png,car-0005-ILSVRC2012-val-00006220.png,1.0,5.0304976,4.822833,0.14684097
bagnet33,1,304,NaN,oven,car,0,0304_sty_dnn_0_car_00_car-0010-ILSVRC2012-val-00012600.png,car-0010-ILSVRC2012-val-00012600.png,0.0,1.6006517,3.0206325,-1.004078
bagnet33,1,305,NaN,bottle,car,0,0305_sty_dnn_0_car_00_car-0012-ILSVRC2012-val-00014447.png,car-0012-ILSVRC2012-val-00014447.png,0.0,-1.6219164,2.6369808,-3.011495
bagnet33,1,306,NaN,airplane,car,0,0306_sty_dnn_0_car_00_car-0013-ILSVRC2012-val-00014541.png,car-0013-ILSVRC2012-val-00014541.png,0.0,-2.1462047,4.1007447,-4.41726
bagnet33,1,307,NaN,car,car,0,0307_sty_dnn_0_car_00_car-0018-ILSVRC2012-val-00018138.png,car-0018-ILSVRC2012-val-00018138.png,1.0,3.7830918,3.7174292,0.046430487
bagnet33,1,308,NaN,keyboard,car,0,0308_sty_dnn_0_car_00_car-0019-ILSVRC2012-val-00018335.png,car-0019-ILSVRC2012-val-00018335.png,0.0,0.96276146,1.4728205,-0.36066622
bagnet33,1,309,NaN,airplane,car,0,0309_sty_dnn_0_car_00_car-0021-ILSVRC2012-val-00019695.png,car-0021-ILSVRC2012-val-00019695.png,0.0,1.2027177,3.1809752,-1.3988394
bagnet33,1,310,NaN,oven,car,0,0310_sty_dnn_0_car_00_car-0024-ILSVRC2012-val-00023221.png,car-0024-ILSVRC2012-val-00023221.png,0.0,1.0690395,4.702038,-2.568918
bagnet33,1,311,NaN,truck,car,0,0311_sty_dnn_0_car_00_car-0025-ILSVRC2012-val-00023474.png,car-0025-ILSVRC2012-val-00023474.png,0.0,5.2367663,6.905639,-1.1800714
bagnet33,1,312,NaN,truck,car,0,0312_sty_dnn_0_car_00_car-0028-ILSVRC2012-val-00027049.png,car-0028-ILSVRC2012-val-00027049.png,0.0,1.8097472,2.4403582,-0.4459093
bagnet33,1,313,NaN,knife,car,0,0313_sty_dnn_0_car_00_car-0029-ILSVRC2012-val-00027081.png,car-0029-ILSVRC2012-val-00027081.png,0.0,-0.66412896,2.2446575,-2.0568228
bagnet33,1,314,NaN,truck,car,0,0314_sty_dnn_0_car_00_car-0030-ILSVRC2012-val-00029057.png,car-0030-ILSVRC2012-val-00029057.png,0.0,7.1850457,7.8880825,-0.49712208
bagnet33,1,315,NaN,clock,car,0,0315_sty_dnn_0_car_00_car-0032-ILSVRC2012-val-00030834.png,car-0032-ILSVRC2012-val-00030834.png,0.0,0.77700377,2.2710452,-1.0564469
bagnet33,1,316,NaN,truck,car,0,0316_sty_dnn_0_car_00_car-0041-ILSVRC2012-val-00040706.png,car-0041-ILSVRC2012-val-00040706.png,0.0,4.634703,4.888113,-0.17918783
bagnet33,1,317,NaN,truck,car,0,0317_sty_dnn_0_car_00_car-0045-ILSVRC2012-val-00042416.png,car-0045-ILSVRC2012-val-00042416.png,0.0,2.479806,4.3866854,-1.3483675
bagnet33,1,318,NaN,cat,car,0,0318_sty_dnn_0_car_00_car-0050-ILSVRC2012-val-00048556.png,car-0050-ILSVRC2012-val-00048556.png,0.0,-6.618094,7.3643565,-9.887086
bagnet33,1,319,NaN,chair,car,0,0319_sty_dnn_0_car_00_car-0052-ILSVRC2012-val-00004387.png,car-0052-ILSVRC2012-val-00004387.png,0.0,-5.106924,3.8216784,-6.313475
bagnet33,1,320,NaN,bottle,car,0,0320_sty_dnn_0_car_00_car-0053-ILSVRC2012-val-00004685.png,car-0053-ILSVRC2012-val-00004685.png,0.0,-0.602673,3.5862393,-2.9620085
bagnet33,1,321,NaN,knife,car,0,0321_sty_dnn_0_car_00_car-0054-ILSVRC2012-val-00005500.png,car-0054-ILSVRC2012-val-00005500.png,0.0,-0.04673918,3.3252544,-2.3843596
bagnet33,1,322,NaN,knife,car,0,0322_sty_dnn_0_car_00_car-0058-ILSVRC2012-val-00010676.png,car-0058-ILSVRC2012-val-00010676.png,0.0,-2.2592418,2.8861628,-3.6383507
bagnet33,1,323,NaN,oven,car,0,0323_sty_dnn_0_car_00_car-0059-ILSVRC2012-val-00014010.png,car-0059-ILSVRC2012-val-00014010.png,0.0,0.38583007,5.2724504,-3.4553626
bagnet33,1,324,NaN,elephant,car,0,0324_sty_dnn_0_car_00_car-0060-ILSVRC2012-val-00014208.png,car-0060-ILSVRC2012-val-00014208.png,0.0,-0.11938306,4.0929127,-2.9785428
bagnet33,1,325,NaN,boat,car,0,0325_sty_dnn_0_car_00_car-0064-ILSVRC2012-val-00016337.png,car-0064-ILSVRC2012-val-00016337.png,0.0,0.4960282,2.5244877,-1.4343375
bagnet33,1,326,NaN,truck,car,0,0326_sty_dnn_0_car_00_car-0065-ILSVRC2012-val-00016613.png,car-0065-ILSVRC2012-val-00016613.png,0.0,3.2477245,6.270827,-2.1376562
bagnet33,1,327,NaN,bear,car,0,0327_sty_dnn_0_car_00_car-0066-ILSVRC2012-val-00018249.png,car-0066-ILSVRC2012-val-00018249.png,0.0,0.7847188,3.840997,-2.1611152
bagnet33,1,328,NaN,car,car,0,0328_sty_dnn_0_car_00_car-0067-ILSVRC2012-val-00018569.png,car-0067-ILSVRC2012-val-00018569.png,1.0,3.2001088,2.3803804,0.5796355
bagnet33,1,329,NaN,car,car,0,0329_sty_dnn_0_car_00_car-0069-ILSVRC2012-val-00019647.png,car-0069-ILSVRC2012-val-00019647.png,1.0,5.6964855,5.642076,0.03847333
bagnet33,1,330,NaN,elephant,car,0,0330_sty_dnn_0_car_00_car-0079-ILSVRC2012-val-00025028.png,car-0079-ILSVRC2012-val-00025028.png,0.0,0.35616758,3.0516899,-1.9060222
bagnet33,1,331,NaN,truck,car,0,0331_sty_dnn_0_car_00_car-0082-ILSVRC2012-val-00027293.png,car-0082-ILSVRC2012-val-00027293.png,0.0,1.4222542,3.1460512,-1.2189085
bagnet33,1,332,NaN,knife,car,0,0332_sty_dnn_0_car_00_car-0083-ILSVRC2012-val-00027508.png,car-0083-ILSVRC2012-val-00027508.png,0.0,-0.28486568,2.1724265,-1.7375679
bagnet33,1,333,NaN,airplane,car,0,0333_sty_dnn_0_car_00_car-0086-ILSVRC2012-val-00029454.png,car-0086-ILSVRC2012-val-00029454.png,0.0,0.79479533,2.9406357,-1.5173383
bagnet33,1,334,NaN,boat,car,0,0334_sty_dnn_0_car_00_car-0087-ILSVRC2012-val-00031558.png,car-0087-ILSVRC2012-val-00031558.png,0.0,0.95467633,2.6838799,-1.2227315
bagnet33,1,335,NaN,truck,car,0,0335_sty_dnn_0_car_00_car-0091-ILSVRC2012-val-00036091.png,car-0091-ILSVRC2012-val-00036091.png,0.0,1.5337669,2.9845004,-1.0258236
bagnet33,1,336,NaN,car,car,0,0336_sty_dnn_0_car_00_car-0093-ILSVRC2012-val-00038956.png,car-0093-ILSVRC2012-val-00038956.png,1.0,5.801439,5.484578,0.22405434
bagnet33,1,337,NaN,truck,car,0,0337_sty_dnn_0_car_00_car-0095-ILSVRC2012-val-00041430.png,car-0095-ILSVRC2012-val-00041430.png,0.0,1.1929536,4.658647,-2.4506154
bagnet33,1,338,NaN,knife,car,0,0338_sty_dnn_0_car_00_car-0096-ILSVRC2012-val-00043824.png,car-0096-ILSVRC2012-val-00043824.png,0.0,-2.3194575,1.4050486,-2.6336236
bagnet33,1,339,NaN,car,car,0,0339_sty_dnn_0_car_00_car-0103-ILSVRC2012-val-00003478.png,car-0103-ILSVRC2012-val-00003478.png,1.0,3.045252,2.4010432,0.4555245
bagnet33,1,340,NaN,cat,car,0,0340_sty_dnn_0_car_00_car-0106-ILSVRC2012-val-00004868.png,car-0106-ILSVRC2012-val-00004868.png,0.0,-0.8144021,1.6763858,-1.7612531
bagnet33,1,341,NaN,truck,car,0,0341_sty_dnn_0_car_00_car-0110-ILSVRC2012-val-00006285.png,car-0110-ILSVRC2012-val-00006285.png,0.0,2.819907,3.862595,-0.7372919
bagnet33,1,342,NaN,bird,car,0,0342_sty_dnn_0_car_00_car-0111-ILSVRC2012-val-00007125.png,car-0111-ILSVRC2012-val-00007125.png,0.0,-1.1954619,2.058626,-2.3009877
bagnet33,1,343,NaN,truck,car,0,0343_sty_dnn_0_car_00_car-0117-ILSVRC2012-val-00010983.png,car-0117-ILSVRC2012-val-00010983.png,0.0,-0.5507965,1.8432138,-1.6928209
bagnet33,1,344,NaN,bicycle,car,0,0344_sty_dnn_0_car_00_car-0118-ILSVRC2012-val-00012327.png,car-0118-ILSVRC2012-val-00012327.png,0.0,0.39616108,3.2250202,-2.0003054
bagnet33,1,345,NaN,clock,car,0,0345_sty_dnn_0_car_00_car-0121-ILSVRC2012-val-00016638.png,car-0121-ILSVRC2012-val-00016638.png,0.0,-0.33052886,2.6101344,-2.079363
bagnet33,1,346,NaN,truck,car,0,0346_sty_dnn_0_car_00_car-0134-ILSVRC2012-val-00032944.png,car-0134-ILSVRC2012-val-00032944.png,0.0,1.9724288,2.6163936,-0.45535186
bagnet33,1,347,NaN,elephant,car,0,0347_sty_dnn_0_car_00_car-0139-ILSVRC2012-val-00037952.png,car-0139-ILSVRC2012-val-00037952.png,0.0,-1.7576599,2.7581844,-3.1931841
bagnet33,1,348,NaN,oven,car,0,0348_sty_dnn_0_car_00_car-0145-ILSVRC2012-val-00041626.png,car-0145-ILSVRC2012-val-00041626.png,0.0,-1.0000724,3.1707258,-2.9492
bagnet33,1,349,NaN,bottle,car,0,0349_sty_dnn_0_car_00_car-0146-ILSVRC2012-val-00043297.png,car-0146-ILSVRC2012-val-00043297.png,0.0,0.9704592,2.679848,-1.2087203
bagnet33,1,350,NaN,airplane,car,0,0350_sty_dnn_0_car_00_car-0149-ILSVRC2012-val-00049427.png,car-0149-ILSVRC2012-val-00049427.png,0.0,0.66968346,4.787537,-2.9117622
bagnet33,1,351,NaN,elephant,cat,0,0351_sty_dnn_0_cat_00_cat-0005-ILSVRC2012-val-00005358.png,cat-0005-ILSVRC2012-val-00005358.png,0.0,1.0794579,2.6011553,-1.0760026
bagnet33,1,352,NaN,cat,cat,0,0352_sty_dnn_0_cat_00_cat-0012-ILSVRC2012-val-00012377.png,cat-0012-ILSVRC2012-val-00012377.png,1.0,1.976273,1.7191914,0.18178408
bagnet33,1,353,NaN,bottle,cat,0,0353_sty_dnn_0_cat_00_cat-0031-ILSVRC2012-val-00030706.png,cat-0031-ILSVRC2012-val-00030706.png,0.0,-0.41656992,2.2770483,-1.9046758
bagnet33,1,354,NaN,cat,cat,0,0354_sty_dnn_0_cat_00_cat-0032-ILSVRC2012-val-00033420.png,cat-0032-ILSVRC2012-val-00033420.png,1.0,8.55133,3.1559682,3.8150966
bagnet33,1,355,NaN,elephant,cat,0,0355_sty_dnn_0_cat_00_cat-0034-ILSVRC2012-val-00033837.png,cat-0034-ILSVRC2012-val-00033837.png,0.0,0.92351675,6.2516685,-3.7675722
bagnet33,1,356,NaN,airplane,cat,0,0356_sty_dnn_0_cat_00_cat-0042-ILSVRC2012-val-00040238.png,cat-0042-ILSVRC2012-val-00040238.png,0.0,-0.49911508,2.264722,-1.954328
bagnet33,1,357,NaN,airplane,cat,0,0357_sty_dnn_0_cat_00_cat-0045-ILSVRC2012-val-00041570.png,cat-0045-ILSVRC2012-val-00041570.png,0.0,1.3312539,2.37761,-0.7398855
bagnet33,1,358,NaN,elephant,cat,0,0358_sty_dnn_0_cat_00_cat-0050-ILSVRC2012-val-00047911.png,cat-0050-ILSVRC2012-val-00047911.png,0.0,0.08428808,2.5466995,-1.7411878
bagnet33,1,359,NaN,knife,cat,0,0359_sty_dnn_0_cat_00_cat-0054-ILSVRC2012-val-00003295.png,cat-0054-ILSVRC2012-val-00003295.png,0.0,-0.2529067,1.7817453,-1.4387163
bagnet33,1,360,NaN,bear,cat,0,0360_sty_dnn_0_cat_00_cat-0056-ILSVRC2012-val-00007676.png,cat-0056-ILSVRC2012-val-00007676.png,0.0,-0.07015946,2.6524372,-1.9251666
bagnet33,1,361,NaN,elephant,cat,0,0361_sty_dnn_0_cat_00_cat-0062-ILSVRC2012-val-00013788.png,cat-0062-ILSVRC2012-val-00013788.png,0.0,-0.19866265,3.3754609,-2.527287
bagnet33,1,362,NaN,chair,cat,0,0362_sty_dnn_0_cat_00_cat-0064-ILSVRC2012-val-00014860.png,cat-0064-ILSVRC2012-val-00014860.png,0.0,-0.56915295,4.24381,-3.4032788
bagnet33,1,363,NaN,keyboard,cat,0,0363_sty_dnn_0_cat_00_cat-0069-ILSVRC2012-val-00016399.png,cat-0069-ILSVRC2012-val-00016399.png,0.0,-0.10472975,3.9154305,-2.8426826
bagnet33,1,364,NaN,cat,cat,0,0364_sty_dnn_0_cat_00_cat-0072-ILSVRC2012-val-00019303.png,cat-0072-ILSVRC2012-val-00019303.png,1.0,1.6719004,1.5551658,0.08254384
bagnet33,1,365,NaN,bear,cat,0,0365_sty_dnn_0_cat_00_cat-0073-ILSVRC2012-val-00020140.png,cat-0073-ILSVRC2012-val-00020140.png,0.0,2.0247905,2.3278944,-0.21432684
bagnet33,1,366,NaN,bottle,cat,0,0366_sty_dnn_0_cat_00_cat-0082-ILSVRC2012-val-00025723.png,cat-0082-ILSVRC2012-val-00025723.png,0.0,1.7583514,2.8767898,-0.79085535
bagnet33,1,367,NaN,cat,cat,0,0367_sty_dnn_0_cat_00_cat-0092-ILSVRC2012-val-00039621.png,cat-0092-ILSVRC2012-val-00039621.png,1.0,6.604712,5.070309,1.0849867
bagnet33,1,368,NaN,cat,cat,0,0368_sty_dnn_0_cat_00_cat-0096-ILSVRC2012-val-00045420.png,cat-0096-ILSVRC2012-val-00045420.png,1.0,3.1763935,2.86087,0.2231089
bagnet33,1,369,NaN,bottle,cat,0,0369_sty_dnn_0_cat_00_cat-0108-ILSVRC2012-val-00002967.png,cat-0108-ILSVRC2012-val-00002967.png,0.0,1.6643414,5.0069613,-2.3635893
bagnet33,1,370,NaN,oven,cat,0,0370_sty_dnn_0_cat_00_cat-0110-ILSVRC2012-val-00004411.png,cat-0110-ILSVRC2012-val-00004411.png,0.0,-0.6153281,3.050319,-2.5920038
bagnet33,1,371,NaN,oven,cat,0,0371_sty_dnn_0_cat_00_cat-0113-ILSVRC2012-val-00007808.png,cat-0113-ILSVRC2012-val-00007808.png,0.0,0.75601226,3.9080868,-2.2288535
bagnet33,1,372,NaN,elephant,cat,0,0372_sty_dnn_0_cat_00_cat-0118-ILSVRC2012-val-00010218.png,cat-0118-ILSVRC2012-val-00010218.png,0.0,1.707717,2.4837136,-0.54871255
bagnet33,1,373,NaN,bear,cat,0,0373_sty_dnn_0_cat_00_cat-0123-ILSVRC2012-val-00014813.png,cat-0123-ILSVRC2012-val-00014813.png,0.0,1.1764158,1.6550174,-0.33842242
bagnet33,1,374,NaN,airplane,cat,0,0374_sty_dnn_0_cat_00_cat-0133-ILSVRC2012-val-00023898.png,cat-0133-ILSVRC2012-val-00023898.png,0.0,1.4271156,2.43706,-0.7141387
bagnet33,1,375,NaN,bear,cat,0,0375_sty_dnn_0_cat_00_cat-0137-ILSVRC2012-val-00027906.png,cat-0137-ILSVRC2012-val-00027906.png,0.0,-0.04960124,2.317747,-1.6739682
bagnet33,1,376,NaN,knife,cat,0,0376_sty_dnn_0_cat_00_cat-0147-ILSVRC2012-val-00041347.png,cat-0147-ILSVRC2012-val-00041347.png,0.0,0.9679373,0.99815035,-0.021363858
bagnet33,1,377,NaN,bottle,cat,0,0377_sty_dnn_0_cat_00_cat-0150-ILSVRC2012-val-00049996.png,cat-0150-ILSVRC2012-val-00049996.png,0.0,0.24895935,2.0250947,-1.2559174
bagnet33,1,378,NaN,bear,cat,0,0378_sty_dnn_0_cat_00_cat-0160-ILSVRC2012-val-00011528.png,cat-0160-ILSVRC2012-val-00011528.png,0.0,1.2944512,5.9324265,-3.2795439
bagnet33,1,379,NaN,cat,cat,0,0379_sty_dnn_0_cat_00_cat-0162-ILSVRC2012-val-00012173.png,cat-0162-ILSVRC2012-val-00012173.png,1.0,2.4701314,2.4506538,0.0137727475
bagnet33,1,380,NaN,chair,cat,0,0380_sty_dnn_0_cat_00_cat-0165-ILSVRC2012-val-00017325.png,cat-0165-ILSVRC2012-val-00017325.png,0.0,1.13261,5.8958898,-3.3681476
bagnet33,1,381,NaN,truck,cat,0,0381_sty_dnn_0_cat_00_cat-0169-ILSVRC2012-val-00020688.png,cat-0169-ILSVRC2012-val-00020688.png,0.0,-1.2392555,3.897916,-3.632529
bagnet33,1,382,NaN,clock,cat,0,0382_sty_dnn_0_cat_00_cat-0185-ILSVRC2012-val-00038168.png,cat-0185-ILSVRC2012-val-00038168.png,0.0,-0.5215625,2.2740862,-1.9768223
bagnet33,1,383,NaN,knife,cat,0,0383_sty_dnn_0_cat_00_cat-0186-ILSVRC2012-val-00039580.png,cat-0186-ILSVRC2012-val-00039580.png,0.0,-0.7302123,3.9501925,-3.309546
bagnet33,1,384,NaN,chair,cat,0,0384_sty_dnn_0_cat_00_cat-0189-ILSVRC2012-val-00040854.png,cat-0189-ILSVRC2012-val-00040854.png,0.0,-0.38670078,5.116768,-3.89154
bagnet33,1,385,NaN,bear,cat,0,0385_sty_dnn_0_cat_00_cat-0202-ILSVRC2012-val-00001496.png,cat-0202-ILSVRC2012-val-00001496.png,0.0,0.8929046,3.105145,-1.5642903
bagnet33,1,386,NaN,knife,cat,0,0386_sty_dnn_0_cat_00_cat-0234-ILSVRC2012-val-00028970.png,cat-0234-ILSVRC2012-val-00028970.png,0.0,-0.73501045,2.07356,-1.9859592
bagnet33,1,387,NaN,bottle,cat,0,0387_sty_dnn_0_cat_00_cat-0236-ILSVRC2012-val-00031185.png,cat-0236-ILSVRC2012-val-00031185.png,0.0,-1.2975926,2.4698727,-2.6640003
bagnet33,1,388,NaN,knife,cat,0,0388_sty_dnn_0_cat_00_cat-0238-ILSVRC2012-val-00033582.png,cat-0238-ILSVRC2012-val-00033582.png,0.0,0.42414388,3.4802852,-2.1610184
bagnet33,1,389,NaN,cat,cat,0,0389_sty_dnn_0_cat_00_cat-0242-ILSVRC2012-val-00040192.png,cat-0242-ILSVRC2012-val-00040192.png,1.0,2.0117028,1.8673981,0.102038786
bagnet33,1,390,NaN,bear,cat,0,0390_sty_dnn_0_cat_00_cat-0243-ILSVRC2012-val-00040600.png,cat-0243-ILSVRC2012-val-00040600.png,0.0,0.8849748,3.5475268,-1.8827087
bagnet33,1,391,NaN,cat,cat,0,0391_sty_dnn_0_cat_00_cat-0247-ILSVRC2012-val-00044374.png,cat-0247-ILSVRC2012-val-00044374.png,1.0,3.0589297,2.1622598,0.63404137
bagnet33,1,392,NaN,elephant,cat,0,0392_sty_dnn_0_cat_00_cat-0258-ILSVRC2012-val-00006112.png,cat-0258-ILSVRC2012-val-00006112.png,0.0,-0.84915394,2.9140506,-2.6609876
bagnet33,1,393,NaN,clock,cat,0,0393_sty_dnn_0_cat_00_cat-0260-ILSVRC2012-val-00006612.png,cat-0260-ILSVRC2012-val-00006612.png,0.0,-0.2504187,3.0374622,-2.324883
bagnet33,1,394,NaN,elephant,cat,0,0394_sty_dnn_0_cat_00_cat-0264-ILSVRC2012-val-00010823.png,cat-0264-ILSVRC2012-val-00010823.png,0.0,0.8602964,3.57907,-1.9224633
bagnet33,1,395,NaN,oven,cat,0,0395_sty_dnn_0_cat_00_cat-0270-ILSVRC2012-val-00017189.png,cat-0270-ILSVRC2012-val-00017189.png,0.0,1.8808423,2.986065,-0.7815104
bagnet33,1,396,NaN,oven,cat,0,0396_sty_dnn_0_cat_00_cat-0274-ILSVRC2012-val-00019370.png,cat-0274-ILSVRC2012-val-00019370.png,0.0,-0.3516896,4.6284256,-3.5214734
bagnet33,1,397,NaN,keyboard,cat,0,0397_sty_dnn_0_cat_00_cat-0284-ILSVRC2012-val-00027069.png,cat-0284-ILSVRC2012-val-00027069.png,0.0,1.5439655,1.8971734,-0.24975574
bagnet33,1,398,NaN,knife,cat,0,0398_sty_dnn_0_cat_00_cat-0291-ILSVRC2012-val-00035821.png,cat-0291-ILSVRC2012-val-00035821.png,0.0,-0.30576533,3.079695,-2.393882
bagnet33,1,399,NaN,chair,cat,0,0399_sty_dnn_0_cat_00_cat-0294-ILSVRC2012-val-00037633.png,cat-0294-ILSVRC2012-val-00037633.png,0.0,-0.5723383,3.2877305,-2.729481
bagnet33,1,400,NaN,airplane,cat,0,0400_sty_dnn_0_cat_00_cat-0298-ILSVRC2012-val-00042529.png,cat-0298-ILSVRC2012-val-00042529.png,0.0,1.4379045,3.0584507,-1.1458993
bagnet33,1,401,NaN,airplane,chair,0,0401_sty_dnn_0_chair_00_chair-0006-ILSVRC2012-val-00004679.png,chair-0006-ILSVRC2012-val-00004679.png,0.0,-0.43700996,1.314257,-1.2383327
bagnet33,1,402,NaN,chair,chair,0,0402_sty_dnn_0_chair_00_chair-0018-ILSVRC2012-val-00013838.png,chair-0018-ILSVRC2012-val-00013838.png,1.0,4.4610686,3.935938,0.37132353
bagnet33,1,403,NaN,bottle,chair,0,0403_sty_dnn_0_chair_00_chair-0022-ILSVRC2012-val-00016403.png,chair-0022-ILSVRC2012-val-00016403.png,0.0,1.9994769,2.7748358,-0.5482616
bagnet33,1,404,NaN,dog,chair,0,0404_sty_dnn_0_chair_00_chair-0024-ILSVRC2012-val-00021099.png,chair-0024-ILSVRC2012-val-00021099.png,0.0,-3.0230458,4.536123,-5.3451395
bagnet33,1,405,NaN,oven,chair,0,0405_sty_dnn_0_chair_00_chair-0030-ILSVRC2012-val-00026896.png,chair-0030-ILSVRC2012-val-00026896.png,0.0,1.7737808,4.0839486,-1.6335354
bagnet33,1,406,NaN,airplane,chair,0,0406_sty_dnn_0_chair_00_chair-0033-ILSVRC2012-val-00031805.png,chair-0033-ILSVRC2012-val-00031805.png,0.0,0.6897801,7.8101273,-5.034846
bagnet33,1,407,NaN,oven,chair,0,0407_sty_dnn_0_chair_00_chair-0039-ILSVRC2012-val-00041772.png,chair-0039-ILSVRC2012-val-00041772.png,0.0,-1.2662572,5.382016,-4.7010393
bagnet33,1,408,NaN,oven,chair,0,0408_sty_dnn_0_chair_00_chair-0040-ILSVRC2012-val-00042512.png,chair-0040-ILSVRC2012-val-00042512.png,0.0,1.0147523,3.5598295,-1.7996415
bagnet33,1,409,NaN,knife,chair,0,0409_sty_dnn_0_chair_00_chair-0045-ILSVRC2012-val-00044898.png,chair-0045-ILSVRC2012-val-00044898.png,0.0,2.0766337,5.72785,-2.5817997
bagnet33,1,410,NaN,knife,chair,0,0410_sty_dnn_0_chair_00_chair-0047-ILSVRC2012-val-00045407.png,chair-0047-ILSVRC2012-val-00045407.png,0.0,1.8096356,3.4602098,-1.1671323
bagnet33,1,411,NaN,bottle,chair,0,0411_sty_dnn_0_chair_00_chair-0050-ILSVRC2012-val-00049050.png,chair-0050-ILSVRC2012-val-00049050.png,0.0,1.2288045,4.3026776,-2.1735566
bagnet33,1,412,NaN,bear,chair,0,0412_sty_dnn_0_chair_00_chair-0051-ILSVRC2012-val-00001616.png,chair-0051-ILSVRC2012-val-00001616.png,0.0,1.0257044,3.1628082,-1.5111606
bagnet33,1,413,NaN,bottle,chair,0,0413_sty_dnn_0_chair_00_chair-0053-ILSVRC2012-val-00001855.png,chair-0053-ILSVRC2012-val-00001855.png,0.0,-0.38881332,3.3725698,-2.6596994
bagnet33,1,414,NaN,oven,chair,0,0414_sty_dnn_0_chair_00_chair-0058-ILSVRC2012-val-00005926.png,chair-0058-ILSVRC2012-val-00005926.png,0.0,-0.101894155,2.132445,-1.5799165
bagnet33,1,415,NaN,oven,chair,0,0415_sty_dnn_0_chair_00_chair-0059-ILSVRC2012-val-00006022.png,chair-0059-ILSVRC2012-val-00006022.png,0.0,3.3336554,4.6365213,-0.92126536
bagnet33,1,416,NaN,oven,chair,0,0416_sty_dnn_0_chair_00_chair-0072-ILSVRC2012-val-00015559.png,chair-0072-ILSVRC2012-val-00015559.png,0.0,-0.30806568,2.5679028,-2.0336168
bagnet33,1,417,NaN,airplane,chair,0,0417_sty_dnn_0_chair_00_chair-0081-ILSVRC2012-val-00033069.png,chair-0081-ILSVRC2012-val-00033069.png,0.0,2.0334356,3.864668,-1.2948768
bagnet33,1,418,NaN,bottle,chair,0,0418_sty_dnn_0_chair_00_chair-0085-ILSVRC2012-val-00036175.png,chair-0085-ILSVRC2012-val-00036175.png,0.0,1.3551589,1.921314,-0.4003321
bagnet33,1,419,NaN,truck,chair,0,0419_sty_dnn_0_chair_00_chair-0087-ILSVRC2012-val-00037905.png,chair-0087-ILSVRC2012-val-00037905.png,0.0,1.7899395,3.2979865,-1.0663502
bagnet33,1,420,NaN,oven,chair,0,0420_sty_dnn_0_chair_00_chair-0092-ILSVRC2012-val-00041814.png,chair-0092-ILSVRC2012-val-00041814.png,0.0,0.24995387,3.435475,-2.2525036
bagnet33,1,421,NaN,knife,chair,0,0421_sty_dnn_0_chair_00_chair-0097-ILSVRC2012-val-00043453.png,chair-0097-ILSVRC2012-val-00043453.png,0.0,-0.9294647,1.0883749,-1.426828
bagnet33,1,422,NaN,bear,chair,0,0422_sty_dnn_0_chair_00_chair-0098-ILSVRC2012-val-00044181.png,chair-0098-ILSVRC2012-val-00044181.png,0.0,1.0288241,4.5605893,-2.4973352
bagnet33,1,423,NaN,chair,chair,0,0423_sty_dnn_0_chair_00_chair-0116-ILSVRC2012-val-00017447.png,chair-0116-ILSVRC2012-val-00017447.png,1.0,2.8274875,2.1019378,0.51304114
bagnet33,1,424,NaN,chair,chair,0,0424_sty_dnn_0_chair_00_chair-0118-ILSVRC2012-val-00018123.png,chair-0118-ILSVRC2012-val-00018123.png,1.0,2.37737,1.8714633,0.35773015
bagnet33,1,425,NaN,elephant,chair,0,0425_sty_dnn_0_chair_00_chair-0119-ILSVRC2012-val-00018206.png,chair-0119-ILSVRC2012-val-00018206.png,0.0,0.36774704,3.1023257,-1.9336392
bagnet33,1,426,NaN,knife,chair,0,0426_sty_dnn_0_chair_00_chair-0122-ILSVRC2012-val-00019867.png,chair-0122-ILSVRC2012-val-00019867.png,0.0,2.4894433,2.7256417,-0.1670175
bagnet33,1,427,NaN,oven,chair,0,0427_sty_dnn_0_chair_00_chair-0123-ILSVRC2012-val-00020924.png,chair-0123-ILSVRC2012-val-00020924.png,0.0,0.636251,2.1514847,-1.0714321
bagnet33,1,428,NaN,airplane,chair,0,0428_sty_dnn_0_chair_00_chair-0124-ILSVRC2012-val-00022208.png,chair-0124-ILSVRC2012-val-00022208.png,0.0,-0.89276266,2.5242796,-2.4162138
bagnet33,1,429,NaN,oven,chair,0,0429_sty_dnn_0_chair_00_chair-0127-ILSVRC2012-val-00024620.png,chair-0127-ILSVRC2012-val-00024620.png,0.0,1.948621,2.677526,-0.51541364
bagnet33,1,430,NaN,chair,chair,0,0430_sty_dnn_0_chair_00_chair-0133-ILSVRC2012-val-00033406.png,chair-0133-ILSVRC2012-val-00033406.png,1.0,2.2538347,1.1086081,0.8097975
bagnet33,1,431,NaN,truck,chair,0,0431_sty_dnn_0_chair_00_chair-0136-ILSVRC2012-val-00037994.png,chair-0136-ILSVRC2012-val-00037994.png,0.0,2.881895,5.7563386,-2.0325387
bagnet33,1,432,NaN,knife,chair,0,0432_sty_dnn_0_chair_00_chair-0138-ILSVRC2012-val-00038750.png,chair-0138-ILSVRC2012-val-00038750.png,0.0,0.57466394,4.9205627,-3.0730145
bagnet33,1,433,NaN,boat,chair,0,0433_sty_dnn_0_chair_00_chair-0141-ILSVRC2012-val-00040076.png,chair-0141-ILSVRC2012-val-00040076.png,0.0,-0.9791807,4.203708,-3.664856
bagnet33,1,434,NaN,elephant,chair,0,0434_sty_dnn_0_chair_00_chair-0150-ILSVRC2012-val-00048622.png,chair-0150-ILSVRC2012-val-00048622.png,0.0,-1.4563972,1.4883873,-2.0822773
bagnet33,1,435,NaN,bottle,chair,0,0435_sty_dnn_0_chair_00_chair-0154-ILSVRC2012-val-00004705.png,chair-0154-ILSVRC2012-val-00004705.png,0.0,1.2199056,2.0002072,-0.55175656
bagnet33,1,436,NaN,oven,chair,0,0436_sty_dnn_0_chair_00_chair-0155-ILSVRC2012-val-00005160.png,chair-0155-ILSVRC2012-val-00005160.png,0.0,0.38257268,4.95233,-3.2313066
bagnet33,1,437,NaN,elephant,chair,0,0437_sty_dnn_0_chair_00_chair-0159-ILSVRC2012-val-00011028.png,chair-0159-ILSVRC2012-val-00011028.png,0.0,0.5225441,2.8306847,-1.6321019
bagnet33,1,438,NaN,chair,chair,0,0438_sty_dnn_0_chair_00_chair-0160-ILSVRC2012-val-00012040.png,chair-0160-ILSVRC2012-val-00012040.png,1.0,3.903658,3.5034318,0.28300261
bagnet33,1,439,NaN,oven,chair,0,0439_sty_dnn_0_chair_00_chair-0169-ILSVRC2012-val-00019913.png,chair-0169-ILSVRC2012-val-00019913.png,0.0,4.327741,4.7637067,-0.30827418
bagnet33,1,440,NaN,bird,chair,0,0440_sty_dnn_0_chair_00_chair-0170-ILSVRC2012-val-00022051.png,chair-0170-ILSVRC2012-val-00022051.png,0.0,0.49008527,5.6789904,-3.66911
bagnet33,1,441,NaN,oven,chair,0,0441_sty_dnn_0_chair_00_chair-0172-ILSVRC2012-val-00023378.png,chair-0172-ILSVRC2012-val-00023378.png,0.0,0.103167,2.8375142,-1.9334754
bagnet33,1,442,NaN,airplane,chair,0,0442_sty_dnn_0_chair_00_chair-0181-ILSVRC2012-val-00033160.png,chair-0181-ILSVRC2012-val-00033160.png,0.0,0.94030905,1.8428606,-0.63820034
bagnet33,1,443,NaN,knife,chair,0,0443_sty_dnn_0_chair_00_chair-0183-ILSVRC2012-val-00035142.png,chair-0183-ILSVRC2012-val-00035142.png,0.0,-0.09002197,4.7601194,-3.429568
bagnet33,1,444,NaN,knife,chair,0,0444_sty_dnn_0_chair_00_chair-0188-ILSVRC2012-val-00041720.png,chair-0188-ILSVRC2012-val-00041720.png,0.0,-0.82790554,3.214782,-2.8586118
bagnet33,1,445,NaN,elephant,chair,0,0445_sty_dnn_0_chair_00_chair-0189-ILSVRC2012-val-00041883.png,chair-0189-ILSVRC2012-val-00041883.png,0.0,1.0221205,2.8060827,-1.2614518
bagnet33,1,446,NaN,airplane,chair,0,0446_sty_dnn_0_chair_00_chair-0192-ILSVRC2012-val-00043870.png,chair-0192-ILSVRC2012-val-00043870.png,0.0,2.0796542,5.2481008,-2.24043
bagnet33,1,447,NaN,knife,chair,0,0447_sty_dnn_0_chair_00_chair-0193-ILSVRC2012-val-00044295.png,chair-0193-ILSVRC2012-val-00044295.png,0.0,2.1204858,4.007996,-1.3346714
bagnet33,1,448,NaN,chair,chair,0,0448_sty_dnn_0_chair_00_chair-0195-ILSVRC2012-val-00045464.png,chair-0195-ILSVRC2012-val-00045464.png,1.0,4.325944,2.7871857,1.0880665
bagnet33,1,449,NaN,boat,chair,0,0449_sty_dnn_0_chair_00_chair-0196-ILSVRC2012-val-00045844.png,chair-0196-ILSVRC2012-val-00045844.png,0.0,-0.11272904,2.8903096,-2.123469
bagnet33,1,450,NaN,elephant,chair,0,0450_sty_dnn_0_chair_00_chair-0199-ILSVRC2012-val-00048901.png,chair-0199-ILSVRC2012-val-00048901.png,0.0,0.5256883,4.540895,-2.83918
bagnet33,1,451,NaN,bottle,clock,0,0451_sty_dnn_0_clock_00_clock-0001-ILSVRC2012-val-00001011.png,clock-0001-ILSVRC2012-val-00001011.png,0.0,1.9593725,2.497567,-0.38056093
bagnet33,1,452,NaN,keyboard,clock,0,0452_sty_dnn_0_clock_00_clock-0007-ILSVRC2012-val-00005490.png,clock-0007-ILSVRC2012-val-00005490.png,0.0,1.6703032,2.7955177,-0.7956468
bagnet33,1,453,NaN,clock,clock,0,0453_sty_dnn_0_clock_00_clock-0008-ILSVRC2012-val-00005558.png,clock-0008-ILSVRC2012-val-00005558.png,1.0,2.025565,1.8098571,0.15252843
bagnet33,1,454,NaN,bottle,clock,0,0454_sty_dnn_0_clock_00_clock-0010-ILSVRC2012-val-00006858.png,clock-0010-ILSVRC2012-val-00006858.png,0.0,1.8162165,2.7184825,-0.63799846
bagnet33,1,455,NaN,clock,clock,0,0455_sty_dnn_0_clock_00_clock-0013-ILSVRC2012-val-00013244.png,clock-0013-ILSVRC2012-val-00013244.png,1.0,3.506851,2.4589667,0.7409661
bagnet33,1,456,NaN,cat,clock,0,0456_sty_dnn_0_clock_00_clock-0018-ILSVRC2012-val-00015871.png,clock-0018-ILSVRC2012-val-00015871.png,0.0,-2.0866308,1.7412456,-2.7067175
bagnet33,1,457,NaN,bicycle,clock,0,0457_sty_dnn_0_clock_00_clock-0020-ILSVRC2012-val-00016889.png,clock-0020-ILSVRC2012-val-00016889.png,0.0,3.0124862,3.9825563,-0.6859432
bagnet33,1,458,NaN,clock,clock,0,0458_sty_dnn_0_clock_00_clock-0023-ILSVRC2012-val-00017973.png,clock-0023-ILSVRC2012-val-00017973.png,1.0,4.6352324,2.383717,1.5920619
bagnet33,1,459,NaN,clock,clock,0,0459_sty_dnn_0_clock_00_clock-0025-ILSVRC2012-val-00019663.png,clock-0025-ILSVRC2012-val-00019663.png,1.0,4.5293407,2.4377718,1.4789627
bagnet33,1,460,NaN,clock,clock,0,0460_sty_dnn_0_clock_00_clock-0028-ILSVRC2012-val-00021179.png,clock-0028-ILSVRC2012-val-00021179.png,1.0,4.0538845,2.5885901,1.0361196
bagnet33,1,461,NaN,clock,clock,0,0461_sty_dnn_0_clock_00_clock-0029-ILSVRC2012-val-00022719.png,clock-0029-ILSVRC2012-val-00022719.png,1.0,4.6674786,3.6144083,0.74463314
bagnet33,1,462,NaN,oven,clock,0,0462_sty_dnn_0_clock_00_clock-0032-ILSVRC2012-val-00024425.png,clock-0032-ILSVRC2012-val-00024425.png,0.0,5.9838204,7.8591533,-1.3260605
bagnet33,1,463,NaN,clock,clock,0,0463_sty_dnn_0_clock_00_clock-0034-ILSVRC2012-val-00026380.png,clock-0034-ILSVRC2012-val-00026380.png,1.0,3.3101816,1.8969438,0.9993101
bagnet33,1,464,NaN,elephant,clock,0,0464_sty_dnn_0_clock_00_clock-0038-ILSVRC2012-val-00032489.png,clock-0038-ILSVRC2012-val-00032489.png,0.0,0.2929813,2.9962666,-1.9115113
bagnet33,1,465,NaN,bear,clock,0,0465_sty_dnn_0_clock_00_clock-0039-ILSVRC2012-val-00033429.png,clock-0039-ILSVRC2012-val-00033429.png,0.0,0.34799823,4.532989,-2.9592354
bagnet33,1,466,NaN,clock,clock,0,0466_sty_dnn_0_clock_00_clock-0040-ILSVRC2012-val-00035392.png,clock-0040-ILSVRC2012-val-00035392.png,1.0,7.576786,2.2624335,3.7578146
bagnet33,1,467,NaN,clock,clock,0,0467_sty_dnn_0_clock_00_clock-0043-ILSVRC2012-val-00041613.png,clock-0043-ILSVRC2012-val-00041613.png,1.0,2.5041134,2.4967508,0.005206147
bagnet33,1,468,NaN,oven,clock,0,0468_sty_dnn_0_clock_00_clock-0045-ILSVRC2012-val-00043497.png,clock-0045-ILSVRC2012-val-00043497.png,0.0,2.892335,4.684656,-1.2673625
bagnet33,1,469,NaN,airplane,clock,0,0469_sty_dnn_0_clock_00_clock-0046-ILSVRC2012-val-00044049.png,clock-0046-ILSVRC2012-val-00044049.png,0.0,2.50693,5.2553463,-1.9434237
bagnet33,1,470,NaN,clock,clock,0,0470_sty_dnn_0_clock_00_clock-0048-ILSVRC2012-val-00044752.png,clock-0048-ILSVRC2012-val-00044752.png,1.0,3.738569,2.6736588,0.7530052
bagnet33,1,471,NaN,clock,clock,0,0471_sty_dnn_0_clock_00_clock-0052-ILSVRC2012-val-00003721.png,clock-0052-ILSVRC2012-val-00003721.png,1.0,1.9949335,1.8387333,0.1104502
bagnet33,1,472,NaN,bear,clock,0,0472_sty_dnn_0_clock_00_clock-0054-ILSVRC2012-val-00008751.png,clock-0054-ILSVRC2012-val-00008751.png,0.0,2.1838534,3.9159164,-1.2247535
bagnet33,1,473,NaN,clock,clock,0,0473_sty_dnn_0_clock_00_clock-0062-ILSVRC2012-val-00014987.png,clock-0062-ILSVRC2012-val-00014987.png,1.0,5.0969863,4.3379073,0.5367499
bagnet33,1,474,NaN,clock,clock,0,0474_sty_dnn_0_clock_00_clock-0063-ILSVRC2012-val-00015628.png,clock-0063-ILSVRC2012-val-00015628.png,1.0,1.6285404,1.1900889,0.31003204
bagnet33,1,475,NaN,bottle,clock,0,0475_sty_dnn_0_clock_00_clock-0073-ILSVRC2012-val-00026298.png,clock-0073-ILSVRC2012-val-00026298.png,0.0,1.1564068,3.6774704,-1.7826613
bagnet33,1,476,NaN,knife,clock,0,0476_sty_dnn_0_clock_00_clock-0076-ILSVRC2012-val-00028203.png,clock-0076-ILSVRC2012-val-00028203.png,0.0,-0.64258856,3.3127768,-2.7968657
bagnet33,1,477,NaN,knife,clock,0,0477_sty_dnn_0_clock_00_clock-0080-ILSVRC2012-val-00032946.png,clock-0080-ILSVRC2012-val-00032946.png,0.0,1.3803434,3.2678118,-1.3346417
bagnet33,1,478,NaN,knife,clock,0,0478_sty_dnn_0_clock_00_clock-0082-ILSVRC2012-val-00033627.png,clock-0082-ILSVRC2012-val-00033627.png,0.0,1.2136582,3.844204,-1.8600767
bagnet33,1,479,NaN,clock,clock,0,0479_sty_dnn_0_clock_00_clock-0084-ILSVRC2012-val-00034426.png,clock-0084-ILSVRC2012-val-00034426.png,1.0,3.4763439,3.1239417,0.249186
bagnet33,1,480,NaN,truck,clock,0,0480_sty_dnn_0_clock_00_clock-0086-ILSVRC2012-val-00041483.png,clock-0086-ILSVRC2012-val-00041483.png,0.0,0.9617794,4.042589,-2.1784616
bagnet33,1,481,NaN,elephant,clock,0,0481_sty_dnn_0_clock_00_clock-0089-ILSVRC2012-val-00042911.png,clock-0089-ILSVRC2012-val-00042911.png,0.0,0.6657845,3.1074219,-1.7264985
bagnet33,1,482,NaN,knife,clock,0,0482_sty_dnn_0_clock_00_clock-0091-ILSVRC2012-val-00044029.png,clock-0091-ILSVRC2012-val-00044029.png,0.0,-0.72650737,4.6791487,-3.822376
bagnet33,1,483,NaN,oven,clock,0,0483_sty_dnn_0_clock_00_clock-0092-ILSVRC2012-val-00044168.png,clock-0092-ILSVRC2012-val-00044168.png,0.0,0.67313844,2.5705373,-1.3416637
bagnet33,1,484,NaN,chair,clock,0,0484_sty_dnn_0_clock_00_clock-0098-ILSVRC2012-val-00048682.png,clock-0098-ILSVRC2012-val-00048682.png,0.0,1.4749511,1.5166607,-0.029493101
bagnet33,1,485,NaN,airplane,clock,0,0485_sty_dnn_0_clock_00_clock-0100-ILSVRC2012-val-00049759.png,clock-0100-ILSVRC2012-val-00049759.png,0.0,1.6542753,2.9735346,-0.9328572
bagnet33,1,486,NaN,clock,clock,0,0486_sty_dnn_0_clock_00_clock-0106-ILSVRC2012-val-00009413.png,clock-0106-ILSVRC2012-val-00009413.png,1.0,3.2045372,2.7535896,0.31886807
bagnet33,1,487,NaN,clock,clock,0,0487_sty_dnn_0_clock_00_clock-0107-ILSVRC2012-val-00010270.png,clock-0107-ILSVRC2012-val-00010270.png,1.0,2.3162043,2.1771927,0.09829606
bagnet33,1,488,NaN,knife,clock,0,0488_sty_dnn_0_clock_00_clock-0108-ILSVRC2012-val-00011957.png,clock-0108-ILSVRC2012-val-00011957.png,0.0,0.73740435,3.785579,-2.155385
bagnet33,1,489,NaN,elephant,clock,0,0489_sty_dnn_0_clock_00_clock-0110-ILSVRC2012-val-00014035.png,clock-0110-ILSVRC2012-val-00014035.png,0.0,1.5701023,3.5945718,-1.431516
bagnet33,1,490,NaN,chair,clock,0,0490_sty_dnn_0_clock_00_clock-0112-ILSVRC2012-val-00014635.png,clock-0112-ILSVRC2012-val-00014635.png,0.0,3.16123,3.700001,-0.38096857
bagnet33,1,491,NaN,clock,clock,0,0491_sty_dnn_0_clock_00_clock-0118-ILSVRC2012-val-00018443.png,clock-0118-ILSVRC2012-val-00018443.png,1.0,4.135322,2.8347492,0.91964394
bagnet33,1,492,NaN,chair,clock,0,0492_sty_dnn_0_clock_00_clock-0119-ILSVRC2012-val-00018797.png,clock-0119-ILSVRC2012-val-00018797.png,0.0,2.0051928,2.7048779,-0.49475208
bagnet33,1,493,NaN,clock,clock,0,0493_sty_dnn_0_clock_00_clock-0127-ILSVRC2012-val-00030330.png,clock-0127-ILSVRC2012-val-00030330.png,1.0,2.4515233,2.4512732,0.00017684817
bagnet33,1,494,NaN,clock,clock,0,0494_sty_dnn_0_clock_00_clock-0128-ILSVRC2012-val-00030987.png,clock-0128-ILSVRC2012-val-00030987.png,1.0,2.8768866,2.086571,0.55883753
bagnet33,1,495,NaN,knife,clock,0,0495_sty_dnn_0_clock_00_clock-0129-ILSVRC2012-val-00031861.png,clock-0129-ILSVRC2012-val-00031861.png,0.0,2.2972505,4.5091534,-1.5640515
bagnet33,1,496,NaN,bottle,clock,0,0496_sty_dnn_0_clock_00_clock-0130-ILSVRC2012-val-00032136.png,clock-0130-ILSVRC2012-val-00032136.png,0.0,2.049359,2.4578226,-0.2888273
bagnet33,1,497,NaN,truck,clock,0,0497_sty_dnn_0_clock_00_clock-0142-ILSVRC2012-val-00041461.png,clock-0142-ILSVRC2012-val-00041461.png,0.0,2.7664387,4.019206,-0.8858403
bagnet33,1,498,NaN,knife,clock,0,0498_sty_dnn_0_clock_00_clock-0143-ILSVRC2012-val-00041547.png,clock-0143-ILSVRC2012-val-00041547.png,0.0,0.24810927,2.2820458,-1.4382104
bagnet33,1,499,NaN,clock,clock,0,0499_sty_dnn_0_clock_00_clock-0144-ILSVRC2012-val-00041715.png,clock-0144-ILSVRC2012-val-00041715.png,1.0,4.280535,4.2140956,0.04697991
bagnet33,1,500,NaN,oven,clock,0,0500_sty_dnn_0_clock_00_clock-0145-ILSVRC2012-val-00044685.png,clock-0145-ILSVRC2012-val-00044685.png,0.0,-1.6455975,5.3973994,-4.980151
bagnet33,1,501,NaN,cat,dog,0,0501_sty_dnn_0_dog_00_dog-0099-ILSVRC2012-val-00048280.png,dog-0099-ILSVRC2012-val-00048280.png,0.0,-1.5781323,1.6949545,-2.314422
bagnet33,1,502,NaN,knife,dog,0,0502_sty_dnn_0_dog_00_dog-0158-ILSVRC2012-val-00004081.png,dog-0158-ILSVRC2012-val-00004081.png,0.0,-0.55139685,5.565997,-4.3256507
bagnet33,1,503,NaN,bear,dog,0,0503_sty_dnn_0_dog_00_dog-0220-ILSVRC2012-val-00017568.png,dog-0220-ILSVRC2012-val-00017568.png,0.0,1.3850346,2.8527002,-1.0377964
bagnet33,1,504,NaN,chair,dog,0,0504_sty_dnn_0_dog_00_dog-0247-ILSVRC2012-val-00045683.png,dog-0247-ILSVRC2012-val-00045683.png,0.0,-0.36495945,2.317093,-1.8964975
bagnet33,1,505,NaN,knife,dog,0,0505_sty_dnn_0_dog_00_dog-0303-ILSVRC2012-val-00002521.png,dog-0303-ILSVRC2012-val-00002521.png,0.0,-0.93983895,1.9580708,-2.0491316
bagnet33,1,506,NaN,elephant,dog,0,0506_sty_dnn_0_dog_00_dog-0386-ILSVRC2012-val-00034616.png,dog-0386-ILSVRC2012-val-00034616.png,0.0,2.5946991,3.115963,-0.3685892
bagnet33,1,507,NaN,elephant,dog,0,0507_sty_dnn_0_dog_00_dog-0397-ILSVRC2012-val-00044140.png,dog-0397-ILSVRC2012-val-00044140.png,0.0,-0.5275458,6.7181234,-5.123462
bagnet33,1,508,NaN,oven,dog,0,0508_sty_dnn_0_dog_00_dog-0779-ILSVRC2012-val-00033666.png,dog-0779-ILSVRC2012-val-00033666.png,0.0,0.12814234,2.0970013,-1.3921936
bagnet33,1,509,NaN,clock,dog,0,0509_sty_dnn_0_dog_00_dog-1178-ILSVRC2012-val-00022137.png,dog-1178-ILSVRC2012-val-00022137.png,0.0,0.7702796,2.3333693,-1.1052713
bagnet33,1,510,NaN,chair,dog,0,0510_sty_dnn_0_dog_00_dog-1191-ILSVRC2012-val-00037989.png,dog-1191-ILSVRC2012-val-00037989.png,0.0,-0.6995733,3.5860178,-3.0303707
bagnet33,1,511,NaN,knife,dog,0,0511_sty_dnn_0_dog_00_dog-1398-ILSVRC2012-val-00046547.png,dog-1398-ILSVRC2012-val-00046547.png,0.0,0.34133393,4.8008804,-3.1533756
bagnet33,1,512,NaN,bottle,dog,0,0512_sty_dnn_0_dog_00_dog-1538-ILSVRC2012-val-00038167.png,dog-1538-ILSVRC2012-val-00038167.png,0.0,0.017316287,2.1578836,-1.5136096
bagnet33,1,513,NaN,chair,dog,0,0513_sty_dnn_0_dog_00_dog-1613-ILSVRC2012-val-00015923.png,dog-1613-ILSVRC2012-val-00015923.png,0.0,-0.7026916,2.4883432,-2.2564025
bagnet33,1,514,NaN,bottle,dog,0,0514_sty_dnn_0_dog_00_dog-1734-ILSVRC2012-val-00031377.png,dog-1734-ILSVRC2012-val-00031377.png,0.0,-1.2502418,3.9713,-3.6921873
bagnet33,1,515,NaN,bicycle,dog,0,0515_sty_dnn_0_dog_00_dog-1735-ILSVRC2012-val-00031764.png,dog-1735-ILSVRC2012-val-00031764.png,0.0,-0.50829047,3.614572,-2.915304
bagnet33,1,516,NaN,knife,dog,0,0516_sty_dnn_0_dog_00_dog-1881-ILSVRC2012-val-00028322.png,dog-1881-ILSVRC2012-val-00028322.png,0.0,-1.5876547,6.9357605,-6.026965
bagnet33,1,517,NaN,oven,dog,0,0517_sty_dnn_0_dog_00_dog-2094-ILSVRC2012-val-00044284.png,dog-2094-ILSVRC2012-val-00044284.png,0.0,0.72133887,5.3295946,-3.258529
bagnet33,1,518,NaN,cat,dog,0,0518_sty_dnn_0_dog_00_dog-2121-ILSVRC2012-val-00015705.png,dog-2121-ILSVRC2012-val-00015705.png,0.0,2.2031887,3.2102852,-0.7121248
bagnet33,1,519,NaN,clock,dog,0,0519_sty_dnn_0_dog_00_dog-2129-ILSVRC2012-val-00025424.png,dog-2129-ILSVRC2012-val-00025424.png,0.0,-1.4278861,1.9233922,-2.3697116
bagnet33,1,520,NaN,knife,dog,0,0520_sty_dnn_0_dog_00_dog-2195-ILSVRC2012-val-00046002.png,dog-2195-ILSVRC2012-val-00046002.png,0.0,0.05455639,3.929035,-2.73967
bagnet33,1,521,NaN,elephant,dog,0,0521_sty_dnn_0_dog_00_dog-2211-ILSVRC2012-val-00010402.png,dog-2211-ILSVRC2012-val-00010402.png,0.0,-1.3712158,4.510291,-4.1588535
bagnet33,1,522,NaN,elephant,dog,0,0522_sty_dnn_0_dog_00_dog-2253-ILSVRC2012-val-00003731.png,dog-2253-ILSVRC2012-val-00003731.png,0.0,-0.73317,5.13776,-4.151375
bagnet33,1,523,NaN,cat,dog,0,0523_sty_dnn_0_dog_00_dog-2290-ILSVRC2012-val-00036919.png,dog-2290-ILSVRC2012-val-00036919.png,0.0,0.22499758,1.2237281,-0.7062091
bagnet33,1,524,NaN,elephant,dog,0,0524_sty_dnn_0_dog_00_dog-2321-ILSVRC2012-val-00015164.png,dog-2321-ILSVRC2012-val-00015164.png,0.0,1.2987059,4.654096,-2.3726192
bagnet33,1,525,NaN,oven,dog,0,0525_sty_dnn_0_dog_00_dog-2368-ILSVRC2012-val-00011895.png,dog-2368-ILSVRC2012-val-00011895.png,0.0,0.755175,2.5081801,-1.2395618
bagnet33,1,526,NaN,knife,dog,0,0526_sty_dnn_0_dog_00_dog-2391-ILSVRC2012-val-00039144.png,dog-2391-ILSVRC2012-val-00039144.png,0.0,1.2795619,1.8289958,-0.38850847
bagnet33,1,527,NaN,oven,dog,0,0527_sty_dnn_0_dog_00_dog-2535-ILSVRC2012-val-00038253.png,dog-2535-ILSVRC2012-val-00038253.png,0.0,3.370825,6.1436567,-1.9606881
bagnet33,1,528,NaN,clock,dog,0,0528_sty_dnn_0_dog_00_dog-2539-ILSVRC2012-val-00041157.png,dog-2539-ILSVRC2012-val-00041157.png,0.0,0.12863529,3.506012,-2.388166
bagnet33,1,529,NaN,knife,dog,0,0529_sty_dnn_0_dog_00_dog-2629-ILSVRC2012-val-00030579.png,dog-2629-ILSVRC2012-val-00030579.png,0.0,-0.053738434,3.9293277,-2.816453
bagnet33,1,530,NaN,cat,dog,0,0530_sty_dnn_0_dog_00_dog-2876-ILSVRC2012-val-00027038.png,dog-2876-ILSVRC2012-val-00027038.png,0.0,1.737243,2.5660012,-0.58602047
bagnet33,1,531,NaN,chair,dog,0,0531_sty_dnn_0_dog_00_dog-2889-ILSVRC2012-val-00043272.png,dog-2889-ILSVRC2012-val-00043272.png,0.0,-1.0708424,2.0658054,-2.2179449
bagnet33,1,532,NaN,oven,dog,0,0532_sty_dnn_0_dog_00_dog-3044-ILSVRC2012-val-00034485.png,dog-3044-ILSVRC2012-val-00034485.png,0.0,-0.65442467,4.7026777,-3.7880435
bagnet33,1,533,NaN,oven,dog,0,0533_sty_dnn_0_dog_00_dog-3412-ILSVRC2012-val-00014775.png,dog-3412-ILSVRC2012-val-00014775.png,0.0,0.07114199,1.6748251,-1.1339753
bagnet33,1,534,NaN,knife,dog,0,0534_sty_dnn_0_dog_00_dog-3425-ILSVRC2012-val-00027086.png,dog-3425-ILSVRC2012-val-00027086.png,0.0,0.011421537,3.5138865,-2.4766169
bagnet33,1,535,NaN,bear,dog,0,0535_sty_dnn_0_dog_00_dog-3771-ILSVRC2012-val-00020678.png,dog-3771-ILSVRC2012-val-00020678.png,0.0,0.42671603,2.2038665,-1.2566351
bagnet33,1,536,NaN,bear,dog,0,0536_sty_dnn_0_dog_00_dog-3802-ILSVRC2012-val-00003862.png,dog-3802-ILSVRC2012-val-00003862.png,0.0,1.7065915,2.9964876,-0.9120943
bagnet33,1,537,NaN,elephant,dog,0,0537_sty_dnn_0_dog_00_dog-3841-ILSVRC2012-val-00038789.png,dog-3841-ILSVRC2012-val-00038789.png,0.0,-0.119493835,2.6103253,-1.9302737
bagnet33,1,538,NaN,truck,dog,0,0538_sty_dnn_0_dog_00_dog-3864-ILSVRC2012-val-00011457.png,dog-3864-ILSVRC2012-val-00011457.png,0.0,-1.3226496,3.4604025,-3.3821285
bagnet33,1,539,NaN,airplane,dog,0,0539_sty_dnn_0_dog_00_dog-3917-ILSVRC2012-val-00016908.png,dog-3917-ILSVRC2012-val-00016908.png,0.0,0.44864333,1.1166142,-0.47232676
bagnet33,1,540,NaN,cat,dog,0,0540_sty_dnn_0_dog_00_dog-4009-ILSVRC2012-val-00007922.png,dog-4009-ILSVRC2012-val-00007922.png,0.0,-0.50767136,1.5706815,-1.4696175
bagnet33,1,541,NaN,chair,dog,0,0541_sty_dnn_0_dog_00_dog-4070-ILSVRC2012-val-00021155.png,dog-4070-ILSVRC2012-val-00021155.png,0.0,-1.4930831,1.0649137,-1.8087769
bagnet33,1,542,NaN,bottle,dog,0,0542_sty_dnn_0_dog_00_dog-4443-ILSVRC2012-val-00045160.png,dog-4443-ILSVRC2012-val-00045160.png,0.0,-0.15738562,5.2951026,-3.8554916
bagnet33,1,543,NaN,bear,dog,0,0543_sty_dnn_0_dog_00_dog-4689-ILSVRC2012-val-00034291.png,dog-4689-ILSVRC2012-val-00034291.png,0.0,0.6585084,1.4743528,-0.57688916
bagnet33,1,544,NaN,oven,dog,0,0544_sty_dnn_0_dog_00_dog-4865-ILSVRC2012-val-00013670.png,dog-4865-ILSVRC2012-val-00013670.png,0.0,1.2555704,3.0517135,-1.270065
bagnet33,1,545,NaN,oven,dog,0,0545_sty_dnn_0_dog_00_dog-4914-ILSVRC2012-val-00011316.png,dog-4914-ILSVRC2012-val-00011316.png,0.0,2.5424275,4.0024176,-1.0323689
bagnet33,1,546,NaN,bear,dog,0,0546_sty_dnn_0_dog_00_dog-4933-ILSVRC2012-val-00033357.png,dog-4933-ILSVRC2012-val-00033357.png,0.0,2.683462,3.752149,-0.755676
bagnet33,1,547,NaN,elephant,dog,0,0547_sty_dnn_0_dog_00_dog-4954-ILSVRC2012-val-00002882.png,dog-4954-ILSVRC2012-val-00002882.png,0.0,-0.42462862,4.627033,-3.5720644
bagnet33,1,548,NaN,knife,dog,0,0548_sty_dnn_0_dog_00_dog-4999-ILSVRC2012-val-00049046.png,dog-4999-ILSVRC2012-val-00049046.png,0.0,1.353117,4.532283,-2.2480097
bagnet33,1,549,NaN,elephant,dog,0,0549_sty_dnn_0_dog_00_dog-5044-ILSVRC2012-val-00043270.png,dog-5044-ILSVRC2012-val-00043270.png,0.0,1.6912194,2.4212303,-0.51619565
bagnet33,1,550,NaN,elephant,dog,0,0550_sty_dnn_0_dog_00_dog-5267-ILSVRC2012-val-00013862.png,dog-5267-ILSVRC2012-val-00013862.png,0.0,-0.77562714,4.6680055,-3.8492296
bagnet33,1,551,NaN,knife,elephant,0,0551_sty_dnn_0_elephant_00_elephant-0002-ILSVRC2012-val-00001850.png,elephant-0002-ILSVRC2012-val-00001850.png,0.0,-0.22237062,3.873596,-2.8962855
bagnet33,1,552,NaN,knife,elephant,0,0552_sty_dnn_0_elephant_00_elephant-0003-ILSVRC2012-val-00003280.png,elephant-0003-ILSVRC2012-val-00003280.png,0.0,2.2873428,5.1009083,-1.9894912
bagnet33,1,553,NaN,airplane,elephant,0,0553_sty_dnn_0_elephant_00_elephant-0004-ILSVRC2012-val-00004882.png,elephant-0004-ILSVRC2012-val-00004882.png,0.0,2.933088,3.423258,-0.34660253
bagnet33,1,554,NaN,elephant,elephant,0,0554_sty_dnn_0_elephant_00_elephant-0006-ILSVRC2012-val-00005704.png,elephant-0006-ILSVRC2012-val-00005704.png,1.0,8.112734,3.9579985,2.9378417
bagnet33,1,555,NaN,elephant,elephant,0,0555_sty_dnn_0_elephant_00_elephant-0009-ILSVRC2012-val-00010713.png,elephant-0009-ILSVRC2012-val-00010713.png,1.0,9.328154,1.7673516,5.3462944
bagnet33,1,556,NaN,keyboard,elephant,0,0556_sty_dnn_0_elephant_00_elephant-0010-ILSVRC2012-val-00011002.png,elephant-0010-ILSVRC2012-val-00011002.png,0.0,0.6046525,1.4820343,-0.62040263
bagnet33,1,557,NaN,elephant,elephant,0,0557_sty_dnn_0_elephant_00_elephant-0011-ILSVRC2012-val-00011247.png,elephant-0011-ILSVRC2012-val-00011247.png,1.0,3.9571486,3.672514,0.20126705
bagnet33,1,558,NaN,airplane,elephant,0,0558_sty_dnn_0_elephant_00_elephant-0013-ILSVRC2012-val-00014219.png,elephant-0013-ILSVRC2012-val-00014219.png,0.0,0.8076872,3.1721032,-1.6718946
bagnet33,1,559,NaN,elephant,elephant,0,0559_sty_dnn_0_elephant_00_elephant-0015-ILSVRC2012-val-00015520.png,elephant-0015-ILSVRC2012-val-00015520.png,1.0,2.6251473,2.5966468,0.020152938
bagnet33,1,560,NaN,elephant,elephant,0,0560_sty_dnn_0_elephant_00_elephant-0021-ILSVRC2012-val-00021618.png,elephant-0021-ILSVRC2012-val-00021618.png,1.0,3.126368,2.697256,0.303428
bagnet33,1,561,NaN,cat,elephant,0,0561_sty_dnn_0_elephant_00_elephant-0022-ILSVRC2012-val-00022028.png,elephant-0022-ILSVRC2012-val-00022028.png,0.0,6.539427,7.5859985,-0.740038
bagnet33,1,562,NaN,elephant,elephant,0,0562_sty_dnn_0_elephant_00_elephant-0024-ILSVRC2012-val-00022921.png,elephant-0024-ILSVRC2012-val-00022921.png,1.0,3.1008127,2.9136467,0.13234633
bagnet33,1,563,NaN,knife,elephant,0,0563_sty_dnn_0_elephant_00_elephant-0026-ILSVRC2012-val-00023589.png,elephant-0026-ILSVRC2012-val-00023589.png,0.0,0.47921193,3.0338786,-1.806422
bagnet33,1,564,NaN,elephant,elephant,0,0564_sty_dnn_0_elephant_00_elephant-0028-ILSVRC2012-val-00025237.png,elephant-0028-ILSVRC2012-val-00025237.png,1.0,1.1884239,0.76464236,0.29965878
bagnet33,1,565,NaN,elephant,elephant,0,0565_sty_dnn_0_elephant_00_elephant-0029-ILSVRC2012-val-00027259.png,elephant-0029-ILSVRC2012-val-00027259.png,1.0,5.381201,3.8191776,1.1045172
bagnet33,1,566,NaN,keyboard,elephant,0,0566_sty_dnn_0_elephant_00_elephant-0030-ILSVRC2012-val-00028996.png,elephant-0030-ILSVRC2012-val-00028996.png,0.0,-4.208242,9.798725,-9.904422
bagnet33,1,567,NaN,knife,elephant,0,0567_sty_dnn_0_elephant_00_elephant-0032-ILSVRC2012-val-00030248.png,elephant-0032-ILSVRC2012-val-00030248.png,0.0,0.66788125,4.327713,-2.5878918
bagnet33,1,568,NaN,elephant,elephant,0,0568_sty_dnn_0_elephant_00_elephant-0033-ILSVRC2012-val-00033715.png,elephant-0033-ILSVRC2012-val-00033715.png,1.0,7.8142,2.474363,3.775835
bagnet33,1,569,NaN,bottle,elephant,0,0569_sty_dnn_0_elephant_00_elephant-0035-ILSVRC2012-val-00034035.png,elephant-0035-ILSVRC2012-val-00034035.png,0.0,3.1901023,3.2910097,-0.07135226
bagnet33,1,570,NaN,elephant,elephant,0,0570_sty_dnn_0_elephant_00_elephant-0036-ILSVRC2012-val-00034664.png,elephant-0036-ILSVRC2012-val-00034664.png,1.0,5.271696,2.2450688,2.1401486
bagnet33,1,571,NaN,elephant,elephant,0,0571_sty_dnn_0_elephant_00_elephant-0041-ILSVRC2012-val-00038720.png,elephant-0041-ILSVRC2012-val-00038720.png,1.0,5.4656005,3.8488233,1.1432341
bagnet33,1,572,NaN,elephant,elephant,0,0572_sty_dnn_0_elephant_00_elephant-0043-ILSVRC2012-val-00040923.png,elephant-0043-ILSVRC2012-val-00040923.png,1.0,4.9396663,3.1646237,1.2551446
bagnet33,1,573,NaN,bird,elephant,0,0573_sty_dnn_0_elephant_00_elephant-0045-ILSVRC2012-val-00043193.png,elephant-0045-ILSVRC2012-val-00043193.png,0.0,1.1911943,2.342788,-0.8142997
bagnet33,1,574,NaN,boat,elephant,0,0574_sty_dnn_0_elephant_00_elephant-0046-ILSVRC2012-val-00045103.png,elephant-0046-ILSVRC2012-val-00045103.png,0.0,0.66734505,3.2529545,-1.828302
bagnet33,1,575,NaN,elephant,elephant,0,0575_sty_dnn_0_elephant_00_elephant-0047-ILSVRC2012-val-00048547.png,elephant-0047-ILSVRC2012-val-00048547.png,1.0,9.679926,5.605465,2.881079
bagnet33,1,576,NaN,bottle,elephant,0,0576_sty_dnn_0_elephant_00_elephant-0051-ILSVRC2012-val-00001177.png,elephant-0051-ILSVRC2012-val-00001177.png,0.0,0.8542569,5.6088786,-3.3620253
bagnet33,1,577,NaN,bottle,elephant,0,0577_sty_dnn_0_elephant_00_elephant-0055-ILSVRC2012-val-00003538.png,elephant-0055-ILSVRC2012-val-00003538.png,0.0,-0.26978368,3.8419673,-2.907447
bagnet33,1,578,NaN,elephant,elephant,0,0578_sty_dnn_0_elephant_00_elephant-0057-ILSVRC2012-val-00004013.png,elephant-0057-ILSVRC2012-val-00004013.png,1.0,3.3726597,1.7940238,1.1162642
bagnet33,1,579,NaN,elephant,elephant,0,0579_sty_dnn_0_elephant_00_elephant-0058-ILSVRC2012-val-00004990.png,elephant-0058-ILSVRC2012-val-00004990.png,1.0,4.610452,3.8687682,0.52444977
bagnet33,1,580,NaN,dog,elephant,0,0580_sty_dnn_0_elephant_00_elephant-0059-ILSVRC2012-val-00005109.png,elephant-0059-ILSVRC2012-val-00005109.png,0.0,0.9596841,2.98667,-1.4332955
bagnet33,1,581,NaN,elephant,elephant,0,0581_sty_dnn_0_elephant_00_elephant-0062-ILSVRC2012-val-00010078.png,elephant-0062-ILSVRC2012-val-00010078.png,1.0,4.648841,1.384498,2.308239
bagnet33,1,582,NaN,chair,elephant,0,0582_sty_dnn_0_elephant_00_elephant-0065-ILSVRC2012-val-00010619.png,elephant-0065-ILSVRC2012-val-00010619.png,0.0,0.07789439,3.9562547,-2.742415
bagnet33,1,583,NaN,elephant,elephant,0,0583_sty_dnn_0_elephant_00_elephant-0068-ILSVRC2012-val-00016215.png,elephant-0068-ILSVRC2012-val-00016215.png,1.0,5.01756,4.938291,0.0560516
