subj,session,trial,rt,object_response,category,condition,imagename,filename,is_correct,targ_act,max_nontarg_act,decision_margin
alexnet_w1_mlp_simclrhn_probe3,1,1,NaN,bicycle,airplane,0,0001_sty_dnn_0_airplane_00_airplane-0001-ILSVRC2012-val-00000631.png,airplane-0001-ILSVRC2012-val-00000631.png,0.0,-0.31877798,3.1584368,-2.4587622
alexnet_w1_mlp_simclrhn_probe3,1,2,NaN,airplane,airplane,0,0002_sty_dnn_0_airplane_00_airplane-0002-ILSVRC2012-val-00001390.png,airplane-0002-ILSVRC2012-val-00001390.png,1.0,1.1174443,0.7252249,0.27734098
alexnet_w1_mlp_simclrhn_probe3,1,3,NaN,bear,airplane,0,0003_sty_dnn_0_airplane_00_airplane-0003-ILSVRC2012-val-00001506.png,airplane-0003-ILSVRC2012-val-00001506.png,0.0,-1.6104712,1.909616,-2.4890776
alexnet_w1_mlp_simclrhn_probe3,1,4,NaN,elephant,airplane,0,0004_sty_dnn_0_airplane_00_airplane-0004-ILSVRC2012-val-00001952.png,airplane-0004-ILSVRC2012-val-00001952.png,0.0,-0.020535395,1.2579477,-0.90402406
alexnet_w1_mlp_simclrhn_probe3,1,5,NaN,oven,airplane,0,0005_sty_dnn_0_airplane_00_airplane-0005-ILSVRC2012-val-00003960.png,airplane-0005-ILSVRC2012-val-00003960.png,0.0,0.1000866,2.3061252,-1.5599048
alexnet_w1_mlp_simclrhn_probe3,1,6,NaN,elephant,airplane,0,0006_sty_dnn_0_airplane_00_airplane-0006-ILSVRC2012-val-00008292.png,airplane-0006-ILSVRC2012-val-00008292.png,0.0,-0.19756253,1.2383825,-1.0153664
alexnet_w1_mlp_simclrhn_probe3,1,7,NaN,airplane,airplane,0,0007_sty_dnn_0_airplane_00_airplane-0007-ILSVRC2012-val-00009537.png,airplane-0007-ILSVRC2012-val-00009537.png,1.0,3.9955473,1.6407924,1.6650633
alexnet_w1_mlp_simclrhn_probe3,1,8,NaN,cat,airplane,0,0008_sty_dnn_0_airplane_00_airplane-0008-ILSVRC2012-val-00010597.png,airplane-0008-ILSVRC2012-val-00010597.png,0.0,-0.48641163,0.5772263,-0.75210565
alexnet_w1_mlp_simclrhn_probe3,1,9,NaN,elephant,airplane,0,0009_sty_dnn_0_airplane_00_airplane-0009-ILSVRC2012-val-00011168.png,airplane-0009-ILSVRC2012-val-00011168.png,0.0,-0.21165839,2.477365,-1.9014268
alexnet_w1_mlp_simclrhn_probe3,1,10,NaN,oven,airplane,0,0010_sty_dnn_0_airplane_00_airplane-0010-ILSVRC2012-val-00012263.png,airplane-0010-ILSVRC2012-val-00012263.png,0.0,-0.2923395,0.8236431,-0.7891188
alexnet_w1_mlp_simclrhn_probe3,1,11,NaN,oven,airplane,0,0011_sty_dnn_0_airplane_00_airplane-0011-ILSVRC2012-val-00014425.png,airplane-0011-ILSVRC2012-val-00014425.png,0.0,0.41966546,2.199396,-1.2584594
alexnet_w1_mlp_simclrhn_probe3,1,12,NaN,elephant,airplane,0,0012_sty_dnn_0_airplane_00_airplane-0012-ILSVRC2012-val-00015498.png,airplane-0012-ILSVRC2012-val-00015498.png,0.0,-0.5528263,1.5699267,-1.5010132
alexnet_w1_mlp_simclrhn_probe3,1,13,NaN,oven,airplane,0,0013_sty_dnn_0_airplane_00_airplane-0013-ILSVRC2012-val-00015636.png,airplane-0013-ILSVRC2012-val-00015636.png,0.0,-0.032631844,1.8157207,-1.3069826
alexnet_w1_mlp_simclrhn_probe3,1,14,NaN,bear,airplane,0,0014_sty_dnn_0_airplane_00_airplane-0014-ILSVRC2012-val-00016995.png,airplane-0014-ILSVRC2012-val-00016995.png,0.0,0.28566283,1.8733509,-1.1226649
alexnet_w1_mlp_simclrhn_probe3,1,15,NaN,bear,airplane,0,0015_sty_dnn_0_airplane_00_airplane-0015-ILSVRC2012-val-00018616.png,airplane-0015-ILSVRC2012-val-00018616.png,0.0,-0.058642488,1.0112844,-0.7565526
alexnet_w1_mlp_simclrhn_probe3,1,16,NaN,bicycle,airplane,0,0016_sty_dnn_0_airplane_00_airplane-0016-ILSVRC2012-val-00018685.png,airplane-0016-ILSVRC2012-val-00018685.png,0.0,-0.034499332,0.64517766,-0.48060423
alexnet_w1_mlp_simclrhn_probe3,1,17,NaN,oven,airplane,0,0017_sty_dnn_0_airplane_00_airplane-0017-ILSVRC2012-val-00019179.png,airplane-0017-ILSVRC2012-val-00019179.png,0.0,-0.8354846,1.0461965,-1.3305495
alexnet_w1_mlp_simclrhn_probe3,1,18,NaN,elephant,airplane,0,0018_sty_dnn_0_airplane_00_airplane-0018-ILSVRC2012-val-00019677.png,airplane-0018-ILSVRC2012-val-00019677.png,0.0,0.21008524,1.3913634,-0.8352898
alexnet_w1_mlp_simclrhn_probe3,1,19,NaN,bicycle,airplane,0,0019_sty_dnn_0_airplane_00_airplane-0019-ILSVRC2012-val-00022532.png,airplane-0019-ILSVRC2012-val-00022532.png,0.0,-0.57284474,1.3212531,-1.3393295
alexnet_w1_mlp_simclrhn_probe3,1,20,NaN,bicycle,airplane,0,0020_sty_dnn_0_airplane_00_airplane-0020-ILSVRC2012-val-00022975.png,airplane-0020-ILSVRC2012-val-00022975.png,0.0,-0.8974086,3.3802962,-3.024794
alexnet_w1_mlp_simclrhn_probe3,1,21,NaN,dog,airplane,0,0021_sty_dnn_0_airplane_00_airplane-0021-ILSVRC2012-val-00023316.png,airplane-0021-ILSVRC2012-val-00023316.png,0.0,0.21737668,0.9772623,-0.5373203
alexnet_w1_mlp_simclrhn_probe3,1,22,NaN,bear,airplane,0,0022_sty_dnn_0_airplane_00_airplane-0022-ILSVRC2012-val-00023781.png,airplane-0022-ILSVRC2012-val-00023781.png,0.0,-0.37390795,0.7284968,-0.7795179
alexnet_w1_mlp_simclrhn_probe3,1,23,NaN,airplane,airplane,0,0023_sty_dnn_0_airplane_00_airplane-0023-ILSVRC2012-val-00023863.png,airplane-0023-ILSVRC2012-val-00023863.png,1.0,1.7797852,1.3435388,0.30847278
alexnet_w1_mlp_simclrhn_probe3,1,24,NaN,bear,airplane,0,0024_sty_dnn_0_airplane_00_airplane-0024-ILSVRC2012-val-00024108.png,airplane-0024-ILSVRC2012-val-00024108.png,0.0,0.49160755,0.5423826,-0.035903383
alexnet_w1_mlp_simclrhn_probe3,1,25,NaN,boat,airplane,0,0025_sty_dnn_0_airplane_00_airplane-0025-ILSVRC2012-val-00024747.png,airplane-0025-ILSVRC2012-val-00024747.png,0.0,1.4741107,2.0167108,-0.38367617
alexnet_w1_mlp_simclrhn_probe3,1,26,NaN,cat,airplane,0,0026_sty_dnn_0_airplane_00_airplane-0026-ILSVRC2012-val-00026189.png,airplane-0026-ILSVRC2012-val-00026189.png,0.0,-0.4575895,0.44030845,-0.63490975
alexnet_w1_mlp_simclrhn_probe3,1,27,NaN,clock,airplane,0,0027_sty_dnn_0_airplane_00_airplane-0027-ILSVRC2012-val-00026859.png,airplane-0027-ILSVRC2012-val-00026859.png,0.0,1.032656,1.3535637,-0.22691603
alexnet_w1_mlp_simclrhn_probe3,1,28,NaN,elephant,airplane,0,0028_sty_dnn_0_airplane_00_airplane-0028-ILSVRC2012-val-00028019.png,airplane-0028-ILSVRC2012-val-00028019.png,0.0,-0.30027643,1.5656676,-1.3194216
alexnet_w1_mlp_simclrhn_probe3,1,29,NaN,bicycle,airplane,0,0029_sty_dnn_0_airplane_00_airplane-0029-ILSVRC2012-val-00030319.png,airplane-0029-ILSVRC2012-val-00030319.png,0.0,-1.3135862,2.6805553,-2.8242846
alexnet_w1_mlp_simclrhn_probe3,1,30,NaN,oven,airplane,0,0030_sty_dnn_0_airplane_00_airplane-0030-ILSVRC2012-val-00030411.png,airplane-0030-ILSVRC2012-val-00030411.png,0.0,0.07338051,1.9702702,-1.3413036
alexnet_w1_mlp_simclrhn_probe3,1,31,NaN,bear,airplane,0,0031_sty_dnn_0_airplane_00_airplane-0031-ILSVRC2012-val-00030531.png,airplane-0031-ILSVRC2012-val-00030531.png,0.0,-1.8950515,1.9590832,-2.7252848
alexnet_w1_mlp_simclrhn_probe3,1,32,NaN,oven,airplane,0,0032_sty_dnn_0_airplane_00_airplane-0032-ILSVRC2012-val-00032804.png,airplane-0032-ILSVRC2012-val-00032804.png,0.0,0.4089234,1.2082394,-0.5652018
alexnet_w1_mlp_simclrhn_probe3,1,33,NaN,oven,airplane,0,0033_sty_dnn_0_airplane_00_airplane-0033-ILSVRC2012-val-00033161.png,airplane-0033-ILSVRC2012-val-00033161.png,0.0,0.029512776,2.9841673,-2.0892563
alexnet_w1_mlp_simclrhn_probe3,1,34,NaN,elephant,airplane,0,0034_sty_dnn_0_airplane_00_airplane-0034-ILSVRC2012-val-00033441.png,airplane-0034-ILSVRC2012-val-00033441.png,0.0,0.2579902,2.2936504,-1.4394292
alexnet_w1_mlp_simclrhn_probe3,1,35,NaN,bear,airplane,0,0035_sty_dnn_0_airplane_00_airplane-0035-ILSVRC2012-val-00033920.png,airplane-0035-ILSVRC2012-val-00033920.png,0.0,0.10647016,0.825408,-0.5083658
alexnet_w1_mlp_simclrhn_probe3,1,36,NaN,airplane,airplane,0,0036_sty_dnn_0_airplane_00_airplane-0036-ILSVRC2012-val-00034342.png,airplane-0036-ILSVRC2012-val-00034342.png,1.0,0.6790948,0.50520575,0.12295812
alexnet_w1_mlp_simclrhn_probe3,1,37,NaN,bicycle,airplane,0,0037_sty_dnn_0_airplane_00_airplane-0037-ILSVRC2012-val-00035783.png,airplane-0037-ILSVRC2012-val-00035783.png,0.0,0.51681983,4.150321,-2.5692732
alexnet_w1_mlp_simclrhn_probe3,1,38,NaN,bicycle,airplane,0,0038_sty_dnn_0_airplane_00_airplane-0038-ILSVRC2012-val-00036394.png,airplane-0038-ILSVRC2012-val-00036394.png,0.0,-0.5988139,1.1342248,-1.2254434
alexnet_w1_mlp_simclrhn_probe3,1,39,NaN,bicycle,airplane,0,0039_sty_dnn_0_airplane_00_airplane-0039-ILSVRC2012-val-00037801.png,airplane-0039-ILSVRC2012-val-00037801.png,0.0,-0.77685493,0.9192519,-1.1993287
alexnet_w1_mlp_simclrhn_probe3,1,40,NaN,knife,airplane,0,0040_sty_dnn_0_airplane_00_airplane-0040-ILSVRC2012-val-00039213.png,airplane-0040-ILSVRC2012-val-00039213.png,0.0,0.7073032,1.2819469,-0.40633443
alexnet_w1_mlp_simclrhn_probe3,1,41,NaN,knife,airplane,0,0041_sty_dnn_0_airplane_00_airplane-0041-ILSVRC2012-val-00040136.png,airplane-0041-ILSVRC2012-val-00040136.png,0.0,1.3519127,1.6871841,-0.23707266
alexnet_w1_mlp_simclrhn_probe3,1,42,NaN,bicycle,airplane,0,0042_sty_dnn_0_airplane_00_airplane-0042-ILSVRC2012-val-00040547.png,airplane-0042-ILSVRC2012-val-00040547.png,0.0,-0.22197369,0.53984356,-0.53868616
alexnet_w1_mlp_simclrhn_probe3,1,43,NaN,bear,airplane,0,0043_sty_dnn_0_airplane_00_airplane-0043-ILSVRC2012-val-00041518.png,airplane-0043-ILSVRC2012-val-00041518.png,0.0,-0.101207845,2.1057272,-1.5605386
alexnet_w1_mlp_simclrhn_probe3,1,44,NaN,truck,airplane,0,0044_sty_dnn_0_airplane_00_airplane-0044-ILSVRC2012-val-00043242.png,airplane-0044-ILSVRC2012-val-00043242.png,0.0,0.46092352,3.3264484,-2.0262322
alexnet_w1_mlp_simclrhn_probe3,1,45,NaN,oven,airplane,0,0045_sty_dnn_0_airplane_00_airplane-0045-ILSVRC2012-val-00044253.png,airplane-0045-ILSVRC2012-val-00044253.png,0.0,-0.27954972,1.1688703,-1.0241877
alexnet_w1_mlp_simclrhn_probe3,1,46,NaN,bicycle,airplane,0,0046_sty_dnn_0_airplane_00_airplane-0046-ILSVRC2012-val-00046862.png,airplane-0046-ILSVRC2012-val-00046862.png,0.0,-0.54860294,1.8960881,-1.7286577
alexnet_w1_mlp_simclrhn_probe3,1,47,NaN,oven,airplane,0,0047_sty_dnn_0_airplane_00_airplane-0047-ILSVRC2012-val-00046971.png,airplane-0047-ILSVRC2012-val-00046971.png,0.0,-0.077591196,0.47278893,-0.3891775
alexnet_w1_mlp_simclrhn_probe3,1,48,NaN,oven,airplane,0,0048_sty_dnn_0_airplane_00_airplane-0048-ILSVRC2012-val-00047829.png,airplane-0048-ILSVRC2012-val-00047829.png,0.0,0.16086304,4.145671,-2.817685
alexnet_w1_mlp_simclrhn_probe3,1,49,NaN,bear,airplane,0,0049_sty_dnn_0_airplane_00_airplane-0049-ILSVRC2012-val-00048111.png,airplane-0049-ILSVRC2012-val-00048111.png,0.0,-0.7568265,1.147191,-1.3463438
alexnet_w1_mlp_simclrhn_probe3,1,50,NaN,bear,airplane,0,0050_sty_dnn_0_airplane_00_airplane-0050-ILSVRC2012-val-00049097.png,airplane-0050-ILSVRC2012-val-00049097.png,0.0,0.78043777,1.2818735,-0.3545686
alexnet_w1_mlp_simclrhn_probe3,1,51,NaN,bicycle,bear,0,0051_sty_dnn_0_bear_00_bear-0003-ILSVRC2012-val-00003044.png,bear-0003-ILSVRC2012-val-00003044.png,0.0,-0.17894523,1.7532914,-1.3662976
alexnet_w1_mlp_simclrhn_probe3,1,52,NaN,bicycle,bear,0,0052_sty_dnn_0_bear_00_bear-0005-ILSVRC2012-val-00006703.png,bear-0005-ILSVRC2012-val-00006703.png,0.0,1.0946448,1.1333549,-0.027372187
alexnet_w1_mlp_simclrhn_probe3,1,53,NaN,bicycle,bear,0,0053_sty_dnn_0_bear_00_bear-0009-ILSVRC2012-val-00011967.png,bear-0009-ILSVRC2012-val-00011967.png,0.0,0.043138042,1.6589196,-1.1425301
alexnet_w1_mlp_simclrhn_probe3,1,54,NaN,bear,bear,0,0054_sty_dnn_0_bear_00_bear-0010-ILSVRC2012-val-00013390.png,bear-0010-ILSVRC2012-val-00013390.png,1.0,2.740491,2.3653755,0.26524663
alexnet_w1_mlp_simclrhn_probe3,1,55,NaN,bear,bear,0,0055_sty_dnn_0_bear_00_bear-0021-ILSVRC2012-val-00031253.png,bear-0021-ILSVRC2012-val-00031253.png,1.0,2.274633,1.7945882,0.33944288
alexnet_w1_mlp_simclrhn_probe3,1,56,NaN,clock,bear,0,0056_sty_dnn_0_bear_00_bear-0031-ILSVRC2012-val-00039777.png,bear-0031-ILSVRC2012-val-00039777.png,0.0,-0.5357964,0.87890023,-1.0003417
alexnet_w1_mlp_simclrhn_probe3,1,57,NaN,elephant,bear,0,0057_sty_dnn_0_bear_00_bear-0035-ILSVRC2012-val-00042274.png,bear-0035-ILSVRC2012-val-00042274.png,0.0,0.8329197,2.4936433,-1.1743089
alexnet_w1_mlp_simclrhn_probe3,1,58,NaN,knife,bear,0,0058_sty_dnn_0_bear_00_bear-0043-ILSVRC2012-val-00046763.png,bear-0043-ILSVRC2012-val-00046763.png,0.0,0.03275894,0.5788413,-0.38613856
alexnet_w1_mlp_simclrhn_probe3,1,59,NaN,elephant,bear,0,0059_sty_dnn_0_bear_00_bear-0049-ILSVRC2012-val-00049822.png,bear-0049-ILSVRC2012-val-00049822.png,0.0,0.9743215,2.6949582,-1.216674
alexnet_w1_mlp_simclrhn_probe3,1,60,NaN,elephant,bear,0,0060_sty_dnn_0_bear_00_bear-0052-ILSVRC2012-val-00000865.png,bear-0052-ILSVRC2012-val-00000865.png,0.0,5.700079,6.036932,-0.23819107
alexnet_w1_mlp_simclrhn_probe3,1,61,NaN,chair,bear,0,0061_sty_dnn_0_bear_00_bear-0056-ILSVRC2012-val-00007093.png,bear-0056-ILSVRC2012-val-00007093.png,0.0,-0.87066376,1.7642573,-1.8631706
alexnet_w1_mlp_simclrhn_probe3,1,62,NaN,bear,bear,0,0062_sty_dnn_0_bear_00_bear-0058-ILSVRC2012-val-00011726.png,bear-0058-ILSVRC2012-val-00011726.png,1.0,2.9256659,0.7987062,1.5039877
alexnet_w1_mlp_simclrhn_probe3,1,63,NaN,bear,bear,0,0063_sty_dnn_0_bear_00_bear-0062-ILSVRC2012-val-00014029.png,bear-0062-ILSVRC2012-val-00014029.png,1.0,2.2477443,0.93618757,0.9274107
alexnet_w1_mlp_simclrhn_probe3,1,64,NaN,elephant,bear,0,0064_sty_dnn_0_bear_00_bear-0064-ILSVRC2012-val-00016050.png,bear-0064-ILSVRC2012-val-00016050.png,0.0,-0.34164137,0.644094,-0.6970202
alexnet_w1_mlp_simclrhn_probe3,1,65,NaN,bicycle,bear,0,0065_sty_dnn_0_bear_00_bear-0066-ILSVRC2012-val-00016621.png,bear-0066-ILSVRC2012-val-00016621.png,0.0,-0.20073798,1.316948,-1.0731661
alexnet_w1_mlp_simclrhn_probe3,1,66,NaN,elephant,bear,0,0066_sty_dnn_0_bear_00_bear-0067-ILSVRC2012-val-00017273.png,bear-0067-ILSVRC2012-val-00017273.png,0.0,0.86843807,1.291375,-0.2990616
alexnet_w1_mlp_simclrhn_probe3,1,67,NaN,keyboard,bear,0,0067_sty_dnn_0_bear_00_bear-0069-ILSVRC2012-val-00018788.png,bear-0069-ILSVRC2012-val-00018788.png,0.0,-1.1393282,1.225223,-1.6719902
alexnet_w1_mlp_simclrhn_probe3,1,68,NaN,bear,bear,0,0068_sty_dnn_0_bear_00_bear-0071-ILSVRC2012-val-00020050.png,bear-0071-ILSVRC2012-val-00020050.png,1.0,1.6249241,0.99606144,0.44467303
alexnet_w1_mlp_simclrhn_probe3,1,69,NaN,bicycle,bear,0,0069_sty_dnn_0_bear_00_bear-0073-ILSVRC2012-val-00024289.png,bear-0073-ILSVRC2012-val-00024289.png,0.0,-0.47352487,1.3476571,-1.2877702
alexnet_w1_mlp_simclrhn_probe3,1,70,NaN,bottle,bear,0,0070_sty_dnn_0_bear_00_bear-0074-ILSVRC2012-val-00026962.png,bear-0074-ILSVRC2012-val-00026962.png,0.0,-0.40894303,1.1988281,-1.1368659
alexnet_w1_mlp_simclrhn_probe3,1,71,NaN,cat,bear,0,0071_sty_dnn_0_bear_00_bear-0078-ILSVRC2012-val-00030951.png,bear-0078-ILSVRC2012-val-00030951.png,0.0,-0.37409255,1.5156302,-1.3362359
alexnet_w1_mlp_simclrhn_probe3,1,72,NaN,oven,bear,0,0072_sty_dnn_0_bear_00_bear-0085-ILSVRC2012-val-00035292.png,bear-0085-ILSVRC2012-val-00035292.png,0.0,0.8139929,1.7186271,-0.639673
alexnet_w1_mlp_simclrhn_probe3,1,73,NaN,bicycle,bear,0,0073_sty_dnn_0_bear_00_bear-0091-ILSVRC2012-val-00041813.png,bear-0091-ILSVRC2012-val-00041813.png,0.0,-0.75139076,1.5982343,-1.6614358
alexnet_w1_mlp_simclrhn_probe3,1,74,NaN,elephant,bear,0,0074_sty_dnn_0_bear_00_bear-0094-ILSVRC2012-val-00043648.png,bear-0094-ILSVRC2012-val-00043648.png,0.0,0.5258515,1.4909976,-0.6824613
alexnet_w1_mlp_simclrhn_probe3,1,75,NaN,oven,bear,0,0075_sty_dnn_0_bear_00_bear-0106-ILSVRC2012-val-00007578.png,bear-0106-ILSVRC2012-val-00007578.png,0.0,-0.42002136,2.0294714,-1.7320529
alexnet_w1_mlp_simclrhn_probe3,1,76,NaN,bottle,bear,0,0076_sty_dnn_0_bear_00_bear-0112-ILSVRC2012-val-00016340.png,bear-0112-ILSVRC2012-val-00016340.png,0.0,-0.042231143,1.0985159,-0.80663
alexnet_w1_mlp_simclrhn_probe3,1,77,NaN,bear,bear,0,0077_sty_dnn_0_bear_00_bear-0113-ILSVRC2012-val-00016459.png,bear-0113-ILSVRC2012-val-00016459.png,1.0,2.5383081,1.9402188,0.42291304
alexnet_w1_mlp_simclrhn_probe3,1,78,NaN,elephant,bear,0,0078_sty_dnn_0_bear_00_bear-0114-ILSVRC2012-val-00017605.png,bear-0114-ILSVRC2012-val-00017605.png,0.0,2.8107939,3.5641747,-0.5327207
alexnet_w1_mlp_simclrhn_probe3,1,79,NaN,cat,bear,0,0079_sty_dnn_0_bear_00_bear-0116-ILSVRC2012-val-00020332.png,bear-0116-ILSVRC2012-val-00020332.png,0.0,0.653525,0.7576819,-0.07365006
alexnet_w1_mlp_simclrhn_probe3,1,80,NaN,cat,bear,0,0080_sty_dnn_0_bear_00_bear-0125-ILSVRC2012-val-00028222.png,bear-0125-ILSVRC2012-val-00028222.png,0.0,1.2578558,1.261834,-0.0028130494
alexnet_w1_mlp_simclrhn_probe3,1,81,NaN,oven,bear,0,0081_sty_dnn_0_bear_00_bear-0129-ILSVRC2012-val-00030485.png,bear-0129-ILSVRC2012-val-00030485.png,0.0,0.80859184,2.221246,-0.9988974
alexnet_w1_mlp_simclrhn_probe3,1,82,NaN,cat,bear,0,0082_sty_dnn_0_bear_00_bear-0131-ILSVRC2012-val-00031877.png,bear-0131-ILSVRC2012-val-00031877.png,0.0,0.5591452,0.93801427,-0.26790088
alexnet_w1_mlp_simclrhn_probe3,1,83,NaN,knife,bear,0,0083_sty_dnn_0_bear_00_bear-0132-ILSVRC2012-val-00036763.png,bear-0132-ILSVRC2012-val-00036763.png,0.0,-0.60074276,1.119995,-1.2167453
alexnet_w1_mlp_simclrhn_probe3,1,84,NaN,bicycle,bear,0,0084_sty_dnn_0_bear_00_bear-0139-ILSVRC2012-val-00041156.png,bear-0139-ILSVRC2012-val-00041156.png,0.0,-0.21315259,3.3207512,-2.4988475
alexnet_w1_mlp_simclrhn_probe3,1,85,NaN,elephant,bear,0,0085_sty_dnn_0_bear_00_bear-0141-ILSVRC2012-val-00042320.png,bear-0141-ILSVRC2012-val-00042320.png,0.0,1.4112061,1.9272449,-0.3648945
alexnet_w1_mlp_simclrhn_probe3,1,86,NaN,oven,bear,0,0086_sty_dnn_0_bear_00_bear-0143-ILSVRC2012-val-00044126.png,bear-0143-ILSVRC2012-val-00044126.png,0.0,0.5545916,1.3842723,-0.5866729
alexnet_w1_mlp_simclrhn_probe3,1,87,NaN,knife,bear,0,0087_sty_dnn_0_bear_00_bear-0149-ILSVRC2012-val-00048105.png,bear-0149-ILSVRC2012-val-00048105.png,0.0,-0.22406295,0.94377,-0.82578266
alexnet_w1_mlp_simclrhn_probe3,1,88,NaN,cat,bear,0,0088_sty_dnn_0_bear_00_bear-0154-ILSVRC2012-val-00003499.png,bear-0154-ILSVRC2012-val-00003499.png,0.0,-0.4201649,2.2447436,-1.8843749
alexnet_w1_mlp_simclrhn_probe3,1,89,NaN,knife,bear,0,0089_sty_dnn_0_bear_00_bear-0160-ILSVRC2012-val-00013052.png,bear-0160-ILSVRC2012-val-00013052.png,0.0,-0.14139706,0.7556213,-0.6342878
alexnet_w1_mlp_simclrhn_probe3,1,90,NaN,oven,bear,0,0090_sty_dnn_0_bear_00_bear-0163-ILSVRC2012-val-00016513.png,bear-0163-ILSVRC2012-val-00016513.png,0.0,0.16658038,1.2455206,-0.7629259
alexnet_w1_mlp_simclrhn_probe3,1,91,NaN,bicycle,bear,0,0091_sty_dnn_0_bear_00_bear-0164-ILSVRC2012-val-00018303.png,bear-0164-ILSVRC2012-val-00018303.png,0.0,-0.15416941,1.7519956,-1.3478622
alexnet_w1_mlp_simclrhn_probe3,1,92,NaN,cat,bear,0,0092_sty_dnn_0_bear_00_bear-0165-ILSVRC2012-val-00019901.png,bear-0165-ILSVRC2012-val-00019901.png,0.0,0.6470318,0.7351896,-0.062337004
alexnet_w1_mlp_simclrhn_probe3,1,93,NaN,oven,bear,0,0093_sty_dnn_0_bear_00_bear-0166-ILSVRC2012-val-00022111.png,bear-0166-ILSVRC2012-val-00022111.png,0.0,-0.3717049,0.6157776,-0.6982556
alexnet_w1_mlp_simclrhn_probe3,1,94,NaN,elephant,bear,0,0094_sty_dnn_0_bear_00_bear-0167-ILSVRC2012-val-00022112.png,bear-0167-ILSVRC2012-val-00022112.png,0.0,1.6431739,2.3382902,-0.49152145
alexnet_w1_mlp_simclrhn_probe3,1,95,NaN,elephant,bear,0,0095_sty_dnn_0_bear_00_bear-0168-ILSVRC2012-val-00022698.png,bear-0168-ILSVRC2012-val-00022698.png,0.0,1.9091592,2.5572848,-0.45829406
alexnet_w1_mlp_simclrhn_probe3,1,96,NaN,oven,bear,0,0096_sty_dnn_0_bear_00_bear-0180-ILSVRC2012-val-00034637.png,bear-0180-ILSVRC2012-val-00034637.png,0.0,0.81830454,2.6903837,-1.3237599
alexnet_w1_mlp_simclrhn_probe3,1,97,NaN,oven,bear,0,0097_sty_dnn_0_bear_00_bear-0184-ILSVRC2012-val-00038961.png,bear-0184-ILSVRC2012-val-00038961.png,0.0,-0.46460187,3.7357852,-2.970122
alexnet_w1_mlp_simclrhn_probe3,1,98,NaN,bottle,bear,0,0098_sty_dnn_0_bear_00_bear-0188-ILSVRC2012-val-00043016.png,bear-0188-ILSVRC2012-val-00043016.png,0.0,-0.39240092,1.0920919,-1.0496949
alexnet_w1_mlp_simclrhn_probe3,1,99,NaN,clock,bear,0,0099_sty_dnn_0_bear_00_bear-0191-ILSVRC2012-val-00044349.png,bear-0191-ILSVRC2012-val-00044349.png,0.0,-0.6868082,0.39507607,-0.76500773
alexnet_w1_mlp_simclrhn_probe3,1,100,NaN,elephant,bear,0,0100_sty_dnn_0_bear_00_bear-0195-ILSVRC2012-val-00045672.png,bear-0195-ILSVRC2012-val-00045672.png,0.0,0.6694859,1.1901331,-0.36815315
alexnet_w1_mlp_simclrhn_probe3,1,101,NaN,clock,bicycle,0,0101_sty_dnn_0_bicycle_00_bicycle-0005-ILSVRC2012-val-00005274.png,bicycle-0005-ILSVRC2012-val-00005274.png,0.0,-0.34917796,0.8033998,-0.8149956
alexnet_w1_mlp_simclrhn_probe3,1,102,NaN,bear,bicycle,0,0102_sty_dnn_0_bicycle_00_bicycle-0007-ILSVRC2012-val-00006395.png,bicycle-0007-ILSVRC2012-val-00006395.png,0.0,-0.1266993,2.4802756,-1.8434097
alexnet_w1_mlp_simclrhn_probe3,1,103,NaN,bicycle,bicycle,0,0103_sty_dnn_0_bicycle_00_bicycle-0008-ILSVRC2012-val-00008007.png,bicycle-0008-ILSVRC2012-val-00008007.png,1.0,0.64486396,0.2427972,0.28430414
alexnet_w1_mlp_simclrhn_probe3,1,104,NaN,bicycle,bicycle,0,0104_sty_dnn_0_bicycle_00_bicycle-0010-ILSVRC2012-val-00010544.png,bicycle-0010-ILSVRC2012-val-00010544.png,1.0,5.0397344,3.2991881,1.2307521
alexnet_w1_mlp_simclrhn_probe3,1,105,NaN,bottle,bicycle,0,0105_sty_dnn_0_bicycle_00_bicycle-0011-ILSVRC2012-val-00011821.png,bicycle-0011-ILSVRC2012-val-00011821.png,0.0,-0.8383541,0.22941516,-0.75502694
alexnet_w1_mlp_simclrhn_probe3,1,106,NaN,bicycle,bicycle,0,0106_sty_dnn_0_bicycle_00_bicycle-0013-ILSVRC2012-val-00012667.png,bicycle-0013-ILSVRC2012-val-00012667.png,1.0,5.5544825,0.48862243,3.582104
alexnet_w1_mlp_simclrhn_probe3,1,107,NaN,bottle,bicycle,0,0107_sty_dnn_0_bicycle_00_bicycle-0014-ILSVRC2012-val-00015483.png,bicycle-0014-ILSVRC2012-val-00015483.png,0.0,-0.14234099,0.675512,-0.5783094
alexnet_w1_mlp_simclrhn_probe3,1,108,NaN,bicycle,bicycle,0,0108_sty_dnn_0_bicycle_00_bicycle-0015-ILSVRC2012-val-00015618.png,bicycle-0015-ILSVRC2012-val-00015618.png,1.0,2.552238,0.49086836,1.4576085
alexnet_w1_mlp_simclrhn_probe3,1,109,NaN,elephant,bicycle,0,0109_sty_dnn_0_bicycle_00_bicycle-0016-ILSVRC2012-val-00016532.png,bicycle-0016-ILSVRC2012-val-00016532.png,0.0,-0.63596624,1.7180864,-1.6645665
alexnet_w1_mlp_simclrhn_probe3,1,110,NaN,bicycle,bicycle,0,0110_sty_dnn_0_bicycle_00_bicycle-0018-ILSVRC2012-val-00018975.png,bicycle-0018-ILSVRC2012-val-00018975.png,1.0,2.9289534,0.47486448,1.7353029
alexnet_w1_mlp_simclrhn_probe3,1,111,NaN,bicycle,bicycle,0,0111_sty_dnn_0_bicycle_00_bicycle-0020-ILSVRC2012-val-00022027.png,bicycle-0020-ILSVRC2012-val-00022027.png,1.0,2.8811455,2.4703646,0.29046598
alexnet_w1_mlp_simclrhn_probe3,1,112,NaN,bicycle,bicycle,0,0112_sty_dnn_0_bicycle_00_bicycle-0022-ILSVRC2012-val-00023266.png,bicycle-0022-ILSVRC2012-val-00023266.png,1.0,2.1925144,1.4585412,0.5189975
alexnet_w1_mlp_simclrhn_probe3,1,113,NaN,oven,bicycle,0,0113_sty_dnn_0_bicycle_00_bicycle-0024-ILSVRC2012-val-00025915.png,bicycle-0024-ILSVRC2012-val-00025915.png,0.0,-1.1405245,2.2674143,-2.4097767
alexnet_w1_mlp_simclrhn_probe3,1,114,NaN,bicycle,bicycle,0,0114_sty_dnn_0_bicycle_00_bicycle-0026-ILSVRC2012-val-00026292.png,bicycle-0026-ILSVRC2012-val-00026292.png,1.0,2.273221,0.72316134,1.0960578
alexnet_w1_mlp_simclrhn_probe3,1,115,NaN,keyboard,bicycle,0,0115_sty_dnn_0_bicycle_00_bicycle-0030-ILSVRC2012-val-00027620.png,bicycle-0030-ILSVRC2012-val-00027620.png,0.0,-0.29544106,1.4465184,-1.2317513
alexnet_w1_mlp_simclrhn_probe3,1,116,NaN,airplane,bicycle,0,0116_sty_dnn_0_bicycle_00_bicycle-0032-ILSVRC2012-val-00030070.png,bicycle-0032-ILSVRC2012-val-00030070.png,0.0,-0.74092203,1.1218177,-1.317156
alexnet_w1_mlp_simclrhn_probe3,1,117,NaN,bicycle,bicycle,0,0117_sty_dnn_0_bicycle_00_bicycle-0033-ILSVRC2012-val-00031498.png,bicycle-0033-ILSVRC2012-val-00031498.png,1.0,1.16668,0.28673065,0.62221813
alexnet_w1_mlp_simclrhn_probe3,1,118,NaN,bicycle,bicycle,0,0118_sty_dnn_0_bicycle_00_bicycle-0035-ILSVRC2012-val-00033559.png,bicycle-0035-ILSVRC2012-val-00033559.png,1.0,6.0292845,1.4122992,3.2647016
alexnet_w1_mlp_simclrhn_probe3,1,119,NaN,bicycle,bicycle,0,0119_sty_dnn_0_bicycle_00_bicycle-0037-ILSVRC2012-val-00036009.png,bicycle-0037-ILSVRC2012-val-00036009.png,1.0,2.950098,2.1944718,0.53430843
alexnet_w1_mlp_simclrhn_probe3,1,120,NaN,chair,bicycle,0,0120_sty_dnn_0_bicycle_00_bicycle-0038-ILSVRC2012-val-00036903.png,bicycle-0038-ILSVRC2012-val-00036903.png,0.0,-0.58426225,1.5424078,-1.5037827
alexnet_w1_mlp_simclrhn_probe3,1,121,NaN,bicycle,bicycle,0,0121_sty_dnn_0_bicycle_00_bicycle-0039-ILSVRC2012-val-00037292.png,bicycle-0039-ILSVRC2012-val-00037292.png,1.0,4.7227306,2.165204,1.8084444
alexnet_w1_mlp_simclrhn_probe3,1,122,NaN,bicycle,bicycle,0,0122_sty_dnn_0_bicycle_00_bicycle-0040-ILSVRC2012-val-00037433.png,bicycle-0040-ILSVRC2012-val-00037433.png,1.0,2.239245,0.7156595,1.0773376
alexnet_w1_mlp_simclrhn_probe3,1,123,NaN,bicycle,bicycle,0,0123_sty_dnn_0_bicycle_00_bicycle-0043-ILSVRC2012-val-00038415.png,bicycle-0043-ILSVRC2012-val-00038415.png,1.0,1.6762072,0.93930316,0.5210698
alexnet_w1_mlp_simclrhn_probe3,1,124,NaN,oven,bicycle,0,0124_sty_dnn_0_bicycle_00_bicycle-0044-ILSVRC2012-val-00040027.png,bicycle-0044-ILSVRC2012-val-00040027.png,0.0,0.82784057,2.064508,-0.8744559
alexnet_w1_mlp_simclrhn_probe3,1,125,NaN,bicycle,bicycle,0,0125_sty_dnn_0_bicycle_00_bicycle-0046-ILSVRC2012-val-00042496.png,bicycle-0046-ILSVRC2012-val-00042496.png,1.0,0.897951,0.86126524,0.025940754
alexnet_w1_mlp_simclrhn_probe3,1,126,NaN,bicycle,bicycle,0,0126_sty_dnn_0_bicycle_00_bicycle-0047-ILSVRC2012-val-00043435.png,bicycle-0047-ILSVRC2012-val-00043435.png,1.0,4.029553,1.9353933,1.4807944
alexnet_w1_mlp_simclrhn_probe3,1,127,NaN,bicycle,bicycle,0,0127_sty_dnn_0_bicycle_00_bicycle-0048-ILSVRC2012-val-00045400.png,bicycle-0048-ILSVRC2012-val-00045400.png,1.0,1.6254833,1.4440762,0.12827419
alexnet_w1_mlp_simclrhn_probe3,1,128,NaN,oven,bicycle,0,0128_sty_dnn_0_bicycle_00_bicycle-0050-ILSVRC2012-val-00049382.png,bicycle-0050-ILSVRC2012-val-00049382.png,0.0,0.03643432,0.8538078,-0.5779704
alexnet_w1_mlp_simclrhn_probe3,1,129,NaN,bicycle,bicycle,0,0129_sty_dnn_0_bicycle_00_bicycle-0054-ILSVRC2012-val-00004147.png,bicycle-0054-ILSVRC2012-val-00004147.png,1.0,2.5535512,0.7790434,1.2547665
alexnet_w1_mlp_simclrhn_probe3,1,130,NaN,cat,bicycle,0,0130_sty_dnn_0_bicycle_00_bicycle-0056-ILSVRC2012-val-00005330.png,bicycle-0056-ILSVRC2012-val-00005330.png,0.0,0.5572573,0.58920926,-0.022593452
alexnet_w1_mlp_simclrhn_probe3,1,131,NaN,bicycle,bicycle,0,0131_sty_dnn_0_bicycle_00_bicycle-0059-ILSVRC2012-val-00011329.png,bicycle-0059-ILSVRC2012-val-00011329.png,1.0,2.472413,0.3724166,1.4849218
alexnet_w1_mlp_simclrhn_probe3,1,132,NaN,bicycle,bicycle,0,0132_sty_dnn_0_bicycle_00_bicycle-0060-ILSVRC2012-val-00011330.png,bicycle-0060-ILSVRC2012-val-00011330.png,1.0,2.0682173,1.1954435,0.6171443
alexnet_w1_mlp_simclrhn_probe3,1,133,NaN,bicycle,bicycle,0,0133_sty_dnn_0_bicycle_00_bicycle-0061-ILSVRC2012-val-00012096.png,bicycle-0061-ILSVRC2012-val-00012096.png,1.0,1.1946433,1.086916,0.0761747
alexnet_w1_mlp_simclrhn_probe3,1,134,NaN,oven,bicycle,0,0134_sty_dnn_0_bicycle_00_bicycle-0062-ILSVRC2012-val-00015867.png,bicycle-0062-ILSVRC2012-val-00015867.png,0.0,0.035083324,1.2496152,-0.85880375
alexnet_w1_mlp_simclrhn_probe3,1,135,NaN,bicycle,bicycle,0,0135_sty_dnn_0_bicycle_00_bicycle-0064-ILSVRC2012-val-00017103.png,bicycle-0064-ILSVRC2012-val-00017103.png,1.0,3.913032,3.2832382,0.44533154
alexnet_w1_mlp_simclrhn_probe3,1,136,NaN,cat,bicycle,0,0136_sty_dnn_0_bicycle_00_bicycle-0067-ILSVRC2012-val-00018304.png,bicycle-0067-ILSVRC2012-val-00018304.png,0.0,-0.061180204,0.30974993,-0.26228723
alexnet_w1_mlp_simclrhn_probe3,1,137,NaN,bear,bicycle,0,0137_sty_dnn_0_bicycle_00_bicycle-0070-ILSVRC2012-val-00020631.png,bicycle-0070-ILSVRC2012-val-00020631.png,0.0,-0.42495728,1.6597286,-1.4740955
alexnet_w1_mlp_simclrhn_probe3,1,138,NaN,bicycle,bicycle,0,0138_sty_dnn_0_bicycle_00_bicycle-0073-ILSVRC2012-val-00027449.png,bicycle-0073-ILSVRC2012-val-00027449.png,1.0,0.52536666,0.03368209,0.3476735
alexnet_w1_mlp_simclrhn_probe3,1,139,NaN,knife,bicycle,0,0139_sty_dnn_0_bicycle_00_bicycle-0074-ILSVRC2012-val-00028824.png,bicycle-0074-ILSVRC2012-val-00028824.png,0.0,0.48352557,0.7210401,-0.16794816
alexnet_w1_mlp_simclrhn_probe3,1,140,NaN,bicycle,bicycle,0,0140_sty_dnn_0_bicycle_00_bicycle-0077-ILSVRC2012-val-00030112.png,bicycle-0077-ILSVRC2012-val-00030112.png,1.0,2.1890678,1.0175562,0.82838386
alexnet_w1_mlp_simclrhn_probe3,1,141,NaN,bicycle,bicycle,0,0141_sty_dnn_0_bicycle_00_bicycle-0078-ILSVRC2012-val-00030892.png,bicycle-0078-ILSVRC2012-val-00030892.png,1.0,4.2081,2.6476498,1.1034049
alexnet_w1_mlp_simclrhn_probe3,1,142,NaN,bicycle,bicycle,0,0142_sty_dnn_0_bicycle_00_bicycle-0079-ILSVRC2012-val-00031485.png,bicycle-0079-ILSVRC2012-val-00031485.png,1.0,0.56328905,0.5014056,0.043758206
alexnet_w1_mlp_simclrhn_probe3,1,143,NaN,cat,bicycle,0,0143_sty_dnn_0_bicycle_00_bicycle-0080-ILSVRC2012-val-00032009.png,bicycle-0080-ILSVRC2012-val-00032009.png,0.0,-0.06295602,0.43320978,-0.3508422
alexnet_w1_mlp_simclrhn_probe3,1,144,NaN,bicycle,bicycle,0,0144_sty_dnn_0_bicycle_00_bicycle-0081-ILSVRC2012-val-00032967.png,bicycle-0081-ILSVRC2012-val-00032967.png,1.0,2.3204725,0.88226056,1.0169694
alexnet_w1_mlp_simclrhn_probe3,1,145,NaN,bicycle,bicycle,0,0145_sty_dnn_0_bicycle_00_bicycle-0085-ILSVRC2012-val-00037438.png,bicycle-0085-ILSVRC2012-val-00037438.png,1.0,2.1430228,1.2920322,0.6017412
alexnet_w1_mlp_simclrhn_probe3,1,146,NaN,bicycle,bicycle,0,0146_sty_dnn_0_bicycle_00_bicycle-0089-ILSVRC2012-val-00042393.png,bicycle-0089-ILSVRC2012-val-00042393.png,1.0,2.8339975,0.39723286,1.7230529
alexnet_w1_mlp_simclrhn_probe3,1,147,NaN,cat,bicycle,0,0147_sty_dnn_0_bicycle_00_bicycle-0092-ILSVRC2012-val-00043207.png,bicycle-0092-ILSVRC2012-val-00043207.png,0.0,0.5490431,1.5916678,-0.737247
alexnet_w1_mlp_simclrhn_probe3,1,148,NaN,bicycle,bicycle,0,0148_sty_dnn_0_bicycle_00_bicycle-0094-ILSVRC2012-val-00044080.png,bicycle-0094-ILSVRC2012-val-00044080.png,1.0,9.22134,2.839147,4.5128922
alexnet_w1_mlp_simclrhn_probe3,1,149,NaN,bicycle,bicycle,0,0149_sty_dnn_0_bicycle_00_bicycle-0096-ILSVRC2012-val-00045152.png,bicycle-0096-ILSVRC2012-val-00045152.png,1.0,2.689944,0.94026613,1.2372091
alexnet_w1_mlp_simclrhn_probe3,1,150,NaN,bicycle,bicycle,0,0150_sty_dnn_0_bicycle_00_bicycle-0100-ILSVRC2012-val-00049750.png,bicycle-0100-ILSVRC2012-val-00049750.png,1.0,2.3200846,1.2430743,0.7615613
alexnet_w1_mlp_simclrhn_probe3,1,151,NaN,bicycle,bird,0,0151_sty_dnn_0_bird_00_bird-0009-ILSVRC2012-val-00007530.png,bird-0009-ILSVRC2012-val-00007530.png,0.0,-0.6754546,1.6648977,-1.654879
alexnet_w1_mlp_simclrhn_probe3,1,152,NaN,bicycle,bird,0,0152_sty_dnn_0_bird_00_bird-0045-ILSVRC2012-val-00045547.png,bird-0045-ILSVRC2012-val-00045547.png,0.0,-0.15511033,1.1636128,-0.93247813
alexnet_w1_mlp_simclrhn_probe3,1,153,NaN,elephant,bird,0,0153_sty_dnn_0_bird_00_bird-0119-ILSVRC2012-val-00016252.png,bird-0119-ILSVRC2012-val-00016252.png,0.0,0.8886488,0.89793825,-0.006568629
alexnet_w1_mlp_simclrhn_probe3,1,154,NaN,oven,bird,0,0154_sty_dnn_0_bird_00_bird-0122-ILSVRC2012-val-00019236.png,bird-0122-ILSVRC2012-val-00019236.png,0.0,-0.14323603,1.6302023,-1.2540103
alexnet_w1_mlp_simclrhn_probe3,1,155,NaN,bear,bird,0,0155_sty_dnn_0_bird_00_bird-0157-ILSVRC2012-val-00005336.png,bird-0157-ILSVRC2012-val-00005336.png,0.0,0.90676755,0.98821545,-0.057592362
alexnet_w1_mlp_simclrhn_probe3,1,156,NaN,clock,bird,0,0156_sty_dnn_0_bird_00_bird-0175-ILSVRC2012-val-00018699.png,bird-0175-ILSVRC2012-val-00018699.png,0.0,-0.9234163,1.2754388,-1.5548254
alexnet_w1_mlp_simclrhn_probe3,1,157,NaN,bottle,bird,0,0157_sty_dnn_0_bird_00_bird-0228-ILSVRC2012-val-00017712.png,bird-0228-ILSVRC2012-val-00017712.png,0.0,0.12805311,0.7778379,-0.4594672
alexnet_w1_mlp_simclrhn_probe3,1,158,NaN,chair,bird,0,0158_sty_dnn_0_bird_00_bird-0238-ILSVRC2012-val-00030657.png,bird-0238-ILSVRC2012-val-00030657.png,0.0,-0.6599386,1.5885675,-1.5899339
alexnet_w1_mlp_simclrhn_probe3,1,159,NaN,elephant,bird,0,0159_sty_dnn_0_bird_00_bird-0426-ILSVRC2012-val-00030017.png,bird-0426-ILSVRC2012-val-00030017.png,0.0,0.30461273,2.912675,-1.8441786
alexnet_w1_mlp_simclrhn_probe3,1,160,NaN,oven,bird,0,0160_sty_dnn_0_bird_00_bird-0486-ILSVRC2012-val-00037420.png,bird-0486-ILSVRC2012-val-00037420.png,0.0,-0.13685231,2.2561078,-1.6920784
alexnet_w1_mlp_simclrhn_probe3,1,161,NaN,bear,bird,0,0161_sty_dnn_0_bird_00_bird-0513-ILSVRC2012-val-00013223.png,bird-0513-ILSVRC2012-val-00013223.png,0.0,-0.57298577,2.4474137,-2.135745
alexnet_w1_mlp_simclrhn_probe3,1,162,NaN,bicycle,bird,0,0162_sty_dnn_0_bird_00_bird-0522-ILSVRC2012-val-00020730.png,bird-0522-ILSVRC2012-val-00020730.png,0.0,0.035947006,0.75620663,-0.5093005
alexnet_w1_mlp_simclrhn_probe3,1,163,NaN,bird,bird,0,0163_sty_dnn_0_bird_00_bird-0532-ILSVRC2012-val-00028181.png,bird-0532-ILSVRC2012-val-00028181.png,1.0,1.5184041,0.5325683,0.6970912
alexnet_w1_mlp_simclrhn_probe3,1,164,NaN,oven,bird,0,0164_sty_dnn_0_bird_00_bird-0624-ILSVRC2012-val-00024514.png,bird-0624-ILSVRC2012-val-00024514.png,0.0,-0.26138592,2.7138658,-2.1038206
alexnet_w1_mlp_simclrhn_probe3,1,165,NaN,bear,bird,0,0165_sty_dnn_0_bird_00_bird-0701-ILSVRC2012-val-00000075.png,bird-0701-ILSVRC2012-val-00000075.png,0.0,0.8002994,2.568108,-1.2500296
alexnet_w1_mlp_simclrhn_probe3,1,166,NaN,bird,bird,0,0166_sty_dnn_0_bird_00_bird-0752-ILSVRC2012-val-00001596.png,bird-0752-ILSVRC2012-val-00001596.png,1.0,0.7848747,0.43082654,0.25034985
alexnet_w1_mlp_simclrhn_probe3,1,167,NaN,cat,bird,0,0167_sty_dnn_0_bird_00_bird-0754-ILSVRC2012-val-00002846.png,bird-0754-ILSVRC2012-val-00002846.png,0.0,0.21855165,0.64304066,-0.30015907
alexnet_w1_mlp_simclrhn_probe3,1,168,NaN,oven,bird,0,0168_sty_dnn_0_bird_00_bird-0822-ILSVRC2012-val-00025200.png,bird-0822-ILSVRC2012-val-00025200.png,0.0,-0.27295154,0.9699924,-0.87889415
alexnet_w1_mlp_simclrhn_probe3,1,169,NaN,clock,bird,0,0169_sty_dnn_0_bird_00_bird-0896-ILSVRC2012-val-00046621.png,bird-0896-ILSVRC2012-val-00046621.png,0.0,-0.39011192,0.3983825,-0.5575498
alexnet_w1_mlp_simclrhn_probe3,1,170,NaN,oven,bird,0,0170_sty_dnn_0_bird_00_bird-0995-ILSVRC2012-val-00046534.png,bird-0995-ILSVRC2012-val-00046534.png,0.0,-0.31147966,2.1235743,-1.7218431
alexnet_w1_mlp_simclrhn_probe3,1,171,NaN,oven,bird,0,0171_sty_dnn_0_bird_00_bird-1052-ILSVRC2012-val-00003884.png,bird-1052-ILSVRC2012-val-00003884.png,0.0,-0.14283814,1.848828,-1.4083207
alexnet_w1_mlp_simclrhn_probe3,1,172,NaN,oven,bird,0,0172_sty_dnn_0_bird_00_bird-1093-ILSVRC2012-val-00044082.png,bird-1093-ILSVRC2012-val-00044082.png,0.0,-0.16836844,1.4363117,-1.1346803
alexnet_w1_mlp_simclrhn_probe3,1,173,NaN,bicycle,bird,0,0173_sty_dnn_0_bird_00_bird-1172-ILSVRC2012-val-00022442.png,bird-1172-ILSVRC2012-val-00022442.png,0.0,0.3121884,1.2259572,-0.6461321
alexnet_w1_mlp_simclrhn_probe3,1,174,NaN,cat,bird,0,0174_sty_dnn_0_bird_00_bird-1188-ILSVRC2012-val-00040014.png,bird-1188-ILSVRC2012-val-00040014.png,0.0,0.03904211,1.1646858,-0.79595035
alexnet_w1_mlp_simclrhn_probe3,1,175,NaN,bear,bird,0,0175_sty_dnn_0_bird_00_bird-1198-ILSVRC2012-val-00048142.png,bird-1198-ILSVRC2012-val-00048142.png,0.0,-0.71382594,1.8744276,-1.8301716
alexnet_w1_mlp_simclrhn_probe3,1,176,NaN,chair,bird,0,0176_sty_dnn_0_bird_00_bird-1256-ILSVRC2012-val-00005779.png,bird-1256-ILSVRC2012-val-00005779.png,0.0,-0.1760339,1.8496538,-1.4323776
alexnet_w1_mlp_simclrhn_probe3,1,177,NaN,oven,bird,0,0177_sty_dnn_0_bird_00_bird-1274-ILSVRC2012-val-00025449.png,bird-1274-ILSVRC2012-val-00025449.png,0.0,-0.9082957,1.7802337,-1.9010775
alexnet_w1_mlp_simclrhn_probe3,1,178,NaN,elephant,bird,0,0178_sty_dnn_0_bird_00_bird-1326-ILSVRC2012-val-00025658.png,bird-1326-ILSVRC2012-val-00025658.png,0.0,0.07540109,0.8664082,-0.5593265
alexnet_w1_mlp_simclrhn_probe3,1,179,NaN,knife,bird,0,0179_sty_dnn_0_bird_00_bird-1394-ILSVRC2012-val-00040051.png,bird-1394-ILSVRC2012-val-00040051.png,0.0,0.6873497,0.91651165,-0.16204199
alexnet_w1_mlp_simclrhn_probe3,1,180,NaN,elephant,bird,0,0180_sty_dnn_0_bird_00_bird-1452-ILSVRC2012-val-00002997.png,bird-1452-ILSVRC2012-val-00002997.png,0.0,0.12944072,0.9376192,-0.5714685
alexnet_w1_mlp_simclrhn_probe3,1,181,NaN,bicycle,bird,0,0181_sty_dnn_0_bird_00_bird-1551-ILSVRC2012-val-00000690.png,bird-1551-ILSVRC2012-val-00000690.png,0.0,1.2923174,1.5973549,-0.21569408
alexnet_w1_mlp_simclrhn_probe3,1,182,NaN,bottle,bird,0,0182_sty_dnn_0_bird_00_bird-1646-ILSVRC2012-val-00039398.png,bird-1646-ILSVRC2012-val-00039398.png,0.0,-0.04781642,1.2082036,-0.88814026
alexnet_w1_mlp_simclrhn_probe3,1,183,NaN,bicycle,bird,0,0183_sty_dnn_0_bird_00_bird-1861-ILSVRC2012-val-00007811.png,bird-1861-ILSVRC2012-val-00007811.png,0.0,0.41395125,0.47779545,-0.04514467
alexnet_w1_mlp_simclrhn_probe3,1,184,NaN,bicycle,bird,0,0184_sty_dnn_0_bird_00_bird-1865-ILSVRC2012-val-00009672.png,bird-1865-ILSVRC2012-val-00009672.png,0.0,0.8284583,2.4616692,-1.1548545
alexnet_w1_mlp_simclrhn_probe3,1,185,NaN,bear,bird,0,0185_sty_dnn_0_bird_00_bird-1913-ILSVRC2012-val-00012475.png,bird-1913-ILSVRC2012-val-00012475.png,0.0,-0.28588533,0.67915815,-0.6823888
alexnet_w1_mlp_simclrhn_probe3,1,186,NaN,bear,bird,0,0186_sty_dnn_0_bird_00_bird-1941-ILSVRC2012-val-00042829.png,bird-1941-ILSVRC2012-val-00042829.png,0.0,0.5928354,0.9902921,-0.2810443
alexnet_w1_mlp_simclrhn_probe3,1,187,NaN,bear,bird,0,0187_sty_dnn_0_bird_00_bird-1971-ILSVRC2012-val-00023024.png,bird-1971-ILSVRC2012-val-00023024.png,0.0,-0.6940402,3.038646,-2.6394076
alexnet_w1_mlp_simclrhn_probe3,1,188,NaN,bicycle,bird,0,0188_sty_dnn_0_bird_00_bird-2011-ILSVRC2012-val-00008842.png,bird-2011-ILSVRC2012-val-00008842.png,0.0,-0.5370814,0.7837337,-0.93395734
alexnet_w1_mlp_simclrhn_probe3,1,189,NaN,bear,bird,0,0189_sty_dnn_0_bird_00_bird-2082-ILSVRC2012-val-00036457.png,bird-2082-ILSVRC2012-val-00036457.png,0.0,-0.118027635,0.8953073,-0.71653605
alexnet_w1_mlp_simclrhn_probe3,1,190,NaN,chair,bird,0,0190_sty_dnn_0_bird_00_bird-2118-ILSVRC2012-val-00021926.png,bird-2118-ILSVRC2012-val-00021926.png,0.0,-0.42603007,2.2417736,-1.8864222
alexnet_w1_mlp_simclrhn_probe3,1,191,NaN,oven,bird,0,0191_sty_dnn_0_bird_00_bird-2144-ILSVRC2012-val-00044377.png,bird-2144-ILSVRC2012-val-00044377.png,0.0,-0.28534955,1.4488264,-1.2262475
alexnet_w1_mlp_simclrhn_probe3,1,192,NaN,oven,bird,0,0192_sty_dnn_0_bird_00_bird-2178-ILSVRC2012-val-00026510.png,bird-2178-ILSVRC2012-val-00026510.png,0.0,-0.4367218,0.76717764,-0.85128546
alexnet_w1_mlp_simclrhn_probe3,1,193,NaN,oven,bird,0,0193_sty_dnn_0_bird_00_bird-2184-ILSVRC2012-val-00034910.png,bird-2184-ILSVRC2012-val-00034910.png,0.0,0.30497816,2.3291507,-1.4313061
alexnet_w1_mlp_simclrhn_probe3,1,194,NaN,keyboard,bird,0,0194_sty_dnn_0_bird_00_bird-2221-ILSVRC2012-val-00014977.png,bird-2221-ILSVRC2012-val-00014977.png,0.0,-1.0106397,1.3525556,-1.6710316
alexnet_w1_mlp_simclrhn_probe3,1,195,NaN,oven,bird,0,0195_sty_dnn_0_bird_00_bird-2222-ILSVRC2012-val-00015392.png,bird-2222-ILSVRC2012-val-00015392.png,0.0,1.3807728,1.9020544,-0.36860177
alexnet_w1_mlp_simclrhn_probe3,1,196,NaN,oven,bird,0,0196_sty_dnn_0_bird_00_bird-2248-ILSVRC2012-val-00044992.png,bird-2248-ILSVRC2012-val-00044992.png,0.0,-1.0135314,1.4844656,-1.7663506
alexnet_w1_mlp_simclrhn_probe3,1,197,NaN,bird,bird,0,0197_sty_dnn_0_bird_00_bird-2322-ILSVRC2012-val-00023492.png,bird-2322-ILSVRC2012-val-00023492.png,1.0,0.7751833,0.14156894,0.448033
alexnet_w1_mlp_simclrhn_probe3,1,198,NaN,elephant,bird,0,0198_sty_dnn_0_bird_00_bird-2405-ILSVRC2012-val-00007988.png,bird-2405-ILSVRC2012-val-00007988.png,0.0,-0.15722488,1.6094584,-1.2492338
alexnet_w1_mlp_simclrhn_probe3,1,199,NaN,elephant,bird,0,0199_sty_dnn_0_bird_00_bird-2410-ILSVRC2012-val-00010355.png,bird-2410-ILSVRC2012-val-00010355.png,0.0,-0.055823315,3.2767875,-2.3565118
alexnet_w1_mlp_simclrhn_probe3,1,200,NaN,bear,bird,0,0200_sty_dnn_0_bird_00_bird-2433-ILSVRC2012-val-00028670.png,bird-2433-ILSVRC2012-val-00028670.png,0.0,-0.57785404,2.2405457,-1.9929097
alexnet_w1_mlp_simclrhn_probe3,1,201,NaN,bicycle,boat,0,0201_sty_dnn_0_boat_00_boat-0005-ILSVRC2012-val-00004909.png,boat-0005-ILSVRC2012-val-00004909.png,0.0,-0.065195285,1.6899722,-1.2410909
alexnet_w1_mlp_simclrhn_probe3,1,202,NaN,elephant,boat,0,0202_sty_dnn_0_boat_00_boat-0011-ILSVRC2012-val-00011563.png,boat-0011-ILSVRC2012-val-00011563.png,0.0,-0.31754205,1.1753545,-1.0556372
alexnet_w1_mlp_simclrhn_probe3,1,203,NaN,bicycle,boat,0,0203_sty_dnn_0_boat_00_boat-0026-ILSVRC2012-val-00026341.png,boat-0026-ILSVRC2012-val-00026341.png,0.0,0.56263316,1.755177,-0.8432559
alexnet_w1_mlp_simclrhn_probe3,1,204,NaN,oven,boat,0,0204_sty_dnn_0_boat_00_boat-0033-ILSVRC2012-val-00030824.png,boat-0033-ILSVRC2012-val-00030824.png,0.0,0.32378083,1.0326607,-0.5012538
alexnet_w1_mlp_simclrhn_probe3,1,205,NaN,elephant,boat,0,0205_sty_dnn_0_boat_00_boat-0036-ILSVRC2012-val-00032433.png,boat-0036-ILSVRC2012-val-00032433.png,0.0,0.13485214,1.5343609,-0.98960215
alexnet_w1_mlp_simclrhn_probe3,1,206,NaN,bear,boat,0,0206_sty_dnn_0_boat_00_boat-0039-ILSVRC2012-val-00033883.png,boat-0039-ILSVRC2012-val-00033883.png,0.0,0.5280849,1.4839456,-0.67589563
alexnet_w1_mlp_simclrhn_probe3,1,207,NaN,bear,boat,0,0207_sty_dnn_0_boat_00_boat-0042-ILSVRC2012-val-00039945.png,boat-0042-ILSVRC2012-val-00039945.png,0.0,0.03760499,3.2471948,-2.2695227
alexnet_w1_mlp_simclrhn_probe3,1,208,NaN,bear,boat,0,0208_sty_dnn_0_boat_00_boat-0044-ILSVRC2012-val-00041227.png,boat-0044-ILSVRC2012-val-00041227.png,0.0,0.38803178,0.94701886,-0.39526355
alexnet_w1_mlp_simclrhn_probe3,1,209,NaN,oven,boat,0,0209_sty_dnn_0_boat_00_boat-0048-ILSVRC2012-val-00046387.png,boat-0048-ILSVRC2012-val-00046387.png,0.0,0.42820063,1.9857366,-1.1013443
alexnet_w1_mlp_simclrhn_probe3,1,210,NaN,elephant,boat,0,0210_sty_dnn_0_boat_00_boat-0053-ILSVRC2012-val-00005918.png,boat-0053-ILSVRC2012-val-00005918.png,0.0,-0.1426297,0.5240925,-0.47144377
alexnet_w1_mlp_simclrhn_probe3,1,211,NaN,oven,boat,0,0211_sty_dnn_0_boat_00_boat-0061-ILSVRC2012-val-00011292.png,boat-0061-ILSVRC2012-val-00011292.png,0.0,0.24881597,1.097405,-0.60004306
alexnet_w1_mlp_simclrhn_probe3,1,212,NaN,bottle,boat,0,0212_sty_dnn_0_boat_00_boat-0064-ILSVRC2012-val-00013366.png,boat-0064-ILSVRC2012-val-00013366.png,0.0,-0.28338096,0.5342839,-0.5781764
alexnet_w1_mlp_simclrhn_probe3,1,213,NaN,bicycle,boat,0,0213_sty_dnn_0_boat_00_boat-0066-ILSVRC2012-val-00013961.png,boat-0066-ILSVRC2012-val-00013961.png,0.0,-0.35069823,1.9429843,-1.6218785
alexnet_w1_mlp_simclrhn_probe3,1,214,NaN,elephant,boat,0,0214_sty_dnn_0_boat_00_boat-0070-ILSVRC2012-val-00017026.png,boat-0070-ILSVRC2012-val-00017026.png,0.0,-0.4096784,1.7380427,-1.5186682
alexnet_w1_mlp_simclrhn_probe3,1,215,NaN,bear,boat,0,0215_sty_dnn_0_boat_00_boat-0073-ILSVRC2012-val-00018158.png,boat-0073-ILSVRC2012-val-00018158.png,0.0,-0.05375554,0.35005286,-0.28553566
alexnet_w1_mlp_simclrhn_probe3,1,216,NaN,bicycle,boat,0,0216_sty_dnn_0_boat_00_boat-0076-ILSVRC2012-val-00020486.png,boat-0076-ILSVRC2012-val-00020486.png,0.0,-0.074394256,2.6599972,-1.9335067
alexnet_w1_mlp_simclrhn_probe3,1,217,NaN,bear,boat,0,0217_sty_dnn_0_boat_00_boat-0077-ILSVRC2012-val-00021948.png,boat-0077-ILSVRC2012-val-00021948.png,0.0,0.23699239,0.79023707,-0.3912031
alexnet_w1_mlp_simclrhn_probe3,1,218,NaN,bicycle,boat,0,0218_sty_dnn_0_boat_00_boat-0079-ILSVRC2012-val-00025681.png,boat-0079-ILSVRC2012-val-00025681.png,0.0,0.7186732,3.8918898,-2.243803
alexnet_w1_mlp_simclrhn_probe3,1,219,NaN,bicycle,boat,0,0219_sty_dnn_0_boat_00_boat-0082-ILSVRC2012-val-00027612.png,boat-0082-ILSVRC2012-val-00027612.png,0.0,-0.041668076,0.8820175,-0.6531443
alexnet_w1_mlp_simclrhn_probe3,1,220,NaN,oven,boat,0,0220_sty_dnn_0_boat_00_boat-0083-ILSVRC2012-val-00034455.png,boat-0083-ILSVRC2012-val-00034455.png,0.0,-0.124363504,1.635256,-1.244239
alexnet_w1_mlp_simclrhn_probe3,1,221,NaN,oven,boat,0,0221_sty_dnn_0_boat_00_boat-0086-ILSVRC2012-val-00039559.png,boat-0086-ILSVRC2012-val-00039559.png,0.0,0.1749101,1.4396217,-0.89428616
alexnet_w1_mlp_simclrhn_probe3,1,222,NaN,oven,boat,0,0222_sty_dnn_0_boat_00_boat-0098-ILSVRC2012-val-00047961.png,boat-0098-ILSVRC2012-val-00047961.png,0.0,-0.67544335,0.89265966,-1.1088164
alexnet_w1_mlp_simclrhn_probe3,1,223,NaN,oven,boat,0,0223_sty_dnn_0_boat_00_boat-0100-ILSVRC2012-val-00048371.png,boat-0100-ILSVRC2012-val-00048371.png,0.0,0.008966216,1.1838932,-0.83079886
alexnet_w1_mlp_simclrhn_probe3,1,224,NaN,chair,boat,0,0224_sty_dnn_0_boat_00_boat-0103-ILSVRC2012-val-00002308.png,boat-0103-ILSVRC2012-val-00002308.png,0.0,-0.5549141,2.1829836,-1.9359862
alexnet_w1_mlp_simclrhn_probe3,1,225,NaN,bicycle,boat,0,0225_sty_dnn_0_boat_00_boat-0107-ILSVRC2012-val-00004492.png,boat-0107-ILSVRC2012-val-00004492.png,0.0,0.83657324,1.9909866,-0.81629354
alexnet_w1_mlp_simclrhn_probe3,1,226,NaN,oven,boat,0,0226_sty_dnn_0_boat_00_boat-0111-ILSVRC2012-val-00009680.png,boat-0111-ILSVRC2012-val-00009680.png,0.0,0.17021361,2.7961545,-1.8568206
alexnet_w1_mlp_simclrhn_probe3,1,227,NaN,bicycle,boat,0,0227_sty_dnn_0_boat_00_boat-0121-ILSVRC2012-val-00016970.png,boat-0121-ILSVRC2012-val-00016970.png,0.0,0.5761908,0.7458461,-0.11996439
alexnet_w1_mlp_simclrhn_probe3,1,228,NaN,oven,boat,0,0228_sty_dnn_0_boat_00_boat-0129-ILSVRC2012-val-00027504.png,boat-0129-ILSVRC2012-val-00027504.png,0.0,0.2413454,1.4621398,-0.863232
alexnet_w1_mlp_simclrhn_probe3,1,229,NaN,bicycle,boat,0,0229_sty_dnn_0_boat_00_boat-0137-ILSVRC2012-val-00035374.png,boat-0137-ILSVRC2012-val-00035374.png,0.0,-0.11772001,1.116869,-0.87298626
alexnet_w1_mlp_simclrhn_probe3,1,230,NaN,oven,boat,0,0230_sty_dnn_0_boat_00_boat-0142-ILSVRC2012-val-00040889.png,boat-0142-ILSVRC2012-val-00040889.png,0.0,0.01522885,1.4817404,-1.0369803
alexnet_w1_mlp_simclrhn_probe3,1,231,NaN,bear,boat,0,0231_sty_dnn_0_boat_00_boat-0153-ILSVRC2012-val-00002696.png,boat-0153-ILSVRC2012-val-00002696.png,0.0,0.3386456,2.314182,-1.3969152
alexnet_w1_mlp_simclrhn_probe3,1,232,NaN,bicycle,boat,0,0232_sty_dnn_0_boat_00_boat-0160-ILSVRC2012-val-00008630.png,boat-0160-ILSVRC2012-val-00008630.png,0.0,-0.029654134,1.8602678,-1.3363767
alexnet_w1_mlp_simclrhn_probe3,1,233,NaN,bear,boat,0,0233_sty_dnn_0_boat_00_boat-0165-ILSVRC2012-val-00014242.png,boat-0165-ILSVRC2012-val-00014242.png,0.0,0.6142176,1.520912,-0.6411298
alexnet_w1_mlp_simclrhn_probe3,1,234,NaN,oven,boat,0,0234_sty_dnn_0_boat_00_boat-0169-ILSVRC2012-val-00019970.png,boat-0169-ILSVRC2012-val-00019970.png,0.0,-0.8063871,1.0899092,-1.340884
alexnet_w1_mlp_simclrhn_probe3,1,235,NaN,oven,boat,0,0235_sty_dnn_0_boat_00_boat-0170-ILSVRC2012-val-00020353.png,boat-0170-ILSVRC2012-val-00020353.png,0.0,-0.23924474,0.7076852,-0.6695806
alexnet_w1_mlp_simclrhn_probe3,1,236,NaN,keyboard,boat,0,0236_sty_dnn_0_boat_00_boat-0172-ILSVRC2012-val-00020894.png,boat-0172-ILSVRC2012-val-00020894.png,0.0,-1.1471682,1.879745,-2.1403508
alexnet_w1_mlp_simclrhn_probe3,1,237,NaN,bicycle,boat,0,0237_sty_dnn_0_boat_00_boat-0179-ILSVRC2012-val-00026763.png,boat-0179-ILSVRC2012-val-00026763.png,0.0,-0.30430812,0.5016731,-0.5699148
alexnet_w1_mlp_simclrhn_probe3,1,238,NaN,oven,boat,0,0238_sty_dnn_0_boat_00_boat-0181-ILSVRC2012-val-00031072.png,boat-0181-ILSVRC2012-val-00031072.png,0.0,-0.23723426,1.1885097,-1.0081532
alexnet_w1_mlp_simclrhn_probe3,1,239,NaN,bear,boat,0,0239_sty_dnn_0_boat_00_boat-0195-ILSVRC2012-val-00042203.png,boat-0195-ILSVRC2012-val-00042203.png,0.0,-0.033108342,1.5277817,-1.103716
alexnet_w1_mlp_simclrhn_probe3,1,240,NaN,oven,boat,0,0240_sty_dnn_0_boat_00_boat-0196-ILSVRC2012-val-00042675.png,boat-0196-ILSVRC2012-val-00042675.png,0.0,-0.011333764,1.751941,-1.2468235
alexnet_w1_mlp_simclrhn_probe3,1,241,NaN,bicycle,boat,0,0241_sty_dnn_0_boat_00_boat-0215-ILSVRC2012-val-00013403.png,boat-0215-ILSVRC2012-val-00013403.png,0.0,-0.020720834,1.2118632,-0.8715685
alexnet_w1_mlp_simclrhn_probe3,1,242,NaN,bicycle,boat,0,0242_sty_dnn_0_boat_00_boat-0217-ILSVRC2012-val-00015089.png,boat-0217-ILSVRC2012-val-00015089.png,0.0,0.508144,1.2842774,-0.54880923
alexnet_w1_mlp_simclrhn_probe3,1,243,NaN,keyboard,boat,0,0243_sty_dnn_0_boat_00_boat-0218-ILSVRC2012-val-00015121.png,boat-0218-ILSVRC2012-val-00015121.png,0.0,-1.2138296,0.7735265,-1.4052731
alexnet_w1_mlp_simclrhn_probe3,1,244,NaN,oven,boat,0,0244_sty_dnn_0_boat_00_boat-0222-ILSVRC2012-val-00019246.png,boat-0222-ILSVRC2012-val-00019246.png,0.0,-0.43991485,1.2155609,-1.1705981
alexnet_w1_mlp_simclrhn_probe3,1,245,NaN,oven,boat,0,0245_sty_dnn_0_boat_00_boat-0223-ILSVRC2012-val-00020544.png,boat-0223-ILSVRC2012-val-00020544.png,0.0,-0.74027336,0.8811537,-1.146522
alexnet_w1_mlp_simclrhn_probe3,1,246,NaN,cat,boat,0,0246_sty_dnn_0_boat_00_boat-0225-ILSVRC2012-val-00022075.png,boat-0225-ILSVRC2012-val-00022075.png,0.0,-0.09782578,1.4383184,-1.086218
alexnet_w1_mlp_simclrhn_probe3,1,247,NaN,oven,boat,0,0247_sty_dnn_0_boat_00_boat-0235-ILSVRC2012-val-00032371.png,boat-0235-ILSVRC2012-val-00032371.png,0.0,0.69043744,0.76333475,-0.051546186
alexnet_w1_mlp_simclrhn_probe3,1,248,NaN,knife,boat,0,0248_sty_dnn_0_boat_00_boat-0236-ILSVRC2012-val-00032584.png,boat-0236-ILSVRC2012-val-00032584.png,0.0,-0.27855355,1.7137909,-1.4088002
alexnet_w1_mlp_simclrhn_probe3,1,249,NaN,airplane,boat,0,0249_sty_dnn_0_boat_00_boat-0243-ILSVRC2012-val-00039131.png,boat-0243-ILSVRC2012-val-00039131.png,0.0,-0.30906606,1.4933941,-1.2745318
alexnet_w1_mlp_simclrhn_probe3,1,250,NaN,bear,boat,0,0250_sty_dnn_0_boat_00_boat-0244-ILSVRC2012-val-00040974.png,boat-0244-ILSVRC2012-val-00040974.png,0.0,-0.630728,1.6372437,-1.6036983
alexnet_w1_mlp_simclrhn_probe3,1,251,NaN,oven,bottle,0,0251_sty_dnn_0_bottle_00_bottle-0002-ILSVRC2012-val-00002968.png,bottle-0002-ILSVRC2012-val-00002968.png,0.0,0.12880878,1.1978238,-0.7559078
alexnet_w1_mlp_simclrhn_probe3,1,252,NaN,bicycle,bottle,0,0252_sty_dnn_0_bottle_00_bottle-0003-ILSVRC2012-val-00003622.png,bottle-0003-ILSVRC2012-val-00003622.png,0.0,0.76220524,1.1774435,-0.29361778
alexnet_w1_mlp_simclrhn_probe3,1,253,NaN,oven,bottle,0,0253_sty_dnn_0_bottle_00_bottle-0005-ILSVRC2012-val-00004521.png,bottle-0005-ILSVRC2012-val-00004521.png,0.0,0.4571156,2.6590884,-1.5570298
alexnet_w1_mlp_simclrhn_probe3,1,254,NaN,bottle,bottle,0,0254_sty_dnn_0_bottle_00_bottle-0006-ILSVRC2012-val-00004888.png,bottle-0006-ILSVRC2012-val-00004888.png,1.0,5.006513,3.0154252,1.4079118
alexnet_w1_mlp_simclrhn_probe3,1,255,NaN,bicycle,bottle,0,0255_sty_dnn_0_bottle_00_bottle-0011-ILSVRC2012-val-00009225.png,bottle-0011-ILSVRC2012-val-00009225.png,0.0,0.038059223,2.3050542,-1.6030076
alexnet_w1_mlp_simclrhn_probe3,1,256,NaN,keyboard,bottle,0,0256_sty_dnn_0_bottle_00_bottle-0022-ILSVRC2012-val-00022396.png,bottle-0022-ILSVRC2012-val-00022396.png,0.0,-0.018509507,1.5602973,-1.116385
alexnet_w1_mlp_simclrhn_probe3,1,257,NaN,bicycle,bottle,0,0257_sty_dnn_0_bottle_00_bottle-0030-ILSVRC2012-val-00032921.png,bottle-0030-ILSVRC2012-val-00032921.png,0.0,0.0024227032,1.3477597,-0.951297
alexnet_w1_mlp_simclrhn_probe3,1,258,NaN,oven,bottle,0,0258_sty_dnn_0_bottle_00_bottle-0031-ILSVRC2012-val-00033822.png,bottle-0031-ILSVRC2012-val-00033822.png,0.0,-0.3272515,0.81867635,-0.81029344
alexnet_w1_mlp_simclrhn_probe3,1,259,NaN,oven,bottle,0,0259_sty_dnn_0_bottle_00_bottle-0032-ILSVRC2012-val-00034979.png,bottle-0032-ILSVRC2012-val-00034979.png,0.0,0.10512789,0.6476227,-0.38360178
alexnet_w1_mlp_simclrhn_probe3,1,260,NaN,bottle,bottle,0,0260_sty_dnn_0_bottle_00_bottle-0037-ILSVRC2012-val-00036359.png,bottle-0037-ILSVRC2012-val-00036359.png,1.0,4.3493924,0.86456525,2.464145
alexnet_w1_mlp_simclrhn_probe3,1,261,NaN,bottle,bottle,0,0261_sty_dnn_0_bottle_00_bottle-0039-ILSVRC2012-val-00038570.png,bottle-0039-ILSVRC2012-val-00038570.png,1.0,1.448807,1.0910645,0.25296217
alexnet_w1_mlp_simclrhn_probe3,1,262,NaN,oven,bottle,0,0262_sty_dnn_0_bottle_00_bottle-0047-ILSVRC2012-val-00044787.png,bottle-0047-ILSVRC2012-val-00044787.png,0.0,0.120029196,1.1473459,-0.7264226
alexnet_w1_mlp_simclrhn_probe3,1,263,NaN,clock,bottle,0,0263_sty_dnn_0_bottle_00_bottle-0052-ILSVRC2012-val-00000252.png,bottle-0052-ILSVRC2012-val-00000252.png,0.0,0.75622565,2.2433517,-1.051557
alexnet_w1_mlp_simclrhn_probe3,1,264,NaN,bottle,bottle,0,0264_sty_dnn_0_bottle_00_bottle-0055-ILSVRC2012-val-00003066.png,bottle-0055-ILSVRC2012-val-00003066.png,1.0,4.545339,1.685771,2.02202
alexnet_w1_mlp_simclrhn_probe3,1,265,NaN,bicycle,bottle,0,0265_sty_dnn_0_bottle_00_bottle-0057-ILSVRC2012-val-00005967.png,bottle-0057-ILSVRC2012-val-00005967.png,0.0,0.5030235,1.2946405,-0.55975777
alexnet_w1_mlp_simclrhn_probe3,1,266,NaN,bottle,bottle,0,0266_sty_dnn_0_bottle_00_bottle-0059-ILSVRC2012-val-00008984.png,bottle-0059-ILSVRC2012-val-00008984.png,1.0,0.6352679,0.50563174,0.09166662
alexnet_w1_mlp_simclrhn_probe3,1,267,NaN,bottle,bottle,0,0267_sty_dnn_0_bottle_00_bottle-0066-ILSVRC2012-val-00016336.png,bottle-0066-ILSVRC2012-val-00016336.png,1.0,1.5913849,1.5411248,0.035539236
alexnet_w1_mlp_simclrhn_probe3,1,268,NaN,oven,bottle,0,0268_sty_dnn_0_bottle_00_bottle-0085-ILSVRC2012-val-00036422.png,bottle-0085-ILSVRC2012-val-00036422.png,0.0,-0.13881695,2.292074,-1.7188996
alexnet_w1_mlp_simclrhn_probe3,1,269,NaN,bicycle,bottle,0,0269_sty_dnn_0_bottle_00_bottle-0086-ILSVRC2012-val-00036795.png,bottle-0086-ILSVRC2012-val-00036795.png,0.0,0.06699986,0.4282734,-0.25545898
alexnet_w1_mlp_simclrhn_probe3,1,270,NaN,boat,bottle,0,0270_sty_dnn_0_bottle_00_bottle-0107-ILSVRC2012-val-00008313.png,bottle-0107-ILSVRC2012-val-00008313.png,0.0,-0.07082262,1.5219934,-1.126291
alexnet_w1_mlp_simclrhn_probe3,1,271,NaN,bear,bottle,0,0271_sty_dnn_0_bottle_00_bottle-0108-ILSVRC2012-val-00008437.png,bottle-0108-ILSVRC2012-val-00008437.png,0.0,-0.14310203,2.2207808,-1.6715176
alexnet_w1_mlp_simclrhn_probe3,1,272,NaN,bicycle,bottle,0,0272_sty_dnn_0_bottle_00_bottle-0126-ILSVRC2012-val-00022079.png,bottle-0126-ILSVRC2012-val-00022079.png,0.0,-0.13352658,0.9084586,-0.73679477
alexnet_w1_mlp_simclrhn_probe3,1,273,NaN,keyboard,bottle,0,0273_sty_dnn_0_bottle_00_bottle-0127-ILSVRC2012-val-00023580.png,bottle-0127-ILSVRC2012-val-00023580.png,0.0,0.10011978,0.5658586,-0.3293271
alexnet_w1_mlp_simclrhn_probe3,1,274,NaN,cat,bottle,0,0274_sty_dnn_0_bottle_00_bottle-0138-ILSVRC2012-val-00032559.png,bottle-0138-ILSVRC2012-val-00032559.png,0.0,-0.2901112,0.80292386,-0.77289253
alexnet_w1_mlp_simclrhn_probe3,1,275,NaN,elephant,bottle,0,0275_sty_dnn_0_bottle_00_bottle-0153-ILSVRC2012-val-00003318.png,bottle-0153-ILSVRC2012-val-00003318.png,0.0,-0.004461574,1.0052373,-0.71396494
alexnet_w1_mlp_simclrhn_probe3,1,276,NaN,bicycle,bottle,0,0276_sty_dnn_0_bottle_00_bottle-0154-ILSVRC2012-val-00003340.png,bottle-0154-ILSVRC2012-val-00003340.png,0.0,-0.35271546,0.982048,-0.9438203
alexnet_w1_mlp_simclrhn_probe3,1,277,NaN,clock,bottle,0,0277_sty_dnn_0_bottle_00_bottle-0170-ILSVRC2012-val-00020948.png,bottle-0170-ILSVRC2012-val-00020948.png,0.0,-0.13209167,0.63824004,-0.5447068
alexnet_w1_mlp_simclrhn_probe3,1,278,NaN,chair,bottle,0,0278_sty_dnn_0_bottle_00_bottle-0172-ILSVRC2012-val-00021707.png,bottle-0172-ILSVRC2012-val-00021707.png,0.0,0.69159096,2.2128456,-1.0756894
alexnet_w1_mlp_simclrhn_probe3,1,279,NaN,oven,bottle,0,0279_sty_dnn_0_bottle_00_bottle-0180-ILSVRC2012-val-00027613.png,bottle-0180-ILSVRC2012-val-00027613.png,0.0,0.11548791,1.4937177,-0.9745556
alexnet_w1_mlp_simclrhn_probe3,1,280,NaN,oven,bottle,0,0280_sty_dnn_0_bottle_00_bottle-0189-ILSVRC2012-val-00040070.png,bottle-0189-ILSVRC2012-val-00040070.png,0.0,0.018484201,2.335475,-1.63836
alexnet_w1_mlp_simclrhn_probe3,1,281,NaN,bottle,bottle,0,0281_sty_dnn_0_bottle_00_bottle-0195-ILSVRC2012-val-00045644.png,bottle-0195-ILSVRC2012-val-00045644.png,1.0,2.166456,0.75313157,0.99937123
alexnet_w1_mlp_simclrhn_probe3,1,282,NaN,bicycle,bottle,0,0282_sty_dnn_0_bottle_00_bottle-0204-ILSVRC2012-val-00002597.png,bottle-0204-ILSVRC2012-val-00002597.png,0.0,-0.615856,1.9223096,-1.7947541
alexnet_w1_mlp_simclrhn_probe3,1,283,NaN,bottle,bottle,0,0283_sty_dnn_0_bottle_00_bottle-0205-ILSVRC2012-val-00003263.png,bottle-0205-ILSVRC2012-val-00003263.png,1.0,2.3457992,0.60411096,1.2315596
alexnet_w1_mlp_simclrhn_probe3,1,284,NaN,oven,bottle,0,0284_sty_dnn_0_bottle_00_bottle-0214-ILSVRC2012-val-00012572.png,bottle-0214-ILSVRC2012-val-00012572.png,0.0,-0.11316707,1.6307168,-1.2331121
alexnet_w1_mlp_simclrhn_probe3,1,285,NaN,cat,bottle,0,0285_sty_dnn_0_bottle_00_bottle-0216-ILSVRC2012-val-00013262.png,bottle-0216-ILSVRC2012-val-00013262.png,0.0,-0.19662528,1.5416474,-1.2291445
alexnet_w1_mlp_simclrhn_probe3,1,286,NaN,bottle,bottle,0,0286_sty_dnn_0_bottle_00_bottle-0218-ILSVRC2012-val-00013667.png,bottle-0218-ILSVRC2012-val-00013667.png,1.0,2.0701878,0.5810527,1.0529774
alexnet_w1_mlp_simclrhn_probe3,1,287,NaN,oven,bottle,0,0287_sty_dnn_0_bottle_00_bottle-0220-ILSVRC2012-val-00014146.png,bottle-0220-ILSVRC2012-val-00014146.png,0.0,-0.2144674,1.2229338,-1.0163962
alexnet_w1_mlp_simclrhn_probe3,1,288,NaN,bear,bottle,0,0288_sty_dnn_0_bottle_00_bottle-0222-ILSVRC2012-val-00018657.png,bottle-0222-ILSVRC2012-val-00018657.png,0.0,0.3379187,1.2647779,-0.6553884
alexnet_w1_mlp_simclrhn_probe3,1,289,NaN,bicycle,bottle,0,0289_sty_dnn_0_bottle_00_bottle-0224-ILSVRC2012-val-00020102.png,bottle-0224-ILSVRC2012-val-00020102.png,0.0,-0.17658527,1.106896,-0.9075584
alexnet_w1_mlp_simclrhn_probe3,1,290,NaN,knife,bottle,0,0290_sty_dnn_0_bottle_00_bottle-0233-ILSVRC2012-val-00031504.png,bottle-0233-ILSVRC2012-val-00031504.png,0.0,0.7345296,1.4219503,-0.48607987
alexnet_w1_mlp_simclrhn_probe3,1,291,NaN,bicycle,bottle,0,0291_sty_dnn_0_bottle_00_bottle-0243-ILSVRC2012-val-00040157.png,bottle-0243-ILSVRC2012-val-00040157.png,0.0,-0.5471816,1.788074,-1.6512752
alexnet_w1_mlp_simclrhn_probe3,1,292,NaN,bottle,bottle,0,0292_sty_dnn_0_bottle_00_bottle-0254-ILSVRC2012-val-00005933.png,bottle-0254-ILSVRC2012-val-00005933.png,1.0,3.433552,0.79601383,1.8650212
alexnet_w1_mlp_simclrhn_probe3,1,293,NaN,bottle,bottle,0,0293_sty_dnn_0_bottle_00_bottle-0283-ILSVRC2012-val-00036864.png,bottle-0283-ILSVRC2012-val-00036864.png,1.0,4.4696054,2.772873,1.199771
alexnet_w1_mlp_simclrhn_probe3,1,294,NaN,oven,bottle,0,0294_sty_dnn_0_bottle_00_bottle-0294-ILSVRC2012-val-00044222.png,bottle-0294-ILSVRC2012-val-00044222.png,0.0,2.44049,2.704322,-0.18655747
alexnet_w1_mlp_simclrhn_probe3,1,295,NaN,oven,bottle,0,0295_sty_dnn_0_bottle_00_bottle-0296-ILSVRC2012-val-00044906.png,bottle-0296-ILSVRC2012-val-00044906.png,0.0,0.119604826,1.3446856,-0.8662629
alexnet_w1_mlp_simclrhn_probe3,1,296,NaN,oven,bottle,0,0296_sty_dnn_0_bottle_00_bottle-0325-ILSVRC2012-val-00027316.png,bottle-0325-ILSVRC2012-val-00027316.png,0.0,0.43906236,1.8449143,-0.99408746
alexnet_w1_mlp_simclrhn_probe3,1,297,NaN,bottle,bottle,0,0297_sty_dnn_0_bottle_00_bottle-0331-ILSVRC2012-val-00033990.png,bottle-0331-ILSVRC2012-val-00033990.png,1.0,2.050713,1.6214576,0.30352947
alexnet_w1_mlp_simclrhn_probe3,1,298,NaN,oven,bottle,0,0298_sty_dnn_0_bottle_00_bottle-0334-ILSVRC2012-val-00036776.png,bottle-0334-ILSVRC2012-val-00036776.png,0.0,0.39739427,1.4611554,-0.75219274
alexnet_w1_mlp_simclrhn_probe3,1,299,NaN,bottle,bottle,0,0299_sty_dnn_0_bottle_00_bottle-0345-ILSVRC2012-val-00044614.png,bottle-0345-ILSVRC2012-val-00044614.png,1.0,3.198574,1.8915242,0.92422384
alexnet_w1_mlp_simclrhn_probe3,1,300,NaN,oven,bottle,0,0300_sty_dnn_0_bottle_00_bottle-0347-ILSVRC2012-val-00048539.png,bottle-0347-ILSVRC2012-val-00048539.png,0.0,0.80717343,1.5353533,-0.5149009
alexnet_w1_mlp_simclrhn_probe3,1,301,NaN,oven,car,0,0301_sty_dnn_0_car_00_car-0001-ILSVRC2012-val-00000175.png,car-0001-ILSVRC2012-val-00000175.png,0.0,-0.23184192,0.4425488,-0.47686628
alexnet_w1_mlp_simclrhn_probe3,1,302,NaN,car,car,0,0302_sty_dnn_0_car_00_car-0004-ILSVRC2012-val-00006084.png,car-0004-ILSVRC2012-val-00006084.png,1.0,1.9421324,1.8977612,0.031375125
alexnet_w1_mlp_simclrhn_probe3,1,303,NaN,car,car,0,0303_sty_dnn_0_car_00_car-0005-ILSVRC2012-val-00006220.png,car-0005-ILSVRC2012-val-00006220.png,1.0,2.159892,1.0203521,0.8057764
alexnet_w1_mlp_simclrhn_probe3,1,304,NaN,oven,car,0,0304_sty_dnn_0_car_00_car-0010-ILSVRC2012-val-00012600.png,car-0010-ILSVRC2012-val-00012600.png,0.0,0.17602961,2.3156228,-1.5129209
alexnet_w1_mlp_simclrhn_probe3,1,305,NaN,bear,car,0,0305_sty_dnn_0_car_00_car-0012-ILSVRC2012-val-00014447.png,car-0012-ILSVRC2012-val-00014447.png,0.0,-0.21941197,1.6965823,-1.3548126
alexnet_w1_mlp_simclrhn_probe3,1,306,NaN,oven,car,0,0306_sty_dnn_0_car_00_car-0013-ILSVRC2012-val-00014541.png,car-0013-ILSVRC2012-val-00014541.png,0.0,-0.10838304,0.8855002,-0.7027816
alexnet_w1_mlp_simclrhn_probe3,1,307,NaN,car,car,0,0307_sty_dnn_0_car_00_car-0018-ILSVRC2012-val-00018138.png,car-0018-ILSVRC2012-val-00018138.png,1.0,1.4909359,0.9130825,0.4086041
alexnet_w1_mlp_simclrhn_probe3,1,308,NaN,bicycle,car,0,0308_sty_dnn_0_car_00_car-0019-ILSVRC2012-val-00018335.png,car-0019-ILSVRC2012-val-00018335.png,0.0,-0.2762308,1.8464186,-1.5009398
alexnet_w1_mlp_simclrhn_probe3,1,309,NaN,oven,car,0,0309_sty_dnn_0_car_00_car-0021-ILSVRC2012-val-00019695.png,car-0021-ILSVRC2012-val-00019695.png,0.0,-0.24554078,1.3482646,-1.1269906
alexnet_w1_mlp_simclrhn_probe3,1,310,NaN,bicycle,car,0,0310_sty_dnn_0_car_00_car-0024-ILSVRC2012-val-00023221.png,car-0024-ILSVRC2012-val-00023221.png,0.0,-0.18611623,1.2080278,-0.98580873
alexnet_w1_mlp_simclrhn_probe3,1,311,NaN,truck,car,0,0311_sty_dnn_0_car_00_car-0025-ILSVRC2012-val-00023474.png,car-0025-ILSVRC2012-val-00023474.png,0.0,10.652843,11.182498,-0.3745223
alexnet_w1_mlp_simclrhn_probe3,1,312,NaN,oven,car,0,0312_sty_dnn_0_car_00_car-0028-ILSVRC2012-val-00027049.png,car-0028-ILSVRC2012-val-00027049.png,0.0,-0.30847564,1.1797462,-1.0523317
alexnet_w1_mlp_simclrhn_probe3,1,313,NaN,bicycle,car,0,0313_sty_dnn_0_car_00_car-0029-ILSVRC2012-val-00027081.png,car-0029-ILSVRC2012-val-00027081.png,0.0,0.7598257,2.4278572,-1.1794764
alexnet_w1_mlp_simclrhn_probe3,1,314,NaN,oven,car,0,0314_sty_dnn_0_car_00_car-0030-ILSVRC2012-val-00029057.png,car-0030-ILSVRC2012-val-00029057.png,0.0,0.5064679,1.9350842,-1.0101843
alexnet_w1_mlp_simclrhn_probe3,1,315,NaN,oven,car,0,0315_sty_dnn_0_car_00_car-0032-ILSVRC2012-val-00030834.png,car-0032-ILSVRC2012-val-00030834.png,0.0,-0.11101929,1.5162494,-1.1506528
alexnet_w1_mlp_simclrhn_probe3,1,316,NaN,bicycle,car,0,0316_sty_dnn_0_car_00_car-0041-ILSVRC2012-val-00040706.png,car-0041-ILSVRC2012-val-00040706.png,0.0,-0.41911158,2.6314187,-2.1570506
alexnet_w1_mlp_simclrhn_probe3,1,317,NaN,bicycle,car,0,0317_sty_dnn_0_car_00_car-0045-ILSVRC2012-val-00042416.png,car-0045-ILSVRC2012-val-00042416.png,0.0,0.91007036,4.6837416,-2.6683886
alexnet_w1_mlp_simclrhn_probe3,1,318,NaN,knife,car,0,0318_sty_dnn_0_car_00_car-0050-ILSVRC2012-val-00048556.png,car-0050-ILSVRC2012-val-00048556.png,0.0,-0.522688,0.51338804,-0.7326164
alexnet_w1_mlp_simclrhn_probe3,1,319,NaN,chair,car,0,0319_sty_dnn_0_car_00_car-0052-ILSVRC2012-val-00004387.png,car-0052-ILSVRC2012-val-00004387.png,0.0,-0.31648988,0.81937027,-0.8031745
alexnet_w1_mlp_simclrhn_probe3,1,320,NaN,oven,car,0,0320_sty_dnn_0_car_00_car-0053-ILSVRC2012-val-00004685.png,car-0053-ILSVRC2012-val-00004685.png,0.0,0.11544228,1.4537089,-0.9462974
alexnet_w1_mlp_simclrhn_probe3,1,321,NaN,oven,car,0,0321_sty_dnn_0_car_00_car-0054-ILSVRC2012-val-00005500.png,car-0054-ILSVRC2012-val-00005500.png,0.0,-0.44441453,1.395602,-1.3010882
alexnet_w1_mlp_simclrhn_probe3,1,322,NaN,bear,car,0,0322_sty_dnn_0_car_00_car-0058-ILSVRC2012-val-00010676.png,car-0058-ILSVRC2012-val-00010676.png,0.0,-0.37116697,0.58929974,-0.67915255
alexnet_w1_mlp_simclrhn_probe3,1,323,NaN,oven,car,0,0323_sty_dnn_0_car_00_car-0059-ILSVRC2012-val-00014010.png,car-0059-ILSVRC2012-val-00014010.png,0.0,-0.14748321,2.8137515,-2.093909
alexnet_w1_mlp_simclrhn_probe3,1,324,NaN,oven,car,0,0324_sty_dnn_0_car_00_car-0060-ILSVRC2012-val-00014208.png,car-0060-ILSVRC2012-val-00014208.png,0.0,-0.46153998,1.4086587,-1.3224303
alexnet_w1_mlp_simclrhn_probe3,1,325,NaN,bottle,car,0,0325_sty_dnn_0_car_00_car-0064-ILSVRC2012-val-00016337.png,car-0064-ILSVRC2012-val-00016337.png,0.0,-0.22404826,0.50475174,-0.51533943
alexnet_w1_mlp_simclrhn_probe3,1,326,NaN,bicycle,car,0,0326_sty_dnn_0_car_00_car-0065-ILSVRC2012-val-00016613.png,car-0065-ILSVRC2012-val-00016613.png,0.0,2.0616071,3.7283542,-1.1785682
alexnet_w1_mlp_simclrhn_probe3,1,327,NaN,elephant,car,0,0327_sty_dnn_0_car_00_car-0066-ILSVRC2012-val-00018249.png,car-0066-ILSVRC2012-val-00018249.png,0.0,-1.1443168,0.9666269,-1.4926627
alexnet_w1_mlp_simclrhn_probe3,1,328,NaN,car,car,0,0328_sty_dnn_0_car_00_car-0067-ILSVRC2012-val-00018569.png,car-0067-ILSVRC2012-val-00018569.png,1.0,1.3964462,1.3365283,0.042368375
alexnet_w1_mlp_simclrhn_probe3,1,329,NaN,truck,car,0,0329_sty_dnn_0_car_00_car-0069-ILSVRC2012-val-00019647.png,car-0069-ILSVRC2012-val-00019647.png,0.0,4.023684,4.499158,-0.33621082
alexnet_w1_mlp_simclrhn_probe3,1,330,NaN,elephant,car,0,0330_sty_dnn_0_car_00_car-0079-ILSVRC2012-val-00025028.png,car-0079-ILSVRC2012-val-00025028.png,0.0,0.9208174,1.615857,-0.49146724
alexnet_w1_mlp_simclrhn_probe3,1,331,NaN,oven,car,0,0331_sty_dnn_0_car_00_car-0082-ILSVRC2012-val-00027293.png,car-0082-ILSVRC2012-val-00027293.png,0.0,-0.7162091,1.5071567,-1.572157
alexnet_w1_mlp_simclrhn_probe3,1,332,NaN,bear,car,0,0332_sty_dnn_0_car_00_car-0083-ILSVRC2012-val-00027508.png,car-0083-ILSVRC2012-val-00027508.png,0.0,-0.5753798,1.2108023,-1.2630216
alexnet_w1_mlp_simclrhn_probe3,1,333,NaN,airplane,car,0,0333_sty_dnn_0_car_00_car-0086-ILSVRC2012-val-00029454.png,car-0086-ILSVRC2012-val-00029454.png,0.0,-0.45821834,1.214919,-1.1830868
alexnet_w1_mlp_simclrhn_probe3,1,334,NaN,oven,car,0,0334_sty_dnn_0_car_00_car-0087-ILSVRC2012-val-00031558.png,car-0087-ILSVRC2012-val-00031558.png,0.0,-0.36123195,2.0132768,-1.6790314
alexnet_w1_mlp_simclrhn_probe3,1,335,NaN,elephant,car,0,0335_sty_dnn_0_car_00_car-0091-ILSVRC2012-val-00036091.png,car-0091-ILSVRC2012-val-00036091.png,0.0,-0.03403786,0.7770233,-0.57350683
alexnet_w1_mlp_simclrhn_probe3,1,336,NaN,bicycle,car,0,0336_sty_dnn_0_car_00_car-0093-ILSVRC2012-val-00038956.png,car-0093-ILSVRC2012-val-00038956.png,0.0,0.90574235,1.2459018,-0.24052908
alexnet_w1_mlp_simclrhn_probe3,1,337,NaN,oven,car,0,0337_sty_dnn_0_car_00_car-0095-ILSVRC2012-val-00041430.png,car-0095-ILSVRC2012-val-00041430.png,0.0,-0.026559964,1.1821108,-0.85465926
alexnet_w1_mlp_simclrhn_probe3,1,338,NaN,oven,car,0,0338_sty_dnn_0_car_00_car-0096-ILSVRC2012-val-00043824.png,car-0096-ILSVRC2012-val-00043824.png,0.0,-0.415073,1.2307962,-1.1638054
alexnet_w1_mlp_simclrhn_probe3,1,339,NaN,bicycle,car,0,0339_sty_dnn_0_car_00_car-0103-ILSVRC2012-val-00003478.png,car-0103-ILSVRC2012-val-00003478.png,0.0,0.46925172,0.55873823,-0.06327652
alexnet_w1_mlp_simclrhn_probe3,1,340,NaN,elephant,car,0,0340_sty_dnn_0_car_00_car-0106-ILSVRC2012-val-00004868.png,car-0106-ILSVRC2012-val-00004868.png,0.0,-0.2034108,0.52930224,-0.51810634
alexnet_w1_mlp_simclrhn_probe3,1,341,NaN,oven,car,0,0341_sty_dnn_0_car_00_car-0110-ILSVRC2012-val-00006285.png,car-0110-ILSVRC2012-val-00006285.png,0.0,1.0906229,2.7843127,-1.1976196
alexnet_w1_mlp_simclrhn_probe3,1,342,NaN,clock,car,0,0342_sty_dnn_0_car_00_car-0111-ILSVRC2012-val-00007125.png,car-0111-ILSVRC2012-val-00007125.png,0.0,-0.9130485,1.7718607,-1.8985176
alexnet_w1_mlp_simclrhn_probe3,1,343,NaN,bicycle,car,0,0343_sty_dnn_0_car_00_car-0117-ILSVRC2012-val-00010983.png,car-0117-ILSVRC2012-val-00010983.png,0.0,-0.15018201,4.671728,-3.4096053
alexnet_w1_mlp_simclrhn_probe3,1,344,NaN,bicycle,car,0,0344_sty_dnn_0_car_00_car-0118-ILSVRC2012-val-00012327.png,car-0118-ILSVRC2012-val-00012327.png,0.0,-0.10326039,1.5209233,-1.1484714
alexnet_w1_mlp_simclrhn_probe3,1,345,NaN,clock,car,0,0345_sty_dnn_0_car_00_car-0121-ILSVRC2012-val-00016638.png,car-0121-ILSVRC2012-val-00016638.png,0.0,-0.20324658,0.99079394,-0.84431416
alexnet_w1_mlp_simclrhn_probe3,1,346,NaN,car,car,0,0346_sty_dnn_0_car_00_car-0134-ILSVRC2012-val-00032944.png,car-0134-ILSVRC2012-val-00032944.png,1.0,3.785169,3.1508846,0.4485067
alexnet_w1_mlp_simclrhn_probe3,1,347,NaN,oven,car,0,0347_sty_dnn_0_car_00_car-0139-ILSVRC2012-val-00037952.png,car-0139-ILSVRC2012-val-00037952.png,0.0,-0.7430274,1.0764164,-1.286541
alexnet_w1_mlp_simclrhn_probe3,1,348,NaN,oven,car,0,0348_sty_dnn_0_car_00_car-0145-ILSVRC2012-val-00041626.png,car-0145-ILSVRC2012-val-00041626.png,0.0,-0.7311125,2.2233968,-2.0891535
alexnet_w1_mlp_simclrhn_probe3,1,349,NaN,bicycle,car,0,0349_sty_dnn_0_car_00_car-0146-ILSVRC2012-val-00043297.png,car-0146-ILSVRC2012-val-00043297.png,0.0,-0.285554,2.4883497,-1.961446
alexnet_w1_mlp_simclrhn_probe3,1,350,NaN,oven,car,0,0350_sty_dnn_0_car_00_car-0149-ILSVRC2012-val-00049427.png,car-0149-ILSVRC2012-val-00049427.png,0.0,-0.75738925,1.6004835,-1.6672678
alexnet_w1_mlp_simclrhn_probe3,1,351,NaN,cat,cat,0,0351_sty_dnn_0_cat_00_cat-0005-ILSVRC2012-val-00005358.png,cat-0005-ILSVRC2012-val-00005358.png,1.0,2.9849215,0.7630058,1.5711317
alexnet_w1_mlp_simclrhn_probe3,1,352,NaN,cat,cat,0,0352_sty_dnn_0_cat_00_cat-0012-ILSVRC2012-val-00012377.png,cat-0012-ILSVRC2012-val-00012377.png,1.0,0.42105448,0.10772809,0.22155522
alexnet_w1_mlp_simclrhn_probe3,1,353,NaN,oven,cat,0,0353_sty_dnn_0_cat_00_cat-0031-ILSVRC2012-val-00030706.png,cat-0031-ILSVRC2012-val-00030706.png,0.0,0.16106959,1.608551,-1.0235239
alexnet_w1_mlp_simclrhn_probe3,1,354,NaN,cat,cat,0,0354_sty_dnn_0_cat_00_cat-0032-ILSVRC2012-val-00033420.png,cat-0032-ILSVRC2012-val-00033420.png,1.0,3.9567044,1.791145,1.5312817
alexnet_w1_mlp_simclrhn_probe3,1,355,NaN,cat,cat,0,0355_sty_dnn_0_cat_00_cat-0034-ILSVRC2012-val-00033837.png,cat-0034-ILSVRC2012-val-00033837.png,1.0,2.3116589,0.7659783,1.0929612
alexnet_w1_mlp_simclrhn_probe3,1,356,NaN,oven,cat,0,0356_sty_dnn_0_cat_00_cat-0042-ILSVRC2012-val-00040238.png,cat-0042-ILSVRC2012-val-00040238.png,0.0,1.5185719,1.9514161,-0.30606714
alexnet_w1_mlp_simclrhn_probe3,1,357,NaN,bicycle,cat,0,0357_sty_dnn_0_cat_00_cat-0045-ILSVRC2012-val-00041570.png,cat-0045-ILSVRC2012-val-00041570.png,0.0,2.9622924,3.0748017,-0.079556055
alexnet_w1_mlp_simclrhn_probe3,1,358,NaN,oven,cat,0,0358_sty_dnn_0_cat_00_cat-0050-ILSVRC2012-val-00047911.png,cat-0050-ILSVRC2012-val-00047911.png,0.0,-0.43970057,0.65536594,-0.774329
alexnet_w1_mlp_simclrhn_probe3,1,359,NaN,elephant,cat,0,0359_sty_dnn_0_cat_00_cat-0054-ILSVRC2012-val-00003295.png,cat-0054-ILSVRC2012-val-00003295.png,0.0,-0.13904887,0.35899174,-0.3521679
alexnet_w1_mlp_simclrhn_probe3,1,360,NaN,bear,cat,0,0360_sty_dnn_0_cat_00_cat-0056-ILSVRC2012-val-00007676.png,cat-0056-ILSVRC2012-val-00007676.png,0.0,0.8280483,1.771898,-0.66740257
alexnet_w1_mlp_simclrhn_probe3,1,361,NaN,bear,cat,0,0361_sty_dnn_0_cat_00_cat-0062-ILSVRC2012-val-00013788.png,cat-0062-ILSVRC2012-val-00013788.png,0.0,0.66817445,2.0818522,-0.9996211
alexnet_w1_mlp_simclrhn_probe3,1,362,NaN,chair,cat,0,0362_sty_dnn_0_cat_00_cat-0064-ILSVRC2012-val-00014860.png,cat-0064-ILSVRC2012-val-00014860.png,0.0,-0.39497766,1.4488231,-1.3037641
alexnet_w1_mlp_simclrhn_probe3,1,363,NaN,bicycle,cat,0,0363_sty_dnn_0_cat_00_cat-0069-ILSVRC2012-val-00016399.png,cat-0069-ILSVRC2012-val-00016399.png,0.0,0.49526492,1.4355782,-0.664902
alexnet_w1_mlp_simclrhn_probe3,1,364,NaN,cat,cat,0,0364_sty_dnn_0_cat_00_cat-0072-ILSVRC2012-val-00019303.png,cat-0072-ILSVRC2012-val-00019303.png,1.0,1.3950785,0.8245653,0.4034138
alexnet_w1_mlp_simclrhn_probe3,1,365,NaN,cat,cat,0,0365_sty_dnn_0_cat_00_cat-0073-ILSVRC2012-val-00020140.png,cat-0073-ILSVRC2012-val-00020140.png,1.0,1.3160552,1.0799832,0.16692808
alexnet_w1_mlp_simclrhn_probe3,1,366,NaN,bicycle,cat,0,0366_sty_dnn_0_cat_00_cat-0082-ILSVRC2012-val-00025723.png,cat-0082-ILSVRC2012-val-00025723.png,0.0,0.3928769,1.734762,-0.94885606
alexnet_w1_mlp_simclrhn_probe3,1,367,NaN,cat,cat,0,0367_sty_dnn_0_cat_00_cat-0092-ILSVRC2012-val-00039621.png,cat-0092-ILSVRC2012-val-00039621.png,1.0,2.1752775,0.44805032,1.2213341
alexnet_w1_mlp_simclrhn_probe3,1,368,NaN,oven,cat,0,0368_sty_dnn_0_cat_00_cat-0096-ILSVRC2012-val-00045420.png,cat-0096-ILSVRC2012-val-00045420.png,0.0,0.7724263,1.8246171,-0.7440112
alexnet_w1_mlp_simclrhn_probe3,1,369,NaN,keyboard,cat,0,0369_sty_dnn_0_cat_00_cat-0108-ILSVRC2012-val-00002967.png,cat-0108-ILSVRC2012-val-00002967.png,0.0,-0.39453617,1.7668889,-1.5283583
alexnet_w1_mlp_simclrhn_probe3,1,370,NaN,oven,cat,0,0370_sty_dnn_0_cat_00_cat-0110-ILSVRC2012-val-00004411.png,cat-0110-ILSVRC2012-val-00004411.png,0.0,0.49752593,1.2924361,-0.5620864
alexnet_w1_mlp_simclrhn_probe3,1,371,NaN,oven,cat,0,0371_sty_dnn_0_cat_00_cat-0113-ILSVRC2012-val-00007808.png,cat-0113-ILSVRC2012-val-00007808.png,0.0,-0.05161756,1.9800155,-1.4365816
alexnet_w1_mlp_simclrhn_probe3,1,372,NaN,cat,cat,0,0372_sty_dnn_0_cat_00_cat-0118-ILSVRC2012-val-00010218.png,cat-0118-ILSVRC2012-val-00010218.png,1.0,3.5645473,1.3772457,1.5466559
alexnet_w1_mlp_simclrhn_probe3,1,373,NaN,bear,cat,0,0373_sty_dnn_0_cat_00_cat-0123-ILSVRC2012-val-00014813.png,cat-0123-ILSVRC2012-val-00014813.png,0.0,1.5640684,1.6879916,-0.08762693
alexnet_w1_mlp_simclrhn_probe3,1,374,NaN,cat,cat,0,0374_sty_dnn_0_cat_00_cat-0133-ILSVRC2012-val-00023898.png,cat-0133-ILSVRC2012-val-00023898.png,1.0,1.6888157,0.8172812,0.616268
alexnet_w1_mlp_simclrhn_probe3,1,375,NaN,cat,cat,0,0375_sty_dnn_0_cat_00_cat-0137-ILSVRC2012-val-00027906.png,cat-0137-ILSVRC2012-val-00027906.png,1.0,1.0707147,0.9281608,0.10080085
alexnet_w1_mlp_simclrhn_probe3,1,376,NaN,cat,cat,0,0376_sty_dnn_0_cat_00_cat-0147-ILSVRC2012-val-00041347.png,cat-0147-ILSVRC2012-val-00041347.png,1.0,2.8742816,1.1190648,1.2411257
alexnet_w1_mlp_simclrhn_probe3,1,377,NaN,chair,cat,0,0377_sty_dnn_0_cat_00_cat-0150-ILSVRC2012-val-00049996.png,cat-0150-ILSVRC2012-val-00049996.png,0.0,0.0654422,0.95828056,-0.63133204
alexnet_w1_mlp_simclrhn_probe3,1,378,NaN,bear,cat,0,0378_sty_dnn_0_cat_00_cat-0160-ILSVRC2012-val-00011528.png,cat-0160-ILSVRC2012-val-00011528.png,0.0,0.8934104,2.1975226,-0.9221466
alexnet_w1_mlp_simclrhn_probe3,1,379,NaN,oven,cat,0,0379_sty_dnn_0_cat_00_cat-0162-ILSVRC2012-val-00012173.png,cat-0162-ILSVRC2012-val-00012173.png,0.0,0.44232213,1.8631171,-1.0046538
alexnet_w1_mlp_simclrhn_probe3,1,380,NaN,knife,cat,0,0380_sty_dnn_0_cat_00_cat-0165-ILSVRC2012-val-00017325.png,cat-0165-ILSVRC2012-val-00017325.png,0.0,-1.1169485,1.494395,-1.8464986
alexnet_w1_mlp_simclrhn_probe3,1,381,NaN,bottle,cat,0,0381_sty_dnn_0_cat_00_cat-0169-ILSVRC2012-val-00020688.png,cat-0169-ILSVRC2012-val-00020688.png,0.0,-0.37254563,1.6509326,-1.4308152
alexnet_w1_mlp_simclrhn_probe3,1,382,NaN,clock,cat,0,0382_sty_dnn_0_cat_00_cat-0185-ILSVRC2012-val-00038168.png,cat-0185-ILSVRC2012-val-00038168.png,0.0,-0.35284665,0.8892339,-0.8782836
alexnet_w1_mlp_simclrhn_probe3,1,383,NaN,oven,cat,0,0383_sty_dnn_0_cat_00_cat-0186-ILSVRC2012-val-00039580.png,cat-0186-ILSVRC2012-val-00039580.png,0.0,1.4857091,1.5790118,-0.065974995
alexnet_w1_mlp_simclrhn_probe3,1,384,NaN,chair,cat,0,0384_sty_dnn_0_cat_00_cat-0189-ILSVRC2012-val-00040854.png,cat-0189-ILSVRC2012-val-00040854.png,0.0,0.125158,4.2657685,-2.927854
alexnet_w1_mlp_simclrhn_probe3,1,385,NaN,bear,cat,0,0385_sty_dnn_0_cat_00_cat-0202-ILSVRC2012-val-00001496.png,cat-0202-ILSVRC2012-val-00001496.png,0.0,0.7537342,1.696357,-0.666535
alexnet_w1_mlp_simclrhn_probe3,1,386,NaN,oven,cat,0,0386_sty_dnn_0_cat_00_cat-0234-ILSVRC2012-val-00028970.png,cat-0234-ILSVRC2012-val-00028970.png,0.0,0.5093033,2.0074382,-1.0593413
alexnet_w1_mlp_simclrhn_probe3,1,387,NaN,bicycle,cat,0,0387_sty_dnn_0_cat_00_cat-0236-ILSVRC2012-val-00031185.png,cat-0236-ILSVRC2012-val-00031185.png,0.0,-0.039609585,0.9650992,-0.7104364
alexnet_w1_mlp_simclrhn_probe3,1,388,NaN,clock,cat,0,0388_sty_dnn_0_cat_00_cat-0238-ILSVRC2012-val-00033582.png,cat-0238-ILSVRC2012-val-00033582.png,0.0,-0.48367426,1.6492456,-1.5082021
alexnet_w1_mlp_simclrhn_probe3,1,389,NaN,cat,cat,0,0389_sty_dnn_0_cat_00_cat-0242-ILSVRC2012-val-00040192.png,cat-0242-ILSVRC2012-val-00040192.png,1.0,0.67571706,0.26468977,0.29064018
alexnet_w1_mlp_simclrhn_probe3,1,390,NaN,bear,cat,0,0390_sty_dnn_0_cat_00_cat-0243-ILSVRC2012-val-00040600.png,cat-0243-ILSVRC2012-val-00040600.png,0.0,0.84723353,1.646634,-0.5652615
alexnet_w1_mlp_simclrhn_probe3,1,391,NaN,cat,cat,0,0391_sty_dnn_0_cat_00_cat-0247-ILSVRC2012-val-00044374.png,cat-0247-ILSVRC2012-val-00044374.png,1.0,2.400222,1.964256,0.30827454
alexnet_w1_mlp_simclrhn_probe3,1,392,NaN,oven,cat,0,0392_sty_dnn_0_cat_00_cat-0258-ILSVRC2012-val-00006112.png,cat-0258-ILSVRC2012-val-00006112.png,0.0,1.2209263,2.990782,-1.251477
alexnet_w1_mlp_simclrhn_probe3,1,393,NaN,bicycle,cat,0,0393_sty_dnn_0_cat_00_cat-0260-ILSVRC2012-val-00006612.png,cat-0260-ILSVRC2012-val-00006612.png,0.0,-1.0421484,0.54655224,-1.1233809
alexnet_w1_mlp_simclrhn_probe3,1,394,NaN,cat,cat,0,0394_sty_dnn_0_cat_00_cat-0264-ILSVRC2012-val-00010823.png,cat-0264-ILSVRC2012-val-00010823.png,1.0,0.6386741,0.38679194,0.17810757
alexnet_w1_mlp_simclrhn_probe3,1,395,NaN,oven,cat,0,0395_sty_dnn_0_cat_00_cat-0270-ILSVRC2012-val-00017189.png,cat-0270-ILSVRC2012-val-00017189.png,0.0,1.3611407,2.8199658,-1.0315452
alexnet_w1_mlp_simclrhn_probe3,1,396,NaN,oven,cat,0,0396_sty_dnn_0_cat_00_cat-0274-ILSVRC2012-val-00019370.png,cat-0274-ILSVRC2012-val-00019370.png,0.0,-0.002956897,1.6392219,-1.1611958
alexnet_w1_mlp_simclrhn_probe3,1,397,NaN,bicycle,cat,0,0397_sty_dnn_0_cat_00_cat-0284-ILSVRC2012-val-00027069.png,cat-0284-ILSVRC2012-val-00027069.png,0.0,-0.53291875,1.2214305,-1.2405123
alexnet_w1_mlp_simclrhn_probe3,1,398,NaN,oven,cat,0,0398_sty_dnn_0_cat_00_cat-0291-ILSVRC2012-val-00035821.png,cat-0291-ILSVRC2012-val-00035821.png,0.0,0.87394136,2.4454741,-1.1112415
alexnet_w1_mlp_simclrhn_probe3,1,399,NaN,bottle,cat,0,0399_sty_dnn_0_cat_00_cat-0294-ILSVRC2012-val-00037633.png,cat-0294-ILSVRC2012-val-00037633.png,0.0,-0.34812173,0.6927152,-0.73598284
alexnet_w1_mlp_simclrhn_probe3,1,400,NaN,bicycle,cat,0,0400_sty_dnn_0_cat_00_cat-0298-ILSVRC2012-val-00042529.png,cat-0298-ILSVRC2012-val-00042529.png,0.0,0.5582494,0.72719145,-0.11946006
alexnet_w1_mlp_simclrhn_probe3,1,401,NaN,oven,chair,0,0401_sty_dnn_0_chair_00_chair-0006-ILSVRC2012-val-00004679.png,chair-0006-ILSVRC2012-val-00004679.png,0.0,-0.39145368,1.1654989,-1.1009316
alexnet_w1_mlp_simclrhn_probe3,1,402,NaN,chair,chair,0,0402_sty_dnn_0_chair_00_chair-0018-ILSVRC2012-val-00013838.png,chair-0018-ILSVRC2012-val-00013838.png,1.0,2.6000102,0.71676284,1.331657
alexnet_w1_mlp_simclrhn_probe3,1,403,NaN,bicycle,chair,0,0403_sty_dnn_0_chair_00_chair-0022-ILSVRC2012-val-00016403.png,chair-0022-ILSVRC2012-val-00016403.png,0.0,1.4568048,2.2185643,-0.5386453
alexnet_w1_mlp_simclrhn_probe3,1,404,NaN,elephant,chair,0,0404_sty_dnn_0_chair_00_chair-0024-ILSVRC2012-val-00021099.png,chair-0024-ILSVRC2012-val-00021099.png,0.0,-0.93703634,1.4074628,-1.6578113
alexnet_w1_mlp_simclrhn_probe3,1,405,NaN,oven,chair,0,0405_sty_dnn_0_chair_00_chair-0030-ILSVRC2012-val-00026896.png,chair-0030-ILSVRC2012-val-00026896.png,0.0,0.45909655,2.3256192,-1.3198309
alexnet_w1_mlp_simclrhn_probe3,1,406,NaN,oven,chair,0,0406_sty_dnn_0_chair_00_chair-0033-ILSVRC2012-val-00031805.png,chair-0033-ILSVRC2012-val-00031805.png,0.0,0.28445947,1.8600476,-1.114109
alexnet_w1_mlp_simclrhn_probe3,1,407,NaN,elephant,chair,0,0407_sty_dnn_0_chair_00_chair-0039-ILSVRC2012-val-00041772.png,chair-0039-ILSVRC2012-val-00041772.png,0.0,-0.7218051,0.8486441,-1.1104752
alexnet_w1_mlp_simclrhn_probe3,1,408,NaN,bear,chair,0,0408_sty_dnn_0_chair_00_chair-0040-ILSVRC2012-val-00042512.png,chair-0040-ILSVRC2012-val-00042512.png,0.0,-0.4471066,1.7871425,-1.5798527
alexnet_w1_mlp_simclrhn_probe3,1,409,NaN,knife,chair,0,0409_sty_dnn_0_chair_00_chair-0045-ILSVRC2012-val-00044898.png,chair-0045-ILSVRC2012-val-00044898.png,0.0,-0.3893315,0.6557086,-0.73895496
alexnet_w1_mlp_simclrhn_probe3,1,410,NaN,clock,chair,0,0410_sty_dnn_0_chair_00_chair-0047-ILSVRC2012-val-00045407.png,chair-0047-ILSVRC2012-val-00045407.png,0.0,0.07139744,0.81206185,-0.52372885
alexnet_w1_mlp_simclrhn_probe3,1,411,NaN,oven,chair,0,0411_sty_dnn_0_chair_00_chair-0050-ILSVRC2012-val-00049050.png,chair-0050-ILSVRC2012-val-00049050.png,0.0,-0.9091213,1.4418702,-1.662402
alexnet_w1_mlp_simclrhn_probe3,1,412,NaN,oven,chair,0,0412_sty_dnn_0_chair_00_chair-0051-ILSVRC2012-val-00001616.png,chair-0051-ILSVRC2012-val-00001616.png,0.0,-0.26822668,1.1779623,-1.0226101
alexnet_w1_mlp_simclrhn_probe3,1,413,NaN,bicycle,chair,0,0413_sty_dnn_0_chair_00_chair-0053-ILSVRC2012-val-00001855.png,chair-0053-ILSVRC2012-val-00001855.png,0.0,0.47423694,2.617802,-1.5157293
alexnet_w1_mlp_simclrhn_probe3,1,414,NaN,bicycle,chair,0,0414_sty_dnn_0_chair_00_chair-0058-ILSVRC2012-val-00005926.png,chair-0058-ILSVRC2012-val-00005926.png,0.0,-0.450259,0.6979416,-0.81190044
alexnet_w1_mlp_simclrhn_probe3,1,415,NaN,bicycle,chair,0,0415_sty_dnn_0_chair_00_chair-0059-ILSVRC2012-val-00006022.png,chair-0059-ILSVRC2012-val-00006022.png,0.0,0.68631303,1.6445346,-0.677565
alexnet_w1_mlp_simclrhn_probe3,1,416,NaN,bear,chair,0,0416_sty_dnn_0_chair_00_chair-0072-ILSVRC2012-val-00015559.png,chair-0072-ILSVRC2012-val-00015559.png,0.0,-0.7417966,1.3592784,-1.4856845
alexnet_w1_mlp_simclrhn_probe3,1,417,NaN,boat,chair,0,0417_sty_dnn_0_chair_00_chair-0081-ILSVRC2012-val-00033069.png,chair-0081-ILSVRC2012-val-00033069.png,0.0,1.0634606,2.0474997,-0.6958207
alexnet_w1_mlp_simclrhn_probe3,1,418,NaN,bicycle,chair,0,0418_sty_dnn_0_chair_00_chair-0085-ILSVRC2012-val-00036175.png,chair-0085-ILSVRC2012-val-00036175.png,0.0,2.3339767,3.7582011,-1.0070788
alexnet_w1_mlp_simclrhn_probe3,1,419,NaN,oven,chair,0,0419_sty_dnn_0_chair_00_chair-0087-ILSVRC2012-val-00037905.png,chair-0087-ILSVRC2012-val-00037905.png,0.0,0.93960017,1.5167842,-0.40813074
alexnet_w1_mlp_simclrhn_probe3,1,420,NaN,oven,chair,0,0420_sty_dnn_0_chair_00_chair-0092-ILSVRC2012-val-00041814.png,chair-0092-ILSVRC2012-val-00041814.png,0.0,0.31553537,1.4632231,-0.81153774
alexnet_w1_mlp_simclrhn_probe3,1,421,NaN,bicycle,chair,0,0421_sty_dnn_0_chair_00_chair-0097-ILSVRC2012-val-00043453.png,chair-0097-ILSVRC2012-val-00043453.png,0.0,0.11088165,1.8462689,-1.2271041
alexnet_w1_mlp_simclrhn_probe3,1,422,NaN,bear,chair,0,0422_sty_dnn_0_chair_00_chair-0098-ILSVRC2012-val-00044181.png,chair-0098-ILSVRC2012-val-00044181.png,0.0,-0.03542406,1.3454728,-0.9764416
alexnet_w1_mlp_simclrhn_probe3,1,423,NaN,chair,chair,0,0423_sty_dnn_0_chair_00_chair-0116-ILSVRC2012-val-00017447.png,chair-0116-ILSVRC2012-val-00017447.png,1.0,2.8881829,1.5121468,0.97300446
alexnet_w1_mlp_simclrhn_probe3,1,424,NaN,chair,chair,0,0424_sty_dnn_0_chair_00_chair-0118-ILSVRC2012-val-00018123.png,chair-0118-ILSVRC2012-val-00018123.png,1.0,2.1627343,1.8123229,0.2477783
alexnet_w1_mlp_simclrhn_probe3,1,425,NaN,bear,chair,0,0425_sty_dnn_0_chair_00_chair-0119-ILSVRC2012-val-00018206.png,chair-0119-ILSVRC2012-val-00018206.png,0.0,-0.30327213,1.3474844,-1.1672611
alexnet_w1_mlp_simclrhn_probe3,1,426,NaN,chair,chair,0,0426_sty_dnn_0_chair_00_chair-0122-ILSVRC2012-val-00019867.png,chair-0122-ILSVRC2012-val-00019867.png,1.0,1.746617,1.3118141,0.30745208
alexnet_w1_mlp_simclrhn_probe3,1,427,NaN,oven,chair,0,0427_sty_dnn_0_chair_00_chair-0123-ILSVRC2012-val-00020924.png,chair-0123-ILSVRC2012-val-00020924.png,0.0,-0.3617915,1.744565,-1.4894191
alexnet_w1_mlp_simclrhn_probe3,1,428,NaN,oven,chair,0,0428_sty_dnn_0_chair_00_chair-0124-ILSVRC2012-val-00022208.png,chair-0124-ILSVRC2012-val-00022208.png,0.0,-0.7124343,1.7208638,-1.7206017
alexnet_w1_mlp_simclrhn_probe3,1,429,NaN,oven,chair,0,0429_sty_dnn_0_chair_00_chair-0127-ILSVRC2012-val-00024620.png,chair-0127-ILSVRC2012-val-00024620.png,0.0,0.5537348,3.3030813,-1.9440815
alexnet_w1_mlp_simclrhn_probe3,1,430,NaN,bicycle,chair,0,0430_sty_dnn_0_chair_00_chair-0133-ILSVRC2012-val-00033406.png,chair-0133-ILSVRC2012-val-00033406.png,0.0,-0.07221467,1.052786,-0.7954956
alexnet_w1_mlp_simclrhn_probe3,1,431,NaN,chair,chair,0,0431_sty_dnn_0_chair_00_chair-0136-ILSVRC2012-val-00037994.png,chair-0136-ILSVRC2012-val-00037994.png,1.0,2.5177448,2.0370498,0.3399027
alexnet_w1_mlp_simclrhn_probe3,1,432,NaN,oven,chair,0,0432_sty_dnn_0_chair_00_chair-0138-ILSVRC2012-val-00038750.png,chair-0138-ILSVRC2012-val-00038750.png,0.0,-0.5065521,2.2093034,-1.9203999
alexnet_w1_mlp_simclrhn_probe3,1,433,NaN,knife,chair,0,0433_sty_dnn_0_chair_00_chair-0141-ILSVRC2012-val-00040076.png,chair-0141-ILSVRC2012-val-00040076.png,0.0,-0.3630255,0.60856986,-0.6870217
alexnet_w1_mlp_simclrhn_probe3,1,434,NaN,bear,chair,0,0434_sty_dnn_0_chair_00_chair-0150-ILSVRC2012-val-00048622.png,chair-0150-ILSVRC2012-val-00048622.png,0.0,-0.85316765,0.72260153,-1.1142371
alexnet_w1_mlp_simclrhn_probe3,1,435,NaN,oven,chair,0,0435_sty_dnn_0_chair_00_chair-0154-ILSVRC2012-val-00004705.png,chair-0154-ILSVRC2012-val-00004705.png,0.0,0.16323906,0.84199333,-0.47995177
alexnet_w1_mlp_simclrhn_probe3,1,436,NaN,bear,chair,0,0436_sty_dnn_0_chair_00_chair-0155-ILSVRC2012-val-00005160.png,chair-0155-ILSVRC2012-val-00005160.png,0.0,-0.2618118,1.7853105,-1.4475341
alexnet_w1_mlp_simclrhn_probe3,1,437,NaN,oven,chair,0,0437_sty_dnn_0_chair_00_chair-0159-ILSVRC2012-val-00011028.png,chair-0159-ILSVRC2012-val-00011028.png,0.0,-0.2477539,0.59618753,-0.59675676
alexnet_w1_mlp_simclrhn_probe3,1,438,NaN,chair,chair,0,0438_sty_dnn_0_chair_00_chair-0160-ILSVRC2012-val-00012040.png,chair-0160-ILSVRC2012-val-00012040.png,1.0,3.5686133,2.2832627,0.9088801
alexnet_w1_mlp_simclrhn_probe3,1,439,NaN,chair,chair,0,0439_sty_dnn_0_chair_00_chair-0169-ILSVRC2012-val-00019913.png,chair-0169-ILSVRC2012-val-00019913.png,1.0,3.734373,2.0954337,1.1589051
alexnet_w1_mlp_simclrhn_probe3,1,440,NaN,bottle,chair,0,0440_sty_dnn_0_chair_00_chair-0170-ILSVRC2012-val-00022051.png,chair-0170-ILSVRC2012-val-00022051.png,0.0,-0.121759966,1.1919649,-0.9289438
alexnet_w1_mlp_simclrhn_probe3,1,441,NaN,oven,chair,0,0441_sty_dnn_0_chair_00_chair-0172-ILSVRC2012-val-00023378.png,chair-0172-ILSVRC2012-val-00023378.png,0.0,-0.31740838,0.49781984,-0.5764534
alexnet_w1_mlp_simclrhn_probe3,1,442,NaN,bicycle,chair,0,0442_sty_dnn_0_chair_00_chair-0181-ILSVRC2012-val-00033160.png,chair-0181-ILSVRC2012-val-00033160.png,0.0,0.100531355,1.4007249,-0.9193757
alexnet_w1_mlp_simclrhn_probe3,1,443,NaN,keyboard,chair,0,0443_sty_dnn_0_chair_00_chair-0183-ILSVRC2012-val-00035142.png,chair-0183-ILSVRC2012-val-00035142.png,0.0,-1.6462057,0.79736954,-1.7278686
alexnet_w1_mlp_simclrhn_probe3,1,444,NaN,keyboard,chair,0,0444_sty_dnn_0_chair_00_chair-0188-ILSVRC2012-val-00041720.png,chair-0188-ILSVRC2012-val-00041720.png,0.0,-1.2887307,1.5762191,-2.0258255
alexnet_w1_mlp_simclrhn_probe3,1,445,NaN,elephant,chair,0,0445_sty_dnn_0_chair_00_chair-0189-ILSVRC2012-val-00041883.png,chair-0189-ILSVRC2012-val-00041883.png,0.0,-0.9855087,1.5245517,-1.7748806
alexnet_w1_mlp_simclrhn_probe3,1,446,NaN,oven,chair,0,0446_sty_dnn_0_chair_00_chair-0192-ILSVRC2012-val-00043870.png,chair-0192-ILSVRC2012-val-00043870.png,0.0,-0.30124992,1.7495358,-1.4501245
alexnet_w1_mlp_simclrhn_probe3,1,447,NaN,oven,chair,0,0447_sty_dnn_0_chair_00_chair-0193-ILSVRC2012-val-00044295.png,chair-0193-ILSVRC2012-val-00044295.png,0.0,0.29636684,1.8104088,-1.0705894
alexnet_w1_mlp_simclrhn_probe3,1,448,NaN,chair,chair,0,0448_sty_dnn_0_chair_00_chair-0195-ILSVRC2012-val-00045464.png,chair-0195-ILSVRC2012-val-00045464.png,1.0,2.8594398,2.7157083,0.101633586
alexnet_w1_mlp_simclrhn_probe3,1,449,NaN,oven,chair,0,0449_sty_dnn_0_chair_00_chair-0196-ILSVRC2012-val-00045844.png,chair-0196-ILSVRC2012-val-00045844.png,0.0,-0.13752373,1.3911569,-1.0809405
alexnet_w1_mlp_simclrhn_probe3,1,450,NaN,oven,chair,0,0450_sty_dnn_0_chair_00_chair-0199-ILSVRC2012-val-00048901.png,chair-0199-ILSVRC2012-val-00048901.png,0.0,-0.07255894,2.376092,-1.7314576
alexnet_w1_mlp_simclrhn_probe3,1,451,NaN,clock,clock,0,0451_sty_dnn_0_clock_00_clock-0001-ILSVRC2012-val-00001011.png,clock-0001-ILSVRC2012-val-00001011.png,1.0,1.0167617,0.63187087,0.2721589
alexnet_w1_mlp_simclrhn_probe3,1,452,NaN,bicycle,clock,0,0452_sty_dnn_0_clock_00_clock-0007-ILSVRC2012-val-00005490.png,clock-0007-ILSVRC2012-val-00005490.png,0.0,-0.18187535,1.2361708,-1.00271
alexnet_w1_mlp_simclrhn_probe3,1,453,NaN,clock,clock,0,0453_sty_dnn_0_clock_00_clock-0008-ILSVRC2012-val-00005558.png,clock-0008-ILSVRC2012-val-00005558.png,1.0,2.4407449,1.6072702,0.5893556
alexnet_w1_mlp_simclrhn_probe3,1,454,NaN,bicycle,clock,0,0454_sty_dnn_0_clock_00_clock-0010-ILSVRC2012-val-00006858.png,clock-0010-ILSVRC2012-val-00006858.png,0.0,1.2637465,1.8806043,-0.43618432
alexnet_w1_mlp_simclrhn_probe3,1,455,NaN,bicycle,clock,0,0455_sty_dnn_0_clock_00_clock-0013-ILSVRC2012-val-00013244.png,clock-0013-ILSVRC2012-val-00013244.png,0.0,0.9025695,1.4255338,-0.3697916
alexnet_w1_mlp_simclrhn_probe3,1,456,NaN,oven,clock,0,0456_sty_dnn_0_clock_00_clock-0018-ILSVRC2012-val-00015871.png,clock-0018-ILSVRC2012-val-00015871.png,0.0,0.22701824,0.5638647,-0.23818643
alexnet_w1_mlp_simclrhn_probe3,1,457,NaN,oven,clock,0,0457_sty_dnn_0_clock_00_clock-0020-ILSVRC2012-val-00016889.png,clock-0020-ILSVRC2012-val-00016889.png,0.0,0.25826818,1.2403533,-0.6944391
alexnet_w1_mlp_simclrhn_probe3,1,458,NaN,clock,clock,0,0458_sty_dnn_0_clock_00_clock-0023-ILSVRC2012-val-00017973.png,clock-0023-ILSVRC2012-val-00017973.png,1.0,3.636895,3.1098084,0.37270644
alexnet_w1_mlp_simclrhn_probe3,1,459,NaN,clock,clock,0,0459_sty_dnn_0_clock_00_clock-0025-ILSVRC2012-val-00019663.png,clock-0025-ILSVRC2012-val-00019663.png,1.0,2.9002006,1.4243095,1.0436126
alexnet_w1_mlp_simclrhn_probe3,1,460,NaN,oven,clock,0,0460_sty_dnn_0_clock_00_clock-0028-ILSVRC2012-val-00021179.png,clock-0028-ILSVRC2012-val-00021179.png,0.0,0.5305849,2.3803647,-1.3079919
alexnet_w1_mlp_simclrhn_probe3,1,461,NaN,oven,clock,0,0461_sty_dnn_0_clock_00_clock-0029-ILSVRC2012-val-00022719.png,clock-0029-ILSVRC2012-val-00022719.png,0.0,1.6514448,1.7029024,-0.03638605
alexnet_w1_mlp_simclrhn_probe3,1,462,NaN,oven,clock,0,0462_sty_dnn_0_clock_00_clock-0032-ILSVRC2012-val-00024425.png,clock-0032-ILSVRC2012-val-00024425.png,0.0,0.4010768,2.065795,-1.1771336
alexnet_w1_mlp_simclrhn_probe3,1,463,NaN,oven,clock,0,0463_sty_dnn_0_clock_00_clock-0034-ILSVRC2012-val-00026380.png,clock-0034-ILSVRC2012-val-00026380.png,0.0,-0.18944068,0.9073653,-0.775559
alexnet_w1_mlp_simclrhn_probe3,1,464,NaN,knife,clock,0,0464_sty_dnn_0_clock_00_clock-0038-ILSVRC2012-val-00032489.png,clock-0038-ILSVRC2012-val-00032489.png,0.0,0.7989354,0.8497156,-0.035907008
alexnet_w1_mlp_simclrhn_probe3,1,465,NaN,elephant,clock,0,0465_sty_dnn_0_clock_00_clock-0039-ILSVRC2012-val-00033429.png,clock-0039-ILSVRC2012-val-00033429.png,0.0,-0.12095068,1.2433351,-0.96469575
alexnet_w1_mlp_simclrhn_probe3,1,466,NaN,clock,clock,0,0466_sty_dnn_0_clock_00_clock-0040-ILSVRC2012-val-00035392.png,clock-0040-ILSVRC2012-val-00035392.png,1.0,6.1008797,0.65669227,3.8496218
alexnet_w1_mlp_simclrhn_probe3,1,467,NaN,bicycle,clock,0,0467_sty_dnn_0_clock_00_clock-0043-ILSVRC2012-val-00041613.png,clock-0043-ILSVRC2012-val-00041613.png,0.0,1.2407514,3.1760879,-1.3684896
alexnet_w1_mlp_simclrhn_probe3,1,468,NaN,oven,clock,0,0468_sty_dnn_0_clock_00_clock-0045-ILSVRC2012-val-00043497.png,clock-0045-ILSVRC2012-val-00043497.png,0.0,1.4132398,2.2368848,-0.582405
alexnet_w1_mlp_simclrhn_probe3,1,469,NaN,oven,clock,0,0469_sty_dnn_0_clock_00_clock-0046-ILSVRC2012-val-00044049.png,clock-0046-ILSVRC2012-val-00044049.png,0.0,0.35643002,1.8371593,-1.0470337
alexnet_w1_mlp_simclrhn_probe3,1,470,NaN,oven,clock,0,0470_sty_dnn_0_clock_00_clock-0048-ILSVRC2012-val-00044752.png,clock-0048-ILSVRC2012-val-00044752.png,0.0,0.5025039,1.8208749,-0.9322291
alexnet_w1_mlp_simclrhn_probe3,1,471,NaN,cat,clock,0,0471_sty_dnn_0_clock_00_clock-0052-ILSVRC2012-val-00003721.png,clock-0052-ILSVRC2012-val-00003721.png,0.0,-0.2932439,0.817555,-0.7854535
alexnet_w1_mlp_simclrhn_probe3,1,472,NaN,oven,clock,0,0472_sty_dnn_0_clock_00_clock-0054-ILSVRC2012-val-00008751.png,clock-0054-ILSVRC2012-val-00008751.png,0.0,-0.026653081,1.1482029,-0.8307486
alexnet_w1_mlp_simclrhn_probe3,1,473,NaN,clock,clock,0,0473_sty_dnn_0_clock_00_clock-0062-ILSVRC2012-val-00014987.png,clock-0062-ILSVRC2012-val-00014987.png,1.0,2.5006793,2.3588178,0.10031119
alexnet_w1_mlp_simclrhn_probe3,1,474,NaN,clock,clock,0,0474_sty_dnn_0_clock_00_clock-0063-ILSVRC2012-val-00015628.png,clock-0063-ILSVRC2012-val-00015628.png,1.0,1.1117616,0.4900571,0.43961143
alexnet_w1_mlp_simclrhn_probe3,1,475,NaN,bicycle,clock,0,0475_sty_dnn_0_clock_00_clock-0073-ILSVRC2012-val-00026298.png,clock-0073-ILSVRC2012-val-00026298.png,0.0,1.3705616,1.4580641,-0.061873596
alexnet_w1_mlp_simclrhn_probe3,1,476,NaN,airplane,clock,0,0476_sty_dnn_0_clock_00_clock-0076-ILSVRC2012-val-00028203.png,clock-0076-ILSVRC2012-val-00028203.png,0.0,0.17626484,0.7755337,-0.42374706
alexnet_w1_mlp_simclrhn_probe3,1,477,NaN,clock,clock,0,0477_sty_dnn_0_clock_00_clock-0080-ILSVRC2012-val-00032946.png,clock-0080-ILSVRC2012-val-00032946.png,1.0,0.8878692,0.82543236,0.0441495
alexnet_w1_mlp_simclrhn_probe3,1,478,NaN,bicycle,clock,0,0478_sty_dnn_0_clock_00_clock-0082-ILSVRC2012-val-00033627.png,clock-0082-ILSVRC2012-val-00033627.png,0.0,-0.5586973,0.9500897,-1.0668734
alexnet_w1_mlp_simclrhn_probe3,1,479,NaN,bottle,clock,0,0479_sty_dnn_0_clock_00_clock-0084-ILSVRC2012-val-00034426.png,clock-0084-ILSVRC2012-val-00034426.png,0.0,0.99333763,3.3315773,-1.6533852
alexnet_w1_mlp_simclrhn_probe3,1,480,NaN,oven,clock,0,0480_sty_dnn_0_clock_00_clock-0086-ILSVRC2012-val-00041483.png,clock-0086-ILSVRC2012-val-00041483.png,0.0,0.7434686,2.2731123,-1.0816215
alexnet_w1_mlp_simclrhn_probe3,1,481,NaN,oven,clock,0,0481_sty_dnn_0_clock_00_clock-0089-ILSVRC2012-val-00042911.png,clock-0089-ILSVRC2012-val-00042911.png,0.0,0.077461734,0.99432755,-0.64832205
alexnet_w1_mlp_simclrhn_probe3,1,482,NaN,bicycle,clock,0,0482_sty_dnn_0_clock_00_clock-0091-ILSVRC2012-val-00044029.png,clock-0091-ILSVRC2012-val-00044029.png,0.0,0.02737693,1.5798703,-1.0977787
alexnet_w1_mlp_simclrhn_probe3,1,483,NaN,oven,clock,0,0483_sty_dnn_0_clock_00_clock-0092-ILSVRC2012-val-00044168.png,clock-0092-ILSVRC2012-val-00044168.png,0.0,-0.30030826,1.1489618,-1.0247886
alexnet_w1_mlp_simclrhn_probe3,1,484,NaN,oven,clock,0,0484_sty_dnn_0_clock_00_clock-0098-ILSVRC2012-val-00048682.png,clock-0098-ILSVRC2012-val-00048682.png,0.0,-0.1357185,0.7608632,-0.63397896
alexnet_w1_mlp_simclrhn_probe3,1,485,NaN,boat,clock,0,0485_sty_dnn_0_clock_00_clock-0100-ILSVRC2012-val-00049759.png,clock-0100-ILSVRC2012-val-00049759.png,0.0,0.021723414,1.0149677,-0.7023298
alexnet_w1_mlp_simclrhn_probe3,1,486,NaN,oven,clock,0,0486_sty_dnn_0_clock_00_clock-0106-ILSVRC2012-val-00009413.png,clock-0106-ILSVRC2012-val-00009413.png,0.0,0.67675835,0.7391034,-0.044084594
alexnet_w1_mlp_simclrhn_probe3,1,487,NaN,oven,clock,0,0487_sty_dnn_0_clock_00_clock-0107-ILSVRC2012-val-00010270.png,clock-0107-ILSVRC2012-val-00010270.png,0.0,0.9323213,1.5722221,-0.4524782
alexnet_w1_mlp_simclrhn_probe3,1,488,NaN,clock,clock,0,0488_sty_dnn_0_clock_00_clock-0108-ILSVRC2012-val-00011957.png,clock-0108-ILSVRC2012-val-00011957.png,1.0,1.2526368,1.0144436,0.168428
alexnet_w1_mlp_simclrhn_probe3,1,489,NaN,clock,clock,0,0489_sty_dnn_0_clock_00_clock-0110-ILSVRC2012-val-00014035.png,clock-0110-ILSVRC2012-val-00014035.png,1.0,1.7882792,1.6656681,0.086699106
alexnet_w1_mlp_simclrhn_probe3,1,490,NaN,oven,clock,0,0490_sty_dnn_0_clock_00_clock-0112-ILSVRC2012-val-00014635.png,clock-0112-ILSVRC2012-val-00014635.png,0.0,0.016655453,2.063067,-1.4470315
alexnet_w1_mlp_simclrhn_probe3,1,491,NaN,clock,clock,0,0491_sty_dnn_0_clock_00_clock-0118-ILSVRC2012-val-00018443.png,clock-0118-ILSVRC2012-val-00018443.png,1.0,1.0731786,0.40195808,0.4746246
alexnet_w1_mlp_simclrhn_probe3,1,492,NaN,bottle,clock,0,0492_sty_dnn_0_clock_00_clock-0119-ILSVRC2012-val-00018797.png,clock-0119-ILSVRC2012-val-00018797.png,0.0,0.1772722,1.3242954,-0.8110679
alexnet_w1_mlp_simclrhn_probe3,1,493,NaN,oven,clock,0,0493_sty_dnn_0_clock_00_clock-0127-ILSVRC2012-val-00030330.png,clock-0127-ILSVRC2012-val-00030330.png,0.0,0.039150048,0.7627876,-0.511689
alexnet_w1_mlp_simclrhn_probe3,1,494,NaN,bicycle,clock,0,0494_sty_dnn_0_clock_00_clock-0128-ILSVRC2012-val-00030987.png,clock-0128-ILSVRC2012-val-00030987.png,0.0,0.8038214,2.3157046,-1.069063
alexnet_w1_mlp_simclrhn_probe3,1,495,NaN,bottle,clock,0,0495_sty_dnn_0_clock_00_clock-0129-ILSVRC2012-val-00031861.png,clock-0129-ILSVRC2012-val-00031861.png,0.0,0.4701651,2.532517,-1.4583031
alexnet_w1_mlp_simclrhn_probe3,1,496,NaN,clock,clock,0,0496_sty_dnn_0_clock_00_clock-0130-ILSVRC2012-val-00032136.png,clock-0130-ILSVRC2012-val-00032136.png,1.0,1.9863194,0.71510553,0.898884
alexnet_w1_mlp_simclrhn_probe3,1,497,NaN,clock,clock,0,0497_sty_dnn_0_clock_00_clock-0142-ILSVRC2012-val-00041461.png,clock-0142-ILSVRC2012-val-00041461.png,1.0,2.7267973,1.5970793,0.79883134
alexnet_w1_mlp_simclrhn_probe3,1,498,NaN,oven,clock,0,0498_sty_dnn_0_clock_00_clock-0143-ILSVRC2012-val-00041547.png,clock-0143-ILSVRC2012-val-00041547.png,0.0,0.039947584,0.5648579,-0.37116766
alexnet_w1_mlp_simclrhn_probe3,1,499,NaN,clock,clock,0,0499_sty_dnn_0_clock_00_clock-0144-ILSVRC2012-val-00041715.png,clock-0144-ILSVRC2012-val-00041715.png,1.0,4.121853,1.0157394,2.196354
alexnet_w1_mlp_simclrhn_probe3,1,500,NaN,oven,clock,0,0500_sty_dnn_0_clock_00_clock-0145-ILSVRC2012-val-00044685.png,clock-0145-ILSVRC2012-val-00044685.png,0.0,-0.6885886,1.5423534,-1.5775143
alexnet_w1_mlp_simclrhn_probe3,1,501,NaN,cat,dog,0,0501_sty_dnn_0_dog_00_dog-0099-ILSVRC2012-val-00048280.png,dog-0099-ILSVRC2012-val-00048280.png,0.0,0.6286457,0.7434006,-0.08114394
alexnet_w1_mlp_simclrhn_probe3,1,502,NaN,bottle,dog,0,0502_sty_dnn_0_dog_00_dog-0158-ILSVRC2012-val-00004081.png,dog-0158-ILSVRC2012-val-00004081.png,0.0,0.06975415,1.407994,-0.9462785
alexnet_w1_mlp_simclrhn_probe3,1,503,NaN,oven,dog,0,0503_sty_dnn_0_dog_00_dog-0220-ILSVRC2012-val-00017568.png,dog-0220-ILSVRC2012-val-00017568.png,0.0,-0.14201993,0.4942027,-0.44987732
alexnet_w1_mlp_simclrhn_probe3,1,504,NaN,elephant,dog,0,0504_sty_dnn_0_dog_00_dog-0247-ILSVRC2012-val-00045683.png,dog-0247-ILSVRC2012-val-00045683.png,0.0,0.9139787,2.2625563,-0.95358837
alexnet_w1_mlp_simclrhn_probe3,1,505,NaN,bear,dog,0,0505_sty_dnn_0_dog_00_dog-0303-ILSVRC2012-val-00002521.png,dog-0303-ILSVRC2012-val-00002521.png,0.0,0.9726413,1.9905198,-0.71974885
alexnet_w1_mlp_simclrhn_probe3,1,506,NaN,cat,dog,0,0506_sty_dnn_0_dog_00_dog-0386-ILSVRC2012-val-00034616.png,dog-0386-ILSVRC2012-val-00034616.png,0.0,0.70824116,1.4555221,-0.5284074
alexnet_w1_mlp_simclrhn_probe3,1,507,NaN,elephant,dog,0,0507_sty_dnn_0_dog_00_dog-0397-ILSVRC2012-val-00044140.png,dog-0397-ILSVRC2012-val-00044140.png,0.0,-0.11086368,0.56053776,-0.47475252
alexnet_w1_mlp_simclrhn_probe3,1,508,NaN,bear,dog,0,0508_sty_dnn_0_dog_00_dog-0779-ILSVRC2012-val-00033666.png,dog-0779-ILSVRC2012-val-00033666.png,0.0,0.18024658,1.8095304,-1.1520777
alexnet_w1_mlp_simclrhn_probe3,1,509,NaN,dog,dog,0,0509_sty_dnn_0_dog_00_dog-1178-ILSVRC2012-val-00022137.png,dog-1178-ILSVRC2012-val-00022137.png,1.0,1.8898613,1.4726259,0.29503006
alexnet_w1_mlp_simclrhn_probe3,1,510,NaN,elephant,dog,0,0510_sty_dnn_0_dog_00_dog-1191-ILSVRC2012-val-00037989.png,dog-1191-ILSVRC2012-val-00037989.png,0.0,-0.19045736,1.0466404,-0.8747602
alexnet_w1_mlp_simclrhn_probe3,1,511,NaN,cat,dog,0,0511_sty_dnn_0_dog_00_dog-1398-ILSVRC2012-val-00046547.png,dog-1398-ILSVRC2012-val-00046547.png,0.0,0.56828433,1.0130056,-0.31446543
alexnet_w1_mlp_simclrhn_probe3,1,512,NaN,keyboard,dog,0,0512_sty_dnn_0_dog_00_dog-1538-ILSVRC2012-val-00038167.png,dog-1538-ILSVRC2012-val-00038167.png,0.0,-0.7307149,1.3066635,-1.440644
alexnet_w1_mlp_simclrhn_probe3,1,513,NaN,cat,dog,0,0513_sty_dnn_0_dog_00_dog-1613-ILSVRC2012-val-00015923.png,dog-1613-ILSVRC2012-val-00015923.png,0.0,0.71238667,1.8470007,-0.80229324
alexnet_w1_mlp_simclrhn_probe3,1,514,NaN,oven,dog,0,0514_sty_dnn_0_dog_00_dog-1734-ILSVRC2012-val-00031377.png,dog-1734-ILSVRC2012-val-00031377.png,0.0,0.08023128,2.0456228,-1.3897417
alexnet_w1_mlp_simclrhn_probe3,1,515,NaN,cat,dog,0,0515_sty_dnn_0_dog_00_dog-1735-ILSVRC2012-val-00031764.png,dog-1735-ILSVRC2012-val-00031764.png,0.0,0.32545203,0.9483118,-0.44042838
alexnet_w1_mlp_simclrhn_probe3,1,516,NaN,chair,dog,0,0516_sty_dnn_0_dog_00_dog-1881-ILSVRC2012-val-00028322.png,dog-1881-ILSVRC2012-val-00028322.png,0.0,-0.64073634,3.0130305,-2.5836034
