subj,session,trial,rt,object_response,category,condition,imagename,filename,is_correct,targ_act,max_nontarg_act,decision_margin
alexnet2023_baseline_pgd,1,1,NaN,bicycle,airplane,0,0001_sty_dnn_0_airplane_00_airplane-0001-ILSVRC2012-val-00000631.png,airplane-0001-ILSVRC2012-val-00000631.png,0.0,4.2864747,6.0809436,-1.2688811
alexnet2023_baseline_pgd,1,2,NaN,knife,airplane,0,0002_sty_dnn_0_airplane_00_airplane-0002-ILSVRC2012-val-00001390.png,airplane-0002-ILSVRC2012-val-00001390.png,0.0,0.8462762,1.9846668,-0.8049637
alexnet2023_baseline_pgd,1,3,NaN,bicycle,airplane,0,0003_sty_dnn_0_airplane_00_airplane-0003-ILSVRC2012-val-00001506.png,airplane-0003-ILSVRC2012-val-00001506.png,0.0,-2.5521643,6.1656675,-6.164438
alexnet2023_baseline_pgd,1,4,NaN,elephant,airplane,0,0004_sty_dnn_0_airplane_00_airplane-0004-ILSVRC2012-val-00001952.png,airplane-0004-ILSVRC2012-val-00001952.png,0.0,-0.49690813,5.767418,-4.4295473
alexnet2023_baseline_pgd,1,5,NaN,oven,airplane,0,0005_sty_dnn_0_airplane_00_airplane-0005-ILSVRC2012-val-00003960.png,airplane-0005-ILSVRC2012-val-00003960.png,0.0,4.386547,5.86012,-1.0419732
alexnet2023_baseline_pgd,1,6,NaN,elephant,airplane,0,0006_sty_dnn_0_airplane_00_airplane-0006-ILSVRC2012-val-00008292.png,airplane-0006-ILSVRC2012-val-00008292.png,0.0,-0.36758184,6.8409624,-5.0972104
alexnet2023_baseline_pgd,1,7,NaN,airplane,airplane,0,0007_sty_dnn_0_airplane_00_airplane-0007-ILSVRC2012-val-00009537.png,airplane-0007-ILSVRC2012-val-00009537.png,1.0,12.745471,6.586637,4.3549533
alexnet2023_baseline_pgd,1,8,NaN,knife,airplane,0,0008_sty_dnn_0_airplane_00_airplane-0008-ILSVRC2012-val-00010597.png,airplane-0008-ILSVRC2012-val-00010597.png,0.0,1.0443854,5.129876,-2.8888783
alexnet2023_baseline_pgd,1,9,NaN,oven,airplane,0,0009_sty_dnn_0_airplane_00_airplane-0009-ILSVRC2012-val-00011168.png,airplane-0009-ILSVRC2012-val-00011168.png,0.0,3.1880684,5.445018,-1.5959042
alexnet2023_baseline_pgd,1,10,NaN,knife,airplane,0,0010_sty_dnn_0_airplane_00_airplane-0010-ILSVRC2012-val-00012263.png,airplane-0010-ILSVRC2012-val-00012263.png,0.0,-0.05292335,2.9212592,-2.1030648
alexnet2023_baseline_pgd,1,11,NaN,oven,airplane,0,0011_sty_dnn_0_airplane_00_airplane-0011-ILSVRC2012-val-00014425.png,airplane-0011-ILSVRC2012-val-00014425.png,0.0,0.6584065,7.7858415,-5.0398574
alexnet2023_baseline_pgd,1,12,NaN,elephant,airplane,0,0012_sty_dnn_0_airplane_00_airplane-0012-ILSVRC2012-val-00015498.png,airplane-0012-ILSVRC2012-val-00015498.png,0.0,-1.7186688,4.0354743,-4.068794
alexnet2023_baseline_pgd,1,13,NaN,bear,airplane,0,0013_sty_dnn_0_airplane_00_airplane-0013-ILSVRC2012-val-00015636.png,airplane-0013-ILSVRC2012-val-00015636.png,0.0,-0.06555183,2.5050566,-1.8176947
alexnet2023_baseline_pgd,1,14,NaN,oven,airplane,0,0014_sty_dnn_0_airplane_00_airplane-0014-ILSVRC2012-val-00016995.png,airplane-0014-ILSVRC2012-val-00016995.png,0.0,-2.580008,8.741584,-8.005575
alexnet2023_baseline_pgd,1,15,NaN,elephant,airplane,0,0015_sty_dnn_0_airplane_00_airplane-0015-ILSVRC2012-val-00018616.png,airplane-0015-ILSVRC2012-val-00018616.png,0.0,0.7123947,4.0194116,-2.3384142
alexnet2023_baseline_pgd,1,16,NaN,knife,airplane,0,0016_sty_dnn_0_airplane_00_airplane-0016-ILSVRC2012-val-00018685.png,airplane-0016-ILSVRC2012-val-00018685.png,0.0,-1.8942969,2.3909326,-3.0301151
alexnet2023_baseline_pgd,1,17,NaN,oven,airplane,0,0017_sty_dnn_0_airplane_00_airplane-0017-ILSVRC2012-val-00019179.png,airplane-0017-ILSVRC2012-val-00019179.png,0.0,-2.0786378,2.9677508,-3.5683358
alexnet2023_baseline_pgd,1,18,NaN,elephant,airplane,0,0018_sty_dnn_0_airplane_00_airplane-0018-ILSVRC2012-val-00019677.png,airplane-0018-ILSVRC2012-val-00019677.png,0.0,1.3244926,5.6763434,-3.0772233
alexnet2023_baseline_pgd,1,19,NaN,elephant,airplane,0,0019_sty_dnn_0_airplane_00_airplane-0019-ILSVRC2012-val-00022532.png,airplane-0019-ILSVRC2012-val-00022532.png,0.0,-2.3344185,4.173692,-4.6019297
alexnet2023_baseline_pgd,1,20,NaN,bicycle,airplane,0,0020_sty_dnn_0_airplane_00_airplane-0020-ILSVRC2012-val-00022975.png,airplane-0020-ILSVRC2012-val-00022975.png,0.0,0.7745717,4.899559,-2.9168065
alexnet2023_baseline_pgd,1,21,NaN,knife,airplane,0,0021_sty_dnn_0_airplane_00_airplane-0021-ILSVRC2012-val-00023316.png,airplane-0021-ILSVRC2012-val-00023316.png,0.0,0.92552865,2.4082043,-1.04841
alexnet2023_baseline_pgd,1,22,NaN,knife,airplane,0,0022_sty_dnn_0_airplane_00_airplane-0022-ILSVRC2012-val-00023781.png,airplane-0022-ILSVRC2012-val-00023781.png,0.0,0.42159605,2.672124,-1.5913635
alexnet2023_baseline_pgd,1,23,NaN,airplane,airplane,0,0023_sty_dnn_0_airplane_00_airplane-0023-ILSVRC2012-val-00023863.png,airplane-0023-ILSVRC2012-val-00023863.png,1.0,9.488418,4.6241302,3.4395707
alexnet2023_baseline_pgd,1,24,NaN,airplane,airplane,0,0024_sty_dnn_0_airplane_00_airplane-0024-ILSVRC2012-val-00024108.png,airplane-0024-ILSVRC2012-val-00024108.png,1.0,4.406418,2.187725,1.5688528
alexnet2023_baseline_pgd,1,25,NaN,airplane,airplane,0,0025_sty_dnn_0_airplane_00_airplane-0025-ILSVRC2012-val-00024747.png,airplane-0025-ILSVRC2012-val-00024747.png,1.0,11.539804,6.898391,3.281975
alexnet2023_baseline_pgd,1,26,NaN,keyboard,airplane,0,0026_sty_dnn_0_airplane_00_airplane-0026-ILSVRC2012-val-00026189.png,airplane-0026-ILSVRC2012-val-00026189.png,0.0,-3.6211843,2.8046951,-4.543783
alexnet2023_baseline_pgd,1,27,NaN,clock,airplane,0,0027_sty_dnn_0_airplane_00_airplane-0027-ILSVRC2012-val-00026859.png,airplane-0027-ILSVRC2012-val-00026859.png,0.0,-0.27876365,3.86907,-2.9329615
alexnet2023_baseline_pgd,1,28,NaN,elephant,airplane,0,0028_sty_dnn_0_airplane_00_airplane-0028-ILSVRC2012-val-00028019.png,airplane-0028-ILSVRC2012-val-00028019.png,0.0,-0.46400082,8.304302,-6.2001266
alexnet2023_baseline_pgd,1,29,NaN,bottle,airplane,0,0029_sty_dnn_0_airplane_00_airplane-0029-ILSVRC2012-val-00030319.png,airplane-0029-ILSVRC2012-val-00030319.png,0.0,-1.7550976,2.4669108,-2.985411
alexnet2023_baseline_pgd,1,30,NaN,oven,airplane,0,0030_sty_dnn_0_airplane_00_airplane-0030-ILSVRC2012-val-00030411.png,airplane-0030-ILSVRC2012-val-00030411.png,0.0,1.7912769,8.930491,-5.0481873
alexnet2023_baseline_pgd,1,31,NaN,airplane,airplane,0,0031_sty_dnn_0_airplane_00_airplane-0031-ILSVRC2012-val-00030531.png,airplane-0031-ILSVRC2012-val-00030531.png,1.0,7.9253683,2.91641,3.5418684
alexnet2023_baseline_pgd,1,32,NaN,bicycle,airplane,0,0032_sty_dnn_0_airplane_00_airplane-0032-ILSVRC2012-val-00032804.png,airplane-0032-ILSVRC2012-val-00032804.png,0.0,-1.1404648,4.0665164,-3.6818917
alexnet2023_baseline_pgd,1,33,NaN,oven,airplane,0,0033_sty_dnn_0_airplane_00_airplane-0033-ILSVRC2012-val-00033161.png,airplane-0033-ILSVRC2012-val-00033161.png,0.0,-2.966939,5.699284,-6.1279454
alexnet2023_baseline_pgd,1,34,NaN,elephant,airplane,0,0034_sty_dnn_0_airplane_00_airplane-0034-ILSVRC2012-val-00033441.png,airplane-0034-ILSVRC2012-val-00033441.png,0.0,-2.1137576,4.9643793,-5.0049987
alexnet2023_baseline_pgd,1,35,NaN,elephant,airplane,0,0035_sty_dnn_0_airplane_00_airplane-0035-ILSVRC2012-val-00033920.png,airplane-0035-ILSVRC2012-val-00033920.png,0.0,3.4917414,3.909969,-0.29573163
alexnet2023_baseline_pgd,1,36,NaN,airplane,airplane,0,0036_sty_dnn_0_airplane_00_airplane-0036-ILSVRC2012-val-00034342.png,airplane-0036-ILSVRC2012-val-00034342.png,1.0,4.062179,3.5621552,0.35357025
alexnet2023_baseline_pgd,1,37,NaN,boat,airplane,0,0037_sty_dnn_0_airplane_00_airplane-0037-ILSVRC2012-val-00035783.png,airplane-0037-ILSVRC2012-val-00035783.png,0.0,-2.3108363,3.473652,-4.090251
alexnet2023_baseline_pgd,1,38,NaN,bird,airplane,0,0038_sty_dnn_0_airplane_00_airplane-0038-ILSVRC2012-val-00036394.png,airplane-0038-ILSVRC2012-val-00036394.png,0.0,0.088232204,2.1283658,-1.4425923
alexnet2023_baseline_pgd,1,39,NaN,knife,airplane,0,0039_sty_dnn_0_airplane_00_airplane-0039-ILSVRC2012-val-00037801.png,airplane-0039-ILSVRC2012-val-00037801.png,0.0,-4.866226,3.6810274,-6.043821
alexnet2023_baseline_pgd,1,40,NaN,elephant,airplane,0,0040_sty_dnn_0_airplane_00_airplane-0040-ILSVRC2012-val-00039213.png,airplane-0040-ILSVRC2012-val-00039213.png,0.0,1.5602632,10.064728,-6.013565
alexnet2023_baseline_pgd,1,41,NaN,knife,airplane,0,0041_sty_dnn_0_airplane_00_airplane-0041-ILSVRC2012-val-00040136.png,airplane-0041-ILSVRC2012-val-00040136.png,0.0,-2.3373518,3.9532328,-4.448115
alexnet2023_baseline_pgd,1,42,NaN,bicycle,airplane,0,0042_sty_dnn_0_airplane_00_airplane-0042-ILSVRC2012-val-00040547.png,airplane-0042-ILSVRC2012-val-00040547.png,0.0,-3.7540092,2.6136928,-4.5026455
alexnet2023_baseline_pgd,1,43,NaN,oven,airplane,0,0043_sty_dnn_0_airplane_00_airplane-0043-ILSVRC2012-val-00041518.png,airplane-0043-ILSVRC2012-val-00041518.png,0.0,-1.5530471,3.9150548,-3.866532
alexnet2023_baseline_pgd,1,44,NaN,truck,airplane,0,0044_sty_dnn_0_airplane_00_airplane-0044-ILSVRC2012-val-00043242.png,airplane-0044-ILSVRC2012-val-00043242.png,0.0,3.9641473,6.525856,-1.8114016
alexnet2023_baseline_pgd,1,45,NaN,oven,airplane,0,0045_sty_dnn_0_airplane_00_airplane-0045-ILSVRC2012-val-00044253.png,airplane-0045-ILSVRC2012-val-00044253.png,0.0,-1.5300924,3.7245183,-3.715571
alexnet2023_baseline_pgd,1,46,NaN,bicycle,airplane,0,0046_sty_dnn_0_airplane_00_airplane-0046-ILSVRC2012-val-00046862.png,airplane-0046-ILSVRC2012-val-00046862.png,0.0,0.68738437,1.886055,-0.8475881
alexnet2023_baseline_pgd,1,47,NaN,oven,airplane,0,0047_sty_dnn_0_airplane_00_airplane-0047-ILSVRC2012-val-00046971.png,airplane-0047-ILSVRC2012-val-00046971.png,0.0,-0.49406534,1.4200884,-1.3535112
alexnet2023_baseline_pgd,1,48,NaN,oven,airplane,0,0048_sty_dnn_0_airplane_00_airplane-0048-ILSVRC2012-val-00047829.png,airplane-0048-ILSVRC2012-val-00047829.png,0.0,5.0944624,6.114365,-0.72118014
alexnet2023_baseline_pgd,1,49,NaN,boat,airplane,0,0049_sty_dnn_0_airplane_00_airplane-0049-ILSVRC2012-val-00048111.png,airplane-0049-ILSVRC2012-val-00048111.png,0.0,1.811794,3.7945962,-1.4020529
alexnet2023_baseline_pgd,1,50,NaN,airplane,airplane,0,0050_sty_dnn_0_airplane_00_airplane-0050-ILSVRC2012-val-00049097.png,airplane-0050-ILSVRC2012-val-00049097.png,1.0,7.7201753,6.688263,0.7296722
alexnet2023_baseline_pgd,1,51,NaN,bicycle,bear,0,0051_sty_dnn_0_bear_00_bear-0003-ILSVRC2012-val-00003044.png,bear-0003-ILSVRC2012-val-00003044.png,0.0,-0.12989101,3.6915727,-2.7021828
alexnet2023_baseline_pgd,1,52,NaN,elephant,bear,0,0052_sty_dnn_0_bear_00_bear-0005-ILSVRC2012-val-00006703.png,bear-0005-ILSVRC2012-val-00006703.png,0.0,7.832448,9.154971,-0.9351651
alexnet2023_baseline_pgd,1,53,NaN,elephant,bear,0,0053_sty_dnn_0_bear_00_bear-0009-ILSVRC2012-val-00011967.png,bear-0009-ILSVRC2012-val-00011967.png,0.0,3.2070498,6.1098094,-2.052561
alexnet2023_baseline_pgd,1,54,NaN,elephant,bear,0,0054_sty_dnn_0_bear_00_bear-0010-ILSVRC2012-val-00013390.png,bear-0010-ILSVRC2012-val-00013390.png,0.0,7.9190855,9.384873,-1.0364686
alexnet2023_baseline_pgd,1,55,NaN,elephant,bear,0,0055_sty_dnn_0_bear_00_bear-0021-ILSVRC2012-val-00031253.png,bear-0021-ILSVRC2012-val-00031253.png,0.0,7.2683544,10.519961,-2.2992334
alexnet2023_baseline_pgd,1,56,NaN,elephant,bear,0,0056_sty_dnn_0_bear_00_bear-0031-ILSVRC2012-val-00039777.png,bear-0031-ILSVRC2012-val-00039777.png,0.0,0.066851065,3.3818948,-2.34409
alexnet2023_baseline_pgd,1,57,NaN,elephant,bear,0,0057_sty_dnn_0_bear_00_bear-0035-ILSVRC2012-val-00042274.png,bear-0035-ILSVRC2012-val-00042274.png,0.0,6.0490336,11.500139,-3.854514
alexnet2023_baseline_pgd,1,58,NaN,airplane,bear,0,0058_sty_dnn_0_bear_00_bear-0043-ILSVRC2012-val-00046763.png,bear-0043-ILSVRC2012-val-00046763.png,0.0,-0.94765747,2.3901618,-2.3601944
alexnet2023_baseline_pgd,1,59,NaN,elephant,bear,0,0059_sty_dnn_0_bear_00_bear-0049-ILSVRC2012-val-00049822.png,bear-0049-ILSVRC2012-val-00049822.png,0.0,1.8515823,7.8528805,-4.2435584
alexnet2023_baseline_pgd,1,60,NaN,elephant,bear,0,0060_sty_dnn_0_bear_00_bear-0052-ILSVRC2012-val-00000865.png,bear-0052-ILSVRC2012-val-00000865.png,0.0,11.024622,11.316598,-0.2064582
alexnet2023_baseline_pgd,1,61,NaN,bottle,bear,0,0061_sty_dnn_0_bear_00_bear-0056-ILSVRC2012-val-00007093.png,bear-0056-ILSVRC2012-val-00007093.png,0.0,-6.3106275,1.5547826,-5.5616846
alexnet2023_baseline_pgd,1,62,NaN,elephant,bear,0,0062_sty_dnn_0_bear_00_bear-0058-ILSVRC2012-val-00011726.png,bear-0058-ILSVRC2012-val-00011726.png,0.0,6.252845,9.991331,-2.6435091
alexnet2023_baseline_pgd,1,63,NaN,oven,bear,0,0063_sty_dnn_0_bear_00_bear-0062-ILSVRC2012-val-00014029.png,bear-0062-ILSVRC2012-val-00014029.png,0.0,3.3081012,4.235856,-0.6560218
alexnet2023_baseline_pgd,1,64,NaN,elephant,bear,0,0064_sty_dnn_0_bear_00_bear-0064-ILSVRC2012-val-00016050.png,bear-0064-ILSVRC2012-val-00016050.png,0.0,-1.1269084,3.2864738,-3.1207325
alexnet2023_baseline_pgd,1,65,NaN,bottle,bear,0,0065_sty_dnn_0_bear_00_bear-0066-ILSVRC2012-val-00016621.png,bear-0066-ILSVRC2012-val-00016621.png,0.0,-1.7773007,3.3976865,-3.6592686
alexnet2023_baseline_pgd,1,66,NaN,knife,bear,0,0066_sty_dnn_0_bear_00_bear-0067-ILSVRC2012-val-00017273.png,bear-0067-ILSVRC2012-val-00017273.png,0.0,0.5312798,5.4526906,-3.4799628
alexnet2023_baseline_pgd,1,67,NaN,elephant,bear,0,0067_sty_dnn_0_bear_00_bear-0069-ILSVRC2012-val-00018788.png,bear-0069-ILSVRC2012-val-00018788.png,0.0,1.9550637,6.48263,-3.2014728
alexnet2023_baseline_pgd,1,68,NaN,bear,bear,0,0068_sty_dnn_0_bear_00_bear-0071-ILSVRC2012-val-00020050.png,bear-0071-ILSVRC2012-val-00020050.png,1.0,6.02061,5.5789986,0.31226635
alexnet2023_baseline_pgd,1,69,NaN,elephant,bear,0,0069_sty_dnn_0_bear_00_bear-0073-ILSVRC2012-val-00024289.png,bear-0073-ILSVRC2012-val-00024289.png,0.0,-0.95860803,2.4115887,-2.383089
alexnet2023_baseline_pgd,1,70,NaN,knife,bear,0,0070_sty_dnn_0_bear_00_bear-0074-ILSVRC2012-val-00026962.png,bear-0074-ILSVRC2012-val-00026962.png,0.0,0.7005972,4.6615877,-2.8008432
alexnet2023_baseline_pgd,1,71,NaN,elephant,bear,0,0071_sty_dnn_0_bear_00_bear-0078-ILSVRC2012-val-00030951.png,bear-0078-ILSVRC2012-val-00030951.png,0.0,2.5853586,4.8494043,-1.6009221
alexnet2023_baseline_pgd,1,72,NaN,bear,bear,0,0072_sty_dnn_0_bear_00_bear-0085-ILSVRC2012-val-00035292.png,bear-0085-ILSVRC2012-val-00035292.png,1.0,4.689454,4.4112115,0.19674723
alexnet2023_baseline_pgd,1,73,NaN,bear,bear,0,0073_sty_dnn_0_bear_00_bear-0091-ILSVRC2012-val-00041813.png,bear-0091-ILSVRC2012-val-00041813.png,1.0,4.9070606,2.684973,1.5712533
alexnet2023_baseline_pgd,1,74,NaN,elephant,bear,0,0074_sty_dnn_0_bear_00_bear-0094-ILSVRC2012-val-00043648.png,bear-0094-ILSVRC2012-val-00043648.png,0.0,2.1989064,6.649893,-3.1473227
alexnet2023_baseline_pgd,1,75,NaN,elephant,bear,0,0075_sty_dnn_0_bear_00_bear-0106-ILSVRC2012-val-00007578.png,bear-0106-ILSVRC2012-val-00007578.png,0.0,-0.90728354,2.2204857,-2.2116668
alexnet2023_baseline_pgd,1,76,NaN,bottle,bear,0,0076_sty_dnn_0_bear_00_bear-0112-ILSVRC2012-val-00016340.png,bear-0112-ILSVRC2012-val-00016340.png,0.0,-0.7896955,3.3426068,-2.921979
alexnet2023_baseline_pgd,1,77,NaN,bear,bear,0,0077_sty_dnn_0_bear_00_bear-0113-ILSVRC2012-val-00016459.png,bear-0113-ILSVRC2012-val-00016459.png,1.0,7.391651,3.616022,2.6697729
alexnet2023_baseline_pgd,1,78,NaN,elephant,bear,0,0078_sty_dnn_0_bear_00_bear-0114-ILSVRC2012-val-00017605.png,bear-0114-ILSVRC2012-val-00017605.png,0.0,5.5169945,7.496838,-1.3999609
alexnet2023_baseline_pgd,1,79,NaN,cat,bear,0,0079_sty_dnn_0_bear_00_bear-0116-ILSVRC2012-val-00020332.png,bear-0116-ILSVRC2012-val-00020332.png,0.0,0.86877775,4.7056184,-2.713056
alexnet2023_baseline_pgd,1,80,NaN,elephant,bear,0,0080_sty_dnn_0_bear_00_bear-0125-ILSVRC2012-val-00028222.png,bear-0125-ILSVRC2012-val-00028222.png,0.0,3.0728533,9.577562,-4.599524
alexnet2023_baseline_pgd,1,81,NaN,knife,bear,0,0081_sty_dnn_0_bear_00_bear-0129-ILSVRC2012-val-00030485.png,bear-0129-ILSVRC2012-val-00030485.png,0.0,-1.4481459,3.0545979,-3.1839206
alexnet2023_baseline_pgd,1,82,NaN,bear,bear,0,0082_sty_dnn_0_bear_00_bear-0131-ILSVRC2012-val-00031877.png,bear-0131-ILSVRC2012-val-00031877.png,1.0,6.388738,5.28446,0.78084254
alexnet2023_baseline_pgd,1,83,NaN,knife,bear,0,0083_sty_dnn_0_bear_00_bear-0132-ILSVRC2012-val-00036763.png,bear-0132-ILSVRC2012-val-00036763.png,0.0,-2.068315,3.134709,-3.6790936
alexnet2023_baseline_pgd,1,84,NaN,chair,bear,0,0084_sty_dnn_0_bear_00_bear-0139-ILSVRC2012-val-00041156.png,bear-0139-ILSVRC2012-val-00041156.png,0.0,-3.3643026,2.779421,-4.344269
alexnet2023_baseline_pgd,1,85,NaN,elephant,bear,0,0085_sty_dnn_0_bear_00_bear-0141-ILSVRC2012-val-00042320.png,bear-0141-ILSVRC2012-val-00042320.png,0.0,8.092633,13.102446,-3.5424724
alexnet2023_baseline_pgd,1,86,NaN,bear,bear,0,0086_sty_dnn_0_bear_00_bear-0143-ILSVRC2012-val-00044126.png,bear-0143-ILSVRC2012-val-00044126.png,1.0,2.8241377,2.7547944,0.04903314
alexnet2023_baseline_pgd,1,87,NaN,knife,bear,0,0087_sty_dnn_0_bear_00_bear-0149-ILSVRC2012-val-00048105.png,bear-0149-ILSVRC2012-val-00048105.png,0.0,-1.2624683,3.6042778,-3.4413092
alexnet2023_baseline_pgd,1,88,NaN,elephant,bear,0,0088_sty_dnn_0_bear_00_bear-0154-ILSVRC2012-val-00003499.png,bear-0154-ILSVRC2012-val-00003499.png,0.0,3.581805,3.6252298,-0.030706003
alexnet2023_baseline_pgd,1,89,NaN,elephant,bear,0,0089_sty_dnn_0_bear_00_bear-0160-ILSVRC2012-val-00013052.png,bear-0160-ILSVRC2012-val-00013052.png,0.0,0.7534338,4.1339455,-2.3903828
alexnet2023_baseline_pgd,1,90,NaN,elephant,bear,0,0090_sty_dnn_0_bear_00_bear-0163-ILSVRC2012-val-00016513.png,bear-0163-ILSVRC2012-val-00016513.png,0.0,1.692732,3.7992034,-1.4895003
alexnet2023_baseline_pgd,1,91,NaN,knife,bear,0,0091_sty_dnn_0_bear_00_bear-0164-ILSVRC2012-val-00018303.png,bear-0164-ILSVRC2012-val-00018303.png,0.0,-0.26000178,3.951231,-2.9777913
alexnet2023_baseline_pgd,1,92,NaN,airplane,bear,0,0092_sty_dnn_0_bear_00_bear-0165-ILSVRC2012-val-00019901.png,bear-0165-ILSVRC2012-val-00019901.png,0.0,1.4051077,2.1821897,-0.54947996
alexnet2023_baseline_pgd,1,93,NaN,elephant,bear,0,0093_sty_dnn_0_bear_00_bear-0166-ILSVRC2012-val-00022111.png,bear-0166-ILSVRC2012-val-00022111.png,0.0,0.24470136,5.4501624,-3.680817
alexnet2023_baseline_pgd,1,94,NaN,elephant,bear,0,0094_sty_dnn_0_bear_00_bear-0167-ILSVRC2012-val-00022112.png,bear-0167-ILSVRC2012-val-00022112.png,0.0,5.7738285,10.05315,-3.0259373
alexnet2023_baseline_pgd,1,95,NaN,bear,bear,0,0095_sty_dnn_0_bear_00_bear-0168-ILSVRC2012-val-00022698.png,bear-0168-ILSVRC2012-val-00022698.png,1.0,7.9024863,4.9201536,2.1088278
alexnet2023_baseline_pgd,1,96,NaN,bear,bear,0,0096_sty_dnn_0_bear_00_bear-0180-ILSVRC2012-val-00034637.png,bear-0180-ILSVRC2012-val-00034637.png,1.0,4.438707,3.4256744,0.7163221
alexnet2023_baseline_pgd,1,97,NaN,clock,bear,0,0097_sty_dnn_0_bear_00_bear-0184-ILSVRC2012-val-00038961.png,bear-0184-ILSVRC2012-val-00038961.png,0.0,-1.9895368,3.4313288,-3.8331308
alexnet2023_baseline_pgd,1,98,NaN,elephant,bear,0,0098_sty_dnn_0_bear_00_bear-0188-ILSVRC2012-val-00043016.png,bear-0188-ILSVRC2012-val-00043016.png,0.0,-1.1985337,7.578878,-6.2065673
alexnet2023_baseline_pgd,1,99,NaN,knife,bear,0,0099_sty_dnn_0_bear_00_bear-0191-ILSVRC2012-val-00044349.png,bear-0191-ILSVRC2012-val-00044349.png,0.0,-0.52083325,4.919052,-3.8465798
alexnet2023_baseline_pgd,1,100,NaN,elephant,bear,0,0100_sty_dnn_0_bear_00_bear-0195-ILSVRC2012-val-00045672.png,bear-0195-ILSVRC2012-val-00045672.png,0.0,3.7842128,6.3862824,-1.8399411
alexnet2023_baseline_pgd,1,101,NaN,bird,bicycle,0,0101_sty_dnn_0_bicycle_00_bicycle-0005-ILSVRC2012-val-00005274.png,bicycle-0005-ILSVRC2012-val-00005274.png,0.0,-5.1444902,4.1929107,-6.602539
alexnet2023_baseline_pgd,1,102,NaN,bicycle,bicycle,0,0102_sty_dnn_0_bicycle_00_bicycle-0007-ILSVRC2012-val-00006395.png,bicycle-0007-ILSVRC2012-val-00006395.png,1.0,2.8784635,2.8543546,0.017047558
alexnet2023_baseline_pgd,1,103,NaN,bicycle,bicycle,0,0103_sty_dnn_0_bicycle_00_bicycle-0008-ILSVRC2012-val-00008007.png,bicycle-0008-ILSVRC2012-val-00008007.png,1.0,10.835569,1.4584427,6.63063
alexnet2023_baseline_pgd,1,104,NaN,bicycle,bicycle,0,0104_sty_dnn_0_bicycle_00_bicycle-0010-ILSVRC2012-val-00010544.png,bicycle-0010-ILSVRC2012-val-00010544.png,1.0,5.839714,2.2387323,2.5462787
alexnet2023_baseline_pgd,1,105,NaN,knife,bicycle,0,0105_sty_dnn_0_bicycle_00_bicycle-0011-ILSVRC2012-val-00011821.png,bicycle-0011-ILSVRC2012-val-00011821.png,0.0,0.39123052,1.2958856,-0.6396877
alexnet2023_baseline_pgd,1,106,NaN,bicycle,bicycle,0,0106_sty_dnn_0_bicycle_00_bicycle-0013-ILSVRC2012-val-00012667.png,bicycle-0013-ILSVRC2012-val-00012667.png,1.0,8.911041,5.6974006,2.2723873
alexnet2023_baseline_pgd,1,107,NaN,elephant,bicycle,0,0107_sty_dnn_0_bicycle_00_bicycle-0014-ILSVRC2012-val-00015483.png,bicycle-0014-ILSVRC2012-val-00015483.png,0.0,-0.26396498,5.7558227,-4.256633
alexnet2023_baseline_pgd,1,108,NaN,bicycle,bicycle,0,0108_sty_dnn_0_bicycle_00_bicycle-0015-ILSVRC2012-val-00015618.png,bicycle-0015-ILSVRC2012-val-00015618.png,1.0,6.350771,2.7880397,2.5192316
alexnet2023_baseline_pgd,1,109,NaN,elephant,bicycle,0,0109_sty_dnn_0_bicycle_00_bicycle-0016-ILSVRC2012-val-00016532.png,bicycle-0016-ILSVRC2012-val-00016532.png,0.0,-0.29188523,8.972385,-6.550829
alexnet2023_baseline_pgd,1,110,NaN,bicycle,bicycle,0,0110_sty_dnn_0_bicycle_00_bicycle-0018-ILSVRC2012-val-00018975.png,bicycle-0018-ILSVRC2012-val-00018975.png,1.0,16.595371,3.1806164,9.485664
alexnet2023_baseline_pgd,1,111,NaN,bicycle,bicycle,0,0111_sty_dnn_0_bicycle_00_bicycle-0020-ILSVRC2012-val-00022027.png,bicycle-0020-ILSVRC2012-val-00022027.png,1.0,6.17832,3.2473326,2.072521
alexnet2023_baseline_pgd,1,112,NaN,chair,bicycle,0,0112_sty_dnn_0_bicycle_00_bicycle-0022-ILSVRC2012-val-00023266.png,bicycle-0022-ILSVRC2012-val-00023266.png,0.0,2.1409574,4.6589646,-1.7805
alexnet2023_baseline_pgd,1,113,NaN,elephant,bicycle,0,0113_sty_dnn_0_bicycle_00_bicycle-0024-ILSVRC2012-val-00025915.png,bicycle-0024-ILSVRC2012-val-00025915.png,0.0,-0.37975168,4.2333803,-3.261977
alexnet2023_baseline_pgd,1,114,NaN,bicycle,bicycle,0,0114_sty_dnn_0_bicycle_00_bicycle-0026-ILSVRC2012-val-00026292.png,bicycle-0026-ILSVRC2012-val-00026292.png,1.0,3.8449998,1.3972886,1.7307932
alexnet2023_baseline_pgd,1,115,NaN,knife,bicycle,0,0115_sty_dnn_0_bicycle_00_bicycle-0030-ILSVRC2012-val-00027620.png,bicycle-0030-ILSVRC2012-val-00027620.png,0.0,-0.44163126,3.956892,-3.1102257
alexnet2023_baseline_pgd,1,116,NaN,oven,bicycle,0,0116_sty_dnn_0_bicycle_00_bicycle-0032-ILSVRC2012-val-00030070.png,bicycle-0032-ILSVRC2012-val-00030070.png,0.0,-0.2089396,3.3647408,-2.5269737
alexnet2023_baseline_pgd,1,117,NaN,chair,bicycle,0,0117_sty_dnn_0_bicycle_00_bicycle-0033-ILSVRC2012-val-00031498.png,bicycle-0033-ILSVRC2012-val-00031498.png,0.0,1.8015615,1.8583632,-0.04016485
alexnet2023_baseline_pgd,1,118,NaN,bicycle,bicycle,0,0118_sty_dnn_0_bicycle_00_bicycle-0035-ILSVRC2012-val-00033559.png,bicycle-0035-ILSVRC2012-val-00033559.png,1.0,10.738466,3.4828312,5.130509
alexnet2023_baseline_pgd,1,119,NaN,bicycle,bicycle,0,0119_sty_dnn_0_bicycle_00_bicycle-0037-ILSVRC2012-val-00036009.png,bicycle-0037-ILSVRC2012-val-00036009.png,1.0,5.1955767,2.66668,1.7881999
alexnet2023_baseline_pgd,1,120,NaN,chair,bicycle,0,0120_sty_dnn_0_bicycle_00_bicycle-0038-ILSVRC2012-val-00036903.png,bicycle-0038-ILSVRC2012-val-00036903.png,0.0,2.0295868,6.233238,-2.9724305
alexnet2023_baseline_pgd,1,121,NaN,bicycle,bicycle,0,0121_sty_dnn_0_bicycle_00_bicycle-0039-ILSVRC2012-val-00037292.png,bicycle-0039-ILSVRC2012-val-00037292.png,1.0,7.7115545,5.8474226,1.3181404
alexnet2023_baseline_pgd,1,122,NaN,bicycle,bicycle,0,0122_sty_dnn_0_bicycle_00_bicycle-0040-ILSVRC2012-val-00037433.png,bicycle-0040-ILSVRC2012-val-00037433.png,1.0,7.6020603,3.4172156,2.9591322
alexnet2023_baseline_pgd,1,123,NaN,bicycle,bicycle,0,0123_sty_dnn_0_bicycle_00_bicycle-0043-ILSVRC2012-val-00038415.png,bicycle-0043-ILSVRC2012-val-00038415.png,1.0,4.560174,3.698992,0.60894763
alexnet2023_baseline_pgd,1,124,NaN,bear,bicycle,0,0124_sty_dnn_0_bicycle_00_bicycle-0044-ILSVRC2012-val-00040027.png,bicycle-0044-ILSVRC2012-val-00040027.png,0.0,0.9931827,2.8559678,-1.317188
alexnet2023_baseline_pgd,1,125,NaN,elephant,bicycle,0,0125_sty_dnn_0_bicycle_00_bicycle-0046-ILSVRC2012-val-00042496.png,bicycle-0046-ILSVRC2012-val-00042496.png,0.0,3.3249059,4.603464,-0.90407723
alexnet2023_baseline_pgd,1,126,NaN,bicycle,bicycle,0,0126_sty_dnn_0_bicycle_00_bicycle-0047-ILSVRC2012-val-00043435.png,bicycle-0047-ILSVRC2012-val-00043435.png,1.0,7.797492,4.3973846,2.404239
alexnet2023_baseline_pgd,1,127,NaN,bicycle,bicycle,0,0127_sty_dnn_0_bicycle_00_bicycle-0048-ILSVRC2012-val-00045400.png,bicycle-0048-ILSVRC2012-val-00045400.png,1.0,5.1625133,3.0460956,1.4965333
alexnet2023_baseline_pgd,1,128,NaN,bicycle,bicycle,0,0128_sty_dnn_0_bicycle_00_bicycle-0050-ILSVRC2012-val-00049382.png,bicycle-0050-ILSVRC2012-val-00049382.png,1.0,3.6762066,3.3414102,0.23673683
alexnet2023_baseline_pgd,1,129,NaN,bicycle,bicycle,0,0129_sty_dnn_0_bicycle_00_bicycle-0054-ILSVRC2012-val-00004147.png,bicycle-0054-ILSVRC2012-val-00004147.png,1.0,8.017506,2.3181808,4.030031
alexnet2023_baseline_pgd,1,130,NaN,elephant,bicycle,0,0130_sty_dnn_0_bicycle_00_bicycle-0056-ILSVRC2012-val-00005330.png,bicycle-0056-ILSVRC2012-val-00005330.png,0.0,2.8885565,3.806131,-0.6488231
alexnet2023_baseline_pgd,1,131,NaN,bicycle,bicycle,0,0131_sty_dnn_0_bicycle_00_bicycle-0059-ILSVRC2012-val-00011329.png,bicycle-0059-ILSVRC2012-val-00011329.png,1.0,3.766683,2.2196953,1.0938855
alexnet2023_baseline_pgd,1,132,NaN,bicycle,bicycle,0,0132_sty_dnn_0_bicycle_00_bicycle-0060-ILSVRC2012-val-00011330.png,bicycle-0060-ILSVRC2012-val-00011330.png,1.0,4.364539,2.7576103,1.1362703
alexnet2023_baseline_pgd,1,133,NaN,elephant,bicycle,0,0133_sty_dnn_0_bicycle_00_bicycle-0061-ILSVRC2012-val-00012096.png,bicycle-0061-ILSVRC2012-val-00012096.png,0.0,1.0904784,4.381039,-2.326778
alexnet2023_baseline_pgd,1,134,NaN,bicycle,bicycle,0,0134_sty_dnn_0_bicycle_00_bicycle-0062-ILSVRC2012-val-00015867.png,bicycle-0062-ILSVRC2012-val-00015867.png,1.0,3.3005118,2.3480446,0.673496
alexnet2023_baseline_pgd,1,135,NaN,elephant,bicycle,0,0135_sty_dnn_0_bicycle_00_bicycle-0064-ILSVRC2012-val-00017103.png,bicycle-0064-ILSVRC2012-val-00017103.png,0.0,0.21206956,5.661005,-3.8529794
alexnet2023_baseline_pgd,1,136,NaN,elephant,bicycle,0,0136_sty_dnn_0_bicycle_00_bicycle-0067-ILSVRC2012-val-00018304.png,bicycle-0067-ILSVRC2012-val-00018304.png,0.0,-2.8518374,4.1759963,-4.969429
alexnet2023_baseline_pgd,1,137,NaN,bear,bicycle,0,0137_sty_dnn_0_bicycle_00_bicycle-0070-ILSVRC2012-val-00020631.png,bicycle-0070-ILSVRC2012-val-00020631.png,0.0,1.5421137,3.9425125,-1.6973382
alexnet2023_baseline_pgd,1,138,NaN,bicycle,bicycle,0,0138_sty_dnn_0_bicycle_00_bicycle-0073-ILSVRC2012-val-00027449.png,bicycle-0073-ILSVRC2012-val-00027449.png,1.0,4.4685483,2.0160015,1.7342125
alexnet2023_baseline_pgd,1,139,NaN,cat,bicycle,0,0139_sty_dnn_0_bicycle_00_bicycle-0074-ILSVRC2012-val-00028824.png,bicycle-0074-ILSVRC2012-val-00028824.png,0.0,1.8512629,4.29045,-1.7247658
alexnet2023_baseline_pgd,1,140,NaN,bicycle,bicycle,0,0140_sty_dnn_0_bicycle_00_bicycle-0077-ILSVRC2012-val-00030112.png,bicycle-0077-ILSVRC2012-val-00030112.png,1.0,4.5208187,1.8718108,1.8731314
alexnet2023_baseline_pgd,1,141,NaN,bicycle,bicycle,0,0141_sty_dnn_0_bicycle_00_bicycle-0078-ILSVRC2012-val-00030892.png,bicycle-0078-ILSVRC2012-val-00030892.png,1.0,11.756401,6.355378,3.8191
alexnet2023_baseline_pgd,1,142,NaN,bicycle,bicycle,0,0142_sty_dnn_0_bicycle_00_bicycle-0079-ILSVRC2012-val-00031485.png,bicycle-0079-ILSVRC2012-val-00031485.png,1.0,4.2011423,2.7314022,1.0392632
alexnet2023_baseline_pgd,1,143,NaN,cat,bicycle,0,0143_sty_dnn_0_bicycle_00_bicycle-0080-ILSVRC2012-val-00032009.png,bicycle-0080-ILSVRC2012-val-00032009.png,0.0,1.9542094,2.8980663,-0.6674076
alexnet2023_baseline_pgd,1,144,NaN,bird,bicycle,0,0144_sty_dnn_0_bicycle_00_bicycle-0081-ILSVRC2012-val-00032967.png,bicycle-0081-ILSVRC2012-val-00032967.png,0.0,1.2472737,4.631098,-2.392725
alexnet2023_baseline_pgd,1,145,NaN,elephant,bicycle,0,0145_sty_dnn_0_bicycle_00_bicycle-0085-ILSVRC2012-val-00037438.png,bicycle-0085-ILSVRC2012-val-00037438.png,0.0,4.18242,4.3390985,-0.110788554
alexnet2023_baseline_pgd,1,146,NaN,bicycle,bicycle,0,0146_sty_dnn_0_bicycle_00_bicycle-0089-ILSVRC2012-val-00042393.png,bicycle-0089-ILSVRC2012-val-00042393.png,1.0,8.2586,4.847069,2.412317
alexnet2023_baseline_pgd,1,147,NaN,bicycle,bicycle,0,0147_sty_dnn_0_bicycle_00_bicycle-0092-ILSVRC2012-val-00043207.png,bicycle-0092-ILSVRC2012-val-00043207.png,1.0,5.4115515,2.5667562,2.011574
alexnet2023_baseline_pgd,1,148,NaN,bicycle,bicycle,0,0148_sty_dnn_0_bicycle_00_bicycle-0094-ILSVRC2012-val-00044080.png,bicycle-0094-ILSVRC2012-val-00044080.png,1.0,9.195751,2.1965384,4.949191
alexnet2023_baseline_pgd,1,149,NaN,bicycle,bicycle,0,0149_sty_dnn_0_bicycle_00_bicycle-0096-ILSVRC2012-val-00045152.png,bicycle-0096-ILSVRC2012-val-00045152.png,1.0,7.1481056,2.503009,3.2845795
alexnet2023_baseline_pgd,1,150,NaN,bicycle,bicycle,0,0150_sty_dnn_0_bicycle_00_bicycle-0100-ILSVRC2012-val-00049750.png,bicycle-0100-ILSVRC2012-val-00049750.png,1.0,8.961734,3.15933,4.102919
alexnet2023_baseline_pgd,1,151,NaN,oven,bird,0,0151_sty_dnn_0_bird_00_bird-0009-ILSVRC2012-val-00007530.png,bird-0009-ILSVRC2012-val-00007530.png,0.0,-0.65743273,2.8411014,-2.4738374
alexnet2023_baseline_pgd,1,152,NaN,elephant,bird,0,0152_sty_dnn_0_bird_00_bird-0045-ILSVRC2012-val-00045547.png,bird-0045-ILSVRC2012-val-00045547.png,0.0,0.038925063,2.7169893,-1.8936774
alexnet2023_baseline_pgd,1,153,NaN,bear,bird,0,0153_sty_dnn_0_bird_00_bird-0119-ILSVRC2012-val-00016252.png,bird-0119-ILSVRC2012-val-00016252.png,0.0,2.4824715,3.3174562,-0.5904234
alexnet2023_baseline_pgd,1,154,NaN,oven,bird,0,0154_sty_dnn_0_bird_00_bird-0122-ILSVRC2012-val-00019236.png,bird-0122-ILSVRC2012-val-00019236.png,0.0,3.1052794,8.0074415,-3.466352
alexnet2023_baseline_pgd,1,155,NaN,bird,bird,0,0155_sty_dnn_0_bird_00_bird-0157-ILSVRC2012-val-00005336.png,bird-0157-ILSVRC2012-val-00005336.png,1.0,7.1821365,4.5399046,1.8683401
alexnet2023_baseline_pgd,1,156,NaN,knife,bird,0,0156_sty_dnn_0_bird_00_bird-0175-ILSVRC2012-val-00018699.png,bird-0175-ILSVRC2012-val-00018699.png,0.0,-2.9335136,3.5966926,-4.617553
alexnet2023_baseline_pgd,1,157,NaN,elephant,bird,0,0157_sty_dnn_0_bird_00_bird-0228-ILSVRC2012-val-00017712.png,bird-0228-ILSVRC2012-val-00017712.png,0.0,2.2610154,5.3781185,-2.2041247
alexnet2023_baseline_pgd,1,158,NaN,bird,bird,0,0158_sty_dnn_0_bird_00_bird-0238-ILSVRC2012-val-00030657.png,bird-0238-ILSVRC2012-val-00030657.png,1.0,3.610439,2.9309597,0.48046446
alexnet2023_baseline_pgd,1,159,NaN,elephant,bird,0,0159_sty_dnn_0_bird_00_bird-0426-ILSVRC2012-val-00030017.png,bird-0426-ILSVRC2012-val-00030017.png,0.0,3.0361063,6.2595706,-2.2793334
alexnet2023_baseline_pgd,1,160,NaN,boat,bird,0,0160_sty_dnn_0_bird_00_bird-0486-ILSVRC2012-val-00037420.png,bird-0486-ILSVRC2012-val-00037420.png,0.0,0.6298132,6.0329905,-3.8206234
alexnet2023_baseline_pgd,1,161,NaN,elephant,bird,0,0161_sty_dnn_0_bird_00_bird-0513-ILSVRC2012-val-00013223.png,bird-0513-ILSVRC2012-val-00013223.png,0.0,3.5443258,8.367844,-3.4107423
alexnet2023_baseline_pgd,1,162,NaN,bird,bird,0,0162_sty_dnn_0_bird_00_bird-0522-ILSVRC2012-val-00020730.png,bird-0522-ILSVRC2012-val-00020730.png,1.0,2.329003,2.316803,0.008626786
alexnet2023_baseline_pgd,1,163,NaN,bird,bird,0,0163_sty_dnn_0_bird_00_bird-0532-ILSVRC2012-val-00028181.png,bird-0532-ILSVRC2012-val-00028181.png,1.0,7.537647,4.7266498,1.9876751
alexnet2023_baseline_pgd,1,164,NaN,bird,bird,0,0164_sty_dnn_0_bird_00_bird-0624-ILSVRC2012-val-00024514.png,bird-0624-ILSVRC2012-val-00024514.png,1.0,2.247675,2.203962,0.030909656
alexnet2023_baseline_pgd,1,165,NaN,bird,bird,0,0165_sty_dnn_0_bird_00_bird-0701-ILSVRC2012-val-00000075.png,bird-0701-ILSVRC2012-val-00000075.png,1.0,5.408923,4.5252523,0.6248496
alexnet2023_baseline_pgd,1,166,NaN,bird,bird,0,0166_sty_dnn_0_bird_00_bird-0752-ILSVRC2012-val-00001596.png,bird-0752-ILSVRC2012-val-00001596.png,1.0,6.55592,0.6776,4.1566
alexnet2023_baseline_pgd,1,167,NaN,elephant,bird,0,0167_sty_dnn_0_bird_00_bird-0754-ILSVRC2012-val-00002846.png,bird-0754-ILSVRC2012-val-00002846.png,0.0,1.4855716,5.265785,-2.6730146
alexnet2023_baseline_pgd,1,168,NaN,oven,bird,0,0168_sty_dnn_0_bird_00_bird-0822-ILSVRC2012-val-00025200.png,bird-0822-ILSVRC2012-val-00025200.png,0.0,-0.58740634,3.1177917,-2.6199708
alexnet2023_baseline_pgd,1,169,NaN,knife,bird,0,0169_sty_dnn_0_bird_00_bird-0896-ILSVRC2012-val-00046621.png,bird-0896-ILSVRC2012-val-00046621.png,0.0,-1.5518324,3.1656928,-3.3357942
alexnet2023_baseline_pgd,1,170,NaN,dog,bird,0,0170_sty_dnn_0_bird_00_bird-0995-ILSVRC2012-val-00046534.png,bird-0995-ILSVRC2012-val-00046534.png,0.0,0.11581026,1.7537156,-1.158174
alexnet2023_baseline_pgd,1,171,NaN,oven,bird,0,0171_sty_dnn_0_bird_00_bird-1052-ILSVRC2012-val-00003884.png,bird-1052-ILSVRC2012-val-00003884.png,0.0,1.222539,5.3622665,-2.9272294
alexnet2023_baseline_pgd,1,172,NaN,elephant,bird,0,0172_sty_dnn_0_bird_00_bird-1093-ILSVRC2012-val-00044082.png,bird-1093-ILSVRC2012-val-00044082.png,0.0,-1.9405732,5.451662,-5.2271
alexnet2023_baseline_pgd,1,173,NaN,bicycle,bird,0,0173_sty_dnn_0_bird_00_bird-1172-ILSVRC2012-val-00022442.png,bird-1172-ILSVRC2012-val-00022442.png,0.0,-0.13878371,2.293561,-1.7199274
alexnet2023_baseline_pgd,1,174,NaN,elephant,bird,0,0174_sty_dnn_0_bird_00_bird-1188-ILSVRC2012-val-00040014.png,bird-1188-ILSVRC2012-val-00040014.png,0.0,1.6829534,5.5362053,-2.7246606
alexnet2023_baseline_pgd,1,175,NaN,oven,bird,0,0175_sty_dnn_0_bird_00_bird-1198-ILSVRC2012-val-00048142.png,bird-1198-ILSVRC2012-val-00048142.png,0.0,3.4682853,3.9857018,-0.36586872
alexnet2023_baseline_pgd,1,176,NaN,chair,bird,0,0176_sty_dnn_0_bird_00_bird-1256-ILSVRC2012-val-00005779.png,bird-1256-ILSVRC2012-val-00005779.png,0.0,-1.1047969,2.8201423,-2.775351
alexnet2023_baseline_pgd,1,177,NaN,oven,bird,0,0177_sty_dnn_0_bird_00_bird-1274-ILSVRC2012-val-00025449.png,bird-1274-ILSVRC2012-val-00025449.png,0.0,0.90953124,5.5626645,-3.2902622
alexnet2023_baseline_pgd,1,178,NaN,elephant,bird,0,0178_sty_dnn_0_bird_00_bird-1326-ILSVRC2012-val-00025658.png,bird-1326-ILSVRC2012-val-00025658.png,0.0,2.7214499,7.1095853,-3.1028805
alexnet2023_baseline_pgd,1,179,NaN,bird,bird,0,0179_sty_dnn_0_bird_00_bird-1394-ILSVRC2012-val-00040051.png,bird-1394-ILSVRC2012-val-00040051.png,1.0,2.9871857,1.673528,0.9288963
alexnet2023_baseline_pgd,1,180,NaN,elephant,bird,0,0180_sty_dnn_0_bird_00_bird-1452-ILSVRC2012-val-00002997.png,bird-1452-ILSVRC2012-val-00002997.png,0.0,4.988266,7.892845,-2.0538476
alexnet2023_baseline_pgd,1,181,NaN,bird,bird,0,0181_sty_dnn_0_bird_00_bird-1551-ILSVRC2012-val-00000690.png,bird-1551-ILSVRC2012-val-00000690.png,1.0,4.4130216,2.3936927,1.4278811
alexnet2023_baseline_pgd,1,182,NaN,boat,bird,0,0182_sty_dnn_0_bird_00_bird-1646-ILSVRC2012-val-00039398.png,bird-1646-ILSVRC2012-val-00039398.png,0.0,2.9479544,2.9712787,-0.016492736
alexnet2023_baseline_pgd,1,183,NaN,bird,bird,0,0183_sty_dnn_0_bird_00_bird-1861-ILSVRC2012-val-00007811.png,bird-1861-ILSVRC2012-val-00007811.png,1.0,3.9015613,3.0907145,0.57335526
alexnet2023_baseline_pgd,1,184,NaN,bird,bird,0,0184_sty_dnn_0_bird_00_bird-1865-ILSVRC2012-val-00009672.png,bird-1865-ILSVRC2012-val-00009672.png,1.0,5.2081943,3.3567152,1.3091934
alexnet2023_baseline_pgd,1,185,NaN,oven,bird,0,0185_sty_dnn_0_bird_00_bird-1913-ILSVRC2012-val-00012475.png,bird-1913-ILSVRC2012-val-00012475.png,0.0,2.0562787,6.382614,-3.0591812
alexnet2023_baseline_pgd,1,186,NaN,elephant,bird,0,0186_sty_dnn_0_bird_00_bird-1941-ILSVRC2012-val-00042829.png,bird-1941-ILSVRC2012-val-00042829.png,0.0,2.454723,5.267583,-1.9889925
alexnet2023_baseline_pgd,1,187,NaN,elephant,bird,0,0187_sty_dnn_0_bird_00_bird-1971-ILSVRC2012-val-00023024.png,bird-1971-ILSVRC2012-val-00023024.png,0.0,0.10374833,6.2735405,-4.362702
alexnet2023_baseline_pgd,1,188,NaN,elephant,bird,0,0188_sty_dnn_0_bird_00_bird-2011-ILSVRC2012-val-00008842.png,bird-2011-ILSVRC2012-val-00008842.png,0.0,2.0900261,8.100795,-4.2502556
alexnet2023_baseline_pgd,1,189,NaN,bird,bird,0,0189_sty_dnn_0_bird_00_bird-2082-ILSVRC2012-val-00036457.png,bird-2082-ILSVRC2012-val-00036457.png,1.0,4.8480167,4.476989,0.26235637
alexnet2023_baseline_pgd,1,190,NaN,elephant,bird,0,0190_sty_dnn_0_bird_00_bird-2118-ILSVRC2012-val-00021926.png,bird-2118-ILSVRC2012-val-00021926.png,0.0,0.98350245,1.968133,-0.69623893
alexnet2023_baseline_pgd,1,191,NaN,oven,bird,0,0191_sty_dnn_0_bird_00_bird-2144-ILSVRC2012-val-00044377.png,bird-2144-ILSVRC2012-val-00044377.png,0.0,-0.8326492,9.949036,-7.6238027
alexnet2023_baseline_pgd,1,192,NaN,oven,bird,0,0192_sty_dnn_0_bird_00_bird-2178-ILSVRC2012-val-00026510.png,bird-2178-ILSVRC2012-val-00026510.png,0.0,-0.02111556,1.4664441,-1.0518636
alexnet2023_baseline_pgd,1,193,NaN,elephant,bird,0,0193_sty_dnn_0_bird_00_bird-2184-ILSVRC2012-val-00034910.png,bird-2184-ILSVRC2012-val-00034910.png,0.0,-1.0960928,5.418928,-4.6068153
alexnet2023_baseline_pgd,1,194,NaN,knife,bird,0,0194_sty_dnn_0_bird_00_bird-2221-ILSVRC2012-val-00014977.png,bird-2221-ILSVRC2012-val-00014977.png,0.0,-1.4465806,3.6815047,-3.6261039
alexnet2023_baseline_pgd,1,195,NaN,bicycle,bird,0,0195_sty_dnn_0_bird_00_bird-2222-ILSVRC2012-val-00015392.png,bird-2222-ILSVRC2012-val-00015392.png,0.0,3.0607975,4.858231,-1.2709775
alexnet2023_baseline_pgd,1,196,NaN,oven,bird,0,0196_sty_dnn_0_bird_00_bird-2248-ILSVRC2012-val-00044992.png,bird-2248-ILSVRC2012-val-00044992.png,0.0,1.7816381,4.7284145,-2.0836856
alexnet2023_baseline_pgd,1,197,NaN,bird,bird,0,0197_sty_dnn_0_bird_00_bird-2322-ILSVRC2012-val-00023492.png,bird-2322-ILSVRC2012-val-00023492.png,1.0,4.434105,2.9144495,1.0745587
alexnet2023_baseline_pgd,1,198,NaN,elephant,bird,0,0198_sty_dnn_0_bird_00_bird-2405-ILSVRC2012-val-00007988.png,bird-2405-ILSVRC2012-val-00007988.png,0.0,0.3894651,3.1313632,-1.9388148
alexnet2023_baseline_pgd,1,199,NaN,elephant,bird,0,0199_sty_dnn_0_bird_00_bird-2410-ILSVRC2012-val-00010355.png,bird-2410-ILSVRC2012-val-00010355.png,0.0,1.223965,3.137662,-1.353188
alexnet2023_baseline_pgd,1,200,NaN,elephant,bird,0,0200_sty_dnn_0_bird_00_bird-2433-ILSVRC2012-val-00028670.png,bird-2433-ILSVRC2012-val-00028670.png,0.0,1.7502844,5.523924,-2.6683662
alexnet2023_baseline_pgd,1,201,NaN,knife,boat,0,0201_sty_dnn_0_boat_00_boat-0005-ILSVRC2012-val-00004909.png,boat-0005-ILSVRC2012-val-00004909.png,0.0,-2.3983624,3.3849163,-4.0893955
alexnet2023_baseline_pgd,1,202,NaN,cat,boat,0,0202_sty_dnn_0_boat_00_boat-0011-ILSVRC2012-val-00011563.png,boat-0011-ILSVRC2012-val-00011563.png,0.0,-0.80396163,3.7359326,-3.21019
alexnet2023_baseline_pgd,1,203,NaN,elephant,boat,0,0203_sty_dnn_0_boat_00_boat-0026-ILSVRC2012-val-00026341.png,boat-0026-ILSVRC2012-val-00026341.png,0.0,1.012591,4.745511,-2.639573
alexnet2023_baseline_pgd,1,204,NaN,oven,boat,0,0204_sty_dnn_0_boat_00_boat-0033-ILSVRC2012-val-00030824.png,boat-0033-ILSVRC2012-val-00030824.png,0.0,-1.1549011,3.628531,-3.3823972
alexnet2023_baseline_pgd,1,205,NaN,elephant,boat,0,0205_sty_dnn_0_boat_00_boat-0036-ILSVRC2012-val-00032433.png,boat-0036-ILSVRC2012-val-00032433.png,0.0,-2.2249622,3.592352,-4.1134624
alexnet2023_baseline_pgd,1,206,NaN,elephant,boat,0,0206_sty_dnn_0_boat_00_boat-0039-ILSVRC2012-val-00033883.png,boat-0039-ILSVRC2012-val-00033883.png,0.0,3.4166436,5.0514703,-1.155997
alexnet2023_baseline_pgd,1,207,NaN,oven,boat,0,0207_sty_dnn_0_boat_00_boat-0042-ILSVRC2012-val-00039945.png,boat-0042-ILSVRC2012-val-00039945.png,0.0,-0.5614598,8.129365,-6.145341
alexnet2023_baseline_pgd,1,208,NaN,boat,boat,0,0208_sty_dnn_0_boat_00_boat-0044-ILSVRC2012-val-00041227.png,boat-0044-ILSVRC2012-val-00041227.png,1.0,3.026241,2.7346356,0.2061962
alexnet2023_baseline_pgd,1,209,NaN,oven,boat,0,0209_sty_dnn_0_boat_00_boat-0048-ILSVRC2012-val-00046387.png,boat-0048-ILSVRC2012-val-00046387.png,0.0,-2.7013383,8.423394,-7.8663745
alexnet2023_baseline_pgd,1,210,NaN,elephant,boat,0,0210_sty_dnn_0_boat_00_boat-0053-ILSVRC2012-val-00005918.png,boat-0053-ILSVRC2012-val-00005918.png,0.0,-1.8807291,4.356734,-4.4105525
alexnet2023_baseline_pgd,1,211,NaN,elephant,boat,0,0211_sty_dnn_0_boat_00_boat-0061-ILSVRC2012-val-00011292.png,boat-0061-ILSVRC2012-val-00011292.png,0.0,0.5045888,6.7817388,-4.4386153
alexnet2023_baseline_pgd,1,212,NaN,bird,boat,0,0212_sty_dnn_0_boat_00_boat-0064-ILSVRC2012-val-00013366.png,boat-0064-ILSVRC2012-val-00013366.png,0.0,1.7490559,1.9118748,-0.11513036
alexnet2023_baseline_pgd,1,213,NaN,knife,boat,0,0213_sty_dnn_0_boat_00_boat-0066-ILSVRC2012-val-00013961.png,boat-0066-ILSVRC2012-val-00013961.png,0.0,-0.5136956,3.5320175,-2.8607512
alexnet2023_baseline_pgd,1,214,NaN,elephant,boat,0,0214_sty_dnn_0_boat_00_boat-0070-ILSVRC2012-val-00017026.png,boat-0070-ILSVRC2012-val-00017026.png,0.0,-4.747529,8.394587,-9.292879
alexnet2023_baseline_pgd,1,215,NaN,bird,boat,0,0215_sty_dnn_0_boat_00_boat-0073-ILSVRC2012-val-00018158.png,boat-0073-ILSVRC2012-val-00018158.png,0.0,1.1134787,2.525039,-0.9981239
alexnet2023_baseline_pgd,1,216,NaN,bird,boat,0,0216_sty_dnn_0_boat_00_boat-0076-ILSVRC2012-val-00020486.png,boat-0076-ILSVRC2012-val-00020486.png,0.0,-2.5861402,3.3406463,-4.190871
alexnet2023_baseline_pgd,1,217,NaN,boat,boat,0,0217_sty_dnn_0_boat_00_boat-0077-ILSVRC2012-val-00021948.png,boat-0077-ILSVRC2012-val-00021948.png,1.0,3.9851804,2.560582,1.0073433
alexnet2023_baseline_pgd,1,218,NaN,bicycle,boat,0,0218_sty_dnn_0_boat_00_boat-0079-ILSVRC2012-val-00025681.png,boat-0079-ILSVRC2012-val-00025681.png,0.0,-1.4574339,6.2863264,-5.4756656
alexnet2023_baseline_pgd,1,219,NaN,knife,boat,0,0219_sty_dnn_0_boat_00_boat-0082-ILSVRC2012-val-00027612.png,boat-0082-ILSVRC2012-val-00027612.png,0.0,0.063457526,2.7611015,-1.9075224
alexnet2023_baseline_pgd,1,220,NaN,elephant,boat,0,0220_sty_dnn_0_boat_00_boat-0083-ILSVRC2012-val-00034455.png,boat-0083-ILSVRC2012-val-00034455.png,0.0,-3.8540635,4.9348116,-6.2146735
alexnet2023_baseline_pgd,1,221,NaN,oven,boat,0,0221_sty_dnn_0_boat_00_boat-0086-ILSVRC2012-val-00039559.png,boat-0086-ILSVRC2012-val-00039559.png,0.0,0.34127608,6.032724,-4.0244613
alexnet2023_baseline_pgd,1,222,NaN,bicycle,boat,0,0222_sty_dnn_0_boat_00_boat-0098-ILSVRC2012-val-00047961.png,boat-0098-ILSVRC2012-val-00047961.png,0.0,-3.2497182,3.088884,-4.4820685
alexnet2023_baseline_pgd,1,223,NaN,chair,boat,0,0223_sty_dnn_0_boat_00_boat-0100-ILSVRC2012-val-00048371.png,boat-0100-ILSVRC2012-val-00048371.png,0.0,-1.4465601,4.194853,-3.9890814
alexnet2023_baseline_pgd,1,224,NaN,knife,boat,0,0224_sty_dnn_0_boat_00_boat-0103-ILSVRC2012-val-00002308.png,boat-0103-ILSVRC2012-val-00002308.png,0.0,-1.9654554,3.8546498,-4.1154356
alexnet2023_baseline_pgd,1,225,NaN,oven,boat,0,0225_sty_dnn_0_boat_00_boat-0107-ILSVRC2012-val-00004492.png,boat-0107-ILSVRC2012-val-00004492.png,0.0,2.6527786,5.6261272,-2.102475
alexnet2023_baseline_pgd,1,226,NaN,oven,boat,0,0226_sty_dnn_0_boat_00_boat-0111-ILSVRC2012-val-00009680.png,boat-0111-ILSVRC2012-val-00009680.png,0.0,0.076995514,9.666106,-6.780525
alexnet2023_baseline_pgd,1,227,NaN,boat,boat,0,0227_sty_dnn_0_boat_00_boat-0121-ILSVRC2012-val-00016970.png,boat-0121-ILSVRC2012-val-00016970.png,1.0,5.99825,5.9036994,0.066857375
alexnet2023_baseline_pgd,1,228,NaN,oven,boat,0,0228_sty_dnn_0_boat_00_boat-0129-ILSVRC2012-val-00027504.png,boat-0129-ILSVRC2012-val-00027504.png,0.0,0.2717739,7.129599,-4.849215
alexnet2023_baseline_pgd,1,229,NaN,bicycle,boat,0,0229_sty_dnn_0_boat_00_boat-0137-ILSVRC2012-val-00035374.png,boat-0137-ILSVRC2012-val-00035374.png,0.0,0.86497796,6.97616,-4.3212585
alexnet2023_baseline_pgd,1,230,NaN,oven,boat,0,0230_sty_dnn_0_boat_00_boat-0142-ILSVRC2012-val-00040889.png,boat-0142-ILSVRC2012-val-00040889.png,0.0,-1.3338747,6.8874245,-5.8133364
alexnet2023_baseline_pgd,1,231,NaN,bear,boat,0,0231_sty_dnn_0_boat_00_boat-0153-ILSVRC2012-val-00002696.png,boat-0153-ILSVRC2012-val-00002696.png,0.0,2.7247639,4.803814,-1.4701104
alexnet2023_baseline_pgd,1,232,NaN,boat,boat,0,0232_sty_dnn_0_boat_00_boat-0160-ILSVRC2012-val-00008630.png,boat-0160-ILSVRC2012-val-00008630.png,1.0,4.874732,2.8365726,1.4411963
alexnet2023_baseline_pgd,1,233,NaN,oven,boat,0,0233_sty_dnn_0_boat_00_boat-0165-ILSVRC2012-val-00014242.png,boat-0165-ILSVRC2012-val-00014242.png,0.0,3.5339026,4.0271573,-0.34878373
alexnet2023_baseline_pgd,1,234,NaN,knife,boat,0,0234_sty_dnn_0_boat_00_boat-0169-ILSVRC2012-val-00019970.png,boat-0169-ILSVRC2012-val-00019970.png,0.0,-6.375247,5.4885054,-8.38894
alexnet2023_baseline_pgd,1,235,NaN,dog,boat,0,0235_sty_dnn_0_boat_00_boat-0170-ILSVRC2012-val-00020353.png,boat-0170-ILSVRC2012-val-00020353.png,0.0,-0.45885992,3.0080347,-2.4514647
alexnet2023_baseline_pgd,1,236,NaN,knife,boat,0,0236_sty_dnn_0_boat_00_boat-0172-ILSVRC2012-val-00020894.png,boat-0172-ILSVRC2012-val-00020894.png,0.0,-2.5869944,4.3648825,-4.915719
alexnet2023_baseline_pgd,1,237,NaN,bear,boat,0,0237_sty_dnn_0_boat_00_boat-0179-ILSVRC2012-val-00026763.png,boat-0179-ILSVRC2012-val-00026763.png,0.0,-1.8154033,1.5605083,-2.38713
alexnet2023_baseline_pgd,1,238,NaN,chair,boat,0,0238_sty_dnn_0_boat_00_boat-0181-ILSVRC2012-val-00031072.png,boat-0181-ILSVRC2012-val-00031072.png,0.0,-0.61269,0.9688113,-1.1182903
alexnet2023_baseline_pgd,1,239,NaN,boat,boat,0,0239_sty_dnn_0_boat_00_boat-0195-ILSVRC2012-val-00042203.png,boat-0195-ILSVRC2012-val-00042203.png,1.0,10.962372,7.1733513,2.6792421
alexnet2023_baseline_pgd,1,240,NaN,oven,boat,0,0240_sty_dnn_0_boat_00_boat-0196-ILSVRC2012-val-00042675.png,boat-0196-ILSVRC2012-val-00042675.png,0.0,1.7552801,4.059337,-1.6292144
alexnet2023_baseline_pgd,1,241,NaN,bicycle,boat,0,0241_sty_dnn_0_boat_00_boat-0215-ILSVRC2012-val-00013403.png,boat-0215-ILSVRC2012-val-00013403.png,0.0,-1.4561754,3.3185287,-3.3762257
alexnet2023_baseline_pgd,1,242,NaN,chair,boat,0,0242_sty_dnn_0_boat_00_boat-0217-ILSVRC2012-val-00015089.png,boat-0217-ILSVRC2012-val-00015089.png,0.0,2.5116239,2.5697765,-0.041120153
alexnet2023_baseline_pgd,1,243,NaN,knife,boat,0,0243_sty_dnn_0_boat_00_boat-0218-ILSVRC2012-val-00015121.png,boat-0218-ILSVRC2012-val-00015121.png,0.0,-2.1323428,3.9878016,-4.3275957
alexnet2023_baseline_pgd,1,244,NaN,oven,boat,0,0244_sty_dnn_0_boat_00_boat-0222-ILSVRC2012-val-00019246.png,boat-0222-ILSVRC2012-val-00019246.png,0.0,-2.291696,4.392681,-4.7265687
alexnet2023_baseline_pgd,1,245,NaN,elephant,boat,0,0245_sty_dnn_0_boat_00_boat-0223-ILSVRC2012-val-00020544.png,boat-0223-ILSVRC2012-val-00020544.png,0.0,-3.9515533,4.3264976,-5.8534665
alexnet2023_baseline_pgd,1,246,NaN,knife,boat,0,0246_sty_dnn_0_boat_00_boat-0225-ILSVRC2012-val-00022075.png,boat-0225-ILSVRC2012-val-00022075.png,0.0,-4.098367,3.4714823,-5.352692
alexnet2023_baseline_pgd,1,247,NaN,boat,boat,0,0247_sty_dnn_0_boat_00_boat-0235-ILSVRC2012-val-00032371.png,boat-0235-ILSVRC2012-val-00032371.png,1.0,5.2494154,4.7304683,0.36695105
alexnet2023_baseline_pgd,1,248,NaN,knife,boat,0,0248_sty_dnn_0_boat_00_boat-0236-ILSVRC2012-val-00032584.png,boat-0236-ILSVRC2012-val-00032584.png,0.0,-2.6722212,3.3822188,-4.2811356
alexnet2023_baseline_pgd,1,249,NaN,bird,boat,0,0249_sty_dnn_0_boat_00_boat-0243-ILSVRC2012-val-00039131.png,boat-0243-ILSVRC2012-val-00039131.png,0.0,0.010455346,3.8937793,-2.7459247
alexnet2023_baseline_pgd,1,250,NaN,bird,boat,0,0250_sty_dnn_0_boat_00_boat-0244-ILSVRC2012-val-00040974.png,boat-0244-ILSVRC2012-val-00040974.png,0.0,0.9227809,2.5124557,-1.1240699
alexnet2023_baseline_pgd,1,251,NaN,oven,bottle,0,0251_sty_dnn_0_bottle_00_bottle-0002-ILSVRC2012-val-00002968.png,bottle-0002-ILSVRC2012-val-00002968.png,0.0,0.83095866,6.678755,-4.1350164
alexnet2023_baseline_pgd,1,252,NaN,bear,bottle,0,0252_sty_dnn_0_bottle_00_bottle-0003-ILSVRC2012-val-00003622.png,bottle-0003-ILSVRC2012-val-00003622.png,0.0,0.24977626,4.1552887,-2.7616143
alexnet2023_baseline_pgd,1,253,NaN,clock,bottle,0,0253_sty_dnn_0_bottle_00_bottle-0005-ILSVRC2012-val-00004521.png,bottle-0005-ILSVRC2012-val-00004521.png,0.0,2.8970332,4.04984,-0.8151575
alexnet2023_baseline_pgd,1,254,NaN,bottle,bottle,0,0254_sty_dnn_0_bottle_00_bottle-0006-ILSVRC2012-val-00004888.png,bottle-0006-ILSVRC2012-val-00004888.png,1.0,6.3001447,4.622435,1.1863198
alexnet2023_baseline_pgd,1,255,NaN,elephant,bottle,0,0255_sty_dnn_0_bottle_00_bottle-0011-ILSVRC2012-val-00009225.png,bottle-0011-ILSVRC2012-val-00009225.png,0.0,0.51862246,7.164324,-4.6992207
alexnet2023_baseline_pgd,1,256,NaN,chair,bottle,0,0256_sty_dnn_0_bottle_00_bottle-0022-ILSVRC2012-val-00022396.png,bottle-0022-ILSVRC2012-val-00022396.png,0.0,2.4818437,2.740569,-0.18294649
alexnet2023_baseline_pgd,1,257,NaN,oven,bottle,0,0257_sty_dnn_0_bottle_00_bottle-0030-ILSVRC2012-val-00032921.png,bottle-0030-ILSVRC2012-val-00032921.png,0.0,1.6784813,3.0193381,-0.94812894
alexnet2023_baseline_pgd,1,258,NaN,oven,bottle,0,0258_sty_dnn_0_bottle_00_bottle-0031-ILSVRC2012-val-00033822.png,bottle-0031-ILSVRC2012-val-00033822.png,0.0,-1.6268777,4.083451,-4.037812
alexnet2023_baseline_pgd,1,259,NaN,bear,bottle,0,0259_sty_dnn_0_bottle_00_bottle-0032-ILSVRC2012-val-00034979.png,bottle-0032-ILSVRC2012-val-00034979.png,0.0,0.8077318,1.0801315,-0.19261569
alexnet2023_baseline_pgd,1,260,NaN,bottle,bottle,0,0260_sty_dnn_0_bottle_00_bottle-0037-ILSVRC2012-val-00036359.png,bottle-0037-ILSVRC2012-val-00036359.png,1.0,5.5280414,3.7135391,1.2830468
alexnet2023_baseline_pgd,1,261,NaN,bear,bottle,0,0261_sty_dnn_0_bottle_00_bottle-0039-ILSVRC2012-val-00038570.png,bottle-0039-ILSVRC2012-val-00038570.png,0.0,2.4736767,3.762368,-0.91124237
alexnet2023_baseline_pgd,1,262,NaN,oven,bottle,0,0262_sty_dnn_0_bottle_00_bottle-0047-ILSVRC2012-val-00044787.png,bottle-0047-ILSVRC2012-val-00044787.png,0.0,-1.1549584,5.0339236,-4.3762
alexnet2023_baseline_pgd,1,263,NaN,clock,bottle,0,0263_sty_dnn_0_bottle_00_bottle-0052-ILSVRC2012-val-00000252.png,bottle-0052-ILSVRC2012-val-00000252.png,0.0,4.2427115,5.87855,-1.1567125
alexnet2023_baseline_pgd,1,264,NaN,bottle,bottle,0,0264_sty_dnn_0_bottle_00_bottle-0055-ILSVRC2012-val-00003066.png,bottle-0055-ILSVRC2012-val-00003066.png,1.0,8.102567,2.5211122,3.9466841
alexnet2023_baseline_pgd,1,265,NaN,bicycle,bottle,0,0265_sty_dnn_0_bottle_00_bottle-0057-ILSVRC2012-val-00005967.png,bottle-0057-ILSVRC2012-val-00005967.png,0.0,1.052385,1.6931067,-0.45305866
alexnet2023_baseline_pgd,1,266,NaN,chair,bottle,0,0266_sty_dnn_0_bottle_00_bottle-0059-ILSVRC2012-val-00008984.png,bottle-0059-ILSVRC2012-val-00008984.png,0.0,0.058840632,3.553012,-2.4707522
alexnet2023_baseline_pgd,1,267,NaN,bottle,bottle,0,0267_sty_dnn_0_bottle_00_bottle-0066-ILSVRC2012-val-00016336.png,bottle-0066-ILSVRC2012-val-00016336.png,1.0,4.01641,1.7341717,1.613786
alexnet2023_baseline_pgd,1,268,NaN,knife,bottle,0,0268_sty_dnn_0_bottle_00_bottle-0085-ILSVRC2012-val-00036422.png,bottle-0085-ILSVRC2012-val-00036422.png,0.0,0.5569756,2.2472165,-1.1951808
alexnet2023_baseline_pgd,1,269,NaN,elephant,bottle,0,0269_sty_dnn_0_bottle_00_bottle-0086-ILSVRC2012-val-00036795.png,bottle-0086-ILSVRC2012-val-00036795.png,0.0,0.59351015,4.809557,-2.9811954
alexnet2023_baseline_pgd,1,270,NaN,boat,bottle,0,0270_sty_dnn_0_bottle_00_bottle-0107-ILSVRC2012-val-00008313.png,bottle-0107-ILSVRC2012-val-00008313.png,0.0,0.9144731,5.457659,-3.2125175
alexnet2023_baseline_pgd,1,271,NaN,boat,bottle,0,0271_sty_dnn_0_bottle_00_bottle-0108-ILSVRC2012-val-00008437.png,bottle-0108-ILSVRC2012-val-00008437.png,0.0,-0.16812506,3.6325836,-2.687507
alexnet2023_baseline_pgd,1,272,NaN,bear,bottle,0,0272_sty_dnn_0_bottle_00_bottle-0126-ILSVRC2012-val-00022079.png,bottle-0126-ILSVRC2012-val-00022079.png,0.0,1.2382406,2.172752,-0.66079926
alexnet2023_baseline_pgd,1,273,NaN,bottle,bottle,0,0273_sty_dnn_0_bottle_00_bottle-0127-ILSVRC2012-val-00023580.png,bottle-0127-ILSVRC2012-val-00023580.png,1.0,3.3990216,1.9995103,0.989604
alexnet2023_baseline_pgd,1,274,NaN,bicycle,bottle,0,0274_sty_dnn_0_bottle_00_bottle-0138-ILSVRC2012-val-00032559.png,bottle-0138-ILSVRC2012-val-00032559.png,0.0,0.93688023,1.6467936,-0.5019846
alexnet2023_baseline_pgd,1,275,NaN,elephant,bottle,0,0275_sty_dnn_0_bottle_00_bottle-0153-ILSVRC2012-val-00003318.png,bottle-0153-ILSVRC2012-val-00003318.png,0.0,-0.41255054,2.0300694,-1.727193
alexnet2023_baseline_pgd,1,276,NaN,clock,bottle,0,0276_sty_dnn_0_bottle_00_bottle-0154-ILSVRC2012-val-00003340.png,bottle-0154-ILSVRC2012-val-00003340.png,0.0,1.5843571,2.6015022,-0.7192302
alexnet2023_baseline_pgd,1,277,NaN,knife,bottle,0,0277_sty_dnn_0_bottle_00_bottle-0170-ILSVRC2012-val-00020948.png,bottle-0170-ILSVRC2012-val-00020948.png,0.0,0.5627765,1.1921551,-0.4450379
alexnet2023_baseline_pgd,1,278,NaN,chair,bottle,0,0278_sty_dnn_0_bottle_00_bottle-0172-ILSVRC2012-val-00021707.png,bottle-0172-ILSVRC2012-val-00021707.png,0.0,1.66882,4.8313036,-2.2362137
alexnet2023_baseline_pgd,1,279,NaN,oven,bottle,0,0279_sty_dnn_0_bottle_00_bottle-0180-ILSVRC2012-val-00027613.png,bottle-0180-ILSVRC2012-val-00027613.png,0.0,0.5700801,3.7843163,-2.2728083
alexnet2023_baseline_pgd,1,280,NaN,bear,bottle,0,0280_sty_dnn_0_bottle_00_bottle-0189-ILSVRC2012-val-00040070.png,bottle-0189-ILSVRC2012-val-00040070.png,0.0,0.46531406,5.9078784,-3.8484743
alexnet2023_baseline_pgd,1,281,NaN,bottle,bottle,0,0281_sty_dnn_0_bottle_00_bottle-0195-ILSVRC2012-val-00045644.png,bottle-0195-ILSVRC2012-val-00045644.png,1.0,3.9084125,3.8509264,0.04064878
alexnet2023_baseline_pgd,1,282,NaN,bear,bottle,0,0282_sty_dnn_0_bottle_00_bottle-0204-ILSVRC2012-val-00002597.png,bottle-0204-ILSVRC2012-val-00002597.png,0.0,1.2646465,3.5718565,-1.6314439
alexnet2023_baseline_pgd,1,283,NaN,knife,bottle,0,0283_sty_dnn_0_bottle_00_bottle-0205-ILSVRC2012-val-00003263.png,bottle-0205-ILSVRC2012-val-00003263.png,0.0,3.2365441,4.687467,-1.0259575
alexnet2023_baseline_pgd,1,284,NaN,cat,bottle,0,0284_sty_dnn_0_bottle_00_bottle-0214-ILSVRC2012-val-00012572.png,bottle-0214-ILSVRC2012-val-00012572.png,0.0,-0.86327523,2.7445056,-2.5510864
alexnet2023_baseline_pgd,1,285,NaN,cat,bottle,0,0285_sty_dnn_0_bottle_00_bottle-0216-ILSVRC2012-val-00013262.png,bottle-0216-ILSVRC2012-val-00013262.png,0.0,1.6963607,2.6037626,-0.64163005
alexnet2023_baseline_pgd,1,286,NaN,bottle,bottle,0,0286_sty_dnn_0_bottle_00_bottle-0218-ILSVRC2012-val-00013667.png,bottle-0218-ILSVRC2012-val-00013667.png,1.0,4.762629,3.5771215,0.83828044
alexnet2023_baseline_pgd,1,287,NaN,bear,bottle,0,0287_sty_dnn_0_bottle_00_bottle-0220-ILSVRC2012-val-00014146.png,bottle-0220-ILSVRC2012-val-00014146.png,0.0,-0.09473987,3.67423,-2.6650643
alexnet2023_baseline_pgd,1,288,NaN,boat,bottle,0,0288_sty_dnn_0_bottle_00_bottle-0222-ILSVRC2012-val-00018657.png,bottle-0222-ILSVRC2012-val-00018657.png,0.0,0.46451157,1.7809322,-0.9308499
alexnet2023_baseline_pgd,1,289,NaN,elephant,bottle,0,0289_sty_dnn_0_bottle_00_bottle-0224-ILSVRC2012-val-00020102.png,bottle-0224-ILSVRC2012-val-00020102.png,0.0,1.8653486,2.461627,-0.42163253
alexnet2023_baseline_pgd,1,290,NaN,knife,bottle,0,0290_sty_dnn_0_bottle_00_bottle-0233-ILSVRC2012-val-00031504.png,bottle-0233-ILSVRC2012-val-00031504.png,0.0,0.41698536,5.5766773,-3.6484532
alexnet2023_baseline_pgd,1,291,NaN,bottle,bottle,0,0291_sty_dnn_0_bottle_00_bottle-0243-ILSVRC2012-val-00040157.png,bottle-0243-ILSVRC2012-val-00040157.png,1.0,4.816796,1.8072553,2.1280665
alexnet2023_baseline_pgd,1,292,NaN,bottle,bottle,0,0292_sty_dnn_0_bottle_00_bottle-0254-ILSVRC2012-val-00005933.png,bottle-0254-ILSVRC2012-val-00005933.png,1.0,9.640947,2.4973178,5.051309
alexnet2023_baseline_pgd,1,293,NaN,bottle,bottle,0,0293_sty_dnn_0_bottle_00_bottle-0283-ILSVRC2012-val-00036864.png,bottle-0283-ILSVRC2012-val-00036864.png,1.0,5.1397033,4.4172482,0.5108529
alexnet2023_baseline_pgd,1,294,NaN,bottle,bottle,0,0294_sty_dnn_0_bottle_00_bottle-0294-ILSVRC2012-val-00044222.png,bottle-0294-ILSVRC2012-val-00044222.png,1.0,3.4125175,2.6934714,0.5084424
alexnet2023_baseline_pgd,1,295,NaN,airplane,bottle,0,0295_sty_dnn_0_bottle_00_bottle-0296-ILSVRC2012-val-00044906.png,bottle-0296-ILSVRC2012-val-00044906.png,0.0,1.7211376,2.5760374,-0.6045054
alexnet2023_baseline_pgd,1,296,NaN,knife,bottle,0,0296_sty_dnn_0_bottle_00_bottle-0325-ILSVRC2012-val-00027316.png,bottle-0325-ILSVRC2012-val-00027316.png,0.0,1.0410404,3.312408,-1.6060994
alexnet2023_baseline_pgd,1,297,NaN,bottle,bottle,0,0297_sty_dnn_0_bottle_00_bottle-0331-ILSVRC2012-val-00033990.png,bottle-0331-ILSVRC2012-val-00033990.png,1.0,3.7206645,2.9040358,0.5774437
alexnet2023_baseline_pgd,1,298,NaN,bottle,bottle,0,0298_sty_dnn_0_bottle_00_bottle-0334-ILSVRC2012-val-00036776.png,bottle-0334-ILSVRC2012-val-00036776.png,1.0,3.4321027,3.0667007,0.25837824
alexnet2023_baseline_pgd,1,299,NaN,chair,bottle,0,0299_sty_dnn_0_bottle_00_bottle-0345-ILSVRC2012-val-00044614.png,bottle-0345-ILSVRC2012-val-00044614.png,0.0,7.1888657,7.6243734,-0.3079505
alexnet2023_baseline_pgd,1,300,NaN,elephant,bottle,0,0300_sty_dnn_0_bottle_00_bottle-0347-ILSVRC2012-val-00048539.png,bottle-0347-ILSVRC2012-val-00048539.png,0.0,1.0452168,5.1006017,-2.86759
alexnet2023_baseline_pgd,1,301,NaN,knife,car,0,0301_sty_dnn_0_car_00_car-0001-ILSVRC2012-val-00000175.png,car-0001-ILSVRC2012-val-00000175.png,0.0,-1.6721038,2.8444762,-3.1937044
alexnet2023_baseline_pgd,1,302,NaN,car,car,0,0302_sty_dnn_0_car_00_car-0004-ILSVRC2012-val-00006084.png,car-0004-ILSVRC2012-val-00006084.png,1.0,7.667258,6.96498,0.4965853
alexnet2023_baseline_pgd,1,303,NaN,car,car,0,0303_sty_dnn_0_car_00_car-0005-ILSVRC2012-val-00006220.png,car-0005-ILSVRC2012-val-00006220.png,1.0,8.582527,5.1773887,2.4077966
alexnet2023_baseline_pgd,1,304,NaN,oven,car,0,0304_sty_dnn_0_car_00_car-0010-ILSVRC2012-val-00012600.png,car-0010-ILSVRC2012-val-00012600.png,0.0,0.7712166,3.9675317,-2.2601361
alexnet2023_baseline_pgd,1,305,NaN,bicycle,car,0,0305_sty_dnn_0_car_00_car-0012-ILSVRC2012-val-00014447.png,car-0012-ILSVRC2012-val-00014447.png,0.0,-0.8899581,2.1588545,-2.155836
alexnet2023_baseline_pgd,1,306,NaN,bicycle,car,0,0306_sty_dnn_0_car_00_car-0013-ILSVRC2012-val-00014541.png,car-0013-ILSVRC2012-val-00014541.png,0.0,-0.7426347,2.5941558,-2.3594673
alexnet2023_baseline_pgd,1,307,NaN,car,car,0,0307_sty_dnn_0_car_00_car-0018-ILSVRC2012-val-00018138.png,car-0018-ILSVRC2012-val-00018138.png,1.0,5.7762933,3.8749664,1.3444412
alexnet2023_baseline_pgd,1,308,NaN,bicycle,car,0,0308_sty_dnn_0_car_00_car-0019-ILSVRC2012-val-00018335.png,car-0019-ILSVRC2012-val-00018335.png,0.0,0.32329682,3.1932003,-2.0293283
alexnet2023_baseline_pgd,1,309,NaN,oven,car,0,0309_sty_dnn_0_car_00_car-0021-ILSVRC2012-val-00019695.png,car-0021-ILSVRC2012-val-00019695.png,0.0,4.026732,4.3322735,-0.21605048
alexnet2023_baseline_pgd,1,310,NaN,oven,car,0,0310_sty_dnn_0_car_00_car-0024-ILSVRC2012-val-00023221.png,car-0024-ILSVRC2012-val-00023221.png,0.0,-0.8719652,4.3099823,-3.6641905
alexnet2023_baseline_pgd,1,311,NaN,car,car,0,0311_sty_dnn_0_car_00_car-0025-ILSVRC2012-val-00023474.png,car-0025-ILSVRC2012-val-00023474.png,1.0,13.532433,12.973484,0.39523628
alexnet2023_baseline_pgd,1,312,NaN,bicycle,car,0,0312_sty_dnn_0_car_00_car-0028-ILSVRC2012-val-00027049.png,car-0028-ILSVRC2012-val-00027049.png,0.0,-2.1869652,4.0864873,-4.4360013
alexnet2023_baseline_pgd,1,313,NaN,knife,car,0,0313_sty_dnn_0_car_00_car-0029-ILSVRC2012-val-00027081.png,car-0029-ILSVRC2012-val-00027081.png,0.0,2.6466978,4.7303367,-1.4733552
alexnet2023_baseline_pgd,1,314,NaN,car,car,0,0314_sty_dnn_0_car_00_car-0030-ILSVRC2012-val-00029057.png,car-0030-ILSVRC2012-val-00029057.png,1.0,6.248032,5.304572,0.66712695
alexnet2023_baseline_pgd,1,315,NaN,chair,car,0,0315_sty_dnn_0_car_00_car-0032-ILSVRC2012-val-00030834.png,car-0032-ILSVRC2012-val-00030834.png,0.0,0.40433374,3.920586,-2.4863658
alexnet2023_baseline_pgd,1,316,NaN,oven,car,0,0316_sty_dnn_0_car_00_car-0041-ILSVRC2012-val-00040706.png,car-0041-ILSVRC2012-val-00040706.png,0.0,4.2211313,7.7185307,-2.4730349
alexnet2023_baseline_pgd,1,317,NaN,bicycle,car,0,0317_sty_dnn_0_car_00_car-0045-ILSVRC2012-val-00042416.png,car-0045-ILSVRC2012-val-00042416.png,0.0,2.9867547,4.785085,-1.2716117
alexnet2023_baseline_pgd,1,318,NaN,knife,car,0,0318_sty_dnn_0_car_00_car-0050-ILSVRC2012-val-00048556.png,car-0050-ILSVRC2012-val-00048556.png,0.0,-0.43219733,2.58442,-2.1330705
alexnet2023_baseline_pgd,1,319,NaN,bear,car,0,0319_sty_dnn_0_car_00_car-0052-ILSVRC2012-val-00004387.png,car-0052-ILSVRC2012-val-00004387.png,0.0,-4.7758746,2.4173965,-5.086411
alexnet2023_baseline_pgd,1,320,NaN,oven,car,0,0320_sty_dnn_0_car_00_car-0053-ILSVRC2012-val-00004685.png,car-0053-ILSVRC2012-val-00004685.png,0.0,0.86042094,7.2963343,-4.550878
alexnet2023_baseline_pgd,1,321,NaN,elephant,car,0,0321_sty_dnn_0_car_00_car-0054-ILSVRC2012-val-00005500.png,car-0054-ILSVRC2012-val-00005500.png,0.0,-3.6496792,8.709379,-8.739174
alexnet2023_baseline_pgd,1,322,NaN,elephant,car,0,0322_sty_dnn_0_car_00_car-0058-ILSVRC2012-val-00010676.png,car-0058-ILSVRC2012-val-00010676.png,0.0,-2.1771774,6.139154,-5.8805346
alexnet2023_baseline_pgd,1,323,NaN,oven,car,0,0323_sty_dnn_0_car_00_car-0059-ILSVRC2012-val-00014010.png,car-0059-ILSVRC2012-val-00014010.png,0.0,0.23024146,3.8623145,-2.5682635
alexnet2023_baseline_pgd,1,324,NaN,oven,car,0,0324_sty_dnn_0_car_00_car-0060-ILSVRC2012-val-00014208.png,car-0060-ILSVRC2012-val-00014208.png,0.0,1.1317545,4.2689,-2.218297
alexnet2023_baseline_pgd,1,325,NaN,oven,car,0,0325_sty_dnn_0_car_00_car-0064-ILSVRC2012-val-00016337.png,car-0064-ILSVRC2012-val-00016337.png,0.0,-0.87465495,2.5097194,-2.393114
alexnet2023_baseline_pgd,1,326,NaN,car,car,0,0326_sty_dnn_0_car_00_car-0065-ILSVRC2012-val-00016613.png,car-0065-ILSVRC2012-val-00016613.png,1.0,12.038071,11.598201,0.31103498
alexnet2023_baseline_pgd,1,327,NaN,bear,car,0,0327_sty_dnn_0_car_00_car-0066-ILSVRC2012-val-00018249.png,car-0066-ILSVRC2012-val-00018249.png,0.0,3.3328445,3.812583,-0.33922634
alexnet2023_baseline_pgd,1,328,NaN,car,car,0,0328_sty_dnn_0_car_00_car-0067-ILSVRC2012-val-00018569.png,car-0067-ILSVRC2012-val-00018569.png,1.0,10.568973,2.3977613,5.777919
alexnet2023_baseline_pgd,1,329,NaN,car,car,0,0329_sty_dnn_0_car_00_car-0069-ILSVRC2012-val-00019647.png,car-0069-ILSVRC2012-val-00019647.png,1.0,8.342151,6.8075705,1.0851121
alexnet2023_baseline_pgd,1,330,NaN,car,car,0,0330_sty_dnn_0_car_00_car-0079-ILSVRC2012-val-00025028.png,car-0079-ILSVRC2012-val-00025028.png,1.0,6.276998,2.779021,2.4734433
alexnet2023_baseline_pgd,1,331,NaN,oven,car,0,0331_sty_dnn_0_car_00_car-0082-ILSVRC2012-val-00027293.png,car-0082-ILSVRC2012-val-00027293.png,0.0,3.0926323,3.629526,-0.37964112
alexnet2023_baseline_pgd,1,332,NaN,elephant,car,0,0332_sty_dnn_0_car_00_car-0083-ILSVRC2012-val-00027508.png,car-0083-ILSVRC2012-val-00027508.png,0.0,-1.3289922,4.569401,-4.170794
alexnet2023_baseline_pgd,1,333,NaN,bicycle,car,0,0333_sty_dnn_0_car_00_car-0086-ILSVRC2012-val-00029454.png,car-0086-ILSVRC2012-val-00029454.png,0.0,1.7090107,2.295989,-0.41505635
alexnet2023_baseline_pgd,1,334,NaN,bicycle,car,0,0334_sty_dnn_0_car_00_car-0087-ILSVRC2012-val-00031558.png,car-0087-ILSVRC2012-val-00031558.png,0.0,3.5532358,4.108954,-0.3929521
alexnet2023_baseline_pgd,1,335,NaN,oven,car,0,0335_sty_dnn_0_car_00_car-0091-ILSVRC2012-val-00036091.png,car-0091-ILSVRC2012-val-00036091.png,0.0,0.9615617,5.8172045,-3.433458
alexnet2023_baseline_pgd,1,336,NaN,car,car,0,0336_sty_dnn_0_car_00_car-0093-ILSVRC2012-val-00038956.png,car-0093-ILSVRC2012-val-00038956.png,1.0,6.1406937,5.741887,0.28199884
alexnet2023_baseline_pgd,1,337,NaN,elephant,car,0,0337_sty_dnn_0_car_00_car-0095-ILSVRC2012-val-00041430.png,car-0095-ILSVRC2012-val-00041430.png,0.0,0.9205289,4.6096244,-2.6085844
alexnet2023_baseline_pgd,1,338,NaN,knife,car,0,0338_sty_dnn_0_car_00_car-0096-ILSVRC2012-val-00043824.png,car-0096-ILSVRC2012-val-00043824.png,0.0,-4.3196225,3.8162432,-5.7529263
alexnet2023_baseline_pgd,1,339,NaN,car,car,0,0339_sty_dnn_0_car_00_car-0103-ILSVRC2012-val-00003478.png,car-0103-ILSVRC2012-val-00003478.png,1.0,6.884214,3.6404595,2.2936807
alexnet2023_baseline_pgd,1,340,NaN,elephant,car,0,0340_sty_dnn_0_car_00_car-0106-ILSVRC2012-val-00004868.png,car-0106-ILSVRC2012-val-00004868.png,0.0,2.4889166,5.486714,-2.119763
alexnet2023_baseline_pgd,1,341,NaN,knife,car,0,0341_sty_dnn_0_car_00_car-0110-ILSVRC2012-val-00006285.png,car-0110-ILSVRC2012-val-00006285.png,0.0,3.4176586,4.611393,-0.84409773
alexnet2023_baseline_pgd,1,342,NaN,knife,car,0,0342_sty_dnn_0_car_00_car-0111-ILSVRC2012-val-00007125.png,car-0111-ILSVRC2012-val-00007125.png,0.0,-0.7350299,6.3655725,-5.020884
alexnet2023_baseline_pgd,1,343,NaN,bicycle,car,0,0343_sty_dnn_0_car_00_car-0117-ILSVRC2012-val-00010983.png,car-0117-ILSVRC2012-val-00010983.png,0.0,1.1756315,8.367337,-5.085304
alexnet2023_baseline_pgd,1,344,NaN,bicycle,car,0,0344_sty_dnn_0_car_00_car-0118-ILSVRC2012-val-00012327.png,car-0118-ILSVRC2012-val-00012327.png,0.0,4.0571456,6.6399894,-1.8263464
alexnet2023_baseline_pgd,1,345,NaN,clock,car,0,0345_sty_dnn_0_car_00_car-0121-ILSVRC2012-val-00016638.png,car-0121-ILSVRC2012-val-00016638.png,0.0,-2.4497108,2.8673756,-3.7597477
alexnet2023_baseline_pgd,1,346,NaN,car,car,0,0346_sty_dnn_0_car_00_car-0134-ILSVRC2012-val-00032944.png,car-0134-ILSVRC2012-val-00032944.png,1.0,6.666355,3.7501621,2.0620599
alexnet2023_baseline_pgd,1,347,NaN,knife,car,0,0347_sty_dnn_0_car_00_car-0139-ILSVRC2012-val-00037952.png,car-0139-ILSVRC2012-val-00037952.png,0.0,-0.2690493,2.2352774,-1.7708265
alexnet2023_baseline_pgd,1,348,NaN,bear,car,0,0348_sty_dnn_0_car_00_car-0145-ILSVRC2012-val-00041626.png,car-0145-ILSVRC2012-val-00041626.png,0.0,2.1324017,3.4187255,-0.9095683
alexnet2023_baseline_pgd,1,349,NaN,bicycle,car,0,0349_sty_dnn_0_car_00_car-0146-ILSVRC2012-val-00043297.png,car-0146-ILSVRC2012-val-00043297.png,0.0,2.3828058,6.090869,-2.6219966
alexnet2023_baseline_pgd,1,350,NaN,elephant,car,0,0350_sty_dnn_0_car_00_car-0149-ILSVRC2012-val-00049427.png,car-0149-ILSVRC2012-val-00049427.png,0.0,2.0241554,2.4152212,-0.27652532
alexnet2023_baseline_pgd,1,351,NaN,cat,cat,0,0351_sty_dnn_0_cat_00_cat-0005-ILSVRC2012-val-00005358.png,cat-0005-ILSVRC2012-val-00005358.png,1.0,5.8539815,2.5552826,2.3325324
alexnet2023_baseline_pgd,1,352,NaN,elephant,cat,0,0352_sty_dnn_0_cat_00_cat-0012-ILSVRC2012-val-00012377.png,cat-0012-ILSVRC2012-val-00012377.png,0.0,-0.89749885,1.4903196,-1.6884426
alexnet2023_baseline_pgd,1,353,NaN,elephant,cat,0,0353_sty_dnn_0_cat_00_cat-0031-ILSVRC2012-val-00030706.png,cat-0031-ILSVRC2012-val-00030706.png,0.0,2.5966575,3.0431135,-0.31569204
alexnet2023_baseline_pgd,1,354,NaN,cat,cat,0,0354_sty_dnn_0_cat_00_cat-0032-ILSVRC2012-val-00033420.png,cat-0032-ILSVRC2012-val-00033420.png,1.0,12.272472,3.5828757,6.1444726
alexnet2023_baseline_pgd,1,355,NaN,elephant,cat,0,0355_sty_dnn_0_cat_00_cat-0034-ILSVRC2012-val-00033837.png,cat-0034-ILSVRC2012-val-00033837.png,0.0,5.6377225,6.9824376,-0.9508572
alexnet2023_baseline_pgd,1,356,NaN,cat,cat,0,0356_sty_dnn_0_cat_00_cat-0042-ILSVRC2012-val-00040238.png,cat-0042-ILSVRC2012-val-00040238.png,1.0,4.6883783,1.1054257,2.53353
alexnet2023_baseline_pgd,1,357,NaN,cat,cat,0,0357_sty_dnn_0_cat_00_cat-0045-ILSVRC2012-val-00041570.png,cat-0045-ILSVRC2012-val-00041570.png,1.0,5.165287,4.5133834,0.46096548
alexnet2023_baseline_pgd,1,358,NaN,elephant,cat,0,0358_sty_dnn_0_cat_00_cat-0050-ILSVRC2012-val-00047911.png,cat-0050-ILSVRC2012-val-00047911.png,0.0,3.6964417,4.077103,-0.26916832
alexnet2023_baseline_pgd,1,359,NaN,dog,cat,0,0359_sty_dnn_0_cat_00_cat-0054-ILSVRC2012-val-00003295.png,cat-0054-ILSVRC2012-val-00003295.png,0.0,-0.20371096,1.5854974,-1.2651614
alexnet2023_baseline_pgd,1,360,NaN,elephant,cat,0,0360_sty_dnn_0_cat_00_cat-0056-ILSVRC2012-val-00007676.png,cat-0056-ILSVRC2012-val-00007676.png,0.0,3.4910157,5.7069654,-1.5669131
alexnet2023_baseline_pgd,1,361,NaN,elephant,cat,0,0361_sty_dnn_0_cat_00_cat-0062-ILSVRC2012-val-00013788.png,cat-0062-ILSVRC2012-val-00013788.png,0.0,0.32869455,5.312364,-3.5239868
alexnet2023_baseline_pgd,1,362,NaN,chair,cat,0,0362_sty_dnn_0_cat_00_cat-0064-ILSVRC2012-val-00014860.png,cat-0064-ILSVRC2012-val-00014860.png,0.0,-1.7075949,3.5055258,-3.6862328
alexnet2023_baseline_pgd,1,363,NaN,airplane,cat,0,0363_sty_dnn_0_cat_00_cat-0069-ILSVRC2012-val-00016399.png,cat-0069-ILSVRC2012-val-00016399.png,0.0,1.0315164,5.9305234,-3.464121
alexnet2023_baseline_pgd,1,364,NaN,oven,cat,0,0364_sty_dnn_0_cat_00_cat-0072-ILSVRC2012-val-00019303.png,cat-0072-ILSVRC2012-val-00019303.png,0.0,2.2223694,3.1747525,-0.6734365
alexnet2023_baseline_pgd,1,365,NaN,bear,cat,0,0365_sty_dnn_0_cat_00_cat-0073-ILSVRC2012-val-00020140.png,cat-0073-ILSVRC2012-val-00020140.png,0.0,2.2379224,2.2486012,-0.0075510293
alexnet2023_baseline_pgd,1,366,NaN,bottle,cat,0,0366_sty_dnn_0_cat_00_cat-0082-ILSVRC2012-val-00025723.png,cat-0082-ILSVRC2012-val-00025723.png,0.0,0.8942204,2.3374462,-1.0205148
alexnet2023_baseline_pgd,1,367,NaN,elephant,cat,0,0367_sty_dnn_0_cat_00_cat-0092-ILSVRC2012-val-00039621.png,cat-0092-ILSVRC2012-val-00039621.png,0.0,3.3021295,6.86948,-2.522498
alexnet2023_baseline_pgd,1,368,NaN,cat,cat,0,0368_sty_dnn_0_cat_00_cat-0096-ILSVRC2012-val-00045420.png,cat-0096-ILSVRC2012-val-00045420.png,1.0,3.6361132,1.9222841,1.2118602
alexnet2023_baseline_pgd,1,369,NaN,bottle,cat,0,0369_sty_dnn_0_cat_00_cat-0108-ILSVRC2012-val-00002967.png,cat-0108-ILSVRC2012-val-00002967.png,0.0,-0.2851348,3.3284624,-2.5551991
alexnet2023_baseline_pgd,1,370,NaN,cat,cat,0,0370_sty_dnn_0_cat_00_cat-0110-ILSVRC2012-val-00004411.png,cat-0110-ILSVRC2012-val-00004411.png,1.0,5.3744736,3.8498144,1.0780969
alexnet2023_baseline_pgd,1,371,NaN,oven,cat,0,0371_sty_dnn_0_cat_00_cat-0113-ILSVRC2012-val-00007808.png,cat-0113-ILSVRC2012-val-00007808.png,0.0,0.9469876,3.9284449,-2.1082087
alexnet2023_baseline_pgd,1,372,NaN,bicycle,cat,0,0372_sty_dnn_0_cat_00_cat-0118-ILSVRC2012-val-00010218.png,cat-0118-ILSVRC2012-val-00010218.png,0.0,3.8356245,5.344617,-1.0670187
alexnet2023_baseline_pgd,1,373,NaN,cat,cat,0,0373_sty_dnn_0_cat_00_cat-0123-ILSVRC2012-val-00014813.png,cat-0123-ILSVRC2012-val-00014813.png,1.0,2.9151523,2.3009427,0.4343118
alexnet2023_baseline_pgd,1,374,NaN,knife,cat,0,0374_sty_dnn_0_cat_00_cat-0133-ILSVRC2012-val-00023898.png,cat-0133-ILSVRC2012-val-00023898.png,0.0,2.0375156,4.0834002,-1.4466588
alexnet2023_baseline_pgd,1,375,NaN,elephant,cat,0,0375_sty_dnn_0_cat_00_cat-0137-ILSVRC2012-val-00027906.png,cat-0137-ILSVRC2012-val-00027906.png,0.0,2.765542,4.177372,-0.99831456
alexnet2023_baseline_pgd,1,376,NaN,cat,cat,0,0376_sty_dnn_0_cat_00_cat-0147-ILSVRC2012-val-00041347.png,cat-0147-ILSVRC2012-val-00041347.png,1.0,5.140739,1.9130859,2.2822955
alexnet2023_baseline_pgd,1,377,NaN,bicycle,cat,0,0377_sty_dnn_0_cat_00_cat-0150-ILSVRC2012-val-00049996.png,cat-0150-ILSVRC2012-val-00049996.png,0.0,0.8193831,2.718504,-1.3428812
alexnet2023_baseline_pgd,1,378,NaN,bear,cat,0,0378_sty_dnn_0_cat_00_cat-0160-ILSVRC2012-val-00011528.png,cat-0160-ILSVRC2012-val-00011528.png,0.0,3.329443,5.1420016,-1.2816725
alexnet2023_baseline_pgd,1,379,NaN,bicycle,cat,0,0379_sty_dnn_0_cat_00_cat-0162-ILSVRC2012-val-00012173.png,cat-0162-ILSVRC2012-val-00012173.png,0.0,1.0669689,3.7602515,-1.9044384
alexnet2023_baseline_pgd,1,380,NaN,bear,cat,0,0380_sty_dnn_0_cat_00_cat-0165-ILSVRC2012-val-00017325.png,cat-0165-ILSVRC2012-val-00017325.png,0.0,2.384788,2.5784087,-0.1369105
alexnet2023_baseline_pgd,1,381,NaN,bear,cat,0,0381_sty_dnn_0_cat_00_cat-0169-ILSVRC2012-val-00020688.png,cat-0169-ILSVRC2012-val-00020688.png,0.0,1.4503521,3.5876353,-1.5112876
alexnet2023_baseline_pgd,1,382,NaN,bird,cat,0,0382_sty_dnn_0_cat_00_cat-0185-ILSVRC2012-val-00038168.png,cat-0185-ILSVRC2012-val-00038168.png,0.0,0.39565754,3.8057055,-2.411268
alexnet2023_baseline_pgd,1,383,NaN,elephant,cat,0,0383_sty_dnn_0_cat_00_cat-0186-ILSVRC2012-val-00039580.png,cat-0186-ILSVRC2012-val-00039580.png,0.0,4.5930576,7.322504,-1.9300101
alexnet2023_baseline_pgd,1,384,NaN,chair,cat,0,0384_sty_dnn_0_cat_00_cat-0189-ILSVRC2012-val-00040854.png,cat-0189-ILSVRC2012-val-00040854.png,0.0,1.3357477,7.8959026,-4.63873
alexnet2023_baseline_pgd,1,385,NaN,bear,cat,0,0385_sty_dnn_0_cat_00_cat-0202-ILSVRC2012-val-00001496.png,cat-0202-ILSVRC2012-val-00001496.png,0.0,3.2961853,4.554058,-0.88945043
alexnet2023_baseline_pgd,1,386,NaN,oven,cat,0,0386_sty_dnn_0_cat_00_cat-0234-ILSVRC2012-val-00028970.png,cat-0234-ILSVRC2012-val-00028970.png,0.0,-2.0871904,3.6117873,-4.0297856
alexnet2023_baseline_pgd,1,387,NaN,elephant,cat,0,0387_sty_dnn_0_cat_00_cat-0236-ILSVRC2012-val-00031185.png,cat-0236-ILSVRC2012-val-00031185.png,0.0,-2.0397947,4.7303495,-4.787215
alexnet2023_baseline_pgd,1,388,NaN,knife,cat,0,0388_sty_dnn_0_cat_00_cat-0238-ILSVRC2012-val-00033582.png,cat-0238-ILSVRC2012-val-00033582.png,0.0,-0.6114332,4.4483237,-3.5777884
alexnet2023_baseline_pgd,1,389,NaN,cat,cat,0,0389_sty_dnn_0_cat_00_cat-0242-ILSVRC2012-val-00040192.png,cat-0242-ILSVRC2012-val-00040192.png,1.0,5.6730494,2.5667005,2.1965206
alexnet2023_baseline_pgd,1,390,NaN,bear,cat,0,0390_sty_dnn_0_cat_00_cat-0243-ILSVRC2012-val-00040600.png,cat-0243-ILSVRC2012-val-00040600.png,0.0,0.32126048,4.5365577,-2.9806652
alexnet2023_baseline_pgd,1,391,NaN,bear,cat,0,0391_sty_dnn_0_cat_00_cat-0247-ILSVRC2012-val-00044374.png,cat-0247-ILSVRC2012-val-00044374.png,0.0,4.6085234,5.3237805,-0.5057632
alexnet2023_baseline_pgd,1,392,NaN,elephant,cat,0,0392_sty_dnn_0_cat_00_cat-0258-ILSVRC2012-val-00006112.png,cat-0258-ILSVRC2012-val-00006112.png,0.0,0.14834428,7.5520287,-5.2351956
alexnet2023_baseline_pgd,1,393,NaN,clock,cat,0,0393_sty_dnn_0_cat_00_cat-0260-ILSVRC2012-val-00006612.png,cat-0260-ILSVRC2012-val-00006612.png,0.0,-2.5687711,1.7285318,-3.0386522
alexnet2023_baseline_pgd,1,394,NaN,elephant,cat,0,0394_sty_dnn_0_cat_00_cat-0264-ILSVRC2012-val-00010823.png,cat-0264-ILSVRC2012-val-00010823.png,0.0,1.7530594,2.2155986,-0.3270646
alexnet2023_baseline_pgd,1,395,NaN,oven,cat,0,0395_sty_dnn_0_cat_00_cat-0270-ILSVRC2012-val-00017189.png,cat-0270-ILSVRC2012-val-00017189.png,0.0,1.7367212,2.371417,-0.44879776
alexnet2023_baseline_pgd,1,396,NaN,knife,cat,0,0396_sty_dnn_0_cat_00_cat-0274-ILSVRC2012-val-00019370.png,cat-0274-ILSVRC2012-val-00019370.png,0.0,0.16469978,3.7978904,-2.569054
alexnet2023_baseline_pgd,1,397,NaN,oven,cat,0,0397_sty_dnn_0_cat_00_cat-0284-ILSVRC2012-val-00027069.png,cat-0284-ILSVRC2012-val-00027069.png,0.0,1.4043554,4.4252024,-2.1360614
alexnet2023_baseline_pgd,1,398,NaN,knife,cat,0,0398_sty_dnn_0_cat_00_cat-0291-ILSVRC2012-val-00035821.png,cat-0291-ILSVRC2012-val-00035821.png,0.0,1.7065436,8.369297,-4.7112784
alexnet2023_baseline_pgd,1,399,NaN,elephant,cat,0,0399_sty_dnn_0_cat_00_cat-0294-ILSVRC2012-val-00037633.png,cat-0294-ILSVRC2012-val-00037633.png,0.0,-0.35149208,4.92789,-3.7330866
alexnet2023_baseline_pgd,1,400,NaN,bicycle,cat,0,0400_sty_dnn_0_cat_00_cat-0298-ILSVRC2012-val-00042529.png,cat-0298-ILSVRC2012-val-00042529.png,0.0,2.1837475,3.6587076,-1.0429543
alexnet2023_baseline_pgd,1,401,NaN,knife,chair,0,0401_sty_dnn_0_chair_00_chair-0006-ILSVRC2012-val-00004679.png,chair-0006-ILSVRC2012-val-00004679.png,0.0,0.611489,1.8104988,-0.84782803
alexnet2023_baseline_pgd,1,402,NaN,chair,chair,0,0402_sty_dnn_0_chair_00_chair-0018-ILSVRC2012-val-00013838.png,chair-0018-ILSVRC2012-val-00013838.png,1.0,2.5057223,2.2912142,0.1516801
alexnet2023_baseline_pgd,1,403,NaN,chair,chair,0,0403_sty_dnn_0_chair_00_chair-0022-ILSVRC2012-val-00016403.png,chair-0022-ILSVRC2012-val-00016403.png,1.0,3.1049736,1.9984558,0.78242624
alexnet2023_baseline_pgd,1,404,NaN,elephant,chair,0,0404_sty_dnn_0_chair_00_chair-0024-ILSVRC2012-val-00021099.png,chair-0024-ILSVRC2012-val-00021099.png,0.0,-0.47277617,8.72039,-6.5005507
alexnet2023_baseline_pgd,1,405,NaN,oven,chair,0,0405_sty_dnn_0_chair_00_chair-0030-ILSVRC2012-val-00026896.png,chair-0030-ILSVRC2012-val-00026896.png,0.0,3.7287722,8.402967,-3.3051553
alexnet2023_baseline_pgd,1,406,NaN,boat,chair,0,0406_sty_dnn_0_chair_00_chair-0033-ILSVRC2012-val-00031805.png,chair-0033-ILSVRC2012-val-00031805.png,0.0,0.8498997,2.6387894,-1.264936
alexnet2023_baseline_pgd,1,407,NaN,elephant,chair,0,0407_sty_dnn_0_chair_00_chair-0039-ILSVRC2012-val-00041772.png,chair-0039-ILSVRC2012-val-00041772.png,0.0,-0.77192354,8.556484,-6.59618
alexnet2023_baseline_pgd,1,408,NaN,knife,chair,0,0408_sty_dnn_0_chair_00_chair-0040-ILSVRC2012-val-00042512.png,chair-0040-ILSVRC2012-val-00042512.png,0.0,0.21027309,2.2363076,-1.4326228
alexnet2023_baseline_pgd,1,409,NaN,knife,chair,0,0409_sty_dnn_0_chair_00_chair-0045-ILSVRC2012-val-00044898.png,chair-0045-ILSVRC2012-val-00044898.png,0.0,1.4964304,4.5868464,-2.185254
alexnet2023_baseline_pgd,1,410,NaN,knife,chair,0,0410_sty_dnn_0_chair_00_chair-0047-ILSVRC2012-val-00045407.png,chair-0047-ILSVRC2012-val-00045407.png,0.0,2.8462691,2.9418168,-0.06756241
alexnet2023_baseline_pgd,1,411,NaN,oven,chair,0,0411_sty_dnn_0_chair_00_chair-0050-ILSVRC2012-val-00049050.png,chair-0050-ILSVRC2012-val-00049050.png,0.0,0.44975495,2.6576,-1.5611821
alexnet2023_baseline_pgd,1,412,NaN,bear,chair,0,0412_sty_dnn_0_chair_00_chair-0051-ILSVRC2012-val-00001616.png,chair-0051-ILSVRC2012-val-00001616.png,0.0,-0.3323836,2.0186443,-1.6624279
alexnet2023_baseline_pgd,1,413,NaN,bottle,chair,0,0413_sty_dnn_0_chair_00_chair-0053-ILSVRC2012-val-00001855.png,chair-0053-ILSVRC2012-val-00001855.png,0.0,2.9748385,4.761382,-1.2632772
alexnet2023_baseline_pgd,1,414,NaN,bottle,chair,0,0414_sty_dnn_0_chair_00_chair-0058-ILSVRC2012-val-00005926.png,chair-0058-ILSVRC2012-val-00005926.png,0.0,-1.1703393,0.80854833,-1.399285
alexnet2023_baseline_pgd,1,415,NaN,oven,chair,0,0415_sty_dnn_0_chair_00_chair-0059-ILSVRC2012-val-00006022.png,chair-0059-ILSVRC2012-val-00006022.png,0.0,3.9063132,4.6999974,-0.5612195
alexnet2023_baseline_pgd,1,416,NaN,bird,chair,0,0416_sty_dnn_0_chair_00_chair-0072-ILSVRC2012-val-00015559.png,chair-0072-ILSVRC2012-val-00015559.png,0.0,-1.9535842,3.2749553,-3.6971357
alexnet2023_baseline_pgd,1,417,NaN,truck,chair,0,0417_sty_dnn_0_chair_00_chair-0081-ILSVRC2012-val-00033069.png,chair-0081-ILSVRC2012-val-00033069.png,0.0,5.1074862,5.1332664,-0.018229356
alexnet2023_baseline_pgd,1,418,NaN,elephant,chair,0,0418_sty_dnn_0_chair_00_chair-0085-ILSVRC2012-val-00036175.png,chair-0085-ILSVRC2012-val-00036175.png,0.0,3.2842114,3.9848273,-0.49541026
alexnet2023_baseline_pgd,1,419,NaN,knife,chair,0,0419_sty_dnn_0_chair_00_chair-0087-ILSVRC2012-val-00037905.png,chair-0087-ILSVRC2012-val-00037905.png,0.0,1.3365705,2.229763,-0.6315825
alexnet2023_baseline_pgd,1,420,NaN,oven,chair,0,0420_sty_dnn_0_chair_00_chair-0092-ILSVRC2012-val-00041814.png,chair-0092-ILSVRC2012-val-00041814.png,0.0,2.8489275,3.530378,-0.48185834
alexnet2023_baseline_pgd,1,421,NaN,knife,chair,0,0421_sty_dnn_0_chair_00_chair-0097-ILSVRC2012-val-00043453.png,chair-0097-ILSVRC2012-val-00043453.png,0.0,1.285157,2.3441432,-0.7488163
alexnet2023_baseline_pgd,1,422,NaN,oven,chair,0,0422_sty_dnn_0_chair_00_chair-0098-ILSVRC2012-val-00044181.png,chair-0098-ILSVRC2012-val-00044181.png,0.0,0.04347641,5.5637007,-3.903388
alexnet2023_baseline_pgd,1,423,NaN,chair,chair,0,0423_sty_dnn_0_chair_00_chair-0116-ILSVRC2012-val-00017447.png,chair-0116-ILSVRC2012-val-00017447.png,1.0,3.079513,0.81210965,1.6032963
alexnet2023_baseline_pgd,1,424,NaN,chair,chair,0,0424_sty_dnn_0_chair_00_chair-0118-ILSVRC2012-val-00018123.png,chair-0118-ILSVRC2012-val-00018123.png,1.0,7.245899,3.8320312,2.4139693
alexnet2023_baseline_pgd,1,425,NaN,airplane,chair,0,0425_sty_dnn_0_chair_00_chair-0119-ILSVRC2012-val-00018206.png,chair-0119-ILSVRC2012-val-00018206.png,0.0,-1.2060829,3.8450563,-3.5716949
alexnet2023_baseline_pgd,1,426,NaN,elephant,chair,0,0426_sty_dnn_0_chair_00_chair-0122-ILSVRC2012-val-00019867.png,chair-0122-ILSVRC2012-val-00019867.png,0.0,3.6644948,4.0798583,-0.2937064
alexnet2023_baseline_pgd,1,427,NaN,oven,chair,0,0427_sty_dnn_0_chair_00_chair-0123-ILSVRC2012-val-00020924.png,chair-0123-ILSVRC2012-val-00020924.png,0.0,-1.5174515,5.7492566,-5.138339
alexnet2023_baseline_pgd,1,428,NaN,bear,chair,0,0428_sty_dnn_0_chair_00_chair-0124-ILSVRC2012-val-00022208.png,chair-0124-ILSVRC2012-val-00022208.png,0.0,-2.8097482,3.7008023,-4.6036544
alexnet2023_baseline_pgd,1,429,NaN,bear,chair,0,0429_sty_dnn_0_chair_00_chair-0127-ILSVRC2012-val-00024620.png,chair-0127-ILSVRC2012-val-00024620.png,0.0,3.7559733,5.2898483,-1.0846134
alexnet2023_baseline_pgd,1,430,NaN,chair,chair,0,0430_sty_dnn_0_chair_00_chair-0133-ILSVRC2012-val-00033406.png,chair-0133-ILSVRC2012-val-00033406.png,1.0,1.2099335,0.8711399,0.23956329
alexnet2023_baseline_pgd,1,431,NaN,chair,chair,0,0431_sty_dnn_0_chair_00_chair-0136-ILSVRC2012-val-00037994.png,chair-0136-ILSVRC2012-val-00037994.png,1.0,7.2747855,7.0076523,0.18889172
alexnet2023_baseline_pgd,1,432,NaN,knife,chair,0,0432_sty_dnn_0_chair_00_chair-0138-ILSVRC2012-val-00038750.png,chair-0138-ILSVRC2012-val-00038750.png,0.0,1.0900899,5.524358,-3.135501
alexnet2023_baseline_pgd,1,433,NaN,boat,chair,0,0433_sty_dnn_0_chair_00_chair-0141-ILSVRC2012-val-00040076.png,chair-0141-ILSVRC2012-val-00040076.png,0.0,-0.8573955,3.8260434,-3.3116913
alexnet2023_baseline_pgd,1,434,NaN,bear,chair,0,0434_sty_dnn_0_chair_00_chair-0150-ILSVRC2012-val-00048622.png,chair-0150-ILSVRC2012-val-00048622.png,0.0,-2.623571,4.146146,-4.786913
alexnet2023_baseline_pgd,1,435,NaN,chair,chair,0,0435_sty_dnn_0_chair_00_chair-0154-ILSVRC2012-val-00004705.png,chair-0154-ILSVRC2012-val-00004705.png,1.0,4.649811,2.7186868,1.3655108
alexnet2023_baseline_pgd,1,436,NaN,elephant,chair,0,0436_sty_dnn_0_chair_00_chair-0155-ILSVRC2012-val-00005160.png,chair-0155-ILSVRC2012-val-00005160.png,0.0,2.1794825,4.345537,-1.5316321
alexnet2023_baseline_pgd,1,437,NaN,elephant,chair,0,0437_sty_dnn_0_chair_00_chair-0159-ILSVRC2012-val-00011028.png,chair-0159-ILSVRC2012-val-00011028.png,0.0,0.5504146,1.8313324,-0.90574574
alexnet2023_baseline_pgd,1,438,NaN,chair,chair,0,0438_sty_dnn_0_chair_00_chair-0160-ILSVRC2012-val-00012040.png,chair-0160-ILSVRC2012-val-00012040.png,1.0,7.8577633,4.0535555,2.6899812
alexnet2023_baseline_pgd,1,439,NaN,chair,chair,0,0439_sty_dnn_0_chair_00_chair-0169-ILSVRC2012-val-00019913.png,chair-0169-ILSVRC2012-val-00019913.png,1.0,3.4615526,2.2782521,0.8367198
alexnet2023_baseline_pgd,1,440,NaN,elephant,chair,0,0440_sty_dnn_0_chair_00_chair-0170-ILSVRC2012-val-00022051.png,chair-0170-ILSVRC2012-val-00022051.png,0.0,-0.25374305,9.318386,-6.7685175
alexnet2023_baseline_pgd,1,441,NaN,knife,chair,0,0441_sty_dnn_0_chair_00_chair-0172-ILSVRC2012-val-00023378.png,chair-0172-ILSVRC2012-val-00023378.png,0.0,-0.5207173,2.035734,-1.8076841
alexnet2023_baseline_pgd,1,442,NaN,bicycle,chair,0,0442_sty_dnn_0_chair_00_chair-0181-ILSVRC2012-val-00033160.png,chair-0181-ILSVRC2012-val-00033160.png,0.0,2.9876294,3.348043,-0.25485086
alexnet2023_baseline_pgd,1,443,NaN,elephant,chair,0,0443_sty_dnn_0_chair_00_chair-0183-ILSVRC2012-val-00035142.png,chair-0183-ILSVRC2012-val-00035142.png,0.0,-0.85418975,9.386679,-7.241388
alexnet2023_baseline_pgd,1,444,NaN,elephant,chair,0,0444_sty_dnn_0_chair_00_chair-0188-ILSVRC2012-val-00041720.png,chair-0188-ILSVRC2012-val-00041720.png,0.0,-1.8826547,4.509554,-4.519974
alexnet2023_baseline_pgd,1,445,NaN,elephant,chair,0,0445_sty_dnn_0_chair_00_chair-0189-ILSVRC2012-val-00041883.png,chair-0189-ILSVRC2012-val-00041883.png,0.0,1.0899482,7.8991137,-4.814807
alexnet2023_baseline_pgd,1,446,NaN,bear,chair,0,0446_sty_dnn_0_chair_00_chair-0192-ILSVRC2012-val-00043870.png,chair-0192-ILSVRC2012-val-00043870.png,0.0,2.5085726,3.8456256,-0.9454393
alexnet2023_baseline_pgd,1,447,NaN,knife,chair,0,0447_sty_dnn_0_chair_00_chair-0193-ILSVRC2012-val-00044295.png,chair-0193-ILSVRC2012-val-00044295.png,0.0,4.3824916,4.497896,-0.08160338
alexnet2023_baseline_pgd,1,448,NaN,chair,chair,0,0448_sty_dnn_0_chair_00_chair-0195-ILSVRC2012-val-00045464.png,chair-0195-ILSVRC2012-val-00045464.png,1.0,5.970866,2.6829915,2.3248785
alexnet2023_baseline_pgd,1,449,NaN,boat,chair,0,0449_sty_dnn_0_chair_00_chair-0196-ILSVRC2012-val-00045844.png,chair-0196-ILSVRC2012-val-00045844.png,0.0,0.34609234,3.3605525,-2.1315453
alexnet2023_baseline_pgd,1,450,NaN,elephant,chair,0,0450_sty_dnn_0_chair_00_chair-0199-ILSVRC2012-val-00048901.png,chair-0199-ILSVRC2012-val-00048901.png,0.0,2.639075,2.738913,-0.07059614
alexnet2023_baseline_pgd,1,451,NaN,clock,clock,0,0451_sty_dnn_0_clock_00_clock-0001-ILSVRC2012-val-00001011.png,clock-0001-ILSVRC2012-val-00001011.png,1.0,6.3444843,3.4708874,2.03194
alexnet2023_baseline_pgd,1,452,NaN,bicycle,clock,0,0452_sty_dnn_0_clock_00_clock-0007-ILSVRC2012-val-00005490.png,clock-0007-ILSVRC2012-val-00005490.png,0.0,0.83080417,3.7759738,-2.0825496
alexnet2023_baseline_pgd,1,453,NaN,clock,clock,0,0453_sty_dnn_0_clock_00_clock-0008-ILSVRC2012-val-00005558.png,clock-0008-ILSVRC2012-val-00005558.png,1.0,8.839673,3.1653256,4.0123696
alexnet2023_baseline_pgd,1,454,NaN,clock,clock,0,0454_sty_dnn_0_clock_00_clock-0010-ILSVRC2012-val-00006858.png,clock-0010-ILSVRC2012-val-00006858.png,1.0,4.89983,3.488652,0.99785346
alexnet2023_baseline_pgd,1,455,NaN,clock,clock,0,0455_sty_dnn_0_clock_00_clock-0013-ILSVRC2012-val-00013244.png,clock-0013-ILSVRC2012-val-00013244.png,1.0,4.874739,3.8920417,0.6948721
alexnet2023_baseline_pgd,1,456,NaN,clock,clock,0,0456_sty_dnn_0_clock_00_clock-0018-ILSVRC2012-val-00015871.png,clock-0018-ILSVRC2012-val-00015871.png,1.0,3.7142985,3.158909,0.39271963
alexnet2023_baseline_pgd,1,457,NaN,clock,clock,0,0457_sty_dnn_0_clock_00_clock-0020-ILSVRC2012-val-00016889.png,clock-0020-ILSVRC2012-val-00016889.png,1.0,5.205665,2.461669,1.9402983
alexnet2023_baseline_pgd,1,458,NaN,clock,clock,0,0458_sty_dnn_0_clock_00_clock-0023-ILSVRC2012-val-00017973.png,clock-0023-ILSVRC2012-val-00017973.png,1.0,8.50814,5.1094155,2.403261
alexnet2023_baseline_pgd,1,459,NaN,clock,clock,0,0459_sty_dnn_0_clock_00_clock-0025-ILSVRC2012-val-00019663.png,clock-0025-ILSVRC2012-val-00019663.png,1.0,7.2085342,3.328177,2.7438269
alexnet2023_baseline_pgd,1,460,NaN,clock,clock,0,0460_sty_dnn_0_clock_00_clock-0028-ILSVRC2012-val-00021179.png,clock-0028-ILSVRC2012-val-00021179.png,1.0,6.779171,3.904552,2.0326626
alexnet2023_baseline_pgd,1,461,NaN,clock,clock,0,0461_sty_dnn_0_clock_00_clock-0029-ILSVRC2012-val-00022719.png,clock-0029-ILSVRC2012-val-00022719.png,1.0,8.654709,2.4018192,4.4214606
alexnet2023_baseline_pgd,1,462,NaN,clock,clock,0,0462_sty_dnn_0_clock_00_clock-0032-ILSVRC2012-val-00024425.png,clock-0032-ILSVRC2012-val-00024425.png,1.0,4.7687726,3.1713188,1.1295705
alexnet2023_baseline_pgd,1,463,NaN,clock,clock,0,0463_sty_dnn_0_clock_00_clock-0034-ILSVRC2012-val-00026380.png,clock-0034-ILSVRC2012-val-00026380.png,1.0,3.7601967,2.5377562,0.864396
alexnet2023_baseline_pgd,1,464,NaN,keyboard,clock,0,0464_sty_dnn_0_clock_00_clock-0038-ILSVRC2012-val-00032489.png,clock-0038-ILSVRC2012-val-00032489.png,0.0,2.0961344,3.0738103,-0.69132125
alexnet2023_baseline_pgd,1,465,NaN,elephant,clock,0,0465_sty_dnn_0_clock_00_clock-0039-ILSVRC2012-val-00033429.png,clock-0039-ILSVRC2012-val-00033429.png,0.0,-0.5597176,5.619106,-4.369088
alexnet2023_baseline_pgd,1,466,NaN,clock,clock,0,0466_sty_dnn_0_clock_00_clock-0040-ILSVRC2012-val-00035392.png,clock-0040-ILSVRC2012-val-00035392.png,1.0,11.701976,4.630555,5.0002494
alexnet2023_baseline_pgd,1,467,NaN,clock,clock,0,0467_sty_dnn_0_clock_00_clock-0043-ILSVRC2012-val-00041613.png,clock-0043-ILSVRC2012-val-00041613.png,1.0,4.6099534,4.3363204,0.19348775
alexnet2023_baseline_pgd,1,468,NaN,oven,clock,0,0468_sty_dnn_0_clock_00_clock-0045-ILSVRC2012-val-00043497.png,clock-0045-ILSVRC2012-val-00043497.png,0.0,2.6025975,5.0552125,-1.7342608
alexnet2023_baseline_pgd,1,469,NaN,oven,clock,0,0469_sty_dnn_0_clock_00_clock-0046-ILSVRC2012-val-00044049.png,clock-0046-ILSVRC2012-val-00044049.png,0.0,4.0661373,6.164841,-1.4840077
alexnet2023_baseline_pgd,1,470,NaN,knife,clock,0,0470_sty_dnn_0_clock_00_clock-0048-ILSVRC2012-val-00044752.png,clock-0048-ILSVRC2012-val-00044752.png,0.0,1.8838276,2.17006,-0.20239684
alexnet2023_baseline_pgd,1,471,NaN,elephant,clock,0,0471_sty_dnn_0_clock_00_clock-0052-ILSVRC2012-val-00003721.png,clock-0052-ILSVRC2012-val-00003721.png,0.0,-0.051018674,3.4660063,-2.4869123
alexnet2023_baseline_pgd,1,472,NaN,boat,clock,0,0472_sty_dnn_0_clock_00_clock-0054-ILSVRC2012-val-00008751.png,clock-0054-ILSVRC2012-val-00008751.png,0.0,-1.2323856,4.183619,-3.8296938
alexnet2023_baseline_pgd,1,473,NaN,airplane,clock,0,0473_sty_dnn_0_clock_00_clock-0062-ILSVRC2012-val-00014987.png,clock-0062-ILSVRC2012-val-00014987.png,0.0,1.1305236,3.5982914,-1.7449753
alexnet2023_baseline_pgd,1,474,NaN,knife,clock,0,0474_sty_dnn_0_clock_00_clock-0063-ILSVRC2012-val-00015628.png,clock-0063-ILSVRC2012-val-00015628.png,0.0,-0.064772606,4.877815,-3.4949372
alexnet2023_baseline_pgd,1,475,NaN,clock,clock,0,0475_sty_dnn_0_clock_00_clock-0073-ILSVRC2012-val-00026298.png,clock-0073-ILSVRC2012-val-00026298.png,1.0,4.895041,4.6048484,0.20519716
alexnet2023_baseline_pgd,1,476,NaN,elephant,clock,0,0476_sty_dnn_0_clock_00_clock-0076-ILSVRC2012-val-00028203.png,clock-0076-ILSVRC2012-val-00028203.png,0.0,1.6968484,2.7424438,-0.73934764
alexnet2023_baseline_pgd,1,477,NaN,chair,clock,0,0477_sty_dnn_0_clock_00_clock-0080-ILSVRC2012-val-00032946.png,clock-0080-ILSVRC2012-val-00032946.png,0.0,0.7944396,3.1376827,-1.6569232
alexnet2023_baseline_pgd,1,478,NaN,knife,clock,0,0478_sty_dnn_0_clock_00_clock-0082-ILSVRC2012-val-00033627.png,clock-0082-ILSVRC2012-val-00033627.png,0.0,0.11130015,4.1652994,-2.8666105
alexnet2023_baseline_pgd,1,479,NaN,bottle,clock,0,0479_sty_dnn_0_clock_00_clock-0084-ILSVRC2012-val-00034426.png,clock-0084-ILSVRC2012-val-00034426.png,0.0,5.22315,6.605719,-0.9776242
alexnet2023_baseline_pgd,1,480,NaN,oven,clock,0,0480_sty_dnn_0_clock_00_clock-0086-ILSVRC2012-val-00041483.png,clock-0086-ILSVRC2012-val-00041483.png,0.0,2.1117244,3.732783,-1.1462616
alexnet2023_baseline_pgd,1,481,NaN,oven,clock,0,0481_sty_dnn_0_clock_00_clock-0089-ILSVRC2012-val-00042911.png,clock-0089-ILSVRC2012-val-00042911.png,0.0,0.28229877,1.8333492,-1.0967582
alexnet2023_baseline_pgd,1,482,NaN,oven,clock,0,0482_sty_dnn_0_clock_00_clock-0091-ILSVRC2012-val-00044029.png,clock-0091-ILSVRC2012-val-00044029.png,0.0,-3.7376397,2.4819412,-4.3979077
alexnet2023_baseline_pgd,1,483,NaN,oven,clock,0,0483_sty_dnn_0_clock_00_clock-0092-ILSVRC2012-val-00044168.png,clock-0092-ILSVRC2012-val-00044168.png,0.0,-1.8556023,4.65641,-4.604688
alexnet2023_baseline_pgd,1,484,NaN,chair,clock,0,0484_sty_dnn_0_clock_00_clock-0098-ILSVRC2012-val-00048682.png,clock-0098-ILSVRC2012-val-00048682.png,0.0,-0.3482739,3.0634868,-2.4124792
alexnet2023_baseline_pgd,1,485,NaN,knife,clock,0,0485_sty_dnn_0_clock_00_clock-0100-ILSVRC2012-val-00049759.png,clock-0100-ILSVRC2012-val-00049759.png,0.0,0.8747229,3.119757,-1.5874788
alexnet2023_baseline_pgd,1,486,NaN,bottle,clock,0,0486_sty_dnn_0_clock_00_clock-0106-ILSVRC2012-val-00009413.png,clock-0106-ILSVRC2012-val-00009413.png,0.0,1.9135162,3.0329006,-0.7915243
alexnet2023_baseline_pgd,1,487,NaN,clock,clock,0,0487_sty_dnn_0_clock_00_clock-0107-ILSVRC2012-val-00010270.png,clock-0107-ILSVRC2012-val-00010270.png,1.0,6.472261,2.0281706,3.1424465
alexnet2023_baseline_pgd,1,488,NaN,clock,clock,0,0488_sty_dnn_0_clock_00_clock-0108-ILSVRC2012-val-00011957.png,clock-0108-ILSVRC2012-val-00011957.png,1.0,3.957427,1.7576233,1.5554962
alexnet2023_baseline_pgd,1,489,NaN,knife,clock,0,0489_sty_dnn_0_clock_00_clock-0110-ILSVRC2012-val-00014035.png,clock-0110-ILSVRC2012-val-00014035.png,0.0,1.2405165,3.0825996,-1.3025495
alexnet2023_baseline_pgd,1,490,NaN,elephant,clock,0,0490_sty_dnn_0_clock_00_clock-0112-ILSVRC2012-val-00014635.png,clock-0112-ILSVRC2012-val-00014635.png,0.0,-0.16000406,5.127123,-3.7385635
alexnet2023_baseline_pgd,1,491,NaN,chair,clock,0,0491_sty_dnn_0_clock_00_clock-0118-ILSVRC2012-val-00018443.png,clock-0118-ILSVRC2012-val-00018443.png,0.0,2.0679302,2.4711452,-0.28511602
alexnet2023_baseline_pgd,1,492,NaN,bottle,clock,0,0492_sty_dnn_0_clock_00_clock-0119-ILSVRC2012-val-00018797.png,clock-0119-ILSVRC2012-val-00018797.png,0.0,1.1545069,3.3384607,-1.5442885
alexnet2023_baseline_pgd,1,493,NaN,elephant,clock,0,0493_sty_dnn_0_clock_00_clock-0127-ILSVRC2012-val-00030330.png,clock-0127-ILSVRC2012-val-00030330.png,0.0,0.30134654,3.824307,-2.4911091
alexnet2023_baseline_pgd,1,494,NaN,clock,clock,0,0494_sty_dnn_0_clock_00_clock-0128-ILSVRC2012-val-00030987.png,clock-0128-ILSVRC2012-val-00030987.png,1.0,8.300002,4.470251,2.7080429
alexnet2023_baseline_pgd,1,495,NaN,elephant,clock,0,0495_sty_dnn_0_clock_00_clock-0129-ILSVRC2012-val-00031861.png,clock-0129-ILSVRC2012-val-00031861.png,0.0,2.3905854,5.663456,-2.314269
alexnet2023_baseline_pgd,1,496,NaN,clock,clock,0,0496_sty_dnn_0_clock_00_clock-0130-ILSVRC2012-val-00032136.png,clock-0130-ILSVRC2012-val-00032136.png,1.0,4.918179,2.6239111,1.6222924
alexnet2023_baseline_pgd,1,497,NaN,clock,clock,0,0497_sty_dnn_0_clock_00_clock-0142-ILSVRC2012-val-00041461.png,clock-0142-ILSVRC2012-val-00041461.png,1.0,5.5881257,3.990593,1.1296263
alexnet2023_baseline_pgd,1,498,NaN,oven,clock,0,0498_sty_dnn_0_clock_00_clock-0143-ILSVRC2012-val-00041547.png,clock-0143-ILSVRC2012-val-00041547.png,0.0,-1.0816869,1.164917,-1.588589
alexnet2023_baseline_pgd,1,499,NaN,clock,clock,0,0499_sty_dnn_0_clock_00_clock-0144-ILSVRC2012-val-00041715.png,clock-0144-ILSVRC2012-val-00041715.png,1.0,7.129109,2.3409898,3.3857117
alexnet2023_baseline_pgd,1,500,NaN,bear,clock,0,0500_sty_dnn_0_clock_00_clock-0145-ILSVRC2012-val-00044685.png,clock-0145-ILSVRC2012-val-00044685.png,0.0,0.7164944,2.9347756,-1.5685618
alexnet2023_baseline_pgd,1,501,NaN,oven,dog,0,0501_sty_dnn_0_dog_00_dog-0099-ILSVRC2012-val-00048280.png,dog-0099-ILSVRC2012-val-00048280.png,0.0,1.7528749,2.7232404,-0.68615204
alexnet2023_baseline_pgd,1,502,NaN,oven,dog,0,0502_sty_dnn_0_dog_00_dog-0158-ILSVRC2012-val-00004081.png,dog-0158-ILSVRC2012-val-00004081.png,0.0,-1.9356241,5.016265,-4.915728
alexnet2023_baseline_pgd,1,503,NaN,elephant,dog,0,0503_sty_dnn_0_dog_00_dog-0220-ILSVRC2012-val-00017568.png,dog-0220-ILSVRC2012-val-00017568.png,0.0,-0.8342104,5.358039,-4.3785815
alexnet2023_baseline_pgd,1,504,NaN,elephant,dog,0,0504_sty_dnn_0_dog_00_dog-0247-ILSVRC2012-val-00045683.png,dog-0247-ILSVRC2012-val-00045683.png,0.0,0.70619315,7.8677893,-5.0640135
alexnet2023_baseline_pgd,1,505,NaN,bear,dog,0,0505_sty_dnn_0_dog_00_dog-0303-ILSVRC2012-val-00002521.png,dog-0303-ILSVRC2012-val-00002521.png,0.0,0.70789284,2.5342185,-1.2914072
alexnet2023_baseline_pgd,1,506,NaN,elephant,dog,0,0506_sty_dnn_0_dog_00_dog-0386-ILSVRC2012-val-00034616.png,dog-0386-ILSVRC2012-val-00034616.png,0.0,3.0982149,6.2650967,-2.2393236
alexnet2023_baseline_pgd,1,507,NaN,elephant,dog,0,0507_sty_dnn_0_dog_00_dog-0397-ILSVRC2012-val-00044140.png,dog-0397-ILSVRC2012-val-00044140.png,0.0,1.5534416,7.5029144,-4.2069125
alexnet2023_baseline_pgd,1,508,NaN,elephant,dog,0,0508_sty_dnn_0_dog_00_dog-0779-ILSVRC2012-val-00033666.png,dog-0779-ILSVRC2012-val-00033666.png,0.0,3.1059132,4.129268,-0.72362125
alexnet2023_baseline_pgd,1,509,NaN,dog,dog,0,0509_sty_dnn_0_dog_00_dog-1178-ILSVRC2012-val-00022137.png,dog-1178-ILSVRC2012-val-00022137.png,1.0,5.0838017,3.3732378,1.2095513
alexnet2023_baseline_pgd,1,510,NaN,elephant,dog,0,0510_sty_dnn_0_dog_00_dog-1191-ILSVRC2012-val-00037989.png,dog-1191-ILSVRC2012-val-00037989.png,0.0,-1.2314099,8.303398,-6.7421274
alexnet2023_baseline_pgd,1,511,NaN,clock,dog,0,0511_sty_dnn_0_dog_00_dog-1398-ILSVRC2012-val-00046547.png,dog-1398-ILSVRC2012-val-00046547.png,0.0,0.3286888,2.2004502,-1.3235352
alexnet2023_baseline_pgd,1,512,NaN,bottle,dog,0,0512_sty_dnn_0_dog_00_dog-1538-ILSVRC2012-val-00038167.png,dog-1538-ILSVRC2012-val-00038167.png,0.0,0.8727586,2.9640758,-1.4787846
alexnet2023_baseline_pgd,1,513,NaN,knife,dog,0,0513_sty_dnn_0_dog_00_dog-1613-ILSVRC2012-val-00015923.png,dog-1613-ILSVRC2012-val-00015923.png,0.0,2.2263157,6.141592,-2.7685184
alexnet2023_baseline_pgd,1,514,NaN,clock,dog,0,0514_sty_dnn_0_dog_00_dog-1734-ILSVRC2012-val-00031377.png,dog-1734-ILSVRC2012-val-00031377.png,0.0,2.3876767,2.6614342,-0.19357575
alexnet2023_baseline_pgd,1,515,NaN,bottle,dog,0,0515_sty_dnn_0_dog_00_dog-1735-ILSVRC2012-val-00031764.png,dog-1735-ILSVRC2012-val-00031764.png,0.0,-1.0379429,2.4129007,-2.440115
alexnet2023_baseline_pgd,1,516,NaN,chair,dog,0,0516_sty_dnn_0_dog_00_dog-1881-ILSVRC2012-val-00028322.png,dog-1881-ILSVRC2012-val-00028322.png,0.0,-1.6042823,5.823395,-5.252161
alexnet2023_baseline_pgd,1,517,NaN,oven,dog,0,0517_sty_dnn_0_dog_00_dog-2094-ILSVRC2012-val-00044284.png,dog-2094-ILSVRC2012-val-00044284.png,0.0,1.0434067,7.0190234,-4.225399
alexnet2023_baseline_pgd,1,518,NaN,bicycle,dog,0,0518_sty_dnn_0_dog_00_dog-2121-ILSVRC2012-val-00015705.png,dog-2121-ILSVRC2012-val-00015705.png,0.0,0.35169104,3.3295631,-2.1056736
alexnet2023_baseline_pgd,1,519,NaN,elephant,dog,0,0519_sty_dnn_0_dog_00_dog-2129-ILSVRC2012-val-00025424.png,dog-2129-ILSVRC2012-val-00025424.png,0.0,0.55855805,3.7203465,-2.235722
alexnet2023_baseline_pgd,1,520,NaN,knife,dog,0,0520_sty_dnn_0_dog_00_dog-2195-ILSVRC2012-val-00046002.png,dog-2195-ILSVRC2012-val-00046002.png,0.0,0.7050656,4.08056,-2.386835
alexnet2023_baseline_pgd,1,521,NaN,elephant,dog,0,0521_sty_dnn_0_dog_00_dog-2211-ILSVRC2012-val-00010402.png,dog-2211-ILSVRC2012-val-00010402.png,0.0,2.4513748,6.457533,-2.8327816
alexnet2023_baseline_pgd,1,522,NaN,elephant,dog,0,0522_sty_dnn_0_dog_00_dog-2253-ILSVRC2012-val-00003731.png,dog-2253-ILSVRC2012-val-00003731.png,0.0,1.018461,9.140061,-5.742839
alexnet2023_baseline_pgd,1,523,NaN,knife,dog,0,0523_sty_dnn_0_dog_00_dog-2290-ILSVRC2012-val-00036919.png,dog-2290-ILSVRC2012-val-00036919.png,0.0,-0.95111537,3.4377038,-3.103364
alexnet2023_baseline_pgd,1,524,NaN,elephant,dog,0,0524_sty_dnn_0_dog_00_dog-2321-ILSVRC2012-val-00015164.png,dog-2321-ILSVRC2012-val-00015164.png,0.0,1.427775,7.0220537,-3.9557526
alexnet2023_baseline_pgd,1,525,NaN,dog,dog,0,0525_sty_dnn_0_dog_00_dog-2368-ILSVRC2012-val-00011895.png,dog-2368-ILSVRC2012-val-00011895.png,1.0,7.5361133,6.7772365,0.53660697
alexnet2023_baseline_pgd,1,526,NaN,dog,dog,0,0526_sty_dnn_0_dog_00_dog-2391-ILSVRC2012-val-00039144.png,dog-2391-ILSVRC2012-val-00039144.png,1.0,2.7932339,1.0912195,1.2035059
alexnet2023_baseline_pgd,1,527,NaN,elephant,dog,0,0527_sty_dnn_0_dog_00_dog-2535-ILSVRC2012-val-00038253.png,dog-2535-ILSVRC2012-val-00038253.png,0.0,3.9570012,6.6187677,-1.8821532
alexnet2023_baseline_pgd,1,528,NaN,knife,dog,0,0528_sty_dnn_0_dog_00_dog-2539-ILSVRC2012-val-00041157.png,dog-2539-ILSVRC2012-val-00041157.png,0.0,-1.1629808,5.652381,-4.8191886
alexnet2023_baseline_pgd,1,529,NaN,bird,dog,0,0529_sty_dnn_0_dog_00_dog-2629-ILSVRC2012-val-00030579.png,dog-2629-ILSVRC2012-val-00030579.png,0.0,4.250331,6.5022073,-1.5923171
alexnet2023_baseline_pgd,1,530,NaN,elephant,dog,0,0530_sty_dnn_0_dog_00_dog-2876-ILSVRC2012-val-00027038.png,dog-2876-ILSVRC2012-val-00027038.png,0.0,0.023264127,3.3222153,-2.3327107
alexnet2023_baseline_pgd,1,531,NaN,elephant,dog,0,0531_sty_dnn_0_dog_00_dog-2889-ILSVRC2012-val-00043272.png,dog-2889-ILSVRC2012-val-00043272.png,0.0,2.2182798,6.769561,-3.2182417
alexnet2023_baseline_pgd,1,532,NaN,truck,dog,0,0532_sty_dnn_0_dog_00_dog-3044-ILSVRC2012-val-00034485.png,dog-3044-ILSVRC2012-val-00034485.png,0.0,0.34895462,4.4533796,-2.9022667
alexnet2023_baseline_pgd,1,533,NaN,knife,dog,0,0533_sty_dnn_0_dog_00_dog-3412-ILSVRC2012-val-00014775.png,dog-3412-ILSVRC2012-val-00014775.png,0.0,-0.2780989,6.3015256,-4.6524973
alexnet2023_baseline_pgd,1,534,NaN,knife,dog,0,0534_sty_dnn_0_dog_00_dog-3425-ILSVRC2012-val-00027086.png,dog-3425-ILSVRC2012-val-00027086.png,0.0,-0.22495775,4.7310095,-3.5043983
alexnet2023_baseline_pgd,1,535,NaN,elephant,dog,0,0535_sty_dnn_0_dog_00_dog-3771-ILSVRC2012-val-00020678.png,dog-3771-ILSVRC2012-val-00020678.png,0.0,2.1481736,4.371361,-1.5720308
alexnet2023_baseline_pgd,1,536,NaN,dog,dog,0,0536_sty_dnn_0_dog_00_dog-3802-ILSVRC2012-val-00003862.png,dog-3802-ILSVRC2012-val-00003862.png,1.0,5.019802,2.4097393,1.8455932
