subj,session,trial,rt,object_response,category,condition,imagename,filename,is_correct,targ_act,max_nontarg_act,decision_margin
alexnet_w3_mlp_simclrhn_probe2,1,1,NaN,bicycle,airplane,0,0001_sty_dnn_0_airplane_00_airplane-0001-ILSVRC2012-val-00000631.png,airplane-0001-ILSVRC2012-val-00000631.png,0.0,-1.2919744,1.0156853,-1.6317618
alexnet_w3_mlp_simclrhn_probe2,1,2,NaN,airplane,airplane,0,0002_sty_dnn_0_airplane_00_airplane-0002-ILSVRC2012-val-00001390.png,airplane-0002-ILSVRC2012-val-00001390.png,1.0,0.20868525,-0.04103319,0.17657761
alexnet_w3_mlp_simclrhn_probe2,1,3,NaN,oven,airplane,0,0003_sty_dnn_0_airplane_00_airplane-0003-ILSVRC2012-val-00001506.png,airplane-0003-ILSVRC2012-val-00001506.png,0.0,-6.76938,0.62157995,-5.226198
alexnet_w3_mlp_simclrhn_probe2,1,4,NaN,elephant,airplane,0,0004_sty_dnn_0_airplane_00_airplane-0004-ILSVRC2012-val-00001952.png,airplane-0004-ILSVRC2012-val-00001952.png,0.0,-2.2355208,0.49883044,-1.9334782
alexnet_w3_mlp_simclrhn_probe2,1,5,NaN,oven,airplane,0,0005_sty_dnn_0_airplane_00_airplane-0005-ILSVRC2012-val-00003960.png,airplane-0005-ILSVRC2012-val-00003960.png,0.0,-3.2041569,0.38324976,-2.5366795
alexnet_w3_mlp_simclrhn_probe2,1,6,NaN,oven,airplane,0,0006_sty_dnn_0_airplane_00_airplane-0006-ILSVRC2012-val-00008292.png,airplane-0006-ILSVRC2012-val-00008292.png,0.0,-0.97169226,0.20392823,-0.8312893
alexnet_w3_mlp_simclrhn_probe2,1,7,NaN,airplane,airplane,0,0007_sty_dnn_0_airplane_00_airplane-0007-ILSVRC2012-val-00009537.png,airplane-0007-ILSVRC2012-val-00009537.png,1.0,2.96958,-0.30829018,2.3178043
alexnet_w3_mlp_simclrhn_probe2,1,8,NaN,elephant,airplane,0,0008_sty_dnn_0_airplane_00_airplane-0008-ILSVRC2012-val-00010597.png,airplane-0008-ILSVRC2012-val-00010597.png,0.0,-1.2245997,0.17604154,-0.99040294
alexnet_w3_mlp_simclrhn_probe2,1,9,NaN,oven,airplane,0,0009_sty_dnn_0_airplane_00_airplane-0009-ILSVRC2012-val-00011168.png,airplane-0009-ILSVRC2012-val-00011168.png,0.0,-5.1988287,0.73593175,-4.1965094
alexnet_w3_mlp_simclrhn_probe2,1,10,NaN,oven,airplane,0,0010_sty_dnn_0_airplane_00_airplane-0010-ILSVRC2012-val-00012263.png,airplane-0010-ILSVRC2012-val-00012263.png,0.0,-6.8081236,-1.6175286,-3.670305
alexnet_w3_mlp_simclrhn_probe2,1,11,NaN,oven,airplane,0,0011_sty_dnn_0_airplane_00_airplane-0011-ILSVRC2012-val-00014425.png,airplane-0011-ILSVRC2012-val-00014425.png,0.0,-3.5756729,1.1212151,-3.3212013
alexnet_w3_mlp_simclrhn_probe2,1,12,NaN,elephant,airplane,0,0012_sty_dnn_0_airplane_00_airplane-0012-ILSVRC2012-val-00015498.png,airplane-0012-ILSVRC2012-val-00015498.png,0.0,-2.7978826,0.65350866,-2.4405022
alexnet_w3_mlp_simclrhn_probe2,1,13,NaN,oven,airplane,0,0013_sty_dnn_0_airplane_00_airplane-0013-ILSVRC2012-val-00015636.png,airplane-0013-ILSVRC2012-val-00015636.png,0.0,-3.935207,0.56802917,-3.1842687
alexnet_w3_mlp_simclrhn_probe2,1,14,NaN,oven,airplane,0,0014_sty_dnn_0_airplane_00_airplane-0014-ILSVRC2012-val-00016995.png,airplane-0014-ILSVRC2012-val-00016995.png,0.0,-3.4717333,0.9298046,-3.1123574
alexnet_w3_mlp_simclrhn_probe2,1,15,NaN,oven,airplane,0,0015_sty_dnn_0_airplane_00_airplane-0015-ILSVRC2012-val-00018616.png,airplane-0015-ILSVRC2012-val-00018616.png,0.0,-1.9855816,0.5696043,-1.8067893
alexnet_w3_mlp_simclrhn_probe2,1,16,NaN,knife,airplane,0,0016_sty_dnn_0_airplane_00_airplane-0016-ILSVRC2012-val-00018685.png,airplane-0016-ILSVRC2012-val-00018685.png,0.0,-3.456535,-1.0727693,-1.6855769
alexnet_w3_mlp_simclrhn_probe2,1,17,NaN,oven,airplane,0,0017_sty_dnn_0_airplane_00_airplane-0017-ILSVRC2012-val-00019179.png,airplane-0017-ILSVRC2012-val-00019179.png,0.0,-3.931973,-0.16056721,-2.6667867
alexnet_w3_mlp_simclrhn_probe2,1,18,NaN,oven,airplane,0,0018_sty_dnn_0_airplane_00_airplane-0018-ILSVRC2012-val-00019677.png,airplane-0018-ILSVRC2012-val-00019677.png,0.0,0.053297386,0.20329165,-0.106061965
alexnet_w3_mlp_simclrhn_probe2,1,19,NaN,bottle,airplane,0,0019_sty_dnn_0_airplane_00_airplane-0019-ILSVRC2012-val-00022532.png,airplane-0019-ILSVRC2012-val-00022532.png,0.0,-3.946436,-0.8624765,-2.1806886
alexnet_w3_mlp_simclrhn_probe2,1,20,NaN,bicycle,airplane,0,0020_sty_dnn_0_airplane_00_airplane-0020-ILSVRC2012-val-00022975.png,airplane-0020-ILSVRC2012-val-00022975.png,0.0,-3.4944806,1.5268844,-3.5506415
alexnet_w3_mlp_simclrhn_probe2,1,21,NaN,knife,airplane,0,0021_sty_dnn_0_airplane_00_airplane-0021-ILSVRC2012-val-00023316.png,airplane-0021-ILSVRC2012-val-00023316.png,0.0,-4.4753637,-1.0182081,-2.4445782
alexnet_w3_mlp_simclrhn_probe2,1,22,NaN,oven,airplane,0,0022_sty_dnn_0_airplane_00_airplane-0022-ILSVRC2012-val-00023781.png,airplane-0022-ILSVRC2012-val-00023781.png,0.0,-5.549982,-0.9440749,-3.2568681
alexnet_w3_mlp_simclrhn_probe2,1,23,NaN,airplane,airplane,0,0023_sty_dnn_0_airplane_00_airplane-0023-ILSVRC2012-val-00023863.png,airplane-0023-ILSVRC2012-val-00023863.png,1.0,0.88850987,0.06937997,0.5792123
alexnet_w3_mlp_simclrhn_probe2,1,24,NaN,airplane,airplane,0,0024_sty_dnn_0_airplane_00_airplane-0024-ILSVRC2012-val-00024108.png,airplane-0024-ILSVRC2012-val-00024108.png,1.0,-1.0366455,-1.5191138,0.34115657
alexnet_w3_mlp_simclrhn_probe2,1,25,NaN,airplane,airplane,0,0025_sty_dnn_0_airplane_00_airplane-0025-ILSVRC2012-val-00024747.png,airplane-0025-ILSVRC2012-val-00024747.png,1.0,1.691663,1.2342303,0.3234538
alexnet_w3_mlp_simclrhn_probe2,1,26,NaN,cat,airplane,0,0026_sty_dnn_0_airplane_00_airplane-0026-ILSVRC2012-val-00026189.png,airplane-0026-ILSVRC2012-val-00026189.png,0.0,-2.2797809,-0.5827536,-1.1999794
alexnet_w3_mlp_simclrhn_probe2,1,27,NaN,clock,airplane,0,0027_sty_dnn_0_airplane_00_airplane-0027-ILSVRC2012-val-00026859.png,airplane-0027-ILSVRC2012-val-00026859.png,0.0,-0.63598096,0.24610811,-0.6237312
alexnet_w3_mlp_simclrhn_probe2,1,28,NaN,elephant,airplane,0,0028_sty_dnn_0_airplane_00_airplane-0028-ILSVRC2012-val-00028019.png,airplane-0028-ILSVRC2012-val-00028019.png,0.0,-0.78840685,0.70054865,-1.0528506
alexnet_w3_mlp_simclrhn_probe2,1,29,NaN,clock,airplane,0,0029_sty_dnn_0_airplane_00_airplane-0029-ILSVRC2012-val-00030319.png,airplane-0029-ILSVRC2012-val-00030319.png,0.0,-4.551649,0.09055396,-3.2825332
alexnet_w3_mlp_simclrhn_probe2,1,30,NaN,oven,airplane,0,0030_sty_dnn_0_airplane_00_airplane-0030-ILSVRC2012-val-00030411.png,airplane-0030-ILSVRC2012-val-00030411.png,0.0,-2.055089,1.2185347,-2.3148015
alexnet_w3_mlp_simclrhn_probe2,1,31,NaN,bicycle,airplane,0,0031_sty_dnn_0_airplane_00_airplane-0031-ILSVRC2012-val-00030531.png,airplane-0031-ILSVRC2012-val-00030531.png,0.0,-6.94861,-1.8625911,-3.5963583
alexnet_w3_mlp_simclrhn_probe2,1,32,NaN,oven,airplane,0,0032_sty_dnn_0_airplane_00_airplane-0032-ILSVRC2012-val-00032804.png,airplane-0032-ILSVRC2012-val-00032804.png,0.0,-3.966937,-1.4058048,-1.8109941
alexnet_w3_mlp_simclrhn_probe2,1,33,NaN,oven,airplane,0,0033_sty_dnn_0_airplane_00_airplane-0033-ILSVRC2012-val-00033161.png,airplane-0033-ILSVRC2012-val-00033161.png,0.0,-3.509556,1.8641534,-3.7997866
alexnet_w3_mlp_simclrhn_probe2,1,34,NaN,oven,airplane,0,0034_sty_dnn_0_airplane_00_airplane-0034-ILSVRC2012-val-00033441.png,airplane-0034-ILSVRC2012-val-00033441.png,0.0,-3.366373,0.29231554,-2.5870836
alexnet_w3_mlp_simclrhn_probe2,1,35,NaN,oven,airplane,0,0035_sty_dnn_0_airplane_00_airplane-0035-ILSVRC2012-val-00033920.png,airplane-0035-ILSVRC2012-val-00033920.png,0.0,-0.038391694,0.03521157,-0.052045368
alexnet_w3_mlp_simclrhn_probe2,1,36,NaN,oven,airplane,0,0036_sty_dnn_0_airplane_00_airplane-0036-ILSVRC2012-val-00034342.png,airplane-0036-ILSVRC2012-val-00034342.png,0.0,-3.903281,-1.6659843,-1.5820076
alexnet_w3_mlp_simclrhn_probe2,1,37,NaN,bicycle,airplane,0,0037_sty_dnn_0_airplane_00_airplane-0037-ILSVRC2012-val-00035783.png,airplane-0037-ILSVRC2012-val-00035783.png,0.0,-2.3180299,0.93294346,-2.2987852
alexnet_w3_mlp_simclrhn_probe2,1,38,NaN,oven,airplane,0,0038_sty_dnn_0_airplane_00_airplane-0038-ILSVRC2012-val-00036394.png,airplane-0038-ILSVRC2012-val-00036394.png,0.0,-6.32734,0.00757489,-4.4794617
alexnet_w3_mlp_simclrhn_probe2,1,39,NaN,oven,airplane,0,0039_sty_dnn_0_airplane_00_airplane-0039-ILSVRC2012-val-00037801.png,airplane-0039-ILSVRC2012-val-00037801.png,0.0,-6.300379,-0.79458845,-3.8931816
alexnet_w3_mlp_simclrhn_probe2,1,40,NaN,knife,airplane,0,0040_sty_dnn_0_airplane_00_airplane-0040-ILSVRC2012-val-00039213.png,airplane-0040-ILSVRC2012-val-00039213.png,0.0,-1.0719969,-0.052559733,-0.72085094
alexnet_w3_mlp_simclrhn_probe2,1,41,NaN,knife,airplane,0,0041_sty_dnn_0_airplane_00_airplane-0041-ILSVRC2012-val-00040136.png,airplane-0041-ILSVRC2012-val-00040136.png,0.0,-2.7820234,-0.02301839,-1.9509113
alexnet_w3_mlp_simclrhn_probe2,1,42,NaN,oven,airplane,0,0042_sty_dnn_0_airplane_00_airplane-0042-ILSVRC2012-val-00040547.png,airplane-0042-ILSVRC2012-val-00040547.png,0.0,-5.66165,-0.83648485,-3.4119072
alexnet_w3_mlp_simclrhn_probe2,1,43,NaN,bear,airplane,0,0043_sty_dnn_0_airplane_00_airplane-0043-ILSVRC2012-val-00041518.png,airplane-0043-ILSVRC2012-val-00041518.png,0.0,-4.2486715,0.81850517,-3.5830352
alexnet_w3_mlp_simclrhn_probe2,1,44,NaN,truck,airplane,0,0044_sty_dnn_0_airplane_00_airplane-0044-ILSVRC2012-val-00043242.png,airplane-0044-ILSVRC2012-val-00043242.png,0.0,0.29747933,1.859314,-1.1043838
alexnet_w3_mlp_simclrhn_probe2,1,45,NaN,oven,airplane,0,0045_sty_dnn_0_airplane_00_airplane-0045-ILSVRC2012-val-00044253.png,airplane-0045-ILSVRC2012-val-00044253.png,0.0,-2.1174526,1.0192378,-2.2179751
alexnet_w3_mlp_simclrhn_probe2,1,46,NaN,bicycle,airplane,0,0046_sty_dnn_0_airplane_00_airplane-0046-ILSVRC2012-val-00046862.png,airplane-0046-ILSVRC2012-val-00046862.png,0.0,-3.4075165,-0.32284218,-2.1811943
alexnet_w3_mlp_simclrhn_probe2,1,47,NaN,oven,airplane,0,0047_sty_dnn_0_airplane_00_airplane-0047-ILSVRC2012-val-00046971.png,airplane-0047-ILSVRC2012-val-00046971.png,0.0,-1.4060892,-0.6379401,-0.5431634
alexnet_w3_mlp_simclrhn_probe2,1,48,NaN,oven,airplane,0,0048_sty_dnn_0_airplane_00_airplane-0048-ILSVRC2012-val-00047829.png,airplane-0048-ILSVRC2012-val-00047829.png,0.0,-1.5407135,2.4974606,-2.8554204
alexnet_w3_mlp_simclrhn_probe2,1,49,NaN,oven,airplane,0,0049_sty_dnn_0_airplane_00_airplane-0049-ILSVRC2012-val-00048111.png,airplane-0049-ILSVRC2012-val-00048111.png,0.0,-2.612206,0.07698606,-1.901546
alexnet_w3_mlp_simclrhn_probe2,1,50,NaN,bear,airplane,0,0050_sty_dnn_0_airplane_00_airplane-0050-ILSVRC2012-val-00049097.png,airplane-0050-ILSVRC2012-val-00049097.png,0.0,-0.6649453,-0.09272036,-0.40462416
alexnet_w3_mlp_simclrhn_probe2,1,51,NaN,bicycle,bear,0,0051_sty_dnn_0_bear_00_bear-0003-ILSVRC2012-val-00003044.png,bear-0003-ILSVRC2012-val-00003044.png,0.0,-6.9984,-1.1750174,-4.1177535
alexnet_w3_mlp_simclrhn_probe2,1,52,NaN,bear,bear,0,0052_sty_dnn_0_bear_00_bear-0005-ILSVRC2012-val-00006703.png,bear-0005-ILSVRC2012-val-00006703.png,1.0,-0.28328636,-1.2272472,0.6674812
alexnet_w3_mlp_simclrhn_probe2,1,53,NaN,bicycle,bear,0,0053_sty_dnn_0_bear_00_bear-0009-ILSVRC2012-val-00011967.png,bear-0009-ILSVRC2012-val-00011967.png,0.0,-1.6719606,-0.41414744,-0.8894083
alexnet_w3_mlp_simclrhn_probe2,1,54,NaN,bear,bear,0,0054_sty_dnn_0_bear_00_bear-0010-ILSVRC2012-val-00013390.png,bear-0010-ILSVRC2012-val-00013390.png,1.0,2.356463,0.69311607,1.1761639
alexnet_w3_mlp_simclrhn_probe2,1,55,NaN,bear,bear,0,0055_sty_dnn_0_bear_00_bear-0021-ILSVRC2012-val-00031253.png,bear-0021-ILSVRC2012-val-00031253.png,1.0,1.5225368,1.0978702,0.3002846
alexnet_w3_mlp_simclrhn_probe2,1,56,NaN,bottle,bear,0,0056_sty_dnn_0_bear_00_bear-0031-ILSVRC2012-val-00039777.png,bear-0031-ILSVRC2012-val-00039777.png,0.0,-4.491536,-0.910118,-2.532445
alexnet_w3_mlp_simclrhn_probe2,1,57,NaN,elephant,bear,0,0057_sty_dnn_0_bear_00_bear-0035-ILSVRC2012-val-00042274.png,bear-0035-ILSVRC2012-val-00042274.png,0.0,-0.3317057,1.3678939,-1.2017984
alexnet_w3_mlp_simclrhn_probe2,1,58,NaN,knife,bear,0,0058_sty_dnn_0_bear_00_bear-0043-ILSVRC2012-val-00046763.png,bear-0043-ILSVRC2012-val-00046763.png,0.0,-0.64675075,0.21625245,-0.6102354
alexnet_w3_mlp_simclrhn_probe2,1,59,NaN,cat,bear,0,0059_sty_dnn_0_bear_00_bear-0049-ILSVRC2012-val-00049822.png,bear-0049-ILSVRC2012-val-00049822.png,0.0,-0.5847417,-0.48777354,-0.06856685
alexnet_w3_mlp_simclrhn_probe2,1,60,NaN,elephant,bear,0,0060_sty_dnn_0_bear_00_bear-0052-ILSVRC2012-val-00000865.png,bear-0052-ILSVRC2012-val-00000865.png,0.0,3.8162944,4.254475,-0.30984053
alexnet_w3_mlp_simclrhn_probe2,1,61,NaN,knife,bear,0,0061_sty_dnn_0_bear_00_bear-0056-ILSVRC2012-val-00007093.png,bear-0056-ILSVRC2012-val-00007093.png,0.0,-4.9602995,-0.4273433,-3.205284
alexnet_w3_mlp_simclrhn_probe2,1,62,NaN,bear,bear,0,0062_sty_dnn_0_bear_00_bear-0058-ILSVRC2012-val-00011726.png,bear-0058-ILSVRC2012-val-00011726.png,1.0,1.6752074,0.043071464,1.1540943
alexnet_w3_mlp_simclrhn_probe2,1,63,NaN,bear,bear,0,0063_sty_dnn_0_bear_00_bear-0062-ILSVRC2012-val-00014029.png,bear-0062-ILSVRC2012-val-00014029.png,1.0,0.7731951,-0.20060228,0.6885787
alexnet_w3_mlp_simclrhn_probe2,1,64,NaN,knife,bear,0,0064_sty_dnn_0_bear_00_bear-0064-ILSVRC2012-val-00016050.png,bear-0064-ILSVRC2012-val-00016050.png,0.0,-2.019165,-0.21192786,-1.2779096
alexnet_w3_mlp_simclrhn_probe2,1,65,NaN,bottle,bear,0,0065_sty_dnn_0_bear_00_bear-0066-ILSVRC2012-val-00016621.png,bear-0066-ILSVRC2012-val-00016621.png,0.0,-8.168454,-0.47419998,-5.4406595
alexnet_w3_mlp_simclrhn_probe2,1,66,NaN,elephant,bear,0,0066_sty_dnn_0_bear_00_bear-0067-ILSVRC2012-val-00017273.png,bear-0067-ILSVRC2012-val-00017273.png,0.0,-0.64708656,0.83324426,-1.046752
alexnet_w3_mlp_simclrhn_probe2,1,67,NaN,bottle,bear,0,0067_sty_dnn_0_bear_00_bear-0069-ILSVRC2012-val-00018788.png,bear-0069-ILSVRC2012-val-00018788.png,0.0,-5.041182,-0.34808844,-3.3185184
alexnet_w3_mlp_simclrhn_probe2,1,68,NaN,bear,bear,0,0068_sty_dnn_0_bear_00_bear-0071-ILSVRC2012-val-00020050.png,bear-0071-ILSVRC2012-val-00020050.png,1.0,0.06886385,-0.08389169,0.10801447
alexnet_w3_mlp_simclrhn_probe2,1,69,NaN,bicycle,bear,0,0069_sty_dnn_0_bear_00_bear-0073-ILSVRC2012-val-00024289.png,bear-0073-ILSVRC2012-val-00024289.png,0.0,-5.6541004,-0.13381211,-3.9034336
alexnet_w3_mlp_simclrhn_probe2,1,70,NaN,knife,bear,0,0070_sty_dnn_0_bear_00_bear-0074-ILSVRC2012-val-00026962.png,bear-0074-ILSVRC2012-val-00026962.png,0.0,-4.79729,0.25080338,-3.569541
alexnet_w3_mlp_simclrhn_probe2,1,71,NaN,dog,bear,0,0071_sty_dnn_0_bear_00_bear-0078-ILSVRC2012-val-00030951.png,bear-0078-ILSVRC2012-val-00030951.png,0.0,-1.1356277,0.010720357,-0.81059057
alexnet_w3_mlp_simclrhn_probe2,1,72,NaN,oven,bear,0,0072_sty_dnn_0_bear_00_bear-0085-ILSVRC2012-val-00035292.png,bear-0085-ILSVRC2012-val-00035292.png,0.0,-1.4689652,-0.24801376,-0.86334306
alexnet_w3_mlp_simclrhn_probe2,1,73,NaN,cat,bear,0,0073_sty_dnn_0_bear_00_bear-0091-ILSVRC2012-val-00041813.png,bear-0091-ILSVRC2012-val-00041813.png,0.0,-2.0719104,-1.1172651,-0.67503613
alexnet_w3_mlp_simclrhn_probe2,1,74,NaN,elephant,bear,0,0074_sty_dnn_0_bear_00_bear-0094-ILSVRC2012-val-00043648.png,bear-0094-ILSVRC2012-val-00043648.png,0.0,-0.48415583,0.29642534,-0.55195427
alexnet_w3_mlp_simclrhn_probe2,1,75,NaN,oven,bear,0,0075_sty_dnn_0_bear_00_bear-0106-ILSVRC2012-val-00007578.png,bear-0106-ILSVRC2012-val-00007578.png,0.0,-4.65661,0.50177026,-3.6475258
alexnet_w3_mlp_simclrhn_probe2,1,76,NaN,knife,bear,0,0076_sty_dnn_0_bear_00_bear-0112-ILSVRC2012-val-00016340.png,bear-0112-ILSVRC2012-val-00016340.png,0.0,-2.9019728,0.25449583,-2.2319603
alexnet_w3_mlp_simclrhn_probe2,1,77,NaN,bear,bear,0,0077_sty_dnn_0_bear_00_bear-0113-ILSVRC2012-val-00016459.png,bear-0113-ILSVRC2012-val-00016459.png,1.0,0.9522637,0.63314104,0.22565381
alexnet_w3_mlp_simclrhn_probe2,1,78,NaN,elephant,bear,0,0078_sty_dnn_0_bear_00_bear-0114-ILSVRC2012-val-00017605.png,bear-0114-ILSVRC2012-val-00017605.png,0.0,0.32892436,1.3404194,-0.71523505
alexnet_w3_mlp_simclrhn_probe2,1,79,NaN,oven,bear,0,0079_sty_dnn_0_bear_00_bear-0116-ILSVRC2012-val-00020332.png,bear-0116-ILSVRC2012-val-00020332.png,0.0,-1.3945642,-0.5593308,-0.5905992
alexnet_w3_mlp_simclrhn_probe2,1,80,NaN,elephant,bear,0,0080_sty_dnn_0_bear_00_bear-0125-ILSVRC2012-val-00028222.png,bear-0125-ILSVRC2012-val-00028222.png,0.0,-0.274145,0.3886441,-0.46866268
alexnet_w3_mlp_simclrhn_probe2,1,81,NaN,oven,bear,0,0081_sty_dnn_0_bear_00_bear-0129-ILSVRC2012-val-00030485.png,bear-0129-ILSVRC2012-val-00030485.png,0.0,-1.4543142,0.6850073,-1.5127288
alexnet_w3_mlp_simclrhn_probe2,1,82,NaN,bear,bear,0,0082_sty_dnn_0_bear_00_bear-0131-ILSVRC2012-val-00031877.png,bear-0131-ILSVRC2012-val-00031877.png,1.0,-0.42539144,-0.69193476,0.1884746
alexnet_w3_mlp_simclrhn_probe2,1,83,NaN,knife,bear,0,0083_sty_dnn_0_bear_00_bear-0132-ILSVRC2012-val-00036763.png,bear-0132-ILSVRC2012-val-00036763.png,0.0,-6.053985,-0.065782,-4.234299
alexnet_w3_mlp_simclrhn_probe2,1,84,NaN,bicycle,bear,0,0084_sty_dnn_0_bear_00_bear-0139-ILSVRC2012-val-00041156.png,bear-0139-ILSVRC2012-val-00041156.png,0.0,-9.052086,0.9346964,-7.0617213
alexnet_w3_mlp_simclrhn_probe2,1,85,NaN,elephant,bear,0,0085_sty_dnn_0_bear_00_bear-0141-ILSVRC2012-val-00042320.png,bear-0141-ILSVRC2012-val-00042320.png,0.0,-0.05965537,1.093493,-0.81539905
alexnet_w3_mlp_simclrhn_probe2,1,86,NaN,oven,bear,0,0086_sty_dnn_0_bear_00_bear-0143-ILSVRC2012-val-00044126.png,bear-0143-ILSVRC2012-val-00044126.png,0.0,-1.5159029,0.35974002,-1.3262799
alexnet_w3_mlp_simclrhn_probe2,1,87,NaN,clock,bear,0,0087_sty_dnn_0_bear_00_bear-0149-ILSVRC2012-val-00048105.png,bear-0149-ILSVRC2012-val-00048105.png,0.0,-2.9726791,0.24531798,-2.2754676
alexnet_w3_mlp_simclrhn_probe2,1,88,NaN,cat,bear,0,0088_sty_dnn_0_bear_00_bear-0154-ILSVRC2012-val-00003499.png,bear-0154-ILSVRC2012-val-00003499.png,0.0,-3.4481518,-0.7403094,-1.9147338
alexnet_w3_mlp_simclrhn_probe2,1,89,NaN,cat,bear,0,0089_sty_dnn_0_bear_00_bear-0160-ILSVRC2012-val-00013052.png,bear-0160-ILSVRC2012-val-00013052.png,0.0,-2.3165784,-1.043419,-0.9002597
alexnet_w3_mlp_simclrhn_probe2,1,90,NaN,oven,bear,0,0090_sty_dnn_0_bear_00_bear-0163-ILSVRC2012-val-00016513.png,bear-0163-ILSVRC2012-val-00016513.png,0.0,-2.1035008,-0.36912385,-1.2263898
alexnet_w3_mlp_simclrhn_probe2,1,91,NaN,oven,bear,0,0091_sty_dnn_0_bear_00_bear-0164-ILSVRC2012-val-00018303.png,bear-0164-ILSVRC2012-val-00018303.png,0.0,-3.9363558,0.05492133,-2.8222592
alexnet_w3_mlp_simclrhn_probe2,1,92,NaN,oven,bear,0,0092_sty_dnn_0_bear_00_bear-0165-ILSVRC2012-val-00019901.png,bear-0165-ILSVRC2012-val-00019901.png,0.0,-1.976975,-0.7248081,-0.8854157
alexnet_w3_mlp_simclrhn_probe2,1,93,NaN,oven,bear,0,0093_sty_dnn_0_bear_00_bear-0166-ILSVRC2012-val-00022111.png,bear-0166-ILSVRC2012-val-00022111.png,0.0,-2.703712,-0.32224172,-1.6839538
alexnet_w3_mlp_simclrhn_probe2,1,94,NaN,elephant,bear,0,0094_sty_dnn_0_bear_00_bear-0167-ILSVRC2012-val-00022112.png,bear-0167-ILSVRC2012-val-00022112.png,0.0,0.095829904,0.7904716,-0.49118587
alexnet_w3_mlp_simclrhn_probe2,1,95,NaN,bear,bear,0,0095_sty_dnn_0_bear_00_bear-0168-ILSVRC2012-val-00022698.png,bear-0168-ILSVRC2012-val-00022698.png,1.0,0.5664114,-0.11416352,0.48123914
alexnet_w3_mlp_simclrhn_probe2,1,96,NaN,oven,bear,0,0096_sty_dnn_0_bear_00_bear-0180-ILSVRC2012-val-00034637.png,bear-0180-ILSVRC2012-val-00034637.png,0.0,-2.14677,1.6146508,-2.6597261
alexnet_w3_mlp_simclrhn_probe2,1,97,NaN,oven,bear,0,0097_sty_dnn_0_bear_00_bear-0184-ILSVRC2012-val-00038961.png,bear-0184-ILSVRC2012-val-00038961.png,0.0,-7.735961,0.33721036,-5.7085943
alexnet_w3_mlp_simclrhn_probe2,1,98,NaN,knife,bear,0,0098_sty_dnn_0_bear_00_bear-0188-ILSVRC2012-val-00043016.png,bear-0188-ILSVRC2012-val-00043016.png,0.0,-2.9818277,0.3960104,-2.3884923
alexnet_w3_mlp_simclrhn_probe2,1,99,NaN,knife,bear,0,0099_sty_dnn_0_bear_00_bear-0191-ILSVRC2012-val-00044349.png,bear-0191-ILSVRC2012-val-00044349.png,0.0,-3.5092669,-1.5150326,-1.4101366
alexnet_w3_mlp_simclrhn_probe2,1,100,NaN,elephant,bear,0,0100_sty_dnn_0_bear_00_bear-0195-ILSVRC2012-val-00045672.png,bear-0195-ILSVRC2012-val-00045672.png,0.0,-1.3321726,0.34557536,-1.186347
alexnet_w3_mlp_simclrhn_probe2,1,101,NaN,airplane,bicycle,0,0101_sty_dnn_0_bicycle_00_bicycle-0005-ILSVRC2012-val-00005274.png,bicycle-0005-ILSVRC2012-val-00005274.png,0.0,-0.9544283,0.18217489,-0.80369985
alexnet_w3_mlp_simclrhn_probe2,1,102,NaN,bear,bicycle,0,0102_sty_dnn_0_bicycle_00_bicycle-0007-ILSVRC2012-val-00006395.png,bicycle-0007-ILSVRC2012-val-00006395.png,0.0,-2.5338037,0.5313958,-2.1674232
alexnet_w3_mlp_simclrhn_probe2,1,103,NaN,oven,bicycle,0,0103_sty_dnn_0_bicycle_00_bicycle-0008-ILSVRC2012-val-00008007.png,bicycle-0008-ILSVRC2012-val-00008007.png,0.0,-1.5290532,-1.0401579,-0.3457012
alexnet_w3_mlp_simclrhn_probe2,1,104,NaN,bicycle,bicycle,0,0104_sty_dnn_0_bicycle_00_bicycle-0010-ILSVRC2012-val-00010544.png,bicycle-0010-ILSVRC2012-val-00010544.png,1.0,1.9320407,0.75735426,0.83062875
alexnet_w3_mlp_simclrhn_probe2,1,105,NaN,knife,bicycle,0,0105_sty_dnn_0_bicycle_00_bicycle-0011-ILSVRC2012-val-00011821.png,bicycle-0011-ILSVRC2012-val-00011821.png,0.0,-2.0069695,-0.469972,-1.0868213
alexnet_w3_mlp_simclrhn_probe2,1,106,NaN,bicycle,bicycle,0,0106_sty_dnn_0_bicycle_00_bicycle-0013-ILSVRC2012-val-00012667.png,bicycle-0013-ILSVRC2012-val-00012667.png,1.0,2.8190796,-1.3518801,2.9493139
alexnet_w3_mlp_simclrhn_probe2,1,107,NaN,knife,bicycle,0,0107_sty_dnn_0_bicycle_00_bicycle-0014-ILSVRC2012-val-00015483.png,bicycle-0014-ILSVRC2012-val-00015483.png,0.0,-1.698489,-0.29479116,-0.9925642
alexnet_w3_mlp_simclrhn_probe2,1,108,NaN,bicycle,bicycle,0,0108_sty_dnn_0_bicycle_00_bicycle-0015-ILSVRC2012-val-00015618.png,bicycle-0015-ILSVRC2012-val-00015618.png,1.0,-0.7327413,-1.970426,0.8751753
alexnet_w3_mlp_simclrhn_probe2,1,109,NaN,elephant,bicycle,0,0109_sty_dnn_0_bicycle_00_bicycle-0016-ILSVRC2012-val-00016532.png,bicycle-0016-ILSVRC2012-val-00016532.png,0.0,-1.6244568,0.6326554,-1.5960193
alexnet_w3_mlp_simclrhn_probe2,1,110,NaN,bicycle,bicycle,0,0110_sty_dnn_0_bicycle_00_bicycle-0018-ILSVRC2012-val-00018975.png,bicycle-0018-ILSVRC2012-val-00018975.png,1.0,0.94556177,-2.6292949,2.5278056
alexnet_w3_mlp_simclrhn_probe2,1,111,NaN,bicycle,bicycle,0,0111_sty_dnn_0_bicycle_00_bicycle-0020-ILSVRC2012-val-00022027.png,bicycle-0020-ILSVRC2012-val-00022027.png,1.0,2.565065,1.1777015,0.98101413
alexnet_w3_mlp_simclrhn_probe2,1,112,NaN,bicycle,bicycle,0,0112_sty_dnn_0_bicycle_00_bicycle-0022-ILSVRC2012-val-00023266.png,bicycle-0022-ILSVRC2012-val-00023266.png,1.0,0.83455324,0.41272044,0.29828084
alexnet_w3_mlp_simclrhn_probe2,1,113,NaN,oven,bicycle,0,0113_sty_dnn_0_bicycle_00_bicycle-0024-ILSVRC2012-val-00025915.png,bicycle-0024-ILSVRC2012-val-00025915.png,0.0,-4.8148003,0.9428334,-4.071262
alexnet_w3_mlp_simclrhn_probe2,1,114,NaN,bicycle,bicycle,0,0114_sty_dnn_0_bicycle_00_bicycle-0026-ILSVRC2012-val-00026292.png,bicycle-0026-ILSVRC2012-val-00026292.png,1.0,0.31301665,-0.8747288,0.8398629
alexnet_w3_mlp_simclrhn_probe2,1,115,NaN,bottle,bicycle,0,0115_sty_dnn_0_bicycle_00_bicycle-0030-ILSVRC2012-val-00027620.png,bicycle-0030-ILSVRC2012-val-00027620.png,0.0,-3.7406762,-0.7892252,-2.0869908
alexnet_w3_mlp_simclrhn_probe2,1,116,NaN,knife,bicycle,0,0116_sty_dnn_0_bicycle_00_bicycle-0032-ILSVRC2012-val-00030070.png,bicycle-0032-ILSVRC2012-val-00030070.png,0.0,-2.579321,-0.7934775,-1.262782
alexnet_w3_mlp_simclrhn_probe2,1,117,NaN,bicycle,bicycle,0,0117_sty_dnn_0_bicycle_00_bicycle-0033-ILSVRC2012-val-00031498.png,bicycle-0033-ILSVRC2012-val-00031498.png,1.0,-0.6145437,-0.97555465,0.2552733
alexnet_w3_mlp_simclrhn_probe2,1,118,NaN,bicycle,bicycle,0,0118_sty_dnn_0_bicycle_00_bicycle-0035-ILSVRC2012-val-00033559.png,bicycle-0035-ILSVRC2012-val-00033559.png,1.0,4.2065215,-0.8305047,3.5617156
alexnet_w3_mlp_simclrhn_probe2,1,119,NaN,bicycle,bicycle,0,0119_sty_dnn_0_bicycle_00_bicycle-0037-ILSVRC2012-val-00036009.png,bicycle-0037-ILSVRC2012-val-00036009.png,1.0,0.44386595,-0.65238905,0.77516943
alexnet_w3_mlp_simclrhn_probe2,1,120,NaN,chair,bicycle,0,0120_sty_dnn_0_bicycle_00_bicycle-0038-ILSVRC2012-val-00036903.png,bicycle-0038-ILSVRC2012-val-00036903.png,0.0,-1.5797832,0.54417175,-1.501863
alexnet_w3_mlp_simclrhn_probe2,1,121,NaN,bicycle,bicycle,0,0121_sty_dnn_0_bicycle_00_bicycle-0039-ILSVRC2012-val-00037292.png,bicycle-0039-ILSVRC2012-val-00037292.png,1.0,3.1318114,0.54647267,1.8281105
alexnet_w3_mlp_simclrhn_probe2,1,122,NaN,bicycle,bicycle,0,0122_sty_dnn_0_bicycle_00_bicycle-0040-ILSVRC2012-val-00037433.png,bicycle-0040-ILSVRC2012-val-00037433.png,1.0,0.61894655,-0.9497001,1.1092007
alexnet_w3_mlp_simclrhn_probe2,1,123,NaN,oven,bicycle,0,0123_sty_dnn_0_bicycle_00_bicycle-0043-ILSVRC2012-val-00038415.png,bicycle-0043-ILSVRC2012-val-00038415.png,0.0,-0.76567006,-0.45287716,-0.22117798
alexnet_w3_mlp_simclrhn_probe2,1,124,NaN,oven,bicycle,0,0124_sty_dnn_0_bicycle_00_bicycle-0044-ILSVRC2012-val-00040027.png,bicycle-0044-ILSVRC2012-val-00040027.png,0.0,-0.29482734,0.2947038,-0.4168615
alexnet_w3_mlp_simclrhn_probe2,1,125,NaN,elephant,bicycle,0,0125_sty_dnn_0_bicycle_00_bicycle-0046-ILSVRC2012-val-00042496.png,bicycle-0046-ILSVRC2012-val-00042496.png,0.0,-0.25015974,-0.17838469,-0.050752625
alexnet_w3_mlp_simclrhn_probe2,1,126,NaN,bicycle,bicycle,0,0126_sty_dnn_0_bicycle_00_bicycle-0047-ILSVRC2012-val-00043435.png,bicycle-0047-ILSVRC2012-val-00043435.png,1.0,1.8951569,0.2340655,1.174569
alexnet_w3_mlp_simclrhn_probe2,1,127,NaN,oven,bicycle,0,0127_sty_dnn_0_bicycle_00_bicycle-0048-ILSVRC2012-val-00045400.png,bicycle-0048-ILSVRC2012-val-00045400.png,0.0,0.41658074,0.44277227,-0.01852021
alexnet_w3_mlp_simclrhn_probe2,1,128,NaN,oven,bicycle,0,0128_sty_dnn_0_bicycle_00_bicycle-0050-ILSVRC2012-val-00049382.png,bicycle-0050-ILSVRC2012-val-00049382.png,0.0,-0.785068,-0.3248375,-0.3254321
alexnet_w3_mlp_simclrhn_probe2,1,129,NaN,bicycle,bicycle,0,0129_sty_dnn_0_bicycle_00_bicycle-0054-ILSVRC2012-val-00004147.png,bicycle-0054-ILSVRC2012-val-00004147.png,1.0,1.1622965,-0.68052506,1.3030716
alexnet_w3_mlp_simclrhn_probe2,1,130,NaN,bicycle,bicycle,0,0130_sty_dnn_0_bicycle_00_bicycle-0056-ILSVRC2012-val-00005330.png,bicycle-0056-ILSVRC2012-val-00005330.png,1.0,0.044193044,0.025596153,0.013149988
alexnet_w3_mlp_simclrhn_probe2,1,131,NaN,bicycle,bicycle,0,0131_sty_dnn_0_bicycle_00_bicycle-0059-ILSVRC2012-val-00011329.png,bicycle-0059-ILSVRC2012-val-00011329.png,1.0,3.7113671,-2.154809,4.148013
alexnet_w3_mlp_simclrhn_probe2,1,132,NaN,bicycle,bicycle,0,0132_sty_dnn_0_bicycle_00_bicycle-0060-ILSVRC2012-val-00011330.png,bicycle-0060-ILSVRC2012-val-00011330.png,1.0,-0.058256686,-0.12515025,0.047300894
alexnet_w3_mlp_simclrhn_probe2,1,133,NaN,elephant,bicycle,0,0133_sty_dnn_0_bicycle_00_bicycle-0061-ILSVRC2012-val-00012096.png,bicycle-0061-ILSVRC2012-val-00012096.png,0.0,-0.2693705,-0.14022729,-0.09131804
alexnet_w3_mlp_simclrhn_probe2,1,134,NaN,oven,bicycle,0,0134_sty_dnn_0_bicycle_00_bicycle-0062-ILSVRC2012-val-00015867.png,bicycle-0062-ILSVRC2012-val-00015867.png,0.0,-0.6454403,0.2934575,-0.66390103
alexnet_w3_mlp_simclrhn_probe2,1,135,NaN,bottle,bicycle,0,0135_sty_dnn_0_bicycle_00_bicycle-0064-ILSVRC2012-val-00017103.png,bicycle-0064-ILSVRC2012-val-00017103.png,0.0,-0.30720156,0.51565796,-0.5818496
alexnet_w3_mlp_simclrhn_probe2,1,136,NaN,knife,bicycle,0,0136_sty_dnn_0_bicycle_00_bicycle-0067-ILSVRC2012-val-00018304.png,bicycle-0067-ILSVRC2012-val-00018304.png,0.0,-1.1661854,-0.9845948,-0.12840392
alexnet_w3_mlp_simclrhn_probe2,1,137,NaN,bear,bicycle,0,0137_sty_dnn_0_bicycle_00_bicycle-0070-ILSVRC2012-val-00020631.png,bicycle-0070-ILSVRC2012-val-00020631.png,0.0,-3.0041814,0.37375176,-2.3885593
alexnet_w3_mlp_simclrhn_probe2,1,138,NaN,bicycle,bicycle,0,0138_sty_dnn_0_bicycle_00_bicycle-0073-ILSVRC2012-val-00027449.png,bicycle-0073-ILSVRC2012-val-00027449.png,1.0,-1.3519214,-2.7085805,0.95930284
alexnet_w3_mlp_simclrhn_probe2,1,139,NaN,knife,bicycle,0,0139_sty_dnn_0_bicycle_00_bicycle-0074-ILSVRC2012-val-00028824.png,bicycle-0074-ILSVRC2012-val-00028824.png,0.0,-1.6404485,-1.4946516,-0.103093974
alexnet_w3_mlp_simclrhn_probe2,1,140,NaN,bicycle,bicycle,0,0140_sty_dnn_0_bicycle_00_bicycle-0077-ILSVRC2012-val-00030112.png,bicycle-0077-ILSVRC2012-val-00030112.png,1.0,1.154878,-0.44225866,1.1293463
alexnet_w3_mlp_simclrhn_probe2,1,141,NaN,bicycle,bicycle,0,0141_sty_dnn_0_bicycle_00_bicycle-0078-ILSVRC2012-val-00030892.png,bicycle-0078-ILSVRC2012-val-00030892.png,1.0,3.3733997,0.6859181,1.9003365
alexnet_w3_mlp_simclrhn_probe2,1,142,NaN,bicycle,bicycle,0,0142_sty_dnn_0_bicycle_00_bicycle-0079-ILSVRC2012-val-00031485.png,bicycle-0079-ILSVRC2012-val-00031485.png,1.0,0.27444848,-0.7520069,0.72581357
alexnet_w3_mlp_simclrhn_probe2,1,143,NaN,oven,bicycle,0,0143_sty_dnn_0_bicycle_00_bicycle-0080-ILSVRC2012-val-00032009.png,bicycle-0080-ILSVRC2012-val-00032009.png,0.0,-2.3747604,-1.4052416,-0.6855533
alexnet_w3_mlp_simclrhn_probe2,1,144,NaN,bicycle,bicycle,0,0144_sty_dnn_0_bicycle_00_bicycle-0081-ILSVRC2012-val-00032967.png,bicycle-0081-ILSVRC2012-val-00032967.png,1.0,0.5862902,-0.9713661,1.1014293
alexnet_w3_mlp_simclrhn_probe2,1,145,NaN,bicycle,bicycle,0,0145_sty_dnn_0_bicycle_00_bicycle-0085-ILSVRC2012-val-00037438.png,bicycle-0085-ILSVRC2012-val-00037438.png,1.0,0.19813788,-0.8273455,0.72512627
alexnet_w3_mlp_simclrhn_probe2,1,146,NaN,bicycle,bicycle,0,0146_sty_dnn_0_bicycle_00_bicycle-0089-ILSVRC2012-val-00042393.png,bicycle-0089-ILSVRC2012-val-00042393.png,1.0,1.3788437,-0.8677026,1.5885482
alexnet_w3_mlp_simclrhn_probe2,1,147,NaN,bicycle,bicycle,0,0147_sty_dnn_0_bicycle_00_bicycle-0092-ILSVRC2012-val-00043207.png,bicycle-0092-ILSVRC2012-val-00043207.png,1.0,-1.707805,-1.8144245,0.07539136
alexnet_w3_mlp_simclrhn_probe2,1,148,NaN,bicycle,bicycle,0,0148_sty_dnn_0_bicycle_00_bicycle-0094-ILSVRC2012-val-00044080.png,bicycle-0094-ILSVRC2012-val-00044080.png,1.0,4.6939344,-0.017944545,3.3318014
alexnet_w3_mlp_simclrhn_probe2,1,149,NaN,bicycle,bicycle,0,0149_sty_dnn_0_bicycle_00_bicycle-0096-ILSVRC2012-val-00045152.png,bicycle-0096-ILSVRC2012-val-00045152.png,1.0,0.4407393,0.06477697,0.2658455
alexnet_w3_mlp_simclrhn_probe2,1,150,NaN,bicycle,bicycle,0,0150_sty_dnn_0_bicycle_00_bicycle-0100-ILSVRC2012-val-00049750.png,bicycle-0100-ILSVRC2012-val-00049750.png,1.0,0.13006207,-0.18857482,0.22531031
alexnet_w3_mlp_simclrhn_probe2,1,151,NaN,knife,bird,0,0151_sty_dnn_0_bird_00_bird-0009-ILSVRC2012-val-00007530.png,bird-0009-ILSVRC2012-val-00007530.png,0.0,-6.317739,-0.5689629,-4.0649986
alexnet_w3_mlp_simclrhn_probe2,1,152,NaN,bicycle,bird,0,0152_sty_dnn_0_bird_00_bird-0045-ILSVRC2012-val-00045547.png,bird-0045-ILSVRC2012-val-00045547.png,0.0,-2.0132427,-0.7884301,-0.8660733
alexnet_w3_mlp_simclrhn_probe2,1,153,NaN,bird,bird,0,0153_sty_dnn_0_bird_00_bird-0119-ILSVRC2012-val-00016252.png,bird-0119-ILSVRC2012-val-00016252.png,1.0,-1.1628189,-1.5081098,0.24415754
alexnet_w3_mlp_simclrhn_probe2,1,154,NaN,oven,bird,0,0154_sty_dnn_0_bird_00_bird-0122-ILSVRC2012-val-00019236.png,bird-0122-ILSVRC2012-val-00019236.png,0.0,-1.3993574,1.212382,-1.8467786
alexnet_w3_mlp_simclrhn_probe2,1,155,NaN,bird,bird,0,0155_sty_dnn_0_bird_00_bird-0157-ILSVRC2012-val-00005336.png,bird-0157-ILSVRC2012-val-00005336.png,1.0,0.3795236,-1.047357,1.0089569
alexnet_w3_mlp_simclrhn_probe2,1,156,NaN,clock,bird,0,0156_sty_dnn_0_bird_00_bird-0175-ILSVRC2012-val-00018699.png,bird-0175-ILSVRC2012-val-00018699.png,0.0,-8.8741045,-0.25632572,-6.09369
alexnet_w3_mlp_simclrhn_probe2,1,157,NaN,bottle,bird,0,0157_sty_dnn_0_bird_00_bird-0228-ILSVRC2012-val-00017712.png,bird-0228-ILSVRC2012-val-00017712.png,0.0,-2.4195137,-1.4582747,-0.6796986
alexnet_w3_mlp_simclrhn_probe2,1,158,NaN,chair,bird,0,0158_sty_dnn_0_bird_00_bird-0238-ILSVRC2012-val-00030657.png,bird-0238-ILSVRC2012-val-00030657.png,0.0,-3.4294987,0.51163983,-2.7868059
alexnet_w3_mlp_simclrhn_probe2,1,159,NaN,elephant,bird,0,0159_sty_dnn_0_bird_00_bird-0426-ILSVRC2012-val-00030017.png,bird-0426-ILSVRC2012-val-00030017.png,0.0,-0.53448606,0.81698877,-0.955637
alexnet_w3_mlp_simclrhn_probe2,1,160,NaN,oven,bird,0,0160_sty_dnn_0_bird_00_bird-0486-ILSVRC2012-val-00037420.png,bird-0486-ILSVRC2012-val-00037420.png,0.0,-2.9541535,-0.016276784,-2.0773926
alexnet_w3_mlp_simclrhn_probe2,1,161,NaN,bear,bird,0,0161_sty_dnn_0_bird_00_bird-0513-ILSVRC2012-val-00013223.png,bird-0513-ILSVRC2012-val-00013223.png,0.0,-2.3193388,0.5579339,-2.034539
alexnet_w3_mlp_simclrhn_probe2,1,162,NaN,bicycle,bird,0,0162_sty_dnn_0_bird_00_bird-0522-ILSVRC2012-val-00020730.png,bird-0522-ILSVRC2012-val-00020730.png,0.0,-2.3701444,-0.76919615,-1.1320413
alexnet_w3_mlp_simclrhn_probe2,1,163,NaN,bird,bird,0,0163_sty_dnn_0_bird_00_bird-0532-ILSVRC2012-val-00028181.png,bird-0532-ILSVRC2012-val-00028181.png,1.0,1.9498432,-2.8104649,3.3660464
alexnet_w3_mlp_simclrhn_probe2,1,164,NaN,oven,bird,0,0164_sty_dnn_0_bird_00_bird-0624-ILSVRC2012-val-00024514.png,bird-0624-ILSVRC2012-val-00024514.png,0.0,-2.2488325,0.0016825497,-1.5913545
alexnet_w3_mlp_simclrhn_probe2,1,165,NaN,bird,bird,0,0165_sty_dnn_0_bird_00_bird-0701-ILSVRC2012-val-00000075.png,bird-0701-ILSVRC2012-val-00000075.png,1.0,0.005293007,-0.18446013,0.13417573
alexnet_w3_mlp_simclrhn_probe2,1,166,NaN,bird,bird,0,0166_sty_dnn_0_bird_00_bird-0752-ILSVRC2012-val-00001596.png,bird-0752-ILSVRC2012-val-00001596.png,1.0,0.48461747,-2.0149305,1.7674474
alexnet_w3_mlp_simclrhn_probe2,1,167,NaN,oven,bird,0,0167_sty_dnn_0_bird_00_bird-0754-ILSVRC2012-val-00002846.png,bird-0754-ILSVRC2012-val-00002846.png,0.0,-1.5283859,-0.79935527,-0.5155025
alexnet_w3_mlp_simclrhn_probe2,1,168,NaN,oven,bird,0,0168_sty_dnn_0_bird_00_bird-0822-ILSVRC2012-val-00025200.png,bird-0822-ILSVRC2012-val-00025200.png,0.0,-2.7609735,-0.76284385,-1.412891
alexnet_w3_mlp_simclrhn_probe2,1,169,NaN,knife,bird,0,0169_sty_dnn_0_bird_00_bird-0896-ILSVRC2012-val-00046621.png,bird-0896-ILSVRC2012-val-00046621.png,0.0,-2.783856,-0.53849214,-1.5877119
alexnet_w3_mlp_simclrhn_probe2,1,170,NaN,oven,bird,0,0170_sty_dnn_0_bird_00_bird-0995-ILSVRC2012-val-00046534.png,bird-0995-ILSVRC2012-val-00046534.png,0.0,-3.4588661,0.7554052,-2.97994
alexnet_w3_mlp_simclrhn_probe2,1,171,NaN,oven,bird,0,0171_sty_dnn_0_bird_00_bird-1052-ILSVRC2012-val-00003884.png,bird-1052-ILSVRC2012-val-00003884.png,0.0,-1.9800022,0.61196446,-1.8327972
alexnet_w3_mlp_simclrhn_probe2,1,172,NaN,oven,bird,0,0172_sty_dnn_0_bird_00_bird-1093-ILSVRC2012-val-00044082.png,bird-1093-ILSVRC2012-val-00044082.png,0.0,-1.8754922,0.3056694,-1.5423142
alexnet_w3_mlp_simclrhn_probe2,1,173,NaN,bicycle,bird,0,0173_sty_dnn_0_bird_00_bird-1172-ILSVRC2012-val-00022442.png,bird-1172-ILSVRC2012-val-00022442.png,0.0,-2.713346,-0.484645,-1.5759296
alexnet_w3_mlp_simclrhn_probe2,1,174,NaN,cat,bird,0,0174_sty_dnn_0_bird_00_bird-1188-ILSVRC2012-val-00040014.png,bird-1188-ILSVRC2012-val-00040014.png,0.0,-1.4842447,-0.5696307,-0.64672977
alexnet_w3_mlp_simclrhn_probe2,1,175,NaN,oven,bird,0,0175_sty_dnn_0_bird_00_bird-1198-ILSVRC2012-val-00048142.png,bird-1198-ILSVRC2012-val-00048142.png,0.0,-2.4168231,0.12103073,-1.7945337
alexnet_w3_mlp_simclrhn_probe2,1,176,NaN,chair,bird,0,0176_sty_dnn_0_bird_00_bird-1256-ILSVRC2012-val-00005779.png,bird-1256-ILSVRC2012-val-00005779.png,0.0,-5.834973,-0.9227383,-3.4734743
alexnet_w3_mlp_simclrhn_probe2,1,177,NaN,oven,bird,0,0177_sty_dnn_0_bird_00_bird-1274-ILSVRC2012-val-00025449.png,bird-1274-ILSVRC2012-val-00025449.png,0.0,-3.170738,0.99363476,-2.9446564
alexnet_w3_mlp_simclrhn_probe2,1,178,NaN,bird,bird,0,0178_sty_dnn_0_bird_00_bird-1326-ILSVRC2012-val-00025658.png,bird-1326-ILSVRC2012-val-00025658.png,1.0,-0.45033875,-0.8321181,0.26995876
alexnet_w3_mlp_simclrhn_probe2,1,179,NaN,bird,bird,0,0179_sty_dnn_0_bird_00_bird-1394-ILSVRC2012-val-00040051.png,bird-1394-ILSVRC2012-val-00040051.png,1.0,0.66600144,-1.6558509,1.6417974
alexnet_w3_mlp_simclrhn_probe2,1,180,NaN,elephant,bird,0,0180_sty_dnn_0_bird_00_bird-1452-ILSVRC2012-val-00002997.png,bird-1452-ILSVRC2012-val-00002997.png,0.0,-1.0695281,0.4564534,-1.079032
alexnet_w3_mlp_simclrhn_probe2,1,181,NaN,bird,bird,0,0181_sty_dnn_0_bird_00_bird-1551-ILSVRC2012-val-00000690.png,bird-1551-ILSVRC2012-val-00000690.png,1.0,0.72664684,-0.6325052,0.96106565
alexnet_w3_mlp_simclrhn_probe2,1,182,NaN,knife,bird,0,0182_sty_dnn_0_bird_00_bird-1646-ILSVRC2012-val-00039398.png,bird-1646-ILSVRC2012-val-00039398.png,0.0,-1.3156174,0.14780076,-1.034793
alexnet_w3_mlp_simclrhn_probe2,1,183,NaN,bird,bird,0,0183_sty_dnn_0_bird_00_bird-1861-ILSVRC2012-val-00007811.png,bird-1861-ILSVRC2012-val-00007811.png,1.0,-0.47320852,-0.52112556,0.03388246
alexnet_w3_mlp_simclrhn_probe2,1,184,NaN,clock,bird,0,0184_sty_dnn_0_bird_00_bird-1865-ILSVRC2012-val-00009672.png,bird-1865-ILSVRC2012-val-00009672.png,0.0,-4.6080594,0.83245045,-3.8470213
alexnet_w3_mlp_simclrhn_probe2,1,185,NaN,oven,bird,0,0185_sty_dnn_0_bird_00_bird-1913-ILSVRC2012-val-00012475.png,bird-1913-ILSVRC2012-val-00012475.png,0.0,-1.3966326,-0.17748663,-0.8620663
alexnet_w3_mlp_simclrhn_probe2,1,186,NaN,bird,bird,0,0186_sty_dnn_0_bird_00_bird-1941-ILSVRC2012-val-00042829.png,bird-1941-ILSVRC2012-val-00042829.png,1.0,-0.7650329,-1.0427676,0.19638814
alexnet_w3_mlp_simclrhn_probe2,1,187,NaN,bear,bird,0,0187_sty_dnn_0_bird_00_bird-1971-ILSVRC2012-val-00023024.png,bird-1971-ILSVRC2012-val-00023024.png,0.0,-2.7284107,1.7291305,-3.1519578
alexnet_w3_mlp_simclrhn_probe2,1,188,NaN,elephant,bird,0,0188_sty_dnn_0_bird_00_bird-2011-ILSVRC2012-val-00008842.png,bird-2011-ILSVRC2012-val-00008842.png,0.0,-1.5310683,0.15566051,-1.1926974
alexnet_w3_mlp_simclrhn_probe2,1,189,NaN,bear,bird,0,0189_sty_dnn_0_bird_00_bird-2082-ILSVRC2012-val-00036457.png,bird-2082-ILSVRC2012-val-00036457.png,0.0,-0.9747347,-0.38876823,-0.41434088
alexnet_w3_mlp_simclrhn_probe2,1,190,NaN,chair,bird,0,0190_sty_dnn_0_bird_00_bird-2118-ILSVRC2012-val-00021926.png,bird-2118-ILSVRC2012-val-00021926.png,0.0,-4.595782,0.97150993,-3.9366698
alexnet_w3_mlp_simclrhn_probe2,1,191,NaN,oven,bird,0,0191_sty_dnn_0_bird_00_bird-2144-ILSVRC2012-val-00044377.png,bird-2144-ILSVRC2012-val-00044377.png,0.0,-2.3040373,0.9549366,-2.3044426
alexnet_w3_mlp_simclrhn_probe2,1,192,NaN,oven,bird,0,0192_sty_dnn_0_bird_00_bird-2178-ILSVRC2012-val-00026510.png,bird-2178-ILSVRC2012-val-00026510.png,0.0,-1.874886,-0.65503675,-0.8625638
alexnet_w3_mlp_simclrhn_probe2,1,193,NaN,oven,bird,0,0193_sty_dnn_0_bird_00_bird-2184-ILSVRC2012-val-00034910.png,bird-2184-ILSVRC2012-val-00034910.png,0.0,-2.4538298,1.1143835,-2.5231078
alexnet_w3_mlp_simclrhn_probe2,1,194,NaN,elephant,bird,0,0194_sty_dnn_0_bird_00_bird-2221-ILSVRC2012-val-00014977.png,bird-2221-ILSVRC2012-val-00014977.png,0.0,-3.5281029,-1.9039866,-1.1484237
alexnet_w3_mlp_simclrhn_probe2,1,195,NaN,oven,bird,0,0195_sty_dnn_0_bird_00_bird-2222-ILSVRC2012-val-00015392.png,bird-2222-ILSVRC2012-val-00015392.png,0.0,-1.4791694,-0.09311362,-0.9800894
alexnet_w3_mlp_simclrhn_probe2,1,196,NaN,oven,bird,0,0196_sty_dnn_0_bird_00_bird-2248-ILSVRC2012-val-00044992.png,bird-2248-ILSVRC2012-val-00044992.png,0.0,-3.2379,1.0882971,-3.0590835
alexnet_w3_mlp_simclrhn_probe2,1,197,NaN,bird,bird,0,0197_sty_dnn_0_bird_00_bird-2322-ILSVRC2012-val-00023492.png,bird-2322-ILSVRC2012-val-00023492.png,1.0,-0.35457563,-1.6399386,0.9088889
alexnet_w3_mlp_simclrhn_probe2,1,198,NaN,elephant,bird,0,0198_sty_dnn_0_bird_00_bird-2405-ILSVRC2012-val-00007988.png,bird-2405-ILSVRC2012-val-00007988.png,0.0,-2.3432078,0.09586607,-1.7246857
alexnet_w3_mlp_simclrhn_probe2,1,199,NaN,elephant,bird,0,0199_sty_dnn_0_bird_00_bird-2410-ILSVRC2012-val-00010355.png,bird-2410-ILSVRC2012-val-00010355.png,0.0,-1.111712,1.118803,-1.5772123
alexnet_w3_mlp_simclrhn_probe2,1,200,NaN,bear,bird,0,0200_sty_dnn_0_bird_00_bird-2433-ILSVRC2012-val-00028670.png,bird-2433-ILSVRC2012-val-00028670.png,0.0,-2.2433393,0.5630288,-1.984402
alexnet_w3_mlp_simclrhn_probe2,1,201,NaN,knife,boat,0,0201_sty_dnn_0_boat_00_boat-0005-ILSVRC2012-val-00004909.png,boat-0005-ILSVRC2012-val-00004909.png,0.0,-4.1856337,-1.2204328,-2.0967138
alexnet_w3_mlp_simclrhn_probe2,1,202,NaN,elephant,boat,0,0202_sty_dnn_0_boat_00_boat-0011-ILSVRC2012-val-00011563.png,boat-0011-ILSVRC2012-val-00011563.png,0.0,-3.0333138,-0.48429093,-1.8024315
alexnet_w3_mlp_simclrhn_probe2,1,203,NaN,bicycle,boat,0,0203_sty_dnn_0_boat_00_boat-0026-ILSVRC2012-val-00026341.png,boat-0026-ILSVRC2012-val-00026341.png,0.0,-1.4446931,0.017908782,-1.0342157
alexnet_w3_mlp_simclrhn_probe2,1,204,NaN,oven,boat,0,0204_sty_dnn_0_boat_00_boat-0033-ILSVRC2012-val-00030824.png,boat-0033-ILSVRC2012-val-00030824.png,0.0,-3.6013496,0.19482881,-2.6843035
alexnet_w3_mlp_simclrhn_probe2,1,205,NaN,elephant,boat,0,0205_sty_dnn_0_boat_00_boat-0036-ILSVRC2012-val-00032433.png,boat-0036-ILSVRC2012-val-00032433.png,0.0,-2.9535096,1.2266951,-2.9558508
alexnet_w3_mlp_simclrhn_probe2,1,206,NaN,airplane,boat,0,0206_sty_dnn_0_boat_00_boat-0039-ILSVRC2012-val-00033883.png,boat-0039-ILSVRC2012-val-00033883.png,0.0,-0.6225748,-0.5396221,-0.058656402
alexnet_w3_mlp_simclrhn_probe2,1,207,NaN,oven,boat,0,0207_sty_dnn_0_boat_00_boat-0042-ILSVRC2012-val-00039945.png,boat-0042-ILSVRC2012-val-00039945.png,0.0,-2.9849486,1.3240751,-3.04694
alexnet_w3_mlp_simclrhn_probe2,1,208,NaN,bear,boat,0,0208_sty_dnn_0_boat_00_boat-0044-ILSVRC2012-val-00041227.png,boat-0044-ILSVRC2012-val-00041227.png,0.0,-1.103919,-0.3351275,-0.5436177
alexnet_w3_mlp_simclrhn_probe2,1,209,NaN,oven,boat,0,0209_sty_dnn_0_boat_00_boat-0048-ILSVRC2012-val-00046387.png,boat-0048-ILSVRC2012-val-00046387.png,0.0,-2.2524967,1.5333657,-2.677009
alexnet_w3_mlp_simclrhn_probe2,1,210,NaN,elephant,boat,0,0210_sty_dnn_0_boat_00_boat-0053-ILSVRC2012-val-00005918.png,boat-0053-ILSVRC2012-val-00005918.png,0.0,-0.30871096,0.20411259,-0.36262104
alexnet_w3_mlp_simclrhn_probe2,1,211,NaN,oven,boat,0,0211_sty_dnn_0_boat_00_boat-0061-ILSVRC2012-val-00011292.png,boat-0061-ILSVRC2012-val-00011292.png,0.0,-1.2029092,0.3520791,-1.0995429
alexnet_w3_mlp_simclrhn_probe2,1,212,NaN,bottle,boat,0,0212_sty_dnn_0_boat_00_boat-0064-ILSVRC2012-val-00013366.png,boat-0064-ILSVRC2012-val-00013366.png,0.0,-1.5496114,-0.6206811,-0.65685296
alexnet_w3_mlp_simclrhn_probe2,1,213,NaN,bicycle,boat,0,0213_sty_dnn_0_boat_00_boat-0066-ILSVRC2012-val-00013961.png,boat-0066-ILSVRC2012-val-00013961.png,0.0,-2.8854897,0.53247213,-2.416864
alexnet_w3_mlp_simclrhn_probe2,1,214,NaN,elephant,boat,0,0214_sty_dnn_0_boat_00_boat-0070-ILSVRC2012-val-00017026.png,boat-0070-ILSVRC2012-val-00017026.png,0.0,-1.6004193,0.9231014,-1.7843987
alexnet_w3_mlp_simclrhn_probe2,1,215,NaN,bottle,boat,0,0215_sty_dnn_0_boat_00_boat-0073-ILSVRC2012-val-00018158.png,boat-0073-ILSVRC2012-val-00018158.png,0.0,-2.2454307,-0.80748904,-1.0167783
alexnet_w3_mlp_simclrhn_probe2,1,216,NaN,bicycle,boat,0,0216_sty_dnn_0_boat_00_boat-0076-ILSVRC2012-val-00020486.png,boat-0076-ILSVRC2012-val-00020486.png,0.0,-2.6157863,1.0160398,-2.568089
alexnet_w3_mlp_simclrhn_probe2,1,217,NaN,oven,boat,0,0217_sty_dnn_0_boat_00_boat-0077-ILSVRC2012-val-00021948.png,boat-0077-ILSVRC2012-val-00021948.png,0.0,-2.2907012,-1.2670383,-0.7238389
alexnet_w3_mlp_simclrhn_probe2,1,218,NaN,bicycle,boat,0,0218_sty_dnn_0_boat_00_boat-0079-ILSVRC2012-val-00025681.png,boat-0079-ILSVRC2012-val-00025681.png,0.0,-2.2281904,1.410925,-2.5732431
alexnet_w3_mlp_simclrhn_probe2,1,219,NaN,knife,boat,0,0219_sty_dnn_0_boat_00_boat-0082-ILSVRC2012-val-00027612.png,boat-0082-ILSVRC2012-val-00027612.png,0.0,-2.488633,-0.83204675,-1.1713834
alexnet_w3_mlp_simclrhn_probe2,1,220,NaN,oven,boat,0,0220_sty_dnn_0_boat_00_boat-0083-ILSVRC2012-val-00034455.png,boat-0083-ILSVRC2012-val-00034455.png,0.0,-2.3988671,1.0019252,-2.4047234
alexnet_w3_mlp_simclrhn_probe2,1,221,NaN,oven,boat,0,0221_sty_dnn_0_boat_00_boat-0086-ILSVRC2012-val-00039559.png,boat-0086-ILSVRC2012-val-00039559.png,0.0,-3.1925418,-0.12492135,-2.1691353
alexnet_w3_mlp_simclrhn_probe2,1,222,NaN,oven,boat,0,0222_sty_dnn_0_boat_00_boat-0098-ILSVRC2012-val-00047961.png,boat-0098-ILSVRC2012-val-00047961.png,0.0,-2.0497425,0.5166447,-1.8147098
alexnet_w3_mlp_simclrhn_probe2,1,223,NaN,oven,boat,0,0223_sty_dnn_0_boat_00_boat-0100-ILSVRC2012-val-00048371.png,boat-0100-ILSVRC2012-val-00048371.png,0.0,-1.2325426,0.5498388,-1.260334
alexnet_w3_mlp_simclrhn_probe2,1,224,NaN,keyboard,boat,0,0224_sty_dnn_0_boat_00_boat-0103-ILSVRC2012-val-00002308.png,boat-0103-ILSVRC2012-val-00002308.png,0.0,-2.5814984,0.48420733,-2.1677814
alexnet_w3_mlp_simclrhn_probe2,1,225,NaN,bicycle,boat,0,0225_sty_dnn_0_boat_00_boat-0107-ILSVRC2012-val-00004492.png,boat-0107-ILSVRC2012-val-00004492.png,0.0,-0.43016773,0.26128554,-0.4889313
alexnet_w3_mlp_simclrhn_probe2,1,226,NaN,oven,boat,0,0226_sty_dnn_0_boat_00_boat-0111-ILSVRC2012-val-00009680.png,boat-0111-ILSVRC2012-val-00009680.png,0.0,-3.6821816,2.064896,-4.063798
alexnet_w3_mlp_simclrhn_probe2,1,227,NaN,bicycle,boat,0,0227_sty_dnn_0_boat_00_boat-0121-ILSVRC2012-val-00016970.png,boat-0121-ILSVRC2012-val-00016970.png,0.0,0.15949103,0.24647829,-0.06150928
alexnet_w3_mlp_simclrhn_probe2,1,228,NaN,oven,boat,0,0228_sty_dnn_0_boat_00_boat-0129-ILSVRC2012-val-00027504.png,boat-0129-ILSVRC2012-val-00027504.png,0.0,-1.5556839,0.74671304,-1.6280404
alexnet_w3_mlp_simclrhn_probe2,1,229,NaN,bicycle,boat,0,0229_sty_dnn_0_boat_00_boat-0137-ILSVRC2012-val-00035374.png,boat-0137-ILSVRC2012-val-00035374.png,0.0,-1.7891512,0.31302604,-1.4864638
alexnet_w3_mlp_simclrhn_probe2,1,230,NaN,oven,boat,0,0230_sty_dnn_0_boat_00_boat-0142-ILSVRC2012-val-00040889.png,boat-0142-ILSVRC2012-val-00040889.png,0.0,-3.9868991,0.36852685,-3.0797513
alexnet_w3_mlp_simclrhn_probe2,1,231,NaN,oven,boat,0,0231_sty_dnn_0_boat_00_boat-0153-ILSVRC2012-val-00002696.png,boat-0153-ILSVRC2012-val-00002696.png,0.0,-1.9540262,0.4491716,-1.6993175
alexnet_w3_mlp_simclrhn_probe2,1,232,NaN,bicycle,boat,0,0232_sty_dnn_0_boat_00_boat-0160-ILSVRC2012-val-00008630.png,boat-0160-ILSVRC2012-val-00008630.png,0.0,-1.2701498,-0.22930042,-0.7359917
alexnet_w3_mlp_simclrhn_probe2,1,233,NaN,bear,boat,0,0233_sty_dnn_0_boat_00_boat-0165-ILSVRC2012-val-00014242.png,boat-0165-ILSVRC2012-val-00014242.png,0.0,-1.4517782,-0.14307794,-0.9253908
alexnet_w3_mlp_simclrhn_probe2,1,234,NaN,oven,boat,0,0234_sty_dnn_0_boat_00_boat-0169-ILSVRC2012-val-00019970.png,boat-0169-ILSVRC2012-val-00019970.png,0.0,-6.153853,0.027895376,-4.371156
alexnet_w3_mlp_simclrhn_probe2,1,235,NaN,oven,boat,0,0235_sty_dnn_0_boat_00_boat-0170-ILSVRC2012-val-00020353.png,boat-0170-ILSVRC2012-val-00020353.png,0.0,-1.1586584,0.217241,-0.97290784
alexnet_w3_mlp_simclrhn_probe2,1,236,NaN,bicycle,boat,0,0236_sty_dnn_0_boat_00_boat-0172-ILSVRC2012-val-00020894.png,boat-0172-ILSVRC2012-val-00020894.png,0.0,-5.195796,-1.1136918,-2.8864837
alexnet_w3_mlp_simclrhn_probe2,1,237,NaN,oven,boat,0,0237_sty_dnn_0_boat_00_boat-0179-ILSVRC2012-val-00026763.png,boat-0179-ILSVRC2012-val-00026763.png,0.0,-3.187904,-0.6868846,-1.7684877
alexnet_w3_mlp_simclrhn_probe2,1,238,NaN,oven,boat,0,0238_sty_dnn_0_boat_00_boat-0181-ILSVRC2012-val-00031072.png,boat-0181-ILSVRC2012-val-00031072.png,0.0,-2.706966,0.33076265,-2.1479986
alexnet_w3_mlp_simclrhn_probe2,1,239,NaN,boat,boat,0,0239_sty_dnn_0_boat_00_boat-0195-ILSVRC2012-val-00042203.png,boat-0195-ILSVRC2012-val-00042203.png,1.0,-0.3956142,-0.52265745,0.08983314
alexnet_w3_mlp_simclrhn_probe2,1,240,NaN,oven,boat,0,0240_sty_dnn_0_boat_00_boat-0196-ILSVRC2012-val-00042675.png,boat-0196-ILSVRC2012-val-00042675.png,0.0,-2.4934113,1.449972,-2.788393
alexnet_w3_mlp_simclrhn_probe2,1,241,NaN,oven,boat,0,0241_sty_dnn_0_boat_00_boat-0215-ILSVRC2012-val-00013403.png,boat-0215-ILSVRC2012-val-00013403.png,0.0,-1.9796413,-0.5384654,-1.0190653
alexnet_w3_mlp_simclrhn_probe2,1,242,NaN,boat,boat,0,0242_sty_dnn_0_boat_00_boat-0217-ILSVRC2012-val-00015089.png,boat-0217-ILSVRC2012-val-00015089.png,1.0,-0.048882745,-0.39555526,0.24513449
alexnet_w3_mlp_simclrhn_probe2,1,243,NaN,bottle,boat,0,0243_sty_dnn_0_boat_00_boat-0218-ILSVRC2012-val-00015121.png,boat-0218-ILSVRC2012-val-00015121.png,0.0,-3.2402947,-0.37251994,-2.027823
alexnet_w3_mlp_simclrhn_probe2,1,244,NaN,oven,boat,0,0244_sty_dnn_0_boat_00_boat-0222-ILSVRC2012-val-00019246.png,boat-0222-ILSVRC2012-val-00019246.png,0.0,-3.860063,0.31955078,-2.9554336
alexnet_w3_mlp_simclrhn_probe2,1,245,NaN,oven,boat,0,0245_sty_dnn_0_boat_00_boat-0223-ILSVRC2012-val-00020544.png,boat-0223-ILSVRC2012-val-00020544.png,0.0,-2.7083907,0.1586037,-2.0272713
alexnet_w3_mlp_simclrhn_probe2,1,246,NaN,oven,boat,0,0246_sty_dnn_0_boat_00_boat-0225-ILSVRC2012-val-00022075.png,boat-0225-ILSVRC2012-val-00022075.png,0.0,-5.057392,-0.5881478,-3.160233
alexnet_w3_mlp_simclrhn_probe2,1,247,NaN,chair,boat,0,0247_sty_dnn_0_boat_00_boat-0235-ILSVRC2012-val-00032371.png,boat-0235-ILSVRC2012-val-00032371.png,0.0,-0.18109135,-0.13796866,-0.03049235
alexnet_w3_mlp_simclrhn_probe2,1,248,NaN,knife,boat,0,0248_sty_dnn_0_boat_00_boat-0236-ILSVRC2012-val-00032584.png,boat-0236-ILSVRC2012-val-00032584.png,0.0,-2.142405,0.55271393,-1.9057369
alexnet_w3_mlp_simclrhn_probe2,1,249,NaN,airplane,boat,0,0249_sty_dnn_0_boat_00_boat-0243-ILSVRC2012-val-00039131.png,boat-0243-ILSVRC2012-val-00039131.png,0.0,-1.1940613,0.9224944,-1.4966309
alexnet_w3_mlp_simclrhn_probe2,1,250,NaN,oven,boat,0,0250_sty_dnn_0_boat_00_boat-0244-ILSVRC2012-val-00040974.png,boat-0244-ILSVRC2012-val-00040974.png,0.0,-1.9264901,0.17699926,-1.4873916
alexnet_w3_mlp_simclrhn_probe2,1,251,NaN,oven,bottle,0,0251_sty_dnn_0_bottle_00_bottle-0002-ILSVRC2012-val-00002968.png,bottle-0002-ILSVRC2012-val-00002968.png,0.0,-1.540124,0.26853424,-1.2789146
alexnet_w3_mlp_simclrhn_probe2,1,252,NaN,bicycle,bottle,0,0252_sty_dnn_0_bottle_00_bottle-0003-ILSVRC2012-val-00003622.png,bottle-0003-ILSVRC2012-val-00003622.png,0.0,-0.7955832,-0.731279,-0.045469917
alexnet_w3_mlp_simclrhn_probe2,1,253,NaN,oven,bottle,0,0253_sty_dnn_0_bottle_00_bottle-0005-ILSVRC2012-val-00004521.png,bottle-0005-ILSVRC2012-val-00004521.png,0.0,-1.9046994,0.41375384,-1.639394
alexnet_w3_mlp_simclrhn_probe2,1,254,NaN,bottle,bottle,0,0254_sty_dnn_0_bottle_00_bottle-0006-ILSVRC2012-val-00004888.png,bottle-0006-ILSVRC2012-val-00004888.png,1.0,2.2462554,-0.7046344,2.0865943
alexnet_w3_mlp_simclrhn_probe2,1,255,NaN,bicycle,bottle,0,0255_sty_dnn_0_bottle_00_bottle-0011-ILSVRC2012-val-00009225.png,bottle-0011-ILSVRC2012-val-00009225.png,0.0,-0.65376365,-0.19999084,-0.32086584
alexnet_w3_mlp_simclrhn_probe2,1,256,NaN,keyboard,bottle,0,0256_sty_dnn_0_bottle_00_bottle-0022-ILSVRC2012-val-00022396.png,bottle-0022-ILSVRC2012-val-00022396.png,0.0,-0.9480943,0.08651866,-0.73158187
alexnet_w3_mlp_simclrhn_probe2,1,257,NaN,oven,bottle,0,0257_sty_dnn_0_bottle_00_bottle-0030-ILSVRC2012-val-00032921.png,bottle-0030-ILSVRC2012-val-00032921.png,0.0,-1.069738,0.08543331,-0.81682956
alexnet_w3_mlp_simclrhn_probe2,1,258,NaN,oven,bottle,0,0258_sty_dnn_0_bottle_00_bottle-0031-ILSVRC2012-val-00033822.png,bottle-0031-ILSVRC2012-val-00033822.png,0.0,-2.6302896,-0.90846694,-1.2175125
alexnet_w3_mlp_simclrhn_probe2,1,259,NaN,oven,bottle,0,0259_sty_dnn_0_bottle_00_bottle-0032-ILSVRC2012-val-00034979.png,bottle-0032-ILSVRC2012-val-00034979.png,0.0,-1.2878363,-0.26617926,-0.7224206
alexnet_w3_mlp_simclrhn_probe2,1,260,NaN,bottle,bottle,0,0260_sty_dnn_0_bottle_00_bottle-0037-ILSVRC2012-val-00036359.png,bottle-0037-ILSVRC2012-val-00036359.png,1.0,1.7115473,-1.1961902,2.0560808
alexnet_w3_mlp_simclrhn_probe2,1,261,NaN,oven,bottle,0,0261_sty_dnn_0_bottle_00_bottle-0039-ILSVRC2012-val-00038570.png,bottle-0039-ILSVRC2012-val-00038570.png,0.0,-0.106652685,-0.06507536,-0.02939961
alexnet_w3_mlp_simclrhn_probe2,1,262,NaN,oven,bottle,0,0262_sty_dnn_0_bottle_00_bottle-0047-ILSVRC2012-val-00044787.png,bottle-0047-ILSVRC2012-val-00044787.png,0.0,-4.4276667,0.027693227,-3.1504152
alexnet_w3_mlp_simclrhn_probe2,1,263,NaN,clock,bottle,0,0263_sty_dnn_0_bottle_00_bottle-0052-ILSVRC2012-val-00000252.png,bottle-0052-ILSVRC2012-val-00000252.png,0.0,-0.27811113,0.24003899,-0.36638746
alexnet_w3_mlp_simclrhn_probe2,1,264,NaN,bottle,bottle,0,0264_sty_dnn_0_bottle_00_bottle-0055-ILSVRC2012-val-00003066.png,bottle-0055-ILSVRC2012-val-00003066.png,1.0,1.5023743,-0.22075129,1.2184339
alexnet_w3_mlp_simclrhn_probe2,1,265,NaN,bottle,bottle,0,0265_sty_dnn_0_bottle_00_bottle-0057-ILSVRC2012-val-00005967.png,bottle-0057-ILSVRC2012-val-00005967.png,1.0,-1.1609538,-1.3701377,0.14791538
alexnet_w3_mlp_simclrhn_probe2,1,266,NaN,knife,bottle,0,0266_sty_dnn_0_bottle_00_bottle-0059-ILSVRC2012-val-00008984.png,bottle-0059-ILSVRC2012-val-00008984.png,0.0,-0.3339257,-0.109451,-0.15872759
alexnet_w3_mlp_simclrhn_probe2,1,267,NaN,bottle,bottle,0,0267_sty_dnn_0_bottle_00_bottle-0066-ILSVRC2012-val-00016336.png,bottle-0066-ILSVRC2012-val-00016336.png,1.0,0.8773369,-0.523875,0.9908065
alexnet_w3_mlp_simclrhn_probe2,1,268,NaN,oven,bottle,0,0268_sty_dnn_0_bottle_00_bottle-0085-ILSVRC2012-val-00036422.png,bottle-0085-ILSVRC2012-val-00036422.png,0.0,-2.3636973,1.2290545,-2.5404592
alexnet_w3_mlp_simclrhn_probe2,1,269,NaN,oven,bottle,0,0269_sty_dnn_0_bottle_00_bottle-0086-ILSVRC2012-val-00036795.png,bottle-0086-ILSVRC2012-val-00036795.png,0.0,-1.8158379,-0.6589289,-0.8180582
alexnet_w3_mlp_simclrhn_probe2,1,270,NaN,boat,bottle,0,0270_sty_dnn_0_bottle_00_bottle-0107-ILSVRC2012-val-00008313.png,bottle-0107-ILSVRC2012-val-00008313.png,0.0,-1.4250919,0.06633787,-1.0546001
alexnet_w3_mlp_simclrhn_probe2,1,271,NaN,bear,bottle,0,0271_sty_dnn_0_bottle_00_bottle-0108-ILSVRC2012-val-00008437.png,bottle-0108-ILSVRC2012-val-00008437.png,0.0,-2.9754055,0.6003964,-2.5284739
alexnet_w3_mlp_simclrhn_probe2,1,272,NaN,bicycle,bottle,0,0272_sty_dnn_0_bottle_00_bottle-0126-ILSVRC2012-val-00022079.png,bottle-0126-ILSVRC2012-val-00022079.png,0.0,-1.7230244,-0.22804701,-1.0571086
alexnet_w3_mlp_simclrhn_probe2,1,273,NaN,bicycle,bottle,0,0273_sty_dnn_0_bottle_00_bottle-0127-ILSVRC2012-val-00023580.png,bottle-0127-ILSVRC2012-val-00023580.png,0.0,-2.355541,-0.15947127,-1.5528558
alexnet_w3_mlp_simclrhn_probe2,1,274,NaN,knife,bottle,0,0274_sty_dnn_0_bottle_00_bottle-0138-ILSVRC2012-val-00032559.png,bottle-0138-ILSVRC2012-val-00032559.png,0.0,-2.4757247,-0.8163179,-1.1733778
alexnet_w3_mlp_simclrhn_probe2,1,275,NaN,knife,bottle,0,0275_sty_dnn_0_bottle_00_bottle-0153-ILSVRC2012-val-00003318.png,bottle-0153-ILSVRC2012-val-00003318.png,0.0,-1.6667293,-1.1260419,-0.38232377
alexnet_w3_mlp_simclrhn_probe2,1,276,NaN,oven,bottle,0,0276_sty_dnn_0_bottle_00_bottle-0154-ILSVRC2012-val-00003340.png,bottle-0154-ILSVRC2012-val-00003340.png,0.0,-2.4692004,-0.12929778,-1.654561
alexnet_w3_mlp_simclrhn_probe2,1,277,NaN,knife,bottle,0,0277_sty_dnn_0_bottle_00_bottle-0170-ILSVRC2012-val-00020948.png,bottle-0170-ILSVRC2012-val-00020948.png,0.0,-1.3158923,-0.6979459,-0.43695414
alexnet_w3_mlp_simclrhn_probe2,1,278,NaN,chair,bottle,0,0278_sty_dnn_0_bottle_00_bottle-0172-ILSVRC2012-val-00021707.png,bottle-0172-ILSVRC2012-val-00021707.png,0.0,-0.79076064,1.1273429,-1.356304
alexnet_w3_mlp_simclrhn_probe2,1,279,NaN,oven,bottle,0,0279_sty_dnn_0_bottle_00_bottle-0180-ILSVRC2012-val-00027613.png,bottle-0180-ILSVRC2012-val-00027613.png,0.0,-1.398901,0.71849,-1.4972216
alexnet_w3_mlp_simclrhn_probe2,1,280,NaN,oven,bottle,0,0280_sty_dnn_0_bottle_00_bottle-0189-ILSVRC2012-val-00040070.png,bottle-0189-ILSVRC2012-val-00040070.png,0.0,-1.8856753,0.7836335,-1.8874863
alexnet_w3_mlp_simclrhn_probe2,1,281,NaN,bottle,bottle,0,0281_sty_dnn_0_bottle_00_bottle-0195-ILSVRC2012-val-00045644.png,bottle-0195-ILSVRC2012-val-00045644.png,1.0,0.8437886,-0.73214245,1.1143515
alexnet_w3_mlp_simclrhn_probe2,1,282,NaN,oven,bottle,0,0282_sty_dnn_0_bottle_00_bottle-0204-ILSVRC2012-val-00002597.png,bottle-0204-ILSVRC2012-val-00002597.png,0.0,-1.1286554,-0.15847068,-0.68602425
alexnet_w3_mlp_simclrhn_probe2,1,283,NaN,bottle,bottle,0,0283_sty_dnn_0_bottle_00_bottle-0205-ILSVRC2012-val-00003263.png,bottle-0205-ILSVRC2012-val-00003263.png,1.0,0.6561908,-1.7561091,1.7057537
alexnet_w3_mlp_simclrhn_probe2,1,284,NaN,oven,bottle,0,0284_sty_dnn_0_bottle_00_bottle-0214-ILSVRC2012-val-00012572.png,bottle-0214-ILSVRC2012-val-00012572.png,0.0,-1.8125657,0.91519225,-1.9288162
alexnet_w3_mlp_simclrhn_probe2,1,285,NaN,cat,bottle,0,0285_sty_dnn_0_bottle_00_bottle-0216-ILSVRC2012-val-00013262.png,bottle-0216-ILSVRC2012-val-00013262.png,0.0,-2.7798648,0.2580576,-2.1481357
alexnet_w3_mlp_simclrhn_probe2,1,286,NaN,bottle,bottle,0,0286_sty_dnn_0_bottle_00_bottle-0218-ILSVRC2012-val-00013667.png,bottle-0218-ILSVRC2012-val-00013667.png,1.0,0.8975172,0.26954427,0.44404393
alexnet_w3_mlp_simclrhn_probe2,1,287,NaN,oven,bottle,0,0287_sty_dnn_0_bottle_00_bottle-0220-ILSVRC2012-val-00014146.png,bottle-0220-ILSVRC2012-val-00014146.png,0.0,-2.9326382,-0.21247008,-1.9234494
alexnet_w3_mlp_simclrhn_probe2,1,288,NaN,oven,bottle,0,0288_sty_dnn_0_bottle_00_bottle-0222-ILSVRC2012-val-00018657.png,bottle-0222-ILSVRC2012-val-00018657.png,0.0,-0.8951267,0.2986581,-0.8441334
alexnet_w3_mlp_simclrhn_probe2,1,289,NaN,oven,bottle,0,0289_sty_dnn_0_bottle_00_bottle-0224-ILSVRC2012-val-00020102.png,bottle-0224-ILSVRC2012-val-00020102.png,0.0,-1.1149505,-0.29245967,-0.58158886
alexnet_w3_mlp_simclrhn_probe2,1,290,NaN,knife,bottle,0,0290_sty_dnn_0_bottle_00_bottle-0233-ILSVRC2012-val-00031504.png,bottle-0233-ILSVRC2012-val-00031504.png,0.0,-1.5738214,-0.08458802,-1.0530471
alexnet_w3_mlp_simclrhn_probe2,1,291,NaN,bicycle,bottle,0,0291_sty_dnn_0_bottle_00_bottle-0243-ILSVRC2012-val-00040157.png,bottle-0243-ILSVRC2012-val-00040157.png,0.0,-1.6192957,-0.4382107,-0.8351532
alexnet_w3_mlp_simclrhn_probe2,1,292,NaN,bottle,bottle,0,0292_sty_dnn_0_bottle_00_bottle-0254-ILSVRC2012-val-00005933.png,bottle-0254-ILSVRC2012-val-00005933.png,1.0,3.1592062,-1.3691889,3.202059
alexnet_w3_mlp_simclrhn_probe2,1,293,NaN,bottle,bottle,0,0293_sty_dnn_0_bottle_00_bottle-0283-ILSVRC2012-val-00036864.png,bottle-0283-ILSVRC2012-val-00036864.png,1.0,3.3650029,-0.56620675,2.779785
alexnet_w3_mlp_simclrhn_probe2,1,294,NaN,bottle,bottle,0,0294_sty_dnn_0_bottle_00_bottle-0294-ILSVRC2012-val-00044222.png,bottle-0294-ILSVRC2012-val-00044222.png,1.0,1.8734846,0.63349396,0.87680584
alexnet_w3_mlp_simclrhn_probe2,1,295,NaN,oven,bottle,0,0295_sty_dnn_0_bottle_00_bottle-0296-ILSVRC2012-val-00044906.png,bottle-0296-ILSVRC2012-val-00044906.png,0.0,-1.6825845,0.48483646,-1.532598
alexnet_w3_mlp_simclrhn_probe2,1,296,NaN,oven,bottle,0,0296_sty_dnn_0_bottle_00_bottle-0325-ILSVRC2012-val-00027316.png,bottle-0325-ILSVRC2012-val-00027316.png,0.0,-1.1139435,0.17534962,-0.9116679
alexnet_w3_mlp_simclrhn_probe2,1,297,NaN,bottle,bottle,0,0297_sty_dnn_0_bottle_00_bottle-0331-ILSVRC2012-val-00033990.png,bottle-0331-ILSVRC2012-val-00033990.png,1.0,1.8892463,0.054848075,1.2971154
alexnet_w3_mlp_simclrhn_probe2,1,298,NaN,oven,bottle,0,0298_sty_dnn_0_bottle_00_bottle-0334-ILSVRC2012-val-00036776.png,bottle-0334-ILSVRC2012-val-00036776.png,0.0,-0.6667428,0.6628361,-0.94015425
alexnet_w3_mlp_simclrhn_probe2,1,299,NaN,bottle,bottle,0,0299_sty_dnn_0_bottle_00_bottle-0345-ILSVRC2012-val-00044614.png,bottle-0345-ILSVRC2012-val-00044614.png,1.0,2.057367,-0.101652265,1.5266573
alexnet_w3_mlp_simclrhn_probe2,1,300,NaN,oven,bottle,0,0300_sty_dnn_0_bottle_00_bottle-0347-ILSVRC2012-val-00048539.png,bottle-0347-ILSVRC2012-val-00048539.png,0.0,-0.4791005,0.7388356,-0.8612108
alexnet_w3_mlp_simclrhn_probe2,1,301,NaN,oven,car,0,0301_sty_dnn_0_car_00_car-0001-ILSVRC2012-val-00000175.png,car-0001-ILSVRC2012-val-00000175.png,0.0,-3.219245,-0.5252302,-1.9049561
alexnet_w3_mlp_simclrhn_probe2,1,302,NaN,truck,car,0,0302_sty_dnn_0_car_00_car-0004-ILSVRC2012-val-00006084.png,car-0004-ILSVRC2012-val-00006084.png,0.0,1.2106049,1.3694308,-0.112306856
alexnet_w3_mlp_simclrhn_probe2,1,303,NaN,car,car,0,0303_sty_dnn_0_car_00_car-0005-ILSVRC2012-val-00006220.png,car-0005-ILSVRC2012-val-00006220.png,1.0,0.7400647,0.16470397,0.40684146
alexnet_w3_mlp_simclrhn_probe2,1,304,NaN,oven,car,0,0304_sty_dnn_0_car_00_car-0010-ILSVRC2012-val-00012600.png,car-0010-ILSVRC2012-val-00012600.png,0.0,-1.6364126,1.4243829,-2.1643093
alexnet_w3_mlp_simclrhn_probe2,1,305,NaN,oven,car,0,0305_sty_dnn_0_car_00_car-0012-ILSVRC2012-val-00014447.png,car-0012-ILSVRC2012-val-00014447.png,0.0,-5.511688,0.9830979,-4.5925074
alexnet_w3_mlp_simclrhn_probe2,1,306,NaN,oven,car,0,0306_sty_dnn_0_car_00_car-0013-ILSVRC2012-val-00014541.png,car-0013-ILSVRC2012-val-00014541.png,0.0,-2.1125543,0.6875733,-1.9799892
alexnet_w3_mlp_simclrhn_probe2,1,307,NaN,car,car,0,0307_sty_dnn_0_car_00_car-0018-ILSVRC2012-val-00018138.png,car-0018-ILSVRC2012-val-00018138.png,1.0,0.08211762,-0.8870089,0.685276
alexnet_w3_mlp_simclrhn_probe2,1,308,NaN,bicycle,car,0,0308_sty_dnn_0_car_00_car-0019-ILSVRC2012-val-00018335.png,car-0019-ILSVRC2012-val-00018335.png,0.0,-2.5963063,0.67382365,-2.3123312
alexnet_w3_mlp_simclrhn_probe2,1,309,NaN,oven,car,0,0309_sty_dnn_0_car_00_car-0021-ILSVRC2012-val-00019695.png,car-0021-ILSVRC2012-val-00019695.png,0.0,-2.3118901,0.34180167,-1.8764435
alexnet_w3_mlp_simclrhn_probe2,1,310,NaN,oven,car,0,0310_sty_dnn_0_car_00_car-0024-ILSVRC2012-val-00023221.png,car-0024-ILSVRC2012-val-00023221.png,0.0,-2.7970314,0.53471243,-2.3558986
alexnet_w3_mlp_simclrhn_probe2,1,311,NaN,car,car,0,0311_sty_dnn_0_car_00_car-0025-ILSVRC2012-val-00023474.png,car-0025-ILSVRC2012-val-00023474.png,1.0,7.657577,6.985634,0.4751356
alexnet_w3_mlp_simclrhn_probe2,1,312,NaN,oven,car,0,0312_sty_dnn_0_car_00_car-0028-ILSVRC2012-val-00027049.png,car-0028-ILSVRC2012-val-00027049.png,0.0,-3.4365337,0.17006952,-2.5502536
alexnet_w3_mlp_simclrhn_probe2,1,313,NaN,oven,car,0,0313_sty_dnn_0_car_00_car-0029-ILSVRC2012-val-00027081.png,car-0029-ILSVRC2012-val-00027081.png,0.0,-0.013506383,0.9113358,-0.65396225
alexnet_w3_mlp_simclrhn_probe2,1,314,NaN,oven,car,0,0314_sty_dnn_0_car_00_car-0030-ILSVRC2012-val-00029057.png,car-0030-ILSVRC2012-val-00029057.png,0.0,-0.50463134,-0.1416626,-0.25665766
alexnet_w3_mlp_simclrhn_probe2,1,315,NaN,oven,car,0,0315_sty_dnn_0_car_00_car-0032-ILSVRC2012-val-00030834.png,car-0032-ILSVRC2012-val-00030834.png,0.0,-0.5945203,0.30561695,-0.63649315
alexnet_w3_mlp_simclrhn_probe2,1,316,NaN,bicycle,car,0,0316_sty_dnn_0_car_00_car-0041-ILSVRC2012-val-00040706.png,car-0041-ILSVRC2012-val-00040706.png,0.0,-3.0110352,0.8444555,-2.7262437
alexnet_w3_mlp_simclrhn_probe2,1,317,NaN,bicycle,car,0,0317_sty_dnn_0_car_00_car-0045-ILSVRC2012-val-00042416.png,car-0045-ILSVRC2012-val-00042416.png,0.0,-1.4772092,1.8303221,-2.3387778
alexnet_w3_mlp_simclrhn_probe2,1,318,NaN,knife,car,0,0318_sty_dnn_0_car_00_car-0050-ILSVRC2012-val-00048556.png,car-0050-ILSVRC2012-val-00048556.png,0.0,-6.3075294,-1.0933466,-3.686984
alexnet_w3_mlp_simclrhn_probe2,1,319,NaN,chair,car,0,0319_sty_dnn_0_car_00_car-0052-ILSVRC2012-val-00004387.png,car-0052-ILSVRC2012-val-00004387.png,0.0,-1.7963772,-0.26855317,-1.0803348
alexnet_w3_mlp_simclrhn_probe2,1,320,NaN,oven,car,0,0320_sty_dnn_0_car_00_car-0053-ILSVRC2012-val-00004685.png,car-0053-ILSVRC2012-val-00004685.png,0.0,-3.4306335,0.34091622,-2.6668885
alexnet_w3_mlp_simclrhn_probe2,1,321,NaN,oven,car,0,0321_sty_dnn_0_car_00_car-0054-ILSVRC2012-val-00005500.png,car-0054-ILSVRC2012-val-00005500.png,0.0,-1.8208513,0.6463094,-1.744546
alexnet_w3_mlp_simclrhn_probe2,1,322,NaN,oven,car,0,0322_sty_dnn_0_car_00_car-0058-ILSVRC2012-val-00010676.png,car-0058-ILSVRC2012-val-00010676.png,0.0,-4.078795,-0.8957879,-2.250726
alexnet_w3_mlp_simclrhn_probe2,1,323,NaN,oven,car,0,0323_sty_dnn_0_car_00_car-0059-ILSVRC2012-val-00014010.png,car-0059-ILSVRC2012-val-00014010.png,0.0,-2.4204726,1.7000372,-2.9136407
alexnet_w3_mlp_simclrhn_probe2,1,324,NaN,oven,car,0,0324_sty_dnn_0_car_00_car-0060-ILSVRC2012-val-00014208.png,car-0060-ILSVRC2012-val-00014208.png,0.0,-3.9258697,1.3359158,-3.7206442
alexnet_w3_mlp_simclrhn_probe2,1,325,NaN,airplane,car,0,0325_sty_dnn_0_car_00_car-0064-ILSVRC2012-val-00016337.png,car-0064-ILSVRC2012-val-00016337.png,0.0,-2.7197876,-0.30588418,-1.7068876
alexnet_w3_mlp_simclrhn_probe2,1,326,NaN,bicycle,car,0,0326_sty_dnn_0_car_00_car-0065-ILSVRC2012-val-00016613.png,car-0065-ILSVRC2012-val-00016613.png,0.0,0.92053205,1.3912339,-0.33283648
alexnet_w3_mlp_simclrhn_probe2,1,327,NaN,oven,car,0,0327_sty_dnn_0_car_00_car-0066-ILSVRC2012-val-00018249.png,car-0066-ILSVRC2012-val-00018249.png,0.0,-2.3984404,-0.4939481,-1.3466794
alexnet_w3_mlp_simclrhn_probe2,1,328,NaN,oven,car,0,0328_sty_dnn_0_car_00_car-0067-ILSVRC2012-val-00018569.png,car-0067-ILSVRC2012-val-00018569.png,0.0,-0.9737725,-0.0073462725,-0.6833666
alexnet_w3_mlp_simclrhn_probe2,1,329,NaN,car,car,0,0329_sty_dnn_0_car_00_car-0069-ILSVRC2012-val-00019647.png,car-0069-ILSVRC2012-val-00019647.png,1.0,2.8838406,2.6013885,0.19972381
alexnet_w3_mlp_simclrhn_probe2,1,330,NaN,elephant,car,0,0330_sty_dnn_0_car_00_car-0079-ILSVRC2012-val-00025028.png,car-0079-ILSVRC2012-val-00025028.png,0.0,-0.51963174,0.54806906,-0.75497854
alexnet_w3_mlp_simclrhn_probe2,1,331,NaN,oven,car,0,0331_sty_dnn_0_car_00_car-0082-ILSVRC2012-val-00027293.png,car-0082-ILSVRC2012-val-00027293.png,0.0,-3.6145706,0.5015914,-2.910566
alexnet_w3_mlp_simclrhn_probe2,1,332,NaN,bear,car,0,0332_sty_dnn_0_car_00_car-0083-ILSVRC2012-val-00027508.png,car-0083-ILSVRC2012-val-00027508.png,0.0,-4.6244855,-0.116862595,-3.1873705
alexnet_w3_mlp_simclrhn_probe2,1,333,NaN,bicycle,car,0,0333_sty_dnn_0_car_00_car-0086-ILSVRC2012-val-00029454.png,car-0086-ILSVRC2012-val-00029454.png,0.0,-2.163356,-0.53276193,-1.1530042
alexnet_w3_mlp_simclrhn_probe2,1,334,NaN,oven,car,0,0334_sty_dnn_0_car_00_car-0087-ILSVRC2012-val-00031558.png,car-0087-ILSVRC2012-val-00031558.png,0.0,-1.5072788,0.98890924,-1.7650716
alexnet_w3_mlp_simclrhn_probe2,1,335,NaN,oven,car,0,0335_sty_dnn_0_car_00_car-0091-ILSVRC2012-val-00036091.png,car-0091-ILSVRC2012-val-00036091.png,0.0,-1.6539259,-0.19331735,-1.0328062
alexnet_w3_mlp_simclrhn_probe2,1,336,NaN,car,car,0,0336_sty_dnn_0_car_00_car-0093-ILSVRC2012-val-00038956.png,car-0093-ILSVRC2012-val-00038956.png,1.0,0.09732605,-0.6257389,0.5112842
alexnet_w3_mlp_simclrhn_probe2,1,337,NaN,oven,car,0,0337_sty_dnn_0_car_00_car-0095-ILSVRC2012-val-00041430.png,car-0095-ILSVRC2012-val-00041430.png,0.0,-2.4233706,0.64791375,-2.171726
alexnet_w3_mlp_simclrhn_probe2,1,338,NaN,oven,car,0,0338_sty_dnn_0_car_00_car-0096-ILSVRC2012-val-00043824.png,car-0096-ILSVRC2012-val-00043824.png,0.0,-5.2913632,0.32301706,-3.9699664
alexnet_w3_mlp_simclrhn_probe2,1,339,NaN,oven,car,0,0339_sty_dnn_0_car_00_car-0103-ILSVRC2012-val-00003478.png,car-0103-ILSVRC2012-val-00003478.png,0.0,-2.1520083,-0.8242403,-0.93887377
alexnet_w3_mlp_simclrhn_probe2,1,340,NaN,elephant,car,0,0340_sty_dnn_0_car_00_car-0106-ILSVRC2012-val-00004868.png,car-0106-ILSVRC2012-val-00004868.png,0.0,-1.9805199,-0.2161859,-1.2475725
alexnet_w3_mlp_simclrhn_probe2,1,341,NaN,oven,car,0,0341_sty_dnn_0_car_00_car-0110-ILSVRC2012-val-00006285.png,car-0110-ILSVRC2012-val-00006285.png,0.0,0.5567722,0.91857505,-0.25583327
alexnet_w3_mlp_simclrhn_probe2,1,342,NaN,clock,car,0,0342_sty_dnn_0_car_00_car-0111-ILSVRC2012-val-00007125.png,car-0111-ILSVRC2012-val-00007125.png,0.0,-10.083158,-5.7416587,-3.0699034
alexnet_w3_mlp_simclrhn_probe2,1,343,NaN,bicycle,car,0,0343_sty_dnn_0_car_00_car-0117-ILSVRC2012-val-00010983.png,car-0117-ILSVRC2012-val-00010983.png,0.0,-1.9304601,2.275277,-2.9739053
alexnet_w3_mlp_simclrhn_probe2,1,344,NaN,oven,car,0,0344_sty_dnn_0_car_00_car-0118-ILSVRC2012-val-00012327.png,car-0118-ILSVRC2012-val-00012327.png,0.0,-2.6698294,-0.26350293,-1.7015299
alexnet_w3_mlp_simclrhn_probe2,1,345,NaN,clock,car,0,0345_sty_dnn_0_car_00_car-0121-ILSVRC2012-val-00016638.png,car-0121-ILSVRC2012-val-00016638.png,0.0,-2.3180673,-0.39919505,-1.3568476
alexnet_w3_mlp_simclrhn_probe2,1,346,NaN,car,car,0,0346_sty_dnn_0_car_00_car-0134-ILSVRC2012-val-00032944.png,car-0134-ILSVRC2012-val-00032944.png,1.0,2.0807784,0.6795492,0.9908186
alexnet_w3_mlp_simclrhn_probe2,1,347,NaN,oven,car,0,0347_sty_dnn_0_car_00_car-0139-ILSVRC2012-val-00037952.png,car-0139-ILSVRC2012-val-00037952.png,0.0,-4.871601,-0.1531165,-3.3364723
alexnet_w3_mlp_simclrhn_probe2,1,348,NaN,oven,car,0,0348_sty_dnn_0_car_00_car-0145-ILSVRC2012-val-00041626.png,car-0145-ILSVRC2012-val-00041626.png,0.0,-3.4015687,1.3645566,-3.3701596
alexnet_w3_mlp_simclrhn_probe2,1,349,NaN,bicycle,car,0,0349_sty_dnn_0_car_00_car-0146-ILSVRC2012-val-00043297.png,car-0146-ILSVRC2012-val-00043297.png,0.0,-2.4158604,0.47668323,-2.0453372
alexnet_w3_mlp_simclrhn_probe2,1,350,NaN,oven,car,0,0350_sty_dnn_0_car_00_car-0149-ILSVRC2012-val-00049427.png,car-0149-ILSVRC2012-val-00049427.png,0.0,-4.588569,0.25722545,-3.4264944
alexnet_w3_mlp_simclrhn_probe2,1,351,NaN,cat,cat,0,0351_sty_dnn_0_cat_00_cat-0005-ILSVRC2012-val-00005358.png,cat-0005-ILSVRC2012-val-00005358.png,1.0,2.2675638,-0.78330076,2.1572871
alexnet_w3_mlp_simclrhn_probe2,1,352,NaN,oven,cat,0,0352_sty_dnn_0_cat_00_cat-0012-ILSVRC2012-val-00012377.png,cat-0012-ILSVRC2012-val-00012377.png,0.0,-0.95619315,-0.6313662,-0.22968735
alexnet_w3_mlp_simclrhn_probe2,1,353,NaN,bear,cat,0,0353_sty_dnn_0_cat_00_cat-0031-ILSVRC2012-val-00030706.png,cat-0031-ILSVRC2012-val-00030706.png,0.0,-0.81847924,-0.007853925,-0.5731987
alexnet_w3_mlp_simclrhn_probe2,1,354,NaN,cat,cat,0,0354_sty_dnn_0_cat_00_cat-0032-ILSVRC2012-val-00033420.png,cat-0032-ILSVRC2012-val-00033420.png,1.0,3.8255703,-0.8960273,3.3386738
alexnet_w3_mlp_simclrhn_probe2,1,355,NaN,cat,cat,0,0355_sty_dnn_0_cat_00_cat-0034-ILSVRC2012-val-00033837.png,cat-0034-ILSVRC2012-val-00033837.png,1.0,-0.099199355,-1.5248379,1.0080786
alexnet_w3_mlp_simclrhn_probe2,1,356,NaN,oven,cat,0,0356_sty_dnn_0_cat_00_cat-0042-ILSVRC2012-val-00040238.png,cat-0042-ILSVRC2012-val-00040238.png,0.0,-1.70722,-0.80950624,-0.63477945
alexnet_w3_mlp_simclrhn_probe2,1,357,NaN,cat,cat,0,0357_sty_dnn_0_cat_00_cat-0045-ILSVRC2012-val-00041570.png,cat-0045-ILSVRC2012-val-00041570.png,1.0,0.28299055,-1.0982693,0.9766983
alexnet_w3_mlp_simclrhn_probe2,1,358,NaN,bear,cat,0,0358_sty_dnn_0_cat_00_cat-0050-ILSVRC2012-val-00047911.png,cat-0050-ILSVRC2012-val-00047911.png,0.0,-1.540368,-1.2874172,-0.17886323
alexnet_w3_mlp_simclrhn_probe2,1,359,NaN,knife,cat,0,0359_sty_dnn_0_cat_00_cat-0054-ILSVRC2012-val-00003295.png,cat-0054-ILSVRC2012-val-00003295.png,0.0,-2.290902,-1.1640266,-0.7968212
alexnet_w3_mlp_simclrhn_probe2,1,360,NaN,elephant,cat,0,0360_sty_dnn_0_cat_00_cat-0056-ILSVRC2012-val-00007676.png,cat-0056-ILSVRC2012-val-00007676.png,0.0,-0.5730378,0.08110204,-0.46254674
alexnet_w3_mlp_simclrhn_probe2,1,361,NaN,oven,cat,0,0361_sty_dnn_0_cat_00_cat-0062-ILSVRC2012-val-00013788.png,cat-0062-ILSVRC2012-val-00013788.png,0.0,-0.90431374,0.19900618,-0.78016496
alexnet_w3_mlp_simclrhn_probe2,1,362,NaN,chair,cat,0,0362_sty_dnn_0_cat_00_cat-0064-ILSVRC2012-val-00014860.png,cat-0064-ILSVRC2012-val-00014860.png,0.0,-2.762662,0.48219186,-2.2944582
alexnet_w3_mlp_simclrhn_probe2,1,363,NaN,bottle,cat,0,0363_sty_dnn_0_cat_00_cat-0069-ILSVRC2012-val-00016399.png,cat-0069-ILSVRC2012-val-00016399.png,0.0,-2.5148547,-1.5430619,-0.6871613
alexnet_w3_mlp_simclrhn_probe2,1,364,NaN,cat,cat,0,0364_sty_dnn_0_cat_00_cat-0072-ILSVRC2012-val-00019303.png,cat-0072-ILSVRC2012-val-00019303.png,1.0,-0.3798792,-0.6906527,0.21975006
alexnet_w3_mlp_simclrhn_probe2,1,365,NaN,cat,cat,0,0365_sty_dnn_0_cat_00_cat-0073-ILSVRC2012-val-00020140.png,cat-0073-ILSVRC2012-val-00020140.png,1.0,-0.55025685,-0.79895663,0.1758573
alexnet_w3_mlp_simclrhn_probe2,1,366,NaN,bicycle,cat,0,0366_sty_dnn_0_cat_00_cat-0082-ILSVRC2012-val-00025723.png,cat-0082-ILSVRC2012-val-00025723.png,0.0,-2.0299823,0.013904899,-1.4452465
alexnet_w3_mlp_simclrhn_probe2,1,367,NaN,cat,cat,0,0367_sty_dnn_0_cat_00_cat-0092-ILSVRC2012-val-00039621.png,cat-0092-ILSVRC2012-val-00039621.png,1.0,0.74068254,-1.2560965,1.4119359
alexnet_w3_mlp_simclrhn_probe2,1,368,NaN,cat,cat,0,0368_sty_dnn_0_cat_00_cat-0096-ILSVRC2012-val-00045420.png,cat-0096-ILSVRC2012-val-00045420.png,1.0,-0.11586505,-0.45096612,0.23695225
alexnet_w3_mlp_simclrhn_probe2,1,369,NaN,keyboard,cat,0,0369_sty_dnn_0_cat_00_cat-0108-ILSVRC2012-val-00002967.png,cat-0108-ILSVRC2012-val-00002967.png,0.0,-2.6756718,-0.36396617,-1.6346227
alexnet_w3_mlp_simclrhn_probe2,1,370,NaN,oven,cat,0,0370_sty_dnn_0_cat_00_cat-0110-ILSVRC2012-val-00004411.png,cat-0110-ILSVRC2012-val-00004411.png,0.0,-0.47253346,-0.311548,-0.11383392
alexnet_w3_mlp_simclrhn_probe2,1,371,NaN,oven,cat,0,0371_sty_dnn_0_cat_00_cat-0113-ILSVRC2012-val-00007808.png,cat-0113-ILSVRC2012-val-00007808.png,0.0,-1.9496651,0.8255342,-1.9623624
alexnet_w3_mlp_simclrhn_probe2,1,372,NaN,cat,cat,0,0372_sty_dnn_0_cat_00_cat-0118-ILSVRC2012-val-00010218.png,cat-0118-ILSVRC2012-val-00010218.png,1.0,2.793536,-1.8315148,3.2704046
alexnet_w3_mlp_simclrhn_probe2,1,373,NaN,bear,cat,0,0373_sty_dnn_0_cat_00_cat-0123-ILSVRC2012-val-00014813.png,cat-0123-ILSVRC2012-val-00014813.png,0.0,-0.51728994,0.08626491,-0.42677772
alexnet_w3_mlp_simclrhn_probe2,1,374,NaN,knife,cat,0,0374_sty_dnn_0_cat_00_cat-0133-ILSVRC2012-val-00023898.png,cat-0133-ILSVRC2012-val-00023898.png,0.0,-2.0400164,-1.7431865,-0.20989047
alexnet_w3_mlp_simclrhn_probe2,1,375,NaN,oven,cat,0,0375_sty_dnn_0_cat_00_cat-0137-ILSVRC2012-val-00027906.png,cat-0137-ILSVRC2012-val-00027906.png,0.0,-0.47934756,-0.021333478,-0.32386485
alexnet_w3_mlp_simclrhn_probe2,1,376,NaN,cat,cat,0,0376_sty_dnn_0_cat_00_cat-0147-ILSVRC2012-val-00041347.png,cat-0147-ILSVRC2012-val-00041347.png,1.0,2.7574434,-2.5792866,3.773638
alexnet_w3_mlp_simclrhn_probe2,1,377,NaN,chair,cat,0,0377_sty_dnn_0_cat_00_cat-0150-ILSVRC2012-val-00049996.png,cat-0150-ILSVRC2012-val-00049996.png,0.0,-2.7514906,-0.9294293,-1.288392
alexnet_w3_mlp_simclrhn_probe2,1,378,NaN,bear,cat,0,0378_sty_dnn_0_cat_00_cat-0160-ILSVRC2012-val-00011528.png,cat-0160-ILSVRC2012-val-00011528.png,0.0,-0.17567112,1.2304534,-0.99428016
alexnet_w3_mlp_simclrhn_probe2,1,379,NaN,oven,cat,0,0379_sty_dnn_0_cat_00_cat-0162-ILSVRC2012-val-00012173.png,cat-0162-ILSVRC2012-val-00012173.png,0.0,-2.779456,0.14312223,-2.0665748
alexnet_w3_mlp_simclrhn_probe2,1,380,NaN,knife,cat,0,0380_sty_dnn_0_cat_00_cat-0165-ILSVRC2012-val-00017325.png,cat-0165-ILSVRC2012-val-00017325.png,0.0,-2.5837815,-0.15619624,-1.7165619
alexnet_w3_mlp_simclrhn_probe2,1,381,NaN,bottle,cat,0,0381_sty_dnn_0_cat_00_cat-0169-ILSVRC2012-val-00020688.png,cat-0169-ILSVRC2012-val-00020688.png,0.0,-2.943847,-0.5273601,-1.7087142
alexnet_w3_mlp_simclrhn_probe2,1,382,NaN,knife,cat,0,0382_sty_dnn_0_cat_00_cat-0185-ILSVRC2012-val-00038168.png,cat-0185-ILSVRC2012-val-00038168.png,0.0,-3.8756573,-1.5206035,-1.6652746
alexnet_w3_mlp_simclrhn_probe2,1,383,NaN,oven,cat,0,0383_sty_dnn_0_cat_00_cat-0186-ILSVRC2012-val-00039580.png,cat-0186-ILSVRC2012-val-00039580.png,0.0,-0.14571315,-0.070134684,-0.053442046
alexnet_w3_mlp_simclrhn_probe2,1,384,NaN,chair,cat,0,0384_sty_dnn_0_cat_00_cat-0189-ILSVRC2012-val-00040854.png,cat-0189-ILSVRC2012-val-00040854.png,0.0,-4.2203,2.5470839,-4.785263
alexnet_w3_mlp_simclrhn_probe2,1,385,NaN,bear,cat,0,0385_sty_dnn_0_cat_00_cat-0202-ILSVRC2012-val-00001496.png,cat-0202-ILSVRC2012-val-00001496.png,0.0,-0.08966923,1.1197274,-0.8551726
alexnet_w3_mlp_simclrhn_probe2,1,386,NaN,oven,cat,0,0386_sty_dnn_0_cat_00_cat-0234-ILSVRC2012-val-00028970.png,cat-0234-ILSVRC2012-val-00028970.png,0.0,-2.4465702,-0.19502619,-1.592082
alexnet_w3_mlp_simclrhn_probe2,1,387,NaN,elephant,cat,0,0387_sty_dnn_0_cat_00_cat-0236-ILSVRC2012-val-00031185.png,cat-0236-ILSVRC2012-val-00031185.png,0.0,-2.6191072,-0.86072713,-1.2433625
alexnet_w3_mlp_simclrhn_probe2,1,388,NaN,clock,cat,0,0388_sty_dnn_0_cat_00_cat-0238-ILSVRC2012-val-00033582.png,cat-0238-ILSVRC2012-val-00033582.png,0.0,-4.5527205,0.5067904,-3.5776148
alexnet_w3_mlp_simclrhn_probe2,1,389,NaN,cat,cat,0,0389_sty_dnn_0_cat_00_cat-0242-ILSVRC2012-val-00040192.png,cat-0242-ILSVRC2012-val-00040192.png,1.0,0.12510757,-1.1264244,0.88496673
alexnet_w3_mlp_simclrhn_probe2,1,390,NaN,bear,cat,0,0390_sty_dnn_0_cat_00_cat-0243-ILSVRC2012-val-00040600.png,cat-0243-ILSVRC2012-val-00040600.png,0.0,-0.5433327,0.6371239,-0.8347089
alexnet_w3_mlp_simclrhn_probe2,1,391,NaN,cat,cat,0,0391_sty_dnn_0_cat_00_cat-0247-ILSVRC2012-val-00044374.png,cat-0247-ILSVRC2012-val-00044374.png,1.0,0.7116666,-0.39594334,0.78319854
alexnet_w3_mlp_simclrhn_probe2,1,392,NaN,oven,cat,0,0392_sty_dnn_0_cat_00_cat-0258-ILSVRC2012-val-00006112.png,cat-0258-ILSVRC2012-val-00006112.png,0.0,-1.287959,1.5141177,-1.9813676
alexnet_w3_mlp_simclrhn_probe2,1,393,NaN,knife,cat,0,0393_sty_dnn_0_cat_00_cat-0260-ILSVRC2012-val-00006612.png,cat-0260-ILSVRC2012-val-00006612.png,0.0,-4.0949216,-1.0959673,-2.120581
alexnet_w3_mlp_simclrhn_probe2,1,394,NaN,cat,cat,0,0394_sty_dnn_0_cat_00_cat-0264-ILSVRC2012-val-00010823.png,cat-0264-ILSVRC2012-val-00010823.png,1.0,0.12928754,-0.19828692,0.23163013
alexnet_w3_mlp_simclrhn_probe2,1,395,NaN,oven,cat,0,0395_sty_dnn_0_cat_00_cat-0270-ILSVRC2012-val-00017189.png,cat-0270-ILSVRC2012-val-00017189.png,0.0,-0.35507548,0.35593206,-0.50275826
alexnet_w3_mlp_simclrhn_probe2,1,396,NaN,oven,cat,0,0396_sty_dnn_0_cat_00_cat-0274-ILSVRC2012-val-00019370.png,cat-0274-ILSVRC2012-val-00019370.png,0.0,-1.8657237,0.39251912,-1.5968188
alexnet_w3_mlp_simclrhn_probe2,1,397,NaN,oven,cat,0,0397_sty_dnn_0_cat_00_cat-0284-ILSVRC2012-val-00027069.png,cat-0284-ILSVRC2012-val-00027069.png,0.0,-3.500987,-1.3626359,-1.5120426
alexnet_w3_mlp_simclrhn_probe2,1,398,NaN,oven,cat,0,0398_sty_dnn_0_cat_00_cat-0291-ILSVRC2012-val-00035821.png,cat-0291-ILSVRC2012-val-00035821.png,0.0,-1.8955975,0.7060854,-1.8396677
alexnet_w3_mlp_simclrhn_probe2,1,399,NaN,knife,cat,0,0399_sty_dnn_0_cat_00_cat-0294-ILSVRC2012-val-00037633.png,cat-0294-ILSVRC2012-val-00037633.png,0.0,-1.9859902,0.046685718,-1.437319
alexnet_w3_mlp_simclrhn_probe2,1,400,NaN,oven,cat,0,0400_sty_dnn_0_cat_00_cat-0298-ILSVRC2012-val-00042529.png,cat-0298-ILSVRC2012-val-00042529.png,0.0,-1.6420369,-0.54197127,-0.7778639
alexnet_w3_mlp_simclrhn_probe2,1,401,NaN,oven,chair,0,0401_sty_dnn_0_chair_00_chair-0006-ILSVRC2012-val-00004679.png,chair-0006-ILSVRC2012-val-00004679.png,0.0,-2.2092826,-0.32146645,-1.3348876
alexnet_w3_mlp_simclrhn_probe2,1,402,NaN,chair,chair,0,0402_sty_dnn_0_chair_00_chair-0018-ILSVRC2012-val-00013838.png,chair-0018-ILSVRC2012-val-00013838.png,1.0,0.87818235,-0.26736426,0.81002384
alexnet_w3_mlp_simclrhn_probe2,1,403,NaN,chair,chair,0,0403_sty_dnn_0_chair_00_chair-0022-ILSVRC2012-val-00016403.png,chair-0022-ILSVRC2012-val-00016403.png,1.0,1.0760031,0.1938105,0.6238044
alexnet_w3_mlp_simclrhn_probe2,1,404,NaN,elephant,chair,0,0404_sty_dnn_0_chair_00_chair-0024-ILSVRC2012-val-00021099.png,chair-0024-ILSVRC2012-val-00021099.png,0.0,-2.612776,0.8474914,-2.4467788
alexnet_w3_mlp_simclrhn_probe2,1,405,NaN,oven,chair,0,0405_sty_dnn_0_chair_00_chair-0030-ILSVRC2012-val-00026896.png,chair-0030-ILSVRC2012-val-00026896.png,0.0,-0.5220913,1.3370445,-1.3146076
alexnet_w3_mlp_simclrhn_probe2,1,406,NaN,bottle,chair,0,0406_sty_dnn_0_chair_00_chair-0033-ILSVRC2012-val-00031805.png,chair-0033-ILSVRC2012-val-00031805.png,0.0,-0.96810776,0.5487458,-1.0725775
alexnet_w3_mlp_simclrhn_probe2,1,407,NaN,elephant,chair,0,0407_sty_dnn_0_chair_00_chair-0039-ILSVRC2012-val-00041772.png,chair-0039-ILSVRC2012-val-00041772.png,0.0,-1.8424058,0.23413888,-1.468339
alexnet_w3_mlp_simclrhn_probe2,1,408,NaN,oven,chair,0,0408_sty_dnn_0_chair_00_chair-0040-ILSVRC2012-val-00042512.png,chair-0040-ILSVRC2012-val-00042512.png,0.0,-2.4346483,-0.08614946,-1.6606395
alexnet_w3_mlp_simclrhn_probe2,1,409,NaN,knife,chair,0,0409_sty_dnn_0_chair_00_chair-0045-ILSVRC2012-val-00044898.png,chair-0045-ILSVRC2012-val-00044898.png,0.0,-0.46622235,0.17448571,-0.45304903
alexnet_w3_mlp_simclrhn_probe2,1,410,NaN,clock,chair,0,0410_sty_dnn_0_chair_00_chair-0047-ILSVRC2012-val-00045407.png,chair-0047-ILSVRC2012-val-00045407.png,0.0,-0.8708359,-0.19567013,-0.4774143
alexnet_w3_mlp_simclrhn_probe2,1,411,NaN,oven,chair,0,0411_sty_dnn_0_chair_00_chair-0050-ILSVRC2012-val-00049050.png,chair-0050-ILSVRC2012-val-00049050.png,0.0,-2.6271129,0.050854348,-1.8936089
alexnet_w3_mlp_simclrhn_probe2,1,412,NaN,oven,chair,0,0412_sty_dnn_0_chair_00_chair-0051-ILSVRC2012-val-00001616.png,chair-0051-ILSVRC2012-val-00001616.png,0.0,-1.4724,0.16023517,-1.1544474
alexnet_w3_mlp_simclrhn_probe2,1,413,NaN,bicycle,chair,0,0413_sty_dnn_0_chair_00_chair-0053-ILSVRC2012-val-00001855.png,chair-0053-ILSVRC2012-val-00001855.png,0.0,-1.6983819,0.81529623,-1.7774389
alexnet_w3_mlp_simclrhn_probe2,1,414,NaN,oven,chair,0,0414_sty_dnn_0_chair_00_chair-0058-ILSVRC2012-val-00005926.png,chair-0058-ILSVRC2012-val-00005926.png,0.0,-2.0910819,-1.2637097,-0.5850405
alexnet_w3_mlp_simclrhn_probe2,1,415,NaN,oven,chair,0,0415_sty_dnn_0_chair_00_chair-0059-ILSVRC2012-val-00006022.png,chair-0059-ILSVRC2012-val-00006022.png,0.0,-0.656383,-0.13978472,-0.3652901
alexnet_w3_mlp_simclrhn_probe2,1,416,NaN,elephant,chair,0,0416_sty_dnn_0_chair_00_chair-0072-ILSVRC2012-val-00015559.png,chair-0072-ILSVRC2012-val-00015559.png,0.0,-2.9199178,-0.23809296,-1.8963367
alexnet_w3_mlp_simclrhn_probe2,1,417,NaN,boat,chair,0,0417_sty_dnn_0_chair_00_chair-0081-ILSVRC2012-val-00033069.png,chair-0081-ILSVRC2012-val-00033069.png,0.0,-0.22482975,0.5509488,-0.5485583
alexnet_w3_mlp_simclrhn_probe2,1,418,NaN,bicycle,chair,0,0418_sty_dnn_0_chair_00_chair-0085-ILSVRC2012-val-00036175.png,chair-0085-ILSVRC2012-val-00036175.png,0.0,0.28152207,1.2409713,-0.6784331
alexnet_w3_mlp_simclrhn_probe2,1,419,NaN,chair,chair,0,0419_sty_dnn_0_chair_00_chair-0087-ILSVRC2012-val-00037905.png,chair-0087-ILSVRC2012-val-00037905.png,1.0,-0.1156116,-0.26698178,0.107034884
alexnet_w3_mlp_simclrhn_probe2,1,420,NaN,oven,chair,0,0420_sty_dnn_0_chair_00_chair-0092-ILSVRC2012-val-00041814.png,chair-0092-ILSVRC2012-val-00041814.png,0.0,-1.9255114,0.2714996,-1.5535214
alexnet_w3_mlp_simclrhn_probe2,1,421,NaN,bicycle,chair,0,0421_sty_dnn_0_chair_00_chair-0097-ILSVRC2012-val-00043453.png,chair-0097-ILSVRC2012-val-00043453.png,0.0,-1.2245296,-0.19915588,-0.7250487
alexnet_w3_mlp_simclrhn_probe2,1,422,NaN,oven,chair,0,0422_sty_dnn_0_chair_00_chair-0098-ILSVRC2012-val-00044181.png,chair-0098-ILSVRC2012-val-00044181.png,0.0,-3.6531227,0.9023031,-3.2211723
alexnet_w3_mlp_simclrhn_probe2,1,423,NaN,chair,chair,0,0423_sty_dnn_0_chair_00_chair-0116-ILSVRC2012-val-00017447.png,chair-0116-ILSVRC2012-val-00017447.png,1.0,1.1888325,-0.2582212,1.0232215
alexnet_w3_mlp_simclrhn_probe2,1,424,NaN,chair,chair,0,0424_sty_dnn_0_chair_00_chair-0118-ILSVRC2012-val-00018123.png,chair-0118-ILSVRC2012-val-00018123.png,1.0,1.6205225,0.6300158,0.70039403
alexnet_w3_mlp_simclrhn_probe2,1,425,NaN,bear,chair,0,0425_sty_dnn_0_chair_00_chair-0119-ILSVRC2012-val-00018206.png,chair-0119-ILSVRC2012-val-00018206.png,0.0,-2.1447837,-0.11402318,-1.4359646
alexnet_w3_mlp_simclrhn_probe2,1,426,NaN,chair,chair,0,0426_sty_dnn_0_chair_00_chair-0122-ILSVRC2012-val-00019867.png,chair-0122-ILSVRC2012-val-00019867.png,1.0,0.35359895,-0.004132971,0.2529547
alexnet_w3_mlp_simclrhn_probe2,1,427,NaN,oven,chair,0,0427_sty_dnn_0_chair_00_chair-0123-ILSVRC2012-val-00020924.png,chair-0123-ILSVRC2012-val-00020924.png,0.0,-3.2657886,0.37102276,-2.571614
alexnet_w3_mlp_simclrhn_probe2,1,428,NaN,oven,chair,0,0428_sty_dnn_0_chair_00_chair-0124-ILSVRC2012-val-00022208.png,chair-0124-ILSVRC2012-val-00022208.png,0.0,-3.983055,0.5248134,-3.1875446
alexnet_w3_mlp_simclrhn_probe2,1,429,NaN,oven,chair,0,0429_sty_dnn_0_chair_00_chair-0127-ILSVRC2012-val-00024620.png,chair-0127-ILSVRC2012-val-00024620.png,0.0,-0.88297534,2.2898288,-2.2435114
alexnet_w3_mlp_simclrhn_probe2,1,430,NaN,oven,chair,0,0430_sty_dnn_0_chair_00_chair-0133-ILSVRC2012-val-00033406.png,chair-0133-ILSVRC2012-val-00033406.png,0.0,-4.122751,-1.2024081,-2.0649946
alexnet_w3_mlp_simclrhn_probe2,1,431,NaN,oven,chair,0,0431_sty_dnn_0_chair_00_chair-0136-ILSVRC2012-val-00037994.png,chair-0136-ILSVRC2012-val-00037994.png,0.0,0.5779383,0.59751713,-0.013844313
alexnet_w3_mlp_simclrhn_probe2,1,432,NaN,oven,chair,0,0432_sty_dnn_0_chair_00_chair-0138-ILSVRC2012-val-00038750.png,chair-0138-ILSVRC2012-val-00038750.png,0.0,-3.9983284,0.49184924,-3.175035
alexnet_w3_mlp_simclrhn_probe2,1,433,NaN,bottle,chair,0,0433_sty_dnn_0_chair_00_chair-0141-ILSVRC2012-val-00040076.png,chair-0141-ILSVRC2012-val-00040076.png,0.0,-1.3995897,-0.20863228,-0.84213406
alexnet_w3_mlp_simclrhn_probe2,1,434,NaN,oven,chair,0,0434_sty_dnn_0_chair_00_chair-0150-ILSVRC2012-val-00048622.png,chair-0150-ILSVRC2012-val-00048622.png,0.0,-3.8649492,-0.8405908,-2.1385446
alexnet_w3_mlp_simclrhn_probe2,1,435,NaN,oven,chair,0,0435_sty_dnn_0_chair_00_chair-0154-ILSVRC2012-val-00004705.png,chair-0154-ILSVRC2012-val-00004705.png,0.0,-1.6797504,-0.87980485,-0.56564695
alexnet_w3_mlp_simclrhn_probe2,1,436,NaN,oven,chair,0,0436_sty_dnn_0_chair_00_chair-0155-ILSVRC2012-val-00005160.png,chair-0155-ILSVRC2012-val-00005160.png,0.0,-2.4556308,0.7616178,-2.2749383
alexnet_w3_mlp_simclrhn_probe2,1,437,NaN,oven,chair,0,0437_sty_dnn_0_chair_00_chair-0159-ILSVRC2012-val-00011028.png,chair-0159-ILSVRC2012-val-00011028.png,0.0,-2.3841515,-0.90918565,-1.0429584
alexnet_w3_mlp_simclrhn_probe2,1,438,NaN,chair,chair,0,0438_sty_dnn_0_chair_00_chair-0160-ILSVRC2012-val-00012040.png,chair-0160-ILSVRC2012-val-00012040.png,1.0,1.3297532,0.04199999,0.910579
alexnet_w3_mlp_simclrhn_probe2,1,439,NaN,chair,chair,0,0439_sty_dnn_0_chair_00_chair-0169-ILSVRC2012-val-00019913.png,chair-0169-ILSVRC2012-val-00019913.png,1.0,1.5082333,-0.3202749,1.2929505
alexnet_w3_mlp_simclrhn_probe2,1,440,NaN,knife,chair,0,0440_sty_dnn_0_chair_00_chair-0170-ILSVRC2012-val-00022051.png,chair-0170-ILSVRC2012-val-00022051.png,0.0,-15.715127,-12.63847,-2.1755252
alexnet_w3_mlp_simclrhn_probe2,1,441,NaN,oven,chair,0,0441_sty_dnn_0_chair_00_chair-0172-ILSVRC2012-val-00023378.png,chair-0172-ILSVRC2012-val-00023378.png,0.0,-2.3919168,-0.8444314,-1.0942374
alexnet_w3_mlp_simclrhn_probe2,1,442,NaN,bicycle,chair,0,0442_sty_dnn_0_chair_00_chair-0181-ILSVRC2012-val-00033160.png,chair-0181-ILSVRC2012-val-00033160.png,0.0,-1.561181,-0.5892786,-0.68723875
alexnet_w3_mlp_simclrhn_probe2,1,443,NaN,bottle,chair,0,0443_sty_dnn_0_chair_00_chair-0183-ILSVRC2012-val-00035142.png,chair-0183-ILSVRC2012-val-00035142.png,0.0,-2.5196493,-0.61403096,-1.3474756
alexnet_w3_mlp_simclrhn_probe2,1,444,NaN,bottle,chair,0,0444_sty_dnn_0_chair_00_chair-0188-ILSVRC2012-val-00041720.png,chair-0188-ILSVRC2012-val-00041720.png,0.0,-3.675321,-0.960877,-1.9194019
alexnet_w3_mlp_simclrhn_probe2,1,445,NaN,elephant,chair,0,0445_sty_dnn_0_chair_00_chair-0189-ILSVRC2012-val-00041883.png,chair-0189-ILSVRC2012-val-00041883.png,0.0,-0.8478963,0.5779313,-1.0082123
alexnet_w3_mlp_simclrhn_probe2,1,446,NaN,oven,chair,0,0446_sty_dnn_0_chair_00_chair-0192-ILSVRC2012-val-00043870.png,chair-0192-ILSVRC2012-val-00043870.png,0.0,-1.9674358,0.66630596,-1.8623368
alexnet_w3_mlp_simclrhn_probe2,1,447,NaN,oven,chair,0,0447_sty_dnn_0_chair_00_chair-0193-ILSVRC2012-val-00044295.png,chair-0193-ILSVRC2012-val-00044295.png,0.0,-0.43663192,-0.24550188,-0.13514934
alexnet_w3_mlp_simclrhn_probe2,1,448,NaN,chair,chair,0,0448_sty_dnn_0_chair_00_chair-0195-ILSVRC2012-val-00045464.png,chair-0195-ILSVRC2012-val-00045464.png,1.0,1.416467,1.4065286,0.007027481
alexnet_w3_mlp_simclrhn_probe2,1,449,NaN,oven,chair,0,0449_sty_dnn_0_chair_00_chair-0196-ILSVRC2012-val-00045844.png,chair-0196-ILSVRC2012-val-00045844.png,0.0,-1.9481277,0.63135433,-1.8239692
alexnet_w3_mlp_simclrhn_probe2,1,450,NaN,oven,chair,0,0450_sty_dnn_0_chair_00_chair-0199-ILSVRC2012-val-00048901.png,chair-0199-ILSVRC2012-val-00048901.png,0.0,-1.3643091,1.1109899,-1.7503006
alexnet_w3_mlp_simclrhn_probe2,1,451,NaN,clock,clock,0,0451_sty_dnn_0_clock_00_clock-0001-ILSVRC2012-val-00001011.png,clock-0001-ILSVRC2012-val-00001011.png,1.0,-1.2046088,-2.0951252,0.6296902
alexnet_w3_mlp_simclrhn_probe2,1,452,NaN,bicycle,clock,0,0452_sty_dnn_0_clock_00_clock-0007-ILSVRC2012-val-00005490.png,clock-0007-ILSVRC2012-val-00005490.png,0.0,-3.6327324,-0.58543766,-2.1547627
alexnet_w3_mlp_simclrhn_probe2,1,453,NaN,clock,clock,0,0453_sty_dnn_0_clock_00_clock-0008-ILSVRC2012-val-00005558.png,clock-0008-ILSVRC2012-val-00005558.png,1.0,1.047137,0.5891567,0.323841
alexnet_w3_mlp_simclrhn_probe2,1,454,NaN,clock,clock,0,0454_sty_dnn_0_clock_00_clock-0010-ILSVRC2012-val-00006858.png,clock-0010-ILSVRC2012-val-00006858.png,1.0,-0.9749717,-1.0041678,0.020644749
alexnet_w3_mlp_simclrhn_probe2,1,455,NaN,clock,clock,0,0455_sty_dnn_0_clock_00_clock-0013-ILSVRC2012-val-00013244.png,clock-0013-ILSVRC2012-val-00013244.png,1.0,0.17065556,-0.32133746,0.3478916
alexnet_w3_mlp_simclrhn_probe2,1,456,NaN,oven,clock,0,0456_sty_dnn_0_clock_00_clock-0018-ILSVRC2012-val-00015871.png,clock-0018-ILSVRC2012-val-00015871.png,0.0,-3.327377,-0.40778852,-2.064461
alexnet_w3_mlp_simclrhn_probe2,1,457,NaN,clock,clock,0,0457_sty_dnn_0_clock_00_clock-0020-ILSVRC2012-val-00016889.png,clock-0020-ILSVRC2012-val-00016889.png,1.0,0.08727682,-0.4415991,0.37397176
alexnet_w3_mlp_simclrhn_probe2,1,458,NaN,clock,clock,0,0458_sty_dnn_0_clock_00_clock-0023-ILSVRC2012-val-00017973.png,clock-0023-ILSVRC2012-val-00017973.png,1.0,2.428262,-0.47316653,2.0516198
alexnet_w3_mlp_simclrhn_probe2,1,459,NaN,clock,clock,0,0459_sty_dnn_0_clock_00_clock-0025-ILSVRC2012-val-00019663.png,clock-0025-ILSVRC2012-val-00019663.png,1.0,-0.22799969,-0.825751,0.42267403
alexnet_w3_mlp_simclrhn_probe2,1,460,NaN,oven,clock,0,0460_sty_dnn_0_clock_00_clock-0028-ILSVRC2012-val-00021179.png,clock-0028-ILSVRC2012-val-00021179.png,0.0,-0.2849947,0.5414939,-0.58441573
alexnet_w3_mlp_simclrhn_probe2,1,461,NaN,oven,clock,0,0461_sty_dnn_0_clock_00_clock-0029-ILSVRC2012-val-00022719.png,clock-0029-ILSVRC2012-val-00022719.png,0.0,-0.19050781,-0.16535549,-0.01778538
alexnet_w3_mlp_simclrhn_probe2,1,462,NaN,oven,clock,0,0462_sty_dnn_0_clock_00_clock-0032-ILSVRC2012-val-00024425.png,clock-0032-ILSVRC2012-val-00024425.png,0.0,-0.6153259,0.055799976,-0.47455767
alexnet_w3_mlp_simclrhn_probe2,1,463,NaN,bottle,clock,0,0463_sty_dnn_0_clock_00_clock-0034-ILSVRC2012-val-00026380.png,clock-0034-ILSVRC2012-val-00026380.png,0.0,-0.7754156,-0.083282515,-0.489412
alexnet_w3_mlp_simclrhn_probe2,1,464,NaN,clock,clock,0,0464_sty_dnn_0_clock_00_clock-0038-ILSVRC2012-val-00032489.png,clock-0038-ILSVRC2012-val-00032489.png,1.0,0.110517554,0.04782881,0.04432764
alexnet_w3_mlp_simclrhn_probe2,1,465,NaN,oven,clock,0,0465_sty_dnn_0_clock_00_clock-0039-ILSVRC2012-val-00033429.png,clock-0039-ILSVRC2012-val-00033429.png,0.0,-1.2590681,0.53620523,-1.26945
alexnet_w3_mlp_simclrhn_probe2,1,466,NaN,clock,clock,0,0466_sty_dnn_0_clock_00_clock-0040-ILSVRC2012-val-00035392.png,clock-0040-ILSVRC2012-val-00035392.png,1.0,4.5118456,-0.81883293,3.7693589
alexnet_w3_mlp_simclrhn_probe2,1,467,NaN,bicycle,clock,0,0467_sty_dnn_0_clock_00_clock-0043-ILSVRC2012-val-00041613.png,clock-0043-ILSVRC2012-val-00041613.png,0.0,0.23336275,0.5697404,-0.23785494
alexnet_w3_mlp_simclrhn_probe2,1,468,NaN,oven,clock,0,0468_sty_dnn_0_clock_00_clock-0045-ILSVRC2012-val-00043497.png,clock-0045-ILSVRC2012-val-00043497.png,0.0,-1.9930187,0.4594077,-1.7341274
alexnet_w3_mlp_simclrhn_probe2,1,469,NaN,oven,clock,0,0469_sty_dnn_0_clock_00_clock-0046-ILSVRC2012-val-00044049.png,clock-0046-ILSVRC2012-val-00044049.png,0.0,-0.52915204,0.9397018,-1.0386366
alexnet_w3_mlp_simclrhn_probe2,1,470,NaN,oven,clock,0,0470_sty_dnn_0_clock_00_clock-0048-ILSVRC2012-val-00044752.png,clock-0048-ILSVRC2012-val-00044752.png,0.0,-0.8035319,0.21224634,-0.7182636
alexnet_w3_mlp_simclrhn_probe2,1,471,NaN,cat,clock,0,0471_sty_dnn_0_clock_00_clock-0052-ILSVRC2012-val-00003721.png,clock-0052-ILSVRC2012-val-00003721.png,0.0,-3.0445802,-1.1416153,-1.3455994
alexnet_w3_mlp_simclrhn_probe2,1,472,NaN,oven,clock,0,0472_sty_dnn_0_clock_00_clock-0054-ILSVRC2012-val-00008751.png,clock-0054-ILSVRC2012-val-00008751.png,0.0,-1.1047343,0.55065393,-1.1705363
alexnet_w3_mlp_simclrhn_probe2,1,473,NaN,clock,clock,0,0473_sty_dnn_0_clock_00_clock-0062-ILSVRC2012-val-00014987.png,clock-0062-ILSVRC2012-val-00014987.png,1.0,1.1887938,0.5789904,0.43119612
alexnet_w3_mlp_simclrhn_probe2,1,474,NaN,chair,clock,0,0474_sty_dnn_0_clock_00_clock-0063-ILSVRC2012-val-00015628.png,clock-0063-ILSVRC2012-val-00015628.png,0.0,-2.1739876,-1.4822943,-0.48910102
alexnet_w3_mlp_simclrhn_probe2,1,475,NaN,clock,clock,0,0475_sty_dnn_0_clock_00_clock-0073-ILSVRC2012-val-00026298.png,clock-0073-ILSVRC2012-val-00026298.png,1.0,-0.3422092,-0.46681976,0.08811298
alexnet_w3_mlp_simclrhn_probe2,1,476,NaN,oven,clock,0,0476_sty_dnn_0_clock_00_clock-0076-ILSVRC2012-val-00028203.png,clock-0076-ILSVRC2012-val-00028203.png,0.0,-3.836834,-0.741441,-2.1887734
alexnet_w3_mlp_simclrhn_probe2,1,477,NaN,bottle,clock,0,0477_sty_dnn_0_clock_00_clock-0080-ILSVRC2012-val-00032946.png,clock-0080-ILSVRC2012-val-00032946.png,0.0,-1.311605,-0.33847663,-0.68810564
alexnet_w3_mlp_simclrhn_probe2,1,478,NaN,chair,clock,0,0478_sty_dnn_0_clock_00_clock-0082-ILSVRC2012-val-00033627.png,clock-0082-ILSVRC2012-val-00033627.png,0.0,-3.3329966,-1.1884305,-1.5164372
alexnet_w3_mlp_simclrhn_probe2,1,479,NaN,bottle,clock,0,0479_sty_dnn_0_clock_00_clock-0084-ILSVRC2012-val-00034426.png,clock-0084-ILSVRC2012-val-00034426.png,0.0,0.20000078,1.9834865,-1.261115
alexnet_w3_mlp_simclrhn_probe2,1,480,NaN,oven,clock,0,0480_sty_dnn_0_clock_00_clock-0086-ILSVRC2012-val-00041483.png,clock-0086-ILSVRC2012-val-00041483.png,0.0,-0.90014124,0.7149835,-1.1420656
alexnet_w3_mlp_simclrhn_probe2,1,481,NaN,oven,clock,0,0481_sty_dnn_0_clock_00_clock-0089-ILSVRC2012-val-00042911.png,clock-0089-ILSVRC2012-val-00042911.png,0.0,-2.2683818,-0.0429776,-1.5735985
alexnet_w3_mlp_simclrhn_probe2,1,482,NaN,bicycle,clock,0,0482_sty_dnn_0_clock_00_clock-0091-ILSVRC2012-val-00044029.png,clock-0091-ILSVRC2012-val-00044029.png,0.0,-3.9118874,-0.8550909,-2.1614816
alexnet_w3_mlp_simclrhn_probe2,1,483,NaN,oven,clock,0,0483_sty_dnn_0_clock_00_clock-0092-ILSVRC2012-val-00044168.png,clock-0092-ILSVRC2012-val-00044168.png,0.0,-3.4650419,0.6922234,-2.9396305
alexnet_w3_mlp_simclrhn_probe2,1,484,NaN,oven,clock,0,0484_sty_dnn_0_clock_00_clock-0098-ILSVRC2012-val-00048682.png,clock-0098-ILSVRC2012-val-00048682.png,0.0,-2.0251467,-0.1932727,-1.2953305
alexnet_w3_mlp_simclrhn_probe2,1,485,NaN,oven,clock,0,0485_sty_dnn_0_clock_00_clock-0100-ILSVRC2012-val-00049759.png,clock-0100-ILSVRC2012-val-00049759.png,0.0,-0.95559853,-0.1808412,-0.5478362
alexnet_w3_mlp_simclrhn_probe2,1,486,NaN,oven,clock,0,0486_sty_dnn_0_clock_00_clock-0106-ILSVRC2012-val-00009413.png,clock-0106-ILSVRC2012-val-00009413.png,0.0,-2.1121376,-0.3723727,-1.2301996
alexnet_w3_mlp_simclrhn_probe2,1,487,NaN,clock,clock,0,0487_sty_dnn_0_clock_00_clock-0107-ILSVRC2012-val-00010270.png,clock-0107-ILSVRC2012-val-00010270.png,1.0,-1.0492597,-1.2630383,0.15116431
alexnet_w3_mlp_simclrhn_probe2,1,488,NaN,oven,clock,0,0488_sty_dnn_0_clock_00_clock-0108-ILSVRC2012-val-00011957.png,clock-0108-ILSVRC2012-val-00011957.png,0.0,-0.53557044,-0.4517912,-0.059240874
alexnet_w3_mlp_simclrhn_probe2,1,489,NaN,bottle,clock,0,0489_sty_dnn_0_clock_00_clock-0110-ILSVRC2012-val-00014035.png,clock-0110-ILSVRC2012-val-00014035.png,0.0,0.29072455,0.46835953,-0.12560691
alexnet_w3_mlp_simclrhn_probe2,1,490,NaN,oven,clock,0,0490_sty_dnn_0_clock_00_clock-0112-ILSVRC2012-val-00014635.png,clock-0112-ILSVRC2012-val-00014635.png,0.0,-4.5053954,0.3901143,-3.4616482
alexnet_w3_mlp_simclrhn_probe2,1,491,NaN,bottle,clock,0,0491_sty_dnn_0_clock_00_clock-0118-ILSVRC2012-val-00018443.png,clock-0118-ILSVRC2012-val-00018443.png,0.0,-0.65249485,-0.5474061,-0.074308984
alexnet_w3_mlp_simclrhn_probe2,1,492,NaN,bottle,clock,0,0492_sty_dnn_0_clock_00_clock-0119-ILSVRC2012-val-00018797.png,clock-0119-ILSVRC2012-val-00018797.png,0.0,-0.200828,0.38148472,-0.41175726
alexnet_w3_mlp_simclrhn_probe2,1,493,NaN,oven,clock,0,0493_sty_dnn_0_clock_00_clock-0127-ILSVRC2012-val-00030330.png,clock-0127-ILSVRC2012-val-00030330.png,0.0,-2.343847,-0.013097227,-1.6480889
alexnet_w3_mlp_simclrhn_probe2,1,494,NaN,clock,clock,0,0494_sty_dnn_0_clock_00_clock-0128-ILSVRC2012-val-00030987.png,clock-0128-ILSVRC2012-val-00030987.png,1.0,0.10227577,-0.3840339,0.34387285
alexnet_w3_mlp_simclrhn_probe2,1,495,NaN,bottle,clock,0,0495_sty_dnn_0_clock_00_clock-0129-ILSVRC2012-val-00031861.png,clock-0129-ILSVRC2012-val-00031861.png,0.0,-4.3060274,-1.8681735,-1.723823
alexnet_w3_mlp_simclrhn_probe2,1,496,NaN,clock,clock,0,0496_sty_dnn_0_clock_00_clock-0130-ILSVRC2012-val-00032136.png,clock-0130-ILSVRC2012-val-00032136.png,1.0,-0.5154121,-1.0914068,0.40728977
alexnet_w3_mlp_simclrhn_probe2,1,497,NaN,clock,clock,0,0497_sty_dnn_0_clock_00_clock-0142-ILSVRC2012-val-00041461.png,clock-0142-ILSVRC2012-val-00041461.png,1.0,-0.45305482,-0.79488623,0.24171132
alexnet_w3_mlp_simclrhn_probe2,1,498,NaN,oven,clock,0,0498_sty_dnn_0_clock_00_clock-0143-ILSVRC2012-val-00041547.png,clock-0143-ILSVRC2012-val-00041547.png,0.0,-1.5391054,-0.14518867,-0.985648
alexnet_w3_mlp_simclrhn_probe2,1,499,NaN,clock,clock,0,0499_sty_dnn_0_clock_00_clock-0144-ILSVRC2012-val-00041715.png,clock-0144-ILSVRC2012-val-00041715.png,1.0,1.7729324,-0.18547402,1.3848025
alexnet_w3_mlp_simclrhn_probe2,1,500,NaN,oven,clock,0,0500_sty_dnn_0_clock_00_clock-0145-ILSVRC2012-val-00044685.png,clock-0145-ILSVRC2012-val-00044685.png,0.0,-3.7130306,0.29367566,-2.8331692
alexnet_w3_mlp_simclrhn_probe2,1,501,NaN,dog,dog,0,0501_sty_dnn_0_dog_00_dog-0099-ILSVRC2012-val-00048280.png,dog-0099-ILSVRC2012-val-00048280.png,1.0,-0.46029335,-2.2449205,1.261922
alexnet_w3_mlp_simclrhn_probe2,1,502,NaN,oven,dog,0,0502_sty_dnn_0_dog_00_dog-0158-ILSVRC2012-val-00004081.png,dog-0158-ILSVRC2012-val-00004081.png,0.0,-2.5160494,0.27185088,-1.9713432
alexnet_w3_mlp_simclrhn_probe2,1,503,NaN,oven,dog,0,0503_sty_dnn_0_dog_00_dog-0220-ILSVRC2012-val-00017568.png,dog-0220-ILSVRC2012-val-00017568.png,0.0,-1.8338279,-0.5209019,-0.9283788
alexnet_w3_mlp_simclrhn_probe2,1,504,NaN,elephant,dog,0,0504_sty_dnn_0_dog_00_dog-0247-ILSVRC2012-val-00045683.png,dog-0247-ILSVRC2012-val-00045683.png,0.0,-1.8499293,-1.0399041,-0.57277435
alexnet_w3_mlp_simclrhn_probe2,1,505,NaN,bear,dog,0,0505_sty_dnn_0_dog_00_dog-0303-ILSVRC2012-val-00002521.png,dog-0303-ILSVRC2012-val-00002521.png,0.0,-0.7762617,0.6397933,-1.0013021
alexnet_w3_mlp_simclrhn_probe2,1,506,NaN,dog,dog,0,0506_sty_dnn_0_dog_00_dog-0386-ILSVRC2012-val-00034616.png,dog-0386-ILSVRC2012-val-00034616.png,1.0,-0.100637935,-0.13563225,0.024744716
alexnet_w3_mlp_simclrhn_probe2,1,507,NaN,knife,dog,0,0507_sty_dnn_0_dog_00_dog-0397-ILSVRC2012-val-00044140.png,dog-0397-ILSVRC2012-val-00044140.png,0.0,-2.0942707,-1.1994593,-0.6327272
alexnet_w3_mlp_simclrhn_probe2,1,508,NaN,bear,dog,0,0508_sty_dnn_0_dog_00_dog-0779-ILSVRC2012-val-00033666.png,dog-0779-ILSVRC2012-val-00033666.png,0.0,-2.1422107,-0.7637271,-0.9747351
alexnet_w3_mlp_simclrhn_probe2,1,509,NaN,dog,dog,0,0509_sty_dnn_0_dog_00_dog-1178-ILSVRC2012-val-00022137.png,dog-1178-ILSVRC2012-val-00022137.png,1.0,-0.57360214,-0.5831536,0.006753906
alexnet_w3_mlp_simclrhn_probe2,1,510,NaN,elephant,dog,0,0510_sty_dnn_0_dog_00_dog-1191-ILSVRC2012-val-00037989.png,dog-1191-ILSVRC2012-val-00037989.png,0.0,-1.7637202,-0.09909463,-1.177068
alexnet_w3_mlp_simclrhn_probe2,1,511,NaN,dog,dog,0,0511_sty_dnn_0_dog_00_dog-1398-ILSVRC2012-val-00046547.png,dog-1398-ILSVRC2012-val-00046547.png,1.0,-1.0892024,-1.1572142,0.04809158
alexnet_w3_mlp_simclrhn_probe2,1,512,NaN,knife,dog,0,0512_sty_dnn_0_dog_00_dog-1538-ILSVRC2012-val-00038167.png,dog-1538-ILSVRC2012-val-00038167.png,0.0,-5.2714434,-0.20484677,-3.582625
alexnet_w3_mlp_simclrhn_probe2,1,513,NaN,oven,dog,0,0513_sty_dnn_0_dog_00_dog-1613-ILSVRC2012-val-00015923.png,dog-1613-ILSVRC2012-val-00015923.png,0.0,-1.6360135,-0.9847668,-0.460501
alexnet_w3_mlp_simclrhn_probe2,1,514,NaN,oven,dog,0,0514_sty_dnn_0_dog_00_dog-1734-ILSVRC2012-val-00031377.png,dog-1734-ILSVRC2012-val-00031377.png,0.0,-2.3892708,0.6295712,-2.1346436
