subj,session,trial,rt,object_response,category,condition,imagename,filename,is_correct,targ_act,max_nontarg_act,decision_margin
vit_b_16,1,1,NaN,airplane,airplane,0,0001_sty_dnn_0_airplane_00_airplane-0001-ILSVRC2012-val-00000631.png,airplane-0001-ILSVRC2012-val-00000631.png,1.0,4.337127,1.0307552,2.3379583
vit_b_16,1,2,NaN,clock,airplane,0,0002_sty_dnn_0_airplane_00_airplane-0002-ILSVRC2012-val-00001390.png,airplane-0002-ILSVRC2012-val-00001390.png,0.0,-0.1930386,1.5548774,-1.2359632
vit_b_16,1,3,NaN,airplane,airplane,0,0003_sty_dnn_0_airplane_00_airplane-0003-ILSVRC2012-val-00001506.png,airplane-0003-ILSVRC2012-val-00001506.png,1.0,1.647081,1.1411281,0.35776278
vit_b_16,1,4,NaN,airplane,airplane,0,0004_sty_dnn_0_airplane_00_airplane-0004-ILSVRC2012-val-00001952.png,airplane-0004-ILSVRC2012-val-00001952.png,1.0,3.7225404,1.3796121,1.6567006
vit_b_16,1,5,NaN,airplane,airplane,0,0005_sty_dnn_0_airplane_00_airplane-0005-ILSVRC2012-val-00003960.png,airplane-0005-ILSVRC2012-val-00003960.png,1.0,5.1479445,1.7734715,2.386113
vit_b_16,1,6,NaN,elephant,airplane,0,0006_sty_dnn_0_airplane_00_airplane-0006-ILSVRC2012-val-00008292.png,airplane-0006-ILSVRC2012-val-00008292.png,0.0,0.13165765,1.8103831,-1.1870382
vit_b_16,1,7,NaN,boat,airplane,0,0007_sty_dnn_0_airplane_00_airplane-0007-ILSVRC2012-val-00009537.png,airplane-0007-ILSVRC2012-val-00009537.png,0.0,2.1484349,2.2766428,-0.09065669
vit_b_16,1,8,NaN,knife,airplane,0,0008_sty_dnn_0_airplane_00_airplane-0008-ILSVRC2012-val-00010597.png,airplane-0008-ILSVRC2012-val-00010597.png,0.0,-0.8669203,2.329957,-2.2605336
vit_b_16,1,9,NaN,bear,airplane,0,0009_sty_dnn_0_airplane_00_airplane-0009-ILSVRC2012-val-00011168.png,airplane-0009-ILSVRC2012-val-00011168.png,0.0,2.1659036,2.2113302,-0.03212146
vit_b_16,1,10,NaN,chair,airplane,0,0010_sty_dnn_0_airplane_00_airplane-0010-ILSVRC2012-val-00012263.png,airplane-0010-ILSVRC2012-val-00012263.png,0.0,-0.34267765,1.3406005,-1.1902573
vit_b_16,1,11,NaN,clock,airplane,0,0011_sty_dnn_0_airplane_00_airplane-0011-ILSVRC2012-val-00014425.png,airplane-0011-ILSVRC2012-val-00014425.png,0.0,1.187644,1.3718663,-0.13026486
vit_b_16,1,12,NaN,oven,airplane,0,0012_sty_dnn_0_airplane_00_airplane-0012-ILSVRC2012-val-00015498.png,airplane-0012-ILSVRC2012-val-00015498.png,0.0,0.18078054,1.1742035,-0.7024561
vit_b_16,1,13,NaN,clock,airplane,0,0013_sty_dnn_0_airplane_00_airplane-0013-ILSVRC2012-val-00015636.png,airplane-0013-ILSVRC2012-val-00015636.png,0.0,-1.3269299,3.136485,-3.1561112
vit_b_16,1,14,NaN,airplane,airplane,0,0014_sty_dnn_0_airplane_00_airplane-0014-ILSVRC2012-val-00016995.png,airplane-0014-ILSVRC2012-val-00016995.png,1.0,2.5810456,1.2201121,0.96232533
vit_b_16,1,15,NaN,airplane,airplane,0,0015_sty_dnn_0_airplane_00_airplane-0015-ILSVRC2012-val-00018616.png,airplane-0015-ILSVRC2012-val-00018616.png,1.0,1.5201538,0.9650766,0.39249882
vit_b_16,1,16,NaN,airplane,airplane,0,0016_sty_dnn_0_airplane_00_airplane-0016-ILSVRC2012-val-00018685.png,airplane-0016-ILSVRC2012-val-00018685.png,1.0,1.4259552,0.73166704,0.49093586
vit_b_16,1,17,NaN,chair,airplane,0,0017_sty_dnn_0_airplane_00_airplane-0017-ILSVRC2012-val-00019179.png,airplane-0017-ILSVRC2012-val-00019179.png,0.0,0.15869634,1.259053,-0.7780697
vit_b_16,1,18,NaN,airplane,airplane,0,0018_sty_dnn_0_airplane_00_airplane-0018-ILSVRC2012-val-00019677.png,airplane-0018-ILSVRC2012-val-00019677.png,1.0,6.1281166,1.1839713,3.4960387
vit_b_16,1,19,NaN,knife,airplane,0,0019_sty_dnn_0_airplane_00_airplane-0019-ILSVRC2012-val-00022532.png,airplane-0019-ILSVRC2012-val-00022532.png,0.0,0.16306998,1.1680181,-0.7106057
vit_b_16,1,20,NaN,airplane,airplane,0,0020_sty_dnn_0_airplane_00_airplane-0020-ILSVRC2012-val-00022975.png,airplane-0020-ILSVRC2012-val-00022975.png,1.0,1.0884552,0.8684562,0.1555628
vit_b_16,1,21,NaN,airplane,airplane,0,0021_sty_dnn_0_airplane_00_airplane-0021-ILSVRC2012-val-00023316.png,airplane-0021-ILSVRC2012-val-00023316.png,1.0,3.2161627,1.9770256,0.8762022
vit_b_16,1,22,NaN,airplane,airplane,0,0022_sty_dnn_0_airplane_00_airplane-0022-ILSVRC2012-val-00023781.png,airplane-0022-ILSVRC2012-val-00023781.png,1.0,4.862547,0.4818947,3.097589
vit_b_16,1,23,NaN,airplane,airplane,0,0023_sty_dnn_0_airplane_00_airplane-0023-ILSVRC2012-val-00023863.png,airplane-0023-ILSVRC2012-val-00023863.png,1.0,8.978244,0.599449,5.9247026
vit_b_16,1,24,NaN,airplane,airplane,0,0024_sty_dnn_0_airplane_00_airplane-0024-ILSVRC2012-val-00024108.png,airplane-0024-ILSVRC2012-val-00024108.png,1.0,2.664474,1.990827,0.4763404
vit_b_16,1,25,NaN,airplane,airplane,0,0025_sty_dnn_0_airplane_00_airplane-0025-ILSVRC2012-val-00024747.png,airplane-0025-ILSVRC2012-val-00024747.png,1.0,8.896087,0.820651,5.7101955
vit_b_16,1,26,NaN,cat,airplane,0,0026_sty_dnn_0_airplane_00_airplane-0026-ILSVRC2012-val-00026189.png,airplane-0026-ILSVRC2012-val-00026189.png,0.0,-0.5361559,1.4238614,-1.3859415
vit_b_16,1,27,NaN,clock,airplane,0,0027_sty_dnn_0_airplane_00_airplane-0027-ILSVRC2012-val-00026859.png,airplane-0027-ILSVRC2012-val-00026859.png,0.0,0.727158,2.0214472,-0.91520065
vit_b_16,1,28,NaN,airplane,airplane,0,0028_sty_dnn_0_airplane_00_airplane-0028-ILSVRC2012-val-00028019.png,airplane-0028-ILSVRC2012-val-00028019.png,1.0,3.025907,0.8956383,1.5063275
vit_b_16,1,29,NaN,clock,airplane,0,0029_sty_dnn_0_airplane_00_airplane-0029-ILSVRC2012-val-00030319.png,airplane-0029-ILSVRC2012-val-00030319.png,0.0,-0.6955682,1.7512798,-1.7301828
vit_b_16,1,30,NaN,airplane,airplane,0,0030_sty_dnn_0_airplane_00_airplane-0030-ILSVRC2012-val-00030411.png,airplane-0030-ILSVRC2012-val-00030411.png,1.0,3.33983,1.5875143,1.2390743
vit_b_16,1,31,NaN,airplane,airplane,0,0031_sty_dnn_0_airplane_00_airplane-0031-ILSVRC2012-val-00030531.png,airplane-0031-ILSVRC2012-val-00030531.png,1.0,9.6287565,0.50347716,6.452547
vit_b_16,1,32,NaN,airplane,airplane,0,0032_sty_dnn_0_airplane_00_airplane-0032-ILSVRC2012-val-00032804.png,airplane-0032-ILSVRC2012-val-00032804.png,1.0,1.6711277,0.7133166,0.6772747
vit_b_16,1,33,NaN,chair,airplane,0,0033_sty_dnn_0_airplane_00_airplane-0033-ILSVRC2012-val-00033161.png,airplane-0033-ILSVRC2012-val-00033161.png,0.0,0.8463809,1.6351922,-0.5577738
vit_b_16,1,34,NaN,airplane,airplane,0,0034_sty_dnn_0_airplane_00_airplane-0034-ILSVRC2012-val-00033441.png,airplane-0034-ILSVRC2012-val-00033441.png,1.0,2.9643912,2.4747646,0.34621832
vit_b_16,1,35,NaN,elephant,airplane,0,0035_sty_dnn_0_airplane_00_airplane-0035-ILSVRC2012-val-00033920.png,airplane-0035-ILSVRC2012-val-00033920.png,0.0,1.2391037,1.9353354,-0.49231017
vit_b_16,1,36,NaN,airplane,airplane,0,0036_sty_dnn_0_airplane_00_airplane-0036-ILSVRC2012-val-00034342.png,airplane-0036-ILSVRC2012-val-00034342.png,1.0,3.2728403,0.7602616,1.7766615
vit_b_16,1,37,NaN,car,airplane,0,0037_sty_dnn_0_airplane_00_airplane-0037-ILSVRC2012-val-00035783.png,airplane-0037-ILSVRC2012-val-00035783.png,0.0,0.32816553,2.1745465,-1.3055885
vit_b_16,1,38,NaN,airplane,airplane,0,0038_sty_dnn_0_airplane_00_airplane-0038-ILSVRC2012-val-00036394.png,airplane-0038-ILSVRC2012-val-00036394.png,1.0,2.6156068,1.5956342,0.72122955
vit_b_16,1,39,NaN,clock,airplane,0,0039_sty_dnn_0_airplane_00_airplane-0039-ILSVRC2012-val-00037801.png,airplane-0039-ILSVRC2012-val-00037801.png,0.0,-0.81283426,0.83372873,-1.1642959
vit_b_16,1,40,NaN,airplane,airplane,0,0040_sty_dnn_0_airplane_00_airplane-0040-ILSVRC2012-val-00039213.png,airplane-0040-ILSVRC2012-val-00039213.png,1.0,2.5167246,0.9842434,1.0836278
vit_b_16,1,41,NaN,bottle,airplane,0,0041_sty_dnn_0_airplane_00_airplane-0041-ILSVRC2012-val-00040136.png,airplane-0041-ILSVRC2012-val-00040136.png,0.0,1.1747538,1.7041427,-0.37433448
vit_b_16,1,42,NaN,clock,airplane,0,0042_sty_dnn_0_airplane_00_airplane-0042-ILSVRC2012-val-00040547.png,airplane-0042-ILSVRC2012-val-00040547.png,0.0,-0.45258498,0.7755839,-0.8684466
vit_b_16,1,43,NaN,elephant,airplane,0,0043_sty_dnn_0_airplane_00_airplane-0043-ILSVRC2012-val-00041518.png,airplane-0043-ILSVRC2012-val-00041518.png,0.0,-0.34108275,1.6366062,-1.3984374
vit_b_16,1,44,NaN,car,airplane,0,0044_sty_dnn_0_airplane_00_airplane-0044-ILSVRC2012-val-00043242.png,airplane-0044-ILSVRC2012-val-00043242.png,0.0,2.4497018,3.6477463,-0.84714544
vit_b_16,1,45,NaN,oven,airplane,0,0045_sty_dnn_0_airplane_00_airplane-0045-ILSVRC2012-val-00044253.png,airplane-0045-ILSVRC2012-val-00044253.png,0.0,0.80870354,1.8822674,-0.7591243
vit_b_16,1,46,NaN,clock,airplane,0,0046_sty_dnn_0_airplane_00_airplane-0046-ILSVRC2012-val-00046862.png,airplane-0046-ILSVRC2012-val-00046862.png,0.0,0.11287764,1.2667507,-0.8159115
vit_b_16,1,47,NaN,clock,airplane,0,0047_sty_dnn_0_airplane_00_airplane-0047-ILSVRC2012-val-00046971.png,airplane-0047-ILSVRC2012-val-00046971.png,0.0,0.30933398,1.0122398,-0.49702948
vit_b_16,1,48,NaN,airplane,airplane,0,0048_sty_dnn_0_airplane_00_airplane-0048-ILSVRC2012-val-00047829.png,airplane-0048-ILSVRC2012-val-00047829.png,1.0,3.585802,1.7347751,1.3088738
vit_b_16,1,49,NaN,airplane,airplane,0,0049_sty_dnn_0_airplane_00_airplane-0049-ILSVRC2012-val-00048111.png,airplane-0049-ILSVRC2012-val-00048111.png,1.0,2.7346828,1.0561775,1.1868825
vit_b_16,1,50,NaN,airplane,airplane,0,0050_sty_dnn_0_airplane_00_airplane-0050-ILSVRC2012-val-00049097.png,airplane-0050-ILSVRC2012-val-00049097.png,1.0,2.7657123,1.8705868,0.63294935
vit_b_16,1,51,NaN,clock,bear,0,0051_sty_dnn_0_bear_00_bear-0003-ILSVRC2012-val-00003044.png,bear-0003-ILSVRC2012-val-00003044.png,0.0,0.39288303,1.55993,-0.8252268
vit_b_16,1,52,NaN,bear,bear,0,0052_sty_dnn_0_bear_00_bear-0005-ILSVRC2012-val-00006703.png,bear-0005-ILSVRC2012-val-00006703.png,1.0,2.8946114,1.4893444,0.99367386
vit_b_16,1,53,NaN,bear,bear,0,0053_sty_dnn_0_bear_00_bear-0009-ILSVRC2012-val-00011967.png,bear-0009-ILSVRC2012-val-00011967.png,1.0,3.3069468,1.0502267,1.5957421
vit_b_16,1,54,NaN,bear,bear,0,0054_sty_dnn_0_bear_00_bear-0010-ILSVRC2012-val-00013390.png,bear-0010-ILSVRC2012-val-00013390.png,1.0,2.1910095,2.0533805,0.097318426
vit_b_16,1,55,NaN,bear,bear,0,0055_sty_dnn_0_bear_00_bear-0021-ILSVRC2012-val-00031253.png,bear-0021-ILSVRC2012-val-00031253.png,1.0,4.1185665,1.1519822,2.0976918
vit_b_16,1,56,NaN,clock,bear,0,0056_sty_dnn_0_bear_00_bear-0031-ILSVRC2012-val-00039777.png,bear-0031-ILSVRC2012-val-00039777.png,0.0,-0.7885614,1.2198616,-1.4201696
vit_b_16,1,57,NaN,elephant,bear,0,0057_sty_dnn_0_bear_00_bear-0035-ILSVRC2012-val-00042274.png,bear-0035-ILSVRC2012-val-00042274.png,0.0,0.50554585,4.6002626,-2.8954022
vit_b_16,1,58,NaN,bird,bear,0,0058_sty_dnn_0_bear_00_bear-0043-ILSVRC2012-val-00046763.png,bear-0043-ILSVRC2012-val-00046763.png,0.0,0.5663363,2.102461,-1.0862043
vit_b_16,1,59,NaN,bear,bear,0,0059_sty_dnn_0_bear_00_bear-0049-ILSVRC2012-val-00049822.png,bear-0049-ILSVRC2012-val-00049822.png,1.0,4.2282596,0.8102412,2.416904
vit_b_16,1,60,NaN,bear,bear,0,0060_sty_dnn_0_bear_00_bear-0052-ILSVRC2012-val-00000865.png,bear-0052-ILSVRC2012-val-00000865.png,1.0,4.4233565,0.51886195,2.7608945
vit_b_16,1,61,NaN,knife,bear,0,0061_sty_dnn_0_bear_00_bear-0056-ILSVRC2012-val-00007093.png,bear-0056-ILSVRC2012-val-00007093.png,0.0,-0.5509124,1.233398,-1.261698
vit_b_16,1,62,NaN,bear,bear,0,0062_sty_dnn_0_bear_00_bear-0058-ILSVRC2012-val-00011726.png,bear-0058-ILSVRC2012-val-00011726.png,1.0,4.5837746,0.20881456,3.0935638
vit_b_16,1,63,NaN,bear,bear,0,0063_sty_dnn_0_bear_00_bear-0062-ILSVRC2012-val-00014029.png,bear-0062-ILSVRC2012-val-00014029.png,1.0,2.0949926,1.1157855,0.69240403
vit_b_16,1,64,NaN,elephant,bear,0,0064_sty_dnn_0_bear_00_bear-0064-ILSVRC2012-val-00016050.png,bear-0064-ILSVRC2012-val-00016050.png,0.0,-0.17849955,2.8929377,-2.171834
vit_b_16,1,65,NaN,knife,bear,0,0065_sty_dnn_0_bear_00_bear-0066-ILSVRC2012-val-00016621.png,bear-0066-ILSVRC2012-val-00016621.png,0.0,0.4741015,1.362249,-0.6280151
vit_b_16,1,66,NaN,elephant,bear,0,0066_sty_dnn_0_bear_00_bear-0067-ILSVRC2012-val-00017273.png,bear-0067-ILSVRC2012-val-00017273.png,0.0,-0.35155684,1.1465359,-1.0593115
vit_b_16,1,67,NaN,clock,bear,0,0067_sty_dnn_0_bear_00_bear-0069-ILSVRC2012-val-00018788.png,bear-0069-ILSVRC2012-val-00018788.png,0.0,0.3853799,1.9608102,-1.1139975
vit_b_16,1,68,NaN,bicycle,bear,0,0068_sty_dnn_0_bear_00_bear-0071-ILSVRC2012-val-00020050.png,bear-0071-ILSVRC2012-val-00020050.png,0.0,1.1953007,1.6060275,-0.2904277
vit_b_16,1,69,NaN,clock,bear,0,0069_sty_dnn_0_bear_00_bear-0073-ILSVRC2012-val-00024289.png,bear-0073-ILSVRC2012-val-00024289.png,0.0,-0.44200873,2.2388859,-1.8956788
vit_b_16,1,70,NaN,clock,bear,0,0070_sty_dnn_0_bear_00_bear-0074-ILSVRC2012-val-00026962.png,bear-0074-ILSVRC2012-val-00026962.png,0.0,1.465922,4.0139027,-1.8016945
vit_b_16,1,71,NaN,bear,bear,0,0071_sty_dnn_0_bear_00_bear-0078-ILSVRC2012-val-00030951.png,bear-0078-ILSVRC2012-val-00030951.png,1.0,6.136627,0.3764,4.073096
vit_b_16,1,72,NaN,elephant,bear,0,0072_sty_dnn_0_bear_00_bear-0085-ILSVRC2012-val-00035292.png,bear-0085-ILSVRC2012-val-00035292.png,0.0,0.83915704,0.9152016,-0.053771626
vit_b_16,1,73,NaN,bear,bear,0,0073_sty_dnn_0_bear_00_bear-0091-ILSVRC2012-val-00041813.png,bear-0091-ILSVRC2012-val-00041813.png,1.0,5.146801,0.37577328,3.373626
vit_b_16,1,74,NaN,elephant,bear,0,0074_sty_dnn_0_bear_00_bear-0094-ILSVRC2012-val-00043648.png,bear-0094-ILSVRC2012-val-00043648.png,0.0,0.962151,2.7057278,-1.232895
vit_b_16,1,75,NaN,clock,bear,0,0075_sty_dnn_0_bear_00_bear-0106-ILSVRC2012-val-00007578.png,bear-0106-ILSVRC2012-val-00007578.png,0.0,-0.5878042,1.7319044,-1.6402817
vit_b_16,1,76,NaN,clock,bear,0,0076_sty_dnn_0_bear_00_bear-0112-ILSVRC2012-val-00016340.png,bear-0112-ILSVRC2012-val-00016340.png,0.0,0.19299804,1.7580045,-1.1066267
vit_b_16,1,77,NaN,bear,bear,0,0077_sty_dnn_0_bear_00_bear-0113-ILSVRC2012-val-00016459.png,bear-0113-ILSVRC2012-val-00016459.png,1.0,1.9105388,0.93973327,0.6864632
vit_b_16,1,78,NaN,oven,bear,0,0078_sty_dnn_0_bear_00_bear-0114-ILSVRC2012-val-00017605.png,bear-0114-ILSVRC2012-val-00017605.png,0.0,0.87599415,2.6853971,-1.2794411
vit_b_16,1,79,NaN,bear,bear,0,0079_sty_dnn_0_bear_00_bear-0116-ILSVRC2012-val-00020332.png,bear-0116-ILSVRC2012-val-00020332.png,1.0,0.85464185,0.4765705,0.26733685
vit_b_16,1,80,NaN,elephant,bear,0,0080_sty_dnn_0_bear_00_bear-0125-ILSVRC2012-val-00028222.png,bear-0125-ILSVRC2012-val-00028222.png,0.0,-0.0759002,3.104374,-2.2487934
vit_b_16,1,81,NaN,bottle,bear,0,0081_sty_dnn_0_bear_00_bear-0129-ILSVRC2012-val-00030485.png,bear-0129-ILSVRC2012-val-00030485.png,0.0,0.54327154,1.5893443,-0.7396851
vit_b_16,1,82,NaN,bear,bear,0,0082_sty_dnn_0_bear_00_bear-0131-ILSVRC2012-val-00031877.png,bear-0131-ILSVRC2012-val-00031877.png,1.0,2.4949818,0.4091103,1.4749339
vit_b_16,1,83,NaN,oven,bear,0,0083_sty_dnn_0_bear_00_bear-0132-ILSVRC2012-val-00036763.png,bear-0132-ILSVRC2012-val-00036763.png,0.0,0.3576509,1.0141965,-0.46424788
vit_b_16,1,84,NaN,clock,bear,0,0084_sty_dnn_0_bear_00_bear-0139-ILSVRC2012-val-00041156.png,bear-0139-ILSVRC2012-val-00041156.png,0.0,-0.59087706,0.4893612,-0.7638438
vit_b_16,1,85,NaN,bear,bear,0,0085_sty_dnn_0_bear_00_bear-0141-ILSVRC2012-val-00042320.png,bear-0141-ILSVRC2012-val-00042320.png,1.0,3.264723,0.9942417,1.6054728
vit_b_16,1,86,NaN,airplane,bear,0,0086_sty_dnn_0_bear_00_bear-0143-ILSVRC2012-val-00044126.png,bear-0143-ILSVRC2012-val-00044126.png,0.0,0.51968974,2.335679,-1.2840984
vit_b_16,1,87,NaN,knife,bear,0,0087_sty_dnn_0_bear_00_bear-0149-ILSVRC2012-val-00048105.png,bear-0149-ILSVRC2012-val-00048105.png,0.0,-0.08896566,1.2354068,-0.9364727
vit_b_16,1,88,NaN,bottle,bear,0,0088_sty_dnn_0_bear_00_bear-0154-ILSVRC2012-val-00003499.png,bear-0154-ILSVRC2012-val-00003499.png,0.0,-0.55671525,1.0414002,-1.1300383
vit_b_16,1,89,NaN,bear,bear,0,0089_sty_dnn_0_bear_00_bear-0160-ILSVRC2012-val-00013052.png,bear-0160-ILSVRC2012-val-00013052.png,1.0,3.5074677,2.4366434,0.7571872
vit_b_16,1,90,NaN,bear,bear,0,0090_sty_dnn_0_bear_00_bear-0163-ILSVRC2012-val-00016513.png,bear-0163-ILSVRC2012-val-00016513.png,1.0,1.940196,0.42982146,1.0679961
vit_b_16,1,91,NaN,clock,bear,0,0091_sty_dnn_0_bear_00_bear-0164-ILSVRC2012-val-00018303.png,bear-0164-ILSVRC2012-val-00018303.png,0.0,-0.5804269,0.99173814,-1.1116886
vit_b_16,1,92,NaN,bottle,bear,0,0092_sty_dnn_0_bear_00_bear-0165-ILSVRC2012-val-00019901.png,bear-0165-ILSVRC2012-val-00019901.png,0.0,1.0048426,2.3883204,-0.97826654
vit_b_16,1,93,NaN,bottle,bear,0,0093_sty_dnn_0_bear_00_bear-0166-ILSVRC2012-val-00022111.png,bear-0166-ILSVRC2012-val-00022111.png,0.0,-0.4343344,1.1469438,-1.1181326
vit_b_16,1,94,NaN,bear,bear,0,0094_sty_dnn_0_bear_00_bear-0167-ILSVRC2012-val-00022112.png,bear-0167-ILSVRC2012-val-00022112.png,1.0,4.6785655,3.0461407,1.1542987
vit_b_16,1,95,NaN,bear,bear,0,0095_sty_dnn_0_bear_00_bear-0168-ILSVRC2012-val-00022698.png,bear-0168-ILSVRC2012-val-00022698.png,1.0,4.8083854,2.233213,1.8209219
vit_b_16,1,96,NaN,clock,bear,0,0096_sty_dnn_0_bear_00_bear-0180-ILSVRC2012-val-00034637.png,bear-0180-ILSVRC2012-val-00034637.png,0.0,-1.0670615,1.186989,-1.5938544
vit_b_16,1,97,NaN,clock,bear,0,0097_sty_dnn_0_bear_00_bear-0184-ILSVRC2012-val-00038961.png,bear-0184-ILSVRC2012-val-00038961.png,0.0,-0.917575,1.7323049,-1.8737481
vit_b_16,1,98,NaN,elephant,bear,0,0098_sty_dnn_0_bear_00_bear-0188-ILSVRC2012-val-00043016.png,bear-0188-ILSVRC2012-val-00043016.png,0.0,-0.19582048,1.2929418,-1.0527139
vit_b_16,1,99,NaN,elephant,bear,0,0099_sty_dnn_0_bear_00_bear-0191-ILSVRC2012-val-00044349.png,bear-0191-ILSVRC2012-val-00044349.png,0.0,0.046631794,0.56242174,-0.36471856
vit_b_16,1,100,NaN,elephant,bear,0,0100_sty_dnn_0_bear_00_bear-0195-ILSVRC2012-val-00045672.png,bear-0195-ILSVRC2012-val-00045672.png,0.0,0.22460677,2.9718504,-1.9425946
vit_b_16,1,101,NaN,bird,bicycle,0,0101_sty_dnn_0_bicycle_00_bicycle-0005-ILSVRC2012-val-00005274.png,bicycle-0005-ILSVRC2012-val-00005274.png,0.0,-0.8038944,2.3987412,-2.2646055
vit_b_16,1,102,NaN,oven,bicycle,0,0102_sty_dnn_0_bicycle_00_bicycle-0007-ILSVRC2012-val-00006395.png,bicycle-0007-ILSVRC2012-val-00006395.png,0.0,1.4953196,1.6844457,-0.13373238
vit_b_16,1,103,NaN,bicycle,bicycle,0,0103_sty_dnn_0_bicycle_00_bicycle-0008-ILSVRC2012-val-00008007.png,bicycle-0008-ILSVRC2012-val-00008007.png,1.0,6.0943584,0.44196165,3.996848
vit_b_16,1,104,NaN,bicycle,bicycle,0,0104_sty_dnn_0_bicycle_00_bicycle-0010-ILSVRC2012-val-00010544.png,bicycle-0010-ILSVRC2012-val-00010544.png,1.0,3.555894,1.2712032,1.6155205
vit_b_16,1,105,NaN,bicycle,bicycle,0,0105_sty_dnn_0_bicycle_00_bicycle-0011-ILSVRC2012-val-00011821.png,bicycle-0011-ILSVRC2012-val-00011821.png,1.0,2.7052214,0.963128,1.2318461
vit_b_16,1,106,NaN,bicycle,bicycle,0,0106_sty_dnn_0_bicycle_00_bicycle-0013-ILSVRC2012-val-00012667.png,bicycle-0013-ILSVRC2012-val-00012667.png,1.0,6.102251,1.3732215,3.343929
vit_b_16,1,107,NaN,bicycle,bicycle,0,0107_sty_dnn_0_bicycle_00_bicycle-0014-ILSVRC2012-val-00015483.png,bicycle-0014-ILSVRC2012-val-00015483.png,1.0,2.8934588,0.82010883,1.4660798
vit_b_16,1,108,NaN,bicycle,bicycle,0,0108_sty_dnn_0_bicycle_00_bicycle-0015-ILSVRC2012-val-00015618.png,bicycle-0015-ILSVRC2012-val-00015618.png,1.0,3.9557562,2.2863383,1.1804568
vit_b_16,1,109,NaN,oven,bicycle,0,0109_sty_dnn_0_bicycle_00_bicycle-0016-ILSVRC2012-val-00016532.png,bicycle-0016-ILSVRC2012-val-00016532.png,0.0,-0.26269636,2.7227693,-2.111043
vit_b_16,1,110,NaN,bicycle,bicycle,0,0110_sty_dnn_0_bicycle_00_bicycle-0018-ILSVRC2012-val-00018975.png,bicycle-0018-ILSVRC2012-val-00018975.png,1.0,5.418614,0.7275575,3.3170776
vit_b_16,1,111,NaN,bicycle,bicycle,0,0111_sty_dnn_0_bicycle_00_bicycle-0020-ILSVRC2012-val-00022027.png,bicycle-0020-ILSVRC2012-val-00022027.png,1.0,4.768648,1.0963215,2.5967271
vit_b_16,1,112,NaN,clock,bicycle,0,0112_sty_dnn_0_bicycle_00_bicycle-0022-ILSVRC2012-val-00023266.png,bicycle-0022-ILSVRC2012-val-00023266.png,0.0,-1.024458,1.6683898,-1.9041309
vit_b_16,1,113,NaN,bottle,bicycle,0,0113_sty_dnn_0_bicycle_00_bicycle-0024-ILSVRC2012-val-00025915.png,bicycle-0024-ILSVRC2012-val-00025915.png,0.0,-1.0732094,1.3109996,-1.6858904
vit_b_16,1,114,NaN,bicycle,bicycle,0,0114_sty_dnn_0_bicycle_00_bicycle-0026-ILSVRC2012-val-00026292.png,bicycle-0026-ILSVRC2012-val-00026292.png,1.0,5.1603327,0.7327467,3.1307762
vit_b_16,1,115,NaN,clock,bicycle,0,0115_sty_dnn_0_bicycle_00_bicycle-0030-ILSVRC2012-val-00027620.png,bicycle-0030-ILSVRC2012-val-00027620.png,0.0,-0.23904762,1.1841092,-1.0063239
vit_b_16,1,116,NaN,bottle,bicycle,0,0116_sty_dnn_0_bicycle_00_bicycle-0032-ILSVRC2012-val-00030070.png,bicycle-0032-ILSVRC2012-val-00030070.png,0.0,-0.44168645,1.4371163,-1.3285142
vit_b_16,1,117,NaN,chair,bicycle,0,0117_sty_dnn_0_bicycle_00_bicycle-0033-ILSVRC2012-val-00031498.png,bicycle-0033-ILSVRC2012-val-00031498.png,0.0,0.7607194,1.220376,-0.3250263
vit_b_16,1,118,NaN,bicycle,bicycle,0,0118_sty_dnn_0_bicycle_00_bicycle-0035-ILSVRC2012-val-00033559.png,bicycle-0035-ILSVRC2012-val-00033559.png,1.0,5.604025,1.2952489,3.0467646
vit_b_16,1,119,NaN,bicycle,bicycle,0,0119_sty_dnn_0_bicycle_00_bicycle-0037-ILSVRC2012-val-00036009.png,bicycle-0037-ILSVRC2012-val-00036009.png,1.0,2.3622775,2.3604717,0.001276881
vit_b_16,1,120,NaN,chair,bicycle,0,0120_sty_dnn_0_bicycle_00_bicycle-0038-ILSVRC2012-val-00036903.png,bicycle-0038-ILSVRC2012-val-00036903.png,0.0,-0.62890935,2.3344746,-2.095429
vit_b_16,1,121,NaN,bicycle,bicycle,0,0121_sty_dnn_0_bicycle_00_bicycle-0039-ILSVRC2012-val-00037292.png,bicycle-0039-ILSVRC2012-val-00037292.png,1.0,4.631765,0.48510516,2.9321313
vit_b_16,1,122,NaN,bicycle,bicycle,0,0122_sty_dnn_0_bicycle_00_bicycle-0040-ILSVRC2012-val-00037433.png,bicycle-0040-ILSVRC2012-val-00037433.png,1.0,6.6011324,0.5776875,4.259219
vit_b_16,1,123,NaN,bicycle,bicycle,0,0123_sty_dnn_0_bicycle_00_bicycle-0043-ILSVRC2012-val-00038415.png,bicycle-0043-ILSVRC2012-val-00038415.png,1.0,5.559432,0.4899705,3.5846505
vit_b_16,1,124,NaN,bicycle,bicycle,0,0124_sty_dnn_0_bicycle_00_bicycle-0044-ILSVRC2012-val-00040027.png,bicycle-0044-ILSVRC2012-val-00040027.png,1.0,0.7513318,0.6957398,0.039309483
vit_b_16,1,125,NaN,bicycle,bicycle,0,0125_sty_dnn_0_bicycle_00_bicycle-0046-ILSVRC2012-val-00042496.png,bicycle-0046-ILSVRC2012-val-00042496.png,1.0,2.415112,0.8100236,1.134969
vit_b_16,1,126,NaN,bicycle,bicycle,0,0126_sty_dnn_0_bicycle_00_bicycle-0047-ILSVRC2012-val-00043435.png,bicycle-0047-ILSVRC2012-val-00043435.png,1.0,2.9604497,0.7943658,1.5316526
vit_b_16,1,127,NaN,bird,bicycle,0,0127_sty_dnn_0_bicycle_00_bicycle-0048-ILSVRC2012-val-00045400.png,bicycle-0048-ILSVRC2012-val-00045400.png,0.0,0.7353486,1.171053,-0.30808958
vit_b_16,1,128,NaN,bicycle,bicycle,0,0128_sty_dnn_0_bicycle_00_bicycle-0050-ILSVRC2012-val-00049382.png,bicycle-0050-ILSVRC2012-val-00049382.png,1.0,2.2867303,1.8453959,0.31207052
vit_b_16,1,129,NaN,bicycle,bicycle,0,0129_sty_dnn_0_bicycle_00_bicycle-0054-ILSVRC2012-val-00004147.png,bicycle-0054-ILSVRC2012-val-00004147.png,1.0,5.5490255,1.3858389,2.9438174
vit_b_16,1,130,NaN,bicycle,bicycle,0,0130_sty_dnn_0_bicycle_00_bicycle-0056-ILSVRC2012-val-00005330.png,bicycle-0056-ILSVRC2012-val-00005330.png,1.0,6.2443886,0.26712492,4.2265635
vit_b_16,1,131,NaN,bicycle,bicycle,0,0131_sty_dnn_0_bicycle_00_bicycle-0059-ILSVRC2012-val-00011329.png,bicycle-0059-ILSVRC2012-val-00011329.png,1.0,6.836776,3.0275908,2.6935005
vit_b_16,1,132,NaN,bicycle,bicycle,0,0132_sty_dnn_0_bicycle_00_bicycle-0060-ILSVRC2012-val-00011330.png,bicycle-0060-ILSVRC2012-val-00011330.png,1.0,6.152997,0.43764907,4.0413613
vit_b_16,1,133,NaN,bottle,bicycle,0,0133_sty_dnn_0_bicycle_00_bicycle-0061-ILSVRC2012-val-00012096.png,bicycle-0061-ILSVRC2012-val-00012096.png,0.0,0.0782489,1.97168,-1.338858
vit_b_16,1,134,NaN,bicycle,bicycle,0,0134_sty_dnn_0_bicycle_00_bicycle-0062-ILSVRC2012-val-00015867.png,bicycle-0062-ILSVRC2012-val-00015867.png,1.0,2.2083004,0.7015688,1.06542
vit_b_16,1,135,NaN,bottle,bicycle,0,0135_sty_dnn_0_bicycle_00_bicycle-0064-ILSVRC2012-val-00017103.png,bicycle-0064-ILSVRC2012-val-00017103.png,0.0,0.28082526,3.5975587,-2.3452847
vit_b_16,1,136,NaN,bicycle,bicycle,0,0136_sty_dnn_0_bicycle_00_bicycle-0067-ILSVRC2012-val-00018304.png,bicycle-0067-ILSVRC2012-val-00018304.png,1.0,2.6618743,1.4866762,0.83099055
vit_b_16,1,137,NaN,boat,bicycle,0,0137_sty_dnn_0_bicycle_00_bicycle-0070-ILSVRC2012-val-00020631.png,bicycle-0070-ILSVRC2012-val-00020631.png,0.0,1.0441874,1.236975,-0.13632137
vit_b_16,1,138,NaN,bicycle,bicycle,0,0138_sty_dnn_0_bicycle_00_bicycle-0073-ILSVRC2012-val-00027449.png,bicycle-0073-ILSVRC2012-val-00027449.png,1.0,4.6760798,1.3191872,2.3736815
vit_b_16,1,139,NaN,bicycle,bicycle,0,0139_sty_dnn_0_bicycle_00_bicycle-0074-ILSVRC2012-val-00028824.png,bicycle-0074-ILSVRC2012-val-00028824.png,1.0,6.695553,2.8210647,2.739677
vit_b_16,1,140,NaN,bicycle,bicycle,0,0140_sty_dnn_0_bicycle_00_bicycle-0077-ILSVRC2012-val-00030112.png,bicycle-0077-ILSVRC2012-val-00030112.png,1.0,3.9229317,0.47082475,2.4410083
vit_b_16,1,141,NaN,bicycle,bicycle,0,0141_sty_dnn_0_bicycle_00_bicycle-0078-ILSVRC2012-val-00030892.png,bicycle-0078-ILSVRC2012-val-00030892.png,1.0,5.5564737,3.7649484,1.2667998
vit_b_16,1,142,NaN,bicycle,bicycle,0,0142_sty_dnn_0_bicycle_00_bicycle-0079-ILSVRC2012-val-00031485.png,bicycle-0079-ILSVRC2012-val-00031485.png,1.0,5.536334,0.5620613,3.517342
vit_b_16,1,143,NaN,bicycle,bicycle,0,0143_sty_dnn_0_bicycle_00_bicycle-0080-ILSVRC2012-val-00032009.png,bicycle-0080-ILSVRC2012-val-00032009.png,1.0,5.2800345,1.1522241,2.9188027
vit_b_16,1,144,NaN,bicycle,bicycle,0,0144_sty_dnn_0_bicycle_00_bicycle-0081-ILSVRC2012-val-00032967.png,bicycle-0081-ILSVRC2012-val-00032967.png,1.0,0.77192813,0.51700044,0.1802611
vit_b_16,1,145,NaN,bicycle,bicycle,0,0145_sty_dnn_0_bicycle_00_bicycle-0085-ILSVRC2012-val-00037438.png,bicycle-0085-ILSVRC2012-val-00037438.png,1.0,6.323787,1.494448,3.4148583
vit_b_16,1,146,NaN,bicycle,bicycle,0,0146_sty_dnn_0_bicycle_00_bicycle-0089-ILSVRC2012-val-00042393.png,bicycle-0089-ILSVRC2012-val-00042393.png,1.0,6.4013968,0.617377,4.0899196
vit_b_16,1,147,NaN,bicycle,bicycle,0,0147_sty_dnn_0_bicycle_00_bicycle-0092-ILSVRC2012-val-00043207.png,bicycle-0092-ILSVRC2012-val-00043207.png,1.0,3.931602,0.98363006,2.0845308
vit_b_16,1,148,NaN,bicycle,bicycle,0,0148_sty_dnn_0_bicycle_00_bicycle-0094-ILSVRC2012-val-00044080.png,bicycle-0094-ILSVRC2012-val-00044080.png,1.0,7.0206347,1.0480465,4.2232575
vit_b_16,1,149,NaN,bicycle,bicycle,0,0149_sty_dnn_0_bicycle_00_bicycle-0096-ILSVRC2012-val-00045152.png,bicycle-0096-ILSVRC2012-val-00045152.png,1.0,3.7253733,0.894806,2.0015135
vit_b_16,1,150,NaN,bicycle,bicycle,0,0150_sty_dnn_0_bicycle_00_bicycle-0100-ILSVRC2012-val-00049750.png,bicycle-0100-ILSVRC2012-val-00049750.png,1.0,3.5472734,0.44040954,2.1968846
vit_b_16,1,151,NaN,clock,bird,0,0151_sty_dnn_0_bird_00_bird-0009-ILSVRC2012-val-00007530.png,bird-0009-ILSVRC2012-val-00007530.png,0.0,0.41806325,0.8847618,-0.3300057
vit_b_16,1,152,NaN,knife,bird,0,0152_sty_dnn_0_bird_00_bird-0045-ILSVRC2012-val-00045547.png,bird-0045-ILSVRC2012-val-00045547.png,0.0,0.2739664,2.024573,-1.2378658
vit_b_16,1,153,NaN,bottle,bird,0,0153_sty_dnn_0_bird_00_bird-0119-ILSVRC2012-val-00016252.png,bird-0119-ILSVRC2012-val-00016252.png,0.0,0.55843854,2.0911512,-1.0837916
vit_b_16,1,154,NaN,clock,bird,0,0154_sty_dnn_0_bird_00_bird-0122-ILSVRC2012-val-00019236.png,bird-0122-ILSVRC2012-val-00019236.png,0.0,-0.2663473,1.0043048,-0.8984867
vit_b_16,1,155,NaN,bottle,bird,0,0155_sty_dnn_0_bird_00_bird-0157-ILSVRC2012-val-00005336.png,bird-0157-ILSVRC2012-val-00005336.png,0.0,-0.045607645,0.14756985,-0.13659711
vit_b_16,1,156,NaN,clock,bird,0,0156_sty_dnn_0_bird_00_bird-0175-ILSVRC2012-val-00018699.png,bird-0175-ILSVRC2012-val-00018699.png,0.0,0.5266228,1.8682102,-0.9486456
vit_b_16,1,157,NaN,oven,bird,0,0157_sty_dnn_0_bird_00_bird-0228-ILSVRC2012-val-00017712.png,bird-0228-ILSVRC2012-val-00017712.png,0.0,0.7582753,0.76909775,-0.0076526455
vit_b_16,1,158,NaN,clock,bird,0,0158_sty_dnn_0_bird_00_bird-0238-ILSVRC2012-val-00030657.png,bird-0238-ILSVRC2012-val-00030657.png,0.0,0.96199614,1.0615205,-0.070374325
vit_b_16,1,159,NaN,oven,bird,0,0159_sty_dnn_0_bird_00_bird-0426-ILSVRC2012-val-00030017.png,bird-0426-ILSVRC2012-val-00030017.png,0.0,0.78103316,0.8678432,-0.061383978
vit_b_16,1,160,NaN,boat,bird,0,0160_sty_dnn_0_bird_00_bird-0486-ILSVRC2012-val-00037420.png,bird-0486-ILSVRC2012-val-00037420.png,0.0,1.1204636,3.0777526,-1.3840123
vit_b_16,1,161,NaN,bird,bird,0,0161_sty_dnn_0_bird_00_bird-0513-ILSVRC2012-val-00013223.png,bird-0513-ILSVRC2012-val-00013223.png,1.0,1.1881781,0.15298755,0.7319902
vit_b_16,1,162,NaN,bird,bird,0,0162_sty_dnn_0_bird_00_bird-0522-ILSVRC2012-val-00020730.png,bird-0522-ILSVRC2012-val-00020730.png,1.0,1.9271938,0.94396776,0.6952458
vit_b_16,1,163,NaN,knife,bird,0,0163_sty_dnn_0_bird_00_bird-0532-ILSVRC2012-val-00028181.png,bird-0532-ILSVRC2012-val-00028181.png,0.0,-0.14556524,1.1527345,-0.9180366
vit_b_16,1,164,NaN,bird,bird,0,0164_sty_dnn_0_bird_00_bird-0624-ILSVRC2012-val-00024514.png,bird-0624-ILSVRC2012-val-00024514.png,1.0,0.4800794,0.30391473,0.12456725
vit_b_16,1,165,NaN,bird,bird,0,0165_sty_dnn_0_bird_00_bird-0701-ILSVRC2012-val-00000075.png,bird-0701-ILSVRC2012-val-00000075.png,1.0,0.22386321,0.15475722,0.048865322
vit_b_16,1,166,NaN,airplane,bird,0,0166_sty_dnn_0_bird_00_bird-0752-ILSVRC2012-val-00001596.png,bird-0752-ILSVRC2012-val-00001596.png,0.0,-0.04824187,1.2073494,-0.8878371
vit_b_16,1,167,NaN,bird,bird,0,0167_sty_dnn_0_bird_00_bird-0754-ILSVRC2012-val-00002846.png,bird-0754-ILSVRC2012-val-00002846.png,1.0,0.804482,0.4122623,0.27734122
vit_b_16,1,168,NaN,boat,bird,0,0168_sty_dnn_0_bird_00_bird-0822-ILSVRC2012-val-00025200.png,bird-0822-ILSVRC2012-val-00025200.png,0.0,0.013903674,0.8383633,-0.582981
vit_b_16,1,169,NaN,elephant,bird,0,0169_sty_dnn_0_bird_00_bird-0896-ILSVRC2012-val-00046621.png,bird-0896-ILSVRC2012-val-00046621.png,0.0,0.45309183,0.6758187,-0.15749167
vit_b_16,1,170,NaN,bird,bird,0,0170_sty_dnn_0_bird_00_bird-0995-ILSVRC2012-val-00046534.png,bird-0995-ILSVRC2012-val-00046534.png,1.0,0.8844154,0.58793396,0.20964403
vit_b_16,1,171,NaN,bottle,bird,0,0171_sty_dnn_0_bird_00_bird-1052-ILSVRC2012-val-00003884.png,bird-1052-ILSVRC2012-val-00003884.png,0.0,0.5787444,0.7157132,-0.096851565
vit_b_16,1,172,NaN,bottle,bird,0,0172_sty_dnn_0_bird_00_bird-1093-ILSVRC2012-val-00044082.png,bird-1093-ILSVRC2012-val-00044082.png,0.0,-0.14920014,2.2209547,-1.6759526
vit_b_16,1,173,NaN,bottle,bird,0,0173_sty_dnn_0_bird_00_bird-1172-ILSVRC2012-val-00022442.png,bird-1172-ILSVRC2012-val-00022442.png,0.0,0.91777873,1.0290315,-0.0786676
vit_b_16,1,174,NaN,bear,bird,0,0174_sty_dnn_0_bird_00_bird-1188-ILSVRC2012-val-00040014.png,bird-1188-ILSVRC2012-val-00040014.png,0.0,0.73477274,1.0705206,-0.23740962
vit_b_16,1,175,NaN,bird,bird,0,0175_sty_dnn_0_bird_00_bird-1198-ILSVRC2012-val-00048142.png,bird-1198-ILSVRC2012-val-00048142.png,1.0,1.7238259,0.60871154,0.788505
vit_b_16,1,176,NaN,knife,bird,0,0176_sty_dnn_0_bird_00_bird-1256-ILSVRC2012-val-00005779.png,bird-1256-ILSVRC2012-val-00005779.png,0.0,-0.10961374,1.6994315,-1.2791883
vit_b_16,1,177,NaN,bear,bird,0,0177_sty_dnn_0_bird_00_bird-1274-ILSVRC2012-val-00025449.png,bird-1274-ILSVRC2012-val-00025449.png,0.0,-0.053075634,0.61495763,-0.47237083
vit_b_16,1,178,NaN,oven,bird,0,0178_sty_dnn_0_bird_00_bird-1326-ILSVRC2012-val-00025658.png,bird-1326-ILSVRC2012-val-00025658.png,0.0,-0.022371927,0.7196327,-0.5246765
vit_b_16,1,179,NaN,knife,bird,0,0179_sty_dnn_0_bird_00_bird-1394-ILSVRC2012-val-00040051.png,bird-1394-ILSVRC2012-val-00040051.png,0.0,0.0582657,0.69336796,-0.44908512
vit_b_16,1,180,NaN,oven,bird,0,0180_sty_dnn_0_bird_00_bird-1452-ILSVRC2012-val-00002997.png,bird-1452-ILSVRC2012-val-00002997.png,0.0,0.45278257,2.640476,-1.5469328
vit_b_16,1,181,NaN,clock,bird,0,0181_sty_dnn_0_bird_00_bird-1551-ILSVRC2012-val-00000690.png,bird-1551-ILSVRC2012-val-00000690.png,0.0,0.33494338,0.9821833,-0.45766774
vit_b_16,1,182,NaN,bird,bird,0,0182_sty_dnn_0_bird_00_bird-1646-ILSVRC2012-val-00039398.png,bird-1646-ILSVRC2012-val-00039398.png,1.0,1.66973,0.48904064,0.83487344
vit_b_16,1,183,NaN,bear,bird,0,0183_sty_dnn_0_bird_00_bird-1861-ILSVRC2012-val-00007811.png,bird-1861-ILSVRC2012-val-00007811.png,0.0,-0.3895716,4.6120963,-3.5367134
vit_b_16,1,184,NaN,clock,bird,0,0184_sty_dnn_0_bird_00_bird-1865-ILSVRC2012-val-00009672.png,bird-1865-ILSVRC2012-val-00009672.png,0.0,-0.32281187,1.2511722,-1.1129748
vit_b_16,1,185,NaN,oven,bird,0,0185_sty_dnn_0_bird_00_bird-1913-ILSVRC2012-val-00012475.png,bird-1913-ILSVRC2012-val-00012475.png,0.0,0.9812411,2.7624912,-1.259534
vit_b_16,1,186,NaN,bottle,bird,0,0186_sty_dnn_0_bird_00_bird-1941-ILSVRC2012-val-00042829.png,bird-1941-ILSVRC2012-val-00042829.png,0.0,0.7773862,0.8244875,-0.033305664
vit_b_16,1,187,NaN,knife,bird,0,0187_sty_dnn_0_bird_00_bird-1971-ILSVRC2012-val-00023024.png,bird-1971-ILSVRC2012-val-00023024.png,0.0,0.2015436,0.7921631,-0.41763103
vit_b_16,1,188,NaN,clock,bird,0,0188_sty_dnn_0_bird_00_bird-2011-ILSVRC2012-val-00008842.png,bird-2011-ILSVRC2012-val-00008842.png,0.0,0.20116164,1.6839803,-1.0485111
vit_b_16,1,189,NaN,bird,bird,0,0189_sty_dnn_0_bird_00_bird-2082-ILSVRC2012-val-00036457.png,bird-2082-ILSVRC2012-val-00036457.png,1.0,1.3355974,0.14729732,0.8402551
vit_b_16,1,190,NaN,clock,bird,0,0190_sty_dnn_0_bird_00_bird-2118-ILSVRC2012-val-00021926.png,bird-2118-ILSVRC2012-val-00021926.png,0.0,-0.4869072,0.969713,-1.029986
vit_b_16,1,191,NaN,dog,bird,0,0191_sty_dnn_0_bird_00_bird-2144-ILSVRC2012-val-00044377.png,bird-2144-ILSVRC2012-val-00044377.png,0.0,-0.31509697,0.8057741,-0.79257554
vit_b_16,1,192,NaN,bird,bird,0,0192_sty_dnn_0_bird_00_bird-2178-ILSVRC2012-val-00026510.png,bird-2178-ILSVRC2012-val-00026510.png,1.0,1.3734646,1.1225411,0.17742972
vit_b_16,1,193,NaN,elephant,bird,0,0193_sty_dnn_0_bird_00_bird-2184-ILSVRC2012-val-00034910.png,bird-2184-ILSVRC2012-val-00034910.png,0.0,-0.3035265,0.5993251,-0.6384125
vit_b_16,1,194,NaN,clock,bird,0,0194_sty_dnn_0_bird_00_bird-2221-ILSVRC2012-val-00014977.png,bird-2221-ILSVRC2012-val-00014977.png,0.0,-0.5608003,1.5915929,-1.521972
vit_b_16,1,195,NaN,bird,bird,0,0195_sty_dnn_0_bird_00_bird-2222-ILSVRC2012-val-00015392.png,bird-2222-ILSVRC2012-val-00015392.png,1.0,1.8919481,0.81306076,0.76288855
vit_b_16,1,196,NaN,oven,bird,0,0196_sty_dnn_0_bird_00_bird-2248-ILSVRC2012-val-00044992.png,bird-2248-ILSVRC2012-val-00044992.png,0.0,1.0771055,1.2717878,-0.13766113
vit_b_16,1,197,NaN,bird,bird,0,0197_sty_dnn_0_bird_00_bird-2322-ILSVRC2012-val-00023492.png,bird-2322-ILSVRC2012-val-00023492.png,1.0,1.1236769,0.36543563,0.53615755
vit_b_16,1,198,NaN,bear,bird,0,0198_sty_dnn_0_bird_00_bird-2405-ILSVRC2012-val-00007988.png,bird-2405-ILSVRC2012-val-00007988.png,0.0,0.7406858,1.7072575,-0.6834694
vit_b_16,1,199,NaN,bird,bird,0,0199_sty_dnn_0_bird_00_bird-2410-ILSVRC2012-val-00010355.png,bird-2410-ILSVRC2012-val-00010355.png,1.0,0.2873262,0.14258051,0.10235065
vit_b_16,1,200,NaN,bear,bird,0,0200_sty_dnn_0_bird_00_bird-2433-ILSVRC2012-val-00028670.png,bird-2433-ILSVRC2012-val-00028670.png,0.0,0.7668757,1.5038555,-0.5211234
vit_b_16,1,201,NaN,knife,boat,0,0201_sty_dnn_0_boat_00_boat-0005-ILSVRC2012-val-00004909.png,boat-0005-ILSVRC2012-val-00004909.png,0.0,0.35026926,2.4457545,-1.4817318
vit_b_16,1,202,NaN,boat,boat,0,0202_sty_dnn_0_boat_00_boat-0011-ILSVRC2012-val-00011563.png,boat-0011-ILSVRC2012-val-00011563.png,1.0,2.5683959,1.2897339,0.90415055
vit_b_16,1,203,NaN,elephant,boat,0,0203_sty_dnn_0_boat_00_boat-0026-ILSVRC2012-val-00026341.png,boat-0026-ILSVRC2012-val-00026341.png,0.0,-0.27113193,1.1956555,-1.0371753
vit_b_16,1,204,NaN,boat,boat,0,0204_sty_dnn_0_boat_00_boat-0033-ILSVRC2012-val-00030824.png,boat-0033-ILSVRC2012-val-00030824.png,1.0,2.1006773,0.7253362,0.972513
vit_b_16,1,205,NaN,bear,boat,0,0205_sty_dnn_0_boat_00_boat-0036-ILSVRC2012-val-00032433.png,boat-0036-ILSVRC2012-val-00032433.png,0.0,1.1360521,2.4268131,-0.91270584
vit_b_16,1,206,NaN,boat,boat,0,0206_sty_dnn_0_boat_00_boat-0039-ILSVRC2012-val-00033883.png,boat-0039-ILSVRC2012-val-00033883.png,1.0,2.0338922,1.2087675,0.5834512
vit_b_16,1,207,NaN,boat,boat,0,0207_sty_dnn_0_boat_00_boat-0042-ILSVRC2012-val-00039945.png,boat-0042-ILSVRC2012-val-00039945.png,1.0,2.1555262,0.92769694,0.8682064
vit_b_16,1,208,NaN,boat,boat,0,0208_sty_dnn_0_boat_00_boat-0044-ILSVRC2012-val-00041227.png,boat-0044-ILSVRC2012-val-00041227.png,1.0,4.158223,0.90518284,2.300247
vit_b_16,1,209,NaN,bicycle,boat,0,0209_sty_dnn_0_boat_00_boat-0048-ILSVRC2012-val-00046387.png,boat-0048-ILSVRC2012-val-00046387.png,0.0,-0.19975121,3.2726214,-2.4553382
vit_b_16,1,210,NaN,elephant,boat,0,0210_sty_dnn_0_boat_00_boat-0053-ILSVRC2012-val-00005918.png,boat-0053-ILSVRC2012-val-00005918.png,0.0,0.06714034,3.1626673,-2.188868
vit_b_16,1,211,NaN,elephant,boat,0,0211_sty_dnn_0_boat_00_boat-0061-ILSVRC2012-val-00011292.png,boat-0061-ILSVRC2012-val-00011292.png,0.0,0.50724536,1.8595129,-0.95619756
vit_b_16,1,212,NaN,boat,boat,0,0212_sty_dnn_0_boat_00_boat-0064-ILSVRC2012-val-00013366.png,boat-0064-ILSVRC2012-val-00013366.png,1.0,1.8496956,1.1403011,0.5016176
vit_b_16,1,213,NaN,bottle,boat,0,0213_sty_dnn_0_boat_00_boat-0066-ILSVRC2012-val-00013961.png,boat-0066-ILSVRC2012-val-00013961.png,0.0,0.6646305,1.8098938,-0.8098236
vit_b_16,1,214,NaN,bottle,boat,0,0214_sty_dnn_0_boat_00_boat-0070-ILSVRC2012-val-00017026.png,boat-0070-ILSVRC2012-val-00017026.png,0.0,-0.19645031,1.670345,-1.3200237
vit_b_16,1,215,NaN,clock,boat,0,0215_sty_dnn_0_boat_00_boat-0073-ILSVRC2012-val-00018158.png,boat-0073-ILSVRC2012-val-00018158.png,0.0,0.5618855,1.2518209,-0.48785803
vit_b_16,1,216,NaN,knife,boat,0,0216_sty_dnn_0_boat_00_boat-0076-ILSVRC2012-val-00020486.png,boat-0076-ILSVRC2012-val-00020486.png,0.0,-0.5341002,2.1127043,-1.8715733
vit_b_16,1,217,NaN,boat,boat,0,0217_sty_dnn_0_boat_00_boat-0077-ILSVRC2012-val-00021948.png,boat-0077-ILSVRC2012-val-00021948.png,1.0,1.9325111,0.15608479,1.2561231
vit_b_16,1,218,NaN,clock,boat,0,0218_sty_dnn_0_boat_00_boat-0079-ILSVRC2012-val-00025681.png,boat-0079-ILSVRC2012-val-00025681.png,0.0,0.32314655,2.5872939,-1.6009939
vit_b_16,1,219,NaN,boat,boat,0,0219_sty_dnn_0_boat_00_boat-0082-ILSVRC2012-val-00027612.png,boat-0082-ILSVRC2012-val-00027612.png,1.0,1.9545857,0.82016134,0.80215913
vit_b_16,1,220,NaN,oven,boat,0,0220_sty_dnn_0_boat_00_boat-0083-ILSVRC2012-val-00034455.png,boat-0083-ILSVRC2012-val-00034455.png,0.0,0.53863716,1.2096311,-0.47446436
vit_b_16,1,221,NaN,oven,boat,0,0221_sty_dnn_0_boat_00_boat-0086-ILSVRC2012-val-00039559.png,boat-0086-ILSVRC2012-val-00039559.png,0.0,0.88643754,2.7849889,-1.3424785
vit_b_16,1,222,NaN,clock,boat,0,0222_sty_dnn_0_boat_00_boat-0098-ILSVRC2012-val-00047961.png,boat-0098-ILSVRC2012-val-00047961.png,0.0,1.0920128,4.4819083,-2.3970182
vit_b_16,1,223,NaN,chair,boat,0,0223_sty_dnn_0_boat_00_boat-0100-ILSVRC2012-val-00048371.png,boat-0100-ILSVRC2012-val-00048371.png,0.0,0.44629154,1.1376811,-0.48888627
vit_b_16,1,224,NaN,knife,boat,0,0224_sty_dnn_0_boat_00_boat-0103-ILSVRC2012-val-00002308.png,boat-0103-ILSVRC2012-val-00002308.png,0.0,0.4111875,2.0082984,-1.1293279
vit_b_16,1,225,NaN,boat,boat,0,0225_sty_dnn_0_boat_00_boat-0107-ILSVRC2012-val-00004492.png,boat-0107-ILSVRC2012-val-00004492.png,1.0,1.7390709,0.44374502,0.9159337
vit_b_16,1,226,NaN,boat,boat,0,0226_sty_dnn_0_boat_00_boat-0111-ILSVRC2012-val-00009680.png,boat-0111-ILSVRC2012-val-00009680.png,1.0,2.7754993,1.0177389,1.2429243
vit_b_16,1,227,NaN,boat,boat,0,0227_sty_dnn_0_boat_00_boat-0121-ILSVRC2012-val-00016970.png,boat-0121-ILSVRC2012-val-00016970.png,1.0,2.7708716,2.761732,0.0064626294
vit_b_16,1,228,NaN,oven,boat,0,0228_sty_dnn_0_boat_00_boat-0129-ILSVRC2012-val-00027504.png,boat-0129-ILSVRC2012-val-00027504.png,0.0,1.7122116,4.5130258,-1.9804747
vit_b_16,1,229,NaN,bottle,boat,0,0229_sty_dnn_0_boat_00_boat-0137-ILSVRC2012-val-00035374.png,boat-0137-ILSVRC2012-val-00035374.png,0.0,0.24330015,2.2560732,-1.4232454
vit_b_16,1,230,NaN,elephant,boat,0,0230_sty_dnn_0_boat_00_boat-0142-ILSVRC2012-val-00040889.png,boat-0142-ILSVRC2012-val-00040889.png,0.0,-0.27868575,1.4000499,-1.1870455
vit_b_16,1,231,NaN,clock,boat,0,0231_sty_dnn_0_boat_00_boat-0153-ILSVRC2012-val-00002696.png,boat-0153-ILSVRC2012-val-00002696.png,0.0,0.11226108,0.97807366,-0.61222196
vit_b_16,1,232,NaN,boat,boat,0,0232_sty_dnn_0_boat_00_boat-0160-ILSVRC2012-val-00008630.png,boat-0160-ILSVRC2012-val-00008630.png,1.0,3.4445052,1.3768429,1.4620581
vit_b_16,1,233,NaN,boat,boat,0,0233_sty_dnn_0_boat_00_boat-0165-ILSVRC2012-val-00014242.png,boat-0165-ILSVRC2012-val-00014242.png,1.0,1.49875,1.036921,0.32656237
vit_b_16,1,234,NaN,clock,boat,0,0234_sty_dnn_0_boat_00_boat-0169-ILSVRC2012-val-00019970.png,boat-0169-ILSVRC2012-val-00019970.png,0.0,-0.28810146,1.3701954,-1.172593
vit_b_16,1,235,NaN,boat,boat,0,0235_sty_dnn_0_boat_00_boat-0170-ILSVRC2012-val-00020353.png,boat-0170-ILSVRC2012-val-00020353.png,1.0,0.98520106,0.43586552,0.38843888
vit_b_16,1,236,NaN,bottle,boat,0,0236_sty_dnn_0_boat_00_boat-0172-ILSVRC2012-val-00020894.png,boat-0172-ILSVRC2012-val-00020894.png,0.0,-0.19000225,0.7068884,-0.6341975
vit_b_16,1,237,NaN,boat,boat,0,0237_sty_dnn_0_boat_00_boat-0179-ILSVRC2012-val-00026763.png,boat-0179-ILSVRC2012-val-00026763.png,1.0,2.22432,0.4634291,1.2451379
vit_b_16,1,238,NaN,elephant,boat,0,0238_sty_dnn_0_boat_00_boat-0181-ILSVRC2012-val-00031072.png,boat-0181-ILSVRC2012-val-00031072.png,0.0,-0.7140304,1.679801,-1.6926943
vit_b_16,1,239,NaN,boat,boat,0,0239_sty_dnn_0_boat_00_boat-0195-ILSVRC2012-val-00042203.png,boat-0195-ILSVRC2012-val-00042203.png,1.0,2.4353802,1.1269773,0.92518055
vit_b_16,1,240,NaN,bicycle,boat,0,0240_sty_dnn_0_boat_00_boat-0196-ILSVRC2012-val-00042675.png,boat-0196-ILSVRC2012-val-00042675.png,0.0,0.2440741,0.9524778,-0.5009171
vit_b_16,1,241,NaN,bottle,boat,0,0241_sty_dnn_0_boat_00_boat-0215-ILSVRC2012-val-00013403.png,boat-0215-ILSVRC2012-val-00013403.png,0.0,0.566595,0.89664376,-0.2333797
vit_b_16,1,242,NaN,boat,boat,0,0242_sty_dnn_0_boat_00_boat-0217-ILSVRC2012-val-00015089.png,boat-0217-ILSVRC2012-val-00015089.png,1.0,1.4348621,0.68466705,0.53046805
vit_b_16,1,243,NaN,clock,boat,0,0243_sty_dnn_0_boat_00_boat-0218-ILSVRC2012-val-00015121.png,boat-0218-ILSVRC2012-val-00015121.png,0.0,-0.056117892,0.93538636,-0.7010994
vit_b_16,1,244,NaN,oven,boat,0,0244_sty_dnn_0_boat_00_boat-0222-ILSVRC2012-val-00019246.png,boat-0222-ILSVRC2012-val-00019246.png,0.0,-0.11837399,1.4655367,-1.119994
vit_b_16,1,245,NaN,clock,boat,0,0245_sty_dnn_0_boat_00_boat-0223-ILSVRC2012-val-00020544.png,boat-0223-ILSVRC2012-val-00020544.png,0.0,0.42397198,1.4646376,-0.7358617
vit_b_16,1,246,NaN,knife,boat,0,0246_sty_dnn_0_boat_00_boat-0225-ILSVRC2012-val-00022075.png,boat-0225-ILSVRC2012-val-00022075.png,0.0,-0.5959744,0.5630809,-0.81957585
vit_b_16,1,247,NaN,boat,boat,0,0247_sty_dnn_0_boat_00_boat-0235-ILSVRC2012-val-00032371.png,boat-0235-ILSVRC2012-val-00032371.png,1.0,1.6540356,0.8085978,0.5978148
vit_b_16,1,248,NaN,knife,boat,0,0248_sty_dnn_0_boat_00_boat-0236-ILSVRC2012-val-00032584.png,boat-0236-ILSVRC2012-val-00032584.png,0.0,-0.3360048,3.0950656,-2.4261332
vit_b_16,1,249,NaN,bird,boat,0,0249_sty_dnn_0_boat_00_boat-0243-ILSVRC2012-val-00039131.png,boat-0243-ILSVRC2012-val-00039131.png,0.0,-0.039053403,1.2305619,-0.8977536
vit_b_16,1,250,NaN,boat,boat,0,0250_sty_dnn_0_boat_00_boat-0244-ILSVRC2012-val-00040974.png,boat-0244-ILSVRC2012-val-00040974.png,1.0,2.5216377,1.3167294,0.8519988
vit_b_16,1,251,NaN,oven,bottle,0,0251_sty_dnn_0_bottle_00_bottle-0002-ILSVRC2012-val-00002968.png,bottle-0002-ILSVRC2012-val-00002968.png,0.0,0.44913,0.9730468,-0.37046513
vit_b_16,1,252,NaN,bottle,bottle,0,0252_sty_dnn_0_bottle_00_bottle-0003-ILSVRC2012-val-00003622.png,bottle-0003-ILSVRC2012-val-00003622.png,1.0,3.981425,0.53797835,2.4348845
vit_b_16,1,253,NaN,clock,bottle,0,0253_sty_dnn_0_bottle_00_bottle-0005-ILSVRC2012-val-00004521.png,bottle-0005-ILSVRC2012-val-00004521.png,0.0,1.3664091,1.9980078,-0.44660774
vit_b_16,1,254,NaN,bottle,bottle,0,0254_sty_dnn_0_bottle_00_bottle-0006-ILSVRC2012-val-00004888.png,bottle-0006-ILSVRC2012-val-00004888.png,1.0,3.149921,0.5747745,1.8209035
vit_b_16,1,255,NaN,bottle,bottle,0,0255_sty_dnn_0_bottle_00_bottle-0011-ILSVRC2012-val-00009225.png,bottle-0011-ILSVRC2012-val-00009225.png,1.0,5.629657,0.5690185,3.5784118
vit_b_16,1,256,NaN,clock,bottle,0,0256_sty_dnn_0_bottle_00_bottle-0022-ILSVRC2012-val-00022396.png,bottle-0022-ILSVRC2012-val-00022396.png,0.0,0.71580696,1.5937592,-0.620806
vit_b_16,1,257,NaN,bottle,bottle,0,0257_sty_dnn_0_bottle_00_bottle-0030-ILSVRC2012-val-00032921.png,bottle-0030-ILSVRC2012-val-00032921.png,1.0,4.2641783,0.50226426,2.660075
vit_b_16,1,258,NaN,bird,bottle,0,0258_sty_dnn_0_bottle_00_bottle-0031-ILSVRC2012-val-00033822.png,bottle-0031-ILSVRC2012-val-00033822.png,0.0,0.51505667,0.9731363,-0.32391122
vit_b_16,1,259,NaN,bottle,bottle,0,0259_sty_dnn_0_bottle_00_bottle-0032-ILSVRC2012-val-00034979.png,bottle-0032-ILSVRC2012-val-00034979.png,1.0,2.464924,0.42948884,1.43927
vit_b_16,1,260,NaN,bottle,bottle,0,0260_sty_dnn_0_bottle_00_bottle-0037-ILSVRC2012-val-00036359.png,bottle-0037-ILSVRC2012-val-00036359.png,1.0,5.2705536,1.5276874,2.646606
vit_b_16,1,261,NaN,bottle,bottle,0,0261_sty_dnn_0_bottle_00_bottle-0039-ILSVRC2012-val-00038570.png,bottle-0039-ILSVRC2012-val-00038570.png,1.0,2.4342296,0.023610791,1.7045649
vit_b_16,1,262,NaN,oven,bottle,0,0262_sty_dnn_0_bottle_00_bottle-0047-ILSVRC2012-val-00044787.png,bottle-0047-ILSVRC2012-val-00044787.png,0.0,0.20845714,0.557205,-0.246602
vit_b_16,1,263,NaN,clock,bottle,0,0263_sty_dnn_0_bottle_00_bottle-0052-ILSVRC2012-val-00000252.png,bottle-0052-ILSVRC2012-val-00000252.png,0.0,1.4089097,1.5645698,-0.11006835
vit_b_16,1,264,NaN,bottle,bottle,0,0264_sty_dnn_0_bottle_00_bottle-0055-ILSVRC2012-val-00003066.png,bottle-0055-ILSVRC2012-val-00003066.png,1.0,4.7920003,1.0849029,2.6213138
vit_b_16,1,265,NaN,bottle,bottle,0,0265_sty_dnn_0_bottle_00_bottle-0057-ILSVRC2012-val-00005967.png,bottle-0057-ILSVRC2012-val-00005967.png,1.0,1.8667948,0.26829568,1.1303096
vit_b_16,1,266,NaN,bottle,bottle,0,0266_sty_dnn_0_bottle_00_bottle-0059-ILSVRC2012-val-00008984.png,bottle-0059-ILSVRC2012-val-00008984.png,1.0,1.7724413,1.7144777,0.040986463
vit_b_16,1,267,NaN,bottle,bottle,0,0267_sty_dnn_0_bottle_00_bottle-0066-ILSVRC2012-val-00016336.png,bottle-0066-ILSVRC2012-val-00016336.png,1.0,3.360168,2.0049918,0.9582543
vit_b_16,1,268,NaN,bottle,bottle,0,0268_sty_dnn_0_bottle_00_bottle-0085-ILSVRC2012-val-00036422.png,bottle-0085-ILSVRC2012-val-00036422.png,1.0,4.764934,0.14211774,3.2688246
vit_b_16,1,269,NaN,clock,bottle,0,0269_sty_dnn_0_bottle_00_bottle-0086-ILSVRC2012-val-00036795.png,bottle-0086-ILSVRC2012-val-00036795.png,0.0,0.10194479,2.9264972,-1.9972603
vit_b_16,1,270,NaN,bottle,bottle,0,0270_sty_dnn_0_bottle_00_bottle-0107-ILSVRC2012-val-00008313.png,bottle-0107-ILSVRC2012-val-00008313.png,1.0,3.1971467,2.1032631,0.77349246
vit_b_16,1,271,NaN,knife,bottle,0,0271_sty_dnn_0_bottle_00_bottle-0108-ILSVRC2012-val-00008437.png,bottle-0108-ILSVRC2012-val-00008437.png,0.0,1.2806022,1.8593224,-0.409217
vit_b_16,1,272,NaN,bottle,bottle,0,0272_sty_dnn_0_bottle_00_bottle-0126-ILSVRC2012-val-00022079.png,bottle-0126-ILSVRC2012-val-00022079.png,1.0,4.2202835,1.0003774,2.2768176
vit_b_16,1,273,NaN,bottle,bottle,0,0273_sty_dnn_0_bottle_00_bottle-0127-ILSVRC2012-val-00023580.png,bottle-0127-ILSVRC2012-val-00023580.png,1.0,3.024289,2.204685,0.5795475
vit_b_16,1,274,NaN,bottle,bottle,0,0274_sty_dnn_0_bottle_00_bottle-0138-ILSVRC2012-val-00032559.png,bottle-0138-ILSVRC2012-val-00032559.png,1.0,3.1673295,1.2376012,1.364524
vit_b_16,1,275,NaN,bottle,bottle,0,0275_sty_dnn_0_bottle_00_bottle-0153-ILSVRC2012-val-00003318.png,bottle-0153-ILSVRC2012-val-00003318.png,1.0,2.411732,0.36967754,1.4439505
vit_b_16,1,276,NaN,clock,bottle,0,0276_sty_dnn_0_bottle_00_bottle-0154-ILSVRC2012-val-00003340.png,bottle-0154-ILSVRC2012-val-00003340.png,0.0,0.73702353,1.1326383,-0.2797419
vit_b_16,1,277,NaN,knife,bottle,0,0277_sty_dnn_0_bottle_00_bottle-0170-ILSVRC2012-val-00020948.png,bottle-0170-ILSVRC2012-val-00020948.png,0.0,1.1520643,1.635301,-0.34169993
vit_b_16,1,278,NaN,bottle,bottle,0,0278_sty_dnn_0_bottle_00_bottle-0172-ILSVRC2012-val-00021707.png,bottle-0172-ILSVRC2012-val-00021707.png,1.0,1.2044413,0.48667416,0.507538
vit_b_16,1,279,NaN,clock,bottle,0,0279_sty_dnn_0_bottle_00_bottle-0180-ILSVRC2012-val-00027613.png,bottle-0180-ILSVRC2012-val-00027613.png,0.0,0.572853,1.7116632,-0.8052604
vit_b_16,1,280,NaN,elephant,bottle,0,0280_sty_dnn_0_bottle_00_bottle-0189-ILSVRC2012-val-00040070.png,bottle-0189-ILSVRC2012-val-00040070.png,0.0,-0.14227995,1.9743466,-1.496681
vit_b_16,1,281,NaN,bottle,bottle,0,0281_sty_dnn_0_bottle_00_bottle-0195-ILSVRC2012-val-00045644.png,bottle-0195-ILSVRC2012-val-00045644.png,1.0,3.1391315,2.1546178,0.6961564
vit_b_16,1,282,NaN,bottle,bottle,0,0282_sty_dnn_0_bottle_00_bottle-0204-ILSVRC2012-val-00002597.png,bottle-0204-ILSVRC2012-val-00002597.png,1.0,1.8386661,0.47211328,0.9662988
vit_b_16,1,283,NaN,elephant,bottle,0,0283_sty_dnn_0_bottle_00_bottle-0205-ILSVRC2012-val-00003263.png,bottle-0205-ILSVRC2012-val-00003263.png,0.0,0.4416891,0.75007427,-0.21806124
vit_b_16,1,284,NaN,bottle,bottle,0,0284_sty_dnn_0_bottle_00_bottle-0214-ILSVRC2012-val-00012572.png,bottle-0214-ILSVRC2012-val-00012572.png,1.0,1.68634,0.96051794,0.51323366
vit_b_16,1,285,NaN,bottle,bottle,0,0285_sty_dnn_0_bottle_00_bottle-0216-ILSVRC2012-val-00013262.png,bottle-0216-ILSVRC2012-val-00013262.png,1.0,1.7732327,0.73109454,0.73690295
vit_b_16,1,286,NaN,bottle,bottle,0,0286_sty_dnn_0_bottle_00_bottle-0218-ILSVRC2012-val-00013667.png,bottle-0218-ILSVRC2012-val-00013667.png,1.0,2.7680016,1.3617738,0.9943532
vit_b_16,1,287,NaN,bottle,bottle,0,0287_sty_dnn_0_bottle_00_bottle-0220-ILSVRC2012-val-00014146.png,bottle-0220-ILSVRC2012-val-00014146.png,1.0,2.4148147,0.65549105,1.2440296
vit_b_16,1,288,NaN,airplane,bottle,0,0288_sty_dnn_0_bottle_00_bottle-0222-ILSVRC2012-val-00018657.png,bottle-0222-ILSVRC2012-val-00018657.png,0.0,0.9144716,1.530232,-0.43540832
vit_b_16,1,289,NaN,elephant,bottle,0,0289_sty_dnn_0_bottle_00_bottle-0224-ILSVRC2012-val-00020102.png,bottle-0224-ILSVRC2012-val-00020102.png,0.0,0.59656256,0.91485494,-0.2250667
vit_b_16,1,290,NaN,oven,bottle,0,0290_sty_dnn_0_bottle_00_bottle-0233-ILSVRC2012-val-00031504.png,bottle-0233-ILSVRC2012-val-00031504.png,0.0,-0.1021366,3.2500782,-2.370374
vit_b_16,1,291,NaN,bottle,bottle,0,0291_sty_dnn_0_bottle_00_bottle-0243-ILSVRC2012-val-00040157.png,bottle-0243-ILSVRC2012-val-00040157.png,1.0,1.9972736,0.31996244,1.1860381
vit_b_16,1,292,NaN,bottle,bottle,0,0292_sty_dnn_0_bottle_00_bottle-0254-ILSVRC2012-val-00005933.png,bottle-0254-ILSVRC2012-val-00005933.png,1.0,1.3307564,0.4800706,0.6015257
vit_b_16,1,293,NaN,bottle,bottle,0,0293_sty_dnn_0_bottle_00_bottle-0283-ILSVRC2012-val-00036864.png,bottle-0283-ILSVRC2012-val-00036864.png,1.0,1.7396023,0.37219548,0.9669027
vit_b_16,1,294,NaN,bottle,bottle,0,0294_sty_dnn_0_bottle_00_bottle-0294-ILSVRC2012-val-00044222.png,bottle-0294-ILSVRC2012-val-00044222.png,1.0,3.43578,0.54384416,2.0449076
vit_b_16,1,295,NaN,airplane,bottle,0,0295_sty_dnn_0_bottle_00_bottle-0296-ILSVRC2012-val-00044906.png,bottle-0296-ILSVRC2012-val-00044906.png,0.0,0.78793496,0.97166073,-0.12991375
vit_b_16,1,296,NaN,bottle,bottle,0,0296_sty_dnn_0_bottle_00_bottle-0325-ILSVRC2012-val-00027316.png,bottle-0325-ILSVRC2012-val-00027316.png,1.0,3.5829227,0.76461476,1.9928447
vit_b_16,1,297,NaN,bottle,bottle,0,0297_sty_dnn_0_bottle_00_bottle-0331-ILSVRC2012-val-00033990.png,bottle-0331-ILSVRC2012-val-00033990.png,1.0,3.384872,0.612026,1.9606982
vit_b_16,1,298,NaN,bottle,bottle,0,0298_sty_dnn_0_bottle_00_bottle-0334-ILSVRC2012-val-00036776.png,bottle-0334-ILSVRC2012-val-00036776.png,1.0,4.793281,1.899752,2.0460339
vit_b_16,1,299,NaN,bottle,bottle,0,0299_sty_dnn_0_bottle_00_bottle-0345-ILSVRC2012-val-00044614.png,bottle-0345-ILSVRC2012-val-00044614.png,1.0,3.570804,2.1054316,1.0361749
vit_b_16,1,300,NaN,knife,bottle,0,0300_sty_dnn_0_bottle_00_bottle-0347-ILSVRC2012-val-00048539.png,bottle-0347-ILSVRC2012-val-00048539.png,0.0,1.0732056,1.3239746,-0.17732048
vit_b_16,1,301,NaN,clock,car,0,0301_sty_dnn_0_car_00_car-0001-ILSVRC2012-val-00000175.png,car-0001-ILSVRC2012-val-00000175.png,0.0,-0.33586565,1.0148848,-0.9551248
vit_b_16,1,302,NaN,car,car,0,0302_sty_dnn_0_car_00_car-0004-ILSVRC2012-val-00006084.png,car-0004-ILSVRC2012-val-00006084.png,1.0,5.1291556,1.0108279,2.9120975
vit_b_16,1,303,NaN,car,car,0,0303_sty_dnn_0_car_00_car-0005-ILSVRC2012-val-00006220.png,car-0005-ILSVRC2012-val-00006220.png,1.0,5.2149177,0.81051016,3.1143866
vit_b_16,1,304,NaN,car,car,0,0304_sty_dnn_0_car_00_car-0010-ILSVRC2012-val-00012600.png,car-0010-ILSVRC2012-val-00012600.png,1.0,2.6999285,2.0567405,0.4548026
vit_b_16,1,305,NaN,bottle,car,0,0305_sty_dnn_0_car_00_car-0012-ILSVRC2012-val-00014447.png,car-0012-ILSVRC2012-val-00014447.png,0.0,-0.5449665,0.54097944,-0.7678798
vit_b_16,1,306,NaN,car,car,0,0306_sty_dnn_0_car_00_car-0013-ILSVRC2012-val-00014541.png,car-0013-ILSVRC2012-val-00014541.png,1.0,3.1682186,1.7750368,0.98512834
vit_b_16,1,307,NaN,car,car,0,0307_sty_dnn_0_car_00_car-0018-ILSVRC2012-val-00018138.png,car-0018-ILSVRC2012-val-00018138.png,1.0,6.3949714,1.11021,3.7368908
vit_b_16,1,308,NaN,car,car,0,0308_sty_dnn_0_car_00_car-0019-ILSVRC2012-val-00018335.png,car-0019-ILSVRC2012-val-00018335.png,1.0,5.841249,2.7215962,2.2059276
vit_b_16,1,309,NaN,car,car,0,0309_sty_dnn_0_car_00_car-0021-ILSVRC2012-val-00019695.png,car-0021-ILSVRC2012-val-00019695.png,1.0,6.207111,1.6184276,3.244689
vit_b_16,1,310,NaN,bottle,car,0,0310_sty_dnn_0_car_00_car-0024-ILSVRC2012-val-00023221.png,car-0024-ILSVRC2012-val-00023221.png,0.0,-0.43916416,1.5503906,-1.4068277
vit_b_16,1,311,NaN,car,car,0,0311_sty_dnn_0_car_00_car-0025-ILSVRC2012-val-00023474.png,car-0025-ILSVRC2012-val-00023474.png,1.0,3.0483387,1.2594999,1.2649
vit_b_16,1,312,NaN,car,car,0,0312_sty_dnn_0_car_00_car-0028-ILSVRC2012-val-00027049.png,car-0028-ILSVRC2012-val-00027049.png,1.0,4.5167766,1.4523239,2.1668954
vit_b_16,1,313,NaN,car,car,0,0313_sty_dnn_0_car_00_car-0029-ILSVRC2012-val-00027081.png,car-0029-ILSVRC2012-val-00027081.png,1.0,5.7444444,0.5959643,3.640525
vit_b_16,1,314,NaN,car,car,0,0314_sty_dnn_0_car_00_car-0030-ILSVRC2012-val-00029057.png,car-0030-ILSVRC2012-val-00029057.png,1.0,2.1978047,1.5204585,0.47895613
vit_b_16,1,315,NaN,car,car,0,0315_sty_dnn_0_car_00_car-0032-ILSVRC2012-val-00030834.png,car-0032-ILSVRC2012-val-00030834.png,1.0,2.939417,2.5023808,0.30903116
vit_b_16,1,316,NaN,car,car,0,0316_sty_dnn_0_car_00_car-0041-ILSVRC2012-val-00040706.png,car-0041-ILSVRC2012-val-00040706.png,1.0,6.07416,1.3575939,3.335116
vit_b_16,1,317,NaN,car,car,0,0317_sty_dnn_0_car_00_car-0045-ILSVRC2012-val-00042416.png,car-0045-ILSVRC2012-val-00042416.png,1.0,3.6613245,2.8016331,0.6078936
vit_b_16,1,318,NaN,bottle,car,0,0318_sty_dnn_0_car_00_car-0050-ILSVRC2012-val-00048556.png,car-0050-ILSVRC2012-val-00048556.png,0.0,-0.15417562,0.9068944,-0.7502898
vit_b_16,1,319,NaN,bottle,car,0,0319_sty_dnn_0_car_00_car-0052-ILSVRC2012-val-00004387.png,car-0052-ILSVRC2012-val-00004387.png,0.0,-0.16572903,0.9094089,-0.76023734
vit_b_16,1,320,NaN,car,car,0,0320_sty_dnn_0_car_00_car-0053-ILSVRC2012-val-00004685.png,car-0053-ILSVRC2012-val-00004685.png,1.0,1.8903722,1.5650185,0.23005976
vit_b_16,1,321,NaN,knife,car,0,0321_sty_dnn_0_car_00_car-0054-ILSVRC2012-val-00005500.png,car-0054-ILSVRC2012-val-00005500.png,0.0,1.3370022,1.5969722,-0.1838266
vit_b_16,1,322,NaN,knife,car,0,0322_sty_dnn_0_car_00_car-0058-ILSVRC2012-val-00010676.png,car-0058-ILSVRC2012-val-00010676.png,0.0,0.25990042,0.5370702,-0.19598864
vit_b_16,1,323,NaN,car,car,0,0323_sty_dnn_0_car_00_car-0059-ILSVRC2012-val-00014010.png,car-0059-ILSVRC2012-val-00014010.png,1.0,4.036101,3.1518202,0.62528086
vit_b_16,1,324,NaN,car,car,0,0324_sty_dnn_0_car_00_car-0060-ILSVRC2012-val-00014208.png,car-0060-ILSVRC2012-val-00014208.png,1.0,4.990929,0.9803517,2.8359063
vit_b_16,1,325,NaN,car,car,0,0325_sty_dnn_0_car_00_car-0064-ILSVRC2012-val-00016337.png,car-0064-ILSVRC2012-val-00016337.png,1.0,3.0823593,2.7958047,0.2026247
vit_b_16,1,326,NaN,car,car,0,0326_sty_dnn_0_car_00_car-0065-ILSVRC2012-val-00016613.png,car-0065-ILSVRC2012-val-00016613.png,1.0,6.3271527,3.0220184,2.3370829
vit_b_16,1,327,NaN,car,car,0,0327_sty_dnn_0_car_00_car-0066-ILSVRC2012-val-00018249.png,car-0066-ILSVRC2012-val-00018249.png,1.0,4.8656507,0.7481606,2.911505
vit_b_16,1,328,NaN,car,car,0,0328_sty_dnn_0_car_00_car-0067-ILSVRC2012-val-00018569.png,car-0067-ILSVRC2012-val-00018569.png,1.0,6.3331122,0.115912095,4.3962245
vit_b_16,1,329,NaN,car,car,0,0329_sty_dnn_0_car_00_car-0069-ILSVRC2012-val-00019647.png,car-0069-ILSVRC2012-val-00019647.png,1.0,1.9002146,1.2469832,0.46190435
vit_b_16,1,330,NaN,car,car,0,0330_sty_dnn_0_car_00_car-0079-ILSVRC2012-val-00025028.png,car-0079-ILSVRC2012-val-00025028.png,1.0,6.172291,0.42601013,4.0632343
vit_b_16,1,331,NaN,car,car,0,0331_sty_dnn_0_car_00_car-0082-ILSVRC2012-val-00027293.png,car-0082-ILSVRC2012-val-00027293.png,1.0,1.8617139,1.7917976,0.049438253
vit_b_16,1,332,NaN,car,car,0,0332_sty_dnn_0_car_00_car-0083-ILSVRC2012-val-00027508.png,car-0083-ILSVRC2012-val-00027508.png,1.0,2.287957,0.8599203,1.0097744
vit_b_16,1,333,NaN,clock,car,0,0333_sty_dnn_0_car_00_car-0086-ILSVRC2012-val-00029454.png,car-0086-ILSVRC2012-val-00029454.png,0.0,-0.21020752,1.8282143,-1.4413819
vit_b_16,1,334,NaN,car,car,0,0334_sty_dnn_0_car_00_car-0087-ILSVRC2012-val-00031558.png,car-0087-ILSVRC2012-val-00031558.png,1.0,6.410257,0.9989908,3.8263433
vit_b_16,1,335,NaN,car,car,0,0335_sty_dnn_0_car_00_car-0091-ILSVRC2012-val-00036091.png,car-0091-ILSVRC2012-val-00036091.png,1.0,4.796602,3.2533464,1.0912464
vit_b_16,1,336,NaN,car,car,0,0336_sty_dnn_0_car_00_car-0093-ILSVRC2012-val-00038956.png,car-0093-ILSVRC2012-val-00038956.png,1.0,6.443535,0.96596897,3.873224
vit_b_16,1,337,NaN,car,car,0,0337_sty_dnn_0_car_00_car-0095-ILSVRC2012-val-00041430.png,car-0095-ILSVRC2012-val-00041430.png,1.0,3.8218472,2.7560897,0.75360435
vit_b_16,1,338,NaN,car,car,0,0338_sty_dnn_0_car_00_car-0096-ILSVRC2012-val-00043824.png,car-0096-ILSVRC2012-val-00043824.png,1.0,2.2726994,0.9969096,0.9021196
vit_b_16,1,339,NaN,car,car,0,0339_sty_dnn_0_car_00_car-0103-ILSVRC2012-val-00003478.png,car-0103-ILSVRC2012-val-00003478.png,1.0,5.2006536,1.4459708,2.6549616
vit_b_16,1,340,NaN,car,car,0,0340_sty_dnn_0_car_00_car-0106-ILSVRC2012-val-00004868.png,car-0106-ILSVRC2012-val-00004868.png,1.0,4.118233,2.31678,1.2738197
vit_b_16,1,341,NaN,car,car,0,0341_sty_dnn_0_car_00_car-0110-ILSVRC2012-val-00006285.png,car-0110-ILSVRC2012-val-00006285.png,1.0,6.6819153,0.5580924,4.330197
vit_b_16,1,342,NaN,knife,car,0,0342_sty_dnn_0_car_00_car-0111-ILSVRC2012-val-00007125.png,car-0111-ILSVRC2012-val-00007125.png,0.0,-1.0273758,4.8763833,-4.174588
vit_b_16,1,343,NaN,car,car,0,0343_sty_dnn_0_car_00_car-0117-ILSVRC2012-val-00010983.png,car-0117-ILSVRC2012-val-00010983.png,1.0,2.731388,1.3226304,0.99614215
vit_b_16,1,344,NaN,car,car,0,0344_sty_dnn_0_car_00_car-0118-ILSVRC2012-val-00012327.png,car-0118-ILSVRC2012-val-00012327.png,1.0,3.7767107,1.353478,1.7134844
vit_b_16,1,345,NaN,clock,car,0,0345_sty_dnn_0_car_00_car-0121-ILSVRC2012-val-00016638.png,car-0121-ILSVRC2012-val-00016638.png,0.0,1.697733,2.5535715,-0.6051692
vit_b_16,1,346,NaN,car,car,0,0346_sty_dnn_0_car_00_car-0134-ILSVRC2012-val-00032944.png,car-0134-ILSVRC2012-val-00032944.png,1.0,3.8582306,0.59262127,2.3091345
vit_b_16,1,347,NaN,bicycle,car,0,0347_sty_dnn_0_car_00_car-0139-ILSVRC2012-val-00037952.png,car-0139-ILSVRC2012-val-00037952.png,0.0,-0.66186124,1.4195123,-1.4717534
vit_b_16,1,348,NaN,car,car,0,0348_sty_dnn_0_car_00_car-0145-ILSVRC2012-val-00041626.png,car-0145-ILSVRC2012-val-00041626.png,1.0,4.396139,1.6581998,1.9360155
vit_b_16,1,349,NaN,car,car,0,0349_sty_dnn_0_car_00_car-0146-ILSVRC2012-val-00043297.png,car-0146-ILSVRC2012-val-00043297.png,1.0,1.5404421,1.3247559,0.15251318
vit_b_16,1,350,NaN,car,car,0,0350_sty_dnn_0_car_00_car-0149-ILSVRC2012-val-00049427.png,car-0149-ILSVRC2012-val-00049427.png,1.0,5.121867,1.3991959,2.6323261
vit_b_16,1,351,NaN,cat,cat,0,0351_sty_dnn_0_cat_00_cat-0005-ILSVRC2012-val-00005358.png,cat-0005-ILSVRC2012-val-00005358.png,1.0,3.3995132,0.6254459,1.9615619
vit_b_16,1,352,NaN,clock,cat,0,0352_sty_dnn_0_cat_00_cat-0012-ILSVRC2012-val-00012377.png,cat-0012-ILSVRC2012-val-00012377.png,0.0,0.4810842,0.7482438,-0.18891038
vit_b_16,1,353,NaN,cat,cat,0,0353_sty_dnn_0_cat_00_cat-0031-ILSVRC2012-val-00030706.png,cat-0031-ILSVRC2012-val-00030706.png,1.0,4.248813,0.899352,2.3684268
vit_b_16,1,354,NaN,cat,cat,0,0354_sty_dnn_0_cat_00_cat-0032-ILSVRC2012-val-00033420.png,cat-0032-ILSVRC2012-val-00033420.png,1.0,3.8537464,1.364869,1.759902
vit_b_16,1,355,NaN,cat,cat,0,0355_sty_dnn_0_cat_00_cat-0034-ILSVRC2012-val-00033837.png,cat-0034-ILSVRC2012-val-00033837.png,1.0,2.434137,0.8196648,1.1416044
vit_b_16,1,356,NaN,cat,cat,0,0356_sty_dnn_0_cat_00_cat-0042-ILSVRC2012-val-00040238.png,cat-0042-ILSVRC2012-val-00040238.png,1.0,3.9660063,1.9587574,1.4193393
vit_b_16,1,357,NaN,cat,cat,0,0357_sty_dnn_0_cat_00_cat-0045-ILSVRC2012-val-00041570.png,cat-0045-ILSVRC2012-val-00041570.png,1.0,3.931422,0.5543035,2.3879836
vit_b_16,1,358,NaN,cat,cat,0,0358_sty_dnn_0_cat_00_cat-0050-ILSVRC2012-val-00047911.png,cat-0050-ILSVRC2012-val-00047911.png,1.0,3.701926,0.9109142,1.9735434
vit_b_16,1,359,NaN,clock,cat,0,0359_sty_dnn_0_cat_00_cat-0054-ILSVRC2012-val-00003295.png,cat-0054-ILSVRC2012-val-00003295.png,0.0,-0.71260566,0.94875914,-1.1747624
vit_b_16,1,360,NaN,cat,cat,0,0360_sty_dnn_0_cat_00_cat-0056-ILSVRC2012-val-00007676.png,cat-0056-ILSVRC2012-val-00007676.png,1.0,4.517219,0.48915738,2.84827
vit_b_16,1,361,NaN,clock,cat,0,0361_sty_dnn_0_cat_00_cat-0062-ILSVRC2012-val-00013788.png,cat-0062-ILSVRC2012-val-00013788.png,0.0,-0.22393347,1.0997024,-0.9359519
vit_b_16,1,362,NaN,knife,cat,0,0362_sty_dnn_0_cat_00_cat-0064-ILSVRC2012-val-00014860.png,cat-0064-ILSVRC2012-val-00014860.png,0.0,0.1428506,2.8098707,-1.8858681
vit_b_16,1,363,NaN,bottle,cat,0,0363_sty_dnn_0_cat_00_cat-0069-ILSVRC2012-val-00016399.png,cat-0069-ILSVRC2012-val-00016399.png,0.0,0.519766,0.9682682,-0.31713897
vit_b_16,1,364,NaN,cat,cat,0,0364_sty_dnn_0_cat_00_cat-0072-ILSVRC2012-val-00019303.png,cat-0072-ILSVRC2012-val-00019303.png,1.0,3.059726,2.2450733,0.57604647
vit_b_16,1,365,NaN,cat,cat,0,0365_sty_dnn_0_cat_00_cat-0073-ILSVRC2012-val-00020140.png,cat-0073-ILSVRC2012-val-00020140.png,1.0,3.6239955,0.92111766,1.9112234
vit_b_16,1,366,NaN,clock,cat,0,0366_sty_dnn_0_cat_00_cat-0082-ILSVRC2012-val-00025723.png,cat-0082-ILSVRC2012-val-00025723.png,0.0,0.32392576,1.3115511,-0.6983566
vit_b_16,1,367,NaN,cat,cat,0,0367_sty_dnn_0_cat_00_cat-0092-ILSVRC2012-val-00039621.png,cat-0092-ILSVRC2012-val-00039621.png,1.0,4.0886464,0.6287515,2.446515
vit_b_16,1,368,NaN,cat,cat,0,0368_sty_dnn_0_cat_00_cat-0096-ILSVRC2012-val-00045420.png,cat-0096-ILSVRC2012-val-00045420.png,1.0,3.3069184,0.9042444,1.6989471
vit_b_16,1,369,NaN,clock,cat,0,0369_sty_dnn_0_cat_00_cat-0108-ILSVRC2012-val-00002967.png,cat-0108-ILSVRC2012-val-00002967.png,0.0,0.03505227,1.0261263,-0.7007951
vit_b_16,1,370,NaN,cat,cat,0,0370_sty_dnn_0_cat_00_cat-0110-ILSVRC2012-val-00004411.png,cat-0110-ILSVRC2012-val-00004411.png,1.0,2.6317384,1.5502269,0.7647441
vit_b_16,1,371,NaN,cat,cat,0,0371_sty_dnn_0_cat_00_cat-0113-ILSVRC2012-val-00007808.png,cat-0113-ILSVRC2012-val-00007808.png,1.0,1.9956388,1.0943501,0.6373074
vit_b_16,1,372,NaN,cat,cat,0,0372_sty_dnn_0_cat_00_cat-0118-ILSVRC2012-val-00010218.png,cat-0118-ILSVRC2012-val-00010218.png,1.0,4.2490582,1.0905057,2.233434
vit_b_16,1,373,NaN,bear,cat,0,0373_sty_dnn_0_cat_00_cat-0123-ILSVRC2012-val-00014813.png,cat-0123-ILSVRC2012-val-00014813.png,0.0,0.013406021,0.7811046,-0.5428449
vit_b_16,1,374,NaN,clock,cat,0,0374_sty_dnn_0_cat_00_cat-0133-ILSVRC2012-val-00023898.png,cat-0133-ILSVRC2012-val-00023898.png,0.0,0.21845053,1.4894227,-0.89871305
vit_b_16,1,375,NaN,bottle,cat,0,0375_sty_dnn_0_cat_00_cat-0137-ILSVRC2012-val-00027906.png,cat-0137-ILSVRC2012-val-00027906.png,0.0,2.5518513,3.4727798,-0.6511948
vit_b_16,1,376,NaN,cat,cat,0,0376_sty_dnn_0_cat_00_cat-0147-ILSVRC2012-val-00041347.png,cat-0147-ILSVRC2012-val-00041347.png,1.0,3.295698,0.51715463,1.9647268
vit_b_16,1,377,NaN,clock,cat,0,0377_sty_dnn_0_cat_00_cat-0150-ILSVRC2012-val-00049996.png,cat-0150-ILSVRC2012-val-00049996.png,0.0,-0.32090563,1.0656842,-0.980467
vit_b_16,1,378,NaN,cat,cat,0,0378_sty_dnn_0_cat_00_cat-0160-ILSVRC2012-val-00011528.png,cat-0160-ILSVRC2012-val-00011528.png,1.0,1.2607944,0.4926062,0.54319113
vit_b_16,1,379,NaN,chair,cat,0,0379_sty_dnn_0_cat_00_cat-0162-ILSVRC2012-val-00012173.png,cat-0162-ILSVRC2012-val-00012173.png,0.0,-0.32418942,1.1453136,-1.0390956
vit_b_16,1,380,NaN,clock,cat,0,0380_sty_dnn_0_cat_00_cat-0165-ILSVRC2012-val-00017325.png,cat-0165-ILSVRC2012-val-00017325.png,0.0,-0.22171603,1.0810417,-0.92118883
vit_b_16,1,381,NaN,airplane,cat,0,0381_sty_dnn_0_cat_00_cat-0169-ILSVRC2012-val-00020688.png,cat-0169-ILSVRC2012-val-00020688.png,0.0,-0.1974343,2.4793434,-1.8927678
vit_b_16,1,382,NaN,bottle,cat,0,0382_sty_dnn_0_cat_00_cat-0185-ILSVRC2012-val-00038168.png,cat-0185-ILSVRC2012-val-00038168.png,0.0,-0.5023456,2.7753122,-2.3176541
vit_b_16,1,383,NaN,cat,cat,0,0383_sty_dnn_0_cat_00_cat-0186-ILSVRC2012-val-00039580.png,cat-0186-ILSVRC2012-val-00039580.png,1.0,3.2914584,0.476928,1.9901736
vit_b_16,1,384,NaN,chair,cat,0,0384_sty_dnn_0_cat_00_cat-0189-ILSVRC2012-val-00040854.png,cat-0189-ILSVRC2012-val-00040854.png,0.0,0.15111235,2.5601854,-1.703472
vit_b_16,1,385,NaN,cat,cat,0,0385_sty_dnn_0_cat_00_cat-0202-ILSVRC2012-val-00001496.png,cat-0202-ILSVRC2012-val-00001496.png,1.0,3.780141,1.0848178,1.9058815
vit_b_16,1,386,NaN,cat,cat,0,0386_sty_dnn_0_cat_00_cat-0234-ILSVRC2012-val-00028970.png,cat-0234-ILSVRC2012-val-00028970.png,1.0,4.3627787,0.69362986,2.59448
vit_b_16,1,387,NaN,chair,cat,0,0387_sty_dnn_0_cat_00_cat-0236-ILSVRC2012-val-00031185.png,cat-0236-ILSVRC2012-val-00031185.png,0.0,-0.33225098,0.55353206,-0.62634325
vit_b_16,1,388,NaN,clock,cat,0,0388_sty_dnn_0_cat_00_cat-0238-ILSVRC2012-val-00033582.png,cat-0238-ILSVRC2012-val-00033582.png,0.0,-0.039165273,2.062839,-1.4863415
vit_b_16,1,389,NaN,cat,cat,0,0389_sty_dnn_0_cat_00_cat-0242-ILSVRC2012-val-00040192.png,cat-0242-ILSVRC2012-val-00040192.png,1.0,3.8223784,0.7555369,2.1685846
vit_b_16,1,390,NaN,bear,cat,0,0390_sty_dnn_0_cat_00_cat-0243-ILSVRC2012-val-00040600.png,cat-0243-ILSVRC2012-val-00040600.png,0.0,2.483977,3.5124393,-0.7272326
vit_b_16,1,391,NaN,cat,cat,0,0391_sty_dnn_0_cat_00_cat-0247-ILSVRC2012-val-00044374.png,cat-0247-ILSVRC2012-val-00044374.png,1.0,5.199258,0.42229992,3.3778195
vit_b_16,1,392,NaN,cat,cat,0,0392_sty_dnn_0_cat_00_cat-0258-ILSVRC2012-val-00006112.png,cat-0258-ILSVRC2012-val-00006112.png,1.0,2.4139872,1.4292318,0.6963272
vit_b_16,1,393,NaN,clock,cat,0,0393_sty_dnn_0_cat_00_cat-0260-ILSVRC2012-val-00006612.png,cat-0260-ILSVRC2012-val-00006612.png,0.0,-0.38584056,1.6929063,-1.469896
vit_b_16,1,394,NaN,oven,cat,0,0394_sty_dnn_0_cat_00_cat-0264-ILSVRC2012-val-00010823.png,cat-0264-ILSVRC2012-val-00010823.png,0.0,0.7372107,1.2807542,-0.38434333
vit_b_16,1,395,NaN,cat,cat,0,0395_sty_dnn_0_cat_00_cat-0270-ILSVRC2012-val-00017189.png,cat-0270-ILSVRC2012-val-00017189.png,1.0,5.3259206,0.14066419,3.6665301
vit_b_16,1,396,NaN,airplane,cat,0,0396_sty_dnn_0_cat_00_cat-0274-ILSVRC2012-val-00019370.png,cat-0274-ILSVRC2012-val-00019370.png,0.0,0.3264834,2.1073608,-1.2592705
vit_b_16,1,397,NaN,clock,cat,0,0397_sty_dnn_0_cat_00_cat-0284-ILSVRC2012-val-00027069.png,cat-0284-ILSVRC2012-val-00027069.png,0.0,0.30977383,1.1334275,-0.5824111
vit_b_16,1,398,NaN,chair,cat,0,0398_sty_dnn_0_cat_00_cat-0291-ILSVRC2012-val-00035821.png,cat-0291-ILSVRC2012-val-00035821.png,0.0,0.19716369,0.9703138,-0.5466997
vit_b_16,1,399,NaN,knife,cat,0,0399_sty_dnn_0_cat_00_cat-0294-ILSVRC2012-val-00037633.png,cat-0294-ILSVRC2012-val-00037633.png,0.0,0.24506463,1.0696087,-0.5830407
vit_b_16,1,400,NaN,oven,cat,0,0400_sty_dnn_0_cat_00_cat-0298-ILSVRC2012-val-00042529.png,cat-0298-ILSVRC2012-val-00042529.png,0.0,-0.37206218,0.6057438,-0.6914132
vit_b_16,1,401,NaN,chair,chair,0,0401_sty_dnn_0_chair_00_chair-0006-ILSVRC2012-val-00004679.png,chair-0006-ILSVRC2012-val-00004679.png,1.0,0.65234154,0.38176993,0.19132303
vit_b_16,1,402,NaN,bottle,chair,0,0402_sty_dnn_0_chair_00_chair-0018-ILSVRC2012-val-00013838.png,chair-0018-ILSVRC2012-val-00013838.png,0.0,0.95671135,1.7642381,-0.57100767
vit_b_16,1,403,NaN,chair,chair,0,0403_sty_dnn_0_chair_00_chair-0022-ILSVRC2012-val-00016403.png,chair-0022-ILSVRC2012-val-00016403.png,1.0,2.9915426,0.5436804,1.7308999
vit_b_16,1,404,NaN,elephant,chair,0,0404_sty_dnn_0_chair_00_chair-0024-ILSVRC2012-val-00021099.png,chair-0024-ILSVRC2012-val-00021099.png,0.0,-0.47010362,3.4589906,-2.7782893
vit_b_16,1,405,NaN,chair,chair,0,0405_sty_dnn_0_chair_00_chair-0030-ILSVRC2012-val-00026896.png,chair-0030-ILSVRC2012-val-00026896.png,1.0,2.5033772,1.4615167,0.7367066
vit_b_16,1,406,NaN,clock,chair,0,0406_sty_dnn_0_chair_00_chair-0033-ILSVRC2012-val-00031805.png,chair-0033-ILSVRC2012-val-00031805.png,0.0,0.17460027,1.8059177,-1.1535157
vit_b_16,1,407,NaN,bottle,chair,0,0407_sty_dnn_0_chair_00_chair-0039-ILSVRC2012-val-00041772.png,chair-0039-ILSVRC2012-val-00041772.png,0.0,-0.23420897,1.3740178,-1.1371881
vit_b_16,1,408,NaN,oven,chair,0,0408_sty_dnn_0_chair_00_chair-0040-ILSVRC2012-val-00042512.png,chair-0040-ILSVRC2012-val-00042512.png,0.0,-0.41120037,2.2220147,-1.8619642
vit_b_16,1,409,NaN,bottle,chair,0,0409_sty_dnn_0_chair_00_chair-0045-ILSVRC2012-val-00044898.png,chair-0045-ILSVRC2012-val-00044898.png,0.0,0.39677942,0.71248657,-0.22323866
vit_b_16,1,410,NaN,bottle,chair,0,0410_sty_dnn_0_chair_00_chair-0047-ILSVRC2012-val-00045407.png,chair-0047-ILSVRC2012-val-00045407.png,0.0,1.0127363,1.7354412,-0.51102954
vit_b_16,1,411,NaN,oven,chair,0,0411_sty_dnn_0_chair_00_chair-0050-ILSVRC2012-val-00049050.png,chair-0050-ILSVRC2012-val-00049050.png,0.0,0.18856558,1.6264359,-1.0167278
vit_b_16,1,412,NaN,bottle,chair,0,0412_sty_dnn_0_chair_00_chair-0051-ILSVRC2012-val-00001616.png,chair-0051-ILSVRC2012-val-00001616.png,0.0,-0.47632986,2.3533955,-2.000918
vit_b_16,1,413,NaN,elephant,chair,0,0413_sty_dnn_0_chair_00_chair-0053-ILSVRC2012-val-00001855.png,chair-0053-ILSVRC2012-val-00001855.png,0.0,-0.043883763,2.655972,-1.9090863
vit_b_16,1,414,NaN,chair,chair,0,0414_sty_dnn_0_chair_00_chair-0058-ILSVRC2012-val-00005926.png,chair-0058-ILSVRC2012-val-00005926.png,1.0,2.3376925,0.17222825,1.5312145
vit_b_16,1,415,NaN,car,chair,0,0415_sty_dnn_0_chair_00_chair-0059-ILSVRC2012-val-00006022.png,chair-0059-ILSVRC2012-val-00006022.png,0.0,0.7551863,1.0935327,-0.23924701
vit_b_16,1,416,NaN,boat,chair,0,0416_sty_dnn_0_chair_00_chair-0072-ILSVRC2012-val-00015559.png,chair-0072-ILSVRC2012-val-00015559.png,0.0,0.2966252,1.7013344,-0.99327934
vit_b_16,1,417,NaN,chair,chair,0,0417_sty_dnn_0_chair_00_chair-0081-ILSVRC2012-val-00033069.png,chair-0081-ILSVRC2012-val-00033069.png,1.0,2.257279,0.3308097,1.3622195
vit_b_16,1,418,NaN,chair,chair,0,0418_sty_dnn_0_chair_00_chair-0085-ILSVRC2012-val-00036175.png,chair-0085-ILSVRC2012-val-00036175.png,1.0,1.6918181,1.547844,0.10180504
vit_b_16,1,419,NaN,chair,chair,0,0419_sty_dnn_0_chair_00_chair-0087-ILSVRC2012-val-00037905.png,chair-0087-ILSVRC2012-val-00037905.png,1.0,4.3234982,0.5919916,2.6385736
vit_b_16,1,420,NaN,bottle,chair,0,0420_sty_dnn_0_chair_00_chair-0092-ILSVRC2012-val-00041814.png,chair-0092-ILSVRC2012-val-00041814.png,0.0,1.4542435,2.1433136,-0.48724616
vit_b_16,1,421,NaN,bottle,chair,0,0421_sty_dnn_0_chair_00_chair-0097-ILSVRC2012-val-00043453.png,chair-0097-ILSVRC2012-val-00043453.png,0.0,-0.4019235,0.9429477,-0.95096755
vit_b_16,1,422,NaN,oven,chair,0,0422_sty_dnn_0_chair_00_chair-0098-ILSVRC2012-val-00044181.png,chair-0098-ILSVRC2012-val-00044181.png,0.0,-0.12642072,4.9195313,-3.5680268
vit_b_16,1,423,NaN,chair,chair,0,0423_sty_dnn_0_chair_00_chair-0116-ILSVRC2012-val-00017447.png,chair-0116-ILSVRC2012-val-00017447.png,1.0,2.5786786,0.13230702,1.729846
vit_b_16,1,424,NaN,chair,chair,0,0424_sty_dnn_0_chair_00_chair-0118-ILSVRC2012-val-00018123.png,chair-0118-ILSVRC2012-val-00018123.png,1.0,4.0140276,2.1351278,1.3285828
vit_b_16,1,425,NaN,boat,chair,0,0425_sty_dnn_0_chair_00_chair-0119-ILSVRC2012-val-00018206.png,chair-0119-ILSVRC2012-val-00018206.png,0.0,-0.41533414,2.5897357,-2.1249053
vit_b_16,1,426,NaN,clock,chair,0,0426_sty_dnn_0_chair_00_chair-0122-ILSVRC2012-val-00019867.png,chair-0122-ILSVRC2012-val-00019867.png,0.0,0.56765664,1.7694944,-0.84982765
vit_b_16,1,427,NaN,dog,chair,0,0427_sty_dnn_0_chair_00_chair-0123-ILSVRC2012-val-00020924.png,chair-0123-ILSVRC2012-val-00020924.png,0.0,0.034926698,0.5417575,-0.3583835
vit_b_16,1,428,NaN,bear,chair,0,0428_sty_dnn_0_chair_00_chair-0124-ILSVRC2012-val-00022208.png,chair-0124-ILSVRC2012-val-00022208.png,0.0,-0.8712986,1.6279095,-1.7672071
vit_b_16,1,429,NaN,chair,chair,0,0429_sty_dnn_0_chair_00_chair-0127-ILSVRC2012-val-00024620.png,chair-0127-ILSVRC2012-val-00024620.png,1.0,4.3636303,1.8793344,1.7566625
vit_b_16,1,430,NaN,chair,chair,0,0430_sty_dnn_0_chair_00_chair-0133-ILSVRC2012-val-00033406.png,chair-0133-ILSVRC2012-val-00033406.png,1.0,4.0238514,0.1523453,2.7375684
vit_b_16,1,431,NaN,bottle,chair,0,0431_sty_dnn_0_chair_00_chair-0136-ILSVRC2012-val-00037994.png,chair-0136-ILSVRC2012-val-00037994.png,0.0,2.378477,2.8543205,-0.33647212
vit_b_16,1,432,NaN,knife,chair,0,0432_sty_dnn_0_chair_00_chair-0138-ILSVRC2012-val-00038750.png,chair-0138-ILSVRC2012-val-00038750.png,0.0,-0.55965865,2.3124158,-2.0308635
vit_b_16,1,433,NaN,bottle,chair,0,0433_sty_dnn_0_chair_00_chair-0141-ILSVRC2012-val-00040076.png,chair-0141-ILSVRC2012-val-00040076.png,0.0,-0.87800455,1.8086556,-1.8997557
vit_b_16,1,434,NaN,bear,chair,0,0434_sty_dnn_0_chair_00_chair-0150-ILSVRC2012-val-00048622.png,chair-0150-ILSVRC2012-val-00048622.png,0.0,-0.6227441,1.3362591,-1.3852245
vit_b_16,1,435,NaN,chair,chair,0,0435_sty_dnn_0_chair_00_chair-0154-ILSVRC2012-val-00004705.png,chair-0154-ILSVRC2012-val-00004705.png,1.0,1.674279,0.8147931,0.60774827
vit_b_16,1,436,NaN,chair,chair,0,0436_sty_dnn_0_chair_00_chair-0155-ILSVRC2012-val-00005160.png,chair-0155-ILSVRC2012-val-00005160.png,1.0,2.5306275,1.524893,0.7111617
vit_b_16,1,437,NaN,clock,chair,0,0437_sty_dnn_0_chair_00_chair-0159-ILSVRC2012-val-00011028.png,chair-0159-ILSVRC2012-val-00011028.png,0.0,0.5603221,0.73258084,-0.121805325
vit_b_16,1,438,NaN,clock,chair,0,0438_sty_dnn_0_chair_00_chair-0160-ILSVRC2012-val-00012040.png,chair-0160-ILSVRC2012-val-00012040.png,0.0,0.35236377,3.7021637,-2.3686662
vit_b_16,1,439,NaN,chair,chair,0,0439_sty_dnn_0_chair_00_chair-0169-ILSVRC2012-val-00019913.png,chair-0169-ILSVRC2012-val-00019913.png,1.0,1.7311519,0.95185,0.5510497
vit_b_16,1,440,NaN,elephant,chair,0,0440_sty_dnn_0_chair_00_chair-0170-ILSVRC2012-val-00022051.png,chair-0170-ILSVRC2012-val-00022051.png,0.0,0.1169125,3.1510463,-2.1454566
vit_b_16,1,441,NaN,knife,chair,0,0441_sty_dnn_0_chair_00_chair-0172-ILSVRC2012-val-00023378.png,chair-0172-ILSVRC2012-val-00023378.png,0.0,0.09559829,0.2836739,-0.13298956
vit_b_16,1,442,NaN,clock,chair,0,0442_sty_dnn_0_chair_00_chair-0181-ILSVRC2012-val-00033160.png,chair-0181-ILSVRC2012-val-00033160.png,0.0,-0.36543489,1.8481064,-1.5652101
vit_b_16,1,443,NaN,oven,chair,0,0443_sty_dnn_0_chair_00_chair-0183-ILSVRC2012-val-00035142.png,chair-0183-ILSVRC2012-val-00035142.png,0.0,0.31684947,2.4979002,-1.5422359
vit_b_16,1,444,NaN,oven,chair,0,0444_sty_dnn_0_chair_00_chair-0188-ILSVRC2012-val-00041720.png,chair-0188-ILSVRC2012-val-00041720.png,0.0,-0.59399307,1.8615397,-1.736324
vit_b_16,1,445,NaN,clock,chair,0,0445_sty_dnn_0_chair_00_chair-0189-ILSVRC2012-val-00041883.png,chair-0189-ILSVRC2012-val-00041883.png,0.0,0.24837309,0.97200567,-0.5116855
vit_b_16,1,446,NaN,chair,chair,0,0446_sty_dnn_0_chair_00_chair-0192-ILSVRC2012-val-00043870.png,chair-0192-ILSVRC2012-val-00043870.png,1.0,1.0733805,0.6951582,0.26744354
vit_b_16,1,447,NaN,chair,chair,0,0447_sty_dnn_0_chair_00_chair-0193-ILSVRC2012-val-00044295.png,chair-0193-ILSVRC2012-val-00044295.png,1.0,2.2869353,0.12957485,1.5254843
vit_b_16,1,448,NaN,chair,chair,0,0448_sty_dnn_0_chair_00_chair-0195-ILSVRC2012-val-00045464.png,chair-0195-ILSVRC2012-val-00045464.png,1.0,3.2147095,1.0190699,1.5525516
vit_b_16,1,449,NaN,boat,chair,0,0449_sty_dnn_0_chair_00_chair-0196-ILSVRC2012-val-00045844.png,chair-0196-ILSVRC2012-val-00045844.png,0.0,-0.77739954,1.2123804,-1.406987
vit_b_16,1,450,NaN,oven,chair,0,0450_sty_dnn_0_chair_00_chair-0199-ILSVRC2012-val-00048901.png,chair-0199-ILSVRC2012-val-00048901.png,0.0,0.8641541,1.1306912,-0.18847017
vit_b_16,1,451,NaN,clock,clock,0,0451_sty_dnn_0_clock_00_clock-0001-ILSVRC2012-val-00001011.png,clock-0001-ILSVRC2012-val-00001011.png,1.0,4.7865043,2.4943566,1.6207932
vit_b_16,1,452,NaN,clock,clock,0,0452_sty_dnn_0_clock_00_clock-0007-ILSVRC2012-val-00005490.png,clock-0007-ILSVRC2012-val-00005490.png,1.0,2.6499965,0.74679375,1.3457676
vit_b_16,1,453,NaN,clock,clock,0,0453_sty_dnn_0_clock_00_clock-0008-ILSVRC2012-val-00005558.png,clock-0008-ILSVRC2012-val-00005558.png,1.0,4.8342795,0.8618393,2.8089395
vit_b_16,1,454,NaN,clock,clock,0,0454_sty_dnn_0_clock_00_clock-0010-ILSVRC2012-val-00006858.png,clock-0010-ILSVRC2012-val-00006858.png,1.0,3.4814775,2.438012,0.7378416
vit_b_16,1,455,NaN,clock,clock,0,0455_sty_dnn_0_clock_00_clock-0013-ILSVRC2012-val-00013244.png,clock-0013-ILSVRC2012-val-00013244.png,1.0,5.453195,0.80194527,3.2889304
vit_b_16,1,456,NaN,clock,clock,0,0456_sty_dnn_0_clock_00_clock-0018-ILSVRC2012-val-00015871.png,clock-0018-ILSVRC2012-val-00015871.png,1.0,4.1879063,0.32772553,2.7295601
vit_b_16,1,457,NaN,clock,clock,0,0457_sty_dnn_0_clock_00_clock-0020-ILSVRC2012-val-00016889.png,clock-0020-ILSVRC2012-val-00016889.png,1.0,5.0754704,1.5122695,2.5195637
vit_b_16,1,458,NaN,clock,clock,0,0458_sty_dnn_0_clock_00_clock-0023-ILSVRC2012-val-00017973.png,clock-0023-ILSVRC2012-val-00017973.png,1.0,5.200514,0.2785966,3.4803212
vit_b_16,1,459,NaN,clock,clock,0,0459_sty_dnn_0_clock_00_clock-0025-ILSVRC2012-val-00019663.png,clock-0025-ILSVRC2012-val-00019663.png,1.0,4.611204,1.0044503,2.5503602
vit_b_16,1,460,NaN,clock,clock,0,0460_sty_dnn_0_clock_00_clock-0028-ILSVRC2012-val-00021179.png,clock-0028-ILSVRC2012-val-00021179.png,1.0,4.0987587,1.8180336,1.6127162
vit_b_16,1,461,NaN,clock,clock,0,0461_sty_dnn_0_clock_00_clock-0029-ILSVRC2012-val-00022719.png,clock-0029-ILSVRC2012-val-00022719.png,1.0,5.197445,0.64577556,3.218516
vit_b_16,1,462,NaN,clock,clock,0,0462_sty_dnn_0_clock_00_clock-0032-ILSVRC2012-val-00024425.png,clock-0032-ILSVRC2012-val-00024425.png,1.0,4.260233,0.5822178,2.6007495
vit_b_16,1,463,NaN,clock,clock,0,0463_sty_dnn_0_clock_00_clock-0034-ILSVRC2012-val-00026380.png,clock-0034-ILSVRC2012-val-00026380.png,1.0,2.9873898,0.5690207,1.7100452
vit_b_16,1,464,NaN,clock,clock,0,0464_sty_dnn_0_clock_00_clock-0038-ILSVRC2012-val-00032489.png,clock-0038-ILSVRC2012-val-00032489.png,1.0,1.6426741,1.617751,0.017623283
vit_b_16,1,465,NaN,clock,clock,0,0465_sty_dnn_0_clock_00_clock-0039-ILSVRC2012-val-00033429.png,clock-0039-ILSVRC2012-val-00033429.png,1.0,2.3488743,1.0466946,0.9207801
vit_b_16,1,466,NaN,clock,clock,0,0466_sty_dnn_0_clock_00_clock-0040-ILSVRC2012-val-00035392.png,clock-0040-ILSVRC2012-val-00035392.png,1.0,5.271391,0.4149771,3.434003
vit_b_16,1,467,NaN,clock,clock,0,0467_sty_dnn_0_clock_00_clock-0043-ILSVRC2012-val-00041613.png,clock-0043-ILSVRC2012-val-00041613.png,1.0,5.7601295,0.35514662,3.8219001
vit_b_16,1,468,NaN,clock,clock,0,0468_sty_dnn_0_clock_00_clock-0045-ILSVRC2012-val-00043497.png,clock-0045-ILSVRC2012-val-00043497.png,1.0,5.701842,1.1892084,3.1909137
vit_b_16,1,469,NaN,bottle,clock,0,0469_sty_dnn_0_clock_00_clock-0046-ILSVRC2012-val-00044049.png,clock-0046-ILSVRC2012-val-00044049.png,0.0,2.5659382,2.9490592,-0.27090746
vit_b_16,1,470,NaN,clock,clock,0,0470_sty_dnn_0_clock_00_clock-0048-ILSVRC2012-val-00044752.png,clock-0048-ILSVRC2012-val-00044752.png,1.0,5.130396,0.92263496,2.9753363
vit_b_16,1,471,NaN,cat,clock,0,0471_sty_dnn_0_clock_00_clock-0052-ILSVRC2012-val-00003721.png,clock-0052-ILSVRC2012-val-00003721.png,0.0,0.17318869,1.4728745,-0.91901666
vit_b_16,1,472,NaN,clock,clock,0,0472_sty_dnn_0_clock_00_clock-0054-ILSVRC2012-val-00008751.png,clock-0054-ILSVRC2012-val-00008751.png,1.0,1.6014713,1.1565276,0.3146227
vit_b_16,1,473,NaN,oven,clock,0,0473_sty_dnn_0_clock_00_clock-0062-ILSVRC2012-val-00014987.png,clock-0062-ILSVRC2012-val-00014987.png,0.0,1.8855692,2.0569482,-0.12118323
vit_b_16,1,474,NaN,knife,clock,0,0474_sty_dnn_0_clock_00_clock-0063-ILSVRC2012-val-00015628.png,clock-0063-ILSVRC2012-val-00015628.png,0.0,0.9374709,5.542661,-3.2563612
vit_b_16,1,475,NaN,bottle,clock,0,0475_sty_dnn_0_clock_00_clock-0073-ILSVRC2012-val-00026298.png,clock-0073-ILSVRC2012-val-00026298.png,0.0,2.531195,2.98324,-0.31964406
vit_b_16,1,476,NaN,clock,clock,0,0476_sty_dnn_0_clock_00_clock-0076-ILSVRC2012-val-00028203.png,clock-0076-ILSVRC2012-val-00028203.png,1.0,3.015477,1.3423187,1.1831015
vit_b_16,1,477,NaN,bottle,clock,0,0477_sty_dnn_0_clock_00_clock-0080-ILSVRC2012-val-00032946.png,clock-0080-ILSVRC2012-val-00032946.png,0.0,1.5131422,3.4256704,-1.3523617
vit_b_16,1,478,NaN,bottle,clock,0,0478_sty_dnn_0_clock_00_clock-0082-ILSVRC2012-val-00033627.png,clock-0082-ILSVRC2012-val-00033627.png,0.0,0.5818925,1.3134302,-0.5172753
vit_b_16,1,479,NaN,clock,clock,0,0479_sty_dnn_0_clock_00_clock-0084-ILSVRC2012-val-00034426.png,clock-0084-ILSVRC2012-val-00034426.png,1.0,3.6595728,2.619934,0.7351356
vit_b_16,1,480,NaN,clock,clock,0,0480_sty_dnn_0_clock_00_clock-0086-ILSVRC2012-val-00041483.png,clock-0086-ILSVRC2012-val-00041483.png,1.0,2.365595,1.5335275,0.58836067
vit_b_16,1,481,NaN,clock,clock,0,0481_sty_dnn_0_clock_00_clock-0089-ILSVRC2012-val-00042911.png,clock-0089-ILSVRC2012-val-00042911.png,1.0,2.3990183,1.1461132,0.88593775
vit_b_16,1,482,NaN,clock,clock,0,0482_sty_dnn_0_clock_00_clock-0091-ILSVRC2012-val-00044029.png,clock-0091-ILSVRC2012-val-00044029.png,1.0,2.3337715,0.12111741,1.5645827
vit_b_16,1,483,NaN,oven,clock,0,0483_sty_dnn_0_clock_00_clock-0092-ILSVRC2012-val-00044168.png,clock-0092-ILSVRC2012-val-00044168.png,0.0,0.03948669,4.1563535,-2.9110644
vit_b_16,1,484,NaN,bottle,clock,0,0484_sty_dnn_0_clock_00_clock-0098-ILSVRC2012-val-00048682.png,clock-0098-ILSVRC2012-val-00048682.png,0.0,2.1825063,2.4147053,-0.16418946
vit_b_16,1,485,NaN,boat,clock,0,0485_sty_dnn_0_clock_00_clock-0100-ILSVRC2012-val-00049759.png,clock-0100-ILSVRC2012-val-00049759.png,0.0,0.9043209,1.2820065,-0.26706406
vit_b_16,1,486,NaN,clock,clock,0,0486_sty_dnn_0_clock_00_clock-0106-ILSVRC2012-val-00009413.png,clock-0106-ILSVRC2012-val-00009413.png,1.0,3.6307933,0.80086386,2.0010622
vit_b_16,1,487,NaN,clock,clock,0,0487_sty_dnn_0_clock_00_clock-0107-ILSVRC2012-val-00010270.png,clock-0107-ILSVRC2012-val-00010270.png,1.0,4.3304973,0.28137046,2.863165
vit_b_16,1,488,NaN,clock,clock,0,0488_sty_dnn_0_clock_00_clock-0108-ILSVRC2012-val-00011957.png,clock-0108-ILSVRC2012-val-00011957.png,1.0,4.4052052,0.53618395,2.7358112
vit_b_16,1,489,NaN,knife,clock,0,0489_sty_dnn_0_clock_00_clock-0110-ILSVRC2012-val-00014035.png,clock-0110-ILSVRC2012-val-00014035.png,0.0,0.058091242,1.3006947,-0.87865335
vit_b_16,1,490,NaN,chair,clock,0,0490_sty_dnn_0_clock_00_clock-0112-ILSVRC2012-val-00014635.png,clock-0112-ILSVRC2012-val-00014635.png,0.0,0.30162203,1.5470245,-0.8806325
vit_b_16,1,491,NaN,clock,clock,0,0491_sty_dnn_0_clock_00_clock-0118-ILSVRC2012-val-00018443.png,clock-0118-ILSVRC2012-val-00018443.png,1.0,2.2413087,1.101253,0.8061411
vit_b_16,1,492,NaN,clock,clock,0,0492_sty_dnn_0_clock_00_clock-0119-ILSVRC2012-val-00018797.png,clock-0119-ILSVRC2012-val-00018797.png,1.0,5.154982,0.33734417,3.4065845
vit_b_16,1,493,NaN,clock,clock,0,0493_sty_dnn_0_clock_00_clock-0127-ILSVRC2012-val-00030330.png,clock-0127-ILSVRC2012-val-00030330.png,1.0,3.0095909,0.91579616,1.4805366
vit_b_16,1,494,NaN,clock,clock,0,0494_sty_dnn_0_clock_00_clock-0128-ILSVRC2012-val-00030987.png,clock-0128-ILSVRC2012-val-00030987.png,1.0,4.7337685,0.3053256,3.131382
vit_b_16,1,495,NaN,clock,clock,0,0495_sty_dnn_0_clock_00_clock-0129-ILSVRC2012-val-00031861.png,clock-0129-ILSVRC2012-val-00031861.png,1.0,3.431317,0.75328845,1.8936522
vit_b_16,1,496,NaN,clock,clock,0,0496_sty_dnn_0_clock_00_clock-0130-ILSVRC2012-val-00032136.png,clock-0130-ILSVRC2012-val-00032136.png,1.0,3.769502,1.0177351,1.9457929
vit_b_16,1,497,NaN,clock,clock,0,0497_sty_dnn_0_clock_00_clock-0142-ILSVRC2012-val-00041461.png,clock-0142-ILSVRC2012-val-00041461.png,1.0,3.4427338,0.2633284,2.2481792
vit_b_16,1,498,NaN,clock,clock,0,0498_sty_dnn_0_clock_00_clock-0143-ILSVRC2012-val-00041547.png,clock-0143-ILSVRC2012-val-00041547.png,1.0,4.8805194,0.7890487,2.8931067
vit_b_16,1,499,NaN,clock,clock,0,0499_sty_dnn_0_clock_00_clock-0144-ILSVRC2012-val-00041715.png,clock-0144-ILSVRC2012-val-00041715.png,1.0,5.542914,0.41548753,3.6256378
vit_b_16,1,500,NaN,clock,clock,0,0500_sty_dnn_0_clock_00_clock-0145-ILSVRC2012-val-00044685.png,clock-0145-ILSVRC2012-val-00044685.png,1.0,4.234909,1.7682185,1.7442136
vit_b_16,1,501,NaN,dog,dog,0,0501_sty_dnn_0_dog_00_dog-0099-ILSVRC2012-val-00048280.png,dog-0099-ILSVRC2012-val-00048280.png,1.0,0.7215928,0.536643,0.13077922
vit_b_16,1,502,NaN,clock,dog,0,0502_sty_dnn_0_dog_00_dog-0158-ILSVRC2012-val-00004081.png,dog-0158-ILSVRC2012-val-00004081.png,0.0,-0.6820814,2.1512024,-2.0034342
vit_b_16,1,503,NaN,bear,dog,0,0503_sty_dnn_0_dog_00_dog-0220-ILSVRC2012-val-00017568.png,dog-0220-ILSVRC2012-val-00017568.png,0.0,-0.14443478,0.65057796,-0.5621589
vit_b_16,1,504,NaN,elephant,dog,0,0504_sty_dnn_0_dog_00_dog-0247-ILSVRC2012-val-00045683.png,dog-0247-ILSVRC2012-val-00045683.png,0.0,-0.0750327,0.6928735,-0.5429917
vit_b_16,1,505,NaN,oven,dog,0,0505_sty_dnn_0_dog_00_dog-0303-ILSVRC2012-val-00002521.png,dog-0303-ILSVRC2012-val-00002521.png,0.0,-0.2096286,1.3291649,-1.0880913
vit_b_16,1,506,NaN,knife,dog,0,0506_sty_dnn_0_dog_00_dog-0386-ILSVRC2012-val-00034616.png,dog-0386-ILSVRC2012-val-00034616.png,0.0,-0.0053186035,0.44780618,-0.32040763
vit_b_16,1,507,NaN,knife,dog,0,0507_sty_dnn_0_dog_00_dog-0397-ILSVRC2012-val-00044140.png,dog-0397-ILSVRC2012-val-00044140.png,0.0,0.2768095,0.48201373,-0.1451013
vit_b_16,1,508,NaN,bear,dog,0,0508_sty_dnn_0_dog_00_dog-0779-ILSVRC2012-val-00033666.png,dog-0779-ILSVRC2012-val-00033666.png,0.0,1.5058062,1.5520978,-0.032733098
vit_b_16,1,509,NaN,cat,dog,0,0509_sty_dnn_0_dog_00_dog-1178-ILSVRC2012-val-00022137.png,dog-1178-ILSVRC2012-val-00022137.png,0.0,0.56246126,0.5631421,-0.00048144345
vit_b_16,1,510,NaN,elephant,dog,0,0510_sty_dnn_0_dog_00_dog-1191-ILSVRC2012-val-00037989.png,dog-1191-ILSVRC2012-val-00037989.png,0.0,0.729406,1.4784899,-0.5296823
vit_b_16,1,511,NaN,knife,dog,0,0511_sty_dnn_0_dog_00_dog-1398-ILSVRC2012-val-00046547.png,dog-1398-ILSVRC2012-val-00046547.png,0.0,0.38349327,0.4329828,-0.034994382
vit_b_16,1,512,NaN,bottle,dog,0,0512_sty_dnn_0_dog_00_dog-1538-ILSVRC2012-val-00038167.png,dog-1538-ILSVRC2012-val-00038167.png,0.0,0.27813882,0.91241044,-0.44849777
vit_b_16,1,513,NaN,cat,dog,0,0513_sty_dnn_0_dog_00_dog-1613-ILSVRC2012-val-00015923.png,dog-1613-ILSVRC2012-val-00015923.png,0.0,0.6528089,0.7844476,-0.09308262
vit_b_16,1,514,NaN,bottle,dog,0,0514_sty_dnn_0_dog_00_dog-1734-ILSVRC2012-val-00031377.png,dog-1734-ILSVRC2012-val-00031377.png,0.0,1.0170306,1.7758124,-0.53653973
vit_b_16,1,515,NaN,bicycle,dog,0,0515_sty_dnn_0_dog_00_dog-1735-ILSVRC2012-val-00031764.png,dog-1735-ILSVRC2012-val-00031764.png,0.0,0.54684335,1.042059,-0.3501703
vit_b_16,1,516,NaN,chair,dog,0,0516_sty_dnn_0_dog_00_dog-1881-ILSVRC2012-val-00028322.png,dog-1881-ILSVRC2012-val-00028322.png,0.0,-0.45001683,1.5330801,-1.4022614
vit_b_16,1,517,NaN,clock,dog,0,0517_sty_dnn_0_dog_00_dog-2094-ILSVRC2012-val-00044284.png,dog-2094-ILSVRC2012-val-00044284.png,0.0,0.041165747,0.775932,-0.5195582
vit_b_16,1,518,NaN,dog,dog,0,0518_sty_dnn_0_dog_00_dog-2121-ILSVRC2012-val-00015705.png,dog-2121-ILSVRC2012-val-00015705.png,1.0,1.0000548,0.69854194,0.21320182
vit_b_16,1,519,NaN,bottle,dog,0,0519_sty_dnn_0_dog_00_dog-2129-ILSVRC2012-val-00025424.png,dog-2129-ILSVRC2012-val-00025424.png,0.0,-0.30576947,1.8114766,-1.4971192
vit_b_16,1,520,NaN,knife,dog,0,0520_sty_dnn_0_dog_00_dog-2195-ILSVRC2012-val-00046002.png,dog-2195-ILSVRC2012-val-00046002.png,0.0,-0.33014432,1.7628354,-1.4799601
vit_b_16,1,521,NaN,dog,dog,0,0521_sty_dnn_0_dog_00_dog-2211-ILSVRC2012-val-00010402.png,dog-2211-ILSVRC2012-val-00010402.png,1.0,0.31642488,0.30476186,0.008247
vit_b_16,1,522,NaN,dog,dog,0,0522_sty_dnn_0_dog_00_dog-2253-ILSVRC2012-val-00003731.png,dog-2253-ILSVRC2012-val-00003731.png,1.0,0.5231762,0.45714414,0.046691712
vit_b_16,1,523,NaN,elephant,dog,0,0523_sty_dnn_0_dog_00_dog-2290-ILSVRC2012-val-00036919.png,dog-2290-ILSVRC2012-val-00036919.png,0.0,0.7863261,1.3811859,-0.42062938
vit_b_16,1,524,NaN,oven,dog,0,0524_sty_dnn_0_dog_00_dog-2321-ILSVRC2012-val-00015164.png,dog-2321-ILSVRC2012-val-00015164.png,0.0,0.51442575,1.4113593,-0.6342278
vit_b_16,1,525,NaN,dog,dog,0,0525_sty_dnn_0_dog_00_dog-2368-ILSVRC2012-val-00011895.png,dog-2368-ILSVRC2012-val-00011895.png,1.0,1.2899405,0.48568752,0.56869274
vit_b_16,1,526,NaN,clock,dog,0,0526_sty_dnn_0_dog_00_dog-2391-ILSVRC2012-val-00039144.png,dog-2391-ILSVRC2012-val-00039144.png,0.0,0.378353,0.56222373,-0.13001624
vit_b_16,1,527,NaN,dog,dog,0,0527_sty_dnn_0_dog_00_dog-2535-ILSVRC2012-val-00038253.png,dog-2535-ILSVRC2012-val-00038253.png,1.0,0.90685594,0.27103686,0.449592
vit_b_16,1,528,NaN,knife,dog,0,0528_sty_dnn_0_dog_00_dog-2539-ILSVRC2012-val-00041157.png,dog-2539-ILSVRC2012-val-00041157.png,0.0,-0.564645,2.8116746,-2.3874185
vit_b_16,1,529,NaN,cat,dog,0,0529_sty_dnn_0_dog_00_dog-2629-ILSVRC2012-val-00030579.png,dog-2629-ILSVRC2012-val-00030579.png,0.0,0.646986,1.5199327,-0.6172666
vit_b_16,1,530,NaN,oven,dog,0,0530_sty_dnn_0_dog_00_dog-2876-ILSVRC2012-val-00027038.png,dog-2876-ILSVRC2012-val-00027038.png,0.0,-0.31242877,1.5587133,-1.3230973
vit_b_16,1,531,NaN,oven,dog,0,0531_sty_dnn_0_dog_00_dog-2889-ILSVRC2012-val-00043272.png,dog-2889-ILSVRC2012-val-00043272.png,0.0,0.38865533,0.84491926,-0.32262734
vit_b_16,1,532,NaN,knife,dog,0,0532_sty_dnn_0_dog_00_dog-3044-ILSVRC2012-val-00034485.png,dog-3044-ILSVRC2012-val-00034485.png,0.0,-0.19469444,1.3550886,-1.095862
vit_b_16,1,533,NaN,bottle,dog,0,0533_sty_dnn_0_dog_00_dog-3412-ILSVRC2012-val-00014775.png,dog-3412-ILSVRC2012-val-00014775.png,0.0,0.4368664,0.7573827,-0.22663924
vit_b_16,1,534,NaN,elephant,dog,0,0534_sty_dnn_0_dog_00_dog-3425-ILSVRC2012-val-00027086.png,dog-3425-ILSVRC2012-val-00027086.png,0.0,-0.06997544,1.4697505,-1.0887507
vit_b_16,1,535,NaN,dog,dog,0,0535_sty_dnn_0_dog_00_dog-3771-ILSVRC2012-val-00020678.png,dog-3771-ILSVRC2012-val-00020678.png,1.0,0.8872956,0.26466644,0.4402653
vit_b_16,1,536,NaN,dog,dog,0,0536_sty_dnn_0_dog_00_dog-3802-ILSVRC2012-val-00003862.png,dog-3802-ILSVRC2012-val-00003862.png,1.0,0.538835,0.29237092,0.17427643
vit_b_16,1,537,NaN,bottle,dog,0,0537_sty_dnn_0_dog_00_dog-3841-ILSVRC2012-val-00038789.png,dog-3841-ILSVRC2012-val-00038789.png,0.0,-0.5207087,1.022242,-1.0910308
vit_b_16,1,538,NaN,bottle,dog,0,0538_sty_dnn_0_dog_00_dog-3864-ILSVRC2012-val-00011457.png,dog-3864-ILSVRC2012-val-00011457.png,0.0,0.42246985,1.129215,-0.4997443
vit_b_16,1,539,NaN,airplane,dog,0,0539_sty_dnn_0_dog_00_dog-3917-ILSVRC2012-val-00016908.png,dog-3917-ILSVRC2012-val-00016908.png,0.0,-0.025178786,1.3287721,-0.95738786
vit_b_16,1,540,NaN,airplane,dog,0,0540_sty_dnn_0_dog_00_dog-4009-ILSVRC2012-val-00007922.png,dog-4009-ILSVRC2012-val-00007922.png,0.0,0.17555939,0.8289783,-0.46203694
vit_b_16,1,541,NaN,bird,dog,0,0541_sty_dnn_0_dog_00_dog-4070-ILSVRC2012-val-00021155.png,dog-4070-ILSVRC2012-val-00021155.png,0.0,0.13828348,0.64002824,-0.3547871
vit_b_16,1,542,NaN,clock,dog,0,0542_sty_dnn_0_dog_00_dog-4443-ILSVRC2012-val-00045160.png,dog-4443-ILSVRC2012-val-00045160.png,0.0,-0.36247346,1.085879,-1.0241399
vit_b_16,1,543,NaN,dog,dog,0,0543_sty_dnn_0_dog_00_dog-4689-ILSVRC2012-val-00034291.png,dog-4689-ILSVRC2012-val-00034291.png,1.0,0.52842957,0.3758371,0.10789918
vit_b_16,1,544,NaN,bear,dog,0,0544_sty_dnn_0_dog_00_dog-4865-ILSVRC2012-val-00013670.png,dog-4865-ILSVRC2012-val-00013670.png,0.0,1.0727321,2.961257,-1.3353888
vit_b_16,1,545,NaN,chair,dog,0,0545_sty_dnn_0_dog_00_dog-4914-ILSVRC2012-val-00011316.png,dog-4914-ILSVRC2012-val-00011316.png,0.0,-0.14546898,0.29242417,-0.30963722
vit_b_16,1,546,NaN,dog,dog,0,0546_sty_dnn_0_dog_00_dog-4933-ILSVRC2012-val-00033357.png,dog-4933-ILSVRC2012-val-00033357.png,1.0,0.48345932,0.20615493,0.19608383
vit_b_16,1,547,NaN,bear,dog,0,0547_sty_dnn_0_dog_00_dog-4954-ILSVRC2012-val-00002882.png,dog-4954-ILSVRC2012-val-00002882.png,0.0,0.6597226,1.6498287,-0.70011073
vit_b_16,1,548,NaN,bear,dog,0,0548_sty_dnn_0_dog_00_dog-4999-ILSVRC2012-val-00049046.png,dog-4999-ILSVRC2012-val-00049046.png,0.0,0.4181671,2.5756133,-1.5255449
vit_b_16,1,549,NaN,bird,dog,0,0549_sty_dnn_0_dog_00_dog-5044-ILSVRC2012-val-00043270.png,dog-5044-ILSVRC2012-val-00043270.png,0.0,0.71479917,0.93697226,-0.15710011
vit_b_16,1,550,NaN,elephant,dog,0,0550_sty_dnn_0_dog_00_dog-5267-ILSVRC2012-val-00013862.png,dog-5267-ILSVRC2012-val-00013862.png,0.0,-0.19734259,0.5801283,-0.5497549
vit_b_16,1,551,NaN,elephant,elephant,0,0551_sty_dnn_0_elephant_00_elephant-0002-ILSVRC2012-val-00001850.png,elephant-0002-ILSVRC2012-val-00001850.png,1.0,3.854819,2.0240824,1.2945263
vit_b_16,1,552,NaN,elephant,elephant,0,0552_sty_dnn_0_elephant_00_elephant-0003-ILSVRC2012-val-00003280.png,elephant-0003-ILSVRC2012-val-00003280.png,1.0,7.443289,0.4179531,4.967663
vit_b_16,1,553,NaN,elephant,elephant,0,0553_sty_dnn_0_elephant_00_elephant-0004-ILSVRC2012-val-00004882.png,elephant-0004-ILSVRC2012-val-00004882.png,1.0,5.6634417,1.0506693,3.2617228
vit_b_16,1,554,NaN,elephant,elephant,0,0554_sty_dnn_0_elephant_00_elephant-0006-ILSVRC2012-val-00005704.png,elephant-0006-ILSVRC2012-val-00005704.png,1.0,1.3486183,0.92320395,0.30081335
vit_b_16,1,555,NaN,elephant,elephant,0,0555_sty_dnn_0_elephant_00_elephant-0009-ILSVRC2012-val-00010713.png,elephant-0009-ILSVRC2012-val-00010713.png,1.0,6.606097,0.46282881,4.343947
vit_b_16,1,556,NaN,chair,elephant,0,0556_sty_dnn_0_elephant_00_elephant-0010-ILSVRC2012-val-00011002.png,elephant-0010-ILSVRC2012-val-00011002.png,0.0,1.4379755,2.360752,-0.6525016
vit_b_16,1,557,NaN,elephant,elephant,0,0557_sty_dnn_0_elephant_00_elephant-0011-ILSVRC2012-val-00011247.png,elephant-0011-ILSVRC2012-val-00011247.png,1.0,7.7879906,2.1300454,4.0007715
vit_b_16,1,558,NaN,elephant,elephant,0,0558_sty_dnn_0_elephant_00_elephant-0013-ILSVRC2012-val-00014219.png,elephant-0013-ILSVRC2012-val-00014219.png,1.0,1.1150501,0.46725813,0.45805812
vit_b_16,1,559,NaN,clock,elephant,0,0559_sty_dnn_0_elephant_00_elephant-0015-ILSVRC2012-val-00015520.png,elephant-0015-ILSVRC2012-val-00015520.png,0.0,-0.22644733,3.5963643,-2.703136
vit_b_16,1,560,NaN,elephant,elephant,0,0560_sty_dnn_0_elephant_00_elephant-0021-ILSVRC2012-val-00021618.png,elephant-0021-ILSVRC2012-val-00021618.png,1.0,2.1750813,1.8124405,0.25642574
vit_b_16,1,561,NaN,elephant,elephant,0,0561_sty_dnn_0_elephant_00_elephant-0022-ILSVRC2012-val-00022028.png,elephant-0022-ILSVRC2012-val-00022028.png,1.0,5.833009,0.7861655,3.5686574
vit_b_16,1,562,NaN,bottle,elephant,0,0562_sty_dnn_0_elephant_00_elephant-0024-ILSVRC2012-val-00022921.png,elephant-0024-ILSVRC2012-val-00022921.png,0.0,0.5712334,0.74053985,-0.11971775
vit_b_16,1,563,NaN,clock,elephant,0,0563_sty_dnn_0_elephant_00_elephant-0026-ILSVRC2012-val-00023589.png,elephant-0026-ILSVRC2012-val-00023589.png,0.0,-0.3768332,3.681041,-2.8693504
vit_b_16,1,564,NaN,clock,elephant,0,0564_sty_dnn_0_elephant_00_elephant-0028-ILSVRC2012-val-00025237.png,elephant-0028-ILSVRC2012-val-00025237.png,0.0,0.052500933,0.5472048,-0.34980845
vit_b_16,1,565,NaN,elephant,elephant,0,0565_sty_dnn_0_elephant_00_elephant-0029-ILSVRC2012-val-00027259.png,elephant-0029-ILSVRC2012-val-00027259.png,1.0,6.425929,1.0530769,3.7991803
vit_b_16,1,566,NaN,keyboard,elephant,0,0566_sty_dnn_0_elephant_00_elephant-0030-ILSVRC2012-val-00028996.png,elephant-0030-ILSVRC2012-val-00028996.png,0.0,-0.04419004,1.3738598,-1.0027126
vit_b_16,1,567,NaN,clock,elephant,0,0567_sty_dnn_0_elephant_00_elephant-0032-ILSVRC2012-val-00030248.png,elephant-0032-ILSVRC2012-val-00030248.png,0.0,1.2381635,1.2783738,-0.028433023
vit_b_16,1,568,NaN,elephant,elephant,0,0568_sty_dnn_0_elephant_00_elephant-0033-ILSVRC2012-val-00033715.png,elephant-0033-ILSVRC2012-val-00033715.png,1.0,7.9297805,0.41157883,5.3161716
vit_b_16,1,569,NaN,elephant,elephant,0,0569_sty_dnn_0_elephant_00_elephant-0035-ILSVRC2012-val-00034035.png,elephant-0035-ILSVRC2012-val-00034035.png,1.0,7.5607452,1.1284605,4.548312
vit_b_16,1,570,NaN,elephant,elephant,0,0570_sty_dnn_0_elephant_00_elephant-0036-ILSVRC2012-val-00034664.png,elephant-0036-ILSVRC2012-val-00034664.png,1.0,7.033577,0.5390987,4.5922894
vit_b_16,1,571,NaN,elephant,elephant,0,0571_sty_dnn_0_elephant_00_elephant-0041-ILSVRC2012-val-00038720.png,elephant-0041-ILSVRC2012-val-00038720.png,1.0,7.212074,0.5101634,4.7389665
vit_b_16,1,572,NaN,elephant,elephant,0,0572_sty_dnn_0_elephant_00_elephant-0043-ILSVRC2012-val-00040923.png,elephant-0043-ILSVRC2012-val-00040923.png,1.0,6.297658,0.6286269,4.0086102
vit_b_16,1,573,NaN,elephant,elephant,0,0573_sty_dnn_0_elephant_00_elephant-0045-ILSVRC2012-val-00043193.png,elephant-0045-ILSVRC2012-val-00043193.png,1.0,0.6737567,0.44207948,0.16382055
vit_b_16,1,574,NaN,elephant,elephant,0,0574_sty_dnn_0_elephant_00_elephant-0046-ILSVRC2012-val-00045103.png,elephant-0046-ILSVRC2012-val-00045103.png,1.0,1.5078901,0.75951976,0.5291778
vit_b_16,1,575,NaN,elephant,elephant,0,0575_sty_dnn_0_elephant_00_elephant-0047-ILSVRC2012-val-00048547.png,elephant-0047-ILSVRC2012-val-00048547.png,1.0,5.3546257,1.5482792,2.6914935
vit_b_16,1,576,NaN,bottle,elephant,0,0576_sty_dnn_0_elephant_00_elephant-0051-ILSVRC2012-val-00001177.png,elephant-0051-ILSVRC2012-val-00001177.png,0.0,0.3923319,1.7297714,-0.94571257
vit_b_16,1,577,NaN,bird,elephant,0,0577_sty_dnn_0_elephant_00_elephant-0055-ILSVRC2012-val-00003538.png,elephant-0055-ILSVRC2012-val-00003538.png,0.0,-0.6525065,0.89527494,-1.0944468
vit_b_16,1,578,NaN,elephant,elephant,0,0578_sty_dnn_0_elephant_00_elephant-0057-ILSVRC2012-val-00004013.png,elephant-0057-ILSVRC2012-val-00004013.png,1.0,2.5890906,0.500196,1.4770715
vit_b_16,1,579,NaN,elephant,elephant,0,0579_sty_dnn_0_elephant_00_elephant-0058-ILSVRC2012-val-00004990.png,elephant-0058-ILSVRC2012-val-00004990.png,1.0,2.6310563,1.2609382,0.96881986
vit_b_16,1,580,NaN,elephant,elephant,0,0580_sty_dnn_0_elephant_00_elephant-0059-ILSVRC2012-val-00005109.png,elephant-0059-ILSVRC2012-val-00005109.png,1.0,3.5319245,0.29975414,2.2854896
vit_b_16,1,581,NaN,elephant,elephant,0,0581_sty_dnn_0_elephant_00_elephant-0062-ILSVRC2012-val-00010078.png,elephant-0062-ILSVRC2012-val-00010078.png,1.0,0.93794656,0.4153053,0.36956322
vit_b_16,1,582,NaN,knife,elephant,0,0582_sty_dnn_0_elephant_00_elephant-0065-ILSVRC2012-val-00010619.png,elephant-0065-ILSVRC2012-val-00010619.png,0.0,-0.20492977,1.1152956,-0.9335404
vit_b_16,1,583,NaN,elephant,elephant,0,0583_sty_dnn_0_elephant_00_elephant-0068-ILSVRC2012-val-00016215.png,elephant-0068-ILSVRC2012-val-00016215.png,1.0,1.9267185,0.9490187,0.6913381
vit_b_16,1,584,NaN,elephant,elephant,0,0584_sty_dnn_0_elephant_00_elephant-0069-ILSVRC2012-val-00017097.png,elephant-0069-ILSVRC2012-val-00017097.png,1.0,6.6946373,0.4074946,4.4456816
