subj,session,trial,rt,object_response,category,condition,imagename,filename,is_correct,targ_act,max_nontarg_act,decision_margin
alexnet_w1_mlp_simclrhn_probe1,1,1,NaN,bicycle,airplane,0,0001_sty_dnn_0_airplane_00_airplane-0001-ILSVRC2012-val-00000631.png,airplane-0001-ILSVRC2012-val-00000631.png,0.0,-4.5658607,0.8900509,-3.857912
alexnet_w1_mlp_simclrhn_probe1,1,2,NaN,airplane,airplane,0,0002_sty_dnn_0_airplane_00_airplane-0002-ILSVRC2012-val-00001390.png,airplane-0002-ILSVRC2012-val-00001390.png,1.0,0.095423445,-0.6096278,0.4985465
alexnet_w1_mlp_simclrhn_probe1,1,3,NaN,oven,airplane,0,0003_sty_dnn_0_airplane_00_airplane-0003-ILSVRC2012-val-00001506.png,airplane-0003-ILSVRC2012-val-00001506.png,0.0,-9.345735,-1.2327335,-5.736758
alexnet_w1_mlp_simclrhn_probe1,1,4,NaN,bear,airplane,0,0004_sty_dnn_0_airplane_00_airplane-0004-ILSVRC2012-val-00001952.png,airplane-0004-ILSVRC2012-val-00001952.png,0.0,-4.980984,-0.046642005,-3.4891071
alexnet_w1_mlp_simclrhn_probe1,1,5,NaN,elephant,airplane,0,0005_sty_dnn_0_airplane_00_airplane-0005-ILSVRC2012-val-00003960.png,airplane-0005-ILSVRC2012-val-00003960.png,0.0,-4.1184983,-0.50114393,-2.5578558
alexnet_w1_mlp_simclrhn_probe1,1,6,NaN,elephant,airplane,0,0006_sty_dnn_0_airplane_00_airplane-0006-ILSVRC2012-val-00008292.png,airplane-0006-ILSVRC2012-val-00008292.png,0.0,-3.7971401,0.69278896,-3.1748595
alexnet_w1_mlp_simclrhn_probe1,1,7,NaN,airplane,airplane,0,0007_sty_dnn_0_airplane_00_airplane-0007-ILSVRC2012-val-00009537.png,airplane-0007-ILSVRC2012-val-00009537.png,1.0,2.6406596,-1.348803,2.820976
alexnet_w1_mlp_simclrhn_probe1,1,8,NaN,elephant,airplane,0,0008_sty_dnn_0_airplane_00_airplane-0008-ILSVRC2012-val-00010597.png,airplane-0008-ILSVRC2012-val-00010597.png,0.0,-4.945918,0.034065887,-3.5213804
alexnet_w1_mlp_simclrhn_probe1,1,9,NaN,elephant,airplane,0,0009_sty_dnn_0_airplane_00_airplane-0009-ILSVRC2012-val-00011168.png,airplane-0009-ILSVRC2012-val-00011168.png,0.0,-7.3210983,0.5519967,-5.567119
alexnet_w1_mlp_simclrhn_probe1,1,10,NaN,bicycle,airplane,0,0010_sty_dnn_0_airplane_00_airplane-0010-ILSVRC2012-val-00012263.png,airplane-0010-ILSVRC2012-val-00012263.png,0.0,-10.444109,-2.3068638,-5.7539015
alexnet_w1_mlp_simclrhn_probe1,1,11,NaN,oven,airplane,0,0011_sty_dnn_0_airplane_00_airplane-0011-ILSVRC2012-val-00014425.png,airplane-0011-ILSVRC2012-val-00014425.png,0.0,-6.931473,0.16417229,-5.017379
alexnet_w1_mlp_simclrhn_probe1,1,12,NaN,elephant,airplane,0,0012_sty_dnn_0_airplane_00_airplane-0012-ILSVRC2012-val-00015498.png,airplane-0012-ILSVRC2012-val-00015498.png,0.0,-6.7891893,1.1888604,-5.641333
alexnet_w1_mlp_simclrhn_probe1,1,13,NaN,elephant,airplane,0,0013_sty_dnn_0_airplane_00_airplane-0013-ILSVRC2012-val-00015636.png,airplane-0013-ILSVRC2012-val-00015636.png,0.0,-5.531358,-0.632988,-3.4636705
alexnet_w1_mlp_simclrhn_probe1,1,14,NaN,oven,airplane,0,0014_sty_dnn_0_airplane_00_airplane-0014-ILSVRC2012-val-00016995.png,airplane-0014-ILSVRC2012-val-00016995.png,0.0,-4.8635354,0.5336822,-3.8164093
alexnet_w1_mlp_simclrhn_probe1,1,15,NaN,bear,airplane,0,0015_sty_dnn_0_airplane_00_airplane-0015-ILSVRC2012-val-00018616.png,airplane-0015-ILSVRC2012-val-00018616.png,0.0,-5.5193195,0.5972877,-4.3250947
alexnet_w1_mlp_simclrhn_probe1,1,16,NaN,bicycle,airplane,0,0016_sty_dnn_0_airplane_00_airplane-0016-ILSVRC2012-val-00018685.png,airplane-0016-ILSVRC2012-val-00018685.png,0.0,-4.8864374,-1.6151502,-2.3131495
alexnet_w1_mlp_simclrhn_probe1,1,17,NaN,elephant,airplane,0,0017_sty_dnn_0_airplane_00_airplane-0017-ILSVRC2012-val-00019179.png,airplane-0017-ILSVRC2012-val-00019179.png,0.0,-8.845087,-1.6234739,-5.1064515
alexnet_w1_mlp_simclrhn_probe1,1,18,NaN,elephant,airplane,0,0018_sty_dnn_0_airplane_00_airplane-0018-ILSVRC2012-val-00019677.png,airplane-0018-ILSVRC2012-val-00019677.png,0.0,-0.7609381,-0.73926383,-0.015326028
alexnet_w1_mlp_simclrhn_probe1,1,19,NaN,knife,airplane,0,0019_sty_dnn_0_airplane_00_airplane-0019-ILSVRC2012-val-00022532.png,airplane-0019-ILSVRC2012-val-00022532.png,0.0,-7.3473773,-2.4991698,-3.4282005
alexnet_w1_mlp_simclrhn_probe1,1,20,NaN,bicycle,airplane,0,0020_sty_dnn_0_airplane_00_airplane-0020-ILSVRC2012-val-00022975.png,airplane-0020-ILSVRC2012-val-00022975.png,0.0,-7.8359494,1.7567217,-6.783043
alexnet_w1_mlp_simclrhn_probe1,1,21,NaN,knife,airplane,0,0021_sty_dnn_0_airplane_00_airplane-0021-ILSVRC2012-val-00023316.png,airplane-0021-ILSVRC2012-val-00023316.png,0.0,-4.749737,-2.2169833,-1.7909272
alexnet_w1_mlp_simclrhn_probe1,1,22,NaN,elephant,airplane,0,0022_sty_dnn_0_airplane_00_airplane-0022-ILSVRC2012-val-00023781.png,airplane-0022-ILSVRC2012-val-00023781.png,0.0,-6.7876735,-1.5687726,-3.69032
alexnet_w1_mlp_simclrhn_probe1,1,23,NaN,airplane,airplane,0,0023_sty_dnn_0_airplane_00_airplane-0023-ILSVRC2012-val-00023863.png,airplane-0023-ILSVRC2012-val-00023863.png,1.0,3.1441338,-0.9888278,2.9224453
alexnet_w1_mlp_simclrhn_probe1,1,24,NaN,airplane,airplane,0,0024_sty_dnn_0_airplane_00_airplane-0024-ILSVRC2012-val-00024108.png,airplane-0024-ILSVRC2012-val-00024108.png,1.0,-0.4276352,-3.1384125,1.9168091
alexnet_w1_mlp_simclrhn_probe1,1,25,NaN,airplane,airplane,0,0025_sty_dnn_0_airplane_00_airplane-0025-ILSVRC2012-val-00024747.png,airplane-0025-ILSVRC2012-val-00024747.png,1.0,1.229599,1.1092116,0.08512677
alexnet_w1_mlp_simclrhn_probe1,1,26,NaN,cat,airplane,0,0026_sty_dnn_0_airplane_00_airplane-0026-ILSVRC2012-val-00026189.png,airplane-0026-ILSVRC2012-val-00026189.png,0.0,-5.5816307,-1.489005,-2.8939233
alexnet_w1_mlp_simclrhn_probe1,1,27,NaN,airplane,airplane,0,0027_sty_dnn_0_airplane_00_airplane-0027-ILSVRC2012-val-00026859.png,airplane-0027-ILSVRC2012-val-00026859.png,1.0,0.16000256,-1.4449775,1.1348923
alexnet_w1_mlp_simclrhn_probe1,1,28,NaN,elephant,airplane,0,0028_sty_dnn_0_airplane_00_airplane-0028-ILSVRC2012-val-00028019.png,airplane-0028-ILSVRC2012-val-00028019.png,0.0,-5.578285,2.0011902,-5.3594985
alexnet_w1_mlp_simclrhn_probe1,1,29,NaN,bicycle,airplane,0,0029_sty_dnn_0_airplane_00_airplane-0029-ILSVRC2012-val-00030319.png,airplane-0029-ILSVRC2012-val-00030319.png,0.0,-9.871351,-0.025972039,-6.9617343
alexnet_w1_mlp_simclrhn_probe1,1,30,NaN,oven,airplane,0,0030_sty_dnn_0_airplane_00_airplane-0030-ILSVRC2012-val-00030411.png,airplane-0030-ILSVRC2012-val-00030411.png,0.0,-3.487638,-1.210047,-1.6105001
alexnet_w1_mlp_simclrhn_probe1,1,31,NaN,bicycle,airplane,0,0031_sty_dnn_0_airplane_00_airplane-0031-ILSVRC2012-val-00030531.png,airplane-0031-ILSVRC2012-val-00030531.png,0.0,-6.84879,-3.5418143,-2.338385
alexnet_w1_mlp_simclrhn_probe1,1,32,NaN,oven,airplane,0,0032_sty_dnn_0_airplane_00_airplane-0032-ILSVRC2012-val-00032804.png,airplane-0032-ILSVRC2012-val-00032804.png,0.0,-4.2347136,-3.6676788,-0.4009541
alexnet_w1_mlp_simclrhn_probe1,1,33,NaN,oven,airplane,0,0033_sty_dnn_0_airplane_00_airplane-0033-ILSVRC2012-val-00033161.png,airplane-0033-ILSVRC2012-val-00033161.png,0.0,-6.3596888,0.7643461,-5.0374537
alexnet_w1_mlp_simclrhn_probe1,1,34,NaN,oven,airplane,0,0034_sty_dnn_0_airplane_00_airplane-0034-ILSVRC2012-val-00033441.png,airplane-0034-ILSVRC2012-val-00033441.png,0.0,-5.198247,-1.1545067,-2.8593562
alexnet_w1_mlp_simclrhn_probe1,1,35,NaN,elephant,airplane,0,0035_sty_dnn_0_airplane_00_airplane-0035-ILSVRC2012-val-00033920.png,airplane-0035-ILSVRC2012-val-00033920.png,0.0,-1.5167997,-1.0254165,-0.3474604
alexnet_w1_mlp_simclrhn_probe1,1,36,NaN,airplane,airplane,0,0036_sty_dnn_0_airplane_00_airplane-0036-ILSVRC2012-val-00034342.png,airplane-0036-ILSVRC2012-val-00034342.png,1.0,-1.7279546,-2.587224,0.6075952
alexnet_w1_mlp_simclrhn_probe1,1,37,NaN,bicycle,airplane,0,0037_sty_dnn_0_airplane_00_airplane-0037-ILSVRC2012-val-00035783.png,airplane-0037-ILSVRC2012-val-00035783.png,0.0,-4.6168833,1.7230034,-4.482977
alexnet_w1_mlp_simclrhn_probe1,1,38,NaN,oven,airplane,0,0038_sty_dnn_0_airplane_00_airplane-0038-ILSVRC2012-val-00036394.png,airplane-0038-ILSVRC2012-val-00036394.png,0.0,-9.599921,-1.0263879,-6.0624037
alexnet_w1_mlp_simclrhn_probe1,1,39,NaN,bicycle,airplane,0,0039_sty_dnn_0_airplane_00_airplane-0039-ILSVRC2012-val-00037801.png,airplane-0039-ILSVRC2012-val-00037801.png,0.0,-10.257643,-0.4013042,-6.969484
alexnet_w1_mlp_simclrhn_probe1,1,40,NaN,knife,airplane,0,0040_sty_dnn_0_airplane_00_airplane-0040-ILSVRC2012-val-00039213.png,airplane-0040-ILSVRC2012-val-00039213.png,0.0,-1.865648,-1.1118312,-0.533029
alexnet_w1_mlp_simclrhn_probe1,1,41,NaN,knife,airplane,0,0041_sty_dnn_0_airplane_00_airplane-0041-ILSVRC2012-val-00040136.png,airplane-0041-ILSVRC2012-val-00040136.png,0.0,-4.416327,0.080165364,-3.1795003
alexnet_w1_mlp_simclrhn_probe1,1,42,NaN,bicycle,airplane,0,0042_sty_dnn_0_airplane_00_airplane-0042-ILSVRC2012-val-00040547.png,airplane-0042-ILSVRC2012-val-00040547.png,0.0,-13.037626,-1.9626064,-7.8312216
alexnet_w1_mlp_simclrhn_probe1,1,43,NaN,bear,airplane,0,0043_sty_dnn_0_airplane_00_airplane-0043-ILSVRC2012-val-00041518.png,airplane-0043-ILSVRC2012-val-00041518.png,0.0,-6.6639323,0.7199847,-5.2212176
alexnet_w1_mlp_simclrhn_probe1,1,44,NaN,truck,airplane,0,0044_sty_dnn_0_airplane_00_airplane-0044-ILSVRC2012-val-00043242.png,airplane-0044-ILSVRC2012-val-00043242.png,0.0,-1.6586783,1.25581,-2.0608544
alexnet_w1_mlp_simclrhn_probe1,1,45,NaN,bicycle,airplane,0,0045_sty_dnn_0_airplane_00_airplane-0045-ILSVRC2012-val-00044253.png,airplane-0045-ILSVRC2012-val-00044253.png,0.0,-6.42007,-2.0163689,-3.113887
alexnet_w1_mlp_simclrhn_probe1,1,46,NaN,bicycle,airplane,0,0046_sty_dnn_0_airplane_00_airplane-0046-ILSVRC2012-val-00046862.png,airplane-0046-ILSVRC2012-val-00046862.png,0.0,-4.854061,-1.841938,-2.1298928
alexnet_w1_mlp_simclrhn_probe1,1,47,NaN,elephant,airplane,0,0047_sty_dnn_0_airplane_00_airplane-0047-ILSVRC2012-val-00046971.png,airplane-0047-ILSVRC2012-val-00046971.png,0.0,-4.412491,-1.7243322,-1.9008151
alexnet_w1_mlp_simclrhn_probe1,1,48,NaN,oven,airplane,0,0048_sty_dnn_0_airplane_00_airplane-0048-ILSVRC2012-val-00047829.png,airplane-0048-ILSVRC2012-val-00047829.png,0.0,-2.8458529,0.5164468,-2.377505
alexnet_w1_mlp_simclrhn_probe1,1,49,NaN,elephant,airplane,0,0049_sty_dnn_0_airplane_00_airplane-0049-ILSVRC2012-val-00048111.png,airplane-0049-ILSVRC2012-val-00048111.png,0.0,-4.850888,-0.8038196,-2.8617094
alexnet_w1_mlp_simclrhn_probe1,1,50,NaN,airplane,airplane,0,0050_sty_dnn_0_airplane_00_airplane-0050-ILSVRC2012-val-00049097.png,airplane-0050-ILSVRC2012-val-00049097.png,1.0,0.02246689,-0.80681425,0.5863903
alexnet_w1_mlp_simclrhn_probe1,1,51,NaN,bicycle,bear,0,0051_sty_dnn_0_bear_00_bear-0003-ILSVRC2012-val-00003044.png,bear-0003-ILSVRC2012-val-00003044.png,0.0,-10.333771,-0.47690934,-6.9698534
alexnet_w1_mlp_simclrhn_probe1,1,52,NaN,bear,bear,0,0052_sty_dnn_0_bear_00_bear-0005-ILSVRC2012-val-00006703.png,bear-0005-ILSVRC2012-val-00006703.png,1.0,-0.60317016,-1.222303,0.43779308
alexnet_w1_mlp_simclrhn_probe1,1,53,NaN,oven,bear,0,0053_sty_dnn_0_bear_00_bear-0009-ILSVRC2012-val-00011967.png,bear-0009-ILSVRC2012-val-00011967.png,0.0,-3.762347,-1.6912987,-1.4644523
alexnet_w1_mlp_simclrhn_probe1,1,54,NaN,elephant,bear,0,0054_sty_dnn_0_bear_00_bear-0010-ILSVRC2012-val-00013390.png,bear-0010-ILSVRC2012-val-00013390.png,0.0,0.67096114,1.0067465,-0.23743613
alexnet_w1_mlp_simclrhn_probe1,1,55,NaN,elephant,bear,0,0055_sty_dnn_0_bear_00_bear-0021-ILSVRC2012-val-00031253.png,bear-0021-ILSVRC2012-val-00031253.png,0.0,1.1074557,1.7297645,-0.44003874
alexnet_w1_mlp_simclrhn_probe1,1,56,NaN,knife,bear,0,0056_sty_dnn_0_bear_00_bear-0031-ILSVRC2012-val-00039777.png,bear-0031-ILSVRC2012-val-00039777.png,0.0,-7.259128,-2.7888446,-3.1609678
alexnet_w1_mlp_simclrhn_probe1,1,57,NaN,elephant,bear,0,0057_sty_dnn_0_bear_00_bear-0035-ILSVRC2012-val-00042274.png,bear-0035-ILSVRC2012-val-00042274.png,0.0,-2.6607523,-0.509287,-1.5213158
alexnet_w1_mlp_simclrhn_probe1,1,58,NaN,knife,bear,0,0058_sty_dnn_0_bear_00_bear-0043-ILSVRC2012-val-00046763.png,bear-0043-ILSVRC2012-val-00046763.png,0.0,-2.08713,-0.6700344,-1.002038
alexnet_w1_mlp_simclrhn_probe1,1,59,NaN,elephant,bear,0,0059_sty_dnn_0_bear_00_bear-0049-ILSVRC2012-val-00049822.png,bear-0049-ILSVRC2012-val-00049822.png,0.0,-1.4443091,1.0039921,-1.7312105
alexnet_w1_mlp_simclrhn_probe1,1,60,NaN,elephant,bear,0,0060_sty_dnn_0_bear_00_bear-0052-ILSVRC2012-val-00000865.png,bear-0052-ILSVRC2012-val-00000865.png,0.0,2.8183951,3.3424258,-0.37054566
alexnet_w1_mlp_simclrhn_probe1,1,61,NaN,knife,bear,0,0061_sty_dnn_0_bear_00_bear-0056-ILSVRC2012-val-00007093.png,bear-0056-ILSVRC2012-val-00007093.png,0.0,-8.039943,-1.5807807,-4.567317
alexnet_w1_mlp_simclrhn_probe1,1,62,NaN,bear,bear,0,0062_sty_dnn_0_bear_00_bear-0058-ILSVRC2012-val-00011726.png,bear-0058-ILSVRC2012-val-00011726.png,1.0,0.13995388,-0.49887627,0.45172116
alexnet_w1_mlp_simclrhn_probe1,1,63,NaN,bear,bear,0,0063_sty_dnn_0_bear_00_bear-0062-ILSVRC2012-val-00014029.png,bear-0062-ILSVRC2012-val-00014029.png,1.0,0.13202302,-1.2834395,1.0008831
alexnet_w1_mlp_simclrhn_probe1,1,64,NaN,elephant,bear,0,0064_sty_dnn_0_bear_00_bear-0064-ILSVRC2012-val-00016050.png,bear-0064-ILSVRC2012-val-00016050.png,0.0,-5.447196,-0.60576916,-3.423406
alexnet_w1_mlp_simclrhn_probe1,1,65,NaN,bottle,bear,0,0065_sty_dnn_0_bear_00_bear-0066-ILSVRC2012-val-00016621.png,bear-0066-ILSVRC2012-val-00016621.png,0.0,-16.75563,-2.4450095,-10.119138
alexnet_w1_mlp_simclrhn_probe1,1,66,NaN,elephant,bear,0,0066_sty_dnn_0_bear_00_bear-0067-ILSVRC2012-val-00017273.png,bear-0067-ILSVRC2012-val-00017273.png,0.0,-2.5103543,-0.45814103,-1.4511338
alexnet_w1_mlp_simclrhn_probe1,1,67,NaN,knife,bear,0,0067_sty_dnn_0_bear_00_bear-0069-ILSVRC2012-val-00018788.png,bear-0069-ILSVRC2012-val-00018788.png,0.0,-11.565531,-2.9387207,-6.100076
alexnet_w1_mlp_simclrhn_probe1,1,68,NaN,bear,bear,0,0068_sty_dnn_0_bear_00_bear-0071-ILSVRC2012-val-00020050.png,bear-0071-ILSVRC2012-val-00020050.png,1.0,0.19579983,-0.103606835,0.21171248
alexnet_w1_mlp_simclrhn_probe1,1,69,NaN,knife,bear,0,0069_sty_dnn_0_bear_00_bear-0073-ILSVRC2012-val-00024289.png,bear-0073-ILSVRC2012-val-00024289.png,0.0,-7.5873985,-2.0141273,-3.940898
alexnet_w1_mlp_simclrhn_probe1,1,70,NaN,knife,bear,0,0070_sty_dnn_0_bear_00_bear-0074-ILSVRC2012-val-00026962.png,bear-0074-ILSVRC2012-val-00026962.png,0.0,-7.238189,-0.89820474,-4.483046
alexnet_w1_mlp_simclrhn_probe1,1,71,NaN,cat,bear,0,0071_sty_dnn_0_bear_00_bear-0078-ILSVRC2012-val-00030951.png,bear-0078-ILSVRC2012-val-00030951.png,0.0,-3.2748928,0.31927654,-2.5414615
alexnet_w1_mlp_simclrhn_probe1,1,72,NaN,elephant,bear,0,0072_sty_dnn_0_bear_00_bear-0085-ILSVRC2012-val-00035292.png,bear-0085-ILSVRC2012-val-00035292.png,0.0,-2.841023,0.17334917,-2.131483
alexnet_w1_mlp_simclrhn_probe1,1,73,NaN,bicycle,bear,0,0073_sty_dnn_0_bear_00_bear-0091-ILSVRC2012-val-00041813.png,bear-0091-ILSVRC2012-val-00041813.png,0.0,-5.60746,-1.5364695,-2.8786252
alexnet_w1_mlp_simclrhn_probe1,1,74,NaN,elephant,bear,0,0074_sty_dnn_0_bear_00_bear-0094-ILSVRC2012-val-00043648.png,bear-0094-ILSVRC2012-val-00043648.png,0.0,-2.0515146,1.8567733,-2.763577
alexnet_w1_mlp_simclrhn_probe1,1,75,NaN,bicycle,bear,0,0075_sty_dnn_0_bear_00_bear-0106-ILSVRC2012-val-00007578.png,bear-0106-ILSVRC2012-val-00007578.png,0.0,-4.9352436,-1.1071622,-2.7068624
alexnet_w1_mlp_simclrhn_probe1,1,76,NaN,bottle,bear,0,0076_sty_dnn_0_bear_00_bear-0112-ILSVRC2012-val-00016340.png,bear-0112-ILSVRC2012-val-00016340.png,0.0,-5.0529604,-0.21183757,-3.4231906
alexnet_w1_mlp_simclrhn_probe1,1,77,NaN,bear,bear,0,0077_sty_dnn_0_bear_00_bear-0113-ILSVRC2012-val-00016459.png,bear-0113-ILSVRC2012-val-00016459.png,1.0,1.7502279,1.0426568,0.50032836
alexnet_w1_mlp_simclrhn_probe1,1,78,NaN,elephant,bear,0,0078_sty_dnn_0_bear_00_bear-0114-ILSVRC2012-val-00017605.png,bear-0114-ILSVRC2012-val-00017605.png,0.0,-0.9607899,2.0990384,-2.1636255
alexnet_w1_mlp_simclrhn_probe1,1,79,NaN,cat,bear,0,0079_sty_dnn_0_bear_00_bear-0116-ILSVRC2012-val-00020332.png,bear-0116-ILSVRC2012-val-00020332.png,0.0,-2.7098718,-0.99204355,-1.2146881
alexnet_w1_mlp_simclrhn_probe1,1,80,NaN,elephant,bear,0,0080_sty_dnn_0_bear_00_bear-0125-ILSVRC2012-val-00028222.png,bear-0125-ILSVRC2012-val-00028222.png,0.0,-1.2482655,-0.2761662,-0.68737805
alexnet_w1_mlp_simclrhn_probe1,1,81,NaN,oven,bear,0,0081_sty_dnn_0_bear_00_bear-0129-ILSVRC2012-val-00030485.png,bear-0129-ILSVRC2012-val-00030485.png,0.0,-3.6484256,-0.70718884,-2.0797684
alexnet_w1_mlp_simclrhn_probe1,1,82,NaN,cat,bear,0,0082_sty_dnn_0_bear_00_bear-0131-ILSVRC2012-val-00031877.png,bear-0131-ILSVRC2012-val-00031877.png,0.0,-1.9822818,-1.4696999,-0.36245018
alexnet_w1_mlp_simclrhn_probe1,1,83,NaN,knife,bear,0,0083_sty_dnn_0_bear_00_bear-0132-ILSVRC2012-val-00036763.png,bear-0132-ILSVRC2012-val-00036763.png,0.0,-9.537821,-1.1465735,-5.9335074
alexnet_w1_mlp_simclrhn_probe1,1,84,NaN,bicycle,bear,0,0084_sty_dnn_0_bear_00_bear-0139-ILSVRC2012-val-00041156.png,bear-0139-ILSVRC2012-val-00041156.png,0.0,-17.098078,1.4394753,-13.10803
alexnet_w1_mlp_simclrhn_probe1,1,85,NaN,bear,bear,0,0085_sty_dnn_0_bear_00_bear-0141-ILSVRC2012-val-00042320.png,bear-0141-ILSVRC2012-val-00042320.png,1.0,-0.68621236,-0.7382654,0.036807053
alexnet_w1_mlp_simclrhn_probe1,1,86,NaN,oven,bear,0,0086_sty_dnn_0_bear_00_bear-0143-ILSVRC2012-val-00044126.png,bear-0143-ILSVRC2012-val-00044126.png,0.0,-2.6026623,-0.12103763,-1.7547736
alexnet_w1_mlp_simclrhn_probe1,1,87,NaN,clock,bear,0,0087_sty_dnn_0_bear_00_bear-0149-ILSVRC2012-val-00048105.png,bear-0149-ILSVRC2012-val-00048105.png,0.0,-5.054026,-0.15542896,-3.4638314
alexnet_w1_mlp_simclrhn_probe1,1,88,NaN,cat,bear,0,0088_sty_dnn_0_bear_00_bear-0154-ILSVRC2012-val-00003499.png,bear-0154-ILSVRC2012-val-00003499.png,0.0,-5.3693714,-1.1126958,-3.0099244
alexnet_w1_mlp_simclrhn_probe1,1,89,NaN,elephant,bear,0,0089_sty_dnn_0_bear_00_bear-0160-ILSVRC2012-val-00013052.png,bear-0160-ILSVRC2012-val-00013052.png,0.0,-3.697816,-1.4629993,-1.580254
alexnet_w1_mlp_simclrhn_probe1,1,90,NaN,oven,bear,0,0090_sty_dnn_0_bear_00_bear-0163-ILSVRC2012-val-00016513.png,bear-0163-ILSVRC2012-val-00016513.png,0.0,-5.171402,-1.8776548,-2.329031
alexnet_w1_mlp_simclrhn_probe1,1,91,NaN,bicycle,bear,0,0091_sty_dnn_0_bear_00_bear-0164-ILSVRC2012-val-00018303.png,bear-0164-ILSVRC2012-val-00018303.png,0.0,-5.9598293,-1.3025099,-3.2932222
alexnet_w1_mlp_simclrhn_probe1,1,92,NaN,boat,bear,0,0092_sty_dnn_0_bear_00_bear-0165-ILSVRC2012-val-00019901.png,bear-0165-ILSVRC2012-val-00019901.png,0.0,-4.1895623,-2.178887,-1.4217622
alexnet_w1_mlp_simclrhn_probe1,1,93,NaN,bottle,bear,0,0093_sty_dnn_0_bear_00_bear-0166-ILSVRC2012-val-00022111.png,bear-0166-ILSVRC2012-val-00022111.png,0.0,-5.5277786,-1.78537,-2.6462827
alexnet_w1_mlp_simclrhn_probe1,1,94,NaN,elephant,bear,0,0094_sty_dnn_0_bear_00_bear-0167-ILSVRC2012-val-00022112.png,bear-0167-ILSVRC2012-val-00022112.png,0.0,-1.903888,-0.37802124,-1.0789508
alexnet_w1_mlp_simclrhn_probe1,1,95,NaN,elephant,bear,0,0095_sty_dnn_0_bear_00_bear-0168-ILSVRC2012-val-00022698.png,bear-0168-ILSVRC2012-val-00022698.png,0.0,0.27910122,1.0630714,-0.5543506
alexnet_w1_mlp_simclrhn_probe1,1,96,NaN,oven,bear,0,0096_sty_dnn_0_bear_00_bear-0180-ILSVRC2012-val-00034637.png,bear-0180-ILSVRC2012-val-00034637.png,0.0,-3.8202615,-0.44946942,-2.38351
alexnet_w1_mlp_simclrhn_probe1,1,97,NaN,chair,bear,0,0097_sty_dnn_0_bear_00_bear-0184-ILSVRC2012-val-00038961.png,bear-0184-ILSVRC2012-val-00038961.png,0.0,-15.003879,-0.5917325,-10.190926
alexnet_w1_mlp_simclrhn_probe1,1,98,NaN,elephant,bear,0,0098_sty_dnn_0_bear_00_bear-0188-ILSVRC2012-val-00043016.png,bear-0188-ILSVRC2012-val-00043016.png,0.0,-4.846056,0.39366007,-3.7050388
alexnet_w1_mlp_simclrhn_probe1,1,99,NaN,cat,bear,0,0099_sty_dnn_0_bear_00_bear-0191-ILSVRC2012-val-00044349.png,bear-0191-ILSVRC2012-val-00044349.png,0.0,-5.616749,-2.304227,-2.3423066
alexnet_w1_mlp_simclrhn_probe1,1,100,NaN,elephant,bear,0,0100_sty_dnn_0_bear_00_bear-0195-ILSVRC2012-val-00045672.png,bear-0195-ILSVRC2012-val-00045672.png,0.0,-2.7326894,-1.0662391,-1.1783583
alexnet_w1_mlp_simclrhn_probe1,1,101,NaN,airplane,bicycle,0,0101_sty_dnn_0_bicycle_00_bicycle-0005-ILSVRC2012-val-00005274.png,bicycle-0005-ILSVRC2012-val-00005274.png,0.0,-3.5645547,-0.65851086,-2.0548832
alexnet_w1_mlp_simclrhn_probe1,1,102,NaN,cat,bicycle,0,0102_sty_dnn_0_bicycle_00_bicycle-0007-ILSVRC2012-val-00006395.png,bicycle-0007-ILSVRC2012-val-00006395.png,0.0,-3.2149508,-0.43582368,-1.9651396
alexnet_w1_mlp_simclrhn_probe1,1,103,NaN,bicycle,bicycle,0,0103_sty_dnn_0_bicycle_00_bicycle-0008-ILSVRC2012-val-00008007.png,bicycle-0008-ILSVRC2012-val-00008007.png,1.0,-1.1082331,-4.3257704,2.2751427
alexnet_w1_mlp_simclrhn_probe1,1,104,NaN,bicycle,bicycle,0,0104_sty_dnn_0_bicycle_00_bicycle-0010-ILSVRC2012-val-00010544.png,bicycle-0010-ILSVRC2012-val-00010544.png,1.0,1.2073649,-1.1836438,1.6906986
alexnet_w1_mlp_simclrhn_probe1,1,105,NaN,knife,bicycle,0,0105_sty_dnn_0_bicycle_00_bicycle-0011-ILSVRC2012-val-00011821.png,bicycle-0011-ILSVRC2012-val-00011821.png,0.0,-3.5372481,-2.1106453,-1.0087606
alexnet_w1_mlp_simclrhn_probe1,1,106,NaN,bicycle,bicycle,0,0106_sty_dnn_0_bicycle_00_bicycle-0013-ILSVRC2012-val-00012667.png,bicycle-0013-ILSVRC2012-val-00012667.png,1.0,3.760811,-2.4130952,4.365611
alexnet_w1_mlp_simclrhn_probe1,1,107,NaN,elephant,bicycle,0,0107_sty_dnn_0_bicycle_00_bicycle-0014-ILSVRC2012-val-00015483.png,bicycle-0014-ILSVRC2012-val-00015483.png,0.0,-2.8537316,-1.5443925,-0.92584264
alexnet_w1_mlp_simclrhn_probe1,1,108,NaN,bicycle,bicycle,0,0108_sty_dnn_0_bicycle_00_bicycle-0015-ILSVRC2012-val-00015618.png,bicycle-0015-ILSVRC2012-val-00015618.png,1.0,0.93152076,-3.3620815,3.0360355
alexnet_w1_mlp_simclrhn_probe1,1,109,NaN,elephant,bicycle,0,0109_sty_dnn_0_bicycle_00_bicycle-0016-ILSVRC2012-val-00016532.png,bicycle-0016-ILSVRC2012-val-00016532.png,0.0,-5.2817707,1.3224545,-4.6698923
alexnet_w1_mlp_simclrhn_probe1,1,110,NaN,bicycle,bicycle,0,0110_sty_dnn_0_bicycle_00_bicycle-0018-ILSVRC2012-val-00018975.png,bicycle-0018-ILSVRC2012-val-00018975.png,1.0,3.7419581,-6.4047527,7.1748085
alexnet_w1_mlp_simclrhn_probe1,1,111,NaN,bicycle,bicycle,0,0111_sty_dnn_0_bicycle_00_bicycle-0020-ILSVRC2012-val-00022027.png,bicycle-0020-ILSVRC2012-val-00022027.png,1.0,0.89328265,-1.5847766,1.7522526
alexnet_w1_mlp_simclrhn_probe1,1,112,NaN,bicycle,bicycle,0,0112_sty_dnn_0_bicycle_00_bicycle-0022-ILSVRC2012-val-00023266.png,bicycle-0022-ILSVRC2012-val-00023266.png,1.0,0.8590548,-0.026273102,0.6260214
alexnet_w1_mlp_simclrhn_probe1,1,113,NaN,oven,bicycle,0,0113_sty_dnn_0_bicycle_00_bicycle-0024-ILSVRC2012-val-00025915.png,bicycle-0024-ILSVRC2012-val-00025915.png,0.0,-6.1818824,0.3593433,-4.6253448
alexnet_w1_mlp_simclrhn_probe1,1,114,NaN,bicycle,bicycle,0,0114_sty_dnn_0_bicycle_00_bicycle-0026-ILSVRC2012-val-00026292.png,bicycle-0026-ILSVRC2012-val-00026292.png,1.0,1.1622952,-3.3655343,3.2016592
alexnet_w1_mlp_simclrhn_probe1,1,115,NaN,knife,bicycle,0,0115_sty_dnn_0_bicycle_00_bicycle-0030-ILSVRC2012-val-00027620.png,bicycle-0030-ILSVRC2012-val-00027620.png,0.0,-4.080776,-3.160162,-0.6509726
alexnet_w1_mlp_simclrhn_probe1,1,116,NaN,knife,bicycle,0,0116_sty_dnn_0_bicycle_00_bicycle-0032-ILSVRC2012-val-00030070.png,bicycle-0032-ILSVRC2012-val-00030070.png,0.0,-3.66537,-1.2687545,-1.694663
alexnet_w1_mlp_simclrhn_probe1,1,117,NaN,bicycle,bicycle,0,0117_sty_dnn_0_bicycle_00_bicycle-0033-ILSVRC2012-val-00031498.png,bicycle-0033-ILSVRC2012-val-00031498.png,1.0,-0.28300482,-1.7318135,1.0244625
alexnet_w1_mlp_simclrhn_probe1,1,118,NaN,bicycle,bicycle,0,0118_sty_dnn_0_bicycle_00_bicycle-0035-ILSVRC2012-val-00033559.png,bicycle-0035-ILSVRC2012-val-00033559.png,1.0,4.1773915,-2.4017582,4.6521616
alexnet_w1_mlp_simclrhn_probe1,1,119,NaN,bicycle,bicycle,0,0119_sty_dnn_0_bicycle_00_bicycle-0037-ILSVRC2012-val-00036009.png,bicycle-0037-ILSVRC2012-val-00036009.png,1.0,0.0532943,-5.127846,3.6636193
alexnet_w1_mlp_simclrhn_probe1,1,120,NaN,chair,bicycle,0,0120_sty_dnn_0_bicycle_00_bicycle-0038-ILSVRC2012-val-00036903.png,bicycle-0038-ILSVRC2012-val-00036903.png,0.0,-3.792435,-1.4772313,-1.6370963
alexnet_w1_mlp_simclrhn_probe1,1,121,NaN,bicycle,bicycle,0,0121_sty_dnn_0_bicycle_00_bicycle-0039-ILSVRC2012-val-00037292.png,bicycle-0039-ILSVRC2012-val-00037292.png,1.0,2.2341893,0.6532215,1.117913
alexnet_w1_mlp_simclrhn_probe1,1,122,NaN,bicycle,bicycle,0,0122_sty_dnn_0_bicycle_00_bicycle-0040-ILSVRC2012-val-00037433.png,bicycle-0040-ILSVRC2012-val-00037433.png,1.0,1.3550562,-2.6877441,2.8586917
alexnet_w1_mlp_simclrhn_probe1,1,123,NaN,bicycle,bicycle,0,0123_sty_dnn_0_bicycle_00_bicycle-0043-ILSVRC2012-val-00038415.png,bicycle-0043-ILSVRC2012-val-00038415.png,1.0,0.10933536,-1.8953164,1.4175029
alexnet_w1_mlp_simclrhn_probe1,1,124,NaN,oven,bicycle,0,0124_sty_dnn_0_bicycle_00_bicycle-0044-ILSVRC2012-val-00040027.png,bicycle-0044-ILSVRC2012-val-00040027.png,0.0,-2.377561,-2.2217884,-0.11014792
alexnet_w1_mlp_simclrhn_probe1,1,125,NaN,bicycle,bicycle,0,0125_sty_dnn_0_bicycle_00_bicycle-0046-ILSVRC2012-val-00042496.png,bicycle-0046-ILSVRC2012-val-00042496.png,1.0,-0.6312054,-0.97055674,0.23995765
alexnet_w1_mlp_simclrhn_probe1,1,126,NaN,bicycle,bicycle,0,0126_sty_dnn_0_bicycle_00_bicycle-0047-ILSVRC2012-val-00043435.png,bicycle-0047-ILSVRC2012-val-00043435.png,1.0,2.3578506,-0.87489563,2.2858968
alexnet_w1_mlp_simclrhn_probe1,1,127,NaN,bicycle,bicycle,0,0127_sty_dnn_0_bicycle_00_bicycle-0048-ILSVRC2012-val-00045400.png,bicycle-0048-ILSVRC2012-val-00045400.png,1.0,0.19503006,-2.0720117,1.6030406
alexnet_w1_mlp_simclrhn_probe1,1,128,NaN,bottle,bicycle,0,0128_sty_dnn_0_bicycle_00_bicycle-0050-ILSVRC2012-val-00049382.png,bicycle-0050-ILSVRC2012-val-00049382.png,0.0,-2.905787,-2.4861915,-0.2966988
alexnet_w1_mlp_simclrhn_probe1,1,129,NaN,bicycle,bicycle,0,0129_sty_dnn_0_bicycle_00_bicycle-0054-ILSVRC2012-val-00004147.png,bicycle-0054-ILSVRC2012-val-00004147.png,1.0,1.1143816,-2.1709132,2.3230543
alexnet_w1_mlp_simclrhn_probe1,1,130,NaN,elephant,bicycle,0,0130_sty_dnn_0_bicycle_00_bicycle-0056-ILSVRC2012-val-00005330.png,bicycle-0056-ILSVRC2012-val-00005330.png,0.0,-0.6267689,-0.22358966,-0.28509077
alexnet_w1_mlp_simclrhn_probe1,1,131,NaN,bicycle,bicycle,0,0131_sty_dnn_0_bicycle_00_bicycle-0059-ILSVRC2012-val-00011329.png,bicycle-0059-ILSVRC2012-val-00011329.png,1.0,1.2214108,-3.1240082,3.0726752
alexnet_w1_mlp_simclrhn_probe1,1,132,NaN,bicycle,bicycle,0,0132_sty_dnn_0_bicycle_00_bicycle-0060-ILSVRC2012-val-00011330.png,bicycle-0060-ILSVRC2012-val-00011330.png,1.0,-1.7035928,-2.6752222,0.68704575
alexnet_w1_mlp_simclrhn_probe1,1,133,NaN,elephant,bicycle,0,0133_sty_dnn_0_bicycle_00_bicycle-0061-ILSVRC2012-val-00012096.png,bicycle-0061-ILSVRC2012-val-00012096.png,0.0,-1.0259221,0.21277352,-0.8758901
alexnet_w1_mlp_simclrhn_probe1,1,134,NaN,oven,bicycle,0,0134_sty_dnn_0_bicycle_00_bicycle-0062-ILSVRC2012-val-00015867.png,bicycle-0062-ILSVRC2012-val-00015867.png,0.0,-2.0842986,-1.5669119,-0.36584765
alexnet_w1_mlp_simclrhn_probe1,1,135,NaN,bottle,bicycle,0,0135_sty_dnn_0_bicycle_00_bicycle-0064-ILSVRC2012-val-00017103.png,bicycle-0064-ILSVRC2012-val-00017103.png,0.0,-1.8041644,-0.1159402,-1.1937548
alexnet_w1_mlp_simclrhn_probe1,1,136,NaN,elephant,bicycle,0,0136_sty_dnn_0_bicycle_00_bicycle-0067-ILSVRC2012-val-00018304.png,bicycle-0067-ILSVRC2012-val-00018304.png,0.0,-3.829298,-1.9108348,-1.3565584
alexnet_w1_mlp_simclrhn_probe1,1,137,NaN,bear,bicycle,0,0137_sty_dnn_0_bicycle_00_bicycle-0070-ILSVRC2012-val-00020631.png,bicycle-0070-ILSVRC2012-val-00020631.png,0.0,-7.019939,1.0575024,-5.7116137
alexnet_w1_mlp_simclrhn_probe1,1,138,NaN,bicycle,bicycle,0,0138_sty_dnn_0_bicycle_00_bicycle-0073-ILSVRC2012-val-00027449.png,bicycle-0073-ILSVRC2012-val-00027449.png,1.0,-1.3332173,-5.4317875,2.8981268
alexnet_w1_mlp_simclrhn_probe1,1,139,NaN,cat,bicycle,0,0139_sty_dnn_0_bicycle_00_bicycle-0074-ILSVRC2012-val-00028824.png,bicycle-0074-ILSVRC2012-val-00028824.png,0.0,-2.5280247,-1.8913096,-0.45022553
alexnet_w1_mlp_simclrhn_probe1,1,140,NaN,bicycle,bicycle,0,0140_sty_dnn_0_bicycle_00_bicycle-0077-ILSVRC2012-val-00030112.png,bicycle-0077-ILSVRC2012-val-00030112.png,1.0,0.7885561,-1.6574073,1.7295573
alexnet_w1_mlp_simclrhn_probe1,1,141,NaN,bicycle,bicycle,0,0141_sty_dnn_0_bicycle_00_bicycle-0078-ILSVRC2012-val-00030892.png,bicycle-0078-ILSVRC2012-val-00030892.png,1.0,2.6669867,0.33273655,1.6505642
alexnet_w1_mlp_simclrhn_probe1,1,142,NaN,bicycle,bicycle,0,0142_sty_dnn_0_bicycle_00_bicycle-0079-ILSVRC2012-val-00031485.png,bicycle-0079-ILSVRC2012-val-00031485.png,1.0,-0.48418525,-2.580177,1.4820901
alexnet_w1_mlp_simclrhn_probe1,1,143,NaN,cat,bicycle,0,0143_sty_dnn_0_bicycle_00_bicycle-0080-ILSVRC2012-val-00032009.png,bicycle-0080-ILSVRC2012-val-00032009.png,0.0,-2.4367054,-1.4999236,-0.6624048
alexnet_w1_mlp_simclrhn_probe1,1,144,NaN,bicycle,bicycle,0,0144_sty_dnn_0_bicycle_00_bicycle-0081-ILSVRC2012-val-00032967.png,bicycle-0081-ILSVRC2012-val-00032967.png,1.0,0.85901207,-2.172057,2.1432896
alexnet_w1_mlp_simclrhn_probe1,1,145,NaN,bicycle,bicycle,0,0145_sty_dnn_0_bicycle_00_bicycle-0085-ILSVRC2012-val-00037438.png,bicycle-0085-ILSVRC2012-val-00037438.png,1.0,-0.3253206,-2.6620355,1.6523069
alexnet_w1_mlp_simclrhn_probe1,1,146,NaN,bicycle,bicycle,0,0146_sty_dnn_0_bicycle_00_bicycle-0089-ILSVRC2012-val-00042393.png,bicycle-0089-ILSVRC2012-val-00042393.png,1.0,2.0790806,-1.8419343,2.772576
alexnet_w1_mlp_simclrhn_probe1,1,147,NaN,bicycle,bicycle,0,0147_sty_dnn_0_bicycle_00_bicycle-0092-ILSVRC2012-val-00043207.png,bicycle-0092-ILSVRC2012-val-00043207.png,1.0,-1.0071723,-2.2416115,0.8728803
alexnet_w1_mlp_simclrhn_probe1,1,148,NaN,bicycle,bicycle,0,0148_sty_dnn_0_bicycle_00_bicycle-0094-ILSVRC2012-val-00044080.png,bicycle-0094-ILSVRC2012-val-00044080.png,1.0,6.556237,-1.8854184,5.9691525
alexnet_w1_mlp_simclrhn_probe1,1,149,NaN,bicycle,bicycle,0,0149_sty_dnn_0_bicycle_00_bicycle-0096-ILSVRC2012-val-00045152.png,bicycle-0096-ILSVRC2012-val-00045152.png,1.0,0.95320076,-4.409928,3.7923048
alexnet_w1_mlp_simclrhn_probe1,1,150,NaN,bicycle,bicycle,0,0150_sty_dnn_0_bicycle_00_bicycle-0100-ILSVRC2012-val-00049750.png,bicycle-0100-ILSVRC2012-val-00049750.png,1.0,0.16915077,-2.1021566,1.6060569
alexnet_w1_mlp_simclrhn_probe1,1,151,NaN,knife,bird,0,0151_sty_dnn_0_bird_00_bird-0009-ILSVRC2012-val-00007530.png,bird-0009-ILSVRC2012-val-00007530.png,0.0,-8.396967,-1.1046981,-5.1564126
alexnet_w1_mlp_simclrhn_probe1,1,152,NaN,elephant,bird,0,0152_sty_dnn_0_bird_00_bird-0045-ILSVRC2012-val-00045547.png,bird-0045-ILSVRC2012-val-00045547.png,0.0,-4.667455,-2.304072,-1.6711644
alexnet_w1_mlp_simclrhn_probe1,1,153,NaN,oven,bird,0,0153_sty_dnn_0_bird_00_bird-0119-ILSVRC2012-val-00016252.png,bird-0119-ILSVRC2012-val-00016252.png,0.0,-2.5999322,-2.2663713,-0.23586321
alexnet_w1_mlp_simclrhn_probe1,1,154,NaN,oven,bird,0,0154_sty_dnn_0_bird_00_bird-0122-ILSVRC2012-val-00019236.png,bird-0122-ILSVRC2012-val-00019236.png,0.0,-3.1548429,0.53608125,-2.6098776
alexnet_w1_mlp_simclrhn_probe1,1,155,NaN,bear,bird,0,0155_sty_dnn_0_bird_00_bird-0157-ILSVRC2012-val-00005336.png,bird-0157-ILSVRC2012-val-00005336.png,0.0,-0.76689804,-0.7619914,-0.0034695286
alexnet_w1_mlp_simclrhn_probe1,1,156,NaN,clock,bird,0,0156_sty_dnn_0_bird_00_bird-0175-ILSVRC2012-val-00018699.png,bird-0175-ILSVRC2012-val-00018699.png,0.0,-12.276055,-2.1095366,-7.1888146
alexnet_w1_mlp_simclrhn_probe1,1,157,NaN,oven,bird,0,0157_sty_dnn_0_bird_00_bird-0228-ILSVRC2012-val-00017712.png,bird-0228-ILSVRC2012-val-00017712.png,0.0,-5.4691777,-3.1885343,-1.6126585
alexnet_w1_mlp_simclrhn_probe1,1,158,NaN,chair,bird,0,0158_sty_dnn_0_bird_00_bird-0238-ILSVRC2012-val-00030657.png,bird-0238-ILSVRC2012-val-00030657.png,0.0,-7.0248866,0.0463603,-5.000127
alexnet_w1_mlp_simclrhn_probe1,1,159,NaN,elephant,bird,0,0159_sty_dnn_0_bird_00_bird-0426-ILSVRC2012-val-00030017.png,bird-0426-ILSVRC2012-val-00030017.png,0.0,-2.792995,0.85827136,-2.5818353
alexnet_w1_mlp_simclrhn_probe1,1,160,NaN,knife,bird,0,0160_sty_dnn_0_bird_00_bird-0486-ILSVRC2012-val-00037420.png,bird-0486-ILSVRC2012-val-00037420.png,0.0,-4.932467,-1.2459978,-2.6067274
alexnet_w1_mlp_simclrhn_probe1,1,161,NaN,bear,bird,0,0161_sty_dnn_0_bird_00_bird-0513-ILSVRC2012-val-00013223.png,bird-0513-ILSVRC2012-val-00013223.png,0.0,-4.8584533,0.014589831,-3.445762
alexnet_w1_mlp_simclrhn_probe1,1,162,NaN,bicycle,bird,0,0162_sty_dnn_0_bird_00_bird-0522-ILSVRC2012-val-00020730.png,bird-0522-ILSVRC2012-val-00020730.png,0.0,-3.7643795,-2.3712597,-0.9850845
alexnet_w1_mlp_simclrhn_probe1,1,163,NaN,bird,bird,0,0163_sty_dnn_0_bird_00_bird-0532-ILSVRC2012-val-00028181.png,bird-0532-ILSVRC2012-val-00028181.png,1.0,-1.06391,-1.0642036,0.00020761538
alexnet_w1_mlp_simclrhn_probe1,1,164,NaN,oven,bird,0,0164_sty_dnn_0_bird_00_bird-0624-ILSVRC2012-val-00024514.png,bird-0624-ILSVRC2012-val-00024514.png,0.0,-5.467118,-1.3286328,-2.9263508
alexnet_w1_mlp_simclrhn_probe1,1,165,NaN,bear,bird,0,0165_sty_dnn_0_bird_00_bird-0701-ILSVRC2012-val-00000075.png,bird-0701-ILSVRC2012-val-00000075.png,0.0,-2.3313203,-0.17725682,-1.523153
alexnet_w1_mlp_simclrhn_probe1,1,166,NaN,bird,bird,0,0166_sty_dnn_0_bird_00_bird-0752-ILSVRC2012-val-00001596.png,bird-0752-ILSVRC2012-val-00001596.png,1.0,-0.8261173,-1.6940892,0.61374885
alexnet_w1_mlp_simclrhn_probe1,1,167,NaN,cat,bird,0,0167_sty_dnn_0_bird_00_bird-0754-ILSVRC2012-val-00002846.png,bird-0754-ILSVRC2012-val-00002846.png,0.0,-3.4122796,-1.8998345,-1.0694602
alexnet_w1_mlp_simclrhn_probe1,1,168,NaN,oven,bird,0,0168_sty_dnn_0_bird_00_bird-0822-ILSVRC2012-val-00025200.png,bird-0822-ILSVRC2012-val-00025200.png,0.0,-4.6520543,-2.2863927,-1.6727754
alexnet_w1_mlp_simclrhn_probe1,1,169,NaN,knife,bird,0,0169_sty_dnn_0_bird_00_bird-0896-ILSVRC2012-val-00046621.png,bird-0896-ILSVRC2012-val-00046621.png,0.0,-5.991628,-1.5151017,-3.1653821
alexnet_w1_mlp_simclrhn_probe1,1,170,NaN,cat,bird,0,0170_sty_dnn_0_bird_00_bird-0995-ILSVRC2012-val-00046534.png,bird-0995-ILSVRC2012-val-00046534.png,0.0,-4.8549485,-0.57758373,-3.0245538
alexnet_w1_mlp_simclrhn_probe1,1,171,NaN,oven,bird,0,0171_sty_dnn_0_bird_00_bird-1052-ILSVRC2012-val-00003884.png,bird-1052-ILSVRC2012-val-00003884.png,0.0,-3.6685834,0.49902523,-2.9469445
alexnet_w1_mlp_simclrhn_probe1,1,172,NaN,oven,bird,0,0172_sty_dnn_0_bird_00_bird-1093-ILSVRC2012-val-00044082.png,bird-1093-ILSVRC2012-val-00044082.png,0.0,-3.8084035,-0.74429375,-2.166653
alexnet_w1_mlp_simclrhn_probe1,1,173,NaN,bicycle,bird,0,0173_sty_dnn_0_bird_00_bird-1172-ILSVRC2012-val-00022442.png,bird-1172-ILSVRC2012-val-00022442.png,0.0,-3.6578991,-1.4356363,-1.5713772
alexnet_w1_mlp_simclrhn_probe1,1,174,NaN,elephant,bird,0,0174_sty_dnn_0_bird_00_bird-1188-ILSVRC2012-val-00040014.png,bird-1188-ILSVRC2012-val-00040014.png,0.0,-1.8060881,-0.4094203,-0.98759323
alexnet_w1_mlp_simclrhn_probe1,1,175,NaN,oven,bird,0,0175_sty_dnn_0_bird_00_bird-1198-ILSVRC2012-val-00048142.png,bird-1198-ILSVRC2012-val-00048142.png,0.0,-3.5586567,-0.90339905,-1.8775507
alexnet_w1_mlp_simclrhn_probe1,1,176,NaN,knife,bird,0,0176_sty_dnn_0_bird_00_bird-1256-ILSVRC2012-val-00005779.png,bird-1256-ILSVRC2012-val-00005779.png,0.0,-6.3025255,-1.3114079,-3.529253
alexnet_w1_mlp_simclrhn_probe1,1,177,NaN,oven,bird,0,0177_sty_dnn_0_bird_00_bird-1274-ILSVRC2012-val-00025449.png,bird-1274-ILSVRC2012-val-00025449.png,0.0,-6.7502275,-0.049509913,-4.738123
alexnet_w1_mlp_simclrhn_probe1,1,178,NaN,knife,bird,0,0178_sty_dnn_0_bird_00_bird-1326-ILSVRC2012-val-00025658.png,bird-1326-ILSVRC2012-val-00025658.png,0.0,-3.5811918,-1.5494778,-1.4366387
alexnet_w1_mlp_simclrhn_probe1,1,179,NaN,knife,bird,0,0179_sty_dnn_0_bird_00_bird-1394-ILSVRC2012-val-00040051.png,bird-1394-ILSVRC2012-val-00040051.png,0.0,-2.7348988,-1.9167789,-0.5784981
alexnet_w1_mlp_simclrhn_probe1,1,180,NaN,elephant,bird,0,0180_sty_dnn_0_bird_00_bird-1452-ILSVRC2012-val-00002997.png,bird-1452-ILSVRC2012-val-00002997.png,0.0,-2.7300892,-0.18210119,-1.8016996
alexnet_w1_mlp_simclrhn_probe1,1,181,NaN,bicycle,bird,0,0181_sty_dnn_0_bird_00_bird-1551-ILSVRC2012-val-00000690.png,bird-1551-ILSVRC2012-val-00000690.png,0.0,-1.2003971,-0.92547965,-0.19439602
alexnet_w1_mlp_simclrhn_probe1,1,182,NaN,bottle,bird,0,0182_sty_dnn_0_bird_00_bird-1646-ILSVRC2012-val-00039398.png,bird-1646-ILSVRC2012-val-00039398.png,0.0,-3.0481286,-0.29303786,-1.9481434
alexnet_w1_mlp_simclrhn_probe1,1,183,NaN,oven,bird,0,0183_sty_dnn_0_bird_00_bird-1861-ILSVRC2012-val-00007811.png,bird-1861-ILSVRC2012-val-00007811.png,0.0,-2.285792,-1.4750818,-0.57325876
alexnet_w1_mlp_simclrhn_probe1,1,184,NaN,bicycle,bird,0,0184_sty_dnn_0_bird_00_bird-1865-ILSVRC2012-val-00009672.png,bird-1865-ILSVRC2012-val-00009672.png,0.0,-4.3119574,0.47426298,-3.3843691
alexnet_w1_mlp_simclrhn_probe1,1,185,NaN,bear,bird,0,0185_sty_dnn_0_bird_00_bird-1913-ILSVRC2012-val-00012475.png,bird-1913-ILSVRC2012-val-00012475.png,0.0,-2.4344075,-0.49478337,-1.3715214
alexnet_w1_mlp_simclrhn_probe1,1,186,NaN,elephant,bird,0,0186_sty_dnn_0_bird_00_bird-1941-ILSVRC2012-val-00042829.png,bird-1941-ILSVRC2012-val-00042829.png,0.0,-3.3801165,-2.1029902,-0.90306467
alexnet_w1_mlp_simclrhn_probe1,1,187,NaN,bear,bird,0,0187_sty_dnn_0_bird_00_bird-1971-ILSVRC2012-val-00023024.png,bird-1971-ILSVRC2012-val-00023024.png,0.0,-3.9483278,2.2836566,-4.406678
alexnet_w1_mlp_simclrhn_probe1,1,188,NaN,elephant,bird,0,0188_sty_dnn_0_bird_00_bird-2011-ILSVRC2012-val-00008842.png,bird-2011-ILSVRC2012-val-00008842.png,0.0,-4.913369,-0.1172584,-3.3913624
alexnet_w1_mlp_simclrhn_probe1,1,189,NaN,bear,bird,0,0189_sty_dnn_0_bird_00_bird-2082-ILSVRC2012-val-00036457.png,bird-2082-ILSVRC2012-val-00036457.png,0.0,-2.8687794,-0.8521322,-1.425985
alexnet_w1_mlp_simclrhn_probe1,1,190,NaN,chair,bird,0,0190_sty_dnn_0_bird_00_bird-2118-ILSVRC2012-val-00021926.png,bird-2118-ILSVRC2012-val-00021926.png,0.0,-6.4053206,-0.86852527,-3.9151058
alexnet_w1_mlp_simclrhn_probe1,1,191,NaN,oven,bird,0,0191_sty_dnn_0_bird_00_bird-2144-ILSVRC2012-val-00044377.png,bird-2144-ILSVRC2012-val-00044377.png,0.0,-5.0287423,-0.26749137,-3.3667128
alexnet_w1_mlp_simclrhn_probe1,1,192,NaN,cat,bird,0,0192_sty_dnn_0_bird_00_bird-2178-ILSVRC2012-val-00026510.png,bird-2178-ILSVRC2012-val-00026510.png,0.0,-3.8552415,-0.61857986,-2.2886655
alexnet_w1_mlp_simclrhn_probe1,1,193,NaN,elephant,bird,0,0193_sty_dnn_0_bird_00_bird-2184-ILSVRC2012-val-00034910.png,bird-2184-ILSVRC2012-val-00034910.png,0.0,-5.38772,-0.7618773,-3.270965
alexnet_w1_mlp_simclrhn_probe1,1,194,NaN,keyboard,bird,0,0194_sty_dnn_0_bird_00_bird-2221-ILSVRC2012-val-00014977.png,bird-2221-ILSVRC2012-val-00014977.png,0.0,-12.189812,-4.756014,-5.256489
alexnet_w1_mlp_simclrhn_probe1,1,195,NaN,bicycle,bird,0,0195_sty_dnn_0_bird_00_bird-2222-ILSVRC2012-val-00015392.png,bird-2222-ILSVRC2012-val-00015392.png,0.0,-2.5429587,-0.47723782,-1.4606854
alexnet_w1_mlp_simclrhn_probe1,1,196,NaN,oven,bird,0,0196_sty_dnn_0_bird_00_bird-2248-ILSVRC2012-val-00044992.png,bird-2248-ILSVRC2012-val-00044992.png,0.0,-5.18941,0.40553206,-3.9562216
alexnet_w1_mlp_simclrhn_probe1,1,197,NaN,bird,bird,0,0197_sty_dnn_0_bird_00_bird-2322-ILSVRC2012-val-00023492.png,bird-2322-ILSVRC2012-val-00023492.png,1.0,-2.9394622,-3.2052376,0.18793163
alexnet_w1_mlp_simclrhn_probe1,1,198,NaN,elephant,bird,0,0198_sty_dnn_0_bird_00_bird-2405-ILSVRC2012-val-00007988.png,bird-2405-ILSVRC2012-val-00007988.png,0.0,-2.831437,0.1509535,-2.1088686
alexnet_w1_mlp_simclrhn_probe1,1,199,NaN,elephant,bird,0,0199_sty_dnn_0_bird_00_bird-2410-ILSVRC2012-val-00010355.png,bird-2410-ILSVRC2012-val-00010355.png,0.0,-4.2748327,2.045567,-4.4691978
alexnet_w1_mlp_simclrhn_probe1,1,200,NaN,bear,bird,0,0200_sty_dnn_0_bird_00_bird-2433-ILSVRC2012-val-00028670.png,bird-2433-ILSVRC2012-val-00028670.png,0.0,-3.086666,1.2985151,-3.1007917
alexnet_w1_mlp_simclrhn_probe1,1,201,NaN,cat,boat,0,0201_sty_dnn_0_boat_00_boat-0005-ILSVRC2012-val-00004909.png,boat-0005-ILSVRC2012-val-00004909.png,0.0,-8.704343,-1.5642926,-5.048778
alexnet_w1_mlp_simclrhn_probe1,1,202,NaN,elephant,boat,0,0202_sty_dnn_0_boat_00_boat-0011-ILSVRC2012-val-00011563.png,boat-0011-ILSVRC2012-val-00011563.png,0.0,-3.7320495,-0.6460617,-2.182123
alexnet_w1_mlp_simclrhn_probe1,1,203,NaN,bicycle,boat,0,0203_sty_dnn_0_boat_00_boat-0026-ILSVRC2012-val-00026341.png,boat-0026-ILSVRC2012-val-00026341.png,0.0,-2.9160845,0.08591677,-2.1227355
alexnet_w1_mlp_simclrhn_probe1,1,204,NaN,elephant,boat,0,0204_sty_dnn_0_boat_00_boat-0033-ILSVRC2012-val-00030824.png,boat-0033-ILSVRC2012-val-00030824.png,0.0,-6.849231,-1.2130828,-3.9853585
alexnet_w1_mlp_simclrhn_probe1,1,205,NaN,cat,boat,0,0205_sty_dnn_0_boat_00_boat-0036-ILSVRC2012-val-00032433.png,boat-0036-ILSVRC2012-val-00032433.png,0.0,-5.3613396,-0.8184543,-3.212305
alexnet_w1_mlp_simclrhn_probe1,1,206,NaN,elephant,boat,0,0206_sty_dnn_0_boat_00_boat-0039-ILSVRC2012-val-00033883.png,boat-0039-ILSVRC2012-val-00033883.png,0.0,-3.657576,-1.5261259,-1.5071629
alexnet_w1_mlp_simclrhn_probe1,1,207,NaN,oven,boat,0,0207_sty_dnn_0_boat_00_boat-0042-ILSVRC2012-val-00039945.png,boat-0042-ILSVRC2012-val-00039945.png,0.0,-6.685691,1.3703761,-5.6964993
alexnet_w1_mlp_simclrhn_probe1,1,208,NaN,knife,boat,0,0208_sty_dnn_0_boat_00_boat-0044-ILSVRC2012-val-00041227.png,boat-0044-ILSVRC2012-val-00041227.png,0.0,-2.1070812,-0.3367738,-1.2517964
alexnet_w1_mlp_simclrhn_probe1,1,209,NaN,oven,boat,0,0209_sty_dnn_0_boat_00_boat-0048-ILSVRC2012-val-00046387.png,boat-0048-ILSVRC2012-val-00046387.png,0.0,-5.988839,0.77159953,-4.780352
alexnet_w1_mlp_simclrhn_probe1,1,210,NaN,elephant,boat,0,0210_sty_dnn_0_boat_00_boat-0053-ILSVRC2012-val-00005918.png,boat-0053-ILSVRC2012-val-00005918.png,0.0,-3.760744,0.71345794,-3.1637387
alexnet_w1_mlp_simclrhn_probe1,1,211,NaN,elephant,boat,0,0211_sty_dnn_0_boat_00_boat-0061-ILSVRC2012-val-00011292.png,boat-0061-ILSVRC2012-val-00011292.png,0.0,-2.6647694,-0.94542915,-1.2157573
alexnet_w1_mlp_simclrhn_probe1,1,212,NaN,bottle,boat,0,0212_sty_dnn_0_boat_00_boat-0064-ILSVRC2012-val-00013366.png,boat-0064-ILSVRC2012-val-00013366.png,0.0,-2.0872831,-1.5775416,-0.3604417
alexnet_w1_mlp_simclrhn_probe1,1,213,NaN,bicycle,boat,0,0213_sty_dnn_0_boat_00_boat-0066-ILSVRC2012-val-00013961.png,boat-0066-ILSVRC2012-val-00013961.png,0.0,-5.0767946,-0.828161,-3.0042374
alexnet_w1_mlp_simclrhn_probe1,1,214,NaN,elephant,boat,0,0214_sty_dnn_0_boat_00_boat-0070-ILSVRC2012-val-00017026.png,boat-0070-ILSVRC2012-val-00017026.png,0.0,-6.3104086,1.8052752,-5.738655
alexnet_w1_mlp_simclrhn_probe1,1,215,NaN,knife,boat,0,0215_sty_dnn_0_boat_00_boat-0073-ILSVRC2012-val-00018158.png,boat-0073-ILSVRC2012-val-00018158.png,0.0,-4.25608,-1.4449489,-1.98777
alexnet_w1_mlp_simclrhn_probe1,1,216,NaN,bicycle,boat,0,0216_sty_dnn_0_boat_00_boat-0076-ILSVRC2012-val-00020486.png,boat-0076-ILSVRC2012-val-00020486.png,0.0,-3.7981658,1.6585852,-3.8585057
alexnet_w1_mlp_simclrhn_probe1,1,217,NaN,elephant,boat,0,0217_sty_dnn_0_boat_00_boat-0077-ILSVRC2012-val-00021948.png,boat-0077-ILSVRC2012-val-00021948.png,0.0,-2.3842454,-1.8638397,-0.36798236
alexnet_w1_mlp_simclrhn_probe1,1,218,NaN,bicycle,boat,0,0218_sty_dnn_0_boat_00_boat-0079-ILSVRC2012-val-00025681.png,boat-0079-ILSVRC2012-val-00025681.png,0.0,-5.237492,2.3282783,-5.3498073
alexnet_w1_mlp_simclrhn_probe1,1,219,NaN,knife,boat,0,0219_sty_dnn_0_boat_00_boat-0082-ILSVRC2012-val-00027612.png,boat-0082-ILSVRC2012-val-00027612.png,0.0,-5.7013865,-2.6710525,-2.1427698
alexnet_w1_mlp_simclrhn_probe1,1,220,NaN,oven,boat,0,0220_sty_dnn_0_boat_00_boat-0083-ILSVRC2012-val-00034455.png,boat-0083-ILSVRC2012-val-00034455.png,0.0,-4.7748175,-0.7572081,-2.840879
alexnet_w1_mlp_simclrhn_probe1,1,221,NaN,knife,boat,0,0221_sty_dnn_0_boat_00_boat-0086-ILSVRC2012-val-00039559.png,boat-0086-ILSVRC2012-val-00039559.png,0.0,-4.4306574,-1.042623,-2.3957021
alexnet_w1_mlp_simclrhn_probe1,1,222,NaN,oven,boat,0,0222_sty_dnn_0_boat_00_boat-0098-ILSVRC2012-val-00047961.png,boat-0098-ILSVRC2012-val-00047961.png,0.0,-9.478574,-1.4551603,-5.6734104
alexnet_w1_mlp_simclrhn_probe1,1,223,NaN,elephant,boat,0,0223_sty_dnn_0_boat_00_boat-0100-ILSVRC2012-val-00048371.png,boat-0100-ILSVRC2012-val-00048371.png,0.0,-3.7195175,-0.14351568,-2.5286152
alexnet_w1_mlp_simclrhn_probe1,1,224,NaN,keyboard,boat,0,0224_sty_dnn_0_boat_00_boat-0103-ILSVRC2012-val-00002308.png,boat-0103-ILSVRC2012-val-00002308.png,0.0,-6.8317614,-1.9273516,-3.4679415
alexnet_w1_mlp_simclrhn_probe1,1,225,NaN,bicycle,boat,0,0225_sty_dnn_0_boat_00_boat-0107-ILSVRC2012-val-00004492.png,boat-0107-ILSVRC2012-val-00004492.png,0.0,-1.750975,0.10371861,-1.3114665
alexnet_w1_mlp_simclrhn_probe1,1,226,NaN,oven,boat,0,0226_sty_dnn_0_boat_00_boat-0111-ILSVRC2012-val-00009680.png,boat-0111-ILSVRC2012-val-00009680.png,0.0,-5.446454,3.3234758,-6.201277
alexnet_w1_mlp_simclrhn_probe1,1,227,NaN,boat,boat,0,0227_sty_dnn_0_boat_00_boat-0121-ILSVRC2012-val-00016970.png,boat-0121-ILSVRC2012-val-00016970.png,1.0,-1.5116338,-1.8281982,0.22384487
alexnet_w1_mlp_simclrhn_probe1,1,228,NaN,oven,boat,0,0228_sty_dnn_0_boat_00_boat-0129-ILSVRC2012-val-00027504.png,boat-0129-ILSVRC2012-val-00027504.png,0.0,-4.7406154,-0.5573416,-2.9580214
alexnet_w1_mlp_simclrhn_probe1,1,229,NaN,bicycle,boat,0,0229_sty_dnn_0_boat_00_boat-0137-ILSVRC2012-val-00035374.png,boat-0137-ILSVRC2012-val-00035374.png,0.0,-6.9005456,-0.44654188,-4.56367
alexnet_w1_mlp_simclrhn_probe1,1,230,NaN,oven,boat,0,0230_sty_dnn_0_boat_00_boat-0142-ILSVRC2012-val-00040889.png,boat-0142-ILSVRC2012-val-00040889.png,0.0,-5.45629,-0.87562525,-3.2390192
alexnet_w1_mlp_simclrhn_probe1,1,231,NaN,bear,boat,0,0231_sty_dnn_0_boat_00_boat-0153-ILSVRC2012-val-00002696.png,boat-0153-ILSVRC2012-val-00002696.png,0.0,-2.6768165,-1.3489134,-0.93896925
alexnet_w1_mlp_simclrhn_probe1,1,232,NaN,bicycle,boat,0,0232_sty_dnn_0_boat_00_boat-0160-ILSVRC2012-val-00008630.png,boat-0160-ILSVRC2012-val-00008630.png,0.0,-4.2227564,-1.3546427,-2.0280626
alexnet_w1_mlp_simclrhn_probe1,1,233,NaN,cat,boat,0,0233_sty_dnn_0_boat_00_boat-0165-ILSVRC2012-val-00014242.png,boat-0165-ILSVRC2012-val-00014242.png,0.0,-2.3912861,-1.2659806,-0.79571116
alexnet_w1_mlp_simclrhn_probe1,1,234,NaN,oven,boat,0,0234_sty_dnn_0_boat_00_boat-0169-ILSVRC2012-val-00019970.png,boat-0169-ILSVRC2012-val-00019970.png,0.0,-10.998113,-1.3568586,-6.8173966
alexnet_w1_mlp_simclrhn_probe1,1,235,NaN,dog,boat,0,0235_sty_dnn_0_boat_00_boat-0170-ILSVRC2012-val-00020353.png,boat-0170-ILSVRC2012-val-00020353.png,0.0,-5.9674673,-1.4430813,-3.199224
alexnet_w1_mlp_simclrhn_probe1,1,236,NaN,bicycle,boat,0,0236_sty_dnn_0_boat_00_boat-0172-ILSVRC2012-val-00020894.png,boat-0172-ILSVRC2012-val-00020894.png,0.0,-12.482292,-2.5765681,-7.0044045
alexnet_w1_mlp_simclrhn_probe1,1,237,NaN,bicycle,boat,0,0237_sty_dnn_0_boat_00_boat-0179-ILSVRC2012-val-00026763.png,boat-0179-ILSVRC2012-val-00026763.png,0.0,-4.4681225,-1.1037307,-2.3789842
alexnet_w1_mlp_simclrhn_probe1,1,238,NaN,oven,boat,0,0238_sty_dnn_0_boat_00_boat-0181-ILSVRC2012-val-00031072.png,boat-0181-ILSVRC2012-val-00031072.png,0.0,-4.7853785,-0.87700295,-2.763639
alexnet_w1_mlp_simclrhn_probe1,1,239,NaN,boat,boat,0,0239_sty_dnn_0_boat_00_boat-0195-ILSVRC2012-val-00042203.png,boat-0195-ILSVRC2012-val-00042203.png,1.0,-2.576427,-2.6528118,0.054012198
alexnet_w1_mlp_simclrhn_probe1,1,240,NaN,oven,boat,0,0240_sty_dnn_0_boat_00_boat-0196-ILSVRC2012-val-00042675.png,boat-0196-ILSVRC2012-val-00042675.png,0.0,-5.1874022,0.8506514,-4.269549
alexnet_w1_mlp_simclrhn_probe1,1,241,NaN,bicycle,boat,0,0241_sty_dnn_0_boat_00_boat-0215-ILSVRC2012-val-00013403.png,boat-0215-ILSVRC2012-val-00013403.png,0.0,-4.452761,-2.0649004,-1.6884726
alexnet_w1_mlp_simclrhn_probe1,1,242,NaN,boat,boat,0,0242_sty_dnn_0_boat_00_boat-0217-ILSVRC2012-val-00015089.png,boat-0217-ILSVRC2012-val-00015089.png,1.0,-1.7264812,-1.7585988,0.022710577
alexnet_w1_mlp_simclrhn_probe1,1,243,NaN,keyboard,boat,0,0243_sty_dnn_0_boat_00_boat-0218-ILSVRC2012-val-00015121.png,boat-0218-ILSVRC2012-val-00015121.png,0.0,-6.7056,-2.2212033,-3.1709473
alexnet_w1_mlp_simclrhn_probe1,1,244,NaN,oven,boat,0,0244_sty_dnn_0_boat_00_boat-0222-ILSVRC2012-val-00019246.png,boat-0222-ILSVRC2012-val-00019246.png,0.0,-6.079501,-0.7432342,-3.7733107
alexnet_w1_mlp_simclrhn_probe1,1,245,NaN,oven,boat,0,0245_sty_dnn_0_boat_00_boat-0223-ILSVRC2012-val-00020544.png,boat-0223-ILSVRC2012-val-00020544.png,0.0,-8.210811,-2.143124,-4.2905025
alexnet_w1_mlp_simclrhn_probe1,1,246,NaN,cat,boat,0,0246_sty_dnn_0_boat_00_boat-0225-ILSVRC2012-val-00022075.png,boat-0225-ILSVRC2012-val-00022075.png,0.0,-6.2293086,-1.4085845,-3.4087667
alexnet_w1_mlp_simclrhn_probe1,1,247,NaN,boat,boat,0,0247_sty_dnn_0_boat_00_boat-0235-ILSVRC2012-val-00032371.png,boat-0235-ILSVRC2012-val-00032371.png,1.0,-1.5852203,-1.6845483,0.070235446
alexnet_w1_mlp_simclrhn_probe1,1,248,NaN,knife,boat,0,0248_sty_dnn_0_boat_00_boat-0236-ILSVRC2012-val-00032584.png,boat-0236-ILSVRC2012-val-00032584.png,0.0,-5.125949,-0.09139508,-3.5599673
alexnet_w1_mlp_simclrhn_probe1,1,249,NaN,airplane,boat,0,0249_sty_dnn_0_boat_00_boat-0243-ILSVRC2012-val-00039131.png,boat-0243-ILSVRC2012-val-00039131.png,0.0,-3.1426377,-0.12722722,-2.1322172
alexnet_w1_mlp_simclrhn_probe1,1,250,NaN,bear,boat,0,0250_sty_dnn_0_boat_00_boat-0244-ILSVRC2012-val-00040974.png,boat-0244-ILSVRC2012-val-00040974.png,0.0,-5.080519,-0.5645323,-3.193285
alexnet_w1_mlp_simclrhn_probe1,1,251,NaN,knife,bottle,0,0251_sty_dnn_0_bottle_00_bottle-0002-ILSVRC2012-val-00002968.png,bottle-0002-ILSVRC2012-val-00002968.png,0.0,-5.117848,-1.5632739,-2.5134635
alexnet_w1_mlp_simclrhn_probe1,1,252,NaN,bicycle,bottle,0,0252_sty_dnn_0_bottle_00_bottle-0003-ILSVRC2012-val-00003622.png,bottle-0003-ILSVRC2012-val-00003622.png,0.0,-2.2944007,-1.0765224,-0.86117005
alexnet_w1_mlp_simclrhn_probe1,1,253,NaN,oven,bottle,0,0253_sty_dnn_0_bottle_00_bottle-0005-ILSVRC2012-val-00004521.png,bottle-0005-ILSVRC2012-val-00004521.png,0.0,-2.4417932,0.22740474,-1.887408
alexnet_w1_mlp_simclrhn_probe1,1,254,NaN,bottle,bottle,0,0254_sty_dnn_0_bottle_00_bottle-0006-ILSVRC2012-val-00004888.png,bottle-0006-ILSVRC2012-val-00004888.png,1.0,2.5973516,-0.89334893,2.468298
alexnet_w1_mlp_simclrhn_probe1,1,255,NaN,bicycle,bottle,0,0255_sty_dnn_0_bottle_00_bottle-0011-ILSVRC2012-val-00009225.png,bottle-0011-ILSVRC2012-val-00009225.png,0.0,-2.2746913,-1.2769945,-0.70547825
alexnet_w1_mlp_simclrhn_probe1,1,256,NaN,bottle,bottle,0,0256_sty_dnn_0_bottle_00_bottle-0022-ILSVRC2012-val-00022396.png,bottle-0022-ILSVRC2012-val-00022396.png,1.0,-2.6549182,-2.6953483,0.028588377
alexnet_w1_mlp_simclrhn_probe1,1,257,NaN,oven,bottle,0,0257_sty_dnn_0_bottle_00_bottle-0030-ILSVRC2012-val-00032921.png,bottle-0030-ILSVRC2012-val-00032921.png,0.0,-4.966262,-2.2893982,-1.8928285
alexnet_w1_mlp_simclrhn_probe1,1,258,NaN,cat,bottle,0,0258_sty_dnn_0_bottle_00_bottle-0031-ILSVRC2012-val-00033822.png,bottle-0031-ILSVRC2012-val-00033822.png,0.0,-6.1537404,-1.6777487,-3.1650043
alexnet_w1_mlp_simclrhn_probe1,1,259,NaN,elephant,bottle,0,0259_sty_dnn_0_bottle_00_bottle-0032-ILSVRC2012-val-00034979.png,bottle-0032-ILSVRC2012-val-00034979.png,0.0,-1.8652232,-1.2160842,-0.45901054
alexnet_w1_mlp_simclrhn_probe1,1,260,NaN,bottle,bottle,0,0260_sty_dnn_0_bottle_00_bottle-0037-ILSVRC2012-val-00036359.png,bottle-0037-ILSVRC2012-val-00036359.png,1.0,0.64638805,-2.1991038,2.0120666
alexnet_w1_mlp_simclrhn_probe1,1,261,NaN,bottle,bottle,0,0261_sty_dnn_0_bottle_00_bottle-0039-ILSVRC2012-val-00038570.png,bottle-0039-ILSVRC2012-val-00038570.png,1.0,-0.23348044,-0.8088093,0.40681893
alexnet_w1_mlp_simclrhn_probe1,1,262,NaN,oven,bottle,0,0262_sty_dnn_0_bottle_00_bottle-0047-ILSVRC2012-val-00044787.png,bottle-0047-ILSVRC2012-val-00044787.png,0.0,-6.087066,0.1898061,-4.438419
alexnet_w1_mlp_simclrhn_probe1,1,263,NaN,clock,bottle,0,0263_sty_dnn_0_bottle_00_bottle-0052-ILSVRC2012-val-00000252.png,bottle-0052-ILSVRC2012-val-00000252.png,0.0,-1.7000173,0.423028,-1.5012199
alexnet_w1_mlp_simclrhn_probe1,1,264,NaN,bottle,bottle,0,0264_sty_dnn_0_bottle_00_bottle-0055-ILSVRC2012-val-00003066.png,bottle-0055-ILSVRC2012-val-00003066.png,1.0,1.7983863,-2.1251247,2.7743413
alexnet_w1_mlp_simclrhn_probe1,1,265,NaN,knife,bottle,0,0265_sty_dnn_0_bottle_00_bottle-0057-ILSVRC2012-val-00005967.png,bottle-0057-ILSVRC2012-val-00005967.png,0.0,-3.559445,-1.8587577,-1.2025675
alexnet_w1_mlp_simclrhn_probe1,1,266,NaN,knife,bottle,0,0266_sty_dnn_0_bottle_00_bottle-0059-ILSVRC2012-val-00008984.png,bottle-0059-ILSVRC2012-val-00008984.png,0.0,-1.4007692,-0.8623179,-0.38074258
alexnet_w1_mlp_simclrhn_probe1,1,267,NaN,bottle,bottle,0,0267_sty_dnn_0_bottle_00_bottle-0066-ILSVRC2012-val-00016336.png,bottle-0066-ILSVRC2012-val-00016336.png,1.0,-0.3076334,-1.0262719,0.5081542
alexnet_w1_mlp_simclrhn_probe1,1,268,NaN,oven,bottle,0,0268_sty_dnn_0_bottle_00_bottle-0085-ILSVRC2012-val-00036422.png,bottle-0085-ILSVRC2012-val-00036422.png,0.0,-3.7484653,0.21379375,-2.8017404
alexnet_w1_mlp_simclrhn_probe1,1,269,NaN,elephant,bottle,0,0269_sty_dnn_0_bottle_00_bottle-0086-ILSVRC2012-val-00036795.png,bottle-0086-ILSVRC2012-val-00036795.png,0.0,-2.6338017,-1.4221995,-0.85673213
alexnet_w1_mlp_simclrhn_probe1,1,270,NaN,boat,bottle,0,0270_sty_dnn_0_bottle_00_bottle-0107-ILSVRC2012-val-00008313.png,bottle-0107-ILSVRC2012-val-00008313.png,0.0,-3.5676,-0.74042666,-1.9991134
alexnet_w1_mlp_simclrhn_probe1,1,271,NaN,bear,bottle,0,0271_sty_dnn_0_bottle_00_bottle-0108-ILSVRC2012-val-00008437.png,bottle-0108-ILSVRC2012-val-00008437.png,0.0,-4.8388214,-0.42683282,-3.1197472
alexnet_w1_mlp_simclrhn_probe1,1,272,NaN,bicycle,bottle,0,0272_sty_dnn_0_bottle_00_bottle-0126-ILSVRC2012-val-00022079.png,bottle-0126-ILSVRC2012-val-00022079.png,0.0,-2.6572156,-0.6453929,-1.4225734
alexnet_w1_mlp_simclrhn_probe1,1,273,NaN,bicycle,bottle,0,0273_sty_dnn_0_bottle_00_bottle-0127-ILSVRC2012-val-00023580.png,bottle-0127-ILSVRC2012-val-00023580.png,0.0,-4.758605,-0.5217786,-2.9958887
alexnet_w1_mlp_simclrhn_probe1,1,274,NaN,knife,bottle,0,0274_sty_dnn_0_bottle_00_bottle-0138-ILSVRC2012-val-00032559.png,bottle-0138-ILSVRC2012-val-00032559.png,0.0,-3.576397,-1.5786864,-1.4125947
alexnet_w1_mlp_simclrhn_probe1,1,275,NaN,knife,bottle,0,0275_sty_dnn_0_bottle_00_bottle-0153-ILSVRC2012-val-00003318.png,bottle-0153-ILSVRC2012-val-00003318.png,0.0,-3.6164067,-1.5686743,-1.4479655
alexnet_w1_mlp_simclrhn_probe1,1,276,NaN,oven,bottle,0,0276_sty_dnn_0_bottle_00_bottle-0154-ILSVRC2012-val-00003340.png,bottle-0154-ILSVRC2012-val-00003340.png,0.0,-5.095487,-1.5956783,-2.4747386
alexnet_w1_mlp_simclrhn_probe1,1,277,NaN,knife,bottle,0,0277_sty_dnn_0_bottle_00_bottle-0170-ILSVRC2012-val-00020948.png,bottle-0170-ILSVRC2012-val-00020948.png,0.0,-2.3915792,-1.5237206,-0.6136687
alexnet_w1_mlp_simclrhn_probe1,1,278,NaN,chair,bottle,0,0278_sty_dnn_0_bottle_00_bottle-0172-ILSVRC2012-val-00021707.png,bottle-0172-ILSVRC2012-val-00021707.png,0.0,-2.4107325,-0.26604715,-1.5165216
alexnet_w1_mlp_simclrhn_probe1,1,279,NaN,oven,bottle,0,0279_sty_dnn_0_bottle_00_bottle-0180-ILSVRC2012-val-00027613.png,bottle-0180-ILSVRC2012-val-00027613.png,0.0,-3.7549777,-1.5558691,-1.5550046
alexnet_w1_mlp_simclrhn_probe1,1,280,NaN,knife,bottle,0,0280_sty_dnn_0_bottle_00_bottle-0189-ILSVRC2012-val-00040070.png,bottle-0189-ILSVRC2012-val-00040070.png,0.0,-4.2327456,-1.848217,-1.6861165
alexnet_w1_mlp_simclrhn_probe1,1,281,NaN,bottle,bottle,0,0281_sty_dnn_0_bottle_00_bottle-0195-ILSVRC2012-val-00045644.png,bottle-0195-ILSVRC2012-val-00045644.png,1.0,-0.26587424,-1.3494432,0.76619893
alexnet_w1_mlp_simclrhn_probe1,1,282,NaN,bicycle,bottle,0,0282_sty_dnn_0_bottle_00_bottle-0204-ILSVRC2012-val-00002597.png,bottle-0204-ILSVRC2012-val-00002597.png,0.0,-3.7651556,0.50173503,-3.0171473
alexnet_w1_mlp_simclrhn_probe1,1,283,NaN,bottle,bottle,0,0283_sty_dnn_0_bottle_00_bottle-0205-ILSVRC2012-val-00003263.png,bottle-0205-ILSVRC2012-val-00003263.png,1.0,-2.0467584,-3.559372,1.0695794
alexnet_w1_mlp_simclrhn_probe1,1,284,NaN,oven,bottle,0,0284_sty_dnn_0_bottle_00_bottle-0214-ILSVRC2012-val-00012572.png,bottle-0214-ILSVRC2012-val-00012572.png,0.0,-4.0555873,0.2174257,-3.0214765
alexnet_w1_mlp_simclrhn_probe1,1,285,NaN,cat,bottle,0,0285_sty_dnn_0_bottle_00_bottle-0216-ILSVRC2012-val-00013262.png,bottle-0216-ILSVRC2012-val-00013262.png,0.0,-5.0467916,0.31032383,-3.7880526
alexnet_w1_mlp_simclrhn_probe1,1,286,NaN,bottle,bottle,0,0286_sty_dnn_0_bottle_00_bottle-0218-ILSVRC2012-val-00013667.png,bottle-0218-ILSVRC2012-val-00013667.png,1.0,0.6646218,-0.87351006,1.0876235
alexnet_w1_mlp_simclrhn_probe1,1,287,NaN,bicycle,bottle,0,0287_sty_dnn_0_bottle_00_bottle-0220-ILSVRC2012-val-00014146.png,bottle-0220-ILSVRC2012-val-00014146.png,0.0,-3.3146322,-1.4549205,-1.3150147
alexnet_w1_mlp_simclrhn_probe1,1,288,NaN,bear,bottle,0,0288_sty_dnn_0_bottle_00_bottle-0222-ILSVRC2012-val-00018657.png,bottle-0222-ILSVRC2012-val-00018657.png,0.0,-2.5380273,-2.3888934,-0.10545361
alexnet_w1_mlp_simclrhn_probe1,1,289,NaN,bicycle,bottle,0,0289_sty_dnn_0_bottle_00_bottle-0224-ILSVRC2012-val-00020102.png,bottle-0224-ILSVRC2012-val-00020102.png,0.0,-2.9750803,-1.9380734,-0.7332746
alexnet_w1_mlp_simclrhn_probe1,1,290,NaN,knife,bottle,0,0290_sty_dnn_0_bottle_00_bottle-0233-ILSVRC2012-val-00031504.png,bottle-0233-ILSVRC2012-val-00031504.png,0.0,-2.7476826,-0.2932544,-1.7355429
alexnet_w1_mlp_simclrhn_probe1,1,291,NaN,bicycle,bottle,0,0291_sty_dnn_0_bottle_00_bottle-0243-ILSVRC2012-val-00040157.png,bottle-0243-ILSVRC2012-val-00040157.png,0.0,-3.8699963,-1.1294247,-1.9378767
alexnet_w1_mlp_simclrhn_probe1,1,292,NaN,bottle,bottle,0,0292_sty_dnn_0_bottle_00_bottle-0254-ILSVRC2012-val-00005933.png,bottle-0254-ILSVRC2012-val-00005933.png,1.0,1.9812616,-1.4439086,2.421961
alexnet_w1_mlp_simclrhn_probe1,1,293,NaN,bottle,bottle,0,0293_sty_dnn_0_bottle_00_bottle-0283-ILSVRC2012-val-00036864.png,bottle-0283-ILSVRC2012-val-00036864.png,1.0,2.7917457,0.11323742,1.8939914
alexnet_w1_mlp_simclrhn_probe1,1,294,NaN,bottle,bottle,0,0294_sty_dnn_0_bottle_00_bottle-0294-ILSVRC2012-val-00044222.png,bottle-0294-ILSVRC2012-val-00044222.png,1.0,0.08399856,-1.9830337,1.4616126
alexnet_w1_mlp_simclrhn_probe1,1,295,NaN,oven,bottle,0,0295_sty_dnn_0_bottle_00_bottle-0296-ILSVRC2012-val-00044906.png,bottle-0296-ILSVRC2012-val-00044906.png,0.0,-3.1812475,-0.058510453,-2.2081084
alexnet_w1_mlp_simclrhn_probe1,1,296,NaN,oven,bottle,0,0296_sty_dnn_0_bottle_00_bottle-0325-ILSVRC2012-val-00027316.png,bottle-0325-ILSVRC2012-val-00027316.png,0.0,-2.5170567,-1.4919617,-0.7248516
alexnet_w1_mlp_simclrhn_probe1,1,297,NaN,knife,bottle,0,0297_sty_dnn_0_bottle_00_bottle-0331-ILSVRC2012-val-00033990.png,bottle-0331-ILSVRC2012-val-00033990.png,0.0,-0.82373375,-0.1414113,-0.48247483
alexnet_w1_mlp_simclrhn_probe1,1,298,NaN,oven,bottle,0,0298_sty_dnn_0_bottle_00_bottle-0334-ILSVRC2012-val-00036776.png,bottle-0334-ILSVRC2012-val-00036776.png,0.0,-1.6741949,0.23725179,-1.351597
alexnet_w1_mlp_simclrhn_probe1,1,299,NaN,bottle,bottle,0,0299_sty_dnn_0_bottle_00_bottle-0345-ILSVRC2012-val-00044614.png,bottle-0345-ILSVRC2012-val-00044614.png,1.0,1.5326613,-0.52194273,1.4528245
alexnet_w1_mlp_simclrhn_probe1,1,300,NaN,oven,bottle,0,0300_sty_dnn_0_bottle_00_bottle-0347-ILSVRC2012-val-00048539.png,bottle-0347-ILSVRC2012-val-00048539.png,0.0,-1.3661393,-0.46214223,-0.63922244
alexnet_w1_mlp_simclrhn_probe1,1,301,NaN,knife,car,0,0301_sty_dnn_0_car_00_car-0001-ILSVRC2012-val-00000175.png,car-0001-ILSVRC2012-val-00000175.png,0.0,-5.1638885,-2.4081712,-1.9485865
alexnet_w1_mlp_simclrhn_probe1,1,302,NaN,car,car,0,0302_sty_dnn_0_car_00_car-0004-ILSVRC2012-val-00006084.png,car-0004-ILSVRC2012-val-00006084.png,1.0,0.8501363,0.461836,0.27456975
alexnet_w1_mlp_simclrhn_probe1,1,303,NaN,car,car,0,0303_sty_dnn_0_car_00_car-0005-ILSVRC2012-val-00006220.png,car-0005-ILSVRC2012-val-00006220.png,1.0,0.87162644,0.09462807,0.54942083
alexnet_w1_mlp_simclrhn_probe1,1,304,NaN,oven,car,0,0304_sty_dnn_0_car_00_car-0010-ILSVRC2012-val-00012600.png,car-0010-ILSVRC2012-val-00012600.png,0.0,-2.532591,0.49894276,-2.1436183
alexnet_w1_mlp_simclrhn_probe1,1,305,NaN,bear,car,0,0305_sty_dnn_0_car_00_car-0012-ILSVRC2012-val-00014447.png,car-0012-ILSVRC2012-val-00014447.png,0.0,-7.5805087,-0.25891647,-5.177148
alexnet_w1_mlp_simclrhn_probe1,1,306,NaN,oven,car,0,0306_sty_dnn_0_car_00_car-0013-ILSVRC2012-val-00014541.png,car-0013-ILSVRC2012-val-00014541.png,0.0,-5.560742,-1.761055,-2.6867845
alexnet_w1_mlp_simclrhn_probe1,1,307,NaN,car,car,0,0307_sty_dnn_0_car_00_car-0018-ILSVRC2012-val-00018138.png,car-0018-ILSVRC2012-val-00018138.png,1.0,0.53673905,-1.6857667,1.5715489
alexnet_w1_mlp_simclrhn_probe1,1,308,NaN,bicycle,car,0,0308_sty_dnn_0_car_00_car-0019-ILSVRC2012-val-00018335.png,car-0019-ILSVRC2012-val-00018335.png,0.0,-5.4940925,-1.5040338,-2.8213975
alexnet_w1_mlp_simclrhn_probe1,1,309,NaN,oven,car,0,0309_sty_dnn_0_car_00_car-0021-ILSVRC2012-val-00019695.png,car-0021-ILSVRC2012-val-00019695.png,0.0,-4.210338,-1.9346379,-1.609163
alexnet_w1_mlp_simclrhn_probe1,1,310,NaN,oven,car,0,0310_sty_dnn_0_car_00_car-0024-ILSVRC2012-val-00023221.png,car-0024-ILSVRC2012-val-00023221.png,0.0,-6.859121,-0.87403286,-4.232096
alexnet_w1_mlp_simclrhn_probe1,1,311,NaN,car,car,0,0311_sty_dnn_0_car_00_car-0025-ILSVRC2012-val-00023474.png,car-0025-ILSVRC2012-val-00023474.png,1.0,8.759876,8.370262,0.27549878
alexnet_w1_mlp_simclrhn_probe1,1,312,NaN,bicycle,car,0,0312_sty_dnn_0_car_00_car-0028-ILSVRC2012-val-00027049.png,car-0028-ILSVRC2012-val-00027049.png,0.0,-5.1339755,-2.0284858,-2.1959128
alexnet_w1_mlp_simclrhn_probe1,1,313,NaN,car,car,0,0313_sty_dnn_0_car_00_car-0029-ILSVRC2012-val-00027081.png,car-0029-ILSVRC2012-val-00027081.png,1.0,0.21991907,-0.78525114,0.7107627
alexnet_w1_mlp_simclrhn_probe1,1,314,NaN,oven,car,0,0314_sty_dnn_0_car_00_car-0030-ILSVRC2012-val-00029057.png,car-0030-ILSVRC2012-val-00029057.png,0.0,-1.9506365,-1.8432817,-0.07591128
alexnet_w1_mlp_simclrhn_probe1,1,315,NaN,bicycle,car,0,0315_sty_dnn_0_car_00_car-0032-ILSVRC2012-val-00030834.png,car-0032-ILSVRC2012-val-00030834.png,0.0,-1.9708886,-0.019694313,-1.3797027
alexnet_w1_mlp_simclrhn_probe1,1,316,NaN,bicycle,car,0,0316_sty_dnn_0_car_00_car-0041-ILSVRC2012-val-00040706.png,car-0041-ILSVRC2012-val-00040706.png,0.0,-3.8107207,1.7305828,-3.9182935
alexnet_w1_mlp_simclrhn_probe1,1,317,NaN,bicycle,car,0,0317_sty_dnn_0_car_00_car-0045-ILSVRC2012-val-00042416.png,car-0045-ILSVRC2012-val-00042416.png,0.0,-1.1875361,2.0462017,-2.286598
alexnet_w1_mlp_simclrhn_probe1,1,318,NaN,knife,car,0,0318_sty_dnn_0_car_00_car-0050-ILSVRC2012-val-00048556.png,car-0050-ILSVRC2012-val-00048556.png,0.0,-8.021011,-1.1892871,-4.8307586
alexnet_w1_mlp_simclrhn_probe1,1,319,NaN,knife,car,0,0319_sty_dnn_0_car_00_car-0052-ILSVRC2012-val-00004387.png,car-0052-ILSVRC2012-val-00004387.png,0.0,-8.590115,-2.5619526,-4.262554
alexnet_w1_mlp_simclrhn_probe1,1,320,NaN,bicycle,car,0,0320_sty_dnn_0_car_00_car-0053-ILSVRC2012-val-00004685.png,car-0053-ILSVRC2012-val-00004685.png,0.0,-5.419476,-1.9982699,-2.419158
alexnet_w1_mlp_simclrhn_probe1,1,321,NaN,elephant,car,0,0321_sty_dnn_0_car_00_car-0054-ILSVRC2012-val-00005500.png,car-0054-ILSVRC2012-val-00005500.png,0.0,-4.7636776,-0.78424037,-2.8138871
alexnet_w1_mlp_simclrhn_probe1,1,322,NaN,elephant,car,0,0322_sty_dnn_0_car_00_car-0058-ILSVRC2012-val-00010676.png,car-0058-ILSVRC2012-val-00010676.png,0.0,-5.6053505,-0.6934265,-3.4732547
alexnet_w1_mlp_simclrhn_probe1,1,323,NaN,oven,car,0,0323_sty_dnn_0_car_00_car-0059-ILSVRC2012-val-00014010.png,car-0059-ILSVRC2012-val-00014010.png,0.0,-3.2057087,0.2556193,-2.4475286
alexnet_w1_mlp_simclrhn_probe1,1,324,NaN,oven,car,0,0324_sty_dnn_0_car_00_car-0060-ILSVRC2012-val-00014208.png,car-0060-ILSVRC2012-val-00014208.png,0.0,-4.90999,1.2866547,-4.3816895
alexnet_w1_mlp_simclrhn_probe1,1,325,NaN,airplane,car,0,0325_sty_dnn_0_car_00_car-0064-ILSVRC2012-val-00016337.png,car-0064-ILSVRC2012-val-00016337.png,0.0,-2.0465472,-0.08029875,-1.3903476
alexnet_w1_mlp_simclrhn_probe1,1,326,NaN,truck,car,0,0326_sty_dnn_0_car_00_car-0065-ILSVRC2012-val-00016613.png,car-0065-ILSVRC2012-val-00016613.png,0.0,-0.12606853,0.19099876,-0.22420044
alexnet_w1_mlp_simclrhn_probe1,1,327,NaN,elephant,car,0,0327_sty_dnn_0_car_00_car-0066-ILSVRC2012-val-00018249.png,car-0066-ILSVRC2012-val-00018249.png,0.0,-5.782431,-1.9664123,-2.6983328
alexnet_w1_mlp_simclrhn_probe1,1,328,NaN,car,car,0,0328_sty_dnn_0_car_00_car-0067-ILSVRC2012-val-00018569.png,car-0067-ILSVRC2012-val-00018569.png,1.0,0.5068677,-1.6899469,1.5533825
alexnet_w1_mlp_simclrhn_probe1,1,329,NaN,car,car,0,0329_sty_dnn_0_car_00_car-0069-ILSVRC2012-val-00019647.png,car-0069-ILSVRC2012-val-00019647.png,1.0,3.7827427,3.349685,0.3062181
alexnet_w1_mlp_simclrhn_probe1,1,330,NaN,elephant,car,0,0330_sty_dnn_0_car_00_car-0079-ILSVRC2012-val-00025028.png,car-0079-ILSVRC2012-val-00025028.png,0.0,-3.0836384,-0.09937695,-2.1101916
alexnet_w1_mlp_simclrhn_probe1,1,331,NaN,bicycle,car,0,0331_sty_dnn_0_car_00_car-0082-ILSVRC2012-val-00027293.png,car-0082-ILSVRC2012-val-00027293.png,0.0,-3.9176953,-2.1944666,-1.2185067
alexnet_w1_mlp_simclrhn_probe1,1,332,NaN,bear,car,0,0332_sty_dnn_0_car_00_car-0083-ILSVRC2012-val-00027508.png,car-0083-ILSVRC2012-val-00027508.png,0.0,-4.454851,-0.23737025,-2.9822092
alexnet_w1_mlp_simclrhn_probe1,1,333,NaN,elephant,car,0,0333_sty_dnn_0_car_00_car-0086-ILSVRC2012-val-00029454.png,car-0086-ILSVRC2012-val-00029454.png,0.0,-3.9584897,-0.17572273,-2.6748202
alexnet_w1_mlp_simclrhn_probe1,1,334,NaN,oven,car,0,0334_sty_dnn_0_car_00_car-0087-ILSVRC2012-val-00031558.png,car-0087-ILSVRC2012-val-00031558.png,0.0,-1.7217563,-0.19692615,-1.0782179
alexnet_w1_mlp_simclrhn_probe1,1,335,NaN,elephant,car,0,0335_sty_dnn_0_car_00_car-0091-ILSVRC2012-val-00036091.png,car-0091-ILSVRC2012-val-00036091.png,0.0,-3.491291,-0.9269587,-1.813257
alexnet_w1_mlp_simclrhn_probe1,1,336,NaN,car,car,0,0336_sty_dnn_0_car_00_car-0093-ILSVRC2012-val-00038956.png,car-0093-ILSVRC2012-val-00038956.png,1.0,1.4224752,-1.7639775,2.2531624
alexnet_w1_mlp_simclrhn_probe1,1,337,NaN,car,car,0,0337_sty_dnn_0_car_00_car-0095-ILSVRC2012-val-00041430.png,car-0095-ILSVRC2012-val-00041430.png,1.0,-1.9935042,-2.0025995,0.0064313565
alexnet_w1_mlp_simclrhn_probe1,1,338,NaN,oven,car,0,0338_sty_dnn_0_car_00_car-0096-ILSVRC2012-val-00043824.png,car-0096-ILSVRC2012-val-00043824.png,0.0,-9.215559,-2.051428,-5.065806
alexnet_w1_mlp_simclrhn_probe1,1,339,NaN,car,car,0,0339_sty_dnn_0_car_00_car-0103-ILSVRC2012-val-00003478.png,car-0103-ILSVRC2012-val-00003478.png,1.0,-1.0112296,-3.6321,1.8532354
alexnet_w1_mlp_simclrhn_probe1,1,340,NaN,elephant,car,0,0340_sty_dnn_0_car_00_car-0106-ILSVRC2012-val-00004868.png,car-0106-ILSVRC2012-val-00004868.png,0.0,-2.9991894,-0.055067174,-2.0818088
alexnet_w1_mlp_simclrhn_probe1,1,341,NaN,car,car,0,0341_sty_dnn_0_car_00_car-0110-ILSVRC2012-val-00006285.png,car-0110-ILSVRC2012-val-00006285.png,1.0,0.84049773,-0.075451136,0.64767367
alexnet_w1_mlp_simclrhn_probe1,1,342,NaN,knife,car,0,0342_sty_dnn_0_car_00_car-0111-ILSVRC2012-val-00007125.png,car-0111-ILSVRC2012-val-00007125.png,0.0,-5.801145,-0.64667475,-3.644761
alexnet_w1_mlp_simclrhn_probe1,1,343,NaN,bicycle,car,0,0343_sty_dnn_0_car_00_car-0117-ILSVRC2012-val-00010983.png,car-0117-ILSVRC2012-val-00010983.png,0.0,-3.934246,3.6575785,-5.368231
alexnet_w1_mlp_simclrhn_probe1,1,344,NaN,bicycle,car,0,0344_sty_dnn_0_car_00_car-0118-ILSVRC2012-val-00012327.png,car-0118-ILSVRC2012-val-00012327.png,0.0,-2.9252899,-0.44468752,-1.7540507
alexnet_w1_mlp_simclrhn_probe1,1,345,NaN,bicycle,car,0,0345_sty_dnn_0_car_00_car-0121-ILSVRC2012-val-00016638.png,car-0121-ILSVRC2012-val-00016638.png,0.0,-4.6243176,-2.0944695,-1.7888727
alexnet_w1_mlp_simclrhn_probe1,1,346,NaN,car,car,0,0346_sty_dnn_0_car_00_car-0134-ILSVRC2012-val-00032944.png,car-0134-ILSVRC2012-val-00032944.png,1.0,3.373009,0.5132549,2.0221515
alexnet_w1_mlp_simclrhn_probe1,1,347,NaN,cat,car,0,0347_sty_dnn_0_car_00_car-0139-ILSVRC2012-val-00037952.png,car-0139-ILSVRC2012-val-00037952.png,0.0,-8.711719,-1.2848414,-5.251595
alexnet_w1_mlp_simclrhn_probe1,1,348,NaN,oven,car,0,0348_sty_dnn_0_car_00_car-0145-ILSVRC2012-val-00041626.png,car-0145-ILSVRC2012-val-00041626.png,0.0,-4.6034102,0.19887716,-3.3957303
alexnet_w1_mlp_simclrhn_probe1,1,349,NaN,bicycle,car,0,0349_sty_dnn_0_car_00_car-0146-ILSVRC2012-val-00043297.png,car-0146-ILSVRC2012-val-00043297.png,0.0,-5.084211,-1.2164469,-2.7349222
alexnet_w1_mlp_simclrhn_probe1,1,350,NaN,oven,car,0,0350_sty_dnn_0_car_00_car-0149-ILSVRC2012-val-00049427.png,car-0149-ILSVRC2012-val-00049427.png,0.0,-6.1312947,-0.48225102,-3.994477
alexnet_w1_mlp_simclrhn_probe1,1,351,NaN,cat,cat,0,0351_sty_dnn_0_cat_00_cat-0005-ILSVRC2012-val-00005358.png,cat-0005-ILSVRC2012-val-00005358.png,1.0,1.7492863,-1.2004586,2.0857847
alexnet_w1_mlp_simclrhn_probe1,1,352,NaN,cat,cat,0,0352_sty_dnn_0_cat_00_cat-0012-ILSVRC2012-val-00012377.png,cat-0012-ILSVRC2012-val-00012377.png,1.0,-1.0327958,-2.3760448,0.94982046
alexnet_w1_mlp_simclrhn_probe1,1,353,NaN,bear,cat,0,0353_sty_dnn_0_cat_00_cat-0031-ILSVRC2012-val-00030706.png,cat-0031-ILSVRC2012-val-00030706.png,0.0,-2.9190524,-1.5866543,-0.94214773
alexnet_w1_mlp_simclrhn_probe1,1,354,NaN,cat,cat,0,0354_sty_dnn_0_cat_00_cat-0032-ILSVRC2012-val-00033420.png,cat-0032-ILSVRC2012-val-00033420.png,1.0,3.2625217,1.0478338,1.5660208
alexnet_w1_mlp_simclrhn_probe1,1,355,NaN,cat,cat,0,0355_sty_dnn_0_cat_00_cat-0034-ILSVRC2012-val-00033837.png,cat-0034-ILSVRC2012-val-00033837.png,1.0,0.97114855,-2.1436124,2.2024686
alexnet_w1_mlp_simclrhn_probe1,1,356,NaN,cat,cat,0,0356_sty_dnn_0_cat_00_cat-0042-ILSVRC2012-val-00040238.png,cat-0042-ILSVRC2012-val-00040238.png,1.0,-0.68726826,-2.3125193,1.1492261
alexnet_w1_mlp_simclrhn_probe1,1,357,NaN,cat,cat,0,0357_sty_dnn_0_cat_00_cat-0045-ILSVRC2012-val-00041570.png,cat-0045-ILSVRC2012-val-00041570.png,1.0,-0.115011044,-0.69905734,0.41298312
alexnet_w1_mlp_simclrhn_probe1,1,358,NaN,dog,cat,0,0358_sty_dnn_0_cat_00_cat-0050-ILSVRC2012-val-00047911.png,cat-0050-ILSVRC2012-val-00047911.png,0.0,-2.6281567,-1.6727777,-0.675555
alexnet_w1_mlp_simclrhn_probe1,1,359,NaN,knife,cat,0,0359_sty_dnn_0_cat_00_cat-0054-ILSVRC2012-val-00003295.png,cat-0054-ILSVRC2012-val-00003295.png,0.0,-3.4811766,-2.0958118,-0.97960085
alexnet_w1_mlp_simclrhn_probe1,1,360,NaN,cat,cat,0,0360_sty_dnn_0_cat_00_cat-0056-ILSVRC2012-val-00007676.png,cat-0056-ILSVRC2012-val-00007676.png,1.0,-0.307407,-0.6935284,0.2730291
alexnet_w1_mlp_simclrhn_probe1,1,361,NaN,elephant,cat,0,0361_sty_dnn_0_cat_00_cat-0062-ILSVRC2012-val-00013788.png,cat-0062-ILSVRC2012-val-00013788.png,0.0,-2.4508905,1.1912374,-2.5753734
alexnet_w1_mlp_simclrhn_probe1,1,362,NaN,knife,cat,0,0362_sty_dnn_0_cat_00_cat-0064-ILSVRC2012-val-00014860.png,cat-0064-ILSVRC2012-val-00014860.png,0.0,-3.6163852,-0.09207292,-2.4920652
alexnet_w1_mlp_simclrhn_probe1,1,363,NaN,cat,cat,0,0363_sty_dnn_0_cat_00_cat-0069-ILSVRC2012-val-00016399.png,cat-0069-ILSVRC2012-val-00016399.png,1.0,-1.9436914,-2.6477675,0.49785703
alexnet_w1_mlp_simclrhn_probe1,1,364,NaN,cat,cat,0,0364_sty_dnn_0_cat_00_cat-0072-ILSVRC2012-val-00019303.png,cat-0072-ILSVRC2012-val-00019303.png,1.0,-0.23096001,-1.1375324,0.6410435
alexnet_w1_mlp_simclrhn_probe1,1,365,NaN,cat,cat,0,0365_sty_dnn_0_cat_00_cat-0073-ILSVRC2012-val-00020140.png,cat-0073-ILSVRC2012-val-00020140.png,1.0,-0.40816915,-1.6730512,0.89440674
alexnet_w1_mlp_simclrhn_probe1,1,366,NaN,bicycle,cat,0,0366_sty_dnn_0_cat_00_cat-0082-ILSVRC2012-val-00025723.png,cat-0082-ILSVRC2012-val-00025723.png,0.0,-4.264726,0.64972854,-3.4750443
alexnet_w1_mlp_simclrhn_probe1,1,367,NaN,cat,cat,0,0367_sty_dnn_0_cat_00_cat-0092-ILSVRC2012-val-00039621.png,cat-0092-ILSVRC2012-val-00039621.png,1.0,0.65661013,-2.9485226,2.5492136
alexnet_w1_mlp_simclrhn_probe1,1,368,NaN,cat,cat,0,0368_sty_dnn_0_cat_00_cat-0096-ILSVRC2012-val-00045420.png,cat-0096-ILSVRC2012-val-00045420.png,1.0,-0.9968323,-2.2207687,0.86545366
alexnet_w1_mlp_simclrhn_probe1,1,369,NaN,bottle,cat,0,0369_sty_dnn_0_cat_00_cat-0108-ILSVRC2012-val-00002967.png,cat-0108-ILSVRC2012-val-00002967.png,0.0,-8.178864,-1.9207906,-4.4251256
alexnet_w1_mlp_simclrhn_probe1,1,370,NaN,cat,cat,0,0370_sty_dnn_0_cat_00_cat-0110-ILSVRC2012-val-00004411.png,cat-0110-ILSVRC2012-val-00004411.png,1.0,-1.3485335,-1.50519,0.11077288
alexnet_w1_mlp_simclrhn_probe1,1,371,NaN,oven,cat,0,0371_sty_dnn_0_cat_00_cat-0113-ILSVRC2012-val-00007808.png,cat-0113-ILSVRC2012-val-00007808.png,0.0,-1.9665765,1.3702866,-2.3595185
alexnet_w1_mlp_simclrhn_probe1,1,372,NaN,cat,cat,0,0372_sty_dnn_0_cat_00_cat-0118-ILSVRC2012-val-00010218.png,cat-0118-ILSVRC2012-val-00010218.png,1.0,1.3827133,-2.5842972,2.8051
alexnet_w1_mlp_simclrhn_probe1,1,373,NaN,cat,cat,0,0373_sty_dnn_0_cat_00_cat-0123-ILSVRC2012-val-00014813.png,cat-0123-ILSVRC2012-val-00014813.png,1.0,-0.18938439,-1.1043159,0.64695424
alexnet_w1_mlp_simclrhn_probe1,1,374,NaN,cat,cat,0,0374_sty_dnn_0_cat_00_cat-0133-ILSVRC2012-val-00023898.png,cat-0133-ILSVRC2012-val-00023898.png,1.0,-0.13482292,-3.445572,2.3410532
alexnet_w1_mlp_simclrhn_probe1,1,375,NaN,cat,cat,0,0375_sty_dnn_0_cat_00_cat-0137-ILSVRC2012-val-00027906.png,cat-0137-ILSVRC2012-val-00027906.png,1.0,0.373597,0.34468633,0.02044293
alexnet_w1_mlp_simclrhn_probe1,1,376,NaN,cat,cat,0,0376_sty_dnn_0_cat_00_cat-0147-ILSVRC2012-val-00041347.png,cat-0147-ILSVRC2012-val-00041347.png,1.0,0.799607,-3.5952935,3.1076639
alexnet_w1_mlp_simclrhn_probe1,1,377,NaN,knife,cat,0,0377_sty_dnn_0_cat_00_cat-0150-ILSVRC2012-val-00049996.png,cat-0150-ILSVRC2012-val-00049996.png,0.0,-4.8701777,-2.3203073,-1.8030307
alexnet_w1_mlp_simclrhn_probe1,1,378,NaN,bear,cat,0,0378_sty_dnn_0_cat_00_cat-0160-ILSVRC2012-val-00011528.png,cat-0160-ILSVRC2012-val-00011528.png,0.0,-1.070147,2.0853014,-2.231239
alexnet_w1_mlp_simclrhn_probe1,1,379,NaN,oven,cat,0,0379_sty_dnn_0_cat_00_cat-0162-ILSVRC2012-val-00012173.png,cat-0162-ILSVRC2012-val-00012173.png,0.0,-4.436156,-1.159847,-2.3167002
alexnet_w1_mlp_simclrhn_probe1,1,380,NaN,knife,cat,0,0380_sty_dnn_0_cat_00_cat-0165-ILSVRC2012-val-00017325.png,cat-0165-ILSVRC2012-val-00017325.png,0.0,-6.5135827,-2.1585364,-3.0794828
alexnet_w1_mlp_simclrhn_probe1,1,381,NaN,bottle,cat,0,0381_sty_dnn_0_cat_00_cat-0169-ILSVRC2012-val-00020688.png,cat-0169-ILSVRC2012-val-00020688.png,0.0,-5.9961257,-0.86170465,-3.6305838
alexnet_w1_mlp_simclrhn_probe1,1,382,NaN,knife,cat,0,0382_sty_dnn_0_cat_00_cat-0185-ILSVRC2012-val-00038168.png,cat-0185-ILSVRC2012-val-00038168.png,0.0,-3.7491262,-1.4713081,-1.6106607
alexnet_w1_mlp_simclrhn_probe1,1,383,NaN,cat,cat,0,0383_sty_dnn_0_cat_00_cat-0186-ILSVRC2012-val-00039580.png,cat-0186-ILSVRC2012-val-00039580.png,1.0,1.0063605,-1.4826491,1.7599956
alexnet_w1_mlp_simclrhn_probe1,1,384,NaN,chair,cat,0,0384_sty_dnn_0_cat_00_cat-0189-ILSVRC2012-val-00040854.png,cat-0189-ILSVRC2012-val-00040854.png,0.0,-4.7746687,0.8379394,-3.9687133
alexnet_w1_mlp_simclrhn_probe1,1,385,NaN,bear,cat,0,0385_sty_dnn_0_cat_00_cat-0202-ILSVRC2012-val-00001496.png,cat-0202-ILSVRC2012-val-00001496.png,0.0,-0.81467795,0.6364509,-1.026103
alexnet_w1_mlp_simclrhn_probe1,1,386,NaN,oven,cat,0,0386_sty_dnn_0_cat_00_cat-0234-ILSVRC2012-val-00028970.png,cat-0234-ILSVRC2012-val-00028970.png,0.0,-3.258105,-0.82879233,-1.7177836
alexnet_w1_mlp_simclrhn_probe1,1,387,NaN,elephant,cat,0,0387_sty_dnn_0_cat_00_cat-0236-ILSVRC2012-val-00031185.png,cat-0236-ILSVRC2012-val-00031185.png,0.0,-4.7438197,-1.8501779,-2.046114
alexnet_w1_mlp_simclrhn_probe1,1,388,NaN,bicycle,cat,0,0388_sty_dnn_0_cat_00_cat-0238-ILSVRC2012-val-00033582.png,cat-0238-ILSVRC2012-val-00033582.png,0.0,-4.0847054,-1.0113736,-2.173174
alexnet_w1_mlp_simclrhn_probe1,1,389,NaN,cat,cat,0,0389_sty_dnn_0_cat_00_cat-0242-ILSVRC2012-val-00040192.png,cat-0242-ILSVRC2012-val-00040192.png,1.0,-0.18239777,-1.2633908,0.76437753
alexnet_w1_mlp_simclrhn_probe1,1,390,NaN,bear,cat,0,0390_sty_dnn_0_cat_00_cat-0243-ILSVRC2012-val-00040600.png,cat-0243-ILSVRC2012-val-00040600.png,0.0,-0.30703887,0.99582744,-0.92126566
alexnet_w1_mlp_simclrhn_probe1,1,391,NaN,cat,cat,0,0391_sty_dnn_0_cat_00_cat-0247-ILSVRC2012-val-00044374.png,cat-0247-ILSVRC2012-val-00044374.png,1.0,0.10572055,-0.98191774,0.7690764
alexnet_w1_mlp_simclrhn_probe1,1,392,NaN,oven,cat,0,0392_sty_dnn_0_cat_00_cat-0258-ILSVRC2012-val-00006112.png,cat-0258-ILSVRC2012-val-00006112.png,0.0,-2.0535333,1.4493582,-2.4769185
alexnet_w1_mlp_simclrhn_probe1,1,393,NaN,knife,cat,0,0393_sty_dnn_0_cat_00_cat-0260-ILSVRC2012-val-00006612.png,cat-0260-ILSVRC2012-val-00006612.png,0.0,-8.224019,-2.1881242,-4.268022
alexnet_w1_mlp_simclrhn_probe1,1,394,NaN,cat,cat,0,0394_sty_dnn_0_cat_00_cat-0264-ILSVRC2012-val-00010823.png,cat-0264-ILSVRC2012-val-00010823.png,1.0,-0.33499816,-2.4407911,1.4890206
alexnet_w1_mlp_simclrhn_probe1,1,395,NaN,oven,cat,0,0395_sty_dnn_0_cat_00_cat-0270-ILSVRC2012-val-00017189.png,cat-0270-ILSVRC2012-val-00017189.png,0.0,-0.8904712,0.3942101,-0.9084069
alexnet_w1_mlp_simclrhn_probe1,1,396,NaN,knife,cat,0,0396_sty_dnn_0_cat_00_cat-0274-ILSVRC2012-val-00019370.png,cat-0274-ILSVRC2012-val-00019370.png,0.0,-3.6821492,-0.9924791,-1.901884
alexnet_w1_mlp_simclrhn_probe1,1,397,NaN,bicycle,cat,0,0397_sty_dnn_0_cat_00_cat-0284-ILSVRC2012-val-00027069.png,cat-0284-ILSVRC2012-val-00027069.png,0.0,-5.2857738,-1.6932843,-2.5402737
alexnet_w1_mlp_simclrhn_probe1,1,398,NaN,knife,cat,0,0398_sty_dnn_0_cat_00_cat-0291-ILSVRC2012-val-00035821.png,cat-0291-ILSVRC2012-val-00035821.png,0.0,-2.3371325,-1.338612,-0.70606065
alexnet_w1_mlp_simclrhn_probe1,1,399,NaN,knife,cat,0,0399_sty_dnn_0_cat_00_cat-0294-ILSVRC2012-val-00037633.png,cat-0294-ILSVRC2012-val-00037633.png,0.0,-2.026284,-0.5289989,-1.0587405
alexnet_w1_mlp_simclrhn_probe1,1,400,NaN,bicycle,cat,0,0400_sty_dnn_0_cat_00_cat-0298-ILSVRC2012-val-00042529.png,cat-0298-ILSVRC2012-val-00042529.png,0.0,-5.182701,-1.2230802,-2.7998748
alexnet_w1_mlp_simclrhn_probe1,1,401,NaN,oven,chair,0,0401_sty_dnn_0_chair_00_chair-0006-ILSVRC2012-val-00004679.png,chair-0006-ILSVRC2012-val-00004679.png,0.0,-6.212807,-1.8117272,-3.1120336
alexnet_w1_mlp_simclrhn_probe1,1,402,NaN,chair,chair,0,0402_sty_dnn_0_chair_00_chair-0018-ILSVRC2012-val-00013838.png,chair-0018-ILSVRC2012-val-00013838.png,1.0,-0.37652498,-0.90790945,0.37574556
alexnet_w1_mlp_simclrhn_probe1,1,403,NaN,bicycle,chair,0,0403_sty_dnn_0_chair_00_chair-0022-ILSVRC2012-val-00016403.png,chair-0022-ILSVRC2012-val-00016403.png,0.0,-0.5911225,-0.3394534,-0.17795694
alexnet_w1_mlp_simclrhn_probe1,1,404,NaN,elephant,chair,0,0404_sty_dnn_0_chair_00_chair-0024-ILSVRC2012-val-00021099.png,chair-0024-ILSVRC2012-val-00021099.png,0.0,-7.153347,1.8028314,-6.332975
alexnet_w1_mlp_simclrhn_probe1,1,405,NaN,oven,chair,0,0405_sty_dnn_0_chair_00_chair-0030-ILSVRC2012-val-00026896.png,chair-0030-ILSVRC2012-val-00026896.png,0.0,-3.3294637,0.003393665,-2.356686
alexnet_w1_mlp_simclrhn_probe1,1,406,NaN,bottle,chair,0,0406_sty_dnn_0_chair_00_chair-0033-ILSVRC2012-val-00031805.png,chair-0033-ILSVRC2012-val-00031805.png,0.0,-2.594625,-0.3303628,-1.6010752
alexnet_w1_mlp_simclrhn_probe1,1,407,NaN,elephant,chair,0,0407_sty_dnn_0_chair_00_chair-0039-ILSVRC2012-val-00041772.png,chair-0039-ILSVRC2012-val-00041772.png,0.0,-5.636926,-0.012714893,-3.976918
alexnet_w1_mlp_simclrhn_probe1,1,408,NaN,knife,chair,0,0408_sty_dnn_0_chair_00_chair-0040-ILSVRC2012-val-00042512.png,chair-0040-ILSVRC2012-val-00042512.png,0.0,-4.133996,0.281398,-3.122155
alexnet_w1_mlp_simclrhn_probe1,1,409,NaN,knife,chair,0,0409_sty_dnn_0_chair_00_chair-0045-ILSVRC2012-val-00044898.png,chair-0045-ILSVRC2012-val-00044898.png,0.0,-2.1825724,-0.54927516,-1.1549156
alexnet_w1_mlp_simclrhn_probe1,1,410,NaN,bicycle,chair,0,0410_sty_dnn_0_chair_00_chair-0047-ILSVRC2012-val-00045407.png,chair-0047-ILSVRC2012-val-00045407.png,0.0,-1.2378197,-0.8311182,-0.28758135
alexnet_w1_mlp_simclrhn_probe1,1,411,NaN,oven,chair,0,0411_sty_dnn_0_chair_00_chair-0050-ILSVRC2012-val-00049050.png,chair-0050-ILSVRC2012-val-00049050.png,0.0,-5.876754,-0.8867642,-3.5284557
alexnet_w1_mlp_simclrhn_probe1,1,412,NaN,airplane,chair,0,0412_sty_dnn_0_chair_00_chair-0051-ILSVRC2012-val-00001616.png,chair-0051-ILSVRC2012-val-00001616.png,0.0,-3.096551,-2.0955305,-0.70782834
alexnet_w1_mlp_simclrhn_probe1,1,413,NaN,bicycle,chair,0,0413_sty_dnn_0_chair_00_chair-0053-ILSVRC2012-val-00001855.png,chair-0053-ILSVRC2012-val-00001855.png,0.0,-2.7208657,-0.56155175,-1.5268655
alexnet_w1_mlp_simclrhn_probe1,1,414,NaN,bicycle,chair,0,0414_sty_dnn_0_chair_00_chair-0058-ILSVRC2012-val-00005926.png,chair-0058-ILSVRC2012-val-00005926.png,0.0,-6.239956,-2.6666698,-2.5266948
alexnet_w1_mlp_simclrhn_probe1,1,415,NaN,bicycle,chair,0,0415_sty_dnn_0_chair_00_chair-0059-ILSVRC2012-val-00006022.png,chair-0059-ILSVRC2012-val-00006022.png,0.0,-2.397963,-0.3175644,-1.471064
alexnet_w1_mlp_simclrhn_probe1,1,416,NaN,elephant,chair,0,0416_sty_dnn_0_chair_00_chair-0072-ILSVRC2012-val-00015559.png,chair-0072-ILSVRC2012-val-00015559.png,0.0,-6.2475195,-1.1232055,-3.6234372
alexnet_w1_mlp_simclrhn_probe1,1,417,NaN,truck,chair,0,0417_sty_dnn_0_chair_00_chair-0081-ILSVRC2012-val-00033069.png,chair-0081-ILSVRC2012-val-00033069.png,0.0,-0.36434174,-0.14438398,-0.15553363
alexnet_w1_mlp_simclrhn_probe1,1,418,NaN,bicycle,chair,0,0418_sty_dnn_0_chair_00_chair-0085-ILSVRC2012-val-00036175.png,chair-0085-ILSVRC2012-val-00036175.png,0.0,-1.0424939,0.3410784,-0.9783334
alexnet_w1_mlp_simclrhn_probe1,1,419,NaN,chair,chair,0,0419_sty_dnn_0_chair_00_chair-0087-ILSVRC2012-val-00037905.png,chair-0087-ILSVRC2012-val-00037905.png,1.0,-0.9553284,-2.098269,0.808181
alexnet_w1_mlp_simclrhn_probe1,1,420,NaN,oven,chair,0,0420_sty_dnn_0_chair_00_chair-0092-ILSVRC2012-val-00041814.png,chair-0092-ILSVRC2012-val-00041814.png,0.0,-2.8466814,-0.17444664,-1.8895553
alexnet_w1_mlp_simclrhn_probe1,1,421,NaN,bicycle,chair,0,0421_sty_dnn_0_chair_00_chair-0097-ILSVRC2012-val-00043453.png,chair-0097-ILSVRC2012-val-00043453.png,0.0,-3.0125155,0.4783319,-2.468402
alexnet_w1_mlp_simclrhn_probe1,1,422,NaN,oven,chair,0,0422_sty_dnn_0_chair_00_chair-0098-ILSVRC2012-val-00044181.png,chair-0098-ILSVRC2012-val-00044181.png,0.0,-5.809829,0.59907836,-4.531782
alexnet_w1_mlp_simclrhn_probe1,1,423,NaN,chair,chair,0,0423_sty_dnn_0_chair_00_chair-0116-ILSVRC2012-val-00017447.png,chair-0116-ILSVRC2012-val-00017447.png,1.0,0.027495503,-0.67482084,0.49661267
alexnet_w1_mlp_simclrhn_probe1,1,424,NaN,chair,chair,0,0424_sty_dnn_0_chair_00_chair-0118-ILSVRC2012-val-00018123.png,chair-0118-ILSVRC2012-val-00018123.png,1.0,0.3698895,-0.6577966,0.72668386
alexnet_w1_mlp_simclrhn_probe1,1,425,NaN,knife,chair,0,0425_sty_dnn_0_chair_00_chair-0119-ILSVRC2012-val-00018206.png,chair-0119-ILSVRC2012-val-00018206.png,0.0,-3.8086224,-0.37584636,-2.4273393
alexnet_w1_mlp_simclrhn_probe1,1,426,NaN,chair,chair,0,0426_sty_dnn_0_chair_00_chair-0122-ILSVRC2012-val-00019867.png,chair-0122-ILSVRC2012-val-00019867.png,1.0,-0.8114206,-2.0642014,0.8858497
alexnet_w1_mlp_simclrhn_probe1,1,427,NaN,oven,chair,0,0427_sty_dnn_0_chair_00_chair-0123-ILSVRC2012-val-00020924.png,chair-0123-ILSVRC2012-val-00020924.png,0.0,-6.9809265,-2.1188655,-3.4379964
alexnet_w1_mlp_simclrhn_probe1,1,428,NaN,oven,chair,0,0428_sty_dnn_0_chair_00_chair-0124-ILSVRC2012-val-00022208.png,chair-0124-ILSVRC2012-val-00022208.png,0.0,-6.815594,0.3691122,-5.0803547
alexnet_w1_mlp_simclrhn_probe1,1,429,NaN,oven,chair,0,0429_sty_dnn_0_chair_00_chair-0127-ILSVRC2012-val-00024620.png,chair-0127-ILSVRC2012-val-00024620.png,0.0,-2.0842524,2.9253268,-3.5423074
alexnet_w1_mlp_simclrhn_probe1,1,430,NaN,oven,chair,0,0430_sty_dnn_0_chair_00_chair-0133-ILSVRC2012-val-00033406.png,chair-0133-ILSVRC2012-val-00033406.png,0.0,-5.1024556,-2.5194092,-1.8264897
alexnet_w1_mlp_simclrhn_probe1,1,431,NaN,chair,chair,0,0431_sty_dnn_0_chair_00_chair-0136-ILSVRC2012-val-00037994.png,chair-0136-ILSVRC2012-val-00037994.png,1.0,0.82391214,-0.8004975,1.1486311
alexnet_w1_mlp_simclrhn_probe1,1,432,NaN,knife,chair,0,0432_sty_dnn_0_chair_00_chair-0138-ILSVRC2012-val-00038750.png,chair-0138-ILSVRC2012-val-00038750.png,0.0,-6.331081,-0.23472258,-4.310776
alexnet_w1_mlp_simclrhn_probe1,1,433,NaN,knife,chair,0,0433_sty_dnn_0_chair_00_chair-0141-ILSVRC2012-val-00040076.png,chair-0141-ILSVRC2012-val-00040076.png,0.0,-3.081181,0.123959646,-2.2663767
alexnet_w1_mlp_simclrhn_probe1,1,434,NaN,oven,chair,0,0434_sty_dnn_0_chair_00_chair-0150-ILSVRC2012-val-00048622.png,chair-0150-ILSVRC2012-val-00048622.png,0.0,-6.492837,-1.8968381,-3.249862
alexnet_w1_mlp_simclrhn_probe1,1,435,NaN,knife,chair,0,0435_sty_dnn_0_chair_00_chair-0154-ILSVRC2012-val-00004705.png,chair-0154-ILSVRC2012-val-00004705.png,0.0,-2.4469614,-1.4760392,-0.6865457
alexnet_w1_mlp_simclrhn_probe1,1,436,NaN,bear,chair,0,0436_sty_dnn_0_chair_00_chair-0155-ILSVRC2012-val-00005160.png,chair-0155-ILSVRC2012-val-00005160.png,0.0,-4.1749134,0.15719932,-3.0632663
alexnet_w1_mlp_simclrhn_probe1,1,437,NaN,oven,chair,0,0437_sty_dnn_0_chair_00_chair-0159-ILSVRC2012-val-00011028.png,chair-0159-ILSVRC2012-val-00011028.png,0.0,-2.9323268,-1.8721244,-0.7496763
alexnet_w1_mlp_simclrhn_probe1,1,438,NaN,chair,chair,0,0438_sty_dnn_0_chair_00_chair-0160-ILSVRC2012-val-00012040.png,chair-0160-ILSVRC2012-val-00012040.png,1.0,1.3829473,-0.86836666,1.5919194
alexnet_w1_mlp_simclrhn_probe1,1,439,NaN,chair,chair,0,0439_sty_dnn_0_chair_00_chair-0169-ILSVRC2012-val-00019913.png,chair-0169-ILSVRC2012-val-00019913.png,1.0,0.17151521,-0.09958533,0.19169705
alexnet_w1_mlp_simclrhn_probe1,1,440,NaN,knife,chair,0,0440_sty_dnn_0_chair_00_chair-0170-ILSVRC2012-val-00022051.png,chair-0170-ILSVRC2012-val-00022051.png,0.0,-2.6846337,-0.821841,-1.3171934
alexnet_w1_mlp_simclrhn_probe1,1,441,NaN,bottle,chair,0,0441_sty_dnn_0_chair_00_chair-0172-ILSVRC2012-val-00023378.png,chair-0172-ILSVRC2012-val-00023378.png,0.0,-3.2433352,-1.1302564,-1.4941725
alexnet_w1_mlp_simclrhn_probe1,1,442,NaN,bicycle,chair,0,0442_sty_dnn_0_chair_00_chair-0181-ILSVRC2012-val-00033160.png,chair-0181-ILSVRC2012-val-00033160.png,0.0,-3.2403712,-1.4044853,-1.2981673
alexnet_w1_mlp_simclrhn_probe1,1,443,NaN,elephant,chair,0,0443_sty_dnn_0_chair_00_chair-0183-ILSVRC2012-val-00035142.png,chair-0183-ILSVRC2012-val-00035142.png,0.0,-5.0969057,-1.5283673,-2.5233378
alexnet_w1_mlp_simclrhn_probe1,1,444,NaN,keyboard,chair,0,0444_sty_dnn_0_chair_00_chair-0188-ILSVRC2012-val-00041720.png,chair-0188-ILSVRC2012-val-00041720.png,0.0,-7.020454,-0.75350606,-4.4314013
alexnet_w1_mlp_simclrhn_probe1,1,445,NaN,elephant,chair,0,0445_sty_dnn_0_chair_00_chair-0189-ILSVRC2012-val-00041883.png,chair-0189-ILSVRC2012-val-00041883.png,0.0,-4.459865,1.4116338,-4.151777
alexnet_w1_mlp_simclrhn_probe1,1,446,NaN,oven,chair,0,0446_sty_dnn_0_chair_00_chair-0192-ILSVRC2012-val-00043870.png,chair-0192-ILSVRC2012-val-00043870.png,0.0,-3.6002388,-1.1522189,-1.7310115
alexnet_w1_mlp_simclrhn_probe1,1,447,NaN,knife,chair,0,0447_sty_dnn_0_chair_00_chair-0193-ILSVRC2012-val-00044295.png,chair-0193-ILSVRC2012-val-00044295.png,0.0,-2.2435102,-1.4916683,-0.53163254
alexnet_w1_mlp_simclrhn_probe1,1,448,NaN,chair,chair,0,0448_sty_dnn_0_chair_00_chair-0195-ILSVRC2012-val-00045464.png,chair-0195-ILSVRC2012-val-00045464.png,1.0,-0.4918722,-1.6363635,0.8092776
alexnet_w1_mlp_simclrhn_probe1,1,449,NaN,oven,chair,0,0449_sty_dnn_0_chair_00_chair-0196-ILSVRC2012-val-00045844.png,chair-0196-ILSVRC2012-val-00045844.png,0.0,-3.170413,-0.8888954,-1.6132765
alexnet_w1_mlp_simclrhn_probe1,1,450,NaN,oven,chair,0,0450_sty_dnn_0_chair_00_chair-0199-ILSVRC2012-val-00048901.png,chair-0199-ILSVRC2012-val-00048901.png,0.0,-2.4791512,0.77860737,-2.3035831
alexnet_w1_mlp_simclrhn_probe1,1,451,NaN,clock,clock,0,0451_sty_dnn_0_clock_00_clock-0001-ILSVRC2012-val-00001011.png,clock-0001-ILSVRC2012-val-00001011.png,1.0,-1.3990232,-3.6543877,1.5947835
alexnet_w1_mlp_simclrhn_probe1,1,452,NaN,bicycle,clock,0,0452_sty_dnn_0_clock_00_clock-0007-ILSVRC2012-val-00005490.png,clock-0007-ILSVRC2012-val-00005490.png,0.0,-6.5756955,0.3424029,-4.8918343
alexnet_w1_mlp_simclrhn_probe1,1,453,NaN,clock,clock,0,0453_sty_dnn_0_clock_00_clock-0008-ILSVRC2012-val-00005558.png,clock-0008-ILSVRC2012-val-00005558.png,1.0,0.5266781,0.40810913,0.083840914
alexnet_w1_mlp_simclrhn_probe1,1,454,NaN,chair,clock,0,0454_sty_dnn_0_clock_00_clock-0010-ILSVRC2012-val-00006858.png,clock-0010-ILSVRC2012-val-00006858.png,0.0,-1.4574527,-1.2049508,-0.17854577
alexnet_w1_mlp_simclrhn_probe1,1,455,NaN,clock,clock,0,0455_sty_dnn_0_clock_00_clock-0013-ILSVRC2012-val-00013244.png,clock-0013-ILSVRC2012-val-00013244.png,1.0,-0.8077046,-2.0544715,0.8815973
alexnet_w1_mlp_simclrhn_probe1,1,456,NaN,oven,clock,0,0456_sty_dnn_0_clock_00_clock-0018-ILSVRC2012-val-00015871.png,clock-0018-ILSVRC2012-val-00015871.png,0.0,-3.4440649,-2.6453688,-0.56476337
alexnet_w1_mlp_simclrhn_probe1,1,457,NaN,clock,clock,0,0457_sty_dnn_0_clock_00_clock-0020-ILSVRC2012-val-00016889.png,clock-0020-ILSVRC2012-val-00016889.png,1.0,-0.53647023,-1.7059823,0.8269699
alexnet_w1_mlp_simclrhn_probe1,1,458,NaN,clock,clock,0,0458_sty_dnn_0_clock_00_clock-0023-ILSVRC2012-val-00017973.png,clock-0023-ILSVRC2012-val-00017973.png,1.0,1.7882205,-1.6919127,2.4608257
alexnet_w1_mlp_simclrhn_probe1,1,459,NaN,clock,clock,0,0459_sty_dnn_0_clock_00_clock-0025-ILSVRC2012-val-00019663.png,clock-0025-ILSVRC2012-val-00019663.png,1.0,-0.5936373,-1.0900114,0.3509895
alexnet_w1_mlp_simclrhn_probe1,1,460,NaN,clock,clock,0,0460_sty_dnn_0_clock_00_clock-0028-ILSVRC2012-val-00021179.png,clock-0028-ILSVRC2012-val-00021179.png,1.0,-1.8860011,-1.9592694,0.05180851
alexnet_w1_mlp_simclrhn_probe1,1,461,NaN,clock,clock,0,0461_sty_dnn_0_clock_00_clock-0029-ILSVRC2012-val-00022719.png,clock-0029-ILSVRC2012-val-00022719.png,1.0,0.772204,-1.121194,1.3388346
alexnet_w1_mlp_simclrhn_probe1,1,462,NaN,oven,clock,0,0462_sty_dnn_0_clock_00_clock-0032-ILSVRC2012-val-00024425.png,clock-0032-ILSVRC2012-val-00024425.png,0.0,-2.0489402,-1.2786698,-0.54466337
alexnet_w1_mlp_simclrhn_probe1,1,463,NaN,bottle,clock,0,0463_sty_dnn_0_clock_00_clock-0034-ILSVRC2012-val-00026380.png,clock-0034-ILSVRC2012-val-00026380.png,0.0,-5.26055,-2.3934605,-2.0273385
alexnet_w1_mlp_simclrhn_probe1,1,464,NaN,clock,clock,0,0464_sty_dnn_0_clock_00_clock-0038-ILSVRC2012-val-00032489.png,clock-0038-ILSVRC2012-val-00032489.png,1.0,-0.26211807,-0.53215754,0.19094674
alexnet_w1_mlp_simclrhn_probe1,1,465,NaN,elephant,clock,0,0465_sty_dnn_0_clock_00_clock-0039-ILSVRC2012-val-00033429.png,clock-0039-ILSVRC2012-val-00033429.png,0.0,-3.832571,-0.2995644,-2.498213
alexnet_w1_mlp_simclrhn_probe1,1,466,NaN,clock,clock,0,0466_sty_dnn_0_clock_00_clock-0040-ILSVRC2012-val-00035392.png,clock-0040-ILSVRC2012-val-00035392.png,1.0,4.3585668,-1.3706172,4.051145
alexnet_w1_mlp_simclrhn_probe1,1,467,NaN,bicycle,clock,0,0467_sty_dnn_0_clock_00_clock-0043-ILSVRC2012-val-00041613.png,clock-0043-ILSVRC2012-val-00041613.png,0.0,-0.50139683,1.0671,-1.1090949
alexnet_w1_mlp_simclrhn_probe1,1,468,NaN,oven,clock,0,0468_sty_dnn_0_clock_00_clock-0045-ILSVRC2012-val-00043497.png,clock-0045-ILSVRC2012-val-00043497.png,0.0,-3.4758303,1.6735271,-3.6411455
alexnet_w1_mlp_simclrhn_probe1,1,469,NaN,bottle,clock,0,0469_sty_dnn_0_clock_00_clock-0046-ILSVRC2012-val-00044049.png,clock-0046-ILSVRC2012-val-00044049.png,0.0,0.06062146,0.8522566,-0.5597706
alexnet_w1_mlp_simclrhn_probe1,1,470,NaN,bicycle,clock,0,0470_sty_dnn_0_clock_00_clock-0048-ILSVRC2012-val-00044752.png,clock-0048-ILSVRC2012-val-00044752.png,0.0,-2.0542448,-1.3120168,-0.5248344
alexnet_w1_mlp_simclrhn_probe1,1,471,NaN,cat,clock,0,0471_sty_dnn_0_clock_00_clock-0052-ILSVRC2012-val-00003721.png,clock-0052-ILSVRC2012-val-00003721.png,0.0,-4.3356285,-1.291834,-2.152288
alexnet_w1_mlp_simclrhn_probe1,1,472,NaN,oven,clock,0,0472_sty_dnn_0_clock_00_clock-0054-ILSVRC2012-val-00008751.png,clock-0054-ILSVRC2012-val-00008751.png,0.0,-3.1525567,0.59968495,-2.6532354
alexnet_w1_mlp_simclrhn_probe1,1,473,NaN,airplane,clock,0,0473_sty_dnn_0_clock_00_clock-0062-ILSVRC2012-val-00014987.png,clock-0062-ILSVRC2012-val-00014987.png,0.0,-1.5022731,0.5866604,-1.4770991
alexnet_w1_mlp_simclrhn_probe1,1,474,NaN,bottle,clock,0,0474_sty_dnn_0_clock_00_clock-0063-ILSVRC2012-val-00015628.png,clock-0063-ILSVRC2012-val-00015628.png,0.0,-2.583741,-1.9818289,-0.4256161
alexnet_w1_mlp_simclrhn_probe1,1,475,NaN,clock,clock,0,0475_sty_dnn_0_clock_00_clock-0073-ILSVRC2012-val-00026298.png,clock-0073-ILSVRC2012-val-00026298.png,1.0,-1.0556705,-1.6833384,0.44382823
alexnet_w1_mlp_simclrhn_probe1,1,476,NaN,bottle,clock,0,0476_sty_dnn_0_clock_00_clock-0076-ILSVRC2012-val-00028203.png,clock-0076-ILSVRC2012-val-00028203.png,0.0,-5.031706,-2.5029836,-1.7880768
alexnet_w1_mlp_simclrhn_probe1,1,477,NaN,knife,clock,0,0477_sty_dnn_0_clock_00_clock-0080-ILSVRC2012-val-00032946.png,clock-0080-ILSVRC2012-val-00032946.png,0.0,-2.6570835,-1.2918015,-0.9654002
alexnet_w1_mlp_simclrhn_probe1,1,478,NaN,chair,clock,0,0478_sty_dnn_0_clock_00_clock-0082-ILSVRC2012-val-00033627.png,clock-0082-ILSVRC2012-val-00033627.png,0.0,-5.8667502,-1.7272873,-2.9270425
alexnet_w1_mlp_simclrhn_probe1,1,479,NaN,bottle,clock,0,0479_sty_dnn_0_clock_00_clock-0084-ILSVRC2012-val-00034426.png,clock-0084-ILSVRC2012-val-00034426.png,0.0,0.16569798,0.53596485,-0.2618182
alexnet_w1_mlp_simclrhn_probe1,1,480,NaN,car,clock,0,0480_sty_dnn_0_clock_00_clock-0086-ILSVRC2012-val-00041483.png,clock-0086-ILSVRC2012-val-00041483.png,0.0,-1.5953146,0.10023603,-1.1989354
alexnet_w1_mlp_simclrhn_probe1,1,481,NaN,knife,clock,0,0481_sty_dnn_0_clock_00_clock-0089-ILSVRC2012-val-00042911.png,clock-0089-ILSVRC2012-val-00042911.png,0.0,-4.7213945,-1.5111933,-2.2699552
alexnet_w1_mlp_simclrhn_probe1,1,482,NaN,bicycle,clock,0,0482_sty_dnn_0_clock_00_clock-0091-ILSVRC2012-val-00044029.png,clock-0091-ILSVRC2012-val-00044029.png,0.0,-5.9972878,-1.1263703,-3.4442587
alexnet_w1_mlp_simclrhn_probe1,1,483,NaN,oven,clock,0,0483_sty_dnn_0_clock_00_clock-0092-ILSVRC2012-val-00044168.png,clock-0092-ILSVRC2012-val-00044168.png,0.0,-3.5488164,-0.4094386,-2.2198753
alexnet_w1_mlp_simclrhn_probe1,1,484,NaN,oven,clock,0,0484_sty_dnn_0_clock_00_clock-0098-ILSVRC2012-val-00048682.png,clock-0098-ILSVRC2012-val-00048682.png,0.0,-4.2830977,-1.9360651,-1.6596026
alexnet_w1_mlp_simclrhn_probe1,1,485,NaN,knife,clock,0,0485_sty_dnn_0_clock_00_clock-0100-ILSVRC2012-val-00049759.png,clock-0100-ILSVRC2012-val-00049759.png,0.0,-1.7473903,-1.2195086,-0.3732687
alexnet_w1_mlp_simclrhn_probe1,1,486,NaN,oven,clock,0,0486_sty_dnn_0_clock_00_clock-0106-ILSVRC2012-val-00009413.png,clock-0106-ILSVRC2012-val-00009413.png,0.0,-1.8648409,-0.63429356,-0.87012833
alexnet_w1_mlp_simclrhn_probe1,1,487,NaN,clock,clock,0,0487_sty_dnn_0_clock_00_clock-0107-ILSVRC2012-val-00010270.png,clock-0107-ILSVRC2012-val-00010270.png,1.0,-2.2904682,-3.478258,0.8398942
alexnet_w1_mlp_simclrhn_probe1,1,488,NaN,clock,clock,0,0488_sty_dnn_0_clock_00_clock-0108-ILSVRC2012-val-00011957.png,clock-0108-ILSVRC2012-val-00011957.png,1.0,-1.5560827,-2.9270387,0.96941227
alexnet_w1_mlp_simclrhn_probe1,1,489,NaN,knife,clock,0,0489_sty_dnn_0_clock_00_clock-0110-ILSVRC2012-val-00014035.png,clock-0110-ILSVRC2012-val-00014035.png,0.0,-1.1332344,-0.3763771,-0.5351789
alexnet_w1_mlp_simclrhn_probe1,1,490,NaN,knife,clock,0,0490_sty_dnn_0_clock_00_clock-0112-ILSVRC2012-val-00014635.png,clock-0112-ILSVRC2012-val-00014635.png,0.0,-4.867782,-1.4611546,-2.4088495
alexnet_w1_mlp_simclrhn_probe1,1,491,NaN,knife,clock,0,0491_sty_dnn_0_clock_00_clock-0118-ILSVRC2012-val-00018443.png,clock-0118-ILSVRC2012-val-00018443.png,0.0,-2.21178,-1.8974032,-0.222298
alexnet_w1_mlp_simclrhn_probe1,1,492,NaN,bottle,clock,0,0492_sty_dnn_0_clock_00_clock-0119-ILSVRC2012-val-00018797.png,clock-0119-ILSVRC2012-val-00018797.png,0.0,-0.8627376,-0.13285652,-0.51610386
alexnet_w1_mlp_simclrhn_probe1,1,493,NaN,oven,clock,0,0493_sty_dnn_0_clock_00_clock-0127-ILSVRC2012-val-00030330.png,clock-0127-ILSVRC2012-val-00030330.png,0.0,-4.0284524,-1.6171554,-1.7050444
alexnet_w1_mlp_simclrhn_probe1,1,494,NaN,bicycle,clock,0,0494_sty_dnn_0_clock_00_clock-0128-ILSVRC2012-val-00030987.png,clock-0128-ILSVRC2012-val-00030987.png,0.0,-1.6983414,0.054492116,-1.2394404
alexnet_w1_mlp_simclrhn_probe1,1,495,NaN,bottle,clock,0,0495_sty_dnn_0_clock_00_clock-0129-ILSVRC2012-val-00031861.png,clock-0129-ILSVRC2012-val-00031861.png,0.0,-2.4973433,0.027619557,-1.7854184
alexnet_w1_mlp_simclrhn_probe1,1,496,NaN,clock,clock,0,0496_sty_dnn_0_clock_00_clock-0130-ILSVRC2012-val-00032136.png,clock-0130-ILSVRC2012-val-00032136.png,1.0,-1.5234343,-2.230467,0.4999477
alexnet_w1_mlp_simclrhn_probe1,1,497,NaN,clock,clock,0,0497_sty_dnn_0_clock_00_clock-0142-ILSVRC2012-val-00041461.png,clock-0142-ILSVRC2012-val-00041461.png,1.0,-1.7600718,-2.7034009,0.6670344
alexnet_w1_mlp_simclrhn_probe1,1,498,NaN,knife,clock,0,0498_sty_dnn_0_clock_00_clock-0143-ILSVRC2012-val-00041547.png,clock-0143-ILSVRC2012-val-00041547.png,0.0,-3.4550006,-1.0768645,-1.6815963
alexnet_w1_mlp_simclrhn_probe1,1,499,NaN,clock,clock,0,0499_sty_dnn_0_clock_00_clock-0144-ILSVRC2012-val-00041715.png,clock-0144-ILSVRC2012-val-00041715.png,1.0,0.7072577,-1.0123461,1.2159435
alexnet_w1_mlp_simclrhn_probe1,1,500,NaN,cat,clock,0,0500_sty_dnn_0_clock_00_clock-0145-ILSVRC2012-val-00044685.png,clock-0145-ILSVRC2012-val-00044685.png,0.0,-5.235227,-1.7301521,-2.4784622
alexnet_w1_mlp_simclrhn_probe1,1,501,NaN,dog,dog,0,0501_sty_dnn_0_dog_00_dog-0099-ILSVRC2012-val-00048280.png,dog-0099-ILSVRC2012-val-00048280.png,1.0,-1.0300887,-3.6555424,1.8564762
alexnet_w1_mlp_simclrhn_probe1,1,502,NaN,bottle,dog,0,0502_sty_dnn_0_dog_00_dog-0158-ILSVRC2012-val-00004081.png,dog-0158-ILSVRC2012-val-00004081.png,0.0,-4.2228503,-0.8409094,-2.3913934
alexnet_w1_mlp_simclrhn_probe1,1,503,NaN,elephant,dog,0,0503_sty_dnn_0_dog_00_dog-0220-ILSVRC2012-val-00017568.png,dog-0220-ILSVRC2012-val-00017568.png,0.0,-3.1771991,-1.9451627,-0.87118137
alexnet_w1_mlp_simclrhn_probe1,1,504,NaN,elephant,dog,0,0504_sty_dnn_0_dog_00_dog-0247-ILSVRC2012-val-00045683.png,dog-0247-ILSVRC2012-val-00045683.png,0.0,-2.082957,-0.12581816,-1.3839062
alexnet_w1_mlp_simclrhn_probe1,1,505,NaN,bear,dog,0,0505_sty_dnn_0_dog_00_dog-0303-ILSVRC2012-val-00002521.png,dog-0303-ILSVRC2012-val-00002521.png,0.0,-1.6202768,0.2616463,-1.3307205
alexnet_w1_mlp_simclrhn_probe1,1,506,NaN,cat,dog,0,0506_sty_dnn_0_dog_00_dog-0386-ILSVRC2012-val-00034616.png,dog-0386-ILSVRC2012-val-00034616.png,0.0,-0.9612735,-0.08612264,-0.61882514
alexnet_w1_mlp_simclrhn_probe1,1,507,NaN,elephant,dog,0,0507_sty_dnn_0_dog_00_dog-0397-ILSVRC2012-val-00044140.png,dog-0397-ILSVRC2012-val-00044140.png,0.0,-3.4043543,-0.54442006,-2.022279
alexnet_w1_mlp_simclrhn_probe1,1,508,NaN,bear,dog,0,0508_sty_dnn_0_dog_00_dog-0779-ILSVRC2012-val-00033666.png,dog-0779-ILSVRC2012-val-00033666.png,0.0,-2.8878698,-1.563866,-0.93621206
alexnet_w1_mlp_simclrhn_probe1,1,509,NaN,dog,dog,0,0509_sty_dnn_0_dog_00_dog-1178-ILSVRC2012-val-00022137.png,dog-1178-ILSVRC2012-val-00022137.png,1.0,0.7558771,-0.20943189,0.68257654
alexnet_w1_mlp_simclrhn_probe1,1,510,NaN,elephant,dog,0,0510_sty_dnn_0_dog_00_dog-1191-ILSVRC2012-val-00037989.png,dog-1191-ILSVRC2012-val-00037989.png,0.0,-2.423321,0.7116759,-2.2167776
alexnet_w1_mlp_simclrhn_probe1,1,511,NaN,cat,dog,0,0511_sty_dnn_0_dog_00_dog-1398-ILSVRC2012-val-00046547.png,dog-1398-ILSVRC2012-val-00046547.png,0.0,-3.071043,-2.47363,-0.42243484
alexnet_w1_mlp_simclrhn_probe1,1,512,NaN,knife,dog,0,0512_sty_dnn_0_dog_00_dog-1538-ILSVRC2012-val-00038167.png,dog-1538-ILSVRC2012-val-00038167.png,0.0,-9.117492,-0.83952034,-5.85341
alexnet_w1_mlp_simclrhn_probe1,1,513,NaN,cat,dog,0,0513_sty_dnn_0_dog_00_dog-1613-ILSVRC2012-val-00015923.png,dog-1613-ILSVRC2012-val-00015923.png,0.0,-1.9752661,-0.84030074,-0.80254173
alexnet_w1_mlp_simclrhn_probe1,1,514,NaN,oven,dog,0,0514_sty_dnn_0_dog_00_dog-1734-ILSVRC2012-val-00031377.png,dog-1734-ILSVRC2012-val-00031377.png,0.0,-3.455455,-1.1543655,-1.6271161
