subj,session,trial,rt,object_response,category,condition,imagename,filename,is_correct,targ_act,max_nontarg_act,decision_margin
convnext_large,1,1,NaN,airplane,airplane,0,0001_sty_dnn_0_airplane_00_airplane-0001-ILSVRC2012-val-00000631.png,00_airplane-0001-ILSVRC2012-val-00000631.png,1.0,5.5328608,1.9893049,2.5056722
convnext_large,1,2,NaN,clock,airplane,0,0002_sty_dnn_0_airplane_00_airplane-0002-ILSVRC2012-val-00001390.png,00_airplane-0002-ILSVRC2012-val-00001390.png,0.0,0.086244345,1.5414945,-1.0290172
convnext_large,1,3,NaN,airplane,airplane,0,0003_sty_dnn_0_airplane_00_airplane-0003-ILSVRC2012-val-00001506.png,00_airplane-0003-ILSVRC2012-val-00001506.png,1.0,1.0914978,1.0619013,0.02092785
convnext_large,1,4,NaN,airplane,airplane,0,0004_sty_dnn_0_airplane_00_airplane-0004-ILSVRC2012-val-00001952.png,00_airplane-0004-ILSVRC2012-val-00001952.png,1.0,5.050888,1.6015034,2.4390833
convnext_large,1,5,NaN,airplane,airplane,0,0005_sty_dnn_0_airplane_00_airplane-0005-ILSVRC2012-val-00003960.png,00_airplane-0005-ILSVRC2012-val-00003960.png,1.0,6.152511,1.8001003,3.0776193
convnext_large,1,6,NaN,cat,airplane,0,0006_sty_dnn_0_airplane_00_airplane-0006-ILSVRC2012-val-00008292.png,00_airplane-0006-ILSVRC2012-val-00008292.png,0.0,-0.49489516,2.2751899,-1.958746
convnext_large,1,7,NaN,boat,airplane,0,0007_sty_dnn_0_airplane_00_airplane-0007-ILSVRC2012-val-00009537.png,00_airplane-0007-ILSVRC2012-val-00009537.png,0.0,2.248867,2.718934,-0.3323876
convnext_large,1,8,NaN,cat,airplane,0,0008_sty_dnn_0_airplane_00_airplane-0008-ILSVRC2012-val-00010597.png,00_airplane-0008-ILSVRC2012-val-00010597.png,0.0,-0.80243903,2.1155307,-2.063316
convnext_large,1,9,NaN,bear,airplane,0,0009_sty_dnn_0_airplane_00_airplane-0009-ILSVRC2012-val-00011168.png,00_airplane-0009-ILSVRC2012-val-00011168.png,0.0,1.2219594,1.8332257,-0.4322306
convnext_large,1,10,NaN,cat,airplane,0,0010_sty_dnn_0_airplane_00_airplane-0010-ILSVRC2012-val-00012263.png,00_airplane-0010-ILSVRC2012-val-00012263.png,0.0,-1.1014029,1.0423063,-1.5158314
convnext_large,1,11,NaN,clock,airplane,0,0011_sty_dnn_0_airplane_00_airplane-0011-ILSVRC2012-val-00014425.png,00_airplane-0011-ILSVRC2012-val-00014425.png,0.0,-0.11407629,2.0243742,-1.512113
convnext_large,1,12,NaN,clock,airplane,0,0012_sty_dnn_0_airplane_00_airplane-0012-ILSVRC2012-val-00015498.png,00_airplane-0012-ILSVRC2012-val-00015498.png,0.0,0.017162353,2.1764364,-1.5268373
convnext_large,1,13,NaN,cat,airplane,0,0013_sty_dnn_0_airplane_00_airplane-0013-ILSVRC2012-val-00015636.png,00_airplane-0013-ILSVRC2012-val-00015636.png,0.0,-1.1863759,0.24939425,-1.0152428
convnext_large,1,14,NaN,oven,airplane,0,0014_sty_dnn_0_airplane_00_airplane-0014-ILSVRC2012-val-00016995.png,00_airplane-0014-ILSVRC2012-val-00016995.png,0.0,-0.27208763,2.6718628,-2.0816875
convnext_large,1,15,NaN,airplane,airplane,0,0015_sty_dnn_0_airplane_00_airplane-0015-ILSVRC2012-val-00018616.png,00_airplane-0015-ILSVRC2012-val-00018616.png,1.0,2.3704038,2.3533297,0.012073218
convnext_large,1,16,NaN,airplane,airplane,0,0016_sty_dnn_0_airplane_00_airplane-0016-ILSVRC2012-val-00018685.png,00_airplane-0016-ILSVRC2012-val-00018685.png,1.0,3.657618,2.0944262,1.1053436
convnext_large,1,17,NaN,chair,airplane,0,0017_sty_dnn_0_airplane_00_airplane-0017-ILSVRC2012-val-00019179.png,00_airplane-0017-ILSVRC2012-val-00019179.png,0.0,-1.1978693,0.7285323,-1.3621716
convnext_large,1,18,NaN,airplane,airplane,0,0018_sty_dnn_0_airplane_00_airplane-0018-ILSVRC2012-val-00019677.png,00_airplane-0018-ILSVRC2012-val-00019677.png,1.0,3.9590583,0.9387596,2.1356738
convnext_large,1,19,NaN,knife,airplane,0,0019_sty_dnn_0_airplane_00_airplane-0019-ILSVRC2012-val-00022532.png,00_airplane-0019-ILSVRC2012-val-00022532.png,0.0,-0.16975072,2.1352239,-1.6298631
convnext_large,1,20,NaN,chair,airplane,0,0020_sty_dnn_0_airplane_00_airplane-0020-ILSVRC2012-val-00022975.png,00_airplane-0020-ILSVRC2012-val-00022975.png,0.0,0.26944882,0.9441914,-0.47711506
convnext_large,1,21,NaN,cat,airplane,0,0021_sty_dnn_0_airplane_00_airplane-0021-ILSVRC2012-val-00023316.png,00_airplane-0021-ILSVRC2012-val-00023316.png,0.0,0.39164546,0.7491658,-0.25280505
convnext_large,1,22,NaN,airplane,airplane,0,0022_sty_dnn_0_airplane_00_airplane-0022-ILSVRC2012-val-00023781.png,00_airplane-0022-ILSVRC2012-val-00023781.png,1.0,1.6996322,0.7640402,0.66156346
convnext_large,1,23,NaN,airplane,airplane,0,0023_sty_dnn_0_airplane_00_airplane-0023-ILSVRC2012-val-00023863.png,00_airplane-0023-ILSVRC2012-val-00023863.png,1.0,7.76531,0.72452676,4.9785852
convnext_large,1,24,NaN,clock,airplane,0,0024_sty_dnn_0_airplane_00_airplane-0024-ILSVRC2012-val-00024108.png,00_airplane-0024-ILSVRC2012-val-00024108.png,0.0,0.35711366,1.2046248,-0.5992809
convnext_large,1,25,NaN,airplane,airplane,0,0025_sty_dnn_0_airplane_00_airplane-0025-ILSVRC2012-val-00024747.png,00_airplane-0025-ILSVRC2012-val-00024747.png,1.0,7.225023,0.812227,4.5345316
convnext_large,1,26,NaN,cat,airplane,0,0026_sty_dnn_0_airplane_00_airplane-0026-ILSVRC2012-val-00026189.png,00_airplane-0026-ILSVRC2012-val-00026189.png,0.0,-0.16207865,2.49813,-1.8810517
convnext_large,1,27,NaN,clock,airplane,0,0027_sty_dnn_0_airplane_00_airplane-0027-ILSVRC2012-val-00026859.png,00_airplane-0027-ILSVRC2012-val-00026859.png,0.0,-0.033213034,1.9581747,-1.4081237
convnext_large,1,28,NaN,clock,airplane,0,0028_sty_dnn_0_airplane_00_airplane-0028-ILSVRC2012-val-00028019.png,00_airplane-0028-ILSVRC2012-val-00028019.png,0.0,-0.62805814,0.6661982,-0.91517746
convnext_large,1,29,NaN,knife,airplane,0,0029_sty_dnn_0_airplane_00_airplane-0029-ILSVRC2012-val-00030319.png,00_airplane-0029-ILSVRC2012-val-00030319.png,0.0,-1.0150534,1.9485095,-2.0955555
convnext_large,1,30,NaN,airplane,airplane,0,0030_sty_dnn_0_airplane_00_airplane-0030-ILSVRC2012-val-00030411.png,00_airplane-0030-ILSVRC2012-val-00030411.png,1.0,1.860517,1.2151581,0.4563377
convnext_large,1,31,NaN,airplane,airplane,0,0031_sty_dnn_0_airplane_00_airplane-0031-ILSVRC2012-val-00030531.png,00_airplane-0031-ILSVRC2012-val-00030531.png,1.0,8.156099,0.69385463,5.2766037
convnext_large,1,32,NaN,clock,airplane,0,0032_sty_dnn_0_airplane_00_airplane-0032-ILSVRC2012-val-00032804.png,00_airplane-0032-ILSVRC2012-val-00032804.png,0.0,0.037399784,1.158859,-0.79299146
convnext_large,1,33,NaN,car,airplane,0,0033_sty_dnn_0_airplane_00_airplane-0033-ILSVRC2012-val-00033161.png,00_airplane-0033-ILSVRC2012-val-00033161.png,0.0,-0.4592747,0.8859047,-0.9511855
convnext_large,1,34,NaN,airplane,airplane,0,0034_sty_dnn_0_airplane_00_airplane-0034-ILSVRC2012-val-00033441.png,00_airplane-0034-ILSVRC2012-val-00033441.png,1.0,2.2691145,1.3657123,0.6388018
convnext_large,1,35,NaN,airplane,airplane,0,0035_sty_dnn_0_airplane_00_airplane-0035-ILSVRC2012-val-00033920.png,00_airplane-0035-ILSVRC2012-val-00033920.png,1.0,3.698921,2.5541527,0.8094734
convnext_large,1,36,NaN,airplane,airplane,0,0036_sty_dnn_0_airplane_00_airplane-0036-ILSVRC2012-val-00034342.png,00_airplane-0036-ILSVRC2012-val-00034342.png,1.0,2.942338,0.99910253,1.3740749
convnext_large,1,37,NaN,car,airplane,0,0037_sty_dnn_0_airplane_00_airplane-0037-ILSVRC2012-val-00035783.png,00_airplane-0037-ILSVRC2012-val-00035783.png,0.0,2.191627,2.4744132,-0.19996
convnext_large,1,38,NaN,airplane,airplane,0,0038_sty_dnn_0_airplane_00_airplane-0038-ILSVRC2012-val-00036394.png,00_airplane-0038-ILSVRC2012-val-00036394.png,1.0,2.102263,1.0875481,0.7175118
convnext_large,1,39,NaN,bicycle,airplane,0,0039_sty_dnn_0_airplane_00_airplane-0039-ILSVRC2012-val-00037801.png,00_airplane-0039-ILSVRC2012-val-00037801.png,0.0,-0.5904126,0.5695667,-0.8202293
convnext_large,1,40,NaN,cat,airplane,0,0040_sty_dnn_0_airplane_00_airplane-0040-ILSVRC2012-val-00039213.png,00_airplane-0040-ILSVRC2012-val-00039213.png,0.0,1.3055662,2.1020467,-0.5631968
convnext_large,1,41,NaN,clock,airplane,0,0041_sty_dnn_0_airplane_00_airplane-0041-ILSVRC2012-val-00040136.png,00_airplane-0041-ILSVRC2012-val-00040136.png,0.0,-0.46020168,0.6539062,-0.7877932
convnext_large,1,42,NaN,cat,airplane,0,0042_sty_dnn_0_airplane_00_airplane-0042-ILSVRC2012-val-00040547.png,00_airplane-0042-ILSVRC2012-val-00040547.png,0.0,-0.7335717,1.42107,-1.5235617
convnext_large,1,43,NaN,elephant,airplane,0,0043_sty_dnn_0_airplane_00_airplane-0043-ILSVRC2012-val-00041518.png,00_airplane-0043-ILSVRC2012-val-00041518.png,0.0,-0.3594346,2.3396394,-1.9085336
convnext_large,1,44,NaN,airplane,airplane,0,0044_sty_dnn_0_airplane_00_airplane-0044-ILSVRC2012-val-00043242.png,00_airplane-0044-ILSVRC2012-val-00043242.png,1.0,2.8106675,2.4378545,0.2636186
convnext_large,1,45,NaN,keyboard,airplane,0,0045_sty_dnn_0_airplane_00_airplane-0045-ILSVRC2012-val-00044253.png,00_airplane-0045-ILSVRC2012-val-00044253.png,0.0,0.68473804,0.94045633,-0.18082014
convnext_large,1,46,NaN,clock,airplane,0,0046_sty_dnn_0_airplane_00_airplane-0046-ILSVRC2012-val-00046862.png,00_airplane-0046-ILSVRC2012-val-00046862.png,0.0,-0.6346085,1.1889839,-1.2894746
convnext_large,1,47,NaN,keyboard,airplane,0,0047_sty_dnn_0_airplane_00_airplane-0047-ILSVRC2012-val-00046971.png,00_airplane-0047-ILSVRC2012-val-00046971.png,0.0,-0.4253664,1.1613386,-1.1219698
convnext_large,1,48,NaN,oven,airplane,0,0048_sty_dnn_0_airplane_00_airplane-0048-ILSVRC2012-val-00047829.png,00_airplane-0048-ILSVRC2012-val-00047829.png,0.0,3.1104498,4.224946,-0.7880679
convnext_large,1,49,NaN,airplane,airplane,0,0049_sty_dnn_0_airplane_00_airplane-0049-ILSVRC2012-val-00048111.png,00_airplane-0049-ILSVRC2012-val-00048111.png,1.0,2.69942,1.1573429,1.0904132
convnext_large,1,50,NaN,airplane,airplane,0,0050_sty_dnn_0_airplane_00_airplane-0050-ILSVRC2012-val-00049097.png,00_airplane-0050-ILSVRC2012-val-00049097.png,1.0,4.6070995,1.6039133,2.1235733
convnext_large,1,51,NaN,clock,bear,0,0051_sty_dnn_0_bear_00_bear-0003-ILSVRC2012-val-00003044.png,00_bear-0003-ILSVRC2012-val-00003044.png,0.0,-0.2977925,1.3399676,-1.1580713
convnext_large,1,52,NaN,bear,bear,0,0052_sty_dnn_0_bear_00_bear-0005-ILSVRC2012-val-00006703.png,00_bear-0005-ILSVRC2012-val-00006703.png,1.0,3.4221268,0.573362,2.014381
convnext_large,1,53,NaN,elephant,bear,0,0053_sty_dnn_0_bear_00_bear-0009-ILSVRC2012-val-00011967.png,00_bear-0009-ILSVRC2012-val-00011967.png,0.0,2.0140023,2.666106,-0.46110693
convnext_large,1,54,NaN,bear,bear,0,0054_sty_dnn_0_bear_00_bear-0010-ILSVRC2012-val-00013390.png,00_bear-0010-ILSVRC2012-val-00013390.png,1.0,4.4481335,1.0459176,2.40573
convnext_large,1,55,NaN,bear,bear,0,0055_sty_dnn_0_bear_00_bear-0021-ILSVRC2012-val-00031253.png,00_bear-0021-ILSVRC2012-val-00031253.png,1.0,3.8684702,0.7265916,2.2216437
convnext_large,1,56,NaN,clock,bear,0,0056_sty_dnn_0_bear_00_bear-0031-ILSVRC2012-val-00039777.png,00_bear-0031-ILSVRC2012-val-00039777.png,0.0,0.134586,1.434958,-0.9195019
convnext_large,1,57,NaN,elephant,bear,0,0057_sty_dnn_0_bear_00_bear-0035-ILSVRC2012-val-00042274.png,00_bear-0035-ILSVRC2012-val-00042274.png,0.0,-0.6849145,1.0371594,-1.2176902
convnext_large,1,58,NaN,clock,bear,0,0058_sty_dnn_0_bear_00_bear-0043-ILSVRC2012-val-00046763.png,00_bear-0043-ILSVRC2012-val-00046763.png,0.0,-0.20635049,1.8130411,-1.4279255
convnext_large,1,59,NaN,bear,bear,0,0059_sty_dnn_0_bear_00_bear-0049-ILSVRC2012-val-00049822.png,00_bear-0049-ILSVRC2012-val-00049822.png,1.0,3.080351,0.9482412,1.5076294
convnext_large,1,60,NaN,bear,bear,0,0060_sty_dnn_0_bear_00_bear-0052-ILSVRC2012-val-00000865.png,00_bear-0052-ILSVRC2012-val-00000865.png,1.0,3.6139684,1.2650094,1.6609648
convnext_large,1,61,NaN,clock,bear,0,0061_sty_dnn_0_bear_00_bear-0056-ILSVRC2012-val-00007093.png,00_bear-0056-ILSVRC2012-val-00007093.png,0.0,-0.083697215,1.3376364,-1.0050346
convnext_large,1,62,NaN,bear,bear,0,0062_sty_dnn_0_bear_00_bear-0058-ILSVRC2012-val-00011726.png,00_bear-0058-ILSVRC2012-val-00011726.png,1.0,4.228417,0.5568679,2.5961773
convnext_large,1,63,NaN,bear,bear,0,0063_sty_dnn_0_bear_00_bear-0062-ILSVRC2012-val-00014029.png,00_bear-0062-ILSVRC2012-val-00014029.png,1.0,1.8231285,0.9892955,0.58960897
convnext_large,1,64,NaN,bottle,bear,0,0064_sty_dnn_0_bear_00_bear-0064-ILSVRC2012-val-00016050.png,00_bear-0064-ILSVRC2012-val-00016050.png,0.0,-1.0278035,1.1718827,-1.5554131
convnext_large,1,65,NaN,cat,bear,0,0065_sty_dnn_0_bear_00_bear-0066-ILSVRC2012-val-00016621.png,00_bear-0066-ILSVRC2012-val-00016621.png,0.0,2.130212,3.7383728,-1.1371413
convnext_large,1,66,NaN,bear,bear,0,0066_sty_dnn_0_bear_00_bear-0067-ILSVRC2012-val-00017273.png,00_bear-0067-ILSVRC2012-val-00017273.png,1.0,4.652439,0.48769754,2.944917
convnext_large,1,67,NaN,boat,bear,0,0067_sty_dnn_0_bear_00_bear-0069-ILSVRC2012-val-00018788.png,00_bear-0069-ILSVRC2012-val-00018788.png,0.0,0.78357935,1.2206376,-0.30904683
convnext_large,1,68,NaN,bear,bear,0,0068_sty_dnn_0_bear_00_bear-0071-ILSVRC2012-val-00020050.png,00_bear-0071-ILSVRC2012-val-00020050.png,1.0,4.407211,0.80029345,2.5504758
convnext_large,1,69,NaN,bottle,bear,0,0069_sty_dnn_0_bear_00_bear-0073-ILSVRC2012-val-00024289.png,00_bear-0073-ILSVRC2012-val-00024289.png,0.0,-0.7154623,1.5890455,-1.629533
convnext_large,1,70,NaN,bear,bear,0,0070_sty_dnn_0_bear_00_bear-0074-ILSVRC2012-val-00026962.png,00_bear-0074-ILSVRC2012-val-00026962.png,1.0,3.1982918,2.0579088,0.8063726
convnext_large,1,71,NaN,bear,bear,0,0071_sty_dnn_0_bear_00_bear-0078-ILSVRC2012-val-00030951.png,00_bear-0078-ILSVRC2012-val-00030951.png,1.0,3.433178,2.222167,0.85631406
convnext_large,1,72,NaN,bear,bear,0,0072_sty_dnn_0_bear_00_bear-0085-ILSVRC2012-val-00035292.png,00_bear-0085-ILSVRC2012-val-00035292.png,1.0,3.603375,1.654458,1.3780924
convnext_large,1,73,NaN,bear,bear,0,0073_sty_dnn_0_bear_00_bear-0091-ILSVRC2012-val-00041813.png,00_bear-0091-ILSVRC2012-val-00041813.png,1.0,4.1883307,0.5620856,2.5641425
convnext_large,1,74,NaN,oven,bear,0,0074_sty_dnn_0_bear_00_bear-0094-ILSVRC2012-val-00043648.png,00_bear-0094-ILSVRC2012-val-00043648.png,0.0,0.5113264,0.66442776,-0.10825903
convnext_large,1,75,NaN,bear,bear,0,0075_sty_dnn_0_bear_00_bear-0106-ILSVRC2012-val-00007578.png,00_bear-0106-ILSVRC2012-val-00007578.png,1.0,1.4786453,1.3847156,0.06641838
convnext_large,1,76,NaN,clock,bear,0,0076_sty_dnn_0_bear_00_bear-0112-ILSVRC2012-val-00016340.png,00_bear-0112-ILSVRC2012-val-00016340.png,0.0,-0.54829425,0.46230653,-0.7146027
convnext_large,1,77,NaN,bear,bear,0,0077_sty_dnn_0_bear_00_bear-0113-ILSVRC2012-val-00016459.png,00_bear-0113-ILSVRC2012-val-00016459.png,1.0,2.4766536,2.0207436,0.32237703
convnext_large,1,78,NaN,cat,bear,0,0078_sty_dnn_0_bear_00_bear-0114-ILSVRC2012-val-00017605.png,00_bear-0114-ILSVRC2012-val-00017605.png,0.0,0.46871066,1.2624067,-0.56122786
convnext_large,1,79,NaN,bear,bear,0,0079_sty_dnn_0_bear_00_bear-0116-ILSVRC2012-val-00020332.png,00_bear-0116-ILSVRC2012-val-00020332.png,1.0,1.9200923,1.2105582,0.50171643
convnext_large,1,80,NaN,elephant,bear,0,0080_sty_dnn_0_bear_00_bear-0125-ILSVRC2012-val-00028222.png,00_bear-0125-ILSVRC2012-val-00028222.png,0.0,0.77438027,2.5207837,-1.2348938
convnext_large,1,81,NaN,cat,bear,0,0081_sty_dnn_0_bear_00_bear-0129-ILSVRC2012-val-00030485.png,00_bear-0129-ILSVRC2012-val-00030485.png,0.0,-0.1831736,1.836613,-1.4282048
convnext_large,1,82,NaN,bear,bear,0,0082_sty_dnn_0_bear_00_bear-0131-ILSVRC2012-val-00031877.png,00_bear-0131-ILSVRC2012-val-00031877.png,1.0,1.5430826,0.5168622,0.7256474
convnext_large,1,83,NaN,oven,bear,0,0083_sty_dnn_0_bear_00_bear-0132-ILSVRC2012-val-00036763.png,00_bear-0132-ILSVRC2012-val-00036763.png,0.0,-0.5616545,0.7490254,-0.92679065
convnext_large,1,84,NaN,bottle,bear,0,0084_sty_dnn_0_bear_00_bear-0139-ILSVRC2012-val-00041156.png,00_bear-0139-ILSVRC2012-val-00041156.png,0.0,-0.68246853,0.83606833,-1.0737677
convnext_large,1,85,NaN,bear,bear,0,0085_sty_dnn_0_bear_00_bear-0141-ILSVRC2012-val-00042320.png,00_bear-0141-ILSVRC2012-val-00042320.png,1.0,1.4796185,0.99031323,0.3459911
convnext_large,1,86,NaN,oven,bear,0,0086_sty_dnn_0_bear_00_bear-0143-ILSVRC2012-val-00044126.png,00_bear-0143-ILSVRC2012-val-00044126.png,0.0,-0.16305344,1.2600675,-1.0062984
convnext_large,1,87,NaN,knife,bear,0,0087_sty_dnn_0_bear_00_bear-0149-ILSVRC2012-val-00048105.png,00_bear-0149-ILSVRC2012-val-00048105.png,0.0,0.09374678,1.2721742,-0.83327407
convnext_large,1,88,NaN,bear,bear,0,0088_sty_dnn_0_bear_00_bear-0154-ILSVRC2012-val-00003499.png,00_bear-0154-ILSVRC2012-val-00003499.png,1.0,1.4472283,0.7394156,0.5004992
convnext_large,1,89,NaN,bear,bear,0,0089_sty_dnn_0_bear_00_bear-0160-ILSVRC2012-val-00013052.png,00_bear-0160-ILSVRC2012-val-00013052.png,1.0,1.6201624,1.3024378,0.22466521
convnext_large,1,90,NaN,bear,bear,0,0090_sty_dnn_0_bear_00_bear-0163-ILSVRC2012-val-00016513.png,00_bear-0163-ILSVRC2012-val-00016513.png,1.0,0.65031356,0.6221945,0.019883156
convnext_large,1,91,NaN,cat,bear,0,0091_sty_dnn_0_bear_00_bear-0164-ILSVRC2012-val-00018303.png,00_bear-0164-ILSVRC2012-val-00018303.png,0.0,-0.016661495,1.2240136,-0.8772898
convnext_large,1,92,NaN,cat,bear,0,0092_sty_dnn_0_bear_00_bear-0165-ILSVRC2012-val-00019901.png,00_bear-0165-ILSVRC2012-val-00019901.png,0.0,0.068979,1.368687,-0.91903234
convnext_large,1,93,NaN,bottle,bear,0,0093_sty_dnn_0_bear_00_bear-0166-ILSVRC2012-val-00022111.png,00_bear-0166-ILSVRC2012-val-00022111.png,0.0,-0.7674542,1.1137388,-1.3302042
convnext_large,1,94,NaN,bear,bear,0,0094_sty_dnn_0_bear_00_bear-0167-ILSVRC2012-val-00022112.png,00_bear-0167-ILSVRC2012-val-00022112.png,1.0,2.037206,1.3519278,0.48456484
convnext_large,1,95,NaN,bear,bear,0,0095_sty_dnn_0_bear_00_bear-0168-ILSVRC2012-val-00022698.png,00_bear-0168-ILSVRC2012-val-00022698.png,1.0,3.6355543,0.48647842,2.226733
convnext_large,1,96,NaN,dog,bear,0,0096_sty_dnn_0_bear_00_bear-0180-ILSVRC2012-val-00034637.png,00_bear-0180-ILSVRC2012-val-00034637.png,0.0,0.051690925,0.67393184,-0.43999076
convnext_large,1,97,NaN,chair,bear,0,0097_sty_dnn_0_bear_00_bear-0184-ILSVRC2012-val-00038961.png,00_bear-0184-ILSVRC2012-val-00038961.png,0.0,0.20686461,0.5435887,-0.2380999
convnext_large,1,98,NaN,bottle,bear,0,0098_sty_dnn_0_bear_00_bear-0188-ILSVRC2012-val-00043016.png,00_bear-0188-ILSVRC2012-val-00043016.png,0.0,0.027882576,1.2820336,-0.8868187
convnext_large,1,99,NaN,bear,bear,0,0099_sty_dnn_0_bear_00_bear-0191-ILSVRC2012-val-00044349.png,00_bear-0191-ILSVRC2012-val-00044349.png,1.0,2.2380009,0.5323575,1.2060721
convnext_large,1,100,NaN,bear,bear,0,0100_sty_dnn_0_bear_00_bear-0195-ILSVRC2012-val-00045672.png,00_bear-0195-ILSVRC2012-val-00045672.png,1.0,1.7666414,1.0217408,0.5267243
convnext_large,1,101,NaN,cat,bicycle,0,0101_sty_dnn_0_bicycle_00_bicycle-0005-ILSVRC2012-val-00005274.png,00_bicycle-0005-ILSVRC2012-val-00005274.png,0.0,-0.8875387,1.0885853,-1.3973306
convnext_large,1,102,NaN,bicycle,bicycle,0,0102_sty_dnn_0_bicycle_00_bicycle-0007-ILSVRC2012-val-00006395.png,00_bicycle-0007-ILSVRC2012-val-00006395.png,1.0,1.1231267,0.9205471,0.14324543
convnext_large,1,103,NaN,bicycle,bicycle,0,0103_sty_dnn_0_bicycle_00_bicycle-0008-ILSVRC2012-val-00008007.png,00_bicycle-0008-ILSVRC2012-val-00008007.png,1.0,2.9871526,0.39715925,1.8314018
convnext_large,1,104,NaN,bicycle,bicycle,0,0104_sty_dnn_0_bicycle_00_bicycle-0010-ILSVRC2012-val-00010544.png,00_bicycle-0010-ILSVRC2012-val-00010544.png,1.0,2.065763,0.73942083,0.9378655
convnext_large,1,105,NaN,bottle,bicycle,0,0105_sty_dnn_0_bicycle_00_bicycle-0011-ILSVRC2012-val-00011821.png,00_bicycle-0011-ILSVRC2012-val-00011821.png,0.0,0.7659045,1.8593932,-0.77321327
convnext_large,1,106,NaN,bicycle,bicycle,0,0106_sty_dnn_0_bicycle_00_bicycle-0013-ILSVRC2012-val-00012667.png,00_bicycle-0013-ILSVRC2012-val-00012667.png,1.0,5.7614164,0.44441193,3.75969
convnext_large,1,107,NaN,bicycle,bicycle,0,0107_sty_dnn_0_bicycle_00_bicycle-0014-ILSVRC2012-val-00015483.png,00_bicycle-0014-ILSVRC2012-val-00015483.png,1.0,2.7391706,1.4980074,0.8776349
convnext_large,1,108,NaN,bicycle,bicycle,0,0108_sty_dnn_0_bicycle_00_bicycle-0015-ILSVRC2012-val-00015618.png,00_bicycle-0015-ILSVRC2012-val-00015618.png,1.0,5.5800295,1.8843718,2.6132247
convnext_large,1,109,NaN,chair,bicycle,0,0109_sty_dnn_0_bicycle_00_bicycle-0016-ILSVRC2012-val-00016532.png,00_bicycle-0016-ILSVRC2012-val-00016532.png,0.0,0.7655214,0.92436635,-0.11232034
convnext_large,1,110,NaN,bicycle,bicycle,0,0110_sty_dnn_0_bicycle_00_bicycle-0018-ILSVRC2012-val-00018975.png,00_bicycle-0018-ILSVRC2012-val-00018975.png,1.0,4.3859377,0.5351297,2.7229323
convnext_large,1,111,NaN,bicycle,bicycle,0,0111_sty_dnn_0_bicycle_00_bicycle-0020-ILSVRC2012-val-00022027.png,00_bicycle-0020-ILSVRC2012-val-00022027.png,1.0,5.57087,0.7555379,3.404954
convnext_large,1,112,NaN,clock,bicycle,0,0112_sty_dnn_0_bicycle_00_bicycle-0022-ILSVRC2012-val-00023266.png,00_bicycle-0022-ILSVRC2012-val-00023266.png,0.0,-1.3356929,0.8590273,-1.5519016
convnext_large,1,113,NaN,cat,bicycle,0,0113_sty_dnn_0_bicycle_00_bicycle-0024-ILSVRC2012-val-00025915.png,00_bicycle-0024-ILSVRC2012-val-00025915.png,0.0,-0.32744712,1.0170015,-0.9506687
convnext_large,1,114,NaN,bicycle,bicycle,0,0114_sty_dnn_0_bicycle_00_bicycle-0026-ILSVRC2012-val-00026292.png,00_bicycle-0026-ILSVRC2012-val-00026292.png,1.0,4.301693,1.3634087,2.0776808
convnext_large,1,115,NaN,cat,bicycle,0,0115_sty_dnn_0_bicycle_00_bicycle-0030-ILSVRC2012-val-00027620.png,00_bicycle-0030-ILSVRC2012-val-00027620.png,0.0,-0.61742455,1.4357158,-1.4517895
convnext_large,1,116,NaN,boat,bicycle,0,0116_sty_dnn_0_bicycle_00_bicycle-0032-ILSVRC2012-val-00030070.png,00_bicycle-0032-ILSVRC2012-val-00030070.png,0.0,0.054761857,1.6308132,-1.1144366
convnext_large,1,117,NaN,bottle,bicycle,0,0117_sty_dnn_0_bicycle_00_bicycle-0033-ILSVRC2012-val-00031498.png,00_bicycle-0033-ILSVRC2012-val-00031498.png,0.0,0.17456529,1.4512999,-0.9027877
convnext_large,1,118,NaN,bicycle,bicycle,0,0118_sty_dnn_0_bicycle_00_bicycle-0035-ILSVRC2012-val-00033559.png,00_bicycle-0035-ILSVRC2012-val-00033559.png,1.0,6.655735,0.8120427,4.1321144
convnext_large,1,119,NaN,boat,bicycle,0,0119_sty_dnn_0_bicycle_00_bicycle-0037-ILSVRC2012-val-00036009.png,00_bicycle-0037-ILSVRC2012-val-00036009.png,0.0,1.2429323,1.736269,-0.34884173
convnext_large,1,120,NaN,chair,bicycle,0,0120_sty_dnn_0_bicycle_00_bicycle-0038-ILSVRC2012-val-00036903.png,00_bicycle-0038-ILSVRC2012-val-00036903.png,0.0,-0.74231327,1.8309083,-1.8195425
convnext_large,1,121,NaN,bicycle,bicycle,0,0121_sty_dnn_0_bicycle_00_bicycle-0039-ILSVRC2012-val-00037292.png,00_bicycle-0039-ILSVRC2012-val-00037292.png,1.0,5.3517528,0.4937227,3.4351459
convnext_large,1,122,NaN,bicycle,bicycle,0,0122_sty_dnn_0_bicycle_00_bicycle-0040-ILSVRC2012-val-00037433.png,00_bicycle-0040-ILSVRC2012-val-00037433.png,1.0,4.1399,1.2511907,2.0426261
convnext_large,1,123,NaN,bicycle,bicycle,0,0123_sty_dnn_0_bicycle_00_bicycle-0043-ILSVRC2012-val-00038415.png,00_bicycle-0043-ILSVRC2012-val-00038415.png,1.0,5.9535637,1.8602602,2.8944027
convnext_large,1,124,NaN,bicycle,bicycle,0,0124_sty_dnn_0_bicycle_00_bicycle-0044-ILSVRC2012-val-00040027.png,00_bicycle-0044-ILSVRC2012-val-00040027.png,1.0,1.5737411,1.3986149,0.12383292
convnext_large,1,125,NaN,bicycle,bicycle,0,0125_sty_dnn_0_bicycle_00_bicycle-0046-ILSVRC2012-val-00042496.png,00_bicycle-0046-ILSVRC2012-val-00042496.png,1.0,4.3614616,1.130751,2.2844574
convnext_large,1,126,NaN,clock,bicycle,0,0126_sty_dnn_0_bicycle_00_bicycle-0047-ILSVRC2012-val-00043435.png,00_bicycle-0047-ILSVRC2012-val-00043435.png,0.0,1.1801901,1.485671,-0.21600766
convnext_large,1,127,NaN,bicycle,bicycle,0,0127_sty_dnn_0_bicycle_00_bicycle-0048-ILSVRC2012-val-00045400.png,00_bicycle-0048-ILSVRC2012-val-00045400.png,1.0,3.4768682,0.76862824,1.915015
convnext_large,1,128,NaN,bicycle,bicycle,0,0128_sty_dnn_0_bicycle_00_bicycle-0050-ILSVRC2012-val-00049382.png,00_bicycle-0050-ILSVRC2012-val-00049382.png,1.0,1.9553587,0.33763343,1.1439046
convnext_large,1,129,NaN,bicycle,bicycle,0,0129_sty_dnn_0_bicycle_00_bicycle-0054-ILSVRC2012-val-00004147.png,00_bicycle-0054-ILSVRC2012-val-00004147.png,1.0,3.3291988,0.5278021,1.9808867
convnext_large,1,130,NaN,bicycle,bicycle,0,0130_sty_dnn_0_bicycle_00_bicycle-0056-ILSVRC2012-val-00005330.png,00_bicycle-0056-ILSVRC2012-val-00005330.png,1.0,6.040082,3.224556,1.9908775
convnext_large,1,131,NaN,bicycle,bicycle,0,0131_sty_dnn_0_bicycle_00_bicycle-0059-ILSVRC2012-val-00011329.png,00_bicycle-0059-ILSVRC2012-val-00011329.png,1.0,6.092827,0.7248004,3.7957678
convnext_large,1,132,NaN,bicycle,bicycle,0,0132_sty_dnn_0_bicycle_00_bicycle-0060-ILSVRC2012-val-00011330.png,00_bicycle-0060-ILSVRC2012-val-00011330.png,1.0,4.097724,1.1510019,2.0836473
convnext_large,1,133,NaN,elephant,bicycle,0,0133_sty_dnn_0_bicycle_00_bicycle-0061-ILSVRC2012-val-00012096.png,00_bicycle-0061-ILSVRC2012-val-00012096.png,0.0,-0.37821653,2.89069,-2.311466
convnext_large,1,134,NaN,bicycle,bicycle,0,0134_sty_dnn_0_bicycle_00_bicycle-0062-ILSVRC2012-val-00015867.png,00_bicycle-0062-ILSVRC2012-val-00015867.png,1.0,0.8980105,0.621169,0.19575652
convnext_large,1,135,NaN,bicycle,bicycle,0,0135_sty_dnn_0_bicycle_00_bicycle-0064-ILSVRC2012-val-00017103.png,00_bicycle-0064-ILSVRC2012-val-00017103.png,1.0,3.8317604,1.3135378,1.7806523
convnext_large,1,136,NaN,dog,bicycle,0,0136_sty_dnn_0_bicycle_00_bicycle-0067-ILSVRC2012-val-00018304.png,00_bicycle-0067-ILSVRC2012-val-00018304.png,0.0,-0.06677586,0.41162452,-0.33828017
convnext_large,1,137,NaN,boat,bicycle,0,0137_sty_dnn_0_bicycle_00_bicycle-0070-ILSVRC2012-val-00020631.png,00_bicycle-0070-ILSVRC2012-val-00020631.png,0.0,1.4878576,2.7333164,-0.8806724
convnext_large,1,138,NaN,bicycle,bicycle,0,0138_sty_dnn_0_bicycle_00_bicycle-0073-ILSVRC2012-val-00027449.png,00_bicycle-0073-ILSVRC2012-val-00027449.png,1.0,1.6792252,0.8125536,0.6128294
convnext_large,1,139,NaN,cat,bicycle,0,0139_sty_dnn_0_bicycle_00_bicycle-0074-ILSVRC2012-val-00028824.png,00_bicycle-0074-ILSVRC2012-val-00028824.png,0.0,2.3359995,3.397155,-0.7503503
convnext_large,1,140,NaN,bicycle,bicycle,0,0140_sty_dnn_0_bicycle_00_bicycle-0077-ILSVRC2012-val-00030112.png,00_bicycle-0077-ILSVRC2012-val-00030112.png,1.0,3.2986455,1.1669519,1.5073351
convnext_large,1,141,NaN,bicycle,bicycle,0,0141_sty_dnn_0_bicycle_00_bicycle-0078-ILSVRC2012-val-00030892.png,00_bicycle-0078-ILSVRC2012-val-00030892.png,1.0,5.112308,1.8166384,2.3303902
convnext_large,1,142,NaN,bicycle,bicycle,0,0142_sty_dnn_0_bicycle_00_bicycle-0079-ILSVRC2012-val-00031485.png,00_bicycle-0079-ILSVRC2012-val-00031485.png,1.0,3.8146248,0.5609029,2.3007288
convnext_large,1,143,NaN,bicycle,bicycle,0,0143_sty_dnn_0_bicycle_00_bicycle-0080-ILSVRC2012-val-00032009.png,00_bicycle-0080-ILSVRC2012-val-00032009.png,1.0,3.6079006,1.2620983,1.6587328
convnext_large,1,144,NaN,clock,bicycle,0,0144_sty_dnn_0_bicycle_00_bicycle-0081-ILSVRC2012-val-00032967.png,00_bicycle-0081-ILSVRC2012-val-00032967.png,0.0,-0.05354724,0.84874755,-0.6380188
convnext_large,1,145,NaN,bicycle,bicycle,0,0145_sty_dnn_0_bicycle_00_bicycle-0085-ILSVRC2012-val-00037438.png,00_bicycle-0085-ILSVRC2012-val-00037438.png,1.0,4.796062,0.25174597,3.2133167
convnext_large,1,146,NaN,bicycle,bicycle,0,0146_sty_dnn_0_bicycle_00_bicycle-0089-ILSVRC2012-val-00042393.png,00_bicycle-0089-ILSVRC2012-val-00042393.png,1.0,4.5637064,0.524302,2.8562903
convnext_large,1,147,NaN,bicycle,bicycle,0,0147_sty_dnn_0_bicycle_00_bicycle-0092-ILSVRC2012-val-00043207.png,00_bicycle-0092-ILSVRC2012-val-00043207.png,1.0,4.0757437,0.5795061,2.4722133
convnext_large,1,148,NaN,bicycle,bicycle,0,0148_sty_dnn_0_bicycle_00_bicycle-0094-ILSVRC2012-val-00044080.png,00_bicycle-0094-ILSVRC2012-val-00044080.png,1.0,6.101596,0.91779256,3.6655028
convnext_large,1,149,NaN,bicycle,bicycle,0,0149_sty_dnn_0_bicycle_00_bicycle-0096-ILSVRC2012-val-00045152.png,00_bicycle-0096-ILSVRC2012-val-00045152.png,1.0,3.487483,1.0050558,1.755341
convnext_large,1,150,NaN,bicycle,bicycle,0,0150_sty_dnn_0_bicycle_00_bicycle-0100-ILSVRC2012-val-00049750.png,00_bicycle-0100-ILSVRC2012-val-00049750.png,1.0,4.5412774,0.54173625,2.8281028
convnext_large,1,151,NaN,bottle,bird,0,0151_sty_dnn_0_bird_00_bird-0009-ILSVRC2012-val-00007530.png,00_bird-0009-ILSVRC2012-val-00007530.png,0.0,-0.22413458,1.2742263,-1.0595012
convnext_large,1,152,NaN,cat,bird,0,0152_sty_dnn_0_bird_00_bird-0045-ILSVRC2012-val-00045547.png,00_bird-0045-ILSVRC2012-val-00045547.png,0.0,0.011891731,0.91209555,-0.63654023
convnext_large,1,153,NaN,bottle,bird,0,0153_sty_dnn_0_bird_00_bird-0119-ILSVRC2012-val-00016252.png,00_bird-0119-ILSVRC2012-val-00016252.png,0.0,0.11090609,0.96909016,-0.6068278
convnext_large,1,154,NaN,bottle,bird,0,0154_sty_dnn_0_bird_00_bird-0122-ILSVRC2012-val-00019236.png,00_bird-0122-ILSVRC2012-val-00019236.png,0.0,-0.4810705,1.378494,-1.3149108
convnext_large,1,155,NaN,bottle,bird,0,0155_sty_dnn_0_bird_00_bird-0157-ILSVRC2012-val-00005336.png,00_bird-0157-ILSVRC2012-val-00005336.png,0.0,-0.4864716,0.7408249,-0.8678297
convnext_large,1,156,NaN,clock,bird,0,0156_sty_dnn_0_bird_00_bird-0175-ILSVRC2012-val-00018699.png,00_bird-0175-ILSVRC2012-val-00018699.png,0.0,-0.04382499,2.6707752,-1.9195122
convnext_large,1,157,NaN,bicycle,bird,0,0157_sty_dnn_0_bird_00_bird-0228-ILSVRC2012-val-00017712.png,00_bird-0228-ILSVRC2012-val-00017712.png,0.0,-0.030164517,0.86686635,-0.63429666
convnext_large,1,158,NaN,keyboard,bird,0,0158_sty_dnn_0_bird_00_bird-0238-ILSVRC2012-val-00030657.png,00_bird-0238-ILSVRC2012-val-00030657.png,0.0,1.105461,1.4502215,-0.24378252
convnext_large,1,159,NaN,bird,bird,0,0159_sty_dnn_0_bird_00_bird-0426-ILSVRC2012-val-00030017.png,00_bird-0426-ILSVRC2012-val-00030017.png,1.0,0.47902134,0.46270546,0.011537068
convnext_large,1,160,NaN,airplane,bird,0,0160_sty_dnn_0_bird_00_bird-0486-ILSVRC2012-val-00037420.png,00_bird-0486-ILSVRC2012-val-00037420.png,0.0,0.82890755,2.3782449,-1.095547
convnext_large,1,161,NaN,bird,bird,0,0161_sty_dnn_0_bird_00_bird-0513-ILSVRC2012-val-00013223.png,00_bird-0513-ILSVRC2012-val-00013223.png,1.0,0.6218403,0.5244395,0.06887276
convnext_large,1,162,NaN,cat,bird,0,0162_sty_dnn_0_bird_00_bird-0522-ILSVRC2012-val-00020730.png,00_bird-0522-ILSVRC2012-val-00020730.png,0.0,0.6032293,0.76518947,-0.11452315
convnext_large,1,163,NaN,knife,bird,0,0163_sty_dnn_0_bird_00_bird-0532-ILSVRC2012-val-00028181.png,00_bird-0532-ILSVRC2012-val-00028181.png,0.0,-0.60352695,2.9288182,-2.4977453
convnext_large,1,164,NaN,bicycle,bird,0,0164_sty_dnn_0_bird_00_bird-0624-ILSVRC2012-val-00024514.png,00_bird-0624-ILSVRC2012-val-00024514.png,0.0,-0.08856239,0.94265485,-0.7291807
convnext_large,1,165,NaN,chair,bird,0,0165_sty_dnn_0_bird_00_bird-0701-ILSVRC2012-val-00000075.png,00_bird-0701-ILSVRC2012-val-00000075.png,0.0,-0.47347313,0.9528713,-1.0085778
convnext_large,1,166,NaN,boat,bird,0,0166_sty_dnn_0_bird_00_bird-0752-ILSVRC2012-val-00001596.png,00_bird-0752-ILSVRC2012-val-00001596.png,0.0,-0.30973718,1.8687611,-1.5404309
convnext_large,1,167,NaN,elephant,bird,0,0167_sty_dnn_0_bird_00_bird-0754-ILSVRC2012-val-00002846.png,00_bird-0754-ILSVRC2012-val-00002846.png,0.0,0.56147724,1.4643174,-0.6384044
convnext_large,1,168,NaN,car,bird,0,0168_sty_dnn_0_bird_00_bird-0822-ILSVRC2012-val-00025200.png,00_bird-0822-ILSVRC2012-val-00025200.png,0.0,-0.31103215,0.7403992,-0.7434742
convnext_large,1,169,NaN,clock,bird,0,0169_sty_dnn_0_bird_00_bird-0896-ILSVRC2012-val-00046621.png,00_bird-0896-ILSVRC2012-val-00046621.png,0.0,0.036473878,0.7332848,-0.4927197
convnext_large,1,170,NaN,cat,bird,0,0170_sty_dnn_0_bird_00_bird-0995-ILSVRC2012-val-00046534.png,00_bird-0995-ILSVRC2012-val-00046534.png,0.0,0.42779213,0.94331646,-0.36453074
convnext_large,1,171,NaN,oven,bird,0,0171_sty_dnn_0_bird_00_bird-1052-ILSVRC2012-val-00003884.png,00_bird-1052-ILSVRC2012-val-00003884.png,0.0,-0.13583577,3.3483572,-2.4636965
convnext_large,1,172,NaN,bottle,bird,0,0172_sty_dnn_0_bird_00_bird-1093-ILSVRC2012-val-00044082.png,00_bird-1093-ILSVRC2012-val-00044082.png,0.0,-0.21328418,1.3671452,-1.1175323
convnext_large,1,173,NaN,car,bird,0,0173_sty_dnn_0_bird_00_bird-1172-ILSVRC2012-val-00022442.png,00_bird-1172-ILSVRC2012-val-00022442.png,0.0,-0.059545886,0.52203256,-0.41123807
convnext_large,1,174,NaN,elephant,bird,0,0174_sty_dnn_0_bird_00_bird-1188-ILSVRC2012-val-00040014.png,00_bird-1188-ILSVRC2012-val-00040014.png,0.0,0.2331761,2.86524,-1.8611504
convnext_large,1,175,NaN,bicycle,bird,0,0175_sty_dnn_0_bird_00_bird-1198-ILSVRC2012-val-00048142.png,00_bird-1198-ILSVRC2012-val-00048142.png,0.0,0.3828552,0.45671442,-0.052226353
convnext_large,1,176,NaN,clock,bird,0,0176_sty_dnn_0_bird_00_bird-1256-ILSVRC2012-val-00005779.png,00_bird-1256-ILSVRC2012-val-00005779.png,0.0,-0.21632494,0.96731395,-0.8369591
convnext_large,1,177,NaN,boat,bird,0,0177_sty_dnn_0_bird_00_bird-1274-ILSVRC2012-val-00025449.png,00_bird-1274-ILSVRC2012-val-00025449.png,0.0,-0.0374901,1.6394813,-1.1857979
convnext_large,1,178,NaN,oven,bird,0,0178_sty_dnn_0_bird_00_bird-1326-ILSVRC2012-val-00025658.png,00_bird-1326-ILSVRC2012-val-00025658.png,0.0,-0.15099251,1.1900688,-0.9482736
convnext_large,1,179,NaN,bird,bird,0,0179_sty_dnn_0_bird_00_bird-1394-ILSVRC2012-val-00040051.png,00_bird-1394-ILSVRC2012-val-00040051.png,1.0,0.4300783,0.35557353,0.052682824
convnext_large,1,180,NaN,oven,bird,0,0180_sty_dnn_0_bird_00_bird-1452-ILSVRC2012-val-00002997.png,00_bird-1452-ILSVRC2012-val-00002997.png,0.0,-0.01782481,1.5820665,-1.131294
convnext_large,1,181,NaN,oven,bird,0,0181_sty_dnn_0_bird_00_bird-1551-ILSVRC2012-val-00000690.png,00_bird-1551-ILSVRC2012-val-00000690.png,0.0,-0.09844812,0.79361284,-0.63078237
convnext_large,1,182,NaN,airplane,bird,0,0182_sty_dnn_0_bird_00_bird-1646-ILSVRC2012-val-00039398.png,00_bird-1646-ILSVRC2012-val-00039398.png,0.0,0.08370009,0.9614718,-0.62067837
convnext_large,1,183,NaN,bear,bird,0,0183_sty_dnn_0_bird_00_bird-1861-ILSVRC2012-val-00007811.png,00_bird-1861-ILSVRC2012-val-00007811.png,0.0,0.2672548,2.121642,-1.3112499
convnext_large,1,184,NaN,knife,bird,0,0184_sty_dnn_0_bird_00_bird-1865-ILSVRC2012-val-00009672.png,00_bird-1865-ILSVRC2012-val-00009672.png,0.0,0.15979755,1.0473113,-0.627567
convnext_large,1,185,NaN,elephant,bird,0,0185_sty_dnn_0_bird_00_bird-1913-ILSVRC2012-val-00012475.png,00_bird-1913-ILSVRC2012-val-00012475.png,0.0,-0.87413746,2.0774748,-2.087105
convnext_large,1,186,NaN,bird,bird,0,0186_sty_dnn_0_bird_00_bird-1941-ILSVRC2012-val-00042829.png,00_bird-1941-ILSVRC2012-val-00042829.png,1.0,1.5852236,0.7974618,0.5570317
convnext_large,1,187,NaN,dog,bird,0,0187_sty_dnn_0_bird_00_bird-1971-ILSVRC2012-val-00023024.png,00_bird-1971-ILSVRC2012-val-00023024.png,0.0,-0.10684784,1.0524485,-0.8197464
convnext_large,1,188,NaN,clock,bird,0,0188_sty_dnn_0_bird_00_bird-2011-ILSVRC2012-val-00008842.png,00_bird-2011-ILSVRC2012-val-00008842.png,0.0,0.3300997,1.5645796,-0.8729091
convnext_large,1,189,NaN,bottle,bird,0,0189_sty_dnn_0_bird_00_bird-2082-ILSVRC2012-val-00036457.png,00_bird-2082-ILSVRC2012-val-00036457.png,0.0,0.50801724,1.9056342,-0.9882644
convnext_large,1,190,NaN,clock,bird,0,0190_sty_dnn_0_bird_00_bird-2118-ILSVRC2012-val-00021926.png,00_bird-2118-ILSVRC2012-val-00021926.png,0.0,-0.02885638,1.1237259,-0.81499875
convnext_large,1,191,NaN,boat,bird,0,0191_sty_dnn_0_bird_00_bird-2144-ILSVRC2012-val-00044377.png,00_bird-2144-ILSVRC2012-val-00044377.png,0.0,0.08041734,1.2825885,-0.8500633
convnext_large,1,192,NaN,boat,bird,0,0192_sty_dnn_0_bird_00_bird-2178-ILSVRC2012-val-00026510.png,00_bird-2178-ILSVRC2012-val-00026510.png,0.0,0.043472894,1.4152704,-0.97000736
convnext_large,1,193,NaN,car,bird,0,0193_sty_dnn_0_bird_00_bird-2184-ILSVRC2012-val-00034910.png,00_bird-2184-ILSVRC2012-val-00034910.png,0.0,-0.13557453,1.1792461,-0.9297186
convnext_large,1,194,NaN,knife,bird,0,0194_sty_dnn_0_bird_00_bird-2221-ILSVRC2012-val-00014977.png,00_bird-2221-ILSVRC2012-val-00014977.png,0.0,-0.07870451,0.6709981,-0.53011984
convnext_large,1,195,NaN,keyboard,bird,0,0195_sty_dnn_0_bird_00_bird-2222-ILSVRC2012-val-00015392.png,00_bird-2222-ILSVRC2012-val-00015392.png,0.0,0.542993,1.3734931,-0.58725226
convnext_large,1,196,NaN,cat,bird,0,0196_sty_dnn_0_bird_00_bird-2248-ILSVRC2012-val-00044992.png,00_bird-2248-ILSVRC2012-val-00044992.png,0.0,-0.002932273,1.0767679,-0.7634634
convnext_large,1,197,NaN,car,bird,0,0197_sty_dnn_0_bird_00_bird-2322-ILSVRC2012-val-00023492.png,00_bird-2322-ILSVRC2012-val-00023492.png,0.0,0.3424052,0.41404676,-0.050658237
convnext_large,1,198,NaN,cat,bird,0,0198_sty_dnn_0_bird_00_bird-2405-ILSVRC2012-val-00007988.png,00_bird-2405-ILSVRC2012-val-00007988.png,0.0,0.8008061,0.8552447,-0.038493898
convnext_large,1,199,NaN,cat,bird,0,0199_sty_dnn_0_bird_00_bird-2410-ILSVRC2012-val-00010355.png,00_bird-2410-ILSVRC2012-val-00010355.png,0.0,-0.003011149,0.9173767,-0.6508125
convnext_large,1,200,NaN,cat,bird,0,0200_sty_dnn_0_bird_00_bird-2433-ILSVRC2012-val-00028670.png,00_bird-2433-ILSVRC2012-val-00028670.png,0.0,-0.25692338,0.40238175,-0.4661991
convnext_large,1,201,NaN,cat,boat,0,0201_sty_dnn_0_boat_00_boat-0005-ILSVRC2012-val-00004909.png,00_boat-0005-ILSVRC2012-val-00004909.png,0.0,0.27941683,0.71156335,-0.30557373
convnext_large,1,202,NaN,boat,boat,0,0202_sty_dnn_0_boat_00_boat-0011-ILSVRC2012-val-00011563.png,00_boat-0011-ILSVRC2012-val-00011563.png,1.0,1.9696901,0.4248789,1.0923465
convnext_large,1,203,NaN,boat,boat,0,0203_sty_dnn_0_boat_00_boat-0026-ILSVRC2012-val-00026341.png,00_boat-0026-ILSVRC2012-val-00026341.png,1.0,0.730626,0.66669476,0.045206204
convnext_large,1,204,NaN,boat,boat,0,0204_sty_dnn_0_boat_00_boat-0033-ILSVRC2012-val-00030824.png,00_boat-0033-ILSVRC2012-val-00030824.png,1.0,1.6964216,1.238735,0.32363334
convnext_large,1,205,NaN,cat,boat,0,0205_sty_dnn_0_boat_00_boat-0036-ILSVRC2012-val-00032433.png,00_boat-0036-ILSVRC2012-val-00032433.png,0.0,0.19448721,1.5327133,-0.94626874
convnext_large,1,206,NaN,boat,boat,0,0206_sty_dnn_0_boat_00_boat-0039-ILSVRC2012-val-00033883.png,00_boat-0039-ILSVRC2012-val-00033883.png,1.0,2.9331386,0.36458805,1.8162396
convnext_large,1,207,NaN,bear,boat,0,0207_sty_dnn_0_boat_00_boat-0042-ILSVRC2012-val-00039945.png,00_boat-0042-ILSVRC2012-val-00039945.png,0.0,1.2259141,1.4873817,-0.1848855
convnext_large,1,208,NaN,boat,boat,0,0208_sty_dnn_0_boat_00_boat-0044-ILSVRC2012-val-00041227.png,00_boat-0044-ILSVRC2012-val-00041227.png,1.0,3.0952578,1.2130268,1.3309383
convnext_large,1,209,NaN,bicycle,boat,0,0209_sty_dnn_0_boat_00_boat-0048-ILSVRC2012-val-00046387.png,00_boat-0048-ILSVRC2012-val-00046387.png,0.0,0.41132998,2.5936115,-1.5431061
convnext_large,1,210,NaN,elephant,boat,0,0210_sty_dnn_0_boat_00_boat-0053-ILSVRC2012-val-00005918.png,00_boat-0053-ILSVRC2012-val-00005918.png,0.0,0.42368874,1.6754749,-0.88514644
convnext_large,1,211,NaN,boat,boat,0,0211_sty_dnn_0_boat_00_boat-0061-ILSVRC2012-val-00011292.png,00_boat-0061-ILSVRC2012-val-00011292.png,1.0,1.0879703,0.79636705,0.20619461
convnext_large,1,212,NaN,boat,boat,0,0212_sty_dnn_0_boat_00_boat-0064-ILSVRC2012-val-00013366.png,00_boat-0064-ILSVRC2012-val-00013366.png,1.0,1.5616977,0.98066217,0.4108542
convnext_large,1,213,NaN,boat,boat,0,0213_sty_dnn_0_boat_00_boat-0066-ILSVRC2012-val-00013961.png,00_boat-0066-ILSVRC2012-val-00013961.png,1.0,1.5438762,0.9385433,0.42803496
convnext_large,1,214,NaN,dog,boat,0,0214_sty_dnn_0_boat_00_boat-0070-ILSVRC2012-val-00017026.png,00_boat-0070-ILSVRC2012-val-00017026.png,0.0,0.26261148,0.5607335,-0.2108041
convnext_large,1,215,NaN,clock,boat,0,0215_sty_dnn_0_boat_00_boat-0073-ILSVRC2012-val-00018158.png,00_boat-0073-ILSVRC2012-val-00018158.png,0.0,1.5223945,1.8638171,-0.2414222
convnext_large,1,216,NaN,knife,boat,0,0216_sty_dnn_0_boat_00_boat-0076-ILSVRC2012-val-00020486.png,00_boat-0076-ILSVRC2012-val-00020486.png,0.0,-0.6515667,1.6760502,-1.6458738
convnext_large,1,217,NaN,boat,boat,0,0217_sty_dnn_0_boat_00_boat-0077-ILSVRC2012-val-00021948.png,00_boat-0077-ILSVRC2012-val-00021948.png,1.0,3.4309685,1.0404769,1.6903328
convnext_large,1,218,NaN,chair,boat,0,0218_sty_dnn_0_boat_00_boat-0079-ILSVRC2012-val-00025681.png,00_boat-0079-ILSVRC2012-val-00025681.png,0.0,-0.3607289,0.7859129,-0.81079817
convnext_large,1,219,NaN,boat,boat,0,0219_sty_dnn_0_boat_00_boat-0082-ILSVRC2012-val-00027612.png,00_boat-0082-ILSVRC2012-val-00027612.png,1.0,0.91283846,0.5729954,0.24030532
convnext_large,1,220,NaN,oven,boat,0,0220_sty_dnn_0_boat_00_boat-0083-ILSVRC2012-val-00034455.png,00_boat-0083-ILSVRC2012-val-00034455.png,0.0,-0.5111141,0.9944885,-1.0646218
convnext_large,1,221,NaN,boat,boat,0,0221_sty_dnn_0_boat_00_boat-0086-ILSVRC2012-val-00039559.png,00_boat-0086-ILSVRC2012-val-00039559.png,1.0,3.1371317,0.6556967,1.7546396
convnext_large,1,222,NaN,keyboard,boat,0,0222_sty_dnn_0_boat_00_boat-0098-ILSVRC2012-val-00047961.png,00_boat-0098-ILSVRC2012-val-00047961.png,0.0,0.48030195,3.1845386,-1.9121841
convnext_large,1,223,NaN,chair,boat,0,0223_sty_dnn_0_boat_00_boat-0100-ILSVRC2012-val-00048371.png,00_boat-0100-ILSVRC2012-val-00048371.png,0.0,-0.31740576,1.2529557,-1.1104132
convnext_large,1,224,NaN,keyboard,boat,0,0224_sty_dnn_0_boat_00_boat-0103-ILSVRC2012-val-00002308.png,00_boat-0103-ILSVRC2012-val-00002308.png,0.0,0.4901368,3.5460436,-2.1608524
convnext_large,1,225,NaN,boat,boat,0,0225_sty_dnn_0_boat_00_boat-0107-ILSVRC2012-val-00004492.png,00_boat-0107-ILSVRC2012-val-00004492.png,1.0,2.5326505,1.1856829,0.9524499
convnext_large,1,226,NaN,boat,boat,0,0226_sty_dnn_0_boat_00_boat-0111-ILSVRC2012-val-00009680.png,00_boat-0111-ILSVRC2012-val-00009680.png,1.0,2.3408988,1.1575737,0.83673716
convnext_large,1,227,NaN,boat,boat,0,0227_sty_dnn_0_boat_00_boat-0121-ILSVRC2012-val-00016970.png,00_boat-0121-ILSVRC2012-val-00016970.png,1.0,1.6914221,0.6526501,0.7345227
convnext_large,1,228,NaN,boat,boat,0,0228_sty_dnn_0_boat_00_boat-0129-ILSVRC2012-val-00027504.png,00_boat-0129-ILSVRC2012-val-00027504.png,1.0,2.9367435,0.93817323,1.4132025
convnext_large,1,229,NaN,boat,boat,0,0229_sty_dnn_0_boat_00_boat-0137-ILSVRC2012-val-00035374.png,00_boat-0137-ILSVRC2012-val-00035374.png,1.0,1.6006607,1.5617228,0.027533272
convnext_large,1,230,NaN,oven,boat,0,0230_sty_dnn_0_boat_00_boat-0142-ILSVRC2012-val-00040889.png,00_boat-0142-ILSVRC2012-val-00040889.png,0.0,0.70764506,2.562478,-1.311565
convnext_large,1,231,NaN,boat,boat,0,0231_sty_dnn_0_boat_00_boat-0153-ILSVRC2012-val-00002696.png,00_boat-0153-ILSVRC2012-val-00002696.png,1.0,1.8435522,0.6737431,0.82717997
convnext_large,1,232,NaN,boat,boat,0,0232_sty_dnn_0_boat_00_boat-0160-ILSVRC2012-val-00008630.png,00_boat-0160-ILSVRC2012-val-00008630.png,1.0,2.1456056,0.8156214,0.94044083
convnext_large,1,233,NaN,boat,boat,0,0233_sty_dnn_0_boat_00_boat-0165-ILSVRC2012-val-00014242.png,00_boat-0165-ILSVRC2012-val-00014242.png,1.0,2.716286,1.5780717,0.804839
convnext_large,1,234,NaN,boat,boat,0,0234_sty_dnn_0_boat_00_boat-0169-ILSVRC2012-val-00019970.png,00_boat-0169-ILSVRC2012-val-00019970.png,1.0,0.88572454,0.88550824,0.00015295092
convnext_large,1,235,NaN,boat,boat,0,0235_sty_dnn_0_boat_00_boat-0170-ILSVRC2012-val-00020353.png,00_boat-0170-ILSVRC2012-val-00020353.png,1.0,2.7747943,0.55083776,1.5725749
convnext_large,1,236,NaN,bicycle,boat,0,0236_sty_dnn_0_boat_00_boat-0172-ILSVRC2012-val-00020894.png,00_boat-0172-ILSVRC2012-val-00020894.png,0.0,-0.020623207,0.69700706,-0.5074412
convnext_large,1,237,NaN,boat,boat,0,0237_sty_dnn_0_boat_00_boat-0179-ILSVRC2012-val-00026763.png,00_boat-0179-ILSVRC2012-val-00026763.png,1.0,1.8467417,0.8801442,0.68348765
convnext_large,1,238,NaN,cat,boat,0,0238_sty_dnn_0_boat_00_boat-0181-ILSVRC2012-val-00031072.png,00_boat-0181-ILSVRC2012-val-00031072.png,0.0,0.07120979,1.3499498,-0.9042058
convnext_large,1,239,NaN,boat,boat,0,0239_sty_dnn_0_boat_00_boat-0195-ILSVRC2012-val-00042203.png,00_boat-0195-ILSVRC2012-val-00042203.png,1.0,2.2954314,0.5570571,1.2292162
convnext_large,1,240,NaN,bicycle,boat,0,0240_sty_dnn_0_boat_00_boat-0196-ILSVRC2012-val-00042675.png,00_boat-0196-ILSVRC2012-val-00042675.png,0.0,0.99550277,1.4580806,-0.32709196
convnext_large,1,241,NaN,boat,boat,0,0241_sty_dnn_0_boat_00_boat-0215-ILSVRC2012-val-00013403.png,00_boat-0215-ILSVRC2012-val-00013403.png,1.0,0.5775164,0.57725525,0.00018464535
convnext_large,1,242,NaN,boat,boat,0,0242_sty_dnn_0_boat_00_boat-0217-ILSVRC2012-val-00015089.png,00_boat-0217-ILSVRC2012-val-00015089.png,1.0,0.9846446,0.6569859,0.2316897
convnext_large,1,243,NaN,bottle,boat,0,0243_sty_dnn_0_boat_00_boat-0218-ILSVRC2012-val-00015121.png,00_boat-0218-ILSVRC2012-val-00015121.png,0.0,-0.59841055,1.2779444,-1.3267833
convnext_large,1,244,NaN,cat,boat,0,0244_sty_dnn_0_boat_00_boat-0222-ILSVRC2012-val-00019246.png,00_boat-0222-ILSVRC2012-val-00019246.png,0.0,0.44003072,1.2784384,-0.59284383
convnext_large,1,245,NaN,oven,boat,0,0245_sty_dnn_0_boat_00_boat-0223-ILSVRC2012-val-00020544.png,00_boat-0223-ILSVRC2012-val-00020544.png,0.0,-0.08805783,1.7284714,-1.2844802
convnext_large,1,246,NaN,bicycle,boat,0,0246_sty_dnn_0_boat_00_boat-0225-ILSVRC2012-val-00022075.png,00_boat-0225-ILSVRC2012-val-00022075.png,0.0,-0.76471233,1.2985221,-1.458927
convnext_large,1,247,NaN,boat,boat,0,0247_sty_dnn_0_boat_00_boat-0235-ILSVRC2012-val-00032371.png,00_boat-0235-ILSVRC2012-val-00032371.png,1.0,1.9713246,0.8777892,0.77324635
convnext_large,1,248,NaN,clock,boat,0,0248_sty_dnn_0_boat_00_boat-0236-ILSVRC2012-val-00032584.png,00_boat-0236-ILSVRC2012-val-00032584.png,0.0,-0.43721837,2.5711098,-2.1272094
convnext_large,1,249,NaN,airplane,boat,0,0249_sty_dnn_0_boat_00_boat-0243-ILSVRC2012-val-00039131.png,00_boat-0243-ILSVRC2012-val-00039131.png,0.0,0.4145666,2.9109614,-1.7652178
convnext_large,1,250,NaN,boat,boat,0,0250_sty_dnn_0_boat_00_boat-0244-ILSVRC2012-val-00040974.png,00_boat-0244-ILSVRC2012-val-00040974.png,1.0,2.6445336,0.7810293,1.3176966
convnext_large,1,251,NaN,oven,bottle,0,0251_sty_dnn_0_bottle_00_bottle-0002-ILSVRC2012-val-00002968.png,00_bottle-0002-ILSVRC2012-val-00002968.png,0.0,0.3083248,2.392323,-1.4736093
convnext_large,1,252,NaN,bottle,bottle,0,0252_sty_dnn_0_bottle_00_bottle-0003-ILSVRC2012-val-00003622.png,00_bottle-0003-ILSVRC2012-val-00003622.png,1.0,2.6043243,0.858459,1.2345133
convnext_large,1,253,NaN,bottle,bottle,0,0253_sty_dnn_0_bottle_00_bottle-0005-ILSVRC2012-val-00004521.png,00_bottle-0005-ILSVRC2012-val-00004521.png,1.0,1.3097095,0.9529927,0.25223693
convnext_large,1,254,NaN,bottle,bottle,0,0254_sty_dnn_0_bottle_00_bottle-0006-ILSVRC2012-val-00004888.png,00_bottle-0006-ILSVRC2012-val-00004888.png,1.0,3.356666,2.217187,0.80573344
convnext_large,1,255,NaN,bottle,bottle,0,0255_sty_dnn_0_bottle_00_bottle-0011-ILSVRC2012-val-00009225.png,00_bottle-0011-ILSVRC2012-val-00009225.png,1.0,3.3951008,0.9534915,1.7264786
convnext_large,1,256,NaN,clock,bottle,0,0256_sty_dnn_0_bottle_00_bottle-0022-ILSVRC2012-val-00022396.png,00_bottle-0022-ILSVRC2012-val-00022396.png,0.0,0.37140226,0.98200816,-0.4317636
convnext_large,1,257,NaN,bottle,bottle,0,0257_sty_dnn_0_bottle_00_bottle-0030-ILSVRC2012-val-00032921.png,00_bottle-0030-ILSVRC2012-val-00032921.png,1.0,3.8833694,0.26114893,2.5612967
convnext_large,1,258,NaN,cat,bottle,0,0258_sty_dnn_0_bottle_00_bottle-0031-ILSVRC2012-val-00033822.png,00_bottle-0031-ILSVRC2012-val-00033822.png,0.0,-0.3600207,2.325847,-1.8991952
convnext_large,1,259,NaN,elephant,bottle,0,0259_sty_dnn_0_bottle_00_bottle-0032-ILSVRC2012-val-00034979.png,00_bottle-0032-ILSVRC2012-val-00034979.png,0.0,1.0396742,1.366786,-0.231303
convnext_large,1,260,NaN,clock,bottle,0,0260_sty_dnn_0_bottle_00_bottle-0037-ILSVRC2012-val-00036359.png,00_bottle-0037-ILSVRC2012-val-00036359.png,0.0,1.24422,1.8441726,-0.42423055
convnext_large,1,261,NaN,bottle,bottle,0,0261_sty_dnn_0_bottle_00_bottle-0039-ILSVRC2012-val-00038570.png,00_bottle-0039-ILSVRC2012-val-00038570.png,1.0,3.1283793,0.336752,1.9739788
convnext_large,1,262,NaN,chair,bottle,0,0262_sty_dnn_0_bottle_00_bottle-0047-ILSVRC2012-val-00044787.png,00_bottle-0047-ILSVRC2012-val-00044787.png,0.0,-0.23616023,1.0390825,-0.90173286
convnext_large,1,263,NaN,bottle,bottle,0,0263_sty_dnn_0_bottle_00_bottle-0052-ILSVRC2012-val-00000252.png,00_bottle-0052-ILSVRC2012-val-00000252.png,1.0,0.99476403,0.655978,0.23955789
convnext_large,1,264,NaN,bottle,bottle,0,0264_sty_dnn_0_bottle_00_bottle-0055-ILSVRC2012-val-00003066.png,00_bottle-0055-ILSVRC2012-val-00003066.png,1.0,3.1927807,1.3891165,1.2753832
convnext_large,1,265,NaN,bottle,bottle,0,0265_sty_dnn_0_bottle_00_bottle-0057-ILSVRC2012-val-00005967.png,00_bottle-0057-ILSVRC2012-val-00005967.png,1.0,2.8366692,1.5758082,0.8915634
convnext_large,1,266,NaN,knife,bottle,0,0266_sty_dnn_0_bottle_00_bottle-0059-ILSVRC2012-val-00008984.png,00_bottle-0059-ILSVRC2012-val-00008984.png,0.0,0.57957745,1.1409572,-0.39695546
convnext_large,1,267,NaN,cat,bottle,0,0267_sty_dnn_0_bottle_00_bottle-0066-ILSVRC2012-val-00016336.png,00_bottle-0066-ILSVRC2012-val-00016336.png,0.0,1.3146247,1.8028244,-0.34520933
convnext_large,1,268,NaN,bottle,bottle,0,0268_sty_dnn_0_bottle_00_bottle-0085-ILSVRC2012-val-00036422.png,00_bottle-0085-ILSVRC2012-val-00036422.png,1.0,3.7537498,0.4198077,2.357453
convnext_large,1,269,NaN,bottle,bottle,0,0269_sty_dnn_0_bottle_00_bottle-0086-ILSVRC2012-val-00036795.png,00_bottle-0086-ILSVRC2012-val-00036795.png,1.0,1.44829,0.33656445,0.7861087
convnext_large,1,270,NaN,boat,bottle,0,0270_sty_dnn_0_bottle_00_bottle-0107-ILSVRC2012-val-00008313.png,00_bottle-0107-ILSVRC2012-val-00008313.png,0.0,1.3039697,2.517675,-0.8582192
convnext_large,1,271,NaN,boat,bottle,0,0271_sty_dnn_0_bottle_00_bottle-0108-ILSVRC2012-val-00008437.png,00_bottle-0108-ILSVRC2012-val-00008437.png,0.0,0.36893567,1.3912346,-0.7228745
convnext_large,1,272,NaN,bottle,bottle,0,0272_sty_dnn_0_bottle_00_bottle-0126-ILSVRC2012-val-00022079.png,00_bottle-0126-ILSVRC2012-val-00022079.png,1.0,2.8380075,1.7274531,0.7852805
convnext_large,1,273,NaN,bottle,bottle,0,0273_sty_dnn_0_bottle_00_bottle-0127-ILSVRC2012-val-00023580.png,00_bottle-0127-ILSVRC2012-val-00023580.png,1.0,2.8467848,1.2839054,1.1051227
convnext_large,1,274,NaN,boat,bottle,0,0274_sty_dnn_0_bottle_00_bottle-0138-ILSVRC2012-val-00032559.png,00_bottle-0138-ILSVRC2012-val-00032559.png,0.0,0.75893605,3.0183747,-1.5976644
convnext_large,1,275,NaN,cat,bottle,0,0275_sty_dnn_0_bottle_00_bottle-0153-ILSVRC2012-val-00003318.png,00_bottle-0153-ILSVRC2012-val-00003318.png,0.0,0.6501408,1.2497169,-0.4239643
convnext_large,1,276,NaN,chair,bottle,0,0276_sty_dnn_0_bottle_00_bottle-0154-ILSVRC2012-val-00003340.png,00_bottle-0154-ILSVRC2012-val-00003340.png,0.0,0.4025186,1.1234474,-0.5097737
convnext_large,1,277,NaN,knife,bottle,0,0277_sty_dnn_0_bottle_00_bottle-0170-ILSVRC2012-val-00020948.png,00_bottle-0170-ILSVRC2012-val-00020948.png,0.0,1.6021305,1.7367053,-0.09515873
convnext_large,1,278,NaN,bottle,bottle,0,0278_sty_dnn_0_bottle_00_bottle-0172-ILSVRC2012-val-00021707.png,00_bottle-0172-ILSVRC2012-val-00021707.png,1.0,1.3696138,1.0852185,0.20109779
convnext_large,1,279,NaN,knife,bottle,0,0279_sty_dnn_0_bottle_00_bottle-0180-ILSVRC2012-val-00027613.png,00_bottle-0180-ILSVRC2012-val-00027613.png,0.0,0.5437288,1.5461464,-0.7088163
convnext_large,1,280,NaN,bear,bottle,0,0280_sty_dnn_0_bottle_00_bottle-0189-ILSVRC2012-val-00040070.png,00_bottle-0189-ILSVRC2012-val-00040070.png,0.0,0.9382059,1.8815998,-0.6670802
convnext_large,1,281,NaN,bottle,bottle,0,0281_sty_dnn_0_bottle_00_bottle-0195-ILSVRC2012-val-00045644.png,00_bottle-0195-ILSVRC2012-val-00045644.png,1.0,1.8420639,1.1918347,0.4597815
convnext_large,1,282,NaN,bottle,bottle,0,0282_sty_dnn_0_bottle_00_bottle-0204-ILSVRC2012-val-00002597.png,00_bottle-0204-ILSVRC2012-val-00002597.png,1.0,2.3038037,0.9102101,0.98541945
convnext_large,1,283,NaN,cat,bottle,0,0283_sty_dnn_0_bottle_00_bottle-0205-ILSVRC2012-val-00003263.png,00_bottle-0205-ILSVRC2012-val-00003263.png,0.0,0.36453652,0.8615355,-0.35143134
convnext_large,1,284,NaN,cat,bottle,0,0284_sty_dnn_0_bottle_00_bottle-0214-ILSVRC2012-val-00012572.png,00_bottle-0214-ILSVRC2012-val-00012572.png,0.0,0.32886538,1.3499627,-0.72202486
convnext_large,1,285,NaN,bottle,bottle,0,0285_sty_dnn_0_bottle_00_bottle-0216-ILSVRC2012-val-00013262.png,00_bottle-0216-ILSVRC2012-val-00013262.png,1.0,2.5531528,0.7688072,1.2617229
convnext_large,1,286,NaN,bottle,bottle,0,0286_sty_dnn_0_bottle_00_bottle-0218-ILSVRC2012-val-00013667.png,00_bottle-0218-ILSVRC2012-val-00013667.png,1.0,3.292713,1.606186,1.1925546
convnext_large,1,287,NaN,bottle,bottle,0,0287_sty_dnn_0_bottle_00_bottle-0220-ILSVRC2012-val-00014146.png,00_bottle-0220-ILSVRC2012-val-00014146.png,1.0,1.2409551,1.1512762,0.06341255
convnext_large,1,288,NaN,airplane,bottle,0,0288_sty_dnn_0_bottle_00_bottle-0222-ILSVRC2012-val-00018657.png,00_bottle-0222-ILSVRC2012-val-00018657.png,0.0,1.0452703,1.7557003,-0.5023499
convnext_large,1,289,NaN,bottle,bottle,0,0289_sty_dnn_0_bottle_00_bottle-0224-ILSVRC2012-val-00020102.png,00_bottle-0224-ILSVRC2012-val-00020102.png,1.0,0.7732633,0.6743422,0.06994776
convnext_large,1,290,NaN,knife,bottle,0,0290_sty_dnn_0_bottle_00_bottle-0233-ILSVRC2012-val-00031504.png,00_bottle-0233-ILSVRC2012-val-00031504.png,0.0,1.0889304,1.4108651,-0.22764221
convnext_large,1,291,NaN,bottle,bottle,0,0291_sty_dnn_0_bottle_00_bottle-0243-ILSVRC2012-val-00040157.png,00_bottle-0243-ILSVRC2012-val-00040157.png,1.0,1.4312838,0.44040847,0.7006547
convnext_large,1,292,NaN,bottle,bottle,0,0292_sty_dnn_0_bottle_00_bottle-0254-ILSVRC2012-val-00005933.png,00_bottle-0254-ILSVRC2012-val-00005933.png,1.0,2.0993516,0.7488553,0.9549451
convnext_large,1,293,NaN,bottle,bottle,0,0293_sty_dnn_0_bottle_00_bottle-0283-ILSVRC2012-val-00036864.png,00_bottle-0283-ILSVRC2012-val-00036864.png,1.0,0.9276647,0.1093329,0.578648
convnext_large,1,294,NaN,bottle,bottle,0,0294_sty_dnn_0_bottle_00_bottle-0294-ILSVRC2012-val-00044222.png,00_bottle-0294-ILSVRC2012-val-00044222.png,1.0,1.7026802,1.6738517,0.02038483
convnext_large,1,295,NaN,cat,bottle,0,0295_sty_dnn_0_bottle_00_bottle-0296-ILSVRC2012-val-00044906.png,00_bottle-0296-ILSVRC2012-val-00044906.png,0.0,1.2090758,2.943601,-1.2264944
convnext_large,1,296,NaN,bottle,bottle,0,0296_sty_dnn_0_bottle_00_bottle-0325-ILSVRC2012-val-00027316.png,00_bottle-0325-ILSVRC2012-val-00027316.png,1.0,2.4854953,0.6085524,1.3271991
convnext_large,1,297,NaN,bottle,bottle,0,0297_sty_dnn_0_bottle_00_bottle-0331-ILSVRC2012-val-00033990.png,00_bottle-0331-ILSVRC2012-val-00033990.png,1.0,2.7355206,0.631834,1.4875311
convnext_large,1,298,NaN,bottle,bottle,0,0298_sty_dnn_0_bottle_00_bottle-0334-ILSVRC2012-val-00036776.png,00_bottle-0334-ILSVRC2012-val-00036776.png,1.0,2.607401,1.2815564,0.93751365
convnext_large,1,299,NaN,bottle,bottle,0,0299_sty_dnn_0_bottle_00_bottle-0345-ILSVRC2012-val-00044614.png,00_bottle-0345-ILSVRC2012-val-00044614.png,1.0,1.9400685,1.5428092,0.2809047
convnext_large,1,300,NaN,bottle,bottle,0,0300_sty_dnn_0_bottle_00_bottle-0347-ILSVRC2012-val-00048539.png,00_bottle-0347-ILSVRC2012-val-00048539.png,1.0,2.7946074,0.81517494,1.3996701
convnext_large,1,301,NaN,knife,car,0,0301_sty_dnn_0_car_00_car-0001-ILSVRC2012-val-00000175.png,00_car-0001-ILSVRC2012-val-00000175.png,0.0,-0.088243306,0.89218205,-0.69326544
convnext_large,1,302,NaN,car,car,0,0302_sty_dnn_0_car_00_car-0004-ILSVRC2012-val-00006084.png,00_car-0004-ILSVRC2012-val-00006084.png,1.0,3.086394,1.6865149,0.9898641
convnext_large,1,303,NaN,car,car,0,0303_sty_dnn_0_car_00_car-0005-ILSVRC2012-val-00006220.png,00_car-0005-ILSVRC2012-val-00006220.png,1.0,4.4453826,2.6467075,1.2718554
convnext_large,1,304,NaN,car,car,0,0304_sty_dnn_0_car_00_car-0010-ILSVRC2012-val-00012600.png,00_car-0010-ILSVRC2012-val-00012600.png,1.0,2.3875964,0.4412799,1.3762536
convnext_large,1,305,NaN,cat,car,0,0305_sty_dnn_0_car_00_car-0012-ILSVRC2012-val-00014447.png,00_car-0012-ILSVRC2012-val-00014447.png,0.0,0.45350352,1.0614669,-0.42989507
convnext_large,1,306,NaN,keyboard,car,0,0306_sty_dnn_0_car_00_car-0013-ILSVRC2012-val-00014541.png,00_car-0013-ILSVRC2012-val-00014541.png,0.0,0.11457246,2.7787035,-1.8838251
convnext_large,1,307,NaN,car,car,0,0307_sty_dnn_0_car_00_car-0018-ILSVRC2012-val-00018138.png,00_car-0018-ILSVRC2012-val-00018138.png,1.0,5.0321794,1.7322217,2.3334227
convnext_large,1,308,NaN,car,car,0,0308_sty_dnn_0_car_00_car-0019-ILSVRC2012-val-00018335.png,00_car-0019-ILSVRC2012-val-00018335.png,1.0,1.9433762,1.1952267,0.5290216
convnext_large,1,309,NaN,car,car,0,0309_sty_dnn_0_car_00_car-0021-ILSVRC2012-val-00019695.png,00_car-0021-ILSVRC2012-val-00019695.png,1.0,4.8229704,1.2413318,2.5326009
convnext_large,1,310,NaN,bicycle,car,0,0310_sty_dnn_0_car_00_car-0024-ILSVRC2012-val-00023221.png,00_car-0024-ILSVRC2012-val-00023221.png,0.0,0.3661841,1.0417279,-0.4776816
convnext_large,1,311,NaN,car,car,0,0311_sty_dnn_0_car_00_car-0025-ILSVRC2012-val-00023474.png,00_car-0025-ILSVRC2012-val-00023474.png,1.0,4.007227,1.3060188,1.9100426
convnext_large,1,312,NaN,car,car,0,0312_sty_dnn_0_car_00_car-0028-ILSVRC2012-val-00027049.png,00_car-0028-ILSVRC2012-val-00027049.png,1.0,2.4376757,1.3777386,0.7494887
convnext_large,1,313,NaN,car,car,0,0313_sty_dnn_0_car_00_car-0029-ILSVRC2012-val-00027081.png,00_car-0029-ILSVRC2012-val-00027081.png,1.0,1.7492291,0.6832462,0.7537637
convnext_large,1,314,NaN,car,car,0,0314_sty_dnn_0_car_00_car-0030-ILSVRC2012-val-00029057.png,00_car-0030-ILSVRC2012-val-00029057.png,1.0,5.0866075,2.8064866,1.612289
convnext_large,1,315,NaN,car,car,0,0315_sty_dnn_0_car_00_car-0032-ILSVRC2012-val-00030834.png,00_car-0032-ILSVRC2012-val-00030834.png,1.0,2.1224325,0.718664,0.99261427
convnext_large,1,316,NaN,car,car,0,0316_sty_dnn_0_car_00_car-0041-ILSVRC2012-val-00040706.png,00_car-0041-ILSVRC2012-val-00040706.png,1.0,5.262886,1.0147545,3.003883
convnext_large,1,317,NaN,car,car,0,0317_sty_dnn_0_car_00_car-0045-ILSVRC2012-val-00042416.png,00_car-0045-ILSVRC2012-val-00042416.png,1.0,3.1741402,1.4834337,1.19551
convnext_large,1,318,NaN,cat,car,0,0318_sty_dnn_0_car_00_car-0050-ILSVRC2012-val-00048556.png,00_car-0050-ILSVRC2012-val-00048556.png,0.0,1.1472896,1.7103132,-0.39811778
convnext_large,1,319,NaN,keyboard,car,0,0319_sty_dnn_0_car_00_car-0052-ILSVRC2012-val-00004387.png,00_car-0052-ILSVRC2012-val-00004387.png,0.0,0.019489586,1.0107758,-0.7009452
convnext_large,1,320,NaN,bear,car,0,0320_sty_dnn_0_car_00_car-0053-ILSVRC2012-val-00004685.png,00_car-0053-ILSVRC2012-val-00004685.png,0.0,0.36979493,0.61632085,-0.17432015
convnext_large,1,321,NaN,bottle,car,0,0321_sty_dnn_0_car_00_car-0054-ILSVRC2012-val-00005500.png,00_car-0054-ILSVRC2012-val-00005500.png,0.0,-0.050070662,1.674614,-1.2195362
convnext_large,1,322,NaN,car,car,0,0322_sty_dnn_0_car_00_car-0058-ILSVRC2012-val-00010676.png,00_car-0058-ILSVRC2012-val-00010676.png,1.0,2.5349581,2.2174437,0.2245166
convnext_large,1,323,NaN,car,car,0,0323_sty_dnn_0_car_00_car-0059-ILSVRC2012-val-00014010.png,00_car-0059-ILSVRC2012-val-00014010.png,1.0,2.255026,1.7051346,0.388832
convnext_large,1,324,NaN,car,car,0,0324_sty_dnn_0_car_00_car-0060-ILSVRC2012-val-00014208.png,00_car-0060-ILSVRC2012-val-00014208.png,1.0,4.0232244,2.5823784,1.018832
convnext_large,1,325,NaN,car,car,0,0325_sty_dnn_0_car_00_car-0064-ILSVRC2012-val-00016337.png,00_car-0064-ILSVRC2012-val-00016337.png,1.0,5.590065,1.9764249,2.5552294
convnext_large,1,326,NaN,car,car,0,0326_sty_dnn_0_car_00_car-0065-ILSVRC2012-val-00016613.png,00_car-0065-ILSVRC2012-val-00016613.png,1.0,5.1847043,2.2350647,2.0857103
convnext_large,1,327,NaN,car,car,0,0327_sty_dnn_0_car_00_car-0066-ILSVRC2012-val-00018249.png,00_car-0066-ILSVRC2012-val-00018249.png,1.0,3.3448288,1.057411,1.6174487
convnext_large,1,328,NaN,car,car,0,0328_sty_dnn_0_car_00_car-0067-ILSVRC2012-val-00018569.png,00_car-0067-ILSVRC2012-val-00018569.png,1.0,5.4661,0.56775564,3.4636526
convnext_large,1,329,NaN,car,car,0,0329_sty_dnn_0_car_00_car-0069-ILSVRC2012-val-00019647.png,00_car-0069-ILSVRC2012-val-00019647.png,1.0,4.56121,1.7246246,2.0057688
convnext_large,1,330,NaN,car,car,0,0330_sty_dnn_0_car_00_car-0079-ILSVRC2012-val-00025028.png,00_car-0079-ILSVRC2012-val-00025028.png,1.0,4.3679223,1.4603292,2.055979
convnext_large,1,331,NaN,car,car,0,0331_sty_dnn_0_car_00_car-0082-ILSVRC2012-val-00027293.png,00_car-0082-ILSVRC2012-val-00027293.png,1.0,2.0510147,1.205982,0.59752834
convnext_large,1,332,NaN,cat,car,0,0332_sty_dnn_0_car_00_car-0083-ILSVRC2012-val-00027508.png,00_car-0083-ILSVRC2012-val-00027508.png,0.0,1.3002993,2.76995,-1.0392
convnext_large,1,333,NaN,car,car,0,0333_sty_dnn_0_car_00_car-0086-ILSVRC2012-val-00029454.png,00_car-0086-ILSVRC2012-val-00029454.png,1.0,2.1608622,1.4489564,0.5033935
convnext_large,1,334,NaN,car,car,0,0334_sty_dnn_0_car_00_car-0087-ILSVRC2012-val-00031558.png,00_car-0087-ILSVRC2012-val-00031558.png,1.0,3.9676602,1.5975479,1.6759226
convnext_large,1,335,NaN,car,car,0,0335_sty_dnn_0_car_00_car-0091-ILSVRC2012-val-00036091.png,00_car-0091-ILSVRC2012-val-00036091.png,1.0,3.120037,1.8707471,0.8833814
convnext_large,1,336,NaN,car,car,0,0336_sty_dnn_0_car_00_car-0093-ILSVRC2012-val-00038956.png,00_car-0093-ILSVRC2012-val-00038956.png,1.0,5.57819,0.9252357,3.2901354
convnext_large,1,337,NaN,truck,car,0,0337_sty_dnn_0_car_00_car-0095-ILSVRC2012-val-00041430.png,00_car-0095-ILSVRC2012-val-00041430.png,0.0,2.2376797,2.8598258,-0.43992376
convnext_large,1,338,NaN,cat,car,0,0338_sty_dnn_0_car_00_car-0096-ILSVRC2012-val-00043824.png,00_car-0096-ILSVRC2012-val-00043824.png,0.0,0.21158922,0.8578181,-0.45695284
convnext_large,1,339,NaN,car,car,0,0339_sty_dnn_0_car_00_car-0103-ILSVRC2012-val-00003478.png,00_car-0103-ILSVRC2012-val-00003478.png,1.0,4.3745136,1.6404871,1.9332486
convnext_large,1,340,NaN,car,car,0,0340_sty_dnn_0_car_00_car-0106-ILSVRC2012-val-00004868.png,00_car-0106-ILSVRC2012-val-00004868.png,1.0,4.9878497,0.83198494,2.93864
convnext_large,1,341,NaN,car,car,0,0341_sty_dnn_0_car_00_car-0110-ILSVRC2012-val-00006285.png,00_car-0110-ILSVRC2012-val-00006285.png,1.0,5.116671,0.8410468,3.023323
convnext_large,1,342,NaN,clock,car,0,0342_sty_dnn_0_car_00_car-0111-ILSVRC2012-val-00007125.png,00_car-0111-ILSVRC2012-val-00007125.png,0.0,-1.2368332,4.4474564,-4.0193996
convnext_large,1,343,NaN,car,car,0,0343_sty_dnn_0_car_00_car-0117-ILSVRC2012-val-00010983.png,00_car-0117-ILSVRC2012-val-00010983.png,1.0,2.1334913,1.450862,0.48269176
convnext_large,1,344,NaN,car,car,0,0344_sty_dnn_0_car_00_car-0118-ILSVRC2012-val-00012327.png,00_car-0118-ILSVRC2012-val-00012327.png,1.0,3.978153,0.72744274,2.2985992
convnext_large,1,345,NaN,car,car,0,0345_sty_dnn_0_car_00_car-0121-ILSVRC2012-val-00016638.png,00_car-0121-ILSVRC2012-val-00016638.png,1.0,3.7249281,0.756863,2.0987391
convnext_large,1,346,NaN,car,car,0,0346_sty_dnn_0_car_00_car-0134-ILSVRC2012-val-00032944.png,00_car-0134-ILSVRC2012-val-00032944.png,1.0,4.296825,0.22157563,2.8816364
convnext_large,1,347,NaN,cat,car,0,0347_sty_dnn_0_car_00_car-0139-ILSVRC2012-val-00037952.png,00_car-0139-ILSVRC2012-val-00037952.png,0.0,1.4041132,3.7321453,-1.6461673
convnext_large,1,348,NaN,car,car,0,0348_sty_dnn_0_car_00_car-0145-ILSVRC2012-val-00041626.png,00_car-0145-ILSVRC2012-val-00041626.png,1.0,3.8587215,1.8728485,1.4042243
convnext_large,1,349,NaN,car,car,0,0349_sty_dnn_0_car_00_car-0146-ILSVRC2012-val-00043297.png,00_car-0146-ILSVRC2012-val-00043297.png,1.0,2.2525132,1.5334936,0.50842357
convnext_large,1,350,NaN,car,car,0,0350_sty_dnn_0_car_00_car-0149-ILSVRC2012-val-00049427.png,00_car-0149-ILSVRC2012-val-00049427.png,1.0,5.3024726,1.0317914,3.0198278
convnext_large,1,351,NaN,cat,cat,0,0351_sty_dnn_0_cat_00_cat-0005-ILSVRC2012-val-00005358.png,00_cat-0005-ILSVRC2012-val-00005358.png,1.0,3.1522284,0.76182544,1.6902701
convnext_large,1,352,NaN,cat,cat,0,0352_sty_dnn_0_cat_00_cat-0012-ILSVRC2012-val-00012377.png,00_cat-0012-ILSVRC2012-val-00012377.png,1.0,1.5714455,1.0292861,0.38336453
convnext_large,1,353,NaN,cat,cat,0,0353_sty_dnn_0_cat_00_cat-0031-ILSVRC2012-val-00030706.png,00_cat-0031-ILSVRC2012-val-00030706.png,1.0,3.690852,1.0936381,1.8365074
convnext_large,1,354,NaN,cat,cat,0,0354_sty_dnn_0_cat_00_cat-0032-ILSVRC2012-val-00033420.png,00_cat-0032-ILSVRC2012-val-00033420.png,1.0,3.7756205,0.7370783,2.1485739
convnext_large,1,355,NaN,cat,cat,0,0355_sty_dnn_0_cat_00_cat-0034-ILSVRC2012-val-00033837.png,00_cat-0034-ILSVRC2012-val-00033837.png,1.0,3.7817202,0.60985965,2.242844
convnext_large,1,356,NaN,cat,cat,0,0356_sty_dnn_0_cat_00_cat-0042-ILSVRC2012-val-00040238.png,00_cat-0042-ILSVRC2012-val-00040238.png,1.0,4.14597,1.6093426,1.7936664
convnext_large,1,357,NaN,cat,cat,0,0357_sty_dnn_0_cat_00_cat-0045-ILSVRC2012-val-00041570.png,00_cat-0045-ILSVRC2012-val-00041570.png,1.0,3.6783226,1.4699988,1.5615207
convnext_large,1,358,NaN,cat,cat,0,0358_sty_dnn_0_cat_00_cat-0050-ILSVRC2012-val-00047911.png,00_cat-0050-ILSVRC2012-val-00047911.png,1.0,2.8875246,0.66840446,1.5691549
convnext_large,1,359,NaN,cat,cat,0,0359_sty_dnn_0_cat_00_cat-0054-ILSVRC2012-val-00003295.png,00_cat-0054-ILSVRC2012-val-00003295.png,1.0,1.34758,0.91107494,0.30865568
convnext_large,1,360,NaN,cat,cat,0,0360_sty_dnn_0_cat_00_cat-0056-ILSVRC2012-val-00007676.png,00_cat-0056-ILSVRC2012-val-00007676.png,1.0,3.8646991,1.0477244,1.9919019
convnext_large,1,361,NaN,cat,cat,0,0361_sty_dnn_0_cat_00_cat-0062-ILSVRC2012-val-00013788.png,00_cat-0062-ILSVRC2012-val-00013788.png,1.0,1.6442451,0.5887102,0.7463759
convnext_large,1,362,NaN,oven,cat,0,0362_sty_dnn_0_cat_00_cat-0064-ILSVRC2012-val-00014860.png,00_cat-0064-ILSVRC2012-val-00014860.png,0.0,1.2877374,1.3487101,-0.043114204
convnext_large,1,363,NaN,cat,cat,0,0363_sty_dnn_0_cat_00_cat-0069-ILSVRC2012-val-00016399.png,00_cat-0069-ILSVRC2012-val-00016399.png,1.0,2.0649335,2.0629148,0.0014274295
convnext_large,1,364,NaN,cat,cat,0,0364_sty_dnn_0_cat_00_cat-0072-ILSVRC2012-val-00019303.png,00_cat-0072-ILSVRC2012-val-00019303.png,1.0,3.208312,1.3056889,1.3453578
convnext_large,1,365,NaN,cat,cat,0,0365_sty_dnn_0_cat_00_cat-0073-ILSVRC2012-val-00020140.png,00_cat-0073-ILSVRC2012-val-00020140.png,1.0,3.2636206,1.9853344,0.9038849
convnext_large,1,366,NaN,cat,cat,0,0366_sty_dnn_0_cat_00_cat-0082-ILSVRC2012-val-00025723.png,00_cat-0082-ILSVRC2012-val-00025723.png,1.0,2.2314866,1.3189323,0.6452733
convnext_large,1,367,NaN,cat,cat,0,0367_sty_dnn_0_cat_00_cat-0092-ILSVRC2012-val-00039621.png,00_cat-0092-ILSVRC2012-val-00039621.png,1.0,3.7797327,1.3368496,1.7273792
convnext_large,1,368,NaN,cat,cat,0,0368_sty_dnn_0_cat_00_cat-0096-ILSVRC2012-val-00045420.png,00_cat-0096-ILSVRC2012-val-00045420.png,1.0,3.057999,1.1544392,1.34602
convnext_large,1,369,NaN,cat,cat,0,0369_sty_dnn_0_cat_00_cat-0108-ILSVRC2012-val-00002967.png,00_cat-0108-ILSVRC2012-val-00002967.png,1.0,3.4834957,0.9550778,1.7878615
convnext_large,1,370,NaN,cat,cat,0,0370_sty_dnn_0_cat_00_cat-0110-ILSVRC2012-val-00004411.png,00_cat-0110-ILSVRC2012-val-00004411.png,1.0,2.742078,0.63313264,1.4912496
convnext_large,1,371,NaN,cat,cat,0,0371_sty_dnn_0_cat_00_cat-0113-ILSVRC2012-val-00007808.png,00_cat-0113-ILSVRC2012-val-00007808.png,1.0,2.8394775,0.16467524,1.8913709
convnext_large,1,372,NaN,cat,cat,0,0372_sty_dnn_0_cat_00_cat-0118-ILSVRC2012-val-00010218.png,00_cat-0118-ILSVRC2012-val-00010218.png,1.0,2.98215,1.1480265,1.2969213
convnext_large,1,373,NaN,boat,cat,0,0373_sty_dnn_0_cat_00_cat-0123-ILSVRC2012-val-00014813.png,00_cat-0123-ILSVRC2012-val-00014813.png,0.0,1.988983,2.0385146,-0.035024118
convnext_large,1,374,NaN,cat,cat,0,0374_sty_dnn_0_cat_00_cat-0133-ILSVRC2012-val-00023898.png,00_cat-0133-ILSVRC2012-val-00023898.png,1.0,3.9428911,1.592049,1.6622963
convnext_large,1,375,NaN,cat,cat,0,0375_sty_dnn_0_cat_00_cat-0137-ILSVRC2012-val-00027906.png,00_cat-0137-ILSVRC2012-val-00027906.png,1.0,2.1609743,2.0546575,0.075177334
convnext_large,1,376,NaN,cat,cat,0,0376_sty_dnn_0_cat_00_cat-0147-ILSVRC2012-val-00041347.png,00_cat-0147-ILSVRC2012-val-00041347.png,1.0,2.2511957,0.5834193,1.179296
convnext_large,1,377,NaN,cat,cat,0,0377_sty_dnn_0_cat_00_cat-0150-ILSVRC2012-val-00049996.png,00_cat-0150-ILSVRC2012-val-00049996.png,1.0,2.7262802,0.7981006,1.363429
convnext_large,1,378,NaN,cat,cat,0,0378_sty_dnn_0_cat_00_cat-0160-ILSVRC2012-val-00011528.png,00_cat-0160-ILSVRC2012-val-00011528.png,1.0,1.530797,0.631361,0.6359973
convnext_large,1,379,NaN,cat,cat,0,0379_sty_dnn_0_cat_00_cat-0162-ILSVRC2012-val-00012173.png,00_cat-0162-ILSVRC2012-val-00012173.png,1.0,4.2111783,0.9246662,2.323915
convnext_large,1,380,NaN,keyboard,cat,0,0380_sty_dnn_0_cat_00_cat-0165-ILSVRC2012-val-00017325.png,00_cat-0165-ILSVRC2012-val-00017325.png,0.0,0.027510235,0.8769422,-0.6006391
convnext_large,1,381,NaN,cat,cat,0,0381_sty_dnn_0_cat_00_cat-0169-ILSVRC2012-val-00020688.png,00_cat-0169-ILSVRC2012-val-00020688.png,1.0,2.284426,1.9678978,0.22381924
convnext_large,1,382,NaN,clock,cat,0,0382_sty_dnn_0_cat_00_cat-0185-ILSVRC2012-val-00038168.png,00_cat-0185-ILSVRC2012-val-00038168.png,0.0,1.2827629,1.7403368,-0.3235536
convnext_large,1,383,NaN,boat,cat,0,0383_sty_dnn_0_cat_00_cat-0186-ILSVRC2012-val-00039580.png,00_cat-0186-ILSVRC2012-val-00039580.png,0.0,2.3151433,2.316051,-0.0006418122
convnext_large,1,384,NaN,cat,cat,0,0384_sty_dnn_0_cat_00_cat-0189-ILSVRC2012-val-00040854.png,00_cat-0189-ILSVRC2012-val-00040854.png,1.0,2.5563314,0.93065166,1.1495292
convnext_large,1,385,NaN,cat,cat,0,0385_sty_dnn_0_cat_00_cat-0202-ILSVRC2012-val-00001496.png,00_cat-0202-ILSVRC2012-val-00001496.png,1.0,2.9716141,1.6576958,0.9290806
convnext_large,1,386,NaN,cat,cat,0,0386_sty_dnn_0_cat_00_cat-0234-ILSVRC2012-val-00028970.png,00_cat-0234-ILSVRC2012-val-00028970.png,1.0,3.3101835,0.7418636,1.8160764
convnext_large,1,387,NaN,cat,cat,0,0387_sty_dnn_0_cat_00_cat-0236-ILSVRC2012-val-00031185.png,00_cat-0236-ILSVRC2012-val-00031185.png,1.0,0.53089666,0.3374181,0.13681
convnext_large,1,388,NaN,clock,cat,0,0388_sty_dnn_0_cat_00_cat-0238-ILSVRC2012-val-00033582.png,00_cat-0238-ILSVRC2012-val-00033582.png,0.0,1.3221344,1.510274,-0.13303484
convnext_large,1,389,NaN,cat,cat,0,0389_sty_dnn_0_cat_00_cat-0242-ILSVRC2012-val-00040192.png,00_cat-0242-ILSVRC2012-val-00040192.png,1.0,3.954771,0.4446485,2.4820316
convnext_large,1,390,NaN,cat,cat,0,0390_sty_dnn_0_cat_00_cat-0243-ILSVRC2012-val-00040600.png,00_cat-0243-ILSVRC2012-val-00040600.png,1.0,2.312033,1.8795087,0.3058408
convnext_large,1,391,NaN,cat,cat,0,0391_sty_dnn_0_cat_00_cat-0247-ILSVRC2012-val-00044374.png,00_cat-0247-ILSVRC2012-val-00044374.png,1.0,3.6962812,1.9626285,1.2258776
convnext_large,1,392,NaN,cat,cat,0,0392_sty_dnn_0_cat_00_cat-0258-ILSVRC2012-val-00006112.png,00_cat-0258-ILSVRC2012-val-00006112.png,1.0,2.0628538,0.987636,0.7602938
convnext_large,1,393,NaN,clock,cat,0,0393_sty_dnn_0_cat_00_cat-0260-ILSVRC2012-val-00006612.png,00_cat-0260-ILSVRC2012-val-00006612.png,0.0,0.33762336,1.9546514,-1.1434115
convnext_large,1,394,NaN,cat,cat,0,0394_sty_dnn_0_cat_00_cat-0264-ILSVRC2012-val-00010823.png,00_cat-0264-ILSVRC2012-val-00010823.png,1.0,1.5190401,0.7119043,0.5707312
convnext_large,1,395,NaN,cat,cat,0,0395_sty_dnn_0_cat_00_cat-0270-ILSVRC2012-val-00017189.png,00_cat-0270-ILSVRC2012-val-00017189.png,1.0,3.153203,1.9470527,0.8528771
convnext_large,1,396,NaN,cat,cat,0,0396_sty_dnn_0_cat_00_cat-0274-ILSVRC2012-val-00019370.png,00_cat-0274-ILSVRC2012-val-00019370.png,1.0,2.7597072,1.0949452,1.1771646
convnext_large,1,397,NaN,cat,cat,0,0397_sty_dnn_0_cat_00_cat-0284-ILSVRC2012-val-00027069.png,00_cat-0284-ILSVRC2012-val-00027069.png,1.0,1.8127441,0.53707343,0.9020355
convnext_large,1,398,NaN,cat,cat,0,0398_sty_dnn_0_cat_00_cat-0291-ILSVRC2012-val-00035821.png,00_cat-0291-ILSVRC2012-val-00035821.png,1.0,0.85754555,0.8183463,0.027718045
convnext_large,1,399,NaN,cat,cat,0,0399_sty_dnn_0_cat_00_cat-0294-ILSVRC2012-val-00037633.png,00_cat-0294-ILSVRC2012-val-00037633.png,1.0,3.0201938,0.92086416,1.4844503
convnext_large,1,400,NaN,cat,cat,0,0400_sty_dnn_0_cat_00_cat-0298-ILSVRC2012-val-00042529.png,00_cat-0298-ILSVRC2012-val-00042529.png,1.0,2.4915855,1.049881,1.0194391
convnext_large,1,401,NaN,bicycle,chair,0,0401_sty_dnn_0_chair_00_chair-0006-ILSVRC2012-val-00004679.png,00_chair-0006-ILSVRC2012-val-00004679.png,0.0,-0.3262571,1.1352003,-1.0334064
convnext_large,1,402,NaN,clock,chair,0,0402_sty_dnn_0_chair_00_chair-0018-ILSVRC2012-val-00013838.png,00_chair-0018-ILSVRC2012-val-00013838.png,0.0,0.08896391,0.8619341,-0.5465725
convnext_large,1,403,NaN,chair,chair,0,0403_sty_dnn_0_chair_00_chair-0022-ILSVRC2012-val-00016403.png,00_chair-0022-ILSVRC2012-val-00016403.png,1.0,1.9385964,0.91790473,0.721738
convnext_large,1,404,NaN,cat,chair,0,0404_sty_dnn_0_chair_00_chair-0024-ILSVRC2012-val-00021099.png,00_chair-0024-ILSVRC2012-val-00021099.png,0.0,-0.39320874,3.2780306,-2.5959582
convnext_large,1,405,NaN,chair,chair,0,0405_sty_dnn_0_chair_00_chair-0030-ILSVRC2012-val-00026896.png,00_chair-0030-ILSVRC2012-val-00026896.png,1.0,2.276452,0.26105246,1.4251028
convnext_large,1,406,NaN,airplane,chair,0,0406_sty_dnn_0_chair_00_chair-0033-ILSVRC2012-val-00031805.png,00_chair-0033-ILSVRC2012-val-00031805.png,0.0,-0.17965038,1.4602524,-1.1595864
convnext_large,1,407,NaN,clock,chair,0,0407_sty_dnn_0_chair_00_chair-0039-ILSVRC2012-val-00041772.png,00_chair-0039-ILSVRC2012-val-00041772.png,0.0,-0.39139518,1.0973121,-1.052675
convnext_large,1,408,NaN,boat,chair,0,0408_sty_dnn_0_chair_00_chair-0040-ILSVRC2012-val-00042512.png,00_chair-0040-ILSVRC2012-val-00042512.png,0.0,-0.2732088,2.8178136,-2.185683
convnext_large,1,409,NaN,cat,chair,0,0409_sty_dnn_0_chair_00_chair-0045-ILSVRC2012-val-00044898.png,00_chair-0045-ILSVRC2012-val-00044898.png,0.0,-0.7339471,1.1774234,-1.3515431
convnext_large,1,410,NaN,bottle,chair,0,0410_sty_dnn_0_chair_00_chair-0047-ILSVRC2012-val-00045407.png,00_chair-0047-ILSVRC2012-val-00045407.png,0.0,0.79848874,1.1975899,-0.28220713
convnext_large,1,411,NaN,oven,chair,0,0411_sty_dnn_0_chair_00_chair-0050-ILSVRC2012-val-00049050.png,00_chair-0050-ILSVRC2012-val-00049050.png,0.0,-0.021975368,1.7977141,-1.2867148
convnext_large,1,412,NaN,knife,chair,0,0412_sty_dnn_0_chair_00_chair-0051-ILSVRC2012-val-00001616.png,00_chair-0051-ILSVRC2012-val-00001616.png,0.0,-0.15110683,1.0702062,-0.8635987
convnext_large,1,413,NaN,chair,chair,0,0413_sty_dnn_0_chair_00_chair-0053-ILSVRC2012-val-00001855.png,00_chair-0053-ILSVRC2012-val-00001855.png,1.0,0.8060787,0.30426896,0.35483307
convnext_large,1,414,NaN,cat,chair,0,0414_sty_dnn_0_chair_00_chair-0058-ILSVRC2012-val-00005926.png,00_chair-0058-ILSVRC2012-val-00005926.png,0.0,0.24564718,0.8475513,-0.42561048
convnext_large,1,415,NaN,car,chair,0,0415_sty_dnn_0_chair_00_chair-0059-ILSVRC2012-val-00006022.png,00_chair-0059-ILSVRC2012-val-00006022.png,0.0,-0.049074285,0.54595524,-0.42074943
convnext_large,1,416,NaN,airplane,chair,0,0416_sty_dnn_0_chair_00_chair-0072-ILSVRC2012-val-00015559.png,00_chair-0072-ILSVRC2012-val-00015559.png,0.0,-0.40746212,3.3806462,-2.6785972
convnext_large,1,417,NaN,chair,chair,0,0417_sty_dnn_0_chair_00_chair-0081-ILSVRC2012-val-00033069.png,00_chair-0081-ILSVRC2012-val-00033069.png,1.0,1.3984635,0.77410007,0.4414916
convnext_large,1,418,NaN,bicycle,chair,0,0418_sty_dnn_0_chair_00_chair-0085-ILSVRC2012-val-00036175.png,00_chair-0085-ILSVRC2012-val-00036175.png,0.0,0.92356324,1.3026876,-0.26808143
convnext_large,1,419,NaN,chair,chair,0,0419_sty_dnn_0_chair_00_chair-0087-ILSVRC2012-val-00037905.png,00_chair-0087-ILSVRC2012-val-00037905.png,1.0,3.139736,0.81467915,1.6440635
convnext_large,1,420,NaN,chair,chair,0,0420_sty_dnn_0_chair_00_chair-0092-ILSVRC2012-val-00041814.png,00_chair-0092-ILSVRC2012-val-00041814.png,1.0,1.6094353,0.8654184,0.52609944
convnext_large,1,421,NaN,clock,chair,0,0421_sty_dnn_0_chair_00_chair-0097-ILSVRC2012-val-00043453.png,00_chair-0097-ILSVRC2012-val-00043453.png,0.0,0.24458003,1.1494194,-0.6398181
convnext_large,1,422,NaN,elephant,chair,0,0422_sty_dnn_0_chair_00_chair-0098-ILSVRC2012-val-00044181.png,00_chair-0098-ILSVRC2012-val-00044181.png,0.0,0.14413413,2.643736,-1.7674855
convnext_large,1,423,NaN,chair,chair,0,0423_sty_dnn_0_chair_00_chair-0116-ILSVRC2012-val-00017447.png,00_chair-0116-ILSVRC2012-val-00017447.png,1.0,2.5063632,1.1901568,0.93069845
convnext_large,1,424,NaN,chair,chair,0,0424_sty_dnn_0_chair_00_chair-0118-ILSVRC2012-val-00018123.png,00_chair-0118-ILSVRC2012-val-00018123.png,1.0,3.7846537,0.3923461,2.3987236
convnext_large,1,425,NaN,boat,chair,0,0425_sty_dnn_0_chair_00_chair-0119-ILSVRC2012-val-00018206.png,00_chair-0119-ILSVRC2012-val-00018206.png,0.0,0.04252001,3.0216973,-2.1065965
convnext_large,1,426,NaN,cat,chair,0,0426_sty_dnn_0_chair_00_chair-0122-ILSVRC2012-val-00019867.png,00_chair-0122-ILSVRC2012-val-00019867.png,0.0,0.8306511,0.9159868,-0.060341433
convnext_large,1,427,NaN,chair,chair,0,0427_sty_dnn_0_chair_00_chair-0123-ILSVRC2012-val-00020924.png,00_chair-0123-ILSVRC2012-val-00020924.png,1.0,0.67746806,0.5758814,0.071832605
convnext_large,1,428,NaN,bicycle,chair,0,0428_sty_dnn_0_chair_00_chair-0124-ILSVRC2012-val-00022208.png,00_chair-0124-ILSVRC2012-val-00022208.png,0.0,-0.48146296,1.0634398,-1.0924113
convnext_large,1,429,NaN,chair,chair,0,0429_sty_dnn_0_chair_00_chair-0127-ILSVRC2012-val-00024620.png,00_chair-0127-ILSVRC2012-val-00024620.png,1.0,3.544211,0.6485789,2.047521
convnext_large,1,430,NaN,chair,chair,0,0430_sty_dnn_0_chair_00_chair-0133-ILSVRC2012-val-00033406.png,00_chair-0133-ILSVRC2012-val-00033406.png,1.0,1.479314,1.2179036,0.18484505
convnext_large,1,431,NaN,chair,chair,0,0431_sty_dnn_0_chair_00_chair-0136-ILSVRC2012-val-00037994.png,00_chair-0136-ILSVRC2012-val-00037994.png,1.0,2.507517,0.77997154,1.2215592
convnext_large,1,432,NaN,clock,chair,0,0432_sty_dnn_0_chair_00_chair-0138-ILSVRC2012-val-00038750.png,00_chair-0138-ILSVRC2012-val-00038750.png,0.0,0.5383192,1.0061747,-0.3308238
convnext_large,1,433,NaN,boat,chair,0,0433_sty_dnn_0_chair_00_chair-0141-ILSVRC2012-val-00040076.png,00_chair-0141-ILSVRC2012-val-00040076.png,0.0,-0.8968496,2.266601,-2.2368975
convnext_large,1,434,NaN,bear,chair,0,0434_sty_dnn_0_chair_00_chair-0150-ILSVRC2012-val-00048622.png,00_chair-0150-ILSVRC2012-val-00048622.png,0.0,-1.0904247,1.729773,-1.9941809
convnext_large,1,435,NaN,chair,chair,0,0435_sty_dnn_0_chair_00_chair-0154-ILSVRC2012-val-00004705.png,00_chair-0154-ILSVRC2012-val-00004705.png,1.0,1.322783,1.0553026,0.18913719
convnext_large,1,436,NaN,bear,chair,0,0436_sty_dnn_0_chair_00_chair-0155-ILSVRC2012-val-00005160.png,00_chair-0155-ILSVRC2012-val-00005160.png,0.0,0.7146102,1.9235096,-0.85482097
convnext_large,1,437,NaN,elephant,chair,0,0437_sty_dnn_0_chair_00_chair-0159-ILSVRC2012-val-00011028.png,00_chair-0159-ILSVRC2012-val-00011028.png,0.0,1.0657856,1.6633065,-0.42251104
convnext_large,1,438,NaN,chair,chair,0,0438_sty_dnn_0_chair_00_chair-0160-ILSVRC2012-val-00012040.png,00_chair-0160-ILSVRC2012-val-00012040.png,1.0,2.936373,1.802441,0.80181104
convnext_large,1,439,NaN,chair,chair,0,0439_sty_dnn_0_chair_00_chair-0169-ILSVRC2012-val-00019913.png,00_chair-0169-ILSVRC2012-val-00019913.png,1.0,1.8404888,0.99666953,0.5966703
convnext_large,1,440,NaN,elephant,chair,0,0440_sty_dnn_0_chair_00_chair-0170-ILSVRC2012-val-00022051.png,00_chair-0170-ILSVRC2012-val-00022051.png,0.0,-0.29971182,3.864371,-2.9444513
convnext_large,1,441,NaN,bottle,chair,0,0441_sty_dnn_0_chair_00_chair-0172-ILSVRC2012-val-00023378.png,00_chair-0172-ILSVRC2012-val-00023378.png,0.0,0.19523479,1.647022,-1.0265687
convnext_large,1,442,NaN,chair,chair,0,0442_sty_dnn_0_chair_00_chair-0181-ILSVRC2012-val-00033160.png,00_chair-0181-ILSVRC2012-val-00033160.png,1.0,2.2826078,1.6179054,0.4700156
convnext_large,1,443,NaN,clock,chair,0,0443_sty_dnn_0_chair_00_chair-0183-ILSVRC2012-val-00035142.png,00_chair-0183-ILSVRC2012-val-00035142.png,0.0,0.5363053,1.2012433,-0.47018215
convnext_large,1,444,NaN,keyboard,chair,0,0444_sty_dnn_0_chair_00_chair-0188-ILSVRC2012-val-00041720.png,00_chair-0188-ILSVRC2012-val-00041720.png,0.0,-0.696272,0.951892,-1.165428
convnext_large,1,445,NaN,cat,chair,0,0445_sty_dnn_0_chair_00_chair-0189-ILSVRC2012-val-00041883.png,00_chair-0189-ILSVRC2012-val-00041883.png,0.0,0.121275544,1.9447082,-1.2893616
convnext_large,1,446,NaN,boat,chair,0,0446_sty_dnn_0_chair_00_chair-0192-ILSVRC2012-val-00043870.png,00_chair-0192-ILSVRC2012-val-00043870.png,0.0,0.7767196,1.9209963,-0.8091258
convnext_large,1,447,NaN,chair,chair,0,0447_sty_dnn_0_chair_00_chair-0193-ILSVRC2012-val-00044295.png,00_chair-0193-ILSVRC2012-val-00044295.png,1.0,2.8498726,0.50400066,1.658782
convnext_large,1,448,NaN,chair,chair,0,0448_sty_dnn_0_chair_00_chair-0195-ILSVRC2012-val-00045464.png,00_chair-0195-ILSVRC2012-val-00045464.png,1.0,3.3304472,0.2603176,2.1709094
convnext_large,1,449,NaN,knife,chair,0,0449_sty_dnn_0_chair_00_chair-0196-ILSVRC2012-val-00045844.png,00_chair-0196-ILSVRC2012-val-00045844.png,0.0,-0.46648282,1.2395068,-1.2063168
convnext_large,1,450,NaN,cat,chair,0,0450_sty_dnn_0_chair_00_chair-0199-ILSVRC2012-val-00048901.png,00_chair-0199-ILSVRC2012-val-00048901.png,0.0,0.5659737,1.2887188,-0.511058
convnext_large,1,451,NaN,clock,clock,0,0451_sty_dnn_0_clock_00_clock-0001-ILSVRC2012-val-00001011.png,00_clock-0001-ILSVRC2012-val-00001011.png,1.0,1.8492209,0.9258863,0.65289617
convnext_large,1,452,NaN,clock,clock,0,0452_sty_dnn_0_clock_00_clock-0007-ILSVRC2012-val-00005490.png,00_clock-0007-ILSVRC2012-val-00005490.png,1.0,1.1651211,0.9821446,0.12938392
convnext_large,1,453,NaN,clock,clock,0,0453_sty_dnn_0_clock_00_clock-0008-ILSVRC2012-val-00005558.png,00_clock-0008-ILSVRC2012-val-00005558.png,1.0,4.7188435,0.6396949,2.8843935
convnext_large,1,454,NaN,clock,clock,0,0454_sty_dnn_0_clock_00_clock-0010-ILSVRC2012-val-00006858.png,00_clock-0010-ILSVRC2012-val-00006858.png,1.0,3.706598,1.1872485,1.7814492
convnext_large,1,455,NaN,clock,clock,0,0455_sty_dnn_0_clock_00_clock-0013-ILSVRC2012-val-00013244.png,00_clock-0013-ILSVRC2012-val-00013244.png,1.0,4.1425834,1.3645316,1.9643793
convnext_large,1,456,NaN,clock,clock,0,0456_sty_dnn_0_clock_00_clock-0018-ILSVRC2012-val-00015871.png,00_clock-0018-ILSVRC2012-val-00015871.png,1.0,4.161079,0.87656975,2.3224988
convnext_large,1,457,NaN,clock,clock,0,0457_sty_dnn_0_clock_00_clock-0020-ILSVRC2012-val-00016889.png,00_clock-0020-ILSVRC2012-val-00016889.png,1.0,4.2884545,3.418033,0.6154811
convnext_large,1,458,NaN,clock,clock,0,0458_sty_dnn_0_clock_00_clock-0023-ILSVRC2012-val-00017973.png,00_clock-0023-ILSVRC2012-val-00017973.png,1.0,5.2092457,0.3908481,3.4071217
convnext_large,1,459,NaN,clock,clock,0,0459_sty_dnn_0_clock_00_clock-0025-ILSVRC2012-val-00019663.png,00_clock-0025-ILSVRC2012-val-00019663.png,1.0,4.9271364,1.1616402,2.662608
convnext_large,1,460,NaN,clock,clock,0,0460_sty_dnn_0_clock_00_clock-0028-ILSVRC2012-val-00021179.png,00_clock-0028-ILSVRC2012-val-00021179.png,1.0,1.8858962,0.9562782,0.6573392
convnext_large,1,461,NaN,clock,clock,0,0461_sty_dnn_0_clock_00_clock-0029-ILSVRC2012-val-00022719.png,00_clock-0029-ILSVRC2012-val-00022719.png,1.0,4.092195,0.84292614,2.2975802
convnext_large,1,462,NaN,clock,clock,0,0462_sty_dnn_0_clock_00_clock-0032-ILSVRC2012-val-00024425.png,00_clock-0032-ILSVRC2012-val-00024425.png,1.0,3.953677,0.36972883,2.534234
convnext_large,1,463,NaN,clock,clock,0,0463_sty_dnn_0_clock_00_clock-0034-ILSVRC2012-val-00026380.png,00_clock-0034-ILSVRC2012-val-00026380.png,1.0,4.3436713,1.3287015,2.1319056
convnext_large,1,464,NaN,chair,clock,0,0464_sty_dnn_0_clock_00_clock-0038-ILSVRC2012-val-00032489.png,00_clock-0038-ILSVRC2012-val-00032489.png,0.0,0.5733504,0.88181365,-0.21811643
convnext_large,1,465,NaN,clock,clock,0,0465_sty_dnn_0_clock_00_clock-0039-ILSVRC2012-val-00033429.png,00_clock-0039-ILSVRC2012-val-00033429.png,1.0,1.5796162,0.82787865,0.5315587
convnext_large,1,466,NaN,clock,clock,0,0466_sty_dnn_0_clock_00_clock-0040-ILSVRC2012-val-00035392.png,00_clock-0040-ILSVRC2012-val-00035392.png,1.0,4.904913,0.17273898,3.3461523
convnext_large,1,467,NaN,clock,clock,0,0467_sty_dnn_0_clock_00_clock-0043-ILSVRC2012-val-00041613.png,00_clock-0043-ILSVRC2012-val-00041613.png,1.0,4.086847,1.1742647,2.0595067
convnext_large,1,468,NaN,clock,clock,0,0468_sty_dnn_0_clock_00_clock-0045-ILSVRC2012-val-00043497.png,00_clock-0045-ILSVRC2012-val-00043497.png,1.0,5.200701,0.57600355,3.2701552
convnext_large,1,469,NaN,bottle,clock,0,0469_sty_dnn_0_clock_00_clock-0046-ILSVRC2012-val-00044049.png,00_clock-0046-ILSVRC2012-val-00044049.png,0.0,1.5668675,2.556648,-0.69988054
convnext_large,1,470,NaN,clock,clock,0,0470_sty_dnn_0_clock_00_clock-0048-ILSVRC2012-val-00044752.png,00_clock-0048-ILSVRC2012-val-00044752.png,1.0,3.9635913,0.5245504,2.4317691
convnext_large,1,471,NaN,cat,clock,0,0471_sty_dnn_0_clock_00_clock-0052-ILSVRC2012-val-00003721.png,00_clock-0052-ILSVRC2012-val-00003721.png,0.0,0.7187049,3.0005953,-1.6135402
convnext_large,1,472,NaN,boat,clock,0,0472_sty_dnn_0_clock_00_clock-0054-ILSVRC2012-val-00008751.png,00_clock-0054-ILSVRC2012-val-00008751.png,0.0,0.2227128,1.9126097,-1.1949376
convnext_large,1,473,NaN,clock,clock,0,0473_sty_dnn_0_clock_00_clock-0062-ILSVRC2012-val-00014987.png,00_clock-0062-ILSVRC2012-val-00014987.png,1.0,3.0667832,1.5164167,1.0962747
convnext_large,1,474,NaN,clock,clock,0,0474_sty_dnn_0_clock_00_clock-0063-ILSVRC2012-val-00015628.png,00_clock-0063-ILSVRC2012-val-00015628.png,1.0,2.5266104,1.2191762,0.9244956
convnext_large,1,475,NaN,keyboard,clock,0,0475_sty_dnn_0_clock_00_clock-0073-ILSVRC2012-val-00026298.png,00_clock-0073-ILSVRC2012-val-00026298.png,0.0,1.682551,1.9843388,-0.21339616
convnext_large,1,476,NaN,clock,clock,0,0476_sty_dnn_0_clock_00_clock-0076-ILSVRC2012-val-00028203.png,00_clock-0076-ILSVRC2012-val-00028203.png,1.0,1.5078149,0.5344881,0.688246
convnext_large,1,477,NaN,clock,clock,0,0477_sty_dnn_0_clock_00_clock-0080-ILSVRC2012-val-00032946.png,00_clock-0080-ILSVRC2012-val-00032946.png,1.0,4.292418,1.1900661,2.193694
convnext_large,1,478,NaN,clock,clock,0,0478_sty_dnn_0_clock_00_clock-0082-ILSVRC2012-val-00033627.png,00_clock-0082-ILSVRC2012-val-00033627.png,1.0,1.7930979,0.84266424,0.67205805
convnext_large,1,479,NaN,clock,clock,0,0479_sty_dnn_0_clock_00_clock-0084-ILSVRC2012-val-00034426.png,00_clock-0084-ILSVRC2012-val-00034426.png,1.0,1.6583997,1.2955589,0.25656718
convnext_large,1,480,NaN,bottle,clock,0,0480_sty_dnn_0_clock_00_clock-0086-ILSVRC2012-val-00041483.png,00_clock-0086-ILSVRC2012-val-00041483.png,0.0,1.1972691,1.4159269,-0.15461445
convnext_large,1,481,NaN,clock,clock,0,0481_sty_dnn_0_clock_00_clock-0089-ILSVRC2012-val-00042911.png,00_clock-0089-ILSVRC2012-val-00042911.png,1.0,3.5128624,1.3878021,1.5026445
convnext_large,1,482,NaN,clock,clock,0,0482_sty_dnn_0_clock_00_clock-0091-ILSVRC2012-val-00044029.png,00_clock-0091-ILSVRC2012-val-00044029.png,1.0,3.4526463,0.5536291,2.0499146
convnext_large,1,483,NaN,bear,clock,0,0483_sty_dnn_0_clock_00_clock-0092-ILSVRC2012-val-00044168.png,00_clock-0092-ILSVRC2012-val-00044168.png,0.0,0.6148904,1.5977184,-0.69496435
convnext_large,1,484,NaN,chair,clock,0,0484_sty_dnn_0_clock_00_clock-0098-ILSVRC2012-val-00048682.png,00_clock-0098-ILSVRC2012-val-00048682.png,0.0,-0.09630358,2.1794074,-1.6091708
convnext_large,1,485,NaN,boat,clock,0,0485_sty_dnn_0_clock_00_clock-0100-ILSVRC2012-val-00049759.png,00_clock-0100-ILSVRC2012-val-00049759.png,0.0,-0.7403252,2.104338,-2.0114806
convnext_large,1,486,NaN,clock,clock,0,0486_sty_dnn_0_clock_00_clock-0106-ILSVRC2012-val-00009413.png,00_clock-0106-ILSVRC2012-val-00009413.png,1.0,3.320754,1.6570547,1.1764132
convnext_large,1,487,NaN,clock,clock,0,0487_sty_dnn_0_clock_00_clock-0107-ILSVRC2012-val-00010270.png,00_clock-0107-ILSVRC2012-val-00010270.png,1.0,1.4980057,0.7500432,0.5288894
convnext_large,1,488,NaN,clock,clock,0,0488_sty_dnn_0_clock_00_clock-0108-ILSVRC2012-val-00011957.png,00_clock-0108-ILSVRC2012-val-00011957.png,1.0,3.11829,1.0431428,1.4673506
convnext_large,1,489,NaN,bottle,clock,0,0489_sty_dnn_0_clock_00_clock-0110-ILSVRC2012-val-00014035.png,00_clock-0110-ILSVRC2012-val-00014035.png,0.0,0.07457908,0.7749748,-0.4952546
convnext_large,1,490,NaN,chair,clock,0,0490_sty_dnn_0_clock_00_clock-0112-ILSVRC2012-val-00014635.png,00_clock-0112-ILSVRC2012-val-00014635.png,0.0,0.6001058,0.8951316,-0.20861472
convnext_large,1,491,NaN,clock,clock,0,0491_sty_dnn_0_clock_00_clock-0118-ILSVRC2012-val-00018443.png,00_clock-0118-ILSVRC2012-val-00018443.png,1.0,1.8662252,1.1332278,0.51830745
convnext_large,1,492,NaN,clock,clock,0,0492_sty_dnn_0_clock_00_clock-0119-ILSVRC2012-val-00018797.png,00_clock-0119-ILSVRC2012-val-00018797.png,1.0,2.5814486,2.1580236,0.29940668
convnext_large,1,493,NaN,clock,clock,0,0493_sty_dnn_0_clock_00_clock-0127-ILSVRC2012-val-00030330.png,00_clock-0127-ILSVRC2012-val-00030330.png,1.0,2.9267302,0.42559513,1.7685696
convnext_large,1,494,NaN,clock,clock,0,0494_sty_dnn_0_clock_00_clock-0128-ILSVRC2012-val-00030987.png,00_clock-0128-ILSVRC2012-val-00030987.png,1.0,5.6047554,0.45025763,3.6447804
convnext_large,1,495,NaN,clock,clock,0,0495_sty_dnn_0_clock_00_clock-0129-ILSVRC2012-val-00031861.png,00_clock-0129-ILSVRC2012-val-00031861.png,1.0,2.2557533,0.8303484,1.0079135
convnext_large,1,496,NaN,clock,clock,0,0496_sty_dnn_0_clock_00_clock-0130-ILSVRC2012-val-00032136.png,00_clock-0130-ILSVRC2012-val-00032136.png,1.0,3.1535263,0.74465454,1.7033296
convnext_large,1,497,NaN,clock,clock,0,0497_sty_dnn_0_clock_00_clock-0142-ILSVRC2012-val-00041461.png,00_clock-0142-ILSVRC2012-val-00041461.png,1.0,4.2249913,0.23535265,2.8211005
convnext_large,1,498,NaN,cat,clock,0,0498_sty_dnn_0_clock_00_clock-0143-ILSVRC2012-val-00041547.png,00_clock-0143-ILSVRC2012-val-00041547.png,0.0,-0.48366895,1.6780268,-1.5285497
convnext_large,1,499,NaN,clock,clock,0,0499_sty_dnn_0_clock_00_clock-0144-ILSVRC2012-val-00041715.png,00_clock-0144-ILSVRC2012-val-00041715.png,1.0,4.587543,0.37439662,2.9791443
convnext_large,1,500,NaN,clock,clock,0,0500_sty_dnn_0_clock_00_clock-0145-ILSVRC2012-val-00044685.png,00_clock-0145-ILSVRC2012-val-00044685.png,1.0,1.4537686,1.1594075,0.20814474
convnext_large,1,501,NaN,dog,dog,0,0501_sty_dnn_0_dog_00_dog-0099-ILSVRC2012-val-00048280.png,00_dog-0099-ILSVRC2012-val-00048280.png,1.0,0.45672205,0.40773657,0.034637965
convnext_large,1,502,NaN,bottle,dog,0,0502_sty_dnn_0_dog_00_dog-0158-ILSVRC2012-val-00004081.png,00_dog-0158-ILSVRC2012-val-00004081.png,0.0,0.13820109,1.1075861,-0.6854587
convnext_large,1,503,NaN,boat,dog,0,0503_sty_dnn_0_dog_00_dog-0220-ILSVRC2012-val-00017568.png,00_dog-0220-ILSVRC2012-val-00017568.png,0.0,0.35515368,2.2071977,-1.3095928
convnext_large,1,504,NaN,boat,dog,0,0504_sty_dnn_0_dog_00_dog-0247-ILSVRC2012-val-00045683.png,00_dog-0247-ILSVRC2012-val-00045683.png,0.0,0.19517821,1.2196321,-0.7243983
convnext_large,1,505,NaN,boat,dog,0,0505_sty_dnn_0_dog_00_dog-0303-ILSVRC2012-val-00002521.png,00_dog-0303-ILSVRC2012-val-00002521.png,0.0,-0.12909535,2.0844312,-1.5651996
convnext_large,1,506,NaN,dog,dog,0,0506_sty_dnn_0_dog_00_dog-0386-ILSVRC2012-val-00034616.png,00_dog-0386-ILSVRC2012-val-00034616.png,1.0,0.5319733,0.18387789,0.24614063
convnext_large,1,507,NaN,oven,dog,0,0507_sty_dnn_0_dog_00_dog-0397-ILSVRC2012-val-00044140.png,00_dog-0397-ILSVRC2012-val-00044140.png,0.0,0.24908656,0.91063297,-0.46778396
convnext_large,1,508,NaN,bottle,dog,0,0508_sty_dnn_0_dog_00_dog-0779-ILSVRC2012-val-00033666.png,00_dog-0779-ILSVRC2012-val-00033666.png,0.0,0.10757334,0.8810019,-0.5468966
convnext_large,1,509,NaN,boat,dog,0,0509_sty_dnn_0_dog_00_dog-1178-ILSVRC2012-val-00022137.png,00_dog-1178-ILSVRC2012-val-00022137.png,0.0,0.23139054,1.1834766,-0.6732265
convnext_large,1,510,NaN,knife,dog,0,0510_sty_dnn_0_dog_00_dog-1191-ILSVRC2012-val-00037989.png,00_dog-1191-ILSVRC2012-val-00037989.png,0.0,0.17802027,1.2393717,-0.7504888
convnext_large,1,511,NaN,chair,dog,0,0511_sty_dnn_0_dog_00_dog-1398-ILSVRC2012-val-00046547.png,00_dog-1398-ILSVRC2012-val-00046547.png,0.0,0.006034066,0.4433939,-0.3092601
convnext_large,1,512,NaN,dog,dog,0,0512_sty_dnn_0_dog_00_dog-1538-ILSVRC2012-val-00038167.png,00_dog-1538-ILSVRC2012-val-00038167.png,1.0,1.1110126,0.8987825,0.15006934
convnext_large,1,513,NaN,knife,dog,0,0513_sty_dnn_0_dog_00_dog-1613-ILSVRC2012-val-00015923.png,00_dog-1613-ILSVRC2012-val-00015923.png,0.0,0.27258554,0.9611057,-0.4868573
convnext_large,1,514,NaN,chair,dog,0,0514_sty_dnn_0_dog_00_dog-1734-ILSVRC2012-val-00031377.png,00_dog-1734-ILSVRC2012-val-00031377.png,0.0,-0.27504715,1.0312737,-0.9237084
convnext_large,1,515,NaN,boat,dog,0,0515_sty_dnn_0_dog_00_dog-1735-ILSVRC2012-val-00031764.png,00_dog-1735-ILSVRC2012-val-00031764.png,0.0,0.48191753,3.213715,-1.9316726
convnext_large,1,516,NaN,dog,dog,0,0516_sty_dnn_0_dog_00_dog-1881-ILSVRC2012-val-00028322.png,00_dog-1881-ILSVRC2012-val-00028322.png,1.0,0.5861353,0.55897063,0.019208342
convnext_large,1,517,NaN,oven,dog,0,0517_sty_dnn_0_dog_00_dog-2094-ILSVRC2012-val-00044284.png,00_dog-2094-ILSVRC2012-val-00044284.png,0.0,-0.5028286,1.1016362,-1.1345279
convnext_large,1,518,NaN,keyboard,dog,0,0518_sty_dnn_0_dog_00_dog-2121-ILSVRC2012-val-00015705.png,00_dog-2121-ILSVRC2012-val-00015705.png,0.0,0.049869258,0.5604278,-0.3610194
convnext_large,1,519,NaN,chair,dog,0,0519_sty_dnn_0_dog_00_dog-2129-ILSVRC2012-val-00025424.png,00_dog-2129-ILSVRC2012-val-00025424.png,0.0,-0.00951264,1.0281762,-0.73375684
convnext_large,1,520,NaN,chair,dog,0,0520_sty_dnn_0_dog_00_dog-2195-ILSVRC2012-val-00046002.png,00_dog-2195-ILSVRC2012-val-00046002.png,0.0,-0.37514254,1.398284,-1.254002
convnext_large,1,521,NaN,oven,dog,0,0521_sty_dnn_0_dog_00_dog-2211-ILSVRC2012-val-00010402.png,00_dog-2211-ILSVRC2012-val-00010402.png,0.0,0.4235539,1.5546296,-0.7997913
convnext_large,1,522,NaN,chair,dog,0,0522_sty_dnn_0_dog_00_dog-2253-ILSVRC2012-val-00003731.png,00_dog-2253-ILSVRC2012-val-00003731.png,0.0,0.08851809,1.1610826,-0.7584176
convnext_large,1,523,NaN,cat,dog,0,0523_sty_dnn_0_dog_00_dog-2290-ILSVRC2012-val-00036919.png,00_dog-2290-ILSVRC2012-val-00036919.png,0.0,1.2371184,2.0121748,-0.5480477
convnext_large,1,524,NaN,cat,dog,0,0524_sty_dnn_0_dog_00_dog-2321-ILSVRC2012-val-00015164.png,00_dog-2321-ILSVRC2012-val-00015164.png,0.0,0.53218585,2.8613985,-1.6470021
convnext_large,1,525,NaN,oven,dog,0,0525_sty_dnn_0_dog_00_dog-2368-ILSVRC2012-val-00011895.png,00_dog-2368-ILSVRC2012-val-00011895.png,0.0,-0.042978894,0.8761506,-0.6499227
convnext_large,1,526,NaN,clock,dog,0,0526_sty_dnn_0_dog_00_dog-2391-ILSVRC2012-val-00039144.png,00_dog-2391-ILSVRC2012-val-00039144.png,0.0,0.15947309,0.26796708,-0.07671683
convnext_large,1,527,NaN,chair,dog,0,0527_sty_dnn_0_dog_00_dog-2535-ILSVRC2012-val-00038253.png,00_dog-2535-ILSVRC2012-val-00038253.png,0.0,0.09071329,0.650136,-0.39557162
convnext_large,1,528,NaN,clock,dog,0,0528_sty_dnn_0_dog_00_dog-2539-ILSVRC2012-val-00041157.png,00_dog-2539-ILSVRC2012-val-00041157.png,0.0,-0.46526605,3.0789936,-2.50617
convnext_large,1,529,NaN,boat,dog,0,0529_sty_dnn_0_dog_00_dog-2629-ILSVRC2012-val-00030579.png,00_dog-2629-ILSVRC2012-val-00030579.png,0.0,0.30131564,1.8765417,-1.1138531
convnext_large,1,530,NaN,cat,dog,0,0530_sty_dnn_0_dog_00_dog-2876-ILSVRC2012-val-00027038.png,00_dog-2876-ILSVRC2012-val-00027038.png,0.0,0.55977845,2.3604286,-1.2732519
convnext_large,1,531,NaN,cat,dog,0,0531_sty_dnn_0_dog_00_dog-2889-ILSVRC2012-val-00043272.png,00_dog-2889-ILSVRC2012-val-00043272.png,0.0,0.43441308,1.5245147,-0.77081823
convnext_large,1,532,NaN,chair,dog,0,0532_sty_dnn_0_dog_00_dog-3044-ILSVRC2012-val-00034485.png,00_dog-3044-ILSVRC2012-val-00034485.png,0.0,0.19138882,0.32398397,-0.09375893
convnext_large,1,533,NaN,bottle,dog,0,0533_sty_dnn_0_dog_00_dog-3412-ILSVRC2012-val-00014775.png,00_dog-3412-ILSVRC2012-val-00014775.png,0.0,-0.27065423,0.9141926,-0.83781326
convnext_large,1,534,NaN,cat,dog,0,0534_sty_dnn_0_dog_00_dog-3425-ILSVRC2012-val-00027086.png,00_dog-3425-ILSVRC2012-val-00027086.png,0.0,-0.19562861,1.1995736,-0.986557
convnext_large,1,535,NaN,dog,dog,0,0535_sty_dnn_0_dog_00_dog-3771-ILSVRC2012-val-00020678.png,00_dog-3771-ILSVRC2012-val-00020678.png,1.0,0.9746175,0.90667033,0.048045892
convnext_large,1,536,NaN,boat,dog,0,0536_sty_dnn_0_dog_00_dog-3802-ILSVRC2012-val-00003862.png,00_dog-3802-ILSVRC2012-val-00003862.png,0.0,0.28387386,1.1951506,-0.64436996
convnext_large,1,537,NaN,bottle,dog,0,0537_sty_dnn_0_dog_00_dog-3841-ILSVRC2012-val-00038789.png,00_dog-3841-ILSVRC2012-val-00038789.png,0.0,0.004139935,1.4504433,-1.0226909
convnext_large,1,538,NaN,keyboard,dog,0,0538_sty_dnn_0_dog_00_dog-3864-ILSVRC2012-val-00011457.png,00_dog-3864-ILSVRC2012-val-00011457.png,0.0,-0.07092244,0.8393146,-0.6436348
convnext_large,1,539,NaN,boat,dog,0,0539_sty_dnn_0_dog_00_dog-3917-ILSVRC2012-val-00016908.png,00_dog-3917-ILSVRC2012-val-00016908.png,0.0,0.717902,1.6603069,-0.66638094
convnext_large,1,540,NaN,keyboard,dog,0,0540_sty_dnn_0_dog_00_dog-4009-ILSVRC2012-val-00007922.png,00_dog-4009-ILSVRC2012-val-00007922.png,0.0,-0.18793026,0.57090765,-0.5365795
convnext_large,1,541,NaN,chair,dog,0,0541_sty_dnn_0_dog_00_dog-4070-ILSVRC2012-val-00021155.png,00_dog-4070-ILSVRC2012-val-00021155.png,0.0,-0.16229899,0.26041856,-0.29890648
convnext_large,1,542,NaN,keyboard,dog,0,0542_sty_dnn_0_dog_00_dog-4443-ILSVRC2012-val-00045160.png,00_dog-4443-ILSVRC2012-val-00045160.png,0.0,-0.31314662,0.88431484,-0.84673315
convnext_large,1,543,NaN,bicycle,dog,0,0543_sty_dnn_0_dog_00_dog-4689-ILSVRC2012-val-00034291.png,00_dog-4689-ILSVRC2012-val-00034291.png,0.0,0.16077474,0.60574126,-0.31463885
convnext_large,1,544,NaN,boat,dog,0,0544_sty_dnn_0_dog_00_dog-4865-ILSVRC2012-val-00013670.png,00_dog-4865-ILSVRC2012-val-00013670.png,0.0,-0.049077626,0.97481936,-0.72400445
convnext_large,1,545,NaN,dog,dog,0,0545_sty_dnn_0_dog_00_dog-4914-ILSVRC2012-val-00011316.png,00_dog-4914-ILSVRC2012-val-00011316.png,1.0,0.45610434,0.09581387,0.25476384
convnext_large,1,546,NaN,chair,dog,0,0546_sty_dnn_0_dog_00_dog-4933-ILSVRC2012-val-00033357.png,00_dog-4933-ILSVRC2012-val-00033357.png,0.0,0.27128005,0.55230004,-0.19871114
convnext_large,1,547,NaN,boat,dog,0,0547_sty_dnn_0_dog_00_dog-4954-ILSVRC2012-val-00002882.png,00_dog-4954-ILSVRC2012-val-00002882.png,0.0,0.6809383,1.7731822,-0.7723331
convnext_large,1,548,NaN,cat,dog,0,0548_sty_dnn_0_dog_00_dog-4999-ILSVRC2012-val-00049046.png,00_dog-4999-ILSVRC2012-val-00049046.png,0.0,0.571916,0.61995673,-0.03396994
convnext_large,1,549,NaN,dog,dog,0,0549_sty_dnn_0_dog_00_dog-5044-ILSVRC2012-val-00043270.png,00_dog-5044-ILSVRC2012-val-00043270.png,1.0,0.4830959,0.43281046,0.035557188
convnext_large,1,550,NaN,bottle,dog,0,0550_sty_dnn_0_dog_00_dog-5267-ILSVRC2012-val-00013862.png,00_dog-5267-ILSVRC2012-val-00013862.png,0.0,-0.6611106,1.5335321,-1.5518469
convnext_large,1,551,NaN,elephant,elephant,0,0551_sty_dnn_0_elephant_00_elephant-0002-ILSVRC2012-val-00001850.png,00_elephant-0002-ILSVRC2012-val-00001850.png,1.0,2.526982,0.50417984,1.4303373
convnext_large,1,552,NaN,elephant,elephant,0,0552_sty_dnn_0_elephant_00_elephant-0003-ILSVRC2012-val-00003280.png,00_elephant-0003-ILSVRC2012-val-00003280.png,1.0,6.125781,1.0845969,3.5646558
convnext_large,1,553,NaN,elephant,elephant,0,0553_sty_dnn_0_elephant_00_elephant-0004-ILSVRC2012-val-00004882.png,00_elephant-0004-ILSVRC2012-val-00004882.png,1.0,1.7062852,0.56164277,0.80938447
convnext_large,1,554,NaN,elephant,elephant,0,0554_sty_dnn_0_elephant_00_elephant-0006-ILSVRC2012-val-00005704.png,00_elephant-0006-ILSVRC2012-val-00005704.png,1.0,2.2161665,1.2265936,0.69973373
convnext_large,1,555,NaN,elephant,elephant,0,0555_sty_dnn_0_elephant_00_elephant-0009-ILSVRC2012-val-00010713.png,00_elephant-0009-ILSVRC2012-val-00010713.png,1.0,5.646158,0.43907154,3.6819663
convnext_large,1,556,NaN,elephant,elephant,0,0556_sty_dnn_0_elephant_00_elephant-0010-ILSVRC2012-val-00011002.png,00_elephant-0010-ILSVRC2012-val-00011002.png,1.0,2.503529,0.49748275,1.418489
convnext_large,1,557,NaN,elephant,elephant,0,0557_sty_dnn_0_elephant_00_elephant-0011-ILSVRC2012-val-00011247.png,00_elephant-0011-ILSVRC2012-val-00011247.png,1.0,6.169196,0.70467705,3.8639984
convnext_large,1,558,NaN,elephant,elephant,0,0558_sty_dnn_0_elephant_00_elephant-0013-ILSVRC2012-val-00014219.png,00_elephant-0013-ILSVRC2012-val-00014219.png,1.0,1.4369993,0.721401,0.50600445
