subj,session,trial,rt,object_response,category,condition,imagename,filename,is_correct,targ_act,max_nontarg_act,decision_margin
alexnet_w1_mlp_simclrhn_probe2,1,1,NaN,bicycle,airplane,0,0001_sty_dnn_0_airplane_00_airplane-0001-ILSVRC2012-val-00000631.png,airplane-0001-ILSVRC2012-val-00000631.png,0.0,-3.1922014,1.8778594,-3.5850744
alexnet_w1_mlp_simclrhn_probe2,1,2,NaN,airplane,airplane,0,0002_sty_dnn_0_airplane_00_airplane-0002-ILSVRC2012-val-00001390.png,airplane-0002-ILSVRC2012-val-00001390.png,1.0,0.6513528,-0.08903849,0.5235357
alexnet_w1_mlp_simclrhn_probe2,1,3,NaN,oven,airplane,0,0003_sty_dnn_0_airplane_00_airplane-0003-ILSVRC2012-val-00001506.png,airplane-0003-ILSVRC2012-val-00001506.png,0.0,-8.567923,0.30746922,-6.27585
alexnet_w1_mlp_simclrhn_probe2,1,4,NaN,oven,airplane,0,0004_sty_dnn_0_airplane_00_airplane-0004-ILSVRC2012-val-00001952.png,airplane-0004-ILSVRC2012-val-00001952.png,0.0,-3.9927652,-0.1639968,-2.707348
alexnet_w1_mlp_simclrhn_probe2,1,5,NaN,oven,airplane,0,0005_sty_dnn_0_airplane_00_airplane-0005-ILSVRC2012-val-00003960.png,airplane-0005-ILSVRC2012-val-00003960.png,0.0,-3.44092,0.8204655,-3.0132546
alexnet_w1_mlp_simclrhn_probe2,1,6,NaN,elephant,airplane,0,0006_sty_dnn_0_airplane_00_airplane-0006-ILSVRC2012-val-00008292.png,airplane-0006-ILSVRC2012-val-00008292.png,0.0,-1.8626926,0.4398613,-1.6281515
alexnet_w1_mlp_simclrhn_probe2,1,7,NaN,airplane,airplane,0,0007_sty_dnn_0_airplane_00_airplane-0007-ILSVRC2012-val-00009537.png,airplane-0007-ILSVRC2012-val-00009537.png,1.0,2.884755,-0.087325156,2.101578
alexnet_w1_mlp_simclrhn_probe2,1,8,NaN,knife,airplane,0,0008_sty_dnn_0_airplane_00_airplane-0008-ILSVRC2012-val-00010597.png,airplane-0008-ILSVRC2012-val-00010597.png,0.0,-2.628331,-0.25631186,-1.6772708
alexnet_w1_mlp_simclrhn_probe2,1,9,NaN,elephant,airplane,0,0009_sty_dnn_0_airplane_00_airplane-0009-ILSVRC2012-val-00011168.png,airplane-0009-ILSVRC2012-val-00011168.png,0.0,-7.2609186,1.1286409,-5.932315
alexnet_w1_mlp_simclrhn_probe2,1,10,NaN,bicycle,airplane,0,0010_sty_dnn_0_airplane_00_airplane-0010-ILSVRC2012-val-00012263.png,airplane-0010-ILSVRC2012-val-00012263.png,0.0,-8.867383,-1.475131,-5.227112
alexnet_w1_mlp_simclrhn_probe2,1,11,NaN,oven,airplane,0,0011_sty_dnn_0_airplane_00_airplane-0011-ILSVRC2012-val-00014425.png,airplane-0011-ILSVRC2012-val-00014425.png,0.0,-3.7824354,0.7913548,-3.234158
alexnet_w1_mlp_simclrhn_probe2,1,12,NaN,elephant,airplane,0,0012_sty_dnn_0_airplane_00_airplane-0012-ILSVRC2012-val-00015498.png,airplane-0012-ILSVRC2012-val-00015498.png,0.0,-2.399306,0.9976051,-2.401979
alexnet_w1_mlp_simclrhn_probe2,1,13,NaN,oven,airplane,0,0013_sty_dnn_0_airplane_00_airplane-0013-ILSVRC2012-val-00015636.png,airplane-0013-ILSVRC2012-val-00015636.png,0.0,-3.593326,0.34571332,-2.7853215
alexnet_w1_mlp_simclrhn_probe2,1,14,NaN,oven,airplane,0,0014_sty_dnn_0_airplane_00_airplane-0014-ILSVRC2012-val-00016995.png,airplane-0014-ILSVRC2012-val-00016995.png,0.0,-4.686006,1.0448066,-4.0522966
alexnet_w1_mlp_simclrhn_probe2,1,15,NaN,oven,airplane,0,0015_sty_dnn_0_airplane_00_airplane-0015-ILSVRC2012-val-00018616.png,airplane-0015-ILSVRC2012-val-00018616.png,0.0,-2.057723,0.46934098,-1.7869042
alexnet_w1_mlp_simclrhn_probe2,1,16,NaN,bicycle,airplane,0,0016_sty_dnn_0_airplane_00_airplane-0016-ILSVRC2012-val-00018685.png,airplane-0016-ILSVRC2012-val-00018685.png,0.0,-4.7950735,-1.0354315,-2.6584685
alexnet_w1_mlp_simclrhn_probe2,1,17,NaN,oven,airplane,0,0017_sty_dnn_0_airplane_00_airplane-0017-ILSVRC2012-val-00019179.png,airplane-0017-ILSVRC2012-val-00019179.png,0.0,-5.4090776,-0.55600905,-3.4316375
alexnet_w1_mlp_simclrhn_probe2,1,18,NaN,elephant,airplane,0,0018_sty_dnn_0_airplane_00_airplane-0018-ILSVRC2012-val-00019677.png,airplane-0018-ILSVRC2012-val-00019677.png,0.0,-1.2105174,-0.17090566,-0.7351165
alexnet_w1_mlp_simclrhn_probe2,1,19,NaN,bicycle,airplane,0,0019_sty_dnn_0_airplane_00_airplane-0019-ILSVRC2012-val-00022532.png,airplane-0019-ILSVRC2012-val-00022532.png,0.0,-4.7417393,-0.9962113,-2.6484883
alexnet_w1_mlp_simclrhn_probe2,1,20,NaN,bicycle,airplane,0,0020_sty_dnn_0_airplane_00_airplane-0020-ILSVRC2012-val-00022975.png,airplane-0020-ILSVRC2012-val-00022975.png,0.0,-6.200153,2.372601,-6.0618525
alexnet_w1_mlp_simclrhn_probe2,1,21,NaN,knife,airplane,0,0021_sty_dnn_0_airplane_00_airplane-0021-ILSVRC2012-val-00023316.png,airplane-0021-ILSVRC2012-val-00023316.png,0.0,-5.7605853,-1.1507287,-3.259661
alexnet_w1_mlp_simclrhn_probe2,1,22,NaN,elephant,airplane,0,0022_sty_dnn_0_airplane_00_airplane-0022-ILSVRC2012-val-00023781.png,airplane-0022-ILSVRC2012-val-00023781.png,0.0,-6.0884757,-1.1169984,-3.5153656
alexnet_w1_mlp_simclrhn_probe2,1,23,NaN,airplane,airplane,0,0023_sty_dnn_0_airplane_00_airplane-0023-ILSVRC2012-val-00023863.png,airplane-0023-ILSVRC2012-val-00023863.png,1.0,1.018782,0.06128516,0.67705256
alexnet_w1_mlp_simclrhn_probe2,1,24,NaN,airplane,airplane,0,0024_sty_dnn_0_airplane_00_airplane-0024-ILSVRC2012-val-00024108.png,airplane-0024-ILSVRC2012-val-00024108.png,1.0,-1.824359,-1.9750701,0.10656881
alexnet_w1_mlp_simclrhn_probe2,1,25,NaN,airplane,airplane,0,0025_sty_dnn_0_airplane_00_airplane-0025-ILSVRC2012-val-00024747.png,airplane-0025-ILSVRC2012-val-00024747.png,1.0,1.6993896,1.3827263,0.22391474
alexnet_w1_mlp_simclrhn_probe2,1,26,NaN,cat,airplane,0,0026_sty_dnn_0_airplane_00_airplane-0026-ILSVRC2012-val-00026189.png,airplane-0026-ILSVRC2012-val-00026189.png,0.0,-2.3422039,-0.7996917,-1.0907209
alexnet_w1_mlp_simclrhn_probe2,1,27,NaN,airplane,airplane,0,0027_sty_dnn_0_airplane_00_airplane-0027-ILSVRC2012-val-00026859.png,airplane-0027-ILSVRC2012-val-00026859.png,1.0,-0.45216018,-0.5579042,0.074772306
alexnet_w1_mlp_simclrhn_probe2,1,28,NaN,elephant,airplane,0,0028_sty_dnn_0_airplane_00_airplane-0028-ILSVRC2012-val-00028019.png,airplane-0028-ILSVRC2012-val-00028019.png,0.0,-2.228127,0.9411515,-2.2410185
alexnet_w1_mlp_simclrhn_probe2,1,29,NaN,bicycle,airplane,0,0029_sty_dnn_0_airplane_00_airplane-0029-ILSVRC2012-val-00030319.png,airplane-0029-ILSVRC2012-val-00030319.png,0.0,-6.2968197,1.1861107,-5.2912307
alexnet_w1_mlp_simclrhn_probe2,1,30,NaN,oven,airplane,0,0030_sty_dnn_0_airplane_00_airplane-0030-ILSVRC2012-val-00030411.png,airplane-0030-ILSVRC2012-val-00030411.png,0.0,-2.754764,0.9946737,-2.651253
alexnet_w1_mlp_simclrhn_probe2,1,31,NaN,bicycle,airplane,0,0031_sty_dnn_0_airplane_00_airplane-0031-ILSVRC2012-val-00030531.png,airplane-0031-ILSVRC2012-val-00030531.png,0.0,-9.667749,-1.7923244,-5.5687666
alexnet_w1_mlp_simclrhn_probe2,1,32,NaN,oven,airplane,0,0032_sty_dnn_0_airplane_00_airplane-0032-ILSVRC2012-val-00032804.png,airplane-0032-ILSVRC2012-val-00032804.png,0.0,-4.1584187,-1.1522566,-2.1256776
alexnet_w1_mlp_simclrhn_probe2,1,33,NaN,oven,airplane,0,0033_sty_dnn_0_airplane_00_airplane-0033-ILSVRC2012-val-00033161.png,airplane-0033-ILSVRC2012-val-00033161.png,0.0,-4.002795,2.0449262,-4.276385
alexnet_w1_mlp_simclrhn_probe2,1,34,NaN,elephant,airplane,0,0034_sty_dnn_0_airplane_00_airplane-0034-ILSVRC2012-val-00033441.png,airplane-0034-ILSVRC2012-val-00033441.png,0.0,-4.110255,0.29350486,-3.1139283
alexnet_w1_mlp_simclrhn_probe2,1,35,NaN,elephant,airplane,0,0035_sty_dnn_0_airplane_00_airplane-0035-ILSVRC2012-val-00033920.png,airplane-0035-ILSVRC2012-val-00033920.png,0.0,-0.65613616,-0.2658055,-0.27600545
alexnet_w1_mlp_simclrhn_probe2,1,36,NaN,oven,airplane,0,0036_sty_dnn_0_airplane_00_airplane-0036-ILSVRC2012-val-00034342.png,airplane-0036-ILSVRC2012-val-00034342.png,0.0,-4.9543924,-2.204269,-1.944631
alexnet_w1_mlp_simclrhn_probe2,1,37,NaN,bicycle,airplane,0,0037_sty_dnn_0_airplane_00_airplane-0037-ILSVRC2012-val-00035783.png,airplane-0037-ILSVRC2012-val-00035783.png,0.0,-2.1656094,2.2688565,-3.1356409
alexnet_w1_mlp_simclrhn_probe2,1,38,NaN,oven,airplane,0,0038_sty_dnn_0_airplane_00_airplane-0038-ILSVRC2012-val-00036394.png,airplane-0038-ILSVRC2012-val-00036394.png,0.0,-8.584993,-0.16434936,-5.954294
alexnet_w1_mlp_simclrhn_probe2,1,39,NaN,bicycle,airplane,0,0039_sty_dnn_0_airplane_00_airplane-0039-ILSVRC2012-val-00037801.png,airplane-0039-ILSVRC2012-val-00037801.png,0.0,-9.303635,-0.11454886,-6.497665
alexnet_w1_mlp_simclrhn_probe2,1,40,NaN,knife,airplane,0,0040_sty_dnn_0_airplane_00_airplane-0040-ILSVRC2012-val-00039213.png,airplane-0040-ILSVRC2012-val-00039213.png,0.0,-2.2719445,0.020456918,-1.6209728
alexnet_w1_mlp_simclrhn_probe2,1,41,NaN,knife,airplane,0,0041_sty_dnn_0_airplane_00_airplane-0041-ILSVRC2012-val-00040136.png,airplane-0041-ILSVRC2012-val-00040136.png,0.0,-3.4645565,0.0011292398,-2.45061
alexnet_w1_mlp_simclrhn_probe2,1,42,NaN,bicycle,airplane,0,0042_sty_dnn_0_airplane_00_airplane-0042-ILSVRC2012-val-00040547.png,airplane-0042-ILSVRC2012-val-00040547.png,0.0,-9.631914,-1.04177,-6.074149
alexnet_w1_mlp_simclrhn_probe2,1,43,NaN,bear,airplane,0,0043_sty_dnn_0_airplane_00_airplane-0043-ILSVRC2012-val-00041518.png,airplane-0043-ILSVRC2012-val-00041518.png,0.0,-3.8186972,1.1540712,-3.5162783
alexnet_w1_mlp_simclrhn_probe2,1,44,NaN,truck,airplane,0,0044_sty_dnn_0_airplane_00_airplane-0044-ILSVRC2012-val-00043242.png,airplane-0044-ILSVRC2012-val-00043242.png,0.0,0.03690262,1.8162391,-1.2581809
alexnet_w1_mlp_simclrhn_probe2,1,45,NaN,oven,airplane,0,0045_sty_dnn_0_airplane_00_airplane-0045-ILSVRC2012-val-00044253.png,airplane-0045-ILSVRC2012-val-00044253.png,0.0,-3.3847318,-0.124879435,-2.3050637
alexnet_w1_mlp_simclrhn_probe2,1,46,NaN,bicycle,airplane,0,0046_sty_dnn_0_airplane_00_airplane-0046-ILSVRC2012-val-00046862.png,airplane-0046-ILSVRC2012-val-00046862.png,0.0,-3.3722534,0.2719894,-2.5768688
alexnet_w1_mlp_simclrhn_probe2,1,47,NaN,oven,airplane,0,0047_sty_dnn_0_airplane_00_airplane-0047-ILSVRC2012-val-00046971.png,airplane-0047-ILSVRC2012-val-00046971.png,0.0,-2.0645838,-0.9048003,-0.8200908
alexnet_w1_mlp_simclrhn_probe2,1,48,NaN,oven,airplane,0,0048_sty_dnn_0_airplane_00_airplane-0048-ILSVRC2012-val-00047829.png,airplane-0048-ILSVRC2012-val-00047829.png,0.0,-2.4993048,2.6771321,-3.6602936
alexnet_w1_mlp_simclrhn_probe2,1,49,NaN,bear,airplane,0,0049_sty_dnn_0_airplane_00_airplane-0049-ILSVRC2012-val-00048111.png,airplane-0049-ILSVRC2012-val-00048111.png,0.0,-3.2857294,0.039575562,-2.3513458
alexnet_w1_mlp_simclrhn_probe2,1,50,NaN,bear,airplane,0,0050_sty_dnn_0_airplane_00_airplane-0050-ILSVRC2012-val-00049097.png,airplane-0050-ILSVRC2012-val-00049097.png,0.0,-0.74084514,-0.2768556,-0.32809016
alexnet_w1_mlp_simclrhn_probe2,1,51,NaN,bicycle,bear,0,0051_sty_dnn_0_bear_00_bear-0003-ILSVRC2012-val-00003044.png,bear-0003-ILSVRC2012-val-00003044.png,0.0,-9.5382395,-1.1563818,-5.9268684
alexnet_w1_mlp_simclrhn_probe2,1,52,NaN,bear,bear,0,0052_sty_dnn_0_bear_00_bear-0005-ILSVRC2012-val-00006703.png,bear-0005-ILSVRC2012-val-00006703.png,1.0,-0.8716408,-1.3619155,0.34667656
alexnet_w1_mlp_simclrhn_probe2,1,53,NaN,bicycle,bear,0,0053_sty_dnn_0_bear_00_bear-0009-ILSVRC2012-val-00011967.png,bear-0009-ILSVRC2012-val-00011967.png,0.0,-2.1827211,0.13523266,-1.639041
alexnet_w1_mlp_simclrhn_probe2,1,54,NaN,bear,bear,0,0054_sty_dnn_0_bear_00_bear-0010-ILSVRC2012-val-00013390.png,bear-0010-ILSVRC2012-val-00013390.png,1.0,1.0409915,0.6293166,0.29109812
alexnet_w1_mlp_simclrhn_probe2,1,55,NaN,elephant,bear,0,0055_sty_dnn_0_bear_00_bear-0021-ILSVRC2012-val-00031253.png,bear-0021-ILSVRC2012-val-00031253.png,0.0,1.3366197,1.3856854,-0.034694698
alexnet_w1_mlp_simclrhn_probe2,1,56,NaN,knife,bear,0,0056_sty_dnn_0_bear_00_bear-0031-ILSVRC2012-val-00039777.png,bear-0031-ILSVRC2012-val-00039777.png,0.0,-5.680396,-1.4941393,-2.9601307
alexnet_w1_mlp_simclrhn_probe2,1,57,NaN,elephant,bear,0,0057_sty_dnn_0_bear_00_bear-0035-ILSVRC2012-val-00042274.png,bear-0035-ILSVRC2012-val-00042274.png,0.0,-1.3925568,0.49089044,-1.3317983
alexnet_w1_mlp_simclrhn_probe2,1,58,NaN,knife,bear,0,0058_sty_dnn_0_bear_00_bear-0043-ILSVRC2012-val-00046763.png,bear-0043-ILSVRC2012-val-00046763.png,0.0,-1.0843,0.18699452,-0.89894104
alexnet_w1_mlp_simclrhn_probe2,1,59,NaN,elephant,bear,0,0059_sty_dnn_0_bear_00_bear-0049-ILSVRC2012-val-00049822.png,bear-0049-ILSVRC2012-val-00049822.png,0.0,-0.9164171,0.8922943,-1.2789521
alexnet_w1_mlp_simclrhn_probe2,1,60,NaN,elephant,bear,0,0060_sty_dnn_0_bear_00_bear-0052-ILSVRC2012-val-00000865.png,bear-0052-ILSVRC2012-val-00000865.png,0.0,3.4607282,3.8958168,-0.30765414
alexnet_w1_mlp_simclrhn_probe2,1,61,NaN,chair,bear,0,0061_sty_dnn_0_bear_00_bear-0056-ILSVRC2012-val-00007093.png,bear-0056-ILSVRC2012-val-00007093.png,0.0,-7.808977,-0.4118096,-5.2305875
alexnet_w1_mlp_simclrhn_probe2,1,62,NaN,bear,bear,0,0062_sty_dnn_0_bear_00_bear-0058-ILSVRC2012-val-00011726.png,bear-0058-ILSVRC2012-val-00011726.png,1.0,0.987665,-0.40811402,0.9869648
alexnet_w1_mlp_simclrhn_probe2,1,63,NaN,bear,bear,0,0063_sty_dnn_0_bear_00_bear-0062-ILSVRC2012-val-00014029.png,bear-0062-ILSVRC2012-val-00014029.png,1.0,0.5039902,0.06114821,0.31313655
alexnet_w1_mlp_simclrhn_probe2,1,64,NaN,knife,bear,0,0064_sty_dnn_0_bear_00_bear-0064-ILSVRC2012-val-00016050.png,bear-0064-ILSVRC2012-val-00016050.png,0.0,-3.6654506,-0.4991408,-2.2389193
alexnet_w1_mlp_simclrhn_probe2,1,65,NaN,bottle,bear,0,0065_sty_dnn_0_bear_00_bear-0066-ILSVRC2012-val-00016621.png,bear-0066-ILSVRC2012-val-00016621.png,0.0,-9.929621,-0.9639705,-6.3396726
alexnet_w1_mlp_simclrhn_probe2,1,66,NaN,elephant,bear,0,0066_sty_dnn_0_bear_00_bear-0067-ILSVRC2012-val-00017273.png,bear-0067-ILSVRC2012-val-00017273.png,0.0,-1.4658117,0.1118065,-1.1155446
alexnet_w1_mlp_simclrhn_probe2,1,67,NaN,bottle,bear,0,0067_sty_dnn_0_bear_00_bear-0069-ILSVRC2012-val-00018788.png,bear-0069-ILSVRC2012-val-00018788.png,0.0,-6.962752,-1.0558757,-4.176792
alexnet_w1_mlp_simclrhn_probe2,1,68,NaN,elephant,bear,0,0068_sty_dnn_0_bear_00_bear-0071-ILSVRC2012-val-00020050.png,bear-0071-ILSVRC2012-val-00020050.png,0.0,0.12425879,0.12755427,-0.002330257
alexnet_w1_mlp_simclrhn_probe2,1,69,NaN,bicycle,bear,0,0069_sty_dnn_0_bear_00_bear-0073-ILSVRC2012-val-00024289.png,bear-0073-ILSVRC2012-val-00024289.png,0.0,-6.5476913,-0.85327554,-4.0265603
alexnet_w1_mlp_simclrhn_probe2,1,70,NaN,knife,bear,0,0070_sty_dnn_0_bear_00_bear-0074-ILSVRC2012-val-00026962.png,bear-0074-ILSVRC2012-val-00026962.png,0.0,-6.6718,-0.14968607,-4.611831
alexnet_w1_mlp_simclrhn_probe2,1,71,NaN,cat,bear,0,0071_sty_dnn_0_bear_00_bear-0078-ILSVRC2012-val-00030951.png,bear-0078-ILSVRC2012-val-00030951.png,0.0,-1.5731459,0.2991866,-1.323939
alexnet_w1_mlp_simclrhn_probe2,1,72,NaN,oven,bear,0,0072_sty_dnn_0_bear_00_bear-0085-ILSVRC2012-val-00035292.png,bear-0085-ILSVRC2012-val-00035292.png,0.0,-1.9684738,-0.45079994,-1.0731575
alexnet_w1_mlp_simclrhn_probe2,1,73,NaN,cat,bear,0,0073_sty_dnn_0_bear_00_bear-0091-ILSVRC2012-val-00041813.png,bear-0091-ILSVRC2012-val-00041813.png,0.0,-3.9343448,-1.0404004,-2.0463276
alexnet_w1_mlp_simclrhn_probe2,1,74,NaN,elephant,bear,0,0074_sty_dnn_0_bear_00_bear-0094-ILSVRC2012-val-00043648.png,bear-0094-ILSVRC2012-val-00043648.png,0.0,-0.4365192,1.3171623,-1.2400401
alexnet_w1_mlp_simclrhn_probe2,1,75,NaN,chair,bear,0,0075_sty_dnn_0_bear_00_bear-0106-ILSVRC2012-val-00007578.png,bear-0106-ILSVRC2012-val-00007578.png,0.0,-3.8982635,0.3730895,-3.0203025
alexnet_w1_mlp_simclrhn_probe2,1,76,NaN,bottle,bear,0,0076_sty_dnn_0_bear_00_bear-0112-ILSVRC2012-val-00016340.png,bear-0112-ILSVRC2012-val-00016340.png,0.0,-3.5003808,0.33845645,-2.7144678
alexnet_w1_mlp_simclrhn_probe2,1,77,NaN,bear,bear,0,0077_sty_dnn_0_bear_00_bear-0113-ILSVRC2012-val-00016459.png,bear-0113-ILSVRC2012-val-00016459.png,1.0,1.7532606,1.1283175,0.44190153
alexnet_w1_mlp_simclrhn_probe2,1,78,NaN,elephant,bear,0,0078_sty_dnn_0_bear_00_bear-0114-ILSVRC2012-val-00017605.png,bear-0114-ILSVRC2012-val-00017605.png,0.0,-0.38496712,1.539231,-1.3606135
alexnet_w1_mlp_simclrhn_probe2,1,79,NaN,cat,bear,0,0079_sty_dnn_0_bear_00_bear-0116-ILSVRC2012-val-00020332.png,bear-0116-ILSVRC2012-val-00020332.png,0.0,-2.1744938,-1.3340727,-0.5942674
alexnet_w1_mlp_simclrhn_probe2,1,80,NaN,elephant,bear,0,0080_sty_dnn_0_bear_00_bear-0125-ILSVRC2012-val-00028222.png,bear-0125-ILSVRC2012-val-00028222.png,0.0,-0.27954036,0.23631355,-0.3647638
alexnet_w1_mlp_simclrhn_probe2,1,81,NaN,oven,bear,0,0081_sty_dnn_0_bear_00_bear-0129-ILSVRC2012-val-00030485.png,bear-0129-ILSVRC2012-val-00030485.png,0.0,-1.824655,1.3082304,-2.2152846
alexnet_w1_mlp_simclrhn_probe2,1,82,NaN,bear,bear,0,0082_sty_dnn_0_bear_00_bear-0131-ILSVRC2012-val-00031877.png,bear-0131-ILSVRC2012-val-00031877.png,1.0,-0.7494949,-0.7868237,0.026395435
alexnet_w1_mlp_simclrhn_probe2,1,83,NaN,knife,bear,0,0083_sty_dnn_0_bear_00_bear-0132-ILSVRC2012-val-00036763.png,bear-0132-ILSVRC2012-val-00036763.png,0.0,-8.308886,-0.2712449,-5.6834702
alexnet_w1_mlp_simclrhn_probe2,1,84,NaN,bicycle,bear,0,0084_sty_dnn_0_bear_00_bear-0139-ILSVRC2012-val-00041156.png,bear-0139-ILSVRC2012-val-00041156.png,0.0,-11.658798,2.0594077,-9.700237
alexnet_w1_mlp_simclrhn_probe2,1,85,NaN,elephant,bear,0,0085_sty_dnn_0_bear_00_bear-0141-ILSVRC2012-val-00042320.png,bear-0141-ILSVRC2012-val-00042320.png,0.0,-0.2625479,0.47522748,-0.52168596
alexnet_w1_mlp_simclrhn_probe2,1,86,NaN,oven,bear,0,0086_sty_dnn_0_bear_00_bear-0143-ILSVRC2012-val-00044126.png,bear-0143-ILSVRC2012-val-00044126.png,0.0,-1.8222725,0.52568936,-1.6602598
alexnet_w1_mlp_simclrhn_probe2,1,87,NaN,clock,bear,0,0087_sty_dnn_0_bear_00_bear-0149-ILSVRC2012-val-00048105.png,bear-0149-ILSVRC2012-val-00048105.png,0.0,-3.3773413,0.0681834,-2.436354
alexnet_w1_mlp_simclrhn_probe2,1,88,NaN,cat,bear,0,0088_sty_dnn_0_bear_00_bear-0154-ILSVRC2012-val-00003499.png,bear-0154-ILSVRC2012-val-00003499.png,0.0,-5.0141764,-0.8101592,-2.9726892
alexnet_w1_mlp_simclrhn_probe2,1,89,NaN,knife,bear,0,0089_sty_dnn_0_bear_00_bear-0160-ILSVRC2012-val-00013052.png,bear-0160-ILSVRC2012-val-00013052.png,0.0,-4.01464,-0.979896,-2.1458879
alexnet_w1_mlp_simclrhn_probe2,1,90,NaN,oven,bear,0,0090_sty_dnn_0_bear_00_bear-0163-ILSVRC2012-val-00016513.png,bear-0163-ILSVRC2012-val-00016513.png,0.0,-3.6976488,-0.31601787,-2.391174
alexnet_w1_mlp_simclrhn_probe2,1,91,NaN,bicycle,bear,0,0091_sty_dnn_0_bear_00_bear-0164-ILSVRC2012-val-00018303.png,bear-0164-ILSVRC2012-val-00018303.png,0.0,-3.657433,-0.37844193,-2.318597
alexnet_w1_mlp_simclrhn_probe2,1,92,NaN,oven,bear,0,0092_sty_dnn_0_bear_00_bear-0165-ILSVRC2012-val-00019901.png,bear-0165-ILSVRC2012-val-00019901.png,0.0,-2.4418707,-1.3677238,-0.75953656
alexnet_w1_mlp_simclrhn_probe2,1,93,NaN,knife,bear,0,0093_sty_dnn_0_bear_00_bear-0166-ILSVRC2012-val-00022111.png,bear-0166-ILSVRC2012-val-00022111.png,0.0,-3.6290154,-1.0980072,-1.7896931
alexnet_w1_mlp_simclrhn_probe2,1,94,NaN,elephant,bear,0,0094_sty_dnn_0_bear_00_bear-0167-ILSVRC2012-val-00022112.png,bear-0167-ILSVRC2012-val-00022112.png,0.0,-0.7358588,0.16269071,-0.63537043
alexnet_w1_mlp_simclrhn_probe2,1,95,NaN,cat,bear,0,0095_sty_dnn_0_bear_00_bear-0168-ILSVRC2012-val-00022698.png,bear-0168-ILSVRC2012-val-00022698.png,0.0,0.28478548,0.5673304,-0.19978945
alexnet_w1_mlp_simclrhn_probe2,1,96,NaN,oven,bear,0,0096_sty_dnn_0_bear_00_bear-0180-ILSVRC2012-val-00034637.png,bear-0180-ILSVRC2012-val-00034637.png,0.0,-2.4605894,1.306389,-2.663656
alexnet_w1_mlp_simclrhn_probe2,1,97,NaN,oven,bear,0,0097_sty_dnn_0_bear_00_bear-0184-ILSVRC2012-val-00038961.png,bear-0184-ILSVRC2012-val-00038961.png,0.0,-9.676918,0.5982065,-7.26561
alexnet_w1_mlp_simclrhn_probe2,1,98,NaN,bottle,bear,0,0098_sty_dnn_0_bear_00_bear-0188-ILSVRC2012-val-00043016.png,bear-0188-ILSVRC2012-val-00043016.png,0.0,-4.010758,-0.73443234,-2.3167121
alexnet_w1_mlp_simclrhn_probe2,1,99,NaN,cat,bear,0,0099_sty_dnn_0_bear_00_bear-0191-ILSVRC2012-val-00044349.png,bear-0191-ILSVRC2012-val-00044349.png,0.0,-4.07257,-1.5893593,-1.755895
alexnet_w1_mlp_simclrhn_probe2,1,100,NaN,elephant,bear,0,0100_sty_dnn_0_bear_00_bear-0195-ILSVRC2012-val-00045672.png,bear-0195-ILSVRC2012-val-00045672.png,0.0,-2.03304,-0.590928,-1.0197271
alexnet_w1_mlp_simclrhn_probe2,1,101,NaN,airplane,bicycle,0,0101_sty_dnn_0_bicycle_00_bicycle-0005-ILSVRC2012-val-00005274.png,bicycle-0005-ILSVRC2012-val-00005274.png,0.0,-1.8071834,0.08809018,-1.3401608
alexnet_w1_mlp_simclrhn_probe2,1,102,NaN,bear,bicycle,0,0102_sty_dnn_0_bicycle_00_bicycle-0007-ILSVRC2012-val-00006395.png,bicycle-0007-ILSVRC2012-val-00006395.png,0.0,-3.2540345,0.7229631,-2.812162
alexnet_w1_mlp_simclrhn_probe2,1,103,NaN,bicycle,bicycle,0,0103_sty_dnn_0_bicycle_00_bicycle-0008-ILSVRC2012-val-00008007.png,bicycle-0008-ILSVRC2012-val-00008007.png,1.0,-1.1775193,-2.1420035,0.68199337
alexnet_w1_mlp_simclrhn_probe2,1,104,NaN,bicycle,bicycle,0,0104_sty_dnn_0_bicycle_00_bicycle-0010-ILSVRC2012-val-00010544.png,bicycle-0010-ILSVRC2012-val-00010544.png,1.0,2.151734,0.5266784,1.149088
alexnet_w1_mlp_simclrhn_probe2,1,105,NaN,knife,bicycle,0,0105_sty_dnn_0_bicycle_00_bicycle-0011-ILSVRC2012-val-00011821.png,bicycle-0011-ILSVRC2012-val-00011821.png,0.0,-3.163703,-1.2683637,-1.3402072
alexnet_w1_mlp_simclrhn_probe2,1,106,NaN,bicycle,bicycle,0,0106_sty_dnn_0_bicycle_00_bicycle-0013-ILSVRC2012-val-00012667.png,bicycle-0013-ILSVRC2012-val-00012667.png,1.0,3.5192156,-2.028766,3.9230154
alexnet_w1_mlp_simclrhn_probe2,1,107,NaN,knife,bicycle,0,0107_sty_dnn_0_bicycle_00_bicycle-0014-ILSVRC2012-val-00015483.png,bicycle-0014-ILSVRC2012-val-00015483.png,0.0,-1.7924949,-1.0014722,-0.5593375
alexnet_w1_mlp_simclrhn_probe2,1,108,NaN,bicycle,bicycle,0,0108_sty_dnn_0_bicycle_00_bicycle-0015-ILSVRC2012-val-00015618.png,bicycle-0015-ILSVRC2012-val-00015618.png,1.0,-0.008989617,-2.1778064,1.5335851
alexnet_w1_mlp_simclrhn_probe2,1,109,NaN,elephant,bicycle,0,0109_sty_dnn_0_bicycle_00_bicycle-0016-ILSVRC2012-val-00016532.png,bicycle-0016-ILSVRC2012-val-00016532.png,0.0,-2.5225563,0.71145266,-2.2867897
alexnet_w1_mlp_simclrhn_probe2,1,110,NaN,bicycle,bicycle,0,0110_sty_dnn_0_bicycle_00_bicycle-0018-ILSVRC2012-val-00018975.png,bicycle-0018-ILSVRC2012-val-00018975.png,1.0,1.5209856,-3.6656349,3.6674948
alexnet_w1_mlp_simclrhn_probe2,1,111,NaN,bicycle,bicycle,0,0111_sty_dnn_0_bicycle_00_bicycle-0020-ILSVRC2012-val-00022027.png,bicycle-0020-ILSVRC2012-val-00022027.png,1.0,0.99112844,0.5091975,0.34077665
alexnet_w1_mlp_simclrhn_probe2,1,112,NaN,bicycle,bicycle,0,0112_sty_dnn_0_bicycle_00_bicycle-0022-ILSVRC2012-val-00023266.png,bicycle-0022-ILSVRC2012-val-00023266.png,1.0,1.3803906,0.56136584,0.579138
alexnet_w1_mlp_simclrhn_probe2,1,113,NaN,oven,bicycle,0,0113_sty_dnn_0_bicycle_00_bicycle-0024-ILSVRC2012-val-00025915.png,bicycle-0024-ILSVRC2012-val-00025915.png,0.0,-4.3783813,1.3807194,-4.0722995
alexnet_w1_mlp_simclrhn_probe2,1,114,NaN,bicycle,bicycle,0,0114_sty_dnn_0_bicycle_00_bicycle-0026-ILSVRC2012-val-00026292.png,bicycle-0026-ILSVRC2012-val-00026292.png,1.0,1.467008,-1.261003,1.9289953
alexnet_w1_mlp_simclrhn_probe2,1,115,NaN,keyboard,bicycle,0,0115_sty_dnn_0_bicycle_00_bicycle-0030-ILSVRC2012-val-00027620.png,bicycle-0030-ILSVRC2012-val-00027620.png,0.0,-3.7955174,-1.0226884,-1.9606862
alexnet_w1_mlp_simclrhn_probe2,1,116,NaN,airplane,bicycle,0,0116_sty_dnn_0_bicycle_00_bicycle-0032-ILSVRC2012-val-00030070.png,bicycle-0032-ILSVRC2012-val-00030070.png,0.0,-3.1987953,-0.95850646,-1.5841234
alexnet_w1_mlp_simclrhn_probe2,1,117,NaN,bicycle,bicycle,0,0117_sty_dnn_0_bicycle_00_bicycle-0033-ILSVRC2012-val-00031498.png,bicycle-0033-ILSVRC2012-val-00031498.png,1.0,0.13966122,-1.4673947,1.1363602
alexnet_w1_mlp_simclrhn_probe2,1,118,NaN,bicycle,bicycle,0,0118_sty_dnn_0_bicycle_00_bicycle-0035-ILSVRC2012-val-00033559.png,bicycle-0035-ILSVRC2012-val-00033559.png,1.0,3.8170733,-0.91774344,3.348021
alexnet_w1_mlp_simclrhn_probe2,1,119,NaN,bicycle,bicycle,0,0119_sty_dnn_0_bicycle_00_bicycle-0037-ILSVRC2012-val-00036009.png,bicycle-0037-ILSVRC2012-val-00036009.png,1.0,0.7494631,-1.8356335,1.8279394
alexnet_w1_mlp_simclrhn_probe2,1,120,NaN,chair,bicycle,0,0120_sty_dnn_0_bicycle_00_bicycle-0038-ILSVRC2012-val-00036903.png,bicycle-0038-ILSVRC2012-val-00036903.png,0.0,-2.8295622,0.29016373,-2.2059793
alexnet_w1_mlp_simclrhn_probe2,1,121,NaN,bicycle,bicycle,0,0121_sty_dnn_0_bicycle_00_bicycle-0039-ILSVRC2012-val-00037292.png,bicycle-0039-ILSVRC2012-val-00037292.png,1.0,2.371468,0.31808728,1.4519595
alexnet_w1_mlp_simclrhn_probe2,1,122,NaN,bicycle,bicycle,0,0122_sty_dnn_0_bicycle_00_bicycle-0040-ILSVRC2012-val-00037433.png,bicycle-0040-ILSVRC2012-val-00037433.png,1.0,0.95940804,-1.288311,1.5893774
alexnet_w1_mlp_simclrhn_probe2,1,123,NaN,bicycle,bicycle,0,0123_sty_dnn_0_bicycle_00_bicycle-0043-ILSVRC2012-val-00038415.png,bicycle-0043-ILSVRC2012-val-00038415.png,1.0,-0.07893169,-0.35217068,0.19320914
alexnet_w1_mlp_simclrhn_probe2,1,124,NaN,oven,bicycle,0,0124_sty_dnn_0_bicycle_00_bicycle-0044-ILSVRC2012-val-00040027.png,bicycle-0044-ILSVRC2012-val-00040027.png,0.0,-0.906681,0.23304954,-0.80591124
alexnet_w1_mlp_simclrhn_probe2,1,125,NaN,bicycle,bicycle,0,0125_sty_dnn_0_bicycle_00_bicycle-0046-ILSVRC2012-val-00042496.png,bicycle-0046-ILSVRC2012-val-00042496.png,1.0,-0.20680362,-0.25043863,0.030854613
alexnet_w1_mlp_simclrhn_probe2,1,126,NaN,bicycle,bicycle,0,0126_sty_dnn_0_bicycle_00_bicycle-0047-ILSVRC2012-val-00043435.png,bicycle-0047-ILSVRC2012-val-00043435.png,1.0,1.9637218,0.17778477,1.2628481
alexnet_w1_mlp_simclrhn_probe2,1,127,NaN,bicycle,bicycle,0,0127_sty_dnn_0_bicycle_00_bicycle-0048-ILSVRC2012-val-00045400.png,bicycle-0048-ILSVRC2012-val-00045400.png,1.0,0.41506192,0.12539199,0.20482758
alexnet_w1_mlp_simclrhn_probe2,1,128,NaN,oven,bicycle,0,0128_sty_dnn_0_bicycle_00_bicycle-0050-ILSVRC2012-val-00049382.png,bicycle-0050-ILSVRC2012-val-00049382.png,0.0,-2.0861664,-1.063595,-0.7230671
alexnet_w1_mlp_simclrhn_probe2,1,129,NaN,bicycle,bicycle,0,0129_sty_dnn_0_bicycle_00_bicycle-0054-ILSVRC2012-val-00004147.png,bicycle-0054-ILSVRC2012-val-00004147.png,1.0,1.4579172,-1.2773198,1.9341048
alexnet_w1_mlp_simclrhn_probe2,1,130,NaN,bicycle,bicycle,0,0130_sty_dnn_0_bicycle_00_bicycle-0056-ILSVRC2012-val-00005330.png,bicycle-0056-ILSVRC2012-val-00005330.png,1.0,-0.28017724,-0.4646895,0.13046987
alexnet_w1_mlp_simclrhn_probe2,1,131,NaN,bicycle,bicycle,0,0131_sty_dnn_0_bicycle_00_bicycle-0059-ILSVRC2012-val-00011329.png,bicycle-0059-ILSVRC2012-val-00011329.png,1.0,0.4398702,-2.2386317,1.8939868
alexnet_w1_mlp_simclrhn_probe2,1,132,NaN,bicycle,bicycle,0,0132_sty_dnn_0_bicycle_00_bicycle-0060-ILSVRC2012-val-00011330.png,bicycle-0060-ILSVRC2012-val-00011330.png,1.0,0.24668783,-0.4473114,0.49073157
alexnet_w1_mlp_simclrhn_probe2,1,133,NaN,bicycle,bicycle,0,0133_sty_dnn_0_bicycle_00_bicycle-0061-ILSVRC2012-val-00012096.png,bicycle-0061-ILSVRC2012-val-00012096.png,1.0,0.12952806,-0.21544968,0.2439361
alexnet_w1_mlp_simclrhn_probe2,1,134,NaN,oven,bicycle,0,0134_sty_dnn_0_bicycle_00_bicycle-0062-ILSVRC2012-val-00015867.png,bicycle-0062-ILSVRC2012-val-00015867.png,0.0,-1.5407472,0.37101486,-1.3518199
alexnet_w1_mlp_simclrhn_probe2,1,135,NaN,clock,bicycle,0,0135_sty_dnn_0_bicycle_00_bicycle-0064-ILSVRC2012-val-00017103.png,bicycle-0064-ILSVRC2012-val-00017103.png,0.0,0.049221635,0.15335782,-0.0736354
alexnet_w1_mlp_simclrhn_probe2,1,136,NaN,knife,bicycle,0,0136_sty_dnn_0_bicycle_00_bicycle-0067-ILSVRC2012-val-00018304.png,bicycle-0067-ILSVRC2012-val-00018304.png,0.0,-2.6921425,-1.8586743,-0.589351
alexnet_w1_mlp_simclrhn_probe2,1,137,NaN,bear,bicycle,0,0137_sty_dnn_0_bicycle_00_bicycle-0070-ILSVRC2012-val-00020631.png,bicycle-0070-ILSVRC2012-val-00020631.png,0.0,-4.231858,0.7598764,-3.529689
alexnet_w1_mlp_simclrhn_probe2,1,138,NaN,bicycle,bicycle,0,0138_sty_dnn_0_bicycle_00_bicycle-0073-ILSVRC2012-val-00027449.png,bicycle-0073-ILSVRC2012-val-00027449.png,1.0,-0.3167544,-2.6520104,1.6512754
alexnet_w1_mlp_simclrhn_probe2,1,139,NaN,knife,bicycle,0,0139_sty_dnn_0_bicycle_00_bicycle-0074-ILSVRC2012-val-00028824.png,bicycle-0074-ILSVRC2012-val-00028824.png,0.0,-1.4002553,-1.099774,-0.21247238
alexnet_w1_mlp_simclrhn_probe2,1,140,NaN,bicycle,bicycle,0,0140_sty_dnn_0_bicycle_00_bicycle-0077-ILSVRC2012-val-00030112.png,bicycle-0077-ILSVRC2012-val-00030112.png,1.0,0.9992537,-0.30644208,0.92326635
alexnet_w1_mlp_simclrhn_probe2,1,141,NaN,bicycle,bicycle,0,0141_sty_dnn_0_bicycle_00_bicycle-0078-ILSVRC2012-val-00030892.png,bicycle-0078-ILSVRC2012-val-00030892.png,1.0,2.541112,0.793162,1.2359873
alexnet_w1_mlp_simclrhn_probe2,1,142,NaN,bicycle,bicycle,0,0142_sty_dnn_0_bicycle_00_bicycle-0079-ILSVRC2012-val-00031485.png,bicycle-0079-ILSVRC2012-val-00031485.png,1.0,-0.58078754,-0.98892,0.2885932
alexnet_w1_mlp_simclrhn_probe2,1,143,NaN,cat,bicycle,0,0143_sty_dnn_0_bicycle_00_bicycle-0080-ILSVRC2012-val-00032009.png,bicycle-0080-ILSVRC2012-val-00032009.png,0.0,-2.8579264,-1.6443691,-0.8581146
alexnet_w1_mlp_simclrhn_probe2,1,144,NaN,bicycle,bicycle,0,0144_sty_dnn_0_bicycle_00_bicycle-0081-ILSVRC2012-val-00032967.png,bicycle-0081-ILSVRC2012-val-00032967.png,1.0,1.1396012,-1.5220656,1.8820827
alexnet_w1_mlp_simclrhn_probe2,1,145,NaN,bicycle,bicycle,0,0145_sty_dnn_0_bicycle_00_bicycle-0085-ILSVRC2012-val-00037438.png,bicycle-0085-ILSVRC2012-val-00037438.png,1.0,-0.37349474,-0.9163215,0.3838365
alexnet_w1_mlp_simclrhn_probe2,1,146,NaN,bicycle,bicycle,0,0146_sty_dnn_0_bicycle_00_bicycle-0089-ILSVRC2012-val-00042393.png,bicycle-0089-ILSVRC2012-val-00042393.png,1.0,1.7988952,-1.4323686,2.2848487
alexnet_w1_mlp_simclrhn_probe2,1,147,NaN,cat,bicycle,0,0147_sty_dnn_0_bicycle_00_bicycle-0092-ILSVRC2012-val-00043207.png,bicycle-0092-ILSVRC2012-val-00043207.png,0.0,-3.079947,-1.2017397,-1.3280932
alexnet_w1_mlp_simclrhn_probe2,1,148,NaN,bicycle,bicycle,0,0148_sty_dnn_0_bicycle_00_bicycle-0094-ILSVRC2012-val-00044080.png,bicycle-0094-ILSVRC2012-val-00044080.png,1.0,6.6217875,-0.11002789,4.7601123
alexnet_w1_mlp_simclrhn_probe2,1,149,NaN,bicycle,bicycle,0,0149_sty_dnn_0_bicycle_00_bicycle-0096-ILSVRC2012-val-00045152.png,bicycle-0096-ILSVRC2012-val-00045152.png,1.0,1.2560295,-1.4659333,1.9247185
alexnet_w1_mlp_simclrhn_probe2,1,150,NaN,bicycle,bicycle,0,0150_sty_dnn_0_bicycle_00_bicycle-0100-ILSVRC2012-val-00049750.png,bicycle-0100-ILSVRC2012-val-00049750.png,1.0,0.52247405,-0.45636588,0.6921444
alexnet_w1_mlp_simclrhn_probe2,1,151,NaN,knife,bird,0,0151_sty_dnn_0_bird_00_bird-0009-ILSVRC2012-val-00007530.png,bird-0009-ILSVRC2012-val-00007530.png,0.0,-7.4748816,-0.7597095,-4.748344
alexnet_w1_mlp_simclrhn_probe2,1,152,NaN,bicycle,bird,0,0152_sty_dnn_0_bird_00_bird-0045-ILSVRC2012-val-00045547.png,bird-0045-ILSVRC2012-val-00045547.png,0.0,-2.8310986,-1.0285493,-1.2745948
alexnet_w1_mlp_simclrhn_probe2,1,153,NaN,bird,bird,0,0153_sty_dnn_0_bird_00_bird-0119-ILSVRC2012-val-00016252.png,bird-0119-ILSVRC2012-val-00016252.png,1.0,-1.266361,-2.0463173,0.5515124
alexnet_w1_mlp_simclrhn_probe2,1,154,NaN,oven,bird,0,0154_sty_dnn_0_bird_00_bird-0122-ILSVRC2012-val-00019236.png,bird-0122-ILSVRC2012-val-00019236.png,0.0,-1.5252417,1.0058987,-1.7897866
alexnet_w1_mlp_simclrhn_probe2,1,155,NaN,bird,bird,0,0155_sty_dnn_0_bird_00_bird-0157-ILSVRC2012-val-00005336.png,bird-0157-ILSVRC2012-val-00005336.png,1.0,-0.19970778,-0.82039493,0.4388921
alexnet_w1_mlp_simclrhn_probe2,1,156,NaN,clock,bird,0,0156_sty_dnn_0_bird_00_bird-0175-ILSVRC2012-val-00018699.png,bird-0175-ILSVRC2012-val-00018699.png,0.0,-11.758843,-0.3063558,-8.098132
alexnet_w1_mlp_simclrhn_probe2,1,157,NaN,bottle,bird,0,0157_sty_dnn_0_bird_00_bird-0228-ILSVRC2012-val-00017712.png,bird-0228-ILSVRC2012-val-00017712.png,0.0,-3.6177518,-1.7006226,-1.3556151
alexnet_w1_mlp_simclrhn_probe2,1,158,NaN,chair,bird,0,0158_sty_dnn_0_bird_00_bird-0238-ILSVRC2012-val-00030657.png,bird-0238-ILSVRC2012-val-00030657.png,0.0,-6.297076,0.5662909,-4.8531337
alexnet_w1_mlp_simclrhn_probe2,1,159,NaN,elephant,bird,0,0159_sty_dnn_0_bird_00_bird-0426-ILSVRC2012-val-00030017.png,bird-0426-ILSVRC2012-val-00030017.png,0.0,-1.8503714,1.3290293,-2.2481759
alexnet_w1_mlp_simclrhn_probe2,1,160,NaN,oven,bird,0,0160_sty_dnn_0_bird_00_bird-0486-ILSVRC2012-val-00037420.png,bird-0486-ILSVRC2012-val-00037420.png,0.0,-4.403959,-0.504661,-2.7572198
alexnet_w1_mlp_simclrhn_probe2,1,161,NaN,bear,bird,0,0161_sty_dnn_0_bird_00_bird-0513-ILSVRC2012-val-00013223.png,bird-0513-ILSVRC2012-val-00013223.png,0.0,-3.1588216,0.38811502,-2.5080628
alexnet_w1_mlp_simclrhn_probe2,1,162,NaN,bicycle,bird,0,0162_sty_dnn_0_bird_00_bird-0522-ILSVRC2012-val-00020730.png,bird-0522-ILSVRC2012-val-00020730.png,0.0,-2.5974865,-0.7141501,-1.33172
alexnet_w1_mlp_simclrhn_probe2,1,163,NaN,bird,bird,0,0163_sty_dnn_0_bird_00_bird-0532-ILSVRC2012-val-00028181.png,bird-0532-ILSVRC2012-val-00028181.png,1.0,-0.72338283,-1.3470702,0.44101357
alexnet_w1_mlp_simclrhn_probe2,1,164,NaN,oven,bird,0,0164_sty_dnn_0_bird_00_bird-0624-ILSVRC2012-val-00024514.png,bird-0624-ILSVRC2012-val-00024514.png,0.0,-3.110867,1.1861026,-3.0384161
alexnet_w1_mlp_simclrhn_probe2,1,165,NaN,bear,bird,0,0165_sty_dnn_0_bird_00_bird-0701-ILSVRC2012-val-00000075.png,bird-0701-ILSVRC2012-val-00000075.png,0.0,-1.1776149,0.5772506,-1.2408774
alexnet_w1_mlp_simclrhn_probe2,1,166,NaN,bird,bird,0,0166_sty_dnn_0_bird_00_bird-0752-ILSVRC2012-val-00001596.png,bird-0752-ILSVRC2012-val-00001596.png,1.0,-0.7895488,-2.111138,0.93450475
alexnet_w1_mlp_simclrhn_probe2,1,167,NaN,oven,bird,0,0167_sty_dnn_0_bird_00_bird-0754-ILSVRC2012-val-00002846.png,bird-0754-ILSVRC2012-val-00002846.png,0.0,-3.3229728,-1.5723085,-1.2379066
alexnet_w1_mlp_simclrhn_probe2,1,168,NaN,oven,bird,0,0168_sty_dnn_0_bird_00_bird-0822-ILSVRC2012-val-00025200.png,bird-0822-ILSVRC2012-val-00025200.png,0.0,-3.3627398,-0.31085294,-2.1580098
alexnet_w1_mlp_simclrhn_probe2,1,169,NaN,knife,bird,0,0169_sty_dnn_0_bird_00_bird-0896-ILSVRC2012-val-00046621.png,bird-0896-ILSVRC2012-val-00046621.png,0.0,-3.8331282,-0.88348097,-2.0857155
alexnet_w1_mlp_simclrhn_probe2,1,170,NaN,oven,bird,0,0170_sty_dnn_0_bird_00_bird-0995-ILSVRC2012-val-00046534.png,bird-0995-ILSVRC2012-val-00046534.png,0.0,-4.2688456,0.9394455,-3.682818
alexnet_w1_mlp_simclrhn_probe2,1,171,NaN,oven,bird,0,0171_sty_dnn_0_bird_00_bird-1052-ILSVRC2012-val-00003884.png,bird-1052-ILSVRC2012-val-00003884.png,0.0,-2.422035,0.7920756,-2.2727194
alexnet_w1_mlp_simclrhn_probe2,1,172,NaN,oven,bird,0,0172_sty_dnn_0_bird_00_bird-1093-ILSVRC2012-val-00044082.png,bird-1093-ILSVRC2012-val-00044082.png,0.0,-2.9512653,0.20237122,-2.2299578
alexnet_w1_mlp_simclrhn_probe2,1,173,NaN,bicycle,bird,0,0173_sty_dnn_0_bird_00_bird-1172-ILSVRC2012-val-00022442.png,bird-1172-ILSVRC2012-val-00022442.png,0.0,-2.6415439,-0.7262478,-1.3543189
alexnet_w1_mlp_simclrhn_probe2,1,174,NaN,cat,bird,0,0174_sty_dnn_0_bird_00_bird-1188-ILSVRC2012-val-00040014.png,bird-1188-ILSVRC2012-val-00040014.png,0.0,-1.7217817,-0.45725012,-0.8941589
alexnet_w1_mlp_simclrhn_probe2,1,175,NaN,oven,bird,0,0175_sty_dnn_0_bird_00_bird-1198-ILSVRC2012-val-00048142.png,bird-1198-ILSVRC2012-val-00048142.png,0.0,-2.7618635,0.5535597,-2.3443582
alexnet_w1_mlp_simclrhn_probe2,1,176,NaN,chair,bird,0,0176_sty_dnn_0_bird_00_bird-1256-ILSVRC2012-val-00005779.png,bird-1256-ILSVRC2012-val-00005779.png,0.0,-6.4989223,-0.48580217,-4.2519183
alexnet_w1_mlp_simclrhn_probe2,1,177,NaN,oven,bird,0,0177_sty_dnn_0_bird_00_bird-1274-ILSVRC2012-val-00025449.png,bird-1274-ILSVRC2012-val-00025449.png,0.0,-3.3273196,1.0924387,-3.125241
alexnet_w1_mlp_simclrhn_probe2,1,178,NaN,oven,bird,0,0178_sty_dnn_0_bird_00_bird-1326-ILSVRC2012-val-00025658.png,bird-1326-ILSVRC2012-val-00025658.png,0.0,-2.6174753,-0.55637264,-1.4574196
alexnet_w1_mlp_simclrhn_probe2,1,179,NaN,knife,bird,0,0179_sty_dnn_0_bird_00_bird-1394-ILSVRC2012-val-00040051.png,bird-1394-ILSVRC2012-val-00040051.png,0.0,-3.249115,-0.5041497,-1.9409837
alexnet_w1_mlp_simclrhn_probe2,1,180,NaN,elephant,bird,0,0180_sty_dnn_0_bird_00_bird-1452-ILSVRC2012-val-00002997.png,bird-1452-ILSVRC2012-val-00002997.png,0.0,-1.5866933,0.14819744,-1.226753
alexnet_w1_mlp_simclrhn_probe2,1,181,NaN,bicycle,bird,0,0181_sty_dnn_0_bird_00_bird-1551-ILSVRC2012-val-00000690.png,bird-1551-ILSVRC2012-val-00000690.png,0.0,-0.64450306,-0.11422734,-0.37496156
alexnet_w1_mlp_simclrhn_probe2,1,182,NaN,bottle,bird,0,0182_sty_dnn_0_bird_00_bird-1646-ILSVRC2012-val-00039398.png,bird-1646-ILSVRC2012-val-00039398.png,0.0,-2.0083122,0.07070761,-1.470089
alexnet_w1_mlp_simclrhn_probe2,1,183,NaN,bird,bird,0,0183_sty_dnn_0_bird_00_bird-1861-ILSVRC2012-val-00007811.png,bird-1861-ILSVRC2012-val-00007811.png,1.0,-0.8728844,-1.0453151,0.121926956
alexnet_w1_mlp_simclrhn_probe2,1,184,NaN,bicycle,bird,0,0184_sty_dnn_0_bird_00_bird-1865-ILSVRC2012-val-00009672.png,bird-1865-ILSVRC2012-val-00009672.png,0.0,-2.4011276,1.6845038,-2.8889778
alexnet_w1_mlp_simclrhn_probe2,1,185,NaN,bear,bird,0,0185_sty_dnn_0_bird_00_bird-1913-ILSVRC2012-val-00012475.png,bird-1913-ILSVRC2012-val-00012475.png,0.0,-1.5023686,-0.23621142,-0.8953083
alexnet_w1_mlp_simclrhn_probe2,1,186,NaN,elephant,bird,0,0186_sty_dnn_0_bird_00_bird-1941-ILSVRC2012-val-00042829.png,bird-1941-ILSVRC2012-val-00042829.png,0.0,-1.8322779,-1.3346901,-0.3518477
alexnet_w1_mlp_simclrhn_probe2,1,187,NaN,bear,bird,0,0187_sty_dnn_0_bird_00_bird-1971-ILSVRC2012-val-00023024.png,bird-1971-ILSVRC2012-val-00023024.png,0.0,-3.1632812,2.1055188,-3.725604
alexnet_w1_mlp_simclrhn_probe2,1,188,NaN,elephant,bird,0,0188_sty_dnn_0_bird_00_bird-2011-ILSVRC2012-val-00008842.png,bird-2011-ILSVRC2012-val-00008842.png,0.0,-2.7249522,0.18802017,-2.0597825
alexnet_w1_mlp_simclrhn_probe2,1,189,NaN,bear,bird,0,0189_sty_dnn_0_bird_00_bird-2082-ILSVRC2012-val-00036457.png,bird-2082-ILSVRC2012-val-00036457.png,0.0,-1.9303056,-0.37386632,-1.1005688
alexnet_w1_mlp_simclrhn_probe2,1,190,NaN,chair,bird,0,0190_sty_dnn_0_bird_00_bird-2118-ILSVRC2012-val-00021926.png,bird-2118-ILSVRC2012-val-00021926.png,0.0,-5.8566127,0.60338926,-4.567911
alexnet_w1_mlp_simclrhn_probe2,1,191,NaN,oven,bird,0,0191_sty_dnn_0_bird_00_bird-2144-ILSVRC2012-val-00044377.png,bird-2144-ILSVRC2012-val-00044377.png,0.0,-2.4396071,0.8840484,-2.3501794
alexnet_w1_mlp_simclrhn_probe2,1,192,NaN,oven,bird,0,0192_sty_dnn_0_bird_00_bird-2178-ILSVRC2012-val-00026510.png,bird-2178-ILSVRC2012-val-00026510.png,0.0,-2.2804964,-0.698483,-1.1186523
alexnet_w1_mlp_simclrhn_probe2,1,193,NaN,oven,bird,0,0193_sty_dnn_0_bird_00_bird-2184-ILSVRC2012-val-00034910.png,bird-2184-ILSVRC2012-val-00034910.png,0.0,-3.156945,1.0033624,-2.9417815
alexnet_w1_mlp_simclrhn_probe2,1,194,NaN,knife,bird,0,0194_sty_dnn_0_bird_00_bird-2221-ILSVRC2012-val-00014977.png,bird-2221-ILSVRC2012-val-00014977.png,0.0,-6.0238895,-3.052002,-2.1014419
alexnet_w1_mlp_simclrhn_probe2,1,195,NaN,oven,bird,0,0195_sty_dnn_0_bird_00_bird-2222-ILSVRC2012-val-00015392.png,bird-2222-ILSVRC2012-val-00015392.png,0.0,-1.2062622,-0.3655904,-0.59444475
alexnet_w1_mlp_simclrhn_probe2,1,196,NaN,oven,bird,0,0196_sty_dnn_0_bird_00_bird-2248-ILSVRC2012-val-00044992.png,bird-2248-ILSVRC2012-val-00044992.png,0.0,-3.6869059,0.77028596,-3.1517107
alexnet_w1_mlp_simclrhn_probe2,1,197,NaN,knife,bird,0,0197_sty_dnn_0_bird_00_bird-2322-ILSVRC2012-val-00023492.png,bird-2322-ILSVRC2012-val-00023492.png,0.0,-1.4660445,-1.3046806,-0.11410155
alexnet_w1_mlp_simclrhn_probe2,1,198,NaN,elephant,bird,0,0198_sty_dnn_0_bird_00_bird-2405-ILSVRC2012-val-00007988.png,bird-2405-ILSVRC2012-val-00007988.png,0.0,-2.4411485,0.4647447,-2.054777
alexnet_w1_mlp_simclrhn_probe2,1,199,NaN,elephant,bird,0,0199_sty_dnn_0_bird_00_bird-2410-ILSVRC2012-val-00010355.png,bird-2410-ILSVRC2012-val-00010355.png,0.0,-2.4254413,1.7526767,-2.9543755
alexnet_w1_mlp_simclrhn_probe2,1,200,NaN,bear,bird,0,0200_sty_dnn_0_bird_00_bird-2433-ILSVRC2012-val-00028670.png,bird-2433-ILSVRC2012-val-00028670.png,0.0,-2.509882,1.3285142,-2.714156
alexnet_w1_mlp_simclrhn_probe2,1,201,NaN,bicycle,boat,0,0201_sty_dnn_0_boat_00_boat-0005-ILSVRC2012-val-00004909.png,boat-0005-ILSVRC2012-val-00004909.png,0.0,-5.214061,-0.3751783,-3.4216065
alexnet_w1_mlp_simclrhn_probe2,1,202,NaN,elephant,boat,0,0202_sty_dnn_0_boat_00_boat-0011-ILSVRC2012-val-00011563.png,boat-0011-ILSVRC2012-val-00011563.png,0.0,-3.251479,-0.12639815,-2.209766
alexnet_w1_mlp_simclrhn_probe2,1,203,NaN,bicycle,boat,0,0203_sty_dnn_0_boat_00_boat-0026-ILSVRC2012-val-00026341.png,boat-0026-ILSVRC2012-val-00026341.png,0.0,-2.0476947,0.33385152,-1.6840075
alexnet_w1_mlp_simclrhn_probe2,1,204,NaN,oven,boat,0,0204_sty_dnn_0_boat_00_boat-0033-ILSVRC2012-val-00030824.png,boat-0033-ILSVRC2012-val-00030824.png,0.0,-4.1957603,-0.37376747,-2.702557
alexnet_w1_mlp_simclrhn_probe2,1,205,NaN,elephant,boat,0,0205_sty_dnn_0_boat_00_boat-0036-ILSVRC2012-val-00032433.png,boat-0036-ILSVRC2012-val-00032433.png,0.0,-3.5662618,-0.1677576,-2.4031055
alexnet_w1_mlp_simclrhn_probe2,1,206,NaN,elephant,boat,0,0206_sty_dnn_0_boat_00_boat-0039-ILSVRC2012-val-00033883.png,boat-0039-ILSVRC2012-val-00033883.png,0.0,-1.2257766,-0.7084172,-0.36582834
alexnet_w1_mlp_simclrhn_probe2,1,207,NaN,bear,boat,0,0207_sty_dnn_0_boat_00_boat-0042-ILSVRC2012-val-00039945.png,boat-0042-ILSVRC2012-val-00039945.png,0.0,-3.9056306,1.8221033,-4.0501194
alexnet_w1_mlp_simclrhn_probe2,1,208,NaN,bear,boat,0,0208_sty_dnn_0_boat_00_boat-0044-ILSVRC2012-val-00041227.png,boat-0044-ILSVRC2012-val-00041227.png,0.0,-0.7162476,-0.0529965,-0.46898937
alexnet_w1_mlp_simclrhn_probe2,1,209,NaN,oven,boat,0,0209_sty_dnn_0_boat_00_boat-0048-ILSVRC2012-val-00046387.png,boat-0048-ILSVRC2012-val-00046387.png,0.0,-2.4550884,1.4179729,-2.738668
alexnet_w1_mlp_simclrhn_probe2,1,210,NaN,elephant,boat,0,0210_sty_dnn_0_boat_00_boat-0053-ILSVRC2012-val-00005918.png,boat-0053-ILSVRC2012-val-00005918.png,0.0,-0.9407174,0.4447335,-0.9796617
alexnet_w1_mlp_simclrhn_probe2,1,211,NaN,oven,boat,0,0211_sty_dnn_0_boat_00_boat-0061-ILSVRC2012-val-00011292.png,boat-0061-ILSVRC2012-val-00011292.png,0.0,-1.8781159,-0.16819298,-1.2090981
alexnet_w1_mlp_simclrhn_probe2,1,212,NaN,bottle,boat,0,0212_sty_dnn_0_boat_00_boat-0064-ILSVRC2012-val-00013366.png,boat-0064-ILSVRC2012-val-00013366.png,0.0,-2.1861637,-0.9629665,-0.86493105
alexnet_w1_mlp_simclrhn_probe2,1,213,NaN,bicycle,boat,0,0213_sty_dnn_0_boat_00_boat-0066-ILSVRC2012-val-00013961.png,boat-0066-ILSVRC2012-val-00013961.png,0.0,-3.6981938,0.32456553,-2.8445206
alexnet_w1_mlp_simclrhn_probe2,1,214,NaN,elephant,boat,0,0214_sty_dnn_0_boat_00_boat-0070-ILSVRC2012-val-00017026.png,boat-0070-ILSVRC2012-val-00017026.png,0.0,-2.5454056,1.5094316,-2.867203
alexnet_w1_mlp_simclrhn_probe2,1,215,NaN,knife,boat,0,0215_sty_dnn_0_boat_00_boat-0073-ILSVRC2012-val-00018158.png,boat-0073-ILSVRC2012-val-00018158.png,0.0,-2.301749,-0.8345983,-1.0374322
alexnet_w1_mlp_simclrhn_probe2,1,216,NaN,bicycle,boat,0,0216_sty_dnn_0_boat_00_boat-0076-ILSVRC2012-val-00020486.png,boat-0076-ILSVRC2012-val-00020486.png,0.0,-2.636834,2.0256329,-3.2968621
alexnet_w1_mlp_simclrhn_probe2,1,217,NaN,elephant,boat,0,0217_sty_dnn_0_boat_00_boat-0077-ILSVRC2012-val-00021948.png,boat-0077-ILSVRC2012-val-00021948.png,0.0,-2.4587276,-1.2612247,-0.8467624
alexnet_w1_mlp_simclrhn_probe2,1,218,NaN,bicycle,boat,0,0218_sty_dnn_0_boat_00_boat-0079-ILSVRC2012-val-00025681.png,boat-0079-ILSVRC2012-val-00025681.png,0.0,-2.4862552,2.856865,-3.7781565
alexnet_w1_mlp_simclrhn_probe2,1,219,NaN,bicycle,boat,0,0219_sty_dnn_0_boat_00_boat-0082-ILSVRC2012-val-00027612.png,boat-0082-ILSVRC2012-val-00027612.png,0.0,-2.923677,-0.9599353,-1.3885751
alexnet_w1_mlp_simclrhn_probe2,1,220,NaN,oven,boat,0,0220_sty_dnn_0_boat_00_boat-0083-ILSVRC2012-val-00034455.png,boat-0083-ILSVRC2012-val-00034455.png,0.0,-3.0602207,0.60573024,-2.5922189
alexnet_w1_mlp_simclrhn_probe2,1,221,NaN,oven,boat,0,0221_sty_dnn_0_boat_00_boat-0086-ILSVRC2012-val-00039559.png,boat-0086-ILSVRC2012-val-00039559.png,0.0,-3.0686162,0.26666912,-2.3584027
alexnet_w1_mlp_simclrhn_probe2,1,222,NaN,oven,boat,0,0222_sty_dnn_0_boat_00_boat-0098-ILSVRC2012-val-00047961.png,boat-0098-ILSVRC2012-val-00047961.png,0.0,-4.502738,0.24567063,-3.3576322
alexnet_w1_mlp_simclrhn_probe2,1,223,NaN,oven,boat,0,0223_sty_dnn_0_boat_00_boat-0100-ILSVRC2012-val-00048371.png,boat-0100-ILSVRC2012-val-00048371.png,0.0,-1.801199,-0.0011370033,-1.272836
alexnet_w1_mlp_simclrhn_probe2,1,224,NaN,keyboard,boat,0,0224_sty_dnn_0_boat_00_boat-0103-ILSVRC2012-val-00002308.png,boat-0103-ILSVRC2012-val-00002308.png,0.0,-4.829562,-0.38187367,-3.144991
alexnet_w1_mlp_simclrhn_probe2,1,225,NaN,bicycle,boat,0,0225_sty_dnn_0_boat_00_boat-0107-ILSVRC2012-val-00004492.png,boat-0107-ILSVRC2012-val-00004492.png,0.0,-1.1404632,0.7245923,-1.3187934
alexnet_w1_mlp_simclrhn_probe2,1,226,NaN,oven,boat,0,0226_sty_dnn_0_boat_00_boat-0111-ILSVRC2012-val-00009680.png,boat-0111-ILSVRC2012-val-00009680.png,0.0,-4.572959,2.4770463,-4.9851065
alexnet_w1_mlp_simclrhn_probe2,1,227,NaN,boat,boat,0,0227_sty_dnn_0_boat_00_boat-0121-ILSVRC2012-val-00016970.png,boat-0121-ILSVRC2012-val-00016970.png,1.0,-0.36692682,-0.58110106,0.15144406
alexnet_w1_mlp_simclrhn_probe2,1,228,NaN,oven,boat,0,0228_sty_dnn_0_boat_00_boat-0129-ILSVRC2012-val-00027504.png,boat-0129-ILSVRC2012-val-00027504.png,0.0,-2.1765099,0.4834743,-1.8808929
alexnet_w1_mlp_simclrhn_probe2,1,229,NaN,bicycle,boat,0,0229_sty_dnn_0_boat_00_boat-0137-ILSVRC2012-val-00035374.png,boat-0137-ILSVRC2012-val-00035374.png,0.0,-3.8333364,0.21030846,-2.8592887
alexnet_w1_mlp_simclrhn_probe2,1,230,NaN,oven,boat,0,0230_sty_dnn_0_boat_00_boat-0142-ILSVRC2012-val-00040889.png,boat-0142-ILSVRC2012-val-00040889.png,0.0,-3.6425316,0.09817883,-2.6450818
alexnet_w1_mlp_simclrhn_probe2,1,231,NaN,bear,boat,0,0231_sty_dnn_0_boat_00_boat-0153-ILSVRC2012-val-00002696.png,boat-0153-ILSVRC2012-val-00002696.png,0.0,-1.8261669,0.43581548,-1.5994631
alexnet_w1_mlp_simclrhn_probe2,1,232,NaN,bicycle,boat,0,0232_sty_dnn_0_boat_00_boat-0160-ILSVRC2012-val-00008630.png,boat-0160-ILSVRC2012-val-00008630.png,0.0,-3.577599,-0.4391468,-2.2192209
alexnet_w1_mlp_simclrhn_probe2,1,233,NaN,bear,boat,0,0233_sty_dnn_0_boat_00_boat-0165-ILSVRC2012-val-00014242.png,boat-0165-ILSVRC2012-val-00014242.png,0.0,-1.9015892,-0.20376669,-1.2005417
alexnet_w1_mlp_simclrhn_probe2,1,234,NaN,oven,boat,0,0234_sty_dnn_0_boat_00_boat-0169-ILSVRC2012-val-00019970.png,boat-0169-ILSVRC2012-val-00019970.png,0.0,-7.4977913,-0.19781755,-5.1618614
alexnet_w1_mlp_simclrhn_probe2,1,235,NaN,oven,boat,0,0235_sty_dnn_0_boat_00_boat-0170-ILSVRC2012-val-00020353.png,boat-0170-ILSVRC2012-val-00020353.png,0.0,-2.0925868,-0.4942549,-1.1301913
alexnet_w1_mlp_simclrhn_probe2,1,236,NaN,bicycle,boat,0,0236_sty_dnn_0_boat_00_boat-0172-ILSVRC2012-val-00020894.png,boat-0172-ILSVRC2012-val-00020894.png,0.0,-6.5201607,-0.57632107,-4.2029295
alexnet_w1_mlp_simclrhn_probe2,1,237,NaN,bicycle,boat,0,0237_sty_dnn_0_boat_00_boat-0179-ILSVRC2012-val-00026763.png,boat-0179-ILSVRC2012-val-00026763.png,0.0,-2.9342988,-0.5030731,-1.7191362
alexnet_w1_mlp_simclrhn_probe2,1,238,NaN,oven,boat,0,0238_sty_dnn_0_boat_00_boat-0181-ILSVRC2012-val-00031072.png,boat-0181-ILSVRC2012-val-00031072.png,0.0,-4.295027,0.30901,-3.2555456
alexnet_w1_mlp_simclrhn_probe2,1,239,NaN,bear,boat,0,0239_sty_dnn_0_boat_00_boat-0195-ILSVRC2012-val-00042203.png,boat-0195-ILSVRC2012-val-00042203.png,0.0,-1.6484611,-0.32654253,-0.9347376
alexnet_w1_mlp_simclrhn_probe2,1,240,NaN,oven,boat,0,0240_sty_dnn_0_boat_00_boat-0196-ILSVRC2012-val-00042675.png,boat-0196-ILSVRC2012-val-00042675.png,0.0,-3.015924,1.2589468,-3.0227902
alexnet_w1_mlp_simclrhn_probe2,1,241,NaN,bicycle,boat,0,0241_sty_dnn_0_boat_00_boat-0215-ILSVRC2012-val-00013403.png,boat-0215-ILSVRC2012-val-00013403.png,0.0,-3.7622414,-0.42153928,-2.3622332
alexnet_w1_mlp_simclrhn_probe2,1,242,NaN,bicycle,boat,0,0242_sty_dnn_0_boat_00_boat-0217-ILSVRC2012-val-00015089.png,boat-0217-ILSVRC2012-val-00015089.png,0.0,-0.9675376,-0.3193618,-0.4583295
alexnet_w1_mlp_simclrhn_probe2,1,243,NaN,bottle,boat,0,0243_sty_dnn_0_boat_00_boat-0218-ILSVRC2012-val-00015121.png,boat-0218-ILSVRC2012-val-00015121.png,0.0,-6.4080276,-1.523464,-3.453908
alexnet_w1_mlp_simclrhn_probe2,1,244,NaN,oven,boat,0,0244_sty_dnn_0_boat_00_boat-0222-ILSVRC2012-val-00019246.png,boat-0222-ILSVRC2012-val-00019246.png,0.0,-4.3546824,0.36606938,-3.3380756
alexnet_w1_mlp_simclrhn_probe2,1,245,NaN,oven,boat,0,0245_sty_dnn_0_boat_00_boat-0223-ILSVRC2012-val-00020544.png,boat-0223-ILSVRC2012-val-00020544.png,0.0,-5.0368514,-0.19871087,-3.421082
alexnet_w1_mlp_simclrhn_probe2,1,246,NaN,oven,boat,0,0246_sty_dnn_0_boat_00_boat-0225-ILSVRC2012-val-00022075.png,boat-0225-ILSVRC2012-val-00022075.png,0.0,-7.0808363,-0.7489103,-4.477348
alexnet_w1_mlp_simclrhn_probe2,1,247,NaN,boat,boat,0,0247_sty_dnn_0_boat_00_boat-0235-ILSVRC2012-val-00032371.png,boat-0235-ILSVRC2012-val-00032371.png,1.0,-0.26854104,-0.33725888,0.04859085
alexnet_w1_mlp_simclrhn_probe2,1,248,NaN,knife,boat,0,0248_sty_dnn_0_boat_00_boat-0236-ILSVRC2012-val-00032584.png,boat-0236-ILSVRC2012-val-00032584.png,0.0,-3.656536,0.5302019,-2.960471
alexnet_w1_mlp_simclrhn_probe2,1,249,NaN,airplane,boat,0,0249_sty_dnn_0_boat_00_boat-0243-ILSVRC2012-val-00039131.png,boat-0243-ILSVRC2012-val-00039131.png,0.0,-1.4216173,1.119814,-1.7970635
alexnet_w1_mlp_simclrhn_probe2,1,250,NaN,bear,boat,0,0250_sty_dnn_0_boat_00_boat-0244-ILSVRC2012-val-00040974.png,boat-0244-ILSVRC2012-val-00040974.png,0.0,-2.6734812,0.4552917,-2.2123766
alexnet_w1_mlp_simclrhn_probe2,1,251,NaN,oven,bottle,0,0251_sty_dnn_0_bottle_00_bottle-0002-ILSVRC2012-val-00002968.png,bottle-0002-ILSVRC2012-val-00002968.png,0.0,-2.7679539,-0.11546945,-1.8755897
alexnet_w1_mlp_simclrhn_probe2,1,252,NaN,bicycle,bottle,0,0252_sty_dnn_0_bottle_00_bottle-0003-ILSVRC2012-val-00003622.png,bottle-0003-ILSVRC2012-val-00003622.png,0.0,-1.175049,-0.2378257,-0.6627169
alexnet_w1_mlp_simclrhn_probe2,1,253,NaN,oven,bottle,0,0253_sty_dnn_0_bottle_00_bottle-0005-ILSVRC2012-val-00004521.png,bottle-0005-ILSVRC2012-val-00004521.png,0.0,-2.0720792,0.6337113,-1.9132829
alexnet_w1_mlp_simclrhn_probe2,1,254,NaN,bottle,bottle,0,0254_sty_dnn_0_bottle_00_bottle-0006-ILSVRC2012-val-00004888.png,bottle-0006-ILSVRC2012-val-00004888.png,1.0,3.1921802,0.37889254,1.9892949
alexnet_w1_mlp_simclrhn_probe2,1,255,NaN,bicycle,bottle,0,0255_sty_dnn_0_bottle_00_bottle-0011-ILSVRC2012-val-00009225.png,bottle-0011-ILSVRC2012-val-00009225.png,0.0,-1.4709537,0.31963116,-1.2661346
alexnet_w1_mlp_simclrhn_probe2,1,256,NaN,keyboard,bottle,0,0256_sty_dnn_0_bottle_00_bottle-0022-ILSVRC2012-val-00022396.png,bottle-0022-ILSVRC2012-val-00022396.png,0.0,-1.5617217,-1.2484124,-0.22154315
alexnet_w1_mlp_simclrhn_probe2,1,257,NaN,bicycle,bottle,0,0257_sty_dnn_0_bottle_00_bottle-0030-ILSVRC2012-val-00032921.png,bottle-0030-ILSVRC2012-val-00032921.png,0.0,-1.9337196,-0.00017460436,-1.3672228
alexnet_w1_mlp_simclrhn_probe2,1,258,NaN,oven,bottle,0,0258_sty_dnn_0_bottle_00_bottle-0031-ILSVRC2012-val-00033822.png,bottle-0031-ILSVRC2012-val-00033822.png,0.0,-3.8212857,-1.3458191,-1.7504194
alexnet_w1_mlp_simclrhn_probe2,1,259,NaN,oven,bottle,0,0259_sty_dnn_0_bottle_00_bottle-0032-ILSVRC2012-val-00034979.png,bottle-0032-ILSVRC2012-val-00034979.png,0.0,-1.3699639,-0.34184822,-0.72698754
alexnet_w1_mlp_simclrhn_probe2,1,260,NaN,bottle,bottle,0,0260_sty_dnn_0_bottle_00_bottle-0037-ILSVRC2012-val-00036359.png,bottle-0037-ILSVRC2012-val-00036359.png,1.0,2.1798222,-1.7495036,2.7784529
alexnet_w1_mlp_simclrhn_probe2,1,261,NaN,oven,bottle,0,0261_sty_dnn_0_bottle_00_bottle-0039-ILSVRC2012-val-00038570.png,bottle-0039-ILSVRC2012-val-00038570.png,0.0,-0.5843182,-0.07621793,-0.35928115
alexnet_w1_mlp_simclrhn_probe2,1,262,NaN,oven,bottle,0,0262_sty_dnn_0_bottle_00_bottle-0047-ILSVRC2012-val-00044787.png,bottle-0047-ILSVRC2012-val-00044787.png,0.0,-5.089325,0.6859846,-4.0837607
alexnet_w1_mlp_simclrhn_probe2,1,263,NaN,clock,bottle,0,0263_sty_dnn_0_bottle_00_bottle-0052-ILSVRC2012-val-00000252.png,bottle-0052-ILSVRC2012-val-00000252.png,0.0,-0.4720543,0.9635089,-1.0150965
alexnet_w1_mlp_simclrhn_probe2,1,264,NaN,bottle,bottle,0,0264_sty_dnn_0_bottle_00_bottle-0055-ILSVRC2012-val-00003066.png,bottle-0055-ILSVRC2012-val-00003066.png,1.0,2.567382,-0.75979203,2.3526676
alexnet_w1_mlp_simclrhn_probe2,1,265,NaN,bicycle,bottle,0,0265_sty_dnn_0_bottle_00_bottle-0057-ILSVRC2012-val-00005967.png,bottle-0057-ILSVRC2012-val-00005967.png,0.0,-1.7062781,-0.58743477,-0.7911417
alexnet_w1_mlp_simclrhn_probe2,1,266,NaN,bottle,bottle,0,0266_sty_dnn_0_bottle_00_bottle-0059-ILSVRC2012-val-00008984.png,bottle-0059-ILSVRC2012-val-00008984.png,1.0,-0.28937572,-0.3938781,0.073894344
alexnet_w1_mlp_simclrhn_probe2,1,267,NaN,bottle,bottle,0,0267_sty_dnn_0_bottle_00_bottle-0066-ILSVRC2012-val-00016336.png,bottle-0066-ILSVRC2012-val-00016336.png,1.0,0.28942016,-0.69502395,0.69610715
alexnet_w1_mlp_simclrhn_probe2,1,268,NaN,oven,bottle,0,0268_sty_dnn_0_bottle_00_bottle-0085-ILSVRC2012-val-00036422.png,bottle-0085-ILSVRC2012-val-00036422.png,0.0,-4.265692,1.7367158,-4.2443433
alexnet_w1_mlp_simclrhn_probe2,1,269,NaN,oven,bottle,0,0269_sty_dnn_0_bottle_00_bottle-0086-ILSVRC2012-val-00036795.png,bottle-0086-ILSVRC2012-val-00036795.png,0.0,-2.538231,-0.85744417,-1.1884958
alexnet_w1_mlp_simclrhn_probe2,1,270,NaN,boat,bottle,0,0270_sty_dnn_0_bottle_00_bottle-0107-ILSVRC2012-val-00008313.png,bottle-0107-ILSVRC2012-val-00008313.png,0.0,-2.7080083,0.3633961,-2.1718109
alexnet_w1_mlp_simclrhn_probe2,1,271,NaN,bear,bottle,0,0271_sty_dnn_0_bottle_00_bottle-0108-ILSVRC2012-val-00008437.png,bottle-0108-ILSVRC2012-val-00008437.png,0.0,-3.4291172,0.3954753,-2.7043953
alexnet_w1_mlp_simclrhn_probe2,1,272,NaN,bicycle,bottle,0,0272_sty_dnn_0_bottle_00_bottle-0126-ILSVRC2012-val-00022079.png,bottle-0126-ILSVRC2012-val-00022079.png,0.0,-2.1374428,-0.06852555,-1.4629455
alexnet_w1_mlp_simclrhn_probe2,1,273,NaN,bicycle,bottle,0,0273_sty_dnn_0_bottle_00_bottle-0127-ILSVRC2012-val-00023580.png,bottle-0127-ILSVRC2012-val-00023580.png,0.0,-3.3769472,-0.31923518,-2.162129
alexnet_w1_mlp_simclrhn_probe2,1,274,NaN,knife,bottle,0,0274_sty_dnn_0_bottle_00_bottle-0138-ILSVRC2012-val-00032559.png,bottle-0138-ILSVRC2012-val-00032559.png,0.0,-2.976827,-0.91440916,-1.4583496
alexnet_w1_mlp_simclrhn_probe2,1,275,NaN,knife,bottle,0,0275_sty_dnn_0_bottle_00_bottle-0153-ILSVRC2012-val-00003318.png,bottle-0153-ILSVRC2012-val-00003318.png,0.0,-2.0908551,-1.2717605,-0.5791874
alexnet_w1_mlp_simclrhn_probe2,1,276,NaN,oven,bottle,0,0276_sty_dnn_0_bottle_00_bottle-0154-ILSVRC2012-val-00003340.png,bottle-0154-ILSVRC2012-val-00003340.png,0.0,-3.5688248,-0.45263484,-2.203479
alexnet_w1_mlp_simclrhn_probe2,1,277,NaN,knife,bottle,0,0277_sty_dnn_0_bottle_00_bottle-0170-ILSVRC2012-val-00020948.png,bottle-0170-ILSVRC2012-val-00020948.png,0.0,-1.7062061,-0.8039258,-0.63800853
alexnet_w1_mlp_simclrhn_probe2,1,278,NaN,chair,bottle,0,0278_sty_dnn_0_bottle_00_bottle-0172-ILSVRC2012-val-00021707.png,bottle-0172-ILSVRC2012-val-00021707.png,0.0,-1.289153,0.40555918,-1.1983424
alexnet_w1_mlp_simclrhn_probe2,1,279,NaN,oven,bottle,0,0279_sty_dnn_0_bottle_00_bottle-0180-ILSVRC2012-val-00027613.png,bottle-0180-ILSVRC2012-val-00027613.png,0.0,-2.417219,-0.34928986,-1.4622467
alexnet_w1_mlp_simclrhn_probe2,1,280,NaN,oven,bottle,0,0280_sty_dnn_0_bottle_00_bottle-0189-ILSVRC2012-val-00040070.png,bottle-0189-ILSVRC2012-val-00040070.png,0.0,-2.90279,0.056315094,-2.0924034
alexnet_w1_mlp_simclrhn_probe2,1,281,NaN,bottle,bottle,0,0281_sty_dnn_0_bottle_00_bottle-0195-ILSVRC2012-val-00045644.png,bottle-0195-ILSVRC2012-val-00045644.png,1.0,0.7243112,-0.98149025,1.2061838
alexnet_w1_mlp_simclrhn_probe2,1,282,NaN,bicycle,bottle,0,0282_sty_dnn_0_bottle_00_bottle-0204-ILSVRC2012-val-00002597.png,bottle-0204-ILSVRC2012-val-00002597.png,0.0,-2.2581518,0.38649175,-1.8700454
alexnet_w1_mlp_simclrhn_probe2,1,283,NaN,bottle,bottle,0,0283_sty_dnn_0_bottle_00_bottle-0205-ILSVRC2012-val-00003263.png,bottle-0205-ILSVRC2012-val-00003263.png,1.0,0.0052690827,-1.9142464,1.3573024
alexnet_w1_mlp_simclrhn_probe2,1,284,NaN,oven,bottle,0,0284_sty_dnn_0_bottle_00_bottle-0214-ILSVRC2012-val-00012572.png,bottle-0214-ILSVRC2012-val-00012572.png,0.0,-2.4613414,0.82389057,-2.32301
alexnet_w1_mlp_simclrhn_probe2,1,285,NaN,cat,bottle,0,0285_sty_dnn_0_bottle_00_bottle-0216-ILSVRC2012-val-00013262.png,bottle-0216-ILSVRC2012-val-00013262.png,0.0,-2.8895795,0.51193357,-2.405233
alexnet_w1_mlp_simclrhn_probe2,1,286,NaN,bottle,bottle,0,0286_sty_dnn_0_bottle_00_bottle-0218-ILSVRC2012-val-00013667.png,bottle-0218-ILSVRC2012-val-00013667.png,1.0,0.8964732,-0.29937595,0.8455931
alexnet_w1_mlp_simclrhn_probe2,1,287,NaN,oven,bottle,0,0287_sty_dnn_0_bottle_00_bottle-0220-ILSVRC2012-val-00014146.png,bottle-0220-ILSVRC2012-val-00014146.png,0.0,-3.5157104,-0.059198476,-2.444123
alexnet_w1_mlp_simclrhn_probe2,1,288,NaN,oven,bottle,0,0288_sty_dnn_0_bottle_00_bottle-0222-ILSVRC2012-val-00018657.png,bottle-0222-ILSVRC2012-val-00018657.png,0.0,-1.448419,0.169348,-1.143934
alexnet_w1_mlp_simclrhn_probe2,1,289,NaN,oven,bottle,0,0289_sty_dnn_0_bottle_00_bottle-0224-ILSVRC2012-val-00020102.png,bottle-0224-ILSVRC2012-val-00020102.png,0.0,-2.4884682,-1.0075223,-1.0471869
alexnet_w1_mlp_simclrhn_probe2,1,290,NaN,knife,bottle,0,0290_sty_dnn_0_bottle_00_bottle-0233-ILSVRC2012-val-00031504.png,bottle-0233-ILSVRC2012-val-00031504.png,0.0,-1.7430128,-0.23302358,-1.0677236
alexnet_w1_mlp_simclrhn_probe2,1,291,NaN,bicycle,bottle,0,0291_sty_dnn_0_bottle_00_bottle-0243-ILSVRC2012-val-00040157.png,bottle-0243-ILSVRC2012-val-00040157.png,0.0,-2.8541243,-0.2768889,-1.8223807
alexnet_w1_mlp_simclrhn_probe2,1,292,NaN,bottle,bottle,0,0292_sty_dnn_0_bottle_00_bottle-0254-ILSVRC2012-val-00005933.png,bottle-0254-ILSVRC2012-val-00005933.png,1.0,2.3330085,-0.99870276,2.3558757
alexnet_w1_mlp_simclrhn_probe2,1,293,NaN,bottle,bottle,0,0293_sty_dnn_0_bottle_00_bottle-0283-ILSVRC2012-val-00036864.png,bottle-0283-ILSVRC2012-val-00036864.png,1.0,3.2465882,-0.17678863,2.420693
alexnet_w1_mlp_simclrhn_probe2,1,294,NaN,bottle,bottle,0,0294_sty_dnn_0_bottle_00_bottle-0294-ILSVRC2012-val-00044222.png,bottle-0294-ILSVRC2012-val-00044222.png,1.0,0.6255844,0.5972635,0.020025907
alexnet_w1_mlp_simclrhn_probe2,1,295,NaN,oven,bottle,0,0295_sty_dnn_0_bottle_00_bottle-0296-ILSVRC2012-val-00044906.png,bottle-0296-ILSVRC2012-val-00044906.png,0.0,-2.5511558,0.5898441,-2.2210224
alexnet_w1_mlp_simclrhn_probe2,1,296,NaN,oven,bottle,0,0296_sty_dnn_0_bottle_00_bottle-0325-ILSVRC2012-val-00027316.png,bottle-0325-ILSVRC2012-val-00027316.png,0.0,-1.5220764,0.10021369,-1.1471323
alexnet_w1_mlp_simclrhn_probe2,1,297,NaN,bottle,bottle,0,0297_sty_dnn_0_bottle_00_bottle-0331-ILSVRC2012-val-00033990.png,bottle-0331-ILSVRC2012-val-00033990.png,1.0,0.018776804,-0.55035406,0.40243632
alexnet_w1_mlp_simclrhn_probe2,1,298,NaN,oven,bottle,0,0298_sty_dnn_0_bottle_00_bottle-0334-ILSVRC2012-val-00036776.png,bottle-0334-ILSVRC2012-val-00036776.png,0.0,-1.4363221,0.15515408,-1.1253437
alexnet_w1_mlp_simclrhn_probe2,1,299,NaN,bottle,bottle,0,0299_sty_dnn_0_bottle_00_bottle-0345-ILSVRC2012-val-00044614.png,bottle-0345-ILSVRC2012-val-00044614.png,1.0,1.4364039,-0.42367944,1.3152776
alexnet_w1_mlp_simclrhn_probe2,1,300,NaN,oven,bottle,0,0300_sty_dnn_0_bottle_00_bottle-0347-ILSVRC2012-val-00048539.png,bottle-0347-ILSVRC2012-val-00048539.png,0.0,-0.68432397,0.59985507,-0.90805167
alexnet_w1_mlp_simclrhn_probe2,1,301,NaN,knife,car,0,0301_sty_dnn_0_car_00_car-0001-ILSVRC2012-val-00000175.png,car-0001-ILSVRC2012-val-00000175.png,0.0,-3.2047482,-1.3135585,-1.3372731
alexnet_w1_mlp_simclrhn_probe2,1,302,NaN,car,car,0,0302_sty_dnn_0_car_00_car-0004-ILSVRC2012-val-00006084.png,car-0004-ILSVRC2012-val-00006084.png,1.0,1.0866286,0.7951747,0.20608899
alexnet_w1_mlp_simclrhn_probe2,1,303,NaN,car,car,0,0303_sty_dnn_0_car_00_car-0005-ILSVRC2012-val-00006220.png,car-0005-ILSVRC2012-val-00006220.png,1.0,1.2843899,0.23391202,0.74280006
alexnet_w1_mlp_simclrhn_probe2,1,304,NaN,oven,car,0,0304_sty_dnn_0_car_00_car-0010-ILSVRC2012-val-00012600.png,car-0010-ILSVRC2012-val-00012600.png,0.0,-1.9303565,1.1786883,-2.1984267
alexnet_w1_mlp_simclrhn_probe2,1,305,NaN,oven,car,0,0305_sty_dnn_0_car_00_car-0012-ILSVRC2012-val-00014447.png,car-0012-ILSVRC2012-val-00014447.png,0.0,-6.0004754,0.45070595,-4.561674
alexnet_w1_mlp_simclrhn_probe2,1,306,NaN,oven,car,0,0306_sty_dnn_0_car_00_car-0013-ILSVRC2012-val-00014541.png,car-0013-ILSVRC2012-val-00014541.png,0.0,-3.7592323,0.24038437,-2.828156
alexnet_w1_mlp_simclrhn_probe2,1,307,NaN,car,car,0,0307_sty_dnn_0_car_00_car-0018-ILSVRC2012-val-00018138.png,car-0018-ILSVRC2012-val-00018138.png,1.0,0.4052228,-0.37295675,0.550256
alexnet_w1_mlp_simclrhn_probe2,1,308,NaN,bicycle,car,0,0308_sty_dnn_0_car_00_car-0019-ILSVRC2012-val-00018335.png,car-0019-ILSVRC2012-val-00018335.png,0.0,-4.2673435,-0.11497866,-2.9361653
alexnet_w1_mlp_simclrhn_probe2,1,309,NaN,oven,car,0,0309_sty_dnn_0_car_00_car-0021-ILSVRC2012-val-00019695.png,car-0021-ILSVRC2012-val-00019695.png,0.0,-3.2265117,-0.052076668,-2.2446647
alexnet_w1_mlp_simclrhn_probe2,1,310,NaN,oven,car,0,0310_sty_dnn_0_car_00_car-0024-ILSVRC2012-val-00023221.png,car-0024-ILSVRC2012-val-00023221.png,0.0,-4.407403,0.4733996,-3.4512486
alexnet_w1_mlp_simclrhn_probe2,1,311,NaN,truck,car,0,0311_sty_dnn_0_car_00_car-0025-ILSVRC2012-val-00023474.png,car-0025-ILSVRC2012-val-00023474.png,0.0,7.662855,7.932228,-0.19047543
alexnet_w1_mlp_simclrhn_probe2,1,312,NaN,oven,car,0,0312_sty_dnn_0_car_00_car-0028-ILSVRC2012-val-00027049.png,car-0028-ILSVRC2012-val-00027049.png,0.0,-4.297995,-0.16630535,-2.9215457
alexnet_w1_mlp_simclrhn_probe2,1,313,NaN,bicycle,car,0,0313_sty_dnn_0_car_00_car-0029-ILSVRC2012-val-00027081.png,car-0029-ILSVRC2012-val-00027081.png,0.0,-0.03699432,0.8915988,-0.65661454
alexnet_w1_mlp_simclrhn_probe2,1,314,NaN,oven,car,0,0314_sty_dnn_0_car_00_car-0030-ILSVRC2012-val-00029057.png,car-0030-ILSVRC2012-val-00029057.png,0.0,-1.6587,0.042402983,-1.2028614
alexnet_w1_mlp_simclrhn_probe2,1,315,NaN,oven,car,0,0315_sty_dnn_0_car_00_car-0032-ILSVRC2012-val-00030834.png,car-0032-ILSVRC2012-val-00030834.png,0.0,-1.0851654,0.32204401,-0.99504733
alexnet_w1_mlp_simclrhn_probe2,1,316,NaN,bicycle,car,0,0316_sty_dnn_0_car_00_car-0041-ILSVRC2012-val-00040706.png,car-0041-ILSVRC2012-val-00040706.png,0.0,-3.238574,1.5178068,-3.3632693
alexnet_w1_mlp_simclrhn_probe2,1,317,NaN,bicycle,car,0,0317_sty_dnn_0_car_00_car-0045-ILSVRC2012-val-00042416.png,car-0045-ILSVRC2012-val-00042416.png,0.0,-0.99314946,2.908761,-2.7590675
alexnet_w1_mlp_simclrhn_probe2,1,318,NaN,knife,car,0,0318_sty_dnn_0_car_00_car-0050-ILSVRC2012-val-00048556.png,car-0050-ILSVRC2012-val-00048556.png,0.0,-6.5933976,-1.3861163,-3.6821039
alexnet_w1_mlp_simclrhn_probe2,1,319,NaN,chair,car,0,0319_sty_dnn_0_car_00_car-0052-ILSVRC2012-val-00004387.png,car-0052-ILSVRC2012-val-00004387.png,0.0,-3.8428402,-0.42558235,-2.416366
alexnet_w1_mlp_simclrhn_probe2,1,320,NaN,oven,car,0,0320_sty_dnn_0_car_00_car-0053-ILSVRC2012-val-00004685.png,car-0053-ILSVRC2012-val-00004685.png,0.0,-3.2745113,0.007430952,-2.3206837
alexnet_w1_mlp_simclrhn_probe2,1,321,NaN,oven,car,0,0321_sty_dnn_0_car_00_car-0054-ILSVRC2012-val-00005500.png,car-0054-ILSVRC2012-val-00005500.png,0.0,-2.7883065,0.28601396,-2.1738727
alexnet_w1_mlp_simclrhn_probe2,1,322,NaN,elephant,car,0,0322_sty_dnn_0_car_00_car-0058-ILSVRC2012-val-00010676.png,car-0058-ILSVRC2012-val-00010676.png,0.0,-4.707044,-0.9593084,-2.6500494
alexnet_w1_mlp_simclrhn_probe2,1,323,NaN,oven,car,0,0323_sty_dnn_0_car_00_car-0059-ILSVRC2012-val-00014010.png,car-0059-ILSVRC2012-val-00014010.png,0.0,-1.8185738,1.6174581,-2.4296415
alexnet_w1_mlp_simclrhn_probe2,1,324,NaN,oven,car,0,0324_sty_dnn_0_car_00_car-0060-ILSVRC2012-val-00014208.png,car-0060-ILSVRC2012-val-00014208.png,0.0,-3.4270847,1.2751107,-3.324954
alexnet_w1_mlp_simclrhn_probe2,1,325,NaN,airplane,car,0,0325_sty_dnn_0_car_00_car-0064-ILSVRC2012-val-00016337.png,car-0064-ILSVRC2012-val-00016337.png,0.0,-2.857867,-0.6510558,-1.5604511
alexnet_w1_mlp_simclrhn_probe2,1,326,NaN,bicycle,car,0,0326_sty_dnn_0_car_00_car-0065-ILSVRC2012-val-00016613.png,car-0065-ILSVRC2012-val-00016613.png,0.0,1.1995538,1.3439407,-0.10209695
alexnet_w1_mlp_simclrhn_probe2,1,327,NaN,elephant,car,0,0327_sty_dnn_0_car_00_car-0066-ILSVRC2012-val-00018249.png,car-0066-ILSVRC2012-val-00018249.png,0.0,-4.474398,-0.8671297,-2.550724
alexnet_w1_mlp_simclrhn_probe2,1,328,NaN,oven,car,0,0328_sty_dnn_0_car_00_car-0067-ILSVRC2012-val-00018569.png,car-0067-ILSVRC2012-val-00018569.png,0.0,-0.832311,-0.6115831,-0.15607817
alexnet_w1_mlp_simclrhn_probe2,1,329,NaN,car,car,0,0329_sty_dnn_0_car_00_car-0069-ILSVRC2012-val-00019647.png,car-0069-ILSVRC2012-val-00019647.png,1.0,3.5405657,3.3565464,0.13012132
alexnet_w1_mlp_simclrhn_probe2,1,330,NaN,elephant,car,0,0330_sty_dnn_0_car_00_car-0079-ILSVRC2012-val-00025028.png,car-0079-ILSVRC2012-val-00025028.png,0.0,-2.2162082,0.50642014,-1.925189
alexnet_w1_mlp_simclrhn_probe2,1,331,NaN,oven,car,0,0331_sty_dnn_0_car_00_car-0082-ILSVRC2012-val-00027293.png,car-0082-ILSVRC2012-val-00027293.png,0.0,-3.9160354,-0.5605136,-2.3727121
alexnet_w1_mlp_simclrhn_probe2,1,332,NaN,bear,car,0,0332_sty_dnn_0_car_00_car-0083-ILSVRC2012-val-00027508.png,car-0083-ILSVRC2012-val-00027508.png,0.0,-4.253914,0.2777378,-3.2043617
alexnet_w1_mlp_simclrhn_probe2,1,333,NaN,bicycle,car,0,0333_sty_dnn_0_car_00_car-0086-ILSVRC2012-val-00029454.png,car-0086-ILSVRC2012-val-00029454.png,0.0,-3.017533,-0.45577866,-1.811434
alexnet_w1_mlp_simclrhn_probe2,1,334,NaN,oven,car,0,0334_sty_dnn_0_car_00_car-0087-ILSVRC2012-val-00031558.png,car-0087-ILSVRC2012-val-00031558.png,0.0,-1.7580227,0.7253385,-1.7560016
alexnet_w1_mlp_simclrhn_probe2,1,335,NaN,oven,car,0,0335_sty_dnn_0_car_00_car-0091-ILSVRC2012-val-00036091.png,car-0091-ILSVRC2012-val-00036091.png,0.0,-2.4379222,-0.9744475,-1.034833
alexnet_w1_mlp_simclrhn_probe2,1,336,NaN,car,car,0,0336_sty_dnn_0_car_00_car-0093-ILSVRC2012-val-00038956.png,car-0093-ILSVRC2012-val-00038956.png,1.0,0.7726342,-0.41382277,0.83895177
alexnet_w1_mlp_simclrhn_probe2,1,337,NaN,oven,car,0,0337_sty_dnn_0_car_00_car-0095-ILSVRC2012-val-00041430.png,car-0095-ILSVRC2012-val-00041430.png,0.0,-2.2779813,-0.055089664,-1.5718217
alexnet_w1_mlp_simclrhn_probe2,1,338,NaN,oven,car,0,0338_sty_dnn_0_car_00_car-0096-ILSVRC2012-val-00043824.png,car-0096-ILSVRC2012-val-00043824.png,0.0,-7.2841096,0.4078938,-5.439068
alexnet_w1_mlp_simclrhn_probe2,1,339,NaN,oven,car,0,0339_sty_dnn_0_car_00_car-0103-ILSVRC2012-val-00003478.png,car-0103-ILSVRC2012-val-00003478.png,0.0,-1.7690011,-1.302191,-0.3300846
alexnet_w1_mlp_simclrhn_probe2,1,340,NaN,elephant,car,0,0340_sty_dnn_0_car_00_car-0106-ILSVRC2012-val-00004868.png,car-0106-ILSVRC2012-val-00004868.png,0.0,-3.0501812,-0.59449506,-1.7364323
alexnet_w1_mlp_simclrhn_probe2,1,341,NaN,car,car,0,0341_sty_dnn_0_car_00_car-0110-ILSVRC2012-val-00006285.png,car-0110-ILSVRC2012-val-00006285.png,1.0,0.72567314,0.70855397,0.012105081
alexnet_w1_mlp_simclrhn_probe2,1,342,NaN,knife,car,0,0342_sty_dnn_0_car_00_car-0111-ILSVRC2012-val-00007125.png,car-0111-ILSVRC2012-val-00007125.png,0.0,-6.4569945,-0.13029608,-4.4736514
alexnet_w1_mlp_simclrhn_probe2,1,343,NaN,bicycle,car,0,0343_sty_dnn_0_car_00_car-0117-ILSVRC2012-val-00010983.png,car-0117-ILSVRC2012-val-00010983.png,0.0,-2.9262884,3.4969785,-4.5419354
alexnet_w1_mlp_simclrhn_probe2,1,344,NaN,bicycle,car,0,0344_sty_dnn_0_car_00_car-0118-ILSVRC2012-val-00012327.png,car-0118-ILSVRC2012-val-00012327.png,0.0,-2.9769657,-0.20421784,-1.9606287
alexnet_w1_mlp_simclrhn_probe2,1,345,NaN,bicycle,car,0,0345_sty_dnn_0_car_00_car-0121-ILSVRC2012-val-00016638.png,car-0121-ILSVRC2012-val-00016638.png,0.0,-3.4033153,-1.1070653,-1.6236938
alexnet_w1_mlp_simclrhn_probe2,1,346,NaN,car,car,0,0346_sty_dnn_0_car_00_car-0134-ILSVRC2012-val-00032944.png,car-0134-ILSVRC2012-val-00032944.png,1.0,3.4541228,1.5479318,1.3478806
alexnet_w1_mlp_simclrhn_probe2,1,347,NaN,oven,car,0,0347_sty_dnn_0_car_00_car-0139-ILSVRC2012-val-00037952.png,car-0139-ILSVRC2012-val-00037952.png,0.0,-6.6759067,-0.47506583,-4.384657
alexnet_w1_mlp_simclrhn_probe2,1,348,NaN,oven,car,0,0348_sty_dnn_0_car_00_car-0145-ILSVRC2012-val-00041626.png,car-0145-ILSVRC2012-val-00041626.png,0.0,-4.8361793,1.5066636,-4.4850674
alexnet_w1_mlp_simclrhn_probe2,1,349,NaN,bicycle,car,0,0349_sty_dnn_0_car_00_car-0146-ILSVRC2012-val-00043297.png,car-0146-ILSVRC2012-val-00043297.png,0.0,-3.3615463,0.025907576,-2.3952916
alexnet_w1_mlp_simclrhn_probe2,1,350,NaN,oven,car,0,0350_sty_dnn_0_car_00_car-0149-ILSVRC2012-val-00049427.png,car-0149-ILSVRC2012-val-00049427.png,0.0,-6.368004,0.71150637,-5.00597
alexnet_w1_mlp_simclrhn_probe2,1,351,NaN,cat,cat,0,0351_sty_dnn_0_cat_00_cat-0005-ILSVRC2012-val-00005358.png,cat-0005-ILSVRC2012-val-00005358.png,1.0,1.7485081,-0.5938193,1.6562756
alexnet_w1_mlp_simclrhn_probe2,1,352,NaN,bicycle,cat,0,0352_sty_dnn_0_cat_00_cat-0012-ILSVRC2012-val-00012377.png,cat-0012-ILSVRC2012-val-00012377.png,0.0,-2.1375256,-2.0418272,-0.06766896
alexnet_w1_mlp_simclrhn_probe2,1,353,NaN,oven,cat,0,0353_sty_dnn_0_cat_00_cat-0031-ILSVRC2012-val-00030706.png,cat-0031-ILSVRC2012-val-00030706.png,0.0,-2.1501696,0.1778436,-1.6461539
alexnet_w1_mlp_simclrhn_probe2,1,354,NaN,cat,cat,0,0354_sty_dnn_0_cat_00_cat-0032-ILSVRC2012-val-00033420.png,cat-0032-ILSVRC2012-val-00033420.png,1.0,2.4953883,0.7408024,1.2406796
alexnet_w1_mlp_simclrhn_probe2,1,355,NaN,cat,cat,0,0355_sty_dnn_0_cat_00_cat-0034-ILSVRC2012-val-00033837.png,cat-0034-ILSVRC2012-val-00033837.png,1.0,0.37217557,-1.6850741,1.4546951
alexnet_w1_mlp_simclrhn_probe2,1,356,NaN,oven,cat,0,0356_sty_dnn_0_cat_00_cat-0042-ILSVRC2012-val-00040238.png,cat-0042-ILSVRC2012-val-00040238.png,0.0,-1.1997031,-0.96274054,-0.16755784
alexnet_w1_mlp_simclrhn_probe2,1,357,NaN,dog,cat,0,0357_sty_dnn_0_cat_00_cat-0045-ILSVRC2012-val-00041570.png,cat-0045-ILSVRC2012-val-00041570.png,0.0,-0.3445064,-0.068167955,-0.1954008
alexnet_w1_mlp_simclrhn_probe2,1,358,NaN,dog,cat,0,0358_sty_dnn_0_cat_00_cat-0050-ILSVRC2012-val-00047911.png,cat-0050-ILSVRC2012-val-00047911.png,0.0,-1.7393426,-1.1545068,-0.41354135
alexnet_w1_mlp_simclrhn_probe2,1,359,NaN,elephant,cat,0,0359_sty_dnn_0_cat_00_cat-0054-ILSVRC2012-val-00003295.png,cat-0054-ILSVRC2012-val-00003295.png,0.0,-2.6381776,-1.4111176,-0.8676625
alexnet_w1_mlp_simclrhn_probe2,1,360,NaN,bear,cat,0,0360_sty_dnn_0_cat_00_cat-0056-ILSVRC2012-val-00007676.png,cat-0056-ILSVRC2012-val-00007676.png,0.0,-0.32576895,0.46474895,-0.5589806
alexnet_w1_mlp_simclrhn_probe2,1,361,NaN,bear,cat,0,0361_sty_dnn_0_cat_00_cat-0062-ILSVRC2012-val-00013788.png,cat-0062-ILSVRC2012-val-00013788.png,0.0,-1.2076342,0.7406152,-1.3776203
alexnet_w1_mlp_simclrhn_probe2,1,362,NaN,chair,cat,0,0362_sty_dnn_0_cat_00_cat-0064-ILSVRC2012-val-00014860.png,cat-0064-ILSVRC2012-val-00014860.png,0.0,-3.619727,0.18416464,-2.6897576
alexnet_w1_mlp_simclrhn_probe2,1,363,NaN,bicycle,cat,0,0363_sty_dnn_0_cat_00_cat-0069-ILSVRC2012-val-00016399.png,cat-0069-ILSVRC2012-val-00016399.png,0.0,-3.681593,-1.2153344,-1.7439082
alexnet_w1_mlp_simclrhn_probe2,1,364,NaN,cat,cat,0,0364_sty_dnn_0_cat_00_cat-0072-ILSVRC2012-val-00019303.png,cat-0072-ILSVRC2012-val-00019303.png,1.0,-0.43226576,-0.906683,0.33546367
alexnet_w1_mlp_simclrhn_probe2,1,365,NaN,cat,cat,0,0365_sty_dnn_0_cat_00_cat-0073-ILSVRC2012-val-00020140.png,cat-0073-ILSVRC2012-val-00020140.png,1.0,-0.49280217,-0.81010723,0.22436856
alexnet_w1_mlp_simclrhn_probe2,1,366,NaN,bicycle,cat,0,0366_sty_dnn_0_cat_00_cat-0082-ILSVRC2012-val-00025723.png,cat-0082-ILSVRC2012-val-00025723.png,0.0,-2.6236894,0.89451337,-2.487745
alexnet_w1_mlp_simclrhn_probe2,1,367,NaN,cat,cat,0,0367_sty_dnn_0_cat_00_cat-0092-ILSVRC2012-val-00039621.png,cat-0092-ILSVRC2012-val-00039621.png,1.0,-0.7339377,-1.8365362,0.77965486
alexnet_w1_mlp_simclrhn_probe2,1,368,NaN,oven,cat,0,0368_sty_dnn_0_cat_00_cat-0096-ILSVRC2012-val-00045420.png,cat-0096-ILSVRC2012-val-00045420.png,0.0,-1.2543179,-0.8016783,-0.3200645
alexnet_w1_mlp_simclrhn_probe2,1,369,NaN,keyboard,cat,0,0369_sty_dnn_0_cat_00_cat-0108-ILSVRC2012-val-00002967.png,cat-0108-ILSVRC2012-val-00002967.png,0.0,-3.9047768,-0.72145826,-2.2509463
alexnet_w1_mlp_simclrhn_probe2,1,370,NaN,oven,cat,0,0370_sty_dnn_0_cat_00_cat-0110-ILSVRC2012-val-00004411.png,cat-0110-ILSVRC2012-val-00004411.png,0.0,-0.9688179,0.09527458,-0.75242704
alexnet_w1_mlp_simclrhn_probe2,1,371,NaN,oven,cat,0,0371_sty_dnn_0_cat_00_cat-0113-ILSVRC2012-val-00007808.png,cat-0113-ILSVRC2012-val-00007808.png,0.0,-2.0061014,1.3522321,-2.3747005
alexnet_w1_mlp_simclrhn_probe2,1,372,NaN,cat,cat,0,0372_sty_dnn_0_cat_00_cat-0118-ILSVRC2012-val-00010218.png,cat-0118-ILSVRC2012-val-00010218.png,1.0,0.6528518,-1.597621,1.5913246
alexnet_w1_mlp_simclrhn_probe2,1,373,NaN,bear,cat,0,0373_sty_dnn_0_cat_00_cat-0123-ILSVRC2012-val-00014813.png,cat-0123-ILSVRC2012-val-00014813.png,0.0,0.1815,0.503873,-0.22795212
alexnet_w1_mlp_simclrhn_probe2,1,374,NaN,cat,cat,0,0374_sty_dnn_0_cat_00_cat-0133-ILSVRC2012-val-00023898.png,cat-0133-ILSVRC2012-val-00023898.png,1.0,-2.403876,-2.5562103,0.10771656
alexnet_w1_mlp_simclrhn_probe2,1,375,NaN,cat,cat,0,0375_sty_dnn_0_cat_00_cat-0137-ILSVRC2012-val-00027906.png,cat-0137-ILSVRC2012-val-00027906.png,1.0,-0.13346787,-0.28513816,0.10724709
alexnet_w1_mlp_simclrhn_probe2,1,376,NaN,cat,cat,0,0376_sty_dnn_0_cat_00_cat-0147-ILSVRC2012-val-00041347.png,cat-0147-ILSVRC2012-val-00041347.png,1.0,0.6364107,-2.768828,2.4078674
alexnet_w1_mlp_simclrhn_probe2,1,377,NaN,chair,cat,0,0377_sty_dnn_0_cat_00_cat-0150-ILSVRC2012-val-00049996.png,cat-0150-ILSVRC2012-val-00049996.png,0.0,-3.4411905,-1.3262128,-1.4955152
alexnet_w1_mlp_simclrhn_probe2,1,378,NaN,bear,cat,0,0378_sty_dnn_0_cat_00_cat-0160-ILSVRC2012-val-00011528.png,cat-0160-ILSVRC2012-val-00011528.png,0.0,-0.47047028,1.5173211,-1.4055808
alexnet_w1_mlp_simclrhn_probe2,1,379,NaN,oven,cat,0,0379_sty_dnn_0_cat_00_cat-0162-ILSVRC2012-val-00012173.png,cat-0162-ILSVRC2012-val-00012173.png,0.0,-2.9086125,0.26944977,-2.2472293
alexnet_w1_mlp_simclrhn_probe2,1,380,NaN,knife,cat,0,0380_sty_dnn_0_cat_00_cat-0165-ILSVRC2012-val-00017325.png,cat-0165-ILSVRC2012-val-00017325.png,0.0,-3.742963,-0.08113456,-2.5893037
alexnet_w1_mlp_simclrhn_probe2,1,381,NaN,bottle,cat,0,0381_sty_dnn_0_cat_00_cat-0169-ILSVRC2012-val-00020688.png,cat-0169-ILSVRC2012-val-00020688.png,0.0,-4.5220356,-0.037931867,-3.1707401
alexnet_w1_mlp_simclrhn_probe2,1,382,NaN,knife,cat,0,0382_sty_dnn_0_cat_00_cat-0185-ILSVRC2012-val-00038168.png,cat-0185-ILSVRC2012-val-00038168.png,0.0,-3.5536907,-0.4745497,-2.1772814
alexnet_w1_mlp_simclrhn_probe2,1,383,NaN,cat,cat,0,0383_sty_dnn_0_cat_00_cat-0186-ILSVRC2012-val-00039580.png,cat-0186-ILSVRC2012-val-00039580.png,1.0,0.2924371,-0.32735842,0.43826166
alexnet_w1_mlp_simclrhn_probe2,1,384,NaN,chair,cat,0,0384_sty_dnn_0_cat_00_cat-0189-ILSVRC2012-val-00040854.png,cat-0189-ILSVRC2012-val-00040854.png,0.0,-3.564296,2.168784,-4.0539
alexnet_w1_mlp_simclrhn_probe2,1,385,NaN,bear,cat,0,0385_sty_dnn_0_cat_00_cat-0202-ILSVRC2012-val-00001496.png,cat-0202-ILSVRC2012-val-00001496.png,0.0,-0.098151766,0.85395646,-0.67324215
alexnet_w1_mlp_simclrhn_probe2,1,386,NaN,oven,cat,0,0386_sty_dnn_0_cat_00_cat-0234-ILSVRC2012-val-00028970.png,cat-0234-ILSVRC2012-val-00028970.png,0.0,-2.7130234,0.2512536,-2.0960605
alexnet_w1_mlp_simclrhn_probe2,1,387,NaN,knife,cat,0,0387_sty_dnn_0_cat_00_cat-0236-ILSVRC2012-val-00031185.png,cat-0236-ILSVRC2012-val-00031185.png,0.0,-3.56088,-1.5754588,-1.4039048
alexnet_w1_mlp_simclrhn_probe2,1,388,NaN,bicycle,cat,0,0388_sty_dnn_0_cat_00_cat-0238-ILSVRC2012-val-00033582.png,cat-0238-ILSVRC2012-val-00033582.png,0.0,-4.730142,-0.49931625,-2.9916458
alexnet_w1_mlp_simclrhn_probe2,1,389,NaN,cat,cat,0,0389_sty_dnn_0_cat_00_cat-0242-ILSVRC2012-val-00040192.png,cat-0242-ILSVRC2012-val-00040192.png,1.0,-1.1103626,-1.3087057,0.14024971
alexnet_w1_mlp_simclrhn_probe2,1,390,NaN,bear,cat,0,0390_sty_dnn_0_cat_00_cat-0243-ILSVRC2012-val-00040600.png,cat-0243-ILSVRC2012-val-00040600.png,0.0,-0.36138472,0.9267554,-0.9108527
alexnet_w1_mlp_simclrhn_probe2,1,391,NaN,cat,cat,0,0391_sty_dnn_0_cat_00_cat-0247-ILSVRC2012-val-00044374.png,cat-0247-ILSVRC2012-val-00044374.png,1.0,0.41557088,0.01659882,0.28211585
alexnet_w1_mlp_simclrhn_probe2,1,392,NaN,oven,cat,0,0392_sty_dnn_0_cat_00_cat-0258-ILSVRC2012-val-00006112.png,cat-0258-ILSVRC2012-val-00006112.png,0.0,-1.1694707,1.8263133,-2.118339
alexnet_w1_mlp_simclrhn_probe2,1,393,NaN,keyboard,cat,0,0393_sty_dnn_0_cat_00_cat-0260-ILSVRC2012-val-00006612.png,cat-0260-ILSVRC2012-val-00006612.png,0.0,-5.717649,-1.1218022,-3.2497544
alexnet_w1_mlp_simclrhn_probe2,1,394,NaN,cat,cat,0,0394_sty_dnn_0_cat_00_cat-0264-ILSVRC2012-val-00010823.png,cat-0264-ILSVRC2012-val-00010823.png,1.0,-0.23341429,-0.78510696,0.39010563
alexnet_w1_mlp_simclrhn_probe2,1,395,NaN,oven,cat,0,0395_sty_dnn_0_cat_00_cat-0270-ILSVRC2012-val-00017189.png,cat-0270-ILSVRC2012-val-00017189.png,0.0,-1.1281816,1.2530774,-1.6838044
alexnet_w1_mlp_simclrhn_probe2,1,396,NaN,oven,cat,0,0396_sty_dnn_0_cat_00_cat-0274-ILSVRC2012-val-00019370.png,cat-0274-ILSVRC2012-val-00019370.png,0.0,-1.9446663,0.4394171,-1.6858015
alexnet_w1_mlp_simclrhn_probe2,1,397,NaN,bicycle,cat,0,0397_sty_dnn_0_cat_00_cat-0284-ILSVRC2012-val-00027069.png,cat-0284-ILSVRC2012-val-00027069.png,0.0,-3.9035416,-2.1371005,-1.2490625
alexnet_w1_mlp_simclrhn_probe2,1,398,NaN,oven,cat,0,0398_sty_dnn_0_cat_00_cat-0291-ILSVRC2012-val-00035821.png,cat-0291-ILSVRC2012-val-00035821.png,0.0,-1.7552991,0.6941457,-1.7320191
alexnet_w1_mlp_simclrhn_probe2,1,399,NaN,knife,cat,0,0399_sty_dnn_0_cat_00_cat-0294-ILSVRC2012-val-00037633.png,cat-0294-ILSVRC2012-val-00037633.png,0.0,-2.3766172,-0.22135893,-1.5239977
alexnet_w1_mlp_simclrhn_probe2,1,400,NaN,bicycle,cat,0,0400_sty_dnn_0_cat_00_cat-0298-ILSVRC2012-val-00042529.png,cat-0298-ILSVRC2012-val-00042529.png,0.0,-3.0179539,-1.4688048,-1.0954138
alexnet_w1_mlp_simclrhn_probe2,1,401,NaN,oven,chair,0,0401_sty_dnn_0_chair_00_chair-0006-ILSVRC2012-val-00004679.png,chair-0006-ILSVRC2012-val-00004679.png,0.0,-3.8721464,0.08700059,-2.7995398
alexnet_w1_mlp_simclrhn_probe2,1,402,NaN,chair,chair,0,0402_sty_dnn_0_chair_00_chair-0018-ILSVRC2012-val-00013838.png,chair-0018-ILSVRC2012-val-00013838.png,1.0,0.946295,-0.78800136,1.2263327
alexnet_w1_mlp_simclrhn_probe2,1,403,NaN,chair,chair,0,0403_sty_dnn_0_chair_00_chair-0022-ILSVRC2012-val-00016403.png,chair-0022-ILSVRC2012-val-00016403.png,1.0,0.08066034,-0.19147436,0.1924283
alexnet_w1_mlp_simclrhn_probe2,1,404,NaN,elephant,chair,0,0404_sty_dnn_0_chair_00_chair-0024-ILSVRC2012-val-00021099.png,chair-0024-ILSVRC2012-val-00021099.png,0.0,-3.3535545,0.9036906,-3.0103269
alexnet_w1_mlp_simclrhn_probe2,1,405,NaN,oven,chair,0,0405_sty_dnn_0_chair_00_chair-0030-ILSVRC2012-val-00026896.png,chair-0030-ILSVRC2012-val-00026896.png,0.0,-1.7483917,1.1098154,-2.0210578
alexnet_w1_mlp_simclrhn_probe2,1,406,NaN,bottle,chair,0,0406_sty_dnn_0_chair_00_chair-0033-ILSVRC2012-val-00031805.png,chair-0033-ILSVRC2012-val-00031805.png,0.0,-1.349178,0.60982734,-1.385226
alexnet_w1_mlp_simclrhn_probe2,1,407,NaN,elephant,chair,0,0407_sty_dnn_0_chair_00_chair-0039-ILSVRC2012-val-00041772.png,chair-0039-ILSVRC2012-val-00041772.png,0.0,-2.696811,0.31715915,-2.1311986
alexnet_w1_mlp_simclrhn_probe2,1,408,NaN,knife,chair,0,0408_sty_dnn_0_chair_00_chair-0040-ILSVRC2012-val-00042512.png,chair-0040-ILSVRC2012-val-00042512.png,0.0,-2.7154481,-0.10476952,-1.8460286
alexnet_w1_mlp_simclrhn_probe2,1,409,NaN,knife,chair,0,0409_sty_dnn_0_chair_00_chair-0045-ILSVRC2012-val-00044898.png,chair-0045-ILSVRC2012-val-00044898.png,0.0,-1.3562636,-0.5553964,-0.56629866
alexnet_w1_mlp_simclrhn_probe2,1,410,NaN,bicycle,chair,0,0410_sty_dnn_0_chair_00_chair-0047-ILSVRC2012-val-00045407.png,chair-0047-ILSVRC2012-val-00045407.png,0.0,-1.1349844,-0.55431294,-0.4105967
alexnet_w1_mlp_simclrhn_probe2,1,411,NaN,oven,chair,0,0411_sty_dnn_0_chair_00_chair-0050-ILSVRC2012-val-00049050.png,chair-0050-ILSVRC2012-val-00049050.png,0.0,-3.5053623,-0.18249558,-2.3496215
alexnet_w1_mlp_simclrhn_probe2,1,412,NaN,oven,chair,0,0412_sty_dnn_0_chair_00_chair-0051-ILSVRC2012-val-00001616.png,chair-0051-ILSVRC2012-val-00001616.png,0.0,-1.9145398,0.032038815,-1.376439
alexnet_w1_mlp_simclrhn_probe2,1,413,NaN,bicycle,chair,0,0413_sty_dnn_0_chair_00_chair-0053-ILSVRC2012-val-00001855.png,chair-0053-ILSVRC2012-val-00001855.png,0.0,-2.131197,0.75511014,-2.0409274
alexnet_w1_mlp_simclrhn_probe2,1,414,NaN,bicycle,chair,0,0414_sty_dnn_0_chair_00_chair-0058-ILSVRC2012-val-00005926.png,chair-0058-ILSVRC2012-val-00005926.png,0.0,-3.189355,-0.8279759,-1.6697471
alexnet_w1_mlp_simclrhn_probe2,1,415,NaN,bicycle,chair,0,0415_sty_dnn_0_chair_00_chair-0059-ILSVRC2012-val-00006022.png,chair-0059-ILSVRC2012-val-00006022.png,0.0,-0.9374757,0.4567828,-0.9858897
alexnet_w1_mlp_simclrhn_probe2,1,416,NaN,elephant,chair,0,0416_sty_dnn_0_chair_00_chair-0072-ILSVRC2012-val-00015559.png,chair-0072-ILSVRC2012-val-00015559.png,0.0,-4.6817217,-0.1949347,-3.1726375
alexnet_w1_mlp_simclrhn_probe2,1,417,NaN,boat,chair,0,0417_sty_dnn_0_chair_00_chair-0081-ILSVRC2012-val-00033069.png,chair-0081-ILSVRC2012-val-00033069.png,0.0,-0.41127753,0.6093742,-0.72170985
alexnet_w1_mlp_simclrhn_probe2,1,418,NaN,bicycle,chair,0,0418_sty_dnn_0_chair_00_chair-0085-ILSVRC2012-val-00036175.png,chair-0085-ILSVRC2012-val-00036175.png,0.0,0.24122494,1.331015,-0.770598
alexnet_w1_mlp_simclrhn_probe2,1,419,NaN,oven,chair,0,0419_sty_dnn_0_chair_00_chair-0087-ILSVRC2012-val-00037905.png,chair-0087-ILSVRC2012-val-00037905.png,0.0,-0.608184,-0.60510606,-0.0021764212
alexnet_w1_mlp_simclrhn_probe2,1,420,NaN,oven,chair,0,0420_sty_dnn_0_chair_00_chair-0092-ILSVRC2012-val-00041814.png,chair-0092-ILSVRC2012-val-00041814.png,0.0,-2.5952942,0.22186181,-1.9920301
alexnet_w1_mlp_simclrhn_probe2,1,421,NaN,bicycle,chair,0,0421_sty_dnn_0_chair_00_chair-0097-ILSVRC2012-val-00043453.png,chair-0097-ILSVRC2012-val-00043453.png,0.0,-1.6367365,0.5847035,-1.5707954
alexnet_w1_mlp_simclrhn_probe2,1,422,NaN,oven,chair,0,0422_sty_dnn_0_chair_00_chair-0098-ILSVRC2012-val-00044181.png,chair-0098-ILSVRC2012-val-00044181.png,0.0,-4.2062097,0.8614582,-3.5833824
alexnet_w1_mlp_simclrhn_probe2,1,423,NaN,chair,chair,0,0423_sty_dnn_0_chair_00_chair-0116-ILSVRC2012-val-00017447.png,chair-0116-ILSVRC2012-val-00017447.png,1.0,1.3055053,-0.6404725,1.376014
alexnet_w1_mlp_simclrhn_probe2,1,424,NaN,chair,chair,0,0424_sty_dnn_0_chair_00_chair-0118-ILSVRC2012-val-00018123.png,chair-0118-ILSVRC2012-val-00018123.png,1.0,0.95174956,0.33648774,0.4350558
alexnet_w1_mlp_simclrhn_probe2,1,425,NaN,bear,chair,0,0425_sty_dnn_0_chair_00_chair-0119-ILSVRC2012-val-00018206.png,chair-0119-ILSVRC2012-val-00018206.png,0.0,-2.506373,-0.10713634,-1.6965165
alexnet_w1_mlp_simclrhn_probe2,1,426,NaN,chair,chair,0,0426_sty_dnn_0_chair_00_chair-0122-ILSVRC2012-val-00019867.png,chair-0122-ILSVRC2012-val-00019867.png,1.0,0.2935843,-0.57390964,0.61341083
alexnet_w1_mlp_simclrhn_probe2,1,427,NaN,oven,chair,0,0427_sty_dnn_0_chair_00_chair-0123-ILSVRC2012-val-00020924.png,chair-0123-ILSVRC2012-val-00020924.png,0.0,-4.5795684,0.47642323,-3.575126
alexnet_w1_mlp_simclrhn_probe2,1,428,NaN,oven,chair,0,0428_sty_dnn_0_chair_00_chair-0124-ILSVRC2012-val-00022208.png,chair-0124-ILSVRC2012-val-00022208.png,0.0,-5.140479,0.6358263,-4.0844646
alexnet_w1_mlp_simclrhn_probe2,1,429,NaN,oven,chair,0,0429_sty_dnn_0_chair_00_chair-0127-ILSVRC2012-val-00024620.png,chair-0127-ILSVRC2012-val-00024620.png,0.0,-1.7965636,3.001389,-3.392665
alexnet_w1_mlp_simclrhn_probe2,1,430,NaN,oven,chair,0,0430_sty_dnn_0_chair_00_chair-0133-ILSVRC2012-val-00033406.png,chair-0133-ILSVRC2012-val-00033406.png,0.0,-5.0608387,-0.96592164,-2.8955438
alexnet_w1_mlp_simclrhn_probe2,1,431,NaN,chair,chair,0,0431_sty_dnn_0_chair_00_chair-0136-ILSVRC2012-val-00037994.png,chair-0136-ILSVRC2012-val-00037994.png,1.0,1.0686914,0.60459423,0.32816625
alexnet_w1_mlp_simclrhn_probe2,1,432,NaN,oven,chair,0,0432_sty_dnn_0_chair_00_chair-0138-ILSVRC2012-val-00038750.png,chair-0138-ILSVRC2012-val-00038750.png,0.0,-5.03444,0.45091793,-3.8787336
alexnet_w1_mlp_simclrhn_probe2,1,433,NaN,knife,chair,0,0433_sty_dnn_0_chair_00_chair-0141-ILSVRC2012-val-00040076.png,chair-0141-ILSVRC2012-val-00040076.png,0.0,-1.3873143,0.06527963,-1.0271391
alexnet_w1_mlp_simclrhn_probe2,1,434,NaN,oven,chair,0,0434_sty_dnn_0_chair_00_chair-0150-ILSVRC2012-val-00048622.png,chair-0150-ILSVRC2012-val-00048622.png,0.0,-4.6067834,-0.8850256,-2.6316803
alexnet_w1_mlp_simclrhn_probe2,1,435,NaN,knife,chair,0,0435_sty_dnn_0_chair_00_chair-0154-ILSVRC2012-val-00004705.png,chair-0154-ILSVRC2012-val-00004705.png,0.0,-2.2632823,-1.1751182,-0.7694482
alexnet_w1_mlp_simclrhn_probe2,1,436,NaN,bear,chair,0,0436_sty_dnn_0_chair_00_chair-0155-ILSVRC2012-val-00005160.png,chair-0155-ILSVRC2012-val-00005160.png,0.0,-2.926321,0.3283369,-2.301391
alexnet_w1_mlp_simclrhn_probe2,1,437,NaN,oven,chair,0,0437_sty_dnn_0_chair_00_chair-0159-ILSVRC2012-val-00011028.png,chair-0159-ILSVRC2012-val-00011028.png,0.0,-2.8052526,-1.4365585,-0.9678129
alexnet_w1_mlp_simclrhn_probe2,1,438,NaN,chair,chair,0,0438_sty_dnn_0_chair_00_chair-0160-ILSVRC2012-val-00012040.png,chair-0160-ILSVRC2012-val-00012040.png,1.0,1.1195374,-0.18050064,0.9192657
alexnet_w1_mlp_simclrhn_probe2,1,439,NaN,chair,chair,0,0439_sty_dnn_0_chair_00_chair-0169-ILSVRC2012-val-00019913.png,chair-0169-ILSVRC2012-val-00019913.png,1.0,1.5333095,0.249658,0.90767866
alexnet_w1_mlp_simclrhn_probe2,1,440,NaN,knife,chair,0,0440_sty_dnn_0_chair_00_chair-0170-ILSVRC2012-val-00022051.png,chair-0170-ILSVRC2012-val-00022051.png,0.0,-2.1913671,-0.45498914,-1.2278047
alexnet_w1_mlp_simclrhn_probe2,1,441,NaN,bottle,chair,0,0441_sty_dnn_0_chair_00_chair-0172-ILSVRC2012-val-00023378.png,chair-0172-ILSVRC2012-val-00023378.png,0.0,-2.7939343,-0.7418683,-1.4510299
alexnet_w1_mlp_simclrhn_probe2,1,442,NaN,bicycle,chair,0,0442_sty_dnn_0_chair_00_chair-0181-ILSVRC2012-val-00033160.png,chair-0181-ILSVRC2012-val-00033160.png,0.0,-2.1186857,-0.6404554,-1.0452666
alexnet_w1_mlp_simclrhn_probe2,1,443,NaN,bottle,chair,0,0443_sty_dnn_0_chair_00_chair-0183-ILSVRC2012-val-00035142.png,chair-0183-ILSVRC2012-val-00035142.png,0.0,-3.9407768,-1.2430115,-1.9076082
alexnet_w1_mlp_simclrhn_probe2,1,444,NaN,keyboard,chair,0,0444_sty_dnn_0_chair_00_chair-0188-ILSVRC2012-val-00041720.png,chair-0188-ILSVRC2012-val-00041720.png,0.0,-4.8053823,-0.6531941,-2.9360406
alexnet_w1_mlp_simclrhn_probe2,1,445,NaN,elephant,chair,0,0445_sty_dnn_0_chair_00_chair-0189-ILSVRC2012-val-00041883.png,chair-0189-ILSVRC2012-val-00041883.png,0.0,-2.0376306,0.7435064,-1.9665608
alexnet_w1_mlp_simclrhn_probe2,1,446,NaN,oven,chair,0,0446_sty_dnn_0_chair_00_chair-0192-ILSVRC2012-val-00043870.png,chair-0192-ILSVRC2012-val-00043870.png,0.0,-2.1235805,0.23567075,-1.6682426
alexnet_w1_mlp_simclrhn_probe2,1,447,NaN,oven,chair,0,0447_sty_dnn_0_chair_00_chair-0193-ILSVRC2012-val-00044295.png,chair-0193-ILSVRC2012-val-00044295.png,0.0,-1.3740069,-0.5211753,-0.60304296
alexnet_w1_mlp_simclrhn_probe2,1,448,NaN,chair,chair,0,0448_sty_dnn_0_chair_00_chair-0195-ILSVRC2012-val-00045464.png,chair-0195-ILSVRC2012-val-00045464.png,1.0,0.552513,0.22527856,0.2313897
alexnet_w1_mlp_simclrhn_probe2,1,449,NaN,oven,chair,0,0449_sty_dnn_0_chair_00_chair-0196-ILSVRC2012-val-00045844.png,chair-0196-ILSVRC2012-val-00045844.png,0.0,-2.0508163,0.6355008,-1.899513
alexnet_w1_mlp_simclrhn_probe2,1,450,NaN,oven,chair,0,0450_sty_dnn_0_chair_00_chair-0199-ILSVRC2012-val-00048901.png,chair-0199-ILSVRC2012-val-00048901.png,0.0,-2.3946548,1.5058522,-2.758075
alexnet_w1_mlp_simclrhn_probe2,1,451,NaN,oven,clock,0,0451_sty_dnn_0_clock_00_clock-0001-ILSVRC2012-val-00001011.png,clock-0001-ILSVRC2012-val-00001011.png,0.0,-2.2687695,-2.0138779,-0.18023561
alexnet_w1_mlp_simclrhn_probe2,1,452,NaN,bicycle,clock,0,0452_sty_dnn_0_clock_00_clock-0007-ILSVRC2012-val-00005490.png,clock-0007-ILSVRC2012-val-00005490.png,0.0,-4.586985,0.62177414,-3.683149
alexnet_w1_mlp_simclrhn_probe2,1,453,NaN,clock,clock,0,0453_sty_dnn_0_clock_00_clock-0008-ILSVRC2012-val-00005558.png,clock-0008-ILSVRC2012-val-00005558.png,1.0,0.8945351,0.45824978,0.30850032
alexnet_w1_mlp_simclrhn_probe2,1,454,NaN,bicycle,clock,0,0454_sty_dnn_0_clock_00_clock-0010-ILSVRC2012-val-00006858.png,clock-0010-ILSVRC2012-val-00006858.png,0.0,-1.3921219,-0.343777,-0.74129176
alexnet_w1_mlp_simclrhn_probe2,1,455,NaN,bicycle,clock,0,0455_sty_dnn_0_clock_00_clock-0013-ILSVRC2012-val-00013244.png,clock-0013-ILSVRC2012-val-00013244.png,0.0,-1.0553609,-0.732218,-0.22849654
alexnet_w1_mlp_simclrhn_probe2,1,456,NaN,oven,clock,0,0456_sty_dnn_0_clock_00_clock-0018-ILSVRC2012-val-00015871.png,clock-0018-ILSVRC2012-val-00015871.png,0.0,-5.4639645,-0.8865125,-3.2367473
alexnet_w1_mlp_simclrhn_probe2,1,457,NaN,oven,clock,0,0457_sty_dnn_0_clock_00_clock-0020-ILSVRC2012-val-00016889.png,clock-0020-ILSVRC2012-val-00016889.png,0.0,-0.8993826,-0.4594763,-0.31106073
alexnet_w1_mlp_simclrhn_probe2,1,458,NaN,clock,clock,0,0458_sty_dnn_0_clock_00_clock-0023-ILSVRC2012-val-00017973.png,clock-0023-ILSVRC2012-val-00017973.png,1.0,1.712874,-1.0863113,1.9793229
alexnet_w1_mlp_simclrhn_probe2,1,459,NaN,clock,clock,0,0459_sty_dnn_0_clock_00_clock-0025-ILSVRC2012-val-00019663.png,clock-0025-ILSVRC2012-val-00019663.png,1.0,-0.2881411,-0.63210446,0.24321882
alexnet_w1_mlp_simclrhn_probe2,1,460,NaN,oven,clock,0,0460_sty_dnn_0_clock_00_clock-0028-ILSVRC2012-val-00021179.png,clock-0028-ILSVRC2012-val-00021179.png,0.0,-0.98960596,-0.25149828,-0.521921
alexnet_w1_mlp_simclrhn_probe2,1,461,NaN,oven,clock,0,0461_sty_dnn_0_clock_00_clock-0029-ILSVRC2012-val-00022719.png,clock-0029-ILSVRC2012-val-00022719.png,0.0,-0.20161374,-0.1532146,-0.03422336
alexnet_w1_mlp_simclrhn_probe2,1,462,NaN,oven,clock,0,0462_sty_dnn_0_clock_00_clock-0032-ILSVRC2012-val-00024425.png,clock-0032-ILSVRC2012-val-00024425.png,0.0,-1.192002,-0.48541507,-0.49963245
alexnet_w1_mlp_simclrhn_probe2,1,463,NaN,bottle,clock,0,0463_sty_dnn_0_clock_00_clock-0034-ILSVRC2012-val-00026380.png,clock-0034-ILSVRC2012-val-00026380.png,0.0,-1.8506355,-0.45817313,-0.9846196
alexnet_w1_mlp_simclrhn_probe2,1,464,NaN,knife,clock,0,0464_sty_dnn_0_clock_00_clock-0038-ILSVRC2012-val-00032489.png,clock-0038-ILSVRC2012-val-00032489.png,0.0,0.11003715,0.14419931,-0.024156298
alexnet_w1_mlp_simclrhn_probe2,1,465,NaN,oven,clock,0,0465_sty_dnn_0_clock_00_clock-0039-ILSVRC2012-val-00033429.png,clock-0039-ILSVRC2012-val-00033429.png,0.0,-2.1948407,0.55568266,-1.9449137
alexnet_w1_mlp_simclrhn_probe2,1,466,NaN,clock,clock,0,0466_sty_dnn_0_clock_00_clock-0040-ILSVRC2012-val-00035392.png,clock-0040-ILSVRC2012-val-00035392.png,1.0,4.2659097,-1.0074843,3.7288527
alexnet_w1_mlp_simclrhn_probe2,1,467,NaN,bicycle,clock,0,0467_sty_dnn_0_clock_00_clock-0043-ILSVRC2012-val-00041613.png,clock-0043-ILSVRC2012-val-00041613.png,0.0,-1.2037969,1.2282025,-1.7196832
alexnet_w1_mlp_simclrhn_probe2,1,468,NaN,oven,clock,0,0468_sty_dnn_0_clock_00_clock-0045-ILSVRC2012-val-00043497.png,clock-0045-ILSVRC2012-val-00043497.png,0.0,-3.3175504,1.3568981,-3.3053343
alexnet_w1_mlp_simclrhn_probe2,1,469,NaN,bottle,clock,0,0469_sty_dnn_0_clock_00_clock-0046-ILSVRC2012-val-00044049.png,clock-0046-ILSVRC2012-val-00044049.png,0.0,-0.39602765,0.7861015,-0.83589154
alexnet_w1_mlp_simclrhn_probe2,1,470,NaN,oven,clock,0,0470_sty_dnn_0_clock_00_clock-0048-ILSVRC2012-val-00044752.png,clock-0048-ILSVRC2012-val-00044752.png,0.0,-1.2732953,0.34711498,-1.1458031
alexnet_w1_mlp_simclrhn_probe2,1,471,NaN,cat,clock,0,0471_sty_dnn_0_clock_00_clock-0052-ILSVRC2012-val-00003721.png,clock-0052-ILSVRC2012-val-00003721.png,0.0,-3.7540092,-1.368491,-1.686816
alexnet_w1_mlp_simclrhn_probe2,1,472,NaN,oven,clock,0,0472_sty_dnn_0_clock_00_clock-0054-ILSVRC2012-val-00008751.png,clock-0054-ILSVRC2012-val-00008751.png,0.0,-1.7049516,0.34133178,-1.4469409
alexnet_w1_mlp_simclrhn_probe2,1,473,NaN,airplane,clock,0,0473_sty_dnn_0_clock_00_clock-0062-ILSVRC2012-val-00014987.png,clock-0062-ILSVRC2012-val-00014987.png,0.0,0.5082119,1.1708275,-0.46853998
alexnet_w1_mlp_simclrhn_probe2,1,474,NaN,knife,clock,0,0474_sty_dnn_0_clock_00_clock-0063-ILSVRC2012-val-00015628.png,clock-0063-ILSVRC2012-val-00015628.png,0.0,-1.8206593,-1.6894954,-0.09274684
alexnet_w1_mlp_simclrhn_probe2,1,475,NaN,clock,clock,0,0475_sty_dnn_0_clock_00_clock-0073-ILSVRC2012-val-00026298.png,clock-0073-ILSVRC2012-val-00026298.png,1.0,-0.11219176,-0.9042769,0.5600888
alexnet_w1_mlp_simclrhn_probe2,1,476,NaN,oven,clock,0,0476_sty_dnn_0_clock_00_clock-0076-ILSVRC2012-val-00028203.png,clock-0076-ILSVRC2012-val-00028203.png,0.0,-3.689851,-1.4988089,-1.5493008
alexnet_w1_mlp_simclrhn_probe2,1,477,NaN,bottle,clock,0,0477_sty_dnn_0_clock_00_clock-0080-ILSVRC2012-val-00032946.png,clock-0080-ILSVRC2012-val-00032946.png,0.0,-0.9212301,-0.3408484,-0.41039184
alexnet_w1_mlp_simclrhn_probe2,1,478,NaN,bicycle,clock,0,0478_sty_dnn_0_clock_00_clock-0082-ILSVRC2012-val-00033627.png,clock-0082-ILSVRC2012-val-00033627.png,0.0,-4.0805945,-1.1472278,-2.0742035
alexnet_w1_mlp_simclrhn_probe2,1,479,NaN,bottle,clock,0,0479_sty_dnn_0_clock_00_clock-0084-ILSVRC2012-val-00034426.png,clock-0084-ILSVRC2012-val-00034426.png,0.0,-0.20373969,1.5878361,-1.2668355
alexnet_w1_mlp_simclrhn_probe2,1,480,NaN,oven,clock,0,0480_sty_dnn_0_clock_00_clock-0086-ILSVRC2012-val-00041483.png,clock-0086-ILSVRC2012-val-00041483.png,0.0,-1.084997,0.47614735,-1.1038958
alexnet_w1_mlp_simclrhn_probe2,1,481,NaN,knife,clock,0,0481_sty_dnn_0_clock_00_clock-0089-ILSVRC2012-val-00042911.png,clock-0089-ILSVRC2012-val-00042911.png,0.0,-2.7671795,-0.5644625,-1.5575562
alexnet_w1_mlp_simclrhn_probe2,1,482,NaN,bicycle,clock,0,0482_sty_dnn_0_clock_00_clock-0091-ILSVRC2012-val-00044029.png,clock-0091-ILSVRC2012-val-00044029.png,0.0,-4.220693,-0.16609041,-2.867037
alexnet_w1_mlp_simclrhn_probe2,1,483,NaN,oven,clock,0,0483_sty_dnn_0_clock_00_clock-0092-ILSVRC2012-val-00044168.png,clock-0092-ILSVRC2012-val-00044168.png,0.0,-3.2245016,0.41717014,-2.5750508
alexnet_w1_mlp_simclrhn_probe2,1,484,NaN,oven,clock,0,0484_sty_dnn_0_clock_00_clock-0098-ILSVRC2012-val-00048682.png,clock-0098-ILSVRC2012-val-00048682.png,0.0,-3.1275742,-0.48584497,-1.8679848
alexnet_w1_mlp_simclrhn_probe2,1,485,NaN,boat,clock,0,0485_sty_dnn_0_clock_00_clock-0100-ILSVRC2012-val-00049759.png,clock-0100-ILSVRC2012-val-00049759.png,0.0,-1.1683149,-0.33792782,-0.5871724
alexnet_w1_mlp_simclrhn_probe2,1,486,NaN,oven,clock,0,0486_sty_dnn_0_clock_00_clock-0106-ILSVRC2012-val-00009413.png,clock-0106-ILSVRC2012-val-00009413.png,0.0,-1.8664021,-0.13441181,-1.2247021
alexnet_w1_mlp_simclrhn_probe2,1,487,NaN,clock,clock,0,0487_sty_dnn_0_clock_00_clock-0107-ILSVRC2012-val-00010270.png,clock-0107-ILSVRC2012-val-00010270.png,1.0,-1.1557058,-1.4285507,0.19293049
alexnet_w1_mlp_simclrhn_probe2,1,488,NaN,bicycle,clock,0,0488_sty_dnn_0_clock_00_clock-0108-ILSVRC2012-val-00011957.png,clock-0108-ILSVRC2012-val-00011957.png,0.0,-1.5829825,-1.3612574,-0.15678333
alexnet_w1_mlp_simclrhn_probe2,1,489,NaN,bottle,clock,0,0489_sty_dnn_0_clock_00_clock-0110-ILSVRC2012-val-00014035.png,clock-0110-ILSVRC2012-val-00014035.png,0.0,0.22641319,0.22883002,-0.0017089599
alexnet_w1_mlp_simclrhn_probe2,1,490,NaN,oven,clock,0,0490_sty_dnn_0_clock_00_clock-0112-ILSVRC2012-val-00014635.png,clock-0112-ILSVRC2012-val-00014635.png,0.0,-5.0495796,-0.40938878,-3.2811105
alexnet_w1_mlp_simclrhn_probe2,1,491,NaN,knife,clock,0,0491_sty_dnn_0_clock_00_clock-0118-ILSVRC2012-val-00018443.png,clock-0118-ILSVRC2012-val-00018443.png,0.0,-1.2042247,-1.0831889,-0.085585244
alexnet_w1_mlp_simclrhn_probe2,1,492,NaN,bottle,clock,0,0492_sty_dnn_0_clock_00_clock-0119-ILSVRC2012-val-00018797.png,clock-0119-ILSVRC2012-val-00018797.png,0.0,-0.6243717,0.3545888,-0.6922296
alexnet_w1_mlp_simclrhn_probe2,1,493,NaN,oven,clock,0,0493_sty_dnn_0_clock_00_clock-0127-ILSVRC2012-val-00030330.png,clock-0127-ILSVRC2012-val-00030330.png,0.0,-3.5388794,-0.35995978,-2.2478356
alexnet_w1_mlp_simclrhn_probe2,1,494,NaN,bicycle,clock,0,0494_sty_dnn_0_clock_00_clock-0128-ILSVRC2012-val-00030987.png,clock-0128-ILSVRC2012-val-00030987.png,0.0,-0.86124927,-0.3310169,-0.37493092
alexnet_w1_mlp_simclrhn_probe2,1,495,NaN,bottle,clock,0,0495_sty_dnn_0_clock_00_clock-0129-ILSVRC2012-val-00031861.png,clock-0129-ILSVRC2012-val-00031861.png,0.0,-1.2303838,0.9080057,-1.5120698
alexnet_w1_mlp_simclrhn_probe2,1,496,NaN,clock,clock,0,0496_sty_dnn_0_clock_00_clock-0130-ILSVRC2012-val-00032136.png,clock-0130-ILSVRC2012-val-00032136.png,1.0,-0.92834306,-1.4318464,0.3560306
alexnet_w1_mlp_simclrhn_probe2,1,497,NaN,clock,clock,0,0497_sty_dnn_0_clock_00_clock-0142-ILSVRC2012-val-00041461.png,clock-0142-ILSVRC2012-val-00041461.png,1.0,-0.88643247,-1.2387954,0.24915822
alexnet_w1_mlp_simclrhn_probe2,1,498,NaN,oven,clock,0,0498_sty_dnn_0_clock_00_clock-0143-ILSVRC2012-val-00041547.png,clock-0143-ILSVRC2012-val-00041547.png,0.0,-1.9903216,-0.35533687,-1.1561089
alexnet_w1_mlp_simclrhn_probe2,1,499,NaN,clock,clock,0,0499_sty_dnn_0_clock_00_clock-0144-ILSVRC2012-val-00041715.png,clock-0144-ILSVRC2012-val-00041715.png,1.0,1.5788584,-0.4300922,1.4205425
alexnet_w1_mlp_simclrhn_probe2,1,500,NaN,oven,clock,0,0500_sty_dnn_0_clock_00_clock-0145-ILSVRC2012-val-00044685.png,clock-0145-ILSVRC2012-val-00044685.png,0.0,-4.290995,0.18519484,-3.1651444
alexnet_w1_mlp_simclrhn_probe2,1,501,NaN,dog,dog,0,0501_sty_dnn_0_dog_00_dog-0099-ILSVRC2012-val-00048280.png,dog-0099-ILSVRC2012-val-00048280.png,1.0,-0.6505207,-1.089726,0.31056505
alexnet_w1_mlp_simclrhn_probe2,1,502,NaN,oven,dog,0,0502_sty_dnn_0_dog_00_dog-0158-ILSVRC2012-val-00004081.png,dog-0158-ILSVRC2012-val-00004081.png,0.0,-2.8050122,0.15983167,-2.0964613
alexnet_w1_mlp_simclrhn_probe2,1,503,NaN,oven,dog,0,0503_sty_dnn_0_dog_00_dog-0220-ILSVRC2012-val-00017568.png,dog-0220-ILSVRC2012-val-00017568.png,0.0,-2.1747897,-1.2322078,-0.66650605
alexnet_w1_mlp_simclrhn_probe2,1,504,NaN,elephant,dog,0,0504_sty_dnn_0_dog_00_dog-0247-ILSVRC2012-val-00045683.png,dog-0247-ILSVRC2012-val-00045683.png,0.0,-1.5848844,-0.1410115,-1.0209724
alexnet_w1_mlp_simclrhn_probe2,1,505,NaN,bear,dog,0,0505_sty_dnn_0_dog_00_dog-0303-ILSVRC2012-val-00002521.png,dog-0303-ILSVRC2012-val-00002521.png,0.0,-0.48649898,0.8566114,-0.9497224
alexnet_w1_mlp_simclrhn_probe2,1,506,NaN,cat,dog,0,0506_sty_dnn_0_dog_00_dog-0386-ILSVRC2012-val-00034616.png,dog-0386-ILSVRC2012-val-00034616.png,0.0,-0.29368225,0.44704995,-0.52377677
alexnet_w1_mlp_simclrhn_probe2,1,507,NaN,knife,dog,0,0507_sty_dnn_0_dog_00_dog-0397-ILSVRC2012-val-00044140.png,dog-0397-ILSVRC2012-val-00044140.png,0.0,-3.0169575,-1.7635977,-0.8862592
alexnet_w1_mlp_simclrhn_probe2,1,508,NaN,bear,dog,0,0508_sty_dnn_0_dog_00_dog-0779-ILSVRC2012-val-00033666.png,dog-0779-ILSVRC2012-val-00033666.png,0.0,-2.180297,-0.9763749,-0.85130143
alexnet_w1_mlp_simclrhn_probe2,1,509,NaN,dog,dog,0,0509_sty_dnn_0_dog_00_dog-1178-ILSVRC2012-val-00022137.png,dog-1178-ILSVRC2012-val-00022137.png,1.0,0.8510221,0.25401726,0.4221462
alexnet_w1_mlp_simclrhn_probe2,1,510,NaN,elephant,dog,0,0510_sty_dnn_0_dog_00_dog-1191-ILSVRC2012-val-00037989.png,dog-1191-ILSVRC2012-val-00037989.png,0.0,-1.9972974,0.0499423,-1.4476172
alexnet_w1_mlp_simclrhn_probe2,1,511,NaN,cat,dog,0,0511_sty_dnn_0_dog_00_dog-1398-ILSVRC2012-val-00046547.png,dog-1398-ILSVRC2012-val-00046547.png,0.0,-2.2812357,-1.5898803,-0.48886207
alexnet_w1_mlp_simclrhn_probe2,1,512,NaN,knife,dog,0,0512_sty_dnn_0_dog_00_dog-1538-ILSVRC2012-val-00038167.png,dog-1538-ILSVRC2012-val-00038167.png,0.0,-6.317996,-0.046312004,-4.4347506
alexnet_w1_mlp_simclrhn_probe2,1,513,NaN,cat,dog,0,0513_sty_dnn_0_dog_00_dog-1613-ILSVRC2012-val-00015923.png,dog-1613-ILSVRC2012-val-00015923.png,0.0,-1.5578738,-0.5605361,-0.7052243
alexnet_w1_mlp_simclrhn_probe2,1,514,NaN,oven,dog,0,0514_sty_dnn_0_dog_00_dog-1734-ILSVRC2012-val-00031377.png,dog-1734-ILSVRC2012-val-00031377.png,0.0,-1.9934154,0.065231174,-1.4556829
