subj,session,trial,rt,object_response,category,condition,imagename,filename,is_correct,targ_act,max_nontarg_act,decision_margin
alexnet,1,1,NaN,bicycle,airplane,0,0001_sty_dnn_0_airplane_00_airplane-0001-ILSVRC2012-val-00000631.png,00_airplane-0001-ILSVRC2012-val-00000631.png,0.0,3.2922013,5.2908735,-1.4132748
alexnet,1,2,NaN,knife,airplane,0,0002_sty_dnn_0_airplane_00_airplane-0002-ILSVRC2012-val-00001390.png,00_airplane-0002-ILSVRC2012-val-00001390.png,0.0,2.6167827,2.8274913,-0.14899349
alexnet,1,3,NaN,bicycle,airplane,0,0003_sty_dnn_0_airplane_00_airplane-0003-ILSVRC2012-val-00001506.png,00_airplane-0003-ILSVRC2012-val-00001506.png,0.0,-1.7889922,3.3603334,-3.641123
alexnet,1,4,NaN,bear,airplane,0,0004_sty_dnn_0_airplane_00_airplane-0004-ILSVRC2012-val-00001952.png,00_airplane-0004-ILSVRC2012-val-00001952.png,0.0,-1.4540155,7.843643,-6.5744376
alexnet,1,5,NaN,bear,airplane,0,0005_sty_dnn_0_airplane_00_airplane-0005-ILSVRC2012-val-00003960.png,00_airplane-0005-ILSVRC2012-val-00003960.png,0.0,2.0970078,5.192766,-2.1890318
alexnet,1,6,NaN,elephant,airplane,0,0006_sty_dnn_0_airplane_00_airplane-0006-ILSVRC2012-val-00008292.png,00_airplane-0006-ILSVRC2012-val-00008292.png,0.0,-2.4362326,5.668564,-5.7309566
alexnet,1,7,NaN,airplane,airplane,0,0007_sty_dnn_0_airplane_00_airplane-0007-ILSVRC2012-val-00009537.png,00_airplane-0007-ILSVRC2012-val-00009537.png,1.0,6.372945,4.38615,1.4048762
alexnet,1,8,NaN,elephant,airplane,0,0008_sty_dnn_0_airplane_00_airplane-0008-ILSVRC2012-val-00010597.png,00_airplane-0008-ILSVRC2012-val-00010597.png,0.0,-3.1001253,4.934183,-5.681114
alexnet,1,9,NaN,oven,airplane,0,0009_sty_dnn_0_airplane_00_airplane-0009-ILSVRC2012-val-00011168.png,00_airplane-0009-ILSVRC2012-val-00011168.png,0.0,1.5366693,4.8722672,-2.358624
alexnet,1,10,NaN,keyboard,airplane,0,0010_sty_dnn_0_airplane_00_airplane-0010-ILSVRC2012-val-00012263.png,00_airplane-0010-ILSVRC2012-val-00012263.png,0.0,-2.038056,4.1589856,-4.38197
alexnet,1,11,NaN,oven,airplane,0,0011_sty_dnn_0_airplane_00_airplane-0011-ILSVRC2012-val-00014425.png,00_airplane-0011-ILSVRC2012-val-00014425.png,0.0,-1.4660112,6.4457226,-5.5944405
alexnet,1,12,NaN,elephant,airplane,0,0012_sty_dnn_0_airplane_00_airplane-0012-ILSVRC2012-val-00015498.png,00_airplane-0012-ILSVRC2012-val-00015498.png,0.0,-4.0580254,3.6152682,-5.425838
alexnet,1,13,NaN,clock,airplane,0,0013_sty_dnn_0_airplane_00_airplane-0013-ILSVRC2012-val-00015636.png,00_airplane-0013-ILSVRC2012-val-00015636.png,0.0,-1.6428881,5.1143446,-4.778085
alexnet,1,14,NaN,oven,airplane,0,0014_sty_dnn_0_airplane_00_airplane-0014-ILSVRC2012-val-00016995.png,00_airplane-0014-ILSVRC2012-val-00016995.png,0.0,-1.7880381,7.7078815,-6.714629
alexnet,1,15,NaN,oven,airplane,0,0015_sty_dnn_0_airplane_00_airplane-0015-ILSVRC2012-val-00018616.png,00_airplane-0015-ILSVRC2012-val-00018616.png,0.0,3.3550067,5.3216295,-1.3906124
alexnet,1,16,NaN,knife,airplane,0,0016_sty_dnn_0_airplane_00_airplane-0016-ILSVRC2012-val-00018685.png,00_airplane-0016-ILSVRC2012-val-00018685.png,0.0,-3.1630316,4.092422,-5.1303806
alexnet,1,17,NaN,knife,airplane,0,0017_sty_dnn_0_airplane_00_airplane-0017-ILSVRC2012-val-00019179.png,00_airplane-0017-ILSVRC2012-val-00019179.png,0.0,-7.3957853,4.782734,-8.611514
alexnet,1,18,NaN,knife,airplane,0,0018_sty_dnn_0_airplane_00_airplane-0018-ILSVRC2012-val-00019677.png,00_airplane-0018-ILSVRC2012-val-00019677.png,0.0,-1.2223806,3.5347795,-3.3638203
alexnet,1,19,NaN,knife,airplane,0,0019_sty_dnn_0_airplane_00_airplane-0019-ILSVRC2012-val-00022532.png,00_airplane-0019-ILSVRC2012-val-00022532.png,0.0,-1.500546,5.580409,-5.0069914
alexnet,1,20,NaN,bicycle,airplane,0,0020_sty_dnn_0_airplane_00_airplane-0020-ILSVRC2012-val-00022975.png,00_airplane-0020-ILSVRC2012-val-00022975.png,0.0,-0.8758757,5.202337,-4.2979455
alexnet,1,21,NaN,oven,airplane,0,0021_sty_dnn_0_airplane_00_airplane-0021-ILSVRC2012-val-00023316.png,00_airplane-0021-ILSVRC2012-val-00023316.png,0.0,-1.3729796,4.785676,-4.3548274
alexnet,1,22,NaN,knife,airplane,0,0022_sty_dnn_0_airplane_00_airplane-0022-ILSVRC2012-val-00023781.png,00_airplane-0022-ILSVRC2012-val-00023781.png,0.0,-1.8822294,2.0823054,-2.8033495
alexnet,1,23,NaN,airplane,airplane,0,0023_sty_dnn_0_airplane_00_airplane-0023-ILSVRC2012-val-00023863.png,00_airplane-0023-ILSVRC2012-val-00023863.png,1.0,10.806262,4.116804,4.730161
alexnet,1,24,NaN,elephant,airplane,0,0024_sty_dnn_0_airplane_00_airplane-0024-ILSVRC2012-val-00024108.png,00_airplane-0024-ILSVRC2012-val-00024108.png,0.0,0.3499865,2.919775,-1.8171148
alexnet,1,25,NaN,airplane,airplane,0,0025_sty_dnn_0_airplane_00_airplane-0025-ILSVRC2012-val-00024747.png,00_airplane-0025-ILSVRC2012-val-00024747.png,1.0,12.332853,7.0004873,3.7705522
alexnet,1,26,NaN,cat,airplane,0,0026_sty_dnn_0_airplane_00_airplane-0026-ILSVRC2012-val-00026189.png,00_airplane-0026-ILSVRC2012-val-00026189.png,0.0,-4.9183364,3.265509,-5.786853
alexnet,1,27,NaN,knife,airplane,0,0027_sty_dnn_0_airplane_00_airplane-0027-ILSVRC2012-val-00026859.png,00_airplane-0027-ILSVRC2012-val-00026859.png,0.0,-0.70018655,3.5404005,-2.998548
alexnet,1,28,NaN,oven,airplane,0,0028_sty_dnn_0_airplane_00_airplane-0028-ILSVRC2012-val-00028019.png,00_airplane-0028-ILSVRC2012-val-00028019.png,0.0,-0.34191677,5.5581217,-4.171957
alexnet,1,29,NaN,clock,airplane,0,0029_sty_dnn_0_airplane_00_airplane-0029-ILSVRC2012-val-00030319.png,00_airplane-0029-ILSVRC2012-val-00030319.png,0.0,-4.650402,5.2120967,-6.97384
alexnet,1,30,NaN,oven,airplane,0,0030_sty_dnn_0_airplane_00_airplane-0030-ILSVRC2012-val-00030411.png,00_airplane-0030-ILSVRC2012-val-00030411.png,0.0,0.07172012,6.246648,-4.3663335
alexnet,1,31,NaN,airplane,airplane,0,0031_sty_dnn_0_airplane_00_airplane-0031-ILSVRC2012-val-00030531.png,00_airplane-0031-ILSVRC2012-val-00030531.png,1.0,8.647345,4.693797,2.7955804
alexnet,1,32,NaN,bicycle,airplane,0,0032_sty_dnn_0_airplane_00_airplane-0032-ILSVRC2012-val-00032804.png,00_airplane-0032-ILSVRC2012-val-00032804.png,0.0,-2.5094402,2.9203076,-3.8394115
alexnet,1,33,NaN,bicycle,airplane,0,0033_sty_dnn_0_airplane_00_airplane-0033-ILSVRC2012-val-00033161.png,00_airplane-0033-ILSVRC2012-val-00033161.png,0.0,-3.5231318,2.8867593,-4.5324774
alexnet,1,34,NaN,elephant,airplane,0,0034_sty_dnn_0_airplane_00_airplane-0034-ILSVRC2012-val-00033441.png,00_airplane-0034-ILSVRC2012-val-00033441.png,0.0,-1.430029,3.893588,-3.7643657
alexnet,1,35,NaN,elephant,airplane,0,0035_sty_dnn_0_airplane_00_airplane-0035-ILSVRC2012-val-00033920.png,00_airplane-0035-ILSVRC2012-val-00033920.png,0.0,2.067445,4.5541797,-1.758387
alexnet,1,36,NaN,oven,airplane,0,0036_sty_dnn_0_airplane_00_airplane-0036-ILSVRC2012-val-00034342.png,00_airplane-0036-ILSVRC2012-val-00034342.png,0.0,0.6578603,2.3510723,-1.1972817
alexnet,1,37,NaN,bicycle,airplane,0,0037_sty_dnn_0_airplane_00_airplane-0037-ILSVRC2012-val-00035783.png,00_airplane-0037-ILSVRC2012-val-00035783.png,0.0,-2.7285001,2.9012558,-3.9808388
alexnet,1,38,NaN,bicycle,airplane,0,0038_sty_dnn_0_airplane_00_airplane-0038-ILSVRC2012-val-00036394.png,00_airplane-0038-ILSVRC2012-val-00036394.png,0.0,0.37896252,2.3260632,-1.376808
alexnet,1,39,NaN,bicycle,airplane,0,0039_sty_dnn_0_airplane_00_airplane-0039-ILSVRC2012-val-00037801.png,00_airplane-0039-ILSVRC2012-val-00037801.png,0.0,-5.8240714,5.0791683,-7.7097554
alexnet,1,40,NaN,elephant,airplane,0,0040_sty_dnn_0_airplane_00_airplane-0040-ILSVRC2012-val-00039213.png,00_airplane-0040-ILSVRC2012-val-00039213.png,0.0,1.271584,5.4195657,-2.933066
alexnet,1,41,NaN,knife,airplane,0,0041_sty_dnn_0_airplane_00_airplane-0041-ILSVRC2012-val-00040136.png,00_airplane-0041-ILSVRC2012-val-00040136.png,0.0,-0.94905406,4.3087425,-3.7178237
alexnet,1,42,NaN,bicycle,airplane,0,0042_sty_dnn_0_airplane_00_airplane-0042-ILSVRC2012-val-00040547.png,00_airplane-0042-ILSVRC2012-val-00040547.png,0.0,-5.492262,4.363698,-6.9692163
alexnet,1,43,NaN,bear,airplane,0,0043_sty_dnn_0_airplane_00_airplane-0043-ILSVRC2012-val-00041518.png,00_airplane-0043-ILSVRC2012-val-00041518.png,0.0,-1.6675689,2.6313698,-3.0398088
alexnet,1,44,NaN,airplane,airplane,0,0044_sty_dnn_0_airplane_00_airplane-0044-ILSVRC2012-val-00043242.png,00_airplane-0044-ILSVRC2012-val-00043242.png,1.0,5.7412596,4.7855434,0.67579335
alexnet,1,45,NaN,oven,airplane,0,0045_sty_dnn_0_airplane_00_airplane-0045-ILSVRC2012-val-00044253.png,00_airplane-0045-ILSVRC2012-val-00044253.png,0.0,-3.530294,4.69428,-5.8156524
alexnet,1,46,NaN,knife,airplane,0,0046_sty_dnn_0_airplane_00_airplane-0046-ILSVRC2012-val-00046862.png,00_airplane-0046-ILSVRC2012-val-00046862.png,0.0,-2.4678817,3.8903499,-4.495949
alexnet,1,47,NaN,knife,airplane,0,0047_sty_dnn_0_airplane_00_airplane-0047-ILSVRC2012-val-00046971.png,00_airplane-0047-ILSVRC2012-val-00046971.png,0.0,-2.4983487,3.6504061,-4.3478265
alexnet,1,48,NaN,oven,airplane,0,0048_sty_dnn_0_airplane_00_airplane-0048-ILSVRC2012-val-00047829.png,00_airplane-0048-ILSVRC2012-val-00047829.png,0.0,1.8774364,5.469345,-2.539863
alexnet,1,49,NaN,clock,airplane,0,0049_sty_dnn_0_airplane_00_airplane-0049-ILSVRC2012-val-00048111.png,00_airplane-0049-ILSVRC2012-val-00048111.png,0.0,-0.050807,2.6624177,-1.9185395
alexnet,1,50,NaN,boat,airplane,0,0050_sty_dnn_0_airplane_00_airplane-0050-ILSVRC2012-val-00049097.png,00_airplane-0050-ILSVRC2012-val-00049097.png,0.0,3.517509,4.228103,-0.50246596
alexnet,1,51,NaN,bottle,bear,0,0051_sty_dnn_0_bear_00_bear-0003-ILSVRC2012-val-00003044.png,00_bear-0003-ILSVRC2012-val-00003044.png,0.0,-3.6001694,1.4708929,-3.5857825
alexnet,1,52,NaN,elephant,bear,0,0052_sty_dnn_0_bear_00_bear-0005-ILSVRC2012-val-00006703.png,00_bear-0005-ILSVRC2012-val-00006703.png,0.0,4.2441235,4.269541,-0.017972765
alexnet,1,53,NaN,elephant,bear,0,0053_sty_dnn_0_bear_00_bear-0009-ILSVRC2012-val-00011967.png,00_bear-0009-ILSVRC2012-val-00011967.png,0.0,0.33052772,4.626897,-3.0379918
alexnet,1,54,NaN,elephant,bear,0,0054_sty_dnn_0_bear_00_bear-0010-ILSVRC2012-val-00013390.png,00_bear-0010-ILSVRC2012-val-00013390.png,0.0,4.580879,5.040786,-0.32520306
alexnet,1,55,NaN,elephant,bear,0,0055_sty_dnn_0_bear_00_bear-0021-ILSVRC2012-val-00031253.png,00_bear-0021-ILSVRC2012-val-00031253.png,0.0,5.0630827,7.9362936,-2.031667
alexnet,1,56,NaN,clock,bear,0,0056_sty_dnn_0_bear_00_bear-0031-ILSVRC2012-val-00039777.png,00_bear-0031-ILSVRC2012-val-00039777.png,0.0,-2.080242,4.92895,-4.956247
alexnet,1,57,NaN,elephant,bear,0,0057_sty_dnn_0_bear_00_bear-0035-ILSVRC2012-val-00042274.png,00_bear-0035-ILSVRC2012-val-00042274.png,0.0,2.7380533,6.788521,-2.864113
alexnet,1,58,NaN,clock,bear,0,0058_sty_dnn_0_bear_00_bear-0043-ILSVRC2012-val-00046763.png,00_bear-0043-ILSVRC2012-val-00046763.png,0.0,-2.2804146,3.9569633,-4.4104924
alexnet,1,59,NaN,elephant,bear,0,0059_sty_dnn_0_bear_00_bear-0049-ILSVRC2012-val-00049822.png,00_bear-0049-ILSVRC2012-val-00049822.png,0.0,4.5587487,4.919383,-0.25500697
alexnet,1,60,NaN,bear,bear,0,0060_sty_dnn_0_bear_00_bear-0052-ILSVRC2012-val-00000865.png,00_bear-0052-ILSVRC2012-val-00000865.png,1.0,8.861538,6.2833858,1.8230289
alexnet,1,61,NaN,knife,bear,0,0061_sty_dnn_0_bear_00_bear-0056-ILSVRC2012-val-00007093.png,00_bear-0056-ILSVRC2012-val-00007093.png,0.0,-4.7988095,5.291991,-7.135274
alexnet,1,62,NaN,elephant,bear,0,0062_sty_dnn_0_bear_00_bear-0058-ILSVRC2012-val-00011726.png,00_bear-0058-ILSVRC2012-val-00011726.png,0.0,5.6821537,6.5769277,-0.63270074
alexnet,1,63,NaN,oven,bear,0,0063_sty_dnn_0_bear_00_bear-0062-ILSVRC2012-val-00014029.png,00_bear-0062-ILSVRC2012-val-00014029.png,0.0,3.755549,4.2787886,-0.3699863
alexnet,1,64,NaN,knife,bear,0,0064_sty_dnn_0_bear_00_bear-0064-ILSVRC2012-val-00016050.png,00_bear-0064-ILSVRC2012-val-00016050.png,0.0,-2.5785227,2.8474486,-3.836741
alexnet,1,65,NaN,clock,bear,0,0065_sty_dnn_0_bear_00_bear-0066-ILSVRC2012-val-00016621.png,00_bear-0066-ILSVRC2012-val-00016621.png,0.0,-4.647869,6.0544395,-7.567675
alexnet,1,66,NaN,knife,bear,0,0066_sty_dnn_0_bear_00_bear-0067-ILSVRC2012-val-00017273.png,00_bear-0067-ILSVRC2012-val-00017273.png,0.0,-3.4537365,5.3633094,-6.2345934
alexnet,1,67,NaN,bottle,bear,0,0067_sty_dnn_0_bear_00_bear-0069-ILSVRC2012-val-00018788.png,00_bear-0069-ILSVRC2012-val-00018788.png,0.0,-2.3530617,3.927105,-4.4407487
alexnet,1,68,NaN,bicycle,bear,0,0068_sty_dnn_0_bear_00_bear-0071-ILSVRC2012-val-00020050.png,00_bear-0071-ILSVRC2012-val-00020050.png,0.0,2.1253314,2.4652705,-0.24037325
alexnet,1,69,NaN,clock,bear,0,0069_sty_dnn_0_bear_00_bear-0073-ILSVRC2012-val-00024289.png,00_bear-0073-ILSVRC2012-val-00024289.png,0.0,-0.76538104,5.1602664,-4.1900654
alexnet,1,70,NaN,chair,bear,0,0070_sty_dnn_0_bear_00_bear-0074-ILSVRC2012-val-00026962.png,00_bear-0074-ILSVRC2012-val-00026962.png,0.0,-2.9567757,3.7974494,-4.775958
alexnet,1,71,NaN,elephant,bear,0,0071_sty_dnn_0_bear_00_bear-0078-ILSVRC2012-val-00030951.png,00_bear-0078-ILSVRC2012-val-00030951.png,0.0,0.4458493,4.7667665,-3.0553498
alexnet,1,72,NaN,clock,bear,0,0072_sty_dnn_0_bear_00_bear-0085-ILSVRC2012-val-00035292.png,00_bear-0085-ILSVRC2012-val-00035292.png,0.0,1.0212163,4.9265876,-2.7615144
alexnet,1,73,NaN,elephant,bear,0,0073_sty_dnn_0_bear_00_bear-0091-ILSVRC2012-val-00041813.png,00_bear-0091-ILSVRC2012-val-00041813.png,0.0,3.1504889,5.2309966,-1.4711412
alexnet,1,74,NaN,elephant,bear,0,0074_sty_dnn_0_bear_00_bear-0094-ILSVRC2012-val-00043648.png,00_bear-0094-ILSVRC2012-val-00043648.png,0.0,-0.830276,7.053158,-5.5744295
alexnet,1,75,NaN,chair,bear,0,0075_sty_dnn_0_bear_00_bear-0106-ILSVRC2012-val-00007578.png,00_bear-0106-ILSVRC2012-val-00007578.png,0.0,-2.5184236,3.6830864,-4.38513
alexnet,1,76,NaN,chair,bear,0,0076_sty_dnn_0_bear_00_bear-0112-ILSVRC2012-val-00016340.png,00_bear-0112-ILSVRC2012-val-00016340.png,0.0,-1.5847256,4.007599,-3.9543705
alexnet,1,77,NaN,bear,bear,0,0077_sty_dnn_0_bear_00_bear-0113-ILSVRC2012-val-00016459.png,00_bear-0113-ILSVRC2012-val-00016459.png,1.0,4.803651,3.4403272,0.9640154
alexnet,1,78,NaN,elephant,bear,0,0078_sty_dnn_0_bear_00_bear-0114-ILSVRC2012-val-00017605.png,00_bear-0114-ILSVRC2012-val-00017605.png,0.0,3.5537667,5.6094027,-1.4535542
alexnet,1,79,NaN,cat,bear,0,0079_sty_dnn_0_bear_00_bear-0116-ILSVRC2012-val-00020332.png,00_bear-0116-ILSVRC2012-val-00020332.png,0.0,1.9123306,5.34885,-2.429986
alexnet,1,80,NaN,oven,bear,0,0080_sty_dnn_0_bear_00_bear-0125-ILSVRC2012-val-00028222.png,00_bear-0125-ILSVRC2012-val-00028222.png,0.0,-1.2184718,9.683674,-7.708981
alexnet,1,81,NaN,knife,bear,0,0081_sty_dnn_0_bear_00_bear-0129-ILSVRC2012-val-00030485.png,00_bear-0129-ILSVRC2012-val-00030485.png,0.0,-2.6717615,5.1460366,-5.528018
alexnet,1,82,NaN,elephant,bear,0,0082_sty_dnn_0_bear_00_bear-0131-ILSVRC2012-val-00031877.png,00_bear-0131-ILSVRC2012-val-00031877.png,0.0,3.8049166,6.363962,-1.8095185
alexnet,1,83,NaN,knife,bear,0,0083_sty_dnn_0_bear_00_bear-0132-ILSVRC2012-val-00036763.png,00_bear-0132-ILSVRC2012-val-00036763.png,0.0,-4.528368,2.7087047,-5.1173835
alexnet,1,84,NaN,chair,bear,0,0084_sty_dnn_0_bear_00_bear-0139-ILSVRC2012-val-00041156.png,00_bear-0139-ILSVRC2012-val-00041156.png,0.0,-4.3537154,3.6161156,-5.6355214
alexnet,1,85,NaN,bear,bear,0,0085_sty_dnn_0_bear_00_bear-0141-ILSVRC2012-val-00042320.png,00_bear-0141-ILSVRC2012-val-00042320.png,1.0,6.7089024,6.612443,0.06820709
alexnet,1,86,NaN,cat,bear,0,0086_sty_dnn_0_bear_00_bear-0143-ILSVRC2012-val-00044126.png,00_bear-0143-ILSVRC2012-val-00044126.png,0.0,1.8775852,4.7133083,-2.0051591
alexnet,1,87,NaN,knife,bear,0,0087_sty_dnn_0_bear_00_bear-0149-ILSVRC2012-val-00048105.png,00_bear-0149-ILSVRC2012-val-00048105.png,0.0,-0.2932561,2.853375,-2.2250042
alexnet,1,88,NaN,elephant,bear,0,0088_sty_dnn_0_bear_00_bear-0154-ILSVRC2012-val-00003499.png,00_bear-0154-ILSVRC2012-val-00003499.png,0.0,-1.5217986,3.370109,-3.4591012
alexnet,1,89,NaN,dog,bear,0,0089_sty_dnn_0_bear_00_bear-0160-ILSVRC2012-val-00013052.png,00_bear-0160-ILSVRC2012-val-00013052.png,0.0,2.0600398,3.505749,-1.0222708
alexnet,1,90,NaN,chair,bear,0,0090_sty_dnn_0_bear_00_bear-0163-ILSVRC2012-val-00016513.png,00_bear-0163-ILSVRC2012-val-00016513.png,0.0,-0.2160662,3.1310258,-2.3667514
alexnet,1,91,NaN,bicycle,bear,0,0091_sty_dnn_0_bear_00_bear-0164-ILSVRC2012-val-00018303.png,00_bear-0164-ILSVRC2012-val-00018303.png,0.0,-2.2667487,4.605234,-4.8592257
alexnet,1,92,NaN,airplane,bear,0,0092_sty_dnn_0_bear_00_bear-0165-ILSVRC2012-val-00019901.png,00_bear-0165-ILSVRC2012-val-00019901.png,0.0,1.1211634,3.3112154,-1.5486007
alexnet,1,93,NaN,knife,bear,0,0093_sty_dnn_0_bear_00_bear-0166-ILSVRC2012-val-00022111.png,00_bear-0166-ILSVRC2012-val-00022111.png,0.0,-3.5451212,3.7341704,-5.1472363
alexnet,1,94,NaN,elephant,bear,0,0094_sty_dnn_0_bear_00_bear-0167-ILSVRC2012-val-00022112.png,00_bear-0167-ILSVRC2012-val-00022112.png,0.0,3.7006907,8.331986,-3.2748206
alexnet,1,95,NaN,elephant,bear,0,0095_sty_dnn_0_bear_00_bear-0168-ILSVRC2012-val-00022698.png,00_bear-0168-ILSVRC2012-val-00022698.png,0.0,3.5616045,4.50608,-0.66784513
alexnet,1,96,NaN,clock,bear,0,0096_sty_dnn_0_bear_00_bear-0180-ILSVRC2012-val-00034637.png,00_bear-0180-ILSVRC2012-val-00034637.png,0.0,-0.35158032,3.1885226,-2.5032308
alexnet,1,97,NaN,chair,bear,0,0097_sty_dnn_0_bear_00_bear-0184-ILSVRC2012-val-00038961.png,00_bear-0184-ILSVRC2012-val-00038961.png,0.0,-3.656808,5.5507717,-6.510742
alexnet,1,98,NaN,knife,bear,0,0098_sty_dnn_0_bear_00_bear-0188-ILSVRC2012-val-00043016.png,00_bear-0188-ILSVRC2012-val-00043016.png,0.0,-3.8169308,5.444313,-6.5486884
alexnet,1,99,NaN,chair,bear,0,0099_sty_dnn_0_bear_00_bear-0191-ILSVRC2012-val-00044349.png,00_bear-0191-ILSVRC2012-val-00044349.png,0.0,-1.8773007,1.8947392,-2.6672351
alexnet,1,100,NaN,elephant,bear,0,0100_sty_dnn_0_bear_00_bear-0195-ILSVRC2012-val-00045672.png,00_bear-0195-ILSVRC2012-val-00045672.png,0.0,2.7076602,3.9495628,-0.87815773
alexnet,1,101,NaN,clock,bicycle,0,0101_sty_dnn_0_bicycle_00_bicycle-0005-ILSVRC2012-val-00005274.png,00_bicycle-0005-ILSVRC2012-val-00005274.png,0.0,-4.0227914,4.7082615,-6.1737866
alexnet,1,102,NaN,oven,bicycle,0,0102_sty_dnn_0_bicycle_00_bicycle-0007-ILSVRC2012-val-00006395.png,00_bicycle-0007-ILSVRC2012-val-00006395.png,0.0,3.5110154,4.932066,-1.0048345
alexnet,1,103,NaN,bicycle,bicycle,0,0103_sty_dnn_0_bicycle_00_bicycle-0008-ILSVRC2012-val-00008007.png,00_bicycle-0008-ILSVRC2012-val-00008007.png,1.0,7.9286814,4.362564,2.5216258
alexnet,1,104,NaN,bicycle,bicycle,0,0104_sty_dnn_0_bicycle_00_bicycle-0010-ILSVRC2012-val-00010544.png,00_bicycle-0010-ILSVRC2012-val-00010544.png,1.0,5.509226,3.6309214,1.3281618
alexnet,1,105,NaN,bicycle,bicycle,0,0105_sty_dnn_0_bicycle_00_bicycle-0011-ILSVRC2012-val-00011821.png,00_bicycle-0011-ILSVRC2012-val-00011821.png,1.0,4.23215,2.9235723,0.92530423
alexnet,1,106,NaN,bicycle,bicycle,0,0106_sty_dnn_0_bicycle_00_bicycle-0013-ILSVRC2012-val-00012667.png,00_bicycle-0013-ILSVRC2012-val-00012667.png,1.0,5.117676,4.0618715,0.74656636
alexnet,1,107,NaN,knife,bicycle,0,0107_sty_dnn_0_bicycle_00_bicycle-0014-ILSVRC2012-val-00015483.png,00_bicycle-0014-ILSVRC2012-val-00015483.png,0.0,-0.8047043,5.116157,-4.1866813
alexnet,1,108,NaN,bicycle,bicycle,0,0108_sty_dnn_0_bicycle_00_bicycle-0015-ILSVRC2012-val-00015618.png,00_bicycle-0015-ILSVRC2012-val-00015618.png,1.0,5.429126,4.8182693,0.4319408
alexnet,1,109,NaN,knife,bicycle,0,0109_sty_dnn_0_bicycle_00_bicycle-0016-ILSVRC2012-val-00016532.png,00_bicycle-0016-ILSVRC2012-val-00016532.png,0.0,-0.83139765,6.1213284,-4.91632
alexnet,1,110,NaN,bicycle,bicycle,0,0110_sty_dnn_0_bicycle_00_bicycle-0018-ILSVRC2012-val-00018975.png,00_bicycle-0018-ILSVRC2012-val-00018975.png,1.0,14.936846,3.755042,7.906729
alexnet,1,111,NaN,bicycle,bicycle,0,0111_sty_dnn_0_bicycle_00_bicycle-0020-ILSVRC2012-val-00022027.png,00_bicycle-0020-ILSVRC2012-val-00022027.png,1.0,5.048186,3.2415264,1.2775012
alexnet,1,112,NaN,chair,bicycle,0,0112_sty_dnn_0_bicycle_00_bicycle-0022-ILSVRC2012-val-00023266.png,00_bicycle-0022-ILSVRC2012-val-00023266.png,0.0,2.6879015,5.668052,-2.1072848
alexnet,1,113,NaN,elephant,bicycle,0,0113_sty_dnn_0_bicycle_00_bicycle-0024-ILSVRC2012-val-00025915.png,00_bicycle-0024-ILSVRC2012-val-00025915.png,0.0,-1.3987269,4.103509,-3.8906684
alexnet,1,114,NaN,bicycle,bicycle,0,0114_sty_dnn_0_bicycle_00_bicycle-0026-ILSVRC2012-val-00026292.png,00_bicycle-0026-ILSVRC2012-val-00026292.png,1.0,6.945593,2.540348,3.1149786
alexnet,1,115,NaN,knife,bicycle,0,0115_sty_dnn_0_bicycle_00_bicycle-0030-ILSVRC2012-val-00027620.png,00_bicycle-0030-ILSVRC2012-val-00027620.png,0.0,0.6287625,2.695655,-1.4615138
alexnet,1,116,NaN,knife,bicycle,0,0116_sty_dnn_0_bicycle_00_bicycle-0032-ILSVRC2012-val-00030070.png,00_bicycle-0032-ILSVRC2012-val-00030070.png,0.0,0.1535424,4.0894055,-2.7830756
alexnet,1,117,NaN,knife,bicycle,0,0117_sty_dnn_0_bicycle_00_bicycle-0033-ILSVRC2012-val-00031498.png,00_bicycle-0033-ILSVRC2012-val-00031498.png,0.0,0.10633628,4.2705326,-2.9445317
alexnet,1,118,NaN,bicycle,bicycle,0,0118_sty_dnn_0_bicycle_00_bicycle-0035-ILSVRC2012-val-00033559.png,00_bicycle-0035-ILSVRC2012-val-00033559.png,1.0,6.212346,5.004773,0.853883
alexnet,1,119,NaN,bicycle,bicycle,0,0119_sty_dnn_0_bicycle_00_bicycle-0037-ILSVRC2012-val-00036009.png,00_bicycle-0037-ILSVRC2012-val-00036009.png,1.0,4.623472,4.3063483,0.22424045
alexnet,1,120,NaN,chair,bicycle,0,0120_sty_dnn_0_bicycle_00_bicycle-0038-ILSVRC2012-val-00036903.png,00_bicycle-0038-ILSVRC2012-val-00036903.png,0.0,2.5493567,5.8079796,-2.3041945
alexnet,1,121,NaN,bicycle,bicycle,0,0121_sty_dnn_0_bicycle_00_bicycle-0039-ILSVRC2012-val-00037292.png,00_bicycle-0039-ILSVRC2012-val-00037292.png,1.0,6.157847,4.6257877,1.0833294
alexnet,1,122,NaN,bicycle,bicycle,0,0122_sty_dnn_0_bicycle_00_bicycle-0040-ILSVRC2012-val-00037433.png,00_bicycle-0040-ILSVRC2012-val-00037433.png,1.0,10.529203,2.322136,5.803273
alexnet,1,123,NaN,bicycle,bicycle,0,0123_sty_dnn_0_bicycle_00_bicycle-0043-ILSVRC2012-val-00038415.png,00_bicycle-0043-ILSVRC2012-val-00038415.png,1.0,4.8660307,1.3266214,2.5027401
alexnet,1,124,NaN,bicycle,bicycle,0,0124_sty_dnn_0_bicycle_00_bicycle-0044-ILSVRC2012-val-00040027.png,00_bicycle-0044-ILSVRC2012-val-00040027.png,1.0,4.3985023,3.8219104,0.4077121
alexnet,1,125,NaN,bicycle,bicycle,0,0125_sty_dnn_0_bicycle_00_bicycle-0046-ILSVRC2012-val-00042496.png,00_bicycle-0046-ILSVRC2012-val-00042496.png,1.0,5.046419,1.3625895,2.604861
alexnet,1,126,NaN,bicycle,bicycle,0,0126_sty_dnn_0_bicycle_00_bicycle-0047-ILSVRC2012-val-00043435.png,00_bicycle-0047-ILSVRC2012-val-00043435.png,1.0,5.861466,2.3561401,2.4786396
alexnet,1,127,NaN,clock,bicycle,0,0127_sty_dnn_0_bicycle_00_bicycle-0048-ILSVRC2012-val-00045400.png,00_bicycle-0048-ILSVRC2012-val-00045400.png,0.0,4.5650797,6.0324264,-1.0375708
alexnet,1,128,NaN,knife,bicycle,0,0128_sty_dnn_0_bicycle_00_bicycle-0050-ILSVRC2012-val-00049382.png,00_bicycle-0050-ILSVRC2012-val-00049382.png,0.0,2.8438964,3.5558724,-0.5034431
alexnet,1,129,NaN,bicycle,bicycle,0,0129_sty_dnn_0_bicycle_00_bicycle-0054-ILSVRC2012-val-00004147.png,00_bicycle-0054-ILSVRC2012-val-00004147.png,1.0,8.520255,4.271332,3.0044425
alexnet,1,130,NaN,bicycle,bicycle,0,0130_sty_dnn_0_bicycle_00_bicycle-0056-ILSVRC2012-val-00005330.png,00_bicycle-0056-ILSVRC2012-val-00005330.png,1.0,3.790677,3.2419138,0.38803425
alexnet,1,131,NaN,bicycle,bicycle,0,0131_sty_dnn_0_bicycle_00_bicycle-0059-ILSVRC2012-val-00011329.png,00_bicycle-0059-ILSVRC2012-val-00011329.png,1.0,6.7749076,2.8745136,2.7579951
alexnet,1,132,NaN,bicycle,bicycle,0,0132_sty_dnn_0_bicycle_00_bicycle-0060-ILSVRC2012-val-00011330.png,00_bicycle-0060-ILSVRC2012-val-00011330.png,1.0,6.067045,4.8123765,0.8871848
alexnet,1,133,NaN,elephant,bicycle,0,0133_sty_dnn_0_bicycle_00_bicycle-0061-ILSVRC2012-val-00012096.png,00_bicycle-0061-ILSVRC2012-val-00012096.png,0.0,1.1931196,3.9141517,-1.9240603
alexnet,1,134,NaN,bicycle,bicycle,0,0134_sty_dnn_0_bicycle_00_bicycle-0062-ILSVRC2012-val-00015867.png,00_bicycle-0062-ILSVRC2012-val-00015867.png,1.0,3.099352,2.134578,0.68219817
alexnet,1,135,NaN,bottle,bicycle,0,0135_sty_dnn_0_bicycle_00_bicycle-0064-ILSVRC2012-val-00017103.png,00_bicycle-0064-ILSVRC2012-val-00017103.png,0.0,3.5853348,4.3557515,-0.5447669
alexnet,1,136,NaN,bottle,bicycle,0,0136_sty_dnn_0_bicycle_00_bicycle-0067-ILSVRC2012-val-00018304.png,00_bicycle-0067-ILSVRC2012-val-00018304.png,0.0,-1.016988,2.0396254,-2.1613522
alexnet,1,137,NaN,bear,bicycle,0,0137_sty_dnn_0_bicycle_00_bicycle-0070-ILSVRC2012-val-00020631.png,00_bicycle-0070-ILSVRC2012-val-00020631.png,0.0,0.8005964,6.8096952,-4.249075
alexnet,1,138,NaN,bicycle,bicycle,0,0138_sty_dnn_0_bicycle_00_bicycle-0073-ILSVRC2012-val-00027449.png,00_bicycle-0073-ILSVRC2012-val-00027449.png,1.0,8.504731,3.2886686,3.6883132
alexnet,1,139,NaN,cat,bicycle,0,0139_sty_dnn_0_bicycle_00_bicycle-0074-ILSVRC2012-val-00028824.png,00_bicycle-0074-ILSVRC2012-val-00028824.png,0.0,0.10183814,5.254904,-3.6437678
alexnet,1,140,NaN,bicycle,bicycle,0,0140_sty_dnn_0_bicycle_00_bicycle-0077-ILSVRC2012-val-00030112.png,00_bicycle-0077-ILSVRC2012-val-00030112.png,1.0,5.9713826,2.9018195,2.1705089
alexnet,1,141,NaN,bicycle,bicycle,0,0141_sty_dnn_0_bicycle_00_bicycle-0078-ILSVRC2012-val-00030892.png,00_bicycle-0078-ILSVRC2012-val-00030892.png,1.0,6.9917574,4.973148,1.4273725
alexnet,1,142,NaN,bicycle,bicycle,0,0142_sty_dnn_0_bicycle_00_bicycle-0079-ILSVRC2012-val-00031485.png,00_bicycle-0079-ILSVRC2012-val-00031485.png,1.0,7.349217,2.9444609,3.1146328
alexnet,1,143,NaN,bicycle,bicycle,0,0143_sty_dnn_0_bicycle_00_bicycle-0080-ILSVRC2012-val-00032009.png,00_bicycle-0080-ILSVRC2012-val-00032009.png,1.0,4.2661705,2.8845184,0.9769756
alexnet,1,144,NaN,bicycle,bicycle,0,0144_sty_dnn_0_bicycle_00_bicycle-0081-ILSVRC2012-val-00032967.png,00_bicycle-0081-ILSVRC2012-val-00032967.png,1.0,3.1723404,2.2434115,0.6568519
alexnet,1,145,NaN,bicycle,bicycle,0,0145_sty_dnn_0_bicycle_00_bicycle-0085-ILSVRC2012-val-00037438.png,00_bicycle-0085-ILSVRC2012-val-00037438.png,1.0,4.866541,3.509474,0.9595912
alexnet,1,146,NaN,bicycle,bicycle,0,0146_sty_dnn_0_bicycle_00_bicycle-0089-ILSVRC2012-val-00042393.png,00_bicycle-0089-ILSVRC2012-val-00042393.png,1.0,11.400797,4.2184367,5.078696
alexnet,1,147,NaN,bicycle,bicycle,0,0147_sty_dnn_0_bicycle_00_bicycle-0092-ILSVRC2012-val-00043207.png,00_bicycle-0092-ILSVRC2012-val-00043207.png,1.0,5.390188,1.9600083,2.4255037
alexnet,1,148,NaN,bicycle,bicycle,0,0148_sty_dnn_0_bicycle_00_bicycle-0094-ILSVRC2012-val-00044080.png,00_bicycle-0094-ILSVRC2012-val-00044080.png,1.0,9.507643,5.9433255,2.5203528
alexnet,1,149,NaN,bicycle,bicycle,0,0149_sty_dnn_0_bicycle_00_bicycle-0096-ILSVRC2012-val-00045152.png,00_bicycle-0096-ILSVRC2012-val-00045152.png,1.0,5.842186,2.5082493,2.3574493
alexnet,1,150,NaN,bicycle,bicycle,0,0150_sty_dnn_0_bicycle_00_bicycle-0100-ILSVRC2012-val-00049750.png,00_bicycle-0100-ILSVRC2012-val-00049750.png,1.0,7.9989386,3.4801583,3.1952603
alexnet,1,151,NaN,bottle,bird,0,0151_sty_dnn_0_bird_00_bird-0009-ILSVRC2012-val-00007530.png,00_bird-0009-ILSVRC2012-val-00007530.png,0.0,-3.586948,3.193275,-4.7943416
alexnet,1,152,NaN,knife,bird,0,0152_sty_dnn_0_bird_00_bird-0045-ILSVRC2012-val-00045547.png,00_bird-0045-ILSVRC2012-val-00045547.png,0.0,-2.0607061,6.7183504,-6.2077303
alexnet,1,153,NaN,bird,bird,0,0153_sty_dnn_0_bird_00_bird-0119-ILSVRC2012-val-00016252.png,00_bird-0119-ILSVRC2012-val-00016252.png,1.0,4.1856523,3.5202467,0.47051275
alexnet,1,154,NaN,bicycle,bird,0,0154_sty_dnn_0_bird_00_bird-0122-ILSVRC2012-val-00019236.png,00_bird-0122-ILSVRC2012-val-00019236.png,0.0,0.19760525,2.200078,-1.4159622
alexnet,1,155,NaN,bird,bird,0,0155_sty_dnn_0_bird_00_bird-0157-ILSVRC2012-val-00005336.png,00_bird-0157-ILSVRC2012-val-00005336.png,1.0,4.2581234,4.166852,0.06453863
alexnet,1,156,NaN,clock,bird,0,0156_sty_dnn_0_bird_00_bird-0175-ILSVRC2012-val-00018699.png,00_bird-0175-ILSVRC2012-val-00018699.png,0.0,-0.35594723,5.2799273,-3.9851649
alexnet,1,157,NaN,bicycle,bird,0,0157_sty_dnn_0_bird_00_bird-0228-ILSVRC2012-val-00017712.png,00_bird-0228-ILSVRC2012-val-00017712.png,0.0,-0.604799,4.6005287,-3.6807225
alexnet,1,158,NaN,knife,bird,0,0158_sty_dnn_0_bird_00_bird-0238-ILSVRC2012-val-00030657.png,00_bird-0238-ILSVRC2012-val-00030657.png,0.0,3.0121055,4.068124,-0.74671775
alexnet,1,159,NaN,oven,bird,0,0159_sty_dnn_0_bird_00_bird-0426-ILSVRC2012-val-00030017.png,00_bird-0426-ILSVRC2012-val-00030017.png,0.0,-0.7799716,3.3454537,-2.9171162
alexnet,1,160,NaN,knife,bird,0,0160_sty_dnn_0_bird_00_bird-0486-ILSVRC2012-val-00037420.png,00_bird-0486-ILSVRC2012-val-00037420.png,0.0,-1.4268429,4.6961927,-4.32964
alexnet,1,161,NaN,bear,bird,0,0161_sty_dnn_0_bird_00_bird-0513-ILSVRC2012-val-00013223.png,00_bird-0513-ILSVRC2012-val-00013223.png,0.0,2.368704,4.7901673,-1.7122331
alexnet,1,162,NaN,elephant,bird,0,0162_sty_dnn_0_bird_00_bird-0522-ILSVRC2012-val-00020730.png,00_bird-0522-ILSVRC2012-val-00020730.png,0.0,1.0482811,2.9974914,-1.3782998
alexnet,1,163,NaN,bird,bird,0,0163_sty_dnn_0_bird_00_bird-0532-ILSVRC2012-val-00028181.png,00_bird-0532-ILSVRC2012-val-00028181.png,1.0,6.586308,5.019145,1.1081516
alexnet,1,164,NaN,bear,bird,0,0164_sty_dnn_0_bird_00_bird-0624-ILSVRC2012-val-00024514.png,00_bird-0624-ILSVRC2012-val-00024514.png,0.0,0.4771018,2.4380417,-1.3865939
alexnet,1,165,NaN,bicycle,bird,0,0165_sty_dnn_0_bird_00_bird-0701-ILSVRC2012-val-00000075.png,00_bird-0701-ILSVRC2012-val-00000075.png,0.0,3.3564177,5.648342,-1.6206354
alexnet,1,166,NaN,bird,bird,0,0166_sty_dnn_0_bird_00_bird-0752-ILSVRC2012-val-00001596.png,00_bird-0752-ILSVRC2012-val-00001596.png,1.0,3.0803578,1.78668,0.91476834
alexnet,1,167,NaN,chair,bird,0,0167_sty_dnn_0_bird_00_bird-0754-ILSVRC2012-val-00002846.png,00_bird-0754-ILSVRC2012-val-00002846.png,0.0,-3.1893134,3.772279,-4.9225893
alexnet,1,168,NaN,oven,bird,0,0168_sty_dnn_0_bird_00_bird-0822-ILSVRC2012-val-00025200.png,00_bird-0822-ILSVRC2012-val-00025200.png,0.0,0.028760327,2.4974723,-1.7456429
alexnet,1,169,NaN,knife,bird,0,0169_sty_dnn_0_bird_00_bird-0896-ILSVRC2012-val-00046621.png,00_bird-0896-ILSVRC2012-val-00046621.png,0.0,-2.3091154,3.4556081,-4.0762753
alexnet,1,170,NaN,dog,bird,0,0170_sty_dnn_0_bird_00_bird-0995-ILSVRC2012-val-00046534.png,00_bird-0995-ILSVRC2012-val-00046534.png,0.0,-0.3232679,1.7404125,-1.4592425
alexnet,1,171,NaN,oven,bird,0,0171_sty_dnn_0_bird_00_bird-1052-ILSVRC2012-val-00003884.png,00_bird-1052-ILSVRC2012-val-00003884.png,0.0,-0.9387571,4.0110393,-3.5000346
alexnet,1,172,NaN,chair,bird,0,0172_sty_dnn_0_bird_00_bird-1093-ILSVRC2012-val-00044082.png,00_bird-1093-ILSVRC2012-val-00044082.png,0.0,-3.20391,4.1855054,-5.2251062
alexnet,1,173,NaN,bicycle,bird,0,0173_sty_dnn_0_bird_00_bird-1172-ILSVRC2012-val-00022442.png,00_bird-1172-ILSVRC2012-val-00022442.png,0.0,-2.5154314,5.64485,-5.7701902
alexnet,1,174,NaN,elephant,bird,0,0174_sty_dnn_0_bird_00_bird-1188-ILSVRC2012-val-00040014.png,00_bird-1188-ILSVRC2012-val-00040014.png,0.0,2.2333536,6.4068108,-2.9510798
alexnet,1,175,NaN,oven,bird,0,0175_sty_dnn_0_bird_00_bird-1198-ILSVRC2012-val-00048142.png,00_bird-1198-ILSVRC2012-val-00048142.png,0.0,1.7006234,4.781252,-2.1783333
alexnet,1,176,NaN,chair,bird,0,0176_sty_dnn_0_bird_00_bird-1256-ILSVRC2012-val-00005779.png,00_bird-1256-ILSVRC2012-val-00005779.png,0.0,-3.198882,3.6223752,-4.8233576
alexnet,1,177,NaN,bottle,bird,0,0177_sty_dnn_0_bird_00_bird-1274-ILSVRC2012-val-00025449.png,00_bird-1274-ILSVRC2012-val-00025449.png,0.0,-1.6617827,2.9471672,-3.2590196
alexnet,1,178,NaN,oven,bird,0,0178_sty_dnn_0_bird_00_bird-1326-ILSVRC2012-val-00025658.png,00_bird-1326-ILSVRC2012-val-00025658.png,0.0,-0.02430296,5.711885,-4.0560975
alexnet,1,179,NaN,chair,bird,0,0179_sty_dnn_0_bird_00_bird-1394-ILSVRC2012-val-00040051.png,00_bird-1394-ILSVRC2012-val-00040051.png,0.0,2.1395528,2.3925126,-0.17886955
alexnet,1,180,NaN,elephant,bird,0,0180_sty_dnn_0_bird_00_bird-1452-ILSVRC2012-val-00002997.png,00_bird-1452-ILSVRC2012-val-00002997.png,0.0,0.7995835,4.3784986,-2.5306752
alexnet,1,181,NaN,bird,bird,0,0181_sty_dnn_0_bird_00_bird-1551-ILSVRC2012-val-00000690.png,00_bird-1551-ILSVRC2012-val-00000690.png,1.0,2.9151795,2.3720973,0.38401714
alexnet,1,182,NaN,bear,bird,0,0182_sty_dnn_0_bird_00_bird-1646-ILSVRC2012-val-00039398.png,00_bird-1646-ILSVRC2012-val-00039398.png,0.0,2.3563502,2.877882,-0.3687787
alexnet,1,183,NaN,bear,bird,0,0183_sty_dnn_0_bird_00_bird-1861-ILSVRC2012-val-00007811.png,00_bird-1861-ILSVRC2012-val-00007811.png,0.0,2.1410007,2.6678882,-0.37256566
alexnet,1,184,NaN,clock,bird,0,0184_sty_dnn_0_bird_00_bird-1865-ILSVRC2012-val-00009672.png,00_bird-1865-ILSVRC2012-val-00009672.png,0.0,2.6166308,3.7449157,-0.79781795
alexnet,1,185,NaN,oven,bird,0,0185_sty_dnn_0_bird_00_bird-1913-ILSVRC2012-val-00012475.png,00_bird-1913-ILSVRC2012-val-00012475.png,0.0,-2.266899,6.1244755,-5.933598
alexnet,1,186,NaN,elephant,bird,0,0186_sty_dnn_0_bird_00_bird-1941-ILSVRC2012-val-00042829.png,00_bird-1941-ILSVRC2012-val-00042829.png,0.0,2.7696168,4.292946,-1.0771563
alexnet,1,187,NaN,bear,bird,0,0187_sty_dnn_0_bird_00_bird-1971-ILSVRC2012-val-00023024.png,00_bird-1971-ILSVRC2012-val-00023024.png,0.0,0.20270622,5.9759197,-4.0822783
alexnet,1,188,NaN,knife,bird,0,0188_sty_dnn_0_bird_00_bird-2011-ILSVRC2012-val-00008842.png,00_bird-2011-ILSVRC2012-val-00008842.png,0.0,-0.54407763,8.232524,-6.2059946
alexnet,1,189,NaN,bicycle,bird,0,0189_sty_dnn_0_bird_00_bird-2082-ILSVRC2012-val-00036457.png,00_bird-2082-ILSVRC2012-val-00036457.png,0.0,2.1315343,2.3084905,-0.12512691
alexnet,1,190,NaN,chair,bird,0,0190_sty_dnn_0_bird_00_bird-2118-ILSVRC2012-val-00021926.png,00_bird-2118-ILSVRC2012-val-00021926.png,0.0,-1.5321097,3.5930433,-3.6240306
alexnet,1,191,NaN,clock,bird,0,0191_sty_dnn_0_bird_00_bird-2144-ILSVRC2012-val-00044377.png,00_bird-2144-ILSVRC2012-val-00044377.png,0.0,-1.4188911,2.261169,-2.6021953
alexnet,1,192,NaN,cat,bird,0,0192_sty_dnn_0_bird_00_bird-2178-ILSVRC2012-val-00026510.png,00_bird-2178-ILSVRC2012-val-00026510.png,0.0,-1.7148795,2.73335,-3.1453736
alexnet,1,193,NaN,bottle,bird,0,0193_sty_dnn_0_bird_00_bird-2184-ILSVRC2012-val-00034910.png,00_bird-2184-ILSVRC2012-val-00034910.png,0.0,-1.6245264,3.3341331,-3.5063019
alexnet,1,194,NaN,bottle,bird,0,0194_sty_dnn_0_bird_00_bird-2221-ILSVRC2012-val-00014977.png,00_bird-2221-ILSVRC2012-val-00014977.png,0.0,-0.9094411,1.694779,-1.8414618
alexnet,1,195,NaN,bicycle,bird,0,0195_sty_dnn_0_bird_00_bird-2222-ILSVRC2012-val-00015392.png,00_bird-2222-ILSVRC2012-val-00015392.png,0.0,0.80682296,2.7935033,-1.4047952
alexnet,1,196,NaN,elephant,bird,0,0196_sty_dnn_0_bird_00_bird-2248-ILSVRC2012-val-00044992.png,00_bird-2248-ILSVRC2012-val-00044992.png,0.0,-3.1000967,3.5598629,-4.709303
alexnet,1,197,NaN,bird,bird,0,0197_sty_dnn_0_bird_00_bird-2322-ILSVRC2012-val-00023492.png,00_bird-2322-ILSVRC2012-val-00023492.png,1.0,5.956589,2.1266325,2.7081885
alexnet,1,198,NaN,boat,bird,0,0198_sty_dnn_0_bird_00_bird-2405-ILSVRC2012-val-00007988.png,00_bird-2405-ILSVRC2012-val-00007988.png,0.0,-1.4893513,1.7120533,-2.2637348
alexnet,1,199,NaN,bottle,bird,0,0199_sty_dnn_0_bird_00_bird-2410-ILSVRC2012-val-00010355.png,00_bird-2410-ILSVRC2012-val-00010355.png,0.0,0.014882788,3.6390834,-2.562697
alexnet,1,200,NaN,bear,bird,0,0200_sty_dnn_0_bird_00_bird-2433-ILSVRC2012-val-00028670.png,00_bird-2433-ILSVRC2012-val-00028670.png,0.0,-0.1859675,4.3567953,-3.2122185
alexnet,1,201,NaN,knife,boat,0,0201_sty_dnn_0_boat_00_boat-0005-ILSVRC2012-val-00004909.png,00_boat-0005-ILSVRC2012-val-00004909.png,0.0,-4.9973283,3.7017272,-6.151161
alexnet,1,202,NaN,cat,boat,0,0202_sty_dnn_0_boat_00_boat-0011-ILSVRC2012-val-00011563.png,00_boat-0011-ILSVRC2012-val-00011563.png,0.0,-1.1910982,2.9096947,-2.8996985
alexnet,1,203,NaN,knife,boat,0,0203_sty_dnn_0_boat_00_boat-0026-ILSVRC2012-val-00026341.png,00_boat-0026-ILSVRC2012-val-00026341.png,0.0,0.40470457,3.275665,-2.0300756
alexnet,1,204,NaN,knife,boat,0,0204_sty_dnn_0_boat_00_boat-0033-ILSVRC2012-val-00030824.png,00_boat-0033-ILSVRC2012-val-00030824.png,0.0,-1.0047327,5.0466485,-4.2789726
alexnet,1,205,NaN,dog,boat,0,0205_sty_dnn_0_boat_00_boat-0036-ILSVRC2012-val-00032433.png,00_boat-0036-ILSVRC2012-val-00032433.png,0.0,-1.3236105,2.267931,-2.5396035
alexnet,1,206,NaN,boat,boat,0,0206_sty_dnn_0_boat_00_boat-0039-ILSVRC2012-val-00033883.png,00_boat-0039-ILSVRC2012-val-00033883.png,1.0,3.8718827,3.6391485,0.16456793
alexnet,1,207,NaN,oven,boat,0,0207_sty_dnn_0_boat_00_boat-0042-ILSVRC2012-val-00039945.png,00_boat-0042-ILSVRC2012-val-00039945.png,0.0,-0.56177825,5.5742297,-4.338813
alexnet,1,208,NaN,boat,boat,0,0208_sty_dnn_0_boat_00_boat-0044-ILSVRC2012-val-00041227.png,00_boat-0044-ILSVRC2012-val-00041227.png,1.0,3.6707451,1.1235179,1.8011618
alexnet,1,209,NaN,elephant,boat,0,0209_sty_dnn_0_boat_00_boat-0048-ILSVRC2012-val-00046387.png,00_boat-0048-ILSVRC2012-val-00046387.png,0.0,-2.0334847,7.7396984,-6.910684
alexnet,1,210,NaN,knife,boat,0,0210_sty_dnn_0_boat_00_boat-0053-ILSVRC2012-val-00005918.png,00_boat-0053-ILSVRC2012-val-00005918.png,0.0,0.8209243,3.7322369,-2.058609
alexnet,1,211,NaN,elephant,boat,0,0211_sty_dnn_0_boat_00_boat-0061-ILSVRC2012-val-00011292.png,00_boat-0061-ILSVRC2012-val-00011292.png,0.0,-0.106158875,5.1526027,-3.7185059
alexnet,1,212,NaN,oven,boat,0,0212_sty_dnn_0_boat_00_boat-0064-ILSVRC2012-val-00013366.png,00_boat-0064-ILSVRC2012-val-00013366.png,0.0,-0.15993747,3.1701746,-2.354745
alexnet,1,213,NaN,clock,boat,0,0213_sty_dnn_0_boat_00_boat-0066-ILSVRC2012-val-00013961.png,00_boat-0066-ILSVRC2012-val-00013961.png,0.0,0.46701127,2.869646,-1.6989194
alexnet,1,214,NaN,elephant,boat,0,0214_sty_dnn_0_boat_00_boat-0070-ILSVRC2012-val-00017026.png,00_boat-0070-ILSVRC2012-val-00017026.png,0.0,-2.0662057,7.251257,-6.5884414
alexnet,1,215,NaN,bicycle,boat,0,0215_sty_dnn_0_boat_00_boat-0073-ILSVRC2012-val-00018158.png,00_boat-0073-ILSVRC2012-val-00018158.png,0.0,0.34714496,0.6026287,-0.18065429
alexnet,1,216,NaN,clock,boat,0,0216_sty_dnn_0_boat_00_boat-0076-ILSVRC2012-val-00020486.png,00_boat-0076-ILSVRC2012-val-00020486.png,0.0,-1.7542435,3.4953163,-3.7119994
alexnet,1,217,NaN,boat,boat,0,0217_sty_dnn_0_boat_00_boat-0077-ILSVRC2012-val-00021948.png,00_boat-0077-ILSVRC2012-val-00021948.png,1.0,3.4476924,3.2713945,0.124661446
alexnet,1,218,NaN,clock,boat,0,0218_sty_dnn_0_boat_00_boat-0079-ILSVRC2012-val-00025681.png,00_boat-0079-ILSVRC2012-val-00025681.png,0.0,-0.3058189,4.3709264,-3.3069584
alexnet,1,219,NaN,elephant,boat,0,0219_sty_dnn_0_boat_00_boat-0082-ILSVRC2012-val-00027612.png,00_boat-0082-ILSVRC2012-val-00027612.png,0.0,-0.5487672,3.8076844,-3.0804765
alexnet,1,220,NaN,oven,boat,0,0220_sty_dnn_0_boat_00_boat-0083-ILSVRC2012-val-00034455.png,00_boat-0083-ILSVRC2012-val-00034455.png,0.0,-2.2586951,2.6606202,-3.4784813
alexnet,1,221,NaN,oven,boat,0,0221_sty_dnn_0_boat_00_boat-0086-ILSVRC2012-val-00039559.png,00_boat-0086-ILSVRC2012-val-00039559.png,0.0,-1.3472348,3.2909882,-3.279719
alexnet,1,222,NaN,clock,boat,0,0222_sty_dnn_0_boat_00_boat-0098-ILSVRC2012-val-00047961.png,00_boat-0098-ILSVRC2012-val-00047961.png,0.0,-2.2181926,4.006695,-4.40166
alexnet,1,223,NaN,chair,boat,0,0223_sty_dnn_0_boat_00_boat-0100-ILSVRC2012-val-00048371.png,00_boat-0100-ILSVRC2012-val-00048371.png,0.0,-1.9208686,4.3308616,-4.420641
alexnet,1,224,NaN,knife,boat,0,0224_sty_dnn_0_boat_00_boat-0103-ILSVRC2012-val-00002308.png,00_boat-0103-ILSVRC2012-val-00002308.png,0.0,0.20112696,3.3625162,-2.2354398
alexnet,1,225,NaN,bicycle,boat,0,0225_sty_dnn_0_boat_00_boat-0107-ILSVRC2012-val-00004492.png,00_boat-0107-ILSVRC2012-val-00004492.png,0.0,4.932622,5.1810493,-0.1756647
alexnet,1,226,NaN,oven,boat,0,0226_sty_dnn_0_boat_00_boat-0111-ILSVRC2012-val-00009680.png,00_boat-0111-ILSVRC2012-val-00009680.png,0.0,2.0017405,5.895522,-2.7533195
alexnet,1,227,NaN,boat,boat,0,0227_sty_dnn_0_boat_00_boat-0121-ILSVRC2012-val-00016970.png,00_boat-0121-ILSVRC2012-val-00016970.png,1.0,3.894773,2.4771116,1.0024381
alexnet,1,228,NaN,oven,boat,0,0228_sty_dnn_0_boat_00_boat-0129-ILSVRC2012-val-00027504.png,00_boat-0129-ILSVRC2012-val-00027504.png,0.0,-1.3529465,9.76509,-7.861639
alexnet,1,229,NaN,bicycle,boat,0,0229_sty_dnn_0_boat_00_boat-0137-ILSVRC2012-val-00035374.png,00_boat-0137-ILSVRC2012-val-00035374.png,0.0,0.30908793,4.7934613,-3.170931
alexnet,1,230,NaN,oven,boat,0,0230_sty_dnn_0_boat_00_boat-0142-ILSVRC2012-val-00040889.png,00_boat-0142-ILSVRC2012-val-00040889.png,0.0,-1.9742752,4.927388,-4.880213
alexnet,1,231,NaN,boat,boat,0,0231_sty_dnn_0_boat_00_boat-0153-ILSVRC2012-val-00002696.png,00_boat-0153-ILSVRC2012-val-00002696.png,1.0,2.3890193,1.8537996,0.37845746
alexnet,1,232,NaN,boat,boat,0,0232_sty_dnn_0_boat_00_boat-0160-ILSVRC2012-val-00008630.png,00_boat-0160-ILSVRC2012-val-00008630.png,1.0,3.9020133,3.3856704,0.36510956
alexnet,1,233,NaN,bear,boat,0,0233_sty_dnn_0_boat_00_boat-0165-ILSVRC2012-val-00014242.png,00_boat-0165-ILSVRC2012-val-00014242.png,0.0,3.4096382,4.6025963,-0.8435488
alexnet,1,234,NaN,knife,boat,0,0234_sty_dnn_0_boat_00_boat-0169-ILSVRC2012-val-00019970.png,00_boat-0169-ILSVRC2012-val-00019970.png,0.0,-5.1399603,2.7567136,-5.5837917
alexnet,1,235,NaN,chair,boat,0,0235_sty_dnn_0_boat_00_boat-0170-ILSVRC2012-val-00020353.png,00_boat-0170-ILSVRC2012-val-00020353.png,0.0,0.013984883,2.4831204,-1.7459425
alexnet,1,236,NaN,knife,boat,0,0236_sty_dnn_0_boat_00_boat-0172-ILSVRC2012-val-00020894.png,00_boat-0172-ILSVRC2012-val-00020894.png,0.0,-3.4459026,3.3618991,-4.813843
alexnet,1,237,NaN,cat,boat,0,0237_sty_dnn_0_boat_00_boat-0179-ILSVRC2012-val-00026763.png,00_boat-0179-ILSVRC2012-val-00026763.png,0.0,-4.0385537,3.6727111,-5.4526877
alexnet,1,238,NaN,elephant,boat,0,0238_sty_dnn_0_boat_00_boat-0181-ILSVRC2012-val-00031072.png,00_boat-0181-ILSVRC2012-val-00031072.png,0.0,-2.5569649,3.5161664,-4.2943525
alexnet,1,239,NaN,boat,boat,0,0239_sty_dnn_0_boat_00_boat-0195-ILSVRC2012-val-00042203.png,00_boat-0195-ILSVRC2012-val-00042203.png,1.0,7.31015,3.3808007,2.7784696
alexnet,1,240,NaN,bear,boat,0,0240_sty_dnn_0_boat_00_boat-0196-ILSVRC2012-val-00042675.png,00_boat-0196-ILSVRC2012-val-00042675.png,0.0,2.2391825,2.7899468,-0.38944918
alexnet,1,241,NaN,knife,boat,0,0241_sty_dnn_0_boat_00_boat-0215-ILSVRC2012-val-00013403.png,00_boat-0215-ILSVRC2012-val-00013403.png,0.0,0.35192332,5.7657995,-3.8281884
alexnet,1,242,NaN,boat,boat,0,0242_sty_dnn_0_boat_00_boat-0217-ILSVRC2012-val-00015089.png,00_boat-0217-ILSVRC2012-val-00015089.png,1.0,5.3426104,3.3598561,1.402019
alexnet,1,243,NaN,knife,boat,0,0243_sty_dnn_0_boat_00_boat-0218-ILSVRC2012-val-00015121.png,00_boat-0218-ILSVRC2012-val-00015121.png,0.0,-2.1426988,5.702694,-5.5475307
alexnet,1,244,NaN,knife,boat,0,0244_sty_dnn_0_boat_00_boat-0222-ILSVRC2012-val-00019246.png,00_boat-0222-ILSVRC2012-val-00019246.png,0.0,-2.812858,4.181783,-4.9459586
alexnet,1,245,NaN,knife,boat,0,0245_sty_dnn_0_boat_00_boat-0223-ILSVRC2012-val-00020544.png,00_boat-0223-ILSVRC2012-val-00020544.png,0.0,-4.0196013,6.57102,-7.488701
alexnet,1,246,NaN,knife,boat,0,0246_sty_dnn_0_boat_00_boat-0225-ILSVRC2012-val-00022075.png,00_boat-0225-ILSVRC2012-val-00022075.png,0.0,-1.9036572,4.9639425,-4.8561263
alexnet,1,247,NaN,chair,boat,0,0247_sty_dnn_0_boat_00_boat-0235-ILSVRC2012-val-00032371.png,00_boat-0235-ILSVRC2012-val-00032371.png,0.0,1.011808,3.9160204,-2.0535884
alexnet,1,248,NaN,knife,boat,0,0248_sty_dnn_0_boat_00_boat-0236-ILSVRC2012-val-00032584.png,00_boat-0236-ILSVRC2012-val-00032584.png,0.0,-3.021009,4.6327767,-5.412044
alexnet,1,249,NaN,airplane,boat,0,0249_sty_dnn_0_boat_00_boat-0243-ILSVRC2012-val-00039131.png,00_boat-0243-ILSVRC2012-val-00039131.png,0.0,1.3407425,5.417565,-2.8827488
alexnet,1,250,NaN,oven,boat,0,0250_sty_dnn_0_boat_00_boat-0244-ILSVRC2012-val-00040974.png,00_boat-0244-ILSVRC2012-val-00040974.png,0.0,1.2214103,2.8306265,-1.1378877
alexnet,1,251,NaN,knife,bottle,0,0251_sty_dnn_0_bottle_00_bottle-0002-ILSVRC2012-val-00002968.png,00_bottle-0002-ILSVRC2012-val-00002968.png,0.0,3.32496,5.1039066,-1.2579052
alexnet,1,252,NaN,elephant,bottle,0,0252_sty_dnn_0_bottle_00_bottle-0003-ILSVRC2012-val-00003622.png,00_bottle-0003-ILSVRC2012-val-00003622.png,0.0,1.5556797,1.8836107,-0.23188227
alexnet,1,253,NaN,knife,bottle,0,0253_sty_dnn_0_bottle_00_bottle-0005-ILSVRC2012-val-00004521.png,00_bottle-0005-ILSVRC2012-val-00004521.png,0.0,3.3403122,3.4654784,-0.08850586
alexnet,1,254,NaN,bottle,bottle,0,0254_sty_dnn_0_bottle_00_bottle-0006-ILSVRC2012-val-00004888.png,00_bottle-0006-ILSVRC2012-val-00004888.png,1.0,5.1080728,2.8681781,1.5838447
alexnet,1,255,NaN,elephant,bottle,0,0255_sty_dnn_0_bottle_00_bottle-0011-ILSVRC2012-val-00009225.png,00_bottle-0011-ILSVRC2012-val-00009225.png,0.0,3.8742337,5.0171747,-0.80818135
alexnet,1,256,NaN,clock,bottle,0,0256_sty_dnn_0_bottle_00_bottle-0022-ILSVRC2012-val-00022396.png,00_bottle-0022-ILSVRC2012-val-00022396.png,0.0,1.728741,2.2691765,-0.38214555
alexnet,1,257,NaN,bottle,bottle,0,0257_sty_dnn_0_bottle_00_bottle-0030-ILSVRC2012-val-00032921.png,00_bottle-0030-ILSVRC2012-val-00032921.png,1.0,5.1381636,2.546839,1.8323432
alexnet,1,258,NaN,knife,bottle,0,0258_sty_dnn_0_bottle_00_bottle-0031-ILSVRC2012-val-00033822.png,00_bottle-0031-ILSVRC2012-val-00033822.png,0.0,-0.3033897,1.8614023,-1.5307392
alexnet,1,259,NaN,cat,bottle,0,0259_sty_dnn_0_bottle_00_bottle-0032-ILSVRC2012-val-00034979.png,00_bottle-0032-ILSVRC2012-val-00034979.png,0.0,1.6026611,2.0836084,-0.34008107
alexnet,1,260,NaN,bottle,bottle,0,0260_sty_dnn_0_bottle_00_bottle-0037-ILSVRC2012-val-00036359.png,00_bottle-0037-ILSVRC2012-val-00036359.png,1.0,8.083196,4.688283,2.4005659
alexnet,1,261,NaN,oven,bottle,0,0261_sty_dnn_0_bottle_00_bottle-0039-ILSVRC2012-val-00038570.png,00_bottle-0039-ILSVRC2012-val-00038570.png,0.0,0.8326859,2.408419,-1.1142114
alexnet,1,262,NaN,knife,bottle,0,0262_sty_dnn_0_bottle_00_bottle-0047-ILSVRC2012-val-00044787.png,00_bottle-0047-ILSVRC2012-val-00044787.png,0.0,2.223813,4.6864243,-1.7413291
alexnet,1,263,NaN,clock,bottle,0,0263_sty_dnn_0_bottle_00_bottle-0052-ILSVRC2012-val-00000252.png,00_bottle-0052-ILSVRC2012-val-00000252.png,0.0,6.2626805,7.0552917,-0.5604607
alexnet,1,264,NaN,bottle,bottle,0,0264_sty_dnn_0_bottle_00_bottle-0055-ILSVRC2012-val-00003066.png,00_bottle-0055-ILSVRC2012-val-00003066.png,1.0,5.713224,5.6276007,0.060544793
alexnet,1,265,NaN,bottle,bottle,0,0265_sty_dnn_0_bottle_00_bottle-0057-ILSVRC2012-val-00005967.png,00_bottle-0057-ILSVRC2012-val-00005967.png,1.0,3.9834154,2.1308496,1.3099618
alexnet,1,266,NaN,clock,bottle,0,0266_sty_dnn_0_bottle_00_bottle-0059-ILSVRC2012-val-00008984.png,00_bottle-0059-ILSVRC2012-val-00008984.png,0.0,2.4848557,3.8325684,-0.9529768
alexnet,1,267,NaN,bottle,bottle,0,0267_sty_dnn_0_bottle_00_bottle-0066-ILSVRC2012-val-00016336.png,00_bottle-0066-ILSVRC2012-val-00016336.png,1.0,5.7757745,2.9676085,1.9856733
alexnet,1,268,NaN,bicycle,bottle,0,0268_sty_dnn_0_bottle_00_bottle-0085-ILSVRC2012-val-00036422.png,00_bottle-0085-ILSVRC2012-val-00036422.png,0.0,1.3270352,1.5998383,-0.1929009
alexnet,1,269,NaN,clock,bottle,0,0269_sty_dnn_0_bottle_00_bottle-0086-ILSVRC2012-val-00036795.png,00_bottle-0086-ILSVRC2012-val-00036795.png,0.0,0.30468994,3.2489042,-2.081874
alexnet,1,270,NaN,boat,bottle,0,0270_sty_dnn_0_bottle_00_bottle-0107-ILSVRC2012-val-00008313.png,00_bottle-0107-ILSVRC2012-val-00008313.png,0.0,2.5233436,4.179699,-1.1712202
alexnet,1,271,NaN,boat,bottle,0,0271_sty_dnn_0_bottle_00_bottle-0108-ILSVRC2012-val-00008437.png,00_bottle-0108-ILSVRC2012-val-00008437.png,0.0,1.0153542,2.2360203,-0.86314136
alexnet,1,272,NaN,bear,bottle,0,0272_sty_dnn_0_bottle_00_bottle-0126-ILSVRC2012-val-00022079.png,00_bottle-0126-ILSVRC2012-val-00022079.png,0.0,2.8739643,3.8458755,-0.687245
alexnet,1,273,NaN,bicycle,bottle,0,0273_sty_dnn_0_bottle_00_bottle-0127-ILSVRC2012-val-00023580.png,00_bottle-0127-ILSVRC2012-val-00023580.png,0.0,2.6443174,4.080527,-1.0155535
alexnet,1,274,NaN,bottle,bottle,0,0274_sty_dnn_0_bottle_00_bottle-0138-ILSVRC2012-val-00032559.png,00_bottle-0138-ILSVRC2012-val-00032559.png,1.0,4.2153482,1.6105499,1.8418705
alexnet,1,275,NaN,cat,bottle,0,0275_sty_dnn_0_bottle_00_bottle-0153-ILSVRC2012-val-00003318.png,00_bottle-0153-ILSVRC2012-val-00003318.png,0.0,0.185959,3.560132,-2.3859005
alexnet,1,276,NaN,oven,bottle,0,0276_sty_dnn_0_bottle_00_bottle-0154-ILSVRC2012-val-00003340.png,00_bottle-0154-ILSVRC2012-val-00003340.png,0.0,0.9733125,3.0114198,-1.4411596
alexnet,1,277,NaN,chair,bottle,0,0277_sty_dnn_0_bottle_00_bottle-0170-ILSVRC2012-val-00020948.png,00_bottle-0170-ILSVRC2012-val-00020948.png,0.0,0.8333577,4.001211,-2.2400107
alexnet,1,278,NaN,chair,bottle,0,0278_sty_dnn_0_bottle_00_bottle-0172-ILSVRC2012-val-00021707.png,00_bottle-0172-ILSVRC2012-val-00021707.png,0.0,2.941065,4.1791615,-0.8754664
alexnet,1,279,NaN,chair,bottle,0,0279_sty_dnn_0_bottle_00_bottle-0180-ILSVRC2012-val-00027613.png,00_bottle-0180-ILSVRC2012-val-00027613.png,0.0,0.8330075,3.029467,-1.5531315
alexnet,1,280,NaN,elephant,bottle,0,0280_sty_dnn_0_bottle_00_bottle-0189-ILSVRC2012-val-00040070.png,00_bottle-0189-ILSVRC2012-val-00040070.png,0.0,1.3863294,8.036988,-4.702726
alexnet,1,281,NaN,knife,bottle,0,0281_sty_dnn_0_bottle_00_bottle-0195-ILSVRC2012-val-00045644.png,00_bottle-0195-ILSVRC2012-val-00045644.png,0.0,3.9386322,4.580858,-0.45412236
alexnet,1,282,NaN,bicycle,bottle,0,0282_sty_dnn_0_bottle_00_bottle-0204-ILSVRC2012-val-00002597.png,00_bottle-0204-ILSVRC2012-val-00002597.png,0.0,1.6178149,3.5843136,-1.3905246
alexnet,1,283,NaN,bottle,bottle,0,0283_sty_dnn_0_bottle_00_bottle-0205-ILSVRC2012-val-00003263.png,00_bottle-0205-ILSVRC2012-val-00003263.png,1.0,3.9284837,3.8578098,0.049974024
alexnet,1,284,NaN,knife,bottle,0,0284_sty_dnn_0_bottle_00_bottle-0214-ILSVRC2012-val-00012572.png,00_bottle-0214-ILSVRC2012-val-00012572.png,0.0,-0.03667399,3.2710671,-2.3389263
alexnet,1,285,NaN,cat,bottle,0,0285_sty_dnn_0_bottle_00_bottle-0216-ILSVRC2012-val-00013262.png,00_bottle-0216-ILSVRC2012-val-00013262.png,0.0,2.7164886,3.2052824,-0.34562945
alexnet,1,286,NaN,bottle,bottle,0,0286_sty_dnn_0_bottle_00_bottle-0218-ILSVRC2012-val-00013667.png,00_bottle-0218-ILSVRC2012-val-00013667.png,1.0,3.9055421,3.1082973,0.5637372
alexnet,1,287,NaN,bear,bottle,0,0287_sty_dnn_0_bottle_00_bottle-0220-ILSVRC2012-val-00014146.png,00_bottle-0220-ILSVRC2012-val-00014146.png,0.0,-0.079589374,3.1734262,-2.3002293
alexnet,1,288,NaN,oven,bottle,0,0288_sty_dnn_0_bottle_00_bottle-0222-ILSVRC2012-val-00018657.png,00_bottle-0222-ILSVRC2012-val-00018657.png,0.0,2.048456,4.0383,-1.4070323
alexnet,1,289,NaN,bottle,bottle,0,0289_sty_dnn_0_bottle_00_bottle-0224-ILSVRC2012-val-00020102.png,00_bottle-0224-ILSVRC2012-val-00020102.png,1.0,3.4651382,2.6131895,0.6024187
alexnet,1,290,NaN,knife,bottle,0,0290_sty_dnn_0_bottle_00_bottle-0233-ILSVRC2012-val-00031504.png,00_bottle-0233-ILSVRC2012-val-00031504.png,0.0,0.82547903,5.0410147,-2.980834
alexnet,1,291,NaN,clock,bottle,0,0291_sty_dnn_0_bottle_00_bottle-0243-ILSVRC2012-val-00040157.png,00_bottle-0243-ILSVRC2012-val-00040157.png,0.0,4.1804075,4.8366985,-0.46406782
alexnet,1,292,NaN,bottle,bottle,0,0292_sty_dnn_0_bottle_00_bottle-0254-ILSVRC2012-val-00005933.png,00_bottle-0254-ILSVRC2012-val-00005933.png,1.0,7.135479,4.061247,2.1738105
alexnet,1,293,NaN,bottle,bottle,0,0293_sty_dnn_0_bottle_00_bottle-0283-ILSVRC2012-val-00036864.png,00_bottle-0283-ILSVRC2012-val-00036864.png,1.0,6.6010284,2.2243545,3.0947757
alexnet,1,294,NaN,oven,bottle,0,0294_sty_dnn_0_bottle_00_bottle-0294-ILSVRC2012-val-00044222.png,00_bottle-0294-ILSVRC2012-val-00044222.png,0.0,3.2979405,5.353318,-1.4533715
alexnet,1,295,NaN,bottle,bottle,0,0295_sty_dnn_0_bottle_00_bottle-0296-ILSVRC2012-val-00044906.png,00_bottle-0296-ILSVRC2012-val-00044906.png,1.0,3.8390756,1.9752954,1.3178916
alexnet,1,296,NaN,knife,bottle,0,0296_sty_dnn_0_bottle_00_bottle-0325-ILSVRC2012-val-00027316.png,00_bottle-0325-ILSVRC2012-val-00027316.png,0.0,1.4606901,3.2598248,-1.2721803
alexnet,1,297,NaN,bottle,bottle,0,0297_sty_dnn_0_bottle_00_bottle-0331-ILSVRC2012-val-00033990.png,00_bottle-0331-ILSVRC2012-val-00033990.png,1.0,5.0928283,4.1490755,0.667334
alexnet,1,298,NaN,oven,bottle,0,0298_sty_dnn_0_bottle_00_bottle-0334-ILSVRC2012-val-00036776.png,00_bottle-0334-ILSVRC2012-val-00036776.png,0.0,2.481744,4.9191895,-1.7235342
alexnet,1,299,NaN,bottle,bottle,0,0299_sty_dnn_0_bottle_00_bottle-0345-ILSVRC2012-val-00044614.png,00_bottle-0345-ILSVRC2012-val-00044614.png,1.0,7.4694357,7.0320034,0.30931133
alexnet,1,300,NaN,elephant,bottle,0,0300_sty_dnn_0_bottle_00_bottle-0347-ILSVRC2012-val-00048539.png,00_bottle-0347-ILSVRC2012-val-00048539.png,0.0,2.3684318,3.4056358,-0.733414
alexnet,1,301,NaN,knife,car,0,0301_sty_dnn_0_car_00_car-0001-ILSVRC2012-val-00000175.png,00_car-0001-ILSVRC2012-val-00000175.png,0.0,-2.538368,3.8105636,-4.4893723
alexnet,1,302,NaN,truck,car,0,0302_sty_dnn_0_car_00_car-0004-ILSVRC2012-val-00006084.png,00_car-0004-ILSVRC2012-val-00006084.png,0.0,7.1534886,7.1603117,-0.004824634
alexnet,1,303,NaN,car,car,0,0303_sty_dnn_0_car_00_car-0005-ILSVRC2012-val-00006220.png,00_car-0005-ILSVRC2012-val-00006220.png,1.0,5.496493,5.2213717,0.19454008
alexnet,1,304,NaN,oven,car,0,0304_sty_dnn_0_car_00_car-0010-ILSVRC2012-val-00012600.png,00_car-0010-ILSVRC2012-val-00012600.png,0.0,0.29032707,3.5411215,-2.2986588
alexnet,1,305,NaN,bear,car,0,0305_sty_dnn_0_car_00_car-0012-ILSVRC2012-val-00014447.png,00_car-0012-ILSVRC2012-val-00014447.png,0.0,-2.1127374,2.497846,-3.2601748
alexnet,1,306,NaN,clock,car,0,0306_sty_dnn_0_car_00_car-0013-ILSVRC2012-val-00014541.png,00_car-0013-ILSVRC2012-val-00014541.png,0.0,1.3890749,5.0081935,-2.5591035
alexnet,1,307,NaN,truck,car,0,0307_sty_dnn_0_car_00_car-0018-ILSVRC2012-val-00018138.png,00_car-0018-ILSVRC2012-val-00018138.png,0.0,3.894453,4.5537257,-0.46617618
alexnet,1,308,NaN,bicycle,car,0,0308_sty_dnn_0_car_00_car-0019-ILSVRC2012-val-00018335.png,00_car-0019-ILSVRC2012-val-00018335.png,0.0,2.817339,5.0526114,-1.5805763
alexnet,1,309,NaN,oven,car,0,0309_sty_dnn_0_car_00_car-0021-ILSVRC2012-val-00019695.png,00_car-0021-ILSVRC2012-val-00019695.png,0.0,0.86988527,3.4033651,-1.7914408
alexnet,1,310,NaN,bicycle,car,0,0310_sty_dnn_0_car_00_car-0024-ILSVRC2012-val-00023221.png,00_car-0024-ILSVRC2012-val-00023221.png,0.0,-2.0754817,3.466488,-3.918764
alexnet,1,311,NaN,car,car,0,0311_sty_dnn_0_car_00_car-0025-ILSVRC2012-val-00023474.png,00_car-0025-ILSVRC2012-val-00023474.png,1.0,8.909457,8.679678,0.16247846
alexnet,1,312,NaN,chair,car,0,0312_sty_dnn_0_car_00_car-0028-ILSVRC2012-val-00027049.png,00_car-0028-ILSVRC2012-val-00027049.png,0.0,-0.15462685,2.6783805,-2.0032387
alexnet,1,313,NaN,car,car,0,0313_sty_dnn_0_car_00_car-0029-ILSVRC2012-val-00027081.png,00_car-0029-ILSVRC2012-val-00027081.png,1.0,4.1563983,3.3237252,0.5887888
alexnet,1,314,NaN,truck,car,0,0314_sty_dnn_0_car_00_car-0030-ILSVRC2012-val-00029057.png,00_car-0030-ILSVRC2012-val-00029057.png,0.0,4.2935567,5.228073,-0.6608029
alexnet,1,315,NaN,chair,car,0,0315_sty_dnn_0_car_00_car-0032-ILSVRC2012-val-00030834.png,00_car-0032-ILSVRC2012-val-00030834.png,0.0,0.6134285,4.9533987,-3.0688224
alexnet,1,316,NaN,bicycle,car,0,0316_sty_dnn_0_car_00_car-0041-ILSVRC2012-val-00040706.png,00_car-0041-ILSVRC2012-val-00040706.png,0.0,1.8720989,4.983806,-2.2003093
alexnet,1,317,NaN,bicycle,car,0,0317_sty_dnn_0_car_00_car-0045-ILSVRC2012-val-00042416.png,00_car-0045-ILSVRC2012-val-00042416.png,0.0,3.1615741,6.457054,-2.3302562
alexnet,1,318,NaN,clock,car,0,0318_sty_dnn_0_car_00_car-0050-ILSVRC2012-val-00048556.png,00_car-0050-ILSVRC2012-val-00048556.png,0.0,-4.397268,2.924658,-5.177384
alexnet,1,319,NaN,chair,car,0,0319_sty_dnn_0_car_00_car-0052-ILSVRC2012-val-00004387.png,00_car-0052-ILSVRC2012-val-00004387.png,0.0,-1.770627,1.7138498,-2.4638972
alexnet,1,320,NaN,bottle,car,0,0320_sty_dnn_0_car_00_car-0053-ILSVRC2012-val-00004685.png,00_car-0053-ILSVRC2012-val-00004685.png,0.0,2.3528721,2.6349533,-0.19946148
alexnet,1,321,NaN,elephant,car,0,0321_sty_dnn_0_car_00_car-0054-ILSVRC2012-val-00005500.png,00_car-0054-ILSVRC2012-val-00005500.png,0.0,-2.8062027,4.4424276,-5.125556
alexnet,1,322,NaN,elephant,car,0,0322_sty_dnn_0_car_00_car-0058-ILSVRC2012-val-00010676.png,00_car-0058-ILSVRC2012-val-00010676.png,0.0,-3.0545943,3.8085227,-4.852957
alexnet,1,323,NaN,oven,car,0,0323_sty_dnn_0_car_00_car-0059-ILSVRC2012-val-00014010.png,00_car-0059-ILSVRC2012-val-00014010.png,0.0,3.2409852,6.478224,-2.2890735
alexnet,1,324,NaN,truck,car,0,0324_sty_dnn_0_car_00_car-0060-ILSVRC2012-val-00014208.png,00_car-0060-ILSVRC2012-val-00014208.png,0.0,1.2950975,3.7315378,-1.7228236
alexnet,1,325,NaN,bear,car,0,0325_sty_dnn_0_car_00_car-0064-ILSVRC2012-val-00016337.png,00_car-0064-ILSVRC2012-val-00016337.png,0.0,0.40570202,1.9933746,-1.1226541
alexnet,1,326,NaN,truck,car,0,0326_sty_dnn_0_car_00_car-0065-ILSVRC2012-val-00016613.png,00_car-0065-ILSVRC2012-val-00016613.png,0.0,12.220024,12.722553,-0.35534176
alexnet,1,327,NaN,truck,car,0,0327_sty_dnn_0_car_00_car-0066-ILSVRC2012-val-00018249.png,00_car-0066-ILSVRC2012-val-00018249.png,0.0,1.8759786,2.130687,-0.18010604
alexnet,1,328,NaN,car,car,0,0328_sty_dnn_0_car_00_car-0067-ILSVRC2012-val-00018569.png,00_car-0067-ILSVRC2012-val-00018569.png,1.0,8.845006,4.0172296,3.4137535
alexnet,1,329,NaN,truck,car,0,0329_sty_dnn_0_car_00_car-0069-ILSVRC2012-val-00019647.png,00_car-0069-ILSVRC2012-val-00019647.png,0.0,5.978254,6.5607085,-0.41185766
alexnet,1,330,NaN,bicycle,car,0,0330_sty_dnn_0_car_00_car-0079-ILSVRC2012-val-00025028.png,00_car-0079-ILSVRC2012-val-00025028.png,0.0,3.9048412,6.02345,-1.4980826
alexnet,1,331,NaN,truck,car,0,0331_sty_dnn_0_car_00_car-0082-ILSVRC2012-val-00027293.png,00_car-0082-ILSVRC2012-val-00027293.png,0.0,0.0994846,2.4821658,-1.68481
alexnet,1,332,NaN,elephant,car,0,0332_sty_dnn_0_car_00_car-0083-ILSVRC2012-val-00027508.png,00_car-0083-ILSVRC2012-val-00027508.png,0.0,-3.9962444,5.826266,-6.9455633
alexnet,1,333,NaN,bicycle,car,0,0333_sty_dnn_0_car_00_car-0086-ILSVRC2012-val-00029454.png,00_car-0086-ILSVRC2012-val-00029454.png,0.0,-0.9162542,2.2493987,-2.2384548
alexnet,1,334,NaN,truck,car,0,0334_sty_dnn_0_car_00_car-0087-ILSVRC2012-val-00031558.png,00_car-0087-ILSVRC2012-val-00031558.png,0.0,4.6927814,5.1427283,-0.3181605
alexnet,1,335,NaN,bottle,car,0,0335_sty_dnn_0_car_00_car-0091-ILSVRC2012-val-00036091.png,00_car-0091-ILSVRC2012-val-00036091.png,0.0,0.8545497,4.092451,-2.2895422
alexnet,1,336,NaN,car,car,0,0336_sty_dnn_0_car_00_car-0093-ILSVRC2012-val-00038956.png,00_car-0093-ILSVRC2012-val-00038956.png,1.0,8.420775,5.876796,1.7988653
alexnet,1,337,NaN,truck,car,0,0337_sty_dnn_0_car_00_car-0095-ILSVRC2012-val-00041430.png,00_car-0095-ILSVRC2012-val-00041430.png,0.0,0.5485094,4.311372,-2.6607456
alexnet,1,338,NaN,bicycle,car,0,0338_sty_dnn_0_car_00_car-0096-ILSVRC2012-val-00043824.png,00_car-0096-ILSVRC2012-val-00043824.png,0.0,-3.5206277,3.2052264,-4.755897
alexnet,1,339,NaN,elephant,car,0,0339_sty_dnn_0_car_00_car-0103-ILSVRC2012-val-00003478.png,00_car-0103-ILSVRC2012-val-00003478.png,0.0,4.0327315,4.09027,-0.04068587
alexnet,1,340,NaN,elephant,car,0,0340_sty_dnn_0_car_00_car-0106-ILSVRC2012-val-00004868.png,00_car-0106-ILSVRC2012-val-00004868.png,0.0,1.1159884,5.689895,-3.2342405
alexnet,1,341,NaN,bicycle,car,0,0341_sty_dnn_0_car_00_car-0110-ILSVRC2012-val-00006285.png,00_car-0110-ILSVRC2012-val-00006285.png,0.0,5.997658,7.751346,-1.240045
alexnet,1,342,NaN,knife,car,0,0342_sty_dnn_0_car_00_car-0111-ILSVRC2012-val-00007125.png,00_car-0111-ILSVRC2012-val-00007125.png,0.0,-2.7839098,7.0781565,-6.973534
alexnet,1,343,NaN,bicycle,car,0,0343_sty_dnn_0_car_00_car-0117-ILSVRC2012-val-00010983.png,00_car-0117-ILSVRC2012-val-00010983.png,0.0,0.8666644,6.1391478,-3.7282088
alexnet,1,344,NaN,bicycle,car,0,0344_sty_dnn_0_car_00_car-0118-ILSVRC2012-val-00012327.png,00_car-0118-ILSVRC2012-val-00012327.png,0.0,2.4941509,4.143056,-1.165952
alexnet,1,345,NaN,clock,car,0,0345_sty_dnn_0_car_00_car-0121-ILSVRC2012-val-00016638.png,00_car-0121-ILSVRC2012-val-00016638.png,0.0,1.1023878,5.3952827,-3.035535
alexnet,1,346,NaN,bicycle,car,0,0346_sty_dnn_0_car_00_car-0134-ILSVRC2012-val-00032944.png,00_car-0134-ILSVRC2012-val-00032944.png,0.0,4.8885236,5.7563667,-0.6136578
alexnet,1,347,NaN,bicycle,car,0,0347_sty_dnn_0_car_00_car-0139-ILSVRC2012-val-00037952.png,00_car-0139-ILSVRC2012-val-00037952.png,0.0,-1.6941961,4.874618,-4.644853
alexnet,1,348,NaN,knife,car,0,0348_sty_dnn_0_car_00_car-0145-ILSVRC2012-val-00041626.png,00_car-0145-ILSVRC2012-val-00041626.png,0.0,0.5341657,1.9460438,-0.9983486
alexnet,1,349,NaN,bicycle,car,0,0349_sty_dnn_0_car_00_car-0146-ILSVRC2012-val-00043297.png,00_car-0146-ILSVRC2012-val-00043297.png,0.0,2.1943154,5.825903,-2.5679202
alexnet,1,350,NaN,bicycle,car,0,0350_sty_dnn_0_car_00_car-0149-ILSVRC2012-val-00049427.png,00_car-0149-ILSVRC2012-val-00049427.png,0.0,-1.8458395,1.7490745,-2.5419881
alexnet,1,351,NaN,cat,cat,0,0351_sty_dnn_0_cat_00_cat-0005-ILSVRC2012-val-00005358.png,00_cat-0005-ILSVRC2012-val-00005358.png,1.0,5.623691,1.7471784,2.7411084
alexnet,1,352,NaN,chair,cat,0,0352_sty_dnn_0_cat_00_cat-0012-ILSVRC2012-val-00012377.png,00_cat-0012-ILSVRC2012-val-00012377.png,0.0,1.0753944,3.1969686,-1.5001795
alexnet,1,353,NaN,bicycle,cat,0,0353_sty_dnn_0_cat_00_cat-0031-ILSVRC2012-val-00030706.png,00_cat-0031-ILSVRC2012-val-00030706.png,0.0,0.57506263,3.13631,-1.8110754
alexnet,1,354,NaN,cat,cat,0,0354_sty_dnn_0_cat_00_cat-0032-ILSVRC2012-val-00033420.png,00_cat-0032-ILSVRC2012-val-00033420.png,1.0,8.612243,2.175241,4.5516477
alexnet,1,355,NaN,cat,cat,0,0355_sty_dnn_0_cat_00_cat-0034-ILSVRC2012-val-00033837.png,00_cat-0034-ILSVRC2012-val-00033837.png,1.0,3.8505926,3.0196679,0.58755255
alexnet,1,356,NaN,clock,cat,0,0356_sty_dnn_0_cat_00_cat-0042-ILSVRC2012-val-00040238.png,00_cat-0042-ILSVRC2012-val-00040238.png,0.0,2.0306156,3.3441384,-0.9288009
alexnet,1,357,NaN,bicycle,cat,0,0357_sty_dnn_0_cat_00_cat-0045-ILSVRC2012-val-00041570.png,00_cat-0045-ILSVRC2012-val-00041570.png,0.0,1.6065507,3.5760307,-1.3926327
alexnet,1,358,NaN,dog,cat,0,0358_sty_dnn_0_cat_00_cat-0050-ILSVRC2012-val-00047911.png,00_cat-0050-ILSVRC2012-val-00047911.png,0.0,2.484339,2.5517879,-0.047693543
alexnet,1,359,NaN,chair,cat,0,0359_sty_dnn_0_cat_00_cat-0054-ILSVRC2012-val-00003295.png,00_cat-0054-ILSVRC2012-val-00003295.png,0.0,-1.4983693,2.091675,-2.538545
alexnet,1,360,NaN,bear,cat,0,0360_sty_dnn_0_cat_00_cat-0056-ILSVRC2012-val-00007676.png,00_cat-0056-ILSVRC2012-val-00007676.png,0.0,2.5451143,4.3354864,-1.2659843
alexnet,1,361,NaN,elephant,cat,0,0361_sty_dnn_0_cat_00_cat-0062-ILSVRC2012-val-00013788.png,00_cat-0062-ILSVRC2012-val-00013788.png,0.0,-0.49441847,4.0102015,-3.1852474
alexnet,1,362,NaN,chair,cat,0,0362_sty_dnn_0_cat_00_cat-0064-ILSVRC2012-val-00014860.png,00_cat-0064-ILSVRC2012-val-00014860.png,0.0,-2.452647,5.8787847,-5.8912115
alexnet,1,363,NaN,airplane,cat,0,0363_sty_dnn_0_cat_00_cat-0069-ILSVRC2012-val-00016399.png,00_cat-0069-ILSVRC2012-val-00016399.png,0.0,0.44415817,2.0760553,-1.1539255
alexnet,1,364,NaN,oven,cat,0,0364_sty_dnn_0_cat_00_cat-0072-ILSVRC2012-val-00019303.png,00_cat-0072-ILSVRC2012-val-00019303.png,0.0,1.8186177,2.7545311,-0.6617907
alexnet,1,365,NaN,bear,cat,0,0365_sty_dnn_0_cat_00_cat-0073-ILSVRC2012-val-00020140.png,00_cat-0073-ILSVRC2012-val-00020140.png,0.0,2.6115935,2.9731426,-0.25565386
alexnet,1,366,NaN,clock,cat,0,0366_sty_dnn_0_cat_00_cat-0082-ILSVRC2012-val-00025723.png,00_cat-0082-ILSVRC2012-val-00025723.png,0.0,0.73136544,4.0114675,-2.3193824
alexnet,1,367,NaN,elephant,cat,0,0367_sty_dnn_0_cat_00_cat-0092-ILSVRC2012-val-00039621.png,00_cat-0092-ILSVRC2012-val-00039621.png,0.0,2.75196,3.4658952,-0.5048284
alexnet,1,368,NaN,knife,cat,0,0368_sty_dnn_0_cat_00_cat-0096-ILSVRC2012-val-00045420.png,00_cat-0096-ILSVRC2012-val-00045420.png,0.0,2.5859864,3.5024254,-0.64802027
alexnet,1,369,NaN,clock,cat,0,0369_sty_dnn_0_cat_00_cat-0108-ILSVRC2012-val-00002967.png,00_cat-0108-ILSVRC2012-val-00002967.png,0.0,2.6195529,3.1175754,-0.35215512
alexnet,1,370,NaN,cat,cat,0,0370_sty_dnn_0_cat_00_cat-0110-ILSVRC2012-val-00004411.png,00_cat-0110-ILSVRC2012-val-00004411.png,1.0,3.572974,2.3348148,0.87551075
alexnet,1,371,NaN,dog,cat,0,0371_sty_dnn_0_cat_00_cat-0113-ILSVRC2012-val-00007808.png,00_cat-0113-ILSVRC2012-val-00007808.png,0.0,2.2168415,2.7390366,-0.3692477
alexnet,1,372,NaN,cat,cat,0,0372_sty_dnn_0_cat_00_cat-0118-ILSVRC2012-val-00010218.png,00_cat-0118-ILSVRC2012-val-00010218.png,1.0,6.1557336,2.0938008,2.87222
alexnet,1,373,NaN,oven,cat,0,0373_sty_dnn_0_cat_00_cat-0123-ILSVRC2012-val-00014813.png,00_cat-0123-ILSVRC2012-val-00014813.png,0.0,0.8516508,3.098793,-1.5889696
alexnet,1,374,NaN,knife,cat,0,0374_sty_dnn_0_cat_00_cat-0133-ILSVRC2012-val-00023898.png,00_cat-0133-ILSVRC2012-val-00023898.png,0.0,0.36038676,2.9942365,-1.8624129
alexnet,1,375,NaN,bicycle,cat,0,0375_sty_dnn_0_cat_00_cat-0137-ILSVRC2012-val-00027906.png,00_cat-0137-ILSVRC2012-val-00027906.png,0.0,0.55968934,3.7946177,-2.2874398
alexnet,1,376,NaN,cat,cat,0,0376_sty_dnn_0_cat_00_cat-0147-ILSVRC2012-val-00041347.png,00_cat-0147-ILSVRC2012-val-00041347.png,1.0,3.765809,1.3530626,1.7060694
alexnet,1,377,NaN,knife,cat,0,0377_sty_dnn_0_cat_00_cat-0150-ILSVRC2012-val-00049996.png,00_cat-0150-ILSVRC2012-val-00049996.png,0.0,1.3598504,3.0001223,-1.1598474
alexnet,1,378,NaN,bear,cat,0,0378_sty_dnn_0_cat_00_cat-0160-ILSVRC2012-val-00011528.png,00_cat-0160-ILSVRC2012-val-00011528.png,0.0,5.123653,5.6982102,-0.40627337
alexnet,1,379,NaN,clock,cat,0,0379_sty_dnn_0_cat_00_cat-0162-ILSVRC2012-val-00012173.png,00_cat-0162-ILSVRC2012-val-00012173.png,0.0,-0.13571443,5.6015267,-4.0568423
alexnet,1,380,NaN,chair,cat,0,0380_sty_dnn_0_cat_00_cat-0165-ILSVRC2012-val-00017325.png,00_cat-0165-ILSVRC2012-val-00017325.png,0.0,0.17786781,3.6937811,-2.4861262
alexnet,1,381,NaN,truck,cat,0,0381_sty_dnn_0_cat_00_cat-0169-ILSVRC2012-val-00020688.png,00_cat-0169-ILSVRC2012-val-00020688.png,0.0,-0.28490844,3.018245,-2.3356824
alexnet,1,382,NaN,knife,cat,0,0382_sty_dnn_0_cat_00_cat-0185-ILSVRC2012-val-00038168.png,00_cat-0185-ILSVRC2012-val-00038168.png,0.0,-1.0856239,4.105638,-3.6707764
alexnet,1,383,NaN,elephant,cat,0,0383_sty_dnn_0_cat_00_cat-0186-ILSVRC2012-val-00039580.png,00_cat-0186-ILSVRC2012-val-00039580.png,0.0,1.9822346,4.3381443,-1.6658798
alexnet,1,384,NaN,chair,cat,0,0384_sty_dnn_0_cat_00_cat-0189-ILSVRC2012-val-00040854.png,00_cat-0189-ILSVRC2012-val-00040854.png,0.0,-0.2670091,5.052732,-3.7616253
alexnet,1,385,NaN,cat,cat,0,0385_sty_dnn_0_cat_00_cat-0202-ILSVRC2012-val-00001496.png,00_cat-0202-ILSVRC2012-val-00001496.png,1.0,4.271642,4.1708765,0.071252115
alexnet,1,386,NaN,chair,cat,0,0386_sty_dnn_0_cat_00_cat-0234-ILSVRC2012-val-00028970.png,00_cat-0234-ILSVRC2012-val-00028970.png,0.0,0.15647094,2.7754445,-1.8518939
alexnet,1,387,NaN,knife,cat,0,0387_sty_dnn_0_cat_00_cat-0236-ILSVRC2012-val-00031185.png,00_cat-0236-ILSVRC2012-val-00031185.png,0.0,-1.6094023,3.0777197,-3.3142958
alexnet,1,388,NaN,knife,cat,0,0388_sty_dnn_0_cat_00_cat-0238-ILSVRC2012-val-00033582.png,00_cat-0238-ILSVRC2012-val-00033582.png,0.0,1.4281017,4.9495416,-2.490034
alexnet,1,389,NaN,cat,cat,0,0389_sty_dnn_0_cat_00_cat-0242-ILSVRC2012-val-00040192.png,00_cat-0242-ILSVRC2012-val-00040192.png,1.0,4.8081727,3.041401,1.2492963
alexnet,1,390,NaN,bear,cat,0,0390_sty_dnn_0_cat_00_cat-0243-ILSVRC2012-val-00040600.png,00_cat-0243-ILSVRC2012-val-00040600.png,0.0,0.9994567,5.2142024,-2.9802752
alexnet,1,391,NaN,cat,cat,0,0391_sty_dnn_0_cat_00_cat-0247-ILSVRC2012-val-00044374.png,00_cat-0247-ILSVRC2012-val-00044374.png,1.0,5.0548716,4.2739944,0.55216354
alexnet,1,392,NaN,elephant,cat,0,0392_sty_dnn_0_cat_00_cat-0258-ILSVRC2012-val-00006112.png,00_cat-0258-ILSVRC2012-val-00006112.png,0.0,0.9258463,4.36378,-2.4309862
alexnet,1,393,NaN,clock,cat,0,0393_sty_dnn_0_cat_00_cat-0260-ILSVRC2012-val-00006612.png,00_cat-0260-ILSVRC2012-val-00006612.png,0.0,-0.32096922,4.6270366,-3.4987683
alexnet,1,394,NaN,knife,cat,0,0394_sty_dnn_0_cat_00_cat-0264-ILSVRC2012-val-00010823.png,00_cat-0264-ILSVRC2012-val-00010823.png,0.0,2.1999416,3.3443468,-0.8092166
alexnet,1,395,NaN,oven,cat,0,0395_sty_dnn_0_cat_00_cat-0270-ILSVRC2012-val-00017189.png,00_cat-0270-ILSVRC2012-val-00017189.png,0.0,0.7922659,0.9256109,-0.09428916
alexnet,1,396,NaN,knife,cat,0,0396_sty_dnn_0_cat_00_cat-0274-ILSVRC2012-val-00019370.png,00_cat-0274-ILSVRC2012-val-00019370.png,0.0,-0.23358972,3.6671548,-2.7582428
alexnet,1,397,NaN,knife,cat,0,0397_sty_dnn_0_cat_00_cat-0284-ILSVRC2012-val-00027069.png,00_cat-0284-ILSVRC2012-val-00027069.png,0.0,-0.13961287,3.2128203,-2.3705282
alexnet,1,398,NaN,knife,cat,0,0398_sty_dnn_0_cat_00_cat-0291-ILSVRC2012-val-00035821.png,00_cat-0291-ILSVRC2012-val-00035821.png,0.0,0.7582216,7.2227926,-4.571142
alexnet,1,399,NaN,knife,cat,0,0399_sty_dnn_0_cat_00_cat-0294-ILSVRC2012-val-00037633.png,00_cat-0294-ILSVRC2012-val-00037633.png,0.0,2.3278663,5.4960246,-2.2402263
alexnet,1,400,NaN,clock,cat,0,0400_sty_dnn_0_cat_00_cat-0298-ILSVRC2012-val-00042529.png,00_cat-0298-ILSVRC2012-val-00042529.png,0.0,-0.6415302,3.0767841,-2.6292453
alexnet,1,401,NaN,chair,chair,0,0401_sty_dnn_0_chair_00_chair-0006-ILSVRC2012-val-00004679.png,00_chair-0006-ILSVRC2012-val-00004679.png,1.0,3.2229462,2.9784389,0.17289278
alexnet,1,402,NaN,chair,chair,0,0402_sty_dnn_0_chair_00_chair-0018-ILSVRC2012-val-00013838.png,00_chair-0018-ILSVRC2012-val-00013838.png,1.0,4.1268587,2.6722443,1.0285677
alexnet,1,403,NaN,bottle,chair,0,0403_sty_dnn_0_chair_00_chair-0022-ILSVRC2012-val-00016403.png,00_chair-0022-ILSVRC2012-val-00016403.png,0.0,1.7538112,3.5684724,-1.2831593
alexnet,1,404,NaN,elephant,chair,0,0404_sty_dnn_0_chair_00_chair-0024-ILSVRC2012-val-00021099.png,00_chair-0024-ILSVRC2012-val-00021099.png,0.0,-0.02045542,5.714783,-4.055426
alexnet,1,405,NaN,oven,chair,0,0405_sty_dnn_0_chair_00_chair-0030-ILSVRC2012-val-00026896.png,00_chair-0030-ILSVRC2012-val-00026896.png,0.0,4.135454,4.3045692,-0.119582415
alexnet,1,406,NaN,oven,chair,0,0406_sty_dnn_0_chair_00_chair-0033-ILSVRC2012-val-00031805.png,00_chair-0033-ILSVRC2012-val-00031805.png,0.0,2.8441002,4.4763536,-1.1541774
alexnet,1,407,NaN,elephant,chair,0,0407_sty_dnn_0_chair_00_chair-0039-ILSVRC2012-val-00041772.png,00_chair-0039-ILSVRC2012-val-00041772.png,0.0,0.3846912,3.4892929,-2.1952848
alexnet,1,408,NaN,bear,chair,0,0408_sty_dnn_0_chair_00_chair-0040-ILSVRC2012-val-00042512.png,00_chair-0040-ILSVRC2012-val-00042512.png,0.0,0.3919176,1.8020686,-0.99712735
alexnet,1,409,NaN,knife,chair,0,0409_sty_dnn_0_chair_00_chair-0045-ILSVRC2012-val-00044898.png,00_chair-0045-ILSVRC2012-val-00044898.png,0.0,2.622193,5.4363346,-1.9898986
alexnet,1,410,NaN,knife,chair,0,0410_sty_dnn_0_chair_00_chair-0047-ILSVRC2012-val-00045407.png,00_chair-0047-ILSVRC2012-val-00045407.png,0.0,2.9175277,3.6501956,-0.51807445
alexnet,1,411,NaN,cat,chair,0,0411_sty_dnn_0_chair_00_chair-0050-ILSVRC2012-val-00049050.png,00_chair-0050-ILSVRC2012-val-00049050.png,0.0,1.2079415,2.4129188,-0.8520476
alexnet,1,412,NaN,bear,chair,0,0412_sty_dnn_0_chair_00_chair-0051-ILSVRC2012-val-00001616.png,00_chair-0051-ILSVRC2012-val-00001616.png,0.0,0.9613187,3.1608462,-1.5553008
alexnet,1,413,NaN,bicycle,chair,0,0413_sty_dnn_0_chair_00_chair-0053-ILSVRC2012-val-00001855.png,00_chair-0053-ILSVRC2012-val-00001855.png,0.0,2.6545804,5.4653864,-1.98754
alexnet,1,414,NaN,cat,chair,0,0414_sty_dnn_0_chair_00_chair-0058-ILSVRC2012-val-00005926.png,00_chair-0058-ILSVRC2012-val-00005926.png,0.0,-0.108704984,1.7170855,-1.2910289
alexnet,1,415,NaN,chair,chair,0,0415_sty_dnn_0_chair_00_chair-0059-ILSVRC2012-val-00006022.png,00_chair-0059-ILSVRC2012-val-00006022.png,1.0,5.305891,4.5186396,0.55667084
alexnet,1,416,NaN,knife,chair,0,0416_sty_dnn_0_chair_00_chair-0072-ILSVRC2012-val-00015559.png,00_chair-0072-ILSVRC2012-val-00015559.png,0.0,-0.7672467,3.9583695,-3.3415155
alexnet,1,417,NaN,knife,chair,0,0417_sty_dnn_0_chair_00_chair-0081-ILSVRC2012-val-00033069.png,00_chair-0081-ILSVRC2012-val-00033069.png,0.0,3.9330645,4.7752714,-0.5955303
alexnet,1,418,NaN,chair,chair,0,0418_sty_dnn_0_chair_00_chair-0085-ILSVRC2012-val-00036175.png,00_chair-0085-ILSVRC2012-val-00036175.png,1.0,2.6443012,1.7107403,0.6601272
alexnet,1,419,NaN,chair,chair,0,0419_sty_dnn_0_chair_00_chair-0087-ILSVRC2012-val-00037905.png,00_chair-0087-ILSVRC2012-val-00037905.png,1.0,3.3355608,3.2168205,0.08396209
alexnet,1,420,NaN,knife,chair,0,0420_sty_dnn_0_chair_00_chair-0092-ILSVRC2012-val-00041814.png,00_chair-0092-ILSVRC2012-val-00041814.png,0.0,1.7018043,4.44348,-1.9386576
alexnet,1,421,NaN,knife,chair,0,0421_sty_dnn_0_chair_00_chair-0097-ILSVRC2012-val-00043453.png,00_chair-0097-ILSVRC2012-val-00043453.png,0.0,2.553278,4.7098074,-1.5248966
alexnet,1,422,NaN,oven,chair,0,0422_sty_dnn_0_chair_00_chair-0098-ILSVRC2012-val-00044181.png,00_chair-0098-ILSVRC2012-val-00044181.png,0.0,0.23079851,6.085001,-4.1395464
alexnet,1,423,NaN,chair,chair,0,0423_sty_dnn_0_chair_00_chair-0116-ILSVRC2012-val-00017447.png,00_chair-0116-ILSVRC2012-val-00017447.png,1.0,4.5910406,1.939405,1.8749896
alexnet,1,424,NaN,chair,chair,0,0424_sty_dnn_0_chair_00_chair-0118-ILSVRC2012-val-00018123.png,00_chair-0118-ILSVRC2012-val-00018123.png,1.0,5.7219777,2.6398726,2.1793776
alexnet,1,425,NaN,boat,chair,0,0425_sty_dnn_0_chair_00_chair-0119-ILSVRC2012-val-00018206.png,00_chair-0119-ILSVRC2012-val-00018206.png,0.0,-1.2453313,2.4314308,-2.5998635
alexnet,1,426,NaN,chair,chair,0,0426_sty_dnn_0_chair_00_chair-0122-ILSVRC2012-val-00019867.png,00_chair-0122-ILSVRC2012-val-00019867.png,1.0,4.99931,2.5822332,1.7091315
alexnet,1,427,NaN,knife,chair,0,0427_sty_dnn_0_chair_00_chair-0123-ILSVRC2012-val-00020924.png,00_chair-0123-ILSVRC2012-val-00020924.png,0.0,0.7068145,4.315187,-2.5515046
alexnet,1,428,NaN,bear,chair,0,0428_sty_dnn_0_chair_00_chair-0124-ILSVRC2012-val-00022208.png,00_chair-0124-ILSVRC2012-val-00022208.png,0.0,-2.1156907,2.51175,-3.2720945
alexnet,1,429,NaN,chair,chair,0,0429_sty_dnn_0_chair_00_chair-0127-ILSVRC2012-val-00024620.png,00_chair-0127-ILSVRC2012-val-00024620.png,1.0,4.865503,4.4802933,0.2723843
alexnet,1,430,NaN,clock,chair,0,0430_sty_dnn_0_chair_00_chair-0133-ILSVRC2012-val-00033406.png,00_chair-0133-ILSVRC2012-val-00033406.png,0.0,1.0048097,2.749244,-1.2335013
alexnet,1,431,NaN,oven,chair,0,0431_sty_dnn_0_chair_00_chair-0136-ILSVRC2012-val-00037994.png,00_chair-0136-ILSVRC2012-val-00037994.png,0.0,5.902336,8.060726,-1.5262122
alexnet,1,432,NaN,knife,chair,0,0432_sty_dnn_0_chair_00_chair-0138-ILSVRC2012-val-00038750.png,00_chair-0138-ILSVRC2012-val-00038750.png,0.0,2.4375348,5.4973664,-2.1636276
alexnet,1,433,NaN,boat,chair,0,0433_sty_dnn_0_chair_00_chair-0141-ILSVRC2012-val-00040076.png,00_chair-0141-ILSVRC2012-val-00040076.png,0.0,-1.5782431,3.3097491,-3.4563327
alexnet,1,434,NaN,bear,chair,0,0434_sty_dnn_0_chair_00_chair-0150-ILSVRC2012-val-00048622.png,00_chair-0150-ILSVRC2012-val-00048622.png,0.0,-2.0014,2.2498507,-3.0060883
alexnet,1,435,NaN,bottle,chair,0,0435_sty_dnn_0_chair_00_chair-0154-ILSVRC2012-val-00004705.png,00_chair-0154-ILSVRC2012-val-00004705.png,0.0,3.4258018,4.9478264,-1.076234
alexnet,1,436,NaN,bear,chair,0,0436_sty_dnn_0_chair_00_chair-0155-ILSVRC2012-val-00005160.png,00_chair-0155-ILSVRC2012-val-00005160.png,0.0,1.5348856,3.7819161,-1.5888906
alexnet,1,437,NaN,elephant,chair,0,0437_sty_dnn_0_chair_00_chair-0159-ILSVRC2012-val-00011028.png,00_chair-0159-ILSVRC2012-val-00011028.png,0.0,1.5064161,2.9465418,-1.0183227
alexnet,1,438,NaN,bottle,chair,0,0438_sty_dnn_0_chair_00_chair-0160-ILSVRC2012-val-00012040.png,00_chair-0160-ILSVRC2012-val-00012040.png,0.0,2.5755634,3.5567071,-0.6937734
alexnet,1,439,NaN,knife,chair,0,0439_sty_dnn_0_chair_00_chair-0169-ILSVRC2012-val-00019913.png,00_chair-0169-ILSVRC2012-val-00019913.png,0.0,2.6657233,3.5875897,-0.65185803
alexnet,1,440,NaN,knife,chair,0,0440_sty_dnn_0_chair_00_chair-0170-ILSVRC2012-val-00022051.png,00_chair-0170-ILSVRC2012-val-00022051.png,0.0,1.9820833,5.1374264,-2.2311645
alexnet,1,441,NaN,bottle,chair,0,0441_sty_dnn_0_chair_00_chair-0172-ILSVRC2012-val-00023378.png,00_chair-0172-ILSVRC2012-val-00023378.png,0.0,2.062259,2.3351414,-0.19295704
alexnet,1,442,NaN,knife,chair,0,0442_sty_dnn_0_chair_00_chair-0181-ILSVRC2012-val-00033160.png,00_chair-0181-ILSVRC2012-val-00033160.png,0.0,1.9753277,3.7475214,-1.2531302
alexnet,1,443,NaN,knife,chair,0,0443_sty_dnn_0_chair_00_chair-0183-ILSVRC2012-val-00035142.png,00_chair-0183-ILSVRC2012-val-00035142.png,0.0,0.51842946,5.4479065,-3.4856668
alexnet,1,444,NaN,keyboard,chair,0,0444_sty_dnn_0_chair_00_chair-0188-ILSVRC2012-val-00041720.png,00_chair-0188-ILSVRC2012-val-00041720.png,0.0,-0.58351475,2.2980034,-2.0375412
alexnet,1,445,NaN,elephant,chair,0,0445_sty_dnn_0_chair_00_chair-0189-ILSVRC2012-val-00041883.png,00_chair-0189-ILSVRC2012-val-00041883.png,0.0,0.6347449,5.7328367,-3.6048956
alexnet,1,446,NaN,clock,chair,0,0446_sty_dnn_0_chair_00_chair-0192-ILSVRC2012-val-00043870.png,00_chair-0192-ILSVRC2012-val-00043870.png,0.0,3.3384461,4.7505703,-0.9985226
alexnet,1,447,NaN,knife,chair,0,0447_sty_dnn_0_chair_00_chair-0193-ILSVRC2012-val-00044295.png,00_chair-0193-ILSVRC2012-val-00044295.png,0.0,4.4048204,5.4517956,-0.74032325
alexnet,1,448,NaN,chair,chair,0,0448_sty_dnn_0_chair_00_chair-0195-ILSVRC2012-val-00045464.png,00_chair-0195-ILSVRC2012-val-00045464.png,1.0,6.6165886,3.09467,2.4903724
alexnet,1,449,NaN,boat,chair,0,0449_sty_dnn_0_chair_00_chair-0196-ILSVRC2012-val-00045844.png,00_chair-0196-ILSVRC2012-val-00045844.png,0.0,-0.6979424,2.3569682,-2.1601481
alexnet,1,450,NaN,chair,chair,0,0450_sty_dnn_0_chair_00_chair-0199-ILSVRC2012-val-00048901.png,00_chair-0199-ILSVRC2012-val-00048901.png,1.0,5.611367,3.2609522,1.6619945
alexnet,1,451,NaN,clock,clock,0,0451_sty_dnn_0_clock_00_clock-0001-ILSVRC2012-val-00001011.png,00_clock-0001-ILSVRC2012-val-00001011.png,1.0,7.284107,2.0226297,3.7204266
alexnet,1,452,NaN,bicycle,clock,0,0452_sty_dnn_0_clock_00_clock-0007-ILSVRC2012-val-00005490.png,00_clock-0007-ILSVRC2012-val-00005490.png,0.0,2.587464,6.2268314,-2.5734215
alexnet,1,453,NaN,clock,clock,0,0453_sty_dnn_0_clock_00_clock-0008-ILSVRC2012-val-00005558.png,00_clock-0008-ILSVRC2012-val-00005558.png,1.0,7.910608,5.4450226,1.743432
alexnet,1,454,NaN,clock,clock,0,0454_sty_dnn_0_clock_00_clock-0010-ILSVRC2012-val-00006858.png,00_clock-0010-ILSVRC2012-val-00006858.png,1.0,5.1400304,3.7445667,0.98674184
alexnet,1,455,NaN,clock,clock,0,0455_sty_dnn_0_clock_00_clock-0013-ILSVRC2012-val-00013244.png,00_clock-0013-ILSVRC2012-val-00013244.png,1.0,9.95505,5.1707726,3.3829954
alexnet,1,456,NaN,clock,clock,0,0456_sty_dnn_0_clock_00_clock-0018-ILSVRC2012-val-00015871.png,00_clock-0018-ILSVRC2012-val-00015871.png,1.0,4.9132714,4.002318,0.64414144
alexnet,1,457,NaN,clock,clock,0,0457_sty_dnn_0_clock_00_clock-0020-ILSVRC2012-val-00016889.png,00_clock-0020-ILSVRC2012-val-00016889.png,1.0,7.076637,3.0872035,2.8209553
alexnet,1,458,NaN,clock,clock,0,0458_sty_dnn_0_clock_00_clock-0023-ILSVRC2012-val-00017973.png,00_clock-0023-ILSVRC2012-val-00017973.png,1.0,11.221542,3.3108182,5.5937266
alexnet,1,459,NaN,clock,clock,0,0459_sty_dnn_0_clock_00_clock-0025-ILSVRC2012-val-00019663.png,00_clock-0025-ILSVRC2012-val-00019663.png,1.0,7.43667,2.3907712,3.567989
alexnet,1,460,NaN,clock,clock,0,0460_sty_dnn_0_clock_00_clock-0028-ILSVRC2012-val-00021179.png,00_clock-0028-ILSVRC2012-val-00021179.png,1.0,6.3521323,3.5112755,2.008789
alexnet,1,461,NaN,clock,clock,0,0461_sty_dnn_0_clock_00_clock-0029-ILSVRC2012-val-00022719.png,00_clock-0029-ILSVRC2012-val-00022719.png,1.0,10.520553,5.493369,3.5547557
alexnet,1,462,NaN,clock,clock,0,0462_sty_dnn_0_clock_00_clock-0032-ILSVRC2012-val-00024425.png,00_clock-0032-ILSVRC2012-val-00024425.png,1.0,7.2602105,5.9323664,0.9389276
alexnet,1,463,NaN,clock,clock,0,0463_sty_dnn_0_clock_00_clock-0034-ILSVRC2012-val-00026380.png,00_clock-0034-ILSVRC2012-val-00026380.png,1.0,5.592581,3.6165333,1.3972766
alexnet,1,464,NaN,knife,clock,0,0464_sty_dnn_0_clock_00_clock-0038-ILSVRC2012-val-00032489.png,00_clock-0038-ILSVRC2012-val-00032489.png,0.0,2.3821418,2.777114,-0.27928746
alexnet,1,465,NaN,bear,clock,0,0465_sty_dnn_0_clock_00_clock-0039-ILSVRC2012-val-00033429.png,00_clock-0039-ILSVRC2012-val-00033429.png,0.0,-0.9457223,3.6107552,-3.2219162
alexnet,1,466,NaN,clock,clock,0,0466_sty_dnn_0_clock_00_clock-0040-ILSVRC2012-val-00035392.png,00_clock-0040-ILSVRC2012-val-00035392.png,1.0,11.702487,3.2336714,5.988357
alexnet,1,467,NaN,clock,clock,0,0467_sty_dnn_0_clock_00_clock-0043-ILSVRC2012-val-00041613.png,00_clock-0043-ILSVRC2012-val-00041613.png,1.0,6.664274,3.534182,2.2133095
alexnet,1,468,NaN,clock,clock,0,0468_sty_dnn_0_clock_00_clock-0045-ILSVRC2012-val-00043497.png,00_clock-0045-ILSVRC2012-val-00043497.png,1.0,5.5289435,3.3272078,1.5568624
alexnet,1,469,NaN,oven,clock,0,0469_sty_dnn_0_clock_00_clock-0046-ILSVRC2012-val-00044049.png,00_clock-0046-ILSVRC2012-val-00044049.png,0.0,3.1407974,3.857363,-0.5066884
alexnet,1,470,NaN,clock,clock,0,0470_sty_dnn_0_clock_00_clock-0048-ILSVRC2012-val-00044752.png,00_clock-0048-ILSVRC2012-val-00044752.png,1.0,5.981699,4.7685747,0.8578084
alexnet,1,471,NaN,cat,clock,0,0471_sty_dnn_0_clock_00_clock-0052-ILSVRC2012-val-00003721.png,00_clock-0052-ILSVRC2012-val-00003721.png,0.0,0.35162234,3.2026336,-2.0159695
alexnet,1,472,NaN,bear,clock,0,0472_sty_dnn_0_clock_00_clock-0054-ILSVRC2012-val-00008751.png,00_clock-0054-ILSVRC2012-val-00008751.png,0.0,2.9592571,4.732405,-1.253805
alexnet,1,473,NaN,clock,clock,0,0473_sty_dnn_0_clock_00_clock-0062-ILSVRC2012-val-00014987.png,00_clock-0062-ILSVRC2012-val-00014987.png,1.0,5.366923,4.417848,0.6710972
alexnet,1,474,NaN,chair,clock,0,0474_sty_dnn_0_clock_00_clock-0063-ILSVRC2012-val-00015628.png,00_clock-0063-ILSVRC2012-val-00015628.png,0.0,3.3271935,4.5693564,-0.87834185
alexnet,1,475,NaN,clock,clock,0,0475_sty_dnn_0_clock_00_clock-0073-ILSVRC2012-val-00026298.png,00_clock-0073-ILSVRC2012-val-00026298.png,1.0,7.548716,5.893966,1.1700848
alexnet,1,476,NaN,oven,clock,0,0476_sty_dnn_0_clock_00_clock-0076-ILSVRC2012-val-00028203.png,00_clock-0076-ILSVRC2012-val-00028203.png,0.0,2.0164175,2.417194,-0.2833917
alexnet,1,477,NaN,chair,clock,0,0477_sty_dnn_0_clock_00_clock-0080-ILSVRC2012-val-00032946.png,00_clock-0080-ILSVRC2012-val-00032946.png,0.0,4.2101336,4.4629025,-0.17873468
alexnet,1,478,NaN,knife,clock,0,0478_sty_dnn_0_clock_00_clock-0082-ILSVRC2012-val-00033627.png,00_clock-0082-ILSVRC2012-val-00033627.png,0.0,1.4189506,3.4594092,-1.4428222
alexnet,1,479,NaN,bottle,clock,0,0479_sty_dnn_0_clock_00_clock-0084-ILSVRC2012-val-00034426.png,00_clock-0084-ILSVRC2012-val-00034426.png,0.0,3.7146957,5.819192,-1.4881036
alexnet,1,480,NaN,oven,clock,0,0480_sty_dnn_0_clock_00_clock-0086-ILSVRC2012-val-00041483.png,00_clock-0086-ILSVRC2012-val-00041483.png,0.0,2.5344753,4.5201025,-1.4040505
alexnet,1,481,NaN,knife,clock,0,0481_sty_dnn_0_clock_00_clock-0089-ILSVRC2012-val-00042911.png,00_clock-0089-ILSVRC2012-val-00042911.png,0.0,0.34531823,3.1029444,-1.9499362
alexnet,1,482,NaN,knife,clock,0,0482_sty_dnn_0_clock_00_clock-0091-ILSVRC2012-val-00044029.png,00_clock-0091-ILSVRC2012-val-00044029.png,0.0,-0.85853934,3.4949222,-3.078362
alexnet,1,483,NaN,bicycle,clock,0,0483_sty_dnn_0_clock_00_clock-0092-ILSVRC2012-val-00044168.png,00_clock-0092-ILSVRC2012-val-00044168.png,0.0,0.40811315,2.6075275,-1.5552207
alexnet,1,484,NaN,bicycle,clock,0,0484_sty_dnn_0_clock_00_clock-0098-ILSVRC2012-val-00048682.png,00_clock-0098-ILSVRC2012-val-00048682.png,0.0,3.1698513,6.014803,-2.0116847
alexnet,1,485,NaN,boat,clock,0,0485_sty_dnn_0_clock_00_clock-0100-ILSVRC2012-val-00049759.png,00_clock-0100-ILSVRC2012-val-00049759.png,0.0,1.077508,4.7200775,-2.5756857
alexnet,1,486,NaN,clock,clock,0,0486_sty_dnn_0_clock_00_clock-0106-ILSVRC2012-val-00009413.png,00_clock-0106-ILSVRC2012-val-00009413.png,1.0,4.302277,2.6129944,1.1945032
alexnet,1,487,NaN,clock,clock,0,0487_sty_dnn_0_clock_00_clock-0107-ILSVRC2012-val-00010270.png,00_clock-0107-ILSVRC2012-val-00010270.png,1.0,6.795858,2.408267,3.1024954
alexnet,1,488,NaN,clock,clock,0,0488_sty_dnn_0_clock_00_clock-0108-ILSVRC2012-val-00011957.png,00_clock-0108-ILSVRC2012-val-00011957.png,1.0,7.143354,3.426293,2.628359
alexnet,1,489,NaN,bottle,clock,0,0489_sty_dnn_0_clock_00_clock-0110-ILSVRC2012-val-00014035.png,00_clock-0110-ILSVRC2012-val-00014035.png,0.0,3.4672673,5.511779,-1.445688
alexnet,1,490,NaN,chair,clock,0,0490_sty_dnn_0_clock_00_clock-0112-ILSVRC2012-val-00014635.png,00_clock-0112-ILSVRC2012-val-00014635.png,0.0,1.2889565,3.2811441,-1.4086894
alexnet,1,491,NaN,knife,clock,0,0491_sty_dnn_0_clock_00_clock-0118-ILSVRC2012-val-00018443.png,00_clock-0118-ILSVRC2012-val-00018443.png,0.0,2.8375797,3.6070657,-0.54410875
alexnet,1,492,NaN,clock,clock,0,0492_sty_dnn_0_clock_00_clock-0119-ILSVRC2012-val-00018797.png,00_clock-0119-ILSVRC2012-val-00018797.png,1.0,4.700703,4.57648,0.08783909
alexnet,1,493,NaN,knife,clock,0,0493_sty_dnn_0_clock_00_clock-0127-ILSVRC2012-val-00030330.png,00_clock-0127-ILSVRC2012-val-00030330.png,0.0,2.036337,3.0017586,-0.6826562
alexnet,1,494,NaN,clock,clock,0,0494_sty_dnn_0_clock_00_clock-0128-ILSVRC2012-val-00030987.png,00_clock-0128-ILSVRC2012-val-00030987.png,1.0,11.381217,4.538477,4.838548
alexnet,1,495,NaN,knife,clock,0,0495_sty_dnn_0_clock_00_clock-0129-ILSVRC2012-val-00031861.png,00_clock-0129-ILSVRC2012-val-00031861.png,0.0,2.5939052,3.3274946,-0.51872605
alexnet,1,496,NaN,clock,clock,0,0496_sty_dnn_0_clock_00_clock-0130-ILSVRC2012-val-00032136.png,00_clock-0130-ILSVRC2012-val-00032136.png,1.0,6.907418,4.0213394,2.0407655
alexnet,1,497,NaN,clock,clock,0,0497_sty_dnn_0_clock_00_clock-0142-ILSVRC2012-val-00041461.png,00_clock-0142-ILSVRC2012-val-00041461.png,1.0,7.2223587,3.1820045,2.856962
alexnet,1,498,NaN,bottle,clock,0,0498_sty_dnn_0_clock_00_clock-0143-ILSVRC2012-val-00041547.png,00_clock-0143-ILSVRC2012-val-00041547.png,0.0,1.7837777,2.1961148,-0.29156634
alexnet,1,499,NaN,clock,clock,0,0499_sty_dnn_0_clock_00_clock-0144-ILSVRC2012-val-00041715.png,00_clock-0144-ILSVRC2012-val-00041715.png,1.0,7.4822044,3.2457368,2.9956348
alexnet,1,500,NaN,clock,clock,0,0500_sty_dnn_0_clock_00_clock-0145-ILSVRC2012-val-00044685.png,00_clock-0145-ILSVRC2012-val-00044685.png,1.0,3.5629685,3.4650998,0.06920361
alexnet,1,501,NaN,dog,dog,0,0501_sty_dnn_0_dog_00_dog-0099-ILSVRC2012-val-00048280.png,00_dog-0099-ILSVRC2012-val-00048280.png,1.0,2.617343,1.4151373,0.85008776
alexnet,1,502,NaN,knife,dog,0,0502_sty_dnn_0_dog_00_dog-0158-ILSVRC2012-val-00004081.png,00_dog-0158-ILSVRC2012-val-00004081.png,0.0,0.1595418,3.9432707,-2.6755004
alexnet,1,503,NaN,clock,dog,0,0503_sty_dnn_0_dog_00_dog-0220-ILSVRC2012-val-00017568.png,00_dog-0220-ILSVRC2012-val-00017568.png,0.0,-0.72225726,2.97319,-2.613076
alexnet,1,504,NaN,elephant,dog,0,0504_sty_dnn_0_dog_00_dog-0247-ILSVRC2012-val-00045683.png,00_dog-0247-ILSVRC2012-val-00045683.png,0.0,-1.6114117,3.2249873,-3.4198506
alexnet,1,505,NaN,cat,dog,0,0505_sty_dnn_0_dog_00_dog-0303-ILSVRC2012-val-00002521.png,00_dog-0303-ILSVRC2012-val-00002521.png,0.0,2.0283601,3.1974742,-0.8266885
alexnet,1,506,NaN,chair,dog,0,0506_sty_dnn_0_dog_00_dog-0386-ILSVRC2012-val-00034616.png,00_dog-0386-ILSVRC2012-val-00034616.png,0.0,0.36901277,4.0450835,-2.5993745
alexnet,1,507,NaN,elephant,dog,0,0507_sty_dnn_0_dog_00_dog-0397-ILSVRC2012-val-00044140.png,00_dog-0397-ILSVRC2012-val-00044140.png,0.0,2.542607,3.0046616,-0.32672188
alexnet,1,508,NaN,bear,dog,0,0508_sty_dnn_0_dog_00_dog-0779-ILSVRC2012-val-00033666.png,00_dog-0779-ILSVRC2012-val-00033666.png,0.0,2.7561924,3.665959,-0.643302
alexnet,1,509,NaN,dog,dog,0,0509_sty_dnn_0_dog_00_dog-1178-ILSVRC2012-val-00022137.png,00_dog-1178-ILSVRC2012-val-00022137.png,1.0,3.8484664,2.9487047,0.6362276
alexnet,1,510,NaN,elephant,dog,0,0510_sty_dnn_0_dog_00_dog-1191-ILSVRC2012-val-00037989.png,00_dog-1191-ILSVRC2012-val-00037989.png,0.0,-1.2276846,6.7872825,-5.6674376
alexnet,1,511,NaN,elephant,dog,0,0511_sty_dnn_0_dog_00_dog-1398-ILSVRC2012-val-00046547.png,00_dog-1398-ILSVRC2012-val-00046547.png,0.0,0.519694,3.8061514,-2.3238764
alexnet,1,512,NaN,knife,dog,0,0512_sty_dnn_0_dog_00_dog-1538-ILSVRC2012-val-00038167.png,00_dog-1538-ILSVRC2012-val-00038167.png,0.0,-1.8841048,5.6409216,-5.320997
alexnet,1,513,NaN,chair,dog,0,0513_sty_dnn_0_dog_00_dog-1613-ILSVRC2012-val-00015923.png,00_dog-1613-ILSVRC2012-val-00015923.png,0.0,0.48338374,3.8471043,-2.3785098
alexnet,1,514,NaN,airplane,dog,0,0514_sty_dnn_0_dog_00_dog-1734-ILSVRC2012-val-00031377.png,00_dog-1734-ILSVRC2012-val-00031377.png,0.0,0.4171983,2.5353103,-1.4977314
alexnet,1,515,NaN,clock,dog,0,0515_sty_dnn_0_dog_00_dog-1735-ILSVRC2012-val-00031764.png,00_dog-1735-ILSVRC2012-val-00031764.png,0.0,-0.8753273,3.5957534,-3.1615317
alexnet,1,516,NaN,knife,dog,0,0516_sty_dnn_0_dog_00_dog-1881-ILSVRC2012-val-00028322.png,00_dog-1881-ILSVRC2012-val-00028322.png,0.0,-1.0258849,4.5363336,-3.9330826
alexnet,1,517,NaN,oven,dog,0,0517_sty_dnn_0_dog_00_dog-2094-ILSVRC2012-val-00044284.png,00_dog-2094-ILSVRC2012-val-00044284.png,0.0,3.7723322,5.9879103,-1.5666503
alexnet,1,518,NaN,bicycle,dog,0,0518_sty_dnn_0_dog_00_dog-2121-ILSVRC2012-val-00015705.png,00_dog-2121-ILSVRC2012-val-00015705.png,0.0,1.4991182,6.5509396,-3.5721772
alexnet,1,519,NaN,knife,dog,0,0519_sty_dnn_0_dog_00_dog-2129-ILSVRC2012-val-00025424.png,00_dog-2129-ILSVRC2012-val-00025424.png,0.0,-0.00934352,2.0137377,-1.4305345
alexnet,1,520,NaN,chair,dog,0,0520_sty_dnn_0_dog_00_dog-2195-ILSVRC2012-val-00046002.png,00_dog-2195-ILSVRC2012-val-00046002.png,0.0,1.0673537,3.4972553,-1.7182
alexnet,1,521,NaN,elephant,dog,0,0521_sty_dnn_0_dog_00_dog-2211-ILSVRC2012-val-00010402.png,00_dog-2211-ILSVRC2012-val-00010402.png,0.0,1.8836788,3.1103215,-0.8673674
alexnet,1,522,NaN,bicycle,dog,0,0522_sty_dnn_0_dog_00_dog-2253-ILSVRC2012-val-00003731.png,00_dog-2253-ILSVRC2012-val-00003731.png,0.0,1.0326985,2.6969502,-1.1768037
alexnet,1,523,NaN,clock,dog,0,0523_sty_dnn_0_dog_00_dog-2290-ILSVRC2012-val-00036919.png,00_dog-2290-ILSVRC2012-val-00036919.png,0.0,-1.3854474,5.0552545,-4.554264
alexnet,1,524,NaN,elephant,dog,0,0524_sty_dnn_0_dog_00_dog-2321-ILSVRC2012-val-00015164.png,00_dog-2321-ILSVRC2012-val-00015164.png,0.0,1.7804977,4.163722,-1.6851943
alexnet,1,525,NaN,dog,dog,0,0525_sty_dnn_0_dog_00_dog-2368-ILSVRC2012-val-00011895.png,00_dog-2368-ILSVRC2012-val-00011895.png,1.0,4.84179,1.7834954,2.162541
alexnet,1,526,NaN,dog,dog,0,0526_sty_dnn_0_dog_00_dog-2391-ILSVRC2012-val-00039144.png,00_dog-2391-ILSVRC2012-val-00039144.png,1.0,3.9152725,3.8255374,0.06345225
alexnet,1,527,NaN,oven,dog,0,0527_sty_dnn_0_dog_00_dog-2535-ILSVRC2012-val-00038253.png,00_dog-2535-ILSVRC2012-val-00038253.png,0.0,2.3740544,2.98228,-0.43008044
alexnet,1,528,NaN,clock,dog,0,0528_sty_dnn_0_dog_00_dog-2539-ILSVRC2012-val-00041157.png,00_dog-2539-ILSVRC2012-val-00041157.png,0.0,-0.8775591,6.5292244,-5.237387
alexnet,1,529,NaN,cat,dog,0,0529_sty_dnn_0_dog_00_dog-2629-ILSVRC2012-val-00030579.png,00_dog-2629-ILSVRC2012-val-00030579.png,0.0,2.1966672,3.8140128,-1.143636
alexnet,1,530,NaN,knife,dog,0,0530_sty_dnn_0_dog_00_dog-2876-ILSVRC2012-val-00027038.png,00_dog-2876-ILSVRC2012-val-00027038.png,0.0,-0.28932613,2.1945689,-1.7563791
alexnet,1,531,NaN,elephant,dog,0,0531_sty_dnn_0_dog_00_dog-2889-ILSVRC2012-val-00043272.png,00_dog-2889-ILSVRC2012-val-00043272.png,0.0,3.8186896,5.9362454,-1.4973382
alexnet,1,532,NaN,clock,dog,0,0532_sty_dnn_0_dog_00_dog-3044-ILSVRC2012-val-00034485.png,00_dog-3044-ILSVRC2012-val-00034485.png,0.0,0.52115345,3.852433,-2.3555703
alexnet,1,533,NaN,knife,dog,0,0533_sty_dnn_0_dog_00_dog-3412-ILSVRC2012-val-00014775.png,00_dog-3412-ILSVRC2012-val-00014775.png,0.0,1.086697,2.637538,-1.0966102
alexnet,1,534,NaN,knife,dog,0,0534_sty_dnn_0_dog_00_dog-3425-ILSVRC2012-val-00027086.png,00_dog-3425-ILSVRC2012-val-00027086.png,0.0,1.4329443,3.8032608,-1.6760669
alexnet,1,535,NaN,bear,dog,0,0535_sty_dnn_0_dog_00_dog-3771-ILSVRC2012-val-00020678.png,00_dog-3771-ILSVRC2012-val-00020678.png,0.0,4.128514,4.3807383,-0.17834961
alexnet,1,536,NaN,dog,dog,0,0536_sty_dnn_0_dog_00_dog-3802-ILSVRC2012-val-00003862.png,00_dog-3802-ILSVRC2012-val-00003862.png,1.0,2.815397,2.573716,0.17089434
alexnet,1,537,NaN,knife,dog,0,0537_sty_dnn_0_dog_00_dog-3841-ILSVRC2012-val-00038789.png,00_dog-3841-ILSVRC2012-val-00038789.png,0.0,-1.2571964,4.228717,-3.8791265
alexnet,1,538,NaN,chair,dog,0,0538_sty_dnn_0_dog_00_dog-3864-ILSVRC2012-val-00011457.png,00_dog-3864-ILSVRC2012-val-00011457.png,0.0,-0.26353475,3.1889224,-2.441256
alexnet,1,539,NaN,bear,dog,0,0539_sty_dnn_0_dog_00_dog-3917-ILSVRC2012-val-00016908.png,00_dog-3917-ILSVRC2012-val-00016908.png,0.0,1.9298286,2.0393245,-0.07742528
alexnet,1,540,NaN,clock,dog,0,0540_sty_dnn_0_dog_00_dog-4009-ILSVRC2012-val-00007922.png,00_dog-4009-ILSVRC2012-val-00007922.png,0.0,-0.36014754,3.224826,-2.534959
alexnet,1,541,NaN,knife,dog,0,0541_sty_dnn_0_dog_00_dog-4070-ILSVRC2012-val-00021155.png,00_dog-4070-ILSVRC2012-val-00021155.png,0.0,0.1117661,3.768426,-2.585649
alexnet,1,542,NaN,clock,dog,0,0542_sty_dnn_0_dog_00_dog-4443-ILSVRC2012-val-00045160.png,00_dog-4443-ILSVRC2012-val-00045160.png,0.0,-0.17170975,4.945818,-3.6186385
alexnet,1,543,NaN,dog,dog,0,0543_sty_dnn_0_dog_00_dog-4689-ILSVRC2012-val-00034291.png,00_dog-4689-ILSVRC2012-val-00034291.png,1.0,2.0305157,1.5914884,0.3104392
alexnet,1,544,NaN,elephant,dog,0,0544_sty_dnn_0_dog_00_dog-4865-ILSVRC2012-val-00013670.png,00_dog-4865-ILSVRC2012-val-00013670.png,0.0,1.1518134,4.2235956,-2.172078
alexnet,1,545,NaN,oven,dog,0,0545_sty_dnn_0_dog_00_dog-4914-ILSVRC2012-val-00011316.png,00_dog-4914-ILSVRC2012-val-00011316.png,0.0,1.3281758,5.5573707,-2.9904923
alexnet,1,546,NaN,dog,dog,0,0546_sty_dnn_0_dog_00_dog-4933-ILSVRC2012-val-00033357.png,00_dog-4933-ILSVRC2012-val-00033357.png,1.0,4.821866,1.8482813,2.1026418
alexnet,1,547,NaN,elephant,dog,0,0547_sty_dnn_0_dog_00_dog-4954-ILSVRC2012-val-00002882.png,00_dog-4954-ILSVRC2012-val-00002882.png,0.0,4.257513,5.5610466,-0.92173743
alexnet,1,548,NaN,knife,dog,0,0548_sty_dnn_0_dog_00_dog-4999-ILSVRC2012-val-00049046.png,00_dog-4999-ILSVRC2012-val-00049046.png,0.0,2.9009068,4.674811,-1.2543396
alexnet,1,549,NaN,dog,dog,0,0549_sty_dnn_0_dog_00_dog-5044-ILSVRC2012-val-00043270.png,00_dog-5044-ILSVRC2012-val-00043270.png,1.0,3.6331508,2.954632,0.47978523
alexnet,1,550,NaN,elephant,dog,0,0550_sty_dnn_0_dog_00_dog-5267-ILSVRC2012-val-00013862.png,00_dog-5267-ILSVRC2012-val-00013862.png,0.0,0.6388055,3.954024,-2.3442135
alexnet,1,551,NaN,elephant,elephant,0,0551_sty_dnn_0_elephant_00_elephant-0002-ILSVRC2012-val-00001850.png,00_elephant-0002-ILSVRC2012-val-00001850.png,1.0,5.1590786,4.658989,0.35361677
alexnet,1,552,NaN,elephant,elephant,0,0552_sty_dnn_0_elephant_00_elephant-0003-ILSVRC2012-val-00003280.png,00_elephant-0003-ILSVRC2012-val-00003280.png,1.0,4.7127223,3.854683,0.60672545
alexnet,1,553,NaN,bear,elephant,0,0553_sty_dnn_0_elephant_00_elephant-0004-ILSVRC2012-val-00004882.png,00_elephant-0004-ILSVRC2012-val-00004882.png,0.0,6.4842033,7.1585026,-0.47680157
alexnet,1,554,NaN,elephant,elephant,0,0554_sty_dnn_0_elephant_00_elephant-0006-ILSVRC2012-val-00005704.png,00_elephant-0006-ILSVRC2012-val-00005704.png,1.0,2.4027863,2.0675972,0.23701449
alexnet,1,555,NaN,bicycle,elephant,0,0555_sty_dnn_0_elephant_00_elephant-0009-ILSVRC2012-val-00010713.png,00_elephant-0009-ILSVRC2012-val-00010713.png,0.0,0.32817173,3.9576573,-2.566434
alexnet,1,556,NaN,bicycle,elephant,0,0556_sty_dnn_0_elephant_00_elephant-0010-ILSVRC2012-val-00011002.png,00_elephant-0010-ILSVRC2012-val-00011002.png,0.0,1.4523299,5.465071,-2.8374364
alexnet,1,557,NaN,bear,elephant,0,0557_sty_dnn_0_elephant_00_elephant-0011-ILSVRC2012-val-00011247.png,00_elephant-0011-ILSVRC2012-val-00011247.png,0.0,6.8617554,8.162903,-0.9200502
alexnet,1,558,NaN,elephant,elephant,0,0558_sty_dnn_0_elephant_00_elephant-0013-ILSVRC2012-val-00014219.png,00_elephant-0013-ILSVRC2012-val-00014219.png,1.0,5.8617992,2.8337169,2.1411777
alexnet,1,559,NaN,clock,elephant,0,0559_sty_dnn_0_elephant_00_elephant-0015-ILSVRC2012-val-00015520.png,00_elephant-0015-ILSVRC2012-val-00015520.png,0.0,0.17923652,4.7997994,-3.2672315
alexnet,1,560,NaN,bottle,elephant,0,0560_sty_dnn_0_elephant_00_elephant-0021-ILSVRC2012-val-00021618.png,00_elephant-0021-ILSVRC2012-val-00021618.png,0.0,1.7912309,2.044438,-0.17904437
alexnet,1,561,NaN,elephant,elephant,0,0561_sty_dnn_0_elephant_00_elephant-0022-ILSVRC2012-val-00022028.png,00_elephant-0022-ILSVRC2012-val-00022028.png,1.0,6.7208977,4.1483865,1.8190402
alexnet,1,562,NaN,knife,elephant,0,0562_sty_dnn_0_elephant_00_elephant-0024-ILSVRC2012-val-00022921.png,00_elephant-0024-ILSVRC2012-val-00022921.png,0.0,-2.625063,3.4025917,-4.2621956
alexnet,1,563,NaN,clock,elephant,0,0563_sty_dnn_0_elephant_00_elephant-0026-ILSVRC2012-val-00023589.png,00_elephant-0026-ILSVRC2012-val-00023589.png,0.0,-0.46760294,5.6023917,-4.2921343
alexnet,1,564,NaN,clock,elephant,0,0564_sty_dnn_0_elephant_00_elephant-0028-ILSVRC2012-val-00025237.png,00_elephant-0028-ILSVRC2012-val-00025237.png,0.0,0.21489012,3.1118572,-2.048465
alexnet,1,565,NaN,elephant,elephant,0,0565_sty_dnn_0_elephant_00_elephant-0029-ILSVRC2012-val-00027259.png,00_elephant-0029-ILSVRC2012-val-00027259.png,1.0,3.928542,2.5063684,1.0056286
alexnet,1,566,NaN,keyboard,elephant,0,0566_sty_dnn_0_elephant_00_elephant-0030-ILSVRC2012-val-00028996.png,00_elephant-0030-ILSVRC2012-val-00028996.png,0.0,-0.5294855,8.494814,-6.3811436
alexnet,1,567,NaN,elephant,elephant,0,0567_sty_dnn_0_elephant_00_elephant-0032-ILSVRC2012-val-00030248.png,00_elephant-0032-ILSVRC2012-val-00030248.png,1.0,3.3549278,2.4002547,0.6750558
alexnet,1,568,NaN,elephant,elephant,0,0568_sty_dnn_0_elephant_00_elephant-0033-ILSVRC2012-val-00033715.png,00_elephant-0033-ILSVRC2012-val-00033715.png,1.0,12.491568,4.04101,5.9754467
alexnet,1,569,NaN,elephant,elephant,0,0569_sty_dnn_0_elephant_00_elephant-0035-ILSVRC2012-val-00034035.png,00_elephant-0035-ILSVRC2012-val-00034035.png,1.0,9.557867,2.2751412,5.149665
alexnet,1,570,NaN,elephant,elephant,0,0570_sty_dnn_0_elephant_00_elephant-0036-ILSVRC2012-val-00034664.png,00_elephant-0036-ILSVRC2012-val-00034664.png,1.0,13.25065,3.4093366,6.9588604
alexnet,1,571,NaN,elephant,elephant,0,0571_sty_dnn_0_elephant_00_elephant-0041-ILSVRC2012-val-00038720.png,00_elephant-0041-ILSVRC2012-val-00038720.png,1.0,6.116983,3.617834,1.7671652
alexnet,1,572,NaN,elephant,elephant,0,0572_sty_dnn_0_elephant_00_elephant-0043-ILSVRC2012-val-00040923.png,00_elephant-0043-ILSVRC2012-val-00040923.png,1.0,6.254668,3.4993248,1.948322
alexnet,1,573,NaN,bicycle,elephant,0,0573_sty_dnn_0_elephant_00_elephant-0045-ILSVRC2012-val-00043193.png,00_elephant-0045-ILSVRC2012-val-00043193.png,0.0,1.3762399,2.149724,-0.54693586
alexnet,1,574,NaN,bear,elephant,0,0574_sty_dnn_0_elephant_00_elephant-0046-ILSVRC2012-val-00045103.png,00_elephant-0046-ILSVRC2012-val-00045103.png,0.0,5.1257234,5.36635,-0.17014885
alexnet,1,575,NaN,elephant,elephant,0,0575_sty_dnn_0_elephant_00_elephant-0047-ILSVRC2012-val-00048547.png,00_elephant-0047-ILSVRC2012-val-00048547.png,1.0,7.832926,6.9924784,0.5942861
alexnet,1,576,NaN,clock,elephant,0,0576_sty_dnn_0_elephant_00_elephant-0051-ILSVRC2012-val-00001177.png,00_elephant-0051-ILSVRC2012-val-00001177.png,0.0,1.885119,4.863132,-2.1057732
alexnet,1,577,NaN,airplane,elephant,0,0577_sty_dnn_0_elephant_00_elephant-0055-ILSVRC2012-val-00003538.png,00_elephant-0055-ILSVRC2012-val-00003538.png,0.0,-1.2172801,3.229045,-3.1440268
alexnet,1,578,NaN,clock,elephant,0,0578_sty_dnn_0_elephant_00_elephant-0057-ILSVRC2012-val-00004013.png,00_elephant-0057-ILSVRC2012-val-00004013.png,0.0,2.5326796,4.9409413,-1.7028983
alexnet,1,579,NaN,knife,elephant,0,0579_sty_dnn_0_elephant_00_elephant-0058-ILSVRC2012-val-00004990.png,00_elephant-0058-ILSVRC2012-val-00004990.png,0.0,5.2147436,5.233266,-0.013097217
