subj,session,trial,rt,object_response,category,condition,imagename,filename,is_correct,targ_act,max_nontarg_act,decision_margin
alexnet_w3_mlp_simclrhn_probe1,1,1,NaN,bicycle,airplane,0,0001_sty_dnn_0_airplane_00_airplane-0001-ILSVRC2012-val-00000631.png,airplane-0001-ILSVRC2012-val-00000631.png,0.0,-3.6531224,1.3214604,-3.5175612
alexnet_w3_mlp_simclrhn_probe1,1,2,NaN,airplane,airplane,0,0002_sty_dnn_0_airplane_00_airplane-0002-ILSVRC2012-val-00001390.png,airplane-0002-ILSVRC2012-val-00001390.png,1.0,-0.119599774,-0.5517843,0.3056006
alexnet_w3_mlp_simclrhn_probe1,1,3,NaN,bear,airplane,0,0003_sty_dnn_0_airplane_00_airplane-0003-ILSVRC2012-val-00001506.png,airplane-0003-ILSVRC2012-val-00001506.png,0.0,-8.086981,-1.1323869,-4.91764
alexnet_w3_mlp_simclrhn_probe1,1,4,NaN,elephant,airplane,0,0004_sty_dnn_0_airplane_00_airplane-0004-ILSVRC2012-val-00001952.png,airplane-0004-ILSVRC2012-val-00001952.png,0.0,-5.4888506,0.7595651,-4.4182973
alexnet_w3_mlp_simclrhn_probe1,1,5,NaN,bear,airplane,0,0005_sty_dnn_0_airplane_00_airplane-0005-ILSVRC2012-val-00003960.png,airplane-0005-ILSVRC2012-val-00003960.png,0.0,-3.78578,-1.2735598,-1.776408
alexnet_w3_mlp_simclrhn_probe1,1,6,NaN,elephant,airplane,0,0006_sty_dnn_0_airplane_00_airplane-0006-ILSVRC2012-val-00008292.png,airplane-0006-ILSVRC2012-val-00008292.png,0.0,-4.7365294,0.21021745,-3.4978783
alexnet_w3_mlp_simclrhn_probe1,1,7,NaN,airplane,airplane,0,0007_sty_dnn_0_airplane_00_airplane-0007-ILSVRC2012-val-00009537.png,airplane-0007-ILSVRC2012-val-00009537.png,1.0,2.8235853,-0.9451974,2.6649318
alexnet_w3_mlp_simclrhn_probe1,1,8,NaN,elephant,airplane,0,0008_sty_dnn_0_airplane_00_airplane-0008-ILSVRC2012-val-00010597.png,airplane-0008-ILSVRC2012-val-00010597.png,0.0,-5.599836,0.47854757,-4.298066
alexnet_w3_mlp_simclrhn_probe1,1,9,NaN,elephant,airplane,0,0009_sty_dnn_0_airplane_00_airplane-0009-ILSVRC2012-val-00011168.png,airplane-0009-ILSVRC2012-val-00011168.png,0.0,-6.3177433,0.29222855,-4.673956
alexnet_w3_mlp_simclrhn_probe1,1,10,NaN,bicycle,airplane,0,0010_sty_dnn_0_airplane_00_airplane-0010-ILSVRC2012-val-00012263.png,airplane-0010-ILSVRC2012-val-00012263.png,0.0,-10.409298,-3.8927693,-4.6078815
alexnet_w3_mlp_simclrhn_probe1,1,11,NaN,oven,airplane,0,0011_sty_dnn_0_airplane_00_airplane-0011-ILSVRC2012-val-00014425.png,airplane-0011-ILSVRC2012-val-00014425.png,0.0,-6.8319697,-0.028078444,-4.8110776
alexnet_w3_mlp_simclrhn_probe1,1,12,NaN,elephant,airplane,0,0012_sty_dnn_0_airplane_00_airplane-0012-ILSVRC2012-val-00015498.png,airplane-0012-ILSVRC2012-val-00015498.png,0.0,-8.391079,0.7760161,-6.4821153
alexnet_w3_mlp_simclrhn_probe1,1,13,NaN,elephant,airplane,0,0013_sty_dnn_0_airplane_00_airplane-0013-ILSVRC2012-val-00015636.png,airplane-0013-ILSVRC2012-val-00015636.png,0.0,-6.3612037,-1.24457,-3.6180062
alexnet_w3_mlp_simclrhn_probe1,1,14,NaN,oven,airplane,0,0014_sty_dnn_0_airplane_00_airplane-0014-ILSVRC2012-val-00016995.png,airplane-0014-ILSVRC2012-val-00016995.png,0.0,-5.2723284,-0.26525128,-3.5405383
alexnet_w3_mlp_simclrhn_probe1,1,15,NaN,elephant,airplane,0,0015_sty_dnn_0_airplane_00_airplane-0015-ILSVRC2012-val-00018616.png,airplane-0015-ILSVRC2012-val-00018616.png,0.0,-5.708701,-0.4006942,-3.7533276
alexnet_w3_mlp_simclrhn_probe1,1,16,NaN,knife,airplane,0,0016_sty_dnn_0_airplane_00_airplane-0016-ILSVRC2012-val-00018685.png,airplane-0016-ILSVRC2012-val-00018685.png,0.0,-4.6644955,-2.1789548,-1.7575426
alexnet_w3_mlp_simclrhn_probe1,1,17,NaN,elephant,airplane,0,0017_sty_dnn_0_airplane_00_airplane-0017-ILSVRC2012-val-00019179.png,airplane-0017-ILSVRC2012-val-00019179.png,0.0,-7.5927706,-1.2930429,-4.4545803
alexnet_w3_mlp_simclrhn_probe1,1,18,NaN,elephant,airplane,0,0018_sty_dnn_0_airplane_00_airplane-0018-ILSVRC2012-val-00019677.png,airplane-0018-ILSVRC2012-val-00019677.png,0.0,-2.8133342,-1.5216236,-0.91337734
alexnet_w3_mlp_simclrhn_probe1,1,19,NaN,knife,airplane,0,0019_sty_dnn_0_airplane_00_airplane-0019-ILSVRC2012-val-00022532.png,airplane-0019-ILSVRC2012-val-00022532.png,0.0,-7.0328817,-2.4936566,-3.2097168
alexnet_w3_mlp_simclrhn_probe1,1,20,NaN,bicycle,airplane,0,0020_sty_dnn_0_airplane_00_airplane-0020-ILSVRC2012-val-00022975.png,airplane-0020-ILSVRC2012-val-00022975.png,0.0,-9.637417,0.6461694,-7.271594
alexnet_w3_mlp_simclrhn_probe1,1,21,NaN,knife,airplane,0,0021_sty_dnn_0_airplane_00_airplane-0021-ILSVRC2012-val-00023316.png,airplane-0021-ILSVRC2012-val-00023316.png,0.0,-4.9233813,-2.6042178,-1.6398963
alexnet_w3_mlp_simclrhn_probe1,1,22,NaN,elephant,airplane,0,0022_sty_dnn_0_airplane_00_airplane-0022-ILSVRC2012-val-00023781.png,airplane-0022-ILSVRC2012-val-00023781.png,0.0,-6.7526746,-1.001093,-4.0669823
alexnet_w3_mlp_simclrhn_probe1,1,23,NaN,airplane,airplane,0,0023_sty_dnn_0_airplane_00_airplane-0023-ILSVRC2012-val-00023863.png,airplane-0023-ILSVRC2012-val-00023863.png,1.0,1.9849801,-0.71067894,1.9061189
alexnet_w3_mlp_simclrhn_probe1,1,24,NaN,airplane,airplane,0,0024_sty_dnn_0_airplane_00_airplane-0024-ILSVRC2012-val-00024108.png,airplane-0024-ILSVRC2012-val-00024108.png,1.0,-1.6512938,-2.4668493,0.5766849
alexnet_w3_mlp_simclrhn_probe1,1,25,NaN,airplane,airplane,0,0025_sty_dnn_0_airplane_00_airplane-0025-ILSVRC2012-val-00024747.png,airplane-0025-ILSVRC2012-val-00024747.png,1.0,1.7706199,0.99969757,0.5451244
alexnet_w3_mlp_simclrhn_probe1,1,26,NaN,cat,airplane,0,0026_sty_dnn_0_airplane_00_airplane-0026-ILSVRC2012-val-00026189.png,airplane-0026-ILSVRC2012-val-00026189.png,0.0,-6.7935815,-1.7811321,-3.544337
alexnet_w3_mlp_simclrhn_probe1,1,27,NaN,airplane,airplane,0,0027_sty_dnn_0_airplane_00_airplane-0027-ILSVRC2012-val-00026859.png,airplane-0027-ILSVRC2012-val-00026859.png,1.0,-0.8348206,-0.909396,0.052732747
alexnet_w3_mlp_simclrhn_probe1,1,28,NaN,elephant,airplane,0,0028_sty_dnn_0_airplane_00_airplane-0028-ILSVRC2012-val-00028019.png,airplane-0028-ILSVRC2012-val-00028019.png,0.0,-4.782382,2.2710662,-4.987541
alexnet_w3_mlp_simclrhn_probe1,1,29,NaN,clock,airplane,0,0029_sty_dnn_0_airplane_00_airplane-0029-ILSVRC2012-val-00030319.png,airplane-0029-ILSVRC2012-val-00030319.png,0.0,-10.505038,-1.0093699,-6.714452
alexnet_w3_mlp_simclrhn_probe1,1,30,NaN,oven,airplane,0,0030_sty_dnn_0_airplane_00_airplane-0030-ILSVRC2012-val-00030411.png,airplane-0030-ILSVRC2012-val-00030411.png,0.0,-4.173461,-0.84066707,-2.3566413
alexnet_w3_mlp_simclrhn_probe1,1,31,NaN,bear,airplane,0,0031_sty_dnn_0_airplane_00_airplane-0031-ILSVRC2012-val-00030531.png,airplane-0031-ILSVRC2012-val-00030531.png,0.0,-4.699069,-3.9846818,-0.50514805
alexnet_w3_mlp_simclrhn_probe1,1,32,NaN,bicycle,airplane,0,0032_sty_dnn_0_airplane_00_airplane-0032-ILSVRC2012-val-00032804.png,airplane-0032-ILSVRC2012-val-00032804.png,0.0,-6.4989014,-3.7452385,-1.9471337
alexnet_w3_mlp_simclrhn_probe1,1,33,NaN,oven,airplane,0,0033_sty_dnn_0_airplane_00_airplane-0033-ILSVRC2012-val-00033161.png,airplane-0033-ILSVRC2012-val-00033161.png,0.0,-6.639329,-0.15673313,-4.5838876
alexnet_w3_mlp_simclrhn_probe1,1,34,NaN,oven,airplane,0,0034_sty_dnn_0_airplane_00_airplane-0034-ILSVRC2012-val-00033441.png,airplane-0034-ILSVRC2012-val-00033441.png,0.0,-5.400571,-0.94501543,-3.1505535
alexnet_w3_mlp_simclrhn_probe1,1,35,NaN,elephant,airplane,0,0035_sty_dnn_0_airplane_00_airplane-0035-ILSVRC2012-val-00033920.png,airplane-0035-ILSVRC2012-val-00033920.png,0.0,-1.8635926,-0.6050157,-0.88994825
alexnet_w3_mlp_simclrhn_probe1,1,36,NaN,airplane,airplane,0,0036_sty_dnn_0_airplane_00_airplane-0036-ILSVRC2012-val-00034342.png,airplane-0036-ILSVRC2012-val-00034342.png,1.0,-2.523376,-2.9083612,0.27222565
alexnet_w3_mlp_simclrhn_probe1,1,37,NaN,bicycle,airplane,0,0037_sty_dnn_0_airplane_00_airplane-0037-ILSVRC2012-val-00035783.png,airplane-0037-ILSVRC2012-val-00035783.png,0.0,-6.7482123,0.96741885,-5.4557753
alexnet_w3_mlp_simclrhn_probe1,1,38,NaN,oven,airplane,0,0038_sty_dnn_0_airplane_00_airplane-0038-ILSVRC2012-val-00036394.png,airplane-0038-ILSVRC2012-val-00036394.png,0.0,-9.241092,-0.88845,-5.90621
alexnet_w3_mlp_simclrhn_probe1,1,39,NaN,bicycle,airplane,0,0039_sty_dnn_0_airplane_00_airplane-0039-ILSVRC2012-val-00037801.png,airplane-0039-ILSVRC2012-val-00037801.png,0.0,-10.749125,-1.5942307,-6.473488
alexnet_w3_mlp_simclrhn_probe1,1,40,NaN,knife,airplane,0,0040_sty_dnn_0_airplane_00_airplane-0040-ILSVRC2012-val-00039213.png,airplane-0040-ILSVRC2012-val-00039213.png,0.0,-1.9732683,-0.8048817,-0.8261741
alexnet_w3_mlp_simclrhn_probe1,1,41,NaN,knife,airplane,0,0041_sty_dnn_0_airplane_00_airplane-0041-ILSVRC2012-val-00040136.png,airplane-0041-ILSVRC2012-val-00040136.png,0.0,-4.2078953,-0.29199648,-2.7689586
alexnet_w3_mlp_simclrhn_probe1,1,42,NaN,bicycle,airplane,0,0042_sty_dnn_0_airplane_00_airplane-0042-ILSVRC2012-val-00040547.png,airplane-0042-ILSVRC2012-val-00040547.png,0.0,-12.991071,-2.1212585,-7.686118
alexnet_w3_mlp_simclrhn_probe1,1,43,NaN,elephant,airplane,0,0043_sty_dnn_0_airplane_00_airplane-0043-ILSVRC2012-val-00041518.png,airplane-0043-ILSVRC2012-val-00041518.png,0.0,-6.687483,0.71284664,-5.2328234
alexnet_w3_mlp_simclrhn_probe1,1,44,NaN,truck,airplane,0,0044_sty_dnn_0_airplane_00_airplane-0044-ILSVRC2012-val-00043242.png,airplane-0044-ILSVRC2012-val-00043242.png,0.0,-1.3167682,0.8667414,-1.5439745
alexnet_w3_mlp_simclrhn_probe1,1,45,NaN,oven,airplane,0,0045_sty_dnn_0_airplane_00_airplane-0045-ILSVRC2012-val-00044253.png,airplane-0045-ILSVRC2012-val-00044253.png,0.0,-7.655915,-2.5632257,-3.601075
alexnet_w3_mlp_simclrhn_probe1,1,46,NaN,bicycle,airplane,0,0046_sty_dnn_0_airplane_00_airplane-0046-ILSVRC2012-val-00046862.png,airplane-0046-ILSVRC2012-val-00046862.png,0.0,-5.0417395,-2.2728071,-1.9579309
alexnet_w3_mlp_simclrhn_probe1,1,47,NaN,elephant,airplane,0,0047_sty_dnn_0_airplane_00_airplane-0047-ILSVRC2012-val-00046971.png,airplane-0047-ILSVRC2012-val-00046971.png,0.0,-3.8779793,-2.1073923,-1.251994
alexnet_w3_mlp_simclrhn_probe1,1,48,NaN,oven,airplane,0,0048_sty_dnn_0_airplane_00_airplane-0048-ILSVRC2012-val-00047829.png,airplane-0048-ILSVRC2012-val-00047829.png,0.0,-1.849774,0.5785006,-1.7170495
alexnet_w3_mlp_simclrhn_probe1,1,49,NaN,elephant,airplane,0,0049_sty_dnn_0_airplane_00_airplane-0049-ILSVRC2012-val-00048111.png,airplane-0049-ILSVRC2012-val-00048111.png,0.0,-4.42082,-1.2556881,-2.2380865
alexnet_w3_mlp_simclrhn_probe1,1,50,NaN,airplane,airplane,0,0050_sty_dnn_0_airplane_00_airplane-0050-ILSVRC2012-val-00049097.png,airplane-0050-ILSVRC2012-val-00049097.png,1.0,-0.9755319,-1.0315528,0.03961277
alexnet_w3_mlp_simclrhn_probe1,1,51,NaN,bicycle,bear,0,0051_sty_dnn_0_bear_00_bear-0003-ILSVRC2012-val-00003044.png,bear-0003-ILSVRC2012-val-00003044.png,0.0,-8.607057,-1.9616282,-4.6990275
alexnet_w3_mlp_simclrhn_probe1,1,52,NaN,bear,bear,0,0052_sty_dnn_0_bear_00_bear-0005-ILSVRC2012-val-00006703.png,bear-0005-ILSVRC2012-val-00006703.png,1.0,-0.16531312,-1.3801767,0.85903823
alexnet_w3_mlp_simclrhn_probe1,1,53,NaN,elephant,bear,0,0053_sty_dnn_0_bear_00_bear-0009-ILSVRC2012-val-00011967.png,bear-0009-ILSVRC2012-val-00011967.png,0.0,-2.940199,-0.5590826,-1.6837035
alexnet_w3_mlp_simclrhn_probe1,1,54,NaN,bear,bear,0,0054_sty_dnn_0_bear_00_bear-0010-ILSVRC2012-val-00013390.png,bear-0010-ILSVRC2012-val-00013390.png,1.0,1.4813726,0.30410272,0.8324556
alexnet_w3_mlp_simclrhn_probe1,1,55,NaN,elephant,bear,0,0055_sty_dnn_0_bear_00_bear-0021-ILSVRC2012-val-00031253.png,bear-0021-ILSVRC2012-val-00031253.png,0.0,1.2222332,1.9965093,-0.5474959
alexnet_w3_mlp_simclrhn_probe1,1,56,NaN,knife,bear,0,0056_sty_dnn_0_bear_00_bear-0031-ILSVRC2012-val-00039777.png,bear-0031-ILSVRC2012-val-00039777.png,0.0,-6.9296246,-2.9802818,-2.792607
alexnet_w3_mlp_simclrhn_probe1,1,57,NaN,elephant,bear,0,0057_sty_dnn_0_bear_00_bear-0035-ILSVRC2012-val-00042274.png,bear-0035-ILSVRC2012-val-00042274.png,0.0,-2.0341353,0.3483189,-1.6846495
alexnet_w3_mlp_simclrhn_probe1,1,58,NaN,knife,bear,0,0058_sty_dnn_0_bear_00_bear-0043-ILSVRC2012-val-00046763.png,bear-0043-ILSVRC2012-val-00046763.png,0.0,-1.5101715,-0.36470473,-0.80996734
alexnet_w3_mlp_simclrhn_probe1,1,59,NaN,elephant,bear,0,0059_sty_dnn_0_bear_00_bear-0049-ILSVRC2012-val-00049822.png,bear-0049-ILSVRC2012-val-00049822.png,0.0,-0.94030356,0.034844108,-0.68953353
alexnet_w3_mlp_simclrhn_probe1,1,60,NaN,elephant,bear,0,0060_sty_dnn_0_bear_00_bear-0052-ILSVRC2012-val-00000865.png,bear-0052-ILSVRC2012-val-00000865.png,0.0,3.7389927,4.2741995,-0.37844837
alexnet_w3_mlp_simclrhn_probe1,1,61,NaN,knife,bear,0,0061_sty_dnn_0_bear_00_bear-0056-ILSVRC2012-val-00007093.png,bear-0056-ILSVRC2012-val-00007093.png,0.0,-8.804427,-1.5586405,-5.123545
alexnet_w3_mlp_simclrhn_probe1,1,62,NaN,bear,bear,0,0062_sty_dnn_0_bear_00_bear-0058-ILSVRC2012-val-00011726.png,bear-0058-ILSVRC2012-val-00011726.png,1.0,0.642818,-0.41858634,0.75052625
alexnet_w3_mlp_simclrhn_probe1,1,63,NaN,bear,bear,0,0063_sty_dnn_0_bear_00_bear-0062-ILSVRC2012-val-00014029.png,bear-0062-ILSVRC2012-val-00014029.png,1.0,0.44476062,-1.5593785,1.4171405
alexnet_w3_mlp_simclrhn_probe1,1,64,NaN,elephant,bear,0,0064_sty_dnn_0_bear_00_bear-0064-ILSVRC2012-val-00016050.png,bear-0064-ILSVRC2012-val-00016050.png,0.0,-4.9207835,-0.83638155,-2.8881085
alexnet_w3_mlp_simclrhn_probe1,1,65,NaN,bottle,bear,0,0065_sty_dnn_0_bear_00_bear-0066-ILSVRC2012-val-00016621.png,bear-0066-ILSVRC2012-val-00016621.png,0.0,-16.239614,-1.9255524,-10.121571
alexnet_w3_mlp_simclrhn_probe1,1,66,NaN,elephant,bear,0,0066_sty_dnn_0_bear_00_bear-0067-ILSVRC2012-val-00017273.png,bear-0067-ILSVRC2012-val-00017273.png,0.0,-1.3875575,1.4533889,-2.0088525
alexnet_w3_mlp_simclrhn_probe1,1,67,NaN,bottle,bear,0,0067_sty_dnn_0_bear_00_bear-0069-ILSVRC2012-val-00018788.png,bear-0069-ILSVRC2012-val-00018788.png,0.0,-9.836372,-3.0536916,-4.7960796
alexnet_w3_mlp_simclrhn_probe1,1,68,NaN,bear,bear,0,0068_sty_dnn_0_bear_00_bear-0071-ILSVRC2012-val-00020050.png,bear-0071-ILSVRC2012-val-00020050.png,1.0,-0.46693236,-0.64887786,0.1286549
alexnet_w3_mlp_simclrhn_probe1,1,69,NaN,bicycle,bear,0,0069_sty_dnn_0_bear_00_bear-0073-ILSVRC2012-val-00024289.png,bear-0073-ILSVRC2012-val-00024289.png,0.0,-8.150313,-1.8237307,-4.47357
alexnet_w3_mlp_simclrhn_probe1,1,70,NaN,knife,bear,0,0070_sty_dnn_0_bear_00_bear-0074-ILSVRC2012-val-00026962.png,bear-0074-ILSVRC2012-val-00026962.png,0.0,-7.5233197,-0.38325667,-5.048787
alexnet_w3_mlp_simclrhn_probe1,1,71,NaN,cat,bear,0,0071_sty_dnn_0_bear_00_bear-0078-ILSVRC2012-val-00030951.png,bear-0078-ILSVRC2012-val-00030951.png,0.0,-2.9313707,0.21699612,-2.2262316
alexnet_w3_mlp_simclrhn_probe1,1,72,NaN,elephant,bear,0,0072_sty_dnn_0_bear_00_bear-0085-ILSVRC2012-val-00035292.png,bear-0085-ILSVRC2012-val-00035292.png,0.0,-1.5664282,0.6195705,-1.5457345
alexnet_w3_mlp_simclrhn_probe1,1,73,NaN,cat,bear,0,0073_sty_dnn_0_bear_00_bear-0091-ILSVRC2012-val-00041813.png,bear-0091-ILSVRC2012-val-00041813.png,0.0,-4.2349243,-2.2187216,-1.4256706
alexnet_w3_mlp_simclrhn_probe1,1,74,NaN,elephant,bear,0,0074_sty_dnn_0_bear_00_bear-0094-ILSVRC2012-val-00043648.png,bear-0094-ILSVRC2012-val-00043648.png,0.0,-3.2321477,0.16567165,-2.402621
alexnet_w3_mlp_simclrhn_probe1,1,75,NaN,chair,bear,0,0075_sty_dnn_0_bear_00_bear-0106-ILSVRC2012-val-00007578.png,bear-0106-ILSVRC2012-val-00007578.png,0.0,-5.598383,-1.312824,-3.0303476
alexnet_w3_mlp_simclrhn_probe1,1,76,NaN,knife,bear,0,0076_sty_dnn_0_bear_00_bear-0112-ILSVRC2012-val-00016340.png,bear-0112-ILSVRC2012-val-00016340.png,0.0,-4.210124,-0.47462118,-2.6413994
alexnet_w3_mlp_simclrhn_probe1,1,77,NaN,bear,bear,0,0077_sty_dnn_0_bear_00_bear-0113-ILSVRC2012-val-00016459.png,bear-0113-ILSVRC2012-val-00016459.png,1.0,1.2634617,0.7497593,0.36324245
alexnet_w3_mlp_simclrhn_probe1,1,78,NaN,elephant,bear,0,0078_sty_dnn_0_bear_00_bear-0114-ILSVRC2012-val-00017605.png,bear-0114-ILSVRC2012-val-00017605.png,0.0,-0.60125685,1.1006385,-1.2034217
alexnet_w3_mlp_simclrhn_probe1,1,79,NaN,elephant,bear,0,0079_sty_dnn_0_bear_00_bear-0116-ILSVRC2012-val-00020332.png,bear-0116-ILSVRC2012-val-00020332.png,0.0,-2.768389,-1.2758801,-1.0553632
alexnet_w3_mlp_simclrhn_probe1,1,80,NaN,elephant,bear,0,0080_sty_dnn_0_bear_00_bear-0125-ILSVRC2012-val-00028222.png,bear-0125-ILSVRC2012-val-00028222.png,0.0,-1.3516946,0.6205081,-1.394558
alexnet_w3_mlp_simclrhn_probe1,1,81,NaN,oven,bear,0,0081_sty_dnn_0_bear_00_bear-0129-ILSVRC2012-val-00030485.png,bear-0129-ILSVRC2012-val-00030485.png,0.0,-2.838012,-1.1452138,-1.196989
alexnet_w3_mlp_simclrhn_probe1,1,82,NaN,bear,bear,0,0082_sty_dnn_0_bear_00_bear-0131-ILSVRC2012-val-00031877.png,bear-0131-ILSVRC2012-val-00031877.png,1.0,-1.1249055,-1.2492939,0.08795592
alexnet_w3_mlp_simclrhn_probe1,1,83,NaN,knife,bear,0,0083_sty_dnn_0_bear_00_bear-0132-ILSVRC2012-val-00036763.png,bear-0132-ILSVRC2012-val-00036763.png,0.0,-6.9559984,-0.7886888,-4.3609467
alexnet_w3_mlp_simclrhn_probe1,1,84,NaN,bicycle,bear,0,0084_sty_dnn_0_bear_00_bear-0139-ILSVRC2012-val-00041156.png,bear-0139-ILSVRC2012-val-00041156.png,0.0,-16.24498,-0.39183217,-11.209868
alexnet_w3_mlp_simclrhn_probe1,1,85,NaN,elephant,bear,0,0085_sty_dnn_0_bear_00_bear-0141-ILSVRC2012-val-00042320.png,bear-0141-ILSVRC2012-val-00042320.png,0.0,-1.131808,0.124910414,-0.88863415
alexnet_w3_mlp_simclrhn_probe1,1,86,NaN,oven,bear,0,0086_sty_dnn_0_bear_00_bear-0143-ILSVRC2012-val-00044126.png,bear-0143-ILSVRC2012-val-00044126.png,0.0,-2.265109,-0.19523025,-1.4636254
alexnet_w3_mlp_simclrhn_probe1,1,87,NaN,clock,bear,0,0087_sty_dnn_0_bear_00_bear-0149-ILSVRC2012-val-00048105.png,bear-0149-ILSVRC2012-val-00048105.png,0.0,-4.052435,0.13594584,-2.9616325
alexnet_w3_mlp_simclrhn_probe1,1,88,NaN,cat,bear,0,0088_sty_dnn_0_bear_00_bear-0154-ILSVRC2012-val-00003499.png,bear-0154-ILSVRC2012-val-00003499.png,0.0,-4.4836917,-0.8753217,-2.551503
alexnet_w3_mlp_simclrhn_probe1,1,89,NaN,elephant,bear,0,0089_sty_dnn_0_bear_00_bear-0160-ILSVRC2012-val-00013052.png,bear-0160-ILSVRC2012-val-00013052.png,0.0,-3.520019,-2.0406346,-1.0460827
alexnet_w3_mlp_simclrhn_probe1,1,90,NaN,oven,bear,0,0090_sty_dnn_0_bear_00_bear-0163-ILSVRC2012-val-00016513.png,bear-0163-ILSVRC2012-val-00016513.png,0.0,-3.311314,-2.0718334,-0.87644523
alexnet_w3_mlp_simclrhn_probe1,1,91,NaN,bicycle,bear,0,0091_sty_dnn_0_bear_00_bear-0164-ILSVRC2012-val-00018303.png,bear-0164-ILSVRC2012-val-00018303.png,0.0,-8.319464,-1.5091056,-4.8156505
alexnet_w3_mlp_simclrhn_probe1,1,92,NaN,knife,bear,0,0092_sty_dnn_0_bear_00_bear-0165-ILSVRC2012-val-00019901.png,bear-0165-ILSVRC2012-val-00019901.png,0.0,-3.919458,-2.236651,-1.1899242
alexnet_w3_mlp_simclrhn_probe1,1,93,NaN,elephant,bear,0,0093_sty_dnn_0_bear_00_bear-0166-ILSVRC2012-val-00022111.png,bear-0166-ILSVRC2012-val-00022111.png,0.0,-4.5739517,-1.5044929,-2.1704352
alexnet_w3_mlp_simclrhn_probe1,1,94,NaN,elephant,bear,0,0094_sty_dnn_0_bear_00_bear-0167-ILSVRC2012-val-00022112.png,bear-0167-ILSVRC2012-val-00022112.png,0.0,-1.6367552,0.68415,-1.6411278
alexnet_w3_mlp_simclrhn_probe1,1,95,NaN,bear,bear,0,0095_sty_dnn_0_bear_00_bear-0168-ILSVRC2012-val-00022698.png,bear-0168-ILSVRC2012-val-00022698.png,1.0,0.6706396,0.08925764,0.4110991
alexnet_w3_mlp_simclrhn_probe1,1,96,NaN,oven,bear,0,0096_sty_dnn_0_bear_00_bear-0180-ILSVRC2012-val-00034637.png,bear-0180-ILSVRC2012-val-00034637.png,0.0,-2.9639997,-0.21137571,-1.9463992
alexnet_w3_mlp_simclrhn_probe1,1,97,NaN,clock,bear,0,0097_sty_dnn_0_bear_00_bear-0184-ILSVRC2012-val-00038961.png,bear-0184-ILSVRC2012-val-00038961.png,0.0,-14.891363,-1.8339118,-9.233012
alexnet_w3_mlp_simclrhn_probe1,1,98,NaN,knife,bear,0,0098_sty_dnn_0_bear_00_bear-0188-ILSVRC2012-val-00043016.png,bear-0188-ILSVRC2012-val-00043016.png,0.0,-6.0480585,0.19933292,-4.417573
alexnet_w3_mlp_simclrhn_probe1,1,99,NaN,cat,bear,0,0099_sty_dnn_0_bear_00_bear-0191-ILSVRC2012-val-00044349.png,bear-0191-ILSVRC2012-val-00044349.png,0.0,-4.8637924,-2.56305,-1.6268705
alexnet_w3_mlp_simclrhn_probe1,1,100,NaN,elephant,bear,0,0100_sty_dnn_0_bear_00_bear-0195-ILSVRC2012-val-00045672.png,bear-0195-ILSVRC2012-val-00045672.png,0.0,-3.248056,0.07279855,-2.3481987
alexnet_w3_mlp_simclrhn_probe1,1,101,NaN,bird,bicycle,0,0101_sty_dnn_0_bicycle_00_bicycle-0005-ILSVRC2012-val-00005274.png,bicycle-0005-ILSVRC2012-val-00005274.png,0.0,-2.7564812,-1.2540164,-1.0624031
alexnet_w3_mlp_simclrhn_probe1,1,102,NaN,bear,bicycle,0,0102_sty_dnn_0_bicycle_00_bicycle-0007-ILSVRC2012-val-00006395.png,bicycle-0007-ILSVRC2012-val-00006395.png,0.0,-3.468497,-0.05568111,-2.4132254
alexnet_w3_mlp_simclrhn_probe1,1,103,NaN,bicycle,bicycle,0,0103_sty_dnn_0_bicycle_00_bicycle-0008-ILSVRC2012-val-00008007.png,bicycle-0008-ILSVRC2012-val-00008007.png,1.0,-1.5538713,-4.065218,1.7757905
alexnet_w3_mlp_simclrhn_probe1,1,104,NaN,bicycle,bicycle,0,0104_sty_dnn_0_bicycle_00_bicycle-0010-ILSVRC2012-val-00010544.png,bicycle-0010-ILSVRC2012-val-00010544.png,1.0,1.7481492,-0.60278237,1.6623597
alexnet_w3_mlp_simclrhn_probe1,1,105,NaN,knife,bicycle,0,0105_sty_dnn_0_bicycle_00_bicycle-0011-ILSVRC2012-val-00011821.png,bicycle-0011-ILSVRC2012-val-00011821.png,0.0,-3.5925314,-1.5543594,-1.4412053
alexnet_w3_mlp_simclrhn_probe1,1,106,NaN,bicycle,bicycle,0,0106_sty_dnn_0_bicycle_00_bicycle-0013-ILSVRC2012-val-00012667.png,bicycle-0013-ILSVRC2012-val-00012667.png,1.0,3.134509,-3.0351737,4.3626246
alexnet_w3_mlp_simclrhn_probe1,1,107,NaN,knife,bicycle,0,0107_sty_dnn_0_bicycle_00_bicycle-0014-ILSVRC2012-val-00015483.png,bicycle-0014-ILSVRC2012-val-00015483.png,0.0,-3.18649,-1.2407969,-1.3758129
alexnet_w3_mlp_simclrhn_probe1,1,108,NaN,bicycle,bicycle,0,0108_sty_dnn_0_bicycle_00_bicycle-0015-ILSVRC2012-val-00015618.png,bicycle-0015-ILSVRC2012-val-00015618.png,1.0,-0.29281896,-4.200915,2.763441
alexnet_w3_mlp_simclrhn_probe1,1,109,NaN,elephant,bicycle,0,0109_sty_dnn_0_bicycle_00_bicycle-0016-ILSVRC2012-val-00016532.png,bicycle-0016-ILSVRC2012-val-00016532.png,0.0,-4.332968,1.4217093,-4.069172
alexnet_w3_mlp_simclrhn_probe1,1,110,NaN,bicycle,bicycle,0,0110_sty_dnn_0_bicycle_00_bicycle-0018-ILSVRC2012-val-00018975.png,bicycle-0018-ILSVRC2012-val-00018975.png,1.0,2.9882112,-3.9256513,4.888839
alexnet_w3_mlp_simclrhn_probe1,1,111,NaN,bicycle,bicycle,0,0111_sty_dnn_0_bicycle_00_bicycle-0020-ILSVRC2012-val-00022027.png,bicycle-0020-ILSVRC2012-val-00022027.png,1.0,2.0211492,-0.517732,1.7952602
alexnet_w3_mlp_simclrhn_probe1,1,112,NaN,bicycle,bicycle,0,0112_sty_dnn_0_bicycle_00_bicycle-0022-ILSVRC2012-val-00023266.png,bicycle-0022-ILSVRC2012-val-00023266.png,1.0,0.5638853,-0.23118891,0.56220233
alexnet_w3_mlp_simclrhn_probe1,1,113,NaN,bear,bicycle,0,0113_sty_dnn_0_bicycle_00_bicycle-0024-ILSVRC2012-val-00025915.png,bicycle-0024-ILSVRC2012-val-00025915.png,0.0,-6.6268826,-0.6392116,-4.233923
alexnet_w3_mlp_simclrhn_probe1,1,114,NaN,bicycle,bicycle,0,0114_sty_dnn_0_bicycle_00_bicycle-0026-ILSVRC2012-val-00026292.png,bicycle-0026-ILSVRC2012-val-00026292.png,1.0,0.9627104,-3.7754471,3.3503833
alexnet_w3_mlp_simclrhn_probe1,1,115,NaN,knife,bicycle,0,0115_sty_dnn_0_bicycle_00_bicycle-0030-ILSVRC2012-val-00027620.png,bicycle-0030-ILSVRC2012-val-00027620.png,0.0,-5.8759704,-2.1404972,-2.6413784
alexnet_w3_mlp_simclrhn_probe1,1,116,NaN,knife,bicycle,0,0116_sty_dnn_0_bicycle_00_bicycle-0032-ILSVRC2012-val-00030070.png,bicycle-0032-ILSVRC2012-val-00030070.png,0.0,-3.7036388,-1.9718161,-1.2245836
alexnet_w3_mlp_simclrhn_probe1,1,117,NaN,bicycle,bicycle,0,0117_sty_dnn_0_bicycle_00_bicycle-0033-ILSVRC2012-val-00031498.png,bicycle-0033-ILSVRC2012-val-00031498.png,1.0,-1.2941968,-2.043259,0.5296669
alexnet_w3_mlp_simclrhn_probe1,1,118,NaN,bicycle,bicycle,0,0118_sty_dnn_0_bicycle_00_bicycle-0035-ILSVRC2012-val-00033559.png,bicycle-0035-ILSVRC2012-val-00033559.png,1.0,4.5465837,-2.344415,4.872672
alexnet_w3_mlp_simclrhn_probe1,1,119,NaN,bicycle,bicycle,0,0119_sty_dnn_0_bicycle_00_bicycle-0037-ILSVRC2012-val-00036009.png,bicycle-0037-ILSVRC2012-val-00036009.png,1.0,-1.4274365,-4.6896534,2.3067358
alexnet_w3_mlp_simclrhn_probe1,1,120,NaN,chair,bicycle,0,0120_sty_dnn_0_bicycle_00_bicycle-0038-ILSVRC2012-val-00036903.png,bicycle-0038-ILSVRC2012-val-00036903.png,0.0,-4.0800924,-1.4318516,-1.8725891
alexnet_w3_mlp_simclrhn_probe1,1,121,NaN,bicycle,bicycle,0,0121_sty_dnn_0_bicycle_00_bicycle-0039-ILSVRC2012-val-00037292.png,bicycle-0039-ILSVRC2012-val-00037292.png,1.0,3.1359673,0.4172563,1.922419
alexnet_w3_mlp_simclrhn_probe1,1,122,NaN,bicycle,bicycle,0,0122_sty_dnn_0_bicycle_00_bicycle-0040-ILSVRC2012-val-00037433.png,bicycle-0040-ILSVRC2012-val-00037433.png,1.0,1.2525016,-3.2172017,3.1605575
alexnet_w3_mlp_simclrhn_probe1,1,123,NaN,bicycle,bicycle,0,0123_sty_dnn_0_bicycle_00_bicycle-0043-ILSVRC2012-val-00038415.png,bicycle-0043-ILSVRC2012-val-00038415.png,1.0,-1.0264554,-2.1304626,0.78065103
alexnet_w3_mlp_simclrhn_probe1,1,124,NaN,oven,bicycle,0,0124_sty_dnn_0_bicycle_00_bicycle-0044-ILSVRC2012-val-00040027.png,bicycle-0044-ILSVRC2012-val-00040027.png,0.0,-1.9873481,-1.7727544,-0.15174063
alexnet_w3_mlp_simclrhn_probe1,1,125,NaN,bicycle,bicycle,0,0125_sty_dnn_0_bicycle_00_bicycle-0046-ILSVRC2012-val-00042496.png,bicycle-0046-ILSVRC2012-val-00042496.png,1.0,-0.17860875,-1.0803454,0.6376241
alexnet_w3_mlp_simclrhn_probe1,1,126,NaN,bicycle,bicycle,0,0126_sty_dnn_0_bicycle_00_bicycle-0047-ILSVRC2012-val-00043435.png,bicycle-0047-ILSVRC2012-val-00043435.png,1.0,2.7578616,-1.1483035,2.762076
alexnet_w3_mlp_simclrhn_probe1,1,127,NaN,bicycle,bicycle,0,0127_sty_dnn_0_bicycle_00_bicycle-0048-ILSVRC2012-val-00045400.png,bicycle-0048-ILSVRC2012-val-00045400.png,1.0,0.9291753,-2.6414657,2.5248246
alexnet_w3_mlp_simclrhn_probe1,1,128,NaN,bicycle,bicycle,0,0128_sty_dnn_0_bicycle_00_bicycle-0050-ILSVRC2012-val-00049382.png,bicycle-0050-ILSVRC2012-val-00049382.png,1.0,-2.419104,-3.0865424,0.47195014
alexnet_w3_mlp_simclrhn_probe1,1,129,NaN,bicycle,bicycle,0,0129_sty_dnn_0_bicycle_00_bicycle-0054-ILSVRC2012-val-00004147.png,bicycle-0054-ILSVRC2012-val-00004147.png,1.0,1.843101,-2.17917,2.8441753
alexnet_w3_mlp_simclrhn_probe1,1,130,NaN,bicycle,bicycle,0,0130_sty_dnn_0_bicycle_00_bicycle-0056-ILSVRC2012-val-00005330.png,bicycle-0056-ILSVRC2012-val-00005330.png,1.0,-0.20755996,-0.23102418,0.016591707
alexnet_w3_mlp_simclrhn_probe1,1,131,NaN,bicycle,bicycle,0,0131_sty_dnn_0_bicycle_00_bicycle-0059-ILSVRC2012-val-00011329.png,bicycle-0059-ILSVRC2012-val-00011329.png,1.0,5.165457,-4.7926073,7.0414147
alexnet_w3_mlp_simclrhn_probe1,1,132,NaN,bicycle,bicycle,0,0132_sty_dnn_0_bicycle_00_bicycle-0060-ILSVRC2012-val-00011330.png,bicycle-0060-ILSVRC2012-val-00011330.png,1.0,-2.2717063,-2.335431,0.045060206
alexnet_w3_mlp_simclrhn_probe1,1,133,NaN,elephant,bicycle,0,0133_sty_dnn_0_bicycle_00_bicycle-0061-ILSVRC2012-val-00012096.png,bicycle-0061-ILSVRC2012-val-00012096.png,0.0,-1.5396277,-0.26900816,-0.89846367
alexnet_w3_mlp_simclrhn_probe1,1,134,NaN,oven,bicycle,0,0134_sty_dnn_0_bicycle_00_bicycle-0062-ILSVRC2012-val-00015867.png,bicycle-0062-ILSVRC2012-val-00015867.png,0.0,-2.1677792,-1.1290178,-0.73451525
alexnet_w3_mlp_simclrhn_probe1,1,135,NaN,bottle,bicycle,0,0135_sty_dnn_0_bicycle_00_bicycle-0064-ILSVRC2012-val-00017103.png,bicycle-0064-ILSVRC2012-val-00017103.png,0.0,-2.0615253,-0.90786743,-0.81575936
alexnet_w3_mlp_simclrhn_probe1,1,136,NaN,elephant,bicycle,0,0136_sty_dnn_0_bicycle_00_bicycle-0067-ILSVRC2012-val-00018304.png,bicycle-0067-ILSVRC2012-val-00018304.png,0.0,-3.8240957,-2.8215036,-0.7089397
alexnet_w3_mlp_simclrhn_probe1,1,137,NaN,bear,bicycle,0,0137_sty_dnn_0_bicycle_00_bicycle-0070-ILSVRC2012-val-00020631.png,bicycle-0070-ILSVRC2012-val-00020631.png,0.0,-6.6969385,0.5135344,-5.0985746
alexnet_w3_mlp_simclrhn_probe1,1,138,NaN,bicycle,bicycle,0,0138_sty_dnn_0_bicycle_00_bicycle-0073-ILSVRC2012-val-00027449.png,bicycle-0073-ILSVRC2012-val-00027449.png,1.0,-1.7037405,-4.999394,2.3303788
alexnet_w3_mlp_simclrhn_probe1,1,139,NaN,cat,bicycle,0,0139_sty_dnn_0_bicycle_00_bicycle-0074-ILSVRC2012-val-00028824.png,bicycle-0074-ILSVRC2012-val-00028824.png,0.0,-2.421383,-2.3804448,-0.028947636
alexnet_w3_mlp_simclrhn_probe1,1,140,NaN,bicycle,bicycle,0,0140_sty_dnn_0_bicycle_00_bicycle-0077-ILSVRC2012-val-00030112.png,bicycle-0077-ILSVRC2012-val-00030112.png,1.0,1.0567219,-2.735108,2.6812286
alexnet_w3_mlp_simclrhn_probe1,1,141,NaN,bicycle,bicycle,0,0141_sty_dnn_0_bicycle_00_bicycle-0078-ILSVRC2012-val-00030892.png,bicycle-0078-ILSVRC2012-val-00030892.png,1.0,4.0411716,-0.13942027,2.9561248
alexnet_w3_mlp_simclrhn_probe1,1,142,NaN,bicycle,bicycle,0,0142_sty_dnn_0_bicycle_00_bicycle-0079-ILSVRC2012-val-00031485.png,bicycle-0079-ILSVRC2012-val-00031485.png,1.0,0.42972273,-2.3135529,1.9397888
alexnet_w3_mlp_simclrhn_probe1,1,143,NaN,bicycle,bicycle,0,0143_sty_dnn_0_bicycle_00_bicycle-0080-ILSVRC2012-val-00032009.png,bicycle-0080-ILSVRC2012-val-00032009.png,1.0,-1.8217195,-1.975031,0.108407594
alexnet_w3_mlp_simclrhn_probe1,1,144,NaN,bicycle,bicycle,0,0144_sty_dnn_0_bicycle_00_bicycle-0081-ILSVRC2012-val-00032967.png,bicycle-0081-ILSVRC2012-val-00032967.png,1.0,0.3411038,-2.9523163,2.3287997
alexnet_w3_mlp_simclrhn_probe1,1,145,NaN,bicycle,bicycle,0,0145_sty_dnn_0_bicycle_00_bicycle-0085-ILSVRC2012-val-00037438.png,bicycle-0085-ILSVRC2012-val-00037438.png,1.0,0.43949544,-1.8819355,1.6414995
alexnet_w3_mlp_simclrhn_probe1,1,146,NaN,bicycle,bicycle,0,0146_sty_dnn_0_bicycle_00_bicycle-0089-ILSVRC2012-val-00042393.png,bicycle-0089-ILSVRC2012-val-00042393.png,1.0,1.4791923,-2.177547,2.585705
alexnet_w3_mlp_simclrhn_probe1,1,147,NaN,bicycle,bicycle,0,0147_sty_dnn_0_bicycle_00_bicycle-0092-ILSVRC2012-val-00043207.png,bicycle-0092-ILSVRC2012-val-00043207.png,1.0,-1.3408164,-3.0192192,1.18681
alexnet_w3_mlp_simclrhn_probe1,1,148,NaN,bicycle,bicycle,0,0148_sty_dnn_0_bicycle_00_bicycle-0094-ILSVRC2012-val-00044080.png,bicycle-0094-ILSVRC2012-val-00044080.png,1.0,4.7099285,-2.0578685,4.7855554
alexnet_w3_mlp_simclrhn_probe1,1,149,NaN,bicycle,bicycle,0,0149_sty_dnn_0_bicycle_00_bicycle-0096-ILSVRC2012-val-00045152.png,bicycle-0096-ILSVRC2012-val-00045152.png,1.0,0.2115522,-3.6208396,2.7099102
alexnet_w3_mlp_simclrhn_probe1,1,150,NaN,bicycle,bicycle,0,0150_sty_dnn_0_bicycle_00_bicycle-0100-ILSVRC2012-val-00049750.png,bicycle-0100-ILSVRC2012-val-00049750.png,1.0,-0.27750146,-2.328127,1.4500111
alexnet_w3_mlp_simclrhn_probe1,1,151,NaN,knife,bird,0,0151_sty_dnn_0_bird_00_bird-0009-ILSVRC2012-val-00007530.png,bird-0009-ILSVRC2012-val-00007530.png,0.0,-6.585783,-1.2277007,-3.7887363
alexnet_w3_mlp_simclrhn_probe1,1,152,NaN,elephant,bird,0,0152_sty_dnn_0_bird_00_bird-0045-ILSVRC2012-val-00045547.png,bird-0045-ILSVRC2012-val-00045547.png,0.0,-5.121998,-2.9291868,-1.5505515
alexnet_w3_mlp_simclrhn_probe1,1,153,NaN,oven,bird,0,0153_sty_dnn_0_bird_00_bird-0119-ILSVRC2012-val-00016252.png,bird-0119-ILSVRC2012-val-00016252.png,0.0,-3.0093253,-2.7937984,-0.15240048
alexnet_w3_mlp_simclrhn_probe1,1,154,NaN,oven,bird,0,0154_sty_dnn_0_bird_00_bird-0122-ILSVRC2012-val-00019236.png,bird-0122-ILSVRC2012-val-00019236.png,0.0,-2.3783708,0.30693254,-1.8987962
alexnet_w3_mlp_simclrhn_probe1,1,155,NaN,bird,bird,0,0155_sty_dnn_0_bird_00_bird-0157-ILSVRC2012-val-00005336.png,bird-0157-ILSVRC2012-val-00005336.png,1.0,-0.38403675,-1.0828606,0.49414307
alexnet_w3_mlp_simclrhn_probe1,1,156,NaN,clock,bird,0,0156_sty_dnn_0_bird_00_bird-0175-ILSVRC2012-val-00018699.png,bird-0175-ILSVRC2012-val-00018699.png,0.0,-11.072721,-2.7145574,-5.910114
alexnet_w3_mlp_simclrhn_probe1,1,157,NaN,knife,bird,0,0157_sty_dnn_0_bird_00_bird-0228-ILSVRC2012-val-00017712.png,bird-0228-ILSVRC2012-val-00017712.png,0.0,-4.482593,-3.3868365,-0.7748169
alexnet_w3_mlp_simclrhn_probe1,1,158,NaN,chair,bird,0,0158_sty_dnn_0_bird_00_bird-0238-ILSVRC2012-val-00030657.png,bird-0238-ILSVRC2012-val-00030657.png,0.0,-6.885057,-0.9551101,-4.1931057
alexnet_w3_mlp_simclrhn_probe1,1,159,NaN,elephant,bird,0,0159_sty_dnn_0_bird_00_bird-0426-ILSVRC2012-val-00030017.png,bird-0426-ILSVRC2012-val-00030017.png,0.0,-1.8547069,0.85685927,-1.9173669
alexnet_w3_mlp_simclrhn_probe1,1,160,NaN,boat,bird,0,0160_sty_dnn_0_bird_00_bird-0486-ILSVRC2012-val-00037420.png,bird-0486-ILSVRC2012-val-00037420.png,0.0,-4.3947005,-1.1278578,-2.3100069
alexnet_w3_mlp_simclrhn_probe1,1,161,NaN,bear,bird,0,0161_sty_dnn_0_bird_00_bird-0513-ILSVRC2012-val-00013223.png,bird-0513-ILSVRC2012-val-00013223.png,0.0,-4.0753303,-0.3327875,-2.6463773
alexnet_w3_mlp_simclrhn_probe1,1,162,NaN,bicycle,bird,0,0162_sty_dnn_0_bird_00_bird-0522-ILSVRC2012-val-00020730.png,bird-0522-ILSVRC2012-val-00020730.png,0.0,-4.805456,-2.512613,-1.621285
alexnet_w3_mlp_simclrhn_probe1,1,163,NaN,bird,bird,0,0163_sty_dnn_0_bird_00_bird-0532-ILSVRC2012-val-00028181.png,bird-0532-ILSVRC2012-val-00028181.png,1.0,0.6510353,-2.6008484,2.2994292
alexnet_w3_mlp_simclrhn_probe1,1,164,NaN,oven,bird,0,0164_sty_dnn_0_bird_00_bird-0624-ILSVRC2012-val-00024514.png,bird-0624-ILSVRC2012-val-00024514.png,0.0,-3.751707,-2.5230293,-0.86880636
alexnet_w3_mlp_simclrhn_probe1,1,165,NaN,bird,bird,0,0165_sty_dnn_0_bird_00_bird-0701-ILSVRC2012-val-00000075.png,bird-0701-ILSVRC2012-val-00000075.png,1.0,-1.8297211,-2.2706811,0.31180584
alexnet_w3_mlp_simclrhn_probe1,1,166,NaN,bird,bird,0,0166_sty_dnn_0_bird_00_bird-0752-ILSVRC2012-val-00001596.png,bird-0752-ILSVRC2012-val-00001596.png,1.0,0.032449577,-2.515918,1.801968
alexnet_w3_mlp_simclrhn_probe1,1,167,NaN,cat,bird,0,0167_sty_dnn_0_bird_00_bird-0754-ILSVRC2012-val-00002846.png,bird-0754-ILSVRC2012-val-00002846.png,0.0,-2.8312304,-1.7683259,-0.751587
alexnet_w3_mlp_simclrhn_probe1,1,168,NaN,oven,bird,0,0168_sty_dnn_0_bird_00_bird-0822-ILSVRC2012-val-00025200.png,bird-0822-ILSVRC2012-val-00025200.png,0.0,-4.3313828,-2.3069134,-1.431516
alexnet_w3_mlp_simclrhn_probe1,1,169,NaN,knife,bird,0,0169_sty_dnn_0_bird_00_bird-0896-ILSVRC2012-val-00046621.png,bird-0896-ILSVRC2012-val-00046621.png,0.0,-5.675706,-1.2111737,-3.1569011
alexnet_w3_mlp_simclrhn_probe1,1,170,NaN,oven,bird,0,0170_sty_dnn_0_bird_00_bird-0995-ILSVRC2012-val-00046534.png,bird-0995-ILSVRC2012-val-00046534.png,0.0,-4.6699452,-1.773875,-2.047831
alexnet_w3_mlp_simclrhn_probe1,1,171,NaN,oven,bird,0,0171_sty_dnn_0_bird_00_bird-1052-ILSVRC2012-val-00003884.png,bird-1052-ILSVRC2012-val-00003884.png,0.0,-3.9907856,-0.8510046,-2.2201605
alexnet_w3_mlp_simclrhn_probe1,1,172,NaN,oven,bird,0,0172_sty_dnn_0_bird_00_bird-1093-ILSVRC2012-val-00044082.png,bird-1093-ILSVRC2012-val-00044082.png,0.0,-3.6745846,-0.7439012,-2.0723062
alexnet_w3_mlp_simclrhn_probe1,1,173,NaN,bicycle,bird,0,0173_sty_dnn_0_bird_00_bird-1172-ILSVRC2012-val-00022442.png,bird-1172-ILSVRC2012-val-00022442.png,0.0,-4.09036,-1.9842827,-1.4892217
alexnet_w3_mlp_simclrhn_probe1,1,174,NaN,elephant,bird,0,0174_sty_dnn_0_bird_00_bird-1188-ILSVRC2012-val-00040014.png,bird-1188-ILSVRC2012-val-00040014.png,0.0,-2.1796894,-1.1799601,-0.7069154
alexnet_w3_mlp_simclrhn_probe1,1,175,NaN,bear,bird,0,0175_sty_dnn_0_bird_00_bird-1198-ILSVRC2012-val-00048142.png,bird-1198-ILSVRC2012-val-00048142.png,0.0,-2.792798,-1.1655471,-1.1506401
alexnet_w3_mlp_simclrhn_probe1,1,176,NaN,knife,bird,0,0176_sty_dnn_0_bird_00_bird-1256-ILSVRC2012-val-00005779.png,bird-1256-ILSVRC2012-val-00005779.png,0.0,-6.44211,-1.5562959,-3.4547925
alexnet_w3_mlp_simclrhn_probe1,1,177,NaN,oven,bird,0,0177_sty_dnn_0_bird_00_bird-1274-ILSVRC2012-val-00025449.png,bird-1274-ILSVRC2012-val-00025449.png,0.0,-6.4293566,-0.4182957,-4.250462
alexnet_w3_mlp_simclrhn_probe1,1,178,NaN,bird,bird,0,0178_sty_dnn_0_bird_00_bird-1326-ILSVRC2012-val-00025658.png,bird-1326-ILSVRC2012-val-00025658.png,1.0,-2.0904922,-2.328547,0.16833013
alexnet_w3_mlp_simclrhn_probe1,1,179,NaN,bird,bird,0,0179_sty_dnn_0_bird_00_bird-1394-ILSVRC2012-val-00040051.png,bird-1394-ILSVRC2012-val-00040051.png,1.0,-0.8711663,-3.039473,1.5332245
alexnet_w3_mlp_simclrhn_probe1,1,180,NaN,elephant,bird,0,0180_sty_dnn_0_bird_00_bird-1452-ILSVRC2012-val-00002997.png,bird-1452-ILSVRC2012-val-00002997.png,0.0,-2.5097587,0.009926915,-1.7816869
alexnet_w3_mlp_simclrhn_probe1,1,181,NaN,bird,bird,0,0181_sty_dnn_0_bird_00_bird-1551-ILSVRC2012-val-00000690.png,bird-1551-ILSVRC2012-val-00000690.png,1.0,-0.2783775,-1.713065,1.0144773
alexnet_w3_mlp_simclrhn_probe1,1,182,NaN,knife,bird,0,0182_sty_dnn_0_bird_00_bird-1646-ILSVRC2012-val-00039398.png,bird-1646-ILSVRC2012-val-00039398.png,0.0,-2.8733256,-0.14516304,-1.9291023
alexnet_w3_mlp_simclrhn_probe1,1,183,NaN,bicycle,bird,0,0183_sty_dnn_0_bird_00_bird-1861-ILSVRC2012-val-00007811.png,bird-1861-ILSVRC2012-val-00007811.png,0.0,-2.234659,-1.7751901,-0.32489353
alexnet_w3_mlp_simclrhn_probe1,1,184,NaN,clock,bird,0,0184_sty_dnn_0_bird_00_bird-1865-ILSVRC2012-val-00009672.png,bird-1865-ILSVRC2012-val-00009672.png,0.0,-8.97231,0.2549211,-6.5246377
alexnet_w3_mlp_simclrhn_probe1,1,185,NaN,bear,bird,0,0185_sty_dnn_0_bird_00_bird-1913-ILSVRC2012-val-00012475.png,bird-1913-ILSVRC2012-val-00012475.png,0.0,-2.1892943,-0.4000467,-1.2651892
alexnet_w3_mlp_simclrhn_probe1,1,186,NaN,elephant,bird,0,0186_sty_dnn_0_bird_00_bird-1941-ILSVRC2012-val-00042829.png,bird-1941-ILSVRC2012-val-00042829.png,0.0,-3.6150627,-3.12107,-0.34930566
alexnet_w3_mlp_simclrhn_probe1,1,187,NaN,bear,bird,0,0187_sty_dnn_0_bird_00_bird-1971-ILSVRC2012-val-00023024.png,bird-1971-ILSVRC2012-val-00023024.png,0.0,-3.8494692,2.0082269,-4.142017
alexnet_w3_mlp_simclrhn_probe1,1,188,NaN,elephant,bird,0,0188_sty_dnn_0_bird_00_bird-2011-ILSVRC2012-val-00008842.png,bird-2011-ILSVRC2012-val-00008842.png,0.0,-5.4097147,-1.2193782,-2.9630153
alexnet_w3_mlp_simclrhn_probe1,1,189,NaN,bear,bird,0,0189_sty_dnn_0_bird_00_bird-2082-ILSVRC2012-val-00036457.png,bird-2082-ILSVRC2012-val-00036457.png,0.0,-2.12296,-1.377776,-0.5269247
alexnet_w3_mlp_simclrhn_probe1,1,190,NaN,chair,bird,0,0190_sty_dnn_0_bird_00_bird-2118-ILSVRC2012-val-00021926.png,bird-2118-ILSVRC2012-val-00021926.png,0.0,-6.78413,-0.38283944,-4.5263963
alexnet_w3_mlp_simclrhn_probe1,1,191,NaN,oven,bird,0,0191_sty_dnn_0_bird_00_bird-2144-ILSVRC2012-val-00044377.png,bird-2144-ILSVRC2012-val-00044377.png,0.0,-4.7397847,-1.0729337,-2.5928552
alexnet_w3_mlp_simclrhn_probe1,1,192,NaN,cat,bird,0,0192_sty_dnn_0_bird_00_bird-2178-ILSVRC2012-val-00026510.png,bird-2178-ILSVRC2012-val-00026510.png,0.0,-2.9631753,-0.5753629,-1.6884383
alexnet_w3_mlp_simclrhn_probe1,1,193,NaN,elephant,bird,0,0193_sty_dnn_0_bird_00_bird-2184-ILSVRC2012-val-00034910.png,bird-2184-ILSVRC2012-val-00034910.png,0.0,-5.02952,-1.3364539,-2.6113923
alexnet_w3_mlp_simclrhn_probe1,1,194,NaN,elephant,bird,0,0194_sty_dnn_0_bird_00_bird-2221-ILSVRC2012-val-00014977.png,bird-2221-ILSVRC2012-val-00014977.png,0.0,-9.232631,-6.1763864,-2.161091
alexnet_w3_mlp_simclrhn_probe1,1,195,NaN,bicycle,bird,0,0195_sty_dnn_0_bird_00_bird-2222-ILSVRC2012-val-00015392.png,bird-2222-ILSVRC2012-val-00015392.png,0.0,-2.623473,-1.0901797,-1.084202
alexnet_w3_mlp_simclrhn_probe1,1,196,NaN,oven,bird,0,0196_sty_dnn_0_bird_00_bird-2248-ILSVRC2012-val-00044992.png,bird-2248-ILSVRC2012-val-00044992.png,0.0,-4.5276384,-0.63935363,-2.7494326
alexnet_w3_mlp_simclrhn_probe1,1,197,NaN,bird,bird,0,0197_sty_dnn_0_bird_00_bird-2322-ILSVRC2012-val-00023492.png,bird-2322-ILSVRC2012-val-00023492.png,1.0,-1.9627919,-3.265855,0.9214048
alexnet_w3_mlp_simclrhn_probe1,1,198,NaN,elephant,bird,0,0198_sty_dnn_0_bird_00_bird-2405-ILSVRC2012-val-00007988.png,bird-2405-ILSVRC2012-val-00007988.png,0.0,-3.1522317,0.6058713,-2.65738
alexnet_w3_mlp_simclrhn_probe1,1,199,NaN,elephant,bird,0,0199_sty_dnn_0_bird_00_bird-2410-ILSVRC2012-val-00010355.png,bird-2410-ILSVRC2012-val-00010355.png,0.0,-3.1967804,0.46783215,-2.5912724
alexnet_w3_mlp_simclrhn_probe1,1,200,NaN,bear,bird,0,0200_sty_dnn_0_bird_00_bird-2433-ILSVRC2012-val-00028670.png,bird-2433-ILSVRC2012-val-00028670.png,0.0,-3.1754925,0.7257132,-2.758569
alexnet_w3_mlp_simclrhn_probe1,1,201,NaN,cat,boat,0,0201_sty_dnn_0_boat_00_boat-0005-ILSVRC2012-val-00004909.png,boat-0005-ILSVRC2012-val-00004909.png,0.0,-7.1881056,-1.3757387,-4.1099644
alexnet_w3_mlp_simclrhn_probe1,1,202,NaN,elephant,boat,0,0202_sty_dnn_0_boat_00_boat-0011-ILSVRC2012-val-00011563.png,boat-0011-ILSVRC2012-val-00011563.png,0.0,-2.6188056,-0.092295766,-1.7865123
alexnet_w3_mlp_simclrhn_probe1,1,203,NaN,bicycle,boat,0,0203_sty_dnn_0_boat_00_boat-0026-ILSVRC2012-val-00026341.png,boat-0026-ILSVRC2012-val-00026341.png,0.0,-3.5530694,-0.48052835,-2.1726146
alexnet_w3_mlp_simclrhn_probe1,1,204,NaN,elephant,boat,0,0204_sty_dnn_0_boat_00_boat-0033-ILSVRC2012-val-00030824.png,boat-0033-ILSVRC2012-val-00030824.png,0.0,-6.3581142,-1.0497036,-3.7536132
alexnet_w3_mlp_simclrhn_probe1,1,205,NaN,elephant,boat,0,0205_sty_dnn_0_boat_00_boat-0036-ILSVRC2012-val-00032433.png,boat-0036-ILSVRC2012-val-00032433.png,0.0,-5.5225153,0.8068585,-4.475543
alexnet_w3_mlp_simclrhn_probe1,1,206,NaN,elephant,boat,0,0206_sty_dnn_0_boat_00_boat-0039-ILSVRC2012-val-00033883.png,boat-0039-ILSVRC2012-val-00033883.png,0.0,-2.2120614,-1.8840566,-0.23193444
alexnet_w3_mlp_simclrhn_probe1,1,207,NaN,oven,boat,0,0207_sty_dnn_0_boat_00_boat-0042-ILSVRC2012-val-00039945.png,boat-0042-ILSVRC2012-val-00039945.png,0.0,-4.9101405,1.0196775,-4.1930146
alexnet_w3_mlp_simclrhn_probe1,1,208,NaN,elephant,boat,0,0208_sty_dnn_0_boat_00_boat-0044-ILSVRC2012-val-00041227.png,boat-0044-ILSVRC2012-val-00041227.png,0.0,-2.2563112,-0.71300066,-1.0912853
alexnet_w3_mlp_simclrhn_probe1,1,209,NaN,oven,boat,0,0209_sty_dnn_0_boat_00_boat-0048-ILSVRC2012-val-00046387.png,boat-0048-ILSVRC2012-val-00046387.png,0.0,-5.5566015,-0.021800399,-3.9136953
alexnet_w3_mlp_simclrhn_probe1,1,210,NaN,elephant,boat,0,0210_sty_dnn_0_boat_00_boat-0053-ILSVRC2012-val-00005918.png,boat-0053-ILSVRC2012-val-00005918.png,0.0,-3.4201279,-0.10705514,-2.3426962
alexnet_w3_mlp_simclrhn_probe1,1,211,NaN,elephant,boat,0,0211_sty_dnn_0_boat_00_boat-0061-ILSVRC2012-val-00011292.png,boat-0061-ILSVRC2012-val-00011292.png,0.0,-3.0122917,-0.96810555,-1.4454579
alexnet_w3_mlp_simclrhn_probe1,1,212,NaN,bottle,boat,0,0212_sty_dnn_0_boat_00_boat-0064-ILSVRC2012-val-00013366.png,boat-0064-ILSVRC2012-val-00013366.png,0.0,-2.2792008,-1.6807163,-0.42319247
alexnet_w3_mlp_simclrhn_probe1,1,213,NaN,bicycle,boat,0,0213_sty_dnn_0_boat_00_boat-0066-ILSVRC2012-val-00013961.png,boat-0066-ILSVRC2012-val-00013961.png,0.0,-4.596573,-0.43326992,-2.9438999
alexnet_w3_mlp_simclrhn_probe1,1,214,NaN,elephant,boat,0,0214_sty_dnn_0_boat_00_boat-0070-ILSVRC2012-val-00017026.png,boat-0070-ILSVRC2012-val-00017026.png,0.0,-6.8684235,1.3692955,-5.824947
alexnet_w3_mlp_simclrhn_probe1,1,215,NaN,elephant,boat,0,0215_sty_dnn_0_boat_00_boat-0073-ILSVRC2012-val-00018158.png,boat-0073-ILSVRC2012-val-00018158.png,0.0,-3.7938912,-1.6913881,-1.4866942
alexnet_w3_mlp_simclrhn_probe1,1,216,NaN,bicycle,boat,0,0216_sty_dnn_0_boat_00_boat-0076-ILSVRC2012-val-00020486.png,boat-0076-ILSVRC2012-val-00020486.png,0.0,-6.403824,0.10841966,-4.6048512
alexnet_w3_mlp_simclrhn_probe1,1,217,NaN,boat,boat,0,0217_sty_dnn_0_boat_00_boat-0077-ILSVRC2012-val-00021948.png,boat-0077-ILSVRC2012-val-00021948.png,1.0,-1.9414694,-2.6020243,0.46708286
alexnet_w3_mlp_simclrhn_probe1,1,218,NaN,bicycle,boat,0,0218_sty_dnn_0_boat_00_boat-0079-ILSVRC2012-val-00025681.png,boat-0079-ILSVRC2012-val-00025681.png,0.0,-4.4979477,0.8715451,-3.7968047
alexnet_w3_mlp_simclrhn_probe1,1,219,NaN,knife,boat,0,0219_sty_dnn_0_boat_00_boat-0082-ILSVRC2012-val-00027612.png,boat-0082-ILSVRC2012-val-00027612.png,0.0,-4.9297757,-2.4354734,-1.763738
alexnet_w3_mlp_simclrhn_probe1,1,220,NaN,oven,boat,0,0220_sty_dnn_0_boat_00_boat-0083-ILSVRC2012-val-00034455.png,boat-0083-ILSVRC2012-val-00034455.png,0.0,-4.075157,-1.1397784,-2.0756264
alexnet_w3_mlp_simclrhn_probe1,1,221,NaN,cat,boat,0,0221_sty_dnn_0_boat_00_boat-0086-ILSVRC2012-val-00039559.png,boat-0086-ILSVRC2012-val-00039559.png,0.0,-4.310729,-1.0665654,-2.29397
alexnet_w3_mlp_simclrhn_probe1,1,222,NaN,bicycle,boat,0,0222_sty_dnn_0_boat_00_boat-0098-ILSVRC2012-val-00047961.png,boat-0098-ILSVRC2012-val-00047961.png,0.0,-6.5278473,-2.0865836,-3.1404476
alexnet_w3_mlp_simclrhn_probe1,1,223,NaN,oven,boat,0,0223_sty_dnn_0_boat_00_boat-0100-ILSVRC2012-val-00048371.png,boat-0100-ILSVRC2012-val-00048371.png,0.0,-3.099971,-0.89593977,-1.5584855
alexnet_w3_mlp_simclrhn_probe1,1,224,NaN,keyboard,boat,0,0224_sty_dnn_0_boat_00_boat-0103-ILSVRC2012-val-00002308.png,boat-0103-ILSVRC2012-val-00002308.png,0.0,-7.6798058,-1.898371,-4.088092
alexnet_w3_mlp_simclrhn_probe1,1,225,NaN,bicycle,boat,0,0225_sty_dnn_0_boat_00_boat-0107-ILSVRC2012-val-00004492.png,boat-0107-ILSVRC2012-val-00004492.png,0.0,-1.5626854,-0.24190441,-0.9339332
alexnet_w3_mlp_simclrhn_probe1,1,226,NaN,oven,boat,0,0226_sty_dnn_0_boat_00_boat-0111-ILSVRC2012-val-00009680.png,boat-0111-ILSVRC2012-val-00009680.png,0.0,-4.435233,2.0975842,-4.6193995
alexnet_w3_mlp_simclrhn_probe1,1,227,NaN,boat,boat,0,0227_sty_dnn_0_boat_00_boat-0121-ILSVRC2012-val-00016970.png,boat-0121-ILSVRC2012-val-00016970.png,1.0,-0.17450614,-0.7875407,0.4334809
alexnet_w3_mlp_simclrhn_probe1,1,228,NaN,oven,boat,0,0228_sty_dnn_0_boat_00_boat-0129-ILSVRC2012-val-00027504.png,boat-0129-ILSVRC2012-val-00027504.png,0.0,-4.7079325,-1.4000857,-2.339001
alexnet_w3_mlp_simclrhn_probe1,1,229,NaN,bicycle,boat,0,0229_sty_dnn_0_boat_00_boat-0137-ILSVRC2012-val-00035374.png,boat-0137-ILSVRC2012-val-00035374.png,0.0,-4.732709,0.59879005,-3.7699392
alexnet_w3_mlp_simclrhn_probe1,1,230,NaN,oven,boat,0,0230_sty_dnn_0_boat_00_boat-0142-ILSVRC2012-val-00040889.png,boat-0142-ILSVRC2012-val-00040889.png,0.0,-6.6120567,-0.5241733,-4.304784
alexnet_w3_mlp_simclrhn_probe1,1,231,NaN,oven,boat,0,0231_sty_dnn_0_boat_00_boat-0153-ILSVRC2012-val-00002696.png,boat-0153-ILSVRC2012-val-00002696.png,0.0,-2.4070725,-1.0199546,-0.98084056
alexnet_w3_mlp_simclrhn_probe1,1,232,NaN,car,boat,0,0232_sty_dnn_0_boat_00_boat-0160-ILSVRC2012-val-00008630.png,boat-0160-ILSVRC2012-val-00008630.png,0.0,-2.4775348,-2.4432576,-0.024237642
alexnet_w3_mlp_simclrhn_probe1,1,233,NaN,bear,boat,0,0233_sty_dnn_0_boat_00_boat-0165-ILSVRC2012-val-00014242.png,boat-0165-ILSVRC2012-val-00014242.png,0.0,-1.6064281,-1.1093096,-0.35151592
alexnet_w3_mlp_simclrhn_probe1,1,234,NaN,oven,boat,0,0234_sty_dnn_0_boat_00_boat-0169-ILSVRC2012-val-00019970.png,boat-0169-ILSVRC2012-val-00019970.png,0.0,-10.884939,-2.8748426,-5.663994
alexnet_w3_mlp_simclrhn_probe1,1,235,NaN,elephant,boat,0,0235_sty_dnn_0_boat_00_boat-0170-ILSVRC2012-val-00020353.png,boat-0170-ILSVRC2012-val-00020353.png,0.0,-4.272007,-1.757554,-1.7779868
alexnet_w3_mlp_simclrhn_probe1,1,236,NaN,bicycle,boat,0,0236_sty_dnn_0_boat_00_boat-0172-ILSVRC2012-val-00020894.png,boat-0172-ILSVRC2012-val-00020894.png,0.0,-11.197135,-3.8207679,-5.2158794
alexnet_w3_mlp_simclrhn_probe1,1,237,NaN,knife,boat,0,0237_sty_dnn_0_boat_00_boat-0179-ILSVRC2012-val-00026763.png,boat-0179-ILSVRC2012-val-00026763.png,0.0,-4.5590277,-1.8851287,-1.890732
alexnet_w3_mlp_simclrhn_probe1,1,238,NaN,oven,boat,0,0238_sty_dnn_0_boat_00_boat-0181-ILSVRC2012-val-00031072.png,boat-0181-ILSVRC2012-val-00031072.png,0.0,-3.884898,-1.0137508,-2.0302076
alexnet_w3_mlp_simclrhn_probe1,1,239,NaN,boat,boat,0,0239_sty_dnn_0_boat_00_boat-0195-ILSVRC2012-val-00042203.png,boat-0195-ILSVRC2012-val-00042203.png,1.0,-1.2077262,-3.0879543,1.329522
alexnet_w3_mlp_simclrhn_probe1,1,240,NaN,oven,boat,0,0240_sty_dnn_0_boat_00_boat-0196-ILSVRC2012-val-00042675.png,boat-0196-ILSVRC2012-val-00042675.png,0.0,-4.701422,0.66684204,-3.795936
alexnet_w3_mlp_simclrhn_probe1,1,241,NaN,bicycle,boat,0,0241_sty_dnn_0_boat_00_boat-0215-ILSVRC2012-val-00013403.png,boat-0215-ILSVRC2012-val-00013403.png,0.0,-3.7899804,-2.1059744,-1.190772
alexnet_w3_mlp_simclrhn_probe1,1,242,NaN,boat,boat,0,0242_sty_dnn_0_boat_00_boat-0217-ILSVRC2012-val-00015089.png,boat-0217-ILSVRC2012-val-00015089.png,1.0,-1.7040755,-1.9737792,0.19070935
alexnet_w3_mlp_simclrhn_probe1,1,243,NaN,knife,boat,0,0243_sty_dnn_0_boat_00_boat-0218-ILSVRC2012-val-00015121.png,boat-0218-ILSVRC2012-val-00015121.png,0.0,-6.440543,-1.9089134,-3.204346
alexnet_w3_mlp_simclrhn_probe1,1,244,NaN,oven,boat,0,0244_sty_dnn_0_boat_00_boat-0222-ILSVRC2012-val-00019246.png,boat-0222-ILSVRC2012-val-00019246.png,0.0,-6.123255,-0.46097246,-4.0038385
alexnet_w3_mlp_simclrhn_probe1,1,245,NaN,elephant,boat,0,0245_sty_dnn_0_boat_00_boat-0223-ILSVRC2012-val-00020544.png,boat-0223-ILSVRC2012-val-00020544.png,0.0,-7.2643814,-0.8555008,-4.531763
alexnet_w3_mlp_simclrhn_probe1,1,246,NaN,knife,boat,0,0246_sty_dnn_0_boat_00_boat-0225-ILSVRC2012-val-00022075.png,boat-0225-ILSVRC2012-val-00022075.png,0.0,-5.8930616,-1.8232154,-2.877816
alexnet_w3_mlp_simclrhn_probe1,1,247,NaN,boat,boat,0,0247_sty_dnn_0_boat_00_boat-0235-ILSVRC2012-val-00032371.png,boat-0235-ILSVRC2012-val-00032371.png,1.0,-1.5534554,-1.8880156,0.23656984
alexnet_w3_mlp_simclrhn_probe1,1,248,NaN,knife,boat,0,0248_sty_dnn_0_boat_00_boat-0236-ILSVRC2012-val-00032584.png,boat-0236-ILSVRC2012-val-00032584.png,0.0,-4.370084,-0.799435,-2.5248299
alexnet_w3_mlp_simclrhn_probe1,1,249,NaN,airplane,boat,0,0249_sty_dnn_0_boat_00_boat-0243-ILSVRC2012-val-00039131.png,boat-0243-ILSVRC2012-val-00039131.png,0.0,-3.2356706,-0.62858784,-1.843486
alexnet_w3_mlp_simclrhn_probe1,1,250,NaN,bear,boat,0,0250_sty_dnn_0_boat_00_boat-0244-ILSVRC2012-val-00040974.png,boat-0244-ILSVRC2012-val-00040974.png,0.0,-4.040557,-1.5202694,-1.7821125
alexnet_w3_mlp_simclrhn_probe1,1,251,NaN,oven,bottle,0,0251_sty_dnn_0_bottle_00_bottle-0002-ILSVRC2012-val-00002968.png,bottle-0002-ILSVRC2012-val-00002968.png,0.0,-3.8717494,-2.3398306,-1.0832301
alexnet_w3_mlp_simclrhn_probe1,1,252,NaN,bottle,bottle,0,0252_sty_dnn_0_bottle_00_bottle-0003-ILSVRC2012-val-00003622.png,bottle-0003-ILSVRC2012-val-00003622.png,1.0,-1.7425855,-2.512025,0.54407597
alexnet_w3_mlp_simclrhn_probe1,1,253,NaN,oven,bottle,0,0253_sty_dnn_0_bottle_00_bottle-0005-ILSVRC2012-val-00004521.png,bottle-0005-ILSVRC2012-val-00004521.png,0.0,-2.648276,-1.2391143,-0.9964279
alexnet_w3_mlp_simclrhn_probe1,1,254,NaN,bottle,bottle,0,0254_sty_dnn_0_bottle_00_bottle-0006-ILSVRC2012-val-00004888.png,bottle-0006-ILSVRC2012-val-00004888.png,1.0,1.2270758,-1.8778956,2.1955464
alexnet_w3_mlp_simclrhn_probe1,1,255,NaN,elephant,bottle,0,0255_sty_dnn_0_bottle_00_bottle-0011-ILSVRC2012-val-00009225.png,bottle-0011-ILSVRC2012-val-00009225.png,0.0,-2.024588,-1.2603368,-0.5404073
alexnet_w3_mlp_simclrhn_probe1,1,256,NaN,keyboard,bottle,0,0256_sty_dnn_0_bottle_00_bottle-0022-ILSVRC2012-val-00022396.png,bottle-0022-ILSVRC2012-val-00022396.png,0.0,-2.3857052,-1.9533849,-0.30569667
alexnet_w3_mlp_simclrhn_probe1,1,257,NaN,bicycle,bottle,0,0257_sty_dnn_0_bottle_00_bottle-0030-ILSVRC2012-val-00032921.png,bottle-0030-ILSVRC2012-val-00032921.png,0.0,-3.2272437,-2.2530603,-0.68885165
alexnet_w3_mlp_simclrhn_probe1,1,258,NaN,cat,bottle,0,0258_sty_dnn_0_bottle_00_bottle-0031-ILSVRC2012-val-00033822.png,bottle-0031-ILSVRC2012-val-00033822.png,0.0,-6.0867953,-2.380984,-2.6204042
alexnet_w3_mlp_simclrhn_probe1,1,259,NaN,bear,bottle,0,0259_sty_dnn_0_bottle_00_bottle-0032-ILSVRC2012-val-00034979.png,bottle-0032-ILSVRC2012-val-00034979.png,0.0,-1.9117802,-0.8469599,-0.75294167
alexnet_w3_mlp_simclrhn_probe1,1,260,NaN,bottle,bottle,0,0260_sty_dnn_0_bottle_00_bottle-0037-ILSVRC2012-val-00036359.png,bottle-0037-ILSVRC2012-val-00036359.png,1.0,0.49232507,-2.4291828,2.065818
alexnet_w3_mlp_simclrhn_probe1,1,261,NaN,bottle,bottle,0,0261_sty_dnn_0_bottle_00_bottle-0039-ILSVRC2012-val-00038570.png,bottle-0039-ILSVRC2012-val-00038570.png,1.0,-0.18064718,-0.93915236,0.5363442
alexnet_w3_mlp_simclrhn_probe1,1,262,NaN,oven,bottle,0,0262_sty_dnn_0_bottle_00_bottle-0047-ILSVRC2012-val-00044787.png,bottle-0047-ILSVRC2012-val-00044787.png,0.0,-7.10077,-1.6430973,-3.8591573
alexnet_w3_mlp_simclrhn_probe1,1,263,NaN,clock,bottle,0,0263_sty_dnn_0_bottle_00_bottle-0052-ILSVRC2012-val-00000252.png,bottle-0052-ILSVRC2012-val-00000252.png,0.0,-2.373614,-1.0109564,-0.9635445
alexnet_w3_mlp_simclrhn_probe1,1,264,NaN,bottle,bottle,0,0264_sty_dnn_0_bottle_00_bottle-0055-ILSVRC2012-val-00003066.png,bottle-0055-ILSVRC2012-val-00003066.png,1.0,0.04938456,-2.1408784,1.5487499
alexnet_w3_mlp_simclrhn_probe1,1,265,NaN,knife,bottle,0,0265_sty_dnn_0_bottle_00_bottle-0057-ILSVRC2012-val-00005967.png,bottle-0057-ILSVRC2012-val-00005967.png,0.0,-2.70985,-2.0266824,-0.48307252
alexnet_w3_mlp_simclrhn_probe1,1,266,NaN,knife,bottle,0,0266_sty_dnn_0_bottle_00_bottle-0059-ILSVRC2012-val-00008984.png,bottle-0059-ILSVRC2012-val-00008984.png,0.0,-1.7748138,-0.75003594,-0.72462744
alexnet_w3_mlp_simclrhn_probe1,1,267,NaN,bottle,bottle,0,0267_sty_dnn_0_bottle_00_bottle-0066-ILSVRC2012-val-00016336.png,bottle-0066-ILSVRC2012-val-00016336.png,1.0,-0.03350308,-1.4127117,0.9752478
alexnet_w3_mlp_simclrhn_probe1,1,268,NaN,oven,bottle,0,0268_sty_dnn_0_bottle_00_bottle-0085-ILSVRC2012-val-00036422.png,bottle-0085-ILSVRC2012-val-00036422.png,0.0,-2.6383052,-0.49248984,-1.5173206
alexnet_w3_mlp_simclrhn_probe1,1,269,NaN,elephant,bottle,0,0269_sty_dnn_0_bottle_00_bottle-0086-ILSVRC2012-val-00036795.png,bottle-0086-ILSVRC2012-val-00036795.png,0.0,-2.4659119,-1.3542532,-0.7860614
alexnet_w3_mlp_simclrhn_probe1,1,270,NaN,boat,bottle,0,0270_sty_dnn_0_bottle_00_bottle-0107-ILSVRC2012-val-00008313.png,bottle-0107-ILSVRC2012-val-00008313.png,0.0,-2.8175912,-0.58296,-1.5801228
alexnet_w3_mlp_simclrhn_probe1,1,271,NaN,bear,bottle,0,0271_sty_dnn_0_bottle_00_bottle-0108-ILSVRC2012-val-00008437.png,bottle-0108-ILSVRC2012-val-00008437.png,0.0,-4.615191,0.29678604,-3.473292
alexnet_w3_mlp_simclrhn_probe1,1,272,NaN,elephant,bottle,0,0272_sty_dnn_0_bottle_00_bottle-0126-ILSVRC2012-val-00022079.png,bottle-0126-ILSVRC2012-val-00022079.png,0.0,-2.8996637,-1.1925834,-1.207088
alexnet_w3_mlp_simclrhn_probe1,1,273,NaN,bicycle,bottle,0,0273_sty_dnn_0_bottle_00_bottle-0127-ILSVRC2012-val-00023580.png,bottle-0127-ILSVRC2012-val-00023580.png,0.0,-4.666343,-0.97915846,-2.6072335
alexnet_w3_mlp_simclrhn_probe1,1,274,NaN,knife,bottle,0,0274_sty_dnn_0_bottle_00_bottle-0138-ILSVRC2012-val-00032559.png,bottle-0138-ILSVRC2012-val-00032559.png,0.0,-3.019626,-1.302462,-1.2142183
alexnet_w3_mlp_simclrhn_probe1,1,275,NaN,elephant,bottle,0,0275_sty_dnn_0_bottle_00_bottle-0153-ILSVRC2012-val-00003318.png,bottle-0153-ILSVRC2012-val-00003318.png,0.0,-3.4940515,-1.381696,-1.4936609
alexnet_w3_mlp_simclrhn_probe1,1,276,NaN,oven,bottle,0,0276_sty_dnn_0_bottle_00_bottle-0154-ILSVRC2012-val-00003340.png,bottle-0154-ILSVRC2012-val-00003340.png,0.0,-5.1077876,-1.9993724,-2.1979814
alexnet_w3_mlp_simclrhn_probe1,1,277,NaN,knife,bottle,0,0277_sty_dnn_0_bottle_00_bottle-0170-ILSVRC2012-val-00020948.png,bottle-0170-ILSVRC2012-val-00020948.png,0.0,-1.8545811,-1.4469144,-0.2882639
alexnet_w3_mlp_simclrhn_probe1,1,278,NaN,chair,bottle,0,0278_sty_dnn_0_bottle_00_bottle-0172-ILSVRC2012-val-00021707.png,bottle-0172-ILSVRC2012-val-00021707.png,0.0,-2.81934,-0.09452072,-1.9267381
alexnet_w3_mlp_simclrhn_probe1,1,279,NaN,knife,bottle,0,0279_sty_dnn_0_bottle_00_bottle-0180-ILSVRC2012-val-00027613.png,bottle-0180-ILSVRC2012-val-00027613.png,0.0,-2.9604526,-0.8679858,-1.4795976
alexnet_w3_mlp_simclrhn_probe1,1,280,NaN,knife,bottle,0,0280_sty_dnn_0_bottle_00_bottle-0189-ILSVRC2012-val-00040070.png,bottle-0189-ILSVRC2012-val-00040070.png,0.0,-3.3507323,-0.8141148,-1.7936594
alexnet_w3_mlp_simclrhn_probe1,1,281,NaN,bottle,bottle,0,0281_sty_dnn_0_bottle_00_bottle-0195-ILSVRC2012-val-00045644.png,bottle-0195-ILSVRC2012-val-00045644.png,1.0,-0.3654634,-2.0267112,1.1746796
alexnet_w3_mlp_simclrhn_probe1,1,282,NaN,bicycle,bottle,0,0282_sty_dnn_0_bottle_00_bottle-0204-ILSVRC2012-val-00002597.png,bottle-0204-ILSVRC2012-val-00002597.png,0.0,-2.976569,-1.0607698,-1.3546746
alexnet_w3_mlp_simclrhn_probe1,1,283,NaN,bottle,bottle,0,0283_sty_dnn_0_bottle_00_bottle-0205-ILSVRC2012-val-00003263.png,bottle-0205-ILSVRC2012-val-00003263.png,1.0,-1.4151798,-3.8764558,1.740385
alexnet_w3_mlp_simclrhn_probe1,1,284,NaN,oven,bottle,0,0284_sty_dnn_0_bottle_00_bottle-0214-ILSVRC2012-val-00012572.png,bottle-0214-ILSVRC2012-val-00012572.png,0.0,-3.845812,-0.6460262,-2.2625904
alexnet_w3_mlp_simclrhn_probe1,1,285,NaN,cat,bottle,0,0285_sty_dnn_0_bottle_00_bottle-0216-ILSVRC2012-val-00013262.png,bottle-0216-ILSVRC2012-val-00013262.png,0.0,-4.4465647,0.41379306,-3.436792
alexnet_w3_mlp_simclrhn_probe1,1,286,NaN,bottle,bottle,0,0286_sty_dnn_0_bottle_00_bottle-0218-ILSVRC2012-val-00013667.png,bottle-0218-ILSVRC2012-val-00013667.png,1.0,0.14050229,-0.6535232,0.5614608
alexnet_w3_mlp_simclrhn_probe1,1,287,NaN,bear,bottle,0,0287_sty_dnn_0_bottle_00_bottle-0220-ILSVRC2012-val-00014146.png,bottle-0220-ILSVRC2012-val-00014146.png,0.0,-3.2830517,-1.6543719,-1.1516505
alexnet_w3_mlp_simclrhn_probe1,1,288,NaN,oven,bottle,0,0288_sty_dnn_0_bottle_00_bottle-0222-ILSVRC2012-val-00018657.png,bottle-0222-ILSVRC2012-val-00018657.png,0.0,-2.6662347,-1.4480999,-0.86135143
alexnet_w3_mlp_simclrhn_probe1,1,289,NaN,bottle,bottle,0,0289_sty_dnn_0_bottle_00_bottle-0224-ILSVRC2012-val-00020102.png,bottle-0224-ILSVRC2012-val-00020102.png,1.0,-2.2775986,-3.0273066,0.5301236
alexnet_w3_mlp_simclrhn_probe1,1,290,NaN,knife,bottle,0,0290_sty_dnn_0_bottle_00_bottle-0233-ILSVRC2012-val-00031504.png,bottle-0233-ILSVRC2012-val-00031504.png,0.0,-2.7421021,-0.20594838,-1.7933316
alexnet_w3_mlp_simclrhn_probe1,1,291,NaN,bicycle,bottle,0,0291_sty_dnn_0_bottle_00_bottle-0243-ILSVRC2012-val-00040157.png,bottle-0243-ILSVRC2012-val-00040157.png,0.0,-3.9914415,-1.5600476,-1.7192551
alexnet_w3_mlp_simclrhn_probe1,1,292,NaN,bottle,bottle,0,0292_sty_dnn_0_bottle_00_bottle-0254-ILSVRC2012-val-00005933.png,bottle-0254-ILSVRC2012-val-00005933.png,1.0,3.307232,-3.277509,4.656115
alexnet_w3_mlp_simclrhn_probe1,1,293,NaN,bottle,bottle,0,0293_sty_dnn_0_bottle_00_bottle-0283-ILSVRC2012-val-00036864.png,bottle-0283-ILSVRC2012-val-00036864.png,1.0,2.4784272,-1.0520974,2.496458
alexnet_w3_mlp_simclrhn_probe1,1,294,NaN,bottle,bottle,0,0294_sty_dnn_0_bottle_00_bottle-0294-ILSVRC2012-val-00044222.png,bottle-0294-ILSVRC2012-val-00044222.png,1.0,1.4237673,-2.9310856,3.079346
alexnet_w3_mlp_simclrhn_probe1,1,295,NaN,oven,bottle,0,0295_sty_dnn_0_bottle_00_bottle-0296-ILSVRC2012-val-00044906.png,bottle-0296-ILSVRC2012-val-00044906.png,0.0,-2.387364,-0.22263417,-1.5306952
alexnet_w3_mlp_simclrhn_probe1,1,296,NaN,oven,bottle,0,0296_sty_dnn_0_bottle_00_bottle-0325-ILSVRC2012-val-00027316.png,bottle-0325-ILSVRC2012-val-00027316.png,0.0,-2.2355983,-1.9471396,-0.2039711
alexnet_w3_mlp_simclrhn_probe1,1,297,NaN,bottle,bottle,0,0297_sty_dnn_0_bottle_00_bottle-0331-ILSVRC2012-val-00033990.png,bottle-0331-ILSVRC2012-val-00033990.png,1.0,0.6911456,-0.5354198,0.86731267
alexnet_w3_mlp_simclrhn_probe1,1,298,NaN,oven,bottle,0,0298_sty_dnn_0_bottle_00_bottle-0334-ILSVRC2012-val-00036776.png,bottle-0334-ILSVRC2012-val-00036776.png,0.0,-1.413164,0.63255143,-1.4465392
alexnet_w3_mlp_simclrhn_probe1,1,299,NaN,bottle,bottle,0,0299_sty_dnn_0_bottle_00_bottle-0345-ILSVRC2012-val-00044614.png,bottle-0345-ILSVRC2012-val-00044614.png,1.0,1.5994585,-1.1110039,1.9165863
alexnet_w3_mlp_simclrhn_probe1,1,300,NaN,oven,bottle,0,0300_sty_dnn_0_bottle_00_bottle-0347-ILSVRC2012-val-00048539.png,bottle-0347-ILSVRC2012-val-00048539.png,0.0,-1.4974493,-0.6012505,-0.63370824
alexnet_w3_mlp_simclrhn_probe1,1,301,NaN,elephant,car,0,0301_sty_dnn_0_car_00_car-0001-ILSVRC2012-val-00000175.png,car-0001-ILSVRC2012-val-00000175.png,0.0,-5.8776684,-2.1533318,-2.6335037
alexnet_w3_mlp_simclrhn_probe1,1,302,NaN,car,car,0,0302_sty_dnn_0_car_00_car-0004-ILSVRC2012-val-00006084.png,car-0004-ILSVRC2012-val-00006084.png,1.0,1.5163826,1.336853,0.12694657
alexnet_w3_mlp_simclrhn_probe1,1,303,NaN,car,car,0,0303_sty_dnn_0_car_00_car-0005-ILSVRC2012-val-00006220.png,car-0005-ILSVRC2012-val-00006220.png,1.0,0.6263452,-0.09755692,0.5118761
alexnet_w3_mlp_simclrhn_probe1,1,304,NaN,oven,car,0,0304_sty_dnn_0_car_00_car-0010-ILSVRC2012-val-00012600.png,car-0010-ILSVRC2012-val-00012600.png,0.0,-2.9508374,0.2995953,-2.298403
alexnet_w3_mlp_simclrhn_probe1,1,305,NaN,oven,car,0,0305_sty_dnn_0_car_00_car-0012-ILSVRC2012-val-00014447.png,car-0012-ILSVRC2012-val-00014447.png,0.0,-8.956244,-0.96074176,-5.653674
alexnet_w3_mlp_simclrhn_probe1,1,306,NaN,oven,car,0,0306_sty_dnn_0_car_00_car-0013-ILSVRC2012-val-00014541.png,car-0013-ILSVRC2012-val-00014541.png,0.0,-6.0741353,-0.8539412,-3.6912346
alexnet_w3_mlp_simclrhn_probe1,1,307,NaN,car,car,0,0307_sty_dnn_0_car_00_car-0018-ILSVRC2012-val-00018138.png,car-0018-ILSVRC2012-val-00018138.png,1.0,-0.19078965,-1.8890104,1.2008234
alexnet_w3_mlp_simclrhn_probe1,1,308,NaN,bicycle,car,0,0308_sty_dnn_0_car_00_car-0019-ILSVRC2012-val-00018335.png,car-0019-ILSVRC2012-val-00018335.png,0.0,-4.5871067,-0.5625396,-2.8457987
alexnet_w3_mlp_simclrhn_probe1,1,309,NaN,oven,car,0,0309_sty_dnn_0_car_00_car-0021-ILSVRC2012-val-00019695.png,car-0021-ILSVRC2012-val-00019695.png,0.0,-3.113294,-1.8367605,-0.9026454
alexnet_w3_mlp_simclrhn_probe1,1,310,NaN,oven,car,0,0310_sty_dnn_0_car_00_car-0024-ILSVRC2012-val-00023221.png,car-0024-ILSVRC2012-val-00023221.png,0.0,-5.4464417,-0.77678686,-3.3019447
alexnet_w3_mlp_simclrhn_probe1,1,311,NaN,car,car,0,0311_sty_dnn_0_car_00_car-0025-ILSVRC2012-val-00023474.png,car-0025-ILSVRC2012-val-00023474.png,1.0,8.66782,7.2088995,1.0316126
alexnet_w3_mlp_simclrhn_probe1,1,312,NaN,oven,car,0,0312_sty_dnn_0_car_00_car-0028-ILSVRC2012-val-00027049.png,car-0028-ILSVRC2012-val-00027049.png,0.0,-4.7224727,-2.110332,-1.8470623
alexnet_w3_mlp_simclrhn_probe1,1,313,NaN,car,car,0,0313_sty_dnn_0_car_00_car-0029-ILSVRC2012-val-00027081.png,car-0029-ILSVRC2012-val-00027081.png,1.0,0.11997775,-1.0421231,0.82172936
alexnet_w3_mlp_simclrhn_probe1,1,314,NaN,car,car,0,0314_sty_dnn_0_car_00_car-0030-ILSVRC2012-val-00029057.png,car-0030-ILSVRC2012-val-00029057.png,1.0,-1.36135,-1.8803176,0.36696544
alexnet_w3_mlp_simclrhn_probe1,1,315,NaN,bicycle,car,0,0315_sty_dnn_0_car_00_car-0032-ILSVRC2012-val-00030834.png,car-0032-ILSVRC2012-val-00030834.png,0.0,-2.2697802,-0.23063901,-1.4418906
alexnet_w3_mlp_simclrhn_probe1,1,316,NaN,bicycle,car,0,0316_sty_dnn_0_car_00_car-0041-ILSVRC2012-val-00040706.png,car-0041-ILSVRC2012-val-00040706.png,0.0,-3.013191,0.8718463,-2.7471364
alexnet_w3_mlp_simclrhn_probe1,1,317,NaN,bicycle,car,0,0317_sty_dnn_0_car_00_car-0045-ILSVRC2012-val-00042416.png,car-0045-ILSVRC2012-val-00042416.png,0.0,-2.466883,1.0197129,-2.4653957
alexnet_w3_mlp_simclrhn_probe1,1,318,NaN,knife,car,0,0318_sty_dnn_0_car_00_car-0050-ILSVRC2012-val-00048556.png,car-0050-ILSVRC2012-val-00048556.png,0.0,-7.011167,-1.269487,-4.059981
alexnet_w3_mlp_simclrhn_probe1,1,319,NaN,knife,car,0,0319_sty_dnn_0_car_00_car-0052-ILSVRC2012-val-00004387.png,car-0052-ILSVRC2012-val-00004387.png,0.0,-6.218801,-1.9711888,-3.0035152
alexnet_w3_mlp_simclrhn_probe1,1,320,NaN,bicycle,car,0,0320_sty_dnn_0_car_00_car-0053-ILSVRC2012-val-00004685.png,car-0053-ILSVRC2012-val-00004685.png,0.0,-6.1540465,-2.5078244,-2.5782685
alexnet_w3_mlp_simclrhn_probe1,1,321,NaN,elephant,car,0,0321_sty_dnn_0_car_00_car-0054-ILSVRC2012-val-00005500.png,car-0054-ILSVRC2012-val-00005500.png,0.0,-5.856079,-0.70828617,-3.6400392
alexnet_w3_mlp_simclrhn_probe1,1,322,NaN,elephant,car,0,0322_sty_dnn_0_car_00_car-0058-ILSVRC2012-val-00010676.png,car-0058-ILSVRC2012-val-00010676.png,0.0,-4.825432,-0.99311125,-2.70986
alexnet_w3_mlp_simclrhn_probe1,1,323,NaN,oven,car,0,0323_sty_dnn_0_car_00_car-0059-ILSVRC2012-val-00014010.png,car-0059-ILSVRC2012-val-00014010.png,0.0,-3.91838,0.4503414,-3.0891526
alexnet_w3_mlp_simclrhn_probe1,1,324,NaN,oven,car,0,0324_sty_dnn_0_car_00_car-0060-ILSVRC2012-val-00014208.png,car-0060-ILSVRC2012-val-00014208.png,0.0,-3.8339593,0.48001215,-3.0504386
alexnet_w3_mlp_simclrhn_probe1,1,325,NaN,airplane,car,0,0325_sty_dnn_0_car_00_car-0064-ILSVRC2012-val-00016337.png,car-0064-ILSVRC2012-val-00016337.png,0.0,-2.3071716,-0.46496987,-1.3026333
alexnet_w3_mlp_simclrhn_probe1,1,326,NaN,truck,car,0,0326_sty_dnn_0_car_00_car-0065-ILSVRC2012-val-00016613.png,car-0065-ILSVRC2012-val-00016613.png,0.0,0.5128364,1.2601007,-0.52839565
alexnet_w3_mlp_simclrhn_probe1,1,327,NaN,elephant,car,0,0327_sty_dnn_0_car_00_car-0066-ILSVRC2012-val-00018249.png,car-0066-ILSVRC2012-val-00018249.png,0.0,-3.1879845,-2.258657,-0.65713376
alexnet_w3_mlp_simclrhn_probe1,1,328,NaN,car,car,0,0328_sty_dnn_0_car_00_car-0067-ILSVRC2012-val-00018569.png,car-0067-ILSVRC2012-val-00018569.png,1.0,-0.7545841,-2.097096,0.9492993
alexnet_w3_mlp_simclrhn_probe1,1,329,NaN,car,car,0,0329_sty_dnn_0_car_00_car-0069-ILSVRC2012-val-00019647.png,car-0069-ILSVRC2012-val-00019647.png,1.0,3.7740524,2.2796707,1.0566875
alexnet_w3_mlp_simclrhn_probe1,1,330,NaN,elephant,car,0,0330_sty_dnn_0_car_00_car-0079-ILSVRC2012-val-00025028.png,car-0079-ILSVRC2012-val-00025028.png,0.0,-1.435165,-0.22215332,-0.85772884
alexnet_w3_mlp_simclrhn_probe1,1,331,NaN,oven,car,0,0331_sty_dnn_0_car_00_car-0082-ILSVRC2012-val-00027293.png,car-0082-ILSVRC2012-val-00027293.png,0.0,-4.5936427,-2.1496153,-1.7281884
alexnet_w3_mlp_simclrhn_probe1,1,332,NaN,bear,car,0,0332_sty_dnn_0_car_00_car-0083-ILSVRC2012-val-00027508.png,car-0083-ILSVRC2012-val-00027508.png,0.0,-5.7537923,-0.8105907,-3.4953713
alexnet_w3_mlp_simclrhn_probe1,1,333,NaN,elephant,car,0,0333_sty_dnn_0_car_00_car-0086-ILSVRC2012-val-00029454.png,car-0086-ILSVRC2012-val-00029454.png,0.0,-3.187668,-0.88423175,-1.6287755
alexnet_w3_mlp_simclrhn_probe1,1,334,NaN,oven,car,0,0334_sty_dnn_0_car_00_car-0087-ILSVRC2012-val-00031558.png,car-0087-ILSVRC2012-val-00031558.png,0.0,-1.9699335,-0.27570355,-1.1980015
alexnet_w3_mlp_simclrhn_probe1,1,335,NaN,elephant,car,0,0335_sty_dnn_0_car_00_car-0091-ILSVRC2012-val-00036091.png,car-0091-ILSVRC2012-val-00036091.png,0.0,-4.019155,-0.84614176,-2.2436593
alexnet_w3_mlp_simclrhn_probe1,1,336,NaN,car,car,0,0336_sty_dnn_0_car_00_car-0093-ILSVRC2012-val-00038956.png,car-0093-ILSVRC2012-val-00038956.png,1.0,-0.17935121,-2.1672645,1.405667
alexnet_w3_mlp_simclrhn_probe1,1,337,NaN,elephant,car,0,0337_sty_dnn_0_car_00_car-0095-ILSVRC2012-val-00041430.png,car-0095-ILSVRC2012-val-00041430.png,0.0,-3.0473557,-0.868933,-1.5403775
alexnet_w3_mlp_simclrhn_probe1,1,338,NaN,oven,car,0,0338_sty_dnn_0_car_00_car-0096-ILSVRC2012-val-00043824.png,car-0096-ILSVRC2012-val-00043824.png,0.0,-8.548819,-2.3205552,-4.4040475
alexnet_w3_mlp_simclrhn_probe1,1,339,NaN,car,car,0,0339_sty_dnn_0_car_00_car-0103-ILSVRC2012-val-00003478.png,car-0103-ILSVRC2012-val-00003478.png,1.0,-1.8189408,-2.5063066,0.4860411
alexnet_w3_mlp_simclrhn_probe1,1,340,NaN,elephant,car,0,0340_sty_dnn_0_car_00_car-0106-ILSVRC2012-val-00004868.png,car-0106-ILSVRC2012-val-00004868.png,0.0,-3.2818696,0.25644356,-2.5019653
alexnet_w3_mlp_simclrhn_probe1,1,341,NaN,car,car,0,0341_sty_dnn_0_car_00_car-0110-ILSVRC2012-val-00006285.png,car-0110-ILSVRC2012-val-00006285.png,1.0,0.526171,-0.5634171,0.7704552
alexnet_w3_mlp_simclrhn_probe1,1,342,NaN,clock,car,0,0342_sty_dnn_0_car_00_car-0111-ILSVRC2012-val-00007125.png,car-0111-ILSVRC2012-val-00007125.png,0.0,-4.469644,-1.006858,-2.4485598
alexnet_w3_mlp_simclrhn_probe1,1,343,NaN,bicycle,car,0,0343_sty_dnn_0_car_00_car-0117-ILSVRC2012-val-00010983.png,car-0117-ILSVRC2012-val-00010983.png,0.0,-4.2804227,2.5861654,-4.855411
alexnet_w3_mlp_simclrhn_probe1,1,344,NaN,bottle,car,0,0344_sty_dnn_0_car_00_car-0118-ILSVRC2012-val-00012327.png,car-0118-ILSVRC2012-val-00012327.png,0.0,-5.134237,-1.9404758,-2.25833
alexnet_w3_mlp_simclrhn_probe1,1,345,NaN,clock,car,0,0345_sty_dnn_0_car_00_car-0121-ILSVRC2012-val-00016638.png,car-0121-ILSVRC2012-val-00016638.png,0.0,-4.6993494,-1.0264264,-2.597149
alexnet_w3_mlp_simclrhn_probe1,1,346,NaN,car,car,0,0346_sty_dnn_0_car_00_car-0134-ILSVRC2012-val-00032944.png,car-0134-ILSVRC2012-val-00032944.png,1.0,2.8314219,0.37330568,1.7381506
alexnet_w3_mlp_simclrhn_probe1,1,347,NaN,elephant,car,0,0347_sty_dnn_0_car_00_car-0139-ILSVRC2012-val-00037952.png,car-0139-ILSVRC2012-val-00037952.png,0.0,-7.9549956,-0.9872999,-4.926905
alexnet_w3_mlp_simclrhn_probe1,1,348,NaN,oven,car,0,0348_sty_dnn_0_car_00_car-0145-ILSVRC2012-val-00041626.png,car-0145-ILSVRC2012-val-00041626.png,0.0,-4.474649,-0.035352036,-3.139057
alexnet_w3_mlp_simclrhn_probe1,1,349,NaN,bicycle,car,0,0349_sty_dnn_0_car_00_car-0146-ILSVRC2012-val-00043297.png,car-0146-ILSVRC2012-val-00043297.png,0.0,-4.0318146,-0.60411763,-2.4237478
alexnet_w3_mlp_simclrhn_probe1,1,350,NaN,oven,car,0,0350_sty_dnn_0_car_00_car-0149-ILSVRC2012-val-00049427.png,car-0149-ILSVRC2012-val-00049427.png,0.0,-6.207359,-2.3275592,-2.7434328
alexnet_w3_mlp_simclrhn_probe1,1,351,NaN,cat,cat,0,0351_sty_dnn_0_cat_00_cat-0005-ILSVRC2012-val-00005358.png,cat-0005-ILSVRC2012-val-00005358.png,1.0,2.5707796,-1.7338489,3.043832
alexnet_w3_mlp_simclrhn_probe1,1,352,NaN,knife,cat,0,0352_sty_dnn_0_cat_00_cat-0012-ILSVRC2012-val-00012377.png,cat-0012-ILSVRC2012-val-00012377.png,0.0,-2.3909776,-2.0422373,-0.24659666
alexnet_w3_mlp_simclrhn_probe1,1,353,NaN,cat,cat,0,0353_sty_dnn_0_cat_00_cat-0031-ILSVRC2012-val-00030706.png,cat-0031-ILSVRC2012-val-00030706.png,1.0,-0.8264665,-1.7368709,0.6437531
alexnet_w3_mlp_simclrhn_probe1,1,354,NaN,cat,cat,0,0354_sty_dnn_0_cat_00_cat-0032-ILSVRC2012-val-00033420.png,cat-0032-ILSVRC2012-val-00033420.png,1.0,5.223763,-0.8288296,4.2798295
alexnet_w3_mlp_simclrhn_probe1,1,355,NaN,cat,cat,0,0355_sty_dnn_0_cat_00_cat-0034-ILSVRC2012-val-00033837.png,cat-0034-ILSVRC2012-val-00033837.png,1.0,-0.5685704,-2.4762073,1.348903
alexnet_w3_mlp_simclrhn_probe1,1,356,NaN,cat,cat,0,0356_sty_dnn_0_cat_00_cat-0042-ILSVRC2012-val-00040238.png,cat-0042-ILSVRC2012-val-00040238.png,1.0,-1.3205113,-3.4735146,1.5224032
alexnet_w3_mlp_simclrhn_probe1,1,357,NaN,cat,cat,0,0357_sty_dnn_0_cat_00_cat-0045-ILSVRC2012-val-00041570.png,cat-0045-ILSVRC2012-val-00041570.png,1.0,0.9051084,-1.6880839,1.833664
alexnet_w3_mlp_simclrhn_probe1,1,358,NaN,cat,cat,0,0358_sty_dnn_0_cat_00_cat-0050-ILSVRC2012-val-00047911.png,cat-0050-ILSVRC2012-val-00047911.png,1.0,-1.6519524,-1.7799308,0.090494424
alexnet_w3_mlp_simclrhn_probe1,1,359,NaN,elephant,cat,0,0359_sty_dnn_0_cat_00_cat-0054-ILSVRC2012-val-00003295.png,cat-0054-ILSVRC2012-val-00003295.png,0.0,-3.7080271,-2.3334959,-0.9719404
alexnet_w3_mlp_simclrhn_probe1,1,360,NaN,elephant,cat,0,0360_sty_dnn_0_cat_00_cat-0056-ILSVRC2012-val-00007676.png,cat-0056-ILSVRC2012-val-00007676.png,0.0,-0.6316581,-0.35057974,-0.1987524
alexnet_w3_mlp_simclrhn_probe1,1,361,NaN,elephant,cat,0,0361_sty_dnn_0_cat_00_cat-0062-ILSVRC2012-val-00013788.png,cat-0062-ILSVRC2012-val-00013788.png,0.0,-2.7252781,0.69733673,-2.420154
alexnet_w3_mlp_simclrhn_probe1,1,362,NaN,knife,cat,0,0362_sty_dnn_0_cat_00_cat-0064-ILSVRC2012-val-00014860.png,cat-0064-ILSVRC2012-val-00014860.png,0.0,-5.0815725,-0.12088555,-3.5077355
alexnet_w3_mlp_simclrhn_probe1,1,363,NaN,cat,cat,0,0363_sty_dnn_0_cat_00_cat-0069-ILSVRC2012-val-00016399.png,cat-0069-ILSVRC2012-val-00016399.png,1.0,-2.2183797,-3.3168588,0.776742
alexnet_w3_mlp_simclrhn_probe1,1,364,NaN,cat,cat,0,0364_sty_dnn_0_cat_00_cat-0072-ILSVRC2012-val-00019303.png,cat-0072-ILSVRC2012-val-00019303.png,1.0,-0.4785885,-1.5111271,0.7301151
alexnet_w3_mlp_simclrhn_probe1,1,365,NaN,cat,cat,0,0365_sty_dnn_0_cat_00_cat-0073-ILSVRC2012-val-00020140.png,cat-0073-ILSVRC2012-val-00020140.png,1.0,-0.5745517,-2.0930972,1.0737739
alexnet_w3_mlp_simclrhn_probe1,1,366,NaN,clock,cat,0,0366_sty_dnn_0_cat_00_cat-0082-ILSVRC2012-val-00025723.png,cat-0082-ILSVRC2012-val-00025723.png,0.0,-4.6122017,-1.7296633,-2.0382624
alexnet_w3_mlp_simclrhn_probe1,1,367,NaN,cat,cat,0,0367_sty_dnn_0_cat_00_cat-0092-ILSVRC2012-val-00039621.png,cat-0092-ILSVRC2012-val-00039621.png,1.0,1.0166903,-3.723859,3.3520744
alexnet_w3_mlp_simclrhn_probe1,1,368,NaN,cat,cat,0,0368_sty_dnn_0_cat_00_cat-0096-ILSVRC2012-val-00045420.png,cat-0096-ILSVRC2012-val-00045420.png,1.0,-0.38239667,-3.1178684,1.9342706
alexnet_w3_mlp_simclrhn_probe1,1,369,NaN,bottle,cat,0,0369_sty_dnn_0_cat_00_cat-0108-ILSVRC2012-val-00002967.png,cat-0108-ILSVRC2012-val-00002967.png,0.0,-7.7064347,-2.076279,-3.9811213
alexnet_w3_mlp_simclrhn_probe1,1,370,NaN,cat,cat,0,0370_sty_dnn_0_cat_00_cat-0110-ILSVRC2012-val-00004411.png,cat-0110-ILSVRC2012-val-00004411.png,1.0,-0.9794986,-1.6598566,0.48108572
alexnet_w3_mlp_simclrhn_probe1,1,371,NaN,oven,cat,0,0371_sty_dnn_0_cat_00_cat-0113-ILSVRC2012-val-00007808.png,cat-0113-ILSVRC2012-val-00007808.png,0.0,-2.4333985,0.16794594,-1.8394283
alexnet_w3_mlp_simclrhn_probe1,1,372,NaN,cat,cat,0,0372_sty_dnn_0_cat_00_cat-0118-ILSVRC2012-val-00010218.png,cat-0118-ILSVRC2012-val-00010218.png,1.0,2.9133937,-4.5973043,5.310866
alexnet_w3_mlp_simclrhn_probe1,1,373,NaN,cat,cat,0,0373_sty_dnn_0_cat_00_cat-0123-ILSVRC2012-val-00014813.png,cat-0123-ILSVRC2012-val-00014813.png,1.0,-1.1592826,-1.1720654,0.009038813
alexnet_w3_mlp_simclrhn_probe1,1,374,NaN,cat,cat,0,0374_sty_dnn_0_cat_00_cat-0133-ILSVRC2012-val-00023898.png,cat-0133-ILSVRC2012-val-00023898.png,1.0,-0.30975237,-3.889318,2.531135
alexnet_w3_mlp_simclrhn_probe1,1,375,NaN,elephant,cat,0,0375_sty_dnn_0_cat_00_cat-0137-ILSVRC2012-val-00027906.png,cat-0137-ILSVRC2012-val-00027906.png,0.0,-0.69209987,0.034213647,-0.5135812
alexnet_w3_mlp_simclrhn_probe1,1,376,NaN,cat,cat,0,0376_sty_dnn_0_cat_00_cat-0147-ILSVRC2012-val-00041347.png,cat-0147-ILSVRC2012-val-00041347.png,1.0,2.7295797,-4.1725993,4.8805776
alexnet_w3_mlp_simclrhn_probe1,1,377,NaN,knife,cat,0,0377_sty_dnn_0_cat_00_cat-0150-ILSVRC2012-val-00049996.png,cat-0150-ILSVRC2012-val-00049996.png,0.0,-4.5724697,-2.6783686,-1.3393317
alexnet_w3_mlp_simclrhn_probe1,1,378,NaN,bear,cat,0,0378_sty_dnn_0_cat_00_cat-0160-ILSVRC2012-val-00011528.png,cat-0160-ILSVRC2012-val-00011528.png,0.0,-1.1877819,1.6061652,-1.9756191
alexnet_w3_mlp_simclrhn_probe1,1,379,NaN,bicycle,cat,0,0379_sty_dnn_0_cat_00_cat-0162-ILSVRC2012-val-00012173.png,cat-0162-ILSVRC2012-val-00012173.png,0.0,-4.9663634,-2.7741528,-1.550127
alexnet_w3_mlp_simclrhn_probe1,1,380,NaN,knife,cat,0,0380_sty_dnn_0_cat_00_cat-0165-ILSVRC2012-val-00017325.png,cat-0165-ILSVRC2012-val-00017325.png,0.0,-5.6075134,-1.7773225,-2.708354
alexnet_w3_mlp_simclrhn_probe1,1,381,NaN,elephant,cat,0,0381_sty_dnn_0_cat_00_cat-0169-ILSVRC2012-val-00020688.png,cat-0169-ILSVRC2012-val-00020688.png,0.0,-3.5950472,-0.79316795,-1.981228
alexnet_w3_mlp_simclrhn_probe1,1,382,NaN,knife,cat,0,0382_sty_dnn_0_cat_00_cat-0185-ILSVRC2012-val-00038168.png,cat-0185-ILSVRC2012-val-00038168.png,0.0,-3.2151406,-1.6781873,-1.0867901
alexnet_w3_mlp_simclrhn_probe1,1,383,NaN,cat,cat,0,0383_sty_dnn_0_cat_00_cat-0186-ILSVRC2012-val-00039580.png,cat-0186-ILSVRC2012-val-00039580.png,1.0,0.10459051,-2.0091028,1.4946069
alexnet_w3_mlp_simclrhn_probe1,1,384,NaN,chair,cat,0,0384_sty_dnn_0_cat_00_cat-0189-ILSVRC2012-val-00040854.png,cat-0189-ILSVRC2012-val-00040854.png,0.0,-6.072388,1.2693236,-5.1913743
alexnet_w3_mlp_simclrhn_probe1,1,385,NaN,bear,cat,0,0385_sty_dnn_0_cat_00_cat-0202-ILSVRC2012-val-00001496.png,cat-0202-ILSVRC2012-val-00001496.png,0.0,-0.3764296,0.91206,-0.91109973
alexnet_w3_mlp_simclrhn_probe1,1,386,NaN,oven,cat,0,0386_sty_dnn_0_cat_00_cat-0234-ILSVRC2012-val-00028970.png,cat-0234-ILSVRC2012-val-00028970.png,0.0,-2.79879,-1.3670112,-1.0124205
alexnet_w3_mlp_simclrhn_probe1,1,387,NaN,elephant,cat,0,0387_sty_dnn_0_cat_00_cat-0236-ILSVRC2012-val-00031185.png,cat-0236-ILSVRC2012-val-00031185.png,0.0,-3.6458015,-0.88179696,-1.9544466
alexnet_w3_mlp_simclrhn_probe1,1,388,NaN,clock,cat,0,0388_sty_dnn_0_cat_00_cat-0238-ILSVRC2012-val-00033582.png,cat-0238-ILSVRC2012-val-00033582.png,0.0,-5.7990646,-0.4984107,-3.7481284
alexnet_w3_mlp_simclrhn_probe1,1,389,NaN,cat,cat,0,0389_sty_dnn_0_cat_00_cat-0242-ILSVRC2012-val-00040192.png,cat-0242-ILSVRC2012-val-00040192.png,1.0,0.29537788,-1.921763,1.5677555
alexnet_w3_mlp_simclrhn_probe1,1,390,NaN,bear,cat,0,0390_sty_dnn_0_cat_00_cat-0243-ILSVRC2012-val-00040600.png,cat-0243-ILSVRC2012-val-00040600.png,0.0,-1.0568795,0.25336263,-0.9264811
alexnet_w3_mlp_simclrhn_probe1,1,391,NaN,cat,cat,0,0391_sty_dnn_0_cat_00_cat-0247-ILSVRC2012-val-00044374.png,cat-0247-ILSVRC2012-val-00044374.png,1.0,0.2918705,-0.83151853,0.794356
alexnet_w3_mlp_simclrhn_probe1,1,392,NaN,oven,cat,0,0392_sty_dnn_0_cat_00_cat-0258-ILSVRC2012-val-00006112.png,cat-0258-ILSVRC2012-val-00006112.png,0.0,-2.460106,0.9518849,-2.412642
alexnet_w3_mlp_simclrhn_probe1,1,393,NaN,knife,cat,0,0393_sty_dnn_0_cat_00_cat-0260-ILSVRC2012-val-00006612.png,cat-0260-ILSVRC2012-val-00006612.png,0.0,-8.175823,-2.2784743,-4.1700554
alexnet_w3_mlp_simclrhn_probe1,1,394,NaN,cat,cat,0,0394_sty_dnn_0_cat_00_cat-0264-ILSVRC2012-val-00010823.png,cat-0264-ILSVRC2012-val-00010823.png,1.0,-0.86881906,-1.9555644,0.76844496
alexnet_w3_mlp_simclrhn_probe1,1,395,NaN,oven,cat,0,0395_sty_dnn_0_cat_00_cat-0270-ILSVRC2012-val-00017189.png,cat-0270-ILSVRC2012-val-00017189.png,0.0,0.31461617,0.4367459,-0.08635877
alexnet_w3_mlp_simclrhn_probe1,1,396,NaN,knife,cat,0,0396_sty_dnn_0_cat_00_cat-0274-ILSVRC2012-val-00019370.png,cat-0274-ILSVRC2012-val-00019370.png,0.0,-3.368063,-0.8860445,-1.7550521
alexnet_w3_mlp_simclrhn_probe1,1,397,NaN,elephant,cat,0,0397_sty_dnn_0_cat_00_cat-0284-ILSVRC2012-val-00027069.png,cat-0284-ILSVRC2012-val-00027069.png,0.0,-5.046336,-1.5950812,-2.4404058
alexnet_w3_mlp_simclrhn_probe1,1,398,NaN,knife,cat,0,0398_sty_dnn_0_cat_00_cat-0291-ILSVRC2012-val-00035821.png,cat-0291-ILSVRC2012-val-00035821.png,0.0,-3.0969079,-1.0903492,-1.4188513
alexnet_w3_mlp_simclrhn_probe1,1,399,NaN,knife,cat,0,0399_sty_dnn_0_cat_00_cat-0294-ILSVRC2012-val-00037633.png,cat-0294-ILSVRC2012-val-00037633.png,0.0,-3.1075013,-0.5968145,-1.7753237
alexnet_w3_mlp_simclrhn_probe1,1,400,NaN,bicycle,cat,0,0400_sty_dnn_0_cat_00_cat-0298-ILSVRC2012-val-00042529.png,cat-0298-ILSVRC2012-val-00042529.png,0.0,-3.3556147,-2.5118845,-0.5966074
alexnet_w3_mlp_simclrhn_probe1,1,401,NaN,bicycle,chair,0,0401_sty_dnn_0_chair_00_chair-0006-ILSVRC2012-val-00004679.png,chair-0006-ILSVRC2012-val-00004679.png,0.0,-5.071986,-1.1971099,-2.7399514
alexnet_w3_mlp_simclrhn_probe1,1,402,NaN,chair,chair,0,0402_sty_dnn_0_chair_00_chair-0018-ILSVRC2012-val-00013838.png,chair-0018-ILSVRC2012-val-00013838.png,1.0,-0.29335937,-0.7232854,0.3040036
alexnet_w3_mlp_simclrhn_probe1,1,403,NaN,chair,chair,0,0403_sty_dnn_0_chair_00_chair-0022-ILSVRC2012-val-00016403.png,chair-0022-ILSVRC2012-val-00016403.png,1.0,-0.75578964,-0.8906149,0.09533588
alexnet_w3_mlp_simclrhn_probe1,1,404,NaN,elephant,chair,0,0404_sty_dnn_0_chair_00_chair-0024-ILSVRC2012-val-00021099.png,chair-0024-ILSVRC2012-val-00021099.png,0.0,-7.8154726,3.0105183,-7.6551313
alexnet_w3_mlp_simclrhn_probe1,1,405,NaN,oven,chair,0,0405_sty_dnn_0_chair_00_chair-0030-ILSVRC2012-val-00026896.png,chair-0030-ILSVRC2012-val-00026896.png,0.0,-2.6155195,-1.3575702,-0.88950455
alexnet_w3_mlp_simclrhn_probe1,1,406,NaN,bottle,chair,0,0406_sty_dnn_0_chair_00_chair-0033-ILSVRC2012-val-00031805.png,chair-0033-ILSVRC2012-val-00031805.png,0.0,-3.2383697,-0.91737396,-1.641192
alexnet_w3_mlp_simclrhn_probe1,1,407,NaN,elephant,chair,0,0407_sty_dnn_0_chair_00_chair-0039-ILSVRC2012-val-00041772.png,chair-0039-ILSVRC2012-val-00041772.png,0.0,-4.957041,0.4883001,-3.8504376
alexnet_w3_mlp_simclrhn_probe1,1,408,NaN,knife,chair,0,0408_sty_dnn_0_chair_00_chair-0040-ILSVRC2012-val-00042512.png,chair-0040-ILSVRC2012-val-00042512.png,0.0,-5.1892962,-0.8474188,-3.070171
alexnet_w3_mlp_simclrhn_probe1,1,409,NaN,knife,chair,0,0409_sty_dnn_0_chair_00_chair-0045-ILSVRC2012-val-00044898.png,chair-0045-ILSVRC2012-val-00044898.png,0.0,-1.9885511,-0.16642043,-1.288441
alexnet_w3_mlp_simclrhn_probe1,1,410,NaN,bicycle,chair,0,0410_sty_dnn_0_chair_00_chair-0047-ILSVRC2012-val-00045407.png,chair-0047-ILSVRC2012-val-00045407.png,0.0,-1.9909167,-0.8324994,-0.81912476
alexnet_w3_mlp_simclrhn_probe1,1,411,NaN,oven,chair,0,0411_sty_dnn_0_chair_00_chair-0050-ILSVRC2012-val-00049050.png,chair-0050-ILSVRC2012-val-00049050.png,0.0,-5.4445376,-1.9743118,-2.4538202
alexnet_w3_mlp_simclrhn_probe1,1,412,NaN,oven,chair,0,0412_sty_dnn_0_chair_00_chair-0051-ILSVRC2012-val-00001616.png,chair-0051-ILSVRC2012-val-00001616.png,0.0,-3.3095198,-1.516008,-1.2682043
alexnet_w3_mlp_simclrhn_probe1,1,413,NaN,bicycle,chair,0,0413_sty_dnn_0_chair_00_chair-0053-ILSVRC2012-val-00001855.png,chair-0053-ILSVRC2012-val-00001855.png,0.0,-3.6976628,-1.1433809,-1.8061501
alexnet_w3_mlp_simclrhn_probe1,1,414,NaN,bicycle,chair,0,0414_sty_dnn_0_chair_00_chair-0058-ILSVRC2012-val-00005926.png,chair-0058-ILSVRC2012-val-00005926.png,0.0,-5.809842,-3.3831775,-1.715911
alexnet_w3_mlp_simclrhn_probe1,1,415,NaN,bicycle,chair,0,0415_sty_dnn_0_chair_00_chair-0059-ILSVRC2012-val-00006022.png,chair-0059-ILSVRC2012-val-00006022.png,0.0,-2.0722287,-1.8394226,-0.16461876
alexnet_w3_mlp_simclrhn_probe1,1,416,NaN,elephant,chair,0,0416_sty_dnn_0_chair_00_chair-0072-ILSVRC2012-val-00015559.png,chair-0072-ILSVRC2012-val-00015559.png,0.0,-4.907524,-1.3725834,-2.4995806
alexnet_w3_mlp_simclrhn_probe1,1,417,NaN,boat,chair,0,0417_sty_dnn_0_chair_00_chair-0081-ILSVRC2012-val-00033069.png,chair-0081-ILSVRC2012-val-00033069.png,0.0,-0.5881915,-0.50313866,-0.060141448
alexnet_w3_mlp_simclrhn_probe1,1,418,NaN,bicycle,chair,0,0418_sty_dnn_0_chair_00_chair-0085-ILSVRC2012-val-00036175.png,chair-0085-ILSVRC2012-val-00036175.png,0.0,-1.0039754,0.9384687,-1.3735154
alexnet_w3_mlp_simclrhn_probe1,1,419,NaN,chair,chair,0,0419_sty_dnn_0_chair_00_chair-0087-ILSVRC2012-val-00037905.png,chair-0087-ILSVRC2012-val-00037905.png,1.0,-0.86563367,-1.870547,0.71058106
alexnet_w3_mlp_simclrhn_probe1,1,420,NaN,oven,chair,0,0420_sty_dnn_0_chair_00_chair-0092-ILSVRC2012-val-00041814.png,chair-0092-ILSVRC2012-val-00041814.png,0.0,-3.0919256,-0.25795114,-2.0039225
alexnet_w3_mlp_simclrhn_probe1,1,421,NaN,bicycle,chair,0,0421_sty_dnn_0_chair_00_chair-0097-ILSVRC2012-val-00043453.png,chair-0097-ILSVRC2012-val-00043453.png,0.0,-3.4470391,-1.0858335,-1.6696244
alexnet_w3_mlp_simclrhn_probe1,1,422,NaN,oven,chair,0,0422_sty_dnn_0_chair_00_chair-0098-ILSVRC2012-val-00044181.png,chair-0098-ILSVRC2012-val-00044181.png,0.0,-6.838024,0.3727184,-5.098765
alexnet_w3_mlp_simclrhn_probe1,1,423,NaN,chair,chair,0,0423_sty_dnn_0_chair_00_chair-0116-ILSVRC2012-val-00017447.png,chair-0116-ILSVRC2012-val-00017447.png,1.0,-0.10391092,-1.2612321,0.8183497
alexnet_w3_mlp_simclrhn_probe1,1,424,NaN,chair,chair,0,0424_sty_dnn_0_chair_00_chair-0118-ILSVRC2012-val-00018123.png,chair-0118-ILSVRC2012-val-00018123.png,1.0,1.2271993,-1.3058842,1.7911605
alexnet_w3_mlp_simclrhn_probe1,1,425,NaN,knife,chair,0,0425_sty_dnn_0_chair_00_chair-0119-ILSVRC2012-val-00018206.png,chair-0119-ILSVRC2012-val-00018206.png,0.0,-4.3438215,-1.2343127,-2.198755
alexnet_w3_mlp_simclrhn_probe1,1,426,NaN,chair,chair,0,0426_sty_dnn_0_chair_00_chair-0122-ILSVRC2012-val-00019867.png,chair-0122-ILSVRC2012-val-00019867.png,1.0,-1.2388664,-1.9802961,0.52426994
alexnet_w3_mlp_simclrhn_probe1,1,427,NaN,oven,chair,0,0427_sty_dnn_0_chair_00_chair-0123-ILSVRC2012-val-00020924.png,chair-0123-ILSVRC2012-val-00020924.png,0.0,-6.889571,-2.1154828,-3.3757904
alexnet_w3_mlp_simclrhn_probe1,1,428,NaN,bear,chair,0,0428_sty_dnn_0_chair_00_chair-0124-ILSVRC2012-val-00022208.png,chair-0124-ILSVRC2012-val-00022208.png,0.0,-7.931161,-1.1050663,-4.826778
alexnet_w3_mlp_simclrhn_probe1,1,429,NaN,oven,chair,0,0429_sty_dnn_0_chair_00_chair-0127-ILSVRC2012-val-00024620.png,chair-0127-ILSVRC2012-val-00024620.png,0.0,-1.138012,2.536978,-2.5986104
alexnet_w3_mlp_simclrhn_probe1,1,430,NaN,oven,chair,0,0430_sty_dnn_0_chair_00_chair-0133-ILSVRC2012-val-00033406.png,chair-0133-ILSVRC2012-val-00033406.png,0.0,-4.9622173,-2.6549935,-1.6314536
alexnet_w3_mlp_simclrhn_probe1,1,431,NaN,chair,chair,0,0431_sty_dnn_0_chair_00_chair-0136-ILSVRC2012-val-00037994.png,chair-0136-ILSVRC2012-val-00037994.png,1.0,0.44270453,-0.897122,0.94740045
alexnet_w3_mlp_simclrhn_probe1,1,432,NaN,knife,chair,0,0432_sty_dnn_0_chair_00_chair-0138-ILSVRC2012-val-00038750.png,chair-0138-ILSVRC2012-val-00038750.png,0.0,-6.4120593,-1.6745222,-3.3499448
alexnet_w3_mlp_simclrhn_probe1,1,433,NaN,knife,chair,0,0433_sty_dnn_0_chair_00_chair-0141-ILSVRC2012-val-00040076.png,chair-0141-ILSVRC2012-val-00040076.png,0.0,-2.945226,-0.579784,-1.6726202
alexnet_w3_mlp_simclrhn_probe1,1,434,NaN,bottle,chair,0,0434_sty_dnn_0_chair_00_chair-0150-ILSVRC2012-val-00048622.png,chair-0150-ILSVRC2012-val-00048622.png,0.0,-5.689855,-1.9627562,-2.635457
alexnet_w3_mlp_simclrhn_probe1,1,435,NaN,knife,chair,0,0435_sty_dnn_0_chair_00_chair-0154-ILSVRC2012-val-00004705.png,chair-0154-ILSVRC2012-val-00004705.png,0.0,-2.181481,-1.748787,-0.30596074
alexnet_w3_mlp_simclrhn_probe1,1,436,NaN,oven,chair,0,0436_sty_dnn_0_chair_00_chair-0155-ILSVRC2012-val-00005160.png,chair-0155-ILSVRC2012-val-00005160.png,0.0,-3.7704191,0.8978541,-3.3009675
alexnet_w3_mlp_simclrhn_probe1,1,437,NaN,bottle,chair,0,0437_sty_dnn_0_chair_00_chair-0159-ILSVRC2012-val-00011028.png,chair-0159-ILSVRC2012-val-00011028.png,0.0,-2.5110373,-1.9874144,-0.37025738
alexnet_w3_mlp_simclrhn_probe1,1,438,NaN,chair,chair,0,0438_sty_dnn_0_chair_00_chair-0160-ILSVRC2012-val-00012040.png,chair-0160-ILSVRC2012-val-00012040.png,1.0,1.0920713,-1.1138881,1.5598488
alexnet_w3_mlp_simclrhn_probe1,1,439,NaN,chair,chair,0,0439_sty_dnn_0_chair_00_chair-0169-ILSVRC2012-val-00019913.png,chair-0169-ILSVRC2012-val-00019913.png,1.0,0.2976634,-1.1345668,1.0127398
alexnet_w3_mlp_simclrhn_probe1,1,440,NaN,knife,chair,0,0440_sty_dnn_0_chair_00_chair-0170-ILSVRC2012-val-00022051.png,chair-0170-ILSVRC2012-val-00022051.png,0.0,-2.4314785,-1.6626875,-0.5436173
alexnet_w3_mlp_simclrhn_probe1,1,441,NaN,bottle,chair,0,0441_sty_dnn_0_chair_00_chair-0172-ILSVRC2012-val-00023378.png,chair-0172-ILSVRC2012-val-00023378.png,0.0,-3.648436,-1.4527543,-1.5525815
alexnet_w3_mlp_simclrhn_probe1,1,442,NaN,bicycle,chair,0,0442_sty_dnn_0_chair_00_chair-0181-ILSVRC2012-val-00033160.png,chair-0181-ILSVRC2012-val-00033160.png,0.0,-2.672665,-1.8772415,-0.56244946
alexnet_w3_mlp_simclrhn_probe1,1,443,NaN,cat,chair,0,0443_sty_dnn_0_chair_00_chair-0183-ILSVRC2012-val-00035142.png,chair-0183-ILSVRC2012-val-00035142.png,0.0,-4.583186,-1.6477877,-2.0756402
alexnet_w3_mlp_simclrhn_probe1,1,444,NaN,knife,chair,0,0444_sty_dnn_0_chair_00_chair-0188-ILSVRC2012-val-00041720.png,chair-0188-ILSVRC2012-val-00041720.png,0.0,-6.563565,-1.7668798,-3.3917687
alexnet_w3_mlp_simclrhn_probe1,1,445,NaN,elephant,chair,0,0445_sty_dnn_0_chair_00_chair-0189-ILSVRC2012-val-00041883.png,chair-0189-ILSVRC2012-val-00041883.png,0.0,-3.134945,0.5626384,-2.614586
alexnet_w3_mlp_simclrhn_probe1,1,446,NaN,boat,chair,0,0446_sty_dnn_0_chair_00_chair-0192-ILSVRC2012-val-00043870.png,chair-0192-ILSVRC2012-val-00043870.png,0.0,-4.7888513,-1.5789181,-2.2697656
alexnet_w3_mlp_simclrhn_probe1,1,447,NaN,chair,chair,0,0447_sty_dnn_0_chair_00_chair-0193-ILSVRC2012-val-00044295.png,chair-0193-ILSVRC2012-val-00044295.png,1.0,-1.1113255,-1.6856508,0.40610933
alexnet_w3_mlp_simclrhn_probe1,1,448,NaN,chair,chair,0,0448_sty_dnn_0_chair_00_chair-0195-ILSVRC2012-val-00045464.png,chair-0195-ILSVRC2012-val-00045464.png,1.0,-0.12253487,-2.0358176,1.3528953
alexnet_w3_mlp_simclrhn_probe1,1,449,NaN,oven,chair,0,0449_sty_dnn_0_chair_00_chair-0196-ILSVRC2012-val-00045844.png,chair-0196-ILSVRC2012-val-00045844.png,0.0,-3.7136397,-0.66281337,-2.15726
alexnet_w3_mlp_simclrhn_probe1,1,450,NaN,oven,chair,0,0450_sty_dnn_0_chair_00_chair-0199-ILSVRC2012-val-00048901.png,chair-0199-ILSVRC2012-val-00048901.png,0.0,-2.369321,-0.06426972,-1.6299175
alexnet_w3_mlp_simclrhn_probe1,1,451,NaN,clock,clock,0,0451_sty_dnn_0_clock_00_clock-0001-ILSVRC2012-val-00001011.png,clock-0001-ILSVRC2012-val-00001011.png,1.0,-1.9361168,-3.8970342,1.386578
alexnet_w3_mlp_simclrhn_probe1,1,452,NaN,bicycle,clock,0,0452_sty_dnn_0_clock_00_clock-0007-ILSVRC2012-val-00005490.png,clock-0007-ILSVRC2012-val-00005490.png,0.0,-5.8765182,-0.68219227,-3.672943
alexnet_w3_mlp_simclrhn_probe1,1,453,NaN,clock,clock,0,0453_sty_dnn_0_clock_00_clock-0008-ILSVRC2012-val-00005558.png,clock-0008-ILSVRC2012-val-00005558.png,1.0,0.75680107,-0.09426786,0.6017966
alexnet_w3_mlp_simclrhn_probe1,1,454,NaN,clock,clock,0,0454_sty_dnn_0_clock_00_clock-0010-ILSVRC2012-val-00006858.png,clock-0010-ILSVRC2012-val-00006858.png,1.0,-1.748713,-2.3653944,0.43605956
alexnet_w3_mlp_simclrhn_probe1,1,455,NaN,clock,clock,0,0455_sty_dnn_0_clock_00_clock-0013-ILSVRC2012-val-00013244.png,clock-0013-ILSVRC2012-val-00013244.png,1.0,0.16555531,-1.4751779,1.1601737
alexnet_w3_mlp_simclrhn_probe1,1,456,NaN,oven,clock,0,0456_sty_dnn_0_clock_00_clock-0018-ILSVRC2012-val-00015871.png,clock-0018-ILSVRC2012-val-00015871.png,0.0,-3.490929,-3.3080804,-0.12929338
alexnet_w3_mlp_simclrhn_probe1,1,457,NaN,clock,clock,0,0457_sty_dnn_0_clock_00_clock-0020-ILSVRC2012-val-00016889.png,clock-0020-ILSVRC2012-val-00016889.png,1.0,-0.46591637,-1.3902522,0.65360415
alexnet_w3_mlp_simclrhn_probe1,1,458,NaN,clock,clock,0,0458_sty_dnn_0_clock_00_clock-0023-ILSVRC2012-val-00017973.png,clock-0023-ILSVRC2012-val-00017973.png,1.0,2.2797244,-2.3180084,3.251088
alexnet_w3_mlp_simclrhn_probe1,1,459,NaN,clock,clock,0,0459_sty_dnn_0_clock_00_clock-0025-ILSVRC2012-val-00019663.png,clock-0025-ILSVRC2012-val-00019663.png,1.0,-0.7662308,-1.9345628,0.82613546
alexnet_w3_mlp_simclrhn_probe1,1,460,NaN,oven,clock,0,0460_sty_dnn_0_clock_00_clock-0028-ILSVRC2012-val-00021179.png,clock-0028-ILSVRC2012-val-00021179.png,0.0,-1.9552616,-1.706409,-0.17596537
alexnet_w3_mlp_simclrhn_probe1,1,461,NaN,clock,clock,0,0461_sty_dnn_0_clock_00_clock-0029-ILSVRC2012-val-00022719.png,clock-0029-ILSVRC2012-val-00022719.png,1.0,0.3248683,-1.8461609,1.5351495
alexnet_w3_mlp_simclrhn_probe1,1,462,NaN,oven,clock,0,0462_sty_dnn_0_clock_00_clock-0032-ILSVRC2012-val-00024425.png,clock-0032-ILSVRC2012-val-00024425.png,0.0,-1.8649415,-0.9784329,-0.62685627
alexnet_w3_mlp_simclrhn_probe1,1,463,NaN,bottle,clock,0,0463_sty_dnn_0_clock_00_clock-0034-ILSVRC2012-val-00026380.png,clock-0034-ILSVRC2012-val-00026380.png,0.0,-3.835461,-2.100599,-1.2267326
alexnet_w3_mlp_simclrhn_probe1,1,464,NaN,clock,clock,0,0464_sty_dnn_0_clock_00_clock-0038-ILSVRC2012-val-00032489.png,clock-0038-ILSVRC2012-val-00032489.png,1.0,-0.08752245,-0.82103884,0.51867443
alexnet_w3_mlp_simclrhn_probe1,1,465,NaN,elephant,clock,0,0465_sty_dnn_0_clock_00_clock-0039-ILSVRC2012-val-00033429.png,clock-0039-ILSVRC2012-val-00033429.png,0.0,-2.9018953,-0.43118656,-1.747055
alexnet_w3_mlp_simclrhn_probe1,1,466,NaN,clock,clock,0,0466_sty_dnn_0_clock_00_clock-0040-ILSVRC2012-val-00035392.png,clock-0040-ILSVRC2012-val-00035392.png,1.0,4.7185707,-2.2286222,4.9124074
alexnet_w3_mlp_simclrhn_probe1,1,467,NaN,bicycle,clock,0,0467_sty_dnn_0_clock_00_clock-0043-ILSVRC2012-val-00041613.png,clock-0043-ILSVRC2012-val-00041613.png,0.0,-0.0864493,-0.04072523,-0.032331802
alexnet_w3_mlp_simclrhn_probe1,1,468,NaN,oven,clock,0,0468_sty_dnn_0_clock_00_clock-0045-ILSVRC2012-val-00043497.png,clock-0045-ILSVRC2012-val-00043497.png,0.0,-2.4009292,-0.017388523,-1.6854178
alexnet_w3_mlp_simclrhn_probe1,1,469,NaN,bottle,clock,0,0469_sty_dnn_0_clock_00_clock-0046-ILSVRC2012-val-00044049.png,clock-0046-ILSVRC2012-val-00044049.png,0.0,-1.2073237,0.51055723,-1.2147253
alexnet_w3_mlp_simclrhn_probe1,1,470,NaN,clock,clock,0,0470_sty_dnn_0_clock_00_clock-0048-ILSVRC2012-val-00044752.png,clock-0048-ILSVRC2012-val-00044752.png,1.0,-1.9771558,-2.078114,0.07138825
alexnet_w3_mlp_simclrhn_probe1,1,471,NaN,cat,clock,0,0471_sty_dnn_0_clock_00_clock-0052-ILSVRC2012-val-00003721.png,clock-0052-ILSVRC2012-val-00003721.png,0.0,-3.6796856,-1.55364,-1.5033413
alexnet_w3_mlp_simclrhn_probe1,1,472,NaN,oven,clock,0,0472_sty_dnn_0_clock_00_clock-0054-ILSVRC2012-val-00008751.png,clock-0054-ILSVRC2012-val-00008751.png,0.0,-2.8788655,0.07372776,-2.0877988
alexnet_w3_mlp_simclrhn_probe1,1,473,NaN,clock,clock,0,0473_sty_dnn_0_clock_00_clock-0062-ILSVRC2012-val-00014987.png,clock-0062-ILSVRC2012-val-00014987.png,1.0,-0.18500178,-0.37396646,0.1336182
alexnet_w3_mlp_simclrhn_probe1,1,474,NaN,chair,clock,0,0474_sty_dnn_0_clock_00_clock-0063-ILSVRC2012-val-00015628.png,clock-0063-ILSVRC2012-val-00015628.png,0.0,-2.8429062,-2.0288937,-0.57559377
alexnet_w3_mlp_simclrhn_probe1,1,475,NaN,bottle,clock,0,0475_sty_dnn_0_clock_00_clock-0073-ILSVRC2012-val-00026298.png,clock-0073-ILSVRC2012-val-00026298.png,0.0,-3.0861368,-1.7210886,-0.9652348
alexnet_w3_mlp_simclrhn_probe1,1,476,NaN,bottle,clock,0,0476_sty_dnn_0_clock_00_clock-0076-ILSVRC2012-val-00028203.png,clock-0076-ILSVRC2012-val-00028203.png,0.0,-5.2708488,-1.8751773,-2.4011023
alexnet_w3_mlp_simclrhn_probe1,1,477,NaN,knife,clock,0,0477_sty_dnn_0_clock_00_clock-0080-ILSVRC2012-val-00032946.png,clock-0080-ILSVRC2012-val-00032946.png,0.0,-1.7245455,-0.80067086,-0.653278
alexnet_w3_mlp_simclrhn_probe1,1,478,NaN,chair,clock,0,0478_sty_dnn_0_clock_00_clock-0082-ILSVRC2012-val-00033627.png,clock-0082-ILSVRC2012-val-00033627.png,0.0,-4.912592,-1.963517,-2.085311
alexnet_w3_mlp_simclrhn_probe1,1,479,NaN,bottle,clock,0,0479_sty_dnn_0_clock_00_clock-0084-ILSVRC2012-val-00034426.png,clock-0084-ILSVRC2012-val-00034426.png,0.0,0.009078011,0.3562596,-0.24549448
alexnet_w3_mlp_simclrhn_probe1,1,480,NaN,car,clock,0,0480_sty_dnn_0_clock_00_clock-0086-ILSVRC2012-val-00041483.png,clock-0086-ILSVRC2012-val-00041483.png,0.0,-1.9829165,-0.634393,-0.9535501
alexnet_w3_mlp_simclrhn_probe1,1,481,NaN,knife,clock,0,0481_sty_dnn_0_clock_00_clock-0089-ILSVRC2012-val-00042911.png,clock-0089-ILSVRC2012-val-00042911.png,0.0,-4.863971,-1.8006481,-2.1660964
alexnet_w3_mlp_simclrhn_probe1,1,482,NaN,bicycle,clock,0,0482_sty_dnn_0_clock_00_clock-0091-ILSVRC2012-val-00044029.png,clock-0091-ILSVRC2012-val-00044029.png,0.0,-5.279995,-2.1992853,-2.1783907
alexnet_w3_mlp_simclrhn_probe1,1,483,NaN,oven,clock,0,0483_sty_dnn_0_clock_00_clock-0092-ILSVRC2012-val-00044168.png,clock-0092-ILSVRC2012-val-00044168.png,0.0,-4.9782367,-0.67544436,-3.0425339
alexnet_w3_mlp_simclrhn_probe1,1,484,NaN,oven,clock,0,0484_sty_dnn_0_clock_00_clock-0098-ILSVRC2012-val-00048682.png,clock-0098-ILSVRC2012-val-00048682.png,0.0,-3.999472,-2.739474,-0.89095306
alexnet_w3_mlp_simclrhn_probe1,1,485,NaN,oven,clock,0,0485_sty_dnn_0_clock_00_clock-0100-ILSVRC2012-val-00049759.png,clock-0100-ILSVRC2012-val-00049759.png,0.0,-2.1706262,-0.7289406,-1.0194256
alexnet_w3_mlp_simclrhn_probe1,1,486,NaN,oven,clock,0,0486_sty_dnn_0_clock_00_clock-0106-ILSVRC2012-val-00009413.png,clock-0106-ILSVRC2012-val-00009413.png,0.0,-2.3318942,-0.722975,-1.1376777
alexnet_w3_mlp_simclrhn_probe1,1,487,NaN,clock,clock,0,0487_sty_dnn_0_clock_00_clock-0107-ILSVRC2012-val-00010270.png,clock-0107-ILSVRC2012-val-00010270.png,1.0,-2.024083,-3.563076,1.0882325
alexnet_w3_mlp_simclrhn_probe1,1,488,NaN,clock,clock,0,0488_sty_dnn_0_clock_00_clock-0108-ILSVRC2012-val-00011957.png,clock-0108-ILSVRC2012-val-00011957.png,1.0,-2.0058768,-2.7980282,0.56013566
alexnet_w3_mlp_simclrhn_probe1,1,489,NaN,knife,clock,0,0489_sty_dnn_0_clock_00_clock-0110-ILSVRC2012-val-00014035.png,clock-0110-ILSVRC2012-val-00014035.png,0.0,-1.2874674,-0.49275678,-0.56194526
alexnet_w3_mlp_simclrhn_probe1,1,490,NaN,bear,clock,0,0490_sty_dnn_0_clock_00_clock-0112-ILSVRC2012-val-00014635.png,clock-0112-ILSVRC2012-val-00014635.png,0.0,-5.8261514,-1.7680106,-2.8695388
alexnet_w3_mlp_simclrhn_probe1,1,491,NaN,knife,clock,0,0491_sty_dnn_0_clock_00_clock-0118-ILSVRC2012-val-00018443.png,clock-0118-ILSVRC2012-val-00018443.png,0.0,-1.9457899,-1.4922596,-0.32069436
alexnet_w3_mlp_simclrhn_probe1,1,492,NaN,bottle,clock,0,0492_sty_dnn_0_clock_00_clock-0119-ILSVRC2012-val-00018797.png,clock-0119-ILSVRC2012-val-00018797.png,0.0,-0.5023139,-0.47084013,-0.022255328
alexnet_w3_mlp_simclrhn_probe1,1,493,NaN,oven,clock,0,0493_sty_dnn_0_clock_00_clock-0127-ILSVRC2012-val-00030330.png,clock-0127-ILSVRC2012-val-00030330.png,0.0,-4.077544,-1.6130246,-1.7426785
alexnet_w3_mlp_simclrhn_probe1,1,494,NaN,bicycle,clock,0,0494_sty_dnn_0_clock_00_clock-0128-ILSVRC2012-val-00030987.png,clock-0128-ILSVRC2012-val-00030987.png,0.0,-0.96068215,-0.8620045,-0.069775626
alexnet_w3_mlp_simclrhn_probe1,1,495,NaN,bottle,clock,0,0495_sty_dnn_0_clock_00_clock-0129-ILSVRC2012-val-00031861.png,clock-0129-ILSVRC2012-val-00031861.png,0.0,-1.7562212,-0.3638399,-0.9845623
alexnet_w3_mlp_simclrhn_probe1,1,496,NaN,clock,clock,0,0496_sty_dnn_0_clock_00_clock-0130-ILSVRC2012-val-00032136.png,clock-0130-ILSVRC2012-val-00032136.png,1.0,-1.4604424,-2.04292,0.41187394
alexnet_w3_mlp_simclrhn_probe1,1,497,NaN,knife,clock,0,0497_sty_dnn_0_clock_00_clock-0142-ILSVRC2012-val-00041461.png,clock-0142-ILSVRC2012-val-00041461.png,0.0,-2.2323086,-2.0885434,-0.10165736
alexnet_w3_mlp_simclrhn_probe1,1,498,NaN,elephant,clock,0,0498_sty_dnn_0_clock_00_clock-0143-ILSVRC2012-val-00041547.png,clock-0143-ILSVRC2012-val-00041547.png,0.0,-2.3922894,-1.0050895,-0.98089844
alexnet_w3_mlp_simclrhn_probe1,1,499,NaN,clock,clock,0,0499_sty_dnn_0_clock_00_clock-0144-ILSVRC2012-val-00041715.png,clock-0144-ILSVRC2012-val-00041715.png,1.0,1.1984888,-1.4474716,1.8709766
alexnet_w3_mlp_simclrhn_probe1,1,500,NaN,oven,clock,0,0500_sty_dnn_0_clock_00_clock-0145-ILSVRC2012-val-00044685.png,clock-0145-ILSVRC2012-val-00044685.png,0.0,-4.64246,-1.8573318,-1.969383
alexnet_w3_mlp_simclrhn_probe1,1,501,NaN,dog,dog,0,0501_sty_dnn_0_dog_00_dog-0099-ILSVRC2012-val-00048280.png,dog-0099-ILSVRC2012-val-00048280.png,1.0,-0.856481,-4.975008,2.9122384
alexnet_w3_mlp_simclrhn_probe1,1,502,NaN,bottle,dog,0,0502_sty_dnn_0_dog_00_dog-0158-ILSVRC2012-val-00004081.png,dog-0158-ILSVRC2012-val-00004081.png,0.0,-4.2599344,-1.2773876,-2.1089792
alexnet_w3_mlp_simclrhn_probe1,1,503,NaN,elephant,dog,0,0503_sty_dnn_0_dog_00_dog-0220-ILSVRC2012-val-00017568.png,dog-0220-ILSVRC2012-val-00017568.png,0.0,-4.05561,-0.9800178,-2.1747723
alexnet_w3_mlp_simclrhn_probe1,1,504,NaN,elephant,dog,0,0504_sty_dnn_0_dog_00_dog-0247-ILSVRC2012-val-00045683.png,dog-0247-ILSVRC2012-val-00045683.png,0.0,-2.636497,-0.86850613,-1.2501583
alexnet_w3_mlp_simclrhn_probe1,1,505,NaN,bear,dog,0,0505_sty_dnn_0_dog_00_dog-0303-ILSVRC2012-val-00002521.png,dog-0303-ILSVRC2012-val-00002521.png,0.0,-1.9981931,-0.2815048,-1.213882
alexnet_w3_mlp_simclrhn_probe1,1,506,NaN,cat,dog,0,0506_sty_dnn_0_dog_00_dog-0386-ILSVRC2012-val-00034616.png,dog-0386-ILSVRC2012-val-00034616.png,0.0,-0.83221424,-0.6861233,-0.10330188
alexnet_w3_mlp_simclrhn_probe1,1,507,NaN,elephant,dog,0,0507_sty_dnn_0_dog_00_dog-0397-ILSVRC2012-val-00044140.png,dog-0397-ILSVRC2012-val-00044140.png,0.0,-3.7080462,-1.8050705,-1.345607
alexnet_w3_mlp_simclrhn_probe1,1,508,NaN,elephant,dog,0,0508_sty_dnn_0_dog_00_dog-0779-ILSVRC2012-val-00033666.png,dog-0779-ILSVRC2012-val-00033666.png,0.0,-3.1157305,-1.6033478,-1.0694162
alexnet_w3_mlp_simclrhn_probe1,1,509,NaN,dog,dog,0,0509_sty_dnn_0_dog_00_dog-1178-ILSVRC2012-val-00022137.png,dog-1178-ILSVRC2012-val-00022137.png,1.0,-0.7328916,-0.9870528,0.17971909
alexnet_w3_mlp_simclrhn_probe1,1,510,NaN,elephant,dog,0,0510_sty_dnn_0_dog_00_dog-1191-ILSVRC2012-val-00037989.png,dog-1191-ILSVRC2012-val-00037989.png,0.0,-2.6726513,0.117480874,-1.9729214
alexnet_w3_mlp_simclrhn_probe1,1,511,NaN,dog,dog,0,0511_sty_dnn_0_dog_00_dog-1398-ILSVRC2012-val-00046547.png,dog-1398-ILSVRC2012-val-00046547.png,1.0,-3.7779481,-3.994981,0.15346545
alexnet_w3_mlp_simclrhn_probe1,1,512,NaN,knife,dog,0,0512_sty_dnn_0_dog_00_dog-1538-ILSVRC2012-val-00038167.png,dog-1538-ILSVRC2012-val-00038167.png,0.0,-9.084724,-2.1251478,-4.921164
alexnet_w3_mlp_simclrhn_probe1,1,513,NaN,knife,dog,0,0513_sty_dnn_0_dog_00_dog-1613-ILSVRC2012-val-00015923.png,dog-1613-ILSVRC2012-val-00015923.png,0.0,-2.36084,-0.6363323,-1.2194111
alexnet_w3_mlp_simclrhn_probe1,1,514,NaN,oven,dog,0,0514_sty_dnn_0_dog_00_dog-1734-ILSVRC2012-val-00031377.png,dog-1734-ILSVRC2012-val-00031377.png,0.0,-3.5613472,-0.43752006,-2.2088795
