subj,session,trial,rt,object_response,category,condition,imagename,filename,is_correct,targ_act,max_nontarg_act,decision_margin
alexnet_w3_mlp_simclrhn_probe0,1,1,NaN,bicycle,airplane,0,0001_sty_dnn_0_airplane_00_airplane-0001-ILSVRC2012-val-00000631.png,airplane-0001-ILSVRC2012-val-00000631.png,0.0,-6.5512147,-0.41501114,-4.3389516
alexnet_w3_mlp_simclrhn_probe0,1,2,NaN,airplane,airplane,0,0002_sty_dnn_0_airplane_00_airplane-0002-ILSVRC2012-val-00001390.png,airplane-0002-ILSVRC2012-val-00001390.png,1.0,-0.35441604,-1.2011772,0.5987506
alexnet_w3_mlp_simclrhn_probe0,1,3,NaN,bear,airplane,0,0003_sty_dnn_0_airplane_00_airplane-0003-ILSVRC2012-val-00001506.png,airplane-0003-ILSVRC2012-val-00001506.png,0.0,-9.784462,-1.4429324,-5.8983526
alexnet_w3_mlp_simclrhn_probe0,1,4,NaN,bear,airplane,0,0004_sty_dnn_0_airplane_00_airplane-0004-ILSVRC2012-val-00001952.png,airplane-0004-ILSVRC2012-val-00001952.png,0.0,-8.259978,-1.7311095,-4.616607
alexnet_w3_mlp_simclrhn_probe0,1,5,NaN,elephant,airplane,0,0005_sty_dnn_0_airplane_00_airplane-0005-ILSVRC2012-val-00003960.png,airplane-0005-ILSVRC2012-val-00003960.png,0.0,-3.8610735,-2.9638648,-0.63442236
alexnet_w3_mlp_simclrhn_probe0,1,6,NaN,elephant,airplane,0,0006_sty_dnn_0_airplane_00_airplane-0006-ILSVRC2012-val-00008292.png,airplane-0006-ILSVRC2012-val-00008292.png,0.0,-8.349678,-1.5353414,-4.818464
alexnet_w3_mlp_simclrhn_probe0,1,7,NaN,airplane,airplane,0,0007_sty_dnn_0_airplane_00_airplane-0007-ILSVRC2012-val-00009537.png,airplane-0007-ILSVRC2012-val-00009537.png,1.0,2.6181843,-1.0188378,2.571763
alexnet_w3_mlp_simclrhn_probe0,1,8,NaN,elephant,airplane,0,0008_sty_dnn_0_airplane_00_airplane-0008-ILSVRC2012-val-00010597.png,airplane-0008-ILSVRC2012-val-00010597.png,0.0,-7.888709,-1.0123332,-4.8623323
alexnet_w3_mlp_simclrhn_probe0,1,9,NaN,bear,airplane,0,0009_sty_dnn_0_airplane_00_airplane-0009-ILSVRC2012-val-00011168.png,airplane-0009-ILSVRC2012-val-00011168.png,0.0,-7.933457,-1.8427404,-4.306787
alexnet_w3_mlp_simclrhn_probe0,1,10,NaN,bicycle,airplane,0,0010_sty_dnn_0_airplane_00_airplane-0010-ILSVRC2012-val-00012263.png,airplane-0010-ILSVRC2012-val-00012263.png,0.0,-11.140102,-4.9168806,-4.400482
alexnet_w3_mlp_simclrhn_probe0,1,11,NaN,oven,airplane,0,0011_sty_dnn_0_airplane_00_airplane-0011-ILSVRC2012-val-00014425.png,airplane-0011-ILSVRC2012-val-00014425.png,0.0,-10.239637,-3.28901,-4.914836
alexnet_w3_mlp_simclrhn_probe0,1,12,NaN,elephant,airplane,0,0012_sty_dnn_0_airplane_00_airplane-0012-ILSVRC2012-val-00015498.png,airplane-0012-ILSVRC2012-val-00015498.png,0.0,-9.744848,-1.4181376,-5.8878736
alexnet_w3_mlp_simclrhn_probe0,1,13,NaN,elephant,airplane,0,0013_sty_dnn_0_airplane_00_airplane-0013-ILSVRC2012-val-00015636.png,airplane-0013-ILSVRC2012-val-00015636.png,0.0,-9.480693,-2.4727345,-4.955375
alexnet_w3_mlp_simclrhn_probe0,1,14,NaN,oven,airplane,0,0014_sty_dnn_0_airplane_00_airplane-0014-ILSVRC2012-val-00016995.png,airplane-0014-ILSVRC2012-val-00016995.png,0.0,-6.8272753,-2.1915243,-3.2779708
alexnet_w3_mlp_simclrhn_probe0,1,15,NaN,bear,airplane,0,0015_sty_dnn_0_airplane_00_airplane-0015-ILSVRC2012-val-00018616.png,airplane-0015-ILSVRC2012-val-00018616.png,0.0,-6.8770833,-0.5630226,-4.464715
alexnet_w3_mlp_simclrhn_probe0,1,16,NaN,bicycle,airplane,0,0016_sty_dnn_0_airplane_00_airplane-0016-ILSVRC2012-val-00018685.png,airplane-0016-ILSVRC2012-val-00018685.png,0.0,-5.6980357,-3.5487585,-1.5197685
alexnet_w3_mlp_simclrhn_probe0,1,17,NaN,elephant,airplane,0,0017_sty_dnn_0_airplane_00_airplane-0017-ILSVRC2012-val-00019179.png,airplane-0017-ILSVRC2012-val-00019179.png,0.0,-10.891655,-3.667827,-5.108018
alexnet_w3_mlp_simclrhn_probe0,1,18,NaN,elephant,airplane,0,0018_sty_dnn_0_airplane_00_airplane-0018-ILSVRC2012-val-00019677.png,airplane-0018-ILSVRC2012-val-00019677.png,0.0,-4.620204,-3.429884,-0.8416834
alexnet_w3_mlp_simclrhn_probe0,1,19,NaN,knife,airplane,0,0019_sty_dnn_0_airplane_00_airplane-0019-ILSVRC2012-val-00022532.png,airplane-0019-ILSVRC2012-val-00022532.png,0.0,-9.005999,-3.8070383,-3.6762202
alexnet_w3_mlp_simclrhn_probe0,1,20,NaN,bicycle,airplane,0,0020_sty_dnn_0_airplane_00_airplane-0020-ILSVRC2012-val-00022975.png,airplane-0020-ILSVRC2012-val-00022975.png,0.0,-11.113403,-1.5030069,-6.7955766
alexnet_w3_mlp_simclrhn_probe0,1,21,NaN,knife,airplane,0,0021_sty_dnn_0_airplane_00_airplane-0021-ILSVRC2012-val-00023316.png,airplane-0021-ILSVRC2012-val-00023316.png,0.0,-5.708595,-4.5425844,-0.8244939
alexnet_w3_mlp_simclrhn_probe0,1,22,NaN,elephant,airplane,0,0022_sty_dnn_0_airplane_00_airplane-0022-ILSVRC2012-val-00023781.png,airplane-0022-ILSVRC2012-val-00023781.png,0.0,-7.3434887,-1.4789761,-4.1468368
alexnet_w3_mlp_simclrhn_probe0,1,23,NaN,airplane,airplane,0,0023_sty_dnn_0_airplane_00_airplane-0023-ILSVRC2012-val-00023863.png,airplane-0023-ILSVRC2012-val-00023863.png,1.0,1.9166157,-1.3032453,2.2767856
alexnet_w3_mlp_simclrhn_probe0,1,24,NaN,airplane,airplane,0,0024_sty_dnn_0_airplane_00_airplane-0024-ILSVRC2012-val-00024108.png,airplane-0024-ILSVRC2012-val-00024108.png,1.0,-3.301894,-4.50854,0.85322773
alexnet_w3_mlp_simclrhn_probe0,1,25,NaN,boat,airplane,0,0025_sty_dnn_0_airplane_00_airplane-0025-ILSVRC2012-val-00024747.png,airplane-0025-ILSVRC2012-val-00024747.png,0.0,0.06276052,0.38441852,-0.22744657
alexnet_w3_mlp_simclrhn_probe0,1,26,NaN,cat,airplane,0,0026_sty_dnn_0_airplane_00_airplane-0026-ILSVRC2012-val-00026189.png,airplane-0026-ILSVRC2012-val-00026189.png,0.0,-6.840263,-1.7188255,-3.6214032
alexnet_w3_mlp_simclrhn_probe0,1,27,NaN,airplane,airplane,0,0027_sty_dnn_0_airplane_00_airplane-0027-ILSVRC2012-val-00026859.png,airplane-0027-ILSVRC2012-val-00026859.png,1.0,-2.1135051,-2.6731415,0.39572266
alexnet_w3_mlp_simclrhn_probe0,1,28,NaN,elephant,airplane,0,0028_sty_dnn_0_airplane_00_airplane-0028-ILSVRC2012-val-00028019.png,airplane-0028-ILSVRC2012-val-00028019.png,0.0,-7.999443,1.0836146,-6.422692
alexnet_w3_mlp_simclrhn_probe0,1,29,NaN,bicycle,airplane,0,0029_sty_dnn_0_airplane_00_airplane-0029-ILSVRC2012-val-00030319.png,airplane-0029-ILSVRC2012-val-00030319.png,0.0,-8.457622,-0.37784556,-5.7132645
alexnet_w3_mlp_simclrhn_probe0,1,30,NaN,oven,airplane,0,0030_sty_dnn_0_airplane_00_airplane-0030-ILSVRC2012-val-00030411.png,airplane-0030-ILSVRC2012-val-00030411.png,0.0,-6.6649585,-3.7395213,-2.0685966
alexnet_w3_mlp_simclrhn_probe0,1,31,NaN,airplane,airplane,0,0031_sty_dnn_0_airplane_00_airplane-0031-ILSVRC2012-val-00030531.png,airplane-0031-ILSVRC2012-val-00030531.png,1.0,-4.5401263,-5.380006,0.5938845
alexnet_w3_mlp_simclrhn_probe0,1,32,NaN,dog,airplane,0,0032_sty_dnn_0_airplane_00_airplane-0032-ILSVRC2012-val-00032804.png,airplane-0032-ILSVRC2012-val-00032804.png,0.0,-9.500332,-6.967267,-1.7911474
alexnet_w3_mlp_simclrhn_probe0,1,33,NaN,oven,airplane,0,0033_sty_dnn_0_airplane_00_airplane-0033-ILSVRC2012-val-00033161.png,airplane-0033-ILSVRC2012-val-00033161.png,0.0,-9.260545,-2.1745489,-5.0105557
alexnet_w3_mlp_simclrhn_probe0,1,34,NaN,oven,airplane,0,0034_sty_dnn_0_airplane_00_airplane-0034-ILSVRC2012-val-00033441.png,airplane-0034-ILSVRC2012-val-00033441.png,0.0,-7.4170227,-3.7538939,-2.5902233
alexnet_w3_mlp_simclrhn_probe0,1,35,NaN,elephant,airplane,0,0035_sty_dnn_0_airplane_00_airplane-0035-ILSVRC2012-val-00033920.png,airplane-0035-ILSVRC2012-val-00033920.png,0.0,-2.289155,-1.5449543,-0.5262294
alexnet_w3_mlp_simclrhn_probe0,1,36,NaN,cat,airplane,0,0036_sty_dnn_0_airplane_00_airplane-0036-ILSVRC2012-val-00034342.png,airplane-0036-ILSVRC2012-val-00034342.png,0.0,-4.8884916,-4.374729,-0.36328495
alexnet_w3_mlp_simclrhn_probe0,1,37,NaN,bicycle,airplane,0,0037_sty_dnn_0_airplane_00_airplane-0037-ILSVRC2012-val-00035783.png,airplane-0037-ILSVRC2012-val-00035783.png,0.0,-7.709901,-0.7873088,-4.895012
alexnet_w3_mlp_simclrhn_probe0,1,38,NaN,oven,airplane,0,0038_sty_dnn_0_airplane_00_airplane-0038-ILSVRC2012-val-00036394.png,airplane-0038-ILSVRC2012-val-00036394.png,0.0,-9.868474,-1.374926,-6.0058455
alexnet_w3_mlp_simclrhn_probe0,1,39,NaN,bicycle,airplane,0,0039_sty_dnn_0_airplane_00_airplane-0039-ILSVRC2012-val-00037801.png,airplane-0039-ILSVRC2012-val-00037801.png,0.0,-11.0504265,-1.5147028,-6.742775
alexnet_w3_mlp_simclrhn_probe0,1,40,NaN,elephant,airplane,0,0040_sty_dnn_0_airplane_00_airplane-0040-ILSVRC2012-val-00039213.png,airplane-0040-ILSVRC2012-val-00039213.png,0.0,-6.431799,-3.5842652,-2.0135105
alexnet_w3_mlp_simclrhn_probe0,1,41,NaN,knife,airplane,0,0041_sty_dnn_0_airplane_00_airplane-0041-ILSVRC2012-val-00040136.png,airplane-0041-ILSVRC2012-val-00040136.png,0.0,-8.599956,-3.7160993,-3.453408
alexnet_w3_mlp_simclrhn_probe0,1,42,NaN,bicycle,airplane,0,0042_sty_dnn_0_airplane_00_airplane-0042-ILSVRC2012-val-00040547.png,airplane-0042-ILSVRC2012-val-00040547.png,0.0,-13.358926,-0.7521523,-8.914335
alexnet_w3_mlp_simclrhn_probe0,1,43,NaN,bear,airplane,0,0043_sty_dnn_0_airplane_00_airplane-0043-ILSVRC2012-val-00041518.png,airplane-0043-ILSVRC2012-val-00041518.png,0.0,-7.9506664,0.0050927997,-5.6255713
alexnet_w3_mlp_simclrhn_probe0,1,44,NaN,truck,airplane,0,0044_sty_dnn_0_airplane_00_airplane-0044-ILSVRC2012-val-00043242.png,airplane-0044-ILSVRC2012-val-00043242.png,0.0,-5.776094,-1.3696381,-3.115835
alexnet_w3_mlp_simclrhn_probe0,1,45,NaN,bicycle,airplane,0,0045_sty_dnn_0_airplane_00_airplane-0045-ILSVRC2012-val-00044253.png,airplane-0045-ILSVRC2012-val-00044253.png,0.0,-8.655513,-3.6383417,-3.5476756
alexnet_w3_mlp_simclrhn_probe0,1,46,NaN,chair,airplane,0,0046_sty_dnn_0_airplane_00_airplane-0046-ILSVRC2012-val-00046862.png,airplane-0046-ILSVRC2012-val-00046862.png,0.0,-6.735716,-4.4014683,-1.6505623
alexnet_w3_mlp_simclrhn_probe0,1,47,NaN,cat,airplane,0,0047_sty_dnn_0_airplane_00_airplane-0047-ILSVRC2012-val-00046971.png,airplane-0047-ILSVRC2012-val-00046971.png,0.0,-6.023393,-4.237884,-1.2625456
alexnet_w3_mlp_simclrhn_probe0,1,48,NaN,airplane,airplane,0,0048_sty_dnn_0_airplane_00_airplane-0048-ILSVRC2012-val-00047829.png,airplane-0048-ILSVRC2012-val-00047829.png,1.0,-1.5899353,-2.0300443,0.31120408
alexnet_w3_mlp_simclrhn_probe0,1,49,NaN,elephant,airplane,0,0049_sty_dnn_0_airplane_00_airplane-0049-ILSVRC2012-val-00048111.png,airplane-0049-ILSVRC2012-val-00048111.png,0.0,-6.733878,-1.8729436,-3.4371996
alexnet_w3_mlp_simclrhn_probe0,1,50,NaN,airplane,airplane,0,0050_sty_dnn_0_airplane_00_airplane-0050-ILSVRC2012-val-00049097.png,airplane-0050-ILSVRC2012-val-00049097.png,1.0,-1.3304738,-1.4899287,0.11275167
alexnet_w3_mlp_simclrhn_probe0,1,51,NaN,bicycle,bear,0,0051_sty_dnn_0_bear_00_bear-0003-ILSVRC2012-val-00003044.png,bear-0003-ILSVRC2012-val-00003044.png,0.0,-11.287487,-4.2290187,-4.991091
alexnet_w3_mlp_simclrhn_probe0,1,52,NaN,bear,bear,0,0052_sty_dnn_0_bear_00_bear-0005-ILSVRC2012-val-00006703.png,bear-0005-ILSVRC2012-val-00006703.png,1.0,-1.5580206,-2.1681497,0.43142644
alexnet_w3_mlp_simclrhn_probe0,1,53,NaN,elephant,bear,0,0053_sty_dnn_0_bear_00_bear-0009-ILSVRC2012-val-00011967.png,bear-0009-ILSVRC2012-val-00011967.png,0.0,-5.029443,-2.4141986,-1.8492569
alexnet_w3_mlp_simclrhn_probe0,1,54,NaN,bear,bear,0,0054_sty_dnn_0_bear_00_bear-0010-ILSVRC2012-val-00013390.png,bear-0010-ILSVRC2012-val-00013390.png,1.0,-0.7624484,-1.5762432,0.5754398
alexnet_w3_mlp_simclrhn_probe0,1,55,NaN,elephant,bear,0,0055_sty_dnn_0_bear_00_bear-0021-ILSVRC2012-val-00031253.png,bear-0021-ILSVRC2012-val-00031253.png,0.0,-0.2159013,0.29683042,-0.3625561
alexnet_w3_mlp_simclrhn_probe0,1,56,NaN,knife,bear,0,0056_sty_dnn_0_bear_00_bear-0031-ILSVRC2012-val-00039777.png,bear-0031-ILSVRC2012-val-00039777.png,0.0,-9.948599,-5.591644,-3.0808325
alexnet_w3_mlp_simclrhn_probe0,1,57,NaN,elephant,bear,0,0057_sty_dnn_0_bear_00_bear-0035-ILSVRC2012-val-00042274.png,bear-0035-ILSVRC2012-val-00042274.png,0.0,-4.5028753,-2.0222287,-1.7540821
alexnet_w3_mlp_simclrhn_probe0,1,58,NaN,clock,bear,0,0058_sty_dnn_0_bear_00_bear-0043-ILSVRC2012-val-00046763.png,bear-0043-ILSVRC2012-val-00046763.png,0.0,-1.4831762,-0.1816634,-0.9203086
alexnet_w3_mlp_simclrhn_probe0,1,59,NaN,elephant,bear,0,0059_sty_dnn_0_bear_00_bear-0049-ILSVRC2012-val-00049822.png,bear-0049-ILSVRC2012-val-00049822.png,0.0,-5.5014215,-2.6530604,-2.0140953
alexnet_w3_mlp_simclrhn_probe0,1,60,NaN,elephant,bear,0,0060_sty_dnn_0_bear_00_bear-0052-ILSVRC2012-val-00000865.png,bear-0052-ILSVRC2012-val-00000865.png,0.0,0.47744063,0.7544756,-0.1958933
alexnet_w3_mlp_simclrhn_probe0,1,61,NaN,elephant,bear,0,0061_sty_dnn_0_bear_00_bear-0056-ILSVRC2012-val-00007093.png,bear-0056-ILSVRC2012-val-00007093.png,0.0,-11.4536705,-3.4858046,-5.634132
alexnet_w3_mlp_simclrhn_probe0,1,62,NaN,bear,bear,0,0062_sty_dnn_0_bear_00_bear-0058-ILSVRC2012-val-00011726.png,bear-0058-ILSVRC2012-val-00011726.png,1.0,-1.3995358,-2.0627043,0.468931
alexnet_w3_mlp_simclrhn_probe0,1,63,NaN,bear,bear,0,0063_sty_dnn_0_bear_00_bear-0062-ILSVRC2012-val-00014029.png,bear-0062-ILSVRC2012-val-00014029.png,1.0,-0.047601864,-1.2874076,0.8766751
alexnet_w3_mlp_simclrhn_probe0,1,64,NaN,elephant,bear,0,0064_sty_dnn_0_bear_00_bear-0064-ILSVRC2012-val-00016050.png,bear-0064-ILSVRC2012-val-00016050.png,0.0,-4.975982,-1.390374,-2.535408
alexnet_w3_mlp_simclrhn_probe0,1,65,NaN,bicycle,bear,0,0065_sty_dnn_0_bear_00_bear-0066-ILSVRC2012-val-00016621.png,bear-0066-ILSVRC2012-val-00016621.png,0.0,-15.200796,-3.507635,-8.268313
alexnet_w3_mlp_simclrhn_probe0,1,66,NaN,elephant,bear,0,0066_sty_dnn_0_bear_00_bear-0067-ILSVRC2012-val-00017273.png,bear-0067-ILSVRC2012-val-00017273.png,0.0,-3.6576004,-1.7843062,-1.324619
alexnet_w3_mlp_simclrhn_probe0,1,67,NaN,bottle,bear,0,0067_sty_dnn_0_bear_00_bear-0069-ILSVRC2012-val-00018788.png,bear-0069-ILSVRC2012-val-00018788.png,0.0,-11.626175,-5.3378916,-4.446488
alexnet_w3_mlp_simclrhn_probe0,1,68,NaN,elephant,bear,0,0068_sty_dnn_0_bear_00_bear-0071-ILSVRC2012-val-00020050.png,bear-0071-ILSVRC2012-val-00020050.png,0.0,-1.6322764,-1.4886773,-0.10153994
alexnet_w3_mlp_simclrhn_probe0,1,69,NaN,knife,bear,0,0069_sty_dnn_0_bear_00_bear-0073-ILSVRC2012-val-00024289.png,bear-0073-ILSVRC2012-val-00024289.png,0.0,-13.443693,-5.43798,-5.660894
alexnet_w3_mlp_simclrhn_probe0,1,70,NaN,knife,bear,0,0070_sty_dnn_0_bear_00_bear-0074-ILSVRC2012-val-00026962.png,bear-0074-ILSVRC2012-val-00026962.png,0.0,-9.099214,-1.7923435,-5.1667376
alexnet_w3_mlp_simclrhn_probe0,1,71,NaN,cat,bear,0,0071_sty_dnn_0_bear_00_bear-0078-ILSVRC2012-val-00030951.png,bear-0078-ILSVRC2012-val-00030951.png,0.0,-4.2868943,-1.9228253,-1.6716492
alexnet_w3_mlp_simclrhn_probe0,1,72,NaN,elephant,bear,0,0072_sty_dnn_0_bear_00_bear-0085-ILSVRC2012-val-00035292.png,bear-0085-ILSVRC2012-val-00035292.png,0.0,-4.4847307,-1.9585788,-1.7862592
alexnet_w3_mlp_simclrhn_probe0,1,73,NaN,bicycle,bear,0,0073_sty_dnn_0_bear_00_bear-0091-ILSVRC2012-val-00041813.png,bear-0091-ILSVRC2012-val-00041813.png,0.0,-7.712275,-5.103594,-1.8446162
alexnet_w3_mlp_simclrhn_probe0,1,74,NaN,elephant,bear,0,0074_sty_dnn_0_bear_00_bear-0094-ILSVRC2012-val-00043648.png,bear-0094-ILSVRC2012-val-00043648.png,0.0,-3.419496,-0.14316249,-2.3167176
alexnet_w3_mlp_simclrhn_probe0,1,75,NaN,bottle,bear,0,0075_sty_dnn_0_bear_00_bear-0106-ILSVRC2012-val-00007578.png,bear-0106-ILSVRC2012-val-00007578.png,0.0,-7.6385455,-4.4703603,-2.2402453
alexnet_w3_mlp_simclrhn_probe0,1,76,NaN,knife,bear,0,0076_sty_dnn_0_bear_00_bear-0112-ILSVRC2012-val-00016340.png,bear-0112-ILSVRC2012-val-00016340.png,0.0,-4.130905,-1.4910153,-1.866684
alexnet_w3_mlp_simclrhn_probe0,1,77,NaN,bear,bear,0,0077_sty_dnn_0_bear_00_bear-0113-ILSVRC2012-val-00016459.png,bear-0113-ILSVRC2012-val-00016459.png,1.0,0.2391434,-0.4812795,0.5094159
alexnet_w3_mlp_simclrhn_probe0,1,78,NaN,elephant,bear,0,0078_sty_dnn_0_bear_00_bear-0114-ILSVRC2012-val-00017605.png,bear-0114-ILSVRC2012-val-00017605.png,0.0,-3.7515383,-2.2146742,-1.086727
alexnet_w3_mlp_simclrhn_probe0,1,79,NaN,elephant,bear,0,0079_sty_dnn_0_bear_00_bear-0116-ILSVRC2012-val-00020332.png,bear-0116-ILSVRC2012-val-00020332.png,0.0,-3.1042304,-2.055973,-0.7412299
alexnet_w3_mlp_simclrhn_probe0,1,80,NaN,elephant,bear,0,0080_sty_dnn_0_bear_00_bear-0125-ILSVRC2012-val-00028222.png,bear-0125-ILSVRC2012-val-00028222.png,0.0,-2.4040046,-1.2077866,-0.84585387
alexnet_w3_mlp_simclrhn_probe0,1,81,NaN,oven,bear,0,0081_sty_dnn_0_bear_00_bear-0129-ILSVRC2012-val-00030485.png,bear-0129-ILSVRC2012-val-00030485.png,0.0,-5.11706,-3.3450632,-1.2529911
alexnet_w3_mlp_simclrhn_probe0,1,82,NaN,bear,bear,0,0082_sty_dnn_0_bear_00_bear-0131-ILSVRC2012-val-00031877.png,bear-0131-ILSVRC2012-val-00031877.png,1.0,-2.4765959,-2.8466136,0.26164207
alexnet_w3_mlp_simclrhn_probe0,1,83,NaN,knife,bear,0,0083_sty_dnn_0_bear_00_bear-0132-ILSVRC2012-val-00036763.png,bear-0132-ILSVRC2012-val-00036763.png,0.0,-7.5607452,-2.6734722,-3.455824
alexnet_w3_mlp_simclrhn_probe0,1,84,NaN,bicycle,bear,0,0084_sty_dnn_0_bear_00_bear-0139-ILSVRC2012-val-00041156.png,bear-0139-ILSVRC2012-val-00041156.png,0.0,-18.34986,-1.927884,-11.612091
alexnet_w3_mlp_simclrhn_probe0,1,85,NaN,elephant,bear,0,0085_sty_dnn_0_bear_00_bear-0141-ILSVRC2012-val-00042320.png,bear-0141-ILSVRC2012-val-00042320.png,0.0,-3.962366,-3.1864347,-0.54866636
alexnet_w3_mlp_simclrhn_probe0,1,86,NaN,oven,bear,0,0086_sty_dnn_0_bear_00_bear-0143-ILSVRC2012-val-00044126.png,bear-0143-ILSVRC2012-val-00044126.png,0.0,-3.7426999,-2.2151453,-1.0801442
alexnet_w3_mlp_simclrhn_probe0,1,87,NaN,clock,bear,0,0087_sty_dnn_0_bear_00_bear-0149-ILSVRC2012-val-00048105.png,bear-0149-ILSVRC2012-val-00048105.png,0.0,-3.4923968,-0.2827506,-2.2695627
alexnet_w3_mlp_simclrhn_probe0,1,88,NaN,cat,bear,0,0088_sty_dnn_0_bear_00_bear-0154-ILSVRC2012-val-00003499.png,bear-0154-ILSVRC2012-val-00003499.png,0.0,-8.026989,-3.1729667,-3.432312
alexnet_w3_mlp_simclrhn_probe0,1,89,NaN,elephant,bear,0,0089_sty_dnn_0_bear_00_bear-0160-ILSVRC2012-val-00013052.png,bear-0160-ILSVRC2012-val-00013052.png,0.0,-5.610383,-2.6286259,-2.1084208
alexnet_w3_mlp_simclrhn_probe0,1,90,NaN,oven,bear,0,0090_sty_dnn_0_bear_00_bear-0163-ILSVRC2012-val-00016513.png,bear-0163-ILSVRC2012-val-00016513.png,0.0,-4.82859,-3.739438,-0.77014667
alexnet_w3_mlp_simclrhn_probe0,1,91,NaN,bicycle,bear,0,0091_sty_dnn_0_bear_00_bear-0164-ILSVRC2012-val-00018303.png,bear-0164-ILSVRC2012-val-00018303.png,0.0,-9.496515,-2.3848662,-5.0286956
alexnet_w3_mlp_simclrhn_probe0,1,92,NaN,boat,bear,0,0092_sty_dnn_0_bear_00_bear-0165-ILSVRC2012-val-00019901.png,bear-0165-ILSVRC2012-val-00019901.png,0.0,-5.705579,-4.066758,-1.1588212
alexnet_w3_mlp_simclrhn_probe0,1,93,NaN,elephant,bear,0,0093_sty_dnn_0_bear_00_bear-0166-ILSVRC2012-val-00022111.png,bear-0166-ILSVRC2012-val-00022111.png,0.0,-5.926873,-2.7057457,-2.277681
alexnet_w3_mlp_simclrhn_probe0,1,94,NaN,elephant,bear,0,0094_sty_dnn_0_bear_00_bear-0167-ILSVRC2012-val-00022112.png,bear-0167-ILSVRC2012-val-00022112.png,0.0,-4.207991,-2.1753464,-1.4372969
alexnet_w3_mlp_simclrhn_probe0,1,95,NaN,bear,bear,0,0095_sty_dnn_0_bear_00_bear-0168-ILSVRC2012-val-00022698.png,bear-0168-ILSVRC2012-val-00022698.png,1.0,-0.94038624,-1.7687651,0.5857523
alexnet_w3_mlp_simclrhn_probe0,1,96,NaN,knife,bear,0,0096_sty_dnn_0_bear_00_bear-0180-ILSVRC2012-val-00034637.png,bear-0180-ILSVRC2012-val-00034637.png,0.0,-5.8166876,-3.7652898,-1.4505574
alexnet_w3_mlp_simclrhn_probe0,1,97,NaN,bicycle,bear,0,0097_sty_dnn_0_bear_00_bear-0184-ILSVRC2012-val-00038961.png,bear-0184-ILSVRC2012-val-00038961.png,0.0,-16.288305,-3.6309724,-8.950087
alexnet_w3_mlp_simclrhn_probe0,1,98,NaN,elephant,bear,0,0098_sty_dnn_0_bear_00_bear-0188-ILSVRC2012-val-00043016.png,bear-0188-ILSVRC2012-val-00043016.png,0.0,-6.616111,-1.2066264,-3.8250833
alexnet_w3_mlp_simclrhn_probe0,1,99,NaN,bicycle,bear,0,0099_sty_dnn_0_bear_00_bear-0191-ILSVRC2012-val-00044349.png,bear-0191-ILSVRC2012-val-00044349.png,0.0,-6.2901244,-4.916152,-0.9715452
alexnet_w3_mlp_simclrhn_probe0,1,100,NaN,elephant,bear,0,0100_sty_dnn_0_bear_00_bear-0195-ILSVRC2012-val-00045672.png,bear-0195-ILSVRC2012-val-00045672.png,0.0,-3.7866013,-1.6829803,-1.4874847
alexnet_w3_mlp_simclrhn_probe0,1,101,NaN,airplane,bicycle,0,0101_sty_dnn_0_bicycle_00_bicycle-0005-ILSVRC2012-val-00005274.png,bicycle-0005-ILSVRC2012-val-00005274.png,0.0,-2.69952,-1.1766794,-1.0768111
alexnet_w3_mlp_simclrhn_probe0,1,102,NaN,cat,bicycle,0,0102_sty_dnn_0_bicycle_00_bicycle-0007-ILSVRC2012-val-00006395.png,bicycle-0007-ILSVRC2012-val-00006395.png,0.0,-3.561224,-0.5461858,-2.131954
alexnet_w3_mlp_simclrhn_probe0,1,103,NaN,bicycle,bicycle,0,0103_sty_dnn_0_bicycle_00_bicycle-0008-ILSVRC2012-val-00008007.png,bicycle-0008-ILSVRC2012-val-00008007.png,1.0,-2.1302507,-4.522272,1.6914146
alexnet_w3_mlp_simclrhn_probe0,1,104,NaN,bicycle,bicycle,0,0104_sty_dnn_0_bicycle_00_bicycle-0010-ILSVRC2012-val-00010544.png,bicycle-0010-ILSVRC2012-val-00010544.png,1.0,-2.289229,-5.033143,1.9402403
alexnet_w3_mlp_simclrhn_probe0,1,105,NaN,knife,bicycle,0,0105_sty_dnn_0_bicycle_00_bicycle-0011-ILSVRC2012-val-00011821.png,bicycle-0011-ILSVRC2012-val-00011821.png,0.0,-4.5201774,-3.4763992,-0.7380626
alexnet_w3_mlp_simclrhn_probe0,1,106,NaN,bicycle,bicycle,0,0106_sty_dnn_0_bicycle_00_bicycle-0013-ILSVRC2012-val-00012667.png,bicycle-0013-ILSVRC2012-val-00012667.png,1.0,2.450631,-3.8849816,4.4799547
alexnet_w3_mlp_simclrhn_probe0,1,107,NaN,knife,bicycle,0,0107_sty_dnn_0_bicycle_00_bicycle-0014-ILSVRC2012-val-00015483.png,bicycle-0014-ILSVRC2012-val-00015483.png,0.0,-4.3344297,-2.6063983,-1.2219027
alexnet_w3_mlp_simclrhn_probe0,1,108,NaN,bicycle,bicycle,0,0108_sty_dnn_0_bicycle_00_bicycle-0015-ILSVRC2012-val-00015618.png,bicycle-0015-ILSVRC2012-val-00015618.png,1.0,-1.7941471,-6.503941,3.3303273
alexnet_w3_mlp_simclrhn_probe0,1,109,NaN,elephant,bicycle,0,0109_sty_dnn_0_bicycle_00_bicycle-0016-ILSVRC2012-val-00016532.png,bicycle-0016-ILSVRC2012-val-00016532.png,0.0,-5.683448,-0.45095605,-3.6999307
alexnet_w3_mlp_simclrhn_probe0,1,110,NaN,bicycle,bicycle,0,0110_sty_dnn_0_bicycle_00_bicycle-0018-ILSVRC2012-val-00018975.png,bicycle-0018-ILSVRC2012-val-00018975.png,1.0,2.481369,-7.9404087,7.36931
alexnet_w3_mlp_simclrhn_probe0,1,111,NaN,bicycle,bicycle,0,0111_sty_dnn_0_bicycle_00_bicycle-0020-ILSVRC2012-val-00022027.png,bicycle-0020-ILSVRC2012-val-00022027.png,1.0,-0.5928304,-3.9050827,2.342116
alexnet_w3_mlp_simclrhn_probe0,1,112,NaN,bicycle,bicycle,0,0112_sty_dnn_0_bicycle_00_bicycle-0022-ILSVRC2012-val-00023266.png,bicycle-0022-ILSVRC2012-val-00023266.png,1.0,-0.9646292,-1.5617204,0.42220724
alexnet_w3_mlp_simclrhn_probe0,1,113,NaN,bear,bicycle,0,0113_sty_dnn_0_bicycle_00_bicycle-0024-ILSVRC2012-val-00025915.png,bicycle-0024-ILSVRC2012-val-00025915.png,0.0,-8.058175,-2.3335836,-4.0478973
alexnet_w3_mlp_simclrhn_probe0,1,114,NaN,bicycle,bicycle,0,0114_sty_dnn_0_bicycle_00_bicycle-0026-ILSVRC2012-val-00026292.png,bicycle-0026-ILSVRC2012-val-00026292.png,1.0,0.2556508,-5.510386,4.0772038
alexnet_w3_mlp_simclrhn_probe0,1,115,NaN,keyboard,bicycle,0,0115_sty_dnn_0_bicycle_00_bicycle-0030-ILSVRC2012-val-00027620.png,bicycle-0030-ILSVRC2012-val-00027620.png,0.0,-5.935462,-5.08562,-0.6009291
alexnet_w3_mlp_simclrhn_probe0,1,116,NaN,knife,bicycle,0,0116_sty_dnn_0_bicycle_00_bicycle-0032-ILSVRC2012-val-00030070.png,bicycle-0032-ILSVRC2012-val-00030070.png,0.0,-5.193405,-3.4125123,-1.2592814
alexnet_w3_mlp_simclrhn_probe0,1,117,NaN,bicycle,bicycle,0,0117_sty_dnn_0_bicycle_00_bicycle-0033-ILSVRC2012-val-00031498.png,bicycle-0033-ILSVRC2012-val-00031498.png,1.0,-1.6963513,-2.991788,0.91601205
alexnet_w3_mlp_simclrhn_probe0,1,118,NaN,bicycle,bicycle,0,0118_sty_dnn_0_bicycle_00_bicycle-0035-ILSVRC2012-val-00033559.png,bicycle-0035-ILSVRC2012-val-00033559.png,1.0,2.9169462,-3.5798059,4.5938973
alexnet_w3_mlp_simclrhn_probe0,1,119,NaN,bicycle,bicycle,0,0119_sty_dnn_0_bicycle_00_bicycle-0037-ILSVRC2012-val-00036009.png,bicycle-0037-ILSVRC2012-val-00036009.png,1.0,0.045989215,-4.9643173,3.5428216
alexnet_w3_mlp_simclrhn_probe0,1,120,NaN,elephant,bicycle,0,0120_sty_dnn_0_bicycle_00_bicycle-0038-ILSVRC2012-val-00036903.png,bicycle-0038-ILSVRC2012-val-00036903.png,0.0,-5.9419503,-3.3117132,-1.8598585
alexnet_w3_mlp_simclrhn_probe0,1,121,NaN,bicycle,bicycle,0,0121_sty_dnn_0_bicycle_00_bicycle-0039-ILSVRC2012-val-00037292.png,bicycle-0039-ILSVRC2012-val-00037292.png,1.0,0.78996205,-2.061018,2.0159473
alexnet_w3_mlp_simclrhn_probe0,1,122,NaN,bicycle,bicycle,0,0122_sty_dnn_0_bicycle_00_bicycle-0040-ILSVRC2012-val-00037433.png,bicycle-0040-ILSVRC2012-val-00037433.png,1.0,0.1825268,-3.4268453,2.5522115
alexnet_w3_mlp_simclrhn_probe0,1,123,NaN,bicycle,bicycle,0,0123_sty_dnn_0_bicycle_00_bicycle-0043-ILSVRC2012-val-00038415.png,bicycle-0043-ILSVRC2012-val-00038415.png,1.0,-1.7820544,-3.1879528,0.99412024
alexnet_w3_mlp_simclrhn_probe0,1,124,NaN,bicycle,bicycle,0,0124_sty_dnn_0_bicycle_00_bicycle-0044-ILSVRC2012-val-00040027.png,bicycle-0044-ILSVRC2012-val-00040027.png,1.0,-2.924765,-2.948369,0.016690489
alexnet_w3_mlp_simclrhn_probe0,1,125,NaN,bicycle,bicycle,0,0125_sty_dnn_0_bicycle_00_bicycle-0046-ILSVRC2012-val-00042496.png,bicycle-0046-ILSVRC2012-val-00042496.png,1.0,-1.3592982,-2.3957367,0.73287266
alexnet_w3_mlp_simclrhn_probe0,1,126,NaN,bicycle,bicycle,0,0126_sty_dnn_0_bicycle_00_bicycle-0047-ILSVRC2012-val-00043435.png,bicycle-0047-ILSVRC2012-val-00043435.png,1.0,0.29660475,-4.023898,3.0550568
alexnet_w3_mlp_simclrhn_probe0,1,127,NaN,bicycle,bicycle,0,0127_sty_dnn_0_bicycle_00_bicycle-0048-ILSVRC2012-val-00045400.png,bicycle-0048-ILSVRC2012-val-00045400.png,1.0,0.008221224,-4.758234,3.3703928
alexnet_w3_mlp_simclrhn_probe0,1,128,NaN,bicycle,bicycle,0,0128_sty_dnn_0_bicycle_00_bicycle-0050-ILSVRC2012-val-00049382.png,bicycle-0050-ILSVRC2012-val-00049382.png,1.0,-4.8264008,-5.2502203,0.2996857
alexnet_w3_mlp_simclrhn_probe0,1,129,NaN,bicycle,bicycle,0,0129_sty_dnn_0_bicycle_00_bicycle-0054-ILSVRC2012-val-00004147.png,bicycle-0054-ILSVRC2012-val-00004147.png,1.0,-0.8637074,-4.583687,2.6304226
alexnet_w3_mlp_simclrhn_probe0,1,130,NaN,elephant,bicycle,0,0130_sty_dnn_0_bicycle_00_bicycle-0056-ILSVRC2012-val-00005330.png,bicycle-0056-ILSVRC2012-val-00005330.png,0.0,-2.1572056,-1.306191,-0.60175824
alexnet_w3_mlp_simclrhn_probe0,1,131,NaN,bicycle,bicycle,0,0131_sty_dnn_0_bicycle_00_bicycle-0059-ILSVRC2012-val-00011329.png,bicycle-0059-ILSVRC2012-val-00011329.png,1.0,0.64794815,-7.7300453,5.924136
alexnet_w3_mlp_simclrhn_probe0,1,132,NaN,elephant,bicycle,0,0132_sty_dnn_0_bicycle_00_bicycle-0060-ILSVRC2012-val-00011330.png,bicycle-0060-ILSVRC2012-val-00011330.png,0.0,-5.4521875,-4.7668934,-0.48457614
alexnet_w3_mlp_simclrhn_probe0,1,133,NaN,elephant,bicycle,0,0133_sty_dnn_0_bicycle_00_bicycle-0061-ILSVRC2012-val-00012096.png,bicycle-0061-ILSVRC2012-val-00012096.png,0.0,-3.6548119,-1.6868949,-1.3915274
alexnet_w3_mlp_simclrhn_probe0,1,134,NaN,elephant,bicycle,0,0134_sty_dnn_0_bicycle_00_bicycle-0062-ILSVRC2012-val-00015867.png,bicycle-0062-ILSVRC2012-val-00015867.png,0.0,-3.418616,-3.2697096,-0.105292775
alexnet_w3_mlp_simclrhn_probe0,1,135,NaN,bottle,bicycle,0,0135_sty_dnn_0_bicycle_00_bicycle-0064-ILSVRC2012-val-00017103.png,bicycle-0064-ILSVRC2012-val-00017103.png,0.0,-4.6187925,-2.6237347,-1.4107189
alexnet_w3_mlp_simclrhn_probe0,1,136,NaN,elephant,bicycle,0,0136_sty_dnn_0_bicycle_00_bicycle-0067-ILSVRC2012-val-00018304.png,bicycle-0067-ILSVRC2012-val-00018304.png,0.0,-4.6071815,-3.300641,-0.92386365
alexnet_w3_mlp_simclrhn_probe0,1,137,NaN,bear,bicycle,0,0137_sty_dnn_0_bicycle_00_bicycle-0070-ILSVRC2012-val-00020631.png,bicycle-0070-ILSVRC2012-val-00020631.png,0.0,-6.172696,1.1135602,-5.152161
alexnet_w3_mlp_simclrhn_probe0,1,138,NaN,bicycle,bicycle,0,0138_sty_dnn_0_bicycle_00_bicycle-0073-ILSVRC2012-val-00027449.png,bicycle-0073-ILSVRC2012-val-00027449.png,1.0,-1.0413045,-5.558135,3.1938815
alexnet_w3_mlp_simclrhn_probe0,1,139,NaN,bicycle,bicycle,0,0139_sty_dnn_0_bicycle_00_bicycle-0074-ILSVRC2012-val-00028824.png,bicycle-0074-ILSVRC2012-val-00028824.png,1.0,-2.2046678,-2.3230379,0.08370027
alexnet_w3_mlp_simclrhn_probe0,1,140,NaN,bicycle,bicycle,0,0140_sty_dnn_0_bicycle_00_bicycle-0077-ILSVRC2012-val-00030112.png,bicycle-0077-ILSVRC2012-val-00030112.png,1.0,-0.52871513,-3.4459739,2.0628135
alexnet_w3_mlp_simclrhn_probe0,1,141,NaN,bicycle,bicycle,0,0141_sty_dnn_0_bicycle_00_bicycle-0078-ILSVRC2012-val-00030892.png,bicycle-0078-ILSVRC2012-val-00030892.png,1.0,0.7449682,-1.5418025,1.6169912
alexnet_w3_mlp_simclrhn_probe0,1,142,NaN,bicycle,bicycle,0,0142_sty_dnn_0_bicycle_00_bicycle-0079-ILSVRC2012-val-00031485.png,bicycle-0079-ILSVRC2012-val-00031485.png,1.0,-1.0949347,-4.0320454,2.076851
alexnet_w3_mlp_simclrhn_probe0,1,143,NaN,cat,bicycle,0,0143_sty_dnn_0_bicycle_00_bicycle-0080-ILSVRC2012-val-00032009.png,bicycle-0080-ILSVRC2012-val-00032009.png,0.0,-5.3683376,-3.464564,-1.3461713
alexnet_w3_mlp_simclrhn_probe0,1,144,NaN,bicycle,bicycle,0,0144_sty_dnn_0_bicycle_00_bicycle-0081-ILSVRC2012-val-00032967.png,bicycle-0081-ILSVRC2012-val-00032967.png,1.0,-1.3255247,-4.0572987,1.9316559
alexnet_w3_mlp_simclrhn_probe0,1,145,NaN,bicycle,bicycle,0,0145_sty_dnn_0_bicycle_00_bicycle-0085-ILSVRC2012-val-00037438.png,bicycle-0085-ILSVRC2012-val-00037438.png,1.0,-1.6361883,-3.4969933,1.3157879
alexnet_w3_mlp_simclrhn_probe0,1,146,NaN,bicycle,bicycle,0,0146_sty_dnn_0_bicycle_00_bicycle-0089-ILSVRC2012-val-00042393.png,bicycle-0089-ILSVRC2012-val-00042393.png,1.0,0.005004227,-3.55097,2.5144536
alexnet_w3_mlp_simclrhn_probe0,1,147,NaN,bicycle,bicycle,0,0147_sty_dnn_0_bicycle_00_bicycle-0092-ILSVRC2012-val-00043207.png,bicycle-0092-ILSVRC2012-val-00043207.png,1.0,-3.457514,-5.3530602,1.3403536
alexnet_w3_mlp_simclrhn_probe0,1,148,NaN,bicycle,bicycle,0,0148_sty_dnn_0_bicycle_00_bicycle-0094-ILSVRC2012-val-00044080.png,bicycle-0094-ILSVRC2012-val-00044080.png,1.0,2.5059938,-4.826135,5.1845984
alexnet_w3_mlp_simclrhn_probe0,1,149,NaN,bicycle,bicycle,0,0149_sty_dnn_0_bicycle_00_bicycle-0096-ILSVRC2012-val-00045152.png,bicycle-0096-ILSVRC2012-val-00045152.png,1.0,-2.8184788,-6.52877,2.623572
alexnet_w3_mlp_simclrhn_probe0,1,150,NaN,bicycle,bicycle,0,0150_sty_dnn_0_bicycle_00_bicycle-0100-ILSVRC2012-val-00049750.png,bicycle-0100-ILSVRC2012-val-00049750.png,1.0,-1.6762849,-4.5099936,2.0037348
alexnet_w3_mlp_simclrhn_probe0,1,151,NaN,knife,bird,0,0151_sty_dnn_0_bird_00_bird-0009-ILSVRC2012-val-00007530.png,bird-0009-ILSVRC2012-val-00007530.png,0.0,-9.670283,-5.294826,-3.0939155
alexnet_w3_mlp_simclrhn_probe0,1,152,NaN,elephant,bird,0,0152_sty_dnn_0_bird_00_bird-0045-ILSVRC2012-val-00045547.png,bird-0045-ILSVRC2012-val-00045547.png,0.0,-7.081691,-4.4493513,-1.8613452
alexnet_w3_mlp_simclrhn_probe0,1,153,NaN,oven,bird,0,0153_sty_dnn_0_bird_00_bird-0119-ILSVRC2012-val-00016252.png,bird-0119-ILSVRC2012-val-00016252.png,0.0,-4.570542,-4.2262254,-0.24346852
alexnet_w3_mlp_simclrhn_probe0,1,154,NaN,oven,bird,0,0154_sty_dnn_0_bird_00_bird-0122-ILSVRC2012-val-00019236.png,bird-0122-ILSVRC2012-val-00019236.png,0.0,-3.8619447,-1.1744888,-1.9003183
alexnet_w3_mlp_simclrhn_probe0,1,155,NaN,bear,bird,0,0155_sty_dnn_0_bird_00_bird-0157-ILSVRC2012-val-00005336.png,bird-0157-ILSVRC2012-val-00005336.png,0.0,-2.6374876,-2.622941,-0.010286023
alexnet_w3_mlp_simclrhn_probe0,1,156,NaN,clock,bird,0,0156_sty_dnn_0_bird_00_bird-0175-ILSVRC2012-val-00018699.png,bird-0175-ILSVRC2012-val-00018699.png,0.0,-9.176583,-2.9709146,-4.38807
alexnet_w3_mlp_simclrhn_probe0,1,157,NaN,knife,bird,0,0157_sty_dnn_0_bird_00_bird-0228-ILSVRC2012-val-00017712.png,bird-0228-ILSVRC2012-val-00017712.png,0.0,-6.7967486,-5.3995667,-0.9879569
alexnet_w3_mlp_simclrhn_probe0,1,158,NaN,chair,bird,0,0158_sty_dnn_0_bird_00_bird-0238-ILSVRC2012-val-00030657.png,bird-0238-ILSVRC2012-val-00030657.png,0.0,-7.8426347,-2.7947414,-3.5693998
alexnet_w3_mlp_simclrhn_probe0,1,159,NaN,elephant,bird,0,0159_sty_dnn_0_bird_00_bird-0426-ILSVRC2012-val-00030017.png,bird-0426-ILSVRC2012-val-00030017.png,0.0,-5.4386888,-1.2274786,-2.9777753
alexnet_w3_mlp_simclrhn_probe0,1,160,NaN,boat,bird,0,0160_sty_dnn_0_bird_00_bird-0486-ILSVRC2012-val-00037420.png,bird-0486-ILSVRC2012-val-00037420.png,0.0,-6.478984,-2.0644562,-3.1215427
alexnet_w3_mlp_simclrhn_probe0,1,161,NaN,bear,bird,0,0161_sty_dnn_0_bird_00_bird-0513-ILSVRC2012-val-00013223.png,bird-0513-ILSVRC2012-val-00013223.png,0.0,-6.5017605,-2.2863524,-2.980744
alexnet_w3_mlp_simclrhn_probe0,1,162,NaN,bicycle,bird,0,0162_sty_dnn_0_bird_00_bird-0522-ILSVRC2012-val-00020730.png,bird-0522-ILSVRC2012-val-00020730.png,0.0,-4.907904,-2.5594993,-1.660573
alexnet_w3_mlp_simclrhn_probe0,1,163,NaN,bird,bird,0,0163_sty_dnn_0_bird_00_bird-0532-ILSVRC2012-val-00028181.png,bird-0532-ILSVRC2012-val-00028181.png,1.0,-2.5774403,-3.235982,0.4656593
alexnet_w3_mlp_simclrhn_probe0,1,164,NaN,oven,bird,0,0164_sty_dnn_0_bird_00_bird-0624-ILSVRC2012-val-00024514.png,bird-0624-ILSVRC2012-val-00024514.png,0.0,-7.151807,-4.44163,-1.9163846
alexnet_w3_mlp_simclrhn_probe0,1,165,NaN,elephant,bird,0,0165_sty_dnn_0_bird_00_bird-0701-ILSVRC2012-val-00000075.png,bird-0701-ILSVRC2012-val-00000075.png,0.0,-4.564122,-3.67021,-0.63209146
alexnet_w3_mlp_simclrhn_probe0,1,166,NaN,bird,bird,0,0166_sty_dnn_0_bird_00_bird-0752-ILSVRC2012-val-00001596.png,bird-0752-ILSVRC2012-val-00001596.png,1.0,-1.9982265,-3.4948654,1.0582836
alexnet_w3_mlp_simclrhn_probe0,1,167,NaN,cat,bird,0,0167_sty_dnn_0_bird_00_bird-0754-ILSVRC2012-val-00002846.png,bird-0754-ILSVRC2012-val-00002846.png,0.0,-5.6751204,-3.6968338,-1.3988599
alexnet_w3_mlp_simclrhn_probe0,1,168,NaN,bear,bird,0,0168_sty_dnn_0_bird_00_bird-0822-ILSVRC2012-val-00025200.png,bird-0822-ILSVRC2012-val-00025200.png,0.0,-5.106641,-2.9013278,-1.5593917
alexnet_w3_mlp_simclrhn_probe0,1,169,NaN,knife,bird,0,0169_sty_dnn_0_bird_00_bird-0896-ILSVRC2012-val-00046621.png,bird-0896-ILSVRC2012-val-00046621.png,0.0,-5.522168,-2.5369182,-2.1108906
alexnet_w3_mlp_simclrhn_probe0,1,170,NaN,oven,bird,0,0170_sty_dnn_0_bird_00_bird-0995-ILSVRC2012-val-00046534.png,bird-0995-ILSVRC2012-val-00046534.png,0.0,-6.7997227,-3.2574277,-2.5047808
alexnet_w3_mlp_simclrhn_probe0,1,171,NaN,oven,bird,0,0171_sty_dnn_0_bird_00_bird-1052-ILSVRC2012-val-00003884.png,bird-1052-ILSVRC2012-val-00003884.png,0.0,-4.881261,-1.406924,-2.4567273
alexnet_w3_mlp_simclrhn_probe0,1,172,NaN,oven,bird,0,0172_sty_dnn_0_bird_00_bird-1093-ILSVRC2012-val-00044082.png,bird-1093-ILSVRC2012-val-00044082.png,0.0,-4.3580084,-1.5937788,-1.9546055
alexnet_w3_mlp_simclrhn_probe0,1,173,NaN,knife,bird,0,0173_sty_dnn_0_bird_00_bird-1172-ILSVRC2012-val-00022442.png,bird-1172-ILSVRC2012-val-00022442.png,0.0,-6.66206,-3.9381542,-1.9260921
alexnet_w3_mlp_simclrhn_probe0,1,174,NaN,cat,bird,0,0174_sty_dnn_0_bird_00_bird-1188-ILSVRC2012-val-00040014.png,bird-1188-ILSVRC2012-val-00040014.png,0.0,-3.8339024,-2.483264,-0.9550456
alexnet_w3_mlp_simclrhn_probe0,1,175,NaN,bear,bird,0,0175_sty_dnn_0_bird_00_bird-1198-ILSVRC2012-val-00048142.png,bird-1198-ILSVRC2012-val-00048142.png,0.0,-4.5299973,-2.4084039,-1.5001931
alexnet_w3_mlp_simclrhn_probe0,1,176,NaN,knife,bird,0,0176_sty_dnn_0_bird_00_bird-1256-ILSVRC2012-val-00005779.png,bird-1256-ILSVRC2012-val-00005779.png,0.0,-7.8317876,-3.7766473,-2.8674173
alexnet_w3_mlp_simclrhn_probe0,1,177,NaN,bear,bird,0,0177_sty_dnn_0_bird_00_bird-1274-ILSVRC2012-val-00025449.png,bird-1274-ILSVRC2012-val-00025449.png,0.0,-6.385471,-0.76451135,-3.9746184
alexnet_w3_mlp_simclrhn_probe0,1,178,NaN,elephant,bird,0,0178_sty_dnn_0_bird_00_bird-1326-ILSVRC2012-val-00025658.png,bird-1326-ILSVRC2012-val-00025658.png,0.0,-4.4858627,-2.658141,-1.2923945
alexnet_w3_mlp_simclrhn_probe0,1,179,NaN,knife,bird,0,0179_sty_dnn_0_bird_00_bird-1394-ILSVRC2012-val-00040051.png,bird-1394-ILSVRC2012-val-00040051.png,0.0,-4.9962525,-4.283077,-0.5042914
alexnet_w3_mlp_simclrhn_probe0,1,180,NaN,elephant,bird,0,0180_sty_dnn_0_bird_00_bird-1452-ILSVRC2012-val-00002997.png,bird-1452-ILSVRC2012-val-00002997.png,0.0,-3.8938816,-0.81962633,-2.1738267
alexnet_w3_mlp_simclrhn_probe0,1,181,NaN,bicycle,bird,0,0181_sty_dnn_0_bird_00_bird-1551-ILSVRC2012-val-00000690.png,bird-1551-ILSVRC2012-val-00000690.png,0.0,-2.798709,-2.267531,-0.37559956
alexnet_w3_mlp_simclrhn_probe0,1,182,NaN,knife,bird,0,0182_sty_dnn_0_bird_00_bird-1646-ILSVRC2012-val-00039398.png,bird-1646-ILSVRC2012-val-00039398.png,0.0,-4.5097237,-1.5915332,-2.0634723
alexnet_w3_mlp_simclrhn_probe0,1,183,NaN,bicycle,bird,0,0183_sty_dnn_0_bird_00_bird-1861-ILSVRC2012-val-00007811.png,bird-1861-ILSVRC2012-val-00007811.png,0.0,-3.786458,-1.1875477,-1.8377072
alexnet_w3_mlp_simclrhn_probe0,1,184,NaN,clock,bird,0,0184_sty_dnn_0_bird_00_bird-1865-ILSVRC2012-val-00009672.png,bird-1865-ILSVRC2012-val-00009672.png,0.0,-7.325449,-1.0438957,-4.441729
alexnet_w3_mlp_simclrhn_probe0,1,185,NaN,bear,bird,0,0185_sty_dnn_0_bird_00_bird-1913-ILSVRC2012-val-00012475.png,bird-1913-ILSVRC2012-val-00012475.png,0.0,-4.231117,-1.5664887,-1.8841766
alexnet_w3_mlp_simclrhn_probe0,1,186,NaN,elephant,bird,0,0186_sty_dnn_0_bird_00_bird-1941-ILSVRC2012-val-00042829.png,bird-1941-ILSVRC2012-val-00042829.png,0.0,-6.163355,-4.42581,-1.2286298
alexnet_w3_mlp_simclrhn_probe0,1,187,NaN,bear,bird,0,0187_sty_dnn_0_bird_00_bird-1971-ILSVRC2012-val-00023024.png,bird-1971-ILSVRC2012-val-00023024.png,0.0,-5.7339654,0.56664944,-4.4552073
alexnet_w3_mlp_simclrhn_probe0,1,188,NaN,elephant,bird,0,0188_sty_dnn_0_bird_00_bird-2011-ILSVRC2012-val-00008842.png,bird-2011-ILSVRC2012-val-00008842.png,0.0,-5.8099027,-0.65976065,-3.6417005
alexnet_w3_mlp_simclrhn_probe0,1,189,NaN,bear,bird,0,0189_sty_dnn_0_bird_00_bird-2082-ILSVRC2012-val-00036457.png,bird-2082-ILSVRC2012-val-00036457.png,0.0,-3.7481356,-1.929417,-1.2860283
alexnet_w3_mlp_simclrhn_probe0,1,190,NaN,chair,bird,0,0190_sty_dnn_0_bird_00_bird-2118-ILSVRC2012-val-00021926.png,bird-2118-ILSVRC2012-val-00021926.png,0.0,-9.030964,-3.4326801,-3.9585845
alexnet_w3_mlp_simclrhn_probe0,1,191,NaN,oven,bird,0,0191_sty_dnn_0_bird_00_bird-2144-ILSVRC2012-val-00044377.png,bird-2144-ILSVRC2012-val-00044377.png,0.0,-6.3142023,-2.9969301,-2.3456657
alexnet_w3_mlp_simclrhn_probe0,1,192,NaN,cat,bird,0,0192_sty_dnn_0_bird_00_bird-2178-ILSVRC2012-val-00026510.png,bird-2178-ILSVRC2012-val-00026510.png,0.0,-4.8071413,-1.8487831,-2.0918753
alexnet_w3_mlp_simclrhn_probe0,1,193,NaN,elephant,bird,0,0193_sty_dnn_0_bird_00_bird-2184-ILSVRC2012-val-00034910.png,bird-2184-ILSVRC2012-val-00034910.png,0.0,-6.6352434,-2.7361617,-2.7570672
alexnet_w3_mlp_simclrhn_probe0,1,194,NaN,elephant,bird,0,0194_sty_dnn_0_bird_00_bird-2221-ILSVRC2012-val-00014977.png,bird-2221-ILSVRC2012-val-00014977.png,0.0,-8.978775,-3.4008026,-3.9442222
alexnet_w3_mlp_simclrhn_probe0,1,195,NaN,bicycle,bird,0,0195_sty_dnn_0_bird_00_bird-2222-ILSVRC2012-val-00015392.png,bird-2222-ILSVRC2012-val-00015392.png,0.0,-5.145103,-1.7559608,-2.3964853
alexnet_w3_mlp_simclrhn_probe0,1,196,NaN,oven,bird,0,0196_sty_dnn_0_bird_00_bird-2248-ILSVRC2012-val-00044992.png,bird-2248-ILSVRC2012-val-00044992.png,0.0,-6.871263,-1.7615047,-3.6131449
alexnet_w3_mlp_simclrhn_probe0,1,197,NaN,bird,bird,0,0197_sty_dnn_0_bird_00_bird-2322-ILSVRC2012-val-00023492.png,bird-2322-ILSVRC2012-val-00023492.png,1.0,-4.6846576,-4.744433,0.042267557
alexnet_w3_mlp_simclrhn_probe0,1,198,NaN,elephant,bird,0,0198_sty_dnn_0_bird_00_bird-2405-ILSVRC2012-val-00007988.png,bird-2405-ILSVRC2012-val-00007988.png,0.0,-4.5236335,-1.0428486,-2.4612865
alexnet_w3_mlp_simclrhn_probe0,1,199,NaN,elephant,bird,0,0199_sty_dnn_0_bird_00_bird-2410-ILSVRC2012-val-00010355.png,bird-2410-ILSVRC2012-val-00010355.png,0.0,-5.5098596,-1.339053,-2.9492056
alexnet_w3_mlp_simclrhn_probe0,1,200,NaN,bear,bird,0,0200_sty_dnn_0_bird_00_bird-2433-ILSVRC2012-val-00028670.png,bird-2433-ILSVRC2012-val-00028670.png,0.0,-4.788993,-1.3269467,-2.4480364
alexnet_w3_mlp_simclrhn_probe0,1,201,NaN,cat,boat,0,0201_sty_dnn_0_boat_00_boat-0005-ILSVRC2012-val-00004909.png,boat-0005-ILSVRC2012-val-00004909.png,0.0,-11.501396,-3.983302,-5.3160954
alexnet_w3_mlp_simclrhn_probe0,1,202,NaN,elephant,boat,0,0202_sty_dnn_0_boat_00_boat-0011-ILSVRC2012-val-00011563.png,boat-0011-ILSVRC2012-val-00011563.png,0.0,-5.2911086,-3.188437,-1.4868134
alexnet_w3_mlp_simclrhn_probe0,1,203,NaN,bicycle,boat,0,0203_sty_dnn_0_boat_00_boat-0026-ILSVRC2012-val-00026341.png,boat-0026-ILSVRC2012-val-00026341.png,0.0,-6.174198,-2.2404077,-2.78161
alexnet_w3_mlp_simclrhn_probe0,1,204,NaN,elephant,boat,0,0204_sty_dnn_0_boat_00_boat-0033-ILSVRC2012-val-00030824.png,boat-0033-ILSVRC2012-val-00030824.png,0.0,-7.1282287,-1.7279882,-3.8185468
alexnet_w3_mlp_simclrhn_probe0,1,205,NaN,elephant,boat,0,0205_sty_dnn_0_boat_00_boat-0036-ILSVRC2012-val-00032433.png,boat-0036-ILSVRC2012-val-00032433.png,0.0,-7.52349,-2.1356533,-3.8097758
alexnet_w3_mlp_simclrhn_probe0,1,206,NaN,bear,boat,0,0206_sty_dnn_0_boat_00_boat-0039-ILSVRC2012-val-00033883.png,boat-0039-ILSVRC2012-val-00033883.png,0.0,-4.3988037,-3.8261943,-0.40489602
alexnet_w3_mlp_simclrhn_probe0,1,207,NaN,bear,boat,0,0207_sty_dnn_0_boat_00_boat-0042-ILSVRC2012-val-00039945.png,boat-0042-ILSVRC2012-val-00039945.png,0.0,-6.3759704,-0.18148354,-4.3801637
alexnet_w3_mlp_simclrhn_probe0,1,208,NaN,elephant,boat,0,0208_sty_dnn_0_boat_00_boat-0044-ILSVRC2012-val-00041227.png,boat-0044-ILSVRC2012-val-00041227.png,0.0,-2.1777196,-1.4951849,-0.48262492
alexnet_w3_mlp_simclrhn_probe0,1,209,NaN,oven,boat,0,0209_sty_dnn_0_boat_00_boat-0048-ILSVRC2012-val-00046387.png,boat-0048-ILSVRC2012-val-00046387.png,0.0,-7.006612,-1.6367965,-3.7970328
alexnet_w3_mlp_simclrhn_probe0,1,210,NaN,elephant,boat,0,0210_sty_dnn_0_boat_00_boat-0053-ILSVRC2012-val-00005918.png,boat-0053-ILSVRC2012-val-00005918.png,0.0,-3.9362931,-0.09239185,-2.7180486
alexnet_w3_mlp_simclrhn_probe0,1,211,NaN,elephant,boat,0,0211_sty_dnn_0_boat_00_boat-0061-ILSVRC2012-val-00011292.png,boat-0061-ILSVRC2012-val-00011292.png,0.0,-4.6964293,-1.906075,-1.9730785
alexnet_w3_mlp_simclrhn_probe0,1,212,NaN,bottle,boat,0,0212_sty_dnn_0_boat_00_boat-0064-ILSVRC2012-val-00013366.png,boat-0064-ILSVRC2012-val-00013366.png,0.0,-3.5142875,-3.0085046,-0.35764247
alexnet_w3_mlp_simclrhn_probe0,1,213,NaN,bicycle,boat,0,0213_sty_dnn_0_boat_00_boat-0066-ILSVRC2012-val-00013961.png,boat-0066-ILSVRC2012-val-00013961.png,0.0,-5.255818,-2.2435503,-2.1299949
alexnet_w3_mlp_simclrhn_probe0,1,214,NaN,elephant,boat,0,0214_sty_dnn_0_boat_00_boat-0070-ILSVRC2012-val-00017026.png,boat-0070-ILSVRC2012-val-00017026.png,0.0,-9.259003,0.01782301,-6.5597067
alexnet_w3_mlp_simclrhn_probe0,1,215,NaN,bear,boat,0,0215_sty_dnn_0_boat_00_boat-0073-ILSVRC2012-val-00018158.png,boat-0073-ILSVRC2012-val-00018158.png,0.0,-4.7741327,-2.0867841,-1.9002424
alexnet_w3_mlp_simclrhn_probe0,1,216,NaN,bicycle,boat,0,0216_sty_dnn_0_boat_00_boat-0076-ILSVRC2012-val-00020486.png,boat-0076-ILSVRC2012-val-00020486.png,0.0,-4.7762365,0.9628602,-4.058154
alexnet_w3_mlp_simclrhn_probe0,1,217,NaN,elephant,boat,0,0217_sty_dnn_0_boat_00_boat-0077-ILSVRC2012-val-00021948.png,boat-0077-ILSVRC2012-val-00021948.png,0.0,-3.3514075,-2.4362743,-0.64709693
alexnet_w3_mlp_simclrhn_probe0,1,218,NaN,bicycle,boat,0,0218_sty_dnn_0_boat_00_boat-0079-ILSVRC2012-val-00025681.png,boat-0079-ILSVRC2012-val-00025681.png,0.0,-5.2868495,0.33160266,-3.9728456
alexnet_w3_mlp_simclrhn_probe0,1,219,NaN,knife,boat,0,0219_sty_dnn_0_boat_00_boat-0082-ILSVRC2012-val-00027612.png,boat-0082-ILSVRC2012-val-00027612.png,0.0,-7.656218,-5.065072,-1.832217
alexnet_w3_mlp_simclrhn_probe0,1,220,NaN,oven,boat,0,0220_sty_dnn_0_boat_00_boat-0083-ILSVRC2012-val-00034455.png,boat-0083-ILSVRC2012-val-00034455.png,0.0,-5.5530496,-2.6718845,-2.0372913
alexnet_w3_mlp_simclrhn_probe0,1,221,NaN,cat,boat,0,0221_sty_dnn_0_boat_00_boat-0086-ILSVRC2012-val-00039559.png,boat-0086-ILSVRC2012-val-00039559.png,0.0,-6.488639,-3.2130597,-2.3161843
alexnet_w3_mlp_simclrhn_probe0,1,222,NaN,bicycle,boat,0,0222_sty_dnn_0_boat_00_boat-0098-ILSVRC2012-val-00047961.png,boat-0098-ILSVRC2012-val-00047961.png,0.0,-9.207102,-3.1461797,-4.2857194
alexnet_w3_mlp_simclrhn_probe0,1,223,NaN,elephant,boat,0,0223_sty_dnn_0_boat_00_boat-0100-ILSVRC2012-val-00048371.png,boat-0100-ILSVRC2012-val-00048371.png,0.0,-4.585424,-1.265359,-2.3476405
alexnet_w3_mlp_simclrhn_probe0,1,224,NaN,keyboard,boat,0,0224_sty_dnn_0_boat_00_boat-0103-ILSVRC2012-val-00002308.png,boat-0103-ILSVRC2012-val-00002308.png,0.0,-9.740524,-3.1058261,-4.69144
alexnet_w3_mlp_simclrhn_probe0,1,225,NaN,bicycle,boat,0,0225_sty_dnn_0_boat_00_boat-0107-ILSVRC2012-val-00004492.png,boat-0107-ILSVRC2012-val-00004492.png,0.0,-2.22641,-2.1727488,-0.037944134
alexnet_w3_mlp_simclrhn_probe0,1,226,NaN,oven,boat,0,0226_sty_dnn_0_boat_00_boat-0111-ILSVRC2012-val-00009680.png,boat-0111-ILSVRC2012-val-00009680.png,0.0,-6.6660204,0.3023004,-4.927347
alexnet_w3_mlp_simclrhn_probe0,1,227,NaN,boat,boat,0,0227_sty_dnn_0_boat_00_boat-0121-ILSVRC2012-val-00016970.png,boat-0121-ILSVRC2012-val-00016970.png,1.0,-1.0117439,-1.7300134,0.5078932
alexnet_w3_mlp_simclrhn_probe0,1,228,NaN,oven,boat,0,0228_sty_dnn_0_boat_00_boat-0129-ILSVRC2012-val-00027504.png,boat-0129-ILSVRC2012-val-00027504.png,0.0,-5.287343,-2.7067554,-1.824751
alexnet_w3_mlp_simclrhn_probe0,1,229,NaN,bicycle,boat,0,0229_sty_dnn_0_boat_00_boat-0137-ILSVRC2012-val-00035374.png,boat-0137-ILSVRC2012-val-00035374.png,0.0,-10.3541765,-1.7520756,-6.0826044
alexnet_w3_mlp_simclrhn_probe0,1,230,NaN,oven,boat,0,0230_sty_dnn_0_boat_00_boat-0142-ILSVRC2012-val-00040889.png,boat-0142-ILSVRC2012-val-00040889.png,0.0,-7.915735,-2.6557393,-3.7193785
alexnet_w3_mlp_simclrhn_probe0,1,231,NaN,bear,boat,0,0231_sty_dnn_0_boat_00_boat-0153-ILSVRC2012-val-00002696.png,boat-0153-ILSVRC2012-val-00002696.png,0.0,-3.992207,-2.7622495,-0.86971134
alexnet_w3_mlp_simclrhn_probe0,1,232,NaN,bicycle,boat,0,0232_sty_dnn_0_boat_00_boat-0160-ILSVRC2012-val-00008630.png,boat-0160-ILSVRC2012-val-00008630.png,0.0,-4.093261,-3.006407,-0.76852167
alexnet_w3_mlp_simclrhn_probe0,1,233,NaN,bear,boat,0,0233_sty_dnn_0_boat_00_boat-0165-ILSVRC2012-val-00014242.png,boat-0165-ILSVRC2012-val-00014242.png,0.0,-3.4299324,-2.7242744,-0.49897555
alexnet_w3_mlp_simclrhn_probe0,1,234,NaN,bicycle,boat,0,0234_sty_dnn_0_boat_00_boat-0169-ILSVRC2012-val-00019970.png,boat-0169-ILSVRC2012-val-00019970.png,0.0,-12.106276,-3.2185078,-6.284601
alexnet_w3_mlp_simclrhn_probe0,1,235,NaN,elephant,boat,0,0235_sty_dnn_0_boat_00_boat-0170-ILSVRC2012-val-00020353.png,boat-0170-ILSVRC2012-val-00020353.png,0.0,-5.8638954,-2.7863889,-2.1761258
alexnet_w3_mlp_simclrhn_probe0,1,236,NaN,bicycle,boat,0,0236_sty_dnn_0_boat_00_boat-0172-ILSVRC2012-val-00020894.png,boat-0172-ILSVRC2012-val-00020894.png,0.0,-10.754308,-2.6172352,-5.7537794
alexnet_w3_mlp_simclrhn_probe0,1,237,NaN,bicycle,boat,0,0237_sty_dnn_0_boat_00_boat-0179-ILSVRC2012-val-00026763.png,boat-0179-ILSVRC2012-val-00026763.png,0.0,-5.008399,-2.4416575,-1.8149604
alexnet_w3_mlp_simclrhn_probe0,1,238,NaN,oven,boat,0,0238_sty_dnn_0_boat_00_boat-0181-ILSVRC2012-val-00031072.png,boat-0181-ILSVRC2012-val-00031072.png,0.0,-6.129274,-2.4481103,-2.6029758
alexnet_w3_mlp_simclrhn_probe0,1,239,NaN,boat,boat,0,0239_sty_dnn_0_boat_00_boat-0195-ILSVRC2012-val-00042203.png,boat-0195-ILSVRC2012-val-00042203.png,1.0,-0.6245168,-2.2425842,1.1441466
alexnet_w3_mlp_simclrhn_probe0,1,240,NaN,bear,boat,0,0240_sty_dnn_0_boat_00_boat-0196-ILSVRC2012-val-00042675.png,boat-0196-ILSVRC2012-val-00042675.png,0.0,-4.6179113,-0.10728955,-3.1894915
alexnet_w3_mlp_simclrhn_probe0,1,241,NaN,bicycle,boat,0,0241_sty_dnn_0_boat_00_boat-0215-ILSVRC2012-val-00013403.png,boat-0215-ILSVRC2012-val-00013403.png,0.0,-6.394223,-3.4667401,-2.070043
alexnet_w3_mlp_simclrhn_probe0,1,242,NaN,bicycle,boat,0,0242_sty_dnn_0_boat_00_boat-0217-ILSVRC2012-val-00015089.png,boat-0217-ILSVRC2012-val-00015089.png,0.0,-3.405295,-3.0633402,-0.24179849
alexnet_w3_mlp_simclrhn_probe0,1,243,NaN,keyboard,boat,0,0243_sty_dnn_0_boat_00_boat-0218-ILSVRC2012-val-00015121.png,boat-0218-ILSVRC2012-val-00015121.png,0.0,-8.199663,-3.4109511,-3.3861308
alexnet_w3_mlp_simclrhn_probe0,1,244,NaN,oven,boat,0,0244_sty_dnn_0_boat_00_boat-0222-ILSVRC2012-val-00019246.png,boat-0222-ILSVRC2012-val-00019246.png,0.0,-7.553233,-1.6412634,-4.1803937
alexnet_w3_mlp_simclrhn_probe0,1,245,NaN,elephant,boat,0,0245_sty_dnn_0_boat_00_boat-0223-ILSVRC2012-val-00020544.png,boat-0223-ILSVRC2012-val-00020544.png,0.0,-10.171824,-2.252479,-5.599823
alexnet_w3_mlp_simclrhn_probe0,1,246,NaN,knife,boat,0,0246_sty_dnn_0_boat_00_boat-0225-ILSVRC2012-val-00022075.png,boat-0225-ILSVRC2012-val-00022075.png,0.0,-8.363374,-3.5460157,-3.4063866
alexnet_w3_mlp_simclrhn_probe0,1,247,NaN,boat,boat,0,0247_sty_dnn_0_boat_00_boat-0235-ILSVRC2012-val-00032371.png,boat-0235-ILSVRC2012-val-00032371.png,1.0,-2.1907568,-2.5528755,0.2560566
alexnet_w3_mlp_simclrhn_probe0,1,248,NaN,knife,boat,0,0248_sty_dnn_0_boat_00_boat-0236-ILSVRC2012-val-00032584.png,boat-0236-ILSVRC2012-val-00032584.png,0.0,-5.5911345,-0.92737776,-3.297774
alexnet_w3_mlp_simclrhn_probe0,1,249,NaN,airplane,boat,0,0249_sty_dnn_0_boat_00_boat-0243-ILSVRC2012-val-00039131.png,boat-0243-ILSVRC2012-val-00039131.png,0.0,-2.5287101,-0.8839887,-1.1629938
alexnet_w3_mlp_simclrhn_probe0,1,250,NaN,bear,boat,0,0250_sty_dnn_0_boat_00_boat-0244-ILSVRC2012-val-00040974.png,boat-0244-ILSVRC2012-val-00040974.png,0.0,-4.643699,-1.7623823,-2.0373988
alexnet_w3_mlp_simclrhn_probe0,1,251,NaN,oven,bottle,0,0251_sty_dnn_0_bottle_00_bottle-0002-ILSVRC2012-val-00002968.png,bottle-0002-ILSVRC2012-val-00002968.png,0.0,-5.4279337,-2.9761903,-1.7336444
alexnet_w3_mlp_simclrhn_probe0,1,252,NaN,bicycle,bottle,0,0252_sty_dnn_0_bottle_00_bottle-0003-ILSVRC2012-val-00003622.png,bottle-0003-ILSVRC2012-val-00003622.png,0.0,-5.013542,-4.303297,-0.50221914
alexnet_w3_mlp_simclrhn_probe0,1,253,NaN,oven,bottle,0,0253_sty_dnn_0_bottle_00_bottle-0005-ILSVRC2012-val-00004521.png,bottle-0005-ILSVRC2012-val-00004521.png,0.0,-5.557892,-3.3314338,-1.5743437
alexnet_w3_mlp_simclrhn_probe0,1,254,NaN,bottle,bottle,0,0254_sty_dnn_0_bottle_00_bottle-0006-ILSVRC2012-val-00004888.png,bottle-0006-ILSVRC2012-val-00004888.png,1.0,-1.6505384,-4.692013,2.1506472
alexnet_w3_mlp_simclrhn_probe0,1,255,NaN,elephant,bottle,0,0255_sty_dnn_0_bottle_00_bottle-0011-ILSVRC2012-val-00009225.png,bottle-0011-ILSVRC2012-val-00009225.png,0.0,-4.0366254,-2.4568648,-1.1170595
alexnet_w3_mlp_simclrhn_probe0,1,256,NaN,keyboard,bottle,0,0256_sty_dnn_0_bottle_00_bottle-0022-ILSVRC2012-val-00022396.png,bottle-0022-ILSVRC2012-val-00022396.png,0.0,-2.815007,-0.7749922,-1.4425083
alexnet_w3_mlp_simclrhn_probe0,1,257,NaN,bicycle,bottle,0,0257_sty_dnn_0_bottle_00_bottle-0030-ILSVRC2012-val-00032921.png,bottle-0030-ILSVRC2012-val-00032921.png,0.0,-5.6562295,-3.9019647,-1.2404525
alexnet_w3_mlp_simclrhn_probe0,1,258,NaN,cat,bottle,0,0258_sty_dnn_0_bottle_00_bottle-0031-ILSVRC2012-val-00033822.png,bottle-0031-ILSVRC2012-val-00033822.png,0.0,-7.8106537,-2.833537,-3.519353
alexnet_w3_mlp_simclrhn_probe0,1,259,NaN,bear,bottle,0,0259_sty_dnn_0_bottle_00_bottle-0032-ILSVRC2012-val-00034979.png,bottle-0032-ILSVRC2012-val-00034979.png,0.0,-2.6842442,-1.6527927,-0.72934633
alexnet_w3_mlp_simclrhn_probe0,1,260,NaN,bottle,bottle,0,0260_sty_dnn_0_bottle_00_bottle-0037-ILSVRC2012-val-00036359.png,bottle-0037-ILSVRC2012-val-00036359.png,1.0,-2.4847512,-4.4079614,1.3599149
alexnet_w3_mlp_simclrhn_probe0,1,261,NaN,oven,bottle,0,0261_sty_dnn_0_bottle_00_bottle-0039-ILSVRC2012-val-00038570.png,bottle-0039-ILSVRC2012-val-00038570.png,0.0,-2.9067633,-2.1561315,-0.53077686
alexnet_w3_mlp_simclrhn_probe0,1,262,NaN,oven,bottle,0,0262_sty_dnn_0_bottle_00_bottle-0047-ILSVRC2012-val-00044787.png,bottle-0047-ILSVRC2012-val-00044787.png,0.0,-7.5604787,-0.66869086,-4.87323
alexnet_w3_mlp_simclrhn_probe0,1,263,NaN,clock,bottle,0,0263_sty_dnn_0_bottle_00_bottle-0052-ILSVRC2012-val-00000252.png,bottle-0052-ILSVRC2012-val-00000252.png,0.0,-3.6537073,-3.0005815,-0.46182966
alexnet_w3_mlp_simclrhn_probe0,1,264,NaN,bottle,bottle,0,0264_sty_dnn_0_bottle_00_bottle-0055-ILSVRC2012-val-00003066.png,bottle-0055-ILSVRC2012-val-00003066.png,1.0,-3.095036,-4.7705173,1.1847442
alexnet_w3_mlp_simclrhn_probe0,1,265,NaN,knife,bottle,0,0265_sty_dnn_0_bottle_00_bottle-0057-ILSVRC2012-val-00005967.png,bottle-0057-ILSVRC2012-val-00005967.png,0.0,-4.1071806,-3.335347,-0.5457688
alexnet_w3_mlp_simclrhn_probe0,1,266,NaN,elephant,bottle,0,0266_sty_dnn_0_bottle_00_bottle-0059-ILSVRC2012-val-00008984.png,bottle-0059-ILSVRC2012-val-00008984.png,0.0,-2.1867852,-1.5550871,-0.44667804
alexnet_w3_mlp_simclrhn_probe0,1,267,NaN,bottle,bottle,0,0267_sty_dnn_0_bottle_00_bottle-0066-ILSVRC2012-val-00016336.png,bottle-0066-ILSVRC2012-val-00016336.png,1.0,-3.0917163,-3.99018,0.6353098
alexnet_w3_mlp_simclrhn_probe0,1,268,NaN,oven,bottle,0,0268_sty_dnn_0_bottle_00_bottle-0085-ILSVRC2012-val-00036422.png,bottle-0085-ILSVRC2012-val-00036422.png,0.0,-5.29213,-2.405419,-2.0412128
alexnet_w3_mlp_simclrhn_probe0,1,269,NaN,elephant,bottle,0,0269_sty_dnn_0_bottle_00_bottle-0086-ILSVRC2012-val-00036795.png,bottle-0086-ILSVRC2012-val-00036795.png,0.0,-3.4153273,-1.5437672,-1.3233929
alexnet_w3_mlp_simclrhn_probe0,1,270,NaN,boat,bottle,0,0270_sty_dnn_0_bottle_00_bottle-0107-ILSVRC2012-val-00008313.png,bottle-0107-ILSVRC2012-val-00008313.png,0.0,-3.134671,-0.33179557,-1.9819323
alexnet_w3_mlp_simclrhn_probe0,1,271,NaN,bear,bottle,0,0271_sty_dnn_0_bottle_00_bottle-0108-ILSVRC2012-val-00008437.png,bottle-0108-ILSVRC2012-val-00008437.png,0.0,-5.7515407,-0.63457835,-3.618239
alexnet_w3_mlp_simclrhn_probe0,1,272,NaN,elephant,bottle,0,0272_sty_dnn_0_bottle_00_bottle-0126-ILSVRC2012-val-00022079.png,bottle-0126-ILSVRC2012-val-00022079.png,0.0,-3.6216278,-1.143278,-1.7524579
alexnet_w3_mlp_simclrhn_probe0,1,273,NaN,bicycle,bottle,0,0273_sty_dnn_0_bottle_00_bottle-0127-ILSVRC2012-val-00023580.png,bottle-0127-ILSVRC2012-val-00023580.png,0.0,-6.2590814,-1.132289,-3.6251898
alexnet_w3_mlp_simclrhn_probe0,1,274,NaN,knife,bottle,0,0274_sty_dnn_0_bottle_00_bottle-0138-ILSVRC2012-val-00032559.png,bottle-0138-ILSVRC2012-val-00032559.png,0.0,-4.1921167,-2.4448638,-1.2354944
alexnet_w3_mlp_simclrhn_probe0,1,275,NaN,elephant,bottle,0,0275_sty_dnn_0_bottle_00_bottle-0153-ILSVRC2012-val-00003318.png,bottle-0153-ILSVRC2012-val-00003318.png,0.0,-5.73639,-2.8366148,-2.0504508
alexnet_w3_mlp_simclrhn_probe0,1,276,NaN,bicycle,bottle,0,0276_sty_dnn_0_bottle_00_bottle-0154-ILSVRC2012-val-00003340.png,bottle-0154-ILSVRC2012-val-00003340.png,0.0,-6.622603,-2.4291155,-2.9652433
alexnet_w3_mlp_simclrhn_probe0,1,277,NaN,knife,bottle,0,0277_sty_dnn_0_bottle_00_bottle-0170-ILSVRC2012-val-00020948.png,bottle-0170-ILSVRC2012-val-00020948.png,0.0,-3.7763152,-2.4503064,-0.9376298
alexnet_w3_mlp_simclrhn_probe0,1,278,NaN,chair,bottle,0,0278_sty_dnn_0_bottle_00_bottle-0172-ILSVRC2012-val-00021707.png,bottle-0172-ILSVRC2012-val-00021707.png,0.0,-5.5196843,-2.832205,-1.9003348
alexnet_w3_mlp_simclrhn_probe0,1,279,NaN,knife,bottle,0,0279_sty_dnn_0_bottle_00_bottle-0180-ILSVRC2012-val-00027613.png,bottle-0180-ILSVRC2012-val-00027613.png,0.0,-4.9942484,-3.635659,-0.9606678
alexnet_w3_mlp_simclrhn_probe0,1,280,NaN,elephant,bottle,0,0280_sty_dnn_0_bottle_00_bottle-0189-ILSVRC2012-val-00040070.png,bottle-0189-ILSVRC2012-val-00040070.png,0.0,-6.563184,-3.838124,-1.9269083
alexnet_w3_mlp_simclrhn_probe0,1,281,NaN,bottle,bottle,0,0281_sty_dnn_0_bottle_00_bottle-0195-ILSVRC2012-val-00045644.png,bottle-0195-ILSVRC2012-val-00045644.png,1.0,-3.1732528,-3.674789,0.35463962
alexnet_w3_mlp_simclrhn_probe0,1,282,NaN,bicycle,bottle,0,0282_sty_dnn_0_bottle_00_bottle-0204-ILSVRC2012-val-00002597.png,bottle-0204-ILSVRC2012-val-00002597.png,0.0,-5.5631204,-2.815683,-1.9427317
alexnet_w3_mlp_simclrhn_probe0,1,283,NaN,elephant,bottle,0,0283_sty_dnn_0_bottle_00_bottle-0205-ILSVRC2012-val-00003263.png,bottle-0205-ILSVRC2012-val-00003263.png,0.0,-4.3191633,-3.3600638,-0.6781858
alexnet_w3_mlp_simclrhn_probe0,1,284,NaN,oven,bottle,0,0284_sty_dnn_0_bottle_00_bottle-0214-ILSVRC2012-val-00012572.png,bottle-0214-ILSVRC2012-val-00012572.png,0.0,-6.265079,-1.8867679,-3.0959337
alexnet_w3_mlp_simclrhn_probe0,1,285,NaN,cat,bottle,0,0285_sty_dnn_0_bottle_00_bottle-0216-ILSVRC2012-val-00013262.png,bottle-0216-ILSVRC2012-val-00013262.png,0.0,-7.073785,-2.1382806,-3.4899285
alexnet_w3_mlp_simclrhn_probe0,1,286,NaN,bottle,bottle,0,0286_sty_dnn_0_bottle_00_bottle-0218-ILSVRC2012-val-00013667.png,bottle-0218-ILSVRC2012-val-00013667.png,1.0,-0.44532523,-1.116551,0.4746283
alexnet_w3_mlp_simclrhn_probe0,1,287,NaN,bear,bottle,0,0287_sty_dnn_0_bottle_00_bottle-0220-ILSVRC2012-val-00014146.png,bottle-0220-ILSVRC2012-val-00014146.png,0.0,-4.2347975,-1.5845045,-1.8740401
alexnet_w3_mlp_simclrhn_probe0,1,288,NaN,oven,bottle,0,0288_sty_dnn_0_bottle_00_bottle-0222-ILSVRC2012-val-00018657.png,bottle-0222-ILSVRC2012-val-00018657.png,0.0,-2.789613,-1.9508433,-0.5930997
alexnet_w3_mlp_simclrhn_probe0,1,289,NaN,bicycle,bottle,0,0289_sty_dnn_0_bottle_00_bottle-0224-ILSVRC2012-val-00020102.png,bottle-0224-ILSVRC2012-val-00020102.png,0.0,-4.9980264,-3.7489758,-0.88321215
alexnet_w3_mlp_simclrhn_probe0,1,290,NaN,elephant,bottle,0,0290_sty_dnn_0_bottle_00_bottle-0233-ILSVRC2012-val-00031504.png,bottle-0233-ILSVRC2012-val-00031504.png,0.0,-5.310681,-3.1274126,-1.5438038
alexnet_w3_mlp_simclrhn_probe0,1,291,NaN,bicycle,bottle,0,0291_sty_dnn_0_bottle_00_bottle-0243-ILSVRC2012-val-00040157.png,bottle-0243-ILSVRC2012-val-00040157.png,0.0,-5.3370967,-1.5585395,-2.6718435
alexnet_w3_mlp_simclrhn_probe0,1,292,NaN,bottle,bottle,0,0292_sty_dnn_0_bottle_00_bottle-0254-ILSVRC2012-val-00005933.png,bottle-0254-ILSVRC2012-val-00005933.png,1.0,-0.4870217,-4.9454837,3.1526086
alexnet_w3_mlp_simclrhn_probe0,1,293,NaN,bottle,bottle,0,0293_sty_dnn_0_bottle_00_bottle-0283-ILSVRC2012-val-00036864.png,bottle-0283-ILSVRC2012-val-00036864.png,1.0,0.16904923,-2.0011446,1.5345589
alexnet_w3_mlp_simclrhn_probe0,1,294,NaN,bottle,bottle,0,0294_sty_dnn_0_bottle_00_bottle-0294-ILSVRC2012-val-00044222.png,bottle-0294-ILSVRC2012-val-00044222.png,1.0,-1.2011576,-3.5660641,1.6722414
alexnet_w3_mlp_simclrhn_probe0,1,295,NaN,bear,bottle,0,0295_sty_dnn_0_bottle_00_bottle-0296-ILSVRC2012-val-00044906.png,bottle-0296-ILSVRC2012-val-00044906.png,0.0,-4.17694,-1.3005595,-2.0339081
alexnet_w3_mlp_simclrhn_probe0,1,296,NaN,oven,bottle,0,0296_sty_dnn_0_bottle_00_bottle-0325-ILSVRC2012-val-00027316.png,bottle-0325-ILSVRC2012-val-00027316.png,0.0,-4.484056,-3.6316109,-0.60276973
alexnet_w3_mlp_simclrhn_probe0,1,297,NaN,bottle,bottle,0,0297_sty_dnn_0_bottle_00_bottle-0331-ILSVRC2012-val-00033990.png,bottle-0331-ILSVRC2012-val-00033990.png,1.0,-3.5936322,-4.333075,0.52286506
alexnet_w3_mlp_simclrhn_probe0,1,298,NaN,oven,bottle,0,0298_sty_dnn_0_bottle_00_bottle-0334-ILSVRC2012-val-00036776.png,bottle-0334-ILSVRC2012-val-00036776.png,0.0,-3.167416,-0.10464465,-2.1657066
alexnet_w3_mlp_simclrhn_probe0,1,299,NaN,bottle,bottle,0,0299_sty_dnn_0_bottle_00_bottle-0345-ILSVRC2012-val-00044614.png,bottle-0345-ILSVRC2012-val-00044614.png,1.0,-0.15751493,-2.0509534,1.3388633
alexnet_w3_mlp_simclrhn_probe0,1,300,NaN,oven,bottle,0,0300_sty_dnn_0_bottle_00_bottle-0347-ILSVRC2012-val-00048539.png,bottle-0347-ILSVRC2012-val-00048539.png,0.0,-3.478458,-2.5461373,-0.6592502
alexnet_w3_mlp_simclrhn_probe0,1,301,NaN,elephant,car,0,0301_sty_dnn_0_car_00_car-0001-ILSVRC2012-val-00000175.png,car-0001-ILSVRC2012-val-00000175.png,0.0,-5.8115745,-3.3022308,-1.7743739
alexnet_w3_mlp_simclrhn_probe0,1,302,NaN,truck,car,0,0302_sty_dnn_0_car_00_car-0004-ILSVRC2012-val-00006084.png,car-0004-ILSVRC2012-val-00006084.png,0.0,-1.6018806,-1.2087739,-0.2779684
alexnet_w3_mlp_simclrhn_probe0,1,303,NaN,car,car,0,0303_sty_dnn_0_car_00_car-0005-ILSVRC2012-val-00006220.png,car-0005-ILSVRC2012-val-00006220.png,1.0,-0.44009557,-1.4790246,0.7346338
alexnet_w3_mlp_simclrhn_probe0,1,304,NaN,oven,car,0,0304_sty_dnn_0_car_00_car-0010-ILSVRC2012-val-00012600.png,car-0010-ILSVRC2012-val-00012600.png,0.0,-3.505204,-1.2454126,-1.5979139
alexnet_w3_mlp_simclrhn_probe0,1,305,NaN,oven,car,0,0305_sty_dnn_0_car_00_car-0012-ILSVRC2012-val-00014447.png,car-0012-ILSVRC2012-val-00014447.png,0.0,-8.279667,-1.7374938,-4.626015
alexnet_w3_mlp_simclrhn_probe0,1,306,NaN,oven,car,0,0306_sty_dnn_0_car_00_car-0013-ILSVRC2012-val-00014541.png,car-0013-ILSVRC2012-val-00014541.png,0.0,-6.0716805,-1.4502537,-3.267842
alexnet_w3_mlp_simclrhn_probe0,1,307,NaN,car,car,0,0307_sty_dnn_0_car_00_car-0018-ILSVRC2012-val-00018138.png,car-0018-ILSVRC2012-val-00018138.png,1.0,-2.4851015,-4.1842866,1.2015053
alexnet_w3_mlp_simclrhn_probe0,1,308,NaN,bicycle,car,0,0308_sty_dnn_0_car_00_car-0019-ILSVRC2012-val-00018335.png,car-0019-ILSVRC2012-val-00018335.png,0.0,-5.4544578,-2.2525403,-2.2640975
alexnet_w3_mlp_simclrhn_probe0,1,309,NaN,oven,car,0,0309_sty_dnn_0_car_00_car-0021-ILSVRC2012-val-00019695.png,car-0021-ILSVRC2012-val-00019695.png,0.0,-5.835205,-4.7852817,-0.742408
alexnet_w3_mlp_simclrhn_probe0,1,310,NaN,oven,car,0,0310_sty_dnn_0_car_00_car-0024-ILSVRC2012-val-00023221.png,car-0024-ILSVRC2012-val-00023221.png,0.0,-5.705513,-0.72717595,-3.5202162
alexnet_w3_mlp_simclrhn_probe0,1,311,NaN,car,car,0,0311_sty_dnn_0_car_00_car-0025-ILSVRC2012-val-00023474.png,car-0025-ILSVRC2012-val-00023474.png,1.0,4.6838875,4.0470243,0.45033032
alexnet_w3_mlp_simclrhn_probe0,1,312,NaN,bicycle,car,0,0312_sty_dnn_0_car_00_car-0028-ILSVRC2012-val-00027049.png,car-0028-ILSVRC2012-val-00027049.png,0.0,-7.773175,-5.1415405,-1.8608464
alexnet_w3_mlp_simclrhn_probe0,1,313,NaN,car,car,0,0313_sty_dnn_0_car_00_car-0029-ILSVRC2012-val-00027081.png,car-0029-ILSVRC2012-val-00027081.png,1.0,-2.9522114,-3.6012003,0.4589045
alexnet_w3_mlp_simclrhn_probe0,1,314,NaN,oven,car,0,0314_sty_dnn_0_car_00_car-0030-ILSVRC2012-val-00029057.png,car-0030-ILSVRC2012-val-00029057.png,0.0,-4.4336867,-3.735149,-0.49394083
alexnet_w3_mlp_simclrhn_probe0,1,315,NaN,elephant,car,0,0315_sty_dnn_0_car_00_car-0032-ILSVRC2012-val-00030834.png,car-0032-ILSVRC2012-val-00030834.png,0.0,-3.8983479,-1.7064244,-1.5499241
alexnet_w3_mlp_simclrhn_probe0,1,316,NaN,bicycle,car,0,0316_sty_dnn_0_car_00_car-0041-ILSVRC2012-val-00040706.png,car-0041-ILSVRC2012-val-00040706.png,0.0,-4.9893975,-0.9713343,-2.8411996
alexnet_w3_mlp_simclrhn_probe0,1,317,NaN,bicycle,car,0,0317_sty_dnn_0_car_00_car-0045-ILSVRC2012-val-00042416.png,car-0045-ILSVRC2012-val-00042416.png,0.0,-4.4872823,-1.9163578,-1.8179182
alexnet_w3_mlp_simclrhn_probe0,1,318,NaN,knife,car,0,0318_sty_dnn_0_car_00_car-0050-ILSVRC2012-val-00048556.png,car-0050-ILSVRC2012-val-00048556.png,0.0,-8.421497,-2.7838197,-3.9864402
alexnet_w3_mlp_simclrhn_probe0,1,319,NaN,knife,car,0,0319_sty_dnn_0_car_00_car-0052-ILSVRC2012-val-00004387.png,car-0052-ILSVRC2012-val-00004387.png,0.0,-5.1958094,-1.4558222,-2.6445704
alexnet_w3_mlp_simclrhn_probe0,1,320,NaN,bicycle,car,0,0320_sty_dnn_0_car_00_car-0053-ILSVRC2012-val-00004685.png,car-0053-ILSVRC2012-val-00004685.png,0.0,-6.3754525,-3.5634847,-1.9883616
alexnet_w3_mlp_simclrhn_probe0,1,321,NaN,elephant,car,0,0321_sty_dnn_0_car_00_car-0054-ILSVRC2012-val-00005500.png,car-0054-ILSVRC2012-val-00005500.png,0.0,-7.6704497,-2.4889793,-3.663853
alexnet_w3_mlp_simclrhn_probe0,1,322,NaN,elephant,car,0,0322_sty_dnn_0_car_00_car-0058-ILSVRC2012-val-00010676.png,car-0058-ILSVRC2012-val-00010676.png,0.0,-6.6767573,-2.9310985,-2.6485808
alexnet_w3_mlp_simclrhn_probe0,1,323,NaN,oven,car,0,0323_sty_dnn_0_car_00_car-0059-ILSVRC2012-val-00014010.png,car-0059-ILSVRC2012-val-00014010.png,0.0,-5.3232484,-1.9906816,-2.3564806
alexnet_w3_mlp_simclrhn_probe0,1,324,NaN,oven,car,0,0324_sty_dnn_0_car_00_car-0060-ILSVRC2012-val-00014208.png,car-0060-ILSVRC2012-val-00014208.png,0.0,-5.8751225,-1.6371284,-2.9967146
alexnet_w3_mlp_simclrhn_probe0,1,325,NaN,airplane,car,0,0325_sty_dnn_0_car_00_car-0064-ILSVRC2012-val-00016337.png,car-0064-ILSVRC2012-val-00016337.png,0.0,-3.6401699,-2.7009637,-0.664119
alexnet_w3_mlp_simclrhn_probe0,1,326,NaN,truck,car,0,0326_sty_dnn_0_car_00_car-0065-ILSVRC2012-val-00016613.png,car-0065-ILSVRC2012-val-00016613.png,0.0,-4.1626773,-3.3805845,-0.55302316
alexnet_w3_mlp_simclrhn_probe0,1,327,NaN,boat,car,0,0327_sty_dnn_0_car_00_car-0066-ILSVRC2012-val-00018249.png,car-0066-ILSVRC2012-val-00018249.png,0.0,-4.2715106,-2.9437907,-0.9388398
alexnet_w3_mlp_simclrhn_probe0,1,328,NaN,car,car,0,0328_sty_dnn_0_car_00_car-0067-ILSVRC2012-val-00018569.png,car-0067-ILSVRC2012-val-00018569.png,1.0,-2.773097,-4.5303144,1.2425404
alexnet_w3_mlp_simclrhn_probe0,1,329,NaN,car,car,0,0329_sty_dnn_0_car_00_car-0069-ILSVRC2012-val-00019647.png,car-0069-ILSVRC2012-val-00019647.png,1.0,1.0187486,-0.3497818,0.9676972
alexnet_w3_mlp_simclrhn_probe0,1,330,NaN,elephant,car,0,0330_sty_dnn_0_car_00_car-0079-ILSVRC2012-val-00025028.png,car-0079-ILSVRC2012-val-00025028.png,0.0,-4.832313,-1.8127205,-2.1351743
alexnet_w3_mlp_simclrhn_probe0,1,331,NaN,bicycle,car,0,0331_sty_dnn_0_car_00_car-0082-ILSVRC2012-val-00027293.png,car-0082-ILSVRC2012-val-00027293.png,0.0,-5.7617264,-3.6704912,-1.4787266
alexnet_w3_mlp_simclrhn_probe0,1,332,NaN,bear,car,0,0332_sty_dnn_0_car_00_car-0083-ILSVRC2012-val-00027508.png,car-0083-ILSVRC2012-val-00027508.png,0.0,-6.1400476,-1.5646021,-3.2353284
alexnet_w3_mlp_simclrhn_probe0,1,333,NaN,bicycle,car,0,0333_sty_dnn_0_car_00_car-0086-ILSVRC2012-val-00029454.png,car-0086-ILSVRC2012-val-00029454.png,0.0,-5.409979,-3.216609,-1.5509467
alexnet_w3_mlp_simclrhn_probe0,1,334,NaN,elephant,car,0,0334_sty_dnn_0_car_00_car-0087-ILSVRC2012-val-00031558.png,car-0087-ILSVRC2012-val-00031558.png,0.0,-2.046737,-1.3949893,-0.46085522
alexnet_w3_mlp_simclrhn_probe0,1,335,NaN,elephant,car,0,0335_sty_dnn_0_car_00_car-0091-ILSVRC2012-val-00036091.png,car-0091-ILSVRC2012-val-00036091.png,0.0,-4.312464,-2.9873786,-0.936977
alexnet_w3_mlp_simclrhn_probe0,1,336,NaN,car,car,0,0336_sty_dnn_0_car_00_car-0093-ILSVRC2012-val-00038956.png,car-0093-ILSVRC2012-val-00038956.png,1.0,-3.328081,-3.5684187,0.16994452
alexnet_w3_mlp_simclrhn_probe0,1,337,NaN,elephant,car,0,0337_sty_dnn_0_car_00_car-0095-ILSVRC2012-val-00041430.png,car-0095-ILSVRC2012-val-00041430.png,0.0,-6.3958936,-3.5084505,-2.0417306
alexnet_w3_mlp_simclrhn_probe0,1,338,NaN,bicycle,car,0,0338_sty_dnn_0_car_00_car-0096-ILSVRC2012-val-00043824.png,car-0096-ILSVRC2012-val-00043824.png,0.0,-8.306884,-2.7100165,-3.9575832
alexnet_w3_mlp_simclrhn_probe0,1,339,NaN,car,car,0,0339_sty_dnn_0_car_00_car-0103-ILSVRC2012-val-00003478.png,car-0103-ILSVRC2012-val-00003478.png,1.0,-4.18372,-5.9649305,1.259506
alexnet_w3_mlp_simclrhn_probe0,1,340,NaN,elephant,car,0,0340_sty_dnn_0_car_00_car-0106-ILSVRC2012-val-00004868.png,car-0106-ILSVRC2012-val-00004868.png,0.0,-4.706921,-0.11446254,-3.2473588
alexnet_w3_mlp_simclrhn_probe0,1,341,NaN,car,car,0,0341_sty_dnn_0_car_00_car-0110-ILSVRC2012-val-00006285.png,car-0110-ILSVRC2012-val-00006285.png,1.0,-1.1879305,-1.7631172,0.40671843
alexnet_w3_mlp_simclrhn_probe0,1,342,NaN,knife,car,0,0342_sty_dnn_0_car_00_car-0111-ILSVRC2012-val-00007125.png,car-0111-ILSVRC2012-val-00007125.png,0.0,-3.9432108,0.016202055,-2.7997277
alexnet_w3_mlp_simclrhn_probe0,1,343,NaN,bicycle,car,0,0343_sty_dnn_0_car_00_car-0117-ILSVRC2012-val-00010983.png,car-0117-ILSVRC2012-val-00010983.png,0.0,-5.36645,0.3364547,-4.0325627
alexnet_w3_mlp_simclrhn_probe0,1,344,NaN,bicycle,car,0,0344_sty_dnn_0_car_00_car-0118-ILSVRC2012-val-00012327.png,car-0118-ILSVRC2012-val-00012327.png,0.0,-4.5789886,-2.5698671,-1.4206634
alexnet_w3_mlp_simclrhn_probe0,1,345,NaN,bicycle,car,0,0345_sty_dnn_0_car_00_car-0121-ILSVRC2012-val-00016638.png,car-0121-ILSVRC2012-val-00016638.png,0.0,-3.4917638,-2.3321874,-0.8199444
alexnet_w3_mlp_simclrhn_probe0,1,346,NaN,car,car,0,0346_sty_dnn_0_car_00_car-0134-ILSVRC2012-val-00032944.png,car-0134-ILSVRC2012-val-00032944.png,1.0,-1.0414591,-2.6970983,1.1707137
alexnet_w3_mlp_simclrhn_probe0,1,347,NaN,cat,car,0,0347_sty_dnn_0_car_00_car-0139-ILSVRC2012-val-00037952.png,car-0139-ILSVRC2012-val-00037952.png,0.0,-9.148229,-2.9182847,-4.405236
alexnet_w3_mlp_simclrhn_probe0,1,348,NaN,bear,car,0,0348_sty_dnn_0_car_00_car-0145-ILSVRC2012-val-00041626.png,car-0145-ILSVRC2012-val-00041626.png,0.0,-5.2455354,-1.1748005,-2.8784444
alexnet_w3_mlp_simclrhn_probe0,1,349,NaN,bicycle,car,0,0349_sty_dnn_0_car_00_car-0146-ILSVRC2012-val-00043297.png,car-0146-ILSVRC2012-val-00043297.png,0.0,-6.1920586,-3.1992688,-2.116222
alexnet_w3_mlp_simclrhn_probe0,1,350,NaN,oven,car,0,0350_sty_dnn_0_car_00_car-0149-ILSVRC2012-val-00049427.png,car-0149-ILSVRC2012-val-00049427.png,0.0,-6.4819565,-4.365873,-1.4962971
alexnet_w3_mlp_simclrhn_probe0,1,351,NaN,cat,cat,0,0351_sty_dnn_0_cat_00_cat-0005-ILSVRC2012-val-00005358.png,cat-0005-ILSVRC2012-val-00005358.png,1.0,0.07507693,-3.3973207,2.455356
alexnet_w3_mlp_simclrhn_probe0,1,352,NaN,cat,cat,0,0352_sty_dnn_0_cat_00_cat-0012-ILSVRC2012-val-00012377.png,cat-0012-ILSVRC2012-val-00012377.png,1.0,-2.975207,-3.7484887,0.5467926
alexnet_w3_mlp_simclrhn_probe0,1,353,NaN,cat,cat,0,0353_sty_dnn_0_cat_00_cat-0031-ILSVRC2012-val-00030706.png,cat-0031-ILSVRC2012-val-00030706.png,1.0,-3.3958378,-3.8387759,0.31320453
alexnet_w3_mlp_simclrhn_probe0,1,354,NaN,cat,cat,0,0354_sty_dnn_0_cat_00_cat-0032-ILSVRC2012-val-00033420.png,cat-0032-ILSVRC2012-val-00033420.png,1.0,1.4855458,-2.7456298,2.9918928
alexnet_w3_mlp_simclrhn_probe0,1,355,NaN,cat,cat,0,0355_sty_dnn_0_cat_00_cat-0034-ILSVRC2012-val-00033837.png,cat-0034-ILSVRC2012-val-00033837.png,1.0,-2.657809,-4.9207764,1.6001595
alexnet_w3_mlp_simclrhn_probe0,1,356,NaN,cat,cat,0,0356_sty_dnn_0_cat_00_cat-0042-ILSVRC2012-val-00040238.png,cat-0042-ILSVRC2012-val-00040238.png,1.0,-3.2026265,-4.9020967,1.201707
alexnet_w3_mlp_simclrhn_probe0,1,357,NaN,cat,cat,0,0357_sty_dnn_0_cat_00_cat-0045-ILSVRC2012-val-00041570.png,cat-0045-ILSVRC2012-val-00041570.png,1.0,-2.6742685,-4.090076,1.0011271
alexnet_w3_mlp_simclrhn_probe0,1,358,NaN,dog,cat,0,0358_sty_dnn_0_cat_00_cat-0050-ILSVRC2012-val-00047911.png,cat-0050-ILSVRC2012-val-00047911.png,0.0,-4.4322324,-3.972424,-0.32513362
alexnet_w3_mlp_simclrhn_probe0,1,359,NaN,bear,cat,0,0359_sty_dnn_0_cat_00_cat-0054-ILSVRC2012-val-00003295.png,cat-0054-ILSVRC2012-val-00003295.png,0.0,-3.6739237,-2.3728337,-0.92000955
alexnet_w3_mlp_simclrhn_probe0,1,360,NaN,cat,cat,0,0360_sty_dnn_0_cat_00_cat-0056-ILSVRC2012-val-00007676.png,cat-0056-ILSVRC2012-val-00007676.png,1.0,-2.8886664,-3.204839,0.2235678
alexnet_w3_mlp_simclrhn_probe0,1,361,NaN,elephant,cat,0,0361_sty_dnn_0_cat_00_cat-0062-ILSVRC2012-val-00013788.png,cat-0062-ILSVRC2012-val-00013788.png,0.0,-3.9443645,-0.5184703,-2.4224732
alexnet_w3_mlp_simclrhn_probe0,1,362,NaN,knife,cat,0,0362_sty_dnn_0_cat_00_cat-0064-ILSVRC2012-val-00014860.png,cat-0064-ILSVRC2012-val-00014860.png,0.0,-6.4314437,-1.3576349,-3.5877247
alexnet_w3_mlp_simclrhn_probe0,1,363,NaN,cat,cat,0,0363_sty_dnn_0_cat_00_cat-0069-ILSVRC2012-val-00016399.png,cat-0069-ILSVRC2012-val-00016399.png,1.0,-4.18035,-4.9841247,0.56835467
alexnet_w3_mlp_simclrhn_probe0,1,364,NaN,cat,cat,0,0364_sty_dnn_0_cat_00_cat-0072-ILSVRC2012-val-00019303.png,cat-0072-ILSVRC2012-val-00019303.png,1.0,-2.0824864,-2.9506364,0.61387473
alexnet_w3_mlp_simclrhn_probe0,1,365,NaN,cat,cat,0,0365_sty_dnn_0_cat_00_cat-0073-ILSVRC2012-val-00020140.png,cat-0073-ILSVRC2012-val-00020140.png,1.0,-2.4644496,-3.5328197,0.75545174
alexnet_w3_mlp_simclrhn_probe0,1,366,NaN,bicycle,cat,0,0366_sty_dnn_0_cat_00_cat-0082-ILSVRC2012-val-00025723.png,cat-0082-ILSVRC2012-val-00025723.png,0.0,-3.0693471,-0.4756568,-1.8340161
alexnet_w3_mlp_simclrhn_probe0,1,367,NaN,cat,cat,0,0367_sty_dnn_0_cat_00_cat-0092-ILSVRC2012-val-00039621.png,cat-0092-ILSVRC2012-val-00039621.png,1.0,-2.3624737,-6.0478663,2.605966
alexnet_w3_mlp_simclrhn_probe0,1,368,NaN,cat,cat,0,0368_sty_dnn_0_cat_00_cat-0096-ILSVRC2012-val-00045420.png,cat-0096-ILSVRC2012-val-00045420.png,1.0,-4.1427455,-6.0890594,1.3762517
alexnet_w3_mlp_simclrhn_probe0,1,369,NaN,bottle,cat,0,0369_sty_dnn_0_cat_00_cat-0108-ILSVRC2012-val-00002967.png,cat-0108-ILSVRC2012-val-00002967.png,0.0,-7.201569,-1.9098165,-3.7418344
alexnet_w3_mlp_simclrhn_probe0,1,370,NaN,cat,cat,0,0370_sty_dnn_0_cat_00_cat-0110-ILSVRC2012-val-00004411.png,cat-0110-ILSVRC2012-val-00004411.png,1.0,-2.6893885,-3.2597008,0.40327168
alexnet_w3_mlp_simclrhn_probe0,1,371,NaN,oven,cat,0,0371_sty_dnn_0_cat_00_cat-0113-ILSVRC2012-val-00007808.png,cat-0113-ILSVRC2012-val-00007808.png,0.0,-3.0983613,-2.1537583,-0.6679352
alexnet_w3_mlp_simclrhn_probe0,1,372,NaN,cat,cat,0,0372_sty_dnn_0_cat_00_cat-0118-ILSVRC2012-val-00010218.png,cat-0118-ILSVRC2012-val-00010218.png,1.0,-0.4427546,-5.2137914,3.3736324
alexnet_w3_mlp_simclrhn_probe0,1,373,NaN,cat,cat,0,0373_sty_dnn_0_cat_00_cat-0123-ILSVRC2012-val-00014813.png,cat-0123-ILSVRC2012-val-00014813.png,1.0,-1.6691165,-2.142066,0.3344258
alexnet_w3_mlp_simclrhn_probe0,1,374,NaN,cat,cat,0,0374_sty_dnn_0_cat_00_cat-0133-ILSVRC2012-val-00023898.png,cat-0133-ILSVRC2012-val-00023898.png,1.0,-3.4218903,-6.8854938,2.4491374
alexnet_w3_mlp_simclrhn_probe0,1,375,NaN,elephant,cat,0,0375_sty_dnn_0_cat_00_cat-0137-ILSVRC2012-val-00027906.png,cat-0137-ILSVRC2012-val-00027906.png,0.0,-1.6465898,-1.4934999,-0.10825089
alexnet_w3_mlp_simclrhn_probe0,1,376,NaN,cat,cat,0,0376_sty_dnn_0_cat_00_cat-0147-ILSVRC2012-val-00041347.png,cat-0147-ILSVRC2012-val-00041347.png,1.0,-1.1498778,-5.893277,3.3540902
alexnet_w3_mlp_simclrhn_probe0,1,377,NaN,bicycle,cat,0,0377_sty_dnn_0_cat_00_cat-0150-ILSVRC2012-val-00049996.png,cat-0150-ILSVRC2012-val-00049996.png,0.0,-6.2145925,-3.8511717,-1.6711909
alexnet_w3_mlp_simclrhn_probe0,1,378,NaN,bear,cat,0,0378_sty_dnn_0_cat_00_cat-0160-ILSVRC2012-val-00011528.png,cat-0160-ILSVRC2012-val-00011528.png,0.0,-2.0497248,0.81713295,-2.0271747
alexnet_w3_mlp_simclrhn_probe0,1,379,NaN,oven,cat,0,0379_sty_dnn_0_cat_00_cat-0162-ILSVRC2012-val-00012173.png,cat-0162-ILSVRC2012-val-00012173.png,0.0,-6.286279,-4.067761,-1.5687293
alexnet_w3_mlp_simclrhn_probe0,1,380,NaN,knife,cat,0,0380_sty_dnn_0_cat_00_cat-0165-ILSVRC2012-val-00017325.png,cat-0165-ILSVRC2012-val-00017325.png,0.0,-2.7836235,0.14803615,-2.0729964
alexnet_w3_mlp_simclrhn_probe0,1,381,NaN,knife,cat,0,0381_sty_dnn_0_cat_00_cat-0169-ILSVRC2012-val-00020688.png,cat-0169-ILSVRC2012-val-00020688.png,0.0,-7.489294,-3.9745142,-2.4853246
alexnet_w3_mlp_simclrhn_probe0,1,382,NaN,clock,cat,0,0382_sty_dnn_0_cat_00_cat-0185-ILSVRC2012-val-00038168.png,cat-0185-ILSVRC2012-val-00038168.png,0.0,-5.301149,-2.8496583,-1.7334657
alexnet_w3_mlp_simclrhn_probe0,1,383,NaN,cat,cat,0,0383_sty_dnn_0_cat_00_cat-0186-ILSVRC2012-val-00039580.png,cat-0186-ILSVRC2012-val-00039580.png,1.0,-1.627272,-3.8592334,1.5782349
alexnet_w3_mlp_simclrhn_probe0,1,384,NaN,chair,cat,0,0384_sty_dnn_0_cat_00_cat-0189-ILSVRC2012-val-00040854.png,cat-0189-ILSVRC2012-val-00040854.png,0.0,-6.9014764,-1.4088044,-3.8839056
alexnet_w3_mlp_simclrhn_probe0,1,385,NaN,bear,cat,0,0385_sty_dnn_0_cat_00_cat-0202-ILSVRC2012-val-00001496.png,cat-0202-ILSVRC2012-val-00001496.png,0.0,-2.2324817,-0.8664657,-0.9659192
alexnet_w3_mlp_simclrhn_probe0,1,386,NaN,oven,cat,0,0386_sty_dnn_0_cat_00_cat-0234-ILSVRC2012-val-00028970.png,cat-0234-ILSVRC2012-val-00028970.png,0.0,-6.0858803,-3.492331,-1.8339163
alexnet_w3_mlp_simclrhn_probe0,1,387,NaN,elephant,cat,0,0387_sty_dnn_0_cat_00_cat-0236-ILSVRC2012-val-00031185.png,cat-0236-ILSVRC2012-val-00031185.png,0.0,-6.649042,-3.2909956,-2.3744974
alexnet_w3_mlp_simclrhn_probe0,1,388,NaN,clock,cat,0,0388_sty_dnn_0_cat_00_cat-0238-ILSVRC2012-val-00033582.png,cat-0238-ILSVRC2012-val-00033582.png,0.0,-8.266147,-3.4430535,-3.410442
alexnet_w3_mlp_simclrhn_probe0,1,389,NaN,cat,cat,0,0389_sty_dnn_0_cat_00_cat-0242-ILSVRC2012-val-00040192.png,cat-0242-ILSVRC2012-val-00040192.png,1.0,-1.3227147,-3.4412808,1.4980525
alexnet_w3_mlp_simclrhn_probe0,1,390,NaN,bear,cat,0,0390_sty_dnn_0_cat_00_cat-0243-ILSVRC2012-val-00040600.png,cat-0243-ILSVRC2012-val-00040600.png,0.0,-0.67190003,0.11627371,-0.557323
alexnet_w3_mlp_simclrhn_probe0,1,391,NaN,cat,cat,0,0391_sty_dnn_0_cat_00_cat-0247-ILSVRC2012-val-00044374.png,cat-0247-ILSVRC2012-val-00044374.png,1.0,-1.5121363,-3.1463473,1.1555617
alexnet_w3_mlp_simclrhn_probe0,1,392,NaN,elephant,cat,0,0392_sty_dnn_0_cat_00_cat-0258-ILSVRC2012-val-00006112.png,cat-0258-ILSVRC2012-val-00006112.png,0.0,-3.9619205,-2.1796925,-1.2602255
alexnet_w3_mlp_simclrhn_probe0,1,393,NaN,knife,cat,0,0393_sty_dnn_0_cat_00_cat-0260-ILSVRC2012-val-00006612.png,cat-0260-ILSVRC2012-val-00006612.png,0.0,-8.12049,-3.3556354,-3.369261
alexnet_w3_mlp_simclrhn_probe0,1,394,NaN,cat,cat,0,0394_sty_dnn_0_cat_00_cat-0264-ILSVRC2012-val-00010823.png,cat-0264-ILSVRC2012-val-00010823.png,1.0,-1.9708797,-3.8865104,1.3545555
alexnet_w3_mlp_simclrhn_probe0,1,395,NaN,cat,cat,0,0395_sty_dnn_0_cat_00_cat-0270-ILSVRC2012-val-00017189.png,cat-0270-ILSVRC2012-val-00017189.png,1.0,-2.7934058,-4.020972,0.86802024
alexnet_w3_mlp_simclrhn_probe0,1,396,NaN,knife,cat,0,0396_sty_dnn_0_cat_00_cat-0274-ILSVRC2012-val-00019370.png,cat-0274-ILSVRC2012-val-00019370.png,0.0,-3.3202288,-1.6190435,-1.2029197
alexnet_w3_mlp_simclrhn_probe0,1,397,NaN,bicycle,cat,0,0397_sty_dnn_0_cat_00_cat-0284-ILSVRC2012-val-00027069.png,cat-0284-ILSVRC2012-val-00027069.png,0.0,-8.045503,-6.588129,-1.0305188
alexnet_w3_mlp_simclrhn_probe0,1,398,NaN,elephant,cat,0,0398_sty_dnn_0_cat_00_cat-0291-ILSVRC2012-val-00035821.png,cat-0291-ILSVRC2012-val-00035821.png,0.0,-4.807279,-3.9955878,-0.57395244
alexnet_w3_mlp_simclrhn_probe0,1,399,NaN,knife,cat,0,0399_sty_dnn_0_cat_00_cat-0294-ILSVRC2012-val-00037633.png,cat-0294-ILSVRC2012-val-00037633.png,0.0,-3.0178387,-1.5512978,-1.037001
alexnet_w3_mlp_simclrhn_probe0,1,400,NaN,bicycle,cat,0,0400_sty_dnn_0_cat_00_cat-0298-ILSVRC2012-val-00042529.png,cat-0298-ILSVRC2012-val-00042529.png,0.0,-5.6072297,-3.8639355,-1.2326952
alexnet_w3_mlp_simclrhn_probe0,1,401,NaN,bicycle,chair,0,0401_sty_dnn_0_chair_00_chair-0006-ILSVRC2012-val-00004679.png,chair-0006-ILSVRC2012-val-00004679.png,0.0,-6.526898,-1.8967755,-3.2739909
alexnet_w3_mlp_simclrhn_probe0,1,402,NaN,chair,chair,0,0402_sty_dnn_0_chair_00_chair-0018-ILSVRC2012-val-00013838.png,chair-0018-ILSVRC2012-val-00013838.png,1.0,-2.167739,-2.2794337,0.07898016
alexnet_w3_mlp_simclrhn_probe0,1,403,NaN,chair,chair,0,0403_sty_dnn_0_chair_00_chair-0022-ILSVRC2012-val-00016403.png,chair-0022-ILSVRC2012-val-00016403.png,1.0,-2.201553,-3.1882625,0.6977089
alexnet_w3_mlp_simclrhn_probe0,1,404,NaN,elephant,chair,0,0404_sty_dnn_0_chair_00_chair-0024-ILSVRC2012-val-00021099.png,chair-0024-ILSVRC2012-val-00021099.png,0.0,-9.751112,1.9144616,-8.248806
alexnet_w3_mlp_simclrhn_probe0,1,405,NaN,oven,chair,0,0405_sty_dnn_0_chair_00_chair-0030-ILSVRC2012-val-00026896.png,chair-0030-ILSVRC2012-val-00026896.png,0.0,-4.6909237,-2.1616712,-1.7884517
alexnet_w3_mlp_simclrhn_probe0,1,406,NaN,bottle,chair,0,0406_sty_dnn_0_chair_00_chair-0033-ILSVRC2012-val-00031805.png,chair-0033-ILSVRC2012-val-00031805.png,0.0,-3.5804374,-1.9903172,-1.1243848
alexnet_w3_mlp_simclrhn_probe0,1,407,NaN,elephant,chair,0,0407_sty_dnn_0_chair_00_chair-0039-ILSVRC2012-val-00041772.png,chair-0039-ILSVRC2012-val-00041772.png,0.0,-5.0516634,0.41881484,-3.8682122
alexnet_w3_mlp_simclrhn_probe0,1,408,NaN,knife,chair,0,0408_sty_dnn_0_chair_00_chair-0040-ILSVRC2012-val-00042512.png,chair-0040-ILSVRC2012-val-00042512.png,0.0,-5.427329,-1.6173941,-2.694031
alexnet_w3_mlp_simclrhn_probe0,1,409,NaN,knife,chair,0,0409_sty_dnn_0_chair_00_chair-0045-ILSVRC2012-val-00044898.png,chair-0045-ILSVRC2012-val-00044898.png,0.0,-3.5051007,-1.4941659,-1.4219457
alexnet_w3_mlp_simclrhn_probe0,1,410,NaN,bicycle,chair,0,0410_sty_dnn_0_chair_00_chair-0047-ILSVRC2012-val-00045407.png,chair-0047-ILSVRC2012-val-00045407.png,0.0,-1.8783127,-1.0739145,-0.56879544
alexnet_w3_mlp_simclrhn_probe0,1,411,NaN,dog,chair,0,0411_sty_dnn_0_chair_00_chair-0050-ILSVRC2012-val-00049050.png,chair-0050-ILSVRC2012-val-00049050.png,0.0,-8.603742,-3.9439697,-3.2949564
alexnet_w3_mlp_simclrhn_probe0,1,412,NaN,oven,chair,0,0412_sty_dnn_0_chair_00_chair-0051-ILSVRC2012-val-00001616.png,chair-0051-ILSVRC2012-val-00001616.png,0.0,-3.2024071,-2.635314,-0.4009954
alexnet_w3_mlp_simclrhn_probe0,1,413,NaN,bicycle,chair,0,0413_sty_dnn_0_chair_00_chair-0053-ILSVRC2012-val-00001855.png,chair-0053-ILSVRC2012-val-00001855.png,0.0,-5.098174,-1.9731293,-2.2097404
alexnet_w3_mlp_simclrhn_probe0,1,414,NaN,bicycle,chair,0,0414_sty_dnn_0_chair_00_chair-0058-ILSVRC2012-val-00005926.png,chair-0058-ILSVRC2012-val-00005926.png,0.0,-5.0283136,-2.0477939,-2.1075459
alexnet_w3_mlp_simclrhn_probe0,1,415,NaN,bicycle,chair,0,0415_sty_dnn_0_chair_00_chair-0059-ILSVRC2012-val-00006022.png,chair-0059-ILSVRC2012-val-00006022.png,0.0,-4.5149345,-2.898223,-1.1431878
alexnet_w3_mlp_simclrhn_probe0,1,416,NaN,elephant,chair,0,0416_sty_dnn_0_chair_00_chair-0072-ILSVRC2012-val-00015559.png,chair-0072-ILSVRC2012-val-00015559.png,0.0,-5.01321,-0.80710864,-2.9741628
alexnet_w3_mlp_simclrhn_probe0,1,417,NaN,chair,chair,0,0417_sty_dnn_0_chair_00_chair-0081-ILSVRC2012-val-00033069.png,chair-0081-ILSVRC2012-val-00033069.png,1.0,-1.2331755,-2.6516974,1.0030465
alexnet_w3_mlp_simclrhn_probe0,1,418,NaN,bicycle,chair,0,0418_sty_dnn_0_chair_00_chair-0085-ILSVRC2012-val-00036175.png,chair-0085-ILSVRC2012-val-00036175.png,0.0,-3.5607123,-1.3433373,-1.5679209
alexnet_w3_mlp_simclrhn_probe0,1,419,NaN,chair,chair,0,0419_sty_dnn_0_chair_00_chair-0087-ILSVRC2012-val-00037905.png,chair-0087-ILSVRC2012-val-00037905.png,1.0,-1.6240861,-1.8485329,0.15870784
alexnet_w3_mlp_simclrhn_probe0,1,420,NaN,oven,chair,0,0420_sty_dnn_0_chair_00_chair-0092-ILSVRC2012-val-00041814.png,chair-0092-ILSVRC2012-val-00041814.png,0.0,-5.5659704,-2.3726478,-2.2580202
alexnet_w3_mlp_simclrhn_probe0,1,421,NaN,bicycle,chair,0,0421_sty_dnn_0_chair_00_chair-0097-ILSVRC2012-val-00043453.png,chair-0097-ILSVRC2012-val-00043453.png,0.0,-3.6969185,-2.2278228,-1.0388075
alexnet_w3_mlp_simclrhn_probe0,1,422,NaN,bear,chair,0,0422_sty_dnn_0_chair_00_chair-0098-ILSVRC2012-val-00044181.png,chair-0098-ILSVRC2012-val-00044181.png,0.0,-7.131283,-0.51801795,-4.676285
alexnet_w3_mlp_simclrhn_probe0,1,423,NaN,chair,chair,0,0423_sty_dnn_0_chair_00_chair-0116-ILSVRC2012-val-00017447.png,chair-0116-ILSVRC2012-val-00017447.png,1.0,-3.17266,-3.8453133,0.47563764
alexnet_w3_mlp_simclrhn_probe0,1,424,NaN,chair,chair,0,0424_sty_dnn_0_chair_00_chair-0118-ILSVRC2012-val-00018123.png,chair-0118-ILSVRC2012-val-00018123.png,1.0,-1.2664046,-2.792183,1.0788882
alexnet_w3_mlp_simclrhn_probe0,1,425,NaN,bear,chair,0,0425_sty_dnn_0_chair_00_chair-0119-ILSVRC2012-val-00018206.png,chair-0119-ILSVRC2012-val-00018206.png,0.0,-4.6253147,-1.2000716,-2.4220128
alexnet_w3_mlp_simclrhn_probe0,1,426,NaN,chair,chair,0,0426_sty_dnn_0_chair_00_chair-0122-ILSVRC2012-val-00019867.png,chair-0122-ILSVRC2012-val-00019867.png,1.0,-2.8968165,-3.4266725,0.37466475
alexnet_w3_mlp_simclrhn_probe0,1,427,NaN,bicycle,chair,0,0427_sty_dnn_0_chair_00_chair-0123-ILSVRC2012-val-00020924.png,chair-0123-ILSVRC2012-val-00020924.png,0.0,-7.572064,-4.6675158,-2.0538259
alexnet_w3_mlp_simclrhn_probe0,1,428,NaN,oven,chair,0,0428_sty_dnn_0_chair_00_chair-0124-ILSVRC2012-val-00022208.png,chair-0124-ILSVRC2012-val-00022208.png,0.0,-7.437361,-1.4578595,-4.228146
alexnet_w3_mlp_simclrhn_probe0,1,429,NaN,oven,chair,0,0429_sty_dnn_0_chair_00_chair-0127-ILSVRC2012-val-00024620.png,chair-0127-ILSVRC2012-val-00024620.png,0.0,-2.8969002,0.27962425,-2.246142
alexnet_w3_mlp_simclrhn_probe0,1,430,NaN,bear,chair,0,0430_sty_dnn_0_chair_00_chair-0133-ILSVRC2012-val-00033406.png,chair-0133-ILSVRC2012-val-00033406.png,0.0,-5.3352504,-3.4013982,-1.36744
alexnet_w3_mlp_simclrhn_probe0,1,431,NaN,chair,chair,0,0431_sty_dnn_0_chair_00_chair-0136-ILSVRC2012-val-00037994.png,chair-0136-ILSVRC2012-val-00037994.png,1.0,-1.9195712,-3.471258,1.0972083
alexnet_w3_mlp_simclrhn_probe0,1,432,NaN,knife,chair,0,0432_sty_dnn_0_chair_00_chair-0138-ILSVRC2012-val-00038750.png,chair-0138-ILSVRC2012-val-00038750.png,0.0,-7.4707885,-3.95949,-2.482863
alexnet_w3_mlp_simclrhn_probe0,1,433,NaN,knife,chair,0,0433_sty_dnn_0_chair_00_chair-0141-ILSVRC2012-val-00040076.png,chair-0141-ILSVRC2012-val-00040076.png,0.0,-3.2889867,-1.0382861,-1.5914856
alexnet_w3_mlp_simclrhn_probe0,1,434,NaN,bottle,chair,0,0434_sty_dnn_0_chair_00_chair-0150-ILSVRC2012-val-00048622.png,chair-0150-ILSVRC2012-val-00048622.png,0.0,-7.2914844,-3.3592598,-2.7805026
alexnet_w3_mlp_simclrhn_probe0,1,435,NaN,knife,chair,0,0435_sty_dnn_0_chair_00_chair-0154-ILSVRC2012-val-00004705.png,chair-0154-ILSVRC2012-val-00004705.png,0.0,-4.7405176,-4.5116286,-0.16184896
alexnet_w3_mlp_simclrhn_probe0,1,436,NaN,oven,chair,0,0436_sty_dnn_0_chair_00_chair-0155-ILSVRC2012-val-00005160.png,chair-0155-ILSVRC2012-val-00005160.png,0.0,-5.580543,-1.0705893,-3.1890187
alexnet_w3_mlp_simclrhn_probe0,1,437,NaN,bottle,chair,0,0437_sty_dnn_0_chair_00_chair-0159-ILSVRC2012-val-00011028.png,chair-0159-ILSVRC2012-val-00011028.png,0.0,-6.0099325,-4.7047772,-0.92288417
alexnet_w3_mlp_simclrhn_probe0,1,438,NaN,chair,chair,0,0438_sty_dnn_0_chair_00_chair-0160-ILSVRC2012-val-00012040.png,chair-0160-ILSVRC2012-val-00012040.png,1.0,-1.9822267,-3.3207285,0.9464637
alexnet_w3_mlp_simclrhn_probe0,1,439,NaN,chair,chair,0,0439_sty_dnn_0_chair_00_chair-0169-ILSVRC2012-val-00019913.png,chair-0169-ILSVRC2012-val-00019913.png,1.0,-2.2126236,-3.0318375,0.5792717
alexnet_w3_mlp_simclrhn_probe0,1,440,NaN,knife,chair,0,0440_sty_dnn_0_chair_00_chair-0170-ILSVRC2012-val-00022051.png,chair-0170-ILSVRC2012-val-00022051.png,0.0,-2.3735929,-1.7918192,-0.4113761
alexnet_w3_mlp_simclrhn_probe0,1,441,NaN,bottle,chair,0,0441_sty_dnn_0_chair_00_chair-0172-ILSVRC2012-val-00023378.png,chair-0172-ILSVRC2012-val-00023378.png,0.0,-4.25015,-2.745348,-1.0640559
alexnet_w3_mlp_simclrhn_probe0,1,442,NaN,clock,chair,0,0442_sty_dnn_0_chair_00_chair-0181-ILSVRC2012-val-00033160.png,chair-0181-ILSVRC2012-val-00033160.png,0.0,-5.5150003,-4.930289,-0.41345352
alexnet_w3_mlp_simclrhn_probe0,1,443,NaN,cat,chair,0,0443_sty_dnn_0_chair_00_chair-0183-ILSVRC2012-val-00035142.png,chair-0183-ILSVRC2012-val-00035142.png,0.0,-5.379318,-1.9768978,-2.4058747
alexnet_w3_mlp_simclrhn_probe0,1,444,NaN,elephant,chair,0,0444_sty_dnn_0_chair_00_chair-0188-ILSVRC2012-val-00041720.png,chair-0188-ILSVRC2012-val-00041720.png,0.0,-8.197335,-2.2489858,-4.206118
alexnet_w3_mlp_simclrhn_probe0,1,445,NaN,elephant,chair,0,0445_sty_dnn_0_chair_00_chair-0189-ILSVRC2012-val-00041883.png,chair-0189-ILSVRC2012-val-00041883.png,0.0,-5.1211224,-0.64814615,-3.1628718
alexnet_w3_mlp_simclrhn_probe0,1,446,NaN,boat,chair,0,0446_sty_dnn_0_chair_00_chair-0192-ILSVRC2012-val-00043870.png,chair-0192-ILSVRC2012-val-00043870.png,0.0,-5.1315227,-2.7207675,-1.7046614
alexnet_w3_mlp_simclrhn_probe0,1,447,NaN,chair,chair,0,0447_sty_dnn_0_chair_00_chair-0193-ILSVRC2012-val-00044295.png,chair-0193-ILSVRC2012-val-00044295.png,1.0,-4.96317,-5.0245166,0.04337855
alexnet_w3_mlp_simclrhn_probe0,1,448,NaN,chair,chair,0,0448_sty_dnn_0_chair_00_chair-0195-ILSVRC2012-val-00045464.png,chair-0195-ILSVRC2012-val-00045464.png,1.0,-1.5818669,-3.515884,1.3675566
alexnet_w3_mlp_simclrhn_probe0,1,449,NaN,oven,chair,0,0449_sty_dnn_0_chair_00_chair-0196-ILSVRC2012-val-00045844.png,chair-0196-ILSVRC2012-val-00045844.png,0.0,-4.0678625,-1.2349156,-2.003196
alexnet_w3_mlp_simclrhn_probe0,1,450,NaN,oven,chair,0,0450_sty_dnn_0_chair_00_chair-0199-ILSVRC2012-val-00048901.png,chair-0199-ILSVRC2012-val-00048901.png,0.0,-3.3848667,-1.443193,-1.3729707
alexnet_w3_mlp_simclrhn_probe0,1,451,NaN,clock,clock,0,0451_sty_dnn_0_clock_00_clock-0001-ILSVRC2012-val-00001011.png,clock-0001-ILSVRC2012-val-00001011.png,1.0,-2.6195736,-4.2985177,1.1871928
alexnet_w3_mlp_simclrhn_probe0,1,452,NaN,bicycle,clock,0,0452_sty_dnn_0_clock_00_clock-0007-ILSVRC2012-val-00005490.png,clock-0007-ILSVRC2012-val-00005490.png,0.0,-7.4017663,-0.7439518,-4.707786
alexnet_w3_mlp_simclrhn_probe0,1,453,NaN,bottle,clock,0,0453_sty_dnn_0_clock_00_clock-0008-ILSVRC2012-val-00005558.png,clock-0008-ILSVRC2012-val-00005558.png,0.0,-2.6570055,-2.5336154,-0.08725005
alexnet_w3_mlp_simclrhn_probe0,1,454,NaN,clock,clock,0,0454_sty_dnn_0_clock_00_clock-0010-ILSVRC2012-val-00006858.png,clock-0010-ILSVRC2012-val-00006858.png,1.0,-3.5397758,-3.9157321,0.26584125
alexnet_w3_mlp_simclrhn_probe0,1,455,NaN,clock,clock,0,0455_sty_dnn_0_clock_00_clock-0013-ILSVRC2012-val-00013244.png,clock-0013-ILSVRC2012-val-00013244.png,1.0,-2.3052988,-3.2855458,0.6931393
alexnet_w3_mlp_simclrhn_probe0,1,456,NaN,oven,clock,0,0456_sty_dnn_0_clock_00_clock-0018-ILSVRC2012-val-00015871.png,clock-0018-ILSVRC2012-val-00015871.png,0.0,-4.682671,-3.329099,-0.95712006
alexnet_w3_mlp_simclrhn_probe0,1,457,NaN,clock,clock,0,0457_sty_dnn_0_clock_00_clock-0020-ILSVRC2012-val-00016889.png,clock-0020-ILSVRC2012-val-00016889.png,1.0,-1.3342291,-2.1329362,0.56477123
alexnet_w3_mlp_simclrhn_probe0,1,458,NaN,clock,clock,0,0458_sty_dnn_0_clock_00_clock-0023-ILSVRC2012-val-00017973.png,clock-0023-ILSVRC2012-val-00017973.png,1.0,-0.37642732,-3.2464557,2.0294166
alexnet_w3_mlp_simclrhn_probe0,1,459,NaN,clock,clock,0,0459_sty_dnn_0_clock_00_clock-0025-ILSVRC2012-val-00019663.png,clock-0025-ILSVRC2012-val-00019663.png,1.0,-3.1598208,-4.030682,0.6157919
alexnet_w3_mlp_simclrhn_probe0,1,460,NaN,oven,clock,0,0460_sty_dnn_0_clock_00_clock-0028-ILSVRC2012-val-00021179.png,clock-0028-ILSVRC2012-val-00021179.png,0.0,-3.490556,-1.53117,-1.3854952
alexnet_w3_mlp_simclrhn_probe0,1,461,NaN,clock,clock,0,0461_sty_dnn_0_clock_00_clock-0029-ILSVRC2012-val-00022719.png,clock-0029-ILSVRC2012-val-00022719.png,1.0,-2.035798,-3.544329,1.0666925
alexnet_w3_mlp_simclrhn_probe0,1,462,NaN,oven,clock,0,0462_sty_dnn_0_clock_00_clock-0032-ILSVRC2012-val-00024425.png,clock-0032-ILSVRC2012-val-00024425.png,0.0,-4.774038,-3.1407845,-1.1548846
alexnet_w3_mlp_simclrhn_probe0,1,463,NaN,elephant,clock,0,0463_sty_dnn_0_clock_00_clock-0034-ILSVRC2012-val-00026380.png,clock-0034-ILSVRC2012-val-00026380.png,0.0,-9.286397,-5.3413887,-2.7895422
alexnet_w3_mlp_simclrhn_probe0,1,464,NaN,clock,clock,0,0464_sty_dnn_0_clock_00_clock-0038-ILSVRC2012-val-00032489.png,clock-0038-ILSVRC2012-val-00032489.png,1.0,-0.51087934,-0.78940654,0.19694847
alexnet_w3_mlp_simclrhn_probe0,1,465,NaN,elephant,clock,0,0465_sty_dnn_0_clock_00_clock-0039-ILSVRC2012-val-00033429.png,clock-0039-ILSVRC2012-val-00033429.png,0.0,-5.520559,-0.9198428,-3.2531977
alexnet_w3_mlp_simclrhn_probe0,1,466,NaN,clock,clock,0,0466_sty_dnn_0_clock_00_clock-0040-ILSVRC2012-val-00035392.png,clock-0040-ILSVRC2012-val-00035392.png,1.0,3.3140507,-2.4399364,4.0686836
alexnet_w3_mlp_simclrhn_probe0,1,467,NaN,bicycle,clock,0,0467_sty_dnn_0_clock_00_clock-0043-ILSVRC2012-val-00041613.png,clock-0043-ILSVRC2012-val-00041613.png,0.0,-4.257652,-1.1141723,-2.2227757
alexnet_w3_mlp_simclrhn_probe0,1,468,NaN,oven,clock,0,0468_sty_dnn_0_clock_00_clock-0045-ILSVRC2012-val-00043497.png,clock-0045-ILSVRC2012-val-00043497.png,0.0,-6.015885,-1.4636493,-3.2189167
alexnet_w3_mlp_simclrhn_probe0,1,469,NaN,bottle,clock,0,0469_sty_dnn_0_clock_00_clock-0046-ILSVRC2012-val-00044049.png,clock-0046-ILSVRC2012-val-00044049.png,0.0,-1.6479665,-0.14862709,-1.0601931
alexnet_w3_mlp_simclrhn_probe0,1,470,NaN,bicycle,clock,0,0470_sty_dnn_0_clock_00_clock-0048-ILSVRC2012-val-00044752.png,clock-0048-ILSVRC2012-val-00044752.png,0.0,-4.8756,-3.5313678,-0.9505156
alexnet_w3_mlp_simclrhn_probe0,1,471,NaN,knife,clock,0,0471_sty_dnn_0_clock_00_clock-0052-ILSVRC2012-val-00003721.png,clock-0052-ILSVRC2012-val-00003721.png,0.0,-5.524215,-2.918219,-1.8427175
alexnet_w3_mlp_simclrhn_probe0,1,472,NaN,elephant,clock,0,0472_sty_dnn_0_clock_00_clock-0054-ILSVRC2012-val-00008751.png,clock-0054-ILSVRC2012-val-00008751.png,0.0,-3.781297,-0.40809867,-2.3852115
alexnet_w3_mlp_simclrhn_probe0,1,473,NaN,airplane,clock,0,0473_sty_dnn_0_clock_00_clock-0062-ILSVRC2012-val-00014987.png,clock-0062-ILSVRC2012-val-00014987.png,0.0,-1.4806541,-0.53188986,-0.67087764
alexnet_w3_mlp_simclrhn_probe0,1,474,NaN,chair,clock,0,0474_sty_dnn_0_clock_00_clock-0063-ILSVRC2012-val-00015628.png,clock-0063-ILSVRC2012-val-00015628.png,0.0,-5.9674163,-4.5496426,-1.0025175
alexnet_w3_mlp_simclrhn_probe0,1,475,NaN,bottle,clock,0,0475_sty_dnn_0_clock_00_clock-0073-ILSVRC2012-val-00026298.png,clock-0073-ILSVRC2012-val-00026298.png,0.0,-5.1370597,-3.9512904,-0.8384655
alexnet_w3_mlp_simclrhn_probe0,1,476,NaN,oven,clock,0,0476_sty_dnn_0_clock_00_clock-0076-ILSVRC2012-val-00028203.png,clock-0076-ILSVRC2012-val-00028203.png,0.0,-10.184554,-5.7116942,-3.1627896
alexnet_w3_mlp_simclrhn_probe0,1,477,NaN,knife,clock,0,0477_sty_dnn_0_clock_00_clock-0080-ILSVRC2012-val-00032946.png,clock-0080-ILSVRC2012-val-00032946.png,0.0,-4.2478876,-2.933747,-0.9292377
alexnet_w3_mlp_simclrhn_probe0,1,478,NaN,chair,clock,0,0478_sty_dnn_0_clock_00_clock-0082-ILSVRC2012-val-00033627.png,clock-0082-ILSVRC2012-val-00033627.png,0.0,-8.147715,-4.192924,-2.7964592
alexnet_w3_mlp_simclrhn_probe0,1,479,NaN,clock,clock,0,0479_sty_dnn_0_clock_00_clock-0084-ILSVRC2012-val-00034426.png,clock-0084-ILSVRC2012-val-00034426.png,1.0,-1.2295667,-1.4651489,0.1665818
alexnet_w3_mlp_simclrhn_probe0,1,480,NaN,car,clock,0,0480_sty_dnn_0_clock_00_clock-0086-ILSVRC2012-val-00041483.png,clock-0086-ILSVRC2012-val-00041483.png,0.0,-4.098594,-1.1236254,-2.1036208
alexnet_w3_mlp_simclrhn_probe0,1,481,NaN,oven,clock,0,0481_sty_dnn_0_clock_00_clock-0089-ILSVRC2012-val-00042911.png,clock-0089-ILSVRC2012-val-00042911.png,0.0,-5.936104,-2.6945784,-2.2921047
alexnet_w3_mlp_simclrhn_probe0,1,482,NaN,bicycle,clock,0,0482_sty_dnn_0_clock_00_clock-0091-ILSVRC2012-val-00044029.png,clock-0091-ILSVRC2012-val-00044029.png,0.0,-7.265578,-2.9119182,-3.0785024
alexnet_w3_mlp_simclrhn_probe0,1,483,NaN,oven,clock,0,0483_sty_dnn_0_clock_00_clock-0092-ILSVRC2012-val-00044168.png,clock-0092-ILSVRC2012-val-00044168.png,0.0,-6.216556,-2.2624588,-2.795969
alexnet_w3_mlp_simclrhn_probe0,1,484,NaN,oven,clock,0,0484_sty_dnn_0_clock_00_clock-0098-ILSVRC2012-val-00048682.png,clock-0098-ILSVRC2012-val-00048682.png,0.0,-6.699846,-3.279578,-2.4184947
alexnet_w3_mlp_simclrhn_probe0,1,485,NaN,oven,clock,0,0485_sty_dnn_0_clock_00_clock-0100-ILSVRC2012-val-00049759.png,clock-0100-ILSVRC2012-val-00049759.png,0.0,-2.3358116,-1.3211485,-0.7174752
alexnet_w3_mlp_simclrhn_probe0,1,486,NaN,oven,clock,0,0486_sty_dnn_0_clock_00_clock-0106-ILSVRC2012-val-00009413.png,clock-0106-ILSVRC2012-val-00009413.png,0.0,-4.8085456,-3.1885004,-1.145545
alexnet_w3_mlp_simclrhn_probe0,1,487,NaN,elephant,clock,0,0487_sty_dnn_0_clock_00_clock-0107-ILSVRC2012-val-00010270.png,clock-0107-ILSVRC2012-val-00010270.png,0.0,-5.985121,-5.839102,-0.10325102
alexnet_w3_mlp_simclrhn_probe0,1,488,NaN,elephant,clock,0,0488_sty_dnn_0_clock_00_clock-0108-ILSVRC2012-val-00011957.png,clock-0108-ILSVRC2012-val-00011957.png,0.0,-4.963511,-4.649335,-0.22215605
alexnet_w3_mlp_simclrhn_probe0,1,489,NaN,knife,clock,0,0489_sty_dnn_0_clock_00_clock-0110-ILSVRC2012-val-00014035.png,clock-0110-ILSVRC2012-val-00014035.png,0.0,-3.5312798,-2.0041943,-1.0798125
alexnet_w3_mlp_simclrhn_probe0,1,490,NaN,elephant,clock,0,0490_sty_dnn_0_clock_00_clock-0112-ILSVRC2012-val-00014635.png,clock-0112-ILSVRC2012-val-00014635.png,0.0,-7.6540337,-3.1749291,-3.1672053
alexnet_w3_mlp_simclrhn_probe0,1,491,NaN,knife,clock,0,0491_sty_dnn_0_clock_00_clock-0118-ILSVRC2012-val-00018443.png,clock-0118-ILSVRC2012-val-00018443.png,0.0,-4.2066703,-3.1228187,-0.7663988
alexnet_w3_mlp_simclrhn_probe0,1,492,NaN,clock,clock,0,0492_sty_dnn_0_clock_00_clock-0119-ILSVRC2012-val-00018797.png,clock-0119-ILSVRC2012-val-00018797.png,1.0,-1.1808285,-1.5231732,0.24207431
alexnet_w3_mlp_simclrhn_probe0,1,493,NaN,cat,clock,0,0493_sty_dnn_0_clock_00_clock-0127-ILSVRC2012-val-00030330.png,clock-0127-ILSVRC2012-val-00030330.png,0.0,-6.713207,-2.5769784,-2.9247553
alexnet_w3_mlp_simclrhn_probe0,1,494,NaN,bicycle,clock,0,0494_sty_dnn_0_clock_00_clock-0128-ILSVRC2012-val-00030987.png,clock-0128-ILSVRC2012-val-00030987.png,0.0,-4.189665,-2.1408832,-1.4487075
alexnet_w3_mlp_simclrhn_probe0,1,495,NaN,bottle,clock,0,0495_sty_dnn_0_clock_00_clock-0129-ILSVRC2012-val-00031861.png,clock-0129-ILSVRC2012-val-00031861.png,0.0,-2.9356525,-1.2541659,-1.1889906
alexnet_w3_mlp_simclrhn_probe0,1,496,NaN,bicycle,clock,0,0496_sty_dnn_0_clock_00_clock-0130-ILSVRC2012-val-00032136.png,clock-0130-ILSVRC2012-val-00032136.png,0.0,-5.323614,-3.954979,-0.96777123
alexnet_w3_mlp_simclrhn_probe0,1,497,NaN,knife,clock,0,0497_sty_dnn_0_clock_00_clock-0142-ILSVRC2012-val-00041461.png,clock-0142-ILSVRC2012-val-00041461.png,0.0,-6.109443,-5.2185516,-0.6299555
alexnet_w3_mlp_simclrhn_probe0,1,498,NaN,bear,clock,0,0498_sty_dnn_0_clock_00_clock-0143-ILSVRC2012-val-00041547.png,clock-0143-ILSVRC2012-val-00041547.png,0.0,-4.6771116,-1.8054361,-2.0305812
alexnet_w3_mlp_simclrhn_probe0,1,499,NaN,clock,clock,0,0499_sty_dnn_0_clock_00_clock-0144-ILSVRC2012-val-00041715.png,clock-0144-ILSVRC2012-val-00041715.png,1.0,-0.24724531,-2.8300939,1.8263497
alexnet_w3_mlp_simclrhn_probe0,1,500,NaN,bear,clock,0,0500_sty_dnn_0_clock_00_clock-0145-ILSVRC2012-val-00044685.png,clock-0145-ILSVRC2012-val-00044685.png,0.0,-6.6170297,-1.9269193,-3.3164089
alexnet_w3_mlp_simclrhn_probe0,1,501,NaN,dog,dog,0,0501_sty_dnn_0_dog_00_dog-0099-ILSVRC2012-val-00048280.png,dog-0099-ILSVRC2012-val-00048280.png,1.0,-4.5224924,-8.419889,2.7558758
alexnet_w3_mlp_simclrhn_probe0,1,502,NaN,bottle,dog,0,0502_sty_dnn_0_dog_00_dog-0158-ILSVRC2012-val-00004081.png,dog-0158-ILSVRC2012-val-00004081.png,0.0,-5.1608896,-3.0084758,-1.5219865
alexnet_w3_mlp_simclrhn_probe0,1,503,NaN,elephant,dog,0,0503_sty_dnn_0_dog_00_dog-0220-ILSVRC2012-val-00017568.png,dog-0220-ILSVRC2012-val-00017568.png,0.0,-4.8732843,-2.1948304,-1.893953
alexnet_w3_mlp_simclrhn_probe0,1,504,NaN,elephant,dog,0,0504_sty_dnn_0_dog_00_dog-0247-ILSVRC2012-val-00045683.png,dog-0247-ILSVRC2012-val-00045683.png,0.0,-4.771929,-2.3559115,-1.7083822
alexnet_w3_mlp_simclrhn_probe0,1,505,NaN,bear,dog,0,0505_sty_dnn_0_dog_00_dog-0303-ILSVRC2012-val-00002521.png,dog-0303-ILSVRC2012-val-00002521.png,0.0,-2.459487,-0.63222986,-1.292066
alexnet_w3_mlp_simclrhn_probe0,1,506,NaN,elephant,dog,0,0506_sty_dnn_0_dog_00_dog-0386-ILSVRC2012-val-00034616.png,dog-0386-ILSVRC2012-val-00034616.png,0.0,-3.8273199,-3.7686915,-0.041456483
alexnet_w3_mlp_simclrhn_probe0,1,507,NaN,elephant,dog,0,0507_sty_dnn_0_dog_00_dog-0397-ILSVRC2012-val-00044140.png,dog-0397-ILSVRC2012-val-00044140.png,0.0,-5.943009,-4.1012955,-1.302288
alexnet_w3_mlp_simclrhn_probe0,1,508,NaN,bear,dog,0,0508_sty_dnn_0_dog_00_dog-0779-ILSVRC2012-val-00033666.png,dog-0779-ILSVRC2012-val-00033666.png,0.0,-4.8177276,-4.039879,-0.5500221
alexnet_w3_mlp_simclrhn_probe0,1,509,NaN,dog,dog,0,0509_sty_dnn_0_dog_00_dog-1178-ILSVRC2012-val-00022137.png,dog-1178-ILSVRC2012-val-00022137.png,1.0,-2.3485322,-3.2476702,0.6357866
alexnet_w3_mlp_simclrhn_probe0,1,510,NaN,elephant,dog,0,0510_sty_dnn_0_dog_00_dog-1191-ILSVRC2012-val-00037989.png,dog-1191-ILSVRC2012-val-00037989.png,0.0,-3.3511035,-0.39772308,-2.0883555
alexnet_w3_mlp_simclrhn_probe0,1,511,NaN,cat,dog,0,0511_sty_dnn_0_dog_00_dog-1398-ILSVRC2012-val-00046547.png,dog-1398-ILSVRC2012-val-00046547.png,0.0,-5.9141254,-5.653824,-0.18406102
alexnet_w3_mlp_simclrhn_probe0,1,512,NaN,knife,dog,0,0512_sty_dnn_0_dog_00_dog-1538-ILSVRC2012-val-00038167.png,dog-1538-ILSVRC2012-val-00038167.png,0.0,-7.9494886,-2.9896402,-3.5071425
alexnet_w3_mlp_simclrhn_probe0,1,513,NaN,knife,dog,0,0513_sty_dnn_0_dog_00_dog-1613-ILSVRC2012-val-00015923.png,dog-1613-ILSVRC2012-val-00015923.png,0.0,-5.609144,-3.1401424,-1.745848
alexnet_w3_mlp_simclrhn_probe0,1,514,NaN,bottle,dog,0,0514_sty_dnn_0_dog_00_dog-1734-ILSVRC2012-val-00031377.png,dog-1734-ILSVRC2012-val-00031377.png,0.0,-6.250756,-3.7195282,-1.7898482
