subj,session,trial,rt,object_response,category,condition,imagename,filename,is_correct,targ_act,max_nontarg_act,decision_margin
alexnet_w1_mlp_simclrhn_probe0,1,1,NaN,bicycle,airplane,0,0001_sty_dnn_0_airplane_00_airplane-0001-ILSVRC2012-val-00000631.png,airplane-0001-ILSVRC2012-val-00000631.png,0.0,-10.247963,-1.7620155,-6.000471
alexnet_w1_mlp_simclrhn_probe0,1,2,NaN,airplane,airplane,0,0002_sty_dnn_0_airplane_00_airplane-0002-ILSVRC2012-val-00001390.png,airplane-0002-ILSVRC2012-val-00001390.png,1.0,-1.0708559,-1.6725045,0.42542988
alexnet_w1_mlp_simclrhn_probe0,1,3,NaN,oven,airplane,0,0003_sty_dnn_0_airplane_00_airplane-0003-ILSVRC2012-val-00001506.png,airplane-0003-ILSVRC2012-val-00001506.png,0.0,-12.55634,-3.328364,-6.5251646
alexnet_w1_mlp_simclrhn_probe0,1,4,NaN,bear,airplane,0,0004_sty_dnn_0_airplane_00_airplane-0004-ILSVRC2012-val-00001952.png,airplane-0004-ILSVRC2012-val-00001952.png,0.0,-8.333029,-2.750448,-3.9474807
alexnet_w1_mlp_simclrhn_probe0,1,5,NaN,bear,airplane,0,0005_sty_dnn_0_airplane_00_airplane-0005-ILSVRC2012-val-00003960.png,airplane-0005-ILSVRC2012-val-00003960.png,0.0,-6.269293,-4.017316,-1.5923882
alexnet_w1_mlp_simclrhn_probe0,1,6,NaN,elephant,airplane,0,0006_sty_dnn_0_airplane_00_airplane-0006-ILSVRC2012-val-00008292.png,airplane-0006-ILSVRC2012-val-00008292.png,0.0,-9.095748,-2.4310102,-4.7126813
alexnet_w1_mlp_simclrhn_probe0,1,7,NaN,airplane,airplane,0,0007_sty_dnn_0_airplane_00_airplane-0007-ILSVRC2012-val-00009537.png,airplane-0007-ILSVRC2012-val-00009537.png,1.0,1.2567463,-2.4570339,2.6260393
alexnet_w1_mlp_simclrhn_probe0,1,8,NaN,elephant,airplane,0,0008_sty_dnn_0_airplane_00_airplane-0008-ILSVRC2012-val-00010597.png,airplane-0008-ILSVRC2012-val-00010597.png,0.0,-7.212542,-2.3275347,-3.454222
alexnet_w1_mlp_simclrhn_probe0,1,9,NaN,bear,airplane,0,0009_sty_dnn_0_airplane_00_airplane-0009-ILSVRC2012-val-00011168.png,airplane-0009-ILSVRC2012-val-00011168.png,0.0,-11.711239,-2.5138366,-6.5035453
alexnet_w1_mlp_simclrhn_probe0,1,10,NaN,bicycle,airplane,0,0010_sty_dnn_0_airplane_00_airplane-0010-ILSVRC2012-val-00012263.png,airplane-0010-ILSVRC2012-val-00012263.png,0.0,-14.039555,-4.986188,-6.401697
alexnet_w1_mlp_simclrhn_probe0,1,11,NaN,oven,airplane,0,0011_sty_dnn_0_airplane_00_airplane-0011-ILSVRC2012-val-00014425.png,airplane-0011-ILSVRC2012-val-00014425.png,0.0,-13.507566,-5.051882,-5.979072
alexnet_w1_mlp_simclrhn_probe0,1,12,NaN,elephant,airplane,0,0012_sty_dnn_0_airplane_00_airplane-0012-ILSVRC2012-val-00015498.png,airplane-0012-ILSVRC2012-val-00015498.png,0.0,-11.270761,-2.0352569,-6.5304875
alexnet_w1_mlp_simclrhn_probe0,1,13,NaN,elephant,airplane,0,0013_sty_dnn_0_airplane_00_airplane-0013-ILSVRC2012-val-00015636.png,airplane-0013-ILSVRC2012-val-00015636.png,0.0,-10.688828,-2.854496,-5.5397096
alexnet_w1_mlp_simclrhn_probe0,1,14,NaN,oven,airplane,0,0014_sty_dnn_0_airplane_00_airplane-0014-ILSVRC2012-val-00016995.png,airplane-0014-ILSVRC2012-val-00016995.png,0.0,-8.706015,-3.237403,-3.8668926
alexnet_w1_mlp_simclrhn_probe0,1,15,NaN,bear,airplane,0,0015_sty_dnn_0_airplane_00_airplane-0015-ILSVRC2012-val-00018616.png,airplane-0015-ILSVRC2012-val-00018616.png,0.0,-7.5228286,-0.4754774,-4.98323
alexnet_w1_mlp_simclrhn_probe0,1,16,NaN,bicycle,airplane,0,0016_sty_dnn_0_airplane_00_airplane-0016-ILSVRC2012-val-00018685.png,airplane-0016-ILSVRC2012-val-00018685.png,0.0,-9.142292,-3.8602157,-3.734992
alexnet_w1_mlp_simclrhn_probe0,1,17,NaN,elephant,airplane,0,0017_sty_dnn_0_airplane_00_airplane-0017-ILSVRC2012-val-00019179.png,airplane-0017-ILSVRC2012-val-00019179.png,0.0,-12.305969,-3.6640983,-6.1107254
alexnet_w1_mlp_simclrhn_probe0,1,18,NaN,elephant,airplane,0,0018_sty_dnn_0_airplane_00_airplane-0018-ILSVRC2012-val-00019677.png,airplane-0018-ILSVRC2012-val-00019677.png,0.0,-5.8310814,-4.512771,-0.9321861
alexnet_w1_mlp_simclrhn_probe0,1,19,NaN,knife,airplane,0,0019_sty_dnn_0_airplane_00_airplane-0019-ILSVRC2012-val-00022532.png,airplane-0019-ILSVRC2012-val-00022532.png,0.0,-12.097125,-5.8152018,-4.441991
alexnet_w1_mlp_simclrhn_probe0,1,20,NaN,bicycle,airplane,0,0020_sty_dnn_0_airplane_00_airplane-0020-ILSVRC2012-val-00022975.png,airplane-0020-ILSVRC2012-val-00022975.png,0.0,-13.170757,-1.3817973,-8.336053
alexnet_w1_mlp_simclrhn_probe0,1,21,NaN,knife,airplane,0,0021_sty_dnn_0_airplane_00_airplane-0021-ILSVRC2012-val-00023316.png,airplane-0021-ILSVRC2012-val-00023316.png,0.0,-8.439345,-6.6359997,-1.2751579
alexnet_w1_mlp_simclrhn_probe0,1,22,NaN,elephant,airplane,0,0022_sty_dnn_0_airplane_00_airplane-0022-ILSVRC2012-val-00023781.png,airplane-0022-ILSVRC2012-val-00023781.png,0.0,-8.0103035,-1.905173,-4.3169794
alexnet_w1_mlp_simclrhn_probe0,1,23,NaN,airplane,airplane,0,0023_sty_dnn_0_airplane_00_airplane-0023-ILSVRC2012-val-00023863.png,airplane-0023-ILSVRC2012-val-00023863.png,1.0,2.9605184,-2.4841478,3.8499603
alexnet_w1_mlp_simclrhn_probe0,1,24,NaN,airplane,airplane,0,0024_sty_dnn_0_airplane_00_airplane-0024-ILSVRC2012-val-00024108.png,airplane-0024-ILSVRC2012-val-00024108.png,1.0,-2.8530345,-6.0807085,2.2823102
alexnet_w1_mlp_simclrhn_probe0,1,25,NaN,boat,airplane,0,0025_sty_dnn_0_airplane_00_airplane-0025-ILSVRC2012-val-00024747.png,airplane-0025-ILSVRC2012-val-00024747.png,0.0,-0.7321917,-0.5598827,-0.12184085
alexnet_w1_mlp_simclrhn_probe0,1,26,NaN,elephant,airplane,0,0026_sty_dnn_0_airplane_00_airplane-0026-ILSVRC2012-val-00026189.png,airplane-0026-ILSVRC2012-val-00026189.png,0.0,-6.8590307,-2.0146494,-3.425495
alexnet_w1_mlp_simclrhn_probe0,1,27,NaN,airplane,airplane,0,0027_sty_dnn_0_airplane_00_airplane-0027-ILSVRC2012-val-00026859.png,airplane-0027-ILSVRC2012-val-00026859.png,1.0,-1.94542,-5.2380247,2.3282232
alexnet_w1_mlp_simclrhn_probe0,1,28,NaN,elephant,airplane,0,0028_sty_dnn_0_airplane_00_airplane-0028-ILSVRC2012-val-00028019.png,airplane-0028-ILSVRC2012-val-00028019.png,0.0,-8.17069,0.61812896,-6.214633
alexnet_w1_mlp_simclrhn_probe0,1,29,NaN,bicycle,airplane,0,0029_sty_dnn_0_airplane_00_airplane-0029-ILSVRC2012-val-00030319.png,airplane-0029-ILSVRC2012-val-00030319.png,0.0,-11.372098,0.7812102,-8.593687
alexnet_w1_mlp_simclrhn_probe0,1,30,NaN,elephant,airplane,0,0030_sty_dnn_0_airplane_00_airplane-0030-ILSVRC2012-val-00030411.png,airplane-0030-ILSVRC2012-val-00030411.png,0.0,-8.778237,-5.439146,-2.3610942
alexnet_w1_mlp_simclrhn_probe0,1,31,NaN,bicycle,airplane,0,0031_sty_dnn_0_airplane_00_airplane-0031-ILSVRC2012-val-00030531.png,airplane-0031-ILSVRC2012-val-00030531.png,0.0,-8.132576,-7.872964,-0.18357347
alexnet_w1_mlp_simclrhn_probe0,1,32,NaN,knife,airplane,0,0032_sty_dnn_0_airplane_00_airplane-0032-ILSVRC2012-val-00032804.png,airplane-0032-ILSVRC2012-val-00032804.png,0.0,-11.045551,-7.8816752,-2.2371984
alexnet_w1_mlp_simclrhn_probe0,1,33,NaN,oven,airplane,0,0033_sty_dnn_0_airplane_00_airplane-0033-ILSVRC2012-val-00033161.png,airplane-0033-ILSVRC2012-val-00033161.png,0.0,-12.04763,-3.3826754,-6.1270485
alexnet_w1_mlp_simclrhn_probe0,1,34,NaN,elephant,airplane,0,0034_sty_dnn_0_airplane_00_airplane-0034-ILSVRC2012-val-00033441.png,airplane-0034-ILSVRC2012-val-00033441.png,0.0,-10.416366,-4.78357,-3.982988
alexnet_w1_mlp_simclrhn_probe0,1,35,NaN,airplane,airplane,0,0035_sty_dnn_0_airplane_00_airplane-0035-ILSVRC2012-val-00033920.png,airplane-0035-ILSVRC2012-val-00033920.png,1.0,-2.442066,-2.8766985,0.30733162
alexnet_w1_mlp_simclrhn_probe0,1,36,NaN,airplane,airplane,0,0036_sty_dnn_0_airplane_00_airplane-0036-ILSVRC2012-val-00034342.png,airplane-0036-ILSVRC2012-val-00034342.png,1.0,-5.4614515,-6.4583526,0.7049155
alexnet_w1_mlp_simclrhn_probe0,1,37,NaN,bicycle,airplane,0,0037_sty_dnn_0_airplane_00_airplane-0037-ILSVRC2012-val-00035783.png,airplane-0037-ILSVRC2012-val-00035783.png,0.0,-8.438832,-1.48737,-4.9154263
alexnet_w1_mlp_simclrhn_probe0,1,38,NaN,oven,airplane,0,0038_sty_dnn_0_airplane_00_airplane-0038-ILSVRC2012-val-00036394.png,airplane-0038-ILSVRC2012-val-00036394.png,0.0,-13.699905,-2.6301174,-7.8275223
alexnet_w1_mlp_simclrhn_probe0,1,39,NaN,bicycle,airplane,0,0039_sty_dnn_0_airplane_00_airplane-0039-ILSVRC2012-val-00037801.png,airplane-0039-ILSVRC2012-val-00037801.png,0.0,-15.295388,-1.642443,-9.654091
alexnet_w1_mlp_simclrhn_probe0,1,40,NaN,knife,airplane,0,0040_sty_dnn_0_airplane_00_airplane-0040-ILSVRC2012-val-00039213.png,airplane-0040-ILSVRC2012-val-00039213.png,0.0,-7.367534,-5.679325,-1.1937441
alexnet_w1_mlp_simclrhn_probe0,1,41,NaN,knife,airplane,0,0041_sty_dnn_0_airplane_00_airplane-0041-ILSVRC2012-val-00040136.png,airplane-0041-ILSVRC2012-val-00040136.png,0.0,-11.932057,-6.7751565,-3.6464796
alexnet_w1_mlp_simclrhn_probe0,1,42,NaN,bicycle,airplane,0,0042_sty_dnn_0_airplane_00_airplane-0042-ILSVRC2012-val-00040547.png,airplane-0042-ILSVRC2012-val-00040547.png,0.0,-20.134172,-3.0555377,-12.076418
alexnet_w1_mlp_simclrhn_probe0,1,43,NaN,bear,airplane,0,0043_sty_dnn_0_airplane_00_airplane-0043-ILSVRC2012-val-00041518.png,airplane-0043-ILSVRC2012-val-00041518.png,0.0,-8.856698,-1.1758839,-5.431156
alexnet_w1_mlp_simclrhn_probe0,1,44,NaN,truck,airplane,0,0044_sty_dnn_0_airplane_00_airplane-0044-ILSVRC2012-val-00043242.png,airplane-0044-ILSVRC2012-val-00043242.png,0.0,-7.3198943,-3.7309284,-2.5377822
alexnet_w1_mlp_simclrhn_probe0,1,45,NaN,bicycle,airplane,0,0045_sty_dnn_0_airplane_00_airplane-0045-ILSVRC2012-val-00044253.png,airplane-0045-ILSVRC2012-val-00044253.png,0.0,-11.41827,-4.9322853,-4.5862837
alexnet_w1_mlp_simclrhn_probe0,1,46,NaN,bicycle,airplane,0,0046_sty_dnn_0_airplane_00_airplane-0046-ILSVRC2012-val-00046862.png,airplane-0046-ILSVRC2012-val-00046862.png,0.0,-9.178684,-5.903284,-2.3160577
alexnet_w1_mlp_simclrhn_probe0,1,47,NaN,elephant,airplane,0,0047_sty_dnn_0_airplane_00_airplane-0047-ILSVRC2012-val-00046971.png,airplane-0047-ILSVRC2012-val-00046971.png,0.0,-8.155352,-4.8858285,-2.311902
alexnet_w1_mlp_simclrhn_probe0,1,48,NaN,airplane,airplane,0,0048_sty_dnn_0_airplane_00_airplane-0048-ILSVRC2012-val-00047829.png,airplane-0048-ILSVRC2012-val-00047829.png,1.0,-3.297519,-3.3170059,0.013779323
alexnet_w1_mlp_simclrhn_probe0,1,49,NaN,bear,airplane,0,0049_sty_dnn_0_airplane_00_airplane-0049-ILSVRC2012-val-00048111.png,airplane-0049-ILSVRC2012-val-00048111.png,0.0,-8.504284,-1.6152244,-4.8713007
alexnet_w1_mlp_simclrhn_probe0,1,50,NaN,airplane,airplane,0,0050_sty_dnn_0_airplane_00_airplane-0050-ILSVRC2012-val-00049097.png,airplane-0050-ILSVRC2012-val-00049097.png,1.0,-1.8862507,-3.1521337,0.8951144
alexnet_w1_mlp_simclrhn_probe0,1,51,NaN,bicycle,bear,0,0051_sty_dnn_0_bear_00_bear-0003-ILSVRC2012-val-00003044.png,bear-0003-ILSVRC2012-val-00003044.png,0.0,-16.732317,-5.907635,-7.6542063
alexnet_w1_mlp_simclrhn_probe0,1,52,NaN,bear,bear,0,0052_sty_dnn_0_bear_00_bear-0005-ILSVRC2012-val-00006703.png,bear-0005-ILSVRC2012-val-00006703.png,1.0,-1.9851234,-2.6915057,0.4994877
alexnet_w1_mlp_simclrhn_probe0,1,53,NaN,elephant,bear,0,0053_sty_dnn_0_bear_00_bear-0009-ILSVRC2012-val-00011967.png,bear-0009-ILSVRC2012-val-00011967.png,0.0,-6.362099,-4.2019863,-1.5274305
alexnet_w1_mlp_simclrhn_probe0,1,54,NaN,elephant,bear,0,0054_sty_dnn_0_bear_00_bear-0010-ILSVRC2012-val-00013390.png,bear-0010-ILSVRC2012-val-00013390.png,0.0,-3.7070992,-2.9347713,-0.5461183
alexnet_w1_mlp_simclrhn_probe0,1,55,NaN,elephant,bear,0,0055_sty_dnn_0_bear_00_bear-0021-ILSVRC2012-val-00031253.png,bear-0021-ILSVRC2012-val-00031253.png,0.0,-0.5899863,0.2760752,-0.612398
alexnet_w1_mlp_simclrhn_probe0,1,56,NaN,knife,bear,0,0056_sty_dnn_0_bear_00_bear-0031-ILSVRC2012-val-00039777.png,bear-0031-ILSVRC2012-val-00039777.png,0.0,-14.063092,-8.099867,-4.216637
alexnet_w1_mlp_simclrhn_probe0,1,57,NaN,elephant,bear,0,0057_sty_dnn_0_bear_00_bear-0035-ILSVRC2012-val-00042274.png,bear-0035-ILSVRC2012-val-00042274.png,0.0,-6.201893,-3.3363633,-2.0262353
alexnet_w1_mlp_simclrhn_probe0,1,58,NaN,clock,bear,0,0058_sty_dnn_0_bear_00_bear-0043-ILSVRC2012-val-00046763.png,bear-0043-ILSVRC2012-val-00046763.png,0.0,-1.5592465,-0.3456696,-0.8581285
alexnet_w1_mlp_simclrhn_probe0,1,59,NaN,elephant,bear,0,0059_sty_dnn_0_bear_00_bear-0049-ILSVRC2012-val-00049822.png,bear-0049-ILSVRC2012-val-00049822.png,0.0,-6.9539347,-3.0965776,-2.7275634
alexnet_w1_mlp_simclrhn_probe0,1,60,NaN,elephant,bear,0,0060_sty_dnn_0_bear_00_bear-0052-ILSVRC2012-val-00000865.png,bear-0052-ILSVRC2012-val-00000865.png,0.0,-0.8681253,-0.7705684,-0.06898318
alexnet_w1_mlp_simclrhn_probe0,1,61,NaN,elephant,bear,0,0061_sty_dnn_0_bear_00_bear-0056-ILSVRC2012-val-00007093.png,bear-0056-ILSVRC2012-val-00007093.png,0.0,-14.707687,-5.4541388,-6.543247
alexnet_w1_mlp_simclrhn_probe0,1,62,NaN,bear,bear,0,0062_sty_dnn_0_bear_00_bear-0058-ILSVRC2012-val-00011726.png,bear-0058-ILSVRC2012-val-00011726.png,1.0,-3.413197,-4.458361,0.73904264
alexnet_w1_mlp_simclrhn_probe0,1,63,NaN,bear,bear,0,0063_sty_dnn_0_bear_00_bear-0062-ILSVRC2012-val-00014029.png,bear-0062-ILSVRC2012-val-00014029.png,1.0,-1.6314628,-3.386838,1.2412376
alexnet_w1_mlp_simclrhn_probe0,1,64,NaN,elephant,bear,0,0064_sty_dnn_0_bear_00_bear-0064-ILSVRC2012-val-00016050.png,bear-0064-ILSVRC2012-val-00016050.png,0.0,-7.387083,-2.282629,-3.609394
alexnet_w1_mlp_simclrhn_probe0,1,65,NaN,bicycle,bear,0,0065_sty_dnn_0_bear_00_bear-0066-ILSVRC2012-val-00016621.png,bear-0066-ILSVRC2012-val-00016621.png,0.0,-21.544943,-5.2620764,-11.513726
alexnet_w1_mlp_simclrhn_probe0,1,66,NaN,elephant,bear,0,0066_sty_dnn_0_bear_00_bear-0067-ILSVRC2012-val-00017273.png,bear-0067-ILSVRC2012-val-00017273.png,0.0,-4.280773,-3.2067647,-0.7594387
alexnet_w1_mlp_simclrhn_probe0,1,67,NaN,knife,bear,0,0067_sty_dnn_0_bear_00_bear-0069-ILSVRC2012-val-00018788.png,bear-0069-ILSVRC2012-val-00018788.png,0.0,-15.438121,-6.734684,-6.154259
alexnet_w1_mlp_simclrhn_probe0,1,68,NaN,bear,bear,0,0068_sty_dnn_0_bear_00_bear-0071-ILSVRC2012-val-00020050.png,bear-0071-ILSVRC2012-val-00020050.png,1.0,-1.9368308,-1.9941564,0.040535323
alexnet_w1_mlp_simclrhn_probe0,1,69,NaN,knife,bear,0,0069_sty_dnn_0_bear_00_bear-0073-ILSVRC2012-val-00024289.png,bear-0073-ILSVRC2012-val-00024289.png,0.0,-17.067392,-7.84151,-6.523684
alexnet_w1_mlp_simclrhn_probe0,1,70,NaN,knife,bear,0,0070_sty_dnn_0_bear_00_bear-0074-ILSVRC2012-val-00026962.png,bear-0074-ILSVRC2012-val-00026962.png,0.0,-11.297561,-3.2829595,-5.6671786
alexnet_w1_mlp_simclrhn_probe0,1,71,NaN,cat,bear,0,0071_sty_dnn_0_bear_00_bear-0078-ILSVRC2012-val-00030951.png,bear-0078-ILSVRC2012-val-00030951.png,0.0,-5.9754133,-2.0633614,-2.7662385
alexnet_w1_mlp_simclrhn_probe0,1,72,NaN,elephant,bear,0,0072_sty_dnn_0_bear_00_bear-0085-ILSVRC2012-val-00035292.png,bear-0085-ILSVRC2012-val-00035292.png,0.0,-6.087816,-2.7089133,-2.3892453
alexnet_w1_mlp_simclrhn_probe0,1,73,NaN,dog,bear,0,0073_sty_dnn_0_bear_00_bear-0091-ILSVRC2012-val-00041813.png,bear-0091-ILSVRC2012-val-00041813.png,0.0,-10.361185,-5.8929205,-3.1595402
alexnet_w1_mlp_simclrhn_probe0,1,74,NaN,elephant,bear,0,0074_sty_dnn_0_bear_00_bear-0094-ILSVRC2012-val-00043648.png,bear-0094-ILSVRC2012-val-00043648.png,0.0,-4.170578,-0.20207447,-2.8061557
alexnet_w1_mlp_simclrhn_probe0,1,75,NaN,bicycle,bear,0,0075_sty_dnn_0_bear_00_bear-0106-ILSVRC2012-val-00007578.png,bear-0106-ILSVRC2012-val-00007578.png,0.0,-10.159459,-5.4513216,-3.329156
alexnet_w1_mlp_simclrhn_probe0,1,76,NaN,knife,bear,0,0076_sty_dnn_0_bear_00_bear-0112-ILSVRC2012-val-00016340.png,bear-0112-ILSVRC2012-val-00016340.png,0.0,-5.4508657,-1.8439099,-2.550503
alexnet_w1_mlp_simclrhn_probe0,1,77,NaN,bear,bear,0,0077_sty_dnn_0_bear_00_bear-0113-ILSVRC2012-val-00016459.png,bear-0113-ILSVRC2012-val-00016459.png,1.0,-0.13115782,-0.9447651,0.57530725
alexnet_w1_mlp_simclrhn_probe0,1,78,NaN,elephant,bear,0,0078_sty_dnn_0_bear_00_bear-0114-ILSVRC2012-val-00017605.png,bear-0114-ILSVRC2012-val-00017605.png,0.0,-5.2276783,-2.2563167,-2.10107
alexnet_w1_mlp_simclrhn_probe0,1,79,NaN,cat,bear,0,0079_sty_dnn_0_bear_00_bear-0116-ILSVRC2012-val-00020332.png,bear-0116-ILSVRC2012-val-00020332.png,0.0,-4.848277,-3.4306867,-1.0023878
alexnet_w1_mlp_simclrhn_probe0,1,80,NaN,elephant,bear,0,0080_sty_dnn_0_bear_00_bear-0125-ILSVRC2012-val-00028222.png,bear-0125-ILSVRC2012-val-00028222.png,0.0,-2.5654614,-2.3874311,-0.1258864
alexnet_w1_mlp_simclrhn_probe0,1,81,NaN,oven,bear,0,0081_sty_dnn_0_bear_00_bear-0129-ILSVRC2012-val-00030485.png,bear-0129-ILSVRC2012-val-00030485.png,0.0,-7.130394,-4.93006,-1.5558711
alexnet_w1_mlp_simclrhn_probe0,1,82,NaN,cat,bear,0,0082_sty_dnn_0_bear_00_bear-0131-ILSVRC2012-val-00031877.png,bear-0131-ILSVRC2012-val-00031877.png,0.0,-4.496129,-3.4880373,-0.71282846
alexnet_w1_mlp_simclrhn_probe0,1,83,NaN,knife,bear,0,0083_sty_dnn_0_bear_00_bear-0132-ILSVRC2012-val-00036763.png,bear-0132-ILSVRC2012-val-00036763.png,0.0,-12.92437,-5.590571,-5.185779
alexnet_w1_mlp_simclrhn_probe0,1,84,NaN,bicycle,bear,0,0084_sty_dnn_0_bear_00_bear-0139-ILSVRC2012-val-00041156.png,bear-0139-ILSVRC2012-val-00041156.png,0.0,-24.243773,-0.9990502,-16.4365
alexnet_w1_mlp_simclrhn_probe0,1,85,NaN,bear,bear,0,0085_sty_dnn_0_bear_00_bear-0141-ILSVRC2012-val-00042320.png,bear-0141-ILSVRC2012-val-00042320.png,1.0,-3.7580843,-3.8370564,0.05584171
alexnet_w1_mlp_simclrhn_probe0,1,86,NaN,oven,bear,0,0086_sty_dnn_0_bear_00_bear-0143-ILSVRC2012-val-00044126.png,bear-0143-ILSVRC2012-val-00044126.png,0.0,-4.881607,-2.3831193,-1.7666976
alexnet_w1_mlp_simclrhn_probe0,1,87,NaN,clock,bear,0,0087_sty_dnn_0_bear_00_bear-0149-ILSVRC2012-val-00048105.png,bear-0149-ILSVRC2012-val-00048105.png,0.0,-5.6609025,-1.3893442,-3.020448
alexnet_w1_mlp_simclrhn_probe0,1,88,NaN,cat,bear,0,0088_sty_dnn_0_bear_00_bear-0154-ILSVRC2012-val-00003499.png,bear-0154-ILSVRC2012-val-00003499.png,0.0,-10.836437,-5.351696,-3.8782978
alexnet_w1_mlp_simclrhn_probe0,1,89,NaN,elephant,bear,0,0089_sty_dnn_0_bear_00_bear-0160-ILSVRC2012-val-00013052.png,bear-0160-ILSVRC2012-val-00013052.png,0.0,-8.463703,-4.648614,-2.6976755
alexnet_w1_mlp_simclrhn_probe0,1,90,NaN,oven,bear,0,0090_sty_dnn_0_bear_00_bear-0163-ILSVRC2012-val-00016513.png,bear-0163-ILSVRC2012-val-00016513.png,0.0,-9.002319,-6.34074,-1.8820207
alexnet_w1_mlp_simclrhn_probe0,1,91,NaN,bicycle,bear,0,0091_sty_dnn_0_bear_00_bear-0164-ILSVRC2012-val-00018303.png,bear-0164-ILSVRC2012-val-00018303.png,0.0,-11.17627,-6.504594,-3.3033736
alexnet_w1_mlp_simclrhn_probe0,1,92,NaN,bottle,bear,0,0092_sty_dnn_0_bear_00_bear-0165-ILSVRC2012-val-00019901.png,bear-0165-ILSVRC2012-val-00019901.png,0.0,-7.9826107,-5.6103587,-1.6774355
alexnet_w1_mlp_simclrhn_probe0,1,93,NaN,bottle,bear,0,0093_sty_dnn_0_bear_00_bear-0166-ILSVRC2012-val-00022111.png,bear-0166-ILSVRC2012-val-00022111.png,0.0,-8.387285,-4.4508867,-2.7834542
alexnet_w1_mlp_simclrhn_probe0,1,94,NaN,elephant,bear,0,0094_sty_dnn_0_bear_00_bear-0167-ILSVRC2012-val-00022112.png,bear-0167-ILSVRC2012-val-00022112.png,0.0,-6.360626,-3.8857455,-1.750005
alexnet_w1_mlp_simclrhn_probe0,1,95,NaN,elephant,bear,0,0095_sty_dnn_0_bear_00_bear-0168-ILSVRC2012-val-00022698.png,bear-0168-ILSVRC2012-val-00022698.png,0.0,-1.7753783,-1.666461,-0.077016205
alexnet_w1_mlp_simclrhn_probe0,1,96,NaN,knife,bear,0,0096_sty_dnn_0_bear_00_bear-0180-ILSVRC2012-val-00034637.png,bear-0180-ILSVRC2012-val-00034637.png,0.0,-8.0751915,-4.993459,-2.1791139
alexnet_w1_mlp_simclrhn_probe0,1,97,NaN,chair,bear,0,0097_sty_dnn_0_bear_00_bear-0184-ILSVRC2012-val-00038961.png,bear-0184-ILSVRC2012-val-00038961.png,0.0,-21.53484,-5.686566,-11.206423
alexnet_w1_mlp_simclrhn_probe0,1,98,NaN,elephant,bear,0,0098_sty_dnn_0_bear_00_bear-0188-ILSVRC2012-val-00043016.png,bear-0188-ILSVRC2012-val-00043016.png,0.0,-8.20067,-1.6584928,-4.626018
alexnet_w1_mlp_simclrhn_probe0,1,99,NaN,knife,bear,0,0099_sty_dnn_0_bear_00_bear-0191-ILSVRC2012-val-00044349.png,bear-0191-ILSVRC2012-val-00044349.png,0.0,-8.547117,-5.9145985,-1.8614719
alexnet_w1_mlp_simclrhn_probe0,1,100,NaN,elephant,bear,0,0100_sty_dnn_0_bear_00_bear-0195-ILSVRC2012-val-00045672.png,bear-0195-ILSVRC2012-val-00045672.png,0.0,-5.20456,-3.3751583,-1.2935822
alexnet_w1_mlp_simclrhn_probe0,1,101,NaN,airplane,bicycle,0,0101_sty_dnn_0_bicycle_00_bicycle-0005-ILSVRC2012-val-00005274.png,bicycle-0005-ILSVRC2012-val-00005274.png,0.0,-4.1773133,-1.2508118,-2.069349
alexnet_w1_mlp_simclrhn_probe0,1,102,NaN,cat,bicycle,0,0102_sty_dnn_0_bicycle_00_bicycle-0007-ILSVRC2012-val-00006395.png,bicycle-0007-ILSVRC2012-val-00006395.png,0.0,-4.2305174,-1.7946037,-1.722451
alexnet_w1_mlp_simclrhn_probe0,1,103,NaN,bicycle,bicycle,0,0103_sty_dnn_0_bicycle_00_bicycle-0008-ILSVRC2012-val-00008007.png,bicycle-0008-ILSVRC2012-val-00008007.png,1.0,-2.665968,-5.5900354,2.067628
alexnet_w1_mlp_simclrhn_probe0,1,104,NaN,bicycle,bicycle,0,0104_sty_dnn_0_bicycle_00_bicycle-0010-ILSVRC2012-val-00010544.png,bicycle-0010-ILSVRC2012-val-00010544.png,1.0,-5.718523,-8.395829,1.8931414
alexnet_w1_mlp_simclrhn_probe0,1,105,NaN,dog,bicycle,0,0105_sty_dnn_0_bicycle_00_bicycle-0011-ILSVRC2012-val-00011821.png,bicycle-0011-ILSVRC2012-val-00011821.png,0.0,-5.6740313,-5.3296385,-0.24352247
alexnet_w1_mlp_simclrhn_probe0,1,106,NaN,bicycle,bicycle,0,0106_sty_dnn_0_bicycle_00_bicycle-0013-ILSVRC2012-val-00012667.png,bicycle-0013-ILSVRC2012-val-00012667.png,1.0,0.016890347,-5.5346656,3.925543
alexnet_w1_mlp_simclrhn_probe0,1,107,NaN,knife,bicycle,0,0107_sty_dnn_0_bicycle_00_bicycle-0014-ILSVRC2012-val-00015483.png,bicycle-0014-ILSVRC2012-val-00015483.png,0.0,-5.834474,-4.6146016,-0.8625801
alexnet_w1_mlp_simclrhn_probe0,1,108,NaN,bicycle,bicycle,0,0108_sty_dnn_0_bicycle_00_bicycle-0015-ILSVRC2012-val-00015618.png,bicycle-0015-ILSVRC2012-val-00015618.png,1.0,-2.0959675,-8.753925,4.707887
alexnet_w1_mlp_simclrhn_probe0,1,109,NaN,elephant,bicycle,0,0109_sty_dnn_0_bicycle_00_bicycle-0016-ILSVRC2012-val-00016532.png,bicycle-0016-ILSVRC2012-val-00016532.png,0.0,-7.597926,-1.6305277,-4.2195883
alexnet_w1_mlp_simclrhn_probe0,1,110,NaN,bicycle,bicycle,0,0110_sty_dnn_0_bicycle_00_bicycle-0018-ILSVRC2012-val-00018975.png,bicycle-0018-ILSVRC2012-val-00018975.png,1.0,2.8378797,-7.655727,7.4201007
alexnet_w1_mlp_simclrhn_probe0,1,111,NaN,bicycle,bicycle,0,0111_sty_dnn_0_bicycle_00_bicycle-0020-ILSVRC2012-val-00022027.png,bicycle-0020-ILSVRC2012-val-00022027.png,1.0,-3.1601515,-6.8348994,2.5984392
alexnet_w1_mlp_simclrhn_probe0,1,112,NaN,bicycle,bicycle,0,0112_sty_dnn_0_bicycle_00_bicycle-0022-ILSVRC2012-val-00023266.png,bicycle-0022-ILSVRC2012-val-00023266.png,1.0,-1.9194489,-2.5334759,0.43418267
alexnet_w1_mlp_simclrhn_probe0,1,113,NaN,bear,bicycle,0,0113_sty_dnn_0_bicycle_00_bicycle-0024-ILSVRC2012-val-00025915.png,bicycle-0024-ILSVRC2012-val-00025915.png,0.0,-10.340847,-2.880825,-5.275032
alexnet_w1_mlp_simclrhn_probe0,1,114,NaN,bicycle,bicycle,0,0114_sty_dnn_0_bicycle_00_bicycle-0026-ILSVRC2012-val-00026292.png,bicycle-0026-ILSVRC2012-val-00026292.png,1.0,-0.19964074,-7.092293,4.8738413
alexnet_w1_mlp_simclrhn_probe0,1,115,NaN,keyboard,bicycle,0,0115_sty_dnn_0_bicycle_00_bicycle-0030-ILSVRC2012-val-00027620.png,bicycle-0030-ILSVRC2012-val-00027620.png,0.0,-6.5989857,-6.100193,-0.35269967
alexnet_w1_mlp_simclrhn_probe0,1,116,NaN,knife,bicycle,0,0116_sty_dnn_0_bicycle_00_bicycle-0032-ILSVRC2012-val-00030070.png,bicycle-0032-ILSVRC2012-val-00030070.png,0.0,-7.7030706,-5.58364,-1.4986638
alexnet_w1_mlp_simclrhn_probe0,1,117,NaN,bicycle,bicycle,0,0117_sty_dnn_0_bicycle_00_bicycle-0033-ILSVRC2012-val-00031498.png,bicycle-0033-ILSVRC2012-val-00031498.png,1.0,-1.5917907,-3.8553529,1.6005802
alexnet_w1_mlp_simclrhn_probe0,1,118,NaN,bicycle,bicycle,0,0118_sty_dnn_0_bicycle_00_bicycle-0035-ILSVRC2012-val-00033559.png,bicycle-0035-ILSVRC2012-val-00033559.png,1.0,1.973625,-5.059348,4.973063
alexnet_w1_mlp_simclrhn_probe0,1,119,NaN,bicycle,bicycle,0,0119_sty_dnn_0_bicycle_00_bicycle-0037-ILSVRC2012-val-00036009.png,bicycle-0037-ILSVRC2012-val-00036009.png,1.0,-0.31278223,-6.9209933,4.672711
alexnet_w1_mlp_simclrhn_probe0,1,120,NaN,oven,bicycle,0,0120_sty_dnn_0_bicycle_00_bicycle-0038-ILSVRC2012-val-00036903.png,bicycle-0038-ILSVRC2012-val-00036903.png,0.0,-6.09805,-4.1173816,-1.4005442
alexnet_w1_mlp_simclrhn_probe0,1,121,NaN,bicycle,bicycle,0,0121_sty_dnn_0_bicycle_00_bicycle-0039-ILSVRC2012-val-00037292.png,bicycle-0039-ILSVRC2012-val-00037292.png,1.0,-1.2045075,-3.6627178,1.7382174
alexnet_w1_mlp_simclrhn_probe0,1,122,NaN,bicycle,bicycle,0,0122_sty_dnn_0_bicycle_00_bicycle-0040-ILSVRC2012-val-00037433.png,bicycle-0040-ILSVRC2012-val-00037433.png,1.0,-0.73496234,-4.571399,2.7127705
alexnet_w1_mlp_simclrhn_probe0,1,123,NaN,bicycle,bicycle,0,0123_sty_dnn_0_bicycle_00_bicycle-0043-ILSVRC2012-val-00038415.png,bicycle-0043-ILSVRC2012-val-00038415.png,1.0,-2.9184198,-4.733411,1.2833924
alexnet_w1_mlp_simclrhn_probe0,1,124,NaN,oven,bicycle,0,0124_sty_dnn_0_bicycle_00_bicycle-0044-ILSVRC2012-val-00040027.png,bicycle-0044-ILSVRC2012-val-00040027.png,0.0,-5.0088634,-4.951632,-0.04046873
alexnet_w1_mlp_simclrhn_probe0,1,125,NaN,bicycle,bicycle,0,0125_sty_dnn_0_bicycle_00_bicycle-0046-ILSVRC2012-val-00042496.png,bicycle-0046-ILSVRC2012-val-00042496.png,1.0,-2.9525924,-3.4309638,0.33825967
alexnet_w1_mlp_simclrhn_probe0,1,126,NaN,bicycle,bicycle,0,0126_sty_dnn_0_bicycle_00_bicycle-0047-ILSVRC2012-val-00043435.png,bicycle-0047-ILSVRC2012-val-00043435.png,1.0,-1.2734029,-5.575381,3.0419579
alexnet_w1_mlp_simclrhn_probe0,1,127,NaN,bicycle,bicycle,0,0127_sty_dnn_0_bicycle_00_bicycle-0048-ILSVRC2012-val-00045400.png,bicycle-0048-ILSVRC2012-val-00045400.png,1.0,-2.3016312,-6.0122414,2.6237977
alexnet_w1_mlp_simclrhn_probe0,1,128,NaN,bottle,bicycle,0,0128_sty_dnn_0_bicycle_00_bicycle-0050-ILSVRC2012-val-00049382.png,bicycle-0050-ILSVRC2012-val-00049382.png,0.0,-7.9055777,-6.1769114,-1.2223517
alexnet_w1_mlp_simclrhn_probe0,1,129,NaN,bicycle,bicycle,0,0129_sty_dnn_0_bicycle_00_bicycle-0054-ILSVRC2012-val-00004147.png,bicycle-0054-ILSVRC2012-val-00004147.png,1.0,-4.6567926,-6.656226,1.413813
alexnet_w1_mlp_simclrhn_probe0,1,130,NaN,elephant,bicycle,0,0130_sty_dnn_0_bicycle_00_bicycle-0056-ILSVRC2012-val-00005330.png,bicycle-0056-ILSVRC2012-val-00005330.png,0.0,-3.42981,-2.346068,-0.7663214
alexnet_w1_mlp_simclrhn_probe0,1,131,NaN,bicycle,bicycle,0,0131_sty_dnn_0_bicycle_00_bicycle-0059-ILSVRC2012-val-00011329.png,bicycle-0059-ILSVRC2012-val-00011329.png,1.0,-3.7707713,-9.179014,3.8242054
alexnet_w1_mlp_simclrhn_probe0,1,132,NaN,elephant,bicycle,0,0132_sty_dnn_0_bicycle_00_bicycle-0060-ILSVRC2012-val-00011330.png,bicycle-0060-ILSVRC2012-val-00011330.png,0.0,-6.2908487,-5.387069,-0.6390686
alexnet_w1_mlp_simclrhn_probe0,1,133,NaN,elephant,bicycle,0,0133_sty_dnn_0_bicycle_00_bicycle-0061-ILSVRC2012-val-00012096.png,bicycle-0061-ILSVRC2012-val-00012096.png,0.0,-4.596945,-1.4874034,-2.198778
alexnet_w1_mlp_simclrhn_probe0,1,134,NaN,bicycle,bicycle,0,0134_sty_dnn_0_bicycle_00_bicycle-0062-ILSVRC2012-val-00015867.png,bicycle-0062-ILSVRC2012-val-00015867.png,1.0,-4.852427,-5.601806,0.5298911
alexnet_w1_mlp_simclrhn_probe0,1,135,NaN,bottle,bicycle,0,0135_sty_dnn_0_bicycle_00_bicycle-0064-ILSVRC2012-val-00017103.png,bicycle-0064-ILSVRC2012-val-00017103.png,0.0,-8.76234,-5.441838,-2.3479493
alexnet_w1_mlp_simclrhn_probe0,1,136,NaN,elephant,bicycle,0,0136_sty_dnn_0_bicycle_00_bicycle-0067-ILSVRC2012-val-00018304.png,bicycle-0067-ILSVRC2012-val-00018304.png,0.0,-6.2929573,-4.58947,-1.2045475
alexnet_w1_mlp_simclrhn_probe0,1,137,NaN,bear,bicycle,0,0137_sty_dnn_0_bicycle_00_bicycle-0070-ILSVRC2012-val-00020631.png,bicycle-0070-ILSVRC2012-val-00020631.png,0.0,-9.414222,-0.19568634,-6.518489
alexnet_w1_mlp_simclrhn_probe0,1,138,NaN,bicycle,bicycle,0,0138_sty_dnn_0_bicycle_00_bicycle-0073-ILSVRC2012-val-00027449.png,bicycle-0073-ILSVRC2012-val-00027449.png,1.0,-2.5276747,-8.002735,3.8714523
alexnet_w1_mlp_simclrhn_probe0,1,139,NaN,bicycle,bicycle,0,0139_sty_dnn_0_bicycle_00_bicycle-0074-ILSVRC2012-val-00028824.png,bicycle-0074-ILSVRC2012-val-00028824.png,1.0,-2.799221,-3.381093,0.41144565
alexnet_w1_mlp_simclrhn_probe0,1,140,NaN,bicycle,bicycle,0,0140_sty_dnn_0_bicycle_00_bicycle-0077-ILSVRC2012-val-00030112.png,bicycle-0077-ILSVRC2012-val-00030112.png,1.0,-1.2411901,-4.257696,2.132992
alexnet_w1_mlp_simclrhn_probe0,1,141,NaN,bicycle,bicycle,0,0141_sty_dnn_0_bicycle_00_bicycle-0078-ILSVRC2012-val-00030892.png,bicycle-0078-ILSVRC2012-val-00030892.png,1.0,-1.1786907,-2.830771,1.1681972
alexnet_w1_mlp_simclrhn_probe0,1,142,NaN,bicycle,bicycle,0,0142_sty_dnn_0_bicycle_00_bicycle-0079-ILSVRC2012-val-00031485.png,bicycle-0079-ILSVRC2012-val-00031485.png,1.0,-3.0893598,-5.1946707,1.4886796
alexnet_w1_mlp_simclrhn_probe0,1,143,NaN,cat,bicycle,0,0143_sty_dnn_0_bicycle_00_bicycle-0080-ILSVRC2012-val-00032009.png,bicycle-0080-ILSVRC2012-val-00032009.png,0.0,-6.7894816,-4.3493466,-1.7254361
alexnet_w1_mlp_simclrhn_probe0,1,144,NaN,bicycle,bicycle,0,0144_sty_dnn_0_bicycle_00_bicycle-0081-ILSVRC2012-val-00032967.png,bicycle-0081-ILSVRC2012-val-00032967.png,1.0,-1.4542632,-5.9244547,3.1609027
alexnet_w1_mlp_simclrhn_probe0,1,145,NaN,bicycle,bicycle,0,0145_sty_dnn_0_bicycle_00_bicycle-0085-ILSVRC2012-val-00037438.png,bicycle-0085-ILSVRC2012-val-00037438.png,1.0,-3.7065158,-5.791183,1.4740824
alexnet_w1_mlp_simclrhn_probe0,1,146,NaN,bicycle,bicycle,0,0146_sty_dnn_0_bicycle_00_bicycle-0089-ILSVRC2012-val-00042393.png,bicycle-0089-ILSVRC2012-val-00042393.png,1.0,-0.38497514,-4.643791,3.011438
alexnet_w1_mlp_simclrhn_probe0,1,147,NaN,bicycle,bicycle,0,0147_sty_dnn_0_bicycle_00_bicycle-0092-ILSVRC2012-val-00043207.png,bicycle-0092-ILSVRC2012-val-00043207.png,1.0,-4.3862743,-6.7389464,1.6635904
alexnet_w1_mlp_simclrhn_probe0,1,148,NaN,bicycle,bicycle,0,0148_sty_dnn_0_bicycle_00_bicycle-0094-ILSVRC2012-val-00044080.png,bicycle-0094-ILSVRC2012-val-00044080.png,1.0,3.710876,-6.128606,6.957564
alexnet_w1_mlp_simclrhn_probe0,1,149,NaN,bicycle,bicycle,0,0149_sty_dnn_0_bicycle_00_bicycle-0096-ILSVRC2012-val-00045152.png,bicycle-0096-ILSVRC2012-val-00045152.png,1.0,-4.161514,-8.928884,3.3710396
alexnet_w1_mlp_simclrhn_probe0,1,150,NaN,bicycle,bicycle,0,0150_sty_dnn_0_bicycle_00_bicycle-0100-ILSVRC2012-val-00049750.png,bicycle-0100-ILSVRC2012-val-00049750.png,1.0,-2.7629488,-6.0625815,2.3331928
alexnet_w1_mlp_simclrhn_probe0,1,151,NaN,knife,bird,0,0151_sty_dnn_0_bird_00_bird-0009-ILSVRC2012-val-00007530.png,bird-0009-ILSVRC2012-val-00007530.png,0.0,-12.585238,-7.3809834,-3.679964
alexnet_w1_mlp_simclrhn_probe0,1,152,NaN,bicycle,bird,0,0152_sty_dnn_0_bird_00_bird-0045-ILSVRC2012-val-00045547.png,bird-0045-ILSVRC2012-val-00045547.png,0.0,-10.215744,-6.365352,-2.7226381
alexnet_w1_mlp_simclrhn_probe0,1,153,NaN,elephant,bird,0,0153_sty_dnn_0_bird_00_bird-0119-ILSVRC2012-val-00016252.png,bird-0119-ILSVRC2012-val-00016252.png,0.0,-5.7461667,-4.883134,-0.6102564
alexnet_w1_mlp_simclrhn_probe0,1,154,NaN,oven,bird,0,0154_sty_dnn_0_bird_00_bird-0122-ILSVRC2012-val-00019236.png,bird-0122-ILSVRC2012-val-00019236.png,0.0,-5.5931373,-2.1714125,-2.419525
alexnet_w1_mlp_simclrhn_probe0,1,155,NaN,bird,bird,0,0155_sty_dnn_0_bird_00_bird-0157-ILSVRC2012-val-00005336.png,bird-0157-ILSVRC2012-val-00005336.png,1.0,-3.2998543,-3.3854086,0.06049607
alexnet_w1_mlp_simclrhn_probe0,1,156,NaN,clock,bird,0,0156_sty_dnn_0_bird_00_bird-0175-ILSVRC2012-val-00018699.png,bird-0175-ILSVRC2012-val-00018699.png,0.0,-14.421966,-5.827854,-6.0769544
alexnet_w1_mlp_simclrhn_probe0,1,157,NaN,oven,bird,0,0157_sty_dnn_0_bird_00_bird-0228-ILSVRC2012-val-00017712.png,bird-0228-ILSVRC2012-val-00017712.png,0.0,-8.986851,-6.959112,-1.4338278
alexnet_w1_mlp_simclrhn_probe0,1,158,NaN,chair,bird,0,0158_sty_dnn_0_bird_00_bird-0238-ILSVRC2012-val-00030657.png,bird-0238-ILSVRC2012-val-00030657.png,0.0,-9.960455,-3.9702258,-4.2357316
alexnet_w1_mlp_simclrhn_probe0,1,159,NaN,elephant,bird,0,0159_sty_dnn_0_bird_00_bird-0426-ILSVRC2012-val-00030017.png,bird-0426-ILSVRC2012-val-00030017.png,0.0,-6.843477,-2.9037552,-2.7858038
alexnet_w1_mlp_simclrhn_probe0,1,160,NaN,elephant,bird,0,0160_sty_dnn_0_bird_00_bird-0486-ILSVRC2012-val-00037420.png,bird-0486-ILSVRC2012-val-00037420.png,0.0,-8.306405,-4.1689463,-2.9256253
alexnet_w1_mlp_simclrhn_probe0,1,161,NaN,bear,bird,0,0161_sty_dnn_0_bird_00_bird-0513-ILSVRC2012-val-00013223.png,bird-0513-ILSVRC2012-val-00013223.png,0.0,-7.3920393,-2.583889,-3.3998756
alexnet_w1_mlp_simclrhn_probe0,1,162,NaN,bicycle,bird,0,0162_sty_dnn_0_bird_00_bird-0522-ILSVRC2012-val-00020730.png,bird-0522-ILSVRC2012-val-00020730.png,0.0,-5.244619,-4.3868074,-0.6065643
alexnet_w1_mlp_simclrhn_probe0,1,163,NaN,knife,bird,0,0163_sty_dnn_0_bird_00_bird-0532-ILSVRC2012-val-00028181.png,bird-0532-ILSVRC2012-val-00028181.png,0.0,-4.710647,-4.3990326,-0.22034474
alexnet_w1_mlp_simclrhn_probe0,1,164,NaN,oven,bird,0,0164_sty_dnn_0_bird_00_bird-0624-ILSVRC2012-val-00024514.png,bird-0624-ILSVRC2012-val-00024514.png,0.0,-10.5555935,-5.833094,-3.3393114
alexnet_w1_mlp_simclrhn_probe0,1,165,NaN,elephant,bird,0,0165_sty_dnn_0_bird_00_bird-0701-ILSVRC2012-val-00000075.png,bird-0701-ILSVRC2012-val-00000075.png,0.0,-6.359847,-4.415738,-1.3746927
alexnet_w1_mlp_simclrhn_probe0,1,166,NaN,bird,bird,0,0166_sty_dnn_0_bird_00_bird-0752-ILSVRC2012-val-00001596.png,bird-0752-ILSVRC2012-val-00001596.png,1.0,-3.3015683,-4.6060143,0.9223826
alexnet_w1_mlp_simclrhn_probe0,1,167,NaN,knife,bird,0,0167_sty_dnn_0_bird_00_bird-0754-ILSVRC2012-val-00002846.png,bird-0754-ILSVRC2012-val-00002846.png,0.0,-7.6708136,-5.3393917,-1.6485642
alexnet_w1_mlp_simclrhn_probe0,1,168,NaN,bear,bird,0,0168_sty_dnn_0_bird_00_bird-0822-ILSVRC2012-val-00025200.png,bird-0822-ILSVRC2012-val-00025200.png,0.0,-6.85451,-2.6583805,-2.9671116
alexnet_w1_mlp_simclrhn_probe0,1,169,NaN,elephant,bird,0,0169_sty_dnn_0_bird_00_bird-0896-ILSVRC2012-val-00046621.png,bird-0896-ILSVRC2012-val-00046621.png,0.0,-6.5422997,-3.1973145,-2.3652618
alexnet_w1_mlp_simclrhn_probe0,1,170,NaN,cat,bird,0,0170_sty_dnn_0_bird_00_bird-0995-ILSVRC2012-val-00046534.png,bird-0995-ILSVRC2012-val-00046534.png,0.0,-8.783886,-4.139148,-3.2843256
alexnet_w1_mlp_simclrhn_probe0,1,171,NaN,oven,bird,0,0171_sty_dnn_0_bird_00_bird-1052-ILSVRC2012-val-00003884.png,bird-1052-ILSVRC2012-val-00003884.png,0.0,-6.6627955,-2.2295432,-3.1347828
alexnet_w1_mlp_simclrhn_probe0,1,172,NaN,oven,bird,0,0172_sty_dnn_0_bird_00_bird-1093-ILSVRC2012-val-00044082.png,bird-1093-ILSVRC2012-val-00044082.png,0.0,-5.524925,-2.642979,-2.037844
alexnet_w1_mlp_simclrhn_probe0,1,173,NaN,bicycle,bird,0,0173_sty_dnn_0_bird_00_bird-1172-ILSVRC2012-val-00022442.png,bird-1172-ILSVRC2012-val-00022442.png,0.0,-8.070538,-4.9220934,-2.2262862
alexnet_w1_mlp_simclrhn_probe0,1,174,NaN,elephant,bird,0,0174_sty_dnn_0_bird_00_bird-1188-ILSVRC2012-val-00040014.png,bird-1188-ILSVRC2012-val-00040014.png,0.0,-4.5804367,-3.2441044,-0.94492966
alexnet_w1_mlp_simclrhn_probe0,1,175,NaN,bear,bird,0,0175_sty_dnn_0_bird_00_bird-1198-ILSVRC2012-val-00048142.png,bird-1198-ILSVRC2012-val-00048142.png,0.0,-6.555826,-3.6895955,-2.0267313
alexnet_w1_mlp_simclrhn_probe0,1,176,NaN,chair,bird,0,0176_sty_dnn_0_bird_00_bird-1256-ILSVRC2012-val-00005779.png,bird-1256-ILSVRC2012-val-00005779.png,0.0,-10.456546,-6.0051184,-3.1476345
alexnet_w1_mlp_simclrhn_probe0,1,177,NaN,bear,bird,0,0177_sty_dnn_0_bird_00_bird-1274-ILSVRC2012-val-00025449.png,bird-1274-ILSVRC2012-val-00025449.png,0.0,-8.297321,-0.99084306,-5.1664605
alexnet_w1_mlp_simclrhn_probe0,1,178,NaN,elephant,bird,0,0178_sty_dnn_0_bird_00_bird-1326-ILSVRC2012-val-00025658.png,bird-1326-ILSVRC2012-val-00025658.png,0.0,-6.5689855,-3.7934985,-1.9625657
alexnet_w1_mlp_simclrhn_probe0,1,179,NaN,knife,bird,0,0179_sty_dnn_0_bird_00_bird-1394-ILSVRC2012-val-00040051.png,bird-1394-ILSVRC2012-val-00040051.png,0.0,-8.787696,-5.763665,-2.1383126
alexnet_w1_mlp_simclrhn_probe0,1,180,NaN,elephant,bird,0,0180_sty_dnn_0_bird_00_bird-1452-ILSVRC2012-val-00002997.png,bird-1452-ILSVRC2012-val-00002997.png,0.0,-4.8919883,-1.6096647,-2.3209534
alexnet_w1_mlp_simclrhn_probe0,1,181,NaN,bicycle,bird,0,0181_sty_dnn_0_bird_00_bird-1551-ILSVRC2012-val-00000690.png,bird-1551-ILSVRC2012-val-00000690.png,0.0,-4.9461083,-3.1934156,-1.2393409
alexnet_w1_mlp_simclrhn_probe0,1,182,NaN,bottle,bird,0,0182_sty_dnn_0_bird_00_bird-1646-ILSVRC2012-val-00039398.png,bird-1646-ILSVRC2012-val-00039398.png,0.0,-5.619513,-2.6905608,-2.071082
alexnet_w1_mlp_simclrhn_probe0,1,183,NaN,oven,bird,0,0183_sty_dnn_0_bird_00_bird-1861-ILSVRC2012-val-00007811.png,bird-1861-ILSVRC2012-val-00007811.png,0.0,-5.6697636,-2.591733,-2.1764963
alexnet_w1_mlp_simclrhn_probe0,1,184,NaN,bicycle,bird,0,0184_sty_dnn_0_bird_00_bird-1865-ILSVRC2012-val-00009672.png,bird-1865-ILSVRC2012-val-00009672.png,0.0,-7.9446654,-1.5459609,-4.5245676
alexnet_w1_mlp_simclrhn_probe0,1,185,NaN,bear,bird,0,0185_sty_dnn_0_bird_00_bird-1913-ILSVRC2012-val-00012475.png,bird-1913-ILSVRC2012-val-00012475.png,0.0,-4.690045,-2.362024,-1.6461593
alexnet_w1_mlp_simclrhn_probe0,1,186,NaN,elephant,bird,0,0186_sty_dnn_0_bird_00_bird-1941-ILSVRC2012-val-00042829.png,bird-1941-ILSVRC2012-val-00042829.png,0.0,-8.600294,-6.26031,-1.6546185
alexnet_w1_mlp_simclrhn_probe0,1,187,NaN,bear,bird,0,0187_sty_dnn_0_bird_00_bird-1971-ILSVRC2012-val-00023024.png,bird-1971-ILSVRC2012-val-00023024.png,0.0,-7.129348,0.036016643,-5.0666776
alexnet_w1_mlp_simclrhn_probe0,1,188,NaN,elephant,bird,0,0188_sty_dnn_0_bird_00_bird-2011-ILSVRC2012-val-00008842.png,bird-2011-ILSVRC2012-val-00008842.png,0.0,-6.8784246,-0.20621341,-4.717966
alexnet_w1_mlp_simclrhn_probe0,1,189,NaN,bear,bird,0,0189_sty_dnn_0_bird_00_bird-2082-ILSVRC2012-val-00036457.png,bird-2082-ILSVRC2012-val-00036457.png,0.0,-5.2325945,-3.1856844,-1.447384
alexnet_w1_mlp_simclrhn_probe0,1,190,NaN,chair,bird,0,0190_sty_dnn_0_bird_00_bird-2118-ILSVRC2012-val-00021926.png,bird-2118-ILSVRC2012-val-00021926.png,0.0,-11.464636,-5.8118362,-3.997133
alexnet_w1_mlp_simclrhn_probe0,1,191,NaN,oven,bird,0,0191_sty_dnn_0_bird_00_bird-2144-ILSVRC2012-val-00044377.png,bird-2144-ILSVRC2012-val-00044377.png,0.0,-8.483617,-2.5080562,-4.2253594
alexnet_w1_mlp_simclrhn_probe0,1,192,NaN,cat,bird,0,0192_sty_dnn_0_bird_00_bird-2178-ILSVRC2012-val-00026510.png,bird-2178-ILSVRC2012-val-00026510.png,0.0,-5.985868,-1.9909714,-2.8248184
alexnet_w1_mlp_simclrhn_probe0,1,193,NaN,elephant,bird,0,0193_sty_dnn_0_bird_00_bird-2184-ILSVRC2012-val-00034910.png,bird-2184-ILSVRC2012-val-00034910.png,0.0,-10.023775,-4.2567,-4.077938
alexnet_w1_mlp_simclrhn_probe0,1,194,NaN,keyboard,bird,0,0194_sty_dnn_0_bird_00_bird-2221-ILSVRC2012-val-00014977.png,bird-2221-ILSVRC2012-val-00014977.png,0.0,-14.664059,0.3414799,-10.610518
alexnet_w1_mlp_simclrhn_probe0,1,195,NaN,bicycle,bird,0,0195_sty_dnn_0_bird_00_bird-2222-ILSVRC2012-val-00015392.png,bird-2222-ILSVRC2012-val-00015392.png,0.0,-8.44243,-4.4736705,-2.8063364
alexnet_w1_mlp_simclrhn_probe0,1,196,NaN,oven,bird,0,0196_sty_dnn_0_bird_00_bird-2248-ILSVRC2012-val-00044992.png,bird-2248-ILSVRC2012-val-00044992.png,0.0,-8.569489,-1.9792383,-4.6600103
alexnet_w1_mlp_simclrhn_probe0,1,197,NaN,knife,bird,0,0197_sty_dnn_0_bird_00_bird-2322-ILSVRC2012-val-00023492.png,bird-2322-ILSVRC2012-val-00023492.png,0.0,-6.125339,-6.008794,-0.0824099
alexnet_w1_mlp_simclrhn_probe0,1,198,NaN,elephant,bird,0,0198_sty_dnn_0_bird_00_bird-2405-ILSVRC2012-val-00007988.png,bird-2405-ILSVRC2012-val-00007988.png,0.0,-6.0056744,-2.2339249,-2.6670296
alexnet_w1_mlp_simclrhn_probe0,1,199,NaN,elephant,bird,0,0199_sty_dnn_0_bird_00_bird-2410-ILSVRC2012-val-00010355.png,bird-2410-ILSVRC2012-val-00010355.png,0.0,-8.220718,-2.033418,-4.3750825
alexnet_w1_mlp_simclrhn_probe0,1,200,NaN,bear,bird,0,0200_sty_dnn_0_bird_00_bird-2433-ILSVRC2012-val-00028670.png,bird-2433-ILSVRC2012-val-00028670.png,0.0,-6.304046,-1.9238074,-3.0972965
alexnet_w1_mlp_simclrhn_probe0,1,201,NaN,bicycle,boat,0,0201_sty_dnn_0_boat_00_boat-0005-ILSVRC2012-val-00004909.png,boat-0005-ILSVRC2012-val-00004909.png,0.0,-14.068209,-6.0038147,-5.702388
alexnet_w1_mlp_simclrhn_probe0,1,202,NaN,elephant,boat,0,0202_sty_dnn_0_boat_00_boat-0011-ILSVRC2012-val-00011563.png,boat-0011-ILSVRC2012-val-00011563.png,0.0,-7.1704726,-4.2677536,-2.0525324
alexnet_w1_mlp_simclrhn_probe0,1,203,NaN,bicycle,boat,0,0203_sty_dnn_0_boat_00_boat-0026-ILSVRC2012-val-00026341.png,boat-0026-ILSVRC2012-val-00026341.png,0.0,-7.1942163,-4.517291,-1.892872
alexnet_w1_mlp_simclrhn_probe0,1,204,NaN,elephant,boat,0,0204_sty_dnn_0_boat_00_boat-0033-ILSVRC2012-val-00030824.png,boat-0033-ILSVRC2012-val-00030824.png,0.0,-9.6248865,-3.3302383,-4.4509883
alexnet_w1_mlp_simclrhn_probe0,1,205,NaN,cat,boat,0,0205_sty_dnn_0_boat_00_boat-0036-ILSVRC2012-val-00032433.png,boat-0036-ILSVRC2012-val-00032433.png,0.0,-9.801367,-4.3034186,-3.8876364
alexnet_w1_mlp_simclrhn_probe0,1,206,NaN,elephant,boat,0,0206_sty_dnn_0_boat_00_boat-0039-ILSVRC2012-val-00033883.png,boat-0039-ILSVRC2012-val-00033883.png,0.0,-7.1819854,-4.3799753,-1.9813204
alexnet_w1_mlp_simclrhn_probe0,1,207,NaN,bear,boat,0,0207_sty_dnn_0_boat_00_boat-0042-ILSVRC2012-val-00039945.png,boat-0042-ILSVRC2012-val-00039945.png,0.0,-10.554935,-1.7489761,-6.2267537
alexnet_w1_mlp_simclrhn_probe0,1,208,NaN,knife,boat,0,0208_sty_dnn_0_boat_00_boat-0044-ILSVRC2012-val-00041227.png,boat-0044-ILSVRC2012-val-00041227.png,0.0,-3.3910942,-1.8310987,-1.1030835
alexnet_w1_mlp_simclrhn_probe0,1,209,NaN,oven,boat,0,0209_sty_dnn_0_boat_00_boat-0048-ILSVRC2012-val-00046387.png,boat-0048-ILSVRC2012-val-00046387.png,0.0,-8.94443,-2.9415,-4.244713
alexnet_w1_mlp_simclrhn_probe0,1,210,NaN,elephant,boat,0,0210_sty_dnn_0_boat_00_boat-0053-ILSVRC2012-val-00005918.png,boat-0053-ILSVRC2012-val-00005918.png,0.0,-5.1833034,-0.21843989,-3.5106885
alexnet_w1_mlp_simclrhn_probe0,1,211,NaN,elephant,boat,0,0211_sty_dnn_0_boat_00_boat-0061-ILSVRC2012-val-00011292.png,boat-0061-ILSVRC2012-val-00011292.png,0.0,-6.2687597,-3.4250643,-2.0107963
alexnet_w1_mlp_simclrhn_probe0,1,212,NaN,elephant,boat,0,0212_sty_dnn_0_boat_00_boat-0064-ILSVRC2012-val-00013366.png,boat-0064-ILSVRC2012-val-00013366.png,0.0,-4.330561,-3.8057365,-0.37110704
alexnet_w1_mlp_simclrhn_probe0,1,213,NaN,bicycle,boat,0,0213_sty_dnn_0_boat_00_boat-0066-ILSVRC2012-val-00013961.png,boat-0066-ILSVRC2012-val-00013961.png,0.0,-7.9773912,-4.6784334,-2.3327155
alexnet_w1_mlp_simclrhn_probe0,1,214,NaN,elephant,boat,0,0214_sty_dnn_0_boat_00_boat-0070-ILSVRC2012-val-00017026.png,boat-0070-ILSVRC2012-val-00017026.png,0.0,-10.356534,-1.1235663,-6.528694
alexnet_w1_mlp_simclrhn_probe0,1,215,NaN,bear,boat,0,0215_sty_dnn_0_boat_00_boat-0073-ILSVRC2012-val-00018158.png,boat-0073-ILSVRC2012-val-00018158.png,0.0,-6.310277,-2.2292693,-2.8857083
alexnet_w1_mlp_simclrhn_probe0,1,216,NaN,bicycle,boat,0,0216_sty_dnn_0_boat_00_boat-0076-ILSVRC2012-val-00020486.png,boat-0076-ILSVRC2012-val-00020486.png,0.0,-5.046722,0.14385116,-3.6702895
alexnet_w1_mlp_simclrhn_probe0,1,217,NaN,elephant,boat,0,0217_sty_dnn_0_boat_00_boat-0077-ILSVRC2012-val-00021948.png,boat-0077-ILSVRC2012-val-00021948.png,0.0,-4.2906594,-2.1495185,-1.5140153
alexnet_w1_mlp_simclrhn_probe0,1,218,NaN,bicycle,boat,0,0218_sty_dnn_0_boat_00_boat-0079-ILSVRC2012-val-00025681.png,boat-0079-ILSVRC2012-val-00025681.png,0.0,-7.6802244,-0.7792379,-4.8797345
alexnet_w1_mlp_simclrhn_probe0,1,219,NaN,elephant,boat,0,0219_sty_dnn_0_boat_00_boat-0082-ILSVRC2012-val-00027612.png,boat-0082-ILSVRC2012-val-00027612.png,0.0,-8.7588215,-6.1322365,-1.8572761
alexnet_w1_mlp_simclrhn_probe0,1,220,NaN,oven,boat,0,0220_sty_dnn_0_boat_00_boat-0083-ILSVRC2012-val-00034455.png,boat-0083-ILSVRC2012-val-00034455.png,0.0,-7.888678,-4.304699,-2.534256
alexnet_w1_mlp_simclrhn_probe0,1,221,NaN,knife,boat,0,0221_sty_dnn_0_boat_00_boat-0086-ILSVRC2012-val-00039559.png,boat-0086-ILSVRC2012-val-00039559.png,0.0,-7.9297857,-4.8720403,-2.1621525
alexnet_w1_mlp_simclrhn_probe0,1,222,NaN,oven,boat,0,0222_sty_dnn_0_boat_00_boat-0098-ILSVRC2012-val-00047961.png,boat-0098-ILSVRC2012-val-00047961.png,0.0,-13.781117,-3.7457232,-7.0960956
alexnet_w1_mlp_simclrhn_probe0,1,223,NaN,elephant,boat,0,0223_sty_dnn_0_boat_00_boat-0100-ILSVRC2012-val-00048371.png,boat-0100-ILSVRC2012-val-00048371.png,0.0,-6.5741873,-1.6672108,-3.4697566
alexnet_w1_mlp_simclrhn_probe0,1,224,NaN,keyboard,boat,0,0224_sty_dnn_0_boat_00_boat-0103-ILSVRC2012-val-00002308.png,boat-0103-ILSVRC2012-val-00002308.png,0.0,-12.245066,-5.0924664,-5.0576515
alexnet_w1_mlp_simclrhn_probe0,1,225,NaN,bicycle,boat,0,0225_sty_dnn_0_boat_00_boat-0107-ILSVRC2012-val-00004492.png,boat-0107-ILSVRC2012-val-00004492.png,0.0,-3.9797523,-2.994633,-0.6965846
alexnet_w1_mlp_simclrhn_probe0,1,226,NaN,oven,boat,0,0226_sty_dnn_0_boat_00_boat-0111-ILSVRC2012-val-00009680.png,boat-0111-ILSVRC2012-val-00009680.png,0.0,-10.764395,0.15944183,-7.724319
alexnet_w1_mlp_simclrhn_probe0,1,227,NaN,boat,boat,0,0227_sty_dnn_0_boat_00_boat-0121-ILSVRC2012-val-00016970.png,boat-0121-ILSVRC2012-val-00016970.png,1.0,-3.19968,-3.8041658,0.427436
alexnet_w1_mlp_simclrhn_probe0,1,228,NaN,oven,boat,0,0228_sty_dnn_0_boat_00_boat-0129-ILSVRC2012-val-00027504.png,boat-0129-ILSVRC2012-val-00027504.png,0.0,-7.3008933,-4.2980676,-2.1233184
alexnet_w1_mlp_simclrhn_probe0,1,229,NaN,bicycle,boat,0,0229_sty_dnn_0_boat_00_boat-0137-ILSVRC2012-val-00035374.png,boat-0137-ILSVRC2012-val-00035374.png,0.0,-14.357755,-2.6495466,-8.278954
alexnet_w1_mlp_simclrhn_probe0,1,230,NaN,oven,boat,0,0230_sty_dnn_0_boat_00_boat-0142-ILSVRC2012-val-00040889.png,boat-0142-ILSVRC2012-val-00040889.png,0.0,-8.840217,-3.760819,-3.5916767
alexnet_w1_mlp_simclrhn_probe0,1,231,NaN,bear,boat,0,0231_sty_dnn_0_boat_00_boat-0153-ILSVRC2012-val-00002696.png,boat-0153-ILSVRC2012-val-00002696.png,0.0,-6.0732946,-3.9951134,-1.4694961
alexnet_w1_mlp_simclrhn_probe0,1,232,NaN,bicycle,boat,0,0232_sty_dnn_0_boat_00_boat-0160-ILSVRC2012-val-00008630.png,boat-0160-ILSVRC2012-val-00008630.png,0.0,-8.548645,-5.3651457,-2.251074
alexnet_w1_mlp_simclrhn_probe0,1,233,NaN,cat,boat,0,0233_sty_dnn_0_boat_00_boat-0165-ILSVRC2012-val-00014242.png,boat-0165-ILSVRC2012-val-00014242.png,0.0,-6.2314453,-3.9532852,-1.6109024
alexnet_w1_mlp_simclrhn_probe0,1,234,NaN,bicycle,boat,0,0234_sty_dnn_0_boat_00_boat-0169-ILSVRC2012-val-00019970.png,boat-0169-ILSVRC2012-val-00019970.png,0.0,-13.72164,-4.5456743,-6.4883876
alexnet_w1_mlp_simclrhn_probe0,1,235,NaN,elephant,boat,0,0235_sty_dnn_0_boat_00_boat-0170-ILSVRC2012-val-00020353.png,boat-0170-ILSVRC2012-val-00020353.png,0.0,-8.641689,-4.1163735,-3.1998816
alexnet_w1_mlp_simclrhn_probe0,1,236,NaN,bicycle,boat,0,0236_sty_dnn_0_boat_00_boat-0172-ILSVRC2012-val-00020894.png,boat-0172-ILSVRC2012-val-00020894.png,0.0,-13.910861,-3.3536298,-7.46509
alexnet_w1_mlp_simclrhn_probe0,1,237,NaN,cat,boat,0,0237_sty_dnn_0_boat_00_boat-0179-ILSVRC2012-val-00026763.png,boat-0179-ILSVRC2012-val-00026763.png,0.0,-7.0944643,-2.762432,-3.0632093
alexnet_w1_mlp_simclrhn_probe0,1,238,NaN,oven,boat,0,0238_sty_dnn_0_boat_00_boat-0181-ILSVRC2012-val-00031072.png,boat-0181-ILSVRC2012-val-00031072.png,0.0,-7.509632,-2.5526803,-3.5050945
alexnet_w1_mlp_simclrhn_probe0,1,239,NaN,bear,boat,0,0239_sty_dnn_0_boat_00_boat-0195-ILSVRC2012-val-00042203.png,boat-0195-ILSVRC2012-val-00042203.png,0.0,-3.289653,-3.16863,-0.08557631
alexnet_w1_mlp_simclrhn_probe0,1,240,NaN,oven,boat,0,0240_sty_dnn_0_boat_00_boat-0196-ILSVRC2012-val-00042675.png,boat-0196-ILSVRC2012-val-00042675.png,0.0,-6.6496797,-0.3348416,-4.465265
alexnet_w1_mlp_simclrhn_probe0,1,241,NaN,bicycle,boat,0,0241_sty_dnn_0_boat_00_boat-0215-ILSVRC2012-val-00013403.png,boat-0215-ILSVRC2012-val-00013403.png,0.0,-8.047638,-3.9090724,-2.9264078
alexnet_w1_mlp_simclrhn_probe0,1,242,NaN,boat,boat,0,0242_sty_dnn_0_boat_00_boat-0217-ILSVRC2012-val-00015089.png,boat-0217-ILSVRC2012-val-00015089.png,1.0,-3.7107098,-3.7881622,0.05476713
alexnet_w1_mlp_simclrhn_probe0,1,243,NaN,keyboard,boat,0,0243_sty_dnn_0_boat_00_boat-0218-ILSVRC2012-val-00015121.png,boat-0218-ILSVRC2012-val-00015121.png,0.0,-10.992794,-4.1222377,-4.8582172
alexnet_w1_mlp_simclrhn_probe0,1,244,NaN,oven,boat,0,0244_sty_dnn_0_boat_00_boat-0222-ILSVRC2012-val-00019246.png,boat-0222-ILSVRC2012-val-00019246.png,0.0,-8.640436,-2.9920323,-3.994025
alexnet_w1_mlp_simclrhn_probe0,1,245,NaN,elephant,boat,0,0245_sty_dnn_0_boat_00_boat-0223-ILSVRC2012-val-00020544.png,boat-0223-ILSVRC2012-val-00020544.png,0.0,-11.221229,-4.0027895,-5.1042075
alexnet_w1_mlp_simclrhn_probe0,1,246,NaN,knife,boat,0,0246_sty_dnn_0_boat_00_boat-0225-ILSVRC2012-val-00022075.png,boat-0225-ILSVRC2012-val-00022075.png,0.0,-12.86572,-6.227015,-4.6942735
alexnet_w1_mlp_simclrhn_probe0,1,247,NaN,boat,boat,0,0247_sty_dnn_0_boat_00_boat-0235-ILSVRC2012-val-00032371.png,boat-0235-ILSVRC2012-val-00032371.png,1.0,-3.3858845,-3.6106236,0.15891452
alexnet_w1_mlp_simclrhn_probe0,1,248,NaN,knife,boat,0,0248_sty_dnn_0_boat_00_boat-0236-ILSVRC2012-val-00032584.png,boat-0236-ILSVRC2012-val-00032584.png,0.0,-7.6097016,-1.009913,-4.666755
alexnet_w1_mlp_simclrhn_probe0,1,249,NaN,knife,boat,0,0249_sty_dnn_0_boat_00_boat-0243-ILSVRC2012-val-00039131.png,boat-0243-ILSVRC2012-val-00039131.png,0.0,-3.8877425,-1.4743663,-1.7065148
alexnet_w1_mlp_simclrhn_probe0,1,250,NaN,bear,boat,0,0250_sty_dnn_0_boat_00_boat-0244-ILSVRC2012-val-00040974.png,boat-0244-ILSVRC2012-val-00040974.png,0.0,-6.375936,-2.5399437,-2.7124562
alexnet_w1_mlp_simclrhn_probe0,1,251,NaN,oven,bottle,0,0251_sty_dnn_0_bottle_00_bottle-0002-ILSVRC2012-val-00002968.png,bottle-0002-ILSVRC2012-val-00002968.png,0.0,-8.113625,-3.6542768,-3.153235
alexnet_w1_mlp_simclrhn_probe0,1,252,NaN,bicycle,bottle,0,0252_sty_dnn_0_bottle_00_bottle-0003-ILSVRC2012-val-00003622.png,bottle-0003-ILSVRC2012-val-00003622.png,0.0,-7.116797,-5.619241,-1.0589318
alexnet_w1_mlp_simclrhn_probe0,1,253,NaN,oven,bottle,0,0253_sty_dnn_0_bottle_00_bottle-0005-ILSVRC2012-val-00004521.png,bottle-0005-ILSVRC2012-val-00004521.png,0.0,-7.4576344,-5.1936884,-1.6008517
alexnet_w1_mlp_simclrhn_probe0,1,254,NaN,bottle,bottle,0,0254_sty_dnn_0_bottle_00_bottle-0006-ILSVRC2012-val-00004888.png,bottle-0006-ILSVRC2012-val-00004888.png,1.0,-2.830108,-6.0451984,2.2734122
alexnet_w1_mlp_simclrhn_probe0,1,255,NaN,elephant,bottle,0,0255_sty_dnn_0_bottle_00_bottle-0011-ILSVRC2012-val-00009225.png,bottle-0011-ILSVRC2012-val-00009225.png,0.0,-4.9863963,-3.431531,-1.0994558
alexnet_w1_mlp_simclrhn_probe0,1,256,NaN,keyboard,bottle,0,0256_sty_dnn_0_bottle_00_bottle-0022-ILSVRC2012-val-00022396.png,bottle-0022-ILSVRC2012-val-00022396.png,0.0,-4.745637,-2.2725625,-1.7487277
alexnet_w1_mlp_simclrhn_probe0,1,257,NaN,elephant,bottle,0,0257_sty_dnn_0_bottle_00_bottle-0030-ILSVRC2012-val-00032921.png,bottle-0030-ILSVRC2012-val-00032921.png,0.0,-7.955848,-5.1578135,-1.9785093
alexnet_w1_mlp_simclrhn_probe0,1,258,NaN,cat,bottle,0,0258_sty_dnn_0_bottle_00_bottle-0031-ILSVRC2012-val-00033822.png,bottle-0031-ILSVRC2012-val-00033822.png,0.0,-10.472148,-4.0221257,-4.5608544
alexnet_w1_mlp_simclrhn_probe0,1,259,NaN,elephant,bottle,0,0259_sty_dnn_0_bottle_00_bottle-0032-ILSVRC2012-val-00034979.png,bottle-0032-ILSVRC2012-val-00034979.png,0.0,-3.6800559,-2.518659,-0.82123154
alexnet_w1_mlp_simclrhn_probe0,1,260,NaN,bottle,bottle,0,0260_sty_dnn_0_bottle_00_bottle-0037-ILSVRC2012-val-00036359.png,bottle-0037-ILSVRC2012-val-00036359.png,1.0,-4.245101,-5.7650423,1.0747608
alexnet_w1_mlp_simclrhn_probe0,1,261,NaN,oven,bottle,0,0261_sty_dnn_0_bottle_00_bottle-0039-ILSVRC2012-val-00038570.png,bottle-0039-ILSVRC2012-val-00038570.png,0.0,-3.8740175,-3.685951,-0.13298309
alexnet_w1_mlp_simclrhn_probe0,1,262,NaN,oven,bottle,0,0262_sty_dnn_0_bottle_00_bottle-0047-ILSVRC2012-val-00044787.png,bottle-0047-ILSVRC2012-val-00044787.png,0.0,-8.429199,-0.43746668,-5.6510086
alexnet_w1_mlp_simclrhn_probe0,1,263,NaN,clock,bottle,0,0263_sty_dnn_0_bottle_00_bottle-0052-ILSVRC2012-val-00000252.png,bottle-0052-ILSVRC2012-val-00000252.png,0.0,-4.3522153,-2.117069,-1.5804871
alexnet_w1_mlp_simclrhn_probe0,1,264,NaN,bottle,bottle,0,0264_sty_dnn_0_bottle_00_bottle-0055-ILSVRC2012-val-00003066.png,bottle-0055-ILSVRC2012-val-00003066.png,1.0,-4.196926,-6.9302773,1.9327712
alexnet_w1_mlp_simclrhn_probe0,1,265,NaN,bicycle,bottle,0,0265_sty_dnn_0_bottle_00_bottle-0057-ILSVRC2012-val-00005967.png,bottle-0057-ILSVRC2012-val-00005967.png,0.0,-5.7347755,-4.7612624,-0.68837774
alexnet_w1_mlp_simclrhn_probe0,1,266,NaN,knife,bottle,0,0266_sty_dnn_0_bottle_00_bottle-0059-ILSVRC2012-val-00008984.png,bottle-0059-ILSVRC2012-val-00008984.png,0.0,-2.8848994,-2.4813125,-0.28537902
alexnet_w1_mlp_simclrhn_probe0,1,267,NaN,bottle,bottle,0,0267_sty_dnn_0_bottle_00_bottle-0066-ILSVRC2012-val-00016336.png,bottle-0066-ILSVRC2012-val-00016336.png,1.0,-4.743907,-4.8356104,0.06484411
alexnet_w1_mlp_simclrhn_probe0,1,268,NaN,oven,bottle,0,0268_sty_dnn_0_bottle_00_bottle-0085-ILSVRC2012-val-00036422.png,bottle-0085-ILSVRC2012-val-00036422.png,0.0,-7.312082,-4.326368,-2.1112187
alexnet_w1_mlp_simclrhn_probe0,1,269,NaN,elephant,bottle,0,0269_sty_dnn_0_bottle_00_bottle-0086-ILSVRC2012-val-00036795.png,bottle-0086-ILSVRC2012-val-00036795.png,0.0,-4.363073,-2.3470774,-1.4255241
alexnet_w1_mlp_simclrhn_probe0,1,270,NaN,boat,bottle,0,0270_sty_dnn_0_bottle_00_bottle-0107-ILSVRC2012-val-00008313.png,bottle-0107-ILSVRC2012-val-00008313.png,0.0,-4.6957173,-2.1049697,-1.8319352
alexnet_w1_mlp_simclrhn_probe0,1,271,NaN,bear,bottle,0,0271_sty_dnn_0_bottle_00_bottle-0108-ILSVRC2012-val-00008437.png,bottle-0108-ILSVRC2012-val-00008437.png,0.0,-7.822258,-3.2707453,-3.2184055
alexnet_w1_mlp_simclrhn_probe0,1,272,NaN,elephant,bottle,0,0272_sty_dnn_0_bottle_00_bottle-0126-ILSVRC2012-val-00022079.png,bottle-0126-ILSVRC2012-val-00022079.png,0.0,-3.9756324,-2.0105846,-1.3894987
alexnet_w1_mlp_simclrhn_probe0,1,273,NaN,bicycle,bottle,0,0273_sty_dnn_0_bottle_00_bottle-0127-ILSVRC2012-val-00023580.png,bottle-0127-ILSVRC2012-val-00023580.png,0.0,-7.507534,-1.8617525,-3.9921706
alexnet_w1_mlp_simclrhn_probe0,1,274,NaN,knife,bottle,0,0274_sty_dnn_0_bottle_00_bottle-0138-ILSVRC2012-val-00032559.png,bottle-0138-ILSVRC2012-val-00032559.png,0.0,-6.529821,-4.386086,-1.5158496
alexnet_w1_mlp_simclrhn_probe0,1,275,NaN,elephant,bottle,0,0275_sty_dnn_0_bottle_00_bottle-0153-ILSVRC2012-val-00003318.png,bottle-0153-ILSVRC2012-val-00003318.png,0.0,-8.063703,-4.1197014,-2.78883
alexnet_w1_mlp_simclrhn_probe0,1,276,NaN,oven,bottle,0,0276_sty_dnn_0_bottle_00_bottle-0154-ILSVRC2012-val-00003340.png,bottle-0154-ILSVRC2012-val-00003340.png,0.0,-8.248078,-4.368655,-2.7431664
alexnet_w1_mlp_simclrhn_probe0,1,277,NaN,knife,bottle,0,0277_sty_dnn_0_bottle_00_bottle-0170-ILSVRC2012-val-00020948.png,bottle-0170-ILSVRC2012-val-00020948.png,0.0,-5.1063867,-2.8033814,-1.6284707
alexnet_w1_mlp_simclrhn_probe0,1,278,NaN,chair,bottle,0,0278_sty_dnn_0_bottle_00_bottle-0172-ILSVRC2012-val-00021707.png,bottle-0172-ILSVRC2012-val-00021707.png,0.0,-6.8851266,-3.6873715,-2.2611544
alexnet_w1_mlp_simclrhn_probe0,1,279,NaN,oven,bottle,0,0279_sty_dnn_0_bottle_00_bottle-0180-ILSVRC2012-val-00027613.png,bottle-0180-ILSVRC2012-val-00027613.png,0.0,-7.423691,-5.951152,-1.0412422
alexnet_w1_mlp_simclrhn_probe0,1,280,NaN,elephant,bottle,0,0280_sty_dnn_0_bottle_00_bottle-0189-ILSVRC2012-val-00040070.png,bottle-0189-ILSVRC2012-val-00040070.png,0.0,-9.462402,-5.8571506,-2.549298
alexnet_w1_mlp_simclrhn_probe0,1,281,NaN,bottle,bottle,0,0281_sty_dnn_0_bottle_00_bottle-0195-ILSVRC2012-val-00045644.png,bottle-0195-ILSVRC2012-val-00045644.png,1.0,-4.081733,-4.953709,0.61658007
alexnet_w1_mlp_simclrhn_probe0,1,282,NaN,bicycle,bottle,0,0282_sty_dnn_0_bottle_00_bottle-0204-ILSVRC2012-val-00002597.png,bottle-0204-ILSVRC2012-val-00002597.png,0.0,-7.0349393,-2.2414033,-3.389542
alexnet_w1_mlp_simclrhn_probe0,1,283,NaN,elephant,bottle,0,0283_sty_dnn_0_bottle_00_bottle-0205-ILSVRC2012-val-00003263.png,bottle-0205-ILSVRC2012-val-00003263.png,0.0,-6.1007667,-5.9907484,-0.077794656
alexnet_w1_mlp_simclrhn_probe0,1,284,NaN,oven,bottle,0,0284_sty_dnn_0_bottle_00_bottle-0214-ILSVRC2012-val-00012572.png,bottle-0214-ILSVRC2012-val-00012572.png,0.0,-7.2359285,-1.4788038,-4.0709023
alexnet_w1_mlp_simclrhn_probe0,1,285,NaN,cat,bottle,0,0285_sty_dnn_0_bottle_00_bottle-0216-ILSVRC2012-val-00013262.png,bottle-0216-ILSVRC2012-val-00013262.png,0.0,-7.641043,-2.7833853,-3.4348829
alexnet_w1_mlp_simclrhn_probe0,1,286,NaN,bottle,bottle,0,0286_sty_dnn_0_bottle_00_bottle-0218-ILSVRC2012-val-00013667.png,bottle-0218-ILSVRC2012-val-00013667.png,1.0,-0.66462314,-2.4632833,1.2718449
alexnet_w1_mlp_simclrhn_probe0,1,287,NaN,bear,bottle,0,0287_sty_dnn_0_bottle_00_bottle-0220-ILSVRC2012-val-00014146.png,bottle-0220-ILSVRC2012-val-00014146.png,0.0,-5.1216607,-2.5198994,-1.8397231
alexnet_w1_mlp_simclrhn_probe0,1,288,NaN,bear,bottle,0,0288_sty_dnn_0_bottle_00_bottle-0222-ILSVRC2012-val-00018657.png,bottle-0222-ILSVRC2012-val-00018657.png,0.0,-3.899113,-3.3931274,-0.3577858
alexnet_w1_mlp_simclrhn_probe0,1,289,NaN,bicycle,bottle,0,0289_sty_dnn_0_bottle_00_bottle-0224-ILSVRC2012-val-00020102.png,bottle-0224-ILSVRC2012-val-00020102.png,0.0,-6.84014,-4.2798367,-1.8104078
alexnet_w1_mlp_simclrhn_probe0,1,290,NaN,knife,bottle,0,0290_sty_dnn_0_bottle_00_bottle-0233-ILSVRC2012-val-00031504.png,bottle-0233-ILSVRC2012-val-00031504.png,0.0,-7.595044,-4.940962,-1.8767196
alexnet_w1_mlp_simclrhn_probe0,1,291,NaN,bicycle,bottle,0,0291_sty_dnn_0_bottle_00_bottle-0243-ILSVRC2012-val-00040157.png,bottle-0243-ILSVRC2012-val-00040157.png,0.0,-7.1107802,-3.2386553,-2.7380059
alexnet_w1_mlp_simclrhn_probe0,1,292,NaN,bottle,bottle,0,0292_sty_dnn_0_bottle_00_bottle-0254-ILSVRC2012-val-00005933.png,bottle-0254-ILSVRC2012-val-00005933.png,1.0,-1.7578884,-5.161941,2.407029
alexnet_w1_mlp_simclrhn_probe0,1,293,NaN,bottle,bottle,0,0293_sty_dnn_0_bottle_00_bottle-0283-ILSVRC2012-val-00036864.png,bottle-0283-ILSVRC2012-val-00036864.png,1.0,-0.49348643,-4.2919703,2.6859338
alexnet_w1_mlp_simclrhn_probe0,1,294,NaN,bottle,bottle,0,0294_sty_dnn_0_bottle_00_bottle-0294-ILSVRC2012-val-00044222.png,bottle-0294-ILSVRC2012-val-00044222.png,1.0,-3.1144943,-4.815155,1.2025487
alexnet_w1_mlp_simclrhn_probe0,1,295,NaN,oven,bottle,0,0295_sty_dnn_0_bottle_00_bottle-0296-ILSVRC2012-val-00044906.png,bottle-0296-ILSVRC2012-val-00044906.png,0.0,-5.440502,-1.3383508,-2.900659
alexnet_w1_mlp_simclrhn_probe0,1,296,NaN,oven,bottle,0,0296_sty_dnn_0_bottle_00_bottle-0325-ILSVRC2012-val-00027316.png,bottle-0325-ILSVRC2012-val-00027316.png,0.0,-6.3277993,-5.130417,-0.84667724
alexnet_w1_mlp_simclrhn_probe0,1,297,NaN,oven,bottle,0,0297_sty_dnn_0_bottle_00_bottle-0331-ILSVRC2012-val-00033990.png,bottle-0331-ILSVRC2012-val-00033990.png,0.0,-6.3577323,-5.270355,-0.7688917
alexnet_w1_mlp_simclrhn_probe0,1,298,NaN,oven,bottle,0,0298_sty_dnn_0_bottle_00_bottle-0334-ILSVRC2012-val-00036776.png,bottle-0334-ILSVRC2012-val-00036776.png,0.0,-5.0830164,-1.221615,-2.7304232
alexnet_w1_mlp_simclrhn_probe0,1,299,NaN,bottle,bottle,0,0299_sty_dnn_0_bottle_00_bottle-0345-ILSVRC2012-val-00044614.png,bottle-0345-ILSVRC2012-val-00044614.png,1.0,-1.1115485,-4.132465,2.1361105
alexnet_w1_mlp_simclrhn_probe0,1,300,NaN,elephant,bottle,0,0300_sty_dnn_0_bottle_00_bottle-0347-ILSVRC2012-val-00048539.png,bottle-0347-ILSVRC2012-val-00048539.png,0.0,-4.1306577,-3.5248582,-0.4283649
alexnet_w1_mlp_simclrhn_probe0,1,301,NaN,elephant,car,0,0301_sty_dnn_0_car_00_car-0001-ILSVRC2012-val-00000175.png,car-0001-ILSVRC2012-val-00000175.png,0.0,-6.9315925,-4.102543,-2.0004401
alexnet_w1_mlp_simclrhn_probe0,1,302,NaN,car,car,0,0302_sty_dnn_0_car_00_car-0004-ILSVRC2012-val-00006084.png,car-0004-ILSVRC2012-val-00006084.png,1.0,-2.7231567,-2.728656,0.0038886368
alexnet_w1_mlp_simclrhn_probe0,1,303,NaN,car,car,0,0303_sty_dnn_0_car_00_car-0005-ILSVRC2012-val-00006220.png,car-0005-ILSVRC2012-val-00006220.png,1.0,-1.0532216,-2.0996172,0.73991346
alexnet_w1_mlp_simclrhn_probe0,1,304,NaN,oven,car,0,0304_sty_dnn_0_car_00_car-0010-ILSVRC2012-val-00012600.png,car-0010-ILSVRC2012-val-00012600.png,0.0,-5.214585,-2.6375613,-1.8222308
alexnet_w1_mlp_simclrhn_probe0,1,305,NaN,bear,car,0,0305_sty_dnn_0_car_00_car-0012-ILSVRC2012-val-00014447.png,car-0012-ILSVRC2012-val-00014447.png,0.0,-10.783611,-2.2502418,-6.0340033
alexnet_w1_mlp_simclrhn_probe0,1,306,NaN,oven,car,0,0306_sty_dnn_0_car_00_car-0013-ILSVRC2012-val-00014541.png,car-0013-ILSVRC2012-val-00014541.png,0.0,-8.187176,-3.9981368,-2.9620981
alexnet_w1_mlp_simclrhn_probe0,1,307,NaN,car,car,0,0307_sty_dnn_0_car_00_car-0018-ILSVRC2012-val-00018138.png,car-0018-ILSVRC2012-val-00018138.png,1.0,-3.256377,-4.8772964,1.1461632
alexnet_w1_mlp_simclrhn_probe0,1,308,NaN,bicycle,car,0,0308_sty_dnn_0_car_00_car-0019-ILSVRC2012-val-00018335.png,car-0019-ILSVRC2012-val-00018335.png,0.0,-9.945912,-3.978508,-4.219592
alexnet_w1_mlp_simclrhn_probe0,1,309,NaN,oven,car,0,0309_sty_dnn_0_car_00_car-0021-ILSVRC2012-val-00019695.png,car-0021-ILSVRC2012-val-00019695.png,0.0,-7.735897,-5.4354095,-1.6266904
alexnet_w1_mlp_simclrhn_probe0,1,310,NaN,bicycle,car,0,0310_sty_dnn_0_car_00_car-0024-ILSVRC2012-val-00023221.png,car-0024-ILSVRC2012-val-00023221.png,0.0,-7.458727,-1.1828971,-4.4376817
alexnet_w1_mlp_simclrhn_probe0,1,311,NaN,truck,car,0,0311_sty_dnn_0_car_00_car-0025-ILSVRC2012-val-00023474.png,car-0025-ILSVRC2012-val-00023474.png,0.0,2.8617475,3.2903953,-0.30309975
alexnet_w1_mlp_simclrhn_probe0,1,312,NaN,bicycle,car,0,0312_sty_dnn_0_car_00_car-0028-ILSVRC2012-val-00027049.png,car-0028-ILSVRC2012-val-00027049.png,0.0,-9.171352,-5.916916,-2.3012342
alexnet_w1_mlp_simclrhn_probe0,1,313,NaN,car,car,0,0313_sty_dnn_0_car_00_car-0029-ILSVRC2012-val-00027081.png,car-0029-ILSVRC2012-val-00027081.png,1.0,-2.905042,-3.919066,0.71702325
alexnet_w1_mlp_simclrhn_probe0,1,314,NaN,oven,car,0,0314_sty_dnn_0_car_00_car-0030-ILSVRC2012-val-00029057.png,car-0030-ILSVRC2012-val-00029057.png,0.0,-6.687514,-6.529293,-0.111878976
alexnet_w1_mlp_simclrhn_probe0,1,315,NaN,bicycle,car,0,0315_sty_dnn_0_car_00_car-0032-ILSVRC2012-val-00030834.png,car-0032-ILSVRC2012-val-00030834.png,0.0,-4.1967163,-2.6605172,-1.0862569
alexnet_w1_mlp_simclrhn_probe0,1,316,NaN,bicycle,car,0,0316_sty_dnn_0_car_00_car-0041-ILSVRC2012-val-00040706.png,car-0041-ILSVRC2012-val-00040706.png,0.0,-7.4793816,-1.6747158,-4.1045184
alexnet_w1_mlp_simclrhn_probe0,1,317,NaN,bicycle,car,0,0317_sty_dnn_0_car_00_car-0045-ILSVRC2012-val-00042416.png,car-0045-ILSVRC2012-val-00042416.png,0.0,-4.6339374,-2.5602536,-1.4663159
alexnet_w1_mlp_simclrhn_probe0,1,318,NaN,knife,car,0,0318_sty_dnn_0_car_00_car-0050-ILSVRC2012-val-00048556.png,car-0050-ILSVRC2012-val-00048556.png,0.0,-11.292363,-3.1289072,-5.772435
alexnet_w1_mlp_simclrhn_probe0,1,319,NaN,chair,car,0,0319_sty_dnn_0_car_00_car-0052-ILSVRC2012-val-00004387.png,car-0052-ILSVRC2012-val-00004387.png,0.0,-6.3567142,-1.6442982,-3.3321815
alexnet_w1_mlp_simclrhn_probe0,1,320,NaN,bicycle,car,0,0320_sty_dnn_0_car_00_car-0053-ILSVRC2012-val-00004685.png,car-0053-ILSVRC2012-val-00004685.png,0.0,-7.39148,-3.8262267,-2.5210147
alexnet_w1_mlp_simclrhn_probe0,1,321,NaN,elephant,car,0,0321_sty_dnn_0_car_00_car-0054-ILSVRC2012-val-00005500.png,car-0054-ILSVRC2012-val-00005500.png,0.0,-7.510923,-4.1318293,-2.38938
alexnet_w1_mlp_simclrhn_probe0,1,322,NaN,elephant,car,0,0322_sty_dnn_0_car_00_car-0058-ILSVRC2012-val-00010676.png,car-0058-ILSVRC2012-val-00010676.png,0.0,-9.110041,-4.143005,-3.5122247
alexnet_w1_mlp_simclrhn_probe0,1,323,NaN,oven,car,0,0323_sty_dnn_0_car_00_car-0059-ILSVRC2012-val-00014010.png,car-0059-ILSVRC2012-val-00014010.png,0.0,-5.835959,-4.0109606,-1.2904687
alexnet_w1_mlp_simclrhn_probe0,1,324,NaN,oven,car,0,0324_sty_dnn_0_car_00_car-0060-ILSVRC2012-val-00014208.png,car-0060-ILSVRC2012-val-00014208.png,0.0,-8.251543,-1.0938915,-5.061224
alexnet_w1_mlp_simclrhn_probe0,1,325,NaN,airplane,car,0,0325_sty_dnn_0_car_00_car-0064-ILSVRC2012-val-00016337.png,car-0064-ILSVRC2012-val-00016337.png,0.0,-4.2282166,-3.1124203,-0.78898716
alexnet_w1_mlp_simclrhn_probe0,1,326,NaN,truck,car,0,0326_sty_dnn_0_car_00_car-0065-ILSVRC2012-val-00016613.png,car-0065-ILSVRC2012-val-00016613.png,0.0,-5.785505,-4.9852753,-0.56584775
alexnet_w1_mlp_simclrhn_probe0,1,327,NaN,elephant,car,0,0327_sty_dnn_0_car_00_car-0066-ILSVRC2012-val-00018249.png,car-0066-ILSVRC2012-val-00018249.png,0.0,-7.0704474,-4.289035,-1.9667557
alexnet_w1_mlp_simclrhn_probe0,1,328,NaN,car,car,0,0328_sty_dnn_0_car_00_car-0067-ILSVRC2012-val-00018569.png,car-0067-ILSVRC2012-val-00018569.png,1.0,-4.040825,-6.4560404,1.7078153
alexnet_w1_mlp_simclrhn_probe0,1,329,NaN,car,car,0,0329_sty_dnn_0_car_00_car-0069-ILSVRC2012-val-00019647.png,car-0069-ILSVRC2012-val-00019647.png,1.0,-0.4514481,-1.2220814,0.5449201
alexnet_w1_mlp_simclrhn_probe0,1,330,NaN,elephant,car,0,0330_sty_dnn_0_car_00_car-0079-ILSVRC2012-val-00025028.png,car-0079-ILSVRC2012-val-00025028.png,0.0,-7.669845,-2.5843601,-3.595981
alexnet_w1_mlp_simclrhn_probe0,1,331,NaN,bicycle,car,0,0331_sty_dnn_0_car_00_car-0082-ILSVRC2012-val-00027293.png,car-0082-ILSVRC2012-val-00027293.png,0.0,-7.2182746,-4.511114,-1.9142516
alexnet_w1_mlp_simclrhn_probe0,1,332,NaN,bear,car,0,0332_sty_dnn_0_car_00_car-0083-ILSVRC2012-val-00027508.png,car-0083-ILSVRC2012-val-00027508.png,0.0,-7.0235343,-2.0131855,-3.5428517
alexnet_w1_mlp_simclrhn_probe0,1,333,NaN,elephant,car,0,0333_sty_dnn_0_car_00_car-0086-ILSVRC2012-val-00029454.png,car-0086-ILSVRC2012-val-00029454.png,0.0,-7.8070903,-4.1325655,-2.5982814
alexnet_w1_mlp_simclrhn_probe0,1,334,NaN,oven,car,0,0334_sty_dnn_0_car_00_car-0087-ILSVRC2012-val-00031558.png,car-0087-ILSVRC2012-val-00031558.png,0.0,-2.608099,-2.0180066,-0.41725835
alexnet_w1_mlp_simclrhn_probe0,1,335,NaN,elephant,car,0,0335_sty_dnn_0_car_00_car-0091-ILSVRC2012-val-00036091.png,car-0091-ILSVRC2012-val-00036091.png,0.0,-5.76734,-4.062991,-1.2051568
alexnet_w1_mlp_simclrhn_probe0,1,336,NaN,car,car,0,0336_sty_dnn_0_car_00_car-0093-ILSVRC2012-val-00038956.png,car-0093-ILSVRC2012-val-00038956.png,1.0,-4.7502933,-5.46581,0.50594664
alexnet_w1_mlp_simclrhn_probe0,1,337,NaN,elephant,car,0,0337_sty_dnn_0_car_00_car-0095-ILSVRC2012-val-00041430.png,car-0095-ILSVRC2012-val-00041430.png,0.0,-7.0195756,-4.9162464,-1.4872783
alexnet_w1_mlp_simclrhn_probe0,1,338,NaN,bicycle,car,0,0338_sty_dnn_0_car_00_car-0096-ILSVRC2012-val-00043824.png,car-0096-ILSVRC2012-val-00043824.png,0.0,-12.052929,-5.2869678,-4.784257
alexnet_w1_mlp_simclrhn_probe0,1,339,NaN,car,car,0,0339_sty_dnn_0_car_00_car-0103-ILSVRC2012-val-00003478.png,car-0103-ILSVRC2012-val-00003478.png,1.0,-5.6320796,-8.2207575,1.8304718
alexnet_w1_mlp_simclrhn_probe0,1,340,NaN,elephant,car,0,0340_sty_dnn_0_car_00_car-0106-ILSVRC2012-val-00004868.png,car-0106-ILSVRC2012-val-00004868.png,0.0,-5.559585,-1.1740983,-3.1010075
alexnet_w1_mlp_simclrhn_probe0,1,341,NaN,car,car,0,0341_sty_dnn_0_car_00_car-0110-ILSVRC2012-val-00006285.png,car-0110-ILSVRC2012-val-00006285.png,1.0,-2.040332,-3.9257894,1.3332196
alexnet_w1_mlp_simclrhn_probe0,1,342,NaN,knife,car,0,0342_sty_dnn_0_car_00_car-0111-ILSVRC2012-val-00007125.png,car-0111-ILSVRC2012-val-00007125.png,0.0,-6.3904285,-0.9839255,-3.8229752
alexnet_w1_mlp_simclrhn_probe0,1,343,NaN,bicycle,car,0,0343_sty_dnn_0_car_00_car-0117-ILSVRC2012-val-00010983.png,car-0117-ILSVRC2012-val-00010983.png,0.0,-6.4522014,-1.0246968,-3.8378253
alexnet_w1_mlp_simclrhn_probe0,1,344,NaN,bicycle,car,0,0344_sty_dnn_0_car_00_car-0118-ILSVRC2012-val-00012327.png,car-0118-ILSVRC2012-val-00012327.png,0.0,-5.810286,-3.858131,-1.3803822
alexnet_w1_mlp_simclrhn_probe0,1,345,NaN,bicycle,car,0,0345_sty_dnn_0_car_00_car-0121-ILSVRC2012-val-00016638.png,car-0121-ILSVRC2012-val-00016638.png,0.0,-4.315063,-3.44346,-0.61631644
alexnet_w1_mlp_simclrhn_probe0,1,346,NaN,car,car,0,0346_sty_dnn_0_car_00_car-0134-ILSVRC2012-val-00032944.png,car-0134-ILSVRC2012-val-00032944.png,1.0,-2.9408777,-5.0255938,1.4741169
alexnet_w1_mlp_simclrhn_probe0,1,347,NaN,cat,car,0,0347_sty_dnn_0_car_00_car-0139-ILSVRC2012-val-00037952.png,car-0139-ILSVRC2012-val-00037952.png,0.0,-11.127519,-4.659345,-4.5736895
alexnet_w1_mlp_simclrhn_probe0,1,348,NaN,oven,car,0,0348_sty_dnn_0_car_00_car-0145-ILSVRC2012-val-00041626.png,car-0145-ILSVRC2012-val-00041626.png,0.0,-6.182276,-2.399586,-2.6747656
alexnet_w1_mlp_simclrhn_probe0,1,349,NaN,bicycle,car,0,0349_sty_dnn_0_car_00_car-0146-ILSVRC2012-val-00043297.png,car-0146-ILSVRC2012-val-00043297.png,0.0,-8.290832,-5.0238943,-2.3100736
alexnet_w1_mlp_simclrhn_probe0,1,350,NaN,oven,car,0,0350_sty_dnn_0_car_00_car-0149-ILSVRC2012-val-00049427.png,car-0149-ILSVRC2012-val-00049427.png,0.0,-9.419221,-3.5475047,-4.151931
alexnet_w1_mlp_simclrhn_probe0,1,351,NaN,cat,cat,0,0351_sty_dnn_0_cat_00_cat-0005-ILSVRC2012-val-00005358.png,cat-0005-ILSVRC2012-val-00005358.png,1.0,-1.9911675,-4.559107,1.8158073
alexnet_w1_mlp_simclrhn_probe0,1,352,NaN,cat,cat,0,0352_sty_dnn_0_cat_00_cat-0012-ILSVRC2012-val-00012377.png,cat-0012-ILSVRC2012-val-00012377.png,1.0,-3.1076257,-4.7057943,1.1300759
alexnet_w1_mlp_simclrhn_probe0,1,353,NaN,bear,cat,0,0353_sty_dnn_0_cat_00_cat-0031-ILSVRC2012-val-00030706.png,cat-0031-ILSVRC2012-val-00030706.png,0.0,-5.7853436,-4.472361,-0.9284189
alexnet_w1_mlp_simclrhn_probe0,1,354,NaN,cat,cat,0,0354_sty_dnn_0_cat_00_cat-0032-ILSVRC2012-val-00033420.png,cat-0032-ILSVRC2012-val-00033420.png,1.0,0.56034565,-2.2689035,2.0005813
alexnet_w1_mlp_simclrhn_probe0,1,355,NaN,cat,cat,0,0355_sty_dnn_0_cat_00_cat-0034-ILSVRC2012-val-00033837.png,cat-0034-ILSVRC2012-val-00033837.png,1.0,-3.8137407,-6.0748444,1.5988418
alexnet_w1_mlp_simclrhn_probe0,1,356,NaN,cat,cat,0,0356_sty_dnn_0_cat_00_cat-0042-ILSVRC2012-val-00040238.png,cat-0042-ILSVRC2012-val-00040238.png,1.0,-3.258089,-5.827313,1.8167157
alexnet_w1_mlp_simclrhn_probe0,1,357,NaN,cat,cat,0,0357_sty_dnn_0_cat_00_cat-0045-ILSVRC2012-val-00041570.png,cat-0045-ILSVRC2012-val-00041570.png,1.0,-3.6158419,-4.912588,0.91693807
alexnet_w1_mlp_simclrhn_probe0,1,358,NaN,dog,cat,0,0358_sty_dnn_0_cat_00_cat-0050-ILSVRC2012-val-00047911.png,cat-0050-ILSVRC2012-val-00047911.png,0.0,-5.371242,-5.058645,-0.22103965
alexnet_w1_mlp_simclrhn_probe0,1,359,NaN,knife,cat,0,0359_sty_dnn_0_cat_00_cat-0054-ILSVRC2012-val-00003295.png,cat-0054-ILSVRC2012-val-00003295.png,0.0,-5.0189023,-2.7093914,-1.6330708
alexnet_w1_mlp_simclrhn_probe0,1,360,NaN,bear,cat,0,0360_sty_dnn_0_cat_00_cat-0056-ILSVRC2012-val-00007676.png,cat-0056-ILSVRC2012-val-00007676.png,0.0,-3.7086155,-3.3938417,-0.22257869
alexnet_w1_mlp_simclrhn_probe0,1,361,NaN,elephant,cat,0,0361_sty_dnn_0_cat_00_cat-0062-ILSVRC2012-val-00013788.png,cat-0062-ILSVRC2012-val-00013788.png,0.0,-5.209037,-0.51466656,-3.319421
alexnet_w1_mlp_simclrhn_probe0,1,362,NaN,knife,cat,0,0362_sty_dnn_0_cat_00_cat-0064-ILSVRC2012-val-00014860.png,cat-0064-ILSVRC2012-val-00014860.png,0.0,-7.0191827,-2.3121321,-3.3283873
alexnet_w1_mlp_simclrhn_probe0,1,363,NaN,cat,cat,0,0363_sty_dnn_0_cat_00_cat-0069-ILSVRC2012-val-00016399.png,cat-0069-ILSVRC2012-val-00016399.png,1.0,-5.0249944,-6.327175,0.92078084
alexnet_w1_mlp_simclrhn_probe0,1,364,NaN,cat,cat,0,0364_sty_dnn_0_cat_00_cat-0072-ILSVRC2012-val-00019303.png,cat-0072-ILSVRC2012-val-00019303.png,1.0,-3.3197138,-4.029348,0.50178707
alexnet_w1_mlp_simclrhn_probe0,1,365,NaN,cat,cat,0,0365_sty_dnn_0_cat_00_cat-0073-ILSVRC2012-val-00020140.png,cat-0073-ILSVRC2012-val-00020140.png,1.0,-3.007407,-4.025266,0.71973515
alexnet_w1_mlp_simclrhn_probe0,1,366,NaN,bicycle,cat,0,0366_sty_dnn_0_cat_00_cat-0082-ILSVRC2012-val-00025723.png,cat-0082-ILSVRC2012-val-00025723.png,0.0,-4.7483277,0.26098487,-3.542119
alexnet_w1_mlp_simclrhn_probe0,1,367,NaN,cat,cat,0,0367_sty_dnn_0_cat_00_cat-0092-ILSVRC2012-val-00039621.png,cat-0092-ILSVRC2012-val-00039621.png,1.0,-3.0849931,-7.0036364,2.7708993
alexnet_w1_mlp_simclrhn_probe0,1,368,NaN,cat,cat,0,0368_sty_dnn_0_cat_00_cat-0096-ILSVRC2012-val-00045420.png,cat-0096-ILSVRC2012-val-00045420.png,1.0,-5.9724007,-6.890795,0.64940304
alexnet_w1_mlp_simclrhn_probe0,1,369,NaN,keyboard,cat,0,0369_sty_dnn_0_cat_00_cat-0108-ILSVRC2012-val-00002967.png,cat-0108-ILSVRC2012-val-00002967.png,0.0,-8.288302,-2.3901374,-4.1706324
alexnet_w1_mlp_simclrhn_probe0,1,370,NaN,cat,cat,0,0370_sty_dnn_0_cat_00_cat-0110-ILSVRC2012-val-00004411.png,cat-0110-ILSVRC2012-val-00004411.png,1.0,-4.355209,-4.619843,0.1871246
alexnet_w1_mlp_simclrhn_probe0,1,371,NaN,oven,cat,0,0371_sty_dnn_0_cat_00_cat-0113-ILSVRC2012-val-00007808.png,cat-0113-ILSVRC2012-val-00007808.png,0.0,-3.2287323,-1.9738625,-0.88732696
alexnet_w1_mlp_simclrhn_probe0,1,372,NaN,cat,cat,0,0372_sty_dnn_0_cat_00_cat-0118-ILSVRC2012-val-00010218.png,cat-0118-ILSVRC2012-val-00010218.png,1.0,-2.7384999,-5.7821407,2.1521792
alexnet_w1_mlp_simclrhn_probe0,1,373,NaN,cat,cat,0,0373_sty_dnn_0_cat_00_cat-0123-ILSVRC2012-val-00014813.png,cat-0123-ILSVRC2012-val-00014813.png,1.0,-2.2798054,-3.0050225,0.51280594
alexnet_w1_mlp_simclrhn_probe0,1,374,NaN,cat,cat,0,0374_sty_dnn_0_cat_00_cat-0133-ILSVRC2012-val-00023898.png,cat-0133-ILSVRC2012-val-00023898.png,1.0,-5.0605283,-8.76297,2.6180217
alexnet_w1_mlp_simclrhn_probe0,1,375,NaN,cat,cat,0,0375_sty_dnn_0_cat_00_cat-0137-ILSVRC2012-val-00027906.png,cat-0137-ILSVRC2012-val-00027906.png,1.0,-1.562128,-1.9789915,0.29476705
alexnet_w1_mlp_simclrhn_probe0,1,376,NaN,cat,cat,0,0376_sty_dnn_0_cat_00_cat-0147-ILSVRC2012-val-00041347.png,cat-0147-ILSVRC2012-val-00041347.png,1.0,-3.1240904,-7.054971,2.7795525
alexnet_w1_mlp_simclrhn_probe0,1,377,NaN,bicycle,cat,0,0377_sty_dnn_0_cat_00_cat-0150-ILSVRC2012-val-00049996.png,cat-0150-ILSVRC2012-val-00049996.png,0.0,-7.977219,-6.3619127,-1.1421942
alexnet_w1_mlp_simclrhn_probe0,1,378,NaN,bear,cat,0,0378_sty_dnn_0_cat_00_cat-0160-ILSVRC2012-val-00011528.png,cat-0160-ILSVRC2012-val-00011528.png,0.0,-2.32174,0.38681015,-1.9152341
alexnet_w1_mlp_simclrhn_probe0,1,379,NaN,oven,cat,0,0379_sty_dnn_0_cat_00_cat-0162-ILSVRC2012-val-00012173.png,cat-0162-ILSVRC2012-val-00012173.png,0.0,-8.765346,-4.481827,-3.0289052
alexnet_w1_mlp_simclrhn_probe0,1,380,NaN,knife,cat,0,0380_sty_dnn_0_cat_00_cat-0165-ILSVRC2012-val-00017325.png,cat-0165-ILSVRC2012-val-00017325.png,0.0,-3.9821186,-0.037473038,-2.7892857
alexnet_w1_mlp_simclrhn_probe0,1,381,NaN,bottle,cat,0,0381_sty_dnn_0_cat_00_cat-0169-ILSVRC2012-val-00020688.png,cat-0169-ILSVRC2012-val-00020688.png,0.0,-12.020106,-5.5104613,-4.603014
alexnet_w1_mlp_simclrhn_probe0,1,382,NaN,knife,cat,0,0382_sty_dnn_0_cat_00_cat-0185-ILSVRC2012-val-00038168.png,cat-0185-ILSVRC2012-val-00038168.png,0.0,-7.6801987,-4.1140656,-2.521637
alexnet_w1_mlp_simclrhn_probe0,1,383,NaN,cat,cat,0,0383_sty_dnn_0_cat_00_cat-0186-ILSVRC2012-val-00039580.png,cat-0186-ILSVRC2012-val-00039580.png,1.0,-2.2586877,-4.859795,1.8392607
alexnet_w1_mlp_simclrhn_probe0,1,384,NaN,chair,cat,0,0384_sty_dnn_0_cat_00_cat-0189-ILSVRC2012-val-00040854.png,cat-0189-ILSVRC2012-val-00040854.png,0.0,-7.8266945,-3.5407379,-3.030629
alexnet_w1_mlp_simclrhn_probe0,1,385,NaN,bear,cat,0,0385_sty_dnn_0_cat_00_cat-0202-ILSVRC2012-val-00001496.png,cat-0202-ILSVRC2012-val-00001496.png,0.0,-3.4377759,-1.2764449,-1.5282918
alexnet_w1_mlp_simclrhn_probe0,1,386,NaN,oven,cat,0,0386_sty_dnn_0_cat_00_cat-0234-ILSVRC2012-val-00028970.png,cat-0234-ILSVRC2012-val-00028970.png,0.0,-7.4824357,-4.383724,-2.19112
alexnet_w1_mlp_simclrhn_probe0,1,387,NaN,elephant,cat,0,0387_sty_dnn_0_cat_00_cat-0236-ILSVRC2012-val-00031185.png,cat-0236-ILSVRC2012-val-00031185.png,0.0,-9.50995,-6.5312824,-2.1062357
alexnet_w1_mlp_simclrhn_probe0,1,388,NaN,bicycle,cat,0,0388_sty_dnn_0_cat_00_cat-0238-ILSVRC2012-val-00033582.png,cat-0238-ILSVRC2012-val-00033582.png,0.0,-8.890793,-5.8660984,-2.138782
alexnet_w1_mlp_simclrhn_probe0,1,389,NaN,cat,cat,0,0389_sty_dnn_0_cat_00_cat-0242-ILSVRC2012-val-00040192.png,cat-0242-ILSVRC2012-val-00040192.png,1.0,-2.894413,-4.468486,1.1130376
alexnet_w1_mlp_simclrhn_probe0,1,390,NaN,bear,cat,0,0390_sty_dnn_0_cat_00_cat-0243-ILSVRC2012-val-00040600.png,cat-0243-ILSVRC2012-val-00040600.png,0.0,-0.5968638,0.27468228,-0.61627614
alexnet_w1_mlp_simclrhn_probe0,1,391,NaN,elephant,cat,0,0391_sty_dnn_0_cat_00_cat-0247-ILSVRC2012-val-00044374.png,cat-0247-ILSVRC2012-val-00044374.png,0.0,-4.101038,-4.004981,-0.06792251
alexnet_w1_mlp_simclrhn_probe0,1,392,NaN,oven,cat,0,0392_sty_dnn_0_cat_00_cat-0258-ILSVRC2012-val-00006112.png,cat-0258-ILSVRC2012-val-00006112.png,0.0,-4.7091784,-3.197587,-1.0688566
alexnet_w1_mlp_simclrhn_probe0,1,393,NaN,knife,cat,0,0393_sty_dnn_0_cat_00_cat-0260-ILSVRC2012-val-00006612.png,cat-0260-ILSVRC2012-val-00006612.png,0.0,-10.593447,-6.1279535,-3.1575806
alexnet_w1_mlp_simclrhn_probe0,1,394,NaN,cat,cat,0,0394_sty_dnn_0_cat_00_cat-0264-ILSVRC2012-val-00010823.png,cat-0264-ILSVRC2012-val-00010823.png,1.0,-2.9735024,-4.6321163,1.1728171
alexnet_w1_mlp_simclrhn_probe0,1,395,NaN,cat,cat,0,0395_sty_dnn_0_cat_00_cat-0270-ILSVRC2012-val-00017189.png,cat-0270-ILSVRC2012-val-00017189.png,1.0,-5.2851415,-5.7099085,0.30035564
alexnet_w1_mlp_simclrhn_probe0,1,396,NaN,knife,cat,0,0396_sty_dnn_0_cat_00_cat-0274-ILSVRC2012-val-00019370.png,cat-0274-ILSVRC2012-val-00019370.png,0.0,-4.126917,-2.6167703,-1.067835
alexnet_w1_mlp_simclrhn_probe0,1,397,NaN,bicycle,cat,0,0397_sty_dnn_0_cat_00_cat-0284-ILSVRC2012-val-00027069.png,cat-0284-ILSVRC2012-val-00027069.png,0.0,-10.0258,-7.169819,-2.0194836
alexnet_w1_mlp_simclrhn_probe0,1,398,NaN,cat,cat,0,0398_sty_dnn_0_cat_00_cat-0291-ILSVRC2012-val-00035821.png,cat-0291-ILSVRC2012-val-00035821.png,1.0,-6.419295,-6.516385,0.068653174
alexnet_w1_mlp_simclrhn_probe0,1,399,NaN,elephant,cat,0,0399_sty_dnn_0_cat_00_cat-0294-ILSVRC2012-val-00037633.png,cat-0294-ILSVRC2012-val-00037633.png,0.0,-3.4941463,-1.7792664,-1.2126033
alexnet_w1_mlp_simclrhn_probe0,1,400,NaN,bicycle,cat,0,0400_sty_dnn_0_cat_00_cat-0298-ILSVRC2012-val-00042529.png,cat-0298-ILSVRC2012-val-00042529.png,0.0,-8.735637,-3.6945138,-3.5646122
alexnet_w1_mlp_simclrhn_probe0,1,401,NaN,oven,chair,0,0401_sty_dnn_0_chair_00_chair-0006-ILSVRC2012-val-00004679.png,chair-0006-ILSVRC2012-val-00004679.png,0.0,-9.595806,-3.4817345,-4.323302
alexnet_w1_mlp_simclrhn_probe0,1,402,NaN,chair,chair,0,0402_sty_dnn_0_chair_00_chair-0018-ILSVRC2012-val-00013838.png,chair-0018-ILSVRC2012-val-00013838.png,1.0,-3.8482466,-4.635487,0.5566631
alexnet_w1_mlp_simclrhn_probe0,1,403,NaN,bicycle,chair,0,0403_sty_dnn_0_chair_00_chair-0022-ILSVRC2012-val-00016403.png,chair-0022-ILSVRC2012-val-00016403.png,0.0,-4.789684,-3.9473662,-0.5956085
alexnet_w1_mlp_simclrhn_probe0,1,404,NaN,elephant,chair,0,0404_sty_dnn_0_chair_00_chair-0024-ILSVRC2012-val-00021099.png,chair-0024-ILSVRC2012-val-00021099.png,0.0,-10.915814,0.4871782,-8.063133
alexnet_w1_mlp_simclrhn_probe0,1,405,NaN,oven,chair,0,0405_sty_dnn_0_chair_00_chair-0030-ILSVRC2012-val-00026896.png,chair-0030-ILSVRC2012-val-00026896.png,0.0,-6.834182,-2.2179077,-3.2641985
alexnet_w1_mlp_simclrhn_probe0,1,406,NaN,bottle,chair,0,0406_sty_dnn_0_chair_00_chair-0033-ILSVRC2012-val-00031805.png,chair-0033-ILSVRC2012-val-00031805.png,0.0,-5.218864,-2.4153843,-1.9823595
alexnet_w1_mlp_simclrhn_probe0,1,407,NaN,elephant,chair,0,0407_sty_dnn_0_chair_00_chair-0039-ILSVRC2012-val-00041772.png,chair-0039-ILSVRC2012-val-00041772.png,0.0,-6.305989,0.011410326,-4.467076
alexnet_w1_mlp_simclrhn_probe0,1,408,NaN,knife,chair,0,0408_sty_dnn_0_chair_00_chair-0040-ILSVRC2012-val-00042512.png,chair-0040-ILSVRC2012-val-00042512.png,0.0,-6.9856586,-1.6942332,-3.7416031
alexnet_w1_mlp_simclrhn_probe0,1,409,NaN,knife,chair,0,0409_sty_dnn_0_chair_00_chair-0045-ILSVRC2012-val-00044898.png,chair-0045-ILSVRC2012-val-00044898.png,0.0,-5.128487,-2.963027,-1.5312115
alexnet_w1_mlp_simclrhn_probe0,1,410,NaN,bicycle,chair,0,0410_sty_dnn_0_chair_00_chair-0047-ILSVRC2012-val-00045407.png,chair-0047-ILSVRC2012-val-00045407.png,0.0,-2.4269032,-1.8780088,-0.38812697
alexnet_w1_mlp_simclrhn_probe0,1,411,NaN,oven,chair,0,0411_sty_dnn_0_chair_00_chair-0050-ILSVRC2012-val-00049050.png,chair-0050-ILSVRC2012-val-00049050.png,0.0,-10.713784,-4.9819427,-4.0530243
alexnet_w1_mlp_simclrhn_probe0,1,412,NaN,elephant,chair,0,0412_sty_dnn_0_chair_00_chair-0051-ILSVRC2012-val-00001616.png,chair-0051-ILSVRC2012-val-00001616.png,0.0,-4.2212124,-3.7740273,-0.3162076
alexnet_w1_mlp_simclrhn_probe0,1,413,NaN,bicycle,chair,0,0413_sty_dnn_0_chair_00_chair-0053-ILSVRC2012-val-00001855.png,chair-0053-ILSVRC2012-val-00001855.png,0.0,-6.1547413,-3.509532,-1.8704455
alexnet_w1_mlp_simclrhn_probe0,1,414,NaN,bicycle,chair,0,0414_sty_dnn_0_chair_00_chair-0058-ILSVRC2012-val-00005926.png,chair-0058-ILSVRC2012-val-00005926.png,0.0,-6.557635,-2.6893513,-2.7352896
alexnet_w1_mlp_simclrhn_probe0,1,415,NaN,bicycle,chair,0,0415_sty_dnn_0_chair_00_chair-0059-ILSVRC2012-val-00006022.png,chair-0059-ILSVRC2012-val-00006022.png,0.0,-6.1859674,-2.8320904,-2.3715494
alexnet_w1_mlp_simclrhn_probe0,1,416,NaN,elephant,chair,0,0416_sty_dnn_0_chair_00_chair-0072-ILSVRC2012-val-00015559.png,chair-0072-ILSVRC2012-val-00015559.png,0.0,-7.925543,-1.6357042,-4.447588
alexnet_w1_mlp_simclrhn_probe0,1,417,NaN,chair,chair,0,0417_sty_dnn_0_chair_00_chair-0081-ILSVRC2012-val-00033069.png,chair-0081-ILSVRC2012-val-00033069.png,1.0,-2.8545556,-3.5148196,0.46687716
alexnet_w1_mlp_simclrhn_probe0,1,418,NaN,bicycle,chair,0,0418_sty_dnn_0_chair_00_chair-0085-ILSVRC2012-val-00036175.png,chair-0085-ILSVRC2012-val-00036175.png,0.0,-5.3726254,-3.8462605,-1.0793029
alexnet_w1_mlp_simclrhn_probe0,1,419,NaN,chair,chair,0,0419_sty_dnn_0_chair_00_chair-0087-ILSVRC2012-val-00037905.png,chair-0087-ILSVRC2012-val-00037905.png,1.0,-3.7842827,-3.979323,0.13791427
alexnet_w1_mlp_simclrhn_probe0,1,420,NaN,oven,chair,0,0420_sty_dnn_0_chair_00_chair-0092-ILSVRC2012-val-00041814.png,chair-0092-ILSVRC2012-val-00041814.png,0.0,-7.0219526,-2.4884832,-3.2056468
alexnet_w1_mlp_simclrhn_probe0,1,421,NaN,bicycle,chair,0,0421_sty_dnn_0_chair_00_chair-0097-ILSVRC2012-val-00043453.png,chair-0097-ILSVRC2012-val-00043453.png,0.0,-5.9118586,-2.9254375,-2.1117187
alexnet_w1_mlp_simclrhn_probe0,1,422,NaN,bear,chair,0,0422_sty_dnn_0_chair_00_chair-0098-ILSVRC2012-val-00044181.png,chair-0098-ILSVRC2012-val-00044181.png,0.0,-8.217522,-0.66402555,-5.341129
alexnet_w1_mlp_simclrhn_probe0,1,423,NaN,chair,chair,0,0423_sty_dnn_0_chair_00_chair-0116-ILSVRC2012-val-00017447.png,chair-0116-ILSVRC2012-val-00017447.png,1.0,-3.8504977,-3.9665947,0.082092956
alexnet_w1_mlp_simclrhn_probe0,1,424,NaN,chair,chair,0,0424_sty_dnn_0_chair_00_chair-0118-ILSVRC2012-val-00018123.png,chair-0118-ILSVRC2012-val-00018123.png,1.0,-3.322996,-4.0428486,0.5090127
alexnet_w1_mlp_simclrhn_probe0,1,425,NaN,bear,chair,0,0425_sty_dnn_0_chair_00_chair-0119-ILSVRC2012-val-00018206.png,chair-0119-ILSVRC2012-val-00018206.png,0.0,-6.4804287,-2.432181,-2.8625436
alexnet_w1_mlp_simclrhn_probe0,1,426,NaN,chair,chair,0,0426_sty_dnn_0_chair_00_chair-0122-ILSVRC2012-val-00019867.png,chair-0122-ILSVRC2012-val-00019867.png,1.0,-4.7540474,-4.788065,0.02405405
alexnet_w1_mlp_simclrhn_probe0,1,427,NaN,knife,chair,0,0427_sty_dnn_0_chair_00_chair-0123-ILSVRC2012-val-00020924.png,chair-0123-ILSVRC2012-val-00020924.png,0.0,-9.741488,-5.385752,-3.0799706
alexnet_w1_mlp_simclrhn_probe0,1,428,NaN,oven,chair,0,0428_sty_dnn_0_chair_00_chair-0124-ILSVRC2012-val-00022208.png,chair-0124-ILSVRC2012-val-00022208.png,0.0,-9.800228,-2.7481115,-4.9865994
alexnet_w1_mlp_simclrhn_probe0,1,429,NaN,oven,chair,0,0429_sty_dnn_0_chair_00_chair-0127-ILSVRC2012-val-00024620.png,chair-0127-ILSVRC2012-val-00024620.png,0.0,-4.9331913,-0.07901609,-3.4324203
alexnet_w1_mlp_simclrhn_probe0,1,430,NaN,oven,chair,0,0430_sty_dnn_0_chair_00_chair-0133-ILSVRC2012-val-00033406.png,chair-0133-ILSVRC2012-val-00033406.png,0.0,-6.900719,-3.7311635,-2.2412143
alexnet_w1_mlp_simclrhn_probe0,1,431,NaN,chair,chair,0,0431_sty_dnn_0_chair_00_chair-0136-ILSVRC2012-val-00037994.png,chair-0136-ILSVRC2012-val-00037994.png,1.0,-3.9983134,-5.7954707,1.2707821
alexnet_w1_mlp_simclrhn_probe0,1,432,NaN,knife,chair,0,0432_sty_dnn_0_chair_00_chair-0138-ILSVRC2012-val-00038750.png,chair-0138-ILSVRC2012-val-00038750.png,0.0,-11.456363,-6.23416,-3.692655
alexnet_w1_mlp_simclrhn_probe0,1,433,NaN,knife,chair,0,0433_sty_dnn_0_chair_00_chair-0141-ILSVRC2012-val-00040076.png,chair-0141-ILSVRC2012-val-00040076.png,0.0,-4.2268267,-0.7729277,-2.4422753
alexnet_w1_mlp_simclrhn_probe0,1,434,NaN,oven,chair,0,0434_sty_dnn_0_chair_00_chair-0150-ILSVRC2012-val-00048622.png,chair-0150-ILSVRC2012-val-00048622.png,0.0,-8.673841,-3.7526352,-3.4798186
alexnet_w1_mlp_simclrhn_probe0,1,435,NaN,knife,chair,0,0435_sty_dnn_0_chair_00_chair-0154-ILSVRC2012-val-00004705.png,chair-0154-ILSVRC2012-val-00004705.png,0.0,-6.448002,-5.452984,-0.703584
alexnet_w1_mlp_simclrhn_probe0,1,436,NaN,oven,chair,0,0436_sty_dnn_0_chair_00_chair-0155-ILSVRC2012-val-00005160.png,chair-0155-ILSVRC2012-val-00005160.png,0.0,-7.632331,-1.4668633,-4.359644
alexnet_w1_mlp_simclrhn_probe0,1,437,NaN,bottle,chair,0,0437_sty_dnn_0_chair_00_chair-0159-ILSVRC2012-val-00011028.png,chair-0159-ILSVRC2012-val-00011028.png,0.0,-7.3933015,-6.206215,-0.839397
alexnet_w1_mlp_simclrhn_probe0,1,438,NaN,chair,chair,0,0438_sty_dnn_0_chair_00_chair-0160-ILSVRC2012-val-00012040.png,chair-0160-ILSVRC2012-val-00012040.png,1.0,-4.574821,-4.9000993,0.23000649
alexnet_w1_mlp_simclrhn_probe0,1,439,NaN,bottle,chair,0,0439_sty_dnn_0_chair_00_chair-0169-ILSVRC2012-val-00019913.png,chair-0169-ILSVRC2012-val-00019913.png,0.0,-4.734473,-4.4236226,-0.21980458
alexnet_w1_mlp_simclrhn_probe0,1,440,NaN,knife,chair,0,0440_sty_dnn_0_chair_00_chair-0170-ILSVRC2012-val-00022051.png,chair-0170-ILSVRC2012-val-00022051.png,0.0,-3.5050523,-2.1755788,-0.94007975
alexnet_w1_mlp_simclrhn_probe0,1,441,NaN,bottle,chair,0,0441_sty_dnn_0_chair_00_chair-0172-ILSVRC2012-val-00023378.png,chair-0172-ILSVRC2012-val-00023378.png,0.0,-5.0819507,-3.0694067,-1.4230834
alexnet_w1_mlp_simclrhn_probe0,1,442,NaN,airplane,chair,0,0442_sty_dnn_0_chair_00_chair-0181-ILSVRC2012-val-00033160.png,chair-0181-ILSVRC2012-val-00033160.png,0.0,-8.101105,-5.7341795,-1.6736689
alexnet_w1_mlp_simclrhn_probe0,1,443,NaN,cat,chair,0,0443_sty_dnn_0_chair_00_chair-0183-ILSVRC2012-val-00035142.png,chair-0183-ILSVRC2012-val-00035142.png,0.0,-7.32115,-3.0503132,-3.0199378
alexnet_w1_mlp_simclrhn_probe0,1,444,NaN,keyboard,chair,0,0444_sty_dnn_0_chair_00_chair-0188-ILSVRC2012-val-00041720.png,chair-0188-ILSVRC2012-val-00041720.png,0.0,-10.56105,-5.0050616,-3.9286773
alexnet_w1_mlp_simclrhn_probe0,1,445,NaN,elephant,chair,0,0445_sty_dnn_0_chair_00_chair-0189-ILSVRC2012-val-00041883.png,chair-0189-ILSVRC2012-val-00041883.png,0.0,-7.2320833,-1.2406652,-4.2365723
alexnet_w1_mlp_simclrhn_probe0,1,446,NaN,bottle,chair,0,0446_sty_dnn_0_chair_00_chair-0192-ILSVRC2012-val-00043870.png,chair-0192-ILSVRC2012-val-00043870.png,0.0,-6.8715696,-3.9629421,-2.0567102
alexnet_w1_mlp_simclrhn_probe0,1,447,NaN,knife,chair,0,0447_sty_dnn_0_chair_00_chair-0193-ILSVRC2012-val-00044295.png,chair-0193-ILSVRC2012-val-00044295.png,0.0,-7.487926,-6.2632475,-0.8659785
alexnet_w1_mlp_simclrhn_probe0,1,448,NaN,chair,chair,0,0448_sty_dnn_0_chair_00_chair-0195-ILSVRC2012-val-00045464.png,chair-0195-ILSVRC2012-val-00045464.png,1.0,-2.4485192,-4.1572037,1.2082224
alexnet_w1_mlp_simclrhn_probe0,1,449,NaN,oven,chair,0,0449_sty_dnn_0_chair_00_chair-0196-ILSVRC2012-val-00045844.png,chair-0196-ILSVRC2012-val-00045844.png,0.0,-4.9356914,-2.5529838,-1.6848288
alexnet_w1_mlp_simclrhn_probe0,1,450,NaN,oven,chair,0,0450_sty_dnn_0_chair_00_chair-0199-ILSVRC2012-val-00048901.png,chair-0199-ILSVRC2012-val-00048901.png,0.0,-4.724159,-2.1165648,-1.8438474
alexnet_w1_mlp_simclrhn_probe0,1,451,NaN,clock,clock,0,0451_sty_dnn_0_clock_00_clock-0001-ILSVRC2012-val-00001011.png,clock-0001-ILSVRC2012-val-00001011.png,1.0,-2.5762384,-5.0002103,1.714007
alexnet_w1_mlp_simclrhn_probe0,1,452,NaN,bicycle,clock,0,0452_sty_dnn_0_clock_00_clock-0007-ILSVRC2012-val-00005490.png,clock-0007-ILSVRC2012-val-00005490.png,0.0,-9.280396,-0.66755754,-6.0901966
alexnet_w1_mlp_simclrhn_probe0,1,453,NaN,bottle,clock,0,0453_sty_dnn_0_clock_00_clock-0008-ILSVRC2012-val-00005558.png,clock-0008-ILSVRC2012-val-00005558.png,0.0,-3.730628,-3.3555238,-0.26523873
alexnet_w1_mlp_simclrhn_probe0,1,454,NaN,chair,clock,0,0454_sty_dnn_0_clock_00_clock-0010-ILSVRC2012-val-00006858.png,clock-0010-ILSVRC2012-val-00006858.png,0.0,-4.4651046,-3.920604,-0.38502008
alexnet_w1_mlp_simclrhn_probe0,1,455,NaN,clock,clock,0,0455_sty_dnn_0_clock_00_clock-0013-ILSVRC2012-val-00013244.png,clock-0013-ILSVRC2012-val-00013244.png,1.0,-4.4635205,-5.9464025,1.048556
alexnet_w1_mlp_simclrhn_probe0,1,456,NaN,oven,clock,0,0456_sty_dnn_0_clock_00_clock-0018-ILSVRC2012-val-00015871.png,clock-0018-ILSVRC2012-val-00015871.png,0.0,-5.933689,-5.496338,-0.30925402
alexnet_w1_mlp_simclrhn_probe0,1,457,NaN,clock,clock,0,0457_sty_dnn_0_clock_00_clock-0020-ILSVRC2012-val-00016889.png,clock-0020-ILSVRC2012-val-00016889.png,1.0,-1.7376528,-3.4167295,1.1872865
alexnet_w1_mlp_simclrhn_probe0,1,458,NaN,clock,clock,0,0458_sty_dnn_0_clock_00_clock-0023-ILSVRC2012-val-00017973.png,clock-0023-ILSVRC2012-val-00017973.png,1.0,-1.3968192,-5.2177095,2.7017775
alexnet_w1_mlp_simclrhn_probe0,1,459,NaN,clock,clock,0,0459_sty_dnn_0_clock_00_clock-0025-ILSVRC2012-val-00019663.png,clock-0025-ILSVRC2012-val-00019663.png,1.0,-3.2008495,-4.34563,0.80948216
alexnet_w1_mlp_simclrhn_probe0,1,460,NaN,elephant,clock,0,0460_sty_dnn_0_clock_00_clock-0028-ILSVRC2012-val-00021179.png,clock-0028-ILSVRC2012-val-00021179.png,0.0,-4.6593785,-3.2844205,-0.9722422
alexnet_w1_mlp_simclrhn_probe0,1,461,NaN,clock,clock,0,0461_sty_dnn_0_clock_00_clock-0029-ILSVRC2012-val-00022719.png,clock-0029-ILSVRC2012-val-00022719.png,1.0,-2.2703807,-3.4387767,0.82618076
alexnet_w1_mlp_simclrhn_probe0,1,462,NaN,bottle,clock,0,0462_sty_dnn_0_clock_00_clock-0032-ILSVRC2012-val-00024425.png,clock-0032-ILSVRC2012-val-00024425.png,0.0,-5.1843667,-4.440992,-0.5256454
alexnet_w1_mlp_simclrhn_probe0,1,463,NaN,bicycle,clock,0,0463_sty_dnn_0_clock_00_clock-0034-ILSVRC2012-val-00026380.png,clock-0034-ILSVRC2012-val-00026380.png,0.0,-12.049537,-6.892955,-3.646254
alexnet_w1_mlp_simclrhn_probe0,1,464,NaN,knife,clock,0,0464_sty_dnn_0_clock_00_clock-0038-ILSVRC2012-val-00032489.png,clock-0038-ILSVRC2012-val-00032489.png,0.0,-1.194155,-1.1643122,-0.021102
alexnet_w1_mlp_simclrhn_probe0,1,465,NaN,bear,clock,0,0465_sty_dnn_0_clock_00_clock-0039-ILSVRC2012-val-00033429.png,clock-0039-ILSVRC2012-val-00033429.png,0.0,-6.4366775,-1.5436981,-3.4598591
alexnet_w1_mlp_simclrhn_probe0,1,466,NaN,clock,clock,0,0466_sty_dnn_0_clock_00_clock-0040-ILSVRC2012-val-00035392.png,clock-0040-ILSVRC2012-val-00035392.png,1.0,2.4786797,-3.012554,3.8828888
alexnet_w1_mlp_simclrhn_probe0,1,467,NaN,bicycle,clock,0,0467_sty_dnn_0_clock_00_clock-0043-ILSVRC2012-val-00041613.png,clock-0043-ILSVRC2012-val-00041613.png,0.0,-6.1933765,-3.761216,-1.7197973
alexnet_w1_mlp_simclrhn_probe0,1,468,NaN,oven,clock,0,0468_sty_dnn_0_clock_00_clock-0045-ILSVRC2012-val-00043497.png,clock-0045-ILSVRC2012-val-00043497.png,0.0,-8.353778,-2.1060965,-4.417778
alexnet_w1_mlp_simclrhn_probe0,1,469,NaN,bottle,clock,0,0469_sty_dnn_0_clock_00_clock-0046-ILSVRC2012-val-00044049.png,clock-0046-ILSVRC2012-val-00044049.png,0.0,-1.8024641,-0.6509977,-0.8142097
alexnet_w1_mlp_simclrhn_probe0,1,470,NaN,bicycle,clock,0,0470_sty_dnn_0_clock_00_clock-0048-ILSVRC2012-val-00044752.png,clock-0048-ILSVRC2012-val-00044752.png,0.0,-5.5341125,-3.6431465,-1.3371148
alexnet_w1_mlp_simclrhn_probe0,1,471,NaN,knife,clock,0,0471_sty_dnn_0_clock_00_clock-0052-ILSVRC2012-val-00003721.png,clock-0052-ILSVRC2012-val-00003721.png,0.0,-7.4390807,-4.4004636,-2.1486268
alexnet_w1_mlp_simclrhn_probe0,1,472,NaN,elephant,clock,0,0472_sty_dnn_0_clock_00_clock-0054-ILSVRC2012-val-00008751.png,clock-0054-ILSVRC2012-val-00008751.png,0.0,-4.932638,-0.5767795,-3.0800574
alexnet_w1_mlp_simclrhn_probe0,1,473,NaN,airplane,clock,0,0473_sty_dnn_0_clock_00_clock-0062-ILSVRC2012-val-00014987.png,clock-0062-ILSVRC2012-val-00014987.png,0.0,-3.9545205,-2.5263913,-1.0098399
alexnet_w1_mlp_simclrhn_probe0,1,474,NaN,knife,clock,0,0474_sty_dnn_0_clock_00_clock-0063-ILSVRC2012-val-00015628.png,clock-0063-ILSVRC2012-val-00015628.png,0.0,-7.7577977,-5.956592,-1.2736447
alexnet_w1_mlp_simclrhn_probe0,1,475,NaN,clock,clock,0,0475_sty_dnn_0_clock_00_clock-0073-ILSVRC2012-val-00026298.png,clock-0073-ILSVRC2012-val-00026298.png,1.0,-5.5145354,-6.063819,0.3884021
alexnet_w1_mlp_simclrhn_probe0,1,476,NaN,oven,clock,0,0476_sty_dnn_0_clock_00_clock-0076-ILSVRC2012-val-00028203.png,clock-0076-ILSVRC2012-val-00028203.png,0.0,-11.590404,-7.2077208,-3.0990248
alexnet_w1_mlp_simclrhn_probe0,1,477,NaN,knife,clock,0,0477_sty_dnn_0_clock_00_clock-0080-ILSVRC2012-val-00032946.png,clock-0080-ILSVRC2012-val-00032946.png,0.0,-4.608542,-3.167939,-1.0186602
alexnet_w1_mlp_simclrhn_probe0,1,478,NaN,bicycle,clock,0,0478_sty_dnn_0_clock_00_clock-0082-ILSVRC2012-val-00033627.png,clock-0082-ILSVRC2012-val-00033627.png,0.0,-9.122012,-5.701068,-2.418973
alexnet_w1_mlp_simclrhn_probe0,1,479,NaN,bottle,clock,0,0479_sty_dnn_0_clock_00_clock-0084-ILSVRC2012-val-00034426.png,clock-0084-ILSVRC2012-val-00034426.png,0.0,-2.5166135,-2.429253,-0.06177312
alexnet_w1_mlp_simclrhn_probe0,1,480,NaN,car,clock,0,0480_sty_dnn_0_clock_00_clock-0086-ILSVRC2012-val-00041483.png,clock-0086-ILSVRC2012-val-00041483.png,0.0,-5.0473647,-1.6340446,-2.4135818
alexnet_w1_mlp_simclrhn_probe0,1,481,NaN,oven,clock,0,0481_sty_dnn_0_clock_00_clock-0089-ILSVRC2012-val-00042911.png,clock-0089-ILSVRC2012-val-00042911.png,0.0,-6.888004,-3.4440718,-2.4352279
alexnet_w1_mlp_simclrhn_probe0,1,482,NaN,bicycle,clock,0,0482_sty_dnn_0_clock_00_clock-0091-ILSVRC2012-val-00044029.png,clock-0091-ILSVRC2012-val-00044029.png,0.0,-8.927266,-3.5872684,-3.7759488
alexnet_w1_mlp_simclrhn_probe0,1,483,NaN,oven,clock,0,0483_sty_dnn_0_clock_00_clock-0092-ILSVRC2012-val-00044168.png,clock-0092-ILSVRC2012-val-00044168.png,0.0,-6.697408,-3.0325222,-2.5914657
alexnet_w1_mlp_simclrhn_probe0,1,484,NaN,oven,clock,0,0484_sty_dnn_0_clock_00_clock-0098-ILSVRC2012-val-00048682.png,clock-0098-ILSVRC2012-val-00048682.png,0.0,-8.176979,-4.240285,-2.7836633
alexnet_w1_mlp_simclrhn_probe0,1,485,NaN,oven,clock,0,0485_sty_dnn_0_clock_00_clock-0100-ILSVRC2012-val-00049759.png,clock-0100-ILSVRC2012-val-00049759.png,0.0,-2.879977,-2.5178554,-0.25605863
alexnet_w1_mlp_simclrhn_probe0,1,486,NaN,oven,clock,0,0486_sty_dnn_0_clock_00_clock-0106-ILSVRC2012-val-00009413.png,clock-0106-ILSVRC2012-val-00009413.png,0.0,-5.0042977,-3.1209507,-1.3317275
alexnet_w1_mlp_simclrhn_probe0,1,487,NaN,clock,clock,0,0487_sty_dnn_0_clock_00_clock-0107-ILSVRC2012-val-00010270.png,clock-0107-ILSVRC2012-val-00010270.png,1.0,-7.502786,-8.56511,0.75117654
alexnet_w1_mlp_simclrhn_probe0,1,488,NaN,clock,clock,0,0488_sty_dnn_0_clock_00_clock-0108-ILSVRC2012-val-00011957.png,clock-0108-ILSVRC2012-val-00011957.png,1.0,-5.019067,-5.3321204,0.22136234
alexnet_w1_mlp_simclrhn_probe0,1,489,NaN,knife,clock,0,0489_sty_dnn_0_clock_00_clock-0110-ILSVRC2012-val-00014035.png,clock-0110-ILSVRC2012-val-00014035.png,0.0,-3.114109,-2.6656663,-0.3170969
alexnet_w1_mlp_simclrhn_probe0,1,490,NaN,knife,clock,0,0490_sty_dnn_0_clock_00_clock-0112-ILSVRC2012-val-00014635.png,clock-0112-ILSVRC2012-val-00014635.png,0.0,-8.729333,-4.3451643,-3.1000755
alexnet_w1_mlp_simclrhn_probe0,1,491,NaN,bottle,clock,0,0491_sty_dnn_0_clock_00_clock-0118-ILSVRC2012-val-00018443.png,clock-0118-ILSVRC2012-val-00018443.png,0.0,-5.2896047,-4.51117,-0.5504365
alexnet_w1_mlp_simclrhn_probe0,1,492,NaN,knife,clock,0,0492_sty_dnn_0_clock_00_clock-0119-ILSVRC2012-val-00018797.png,clock-0119-ILSVRC2012-val-00018797.png,0.0,-2.1761248,-1.8275927,-0.2464494
alexnet_w1_mlp_simclrhn_probe0,1,493,NaN,cat,clock,0,0493_sty_dnn_0_clock_00_clock-0127-ILSVRC2012-val-00030330.png,clock-0127-ILSVRC2012-val-00030330.png,0.0,-7.2156067,-3.021758,-2.965499
alexnet_w1_mlp_simclrhn_probe0,1,494,NaN,bicycle,clock,0,0494_sty_dnn_0_clock_00_clock-0128-ILSVRC2012-val-00030987.png,clock-0128-ILSVRC2012-val-00030987.png,0.0,-5.325865,-2.4266,-2.0500898
alexnet_w1_mlp_simclrhn_probe0,1,495,NaN,bottle,clock,0,0495_sty_dnn_0_clock_00_clock-0129-ILSVRC2012-val-00031861.png,clock-0129-ILSVRC2012-val-00031861.png,0.0,-4.6270833,-2.1651156,-1.740874
alexnet_w1_mlp_simclrhn_probe0,1,496,NaN,bicycle,clock,0,0496_sty_dnn_0_clock_00_clock-0130-ILSVRC2012-val-00032136.png,clock-0130-ILSVRC2012-val-00032136.png,0.0,-7.5866966,-4.9752984,-1.8465375
alexnet_w1_mlp_simclrhn_probe0,1,497,NaN,clock,clock,0,0497_sty_dnn_0_clock_00_clock-0142-ILSVRC2012-val-00041461.png,clock-0142-ILSVRC2012-val-00041461.png,1.0,-5.6900983,-7.025996,0.9446225
alexnet_w1_mlp_simclrhn_probe0,1,498,NaN,bear,clock,0,0498_sty_dnn_0_clock_00_clock-0143-ILSVRC2012-val-00041547.png,clock-0143-ILSVRC2012-val-00041547.png,0.0,-5.86816,-2.1573892,-2.6239111
alexnet_w1_mlp_simclrhn_probe0,1,499,NaN,clock,clock,0,0499_sty_dnn_0_clock_00_clock-0144-ILSVRC2012-val-00041715.png,clock-0144-ILSVRC2012-val-00041715.png,1.0,-1.8302845,-4.7133307,2.0386214
alexnet_w1_mlp_simclrhn_probe0,1,500,NaN,bear,clock,0,0500_sty_dnn_0_clock_00_clock-0145-ILSVRC2012-val-00044685.png,clock-0145-ILSVRC2012-val-00044685.png,0.0,-8.476254,-3.1205919,-3.7870252
alexnet_w1_mlp_simclrhn_probe0,1,501,NaN,dog,dog,0,0501_sty_dnn_0_dog_00_dog-0099-ILSVRC2012-val-00048280.png,dog-0099-ILSVRC2012-val-00048280.png,1.0,-5.884592,-9.19462,2.3405433
alexnet_w1_mlp_simclrhn_probe0,1,502,NaN,bottle,dog,0,0502_sty_dnn_0_dog_00_dog-0158-ILSVRC2012-val-00004081.png,dog-0158-ILSVRC2012-val-00004081.png,0.0,-6.2991924,-4.095151,-1.5584927
alexnet_w1_mlp_simclrhn_probe0,1,503,NaN,bear,dog,0,0503_sty_dnn_0_dog_00_dog-0220-ILSVRC2012-val-00017568.png,dog-0220-ILSVRC2012-val-00017568.png,0.0,-5.8606753,-4.986266,-0.6183007
alexnet_w1_mlp_simclrhn_probe0,1,504,NaN,elephant,dog,0,0504_sty_dnn_0_dog_00_dog-0247-ILSVRC2012-val-00045683.png,dog-0247-ILSVRC2012-val-00045683.png,0.0,-6.403299,-3.91488,-1.7595779
alexnet_w1_mlp_simclrhn_probe0,1,505,NaN,bear,dog,0,0505_sty_dnn_0_dog_00_dog-0303-ILSVRC2012-val-00002521.png,dog-0303-ILSVRC2012-val-00002521.png,0.0,-3.6470864,-1.9414904,-1.2060385
alexnet_w1_mlp_simclrhn_probe0,1,506,NaN,dog,dog,0,0506_sty_dnn_0_dog_00_dog-0386-ILSVRC2012-val-00034616.png,dog-0386-ILSVRC2012-val-00034616.png,1.0,-4.780559,-5.030116,0.17646347
alexnet_w1_mlp_simclrhn_probe0,1,507,NaN,elephant,dog,0,0507_sty_dnn_0_dog_00_dog-0397-ILSVRC2012-val-00044140.png,dog-0397-ILSVRC2012-val-00044140.png,0.0,-7.854584,-5.4553294,-1.6965294
alexnet_w1_mlp_simclrhn_probe0,1,508,NaN,bear,dog,0,0508_sty_dnn_0_dog_00_dog-0779-ILSVRC2012-val-00033666.png,dog-0779-ILSVRC2012-val-00033666.png,0.0,-6.9857726,-4.8224235,-1.5297189
alexnet_w1_mlp_simclrhn_probe0,1,509,NaN,dog,dog,0,0509_sty_dnn_0_dog_00_dog-1178-ILSVRC2012-val-00022137.png,dog-1178-ILSVRC2012-val-00022137.png,1.0,-2.3730454,-3.3592758,0.6973702
alexnet_w1_mlp_simclrhn_probe0,1,510,NaN,elephant,dog,0,0510_sty_dnn_0_dog_00_dog-1191-ILSVRC2012-val-00037989.png,dog-1191-ILSVRC2012-val-00037989.png,0.0,-3.682709,-0.8477037,-2.0046515
alexnet_w1_mlp_simclrhn_probe0,1,511,NaN,cat,dog,0,0511_sty_dnn_0_dog_00_dog-1398-ILSVRC2012-val-00046547.png,dog-1398-ILSVRC2012-val-00046547.png,0.0,-8.301423,-7.6632824,-0.4512336
alexnet_w1_mlp_simclrhn_probe0,1,512,NaN,knife,dog,0,0512_sty_dnn_0_dog_00_dog-1538-ILSVRC2012-val-00038167.png,dog-1538-ILSVRC2012-val-00038167.png,0.0,-11.301004,-3.479787,-5.530436
alexnet_w1_mlp_simclrhn_probe0,1,513,NaN,knife,dog,0,0513_sty_dnn_0_dog_00_dog-1613-ILSVRC2012-val-00015923.png,dog-1613-ILSVRC2012-val-00015923.png,0.0,-6.7419176,-3.9597864,-1.9672638
alexnet_w1_mlp_simclrhn_probe0,1,514,NaN,knife,dog,0,0514_sty_dnn_0_dog_00_dog-1734-ILSVRC2012-val-00031377.png,dog-1734-ILSVRC2012-val-00031377.png,0.0,-8.253329,-5.374359,-2.0357394
alexnet_w1_mlp_simclrhn_probe0,1,515,NaN,bear,dog,0,0515_sty_dnn_0_dog_00_dog-1735-ILSVRC2012-val-00031764.png,dog-1735-ILSVRC2012-val-00031764.png,0.0,-6.598571,-6.5474243,-0.036166042
