subj,session,trial,rt,object_response,category,condition,imagename,filename,is_correct,targ_act,max_nontarg_act,decision_margin
alexnet_w3_mlp_simclrhn_probe3,1,1,NaN,bicycle,airplane,0,0001_sty_dnn_0_airplane_00_airplane-0001-ILSVRC2012-val-00000631.png,airplane-0001-ILSVRC2012-val-00000631.png,0.0,-0.2682525,1.4746368,-1.2324089
alexnet_w3_mlp_simclrhn_probe3,1,2,NaN,knife,airplane,0,0002_sty_dnn_0_airplane_00_airplane-0002-ILSVRC2012-val-00001390.png,airplane-0002-ILSVRC2012-val-00001390.png,0.0,0.51960856,0.52523816,-0.003980728
alexnet_w3_mlp_simclrhn_probe3,1,3,NaN,bear,airplane,0,0003_sty_dnn_0_airplane_00_airplane-0003-ILSVRC2012-val-00001506.png,airplane-0003-ILSVRC2012-val-00001506.png,0.0,-1.3035345,1.4379311,-1.9385089
alexnet_w3_mlp_simclrhn_probe3,1,4,NaN,elephant,airplane,0,0004_sty_dnn_0_airplane_00_airplane-0004-ILSVRC2012-val-00001952.png,airplane-0004-ILSVRC2012-val-00001952.png,0.0,-0.0987457,0.83711374,-0.6617526
alexnet_w3_mlp_simclrhn_probe3,1,5,NaN,oven,airplane,0,0005_sty_dnn_0_airplane_00_airplane-0005-ILSVRC2012-val-00003960.png,airplane-0005-ILSVRC2012-val-00003960.png,0.0,-0.04208391,1.7730017,-1.2834593
alexnet_w3_mlp_simclrhn_probe3,1,6,NaN,oven,airplane,0,0006_sty_dnn_0_airplane_00_airplane-0006-ILSVRC2012-val-00008292.png,airplane-0006-ILSVRC2012-val-00008292.png,0.0,0.19853327,0.78823113,-0.41697934
alexnet_w3_mlp_simclrhn_probe3,1,7,NaN,airplane,airplane,0,0007_sty_dnn_0_airplane_00_airplane-0007-ILSVRC2012-val-00009537.png,airplane-0007-ILSVRC2012-val-00009537.png,1.0,3.514936,1.100752,1.707086
alexnet_w3_mlp_simclrhn_probe3,1,8,NaN,knife,airplane,0,0008_sty_dnn_0_airplane_00_airplane-0008-ILSVRC2012-val-00010597.png,airplane-0008-ILSVRC2012-val-00010597.png,0.0,-0.19631582,0.4144953,-0.4319087
alexnet_w3_mlp_simclrhn_probe3,1,9,NaN,oven,airplane,0,0009_sty_dnn_0_airplane_00_airplane-0009-ILSVRC2012-val-00011168.png,airplane-0009-ILSVRC2012-val-00011168.png,0.0,-0.16696703,1.755409,-1.3593252
alexnet_w3_mlp_simclrhn_probe3,1,10,NaN,oven,airplane,0,0010_sty_dnn_0_airplane_00_airplane-0010-ILSVRC2012-val-00012263.png,airplane-0010-ILSVRC2012-val-00012263.png,0.0,-0.19367537,0.54362184,-0.5213478
alexnet_w3_mlp_simclrhn_probe3,1,11,NaN,oven,airplane,0,0011_sty_dnn_0_airplane_00_airplane-0011-ILSVRC2012-val-00014425.png,airplane-0011-ILSVRC2012-val-00014425.png,0.0,0.088446856,2.0477571,-1.3854417
alexnet_w3_mlp_simclrhn_probe3,1,12,NaN,elephant,airplane,0,0012_sty_dnn_0_airplane_00_airplane-0012-ILSVRC2012-val-00015498.png,airplane-0012-ILSVRC2012-val-00015498.png,0.0,-0.4634503,1.0567167,-1.0749204
alexnet_w3_mlp_simclrhn_probe3,1,13,NaN,oven,airplane,0,0013_sty_dnn_0_airplane_00_airplane-0013-ILSVRC2012-val-00015636.png,airplane-0013-ILSVRC2012-val-00015636.png,0.0,0.14424273,1.7507303,-1.1359582
alexnet_w3_mlp_simclrhn_probe3,1,14,NaN,oven,airplane,0,0014_sty_dnn_0_airplane_00_airplane-0014-ILSVRC2012-val-00016995.png,airplane-0014-ILSVRC2012-val-00016995.png,0.0,0.23420054,1.4832315,-0.8831984
alexnet_w3_mlp_simclrhn_probe3,1,15,NaN,oven,airplane,0,0015_sty_dnn_0_airplane_00_airplane-0015-ILSVRC2012-val-00018616.png,airplane-0015-ILSVRC2012-val-00018616.png,0.0,0.018858135,0.95441705,-0.6615401
alexnet_w3_mlp_simclrhn_probe3,1,16,NaN,oven,airplane,0,0016_sty_dnn_0_airplane_00_airplane-0016-ILSVRC2012-val-00018685.png,airplane-0016-ILSVRC2012-val-00018685.png,0.0,-0.06422135,0.36779392,-0.30548093
alexnet_w3_mlp_simclrhn_probe3,1,17,NaN,oven,airplane,0,0017_sty_dnn_0_airplane_00_airplane-0017-ILSVRC2012-val-00019179.png,airplane-0017-ILSVRC2012-val-00019179.png,0.0,-0.4638706,0.89409363,-0.96022576
alexnet_w3_mlp_simclrhn_probe3,1,18,NaN,oven,airplane,0,0018_sty_dnn_0_airplane_00_airplane-0018-ILSVRC2012-val-00019677.png,airplane-0018-ILSVRC2012-val-00019677.png,0.0,0.5562955,0.6553355,-0.07003184
alexnet_w3_mlp_simclrhn_probe3,1,19,NaN,bicycle,airplane,0,0019_sty_dnn_0_airplane_00_airplane-0019-ILSVRC2012-val-00022532.png,airplane-0019-ILSVRC2012-val-00022532.png,0.0,-0.12772706,0.91030896,-0.7340023
alexnet_w3_mlp_simclrhn_probe3,1,20,NaN,bicycle,airplane,0,0020_sty_dnn_0_airplane_00_airplane-0020-ILSVRC2012-val-00022975.png,airplane-0020-ILSVRC2012-val-00022975.png,0.0,-0.13395612,2.433498,-1.8154643
alexnet_w3_mlp_simclrhn_probe3,1,21,NaN,elephant,airplane,0,0021_sty_dnn_0_airplane_00_airplane-0021-ILSVRC2012-val-00023316.png,airplane-0021-ILSVRC2012-val-00023316.png,0.0,0.0126843825,0.49018812,-0.33764616
alexnet_w3_mlp_simclrhn_probe3,1,22,NaN,bear,airplane,0,0022_sty_dnn_0_airplane_00_airplane-0022-ILSVRC2012-val-00023781.png,airplane-0022-ILSVRC2012-val-00023781.png,0.0,-0.055561095,0.6051871,-0.46721956
alexnet_w3_mlp_simclrhn_probe3,1,23,NaN,airplane,airplane,0,0023_sty_dnn_0_airplane_00_airplane-0023-ILSVRC2012-val-00023863.png,airplane-0023-ILSVRC2012-val-00023863.png,1.0,1.4011267,0.8735051,0.37308484
alexnet_w3_mlp_simclrhn_probe3,1,24,NaN,bear,airplane,0,0024_sty_dnn_0_airplane_00_airplane-0024-ILSVRC2012-val-00024108.png,airplane-0024-ILSVRC2012-val-00024108.png,0.0,0.4316654,0.522905,-0.06451614
alexnet_w3_mlp_simclrhn_probe3,1,25,NaN,boat,airplane,0,0025_sty_dnn_0_airplane_00_airplane-0025-ILSVRC2012-val-00024747.png,airplane-0025-ILSVRC2012-val-00024747.png,0.0,1.2072734,1.6664743,-0.32470414
alexnet_w3_mlp_simclrhn_probe3,1,26,NaN,cat,airplane,0,0026_sty_dnn_0_airplane_00_airplane-0026-ILSVRC2012-val-00026189.png,airplane-0026-ILSVRC2012-val-00026189.png,0.0,-0.3891079,0.2702432,-0.46623164
alexnet_w3_mlp_simclrhn_probe3,1,27,NaN,clock,airplane,0,0027_sty_dnn_0_airplane_00_airplane-0027-ILSVRC2012-val-00026859.png,airplane-0027-ILSVRC2012-val-00026859.png,0.0,0.6337286,1.3914088,-0.5357608
alexnet_w3_mlp_simclrhn_probe3,1,28,NaN,oven,airplane,0,0028_sty_dnn_0_airplane_00_airplane-0028-ILSVRC2012-val-00028019.png,airplane-0028-ILSVRC2012-val-00028019.png,0.0,0.09919326,0.69114393,-0.41857234
alexnet_w3_mlp_simclrhn_probe3,1,29,NaN,bicycle,airplane,0,0029_sty_dnn_0_airplane_00_airplane-0029-ILSVRC2012-val-00030319.png,airplane-0029-ILSVRC2012-val-00030319.png,0.0,-0.55633724,0.83840865,-0.98623425
alexnet_w3_mlp_simclrhn_probe3,1,30,NaN,oven,airplane,0,0030_sty_dnn_0_airplane_00_airplane-0030-ILSVRC2012-val-00030411.png,airplane-0030-ILSVRC2012-val-00030411.png,0.0,0.46926463,1.9873803,-1.0734699
alexnet_w3_mlp_simclrhn_probe3,1,31,NaN,bear,airplane,0,0031_sty_dnn_0_airplane_00_airplane-0031-ILSVRC2012-val-00030531.png,airplane-0031-ILSVRC2012-val-00030531.png,0.0,-1.7964585,0.9459272,-1.9391595
alexnet_w3_mlp_simclrhn_probe3,1,32,NaN,oven,airplane,0,0032_sty_dnn_0_airplane_00_airplane-0032-ILSVRC2012-val-00032804.png,airplane-0032-ILSVRC2012-val-00032804.png,0.0,0.3919868,0.7520902,-0.25463158
alexnet_w3_mlp_simclrhn_probe3,1,33,NaN,oven,airplane,0,0033_sty_dnn_0_airplane_00_airplane-0033-ILSVRC2012-val-00033161.png,airplane-0033-ILSVRC2012-val-00033161.png,0.0,0.19574167,2.5504518,-1.6650316
alexnet_w3_mlp_simclrhn_probe3,1,34,NaN,oven,airplane,0,0034_sty_dnn_0_airplane_00_airplane-0034-ILSVRC2012-val-00033441.png,airplane-0034-ILSVRC2012-val-00033441.png,0.0,0.333005,1.4724013,-0.8056748
alexnet_w3_mlp_simclrhn_probe3,1,35,NaN,oven,airplane,0,0035_sty_dnn_0_airplane_00_airplane-0035-ILSVRC2012-val-00033920.png,airplane-0035-ILSVRC2012-val-00033920.png,0.0,0.3037581,0.6967021,-0.27785337
alexnet_w3_mlp_simclrhn_probe3,1,36,NaN,bear,airplane,0,0036_sty_dnn_0_airplane_00_airplane-0036-ILSVRC2012-val-00034342.png,airplane-0036-ILSVRC2012-val-00034342.png,0.0,0.311204,0.4232795,-0.07924935
alexnet_w3_mlp_simclrhn_probe3,1,37,NaN,bicycle,airplane,0,0037_sty_dnn_0_airplane_00_airplane-0037-ILSVRC2012-val-00035783.png,airplane-0037-ILSVRC2012-val-00035783.png,0.0,0.46731937,2.0222445,-1.099498
alexnet_w3_mlp_simclrhn_probe3,1,38,NaN,oven,airplane,0,0038_sty_dnn_0_airplane_00_airplane-0038-ILSVRC2012-val-00036394.png,airplane-0038-ILSVRC2012-val-00036394.png,0.0,-0.4180243,0.6532103,-0.7574772
alexnet_w3_mlp_simclrhn_probe3,1,39,NaN,oven,airplane,0,0039_sty_dnn_0_airplane_00_airplane-0039-ILSVRC2012-val-00037801.png,airplane-0039-ILSVRC2012-val-00037801.png,0.0,-0.4233567,0.4759852,-0.6359308
alexnet_w3_mlp_simclrhn_probe3,1,40,NaN,knife,airplane,0,0040_sty_dnn_0_airplane_00_airplane-0040-ILSVRC2012-val-00039213.png,airplane-0040-ILSVRC2012-val-00039213.png,0.0,0.7837128,0.90536034,-0.0860178
alexnet_w3_mlp_simclrhn_probe3,1,41,NaN,knife,airplane,0,0041_sty_dnn_0_airplane_00_airplane-0041-ILSVRC2012-val-00040136.png,airplane-0041-ILSVRC2012-val-00040136.png,0.0,0.75634605,1.3306113,-0.4060669
alexnet_w3_mlp_simclrhn_probe3,1,42,NaN,oven,airplane,0,0042_sty_dnn_0_airplane_00_airplane-0042-ILSVRC2012-val-00040547.png,airplane-0042-ILSVRC2012-val-00040547.png,0.0,-0.2721086,0.49365157,-0.5414742
alexnet_w3_mlp_simclrhn_probe3,1,43,NaN,bear,airplane,0,0043_sty_dnn_0_airplane_00_airplane-0043-ILSVRC2012-val-00041518.png,airplane-0043-ILSVRC2012-val-00041518.png,0.0,-0.16106075,1.7188685,-1.3293108
alexnet_w3_mlp_simclrhn_probe3,1,44,NaN,truck,airplane,0,0044_sty_dnn_0_airplane_00_airplane-0044-ILSVRC2012-val-00043242.png,airplane-0044-ILSVRC2012-val-00043242.png,0.0,0.93858415,3.3115535,-1.6779428
alexnet_w3_mlp_simclrhn_probe3,1,45,NaN,oven,airplane,0,0045_sty_dnn_0_airplane_00_airplane-0045-ILSVRC2012-val-00044253.png,airplane-0045-ILSVRC2012-val-00044253.png,0.0,0.07918283,1.7609881,-1.1892159
alexnet_w3_mlp_simclrhn_probe3,1,46,NaN,bicycle,airplane,0,0046_sty_dnn_0_airplane_00_airplane-0046-ILSVRC2012-val-00046862.png,airplane-0046-ILSVRC2012-val-00046862.png,0.0,-0.807686,1.4970427,-1.6296892
alexnet_w3_mlp_simclrhn_probe3,1,47,NaN,clock,airplane,0,0047_sty_dnn_0_airplane_00_airplane-0047-ILSVRC2012-val-00046971.png,airplane-0047-ILSVRC2012-val-00046971.png,0.0,-0.014397092,0.57993793,-0.42025834
alexnet_w3_mlp_simclrhn_probe3,1,48,NaN,oven,airplane,0,0048_sty_dnn_0_airplane_00_airplane-0048-ILSVRC2012-val-00047829.png,airplane-0048-ILSVRC2012-val-00047829.png,0.0,-0.4910984,3.4746473,-2.8042057
alexnet_w3_mlp_simclrhn_probe3,1,49,NaN,oven,airplane,0,0049_sty_dnn_0_airplane_00_airplane-0049-ILSVRC2012-val-00048111.png,airplane-0049-ILSVRC2012-val-00048111.png,0.0,-0.48424447,0.6818043,-0.824521
alexnet_w3_mlp_simclrhn_probe3,1,50,NaN,bear,airplane,0,0050_sty_dnn_0_airplane_00_airplane-0050-ILSVRC2012-val-00049097.png,airplane-0050-ILSVRC2012-val-00049097.png,0.0,0.2820913,0.88542855,-0.42662388
alexnet_w3_mlp_simclrhn_probe3,1,51,NaN,bicycle,bear,0,0051_sty_dnn_0_bear_00_bear-0003-ILSVRC2012-val-00003044.png,bear-0003-ILSVRC2012-val-00003044.png,0.0,-0.28367895,0.97823507,-0.892308
alexnet_w3_mlp_simclrhn_probe3,1,52,NaN,bear,bear,0,0052_sty_dnn_0_bear_00_bear-0005-ILSVRC2012-val-00006703.png,bear-0005-ILSVRC2012-val-00006703.png,1.0,0.8884462,0.7899754,0.06962938
alexnet_w3_mlp_simclrhn_probe3,1,53,NaN,bicycle,bear,0,0053_sty_dnn_0_bear_00_bear-0009-ILSVRC2012-val-00011967.png,bear-0009-ILSVRC2012-val-00011967.png,0.0,0.16518043,1.4522604,-0.91010296
alexnet_w3_mlp_simclrhn_probe3,1,54,NaN,bear,bear,0,0054_sty_dnn_0_bear_00_bear-0010-ILSVRC2012-val-00013390.png,bear-0010-ILSVRC2012-val-00013390.png,1.0,4.1157894,2.2723765,1.3034898
alexnet_w3_mlp_simclrhn_probe3,1,55,NaN,bear,bear,0,0055_sty_dnn_0_bear_00_bear-0021-ILSVRC2012-val-00031253.png,bear-0021-ILSVRC2012-val-00031253.png,1.0,2.246872,1.4290197,0.5783089
alexnet_w3_mlp_simclrhn_probe3,1,56,NaN,clock,bear,0,0056_sty_dnn_0_bear_00_bear-0031-ILSVRC2012-val-00039777.png,bear-0031-ILSVRC2012-val-00039777.png,0.0,-0.32351393,1.1559945,-1.0461705
alexnet_w3_mlp_simclrhn_probe3,1,57,NaN,elephant,bear,0,0057_sty_dnn_0_bear_00_bear-0035-ILSVRC2012-val-00042274.png,bear-0035-ILSVRC2012-val-00042274.png,0.0,0.5528586,1.8147957,-0.8923243
alexnet_w3_mlp_simclrhn_probe3,1,58,NaN,knife,bear,0,0058_sty_dnn_0_bear_00_bear-0043-ILSVRC2012-val-00046763.png,bear-0043-ILSVRC2012-val-00046763.png,0.0,-0.07622972,0.4349949,-0.3614904
alexnet_w3_mlp_simclrhn_probe3,1,59,NaN,cat,bear,0,0059_sty_dnn_0_bear_00_bear-0049-ILSVRC2012-val-00049822.png,bear-0049-ILSVRC2012-val-00049822.png,0.0,0.8176086,1.2700254,-0.31990698
alexnet_w3_mlp_simclrhn_probe3,1,60,NaN,elephant,bear,0,0060_sty_dnn_0_bear_00_bear-0052-ILSVRC2012-val-00000865.png,bear-0052-ILSVRC2012-val-00000865.png,0.0,5.3883524,6.108922,-0.5095197
alexnet_w3_mlp_simclrhn_probe3,1,61,NaN,chair,bear,0,0061_sty_dnn_0_bear_00_bear-0056-ILSVRC2012-val-00007093.png,bear-0056-ILSVRC2012-val-00007093.png,0.0,-0.58649844,0.7204147,-0.92412716
alexnet_w3_mlp_simclrhn_probe3,1,62,NaN,bear,bear,0,0062_sty_dnn_0_bear_00_bear-0058-ILSVRC2012-val-00011726.png,bear-0058-ILSVRC2012-val-00011726.png,1.0,3.0603294,0.6849099,1.6796753
alexnet_w3_mlp_simclrhn_probe3,1,63,NaN,bear,bear,0,0063_sty_dnn_0_bear_00_bear-0062-ILSVRC2012-val-00014029.png,bear-0062-ILSVRC2012-val-00014029.png,1.0,1.9928375,0.8777674,0.78847367
alexnet_w3_mlp_simclrhn_probe3,1,64,NaN,knife,bear,0,0064_sty_dnn_0_bear_00_bear-0064-ILSVRC2012-val-00016050.png,bear-0064-ILSVRC2012-val-00016050.png,0.0,-0.23920941,0.4708247,-0.50206995
alexnet_w3_mlp_simclrhn_probe3,1,65,NaN,bottle,bear,0,0065_sty_dnn_0_bear_00_bear-0066-ILSVRC2012-val-00016621.png,bear-0066-ILSVRC2012-val-00016621.png,0.0,-0.081514284,0.65537006,-0.52105594
alexnet_w3_mlp_simclrhn_probe3,1,66,NaN,elephant,bear,0,0066_sty_dnn_0_bear_00_bear-0067-ILSVRC2012-val-00017273.png,bear-0067-ILSVRC2012-val-00017273.png,0.0,0.73208106,1.3337624,-0.42545298
alexnet_w3_mlp_simclrhn_probe3,1,67,NaN,keyboard,bear,0,0067_sty_dnn_0_bear_00_bear-0069-ILSVRC2012-val-00018788.png,bear-0069-ILSVRC2012-val-00018788.png,0.0,-0.60357326,0.84437656,-1.0238552
alexnet_w3_mlp_simclrhn_probe3,1,68,NaN,bear,bear,0,0068_sty_dnn_0_bear_00_bear-0071-ILSVRC2012-val-00020050.png,bear-0071-ILSVRC2012-val-00020050.png,1.0,1.2274728,0.79525363,0.30562508
alexnet_w3_mlp_simclrhn_probe3,1,69,NaN,bicycle,bear,0,0069_sty_dnn_0_bear_00_bear-0073-ILSVRC2012-val-00024289.png,bear-0073-ILSVRC2012-val-00024289.png,0.0,-0.2891935,1.3430133,-1.1541445
alexnet_w3_mlp_simclrhn_probe3,1,70,NaN,airplane,bear,0,0070_sty_dnn_0_bear_00_bear-0074-ILSVRC2012-val-00026962.png,bear-0074-ILSVRC2012-val-00026962.png,0.0,-0.51806307,1.019046,-1.0869002
alexnet_w3_mlp_simclrhn_probe3,1,71,NaN,cat,bear,0,0071_sty_dnn_0_bear_00_bear-0078-ILSVRC2012-val-00030951.png,bear-0078-ILSVRC2012-val-00030951.png,0.0,-0.31689298,0.7486612,-0.7534606
alexnet_w3_mlp_simclrhn_probe3,1,72,NaN,oven,bear,0,0072_sty_dnn_0_bear_00_bear-0085-ILSVRC2012-val-00035292.png,bear-0085-ILSVRC2012-val-00035292.png,0.0,0.56439745,1.3893604,-0.58333695
alexnet_w3_mlp_simclrhn_probe3,1,73,NaN,bicycle,bear,0,0073_sty_dnn_0_bear_00_bear-0091-ILSVRC2012-val-00041813.png,bear-0091-ILSVRC2012-val-00041813.png,0.0,-0.06350121,1.3790213,-1.0200175
alexnet_w3_mlp_simclrhn_probe3,1,74,NaN,oven,bear,0,0074_sty_dnn_0_bear_00_bear-0094-ILSVRC2012-val-00043648.png,bear-0094-ILSVRC2012-val-00043648.png,0.0,-0.19792162,0.34516454,-0.3840199
alexnet_w3_mlp_simclrhn_probe3,1,75,NaN,oven,bear,0,0075_sty_dnn_0_bear_00_bear-0106-ILSVRC2012-val-00007578.png,bear-0106-ILSVRC2012-val-00007578.png,0.0,-0.5220618,2.2765174,-1.9788944
alexnet_w3_mlp_simclrhn_probe3,1,76,NaN,knife,bear,0,0076_sty_dnn_0_bear_00_bear-0112-ILSVRC2012-val-00016340.png,bear-0112-ILSVRC2012-val-00016340.png,0.0,-0.0864238,0.79878724,-0.6259388
alexnet_w3_mlp_simclrhn_probe3,1,77,NaN,bear,bear,0,0077_sty_dnn_0_bear_00_bear-0113-ILSVRC2012-val-00016459.png,bear-0113-ILSVRC2012-val-00016459.png,1.0,1.4418507,1.0161797,0.30099484
alexnet_w3_mlp_simclrhn_probe3,1,78,NaN,bear,bear,0,0078_sty_dnn_0_bear_00_bear-0114-ILSVRC2012-val-00017605.png,bear-0114-ILSVRC2012-val-00017605.png,1.0,2.6088219,2.3585494,0.1769694
alexnet_w3_mlp_simclrhn_probe3,1,79,NaN,cat,bear,0,0079_sty_dnn_0_bear_00_bear-0116-ILSVRC2012-val-00020332.png,bear-0116-ILSVRC2012-val-00020332.png,0.0,0.23774925,0.2421995,-0.0031467997
alexnet_w3_mlp_simclrhn_probe3,1,80,NaN,elephant,bear,0,0080_sty_dnn_0_bear_00_bear-0125-ILSVRC2012-val-00028222.png,bear-0125-ILSVRC2012-val-00028222.png,0.0,0.8294524,0.96776676,-0.09780303
alexnet_w3_mlp_simclrhn_probe3,1,81,NaN,oven,bear,0,0081_sty_dnn_0_bear_00_bear-0129-ILSVRC2012-val-00030485.png,bear-0129-ILSVRC2012-val-00030485.png,0.0,0.6949823,1.6397196,-0.6680302
alexnet_w3_mlp_simclrhn_probe3,1,82,NaN,elephant,bear,0,0082_sty_dnn_0_bear_00_bear-0131-ILSVRC2012-val-00031877.png,bear-0131-ILSVRC2012-val-00031877.png,0.0,0.47592103,0.5378496,-0.043790113
alexnet_w3_mlp_simclrhn_probe3,1,83,NaN,knife,bear,0,0083_sty_dnn_0_bear_00_bear-0132-ILSVRC2012-val-00036763.png,bear-0132-ILSVRC2012-val-00036763.png,0.0,-0.3918394,1.0470644,-1.0174587
alexnet_w3_mlp_simclrhn_probe3,1,84,NaN,bicycle,bear,0,0084_sty_dnn_0_bear_00_bear-0139-ILSVRC2012-val-00041156.png,bear-0139-ILSVRC2012-val-00041156.png,0.0,-0.26528516,2.3779674,-1.8690618
alexnet_w3_mlp_simclrhn_probe3,1,85,NaN,elephant,bear,0,0085_sty_dnn_0_bear_00_bear-0141-ILSVRC2012-val-00042320.png,bear-0141-ILSVRC2012-val-00042320.png,0.0,1.2350647,1.6103806,-0.26538843
alexnet_w3_mlp_simclrhn_probe3,1,86,NaN,oven,bear,0,0086_sty_dnn_0_bear_00_bear-0143-ILSVRC2012-val-00044126.png,bear-0143-ILSVRC2012-val-00044126.png,0.0,0.29355544,1.2122974,-0.6496487
alexnet_w3_mlp_simclrhn_probe3,1,87,NaN,clock,bear,0,0087_sty_dnn_0_bear_00_bear-0149-ILSVRC2012-val-00048105.png,bear-0149-ILSVRC2012-val-00048105.png,0.0,-0.22999167,0.8595082,-0.77039284
alexnet_w3_mlp_simclrhn_probe3,1,88,NaN,cat,bear,0,0088_sty_dnn_0_bear_00_bear-0154-ILSVRC2012-val-00003499.png,bear-0154-ILSVRC2012-val-00003499.png,0.0,0.008682132,1.5710753,-1.1047789
alexnet_w3_mlp_simclrhn_probe3,1,89,NaN,cat,bear,0,0089_sty_dnn_0_bear_00_bear-0160-ILSVRC2012-val-00013052.png,bear-0160-ILSVRC2012-val-00013052.png,0.0,0.3561619,0.6311396,-0.19443859
alexnet_w3_mlp_simclrhn_probe3,1,90,NaN,oven,bear,0,0090_sty_dnn_0_bear_00_bear-0163-ILSVRC2012-val-00016513.png,bear-0163-ILSVRC2012-val-00016513.png,0.0,0.10280151,0.93002784,-0.5849374
alexnet_w3_mlp_simclrhn_probe3,1,91,NaN,oven,bear,0,0091_sty_dnn_0_bear_00_bear-0164-ILSVRC2012-val-00018303.png,bear-0164-ILSVRC2012-val-00018303.png,0.0,-0.13087985,1.6066686,-1.2286323
alexnet_w3_mlp_simclrhn_probe3,1,92,NaN,oven,bear,0,0092_sty_dnn_0_bear_00_bear-0165-ILSVRC2012-val-00019901.png,bear-0165-ILSVRC2012-val-00019901.png,0.0,0.10184777,0.5073638,-0.28674313
alexnet_w3_mlp_simclrhn_probe3,1,93,NaN,oven,bear,0,0093_sty_dnn_0_bear_00_bear-0166-ILSVRC2012-val-00022111.png,bear-0166-ILSVRC2012-val-00022111.png,0.0,-0.31434944,1.0502608,-0.9649251
alexnet_w3_mlp_simclrhn_probe3,1,94,NaN,elephant,bear,0,0094_sty_dnn_0_bear_00_bear-0167-ILSVRC2012-val-00022112.png,bear-0167-ILSVRC2012-val-00022112.png,0.0,2.0830247,2.3183093,-0.16637132
alexnet_w3_mlp_simclrhn_probe3,1,95,NaN,bear,bear,0,0095_sty_dnn_0_bear_00_bear-0168-ILSVRC2012-val-00022698.png,bear-0168-ILSVRC2012-val-00022698.png,1.0,1.4018291,1.2163132,0.13117954
alexnet_w3_mlp_simclrhn_probe3,1,96,NaN,oven,bear,0,0096_sty_dnn_0_bear_00_bear-0180-ILSVRC2012-val-00034637.png,bear-0180-ILSVRC2012-val-00034637.png,0.0,0.6010565,3.0205011,-1.7108057
alexnet_w3_mlp_simclrhn_probe3,1,97,NaN,oven,bear,0,0097_sty_dnn_0_bear_00_bear-0184-ILSVRC2012-val-00038961.png,bear-0184-ILSVRC2012-val-00038961.png,0.0,-0.036396645,2.8555336,-2.0449035
alexnet_w3_mlp_simclrhn_probe3,1,98,NaN,knife,bear,0,0098_sty_dnn_0_bear_00_bear-0188-ILSVRC2012-val-00043016.png,bear-0188-ILSVRC2012-val-00043016.png,0.0,-0.6524427,0.91242325,-1.1065273
alexnet_w3_mlp_simclrhn_probe3,1,99,NaN,clock,bear,0,0099_sty_dnn_0_bear_00_bear-0191-ILSVRC2012-val-00044349.png,bear-0191-ILSVRC2012-val-00044349.png,0.0,-0.46813607,0.30297896,-0.5452607
alexnet_w3_mlp_simclrhn_probe3,1,100,NaN,elephant,bear,0,0100_sty_dnn_0_bear_00_bear-0195-ILSVRC2012-val-00045672.png,bear-0195-ILSVRC2012-val-00045672.png,0.0,0.45784694,1.1854959,-0.5145255
alexnet_w3_mlp_simclrhn_probe3,1,101,NaN,clock,bicycle,0,0101_sty_dnn_0_bicycle_00_bicycle-0005-ILSVRC2012-val-00005274.png,bicycle-0005-ILSVRC2012-val-00005274.png,0.0,-0.21652642,0.62261534,-0.5933628
alexnet_w3_mlp_simclrhn_probe3,1,102,NaN,bear,bicycle,0,0102_sty_dnn_0_bicycle_00_bicycle-0007-ILSVRC2012-val-00006395.png,bicycle-0007-ILSVRC2012-val-00006395.png,0.0,0.07014105,1.6433129,-1.1124005
alexnet_w3_mlp_simclrhn_probe3,1,103,NaN,oven,bicycle,0,0103_sty_dnn_0_bicycle_00_bicycle-0008-ILSVRC2012-val-00008007.png,bicycle-0008-ILSVRC2012-val-00008007.png,0.0,0.34483516,0.480177,-0.09570112
alexnet_w3_mlp_simclrhn_probe3,1,104,NaN,bicycle,bicycle,0,0104_sty_dnn_0_bicycle_00_bicycle-0010-ILSVRC2012-val-00010544.png,bicycle-0010-ILSVRC2012-val-00010544.png,1.0,3.9057689,2.5247927,0.97649765
alexnet_w3_mlp_simclrhn_probe3,1,105,NaN,bottle,bicycle,0,0105_sty_dnn_0_bicycle_00_bicycle-0011-ILSVRC2012-val-00011821.png,bicycle-0011-ILSVRC2012-val-00011821.png,0.0,-0.7806599,0.48341912,-0.89383894
alexnet_w3_mlp_simclrhn_probe3,1,106,NaN,bicycle,bicycle,0,0106_sty_dnn_0_bicycle_00_bicycle-0013-ILSVRC2012-val-00012667.png,bicycle-0013-ILSVRC2012-val-00012667.png,1.0,3.7545705,0.23784558,2.4867
alexnet_w3_mlp_simclrhn_probe3,1,107,NaN,bottle,bicycle,0,0107_sty_dnn_0_bicycle_00_bicycle-0014-ILSVRC2012-val-00015483.png,bicycle-0014-ILSVRC2012-val-00015483.png,0.0,-0.62603664,0.6892744,-0.93006533
alexnet_w3_mlp_simclrhn_probe3,1,108,NaN,bicycle,bicycle,0,0108_sty_dnn_0_bicycle_00_bicycle-0015-ILSVRC2012-val-00015618.png,bicycle-0015-ILSVRC2012-val-00015618.png,1.0,1.8364238,0.15309381,1.190294
alexnet_w3_mlp_simclrhn_probe3,1,109,NaN,elephant,bicycle,0,0109_sty_dnn_0_bicycle_00_bicycle-0016-ILSVRC2012-val-00016532.png,bicycle-0016-ILSVRC2012-val-00016532.png,0.0,-0.4342497,1.2917304,-1.2204522
alexnet_w3_mlp_simclrhn_probe3,1,110,NaN,bicycle,bicycle,0,0110_sty_dnn_0_bicycle_00_bicycle-0018-ILSVRC2012-val-00018975.png,bicycle-0018-ILSVRC2012-val-00018975.png,1.0,2.1807163,0.31141943,1.3217925
alexnet_w3_mlp_simclrhn_probe3,1,111,NaN,bicycle,bicycle,0,0111_sty_dnn_0_bicycle_00_bicycle-0020-ILSVRC2012-val-00022027.png,bicycle-0020-ILSVRC2012-val-00022027.png,1.0,3.4584684,2.5978413,0.6085553
alexnet_w3_mlp_simclrhn_probe3,1,112,NaN,bicycle,bicycle,0,0112_sty_dnn_0_bicycle_00_bicycle-0022-ILSVRC2012-val-00023266.png,bicycle-0022-ILSVRC2012-val-00023266.png,1.0,1.519526,1.0758643,0.3137162
alexnet_w3_mlp_simclrhn_probe3,1,113,NaN,oven,bicycle,0,0113_sty_dnn_0_bicycle_00_bicycle-0024-ILSVRC2012-val-00025915.png,bicycle-0024-ILSVRC2012-val-00025915.png,0.0,-0.8236751,1.9611818,-1.9691912
alexnet_w3_mlp_simclrhn_probe3,1,114,NaN,bicycle,bicycle,0,0114_sty_dnn_0_bicycle_00_bicycle-0026-ILSVRC2012-val-00026292.png,bicycle-0026-ILSVRC2012-val-00026292.png,1.0,1.1182514,0.614386,0.35628667
alexnet_w3_mlp_simclrhn_probe3,1,115,NaN,bottle,bicycle,0,0115_sty_dnn_0_bicycle_00_bicycle-0030-ILSVRC2012-val-00027620.png,bicycle-0030-ILSVRC2012-val-00027620.png,0.0,-0.33296135,0.9810996,-0.9291814
alexnet_w3_mlp_simclrhn_probe3,1,116,NaN,oven,bicycle,0,0116_sty_dnn_0_bicycle_00_bicycle-0032-ILSVRC2012-val-00030070.png,bicycle-0032-ILSVRC2012-val-00030070.png,0.0,-0.7066213,0.7092954,-1.0012043
alexnet_w3_mlp_simclrhn_probe3,1,117,NaN,bicycle,bicycle,0,0117_sty_dnn_0_bicycle_00_bicycle-0033-ILSVRC2012-val-00031498.png,bicycle-0033-ILSVRC2012-val-00031498.png,1.0,0.2881159,0.18794794,0.070829436
alexnet_w3_mlp_simclrhn_probe3,1,118,NaN,bicycle,bicycle,0,0118_sty_dnn_0_bicycle_00_bicycle-0035-ILSVRC2012-val-00033559.png,bicycle-0035-ILSVRC2012-val-00033559.png,1.0,5.654908,1.0673897,3.2438657
alexnet_w3_mlp_simclrhn_probe3,1,119,NaN,bicycle,bicycle,0,0119_sty_dnn_0_bicycle_00_bicycle-0037-ILSVRC2012-val-00036009.png,bicycle-0037-ILSVRC2012-val-00036009.png,1.0,1.5449734,1.1077988,0.3091291
alexnet_w3_mlp_simclrhn_probe3,1,120,NaN,chair,bicycle,0,0120_sty_dnn_0_bicycle_00_bicycle-0038-ILSVRC2012-val-00036903.png,bicycle-0038-ILSVRC2012-val-00036903.png,0.0,-0.4063575,1.3162653,-1.2180784
alexnet_w3_mlp_simclrhn_probe3,1,121,NaN,bicycle,bicycle,0,0121_sty_dnn_0_bicycle_00_bicycle-0039-ILSVRC2012-val-00037292.png,bicycle-0039-ILSVRC2012-val-00037292.png,1.0,4.680559,1.775954,2.0538661
alexnet_w3_mlp_simclrhn_probe3,1,122,NaN,bicycle,bicycle,0,0122_sty_dnn_0_bicycle_00_bicycle-0040-ILSVRC2012-val-00037433.png,bicycle-0040-ILSVRC2012-val-00037433.png,1.0,1.4361874,0.35475174,0.7646905
alexnet_w3_mlp_simclrhn_probe3,1,123,NaN,bicycle,bicycle,0,0123_sty_dnn_0_bicycle_00_bicycle-0043-ILSVRC2012-val-00038415.png,bicycle-0043-ILSVRC2012-val-00038415.png,1.0,0.5123951,0.3881275,0.08787045
alexnet_w3_mlp_simclrhn_probe3,1,124,NaN,oven,bicycle,0,0124_sty_dnn_0_bicycle_00_bicycle-0044-ILSVRC2012-val-00040027.png,bicycle-0044-ILSVRC2012-val-00040027.png,0.0,0.39663738,1.1965184,-0.5656013
alexnet_w3_mlp_simclrhn_probe3,1,125,NaN,bicycle,bicycle,0,0125_sty_dnn_0_bicycle_00_bicycle-0046-ILSVRC2012-val-00042496.png,bicycle-0046-ILSVRC2012-val-00042496.png,1.0,0.67272645,0.49262002,0.12735449
alexnet_w3_mlp_simclrhn_probe3,1,126,NaN,bicycle,bicycle,0,0126_sty_dnn_0_bicycle_00_bicycle-0047-ILSVRC2012-val-00043435.png,bicycle-0047-ILSVRC2012-val-00043435.png,1.0,3.3069959,1.6695511,1.1578482
alexnet_w3_mlp_simclrhn_probe3,1,127,NaN,oven,bicycle,0,0127_sty_dnn_0_bicycle_00_bicycle-0048-ILSVRC2012-val-00045400.png,bicycle-0048-ILSVRC2012-val-00045400.png,0.0,1.2791247,1.5794792,-0.21238269
alexnet_w3_mlp_simclrhn_probe3,1,128,NaN,oven,bicycle,0,0128_sty_dnn_0_bicycle_00_bicycle-0050-ILSVRC2012-val-00049382.png,bicycle-0050-ILSVRC2012-val-00049382.png,0.0,0.37096167,0.97312486,-0.42579368
alexnet_w3_mlp_simclrhn_probe3,1,129,NaN,bicycle,bicycle,0,0129_sty_dnn_0_bicycle_00_bicycle-0054-ILSVRC2012-val-00004147.png,bicycle-0054-ILSVRC2012-val-00004147.png,1.0,1.7309666,0.5880593,0.8081575
alexnet_w3_mlp_simclrhn_probe3,1,130,NaN,oven,bicycle,0,0130_sty_dnn_0_bicycle_00_bicycle-0056-ILSVRC2012-val-00005330.png,bicycle-0056-ILSVRC2012-val-00005330.png,0.0,0.43772867,0.49715763,-0.042022623
alexnet_w3_mlp_simclrhn_probe3,1,131,NaN,bicycle,bicycle,0,0131_sty_dnn_0_bicycle_00_bicycle-0059-ILSVRC2012-val-00011329.png,bicycle-0059-ILSVRC2012-val-00011329.png,1.0,5.155807,0.263441,3.4594252
alexnet_w3_mlp_simclrhn_probe3,1,132,NaN,bicycle,bicycle,0,0132_sty_dnn_0_bicycle_00_bicycle-0060-ILSVRC2012-val-00011330.png,bicycle-0060-ILSVRC2012-val-00011330.png,1.0,1.2428906,1.1996137,0.030601393
alexnet_w3_mlp_simclrhn_probe3,1,133,NaN,bicycle,bicycle,0,0133_sty_dnn_0_bicycle_00_bicycle-0061-ILSVRC2012-val-00012096.png,bicycle-0061-ILSVRC2012-val-00012096.png,1.0,0.6434624,0.582255,0.043280177
alexnet_w3_mlp_simclrhn_probe3,1,134,NaN,oven,bicycle,0,0134_sty_dnn_0_bicycle_00_bicycle-0062-ILSVRC2012-val-00015867.png,bicycle-0062-ILSVRC2012-val-00015867.png,0.0,0.33824703,1.1922629,-0.6038804
alexnet_w3_mlp_simclrhn_probe3,1,135,NaN,bicycle,bicycle,0,0135_sty_dnn_0_bicycle_00_bicycle-0064-ILSVRC2012-val-00017103.png,bicycle-0064-ILSVRC2012-val-00017103.png,1.0,2.2560472,1.6782343,0.40857545
alexnet_w3_mlp_simclrhn_probe3,1,136,NaN,clock,bicycle,0,0136_sty_dnn_0_bicycle_00_bicycle-0067-ILSVRC2012-val-00018304.png,bicycle-0067-ILSVRC2012-val-00018304.png,0.0,0.09224062,0.3720019,-0.19782108
alexnet_w3_mlp_simclrhn_probe3,1,137,NaN,bear,bicycle,0,0137_sty_dnn_0_bicycle_00_bicycle-0070-ILSVRC2012-val-00020631.png,bicycle-0070-ILSVRC2012-val-00020631.png,0.0,-0.26833212,1.0258479,-0.9151235
alexnet_w3_mlp_simclrhn_probe3,1,138,NaN,bottle,bicycle,0,0138_sty_dnn_0_bicycle_00_bicycle-0073-ILSVRC2012-val-00027449.png,bicycle-0073-ILSVRC2012-val-00027449.png,0.0,-0.04422608,0.1032471,-0.104279295
alexnet_w3_mlp_simclrhn_probe3,1,139,NaN,knife,bicycle,0,0139_sty_dnn_0_bicycle_00_bicycle-0074-ILSVRC2012-val-00028824.png,bicycle-0074-ILSVRC2012-val-00028824.png,0.0,0.12344469,0.46172628,-0.2392012
alexnet_w3_mlp_simclrhn_probe3,1,140,NaN,bicycle,bicycle,0,0140_sty_dnn_0_bicycle_00_bicycle-0077-ILSVRC2012-val-00030112.png,bicycle-0077-ILSVRC2012-val-00030112.png,1.0,1.8840326,0.5775082,0.92385226
alexnet_w3_mlp_simclrhn_probe3,1,141,NaN,bicycle,bicycle,0,0141_sty_dnn_0_bicycle_00_bicycle-0078-ILSVRC2012-val-00030892.png,bicycle-0078-ILSVRC2012-val-00030892.png,1.0,4.95796,2.1523342,1.9838772
alexnet_w3_mlp_simclrhn_probe3,1,142,NaN,bicycle,bicycle,0,0142_sty_dnn_0_bicycle_00_bicycle-0079-ILSVRC2012-val-00031485.png,bicycle-0079-ILSVRC2012-val-00031485.png,1.0,1.0499879,0.28842163,0.5385087
alexnet_w3_mlp_simclrhn_probe3,1,143,NaN,cat,bicycle,0,0143_sty_dnn_0_bicycle_00_bicycle-0080-ILSVRC2012-val-00032009.png,bicycle-0080-ILSVRC2012-val-00032009.png,0.0,0.12365015,0.3264972,-0.14343452
alexnet_w3_mlp_simclrhn_probe3,1,144,NaN,bicycle,bicycle,0,0144_sty_dnn_0_bicycle_00_bicycle-0081-ILSVRC2012-val-00032967.png,bicycle-0081-ILSVRC2012-val-00032967.png,1.0,1.3504965,0.48124713,0.61465216
alexnet_w3_mlp_simclrhn_probe3,1,145,NaN,bicycle,bicycle,0,0145_sty_dnn_0_bicycle_00_bicycle-0085-ILSVRC2012-val-00037438.png,bicycle-0085-ILSVRC2012-val-00037438.png,1.0,1.9283328,0.86669207,0.7506934
alexnet_w3_mlp_simclrhn_probe3,1,146,NaN,bicycle,bicycle,0,0146_sty_dnn_0_bicycle_00_bicycle-0089-ILSVRC2012-val-00042393.png,bicycle-0089-ILSVRC2012-val-00042393.png,1.0,1.8222083,0.26620433,1.100261
alexnet_w3_mlp_simclrhn_probe3,1,147,NaN,bicycle,bicycle,0,0147_sty_dnn_0_bicycle_00_bicycle-0092-ILSVRC2012-val-00043207.png,bicycle-0092-ILSVRC2012-val-00043207.png,1.0,1.1836631,0.80026907,0.27110055
alexnet_w3_mlp_simclrhn_probe3,1,148,NaN,bicycle,bicycle,0,0148_sty_dnn_0_bicycle_00_bicycle-0094-ILSVRC2012-val-00044080.png,bicycle-0094-ILSVRC2012-val-00044080.png,1.0,6.2628536,1.9116566,3.0767612
alexnet_w3_mlp_simclrhn_probe3,1,149,NaN,bicycle,bicycle,0,0149_sty_dnn_0_bicycle_00_bicycle-0096-ILSVRC2012-val-00045152.png,bicycle-0096-ILSVRC2012-val-00045152.png,1.0,1.7792665,1.2292907,0.38889158
alexnet_w3_mlp_simclrhn_probe3,1,150,NaN,oven,bicycle,0,0150_sty_dnn_0_bicycle_00_bicycle-0100-ILSVRC2012-val-00049750.png,bicycle-0100-ILSVRC2012-val-00049750.png,0.0,1.384203,1.4258374,-0.029439995
alexnet_w3_mlp_simclrhn_probe3,1,151,NaN,knife,bird,0,0151_sty_dnn_0_bird_00_bird-0009-ILSVRC2012-val-00007530.png,bird-0009-ILSVRC2012-val-00007530.png,0.0,-0.40333915,1.1265731,-1.0818113
alexnet_w3_mlp_simclrhn_probe3,1,152,NaN,bicycle,bird,0,0152_sty_dnn_0_bird_00_bird-0045-ILSVRC2012-val-00045547.png,bird-0045-ILSVRC2012-val-00045547.png,0.0,-0.46594977,0.3839428,-0.60096484
alexnet_w3_mlp_simclrhn_probe3,1,153,NaN,bird,bird,0,0153_sty_dnn_0_bird_00_bird-0119-ILSVRC2012-val-00016252.png,bird-0119-ILSVRC2012-val-00016252.png,1.0,0.45554522,0.29965526,0.11023085
alexnet_w3_mlp_simclrhn_probe3,1,154,NaN,oven,bird,0,0154_sty_dnn_0_bird_00_bird-0122-ILSVRC2012-val-00019236.png,bird-0122-ILSVRC2012-val-00019236.png,0.0,-0.015712783,1.6221232,-1.1581249
alexnet_w3_mlp_simclrhn_probe3,1,155,NaN,bird,bird,0,0155_sty_dnn_0_bird_00_bird-0157-ILSVRC2012-val-00005336.png,bird-0157-ILSVRC2012-val-00005336.png,1.0,1.0014993,0.5435525,0.32381728
alexnet_w3_mlp_simclrhn_probe3,1,156,NaN,bicycle,bird,0,0156_sty_dnn_0_bird_00_bird-0175-ILSVRC2012-val-00018699.png,bird-0175-ILSVRC2012-val-00018699.png,0.0,-0.6103755,0.8790779,-1.0532026
alexnet_w3_mlp_simclrhn_probe3,1,157,NaN,bird,bird,0,0157_sty_dnn_0_bird_00_bird-0228-ILSVRC2012-val-00017712.png,bird-0228-ILSVRC2012-val-00017712.png,1.0,0.44076538,0.39714268,0.030845908
alexnet_w3_mlp_simclrhn_probe3,1,158,NaN,chair,bird,0,0158_sty_dnn_0_bird_00_bird-0238-ILSVRC2012-val-00030657.png,bird-0238-ILSVRC2012-val-00030657.png,0.0,-0.47837865,1.2591301,-1.2286043
alexnet_w3_mlp_simclrhn_probe3,1,159,NaN,elephant,bird,0,0159_sty_dnn_0_bird_00_bird-0426-ILSVRC2012-val-00030017.png,bird-0426-ILSVRC2012-val-00030017.png,0.0,0.9671527,1.8114338,-0.5969969
alexnet_w3_mlp_simclrhn_probe3,1,160,NaN,oven,bird,0,0160_sty_dnn_0_bird_00_bird-0486-ILSVRC2012-val-00037420.png,bird-0486-ILSVRC2012-val-00037420.png,0.0,-0.274135,1.3614817,-1.1565557
alexnet_w3_mlp_simclrhn_probe3,1,161,NaN,bear,bird,0,0161_sty_dnn_0_bird_00_bird-0513-ILSVRC2012-val-00013223.png,bird-0513-ILSVRC2012-val-00013223.png,0.0,-0.37526998,1.5922875,-1.3912733
alexnet_w3_mlp_simclrhn_probe3,1,162,NaN,bicycle,bird,0,0162_sty_dnn_0_bird_00_bird-0522-ILSVRC2012-val-00020730.png,bird-0522-ILSVRC2012-val-00020730.png,0.0,-0.12073659,0.52324045,-0.45536053
alexnet_w3_mlp_simclrhn_probe3,1,163,NaN,bird,bird,0,0163_sty_dnn_0_bird_00_bird-0532-ILSVRC2012-val-00028181.png,bird-0532-ILSVRC2012-val-00028181.png,1.0,2.6577098,0.30016556,1.6670355
alexnet_w3_mlp_simclrhn_probe3,1,164,NaN,oven,bird,0,0164_sty_dnn_0_bird_00_bird-0624-ILSVRC2012-val-00024514.png,bird-0624-ILSVRC2012-val-00024514.png,0.0,0.15571539,1.9287958,-1.2537572
alexnet_w3_mlp_simclrhn_probe3,1,165,NaN,bird,bird,0,0165_sty_dnn_0_bird_00_bird-0701-ILSVRC2012-val-00000075.png,bird-0701-ILSVRC2012-val-00000075.png,1.0,1.4247011,1.3123096,0.07947277
alexnet_w3_mlp_simclrhn_probe3,1,166,NaN,bird,bird,0,0166_sty_dnn_0_bird_00_bird-0752-ILSVRC2012-val-00001596.png,bird-0752-ILSVRC2012-val-00001596.png,1.0,1.095819,0.32319084,0.54633063
alexnet_w3_mlp_simclrhn_probe3,1,167,NaN,oven,bird,0,0167_sty_dnn_0_bird_00_bird-0754-ILSVRC2012-val-00002846.png,bird-0754-ILSVRC2012-val-00002846.png,0.0,0.4534481,0.5492358,-0.067732155
alexnet_w3_mlp_simclrhn_probe3,1,168,NaN,oven,bird,0,0168_sty_dnn_0_bird_00_bird-0822-ILSVRC2012-val-00025200.png,bird-0822-ILSVRC2012-val-00025200.png,0.0,0.06542378,0.7385026,-0.47593862
alexnet_w3_mlp_simclrhn_probe3,1,169,NaN,clock,bird,0,0169_sty_dnn_0_bird_00_bird-0896-ILSVRC2012-val-00046621.png,bird-0896-ILSVRC2012-val-00046621.png,0.0,-0.32411993,0.19901027,-0.3699089
alexnet_w3_mlp_simclrhn_probe3,1,170,NaN,oven,bird,0,0170_sty_dnn_0_bird_00_bird-0995-ILSVRC2012-val-00046534.png,bird-0995-ILSVRC2012-val-00046534.png,0.0,-0.017958632,1.7962277,-1.2828234
alexnet_w3_mlp_simclrhn_probe3,1,171,NaN,oven,bird,0,0171_sty_dnn_0_bird_00_bird-1052-ILSVRC2012-val-00003884.png,bird-1052-ILSVRC2012-val-00003884.png,0.0,-0.13769098,1.1998942,-0.94581556
alexnet_w3_mlp_simclrhn_probe3,1,172,NaN,oven,bird,0,0172_sty_dnn_0_bird_00_bird-1093-ILSVRC2012-val-00044082.png,bird-1093-ILSVRC2012-val-00044082.png,0.0,-0.10116362,1.0865695,-0.8398542
alexnet_w3_mlp_simclrhn_probe3,1,173,NaN,bicycle,bird,0,0173_sty_dnn_0_bird_00_bird-1172-ILSVRC2012-val-00022442.png,bird-1172-ILSVRC2012-val-00022442.png,0.0,-0.050034765,1.0273348,-0.76181537
alexnet_w3_mlp_simclrhn_probe3,1,174,NaN,cat,bird,0,0174_sty_dnn_0_bird_00_bird-1188-ILSVRC2012-val-00040014.png,bird-1188-ILSVRC2012-val-00040014.png,0.0,0.04975425,0.6964392,-0.45727533
alexnet_w3_mlp_simclrhn_probe3,1,175,NaN,bear,bird,0,0175_sty_dnn_0_bird_00_bird-1198-ILSVRC2012-val-00048142.png,bird-1198-ILSVRC2012-val-00048142.png,0.0,-0.23505703,1.5024986,-1.2286373
alexnet_w3_mlp_simclrhn_probe3,1,176,NaN,chair,bird,0,0176_sty_dnn_0_bird_00_bird-1256-ILSVRC2012-val-00005779.png,bird-1256-ILSVRC2012-val-00005779.png,0.0,0.011318917,1.1324775,-0.79277885
alexnet_w3_mlp_simclrhn_probe3,1,177,NaN,oven,bird,0,0177_sty_dnn_0_bird_00_bird-1274-ILSVRC2012-val-00025449.png,bird-1274-ILSVRC2012-val-00025449.png,0.0,-0.4649737,1.4524888,-1.3558507
alexnet_w3_mlp_simclrhn_probe3,1,178,NaN,bird,bird,0,0178_sty_dnn_0_bird_00_bird-1326-ILSVRC2012-val-00025658.png,bird-1326-ILSVRC2012-val-00025658.png,1.0,1.1270578,0.6336713,0.34887695
alexnet_w3_mlp_simclrhn_probe3,1,179,NaN,bird,bird,0,0179_sty_dnn_0_bird_00_bird-1394-ILSVRC2012-val-00040051.png,bird-1394-ILSVRC2012-val-00040051.png,1.0,2.5688562,0.5382135,1.4358813
alexnet_w3_mlp_simclrhn_probe3,1,180,NaN,elephant,bird,0,0180_sty_dnn_0_bird_00_bird-1452-ILSVRC2012-val-00002997.png,bird-1452-ILSVRC2012-val-00002997.png,0.0,0.22865562,0.5834266,-0.25086096
alexnet_w3_mlp_simclrhn_probe3,1,181,NaN,bird,bird,0,0181_sty_dnn_0_bird_00_bird-1551-ILSVRC2012-val-00000690.png,bird-1551-ILSVRC2012-val-00000690.png,1.0,2.2128122,0.65840167,1.0991342
alexnet_w3_mlp_simclrhn_probe3,1,182,NaN,bottle,bird,0,0182_sty_dnn_0_bird_00_bird-1646-ILSVRC2012-val-00039398.png,bird-1646-ILSVRC2012-val-00039398.png,0.0,0.0625308,0.64882195,-0.41457045
alexnet_w3_mlp_simclrhn_probe3,1,183,NaN,bicycle,bird,0,0183_sty_dnn_0_bird_00_bird-1861-ILSVRC2012-val-00007811.png,bird-1861-ILSVRC2012-val-00007811.png,0.0,0.28076604,0.38960978,-0.07696415
alexnet_w3_mlp_simclrhn_probe3,1,184,NaN,clock,bird,0,0184_sty_dnn_0_bird_00_bird-1865-ILSVRC2012-val-00009672.png,bird-1865-ILSVRC2012-val-00009672.png,0.0,-0.24459293,2.3953388,-1.8667136
alexnet_w3_mlp_simclrhn_probe3,1,185,NaN,oven,bird,0,0185_sty_dnn_0_bird_00_bird-1913-ILSVRC2012-val-00012475.png,bird-1913-ILSVRC2012-val-00012475.png,0.0,-0.14610419,0.62491626,-0.5451938
alexnet_w3_mlp_simclrhn_probe3,1,186,NaN,bird,bird,0,0186_sty_dnn_0_bird_00_bird-1941-ILSVRC2012-val-00042829.png,bird-1941-ILSVRC2012-val-00042829.png,1.0,0.58122796,0.39963132,0.12840821
alexnet_w3_mlp_simclrhn_probe3,1,187,NaN,bear,bird,0,0187_sty_dnn_0_bird_00_bird-1971-ILSVRC2012-val-00023024.png,bird-1971-ILSVRC2012-val-00023024.png,0.0,-0.4878033,2.5403123,-2.141201
alexnet_w3_mlp_simclrhn_probe3,1,188,NaN,oven,bird,0,0188_sty_dnn_0_bird_00_bird-2011-ILSVRC2012-val-00008842.png,bird-2011-ILSVRC2012-val-00008842.png,0.0,-0.8728566,0.4308662,-0.9218713
alexnet_w3_mlp_simclrhn_probe3,1,189,NaN,bear,bird,0,0189_sty_dnn_0_bird_00_bird-2082-ILSVRC2012-val-00036457.png,bird-2082-ILSVRC2012-val-00036457.png,0.0,0.16213079,0.58295435,-0.29756722
alexnet_w3_mlp_simclrhn_probe3,1,190,NaN,chair,bird,0,0190_sty_dnn_0_bird_00_bird-2118-ILSVRC2012-val-00021926.png,bird-2118-ILSVRC2012-val-00021926.png,0.0,-0.37883207,2.1240325,-1.7697926
alexnet_w3_mlp_simclrhn_probe3,1,191,NaN,oven,bird,0,0191_sty_dnn_0_bird_00_bird-2144-ILSVRC2012-val-00044377.png,bird-2144-ILSVRC2012-val-00044377.png,0.0,-0.12652582,1.3948898,-1.0758034
alexnet_w3_mlp_simclrhn_probe3,1,192,NaN,oven,bird,0,0192_sty_dnn_0_bird_00_bird-2178-ILSVRC2012-val-00026510.png,bird-2178-ILSVRC2012-val-00026510.png,0.0,-0.20299935,0.55976176,-0.53935355
alexnet_w3_mlp_simclrhn_probe3,1,193,NaN,oven,bird,0,0193_sty_dnn_0_bird_00_bird-2184-ILSVRC2012-val-00034910.png,bird-2184-ILSVRC2012-val-00034910.png,0.0,0.15664133,1.8676499,-1.2098658
alexnet_w3_mlp_simclrhn_probe3,1,194,NaN,elephant,bird,0,0194_sty_dnn_0_bird_00_bird-2221-ILSVRC2012-val-00014977.png,bird-2221-ILSVRC2012-val-00014977.png,0.0,-0.39383852,0.60062087,-0.703189
alexnet_w3_mlp_simclrhn_probe3,1,195,NaN,oven,bird,0,0195_sty_dnn_0_bird_00_bird-2222-ILSVRC2012-val-00015392.png,bird-2222-ILSVRC2012-val-00015392.png,0.0,0.5937556,1.3152719,-0.51018906
alexnet_w3_mlp_simclrhn_probe3,1,196,NaN,oven,bird,0,0196_sty_dnn_0_bird_00_bird-2248-ILSVRC2012-val-00044992.png,bird-2248-ILSVRC2012-val-00044992.png,0.0,-0.5145502,1.5678308,-1.4724658
alexnet_w3_mlp_simclrhn_probe3,1,197,NaN,bird,bird,0,0197_sty_dnn_0_bird_00_bird-2322-ILSVRC2012-val-00023492.png,bird-2322-ILSVRC2012-val-00023492.png,1.0,1.268529,0.18655685,0.7650699
alexnet_w3_mlp_simclrhn_probe3,1,198,NaN,bear,bird,0,0198_sty_dnn_0_bird_00_bird-2405-ILSVRC2012-val-00007988.png,bird-2405-ILSVRC2012-val-00007988.png,0.0,-0.12849978,1.0161316,-0.80937666
alexnet_w3_mlp_simclrhn_probe3,1,199,NaN,elephant,bird,0,0199_sty_dnn_0_bird_00_bird-2410-ILSVRC2012-val-00010355.png,bird-2410-ILSVRC2012-val-00010355.png,0.0,0.597472,2.166504,-1.1094731
alexnet_w3_mlp_simclrhn_probe3,1,200,NaN,bear,bird,0,0200_sty_dnn_0_bird_00_bird-2433-ILSVRC2012-val-00028670.png,bird-2433-ILSVRC2012-val-00028670.png,0.0,-0.30397528,1.4998012,-1.2754626
alexnet_w3_mlp_simclrhn_probe3,1,201,NaN,cat,boat,0,0201_sty_dnn_0_boat_00_boat-0005-ILSVRC2012-val-00004909.png,boat-0005-ILSVRC2012-val-00004909.png,0.0,0.054733194,1.2038901,-0.81257665
alexnet_w3_mlp_simclrhn_probe3,1,202,NaN,cat,boat,0,0202_sty_dnn_0_boat_00_boat-0011-ILSVRC2012-val-00011563.png,boat-0011-ILSVRC2012-val-00011563.png,0.0,-0.29529825,0.8957432,-0.84219354
alexnet_w3_mlp_simclrhn_probe3,1,203,NaN,bicycle,boat,0,0203_sty_dnn_0_boat_00_boat-0026-ILSVRC2012-val-00026341.png,boat-0026-ILSVRC2012-val-00026341.png,0.0,0.34641916,0.86351967,-0.3656453
alexnet_w3_mlp_simclrhn_probe3,1,204,NaN,oven,boat,0,0204_sty_dnn_0_boat_00_boat-0033-ILSVRC2012-val-00030824.png,boat-0033-ILSVRC2012-val-00030824.png,0.0,0.18991858,1.105458,-0.64738417
alexnet_w3_mlp_simclrhn_probe3,1,205,NaN,elephant,boat,0,0205_sty_dnn_0_boat_00_boat-0036-ILSVRC2012-val-00032433.png,boat-0036-ILSVRC2012-val-00032433.png,0.0,-0.08690103,1.8406807,-1.3630062
alexnet_w3_mlp_simclrhn_probe3,1,206,NaN,boat,boat,0,0206_sty_dnn_0_boat_00_boat-0039-ILSVRC2012-val-00033883.png,boat-0039-ILSVRC2012-val-00033883.png,1.0,0.9330478,0.9092406,0.01683421
alexnet_w3_mlp_simclrhn_probe3,1,207,NaN,oven,boat,0,0207_sty_dnn_0_boat_00_boat-0042-ILSVRC2012-val-00039945.png,boat-0042-ILSVRC2012-val-00039945.png,0.0,-0.12343083,2.0152729,-1.5122918
alexnet_w3_mlp_simclrhn_probe3,1,208,NaN,bear,boat,0,0208_sty_dnn_0_boat_00_boat-0044-ILSVRC2012-val-00041227.png,boat-0044-ILSVRC2012-val-00041227.png,0.0,0.14372543,0.6142176,-0.3326882
alexnet_w3_mlp_simclrhn_probe3,1,209,NaN,oven,boat,0,0209_sty_dnn_0_boat_00_boat-0048-ILSVRC2012-val-00046387.png,boat-0048-ILSVRC2012-val-00046387.png,0.0,0.18187848,2.048029,-1.3195677
alexnet_w3_mlp_simclrhn_probe3,1,210,NaN,airplane,boat,0,0210_sty_dnn_0_boat_00_boat-0053-ILSVRC2012-val-00005918.png,boat-0053-ILSVRC2012-val-00005918.png,0.0,0.029723357,0.09144725,-0.043645382
alexnet_w3_mlp_simclrhn_probe3,1,211,NaN,oven,boat,0,0211_sty_dnn_0_boat_00_boat-0061-ILSVRC2012-val-00011292.png,boat-0061-ILSVRC2012-val-00011292.png,0.0,0.31919608,1.2289292,-0.6432784
alexnet_w3_mlp_simclrhn_probe3,1,212,NaN,bottle,boat,0,0212_sty_dnn_0_boat_00_boat-0064-ILSVRC2012-val-00013366.png,boat-0064-ILSVRC2012-val-00013366.png,0.0,-0.25503853,0.49836582,-0.5327374
alexnet_w3_mlp_simclrhn_probe3,1,213,NaN,bicycle,boat,0,0213_sty_dnn_0_boat_00_boat-0066-ILSVRC2012-val-00013961.png,boat-0066-ILSVRC2012-val-00013961.png,0.0,-0.16603999,1.6664684,-1.2957791
alexnet_w3_mlp_simclrhn_probe3,1,214,NaN,elephant,boat,0,0214_sty_dnn_0_boat_00_boat-0070-ILSVRC2012-val-00017026.png,boat-0070-ILSVRC2012-val-00017026.png,0.0,-0.29399404,0.85820377,-0.8147269
alexnet_w3_mlp_simclrhn_probe3,1,215,NaN,oven,boat,0,0215_sty_dnn_0_boat_00_boat-0073-ILSVRC2012-val-00018158.png,boat-0073-ILSVRC2012-val-00018158.png,0.0,-0.13827814,0.2809475,-0.2964373
alexnet_w3_mlp_simclrhn_probe3,1,216,NaN,bicycle,boat,0,0216_sty_dnn_0_boat_00_boat-0076-ILSVRC2012-val-00020486.png,boat-0076-ILSVRC2012-val-00020486.png,0.0,-0.3206985,1.4769077,-1.2710996
alexnet_w3_mlp_simclrhn_probe3,1,217,NaN,bear,boat,0,0217_sty_dnn_0_boat_00_boat-0077-ILSVRC2012-val-00021948.png,boat-0077-ILSVRC2012-val-00021948.png,0.0,0.38037482,0.5097073,-0.09145185
alexnet_w3_mlp_simclrhn_probe3,1,218,NaN,bicycle,boat,0,0218_sty_dnn_0_boat_00_boat-0079-ILSVRC2012-val-00025681.png,boat-0079-ILSVRC2012-val-00025681.png,0.0,0.5927219,2.5947506,-1.4156481
alexnet_w3_mlp_simclrhn_probe3,1,219,NaN,bicycle,boat,0,0219_sty_dnn_0_boat_00_boat-0082-ILSVRC2012-val-00027612.png,boat-0082-ILSVRC2012-val-00027612.png,0.0,-0.04679185,0.5390334,-0.41424102
alexnet_w3_mlp_simclrhn_probe3,1,220,NaN,oven,boat,0,0220_sty_dnn_0_boat_00_boat-0083-ILSVRC2012-val-00034455.png,boat-0083-ILSVRC2012-val-00034455.png,0.0,-0.057681967,1.8715173,-1.3641499
alexnet_w3_mlp_simclrhn_probe3,1,221,NaN,oven,boat,0,0221_sty_dnn_0_boat_00_boat-0086-ILSVRC2012-val-00039559.png,boat-0086-ILSVRC2012-val-00039559.png,0.0,-0.21116857,1.0467598,-0.8894897
alexnet_w3_mlp_simclrhn_probe3,1,222,NaN,oven,boat,0,0222_sty_dnn_0_boat_00_boat-0098-ILSVRC2012-val-00047961.png,boat-0098-ILSVRC2012-val-00047961.png,0.0,-0.19827381,0.9449496,-0.808381
alexnet_w3_mlp_simclrhn_probe3,1,223,NaN,oven,boat,0,0223_sty_dnn_0_boat_00_boat-0100-ILSVRC2012-val-00048371.png,boat-0100-ILSVRC2012-val-00048371.png,0.0,0.19722453,1.2372806,-0.7354307
alexnet_w3_mlp_simclrhn_probe3,1,224,NaN,bottle,boat,0,0224_sty_dnn_0_boat_00_boat-0103-ILSVRC2012-val-00002308.png,boat-0103-ILSVRC2012-val-00002308.png,0.0,0.07299935,1.60092,-1.0804031
alexnet_w3_mlp_simclrhn_probe3,1,225,NaN,bicycle,boat,0,0225_sty_dnn_0_boat_00_boat-0107-ILSVRC2012-val-00004492.png,boat-0107-ILSVRC2012-val-00004492.png,0.0,0.55626774,0.9394602,-0.270958
alexnet_w3_mlp_simclrhn_probe3,1,226,NaN,oven,boat,0,0226_sty_dnn_0_boat_00_boat-0111-ILSVRC2012-val-00009680.png,boat-0111-ILSVRC2012-val-00009680.png,0.0,-0.04955371,2.3135347,-1.6709559
alexnet_w3_mlp_simclrhn_probe3,1,227,NaN,bicycle,boat,0,0227_sty_dnn_0_boat_00_boat-0121-ILSVRC2012-val-00016970.png,boat-0121-ILSVRC2012-val-00016970.png,0.0,0.782663,1.101766,-0.2256399
alexnet_w3_mlp_simclrhn_probe3,1,228,NaN,oven,boat,0,0228_sty_dnn_0_boat_00_boat-0129-ILSVRC2012-val-00027504.png,boat-0129-ILSVRC2012-val-00027504.png,0.0,0.031213056,1.2718751,-0.8772806
alexnet_w3_mlp_simclrhn_probe3,1,229,NaN,bicycle,boat,0,0229_sty_dnn_0_boat_00_boat-0137-ILSVRC2012-val-00035374.png,boat-0137-ILSVRC2012-val-00035374.png,0.0,-0.061915386,0.79001987,-0.60240924
alexnet_w3_mlp_simclrhn_probe3,1,230,NaN,oven,boat,0,0230_sty_dnn_0_boat_00_boat-0142-ILSVRC2012-val-00040889.png,boat-0142-ILSVRC2012-val-00040889.png,0.0,-0.23835239,1.5655301,-1.2755376
alexnet_w3_mlp_simclrhn_probe3,1,231,NaN,oven,boat,0,0231_sty_dnn_0_boat_00_boat-0153-ILSVRC2012-val-00002696.png,boat-0153-ILSVRC2012-val-00002696.png,0.0,0.23966451,1.5473979,-0.9247071
alexnet_w3_mlp_simclrhn_probe3,1,232,NaN,bicycle,boat,0,0232_sty_dnn_0_boat_00_boat-0160-ILSVRC2012-val-00008630.png,boat-0160-ILSVRC2012-val-00008630.png,0.0,0.6190678,0.9967994,-0.2670966
alexnet_w3_mlp_simclrhn_probe3,1,233,NaN,bear,boat,0,0233_sty_dnn_0_boat_00_boat-0165-ILSVRC2012-val-00014242.png,boat-0165-ILSVRC2012-val-00014242.png,0.0,0.59266794,1.1813413,-0.41625494
alexnet_w3_mlp_simclrhn_probe3,1,234,NaN,oven,boat,0,0234_sty_dnn_0_boat_00_boat-0169-ILSVRC2012-val-00019970.png,boat-0169-ILSVRC2012-val-00019970.png,0.0,-0.5619588,0.87545913,-1.016408
alexnet_w3_mlp_simclrhn_probe3,1,235,NaN,oven,boat,0,0235_sty_dnn_0_boat_00_boat-0170-ILSVRC2012-val-00020353.png,boat-0170-ILSVRC2012-val-00020353.png,0.0,0.036226057,0.97981954,-0.66722137
alexnet_w3_mlp_simclrhn_probe3,1,236,NaN,keyboard,boat,0,0236_sty_dnn_0_boat_00_boat-0172-ILSVRC2012-val-00020894.png,boat-0172-ILSVRC2012-val-00020894.png,0.0,-0.34723765,0.8134556,-0.820734
alexnet_w3_mlp_simclrhn_probe3,1,237,NaN,oven,boat,0,0237_sty_dnn_0_boat_00_boat-0179-ILSVRC2012-val-00026763.png,boat-0179-ILSVRC2012-val-00026763.png,0.0,-0.25567746,0.3327639,-0.4160909
alexnet_w3_mlp_simclrhn_probe3,1,238,NaN,oven,boat,0,0238_sty_dnn_0_boat_00_boat-0181-ILSVRC2012-val-00031072.png,boat-0181-ILSVRC2012-val-00031072.png,0.0,-0.19863561,0.81960416,-0.72000426
alexnet_w3_mlp_simclrhn_probe3,1,239,NaN,bear,boat,0,0239_sty_dnn_0_boat_00_boat-0195-ILSVRC2012-val-00042203.png,boat-0195-ILSVRC2012-val-00042203.png,0.0,0.48545003,0.81719255,-0.23457739
alexnet_w3_mlp_simclrhn_probe3,1,240,NaN,oven,boat,0,0240_sty_dnn_0_boat_00_boat-0196-ILSVRC2012-val-00042675.png,boat-0196-ILSVRC2012-val-00042675.png,0.0,-0.09745441,1.7118765,-1.2793902
alexnet_w3_mlp_simclrhn_probe3,1,241,NaN,oven,boat,0,0241_sty_dnn_0_boat_00_boat-0215-ILSVRC2012-val-00013403.png,boat-0215-ILSVRC2012-val-00013403.png,0.0,0.12721445,0.70205164,-0.40647128
alexnet_w3_mlp_simclrhn_probe3,1,242,NaN,boat,boat,0,0242_sty_dnn_0_boat_00_boat-0217-ILSVRC2012-val-00015089.png,boat-0217-ILSVRC2012-val-00015089.png,1.0,1.1776584,0.711905,0.32933742
alexnet_w3_mlp_simclrhn_probe3,1,243,NaN,keyboard,boat,0,0243_sty_dnn_0_boat_00_boat-0218-ILSVRC2012-val-00015121.png,boat-0218-ILSVRC2012-val-00015121.png,0.0,-0.7541445,0.94068134,-1.1984229
alexnet_w3_mlp_simclrhn_probe3,1,244,NaN,oven,boat,0,0244_sty_dnn_0_boat_00_boat-0222-ILSVRC2012-val-00019246.png,boat-0222-ILSVRC2012-val-00019246.png,0.0,-0.38469663,1.016999,-0.9911485
alexnet_w3_mlp_simclrhn_probe3,1,245,NaN,oven,boat,0,0245_sty_dnn_0_boat_00_boat-0223-ILSVRC2012-val-00020544.png,boat-0223-ILSVRC2012-val-00020544.png,0.0,-0.3655177,0.8488846,-0.85871214
alexnet_w3_mlp_simclrhn_probe3,1,246,NaN,oven,boat,0,0246_sty_dnn_0_boat_00_boat-0225-ILSVRC2012-val-00022075.png,boat-0225-ILSVRC2012-val-00022075.png,0.0,-0.29443625,1.0036329,-0.9178735
alexnet_w3_mlp_simclrhn_probe3,1,247,NaN,boat,boat,0,0247_sty_dnn_0_boat_00_boat-0235-ILSVRC2012-val-00032371.png,boat-0235-ILSVRC2012-val-00032371.png,1.0,1.125353,0.7961855,0.23275657
alexnet_w3_mlp_simclrhn_probe3,1,248,NaN,knife,boat,0,0248_sty_dnn_0_boat_00_boat-0236-ILSVRC2012-val-00032584.png,boat-0236-ILSVRC2012-val-00032584.png,0.0,-0.16485378,1.2517159,-1.0016661
alexnet_w3_mlp_simclrhn_probe3,1,249,NaN,airplane,boat,0,0249_sty_dnn_0_boat_00_boat-0243-ILSVRC2012-val-00039131.png,boat-0243-ILSVRC2012-val-00039131.png,0.0,-0.25241432,0.9816976,-0.8726489
alexnet_w3_mlp_simclrhn_probe3,1,250,NaN,bear,boat,0,0250_sty_dnn_0_boat_00_boat-0244-ILSVRC2012-val-00040974.png,boat-0244-ILSVRC2012-val-00040974.png,0.0,-0.5434783,0.9863037,-1.0817193
alexnet_w3_mlp_simclrhn_probe3,1,251,NaN,oven,bottle,0,0251_sty_dnn_0_bottle_00_bottle-0002-ILSVRC2012-val-00002968.png,bottle-0002-ILSVRC2012-val-00002968.png,0.0,0.2142518,1.0952232,-0.62294084
alexnet_w3_mlp_simclrhn_probe3,1,252,NaN,bicycle,bottle,0,0252_sty_dnn_0_bottle_00_bottle-0003-ILSVRC2012-val-00003622.png,bottle-0003-ILSVRC2012-val-00003622.png,0.0,0.68424565,0.85137475,-0.11817812
alexnet_w3_mlp_simclrhn_probe3,1,253,NaN,oven,bottle,0,0253_sty_dnn_0_bottle_00_bottle-0005-ILSVRC2012-val-00004521.png,bottle-0005-ILSVRC2012-val-00004521.png,0.0,0.08612083,1.71301,-1.1503843
alexnet_w3_mlp_simclrhn_probe3,1,254,NaN,bottle,bottle,0,0254_sty_dnn_0_bottle_00_bottle-0006-ILSVRC2012-val-00004888.png,bottle-0006-ILSVRC2012-val-00004888.png,1.0,3.0072834,1.5736288,1.013747
alexnet_w3_mlp_simclrhn_probe3,1,255,NaN,oven,bottle,0,0255_sty_dnn_0_bottle_00_bottle-0011-ILSVRC2012-val-00009225.png,bottle-0011-ILSVRC2012-val-00009225.png,0.0,0.20814185,1.1814069,-0.68820226
alexnet_w3_mlp_simclrhn_probe3,1,256,NaN,keyboard,bottle,0,0256_sty_dnn_0_bottle_00_bottle-0022-ILSVRC2012-val-00022396.png,bottle-0022-ILSVRC2012-val-00022396.png,0.0,0.034649607,1.7206583,-1.1921881
alexnet_w3_mlp_simclrhn_probe3,1,257,NaN,oven,bottle,0,0257_sty_dnn_0_bottle_00_bottle-0030-ILSVRC2012-val-00032921.png,bottle-0030-ILSVRC2012-val-00032921.png,0.0,0.060490344,1.0616186,-0.7079046
alexnet_w3_mlp_simclrhn_probe3,1,258,NaN,oven,bottle,0,0258_sty_dnn_0_bottle_00_bottle-0031-ILSVRC2012-val-00033822.png,bottle-0031-ILSVRC2012-val-00033822.png,0.0,-0.040565956,0.65680313,-0.49311444
alexnet_w3_mlp_simclrhn_probe3,1,259,NaN,oven,bottle,0,0259_sty_dnn_0_bottle_00_bottle-0032-ILSVRC2012-val-00034979.png,bottle-0032-ILSVRC2012-val-00034979.png,0.0,0.09297564,0.62612283,-0.37699202
alexnet_w3_mlp_simclrhn_probe3,1,260,NaN,bottle,bottle,0,0260_sty_dnn_0_bottle_00_bottle-0037-ILSVRC2012-val-00036359.png,bottle-0037-ILSVRC2012-val-00036359.png,1.0,3.0396657,0.83899224,1.5561112
alexnet_w3_mlp_simclrhn_probe3,1,261,NaN,bottle,bottle,0,0261_sty_dnn_0_bottle_00_bottle-0039-ILSVRC2012-val-00038570.png,bottle-0039-ILSVRC2012-val-00038570.png,1.0,1.673886,1.4705241,0.14379856
alexnet_w3_mlp_simclrhn_probe3,1,262,NaN,oven,bottle,0,0262_sty_dnn_0_bottle_00_bottle-0047-ILSVRC2012-val-00044787.png,bottle-0047-ILSVRC2012-val-00044787.png,0.0,0.22887358,0.84422344,-0.43511808
alexnet_w3_mlp_simclrhn_probe3,1,263,NaN,clock,bottle,0,0263_sty_dnn_0_bottle_00_bottle-0052-ILSVRC2012-val-00000252.png,bottle-0052-ILSVRC2012-val-00000252.png,0.0,0.93287617,1.7362789,-0.5680915
alexnet_w3_mlp_simclrhn_probe3,1,264,NaN,bottle,bottle,0,0264_sty_dnn_0_bottle_00_bottle-0055-ILSVRC2012-val-00003066.png,bottle-0055-ILSVRC2012-val-00003066.png,1.0,2.57313,1.5236747,0.7420769
alexnet_w3_mlp_simclrhn_probe3,1,265,NaN,bicycle,bottle,0,0265_sty_dnn_0_bottle_00_bottle-0057-ILSVRC2012-val-00005967.png,bottle-0057-ILSVRC2012-val-00005967.png,0.0,0.4114316,0.5178536,-0.07525172
alexnet_w3_mlp_simclrhn_probe3,1,266,NaN,oven,bottle,0,0266_sty_dnn_0_bottle_00_bottle-0059-ILSVRC2012-val-00008984.png,bottle-0059-ILSVRC2012-val-00008984.png,0.0,0.50376695,0.6120846,-0.07659216
alexnet_w3_mlp_simclrhn_probe3,1,267,NaN,bottle,bottle,0,0267_sty_dnn_0_bottle_00_bottle-0066-ILSVRC2012-val-00016336.png,bottle-0066-ILSVRC2012-val-00016336.png,1.0,1.6015282,1.4038541,0.13977665
alexnet_w3_mlp_simclrhn_probe3,1,268,NaN,oven,bottle,0,0268_sty_dnn_0_bottle_00_bottle-0085-ILSVRC2012-val-00036422.png,bottle-0085-ILSVRC2012-val-00036422.png,0.0,0.29975662,1.5176678,-0.86119324
alexnet_w3_mlp_simclrhn_probe3,1,269,NaN,oven,bottle,0,0269_sty_dnn_0_bottle_00_bottle-0086-ILSVRC2012-val-00036795.png,bottle-0086-ILSVRC2012-val-00036795.png,0.0,0.05970511,0.51324165,-0.32069877
alexnet_w3_mlp_simclrhn_probe3,1,270,NaN,oven,bottle,0,0270_sty_dnn_0_bottle_00_bottle-0107-ILSVRC2012-val-00008313.png,bottle-0107-ILSVRC2012-val-00008313.png,0.0,0.13880174,1.1301636,-0.70099866
alexnet_w3_mlp_simclrhn_probe3,1,271,NaN,bear,bottle,0,0271_sty_dnn_0_bottle_00_bottle-0108-ILSVRC2012-val-00008437.png,bottle-0108-ILSVRC2012-val-00008437.png,0.0,-0.3378563,1.9248605,-1.5999824
alexnet_w3_mlp_simclrhn_probe3,1,272,NaN,bicycle,bottle,0,0272_sty_dnn_0_bottle_00_bottle-0126-ILSVRC2012-val-00022079.png,bottle-0126-ILSVRC2012-val-00022079.png,0.0,-0.035394233,0.545129,-0.41049194
alexnet_w3_mlp_simclrhn_probe3,1,273,NaN,oven,bottle,0,0273_sty_dnn_0_bottle_00_bottle-0127-ILSVRC2012-val-00023580.png,bottle-0127-ILSVRC2012-val-00023580.png,0.0,0.03257361,0.6220975,-0.41685635
alexnet_w3_mlp_simclrhn_probe3,1,274,NaN,dog,bottle,0,0274_sty_dnn_0_bottle_00_bottle-0138-ILSVRC2012-val-00032559.png,bottle-0138-ILSVRC2012-val-00032559.png,0.0,-0.26278982,0.43600288,-0.49412107
alexnet_w3_mlp_simclrhn_probe3,1,275,NaN,elephant,bottle,0,0275_sty_dnn_0_bottle_00_bottle-0153-ILSVRC2012-val-00003318.png,bottle-0153-ILSVRC2012-val-00003318.png,0.0,-0.036317106,0.62933356,-0.4706861
alexnet_w3_mlp_simclrhn_probe3,1,276,NaN,oven,bottle,0,0276_sty_dnn_0_bottle_00_bottle-0154-ILSVRC2012-val-00003340.png,bottle-0154-ILSVRC2012-val-00003340.png,0.0,-0.18107331,0.60817385,-0.55808204
alexnet_w3_mlp_simclrhn_probe3,1,277,NaN,clock,bottle,0,0277_sty_dnn_0_bottle_00_bottle-0170-ILSVRC2012-val-00020948.png,bottle-0170-ILSVRC2012-val-00020948.png,0.0,-0.024443153,0.5382295,-0.39786968
alexnet_w3_mlp_simclrhn_probe3,1,278,NaN,chair,bottle,0,0278_sty_dnn_0_bottle_00_bottle-0172-ILSVRC2012-val-00021707.png,bottle-0172-ILSVRC2012-val-00021707.png,0.0,0.51952946,2.2887669,-1.2510397
alexnet_w3_mlp_simclrhn_probe3,1,279,NaN,oven,bottle,0,0279_sty_dnn_0_bottle_00_bottle-0180-ILSVRC2012-val-00027613.png,bottle-0180-ILSVRC2012-val-00027613.png,0.0,0.3583536,1.83217,-1.0421456
alexnet_w3_mlp_simclrhn_probe3,1,280,NaN,oven,bottle,0,0280_sty_dnn_0_bottle_00_bottle-0189-ILSVRC2012-val-00040070.png,bottle-0189-ILSVRC2012-val-00040070.png,0.0,0.3462916,2.6078207,-1.5991427
alexnet_w3_mlp_simclrhn_probe3,1,281,NaN,bottle,bottle,0,0281_sty_dnn_0_bottle_00_bottle-0195-ILSVRC2012-val-00045644.png,bottle-0195-ILSVRC2012-val-00045644.png,1.0,1.709595,0.5588152,0.81372416
alexnet_w3_mlp_simclrhn_probe3,1,282,NaN,oven,bottle,0,0282_sty_dnn_0_bottle_00_bottle-0204-ILSVRC2012-val-00002597.png,bottle-0204-ILSVRC2012-val-00002597.png,0.0,-0.26572636,0.76337504,-0.72768456
alexnet_w3_mlp_simclrhn_probe3,1,283,NaN,bottle,bottle,0,0283_sty_dnn_0_bottle_00_bottle-0205-ILSVRC2012-val-00003263.png,bottle-0205-ILSVRC2012-val-00003263.png,1.0,2.1121893,0.9191297,0.84362054
alexnet_w3_mlp_simclrhn_probe3,1,284,NaN,oven,bottle,0,0284_sty_dnn_0_bottle_00_bottle-0214-ILSVRC2012-val-00012572.png,bottle-0214-ILSVRC2012-val-00012572.png,0.0,-0.13976036,1.351763,-1.0546663
alexnet_w3_mlp_simclrhn_probe3,1,285,NaN,cat,bottle,0,0285_sty_dnn_0_bottle_00_bottle-0216-ILSVRC2012-val-00013262.png,bottle-0216-ILSVRC2012-val-00013262.png,0.0,-0.15121934,0.9738144,-0.795519
alexnet_w3_mlp_simclrhn_probe3,1,286,NaN,bottle,bottle,0,0286_sty_dnn_0_bottle_00_bottle-0218-ILSVRC2012-val-00013667.png,bottle-0218-ILSVRC2012-val-00013667.png,1.0,1.6694003,0.5246103,0.80948883
alexnet_w3_mlp_simclrhn_probe3,1,287,NaN,oven,bottle,0,0287_sty_dnn_0_bottle_00_bottle-0220-ILSVRC2012-val-00014146.png,bottle-0220-ILSVRC2012-val-00014146.png,0.0,-0.097771384,0.95135754,-0.74184614
alexnet_w3_mlp_simclrhn_probe3,1,288,NaN,oven,bottle,0,0288_sty_dnn_0_bottle_00_bottle-0222-ILSVRC2012-val-00018657.png,bottle-0222-ILSVRC2012-val-00018657.png,0.0,0.1485997,1.0539837,-0.6402032
alexnet_w3_mlp_simclrhn_probe3,1,289,NaN,oven,bottle,0,0289_sty_dnn_0_bottle_00_bottle-0224-ILSVRC2012-val-00020102.png,bottle-0224-ILSVRC2012-val-00020102.png,0.0,0.124646544,0.90746355,-0.5535352
alexnet_w3_mlp_simclrhn_probe3,1,290,NaN,knife,bottle,0,0290_sty_dnn_0_bottle_00_bottle-0233-ILSVRC2012-val-00031504.png,bottle-0233-ILSVRC2012-val-00031504.png,0.0,0.63044786,1.363703,-0.5184897
alexnet_w3_mlp_simclrhn_probe3,1,291,NaN,oven,bottle,0,0291_sty_dnn_0_bottle_00_bottle-0243-ILSVRC2012-val-00040157.png,bottle-0243-ILSVRC2012-val-00040157.png,0.0,-0.21721347,1.1131243,-0.9406909
alexnet_w3_mlp_simclrhn_probe3,1,292,NaN,bottle,bottle,0,0292_sty_dnn_0_bottle_00_bottle-0254-ILSVRC2012-val-00005933.png,bottle-0254-ILSVRC2012-val-00005933.png,1.0,3.0176227,0.4930089,1.7851716
alexnet_w3_mlp_simclrhn_probe3,1,293,NaN,bottle,bottle,0,0293_sty_dnn_0_bottle_00_bottle-0283-ILSVRC2012-val-00036864.png,bottle-0283-ILSVRC2012-val-00036864.png,1.0,3.5307984,2.0756636,1.0289358
alexnet_w3_mlp_simclrhn_probe3,1,294,NaN,bottle,bottle,0,0294_sty_dnn_0_bottle_00_bottle-0294-ILSVRC2012-val-00044222.png,bottle-0294-ILSVRC2012-val-00044222.png,1.0,2.6441975,2.2631373,0.2694502
alexnet_w3_mlp_simclrhn_probe3,1,295,NaN,oven,bottle,0,0295_sty_dnn_0_bottle_00_bottle-0296-ILSVRC2012-val-00044906.png,bottle-0296-ILSVRC2012-val-00044906.png,0.0,0.21270683,1.0488088,-0.5912134
alexnet_w3_mlp_simclrhn_probe3,1,296,NaN,oven,bottle,0,0296_sty_dnn_0_bottle_00_bottle-0325-ILSVRC2012-val-00027316.png,bottle-0325-ILSVRC2012-val-00027316.png,0.0,0.2991791,1.4696935,-0.82767874
alexnet_w3_mlp_simclrhn_probe3,1,297,NaN,bottle,bottle,0,0297_sty_dnn_0_bottle_00_bottle-0331-ILSVRC2012-val-00033990.png,bottle-0331-ILSVRC2012-val-00033990.png,1.0,3.2661033,1.9711795,0.9156494
alexnet_w3_mlp_simclrhn_probe3,1,298,NaN,oven,bottle,0,0298_sty_dnn_0_bottle_00_bottle-0334-ILSVRC2012-val-00036776.png,bottle-0334-ILSVRC2012-val-00036776.png,0.0,0.5315394,1.747992,-0.8601619
alexnet_w3_mlp_simclrhn_probe3,1,299,NaN,bottle,bottle,0,0299_sty_dnn_0_bottle_00_bottle-0345-ILSVRC2012-val-00044614.png,bottle-0345-ILSVRC2012-val-00044614.png,1.0,2.8117142,0.81263596,1.4135618
alexnet_w3_mlp_simclrhn_probe3,1,300,NaN,oven,bottle,0,0300_sty_dnn_0_bottle_00_bottle-0347-ILSVRC2012-val-00048539.png,bottle-0347-ILSVRC2012-val-00048539.png,0.0,0.5792535,1.5260019,-0.66945225
alexnet_w3_mlp_simclrhn_probe3,1,301,NaN,oven,car,0,0301_sty_dnn_0_car_00_car-0001-ILSVRC2012-val-00000175.png,car-0001-ILSVRC2012-val-00000175.png,0.0,-0.22885098,0.6132812,-0.59547734
alexnet_w3_mlp_simclrhn_probe3,1,302,NaN,car,car,0,0302_sty_dnn_0_car_00_car-0004-ILSVRC2012-val-00006084.png,car-0004-ILSVRC2012-val-00006084.png,1.0,1.8952894,1.8270762,0.048234034
alexnet_w3_mlp_simclrhn_probe3,1,303,NaN,car,car,0,0303_sty_dnn_0_car_00_car-0005-ILSVRC2012-val-00006220.png,car-0005-ILSVRC2012-val-00006220.png,1.0,0.8363766,0.58068526,0.1808011
alexnet_w3_mlp_simclrhn_probe3,1,304,NaN,oven,car,0,0304_sty_dnn_0_car_00_car-0010-ILSVRC2012-val-00012600.png,car-0010-ILSVRC2012-val-00012600.png,0.0,-0.11740535,1.945349,-1.4585876
alexnet_w3_mlp_simclrhn_probe3,1,305,NaN,oven,car,0,0305_sty_dnn_0_car_00_car-0012-ILSVRC2012-val-00014447.png,car-0012-ILSVRC2012-val-00014447.png,0.0,-0.3557811,1.6929708,-1.4486864
alexnet_w3_mlp_simclrhn_probe3,1,306,NaN,oven,car,0,0306_sty_dnn_0_car_00_car-0013-ILSVRC2012-val-00014541.png,car-0013-ILSVRC2012-val-00014541.png,0.0,-0.20189965,0.9326093,-0.802219
alexnet_w3_mlp_simclrhn_probe3,1,307,NaN,car,car,0,0307_sty_dnn_0_car_00_car-0018-ILSVRC2012-val-00018138.png,car-0018-ILSVRC2012-val-00018138.png,1.0,1.2500373,0.5227599,0.5142628
alexnet_w3_mlp_simclrhn_probe3,1,308,NaN,bicycle,car,0,0308_sty_dnn_0_car_00_car-0019-ILSVRC2012-val-00018335.png,car-0019-ILSVRC2012-val-00018335.png,0.0,-0.1466522,1.8235505,-1.3931437
alexnet_w3_mlp_simclrhn_probe3,1,309,NaN,oven,car,0,0309_sty_dnn_0_car_00_car-0021-ILSVRC2012-val-00019695.png,car-0021-ILSVRC2012-val-00019695.png,0.0,0.050146718,1.34628,-0.9165046
alexnet_w3_mlp_simclrhn_probe3,1,310,NaN,oven,car,0,0310_sty_dnn_0_car_00_car-0024-ILSVRC2012-val-00023221.png,car-0024-ILSVRC2012-val-00023221.png,0.0,-0.38676444,0.92690617,-0.9289054
alexnet_w3_mlp_simclrhn_probe3,1,311,NaN,car,car,0,0311_sty_dnn_0_car_00_car-0025-ILSVRC2012-val-00023474.png,car-0025-ILSVRC2012-val-00023474.png,1.0,8.95527,8.418666,0.37943628
alexnet_w3_mlp_simclrhn_probe3,1,312,NaN,oven,car,0,0312_sty_dnn_0_car_00_car-0028-ILSVRC2012-val-00027049.png,car-0028-ILSVRC2012-val-00027049.png,0.0,-0.29353395,1.3012322,-1.1276699
alexnet_w3_mlp_simclrhn_probe3,1,313,NaN,oven,car,0,0313_sty_dnn_0_car_00_car-0029-ILSVRC2012-val-00027081.png,car-0029-ILSVRC2012-val-00027081.png,0.0,1.2053906,2.003955,-0.56467026
alexnet_w3_mlp_simclrhn_probe3,1,314,NaN,oven,car,0,0314_sty_dnn_0_car_00_car-0030-ILSVRC2012-val-00029057.png,car-0030-ILSVRC2012-val-00029057.png,0.0,0.7632429,1.1220872,-0.25374126
alexnet_w3_mlp_simclrhn_probe3,1,315,NaN,oven,car,0,0315_sty_dnn_0_car_00_car-0032-ILSVRC2012-val-00030834.png,car-0032-ILSVRC2012-val-00030834.png,0.0,0.026736876,1.1690469,-0.8077352
alexnet_w3_mlp_simclrhn_probe3,1,316,NaN,bicycle,car,0,0316_sty_dnn_0_car_00_car-0041-ILSVRC2012-val-00040706.png,car-0041-ILSVRC2012-val-00040706.png,0.0,-0.3870208,2.0515532,-1.7243323
alexnet_w3_mlp_simclrhn_probe3,1,317,NaN,bicycle,car,0,0317_sty_dnn_0_car_00_car-0045-ILSVRC2012-val-00042416.png,car-0045-ILSVRC2012-val-00042416.png,0.0,0.29325834,3.1761963,-2.038545
alexnet_w3_mlp_simclrhn_probe3,1,318,NaN,knife,car,0,0318_sty_dnn_0_car_00_car-0050-ILSVRC2012-val-00048556.png,car-0050-ILSVRC2012-val-00048556.png,0.0,-0.39716828,0.5918546,-0.69934475
alexnet_w3_mlp_simclrhn_probe3,1,319,NaN,chair,car,0,0319_sty_dnn_0_car_00_car-0052-ILSVRC2012-val-00004387.png,car-0052-ILSVRC2012-val-00004387.png,0.0,-0.04698007,0.46561298,-0.36245802
alexnet_w3_mlp_simclrhn_probe3,1,320,NaN,oven,car,0,0320_sty_dnn_0_car_00_car-0053-ILSVRC2012-val-00004685.png,car-0053-ILSVRC2012-val-00004685.png,0.0,0.064571895,1.5348327,-1.0396315
alexnet_w3_mlp_simclrhn_probe3,1,321,NaN,oven,car,0,0321_sty_dnn_0_car_00_car-0054-ILSVRC2012-val-00005500.png,car-0054-ILSVRC2012-val-00005500.png,0.0,0.1483097,1.4427761,-0.91532594
alexnet_w3_mlp_simclrhn_probe3,1,322,NaN,oven,car,0,0322_sty_dnn_0_car_00_car-0058-ILSVRC2012-val-00010676.png,car-0058-ILSVRC2012-val-00010676.png,0.0,-0.36352348,0.54520625,-0.64256895
alexnet_w3_mlp_simclrhn_probe3,1,323,NaN,oven,car,0,0323_sty_dnn_0_car_00_car-0059-ILSVRC2012-val-00014010.png,car-0059-ILSVRC2012-val-00014010.png,0.0,-0.44299105,2.392798,-2.0052056
alexnet_w3_mlp_simclrhn_probe3,1,324,NaN,oven,car,0,0324_sty_dnn_0_car_00_car-0060-ILSVRC2012-val-00014208.png,car-0060-ILSVRC2012-val-00014208.png,0.0,-0.43887386,1.4742252,-1.3527653
alexnet_w3_mlp_simclrhn_probe3,1,325,NaN,airplane,car,0,0325_sty_dnn_0_car_00_car-0064-ILSVRC2012-val-00016337.png,car-0064-ILSVRC2012-val-00016337.png,0.0,-0.14542705,0.8362127,-0.6941241
alexnet_w3_mlp_simclrhn_probe3,1,326,NaN,bicycle,car,0,0326_sty_dnn_0_car_00_car-0065-ILSVRC2012-val-00016613.png,car-0065-ILSVRC2012-val-00016613.png,0.0,0.78471184,2.5372534,-1.239234
alexnet_w3_mlp_simclrhn_probe3,1,327,NaN,oven,car,0,0327_sty_dnn_0_car_00_car-0066-ILSVRC2012-val-00018249.png,car-0066-ILSVRC2012-val-00018249.png,0.0,-0.8390166,0.6641811,-1.0629213
alexnet_w3_mlp_simclrhn_probe3,1,328,NaN,oven,car,0,0328_sty_dnn_0_car_00_car-0067-ILSVRC2012-val-00018569.png,car-0067-ILSVRC2012-val-00018569.png,0.0,0.5152876,1.2653297,-0.53035986
alexnet_w3_mlp_simclrhn_probe3,1,329,NaN,truck,car,0,0329_sty_dnn_0_car_00_car-0069-ILSVRC2012-val-00019647.png,car-0069-ILSVRC2012-val-00019647.png,0.0,2.9149225,3.333106,-0.29570043
alexnet_w3_mlp_simclrhn_probe3,1,330,NaN,elephant,car,0,0330_sty_dnn_0_car_00_car-0079-ILSVRC2012-val-00025028.png,car-0079-ILSVRC2012-val-00025028.png,0.0,0.5657878,1.2734576,-0.50039816
alexnet_w3_mlp_simclrhn_probe3,1,331,NaN,oven,car,0,0331_sty_dnn_0_car_00_car-0082-ILSVRC2012-val-00027293.png,car-0082-ILSVRC2012-val-00027293.png,0.0,-0.60178626,1.9461627,-1.801672
alexnet_w3_mlp_simclrhn_probe3,1,332,NaN,oven,car,0,0332_sty_dnn_0_car_00_car-0083-ILSVRC2012-val-00027508.png,car-0083-ILSVRC2012-val-00027508.png,0.0,-0.6868663,0.9701455,-1.1716843
alexnet_w3_mlp_simclrhn_probe3,1,333,NaN,airplane,car,0,0333_sty_dnn_0_car_00_car-0086-ILSVRC2012-val-00029454.png,car-0086-ILSVRC2012-val-00029454.png,0.0,-0.29117605,0.94350255,-0.8730496
alexnet_w3_mlp_simclrhn_probe3,1,334,NaN,oven,car,0,0334_sty_dnn_0_car_00_car-0087-ILSVRC2012-val-00031558.png,car-0087-ILSVRC2012-val-00031558.png,0.0,-0.3876115,1.7054536,-1.4800206
alexnet_w3_mlp_simclrhn_probe3,1,335,NaN,oven,car,0,0335_sty_dnn_0_car_00_car-0091-ILSVRC2012-val-00036091.png,car-0091-ILSVRC2012-val-00036091.png,0.0,0.070567705,0.7383353,-0.472183
alexnet_w3_mlp_simclrhn_probe3,1,336,NaN,oven,car,0,0336_sty_dnn_0_car_00_car-0093-ILSVRC2012-val-00038956.png,car-0093-ILSVRC2012-val-00038956.png,0.0,0.80761975,1.030827,-0.1578314
alexnet_w3_mlp_simclrhn_probe3,1,337,NaN,oven,car,0,0337_sty_dnn_0_car_00_car-0095-ILSVRC2012-val-00041430.png,car-0095-ILSVRC2012-val-00041430.png,0.0,0.119495414,1.4951713,-0.97274977
alexnet_w3_mlp_simclrhn_probe3,1,338,NaN,oven,car,0,0338_sty_dnn_0_car_00_car-0096-ILSVRC2012-val-00043824.png,car-0096-ILSVRC2012-val-00043824.png,0.0,-0.45855746,1.2776272,-1.227668
alexnet_w3_mlp_simclrhn_probe3,1,339,NaN,bicycle,car,0,0339_sty_dnn_0_car_00_car-0103-ILSVRC2012-val-00003478.png,car-0103-ILSVRC2012-val-00003478.png,0.0,0.24870108,0.73480815,-0.3437296
alexnet_w3_mlp_simclrhn_probe3,1,340,NaN,oven,car,0,0340_sty_dnn_0_car_00_car-0106-ILSVRC2012-val-00004868.png,car-0106-ILSVRC2012-val-00004868.png,0.0,-0.20665257,0.4572034,-0.46941707
alexnet_w3_mlp_simclrhn_probe3,1,341,NaN,oven,car,0,0341_sty_dnn_0_car_00_car-0110-ILSVRC2012-val-00006285.png,car-0110-ILSVRC2012-val-00006285.png,0.0,1.1941577,2.124334,-0.65773404
alexnet_w3_mlp_simclrhn_probe3,1,342,NaN,clock,car,0,0342_sty_dnn_0_car_00_car-0111-ILSVRC2012-val-00007125.png,car-0111-ILSVRC2012-val-00007125.png,0.0,-1.6619053,0.97316605,-1.8632768
alexnet_w3_mlp_simclrhn_probe3,1,343,NaN,bicycle,car,0,0343_sty_dnn_0_car_00_car-0117-ILSVRC2012-val-00010983.png,car-0117-ILSVRC2012-val-00010983.png,0.0,-0.3160585,3.1626568,-2.4598231
alexnet_w3_mlp_simclrhn_probe3,1,344,NaN,oven,car,0,0344_sty_dnn_0_car_00_car-0118-ILSVRC2012-val-00012327.png,car-0118-ILSVRC2012-val-00012327.png,0.0,-0.43598497,1.0140162,-1.0253056
alexnet_w3_mlp_simclrhn_probe3,1,345,NaN,clock,car,0,0345_sty_dnn_0_car_00_car-0121-ILSVRC2012-val-00016638.png,car-0121-ILSVRC2012-val-00016638.png,0.0,-0.20108981,0.89221364,-0.7730823
alexnet_w3_mlp_simclrhn_probe3,1,346,NaN,car,car,0,0346_sty_dnn_0_car_00_car-0134-ILSVRC2012-val-00032944.png,car-0134-ILSVRC2012-val-00032944.png,1.0,3.4353914,2.2184224,0.86052704
alexnet_w3_mlp_simclrhn_probe3,1,347,NaN,oven,car,0,0347_sty_dnn_0_car_00_car-0139-ILSVRC2012-val-00037952.png,car-0139-ILSVRC2012-val-00037952.png,0.0,-0.43742442,0.87185323,-0.92579913
alexnet_w3_mlp_simclrhn_probe3,1,348,NaN,oven,car,0,0348_sty_dnn_0_car_00_car-0145-ILSVRC2012-val-00041626.png,car-0145-ILSVRC2012-val-00041626.png,0.0,-0.4926002,1.8785663,-1.6766679
alexnet_w3_mlp_simclrhn_probe3,1,349,NaN,bicycle,car,0,0349_sty_dnn_0_car_00_car-0146-ILSVRC2012-val-00043297.png,car-0146-ILSVRC2012-val-00043297.png,0.0,-0.43307614,1.8813043,-1.6365141
alexnet_w3_mlp_simclrhn_probe3,1,350,NaN,oven,car,0,0350_sty_dnn_0_car_00_car-0149-ILSVRC2012-val-00049427.png,car-0149-ILSVRC2012-val-00049427.png,0.0,-0.6947612,1.1333253,-1.2926525
alexnet_w3_mlp_simclrhn_probe3,1,351,NaN,cat,cat,0,0351_sty_dnn_0_cat_00_cat-0005-ILSVRC2012-val-00005358.png,cat-0005-ILSVRC2012-val-00005358.png,1.0,3.332614,0.709514,1.8548117
alexnet_w3_mlp_simclrhn_probe3,1,352,NaN,oven,cat,0,0352_sty_dnn_0_cat_00_cat-0012-ILSVRC2012-val-00012377.png,cat-0012-ILSVRC2012-val-00012377.png,0.0,-0.15251462,0.28573853,-0.3098918
alexnet_w3_mlp_simclrhn_probe3,1,353,NaN,bear,cat,0,0353_sty_dnn_0_cat_00_cat-0031-ILSVRC2012-val-00030706.png,cat-0031-ILSVRC2012-val-00030706.png,0.0,1.1561345,1.8042846,-0.45831132
alexnet_w3_mlp_simclrhn_probe3,1,354,NaN,cat,cat,0,0354_sty_dnn_0_cat_00_cat-0032-ILSVRC2012-val-00033420.png,cat-0032-ILSVRC2012-val-00033420.png,1.0,5.3077602,1.2989917,2.8346274
alexnet_w3_mlp_simclrhn_probe3,1,355,NaN,cat,cat,0,0355_sty_dnn_0_cat_00_cat-0034-ILSVRC2012-val-00033837.png,cat-0034-ILSVRC2012-val-00033837.png,1.0,1.3320332,0.4537524,0.6210383
alexnet_w3_mlp_simclrhn_probe3,1,356,NaN,oven,cat,0,0356_sty_dnn_0_cat_00_cat-0042-ILSVRC2012-val-00040238.png,cat-0042-ILSVRC2012-val-00040238.png,0.0,0.66715336,1.1628538,-0.3505132
alexnet_w3_mlp_simclrhn_probe3,1,357,NaN,cat,cat,0,0357_sty_dnn_0_cat_00_cat-0045-ILSVRC2012-val-00041570.png,cat-0045-ILSVRC2012-val-00041570.png,1.0,3.9065332,1.233962,1.8897933
alexnet_w3_mlp_simclrhn_probe3,1,358,NaN,bear,cat,0,0358_sty_dnn_0_cat_00_cat-0050-ILSVRC2012-val-00047911.png,cat-0050-ILSVRC2012-val-00047911.png,0.0,-0.04799332,0.65262055,-0.4954088
alexnet_w3_mlp_simclrhn_probe3,1,359,NaN,clock,cat,0,0359_sty_dnn_0_cat_00_cat-0054-ILSVRC2012-val-00003295.png,cat-0054-ILSVRC2012-val-00003295.png,0.0,-0.0724461,0.28164917,-0.25038317
alexnet_w3_mlp_simclrhn_probe3,1,360,NaN,bear,cat,0,0360_sty_dnn_0_cat_00_cat-0056-ILSVRC2012-val-00007676.png,cat-0056-ILSVRC2012-val-00007676.png,0.0,0.5585071,1.1690553,-0.43172282
alexnet_w3_mlp_simclrhn_probe3,1,361,NaN,bear,cat,0,0361_sty_dnn_0_cat_00_cat-0062-ILSVRC2012-val-00013788.png,cat-0062-ILSVRC2012-val-00013788.png,0.0,0.6351431,1.0726285,-0.30934888
alexnet_w3_mlp_simclrhn_probe3,1,362,NaN,chair,cat,0,0362_sty_dnn_0_cat_00_cat-0064-ILSVRC2012-val-00014860.png,cat-0064-ILSVRC2012-val-00014860.png,0.0,-0.55170673,1.2493031,-1.2735063
alexnet_w3_mlp_simclrhn_probe3,1,363,NaN,cat,cat,0,0363_sty_dnn_0_cat_00_cat-0069-ILSVRC2012-val-00016399.png,cat-0069-ILSVRC2012-val-00016399.png,1.0,0.6000893,0.5177139,0.05824821
alexnet_w3_mlp_simclrhn_probe3,1,364,NaN,cat,cat,0,0364_sty_dnn_0_cat_00_cat-0072-ILSVRC2012-val-00019303.png,cat-0072-ILSVRC2012-val-00019303.png,1.0,0.99061865,0.94802034,0.030121552
alexnet_w3_mlp_simclrhn_probe3,1,365,NaN,cat,cat,0,0365_sty_dnn_0_cat_00_cat-0073-ILSVRC2012-val-00020140.png,cat-0073-ILSVRC2012-val-00020140.png,1.0,1.1277455,0.7985667,0.23276457
alexnet_w3_mlp_simclrhn_probe3,1,366,NaN,bicycle,cat,0,0366_sty_dnn_0_cat_00_cat-0082-ILSVRC2012-val-00025723.png,cat-0082-ILSVRC2012-val-00025723.png,0.0,0.29369602,0.97865963,-0.4843424
alexnet_w3_mlp_simclrhn_probe3,1,367,NaN,cat,cat,0,0367_sty_dnn_0_cat_00_cat-0092-ILSVRC2012-val-00039621.png,cat-0092-ILSVRC2012-val-00039621.png,1.0,2.8897054,0.44400573,1.7293708
alexnet_w3_mlp_simclrhn_probe3,1,368,NaN,cat,cat,0,0368_sty_dnn_0_cat_00_cat-0096-ILSVRC2012-val-00045420.png,cat-0096-ILSVRC2012-val-00045420.png,1.0,1.4738573,1.3703992,0.07315589
alexnet_w3_mlp_simclrhn_probe3,1,369,NaN,keyboard,cat,0,0369_sty_dnn_0_cat_00_cat-0108-ILSVRC2012-val-00002967.png,cat-0108-ILSVRC2012-val-00002967.png,0.0,-0.47095934,1.1690099,-1.1596334
alexnet_w3_mlp_simclrhn_probe3,1,370,NaN,oven,cat,0,0370_sty_dnn_0_cat_00_cat-0110-ILSVRC2012-val-00004411.png,cat-0110-ILSVRC2012-val-00004411.png,0.0,0.49669328,1.1595387,-0.46870255
alexnet_w3_mlp_simclrhn_probe3,1,371,NaN,oven,cat,0,0371_sty_dnn_0_cat_00_cat-0113-ILSVRC2012-val-00007808.png,cat-0113-ILSVRC2012-val-00007808.png,0.0,-0.12158036,1.6158688,-1.2285621
alexnet_w3_mlp_simclrhn_probe3,1,372,NaN,cat,cat,0,0372_sty_dnn_0_cat_00_cat-0118-ILSVRC2012-val-00010218.png,cat-0118-ILSVRC2012-val-00010218.png,1.0,5.2554517,0.54898566,3.3279743
alexnet_w3_mlp_simclrhn_probe3,1,373,NaN,bear,cat,0,0373_sty_dnn_0_cat_00_cat-0123-ILSVRC2012-val-00014813.png,cat-0123-ILSVRC2012-val-00014813.png,0.0,0.96905494,1.134556,-0.11702696
alexnet_w3_mlp_simclrhn_probe3,1,374,NaN,cat,cat,0,0374_sty_dnn_0_cat_00_cat-0133-ILSVRC2012-val-00023898.png,cat-0133-ILSVRC2012-val-00023898.png,1.0,1.0209109,0.3200468,0.49558574
alexnet_w3_mlp_simclrhn_probe3,1,375,NaN,oven,cat,0,0375_sty_dnn_0_cat_00_cat-0137-ILSVRC2012-val-00027906.png,cat-0137-ILSVRC2012-val-00027906.png,0.0,0.28031224,0.8394209,-0.39534953
alexnet_w3_mlp_simclrhn_probe3,1,376,NaN,cat,cat,0,0376_sty_dnn_0_cat_00_cat-0147-ILSVRC2012-val-00041347.png,cat-0147-ILSVRC2012-val-00041347.png,1.0,4.6987605,1.1039529,2.5419128
alexnet_w3_mlp_simclrhn_probe3,1,377,NaN,oven,cat,0,0377_sty_dnn_0_cat_00_cat-0150-ILSVRC2012-val-00049996.png,cat-0150-ILSVRC2012-val-00049996.png,0.0,-0.012556903,0.67487353,-0.48608673
alexnet_w3_mlp_simclrhn_probe3,1,378,NaN,bear,cat,0,0378_sty_dnn_0_cat_00_cat-0160-ILSVRC2012-val-00011528.png,cat-0160-ILSVRC2012-val-00011528.png,0.0,0.84153986,1.887816,-0.73982894
alexnet_w3_mlp_simclrhn_probe3,1,379,NaN,oven,cat,0,0379_sty_dnn_0_cat_00_cat-0162-ILSVRC2012-val-00012173.png,cat-0162-ILSVRC2012-val-00012173.png,0.0,-0.015744364,1.3948579,-0.9974464
alexnet_w3_mlp_simclrhn_probe3,1,380,NaN,knife,cat,0,0380_sty_dnn_0_cat_00_cat-0165-ILSVRC2012-val-00017325.png,cat-0165-ILSVRC2012-val-00017325.png,0.0,-0.9270792,0.82170105,-1.2365744
alexnet_w3_mlp_simclrhn_probe3,1,381,NaN,oven,cat,0,0381_sty_dnn_0_cat_00_cat-0169-ILSVRC2012-val-00020688.png,cat-0169-ILSVRC2012-val-00020688.png,0.0,-0.010656538,0.96318436,-0.6886095
alexnet_w3_mlp_simclrhn_probe3,1,382,NaN,clock,cat,0,0382_sty_dnn_0_cat_00_cat-0185-ILSVRC2012-val-00038168.png,cat-0185-ILSVRC2012-val-00038168.png,0.0,-0.5848601,0.92439485,-1.0672044
alexnet_w3_mlp_simclrhn_probe3,1,383,NaN,oven,cat,0,0383_sty_dnn_0_cat_00_cat-0186-ILSVRC2012-val-00039580.png,cat-0186-ILSVRC2012-val-00039580.png,0.0,1.0659537,1.4453039,-0.2682411
alexnet_w3_mlp_simclrhn_probe3,1,384,NaN,chair,cat,0,0384_sty_dnn_0_cat_00_cat-0189-ILSVRC2012-val-00040854.png,cat-0189-ILSVRC2012-val-00040854.png,0.0,-0.7155749,4.1313853,-3.4273183
alexnet_w3_mlp_simclrhn_probe3,1,385,NaN,bear,cat,0,0385_sty_dnn_0_cat_00_cat-0202-ILSVRC2012-val-00001496.png,cat-0202-ILSVRC2012-val-00001496.png,0.0,0.50284433,1.8088341,-0.9234742
alexnet_w3_mlp_simclrhn_probe3,1,386,NaN,oven,cat,0,0386_sty_dnn_0_cat_00_cat-0234-ILSVRC2012-val-00028970.png,cat-0234-ILSVRC2012-val-00028970.png,0.0,0.2987618,1.3655981,-0.7543672
alexnet_w3_mlp_simclrhn_probe3,1,387,NaN,bicycle,cat,0,0387_sty_dnn_0_cat_00_cat-0236-ILSVRC2012-val-00031185.png,cat-0236-ILSVRC2012-val-00031185.png,0.0,0.22575963,0.84292305,-0.43640044
alexnet_w3_mlp_simclrhn_probe3,1,388,NaN,clock,cat,0,0388_sty_dnn_0_cat_00_cat-0238-ILSVRC2012-val-00033582.png,cat-0238-ILSVRC2012-val-00033582.png,0.0,-0.60551727,2.12298,-1.9293392
alexnet_w3_mlp_simclrhn_probe3,1,389,NaN,cat,cat,0,0389_sty_dnn_0_cat_00_cat-0242-ILSVRC2012-val-00040192.png,cat-0242-ILSVRC2012-val-00040192.png,1.0,0.9573755,0.16962706,0.5570223
alexnet_w3_mlp_simclrhn_probe3,1,390,NaN,bear,cat,0,0390_sty_dnn_0_cat_00_cat-0243-ILSVRC2012-val-00040600.png,cat-0243-ILSVRC2012-val-00040600.png,0.0,0.63837415,1.2579558,-0.43811038
alexnet_w3_mlp_simclrhn_probe3,1,391,NaN,cat,cat,0,0391_sty_dnn_0_cat_00_cat-0247-ILSVRC2012-val-00044374.png,cat-0247-ILSVRC2012-val-00044374.png,1.0,1.8013186,1.3906724,0.29037073
alexnet_w3_mlp_simclrhn_probe3,1,392,NaN,oven,cat,0,0392_sty_dnn_0_cat_00_cat-0258-ILSVRC2012-val-00006112.png,cat-0258-ILSVRC2012-val-00006112.png,0.0,0.96952885,2.9793215,-1.4211379
alexnet_w3_mlp_simclrhn_probe3,1,393,NaN,bicycle,cat,0,0393_sty_dnn_0_cat_00_cat-0260-ILSVRC2012-val-00006612.png,cat-0260-ILSVRC2012-val-00006612.png,0.0,-1.0197638,0.23433569,-0.8867823
alexnet_w3_mlp_simclrhn_probe3,1,394,NaN,cat,cat,0,0394_sty_dnn_0_cat_00_cat-0264-ILSVRC2012-val-00010823.png,cat-0264-ILSVRC2012-val-00010823.png,1.0,0.36794868,0.31970406,0.034114104
alexnet_w3_mlp_simclrhn_probe3,1,395,NaN,oven,cat,0,0395_sty_dnn_0_cat_00_cat-0270-ILSVRC2012-val-00017189.png,cat-0270-ILSVRC2012-val-00017189.png,0.0,1.6853815,2.3997164,-0.50511104
alexnet_w3_mlp_simclrhn_probe3,1,396,NaN,oven,cat,0,0396_sty_dnn_0_cat_00_cat-0274-ILSVRC2012-val-00019370.png,cat-0274-ILSVRC2012-val-00019370.png,0.0,-0.014361699,1.346185,-0.9620518
alexnet_w3_mlp_simclrhn_probe3,1,397,NaN,bicycle,cat,0,0397_sty_dnn_0_cat_00_cat-0284-ILSVRC2012-val-00027069.png,cat-0284-ILSVRC2012-val-00027069.png,0.0,-0.14476116,0.95566094,-0.778116
alexnet_w3_mlp_simclrhn_probe3,1,398,NaN,oven,cat,0,0398_sty_dnn_0_cat_00_cat-0291-ILSVRC2012-val-00035821.png,cat-0291-ILSVRC2012-val-00035821.png,0.0,0.32239208,2.218088,-1.3404593
alexnet_w3_mlp_simclrhn_probe3,1,399,NaN,clock,cat,0,0399_sty_dnn_0_cat_00_cat-0294-ILSVRC2012-val-00037633.png,cat-0294-ILSVRC2012-val-00037633.png,0.0,-0.53550726,0.91055185,-1.0225183
alexnet_w3_mlp_simclrhn_probe3,1,400,NaN,cat,cat,0,0400_sty_dnn_0_cat_00_cat-0298-ILSVRC2012-val-00042529.png,cat-0298-ILSVRC2012-val-00042529.png,1.0,0.34896982,0.34516442,0.0026908235
alexnet_w3_mlp_simclrhn_probe3,1,401,NaN,oven,chair,0,0401_sty_dnn_0_chair_00_chair-0006-ILSVRC2012-val-00004679.png,chair-0006-ILSVRC2012-val-00004679.png,0.0,-0.30590212,0.649717,-0.67572474
alexnet_w3_mlp_simclrhn_probe3,1,402,NaN,chair,chair,0,0402_sty_dnn_0_chair_00_chair-0018-ILSVRC2012-val-00013838.png,chair-0018-ILSVRC2012-val-00013838.png,1.0,1.6616203,0.6202062,0.73639095
alexnet_w3_mlp_simclrhn_probe3,1,403,NaN,chair,chair,0,0403_sty_dnn_0_chair_00_chair-0022-ILSVRC2012-val-00016403.png,chair-0022-ILSVRC2012-val-00016403.png,1.0,2.0510242,1.6234143,0.30236587
alexnet_w3_mlp_simclrhn_probe3,1,404,NaN,elephant,chair,0,0404_sty_dnn_0_chair_00_chair-0024-ILSVRC2012-val-00021099.png,chair-0024-ILSVRC2012-val-00021099.png,0.0,-0.5461118,1.0279993,-1.1130646
alexnet_w3_mlp_simclrhn_probe3,1,405,NaN,oven,chair,0,0405_sty_dnn_0_chair_00_chair-0030-ILSVRC2012-val-00026896.png,chair-0030-ILSVRC2012-val-00026896.png,0.0,0.6757773,2.2719078,-1.1286347
alexnet_w3_mlp_simclrhn_probe3,1,406,NaN,oven,chair,0,0406_sty_dnn_0_chair_00_chair-0033-ILSVRC2012-val-00031805.png,chair-0033-ILSVRC2012-val-00031805.png,0.0,0.0008299276,1.2540565,-0.88616496
alexnet_w3_mlp_simclrhn_probe3,1,407,NaN,oven,chair,0,0407_sty_dnn_0_chair_00_chair-0039-ILSVRC2012-val-00041772.png,chair-0039-ILSVRC2012-val-00041772.png,0.0,-0.59380245,0.58571404,-0.83404416
alexnet_w3_mlp_simclrhn_probe3,1,408,NaN,oven,chair,0,0408_sty_dnn_0_chair_00_chair-0040-ILSVRC2012-val-00042512.png,chair-0040-ILSVRC2012-val-00042512.png,0.0,-0.5804362,1.3377548,-1.3563659
alexnet_w3_mlp_simclrhn_probe3,1,409,NaN,knife,chair,0,0409_sty_dnn_0_chair_00_chair-0045-ILSVRC2012-val-00044898.png,chair-0045-ILSVRC2012-val-00044898.png,0.0,0.069476515,0.7681497,-0.49403653
alexnet_w3_mlp_simclrhn_probe3,1,410,NaN,clock,chair,0,0410_sty_dnn_0_chair_00_chair-0047-ILSVRC2012-val-00045407.png,chair-0047-ILSVRC2012-val-00045407.png,0.0,0.0047098473,0.8229607,-0.57859075
alexnet_w3_mlp_simclrhn_probe3,1,411,NaN,oven,chair,0,0411_sty_dnn_0_chair_00_chair-0050-ILSVRC2012-val-00049050.png,chair-0050-ILSVRC2012-val-00049050.png,0.0,-0.63376427,1.3913028,-1.4319386
alexnet_w3_mlp_simclrhn_probe3,1,412,NaN,oven,chair,0,0412_sty_dnn_0_chair_00_chair-0051-ILSVRC2012-val-00001616.png,chair-0051-ILSVRC2012-val-00001616.png,0.0,-0.19219434,0.9090406,-0.7786907
alexnet_w3_mlp_simclrhn_probe3,1,413,NaN,bicycle,chair,0,0413_sty_dnn_0_chair_00_chair-0053-ILSVRC2012-val-00001855.png,chair-0053-ILSVRC2012-val-00001855.png,0.0,0.24134056,2.305973,-1.4599156
alexnet_w3_mlp_simclrhn_probe3,1,414,NaN,bicycle,chair,0,0414_sty_dnn_0_chair_00_chair-0058-ILSVRC2012-val-00005926.png,chair-0058-ILSVRC2012-val-00005926.png,0.0,-0.12303339,0.19505699,-0.22492386
alexnet_w3_mlp_simclrhn_probe3,1,415,NaN,oven,chair,0,0415_sty_dnn_0_chair_00_chair-0059-ILSVRC2012-val-00006022.png,chair-0059-ILSVRC2012-val-00006022.png,0.0,0.82434726,1.5278382,-0.49744326
alexnet_w3_mlp_simclrhn_probe3,1,416,NaN,bear,chair,0,0416_sty_dnn_0_chair_00_chair-0072-ILSVRC2012-val-00015559.png,chair-0072-ILSVRC2012-val-00015559.png,0.0,-0.43335485,0.786468,-0.8625451
alexnet_w3_mlp_simclrhn_probe3,1,417,NaN,boat,chair,0,0417_sty_dnn_0_chair_00_chair-0081-ILSVRC2012-val-00033069.png,chair-0081-ILSVRC2012-val-00033069.png,0.0,1.0338972,1.9325186,-0.63542134
alexnet_w3_mlp_simclrhn_probe3,1,418,NaN,bicycle,chair,0,0418_sty_dnn_0_chair_00_chair-0085-ILSVRC2012-val-00036175.png,chair-0085-ILSVRC2012-val-00036175.png,0.0,1.733454,2.760353,-0.7261273
alexnet_w3_mlp_simclrhn_probe3,1,419,NaN,oven,chair,0,0419_sty_dnn_0_chair_00_chair-0087-ILSVRC2012-val-00037905.png,chair-0087-ILSVRC2012-val-00037905.png,0.0,1.0539188,1.405524,-0.2486224
alexnet_w3_mlp_simclrhn_probe3,1,420,NaN,oven,chair,0,0420_sty_dnn_0_chair_00_chair-0092-ILSVRC2012-val-00041814.png,chair-0092-ILSVRC2012-val-00041814.png,0.0,0.31007785,1.3249239,-0.7176046
alexnet_w3_mlp_simclrhn_probe3,1,421,NaN,bicycle,chair,0,0421_sty_dnn_0_chair_00_chair-0097-ILSVRC2012-val-00043453.png,chair-0097-ILSVRC2012-val-00043453.png,0.0,0.068615824,1.0458766,-0.69102776
alexnet_w3_mlp_simclrhn_probe3,1,422,NaN,oven,chair,0,0422_sty_dnn_0_chair_00_chair-0098-ILSVRC2012-val-00044181.png,chair-0098-ILSVRC2012-val-00044181.png,0.0,0.0065635443,1.1421101,-0.8029527
alexnet_w3_mlp_simclrhn_probe3,1,423,NaN,chair,chair,0,0423_sty_dnn_0_chair_00_chair-0116-ILSVRC2012-val-00017447.png,chair-0116-ILSVRC2012-val-00017447.png,1.0,2.2548032,0.9276783,0.938419
alexnet_w3_mlp_simclrhn_probe3,1,424,NaN,chair,chair,0,0424_sty_dnn_0_chair_00_chair-0118-ILSVRC2012-val-00018123.png,chair-0118-ILSVRC2012-val-00018123.png,1.0,2.4765003,1.8323972,0.45544964
alexnet_w3_mlp_simclrhn_probe3,1,425,NaN,bear,chair,0,0425_sty_dnn_0_chair_00_chair-0119-ILSVRC2012-val-00018206.png,chair-0119-ILSVRC2012-val-00018206.png,0.0,-0.42792392,0.97546774,-0.9923477
alexnet_w3_mlp_simclrhn_probe3,1,426,NaN,chair,chair,0,0426_sty_dnn_0_chair_00_chair-0122-ILSVRC2012-val-00019867.png,chair-0122-ILSVRC2012-val-00019867.png,1.0,1.4549477,1.3728127,0.05807819
alexnet_w3_mlp_simclrhn_probe3,1,427,NaN,oven,chair,0,0427_sty_dnn_0_chair_00_chair-0123-ILSVRC2012-val-00020924.png,chair-0123-ILSVRC2012-val-00020924.png,0.0,-0.3584578,1.3629671,-1.2172313
alexnet_w3_mlp_simclrhn_probe3,1,428,NaN,bear,chair,0,0428_sty_dnn_0_chair_00_chair-0124-ILSVRC2012-val-00022208.png,chair-0124-ILSVRC2012-val-00022208.png,0.0,-0.79668623,1.0808305,-1.3276049
alexnet_w3_mlp_simclrhn_probe3,1,429,NaN,oven,chair,0,0429_sty_dnn_0_chair_00_chair-0127-ILSVRC2012-val-00024620.png,chair-0127-ILSVRC2012-val-00024620.png,0.0,0.69608593,2.6232266,-1.3626943
alexnet_w3_mlp_simclrhn_probe3,1,430,NaN,oven,chair,0,0430_sty_dnn_0_chair_00_chair-0133-ILSVRC2012-val-00033406.png,chair-0133-ILSVRC2012-val-00033406.png,0.0,0.015608486,0.29168752,-0.19521736
alexnet_w3_mlp_simclrhn_probe3,1,431,NaN,chair,chair,0,0431_sty_dnn_0_chair_00_chair-0136-ILSVRC2012-val-00037994.png,chair-0136-ILSVRC2012-val-00037994.png,1.0,1.7306013,1.6940533,0.025843352
alexnet_w3_mlp_simclrhn_probe3,1,432,NaN,oven,chair,0,0432_sty_dnn_0_chair_00_chair-0138-ILSVRC2012-val-00038750.png,chair-0138-ILSVRC2012-val-00038750.png,0.0,-0.44765258,1.9005389,-1.6604222
alexnet_w3_mlp_simclrhn_probe3,1,433,NaN,bottle,chair,0,0433_sty_dnn_0_chair_00_chair-0141-ILSVRC2012-val-00040076.png,chair-0141-ILSVRC2012-val-00040076.png,0.0,-0.420173,0.5417713,-0.68019736
alexnet_w3_mlp_simclrhn_probe3,1,434,NaN,oven,chair,0,0434_sty_dnn_0_chair_00_chair-0150-ILSVRC2012-val-00048622.png,chair-0150-ILSVRC2012-val-00048622.png,0.0,-0.62884784,0.58324105,-0.8570762
alexnet_w3_mlp_simclrhn_probe3,1,435,NaN,oven,chair,0,0435_sty_dnn_0_chair_00_chair-0154-ILSVRC2012-val-00004705.png,chair-0154-ILSVRC2012-val-00004705.png,0.0,-0.010313839,0.8694412,-0.62208074
alexnet_w3_mlp_simclrhn_probe3,1,436,NaN,oven,chair,0,0436_sty_dnn_0_chair_00_chair-0155-ILSVRC2012-val-00005160.png,chair-0155-ILSVRC2012-val-00005160.png,0.0,-0.08977036,1.6239574,-1.2117885
alexnet_w3_mlp_simclrhn_probe3,1,437,NaN,oven,chair,0,0437_sty_dnn_0_chair_00_chair-0159-ILSVRC2012-val-00011028.png,chair-0159-ILSVRC2012-val-00011028.png,0.0,-0.21852972,0.7638977,-0.6946811
alexnet_w3_mlp_simclrhn_probe3,1,438,NaN,chair,chair,0,0438_sty_dnn_0_chair_00_chair-0160-ILSVRC2012-val-00012040.png,chair-0160-ILSVRC2012-val-00012040.png,1.0,2.6672277,1.1262605,1.0896283
alexnet_w3_mlp_simclrhn_probe3,1,439,NaN,chair,chair,0,0439_sty_dnn_0_chair_00_chair-0169-ILSVRC2012-val-00019913.png,chair-0169-ILSVRC2012-val-00019913.png,1.0,2.8328972,1.1098251,1.218396
alexnet_w3_mlp_simclrhn_probe3,1,440,NaN,knife,chair,0,0440_sty_dnn_0_chair_00_chair-0170-ILSVRC2012-val-00022051.png,chair-0170-ILSVRC2012-val-00022051.png,0.0,-2.2470527,-0.19397873,-1.4517425
alexnet_w3_mlp_simclrhn_probe3,1,441,NaN,oven,chair,0,0441_sty_dnn_0_chair_00_chair-0172-ILSVRC2012-val-00023378.png,chair-0172-ILSVRC2012-val-00023378.png,0.0,-0.32074565,0.5955046,-0.64788675
alexnet_w3_mlp_simclrhn_probe3,1,442,NaN,bicycle,chair,0,0442_sty_dnn_0_chair_00_chair-0181-ILSVRC2012-val-00033160.png,chair-0181-ILSVRC2012-val-00033160.png,0.0,-0.076040745,1.1010616,-0.8323371
alexnet_w3_mlp_simclrhn_probe3,1,443,NaN,bottle,chair,0,0443_sty_dnn_0_chair_00_chair-0183-ILSVRC2012-val-00035142.png,chair-0183-ILSVRC2012-val-00035142.png,0.0,-1.2513902,0.6398706,-1.3373234
alexnet_w3_mlp_simclrhn_probe3,1,444,NaN,keyboard,chair,0,0444_sty_dnn_0_chair_00_chair-0188-ILSVRC2012-val-00041720.png,chair-0188-ILSVRC2012-val-00041720.png,0.0,-0.79762644,0.69469154,-1.0552281
alexnet_w3_mlp_simclrhn_probe3,1,445,NaN,oven,chair,0,0445_sty_dnn_0_chair_00_chair-0189-ILSVRC2012-val-00041883.png,chair-0189-ILSVRC2012-val-00041883.png,0.0,-0.4451936,0.8696125,-0.9297083
alexnet_w3_mlp_simclrhn_probe3,1,446,NaN,oven,chair,0,0446_sty_dnn_0_chair_00_chair-0192-ILSVRC2012-val-00043870.png,chair-0192-ILSVRC2012-val-00043870.png,0.0,-0.380949,2.1576085,-1.7950313
alexnet_w3_mlp_simclrhn_probe3,1,447,NaN,oven,chair,0,0447_sty_dnn_0_chair_00_chair-0193-ILSVRC2012-val-00044295.png,chair-0193-ILSVRC2012-val-00044295.png,0.0,0.91895056,1.6563537,-0.5214228
alexnet_w3_mlp_simclrhn_probe3,1,448,NaN,oven,chair,0,0448_sty_dnn_0_chair_00_chair-0195-ILSVRC2012-val-00045464.png,chair-0195-ILSVRC2012-val-00045464.png,0.0,2.6995707,3.0581918,-0.25358343
alexnet_w3_mlp_simclrhn_probe3,1,449,NaN,oven,chair,0,0449_sty_dnn_0_chair_00_chair-0196-ILSVRC2012-val-00045844.png,chair-0196-ILSVRC2012-val-00045844.png,0.0,-0.16946383,1.033473,-0.85060483
alexnet_w3_mlp_simclrhn_probe3,1,450,NaN,oven,chair,0,0450_sty_dnn_0_chair_00_chair-0199-ILSVRC2012-val-00048901.png,chair-0199-ILSVRC2012-val-00048901.png,0.0,-0.056195155,1.9359051,-1.4086276
alexnet_w3_mlp_simclrhn_probe3,1,451,NaN,clock,clock,0,0451_sty_dnn_0_clock_00_clock-0001-ILSVRC2012-val-00001011.png,clock-0001-ILSVRC2012-val-00001011.png,1.0,0.8739834,0.2985254,0.40691024
alexnet_w3_mlp_simclrhn_probe3,1,452,NaN,bicycle,clock,0,0452_sty_dnn_0_clock_00_clock-0007-ILSVRC2012-val-00005490.png,clock-0007-ILSVRC2012-val-00005490.png,0.0,-0.32920843,0.3379833,-0.4717758
alexnet_w3_mlp_simclrhn_probe3,1,453,NaN,clock,clock,0,0453_sty_dnn_0_clock_00_clock-0008-ILSVRC2012-val-00005558.png,clock-0008-ILSVRC2012-val-00005558.png,1.0,1.9906731,1.1646196,0.58410805
alexnet_w3_mlp_simclrhn_probe3,1,454,NaN,clock,clock,0,0454_sty_dnn_0_clock_00_clock-0010-ILSVRC2012-val-00006858.png,clock-0010-ILSVRC2012-val-00006858.png,1.0,1.3775908,1.1297843,0.17522562
alexnet_w3_mlp_simclrhn_probe3,1,455,NaN,bicycle,clock,0,0455_sty_dnn_0_clock_00_clock-0013-ILSVRC2012-val-00013244.png,clock-0013-ILSVRC2012-val-00013244.png,0.0,1.0861481,1.0978665,-0.008286155
alexnet_w3_mlp_simclrhn_probe3,1,456,NaN,oven,clock,0,0456_sty_dnn_0_clock_00_clock-0018-ILSVRC2012-val-00015871.png,clock-0018-ILSVRC2012-val-00015871.png,0.0,0.68919706,0.7504796,-0.043333285
alexnet_w3_mlp_simclrhn_probe3,1,457,NaN,clock,clock,0,0457_sty_dnn_0_clock_00_clock-0020-ILSVRC2012-val-00016889.png,clock-0020-ILSVRC2012-val-00016889.png,1.0,0.727151,0.5429163,0.1302736
alexnet_w3_mlp_simclrhn_probe3,1,458,NaN,clock,clock,0,0458_sty_dnn_0_clock_00_clock-0023-ILSVRC2012-val-00017973.png,clock-0023-ILSVRC2012-val-00017973.png,1.0,3.5911782,1.976849,1.1415032
alexnet_w3_mlp_simclrhn_probe3,1,459,NaN,clock,clock,0,0459_sty_dnn_0_clock_00_clock-0025-ILSVRC2012-val-00019663.png,clock-0025-ILSVRC2012-val-00019663.png,1.0,2.1886568,0.94541067,0.8791078
alexnet_w3_mlp_simclrhn_probe3,1,460,NaN,oven,clock,0,0460_sty_dnn_0_clock_00_clock-0028-ILSVRC2012-val-00021179.png,clock-0028-ILSVRC2012-val-00021179.png,0.0,0.18056273,2.098053,-1.3558704
alexnet_w3_mlp_simclrhn_probe3,1,461,NaN,clock,clock,0,0461_sty_dnn_0_clock_00_clock-0029-ILSVRC2012-val-00022719.png,clock-0029-ILSVRC2012-val-00022719.png,1.0,1.6618353,1.5928103,0.048808075
alexnet_w3_mlp_simclrhn_probe3,1,462,NaN,oven,clock,0,0462_sty_dnn_0_clock_00_clock-0032-ILSVRC2012-val-00024425.png,clock-0032-ILSVRC2012-val-00024425.png,0.0,0.37048522,1.8852947,-1.0711321
alexnet_w3_mlp_simclrhn_probe3,1,463,NaN,oven,clock,0,0463_sty_dnn_0_clock_00_clock-0034-ILSVRC2012-val-00026380.png,clock-0034-ILSVRC2012-val-00026380.png,0.0,0.005835891,0.6823075,-0.47833765
alexnet_w3_mlp_simclrhn_probe3,1,464,NaN,knife,clock,0,0464_sty_dnn_0_clock_00_clock-0038-ILSVRC2012-val-00032489.png,clock-0038-ILSVRC2012-val-00032489.png,0.0,0.58905685,0.5893315,-0.00019421268
alexnet_w3_mlp_simclrhn_probe3,1,465,NaN,oven,clock,0,0465_sty_dnn_0_clock_00_clock-0039-ILSVRC2012-val-00033429.png,clock-0039-ILSVRC2012-val-00033429.png,0.0,0.1827011,0.9647247,-0.5529742
alexnet_w3_mlp_simclrhn_probe3,1,466,NaN,clock,clock,0,0466_sty_dnn_0_clock_00_clock-0040-ILSVRC2012-val-00035392.png,clock-0040-ILSVRC2012-val-00035392.png,1.0,5.926931,-0.0045582354,4.194196
alexnet_w3_mlp_simclrhn_probe3,1,467,NaN,bicycle,clock,0,0467_sty_dnn_0_clock_00_clock-0043-ILSVRC2012-val-00041613.png,clock-0043-ILSVRC2012-val-00041613.png,0.0,1.719952,2.7451532,-0.7249267
alexnet_w3_mlp_simclrhn_probe3,1,468,NaN,oven,clock,0,0468_sty_dnn_0_clock_00_clock-0045-ILSVRC2012-val-00043497.png,clock-0045-ILSVRC2012-val-00043497.png,0.0,1.5462092,1.6563337,-0.07786976
alexnet_w3_mlp_simclrhn_probe3,1,469,NaN,oven,clock,0,0469_sty_dnn_0_clock_00_clock-0046-ILSVRC2012-val-00044049.png,clock-0046-ILSVRC2012-val-00044049.png,0.0,0.16565341,1.7592609,-1.1268506
alexnet_w3_mlp_simclrhn_probe3,1,470,NaN,oven,clock,0,0470_sty_dnn_0_clock_00_clock-0048-ILSVRC2012-val-00044752.png,clock-0048-ILSVRC2012-val-00044752.png,0.0,0.81767035,1.6437755,-0.58414453
alexnet_w3_mlp_simclrhn_probe3,1,471,NaN,cat,clock,0,0471_sty_dnn_0_clock_00_clock-0052-ILSVRC2012-val-00003721.png,clock-0052-ILSVRC2012-val-00003721.png,0.0,-0.23427005,0.45653656,-0.48847407
alexnet_w3_mlp_simclrhn_probe3,1,472,NaN,oven,clock,0,0472_sty_dnn_0_clock_00_clock-0054-ILSVRC2012-val-00008751.png,clock-0054-ILSVRC2012-val-00008751.png,0.0,0.06252512,1.1431028,-0.76408374
alexnet_w3_mlp_simclrhn_probe3,1,473,NaN,clock,clock,0,0473_sty_dnn_0_clock_00_clock-0062-ILSVRC2012-val-00014987.png,clock-0062-ILSVRC2012-val-00014987.png,1.0,2.2797506,1.6330438,0.4572908
alexnet_w3_mlp_simclrhn_probe3,1,474,NaN,clock,clock,0,0474_sty_dnn_0_clock_00_clock-0063-ILSVRC2012-val-00015628.png,clock-0063-ILSVRC2012-val-00015628.png,1.0,0.80394983,0.70385,0.07078129
alexnet_w3_mlp_simclrhn_probe3,1,475,NaN,chair,clock,0,0475_sty_dnn_0_clock_00_clock-0073-ILSVRC2012-val-00026298.png,clock-0073-ILSVRC2012-val-00026298.png,0.0,0.37693343,0.8431329,-0.32965282
alexnet_w3_mlp_simclrhn_probe3,1,476,NaN,oven,clock,0,0476_sty_dnn_0_clock_00_clock-0076-ILSVRC2012-val-00028203.png,clock-0076-ILSVRC2012-val-00028203.png,0.0,0.14466695,0.96203667,-0.57796764
alexnet_w3_mlp_simclrhn_probe3,1,477,NaN,bottle,clock,0,0477_sty_dnn_0_clock_00_clock-0080-ILSVRC2012-val-00032946.png,clock-0080-ILSVRC2012-val-00032946.png,0.0,0.6310597,0.8037928,-0.12214073
alexnet_w3_mlp_simclrhn_probe3,1,478,NaN,bicycle,clock,0,0478_sty_dnn_0_clock_00_clock-0082-ILSVRC2012-val-00033627.png,clock-0082-ILSVRC2012-val-00033627.png,0.0,-0.27287033,0.8170121,-0.7706632
alexnet_w3_mlp_simclrhn_probe3,1,479,NaN,bottle,clock,0,0479_sty_dnn_0_clock_00_clock-0084-ILSVRC2012-val-00034426.png,clock-0084-ILSVRC2012-val-00034426.png,0.0,1.243991,3.2047627,-1.386475
alexnet_w3_mlp_simclrhn_probe3,1,480,NaN,oven,clock,0,0480_sty_dnn_0_clock_00_clock-0086-ILSVRC2012-val-00041483.png,clock-0086-ILSVRC2012-val-00041483.png,0.0,0.50547916,1.8657037,-0.961824
alexnet_w3_mlp_simclrhn_probe3,1,481,NaN,oven,clock,0,0481_sty_dnn_0_clock_00_clock-0089-ILSVRC2012-val-00042911.png,clock-0089-ILSVRC2012-val-00042911.png,0.0,0.28208148,1.2193418,-0.6627431
alexnet_w3_mlp_simclrhn_probe3,1,482,NaN,bicycle,clock,0,0482_sty_dnn_0_clock_00_clock-0091-ILSVRC2012-val-00044029.png,clock-0091-ILSVRC2012-val-00044029.png,0.0,-0.042901248,0.7534559,-0.5631096
alexnet_w3_mlp_simclrhn_probe3,1,483,NaN,oven,clock,0,0483_sty_dnn_0_clock_00_clock-0092-ILSVRC2012-val-00044168.png,clock-0092-ILSVRC2012-val-00044168.png,0.0,-0.062382262,1.2599458,-0.93502706
alexnet_w3_mlp_simclrhn_probe3,1,484,NaN,oven,clock,0,0484_sty_dnn_0_clock_00_clock-0098-ILSVRC2012-val-00048682.png,clock-0098-ILSVRC2012-val-00048682.png,0.0,-0.2487036,0.78112394,-0.7281981
alexnet_w3_mlp_simclrhn_probe3,1,485,NaN,oven,clock,0,0485_sty_dnn_0_clock_00_clock-0100-ILSVRC2012-val-00049759.png,clock-0100-ILSVRC2012-val-00049759.png,0.0,0.1074369,0.87303746,-0.54136133
alexnet_w3_mlp_simclrhn_probe3,1,486,NaN,oven,clock,0,0486_sty_dnn_0_clock_00_clock-0106-ILSVRC2012-val-00009413.png,clock-0106-ILSVRC2012-val-00009413.png,0.0,0.35329804,0.69048345,-0.23842609
alexnet_w3_mlp_simclrhn_probe3,1,487,NaN,oven,clock,0,0487_sty_dnn_0_clock_00_clock-0107-ILSVRC2012-val-00010270.png,clock-0107-ILSVRC2012-val-00010270.png,0.0,0.68733746,1.0203419,-0.23546968
alexnet_w3_mlp_simclrhn_probe3,1,488,NaN,clock,clock,0,0488_sty_dnn_0_clock_00_clock-0108-ILSVRC2012-val-00011957.png,clock-0108-ILSVRC2012-val-00011957.png,1.0,1.3040018,0.9847604,0.22573777
alexnet_w3_mlp_simclrhn_probe3,1,489,NaN,clock,clock,0,0489_sty_dnn_0_clock_00_clock-0110-ILSVRC2012-val-00014035.png,clock-0110-ILSVRC2012-val-00014035.png,1.0,1.3397814,1.1224359,0.15368646
alexnet_w3_mlp_simclrhn_probe3,1,490,NaN,oven,clock,0,0490_sty_dnn_0_clock_00_clock-0112-ILSVRC2012-val-00014635.png,clock-0112-ILSVRC2012-val-00014635.png,0.0,0.15214254,2.0918841,-1.3716044
alexnet_w3_mlp_simclrhn_probe3,1,491,NaN,clock,clock,0,0491_sty_dnn_0_clock_00_clock-0118-ILSVRC2012-val-00018443.png,clock-0118-ILSVRC2012-val-00018443.png,1.0,1.0931108,0.70511156,0.2743569
alexnet_w3_mlp_simclrhn_probe3,1,492,NaN,bottle,clock,0,0492_sty_dnn_0_clock_00_clock-0119-ILSVRC2012-val-00018797.png,clock-0119-ILSVRC2012-val-00018797.png,0.0,0.3787059,0.9692931,-0.41760826
alexnet_w3_mlp_simclrhn_probe3,1,493,NaN,oven,clock,0,0493_sty_dnn_0_clock_00_clock-0127-ILSVRC2012-val-00030330.png,clock-0127-ILSVRC2012-val-00030330.png,0.0,0.06641691,0.7375653,-0.47457355
alexnet_w3_mlp_simclrhn_probe3,1,494,NaN,bicycle,clock,0,0494_sty_dnn_0_clock_00_clock-0128-ILSVRC2012-val-00030987.png,clock-0128-ILSVRC2012-val-00030987.png,0.0,1.063223,1.716245,-0.46175632
alexnet_w3_mlp_simclrhn_probe3,1,495,NaN,bottle,clock,0,0495_sty_dnn_0_clock_00_clock-0129-ILSVRC2012-val-00031861.png,clock-0129-ILSVRC2012-val-00031861.png,0.0,0.21655571,1.2948438,-0.7624648
alexnet_w3_mlp_simclrhn_probe3,1,496,NaN,clock,clock,0,0496_sty_dnn_0_clock_00_clock-0130-ILSVRC2012-val-00032136.png,clock-0130-ILSVRC2012-val-00032136.png,1.0,1.9966022,0.45732263,1.088435
alexnet_w3_mlp_simclrhn_probe3,1,497,NaN,clock,clock,0,0497_sty_dnn_0_clock_00_clock-0142-ILSVRC2012-val-00041461.png,clock-0142-ILSVRC2012-val-00041461.png,1.0,2.1804562,1.6720505,0.3594971
alexnet_w3_mlp_simclrhn_probe3,1,498,NaN,oven,clock,0,0498_sty_dnn_0_clock_00_clock-0143-ILSVRC2012-val-00041547.png,clock-0143-ILSVRC2012-val-00041547.png,0.0,0.13190918,0.5082924,-0.2661431
alexnet_w3_mlp_simclrhn_probe3,1,499,NaN,clock,clock,0,0499_sty_dnn_0_clock_00_clock-0144-ILSVRC2012-val-00041715.png,clock-0144-ILSVRC2012-val-00041715.png,1.0,3.1182258,0.7795885,1.6536664
alexnet_w3_mlp_simclrhn_probe3,1,500,NaN,oven,clock,0,0500_sty_dnn_0_clock_00_clock-0145-ILSVRC2012-val-00044685.png,clock-0145-ILSVRC2012-val-00044685.png,0.0,-0.53461313,1.3978031,-1.3664247
alexnet_w3_mlp_simclrhn_probe3,1,501,NaN,oven,dog,0,0501_sty_dnn_0_dog_00_dog-0099-ILSVRC2012-val-00048280.png,dog-0099-ILSVRC2012-val-00048280.png,0.0,0.12632367,0.581884,-0.32212982
alexnet_w3_mlp_simclrhn_probe3,1,502,NaN,oven,dog,0,0502_sty_dnn_0_dog_00_dog-0158-ILSVRC2012-val-00004081.png,dog-0158-ILSVRC2012-val-00004081.png,0.0,0.052684315,1.4309599,-0.97458804
alexnet_w3_mlp_simclrhn_probe3,1,503,NaN,oven,dog,0,0503_sty_dnn_0_dog_00_dog-0220-ILSVRC2012-val-00017568.png,dog-0220-ILSVRC2012-val-00017568.png,0.0,-0.16939522,0.42996004,-0.4238082
alexnet_w3_mlp_simclrhn_probe3,1,504,NaN,elephant,dog,0,0504_sty_dnn_0_dog_00_dog-0247-ILSVRC2012-val-00045683.png,dog-0247-ILSVRC2012-val-00045683.png,0.0,0.083564565,0.80282605,-0.5085947
alexnet_w3_mlp_simclrhn_probe3,1,505,NaN,bear,dog,0,0505_sty_dnn_0_dog_00_dog-0303-ILSVRC2012-val-00002521.png,dog-0303-ILSVRC2012-val-00002521.png,0.0,0.7604855,1.4974664,-0.52112424
alexnet_w3_mlp_simclrhn_probe3,1,506,NaN,oven,dog,0,0506_sty_dnn_0_dog_00_dog-0386-ILSVRC2012-val-00034616.png,dog-0386-ILSVRC2012-val-00034616.png,0.0,0.3028365,0.97562885,-0.47573602
alexnet_w3_mlp_simclrhn_probe3,1,507,NaN,knife,dog,0,0507_sty_dnn_0_dog_00_dog-0397-ILSVRC2012-val-00044140.png,dog-0397-ILSVRC2012-val-00044140.png,0.0,-0.08049515,0.47799283,-0.39491066
alexnet_w3_mlp_simclrhn_probe3,1,508,NaN,bear,dog,0,0508_sty_dnn_0_dog_00_dog-0779-ILSVRC2012-val-00033666.png,dog-0779-ILSVRC2012-val-00033666.png,0.0,0.26495183,1.434573,-0.8270471
alexnet_w3_mlp_simclrhn_probe3,1,509,NaN,bear,dog,0,0509_sty_dnn_0_dog_00_dog-1178-ILSVRC2012-val-00022137.png,dog-1178-ILSVRC2012-val-00022137.png,0.0,0.79324776,1.0327756,-0.1693718
alexnet_w3_mlp_simclrhn_probe3,1,510,NaN,oven,dog,0,0510_sty_dnn_0_dog_00_dog-1191-ILSVRC2012-val-00037989.png,dog-1191-ILSVRC2012-val-00037989.png,0.0,-0.24925597,0.79697895,-0.73979986
alexnet_w3_mlp_simclrhn_probe3,1,511,NaN,dog,dog,0,0511_sty_dnn_0_dog_00_dog-1398-ILSVRC2012-val-00046547.png,dog-1398-ILSVRC2012-val-00046547.png,1.0,0.3380472,0.18507439,0.10816812
alexnet_w3_mlp_simclrhn_probe3,1,512,NaN,knife,dog,0,0512_sty_dnn_0_dog_00_dog-1538-ILSVRC2012-val-00038167.png,dog-1538-ILSVRC2012-val-00038167.png,0.0,-0.49382976,1.0600039,-1.0987263
alexnet_w3_mlp_simclrhn_probe3,1,513,NaN,chair,dog,0,0513_sty_dnn_0_dog_00_dog-1613-ILSVRC2012-val-00015923.png,dog-1613-ILSVRC2012-val-00015923.png,0.0,0.13675171,0.96407473,-0.5850057
alexnet_w3_mlp_simclrhn_probe3,1,514,NaN,oven,dog,0,0514_sty_dnn_0_dog_00_dog-1734-ILSVRC2012-val-00031377.png,dog-1734-ILSVRC2012-val-00031377.png,0.0,-0.2683078,1.6631681,-1.3657597
alexnet_w3_mlp_simclrhn_probe3,1,515,NaN,cat,dog,0,0515_sty_dnn_0_dog_00_dog-1735-ILSVRC2012-val-00031764.png,dog-1735-ILSVRC2012-val-00031764.png,0.0,0.08562137,0.34912643,-0.1863262
alexnet_w3_mlp_simclrhn_probe3,1,516,NaN,chair,dog,0,0516_sty_dnn_0_dog_00_dog-1881-ILSVRC2012-val-00028322.png,dog-1881-ILSVRC2012-val-00028322.png,0.0,-0.4258565,2.7877352,-2.2723527
