subj,session,trial,rt,object_response,category,condition,imagename,filename,is_correct,targ_act,max_nontarg_act,decision_margin
alexnet_w1_mlp_simclrhn_probe0,1,1,NaN,clock,chair,40,0001_lp_dnn_40_chair_10_n04099969_7577.png,n04099969_7577.png,0.0,-1.2327341,-0.13659938,-0.77508426
alexnet_w1_mlp_simclrhn_probe0,1,2,NaN,clock,cat,40,0002_lp_dnn_40_cat_10_n02124075_12815.png,n02124075_12815.png,0.0,-0.9180371,-0.005457277,-0.6452914
alexnet_w1_mlp_simclrhn_probe0,1,3,NaN,keyboard,truck,5,0003_lp_dnn_5_truck_10_n04467665_34253.png,n04467665_34253.png,0.0,-2.8507497,-0.158122,-1.9039754
alexnet_w1_mlp_simclrhn_probe0,1,4,NaN,bottle,clock,1,0004_lp_dnn_1_clock_10_n04548280_5320.png,n04548280_5320.png,0.0,-3.6133583,-3.4876263,-0.088905916
alexnet_w1_mlp_simclrhn_probe0,1,5,NaN,keyboard,dog,3,0005_lp_dnn_3_dog_10_n02108915_3652.png,n02108915_3652.png,0.0,-2.621638,-1.0964787,-1.0784506
alexnet_w1_mlp_simclrhn_probe0,1,6,NaN,keyboard,keyboard,7,0006_lp_dnn_7_keyboard_10_n04505470_578.png,n04505470_578.png,1.0,1.8633924,0.047048442,1.2843491
alexnet_w1_mlp_simclrhn_probe0,1,7,NaN,keyboard,cat,7,0007_lp_dnn_7_cat_10_n02123597_3842.png,n02123597_3842.png,0.0,-2.232936,0.038951002,-1.6064667
alexnet_w1_mlp_simclrhn_probe0,1,8,NaN,bear,bear,1,0008_lp_dnn_1_bear_10_n02134418_14.png,n02134418_14.png,1.0,3.3039174,0.7360682,1.8157436
alexnet_w1_mlp_simclrhn_probe0,1,9,NaN,clock,knife,10,0009_lp_dnn_10_knife_10_n03041632_29920.png,n03041632_29920.png,0.0,-1.6931279,-0.19335158,-1.0605019
alexnet_w1_mlp_simclrhn_probe0,1,10,NaN,keyboard,bird,5,0010_lp_dnn_5_bird_10_n01795545_952.png,n01795545_952.png,0.0,-0.6312409,-0.25314987,-0.26735073
alexnet_w1_mlp_simclrhn_probe0,1,11,NaN,bear,bear,3,0011_lp_dnn_3_bear_10_n02132136_6441.png,n02132136_6441.png,1.0,-0.3608811,-1.0625117,0.49612775
alexnet_w1_mlp_simclrhn_probe0,1,12,NaN,bear,bird,3,0012_lp_dnn_3_bird_10_n01829413_8792.png,n01829413_8792.png,0.0,-2.1998396,-1.2199674,-0.6928743
alexnet_w1_mlp_simclrhn_probe0,1,13,NaN,keyboard,keyboard,7,0013_lp_dnn_7_keyboard_10_n04505470_4458.png,n04505470_4458.png,1.0,1.0927016,-0.49869585,1.1252879
alexnet_w1_mlp_simclrhn_probe0,1,14,NaN,keyboard,chair,10,0014_lp_dnn_10_chair_10_n03376595_9176.png,n03376595_9176.png,0.0,-2.9216986,0.044699185,-2.09756
alexnet_w1_mlp_simclrhn_probe0,1,15,NaN,clock,clock,40,0015_lp_dnn_40_clock_10_n04548280_7662.png,n04548280_7662.png,1.0,0.112722985,-0.14144515,0.17972401
alexnet_w1_mlp_simclrhn_probe0,1,16,NaN,clock,keyboard,40,0016_lp_dnn_40_keyboard_10_n03085013_25809.png,n03085013_25809.png,0.0,-1.2213371,0.2733476,-1.0569017
alexnet_w1_mlp_simclrhn_probe0,1,17,NaN,keyboard,oven,5,0017_lp_dnn_5_oven_10_n04111531_1580.png,n04111531_1580.png,0.0,-2.0105662,-0.23335901,-1.2566754
alexnet_w1_mlp_simclrhn_probe0,1,18,NaN,elephant,elephant,1,0018_lp_dnn_1_elephant_10_n02504458_900.png,n02504458_900.png,1.0,2.7939408,-3.5512345,4.4867167
alexnet_w1_mlp_simclrhn_probe0,1,19,NaN,clock,dog,7,0019_lp_dnn_7_dog_10_n02106662_2384.png,n02106662_2384.png,0.0,-3.0465493,0.11206269,-2.233476
alexnet_w1_mlp_simclrhn_probe0,1,20,NaN,clock,truck,10,0020_lp_dnn_10_truck_10_n03796401_22618.png,n03796401_22618.png,0.0,-3.1789103,0.036572617,-2.2736897
alexnet_w1_mlp_simclrhn_probe0,1,21,NaN,clock,elephant,15,0021_lp_dnn_15_elephant_10_n02504013_5463.png,n02504013_5463.png,0.0,-2.8076386,-0.17911685,-1.8586457
alexnet_w1_mlp_simclrhn_probe0,1,22,NaN,keyboard,chair,10,0022_lp_dnn_10_chair_10_n04429376_16459.png,n04429376_16459.png,0.0,-2.5702343,-0.11304711,-1.7374938
alexnet_w1_mlp_simclrhn_probe0,1,23,NaN,cat,cat,1,0023_lp_dnn_1_cat_10_n02123045_12206.png,n02123045_12206.png,1.0,-1.6309972,-2.768124,0.8040702
alexnet_w1_mlp_simclrhn_probe0,1,24,NaN,clock,truck,7,0024_lp_dnn_7_truck_10_n03417042_2633.png,n03417042_2633.png,0.0,-3.2231112,0.09910949,-2.3491647
alexnet_w1_mlp_simclrhn_probe0,1,25,NaN,clock,keyboard,15,0025_lp_dnn_15_keyboard_10_n03085013_24416.png,n03085013_24416.png,0.0,-0.47256273,-0.28706595,-0.13116603
alexnet_w1_mlp_simclrhn_probe0,1,26,NaN,keyboard,car,7,0026_lp_dnn_7_car_10_n02814533_44503.png,n02814533_44503.png,0.0,-2.6943483,-0.04140602,-1.8759136
alexnet_w1_mlp_simclrhn_probe0,1,27,NaN,bird,elephant,5,0027_lp_dnn_5_elephant_10_n02504458_5797.png,n02504458_5797.png,0.0,-2.7657752,-0.4125599,-1.6639745
alexnet_w1_mlp_simclrhn_probe0,1,28,NaN,bottle,chair,0,0028_lp_dnn_0_chair_10_n04429376_8237.png,n04429376_8237.png,0.0,-2.5284774,-1.6877724,-0.59446824
alexnet_w1_mlp_simclrhn_probe0,1,29,NaN,keyboard,cat,7,0029_lp_dnn_7_cat_10_n02123159_587.png,n02123159_587.png,0.0,-2.9923751,-0.2565958,-1.934488
alexnet_w1_mlp_simclrhn_probe0,1,30,NaN,clock,bird,10,0030_lp_dnn_10_bird_10_n02028035_17238.png,n02028035_17238.png,0.0,-0.24942161,-0.23941743,-0.007074022
alexnet_w1_mlp_simclrhn_probe0,1,31,NaN,clock,cat,40,0031_lp_dnn_40_cat_10_n02123159_4348.png,n02123159_4348.png,0.0,-0.8447954,0.13645594,-0.6938495
alexnet_w1_mlp_simclrhn_probe0,1,32,NaN,keyboard,boat,5,0032_lp_dnn_5_boat_10_n04273569_22332.png,n04273569_22332.png,0.0,-2.3810458,-0.3652748,-1.4253653
alexnet_w1_mlp_simclrhn_probe0,1,33,NaN,elephant,elephant,1,0033_lp_dnn_1_elephant_10_n02504013_1244.png,n02504013_1244.png,1.0,4.821139,-2.0931716,4.889156
alexnet_w1_mlp_simclrhn_probe0,1,34,NaN,keyboard,bicycle,7,0034_lp_dnn_7_bicycle_10_n03792782_30229.png,n03792782_30229.png,0.0,-3.718667,0.07651681,-2.6836004
alexnet_w1_mlp_simclrhn_probe0,1,35,NaN,bird,keyboard,10,0035_lp_dnn_10_keyboard_10_n03085013_7573.png,n03085013_7573.png,0.0,-0.063803166,0.104288876,-0.11885902
alexnet_w1_mlp_simclrhn_probe0,1,36,NaN,keyboard,keyboard,3,0036_lp_dnn_3_keyboard_10_n03085013_24578.png,n03085013_24578.png,1.0,1.1834333,-0.5122975,1.1990628
alexnet_w1_mlp_simclrhn_probe0,1,37,NaN,bottle,truck,15,0037_lp_dnn_15_truck_10_n03417042_1336.png,n03417042_1336.png,0.0,-2.927225,-0.31009266,-1.8505921
alexnet_w1_mlp_simclrhn_probe0,1,38,NaN,keyboard,knife,3,0038_lp_dnn_3_knife_10_n03041632_7495.png,n03041632_7495.png,0.0,-1.2468789,-0.9317665,-0.22281809
alexnet_w1_mlp_simclrhn_probe0,1,39,NaN,car,car,0,0039_lp_dnn_0_car_10_n03100240_9625.png,n03100240_9625.png,1.0,0.4450618,-2.2560754,1.9099923
alexnet_w1_mlp_simclrhn_probe0,1,40,NaN,bird,elephant,10,0040_lp_dnn_10_elephant_10_n02504458_6107.png,n02504458_6107.png,0.0,-3.4203863,-0.38245556,-2.1481414
alexnet_w1_mlp_simclrhn_probe0,1,41,NaN,bicycle,bicycle,0,0041_lp_dnn_0_bicycle_10_n03792782_33649.png,n03792782_33649.png,1.0,3.1989455,-5.3996115,6.0800977
alexnet_w1_mlp_simclrhn_probe0,1,42,NaN,clock,clock,1,0042_lp_dnn_1_clock_10_n03196217_8282.png,n03196217_8282.png,1.0,1.3890139,1.0203784,0.2606647
alexnet_w1_mlp_simclrhn_probe0,1,43,NaN,keyboard,keyboard,7,0043_lp_dnn_7_keyboard_10_n03085013_21534.png,n03085013_21534.png,1.0,0.51699996,-0.4076659,0.6538375
alexnet_w1_mlp_simclrhn_probe0,1,44,NaN,bird,elephant,15,0044_lp_dnn_15_elephant_10_n02504013_22813.png,n02504013_22813.png,0.0,-2.9778044,-0.25552553,-1.9249419
alexnet_w1_mlp_simclrhn_probe0,1,45,NaN,keyboard,truck,10,0045_lp_dnn_10_truck_10_n03796401_16425.png,n03796401_16425.png,0.0,-3.7145705,0.03616458,-2.6521702
alexnet_w1_mlp_simclrhn_probe0,1,46,NaN,clock,airplane,15,0046_lp_dnn_15_airplane_10_n02690373_9427.png,n02690373_9427.png,0.0,-1.3658994,-0.21141988,-0.8163403
alexnet_w1_mlp_simclrhn_probe0,1,47,NaN,keyboard,bird,7,0047_lp_dnn_7_bird_10_n02009912_11907.png,n02009912_11907.png,0.0,-1.4185545,-0.04790245,-0.9691974
alexnet_w1_mlp_simclrhn_probe0,1,48,NaN,airplane,airplane,1,0048_lp_dnn_1_airplane_10_n02690373_5773.png,n02690373_5773.png,1.0,6.3550897,-3.366042,6.873878
alexnet_w1_mlp_simclrhn_probe0,1,49,NaN,clock,chair,40,0049_lp_dnn_40_chair_10_n02791124_2972.png,n02791124_2972.png,0.0,-1.2223302,0.16582333,-0.9815728
alexnet_w1_mlp_simclrhn_probe0,1,50,NaN,bicycle,bird,1,0050_lp_dnn_1_bird_10_n01819313_18188.png,n01819313_18188.png,0.0,-1.7259592,-1.1405969,-0.41391367
alexnet_w1_mlp_simclrhn_probe0,1,51,NaN,keyboard,car,5,0051_lp_dnn_5_car_10_n04285008_7428.png,n04285008_7428.png,0.0,-3.5318768,-0.013034672,-2.4881973
alexnet_w1_mlp_simclrhn_probe0,1,52,NaN,keyboard,bottle,7,0052_lp_dnn_7_bottle_10_n04591713_6923.png,n04591713_6923.png,0.0,-0.46435976,0.20271224,-0.47169113
alexnet_w1_mlp_simclrhn_probe0,1,53,NaN,airplane,knife,0,0053_lp_dnn_0_knife_10_n03041632_22570.png,n03041632_22570.png,0.0,-2.022841,-1.4811864,-0.38300765
alexnet_w1_mlp_simclrhn_probe0,1,54,NaN,elephant,bear,0,0054_lp_dnn_0_bear_10_n02132136_7586.png,n02132136_7586.png,0.0,-0.6990623,-0.49077755,-0.14727955
alexnet_w1_mlp_simclrhn_probe0,1,55,NaN,keyboard,clock,5,0055_lp_dnn_5_clock_10_n04548280_9144.png,n04548280_9144.png,0.0,-0.38676676,0.1446794,-0.3757892
alexnet_w1_mlp_simclrhn_probe0,1,56,NaN,oven,bottle,0,0056_lp_dnn_0_bottle_10_n04591713_2680.png,n04591713_2680.png,0.0,-6.919594,-5.4954042,-1.0070541
alexnet_w1_mlp_simclrhn_probe0,1,57,NaN,cat,cat,3,0057_lp_dnn_3_cat_10_n02123045_1596.png,n02123045_1596.png,1.0,-1.3832728,-1.4839444,0.071185604
alexnet_w1_mlp_simclrhn_probe0,1,58,NaN,keyboard,cat,10,0058_lp_dnn_10_cat_10_n02123597_19450.png,n02123597_19450.png,0.0,-2.5451887,0.001954496,-1.8011023
alexnet_w1_mlp_simclrhn_probe0,1,59,NaN,clock,chair,15,0059_lp_dnn_15_chair_10_n03376595_3462.png,n03376595_3462.png,0.0,-0.9950564,0.26631027,-0.8919209
alexnet_w1_mlp_simclrhn_probe0,1,60,NaN,bottle,bottle,3,0060_lp_dnn_3_bottle_10_n04591713_3683.png,n04591713_3683.png,1.0,-0.82702917,-1.0883158,0.18475759
alexnet_w1_mlp_simclrhn_probe0,1,61,NaN,keyboard,clock,7,0061_lp_dnn_7_clock_10_n03196217_4309.png,n03196217_4309.png,0.0,-0.044391394,0.16956618,-0.15129086
alexnet_w1_mlp_simclrhn_probe0,1,62,NaN,clock,bear,15,0062_lp_dnn_15_bear_10_n02134084_4923.png,n02134084_4923.png,0.0,-2.5781803,0.12112663,-1.9086983
alexnet_w1_mlp_simclrhn_probe0,1,63,NaN,oven,chair,1,0063_lp_dnn_1_chair_10_n04429376_5238.png,n04429376_5238.png,0.0,-1.2877612,0.12355015,-0.9979479
alexnet_w1_mlp_simclrhn_probe0,1,64,NaN,knife,clock,0,0064_lp_dnn_0_clock_10_n03196217_2414.png,n03196217_2414.png,0.0,-7.3752875,-5.338906,-1.4399394
alexnet_w1_mlp_simclrhn_probe0,1,65,NaN,bird,bird,3,0065_lp_dnn_3_bird_10_n01797886_2711.png,n01797886_2711.png,1.0,-0.9031837,-0.9918705,0.06271105
alexnet_w1_mlp_simclrhn_probe0,1,66,NaN,clock,truck,15,0066_lp_dnn_15_truck_10_n04467665_68463.png,n04467665_68463.png,0.0,-1.627884,-0.16342616,-1.0355281
alexnet_w1_mlp_simclrhn_probe0,1,67,NaN,truck,truck,0,0067_lp_dnn_0_truck_10_n03417042_10099.png,n03417042_10099.png,1.0,1.8695071,-3.540559,3.8254945
alexnet_w1_mlp_simclrhn_probe0,1,68,NaN,clock,bear,10,0068_lp_dnn_10_bear_10_n02134418_3793.png,n02134418_3793.png,0.0,-2.6256378,-0.098959625,-1.7866312
alexnet_w1_mlp_simclrhn_probe0,1,69,NaN,keyboard,bottle,10,0069_lp_dnn_10_bottle_10_n03937543_9524.png,n03937543_9524.png,0.0,-0.4251669,-0.04976458,-0.26544952
alexnet_w1_mlp_simclrhn_probe0,1,70,NaN,cat,cat,3,0070_lp_dnn_3_cat_10_n02123394_1038.png,n02123394_1038.png,1.0,-1.3569132,-1.3775742,0.014609531
alexnet_w1_mlp_simclrhn_probe0,1,71,NaN,keyboard,dog,5,0071_lp_dnn_5_dog_10_n02110185_7886.png,n02110185_7886.png,0.0,-2.9719746,-0.3100676,-1.8822525
alexnet_w1_mlp_simclrhn_probe0,1,72,NaN,clock,clock,3,0072_lp_dnn_3_clock_10_n02708093_4912.png,n02708093_4912.png,1.0,0.8264993,-0.22747366,0.74527144
alexnet_w1_mlp_simclrhn_probe0,1,73,NaN,bird,dog,15,0073_lp_dnn_15_dog_10_n02108422_932.png,n02108422_932.png,0.0,-2.198545,-0.22402135,-1.3961991
alexnet_w1_mlp_simclrhn_probe0,1,74,NaN,truck,truck,0,0074_lp_dnn_0_truck_10_n04467665_18621.png,n04467665_18621.png,1.0,2.058722,-5.448939,5.308718
alexnet_w1_mlp_simclrhn_probe0,1,75,NaN,car,truck,1,0075_lp_dnn_1_truck_10_n04467665_50932.png,n04467665_50932.png,0.0,-1.5431168,0.104749225,-1.1652173
alexnet_w1_mlp_simclrhn_probe0,1,76,NaN,dog,dog,1,0076_lp_dnn_1_dog_10_n02102480_7293.png,n02102480_7293.png,1.0,-3.8530533,-5.61965,1.2491724
alexnet_w1_mlp_simclrhn_probe0,1,77,NaN,knife,bottle,1,0077_lp_dnn_1_bottle_10_n04591713_4764.png,n04591713_4764.png,0.0,-2.5107536,-2.4011748,-0.077483945
alexnet_w1_mlp_simclrhn_probe0,1,78,NaN,clock,clock,15,0078_lp_dnn_15_clock_10_n02708093_274.png,n02708093_274.png,1.0,-0.17922862,-0.227783,0.03433313
alexnet_w1_mlp_simclrhn_probe0,1,79,NaN,keyboard,bottle,5,0079_lp_dnn_5_bottle_10_n04557648_29772.png,n04557648_29772.png,0.0,-0.57723284,0.6192431,-0.8460363
alexnet_w1_mlp_simclrhn_probe0,1,80,NaN,clock,car,15,0080_lp_dnn_15_car_10_n03100240_22499.png,n03100240_22499.png,0.0,-2.2284956,0.2055984,-1.7211643
alexnet_w1_mlp_simclrhn_probe0,1,81,NaN,clock,clock,3,0081_lp_dnn_3_clock_10_n02708093_6252.png,n02708093_6252.png,1.0,4.457788,0.30853626,2.9339643
alexnet_w1_mlp_simclrhn_probe0,1,82,NaN,clock,airplane,10,0082_lp_dnn_10_airplane_10_n02690373_5427.png,n02690373_5427.png,0.0,-2.0650864,-0.09013536,-1.3965013
alexnet_w1_mlp_simclrhn_probe0,1,83,NaN,clock,dog,15,0083_lp_dnn_15_dog_10_n02107142_46045.png,n02107142_46045.png,0.0,-2.9925284,0.026447058,-2.134738
alexnet_w1_mlp_simclrhn_probe0,1,84,NaN,clock,keyboard,40,0084_lp_dnn_40_keyboard_10_n03085013_23793.png,n03085013_23793.png,0.0,-0.7276443,0.2818474,-0.71381843
alexnet_w1_mlp_simclrhn_probe0,1,85,NaN,clock,bicycle,3,0085_lp_dnn_3_bicycle_10_n03792782_12421.png,n03792782_12421.png,0.0,-2.9287577,-0.56291854,-1.6729008
alexnet_w1_mlp_simclrhn_probe0,1,86,NaN,airplane,airplane,0,0086_lp_dnn_0_airplane_10_n02690373_1310.png,n02690373_1310.png,1.0,6.4309645,1.7519653,3.308552
alexnet_w1_mlp_simclrhn_probe0,1,87,NaN,clock,oven,15,0087_lp_dnn_15_oven_10_n04111531_8793.png,n04111531_8793.png,0.0,-2.0820675,0.80452967,-2.0411325
alexnet_w1_mlp_simclrhn_probe0,1,88,NaN,clock,airplane,5,0088_lp_dnn_5_airplane_10_n02690373_633.png,n02690373_633.png,0.0,-1.4700819,-0.6190948,-0.6017388
alexnet_w1_mlp_simclrhn_probe0,1,89,NaN,keyboard,clock,5,0089_lp_dnn_5_clock_10_n02708093_2307.png,n02708093_2307.png,0.0,-0.8143707,-0.443494,-0.26224944
alexnet_w1_mlp_simclrhn_probe0,1,90,NaN,keyboard,oven,10,0090_lp_dnn_10_oven_10_n04111531_13795.png,n04111531_13795.png,0.0,-1.8022811,-0.0509068,-1.2384087
alexnet_w1_mlp_simclrhn_probe0,1,91,NaN,oven,boat,3,0091_lp_dnn_3_boat_10_n03662601_1427.png,n03662601_1427.png,0.0,-2.6984735,-0.34809193,-1.6619709
alexnet_w1_mlp_simclrhn_probe0,1,92,NaN,keyboard,boat,5,0092_lp_dnn_5_boat_10_n04612504_15944.png,n04612504_15944.png,0.0,-3.4559627,0.040657997,-2.472484
alexnet_w1_mlp_simclrhn_probe0,1,93,NaN,clock,airplane,40,0093_lp_dnn_40_airplane_10_n02690373_3561.png,n02690373_3561.png,0.0,-0.8301514,0.045733377,-0.61934406
alexnet_w1_mlp_simclrhn_probe0,1,94,NaN,clock,elephant,7,0094_lp_dnn_7_elephant_10_n02504458_1848.png,n02504458_1848.png,0.0,-2.6176696,-0.36865374,-1.5902944
alexnet_w1_mlp_simclrhn_probe0,1,95,NaN,keyboard,oven,5,0095_lp_dnn_5_oven_10_n04111531_4155.png,n04111531_4155.png,0.0,-2.4705477,0.2320914,-1.9110545
alexnet_w1_mlp_simclrhn_probe0,1,96,NaN,car,car,0,0096_lp_dnn_0_car_10_n03100240_8327.png,n03100240_8327.png,1.0,3.2623532,2.7972498,0.32887778
alexnet_w1_mlp_simclrhn_probe0,1,97,NaN,chair,chair,0,0097_lp_dnn_0_chair_10_n04429376_24319.png,n04429376_24319.png,1.0,-5.1611137,-5.4670715,0.21634483
alexnet_w1_mlp_simclrhn_probe0,1,98,NaN,keyboard,chair,3,0098_lp_dnn_3_chair_10_n03376595_5112.png,n03376595_5112.png,0.0,-2.1513057,-1.1267596,-0.72446346
alexnet_w1_mlp_simclrhn_probe0,1,99,NaN,oven,cat,1,0099_lp_dnn_1_cat_10_n02124075_2268.png,n02124075_2268.png,0.0,-4.4276743,-1.4013126,-2.139961
alexnet_w1_mlp_simclrhn_probe0,1,100,NaN,knife,boat,3,0100_lp_dnn_3_boat_10_n04273569_1137.png,n04273569_1137.png,0.0,-1.950701,-0.96485156,-0.6971008
alexnet_w1_mlp_simclrhn_probe0,1,101,NaN,chair,chair,1,0101_lp_dnn_1_chair_10_n02791124_15383.png,n02791124_15383.png,1.0,0.31933486,-2.122682,1.7267668
alexnet_w1_mlp_simclrhn_probe0,1,102,NaN,clock,clock,15,0102_lp_dnn_15_clock_10_n04548280_8998.png,n04548280_8998.png,1.0,0.1646865,0.03136861,0.09426998
alexnet_w1_mlp_simclrhn_probe0,1,103,NaN,bear,dog,0,0103_lp_dnn_0_dog_10_n02097047_2800.png,n02097047_2800.png,0.0,-3.649258,-0.64602566,-2.123606
alexnet_w1_mlp_simclrhn_probe0,1,104,NaN,clock,bicycle,15,0104_lp_dnn_15_bicycle_10_n03792782_18294.png,n03792782_18294.png,0.0,-2.434976,-0.3515161,-1.4732288
alexnet_w1_mlp_simclrhn_probe0,1,105,NaN,cat,elephant,0,0105_lp_dnn_0_elephant_10_n02504013_24486.png,n02504013_24486.png,0.0,-4.9614034,-4.375446,-0.41433454
alexnet_w1_mlp_simclrhn_probe0,1,106,NaN,bird,airplane,7,0106_lp_dnn_7_airplane_10_n02690373_2923.png,n02690373_2923.png,0.0,-1.9882779,-0.3363045,-1.1681217
alexnet_w1_mlp_simclrhn_probe0,1,107,NaN,airplane,airplane,3,0107_lp_dnn_3_airplane_10_n02690373_15392.png,n02690373_15392.png,1.0,-0.6021154,-0.75871396,0.110731915
alexnet_w1_mlp_simclrhn_probe0,1,108,NaN,keyboard,oven,5,0108_lp_dnn_5_oven_10_n04111531_6080.png,n04111531_6080.png,0.0,-1.3193707,0.016814463,-0.94482565
alexnet_w1_mlp_simclrhn_probe0,1,109,NaN,clock,bear,15,0109_lp_dnn_15_bear_10_n02134084_22736.png,n02134084_22736.png,0.0,-2.4907448,-0.07393601,-1.7089419
alexnet_w1_mlp_simclrhn_probe0,1,110,NaN,knife,knife,1,0110_lp_dnn_1_knife_10_n03041632_33326.png,n03041632_33326.png,1.0,-4.4593177,-4.567494,0.076492146
alexnet_w1_mlp_simclrhn_probe0,1,111,NaN,clock,truck,40,0111_lp_dnn_40_truck_10_n04467665_66876.png,n04467665_66876.png,0.0,-1.6129818,0.066937946,-1.1878827
alexnet_w1_mlp_simclrhn_probe0,1,112,NaN,clock,truck,40,0112_lp_dnn_40_truck_10_n03796401_10234.png,n03796401_10234.png,0.0,-1.4793674,0.008560166,-1.0521237
alexnet_w1_mlp_simclrhn_probe0,1,113,NaN,keyboard,bicycle,7,0113_lp_dnn_7_bicycle_10_n03792782_5416.png,n03792782_5416.png,0.0,-4.069703,-0.0537197,-2.8397293
alexnet_w1_mlp_simclrhn_probe0,1,114,NaN,keyboard,knife,7,0114_lp_dnn_7_knife_10_n03041632_25772.png,n03041632_25772.png,0.0,-1.4338971,-0.22310342,-0.85616046
alexnet_w1_mlp_simclrhn_probe0,1,115,NaN,bird,bicycle,10,0115_lp_dnn_10_bicycle_10_n03792782_7108.png,n03792782_7108.png,0.0,-3.4138665,-0.22982593,-2.2514567
alexnet_w1_mlp_simclrhn_probe0,1,116,NaN,chair,chair,0,0116_lp_dnn_0_chair_10_n03376595_1981.png,n03376595_1981.png,1.0,-0.5819587,-3.6342115,2.1582687
alexnet_w1_mlp_simclrhn_probe0,1,117,NaN,clock,oven,15,0117_lp_dnn_15_oven_10_n04111531_6508.png,n04111531_6508.png,0.0,-1.9209886,0.4383963,-1.668337
alexnet_w1_mlp_simclrhn_probe0,1,118,NaN,keyboard,bird,15,0118_lp_dnn_15_bird_10_n01843383_2843.png,n01843383_2843.png,0.0,-0.2666248,-0.06405224,-0.14324044
alexnet_w1_mlp_simclrhn_probe0,1,119,NaN,bird,cat,5,0119_lp_dnn_5_cat_10_n02123597_5887.png,n02123597_5887.png,0.0,-2.813014,-0.21290831,-1.8385525
alexnet_w1_mlp_simclrhn_probe0,1,120,NaN,clock,clock,40,0120_lp_dnn_40_clock_10_n04548280_9801.png,n04548280_9801.png,1.0,0.34490478,-0.06982856,0.29326078
alexnet_w1_mlp_simclrhn_probe0,1,121,NaN,airplane,bird,1,0121_lp_dnn_1_bird_10_n01530575_10332.png,n01530575_10332.png,0.0,-3.5412214,-2.7838085,-0.5355718
alexnet_w1_mlp_simclrhn_probe0,1,122,NaN,clock,elephant,15,0122_lp_dnn_15_elephant_10_n02504013_5887.png,n02504013_5887.png,0.0,-2.8182764,-0.27666548,-1.7971904
alexnet_w1_mlp_simclrhn_probe0,1,123,NaN,oven,cat,3,0123_lp_dnn_3_cat_10_n02124075_8693.png,n02124075_8693.png,0.0,-1.9339828,-1.2276905,-0.49942416
alexnet_w1_mlp_simclrhn_probe0,1,124,NaN,clock,boat,15,0124_lp_dnn_15_boat_10_n04612504_26151.png,n04612504_26151.png,0.0,-2.3967495,0.15096235,-1.8015044
alexnet_w1_mlp_simclrhn_probe0,1,125,NaN,keyboard,cat,7,0125_lp_dnn_7_cat_10_n02125311_53412.png,n02125311_53412.png,0.0,-2.5009966,0.1546647,-1.8778362
alexnet_w1_mlp_simclrhn_probe0,1,126,NaN,clock,knife,7,0126_lp_dnn_7_knife_10_n03041632_46914.png,n03041632_46914.png,0.0,-0.7879759,0.056163985,-0.59689707
alexnet_w1_mlp_simclrhn_probe0,1,127,NaN,clock,bicycle,15,0127_lp_dnn_15_bicycle_10_n03792782_5629.png,n03792782_5629.png,0.0,-3.8700504,0.13330014,-2.8307965
alexnet_w1_mlp_simclrhn_probe0,1,128,NaN,clock,bottle,40,0128_lp_dnn_40_bottle_10_n02823428_79.png,n02823428_79.png,0.0,-0.16737595,-0.15298302,-0.010177337
alexnet_w1_mlp_simclrhn_probe0,1,129,NaN,dog,dog,3,0129_lp_dnn_3_dog_10_n02101006_5024.png,n02101006_5024.png,1.0,-2.0400465,-2.4774833,0.30931455
alexnet_w1_mlp_simclrhn_probe0,1,130,NaN,clock,oven,15,0130_lp_dnn_15_oven_10_n04111531_2350.png,n04111531_2350.png,0.0,-2.7552187,0.10162842,-2.020096
alexnet_w1_mlp_simclrhn_probe0,1,131,NaN,keyboard,airplane,7,0131_lp_dnn_7_airplane_10_n02690373_4839.png,n02690373_4839.png,0.0,-1.6009325,-0.4098047,-0.8422545
alexnet_w1_mlp_simclrhn_probe0,1,132,NaN,keyboard,car,5,0132_lp_dnn_5_car_10_n03100240_2075.png,n03100240_2075.png,0.0,-3.3739433,-0.18709761,-2.2534404
alexnet_w1_mlp_simclrhn_probe0,1,133,NaN,keyboard,cat,5,0133_lp_dnn_5_cat_10_n02123159_3729.png,n02123159_3729.png,0.0,-2.3213625,-0.07739793,-1.5867226
alexnet_w1_mlp_simclrhn_probe0,1,134,NaN,keyboard,knife,10,0134_lp_dnn_10_knife_10_n03041632_3079.png,n03041632_3079.png,0.0,-1.5115722,0.008791715,-1.0750597
alexnet_w1_mlp_simclrhn_probe0,1,135,NaN,clock,elephant,15,0135_lp_dnn_15_elephant_10_n02504013_2052.png,n02504013_2052.png,0.0,-2.9576402,-0.10697899,-2.015722
alexnet_w1_mlp_simclrhn_probe0,1,136,NaN,clock,cat,40,0136_lp_dnn_40_cat_10_n02123159_3724.png,n02123159_3724.png,0.0,-1.4830498,-0.052318543,-1.0116798
alexnet_w1_mlp_simclrhn_probe0,1,137,NaN,clock,keyboard,15,0137_lp_dnn_15_keyboard_10_n03085013_7955.png,n03085013_7955.png,0.0,-0.6218671,0.20993042,-0.5881697
alexnet_w1_mlp_simclrhn_probe0,1,138,NaN,clock,bird,40,0138_lp_dnn_40_bird_10_n02056570_9872.png,n02056570_9872.png,0.0,-1.0805436,-0.07411059,-0.7116556
alexnet_w1_mlp_simclrhn_probe0,1,139,NaN,bird,cat,10,0139_lp_dnn_10_cat_10_n02125311_44401.png,n02125311_44401.png,0.0,-1.9521333,0.056061298,-1.4200081
alexnet_w1_mlp_simclrhn_probe0,1,140,NaN,clock,airplane,10,0140_lp_dnn_10_airplane_10_n02690373_10657.png,n02690373_10657.png,0.0,-1.2295992,-0.16427583,-0.7532974
alexnet_w1_mlp_simclrhn_probe0,1,141,NaN,bird,bird,5,0141_lp_dnn_5_bird_10_n02025239_7919.png,n02025239_7919.png,1.0,0.18362668,-0.63933283,0.58192027
alexnet_w1_mlp_simclrhn_probe0,1,142,NaN,clock,bear,40,0142_lp_dnn_40_bear_10_n02134084_23165.png,n02134084_23165.png,0.0,-1.6658208,0.3014172,-1.3910474
alexnet_w1_mlp_simclrhn_probe0,1,143,NaN,clock,knife,40,0143_lp_dnn_40_knife_10_n03041632_28658.png,n03041632_28658.png,0.0,-0.56241673,0.12116479,-0.48336515
alexnet_w1_mlp_simclrhn_probe0,1,144,NaN,keyboard,keyboard,5,0144_lp_dnn_5_keyboard_10_n04505470_4371.png,n04505470_4371.png,1.0,1.0279827,-0.08198827,0.784868
alexnet_w1_mlp_simclrhn_probe0,1,145,NaN,keyboard,keyboard,0,0145_lp_dnn_0_keyboard_10_n03085013_14237.png,n03085013_14237.png,1.0,3.5286078,0.6868886,2.009399
alexnet_w1_mlp_simclrhn_probe0,1,146,NaN,bottle,clock,0,0146_lp_dnn_0_clock_10_n03196217_6163.png,n03196217_6163.png,0.0,-5.428095,-4.6028557,-0.5835322
alexnet_w1_mlp_simclrhn_probe0,1,147,NaN,clock,chair,15,0147_lp_dnn_15_chair_10_n02791124_3857.png,n02791124_3857.png,0.0,-2.7163134,-0.13508372,-1.8252051
alexnet_w1_mlp_simclrhn_probe0,1,148,NaN,clock,truck,40,0148_lp_dnn_40_truck_10_n03417042_20650.png,n03417042_20650.png,0.0,-2.1030579,0.2158522,-1.6397171
alexnet_w1_mlp_simclrhn_probe0,1,149,NaN,truck,truck,0,0149_lp_dnn_0_truck_10_n04467665_17101.png,n04467665_17101.png,1.0,4.6914816,-0.29208747,3.5239155
alexnet_w1_mlp_simclrhn_probe0,1,150,NaN,chair,chair,1,0150_lp_dnn_1_chair_10_n04429376_19354.png,n04429376_19354.png,1.0,-4.4105625,-4.6637144,0.17900543
alexnet_w1_mlp_simclrhn_probe0,1,151,NaN,knife,knife,0,0151_lp_dnn_0_knife_10_n03041632_42156.png,n03041632_42156.png,1.0,2.767046,-1.5516325,3.0537667
alexnet_w1_mlp_simclrhn_probe0,1,152,NaN,car,car,1,0152_lp_dnn_1_car_10_n04285008_39.png,n04285008_39.png,1.0,4.3850555,1.0707912,2.3435388
alexnet_w1_mlp_simclrhn_probe0,1,153,NaN,boat,boat,1,0153_lp_dnn_1_boat_10_n03662601_1319.png,n03662601_1319.png,1.0,1.5916559,-1.3492374,2.0795255
alexnet_w1_mlp_simclrhn_probe0,1,154,NaN,keyboard,truck,7,0154_lp_dnn_7_truck_10_n03796401_4119.png,n03796401_4119.png,0.0,-3.2464619,-0.06975879,-2.2462683
alexnet_w1_mlp_simclrhn_probe0,1,155,NaN,clock,bottle,15,0155_lp_dnn_15_bottle_10_n03937543_2333.png,n03937543_2333.png,0.0,-0.04865516,0.15342799,-0.14289436
alexnet_w1_mlp_simclrhn_probe0,1,156,NaN,clock,bottle,3,0156_lp_dnn_3_bottle_10_n04591713_7134.png,n04591713_7134.png,0.0,-0.5855009,-0.2434551,-0.2418629
alexnet_w1_mlp_simclrhn_probe0,1,157,NaN,dog,dog,0,0157_lp_dnn_0_dog_10_n02107312_3673.png,n02107312_3673.png,1.0,-6.435479,-6.6091623,0.12281255
alexnet_w1_mlp_simclrhn_probe0,1,158,NaN,oven,oven,3,0158_lp_dnn_3_oven_10_n04111531_8373.png,n04111531_8373.png,1.0,-0.53742766,-0.9287311,0.2766933
alexnet_w1_mlp_simclrhn_probe0,1,159,NaN,car,car,3,0159_lp_dnn_3_car_10_n03100240_13707.png,n03100240_13707.png,1.0,-0.39533034,-0.68209106,0.20277046
alexnet_w1_mlp_simclrhn_probe0,1,160,NaN,chair,chair,1,0160_lp_dnn_1_chair_10_n02791124_241.png,n02791124_241.png,1.0,-0.75379425,-1.4391112,0.4845923
alexnet_w1_mlp_simclrhn_probe0,1,161,NaN,keyboard,airplane,7,0161_lp_dnn_7_airplane_10_n02690373_5628.png,n02690373_5628.png,0.0,-1.804318,-0.17867944,-1.1495
alexnet_w1_mlp_simclrhn_probe0,1,162,NaN,clock,boat,40,0162_lp_dnn_40_boat_10_n02951358_1461.png,n02951358_1461.png,0.0,-1.8080788,0.11727787,-1.3614328
alexnet_w1_mlp_simclrhn_probe0,1,163,NaN,keyboard,keyboard,7,0163_lp_dnn_7_keyboard_10_n04505470_4501.png,n04505470_4501.png,1.0,1.34424,0.53122944,0.57488525
alexnet_w1_mlp_simclrhn_probe0,1,164,NaN,cat,bird,1,0164_lp_dnn_1_bird_10_n02033041_11415.png,n02033041_11415.png,0.0,-3.4875102,-3.4297664,-0.040831026
alexnet_w1_mlp_simclrhn_probe0,1,165,NaN,oven,knife,1,0165_lp_dnn_1_knife_10_n03041632_6446.png,n03041632_6446.png,0.0,-3.2654965,-3.2522702,-0.009352386
alexnet_w1_mlp_simclrhn_probe0,1,166,NaN,bird,bird,0,0166_lp_dnn_0_bird_10_n02011460_3892.png,n02011460_3892.png,1.0,-1.212126,-6.536394,3.7648263
alexnet_w1_mlp_simclrhn_probe0,1,167,NaN,dog,cat,1,0167_lp_dnn_1_cat_10_n02125311_3174.png,n02125311_3174.png,0.0,-3.510431,-3.0619028,-0.3171574
alexnet_w1_mlp_simclrhn_probe0,1,168,NaN,clock,dog,10,0168_lp_dnn_10_dog_10_n02088364_7448.png,n02088364_7448.png,0.0,-2.687497,0.062294643,-1.9443964
alexnet_w1_mlp_simclrhn_probe0,1,169,NaN,cat,cat,1,0169_lp_dnn_1_cat_10_n02123394_4299.png,n02123394_4299.png,1.0,-1.2540159,-2.3062596,0.74404866
alexnet_w1_mlp_simclrhn_probe0,1,170,NaN,keyboard,keyboard,15,0170_lp_dnn_15_keyboard_10_n03085013_23731.png,n03085013_23731.png,1.0,-0.26655358,-0.2773171,0.0076109623
alexnet_w1_mlp_simclrhn_probe0,1,171,NaN,keyboard,knife,5,0171_lp_dnn_5_knife_10_n03041632_29285.png,n03041632_29285.png,0.0,-1.4445181,-0.052534193,-0.98428124
alexnet_w1_mlp_simclrhn_probe0,1,172,NaN,keyboard,keyboard,0,0172_lp_dnn_0_keyboard_10_n03085013_12164.png,n03085013_12164.png,1.0,8.850221,-0.8745718,6.8764668
alexnet_w1_mlp_simclrhn_probe0,1,173,NaN,keyboard,bird,5,0173_lp_dnn_5_bird_10_n01582220_9023.png,n01582220_9023.png,0.0,-0.9584075,-0.08767536,-0.61570066
alexnet_w1_mlp_simclrhn_probe0,1,174,NaN,keyboard,bottle,3,0174_lp_dnn_3_bottle_10_n03983396_12728.png,n03983396_12728.png,0.0,-1.699209,-0.7057065,-0.7025124
alexnet_w1_mlp_simclrhn_probe0,1,175,NaN,keyboard,dog,7,0175_lp_dnn_7_dog_10_n02111277_50807.png,n02111277_50807.png,0.0,-3.2189496,-0.28877556,-2.071946
alexnet_w1_mlp_simclrhn_probe0,1,176,NaN,knife,boat,5,0176_lp_dnn_5_boat_10_n04273569_2037.png,n04273569_2037.png,0.0,-1.8850496,-0.6003177,-0.9084426
alexnet_w1_mlp_simclrhn_probe0,1,177,NaN,clock,keyboard,40,0177_lp_dnn_40_keyboard_10_n04505470_4672.png,n04505470_4672.png,0.0,-0.7662971,-0.03264284,-0.5187719
alexnet_w1_mlp_simclrhn_probe0,1,178,NaN,keyboard,boat,10,0178_lp_dnn_10_boat_10_n03662601_12034.png,n03662601_12034.png,0.0,-2.8202944,-0.03183998,-1.971735
alexnet_w1_mlp_simclrhn_probe0,1,179,NaN,clock,airplane,15,0179_lp_dnn_15_airplane_10_n02690373_5845.png,n02690373_5845.png,0.0,-1.9577678,0.13473065,-1.47962
alexnet_w1_mlp_simclrhn_probe0,1,180,NaN,keyboard,truck,5,0180_lp_dnn_5_truck_10_n03417042_12128.png,n03417042_12128.png,0.0,-3.3035917,-0.44508958,-2.0212662
alexnet_w1_mlp_simclrhn_probe0,1,181,NaN,clock,keyboard,10,0181_lp_dnn_10_keyboard_10_n03085013_2432.png,n03085013_2432.png,0.0,0.05985084,0.118581735,-0.041529015
alexnet_w1_mlp_simclrhn_probe0,1,182,NaN,keyboard,chair,5,0182_lp_dnn_5_chair_10_n03376595_9692.png,n03376595_9692.png,0.0,-1.4450977,-0.042706758,-0.99164015
alexnet_w1_mlp_simclrhn_probe0,1,183,NaN,elephant,chair,3,0183_lp_dnn_3_chair_10_n03376595_12583.png,n03376595_12583.png,0.0,-3.649981,-1.2262783,-1.7138166
alexnet_w1_mlp_simclrhn_probe0,1,184,NaN,bicycle,bear,0,0184_lp_dnn_0_bear_10_n02133161_2135.png,n02133161_2135.png,0.0,-3.0920532,-2.727981,-0.25743786
alexnet_w1_mlp_simclrhn_probe0,1,185,NaN,clock,airplane,10,0185_lp_dnn_10_airplane_10_n02690373_5176.png,n02690373_5176.png,0.0,-1.2556831,-0.24207164,-0.71673155
alexnet_w1_mlp_simclrhn_probe0,1,186,NaN,elephant,elephant,0,0186_lp_dnn_0_elephant_10_n02504013_10990.png,n02504013_10990.png,1.0,-4.740878,-4.820658,0.05641305
alexnet_w1_mlp_simclrhn_probe0,1,187,NaN,clock,boat,10,0187_lp_dnn_10_boat_10_n02951358_3155.png,n02951358_3155.png,0.0,-2.9295106,-0.20881104,-1.9238251
alexnet_w1_mlp_simclrhn_probe0,1,188,NaN,knife,knife,1,0188_lp_dnn_1_knife_10_n03041632_2644.png,n03041632_2644.png,1.0,-0.41054267,-1.8824937,1.0408266
alexnet_w1_mlp_simclrhn_probe0,1,189,NaN,keyboard,airplane,5,0189_lp_dnn_5_airplane_10_n02690373_5184.png,n02690373_5184.png,0.0,-2.235998,-0.35515815,-1.3299546
alexnet_w1_mlp_simclrhn_probe0,1,190,NaN,oven,chair,0,0190_lp_dnn_0_chair_10_n04099969_16161.png,n04099969_16161.png,0.0,-5.873296,-4.9599967,-0.6458
alexnet_w1_mlp_simclrhn_probe0,1,191,NaN,clock,boat,10,0191_lp_dnn_10_boat_10_n03344393_5343.png,n03344393_5343.png,0.0,-2.9682217,-0.08355721,-2.0397658
alexnet_w1_mlp_simclrhn_probe0,1,192,NaN,oven,oven,0,0192_lp_dnn_0_oven_10_n04111531_15052.png,n04111531_15052.png,1.0,4.8437147,-1.2960019,4.3414354
alexnet_w1_mlp_simclrhn_probe0,1,193,NaN,bottle,bicycle,15,0193_lp_dnn_15_bicycle_10_n02835271_317.png,n02835271_317.png,0.0,-2.170081,-0.2888815,-1.3302089
alexnet_w1_mlp_simclrhn_probe0,1,194,NaN,bird,bird,0,0194_lp_dnn_0_bird_10_n02002556_15721.png,n02002556_15721.png,1.0,-2.3009894,-5.156089,2.01886
alexnet_w1_mlp_simclrhn_probe0,1,195,NaN,keyboard,chair,5,0195_lp_dnn_5_chair_10_n03376595_11280.png,n03376595_11280.png,0.0,-2.4466743,0.2145499,-1.8817698
alexnet_w1_mlp_simclrhn_probe0,1,196,NaN,keyboard,keyboard,3,0196_lp_dnn_3_keyboard_10_n04505470_4621.png,n04505470_4621.png,1.0,-0.47441292,-1.8737283,0.9894654
alexnet_w1_mlp_simclrhn_probe0,1,197,NaN,keyboard,boat,7,0197_lp_dnn_7_boat_10_n03662601_6042.png,n03662601_6042.png,0.0,-2.7356286,-0.18535537,-1.8033155
alexnet_w1_mlp_simclrhn_probe0,1,198,NaN,dog,dog,1,0198_lp_dnn_1_dog_10_n02086646_2810.png,n02086646_2810.png,1.0,-4.5107594,-5.0119147,0.3543704
alexnet_w1_mlp_simclrhn_probe0,1,199,NaN,clock,elephant,15,0199_lp_dnn_15_elephant_10_n02504458_7835.png,n02504458_7835.png,0.0,-2.8732185,-0.17447448,-1.9083003
alexnet_w1_mlp_simclrhn_probe0,1,200,NaN,keyboard,cat,15,0200_lp_dnn_15_cat_10_n02123159_6281.png,n02123159_6281.png,0.0,-1.8190018,-0.13403077,-1.1914544
alexnet_w1_mlp_simclrhn_probe0,1,201,NaN,keyboard,knife,5,0201_lp_dnn_5_knife_10_n03041632_1661.png,n03041632_1661.png,0.0,-2.4290679,0.34306782,-1.960196
alexnet_w1_mlp_simclrhn_probe0,1,202,NaN,clock,clock,1,0202_lp_dnn_1_clock_10_n02708093_2806.png,n02708093_2806.png,1.0,1.061695,-2.2958944,2.374174
alexnet_w1_mlp_simclrhn_probe0,1,203,NaN,boat,boat,1,0203_lp_dnn_1_boat_10_n04273569_1201.png,n04273569_1201.png,1.0,0.9857054,-1.7484441,1.9333357
alexnet_w1_mlp_simclrhn_probe0,1,204,NaN,clock,bird,40,0204_lp_dnn_40_bird_10_n01614925_13283.png,n01614925_13283.png,0.0,-1.1677079,0.07740116,-0.8804251
alexnet_w1_mlp_simclrhn_probe0,1,205,NaN,clock,car,40,0205_lp_dnn_40_car_10_n02814533_51701.png,n02814533_51701.png,0.0,-0.92989826,0.13101967,-0.75018233
alexnet_w1_mlp_simclrhn_probe0,1,206,NaN,keyboard,chair,7,0206_lp_dnn_7_chair_10_n04099969_34325.png,n04099969_34325.png,0.0,-2.428785,0.22852078,-1.8789991
alexnet_w1_mlp_simclrhn_probe0,1,207,NaN,airplane,truck,0,0207_lp_dnn_0_truck_10_n04467665_71305.png,n04467665_71305.png,0.0,-2.3831625,1.1547971,-2.5017152
alexnet_w1_mlp_simclrhn_probe0,1,208,NaN,keyboard,boat,5,0208_lp_dnn_5_boat_10_n03344393_5916.png,n03344393_5916.png,0.0,-2.3478909,-0.44306815,-1.3469131
alexnet_w1_mlp_simclrhn_probe0,1,209,NaN,keyboard,car,7,0209_lp_dnn_7_car_10_n02814533_28783.png,n02814533_28783.png,0.0,-3.2985275,-0.10660151,-2.2570326
alexnet_w1_mlp_simclrhn_probe0,1,210,NaN,clock,boat,15,0210_lp_dnn_15_boat_10_n03662601_16825.png,n03662601_16825.png,0.0,-2.7500112,-0.19543584,-1.8063576
alexnet_w1_mlp_simclrhn_probe0,1,211,NaN,cat,dog,0,0211_lp_dnn_0_dog_10_n02100583_10960.png,n02100583_10960.png,0.0,-5.6770062,-5.5939693,-0.058715954
alexnet_w1_mlp_simclrhn_probe0,1,212,NaN,keyboard,elephant,10,0212_lp_dnn_10_elephant_10_n02504458_4587.png,n02504458_4587.png,0.0,-3.0344539,-0.2511274,-1.968109
alexnet_w1_mlp_simclrhn_probe0,1,213,NaN,bird,bottle,10,0213_lp_dnn_10_bottle_10_n03983396_12670.png,n03983396_12670.png,0.0,-0.32433456,-0.11526318,-0.14783579
alexnet_w1_mlp_simclrhn_probe0,1,214,NaN,oven,bicycle,3,0214_lp_dnn_3_bicycle_10_n02835271_18205.png,n02835271_18205.png,0.0,-1.1444182,-1.0903759,-0.038213704
alexnet_w1_mlp_simclrhn_probe0,1,215,NaN,clock,truck,40,0215_lp_dnn_40_truck_10_n04467665_67527.png,n04467665_67527.png,0.0,-1.1389894,-0.1292993,-0.7139588
alexnet_w1_mlp_simclrhn_probe0,1,216,NaN,clock,keyboard,10,0216_lp_dnn_10_keyboard_10_n03085013_4374.png,n03085013_4374.png,0.0,-0.20080812,0.142024,-0.24241892
alexnet_w1_mlp_simclrhn_probe0,1,217,NaN,keyboard,clock,3,0217_lp_dnn_3_clock_10_n03196217_3086.png,n03196217_3086.png,0.0,0.37927547,0.5836632,-0.14452396
alexnet_w1_mlp_simclrhn_probe0,1,218,NaN,clock,clock,15,0218_lp_dnn_15_clock_10_n04548280_254.png,n04548280_254.png,1.0,-0.033162635,-0.109258905,0.053808186
alexnet_w1_mlp_simclrhn_probe0,1,219,NaN,clock,bicycle,15,0219_lp_dnn_15_bicycle_10_n02835271_21707.png,n02835271_21707.png,0.0,-3.637982,-0.16345723,-2.45686
alexnet_w1_mlp_simclrhn_probe0,1,220,NaN,bird,bird,15,0220_lp_dnn_15_bird_10_n01819313_6340.png,n01819313_6340.png,1.0,-0.21969295,-0.2229565,0.002307677
alexnet_w1_mlp_simclrhn_probe0,1,221,NaN,keyboard,bicycle,5,0221_lp_dnn_5_bicycle_10_n02835271_10556.png,n02835271_10556.png,0.0,-3.9385583,-0.19522412,-2.6469371
alexnet_w1_mlp_simclrhn_probe0,1,222,NaN,clock,chair,15,0222_lp_dnn_15_chair_10_n04099969_3312.png,n04099969_3312.png,0.0,-2.2291899,-0.08895695,-1.5133734
alexnet_w1_mlp_simclrhn_probe0,1,223,NaN,clock,car,15,0223_lp_dnn_15_car_10_n04285008_2781.png,n04285008_2781.png,0.0,-2.4520545,-0.34333572,-1.4910895
alexnet_w1_mlp_simclrhn_probe0,1,224,NaN,clock,clock,3,0224_lp_dnn_3_clock_10_n04548280_21263.png,n04548280_21263.png,1.0,2.348606,-0.17368174,1.7835269
alexnet_w1_mlp_simclrhn_probe0,1,225,NaN,clock,car,15,0225_lp_dnn_15_car_10_n02814533_9785.png,n02814533_9785.png,0.0,-2.3787289,-0.29190212,-1.4756094
alexnet_w1_mlp_simclrhn_probe0,1,226,NaN,truck,truck,0,0226_lp_dnn_0_truck_10_n03417042_24100.png,n03417042_24100.png,1.0,6.1351833,4.704242,1.0118282
alexnet_w1_mlp_simclrhn_probe0,1,227,NaN,clock,dog,15,0227_lp_dnn_15_dog_10_n02091244_10926.png,n02091244_10926.png,0.0,-2.996718,0.04911713,-2.1537306
alexnet_w1_mlp_simclrhn_probe0,1,228,NaN,clock,bottle,40,0228_lp_dnn_40_bottle_10_n04591713_2537.png,n04591713_2537.png,0.0,-0.2301816,0.149844,-0.2687187
alexnet_w1_mlp_simclrhn_probe0,1,229,NaN,keyboard,bear,10,0229_lp_dnn_10_bear_10_n02134418_1311.png,n02134418_1311.png,0.0,-3.1893961,-0.19775683,-2.1154084
alexnet_w1_mlp_simclrhn_probe0,1,230,NaN,bird,bicycle,3,0230_lp_dnn_3_bicycle_10_n03792782_210.png,n03792782_210.png,0.0,-3.050558,-1.6620502,-0.9818233
alexnet_w1_mlp_simclrhn_probe0,1,231,NaN,cat,cat,3,0231_lp_dnn_3_cat_10_n02123045_5371.png,n02123045_5371.png,1.0,-1.4558028,-2.0225286,0.4007357
alexnet_w1_mlp_simclrhn_probe0,1,232,NaN,bottle,boat,15,0232_lp_dnn_15_boat_10_n04612504_19111.png,n04612504_19111.png,0.0,-2.8927972,0.0028632905,-2.0475414
alexnet_w1_mlp_simclrhn_probe0,1,233,NaN,clock,clock,1,0233_lp_dnn_1_clock_10_n03196217_7836.png,n03196217_7836.png,1.0,-0.40970406,-1.4866358,0.7615057
alexnet_w1_mlp_simclrhn_probe0,1,234,NaN,dog,dog,0,0234_lp_dnn_0_dog_10_n02086910_9742.png,n02086910_9742.png,1.0,0.2698439,-3.3986256,2.5939996
alexnet_w1_mlp_simclrhn_probe0,1,235,NaN,boat,bottle,1,0235_lp_dnn_1_bottle_10_n03937543_4723.png,n03937543_4723.png,0.0,-1.895327,-1.3724066,-0.36976054
alexnet_w1_mlp_simclrhn_probe0,1,236,NaN,keyboard,dog,5,0236_lp_dnn_5_dog_10_n02111129_6495.png,n02111129_6495.png,0.0,-2.6460633,-0.088672966,-1.8083482
alexnet_w1_mlp_simclrhn_probe0,1,237,NaN,knife,knife,1,0237_lp_dnn_1_knife_10_n03041632_3101.png,n03041632_3101.png,1.0,0.33504266,-0.80959934,0.8093841
alexnet_w1_mlp_simclrhn_probe0,1,238,NaN,cat,bear,0,0238_lp_dnn_0_bear_10_n02134084_7373.png,n02134084_7373.png,0.0,-4.4801555,-3.3490593,-0.79980576
alexnet_w1_mlp_simclrhn_probe0,1,239,NaN,bird,bird,7,0239_lp_dnn_7_bird_10_n02009229_11916.png,n02009229_11916.png,1.0,0.1741457,0.03980741,0.09499152
alexnet_w1_mlp_simclrhn_probe0,1,240,NaN,keyboard,oven,7,0240_lp_dnn_7_oven_10_n04111531_14208.png,n04111531_14208.png,0.0,-1.3843229,-0.18897346,-0.8452397
alexnet_w1_mlp_simclrhn_probe0,1,241,NaN,clock,bird,3,0241_lp_dnn_3_bird_10_n01601694_20287.png,n01601694_20287.png,0.0,-2.2454517,-0.7572727,-1.0523014
alexnet_w1_mlp_simclrhn_probe0,1,242,NaN,clock,oven,15,0242_lp_dnn_15_oven_10_n04111531_5519.png,n04111531_5519.png,0.0,-2.1863997,0.006727954,-1.5507754
alexnet_w1_mlp_simclrhn_probe0,1,243,NaN,car,car,1,0243_lp_dnn_1_car_10_n04285008_10893.png,n04285008_10893.png,1.0,3.1855896,1.3929815,1.2675654
alexnet_w1_mlp_simclrhn_probe0,1,244,NaN,clock,boat,40,0244_lp_dnn_40_boat_10_n02951358_16196.png,n02951358_16196.png,0.0,-1.6589229,0.13462572,-1.2682304
alexnet_w1_mlp_simclrhn_probe0,1,245,NaN,clock,clock,7,0245_lp_dnn_7_clock_10_n04548280_532.png,n04548280_532.png,1.0,-0.19788492,-0.25712833,0.04189142
alexnet_w1_mlp_simclrhn_probe0,1,246,NaN,keyboard,keyboard,0,0246_lp_dnn_0_keyboard_10_n04505470_73.png,n04505470_73.png,1.0,18.535955,6.0535736,8.826377
alexnet_w1_mlp_simclrhn_probe0,1,247,NaN,bird,bottle,10,0247_lp_dnn_10_bottle_10_n02823428_6766.png,n02823428_6766.png,0.0,-0.46424055,0.39714774,-0.60909355
alexnet_w1_mlp_simclrhn_probe0,1,248,NaN,clock,boat,15,0248_lp_dnn_15_boat_10_n02951358_26579.png,n02951358_26579.png,0.0,-1.6517189,-0.20616262,-1.0221627
alexnet_w1_mlp_simclrhn_probe0,1,249,NaN,keyboard,dog,10,0249_lp_dnn_10_dog_10_n02085782_7651.png,n02085782_7651.png,0.0,-3.1131208,0.07537565,-2.2546074
alexnet_w1_mlp_simclrhn_probe0,1,250,NaN,clock,clock,3,0250_lp_dnn_3_clock_10_n02708093_1747.png,n02708093_1747.png,1.0,1.509469,-0.1826695,1.1965227
alexnet_w1_mlp_simclrhn_probe0,1,251,NaN,keyboard,truck,3,0251_lp_dnn_3_truck_10_n04467665_19645.png,n04467665_19645.png,0.0,-2.5210717,-0.69445086,-1.291616
alexnet_w1_mlp_simclrhn_probe0,1,252,NaN,clock,airplane,15,0252_lp_dnn_15_airplane_10_n02690373_17262.png,n02690373_17262.png,0.0,-1.4623002,0.019305816,-1.0476537
alexnet_w1_mlp_simclrhn_probe0,1,253,NaN,elephant,elephant,0,0253_lp_dnn_0_elephant_10_n02504458_10428.png,n02504458_10428.png,1.0,1.1324149,-1.8362267,2.0991468
alexnet_w1_mlp_simclrhn_probe0,1,254,NaN,keyboard,cat,7,0254_lp_dnn_7_cat_10_n02124075_9149.png,n02124075_9149.png,0.0,-2.8323877,-0.0571182,-1.9624119
alexnet_w1_mlp_simclrhn_probe0,1,255,NaN,clock,elephant,10,0255_lp_dnn_10_elephant_10_n02504013_7923.png,n02504013_7923.png,0.0,-3.8375118,-0.024713457,-2.6960557
alexnet_w1_mlp_simclrhn_probe0,1,256,NaN,cat,cat,3,0256_lp_dnn_3_cat_10_n02123394_4789.png,n02123394_4789.png,1.0,-1.3871756,-1.637172,0.17677417
alexnet_w1_mlp_simclrhn_probe0,1,257,NaN,clock,clock,5,0257_lp_dnn_5_clock_10_n03196217_2530.png,n03196217_2530.png,1.0,0.37500513,0.29500812,0.056566425
alexnet_w1_mlp_simclrhn_probe0,1,258,NaN,keyboard,airplane,5,0258_lp_dnn_5_airplane_10_n02690373_6992.png,n02690373_6992.png,0.0,-2.0116782,-0.7476622,-0.8937943
alexnet_w1_mlp_simclrhn_probe0,1,259,NaN,keyboard,airplane,3,0259_lp_dnn_3_airplane_10_n02690373_5056.png,n02690373_5056.png,0.0,-0.2210471,0.3056883,-0.3724582
alexnet_w1_mlp_simclrhn_probe0,1,260,NaN,bear,bear,1,0260_lp_dnn_1_bear_10_n02134418_2231.png,n02134418_2231.png,1.0,-0.6732942,-3.5096278,2.005591
alexnet_w1_mlp_simclrhn_probe0,1,261,NaN,clock,truck,10,0261_lp_dnn_10_truck_10_n03796401_180.png,n03796401_180.png,0.0,-3.3688207,-0.010735233,-2.374525
alexnet_w1_mlp_simclrhn_probe0,1,262,NaN,cat,bicycle,3,0262_lp_dnn_3_bicycle_10_n02835271_3246.png,n02835271_3246.png,0.0,-3.258984,-2.4947536,-0.5403926
alexnet_w1_mlp_simclrhn_probe0,1,263,NaN,keyboard,truck,3,0263_lp_dnn_3_truck_10_n03796401_599.png,n03796401_599.png,0.0,-1.6133728,-1.1225951,-0.34703228
alexnet_w1_mlp_simclrhn_probe0,1,264,NaN,keyboard,oven,7,0264_lp_dnn_7_oven_10_n04111531_13862.png,n04111531_13862.png,0.0,-2.7200928,0.088197015,-1.9857608
alexnet_w1_mlp_simclrhn_probe0,1,265,NaN,chair,oven,0,0265_lp_dnn_0_oven_10_n04111531_10420.png,n04111531_10420.png,0.0,-4.9788575,-2.7762923,-1.5574489
alexnet_w1_mlp_simclrhn_probe0,1,266,NaN,keyboard,car,10,0266_lp_dnn_10_car_10_n03100240_15531.png,n03100240_15531.png,0.0,-2.473897,-0.18005612,-1.6219904
alexnet_w1_mlp_simclrhn_probe0,1,267,NaN,keyboard,dog,7,0267_lp_dnn_7_dog_10_n02099849_3128.png,n02099849_3128.png,0.0,-2.678045,-0.20847037,-1.746253
alexnet_w1_mlp_simclrhn_probe0,1,268,NaN,keyboard,chair,5,0268_lp_dnn_5_chair_10_n02791124_3222.png,n02791124_3222.png,0.0,-3.1361718,-0.30516863,-2.0018215
alexnet_w1_mlp_simclrhn_probe0,1,269,NaN,keyboard,keyboard,5,0269_lp_dnn_5_keyboard_10_n04505470_8364.png,n04505470_8364.png,1.0,0.37554365,-0.6889236,0.752692
alexnet_w1_mlp_simclrhn_probe0,1,270,NaN,clock,clock,0,0270_lp_dnn_0_clock_10_n04548280_9294.png,n04548280_9294.png,1.0,-2.2674077,-2.5695908,0.21367575
alexnet_w1_mlp_simclrhn_probe0,1,271,NaN,keyboard,bottle,7,0271_lp_dnn_7_bottle_10_n03937543_3358.png,n03937543_3358.png,0.0,-0.22672513,0.02008257,-0.1745194
alexnet_w1_mlp_simclrhn_probe0,1,272,NaN,clock,knife,7,0272_lp_dnn_7_knife_10_n03041632_2058.png,n03041632_2058.png,0.0,-0.68947345,-0.08319396,-0.42870435
alexnet_w1_mlp_simclrhn_probe0,1,273,NaN,boat,elephant,1,0273_lp_dnn_1_elephant_10_n02504458_5671.png,n02504458_5671.png,0.0,-1.9758623,0.27591974,-1.5922503
alexnet_w1_mlp_simclrhn_probe0,1,274,NaN,keyboard,chair,10,0274_lp_dnn_10_chair_10_n02791124_6281.png,n02791124_6281.png,0.0,-2.5297065,0.053821657,-1.8268303
alexnet_w1_mlp_simclrhn_probe0,1,275,NaN,clock,cat,15,0275_lp_dnn_15_cat_10_n02125311_44920.png,n02125311_44920.png,0.0,-2.4163282,0.27943894,-1.9061953
alexnet_w1_mlp_simclrhn_probe0,1,276,NaN,clock,airplane,5,0276_lp_dnn_5_airplane_10_n02690373_2981.png,n02690373_2981.png,0.0,-1.7421124,-0.6881351,-0.7452745
alexnet_w1_mlp_simclrhn_probe0,1,277,NaN,bottle,knife,1,0277_lp_dnn_1_knife_10_n03041632_2468.png,n03041632_2468.png,0.0,-6.8860774,-5.8746343,-0.71519834
alexnet_w1_mlp_simclrhn_probe0,1,278,NaN,chair,clock,1,0278_lp_dnn_1_clock_10_n02708093_3605.png,n02708093_3605.png,0.0,-4.2993603,-3.4187093,-0.6227143
alexnet_w1_mlp_simclrhn_probe0,1,279,NaN,bicycle,bicycle,1,0279_lp_dnn_1_bicycle_10_n02835271_19019.png,n02835271_19019.png,1.0,1.6738088,-4.662008,4.4800987
alexnet_w1_mlp_simclrhn_probe0,1,280,NaN,keyboard,keyboard,7,0280_lp_dnn_7_keyboard_10_n03085013_1188.png,n03085013_1188.png,1.0,0.315451,-0.38645816,0.49632475
alexnet_w1_mlp_simclrhn_probe0,1,281,NaN,oven,oven,1,0281_lp_dnn_1_oven_10_n04111531_2715.png,n04111531_2715.png,1.0,-2.2194386,-3.2370448,0.7195563
alexnet_w1_mlp_simclrhn_probe0,1,282,NaN,clock,keyboard,10,0282_lp_dnn_10_keyboard_10_n03085013_9533.png,n03085013_9533.png,0.0,0.11894599,0.7715605,-0.46146813
alexnet_w1_mlp_simclrhn_probe0,1,283,NaN,cat,cat,3,0283_lp_dnn_3_cat_10_n02123045_20366.png,n02123045_20366.png,1.0,-1.0544331,-1.8901795,0.59096193
alexnet_w1_mlp_simclrhn_probe0,1,284,NaN,keyboard,chair,5,0284_lp_dnn_5_chair_10_n03376595_302.png,n03376595_302.png,0.0,-2.7802773,0.0035233349,-1.9684443
alexnet_w1_mlp_simclrhn_probe0,1,285,NaN,keyboard,cat,7,0285_lp_dnn_7_cat_10_n02123597_14267.png,n02123597_14267.png,0.0,-3.2650368,0.46171373,-2.6352108
alexnet_w1_mlp_simclrhn_probe0,1,286,NaN,keyboard,dog,15,0286_lp_dnn_15_dog_10_n02098286_2582.png,n02098286_2582.png,0.0,-2.462134,-0.17872235,-1.6146158
alexnet_w1_mlp_simclrhn_probe0,1,287,NaN,airplane,boat,1,0287_lp_dnn_1_boat_10_n03344393_4001.png,n03344393_4001.png,0.0,-3.302082,-2.614759,-0.48601082
alexnet_w1_mlp_simclrhn_probe0,1,288,NaN,clock,bicycle,15,0288_lp_dnn_15_bicycle_10_n02835271_6122.png,n02835271_6122.png,0.0,-2.5495625,-0.17396669,-1.6797999
alexnet_w1_mlp_simclrhn_probe0,1,289,NaN,bear,dog,3,0289_lp_dnn_3_dog_10_n02091134_3075.png,n02091134_3075.png,0.0,-1.1448053,-0.78137004,-0.25698754
alexnet_w1_mlp_simclrhn_probe0,1,290,NaN,clock,oven,40,0290_lp_dnn_40_oven_10_n04111531_4795.png,n04111531_4795.png,0.0,-1.4113125,0.14859106,-1.1030184
alexnet_w1_mlp_simclrhn_probe0,1,291,NaN,keyboard,bottle,10,0291_lp_dnn_10_bottle_10_n04591713_4876.png,n04591713_4876.png,0.0,-0.33289286,-0.18215969,-0.10658445
alexnet_w1_mlp_simclrhn_probe0,1,292,NaN,clock,bottle,0,0292_lp_dnn_0_bottle_10_n02823428_2510.png,n02823428_2510.png,0.0,-1.0233389,3.779239,-3.3959355
alexnet_w1_mlp_simclrhn_probe0,1,293,NaN,oven,keyboard,1,0293_lp_dnn_1_keyboard_10_n03085013_5950.png,n03085013_5950.png,0.0,-3.9155931,-3.1592376,-0.53482413
alexnet_w1_mlp_simclrhn_probe0,1,294,NaN,bird,bear,5,0294_lp_dnn_5_bear_10_n02133161_1490.png,n02133161_1490.png,0.0,-1.2975179,-0.35626477,-0.6655665
alexnet_w1_mlp_simclrhn_probe0,1,295,NaN,keyboard,truck,10,0295_lp_dnn_10_truck_10_n03796401_28465.png,n03796401_28465.png,0.0,-2.7101517,-0.009125188,-1.9099141
alexnet_w1_mlp_simclrhn_probe0,1,296,NaN,clock,bottle,15,0296_lp_dnn_15_bottle_10_n02823428_6627.png,n02823428_6627.png,0.0,-0.27327868,0.075271785,-0.2464624
alexnet_w1_mlp_simclrhn_probe0,1,297,NaN,clock,truck,5,0297_lp_dnn_5_truck_10_n04467665_69582.png,n04467665_69582.png,0.0,-1.9283297,-0.35919198,-1.109548
alexnet_w1_mlp_simclrhn_probe0,1,298,NaN,clock,bird,40,0298_lp_dnn_40_bird_10_n02006656_10568.png,n02006656_10568.png,0.0,-1.1421809,0.096215524,-0.87567854
alexnet_w1_mlp_simclrhn_probe0,1,299,NaN,clock,car,40,0299_lp_dnn_40_car_10_n04285008_11748.png,n04285008_11748.png,0.0,-0.92163247,0.22395237,-0.8100508
alexnet_w1_mlp_simclrhn_probe0,1,300,NaN,keyboard,truck,5,0300_lp_dnn_5_truck_10_n04467665_44714.png,n04467665_44714.png,0.0,-2.6626246,-0.45387322,-1.5618231
alexnet_w1_mlp_simclrhn_probe0,1,301,NaN,airplane,airplane,3,0301_lp_dnn_3_airplane_10_n02690373_7487.png,n02690373_7487.png,1.0,0.7143964,-1.2155018,1.3646442
alexnet_w1_mlp_simclrhn_probe0,1,302,NaN,bottle,elephant,15,0302_lp_dnn_15_elephant_10_n02504458_7472.png,n02504458_7472.png,0.0,-2.6627774,-0.2112132,-1.7335178
alexnet_w1_mlp_simclrhn_probe0,1,303,NaN,knife,boat,3,0303_lp_dnn_3_boat_10_n03662601_25023.png,n03662601_25023.png,0.0,-2.0767496,-0.9908657,-0.76783586
alexnet_w1_mlp_simclrhn_probe0,1,304,NaN,bicycle,knife,0,0304_lp_dnn_0_knife_10_n03041632_101673.png,n03041632_101673.png,0.0,-8.901272,-4.8384733,-2.8728325
alexnet_w1_mlp_simclrhn_probe0,1,305,NaN,keyboard,bottle,7,0305_lp_dnn_7_bottle_10_n03983396_587.png,n03983396_587.png,0.0,-0.39950457,-0.08452131,-0.22272679
alexnet_w1_mlp_simclrhn_probe0,1,306,NaN,oven,cat,3,0306_lp_dnn_3_cat_10_n02124075_7692.png,n02124075_7692.png,0.0,-2.0993626,-1.3435819,-0.5344177
alexnet_w1_mlp_simclrhn_probe0,1,307,NaN,oven,oven,0,0307_lp_dnn_0_oven_10_n04111531_6313.png,n04111531_6313.png,1.0,1.8935835,-3.5332377,3.8373423
alexnet_w1_mlp_simclrhn_probe0,1,308,NaN,bird,bird,7,0308_lp_dnn_7_bird_10_n02018795_5770.png,n02018795_5770.png,1.0,-0.1489795,-0.16695695,0.012711975
alexnet_w1_mlp_simclrhn_probe0,1,309,NaN,bottle,bottle,3,0309_lp_dnn_3_bottle_10_n02823428_4658.png,n02823428_4658.png,1.0,1.1946701,-0.17778651,0.97047335
alexnet_w1_mlp_simclrhn_probe0,1,310,NaN,airplane,airplane,1,0310_lp_dnn_1_airplane_10_n02690373_2724.png,n02690373_2724.png,1.0,4.6609344,-1.4950418,4.3529325
alexnet_w1_mlp_simclrhn_probe0,1,311,NaN,clock,boat,40,0311_lp_dnn_40_boat_10_n04612504_7446.png,n04612504_7446.png,0.0,-1.3007971,0.30774912,-1.137414
alexnet_w1_mlp_simclrhn_probe0,1,312,NaN,bird,boat,7,0312_lp_dnn_7_boat_10_n02951358_34783.png,n02951358_34783.png,0.0,-2.9011989,0.034442812,-2.0758123
alexnet_w1_mlp_simclrhn_probe0,1,313,NaN,cat,cat,0,0313_lp_dnn_0_cat_10_n02123597_680.png,n02123597_680.png,1.0,2.9772308,-1.2820059,3.0117352
alexnet_w1_mlp_simclrhn_probe0,1,314,NaN,bird,bear,10,0314_lp_dnn_10_bear_10_n02133161_9863.png,n02133161_9863.png,0.0,-2.266106,0.03374824,-1.6262424
alexnet_w1_mlp_simclrhn_probe0,1,315,NaN,bear,bear,1,0315_lp_dnn_1_bear_10_n02133161_2100.png,n02133161_2100.png,1.0,0.64689636,-1.3042592,1.3796754
alexnet_w1_mlp_simclrhn_probe0,1,316,NaN,oven,oven,3,0316_lp_dnn_3_oven_10_n04111531_8009.png,n04111531_8009.png,1.0,0.78861153,0.14892688,0.45232537
alexnet_w1_mlp_simclrhn_probe0,1,317,NaN,clock,car,40,0317_lp_dnn_40_car_10_n03100240_16525.png,n03100240_16525.png,0.0,-1.0545819,-0.10352585,-0.67249817
alexnet_w1_mlp_simclrhn_probe0,1,318,NaN,bird,bird,5,0318_lp_dnn_5_bird_10_n01824575_4941.png,n01824575_4941.png,1.0,0.31783858,-0.40228063,0.5092012
alexnet_w1_mlp_simclrhn_probe0,1,319,NaN,bottle,knife,15,0319_lp_dnn_15_knife_10_n03041632_289.png,n03041632_289.png,0.0,-0.70674056,-0.11550081,-0.41806963
alexnet_w1_mlp_simclrhn_probe0,1,320,NaN,clock,dog,10,0320_lp_dnn_10_dog_10_n02101006_15350.png,n02101006_15350.png,0.0,-2.7682467,-0.21775086,-1.803473
alexnet_w1_mlp_simclrhn_probe0,1,321,NaN,bird,elephant,5,0321_lp_dnn_5_elephant_10_n02504458_1636.png,n02504458_1636.png,0.0,-2.3802571,-0.5757498,-1.2759793
alexnet_w1_mlp_simclrhn_probe0,1,322,NaN,keyboard,car,7,0322_lp_dnn_7_car_10_n04285008_8666.png,n04285008_8666.png,0.0,-4.02441,-0.35694712,-2.5932877
alexnet_w1_mlp_simclrhn_probe0,1,323,NaN,keyboard,bottle,5,0323_lp_dnn_5_bottle_10_n02823428_5451.png,n02823428_5451.png,0.0,-0.6911011,-0.6483066,-0.030260257
alexnet_w1_mlp_simclrhn_probe0,1,324,NaN,car,car,3,0324_lp_dnn_3_car_10_n03100240_2495.png,n03100240_2495.png,1.0,-0.75167704,-1.1588389,0.2879069
alexnet_w1_mlp_simclrhn_probe0,1,325,NaN,keyboard,bicycle,10,0325_lp_dnn_10_bicycle_10_n02835271_19565.png,n02835271_19565.png,0.0,-4.0876813,0.19330835,-3.0271168
alexnet_w1_mlp_simclrhn_probe0,1,326,NaN,airplane,airplane,1,0326_lp_dnn_1_airplane_10_n02690373_349.png,n02690373_349.png,1.0,1.8692861,-3.7686744,3.9866402
alexnet_w1_mlp_simclrhn_probe0,1,327,NaN,keyboard,cat,7,0327_lp_dnn_7_cat_10_n02123045_20512.png,n02123045_20512.png,0.0,-2.3957834,-0.030419886,-1.6725646
alexnet_w1_mlp_simclrhn_probe0,1,328,NaN,knife,keyboard,1,0328_lp_dnn_1_keyboard_10_n03085013_23619.png,n03085013_23619.png,0.0,-1.8858117,-1.5008672,-0.27219683
alexnet_w1_mlp_simclrhn_probe0,1,329,NaN,bottle,boat,7,0329_lp_dnn_7_boat_10_n03662601_16925.png,n03662601_16925.png,0.0,-2.1767068,-0.31688643,-1.3150916
alexnet_w1_mlp_simclrhn_probe0,1,330,NaN,keyboard,oven,10,0330_lp_dnn_10_oven_10_n04111531_12830.png,n04111531_12830.png,0.0,-2.0837793,-0.0899073,-1.4098805
alexnet_w1_mlp_simclrhn_probe0,1,331,NaN,bird,boat,5,0331_lp_dnn_5_boat_10_n02951358_33277.png,n02951358_33277.png,0.0,-2.4339795,-0.45433828,-1.3998177
alexnet_w1_mlp_simclrhn_probe0,1,332,NaN,clock,bear,15,0332_lp_dnn_15_bear_10_n02133161_156.png,n02133161_156.png,0.0,-2.4501226,-0.2764119,-1.5370457
alexnet_w1_mlp_simclrhn_probe0,1,333,NaN,clock,cat,40,0333_lp_dnn_40_cat_10_n02124075_6638.png,n02124075_6638.png,0.0,-1.1131945,-0.05165994,-0.7506183
alexnet_w1_mlp_simclrhn_probe0,1,334,NaN,clock,keyboard,10,0334_lp_dnn_10_keyboard_10_n04505470_4587.png,n04505470_4587.png,0.0,-0.0459639,-0.0363815,-0.006775778
alexnet_w1_mlp_simclrhn_probe0,1,335,NaN,clock,bear,10,0335_lp_dnn_10_bear_10_n02134084_27899.png,n02134084_27899.png,0.0,-2.7759223,0.05905779,-2.0046337
alexnet_w1_mlp_simclrhn_probe0,1,336,NaN,keyboard,keyboard,0,0336_lp_dnn_0_keyboard_10_n03085013_10984.png,n03085013_10984.png,1.0,5.5126696,-0.67527974,4.3755407
alexnet_w1_mlp_simclrhn_probe0,1,337,NaN,keyboard,bottle,5,0337_lp_dnn_5_bottle_10_n03983396_10469.png,n03983396_10469.png,0.0,-0.6446664,0.07824533,-0.5111758
alexnet_w1_mlp_simclrhn_probe0,1,338,NaN,keyboard,knife,10,0338_lp_dnn_10_knife_10_n03041632_20707.png,n03041632_20707.png,0.0,-1.5629742,0.19822139,-1.2453535
alexnet_w1_mlp_simclrhn_probe0,1,339,NaN,car,car,1,0339_lp_dnn_1_car_10_n04285008_9411.png,n04285008_9411.png,1.0,1.2283843,0.94606376,0.19963074
alexnet_w1_mlp_simclrhn_probe0,1,340,NaN,clock,airplane,40,0340_lp_dnn_40_airplane_10_n02690373_4671.png,n02690373_4671.png,0.0,-0.89599663,0.37409797,-0.89809257
alexnet_w1_mlp_simclrhn_probe0,1,341,NaN,keyboard,knife,7,0341_lp_dnn_7_knife_10_n03041632_16206.png,n03041632_16206.png,0.0,-1.001176,-0.17123534,-0.58685666
alexnet_w1_mlp_simclrhn_probe0,1,342,NaN,keyboard,bicycle,5,0342_lp_dnn_5_bicycle_10_n03792782_7180.png,n03792782_7180.png,0.0,-4.030001,-0.27793336,-2.6531126
alexnet_w1_mlp_simclrhn_probe0,1,343,NaN,bear,bear,0,0343_lp_dnn_0_bear_10_n02134418_2719.png,n02134418_2719.png,1.0,-3.3509145,-3.814418,0.32774654
alexnet_w1_mlp_simclrhn_probe0,1,344,NaN,chair,chair,0,0344_lp_dnn_0_chair_10_n04099969_2038.png,n04099969_2038.png,1.0,-0.8998947,-3.9879622,2.1835935
alexnet_w1_mlp_simclrhn_probe0,1,345,NaN,oven,dog,1,0345_lp_dnn_1_dog_10_n02113023_5237.png,n02113023_5237.png,0.0,-5.119157,-0.7709892,-3.0746188
alexnet_w1_mlp_simclrhn_probe0,1,346,NaN,clock,airplane,40,0346_lp_dnn_40_airplane_10_n02690373_2525.png,n02690373_2525.png,0.0,-0.6824343,-0.05024563,-0.4470249
alexnet_w1_mlp_simclrhn_probe0,1,347,NaN,clock,clock,7,0347_lp_dnn_7_clock_10_n04548280_219.png,n04548280_219.png,1.0,0.8723283,-0.29359695,0.8244337
alexnet_w1_mlp_simclrhn_probe0,1,348,NaN,clock,boat,15,0348_lp_dnn_15_boat_10_n04612504_2805.png,n04612504_2805.png,0.0,-3.4549572,0.12242603,-2.529592
alexnet_w1_mlp_simclrhn_probe0,1,349,NaN,keyboard,clock,7,0349_lp_dnn_7_clock_10_n02708093_7020.png,n02708093_7020.png,0.0,-0.16341083,-0.005790584,-0.11145435
alexnet_w1_mlp_simclrhn_probe0,1,350,NaN,oven,oven,3,0350_lp_dnn_3_oven_10_n04111531_5171.png,n04111531_5171.png,1.0,-1.4275234,-1.8836888,0.3225577
alexnet_w1_mlp_simclrhn_probe0,1,351,NaN,bear,cat,3,0351_lp_dnn_3_cat_10_n02125311_37322.png,n02125311_37322.png,0.0,-1.4557453,-1.3667903,-0.062900715
alexnet_w1_mlp_simclrhn_probe0,1,352,NaN,bottle,cat,7,0352_lp_dnn_7_cat_10_n02123597_14094.png,n02123597_14094.png,0.0,-3.0847604,-0.2426313,-2.0096889
alexnet_w1_mlp_simclrhn_probe0,1,353,NaN,clock,boat,15,0353_lp_dnn_15_boat_10_n02951358_13352.png,n02951358_13352.png,0.0,-3.1219623,0.069713056,-2.2568555
alexnet_w1_mlp_simclrhn_probe0,1,354,NaN,keyboard,bicycle,10,0354_lp_dnn_10_bicycle_10_n02835271_20445.png,n02835271_20445.png,0.0,-3.1787486,-0.045614466,-2.2154605
alexnet_w1_mlp_simclrhn_probe0,1,355,NaN,keyboard,knife,7,0355_lp_dnn_7_knife_10_n03041632_4708.png,n03041632_4708.png,0.0,-0.84980124,0.13949081,-0.69953513
alexnet_w1_mlp_simclrhn_probe0,1,356,NaN,keyboard,oven,7,0356_lp_dnn_7_oven_10_n04111531_505.png,n04111531_505.png,0.0,-2.0396461,0.06756121,-1.4900206
alexnet_w1_mlp_simclrhn_probe0,1,357,NaN,bicycle,bicycle,1,0357_lp_dnn_1_bicycle_10_n03792782_104.png,n03792782_104.png,1.0,1.2622699,-4.0200586,3.7351704
alexnet_w1_mlp_simclrhn_probe0,1,358,NaN,clock,bottle,40,0358_lp_dnn_40_bottle_10_n04591713_5204.png,n04591713_5204.png,0.0,-0.1544042,0.01886706,-0.12252128
alexnet_w1_mlp_simclrhn_probe0,1,359,NaN,keyboard,bicycle,5,0359_lp_dnn_5_bicycle_10_n03792782_5578.png,n03792782_5578.png,0.0,-4.725626,-0.2029259,-3.1980321
alexnet_w1_mlp_simclrhn_probe0,1,360,NaN,keyboard,truck,10,0360_lp_dnn_10_truck_10_n03417042_1437.png,n03417042_1437.png,0.0,-3.9347377,0.088076785,-2.8445592
alexnet_w1_mlp_simclrhn_probe0,1,361,NaN,boat,cat,0,0361_lp_dnn_0_cat_10_n02123045_7482.png,n02123045_7482.png,0.0,-6.986484,-5.323064,-1.1762158
alexnet_w1_mlp_simclrhn_probe0,1,362,NaN,keyboard,bird,10,0362_lp_dnn_10_bird_10_n02037110_554.png,n02037110_554.png,0.0,-0.01535864,0.033490002,-0.03454121
alexnet_w1_mlp_simclrhn_probe0,1,363,NaN,bird,bicycle,5,0363_lp_dnn_5_bicycle_10_n03792782_15.png,n03792782_15.png,0.0,-3.443015,0.015405937,-2.445473
alexnet_w1_mlp_simclrhn_probe0,1,364,NaN,keyboard,bicycle,5,0364_lp_dnn_5_bicycle_10_n02835271_7450.png,n02835271_7450.png,0.0,-4.06594,-0.2491102,-2.6989062
alexnet_w1_mlp_simclrhn_probe0,1,365,NaN,clock,boat,5,0365_lp_dnn_5_boat_10_n03344393_3881.png,n03344393_3881.png,0.0,-2.2555184,-0.6033326,-1.1682719
alexnet_w1_mlp_simclrhn_probe0,1,366,NaN,keyboard,chair,10,0366_lp_dnn_10_chair_10_n04099969_3623.png,n04099969_3623.png,0.0,-2.7630754,-0.33089626,-1.7198102
alexnet_w1_mlp_simclrhn_probe0,1,367,NaN,clock,airplane,5,0367_lp_dnn_5_airplane_10_n02690373_2579.png,n02690373_2579.png,0.0,-1.8771551,-0.4483281,-1.0103332
alexnet_w1_mlp_simclrhn_probe0,1,368,NaN,clock,dog,15,0368_lp_dnn_15_dog_10_n02093859_3707.png,n02093859_3707.png,0.0,-2.8536444,-0.3034486,-1.8032607
alexnet_w1_mlp_simclrhn_probe0,1,369,NaN,oven,bottle,1,0369_lp_dnn_1_bottle_10_n04560804_22426.png,n04560804_22426.png,0.0,-6.7510858,-6.041674,-0.50162977
alexnet_w1_mlp_simclrhn_probe0,1,370,NaN,clock,clock,15,0370_lp_dnn_15_clock_10_n03196217_82.png,n03196217_82.png,1.0,0.11696663,-0.3877655,0.35689953
alexnet_w1_mlp_simclrhn_probe0,1,371,NaN,keyboard,car,5,0371_lp_dnn_5_car_10_n03100240_16907.png,n03100240_16907.png,0.0,-2.9029663,-0.19160989,-1.9172186
alexnet_w1_mlp_simclrhn_probe0,1,372,NaN,keyboard,oven,5,0372_lp_dnn_5_oven_10_n04111531_9548.png,n04111531_9548.png,0.0,-2.14141,-0.046467617,-1.4813482
alexnet_w1_mlp_simclrhn_probe0,1,373,NaN,keyboard,clock,7,0373_lp_dnn_7_clock_10_n02708093_3751.png,n02708093_3751.png,0.0,-0.3762189,-0.051223636,-0.22980635
alexnet_w1_mlp_simclrhn_probe0,1,374,NaN,keyboard,car,7,0374_lp_dnn_7_car_10_n02814533_6593.png,n02814533_6593.png,0.0,-3.7300634,0.1186271,-2.7214353
alexnet_w1_mlp_simclrhn_probe0,1,375,NaN,airplane,airplane,0,0375_lp_dnn_0_airplane_10_n02690373_3212.png,n02690373_3212.png,1.0,6.6481395,-2.1150355,6.196501
alexnet_w1_mlp_simclrhn_probe0,1,376,NaN,cat,cat,1,0376_lp_dnn_1_cat_10_n02123045_5820.png,n02123045_5820.png,1.0,-5.12765,-5.4219737,0.20811844
alexnet_w1_mlp_simclrhn_probe0,1,377,NaN,bottle,elephant,3,0377_lp_dnn_3_elephant_10_n02504458_205.png,n02504458_205.png,0.0,-1.0104338,-0.9925824,-0.012622855
alexnet_w1_mlp_simclrhn_probe0,1,378,NaN,bird,elephant,10,0378_lp_dnn_10_elephant_10_n02504013_3425.png,n02504013_3425.png,0.0,-3.098289,-0.18953459,-2.0568
alexnet_w1_mlp_simclrhn_probe0,1,379,NaN,clock,bird,15,0379_lp_dnn_15_bird_10_n02056570_9572.png,n02056570_9572.png,0.0,-0.7029656,-0.07780299,-0.44205672
alexnet_w1_mlp_simclrhn_probe0,1,380,NaN,clock,elephant,40,0380_lp_dnn_40_elephant_10_n02504013_7635.png,n02504013_7635.png,0.0,-1.4098465,0.3520514,-1.24585
alexnet_w1_mlp_simclrhn_probe0,1,381,NaN,clock,boat,10,0381_lp_dnn_10_boat_10_n04273569_10716.png,n04273569_10716.png,0.0,-2.4060206,-0.06618408,-1.6545143
alexnet_w1_mlp_simclrhn_probe0,1,382,NaN,clock,bear,15,0382_lp_dnn_15_bear_10_n02134084_19849.png,n02134084_19849.png,0.0,-2.8680146,-0.11165915,-1.9490377
alexnet_w1_mlp_simclrhn_probe0,1,383,NaN,clock,boat,40,0383_lp_dnn_40_boat_10_n03662601_35800.png,n03662601_35800.png,0.0,-1.0880026,-0.013777465,-0.7595918
alexnet_w1_mlp_simclrhn_probe0,1,384,NaN,clock,bicycle,40,0384_lp_dnn_40_bicycle_10_n03792782_29276.png,n03792782_29276.png,0.0,-2.1456692,0.18506414,-1.6480774
alexnet_w1_mlp_simclrhn_probe0,1,385,NaN,bird,oven,10,0385_lp_dnn_10_oven_10_n04111531_4392.png,n04111531_4392.png,0.0,-2.280284,0.062148422,-1.6563498
alexnet_w1_mlp_simclrhn_probe0,1,386,NaN,airplane,airplane,0,0386_lp_dnn_0_airplane_10_n02690373_7099.png,n02690373_7099.png,1.0,6.9086065,0.23858936,4.7164145
alexnet_w1_mlp_simclrhn_probe0,1,387,NaN,bird,cat,5,0387_lp_dnn_5_cat_10_n02124075_13187.png,n02124075_13187.png,0.0,-2.5318565,-0.3159928,-1.5668523
alexnet_w1_mlp_simclrhn_probe0,1,388,NaN,knife,knife,0,0388_lp_dnn_0_knife_10_n03041632_32048.png,n03041632_32048.png,1.0,-5.4080024,-5.819975,0.29130858
alexnet_w1_mlp_simclrhn_probe0,1,389,NaN,knife,airplane,3,0389_lp_dnn_3_airplane_10_n02690373_20074.png,n02690373_20074.png,0.0,-0.95269805,-0.7455906,-0.14644706
alexnet_w1_mlp_simclrhn_probe0,1,390,NaN,truck,car,1,0390_lp_dnn_1_car_10_n02814533_83577.png,n02814533_83577.png,0.0,2.8113267,2.9677477,-0.11060631
alexnet_w1_mlp_simclrhn_probe0,1,391,NaN,clock,airplane,40,0391_lp_dnn_40_airplane_10_n02690373_19134.png,n02690373_19134.png,0.0,-0.6889147,0.037762895,-0.51383865
alexnet_w1_mlp_simclrhn_probe0,1,392,NaN,knife,knife,3,0392_lp_dnn_3_knife_10_n03041632_13130.png,n03041632_13130.png,1.0,-0.5859804,-1.0458881,0.32520384
alexnet_w1_mlp_simclrhn_probe0,1,393,NaN,knife,knife,0,0393_lp_dnn_0_knife_10_n03041632_1006.png,n03041632_1006.png,1.0,-4.718723,-7.082729,1.6716048
alexnet_w1_mlp_simclrhn_probe0,1,394,NaN,elephant,elephant,1,0394_lp_dnn_1_elephant_10_n02504458_7634.png,n02504458_7634.png,1.0,2.2006512,-1.9022273,2.9011734
alexnet_w1_mlp_simclrhn_probe0,1,395,NaN,bicycle,bicycle,1,0395_lp_dnn_1_bicycle_10_n02835271_17184.png,n02835271_17184.png,1.0,3.0576727,-5.04335,5.728288
alexnet_w1_mlp_simclrhn_probe0,1,396,NaN,bottle,oven,0,0396_lp_dnn_0_oven_10_n04111531_2189.png,n04111531_2189.png,0.0,-5.2098484,-4.590833,-0.43770987
alexnet_w1_mlp_simclrhn_probe0,1,397,NaN,clock,cat,15,0397_lp_dnn_15_cat_10_n02124075_11888.png,n02124075_11888.png,0.0,-1.5804309,0.020558119,-1.1320702
alexnet_w1_mlp_simclrhn_probe0,1,398,NaN,keyboard,cat,10,0398_lp_dnn_10_cat_10_n02123394_1690.png,n02123394_1690.png,0.0,-2.5298293,-0.041075043,-1.7598151
alexnet_w1_mlp_simclrhn_probe0,1,399,NaN,dog,dog,1,0399_lp_dnn_1_dog_10_n02111500_2905.png,n02111500_2905.png,1.0,-0.84675264,-1.4041538,0.39414215
alexnet_w1_mlp_simclrhn_probe0,1,400,NaN,keyboard,knife,5,0400_lp_dnn_5_knife_10_n03041632_20433.png,n03041632_20433.png,0.0,-1.9266204,0.29402143,-1.570231
alexnet_w1_mlp_simclrhn_probe0,1,401,NaN,clock,clock,15,0401_lp_dnn_15_clock_10_n04548280_22641.png,n04548280_22641.png,1.0,0.10157523,-0.16393434,0.18774362
alexnet_w1_mlp_simclrhn_probe0,1,402,NaN,clock,bottle,15,0402_lp_dnn_15_bottle_10_n04557648_634.png,n04557648_634.png,0.0,-0.22502895,0.008226375,-0.16493642
alexnet_w1_mlp_simclrhn_probe0,1,403,NaN,truck,truck,1,0403_lp_dnn_1_truck_10_n04467665_69447.png,n04467665_69447.png,1.0,-0.33143637,-0.67573625,0.24345678
alexnet_w1_mlp_simclrhn_probe0,1,404,NaN,elephant,elephant,3,0404_lp_dnn_3_elephant_10_n02504013_1777.png,n02504013_1777.png,1.0,-2.015038,-2.1029522,0.06216475
alexnet_w1_mlp_simclrhn_probe0,1,405,NaN,truck,truck,0,0405_lp_dnn_0_truck_10_n03796401_2559.png,n03796401_2559.png,1.0,-0.7318928,-3.2448788,1.7769494
alexnet_w1_mlp_simclrhn_probe0,1,406,NaN,car,car,1,0406_lp_dnn_1_car_10_n02814533_42547.png,n02814533_42547.png,1.0,5.2886834,3.1839013,1.4883057
alexnet_w1_mlp_simclrhn_probe0,1,407,NaN,clock,clock,15,0407_lp_dnn_15_clock_10_n04548280_7181.png,n04548280_7181.png,1.0,0.047303487,-0.29119056,0.23935145
alexnet_w1_mlp_simclrhn_probe0,1,408,NaN,airplane,boat,1,0408_lp_dnn_1_boat_10_n03344393_5030.png,n03344393_5030.png,0.0,-1.0432564,0.9936869,-1.4403366
alexnet_w1_mlp_simclrhn_probe0,1,409,NaN,bird,bottle,15,0409_lp_dnn_15_bottle_10_n04591713_2952.png,n04591713_2952.png,0.0,-0.37819186,-0.060744863,-0.22446893
alexnet_w1_mlp_simclrhn_probe0,1,410,NaN,keyboard,keyboard,5,0410_lp_dnn_5_keyboard_10_n04505470_4742.png,n04505470_4742.png,1.0,-0.045788947,-0.6239046,0.4087895
alexnet_w1_mlp_simclrhn_probe0,1,411,NaN,keyboard,bear,7,0411_lp_dnn_7_bear_10_n02134418_4696.png,n02134418_4696.png,0.0,-2.1353612,-0.22663827,-1.3496709
alexnet_w1_mlp_simclrhn_probe0,1,412,NaN,clock,bear,40,0412_lp_dnn_40_bear_10_n02132136_5815.png,n02132136_5815.png,0.0,-1.8277601,0.27822903,-1.4891592
alexnet_w1_mlp_simclrhn_probe0,1,413,NaN,clock,bicycle,15,0413_lp_dnn_15_bicycle_10_n02835271_8203.png,n02835271_8203.png,0.0,-2.8888652,-0.022257468,-2.0269978
alexnet_w1_mlp_simclrhn_probe0,1,414,NaN,clock,car,40,0414_lp_dnn_40_car_10_n04285008_12868.png,n04285008_12868.png,0.0,-0.80562544,0.007939723,-0.57527745
alexnet_w1_mlp_simclrhn_probe0,1,415,NaN,clock,bear,40,0415_lp_dnn_40_bear_10_n02132136_7074.png,n02132136_7074.png,0.0,-1.6543252,-0.10709202,-1.0940591
alexnet_w1_mlp_simclrhn_probe0,1,416,NaN,oven,boat,3,0416_lp_dnn_3_boat_10_n03344393_8265.png,n03344393_8265.png,0.0,-2.111999,-1.445259,-0.47145644
alexnet_w1_mlp_simclrhn_probe0,1,417,NaN,keyboard,truck,10,0417_lp_dnn_10_truck_10_n04467665_12177.png,n04467665_12177.png,0.0,-3.2159605,0.01933372,-2.2876985
alexnet_w1_mlp_simclrhn_probe0,1,418,NaN,keyboard,car,3,0418_lp_dnn_3_car_10_n03100240_8987.png,n03100240_8987.png,0.0,-0.92890114,-0.91591555,-0.009182197
alexnet_w1_mlp_simclrhn_probe0,1,419,NaN,clock,bird,15,0419_lp_dnn_15_bird_10_n01530575_10601.png,n01530575_10601.png,0.0,-0.35357752,-0.074884415,-0.19706579
alexnet_w1_mlp_simclrhn_probe0,1,420,NaN,clock,keyboard,15,0420_lp_dnn_15_keyboard_10_n04505470_313.png,n04505470_313.png,0.0,-0.06491797,0.3073937,-0.2632641
alexnet_w1_mlp_simclrhn_probe0,1,421,NaN,truck,truck,1,0421_lp_dnn_1_truck_10_n03417042_5371.png,n03417042_5371.png,1.0,-0.045951203,-1.6212705,1.113919
alexnet_w1_mlp_simclrhn_probe0,1,422,NaN,truck,truck,0,0422_lp_dnn_0_truck_10_n03796401_29952.png,n03796401_29952.png,1.0,1.3112092,-3.6031861,3.4750023
alexnet_w1_mlp_simclrhn_probe0,1,423,NaN,keyboard,bicycle,5,0423_lp_dnn_5_bicycle_10_n03792782_6159.png,n03792782_6159.png,0.0,-2.4936368,0.1278463,-1.8536685
alexnet_w1_mlp_simclrhn_probe0,1,424,NaN,bird,elephant,7,0424_lp_dnn_7_elephant_10_n02504458_1336.png,n02504458_1336.png,0.0,-2.4079466,0.18002906,-1.8299752
alexnet_w1_mlp_simclrhn_probe0,1,425,NaN,bird,bicycle,10,0425_lp_dnn_10_bicycle_10_n02835271_8597.png,n02835271_8597.png,0.0,-3.909204,0.14425828,-2.866231
alexnet_w1_mlp_simclrhn_probe0,1,426,NaN,keyboard,keyboard,3,0426_lp_dnn_3_keyboard_10_n04505470_3615.png,n04505470_3615.png,1.0,0.788834,-0.7663326,1.0996689
alexnet_w1_mlp_simclrhn_probe0,1,427,NaN,bird,dog,7,0427_lp_dnn_7_dog_10_n02090721_7040.png,n02090721_7040.png,0.0,-2.2811177,-0.25632015,-1.431748
alexnet_w1_mlp_simclrhn_probe0,1,428,NaN,cat,cat,0,0428_lp_dnn_0_cat_10_n02124075_17347.png,n02124075_17347.png,1.0,-0.52209723,-6.598448,4.296629
alexnet_w1_mlp_simclrhn_probe0,1,429,NaN,chair,keyboard,0,0429_lp_dnn_0_keyboard_10_n03085013_23018.png,n03085013_23018.png,0.0,-3.7951057,-2.990828,-0.5687102
alexnet_w1_mlp_simclrhn_probe0,1,430,NaN,clock,car,40,0430_lp_dnn_40_car_10_n03100240_5018.png,n03100240_5018.png,0.0,-1.3672758,0.1509965,-1.0735807
alexnet_w1_mlp_simclrhn_probe0,1,431,NaN,clock,dog,40,0431_lp_dnn_40_dog_10_n02105056_12631.png,n02105056_12631.png,0.0,-1.9519936,0.5317492,-1.7562714
alexnet_w1_mlp_simclrhn_probe0,1,432,NaN,clock,knife,15,0432_lp_dnn_15_knife_10_n03041632_27848.png,n03041632_27848.png,0.0,-0.78369004,0.233867,-0.71952146
alexnet_w1_mlp_simclrhn_probe0,1,433,NaN,keyboard,keyboard,3,0433_lp_dnn_3_keyboard_10_n04505470_4432.png,n04505470_4432.png,1.0,1.6019185,-0.10830884,1.2093133
alexnet_w1_mlp_simclrhn_probe0,1,434,NaN,clock,bear,15,0434_lp_dnn_15_bear_10_n02132136_786.png,n02132136_786.png,0.0,-2.4165342,-0.06159715,-1.665192
alexnet_w1_mlp_simclrhn_probe0,1,435,NaN,keyboard,truck,15,0435_lp_dnn_15_truck_10_n03796401_10519.png,n03796401_10519.png,0.0,-2.1350613,-0.22427244,-1.3511317
alexnet_w1_mlp_simclrhn_probe0,1,436,NaN,clock,airplane,5,0436_lp_dnn_5_airplane_10_n02690373_9086.png,n02690373_9086.png,0.0,-1.4214718,-0.24243714,-0.83370346
alexnet_w1_mlp_simclrhn_probe0,1,437,NaN,bicycle,boat,0,0437_lp_dnn_0_boat_10_n02951358_512.png,n02951358_512.png,0.0,-7.927083,-1.1943529,-4.760759
alexnet_w1_mlp_simclrhn_probe0,1,438,NaN,keyboard,bear,10,0438_lp_dnn_10_bear_10_n02132136_10468.png,n02132136_10468.png,0.0,-3.2542095,-0.059355885,-2.2591026
alexnet_w1_mlp_simclrhn_probe0,1,439,NaN,keyboard,bear,5,0439_lp_dnn_5_bear_10_n02134084_13175.png,n02134084_13175.png,0.0,-2.3058133,0.054407645,-1.6689283
alexnet_w1_mlp_simclrhn_probe0,1,440,NaN,bird,dog,10,0440_lp_dnn_10_dog_10_n02088364_2119.png,n02088364_2119.png,0.0,-2.771232,0.0051587773,-1.9632046
alexnet_w1_mlp_simclrhn_probe0,1,441,NaN,boat,boat,1,0441_lp_dnn_1_boat_10_n04612504_26238.png,n04612504_26238.png,1.0,1.2462876,-1.0162239,1.5998373
alexnet_w1_mlp_simclrhn_probe0,1,442,NaN,bear,bear,3,0442_lp_dnn_3_bear_10_n02134084_20142.png,n02134084_20142.png,1.0,-0.6602321,-1.2049853,0.38519865
alexnet_w1_mlp_simclrhn_probe0,1,443,NaN,keyboard,dog,5,0443_lp_dnn_5_dog_10_n02107683_1076.png,n02107683_1076.png,0.0,-2.943126,-0.24414493,-1.9084679
alexnet_w1_mlp_simclrhn_probe0,1,444,NaN,keyboard,car,3,0444_lp_dnn_3_car_10_n02814533_35386.png,n02814533_35386.png,0.0,-0.8044949,-0.33906808,-0.32910648
alexnet_w1_mlp_simclrhn_probe0,1,445,NaN,clock,bird,3,0445_lp_dnn_3_bird_10_n01531178_15380.png,n01531178_15380.png,0.0,-1.9240818,-1.7667522,-0.1112488
alexnet_w1_mlp_simclrhn_probe0,1,446,NaN,keyboard,bear,7,0446_lp_dnn_7_bear_10_n02134084_17529.png,n02134084_17529.png,0.0,-3.1609552,0.1041038,-2.3087454
alexnet_w1_mlp_simclrhn_probe0,1,447,NaN,bird,bicycle,10,0447_lp_dnn_10_bicycle_10_n02835271_22623.png,n02835271_22623.png,0.0,-2.7742982,-0.26447007,-1.7747165
alexnet_w1_mlp_simclrhn_probe0,1,448,NaN,keyboard,chair,15,0448_lp_dnn_15_chair_10_n02791124_3160.png,n02791124_3160.png,0.0,-2.906252,-0.26245987,-1.8694434
alexnet_w1_mlp_simclrhn_probe0,1,449,NaN,bottle,bottle,0,0449_lp_dnn_0_bottle_10_n02823428_2422.png,n02823428_2422.png,1.0,3.2715797,-2.394475,4.006506
alexnet_w1_mlp_simclrhn_probe0,1,450,NaN,keyboard,bear,7,0450_lp_dnn_7_bear_10_n02134084_34902.png,n02134084_34902.png,0.0,-1.7206476,0.022320554,-1.2324646
alexnet_w1_mlp_simclrhn_probe0,1,451,NaN,clock,bicycle,15,0451_lp_dnn_15_bicycle_10_n02835271_3535.png,n02835271_3535.png,0.0,-2.7500863,0.037325382,-1.9709977
alexnet_w1_mlp_simclrhn_probe0,1,452,NaN,oven,oven,1,0452_lp_dnn_1_oven_10_n04111531_10640.png,n04111531_10640.png,1.0,3.237656,-0.45960623,2.6143594
alexnet_w1_mlp_simclrhn_probe0,1,453,NaN,clock,keyboard,40,0453_lp_dnn_40_keyboard_10_n04505470_1338.png,n04505470_1338.png,0.0,-0.7156377,0.22017543,-0.6617198
alexnet_w1_mlp_simclrhn_probe0,1,454,NaN,car,keyboard,0,0454_lp_dnn_0_keyboard_10_n03085013_26656.png,n03085013_26656.png,0.0,-1.035963,-0.6245693,-0.29089934
alexnet_w1_mlp_simclrhn_probe0,1,455,NaN,keyboard,boat,5,0455_lp_dnn_5_boat_10_n03344393_9575.png,n03344393_9575.png,0.0,-3.401677,-0.055708095,-2.3659573
alexnet_w1_mlp_simclrhn_probe0,1,456,NaN,boat,boat,1,0456_lp_dnn_1_boat_10_n03344393_4616.png,n03344393_4616.png,1.0,-1.6826719,-3.0875258,0.99338174
alexnet_w1_mlp_simclrhn_probe0,1,457,NaN,bicycle,bicycle,0,0457_lp_dnn_0_bicycle_10_n02835271_11929.png,n02835271_11929.png,1.0,-2.8199067,-7.2743635,3.1497767
alexnet_w1_mlp_simclrhn_probe0,1,458,NaN,keyboard,keyboard,3,0458_lp_dnn_3_keyboard_10_n03085013_20515.png,n03085013_20515.png,1.0,2.7258587,-0.19120884,2.0626783
alexnet_w1_mlp_simclrhn_probe0,1,459,NaN,clock,dog,40,0459_lp_dnn_40_dog_10_n02088364_3791.png,n02088364_3791.png,0.0,-1.5378839,0.23545809,-1.2539421
alexnet_w1_mlp_simclrhn_probe0,1,460,NaN,airplane,airplane,0,0460_lp_dnn_0_airplane_10_n02690373_10114.png,n02690373_10114.png,1.0,7.1277742,0.62484056,4.5982685
alexnet_w1_mlp_simclrhn_probe0,1,461,NaN,clock,airplane,10,0461_lp_dnn_10_airplane_10_n02690373_8543.png,n02690373_8543.png,0.0,-1.9771343,-0.08640226,-1.3369495
alexnet_w1_mlp_simclrhn_probe0,1,462,NaN,keyboard,chair,7,0462_lp_dnn_7_chair_10_n04429376_14967.png,n04429376_14967.png,0.0,-2.4442143,0.08425602,-1.7878985
alexnet_w1_mlp_simclrhn_probe0,1,463,NaN,clock,cat,15,0463_lp_dnn_15_cat_10_n02125311_24439.png,n02125311_24439.png,0.0,-1.8691002,-0.03603558,-1.2961725
alexnet_w1_mlp_simclrhn_probe0,1,464,NaN,keyboard,truck,5,0464_lp_dnn_5_truck_10_n03417042_4665.png,n03417042_4665.png,0.0,-3.1961064,-0.011475362,-2.2518742
alexnet_w1_mlp_simclrhn_probe0,1,465,NaN,clock,elephant,40,0465_lp_dnn_40_elephant_10_n02504013_4044.png,n02504013_4044.png,0.0,-1.5508778,0.04834941,-1.1308244
alexnet_w1_mlp_simclrhn_probe0,1,466,NaN,bird,bird,1,0466_lp_dnn_1_bird_10_n01843065_3596.png,n01843065_3596.png,1.0,-2.5934985,-5.5314283,2.0774302
alexnet_w1_mlp_simclrhn_probe0,1,467,NaN,bird,bird,10,0467_lp_dnn_10_bird_10_n02011460_17499.png,n02011460_17499.png,1.0,-0.16133705,-0.25481147,0.066096395
alexnet_w1_mlp_simclrhn_probe0,1,468,NaN,elephant,elephant,0,0468_lp_dnn_0_elephant_10_n02504458_7506.png,n02504458_7506.png,1.0,-2.4909434,-5.206618,1.9202719
alexnet_w1_mlp_simclrhn_probe0,1,469,NaN,clock,keyboard,40,0469_lp_dnn_40_keyboard_10_n03085013_21955.png,n03085013_21955.png,0.0,-0.7789958,0.08442661,-0.61053187
alexnet_w1_mlp_simclrhn_probe0,1,470,NaN,clock,clock,40,0470_lp_dnn_40_clock_10_n02708093_7810.png,n02708093_7810.png,1.0,0.15016797,-0.08157356,0.16386601
alexnet_w1_mlp_simclrhn_probe0,1,471,NaN,clock,car,40,0471_lp_dnn_40_car_10_n02814533_7984.png,n02814533_7984.png,0.0,-1.1063634,0.059084117,-0.82409585
alexnet_w1_mlp_simclrhn_probe0,1,472,NaN,keyboard,dog,5,0472_lp_dnn_5_dog_10_n02106382_1806.png,n02106382_1806.png,0.0,-2.2922041,-0.5269558,-1.248219
alexnet_w1_mlp_simclrhn_probe0,1,473,NaN,clock,chair,15,0473_lp_dnn_15_chair_10_n02791124_3890.png,n02791124_3890.png,0.0,-3.09527,0.078902744,-2.244479
alexnet_w1_mlp_simclrhn_probe0,1,474,NaN,keyboard,elephant,7,0474_lp_dnn_7_elephant_10_n02504013_16929.png,n02504013_16929.png,0.0,-3.2279572,-0.14763796,-2.178115
alexnet_w1_mlp_simclrhn_probe0,1,475,NaN,keyboard,elephant,7,0475_lp_dnn_7_elephant_10_n02504013_8052.png,n02504013_8052.png,0.0,-3.0914555,-0.085127994,-2.1257944
alexnet_w1_mlp_simclrhn_probe0,1,476,NaN,bear,bear,1,0476_lp_dnn_1_bear_10_n02132136_1584.png,n02132136_1584.png,1.0,-0.9291837,-1.9144688,0.69670177
alexnet_w1_mlp_simclrhn_probe0,1,477,NaN,keyboard,keyboard,1,0477_lp_dnn_1_keyboard_10_n04505470_532.png,n04505470_532.png,1.0,2.4347715,-0.67556924,2.1993432
alexnet_w1_mlp_simclrhn_probe0,1,478,NaN,airplane,airplane,1,0478_lp_dnn_1_airplane_10_n02690373_3988.png,n02690373_3988.png,1.0,5.249734,-0.25729278,3.894056
alexnet_w1_mlp_simclrhn_probe0,1,479,NaN,bird,bicycle,15,0479_lp_dnn_15_bicycle_10_n03792782_13051.png,n03792782_13051.png,0.0,-3.451747,-0.1138575,-2.3602443
alexnet_w1_mlp_simclrhn_probe0,1,480,NaN,bottle,bear,3,0480_lp_dnn_3_bear_10_n02134084_4818.png,n02134084_4818.png,0.0,-1.9485295,-1.2904022,-0.4653663
alexnet_w1_mlp_simclrhn_probe0,1,481,NaN,keyboard,boat,10,0481_lp_dnn_10_boat_10_n02951358_9146.png,n02951358_9146.png,0.0,-2.9740336,-0.24171701,-1.9320395
alexnet_w1_mlp_simclrhn_probe0,1,482,NaN,clock,keyboard,40,0482_lp_dnn_40_keyboard_10_n03085013_19317.png,n03085013_19317.png,0.0,-0.70306766,0.13599697,-0.59330827
alexnet_w1_mlp_simclrhn_probe0,1,483,NaN,clock,bicycle,40,0483_lp_dnn_40_bicycle_10_n03792782_17666.png,n03792782_17666.png,0.0,-1.2528718,-0.12169976,-0.79985934
alexnet_w1_mlp_simclrhn_probe0,1,484,NaN,clock,bear,40,0484_lp_dnn_40_bear_10_n02133161_20090.png,n02133161_20090.png,0.0,-1.6056011,0.28280556,-1.3353052
alexnet_w1_mlp_simclrhn_probe0,1,485,NaN,keyboard,bottle,3,0485_lp_dnn_3_bottle_10_n03937543_11101.png,n03937543_11101.png,0.0,-2.1874568,-0.9692705,-0.86138785
alexnet_w1_mlp_simclrhn_probe0,1,486,NaN,keyboard,bear,7,0486_lp_dnn_7_bear_10_n02133161_2281.png,n02133161_2281.png,0.0,-2.2981958,-0.16205753,-1.5104778
alexnet_w1_mlp_simclrhn_probe0,1,487,NaN,clock,airplane,10,0487_lp_dnn_10_airplane_10_n02690373_8813.png,n02690373_8813.png,0.0,-2.586806,0.16489184,-1.9457444
alexnet_w1_mlp_simclrhn_probe0,1,488,NaN,clock,boat,40,0488_lp_dnn_40_boat_10_n03662601_33625.png,n03662601_33625.png,0.0,-0.5627414,0.039576873,-0.42590335
alexnet_w1_mlp_simclrhn_probe0,1,489,NaN,clock,cat,40,0489_lp_dnn_40_cat_10_n02124075_9066.png,n02124075_9066.png,0.0,-0.9636092,0.12291742,-0.76829034
alexnet_w1_mlp_simclrhn_probe0,1,490,NaN,oven,oven,3,0490_lp_dnn_3_oven_10_n04111531_10216.png,n04111531_10216.png,1.0,-1.6278466,-1.6346781,0.004830619
alexnet_w1_mlp_simclrhn_probe0,1,491,NaN,bird,bird,7,0491_lp_dnn_7_bird_10_n01614925_1097.png,n01614925_1097.png,1.0,-0.039330423,-0.3529029,0.22172922
alexnet_w1_mlp_simclrhn_probe0,1,492,NaN,elephant,bird,0,0492_lp_dnn_0_bird_10_n02017213_1163.png,n02017213_1163.png,0.0,-3.0571685,-1.9997603,-0.7477005
alexnet_w1_mlp_simclrhn_probe0,1,493,NaN,clock,oven,40,0493_lp_dnn_40_oven_10_n04111531_283.png,n04111531_283.png,0.0,-1.0160056,0.03852315,-0.7456645
alexnet_w1_mlp_simclrhn_probe0,1,494,NaN,clock,truck,15,0494_lp_dnn_15_truck_10_n04467665_39317.png,n04467665_39317.png,0.0,-2.8774538,-0.22890711,-1.8728054
alexnet_w1_mlp_simclrhn_probe0,1,495,NaN,dog,dog,1,0495_lp_dnn_1_dog_10_n02093754_5037.png,n02093754_5037.png,1.0,-1.0405685,-1.9174715,0.6200641
alexnet_w1_mlp_simclrhn_probe0,1,496,NaN,clock,bicycle,40,0496_lp_dnn_40_bicycle_10_n02835271_2580.png,n02835271_2580.png,0.0,-1.8157203,-0.0009194513,-1.283258
alexnet_w1_mlp_simclrhn_probe0,1,497,NaN,keyboard,airplane,7,0497_lp_dnn_7_airplane_10_n02690373_2564.png,n02690373_2564.png,0.0,-2.03468,-0.2630896,-1.2527035
alexnet_w1_mlp_simclrhn_probe0,1,498,NaN,clock,truck,40,0498_lp_dnn_40_truck_10_n04467665_62626.png,n04467665_62626.png,0.0,-1.6157652,-0.097123526,-1.0738419
alexnet_w1_mlp_simclrhn_probe0,1,499,NaN,keyboard,chair,10,0499_lp_dnn_10_chair_10_n04429376_2450.png,n04429376_2450.png,0.0,-2.531813,-0.3057443,-1.5740682
alexnet_w1_mlp_simclrhn_probe0,1,500,NaN,keyboard,keyboard,0,0500_lp_dnn_0_keyboard_10_n04505470_4044.png,n04505470_4044.png,1.0,9.114689,-1.087671,7.214158
alexnet_w1_mlp_simclrhn_probe0,1,501,NaN,clock,oven,15,0501_lp_dnn_15_oven_10_n04111531_8269.png,n04111531_8269.png,0.0,-1.5255213,0.018405994,-1.0917215
alexnet_w1_mlp_simclrhn_probe0,1,502,NaN,keyboard,clock,7,0502_lp_dnn_7_clock_10_n02708093_6890.png,n02708093_6890.png,0.0,-0.095300235,0.12828271,-0.15809703
alexnet_w1_mlp_simclrhn_probe0,1,503,NaN,clock,oven,40,0503_lp_dnn_40_oven_10_n04111531_15947.png,n04111531_15947.png,0.0,-1.4240587,0.15128832,-1.1139386
alexnet_w1_mlp_simclrhn_probe0,1,504,NaN,bird,bicycle,15,0504_lp_dnn_15_bicycle_10_n03792782_24734.png,n03792782_24734.png,0.0,-3.226594,-0.2687323,-2.0915241
alexnet_w1_mlp_simclrhn_probe0,1,505,NaN,clock,chair,40,0505_lp_dnn_40_chair_10_n04099969_10401.png,n04099969_10401.png,0.0,-1.2294468,-0.08818108,-0.8069967
alexnet_w1_mlp_simclrhn_probe0,1,506,NaN,elephant,elephant,3,0506_lp_dnn_3_elephant_10_n02504458_2994.png,n02504458_2994.png,1.0,-0.40971667,-1.0686123,0.4659096
alexnet_w1_mlp_simclrhn_probe0,1,507,NaN,bicycle,dog,0,0507_lp_dnn_0_dog_10_n02108422_1164.png,n02108422_1164.png,0.0,-7.8651056,-6.115211,-1.2373624
alexnet_w1_mlp_simclrhn_probe0,1,508,NaN,clock,clock,5,0508_lp_dnn_5_clock_10_n04548280_2421.png,n04548280_2421.png,1.0,0.3409218,0.0336923,0.21724406
alexnet_w1_mlp_simclrhn_probe0,1,509,NaN,bird,oven,5,0509_lp_dnn_5_oven_10_n04111531_2930.png,n04111531_2930.png,0.0,-2.2564588,0.0842829,-1.6551543
alexnet_w1_mlp_simclrhn_probe0,1,510,NaN,bear,bear,1,0510_lp_dnn_1_bear_10_n02132136_4271.png,n02132136_4271.png,1.0,-0.48969248,-1.738338,0.88292575
alexnet_w1_mlp_simclrhn_probe0,1,511,NaN,keyboard,oven,7,0511_lp_dnn_7_oven_10_n04111531_8603.png,n04111531_8603.png,0.0,-2.083239,-0.148501,-1.3680664
alexnet_w1_mlp_simclrhn_probe0,1,512,NaN,clock,bicycle,40,0512_lp_dnn_40_bicycle_10_n02835271_16850.png,n02835271_16850.png,0.0,-2.2730727,0.19349037,-1.7441235
alexnet_w1_mlp_simclrhn_probe0,1,513,NaN,knife,knife,3,0513_lp_dnn_3_knife_10_n03041632_47410.png,n03041632_47410.png,1.0,-1.0395955,-1.3992496,0.25431383
alexnet_w1_mlp_simclrhn_probe0,1,514,NaN,bird,elephant,15,0514_lp_dnn_15_elephant_10_n02504458_1000.png,n02504458_1000.png,0.0,-3.1951873,-0.21099454,-2.110143
alexnet_w1_mlp_simclrhn_probe0,1,515,NaN,cat,cat,1,0515_lp_dnn_1_cat_10_n02124075_8884.png,n02124075_8884.png,1.0,-0.92087436,-4.916248,2.8251557
alexnet_w1_mlp_simclrhn_probe0,1,516,NaN,bird,bird,7,0516_lp_dnn_7_bird_10_n01622779_1370.png,n01622779_1370.png,1.0,0.13455637,0.05800862,0.054127432
alexnet_w1_mlp_simclrhn_probe0,1,517,NaN,cat,cat,0,0517_lp_dnn_0_cat_10_n02123045_8215.png,n02123045_8215.png,1.0,-2.0319307,-7.353202,3.7627068
alexnet_w1_mlp_simclrhn_probe0,1,518,NaN,keyboard,car,5,0518_lp_dnn_5_car_10_n03100240_3083.png,n03100240_3083.png,0.0,-2.3849242,-0.24714456,-1.5116385
alexnet_w1_mlp_simclrhn_probe0,1,519,NaN,bear,bicycle,3,0519_lp_dnn_3_bicycle_10_n03792782_9280.png,n03792782_9280.png,0.0,-2.6815088,-0.5096431,-1.535741
alexnet_w1_mlp_simclrhn_probe0,1,520,NaN,keyboard,bird,5,0520_lp_dnn_5_bird_10_n01819313_3505.png,n01819313_3505.png,0.0,-1.5213916,-0.2149626,-0.92378485
alexnet_w1_mlp_simclrhn_probe0,1,521,NaN,bird,bird,15,0521_lp_dnn_15_bird_10_n01531178_5130.png,n01531178_5130.png,1.0,-0.17934659,-0.286529,0.075789414
alexnet_w1_mlp_simclrhn_probe0,1,522,NaN,clock,clock,15,0522_lp_dnn_15_clock_10_n02708093_2867.png,n02708093_2867.png,1.0,0.14140601,-0.11309805,0.17996155
alexnet_w1_mlp_simclrhn_probe0,1,523,NaN,keyboard,bear,7,0523_lp_dnn_7_bear_10_n02134418_258.png,n02134418_258.png,0.0,-3.6378598,0.54013014,-2.9542851
alexnet_w1_mlp_simclrhn_probe0,1,524,NaN,keyboard,bottle,1,0524_lp_dnn_1_bottle_10_n02823428_8280.png,n02823428_8280.png,0.0,-1.1455348,-0.93319345,-0.15014797
alexnet_w1_mlp_simclrhn_probe0,1,525,NaN,keyboard,elephant,7,0525_lp_dnn_7_elephant_10_n02504013_24811.png,n02504013_24811.png,0.0,-3.7541056,0.05903305,-2.6962962
alexnet_w1_mlp_simclrhn_probe0,1,526,NaN,clock,bicycle,40,0526_lp_dnn_40_bicycle_10_n02835271_14499.png,n02835271_14499.png,0.0,-1.7524552,-0.07945117,-1.1829925
alexnet_w1_mlp_simclrhn_probe0,1,527,NaN,bottle,bottle,0,0527_lp_dnn_0_bottle_10_n02823428_14536.png,n02823428_14536.png,1.0,2.7226608,2.552849,0.120075025
alexnet_w1_mlp_simclrhn_probe0,1,528,NaN,keyboard,knife,5,0528_lp_dnn_5_knife_10_n03041632_21723.png,n03041632_21723.png,0.0,-2.2071786,0.053251315,-1.5983653
alexnet_w1_mlp_simclrhn_probe0,1,529,NaN,clock,cat,10,0529_lp_dnn_10_cat_10_n02123159_8396.png,n02123159_8396.png,0.0,-2.286737,-0.05395909,-1.5788124
alexnet_w1_mlp_simclrhn_probe0,1,530,NaN,clock,bottle,40,0530_lp_dnn_40_bottle_10_n02823428_3486.png,n02823428_3486.png,0.0,-0.21658984,-0.10516762,-0.07878741
alexnet_w1_mlp_simclrhn_probe0,1,531,NaN,elephant,bird,0,0531_lp_dnn_0_bird_10_n01514859_12705.png,n01514859_12705.png,0.0,-4.299657,-2.7742429,-1.0786306
alexnet_w1_mlp_simclrhn_probe0,1,532,NaN,keyboard,dog,7,0532_lp_dnn_7_dog_10_n02097047_911.png,n02097047_911.png,0.0,-3.4247565,-0.010783628,-2.4140434
alexnet_w1_mlp_simclrhn_probe0,1,533,NaN,keyboard,keyboard,10,0533_lp_dnn_10_keyboard_10_n04505470_3132.png,n04505470_3132.png,1.0,0.074456796,0.07372137,0.00052002363
alexnet_w1_mlp_simclrhn_probe0,1,534,NaN,airplane,airplane,1,0534_lp_dnn_1_airplane_10_n02690373_11908.png,n02690373_11908.png,1.0,0.8283154,-1.0830727,1.3515555
alexnet_w1_mlp_simclrhn_probe0,1,535,NaN,clock,elephant,40,0535_lp_dnn_40_elephant_10_n02504458_5169.png,n02504458_5169.png,0.0,-1.0725029,-0.13845435,-0.66047204
alexnet_w1_mlp_simclrhn_probe0,1,536,NaN,clock,bottle,15,0536_lp_dnn_15_bottle_10_n03937543_5375.png,n03937543_5375.png,0.0,-0.43413728,-0.04859324,-0.2726208
alexnet_w1_mlp_simclrhn_probe0,1,537,NaN,oven,bottle,1,0537_lp_dnn_1_bottle_10_n04591713_6138.png,n04591713_6138.png,0.0,-6.3068767,-4.7610955,-1.0930324
alexnet_w1_mlp_simclrhn_probe0,1,538,NaN,bottle,bottle,15,0538_lp_dnn_15_bottle_10_n04557648_12559.png,n04557648_12559.png,1.0,-0.28821492,-0.38575223,0.068969294
alexnet_w1_mlp_simclrhn_probe0,1,539,NaN,clock,clock,40,0539_lp_dnn_40_clock_10_n03196217_3903.png,n03196217_3903.png,1.0,0.43937635,-0.060494386,0.353462
alexnet_w1_mlp_simclrhn_probe0,1,540,NaN,clock,keyboard,15,0540_lp_dnn_15_keyboard_10_n04505470_4732.png,n04505470_4732.png,0.0,-0.43460318,0.017435193,-0.3196394
alexnet_w1_mlp_simclrhn_probe0,1,541,NaN,clock,knife,40,0541_lp_dnn_40_knife_10_n03041632_8468.png,n03041632_8468.png,0.0,-0.6783614,-0.078095585,-0.42445207
alexnet_w1_mlp_simclrhn_probe0,1,542,NaN,keyboard,chair,3,0542_lp_dnn_3_chair_10_n02791124_14040.png,n02791124_14040.png,0.0,-1.4504774,-0.6675234,-0.5536321
alexnet_w1_mlp_simclrhn_probe0,1,543,NaN,knife,boat,15,0543_lp_dnn_15_boat_10_n04273569_3095.png,n04273569_3095.png,0.0,-1.0280371,-0.06914788,-0.67803705
alexnet_w1_mlp_simclrhn_probe0,1,544,NaN,bird,bird,1,0544_lp_dnn_1_bird_10_n02002724_18548.png,n02002724_18548.png,1.0,-1.7001952,-3.515059,1.2833025
alexnet_w1_mlp_simclrhn_probe0,1,545,NaN,bird,oven,10,0545_lp_dnn_10_oven_10_n04111531_8537.png,n04111531_8537.png,0.0,-1.6122764,-0.33503377,-0.903147
alexnet_w1_mlp_simclrhn_probe0,1,546,NaN,clock,chair,40,0546_lp_dnn_40_chair_10_n02791124_1935.png,n02791124_1935.png,0.0,-1.0756137,-0.020558914,-0.7460364
alexnet_w1_mlp_simclrhn_probe0,1,547,NaN,bird,dog,5,0547_lp_dnn_5_dog_10_n02102040_1660.png,n02102040_1660.png,0.0,-2.985666,-0.79018104,-1.5524424
alexnet_w1_mlp_simclrhn_probe0,1,548,NaN,elephant,bear,0,0548_lp_dnn_0_bear_10_n02134084_7790.png,n02134084_7790.png,0.0,-2.7756586,-0.7225834,-1.4517435
alexnet_w1_mlp_simclrhn_probe0,1,549,NaN,bird,knife,10,0549_lp_dnn_10_knife_10_n03041632_17091.png,n03041632_17091.png,0.0,-1.3754959,-0.09371214,-0.90635806
alexnet_w1_mlp_simclrhn_probe0,1,550,NaN,clock,keyboard,5,0550_lp_dnn_5_keyboard_10_n04505470_9331.png,n04505470_9331.png,0.0,-0.5854713,0.27821717,-0.61072
alexnet_w1_mlp_simclrhn_probe0,1,551,NaN,keyboard,airplane,5,0551_lp_dnn_5_airplane_10_n02690373_6887.png,n02690373_6887.png,0.0,-1.6036841,-0.24492408,-0.9607884
alexnet_w1_mlp_simclrhn_probe0,1,552,NaN,oven,chair,1,0552_lp_dnn_1_chair_10_n02791124_2540.png,n02791124_2540.png,0.0,-4.7965446,-1.5914228,-2.2663634
alexnet_w1_mlp_simclrhn_probe0,1,553,NaN,oven,truck,3,0553_lp_dnn_3_truck_10_n03796401_23774.png,n03796401_23774.png,0.0,-1.7444602,-1.6861533,-0.04122923
alexnet_w1_mlp_simclrhn_probe0,1,554,NaN,clock,knife,40,0554_lp_dnn_40_knife_10_n03041632_28201.png,n03041632_28201.png,0.0,-0.6233907,-0.11684483,-0.358182
alexnet_w1_mlp_simclrhn_probe0,1,555,NaN,clock,clock,5,0555_lp_dnn_5_clock_10_n04548280_3563.png,n04548280_3563.png,1.0,-0.41518518,-0.5224218,0.075827725
alexnet_w1_mlp_simclrhn_probe0,1,556,NaN,bicycle,bicycle,0,0556_lp_dnn_0_bicycle_10_n03792782_8287.png,n03792782_8287.png,1.0,3.8294764,-5.95626,6.9195604
alexnet_w1_mlp_simclrhn_probe0,1,557,NaN,clock,clock,3,0557_lp_dnn_3_clock_10_n04548280_4225.png,n04548280_4225.png,1.0,0.30755615,-0.3881739,0.49195546
alexnet_w1_mlp_simclrhn_probe0,1,558,NaN,car,car,0,0558_lp_dnn_0_car_10_n04285008_11931.png,n04285008_11931.png,1.0,8.881755,0.53400826,5.9027486
alexnet_w1_mlp_simclrhn_probe0,1,559,NaN,keyboard,elephant,5,0559_lp_dnn_5_elephant_10_n02504013_9396.png,n02504013_9396.png,0.0,-3.470996,-0.26781687,-2.2649896
alexnet_w1_mlp_simclrhn_probe0,1,560,NaN,clock,boat,40,0560_lp_dnn_40_boat_10_n03344393_2915.png,n03344393_2915.png,0.0,-1.2426958,-0.02590732,-0.8603994
alexnet_w1_mlp_simclrhn_probe0,1,561,NaN,keyboard,bicycle,7,0561_lp_dnn_7_bicycle_10_n03792782_9692.png,n03792782_9692.png,0.0,-4.2217317,0.14230332,-3.0858388
alexnet_w1_mlp_simclrhn_probe0,1,562,NaN,keyboard,chair,7,0562_lp_dnn_7_chair_10_n02791124_57.png,n02791124_57.png,0.0,-3.2548575,0.22739953,-2.4623277
alexnet_w1_mlp_simclrhn_probe0,1,563,NaN,clock,car,40,0563_lp_dnn_40_car_10_n04285008_3185.png,n04285008_3185.png,0.0,-1.5598933,0.03226337,-1.1258248
alexnet_w1_mlp_simclrhn_probe0,1,564,NaN,bicycle,boat,1,0564_lp_dnn_1_boat_10_n02951358_34917.png,n02951358_34917.png,0.0,-2.1732216,0.21639104,-1.6897113
alexnet_w1_mlp_simclrhn_probe0,1,565,NaN,clock,clock,0,0565_lp_dnn_0_clock_10_n02708093_2762.png,n02708093_2762.png,1.0,3.3301756,-3.5767407,4.883928
alexnet_w1_mlp_simclrhn_probe0,1,566,NaN,keyboard,knife,5,0566_lp_dnn_5_knife_10_n03041632_4879.png,n03041632_4879.png,0.0,-0.25688466,-0.006879583,-0.17678028
alexnet_w1_mlp_simclrhn_probe0,1,567,NaN,car,car,0,0567_lp_dnn_0_car_10_n02814533_4689.png,n02814533_4689.png,1.0,2.6208155,0.8413918,1.2582426
alexnet_w1_mlp_simclrhn_probe0,1,568,NaN,boat,boat,1,0568_lp_dnn_1_boat_10_n02951358_2445.png,n02951358_2445.png,1.0,-1.5747551,-3.4863107,1.351674
alexnet_w1_mlp_simclrhn_probe0,1,569,NaN,clock,truck,40,0569_lp_dnn_40_truck_10_n03417042_10038.png,n03417042_10038.png,0.0,-1.7650961,0.049095903,-1.2828275
alexnet_w1_mlp_simclrhn_probe0,1,570,NaN,keyboard,car,10,0570_lp_dnn_10_car_10_n02814533_32924.png,n02814533_32924.png,0.0,-3.2540255,-0.20790529,-2.1539323
alexnet_w1_mlp_simclrhn_probe0,1,571,NaN,clock,bottle,10,0571_lp_dnn_10_bottle_10_n02823428_5135.png,n02823428_5135.png,0.0,-0.22493435,-0.17857671,-0.032779805
alexnet_w1_mlp_simclrhn_probe0,1,572,NaN,keyboard,keyboard,1,0572_lp_dnn_1_keyboard_10_n03085013_9066.png,n03085013_9066.png,1.0,-0.91987157,-1.1701549,0.17697707
alexnet_w1_mlp_simclrhn_probe0,1,573,NaN,clock,oven,10,0573_lp_dnn_10_oven_10_n04111531_11279.png,n04111531_11279.png,0.0,-1.6005528,0.059224088,-1.1736395
alexnet_w1_mlp_simclrhn_probe0,1,574,NaN,keyboard,car,10,0574_lp_dnn_10_car_10_n04285008_12182.png,n04285008_12182.png,0.0,-3.42051,-0.09707409,-2.3500242
alexnet_w1_mlp_simclrhn_probe0,1,575,NaN,bear,bear,0,0575_lp_dnn_0_bear_10_n02133161_5681.png,n02133161_5681.png,1.0,-0.50878614,-4.0160894,2.480038
alexnet_w1_mlp_simclrhn_probe0,1,576,NaN,bottle,dog,5,0576_lp_dnn_5_dog_10_n02108915_5514.png,n02108915_5514.png,0.0,-2.3839784,-0.4454173,-1.3707697
alexnet_w1_mlp_simclrhn_probe0,1,577,NaN,clock,airplane,15,0577_lp_dnn_15_airplane_10_n02690373_7239.png,n02690373_7239.png,0.0,-1.3659102,-0.15344281,-0.85734385
alexnet_w1_mlp_simclrhn_probe0,1,578,NaN,dog,dog,0,0578_lp_dnn_0_dog_10_n02094258_4979.png,n02094258_4979.png,1.0,0.24430823,-1.2986503,1.0910364
alexnet_w1_mlp_simclrhn_probe0,1,579,NaN,oven,chair,3,0579_lp_dnn_3_chair_10_n04429376_15078.png,n04429376_15078.png,0.0,-2.091233,-0.8058284,-0.9089184
alexnet_w1_mlp_simclrhn_probe0,1,580,NaN,clock,clock,40,0580_lp_dnn_40_clock_10_n02708093_8276.png,n02708093_8276.png,1.0,0.42714438,-0.048854653,0.33658215
alexnet_w1_mlp_simclrhn_probe0,1,581,NaN,keyboard,keyboard,3,0581_lp_dnn_3_keyboard_10_n04505470_3947.png,n04505470_3947.png,1.0,1.5684996,0.4702779,0.77656
alexnet_w1_mlp_simclrhn_probe0,1,582,NaN,clock,car,15,0582_lp_dnn_15_car_10_n03100240_2996.png,n03100240_2996.png,0.0,-2.2538366,0.010644059,-1.6012297
alexnet_w1_mlp_simclrhn_probe0,1,583,NaN,keyboard,cat,10,0583_lp_dnn_10_cat_10_n02123159_3226.png,n02123159_3226.png,0.0,-2.3434155,-0.15557067,-1.5470399
alexnet_w1_mlp_simclrhn_probe0,1,584,NaN,keyboard,truck,7,0584_lp_dnn_7_truck_10_n03417042_19905.png,n03417042_19905.png,0.0,-2.934823,0.03112743,-2.0972438
alexnet_w1_mlp_simclrhn_probe0,1,585,NaN,bicycle,bird,0,0585_lp_dnn_0_bird_10_n02009229_4838.png,n02009229_4838.png,0.0,-4.1979947,-2.1359909,-1.4580569
alexnet_w1_mlp_simclrhn_probe0,1,586,NaN,oven,oven,1,0586_lp_dnn_1_oven_10_n04111531_14383.png,n04111531_14383.png,1.0,-0.26649094,-3.2521873,2.111206
alexnet_w1_mlp_simclrhn_probe0,1,587,NaN,bird,bear,5,0587_lp_dnn_5_bear_10_n02132136_1152.png,n02132136_1152.png,0.0,-1.7799574,-0.1466538,-1.1549201
alexnet_w1_mlp_simclrhn_probe0,1,588,NaN,cat,cat,0,0588_lp_dnn_0_cat_10_n02123597_10952.png,n02123597_10952.png,1.0,-5.285294,-6.544402,0.8903239
alexnet_w1_mlp_simclrhn_probe0,1,589,NaN,boat,boat,0,0589_lp_dnn_0_boat_10_n04273569_12318.png,n04273569_12318.png,1.0,2.6899617,0.15689528,1.7911484
alexnet_w1_mlp_simclrhn_probe0,1,590,NaN,clock,bottle,40,0590_lp_dnn_40_bottle_10_n03937543_1391.png,n03937543_1391.png,0.0,-0.24810103,0.028323343,-0.19546156
alexnet_w1_mlp_simclrhn_probe0,1,591,NaN,bird,dog,10,0591_lp_dnn_10_dog_10_n02091032_9464.png,n02091032_9464.png,0.0,-2.1240368,-0.051924624,-1.4652045
alexnet_w1_mlp_simclrhn_probe0,1,592,NaN,keyboard,oven,7,0592_lp_dnn_7_oven_10_n04111531_5218.png,n04111531_5218.png,0.0,-3.0368912,0.7628458,-2.6868198
alexnet_w1_mlp_simclrhn_probe0,1,593,NaN,keyboard,airplane,5,0593_lp_dnn_5_airplane_10_n02690373_9423.png,n02690373_9423.png,0.0,-2.453898,0.24301647,-1.9070065
alexnet_w1_mlp_simclrhn_probe0,1,594,NaN,oven,bird,1,0594_lp_dnn_1_bird_10_n01860187_348.png,n01860187_348.png,0.0,-6.293725,-4.2330165,-1.457141
alexnet_w1_mlp_simclrhn_probe0,1,595,NaN,clock,bird,40,0595_lp_dnn_40_bird_10_n02006656_8975.png,n02006656_8975.png,0.0,-1.4121997,0.08289986,-1.0571951
alexnet_w1_mlp_simclrhn_probe0,1,596,NaN,keyboard,oven,10,0596_lp_dnn_10_oven_10_n04111531_7619.png,n04111531_7619.png,0.0,-2.5460744,0.6140746,-2.2345629
alexnet_w1_mlp_simclrhn_probe0,1,597,NaN,keyboard,bicycle,3,0597_lp_dnn_3_bicycle_10_n02835271_9202.png,n02835271_9202.png,0.0,-3.9553332,-1.2107229,-1.9407326
alexnet_w1_mlp_simclrhn_probe0,1,598,NaN,clock,boat,10,0598_lp_dnn_10_boat_10_n03344393_7826.png,n03344393_7826.png,0.0,-3.0165668,-0.042003255,-2.1033342
alexnet_w1_mlp_simclrhn_probe0,1,599,NaN,elephant,elephant,3,0599_lp_dnn_3_elephant_10_n02504013_10330.png,n02504013_10330.png,1.0,-1.1542563,-2.1951866,0.7360489
alexnet_w1_mlp_simclrhn_probe0,1,600,NaN,clock,truck,10,0600_lp_dnn_10_truck_10_n04467665_69202.png,n04467665_69202.png,0.0,-3.5054474,-0.026520053,-2.459973
alexnet_w1_mlp_simclrhn_probe0,1,601,NaN,keyboard,keyboard,7,0601_lp_dnn_7_keyboard_10_n04505470_1120.png,n04505470_1120.png,1.0,0.2787333,-0.6292419,0.6420354
alexnet_w1_mlp_simclrhn_probe0,1,602,NaN,keyboard,car,5,0602_lp_dnn_5_car_10_n04285008_434.png,n04285008_434.png,0.0,-3.5453546,-0.24122766,-2.3363707
alexnet_w1_mlp_simclrhn_probe0,1,603,NaN,bear,cat,1,0603_lp_dnn_1_cat_10_n02123597_7592.png,n02123597_7592.png,0.0,-3.151674,-2.8945112,-0.18184157
alexnet_w1_mlp_simclrhn_probe0,1,604,NaN,clock,dog,15,0604_lp_dnn_15_dog_10_n02090721_583.png,n02090721_583.png,0.0,-2.6886683,0.12332797,-1.9883816
alexnet_w1_mlp_simclrhn_probe0,1,605,NaN,bicycle,knife,1,0605_lp_dnn_1_knife_10_n03041632_86783.png,n03041632_86783.png,0.0,-6.7123733,-3.9276588,-1.9690905
alexnet_w1_mlp_simclrhn_probe0,1,606,NaN,clock,dog,10,0606_lp_dnn_10_dog_10_n02112018_11708.png,n02112018_11708.png,0.0,-2.6139426,-0.04720503,-1.8149576
alexnet_w1_mlp_simclrhn_probe0,1,607,NaN,elephant,bird,0,0607_lp_dnn_0_bird_10_n02018795_5662.png,n02018795_5662.png,0.0,-4.904254,-1.1322439,-2.667214
alexnet_w1_mlp_simclrhn_probe0,1,608,NaN,bird,elephant,5,0608_lp_dnn_5_elephant_10_n02504013_1088.png,n02504013_1088.png,0.0,-2.4487357,-0.04787908,-1.6976621
alexnet_w1_mlp_simclrhn_probe0,1,609,NaN,keyboard,elephant,5,0609_lp_dnn_5_elephant_10_n02504458_66.png,n02504458_66.png,0.0,-2.6595893,0.16552359,-1.9976565
alexnet_w1_mlp_simclrhn_probe0,1,610,NaN,clock,dog,10,0610_lp_dnn_10_dog_10_n02105056_9099.png,n02105056_9099.png,0.0,-2.8580534,0.02505815,-2.0386677
alexnet_w1_mlp_simclrhn_probe0,1,611,NaN,keyboard,boat,10,0611_lp_dnn_10_boat_10_n04273569_19699.png,n04273569_19699.png,0.0,-3.38414,0.13462943,-2.4881458
alexnet_w1_mlp_simclrhn_probe0,1,612,NaN,dog,dog,1,0612_lp_dnn_1_dog_10_n02097047_2376.png,n02097047_2376.png,1.0,-1.3014622,-2.1016734,0.56583476
alexnet_w1_mlp_simclrhn_probe0,1,613,NaN,boat,boat,1,0613_lp_dnn_1_boat_10_n03662601_11901.png,n03662601_11901.png,1.0,-1.2011789,-1.7910037,0.4170691
alexnet_w1_mlp_simclrhn_probe0,1,614,NaN,oven,oven,1,0614_lp_dnn_1_oven_10_n04111531_7667.png,n04111531_7667.png,1.0,-1.1731205,-2.1106334,0.6629217
alexnet_w1_mlp_simclrhn_probe0,1,615,NaN,clock,knife,10,0615_lp_dnn_10_knife_10_n03041632_24384.png,n03041632_24384.png,0.0,-1.103485,-0.17784016,-0.65452975
alexnet_w1_mlp_simclrhn_probe0,1,616,NaN,keyboard,car,7,0616_lp_dnn_7_car_10_n03100240_1216.png,n03100240_1216.png,0.0,-3.0627975,-0.044499576,-2.134259
alexnet_w1_mlp_simclrhn_probe0,1,617,NaN,bicycle,bicycle,0,0617_lp_dnn_0_bicycle_10_n03792782_3136.png,n03792782_3136.png,1.0,-2.1032796,-4.2486973,1.5170394
alexnet_w1_mlp_simclrhn_probe0,1,618,NaN,keyboard,keyboard,5,0618_lp_dnn_5_keyboard_10_n03085013_26573.png,n03085013_26573.png,1.0,-0.14193429,-0.65019935,0.35939768
alexnet_w1_mlp_simclrhn_probe0,1,619,NaN,truck,chair,0,0619_lp_dnn_0_chair_10_n04429376_7888.png,n04429376_7888.png,0.0,-5.4568753,-1.4787105,-2.8129873
alexnet_w1_mlp_simclrhn_probe0,1,620,NaN,keyboard,chair,5,0620_lp_dnn_5_chair_10_n03376595_899.png,n03376595_899.png,0.0,-2.0175364,-0.12060088,-1.341336
alexnet_w1_mlp_simclrhn_probe0,1,621,NaN,keyboard,bicycle,5,0621_lp_dnn_5_bicycle_10_n02835271_24207.png,n02835271_24207.png,0.0,-3.4678583,0.41848695,-2.7480612
alexnet_w1_mlp_simclrhn_probe0,1,622,NaN,oven,oven,3,0622_lp_dnn_3_oven_10_n04111531_7329.png,n04111531_7329.png,1.0,0.12724246,-0.2834297,0.2903891
alexnet_w1_mlp_simclrhn_probe0,1,623,NaN,clock,oven,5,0623_lp_dnn_5_oven_10_n04111531_12942.png,n04111531_12942.png,0.0,-1.9287316,-0.32821587,-1.1317356
alexnet_w1_mlp_simclrhn_probe0,1,624,NaN,clock,bear,15,0624_lp_dnn_15_bear_10_n02134418_1978.png,n02134418_1978.png,0.0,-2.341927,0.19327106,-1.7926558
alexnet_w1_mlp_simclrhn_probe0,1,625,NaN,clock,cat,40,0625_lp_dnn_40_cat_10_n02123159_5872.png,n02123159_5872.png,0.0,-1.4557853,0.16799587,-1.1481867
alexnet_w1_mlp_simclrhn_probe0,1,626,NaN,bottle,keyboard,15,0626_lp_dnn_15_keyboard_10_n03085013_18797.png,n03085013_18797.png,0.0,-0.5012434,-0.046685856,-0.32142076
alexnet_w1_mlp_simclrhn_probe0,1,627,NaN,clock,airplane,15,0627_lp_dnn_15_airplane_10_n02690373_5496.png,n02690373_5496.png,0.0,-1.243665,-0.14606763,-0.7761186
alexnet_w1_mlp_simclrhn_probe0,1,628,NaN,clock,oven,15,0628_lp_dnn_15_oven_10_n04111531_21963.png,n04111531_21963.png,0.0,-1.624204,0.15119617,-1.2553976
alexnet_w1_mlp_simclrhn_probe0,1,629,NaN,bottle,bottle,0,0629_lp_dnn_0_bottle_10_n02823428_2918.png,n02823428_2918.png,1.0,3.5577397,-7.697989,7.959002
alexnet_w1_mlp_simclrhn_probe0,1,630,NaN,clock,keyboard,10,0630_lp_dnn_10_keyboard_10_n04505470_9570.png,n04505470_9570.png,0.0,-0.21776026,-0.20719035,-0.007474059
alexnet_w1_mlp_simclrhn_probe0,1,631,NaN,bird,bird,1,0631_lp_dnn_1_bird_10_n02002556_5977.png,n02002556_5977.png,1.0,-1.5691131,-5.4249845,2.7265127
alexnet_w1_mlp_simclrhn_probe0,1,632,NaN,clock,airplane,40,0632_lp_dnn_40_airplane_10_n02690373_5961.png,n02690373_5961.png,0.0,-0.8089874,0.012417729,-0.58082116
alexnet_w1_mlp_simclrhn_probe0,1,633,NaN,clock,clock,3,0633_lp_dnn_3_clock_10_n04548280_5765.png,n04548280_5765.png,1.0,-0.0037821282,-0.75098944,0.52835536
alexnet_w1_mlp_simclrhn_probe0,1,634,NaN,clock,cat,15,0634_lp_dnn_15_cat_10_n02123597_11940.png,n02123597_11940.png,0.0,-2.0324876,0.038257062,-1.4642377
alexnet_w1_mlp_simclrhn_probe0,1,635,NaN,airplane,airplane,3,0635_lp_dnn_3_airplane_10_n02690373_3993.png,n02690373_3993.png,1.0,0.07554451,-1.0665132,0.80755675
alexnet_w1_mlp_simclrhn_probe0,1,636,NaN,keyboard,chair,7,0636_lp_dnn_7_chair_10_n04099969_3984.png,n04099969_3984.png,0.0,-3.035173,-0.38479343,-1.8741013
alexnet_w1_mlp_simclrhn_probe0,1,637,NaN,clock,airplane,3,0637_lp_dnn_3_airplane_10_n02690373_939.png,n02690373_939.png,0.0,-1.342942,-0.62041587,-0.5109031
alexnet_w1_mlp_simclrhn_probe0,1,638,NaN,car,car,1,0638_lp_dnn_1_car_10_n02814533_48541.png,n02814533_48541.png,1.0,9.475663,5.8944697,2.5322862
alexnet_w1_mlp_simclrhn_probe0,1,639,NaN,clock,clock,10,0639_lp_dnn_10_clock_10_n03196217_3986.png,n03196217_3986.png,1.0,0.07332996,-0.16144785,0.16601299
