subj,session,trial,rt,object_response,category,condition,imagename,filename,is_correct,targ_act,max_nontarg_act,decision_margin
alexnet_w1_mlp_simclrhn_probe0,1,1,NaN,clock,chair,40,0001_lp_dnn_40_chair_10_n04099969_7577.png,n04099969_7577.png,0.0,-1.0722904,-0.15540758,-0.6483341
alexnet_w1_mlp_simclrhn_probe0,1,2,NaN,clock,cat,40,0002_lp_dnn_40_cat_10_n02124075_12815.png,n02124075_12815.png,0.0,-0.7096053,-0.00094717246,-0.50109696
alexnet_w1_mlp_simclrhn_probe0,1,3,NaN,keyboard,truck,5,0003_lp_dnn_5_truck_10_n04467665_34253.png,n04467665_34253.png,0.0,-1.9761736,-0.07340668,-1.3454595
alexnet_w1_mlp_simclrhn_probe0,1,4,NaN,bottle,clock,1,0004_lp_dnn_1_clock_10_n04548280_5320.png,n04548280_5320.png,0.0,-2.267747,-2.1264534,-0.09990961
alexnet_w1_mlp_simclrhn_probe0,1,5,NaN,oven,dog,3,0005_lp_dnn_3_dog_10_n02108915_3652.png,n02108915_3652.png,0.0,-1.748871,-0.6845267,-0.7526051
alexnet_w1_mlp_simclrhn_probe0,1,6,NaN,keyboard,keyboard,7,0006_lp_dnn_7_keyboard_10_n04505470_578.png,n04505470_578.png,1.0,1.0495813,-0.5224878,1.1116208
alexnet_w1_mlp_simclrhn_probe0,1,7,NaN,keyboard,cat,7,0007_lp_dnn_7_cat_10_n02123597_3842.png,n02123597_3842.png,0.0,-1.3298678,0.11878045,-1.0243491
alexnet_w1_mlp_simclrhn_probe0,1,8,NaN,bear,bear,1,0008_lp_dnn_1_bear_10_n02134418_14.png,n02134418_14.png,1.0,3.2254498,0.36182246,2.0248904
alexnet_w1_mlp_simclrhn_probe0,1,9,NaN,keyboard,knife,10,0009_lp_dnn_10_knife_10_n03041632_29920.png,n03041632_29920.png,0.0,-0.9453067,-0.119573,-0.5838819
alexnet_w1_mlp_simclrhn_probe0,1,10,NaN,keyboard,bird,5,0010_lp_dnn_5_bird_10_n01795545_952.png,n01795545_952.png,0.0,-0.73028445,0.032411084,-0.5393072
alexnet_w1_mlp_simclrhn_probe0,1,11,NaN,elephant,bear,3,0011_lp_dnn_3_bear_10_n02132136_6441.png,n02132136_6441.png,0.0,-0.2526315,-0.1859577,-0.047145486
alexnet_w1_mlp_simclrhn_probe0,1,12,NaN,bear,bird,3,0012_lp_dnn_3_bird_10_n01829413_8792.png,n01829413_8792.png,0.0,-1.2766958,-0.9499791,-0.23102361
alexnet_w1_mlp_simclrhn_probe0,1,13,NaN,keyboard,keyboard,7,0013_lp_dnn_7_keyboard_10_n04505470_4458.png,n04505470_4458.png,1.0,1.2315788,-0.37140092,1.1334779
alexnet_w1_mlp_simclrhn_probe0,1,14,NaN,keyboard,chair,10,0014_lp_dnn_10_chair_10_n03376595_9176.png,n03376595_9176.png,0.0,-2.0274482,0.17448527,-1.5570021
alexnet_w1_mlp_simclrhn_probe0,1,15,NaN,clock,clock,40,0015_lp_dnn_40_clock_10_n04548280_7662.png,n04548280_7662.png,1.0,0.092039585,-0.091015354,0.12943938
alexnet_w1_mlp_simclrhn_probe0,1,16,NaN,clock,keyboard,40,0016_lp_dnn_40_keyboard_10_n03085013_25809.png,n03085013_25809.png,0.0,-0.73446405,-0.03471824,-0.49479502
alexnet_w1_mlp_simclrhn_probe0,1,17,NaN,keyboard,oven,5,0017_lp_dnn_5_oven_10_n04111531_1580.png,n04111531_1580.png,0.0,-1.5141258,-0.28511643,-0.8690409
alexnet_w1_mlp_simclrhn_probe0,1,18,NaN,elephant,elephant,1,0018_lp_dnn_1_elephant_10_n02504458_900.png,n02504458_900.png,1.0,4.141464,-1.853338,4.2389655
alexnet_w1_mlp_simclrhn_probe0,1,19,NaN,keyboard,dog,7,0019_lp_dnn_7_dog_10_n02106662_2384.png,n02106662_2384.png,0.0,-1.8147972,-0.02049014,-1.2687666
alexnet_w1_mlp_simclrhn_probe0,1,20,NaN,keyboard,truck,10,0020_lp_dnn_10_truck_10_n03796401_22618.png,n03796401_22618.png,0.0,-2.0477114,0.00058990717,-1.4483677
alexnet_w1_mlp_simclrhn_probe0,1,21,NaN,keyboard,elephant,15,0021_lp_dnn_15_elephant_10_n02504013_5463.png,n02504013_5463.png,0.0,-1.9470133,-0.23579201,-1.2100161
alexnet_w1_mlp_simclrhn_probe0,1,22,NaN,keyboard,chair,10,0022_lp_dnn_10_chair_10_n04429376_16459.png,n04429376_16459.png,0.0,-1.7424573,-0.12259778,-1.1454136
alexnet_w1_mlp_simclrhn_probe0,1,23,NaN,cat,cat,1,0023_lp_dnn_1_cat_10_n02123045_12206.png,n02123045_12206.png,1.0,-0.31000713,-2.2193027,1.3500758
alexnet_w1_mlp_simclrhn_probe0,1,24,NaN,keyboard,truck,7,0024_lp_dnn_7_truck_10_n03417042_2633.png,n03417042_2633.png,0.0,-2.278932,0.22200939,-1.7684327
alexnet_w1_mlp_simclrhn_probe0,1,25,NaN,clock,keyboard,15,0025_lp_dnn_15_keyboard_10_n03085013_24416.png,n03085013_24416.png,0.0,-0.32151136,-0.2135886,-0.07631292
alexnet_w1_mlp_simclrhn_probe0,1,26,NaN,keyboard,car,7,0026_lp_dnn_7_car_10_n02814533_44503.png,n02814533_44503.png,0.0,-1.8637482,0.32050842,-1.5445026
alexnet_w1_mlp_simclrhn_probe0,1,27,NaN,bird,elephant,5,0027_lp_dnn_5_elephant_10_n02504458_5797.png,n02504458_5797.png,0.0,-1.8323143,-0.40782958,-1.0072628
alexnet_w1_mlp_simclrhn_probe0,1,28,NaN,clock,chair,0,0028_lp_dnn_0_chair_10_n04429376_8237.png,n04429376_8237.png,0.0,-1.2230754,-0.33914742,-0.6250315
alexnet_w1_mlp_simclrhn_probe0,1,29,NaN,keyboard,cat,7,0029_lp_dnn_7_cat_10_n02123159_587.png,n02123159_587.png,0.0,-1.7602409,-0.09933494,-1.1744379
alexnet_w1_mlp_simclrhn_probe0,1,30,NaN,keyboard,bird,10,0030_lp_dnn_10_bird_10_n02028035_17238.png,n02028035_17238.png,0.0,-0.26569557,-0.18916729,-0.054113667
alexnet_w1_mlp_simclrhn_probe0,1,31,NaN,clock,cat,40,0031_lp_dnn_40_cat_10_n02123159_4348.png,n02123159_4348.png,0.0,-0.66234684,0.10482899,-0.5424753
alexnet_w1_mlp_simclrhn_probe0,1,32,NaN,keyboard,boat,5,0032_lp_dnn_5_boat_10_n04273569_22332.png,n04273569_22332.png,0.0,-1.5588903,-0.18806157,-0.9693223
alexnet_w1_mlp_simclrhn_probe0,1,33,NaN,elephant,elephant,1,0033_lp_dnn_1_elephant_10_n02504013_1244.png,n02504013_1244.png,1.0,6.107727,-0.5364208,4.698122
alexnet_w1_mlp_simclrhn_probe0,1,34,NaN,keyboard,bicycle,7,0034_lp_dnn_7_bicycle_10_n03792782_30229.png,n03792782_30229.png,0.0,-2.3181093,-0.056102276,-1.5994805
alexnet_w1_mlp_simclrhn_probe0,1,35,NaN,keyboard,keyboard,10,0035_lp_dnn_10_keyboard_10_n03085013_7573.png,n03085013_7573.png,1.0,-0.071569204,-0.23300256,0.11415062
alexnet_w1_mlp_simclrhn_probe0,1,36,NaN,keyboard,keyboard,3,0036_lp_dnn_3_keyboard_10_n03085013_24578.png,n03085013_24578.png,1.0,1.285894,-0.47515935,1.2452527
alexnet_w1_mlp_simclrhn_probe0,1,37,NaN,keyboard,truck,15,0037_lp_dnn_15_truck_10_n03417042_1336.png,n03417042_1336.png,0.0,-2.0970309,-0.2527503,-1.3041034
alexnet_w1_mlp_simclrhn_probe0,1,38,NaN,keyboard,knife,3,0038_lp_dnn_3_knife_10_n03041632_7495.png,n03041632_7495.png,0.0,-0.47165528,-0.37369028,-0.06927172
alexnet_w1_mlp_simclrhn_probe0,1,39,NaN,car,car,0,0039_lp_dnn_0_car_10_n03100240_9625.png,n03100240_9625.png,1.0,2.3969676,-0.27380562,1.8885219
alexnet_w1_mlp_simclrhn_probe0,1,40,NaN,keyboard,elephant,10,0040_lp_dnn_10_elephant_10_n02504458_6107.png,n02504458_6107.png,0.0,-2.1378527,-0.24883968,-1.335734
alexnet_w1_mlp_simclrhn_probe0,1,41,NaN,bicycle,bicycle,0,0041_lp_dnn_0_bicycle_10_n03792782_33649.png,n03792782_33649.png,1.0,4.9854937,-4.499539,6.706931
alexnet_w1_mlp_simclrhn_probe0,1,42,NaN,clock,clock,1,0042_lp_dnn_1_clock_10_n03196217_8282.png,n03196217_8282.png,1.0,1.8475131,1.223067,0.44155005
alexnet_w1_mlp_simclrhn_probe0,1,43,NaN,keyboard,keyboard,7,0043_lp_dnn_7_keyboard_10_n03085013_21534.png,n03085013_21534.png,1.0,0.45208737,-0.36925825,0.5807791
alexnet_w1_mlp_simclrhn_probe0,1,44,NaN,keyboard,elephant,15,0044_lp_dnn_15_elephant_10_n02504013_22813.png,n02504013_22813.png,0.0,-1.9298816,-0.19973682,-1.2233971
alexnet_w1_mlp_simclrhn_probe0,1,45,NaN,keyboard,truck,10,0045_lp_dnn_10_truck_10_n03796401_16425.png,n03796401_16425.png,0.0,-2.297645,0.17508109,-1.7484814
alexnet_w1_mlp_simclrhn_probe0,1,46,NaN,clock,airplane,15,0046_lp_dnn_15_airplane_10_n02690373_9427.png,n02690373_9427.png,0.0,-0.5522802,-0.1996922,-0.24931736
alexnet_w1_mlp_simclrhn_probe0,1,47,NaN,keyboard,bird,7,0047_lp_dnn_7_bird_10_n02009912_11907.png,n02009912_11907.png,0.0,-0.9176593,0.11240652,-0.7283665
alexnet_w1_mlp_simclrhn_probe0,1,48,NaN,airplane,airplane,1,0048_lp_dnn_1_airplane_10_n02690373_5773.png,n02690373_5773.png,1.0,8.82892,-2.3691385,7.918224
alexnet_w1_mlp_simclrhn_probe0,1,49,NaN,clock,chair,40,0049_lp_dnn_40_chair_10_n02791124_2972.png,n02791124_2972.png,0.0,-1.1681753,0.041813493,-0.8555913
alexnet_w1_mlp_simclrhn_probe0,1,50,NaN,bicycle,bird,1,0050_lp_dnn_1_bird_10_n01819313_18188.png,n01819313_18188.png,0.0,-0.9723493,0.1435488,-0.78905916
alexnet_w1_mlp_simclrhn_probe0,1,51,NaN,keyboard,car,5,0051_lp_dnn_5_car_10_n04285008_7428.png,n04285008_7428.png,0.0,-2.3140554,0.2291678,-1.7983303
alexnet_w1_mlp_simclrhn_probe0,1,52,NaN,keyboard,bottle,7,0052_lp_dnn_7_bottle_10_n04591713_6923.png,n04591713_6923.png,0.0,-0.5913698,0.012751946,-0.4271786
alexnet_w1_mlp_simclrhn_probe0,1,53,NaN,airplane,knife,0,0053_lp_dnn_0_knife_10_n03041632_22570.png,n03041632_22570.png,0.0,-0.1924782,0.09692678,-0.20464024
alexnet_w1_mlp_simclrhn_probe0,1,54,NaN,bear,bear,0,0054_lp_dnn_0_bear_10_n02132136_7586.png,n02132136_7586.png,1.0,0.42876875,-0.07934505,0.35929072
alexnet_w1_mlp_simclrhn_probe0,1,55,NaN,keyboard,clock,5,0055_lp_dnn_5_clock_10_n04548280_9144.png,n04548280_9144.png,0.0,-0.20557004,0.055207796,-0.18439777
alexnet_w1_mlp_simclrhn_probe0,1,56,NaN,oven,bottle,0,0056_lp_dnn_0_bottle_10_n04591713_2680.png,n04591713_2680.png,0.0,-5.4469633,-3.9184566,-1.0808175
alexnet_w1_mlp_simclrhn_probe0,1,57,NaN,knife,cat,3,0057_lp_dnn_3_cat_10_n02123045_1596.png,n02123045_1596.png,0.0,-1.1493554,-1.0407157,-0.07681988
alexnet_w1_mlp_simclrhn_probe0,1,58,NaN,keyboard,cat,10,0058_lp_dnn_10_cat_10_n02123597_19450.png,n02123597_19450.png,0.0,-1.6130347,0.040644526,-1.1693279
alexnet_w1_mlp_simclrhn_probe0,1,59,NaN,clock,chair,15,0059_lp_dnn_15_chair_10_n03376595_3462.png,n03376595_3462.png,0.0,-0.8476798,0.16259266,-0.71437055
alexnet_w1_mlp_simclrhn_probe0,1,60,NaN,bottle,bottle,3,0060_lp_dnn_3_bottle_10_n04591713_3683.png,n04591713_3683.png,1.0,-0.3195003,-0.50315636,0.12986445
alexnet_w1_mlp_simclrhn_probe0,1,61,NaN,keyboard,clock,7,0061_lp_dnn_7_clock_10_n03196217_4309.png,n03196217_4309.png,0.0,0.021965584,0.37582347,-0.25021532
alexnet_w1_mlp_simclrhn_probe0,1,62,NaN,clock,bear,15,0062_lp_dnn_15_bear_10_n02134084_4923.png,n02134084_4923.png,0.0,-1.8108206,-0.0105348425,-1.2729943
alexnet_w1_mlp_simclrhn_probe0,1,63,NaN,oven,chair,1,0063_lp_dnn_1_chair_10_n04429376_5238.png,n04429376_5238.png,0.0,-1.15794,0.58319974,-1.2311717
alexnet_w1_mlp_simclrhn_probe0,1,64,NaN,truck,clock,0,0064_lp_dnn_0_clock_10_n03196217_2414.png,n03196217_2414.png,0.0,-3.9231365,-3.2977054,-0.44224656
alexnet_w1_mlp_simclrhn_probe0,1,65,NaN,bird,bird,3,0065_lp_dnn_3_bird_10_n01797886_2711.png,n01797886_2711.png,1.0,-0.37168753,-0.99898124,0.44356364
alexnet_w1_mlp_simclrhn_probe0,1,66,NaN,clock,truck,15,0066_lp_dnn_15_truck_10_n04467665_68463.png,n04467665_68463.png,0.0,-1.2632418,-0.10425413,-0.81952804
alexnet_w1_mlp_simclrhn_probe0,1,67,NaN,truck,truck,0,0067_lp_dnn_0_truck_10_n03417042_10099.png,n03417042_10099.png,1.0,2.3870864,-2.596237,3.5237417
alexnet_w1_mlp_simclrhn_probe0,1,68,NaN,clock,bear,10,0068_lp_dnn_10_bear_10_n02134418_3793.png,n02134418_3793.png,0.0,-1.6929054,-0.19571562,-1.058673
alexnet_w1_mlp_simclrhn_probe0,1,69,NaN,keyboard,bottle,10,0069_lp_dnn_10_bottle_10_n03937543_9524.png,n03937543_9524.png,0.0,-0.5150467,0.022904828,-0.38038918
alexnet_w1_mlp_simclrhn_probe0,1,70,NaN,oven,cat,3,0070_lp_dnn_3_cat_10_n02123394_1038.png,n02123394_1038.png,0.0,-1.1680964,-0.9330599,-0.16619594
alexnet_w1_mlp_simclrhn_probe0,1,71,NaN,keyboard,dog,5,0071_lp_dnn_5_dog_10_n02110185_7886.png,n02110185_7886.png,0.0,-1.8880341,0.14082749,-1.4346218
alexnet_w1_mlp_simclrhn_probe0,1,72,NaN,clock,clock,3,0072_lp_dnn_3_clock_10_n02708093_4912.png,n02708093_4912.png,1.0,1.0193119,-0.04624435,0.7534621
alexnet_w1_mlp_simclrhn_probe0,1,73,NaN,keyboard,dog,15,0073_lp_dnn_15_dog_10_n02108422_932.png,n02108422_932.png,0.0,-1.5611668,-0.12333463,-1.0167009
alexnet_w1_mlp_simclrhn_probe0,1,74,NaN,truck,truck,0,0074_lp_dnn_0_truck_10_n04467665_18621.png,n04467665_18621.png,1.0,3.36065,-3.309678,4.7166343
alexnet_w1_mlp_simclrhn_probe0,1,75,NaN,car,truck,1,0075_lp_dnn_1_truck_10_n04467665_50932.png,n04467665_50932.png,0.0,0.58568126,1.5821981,-0.70464385
alexnet_w1_mlp_simclrhn_probe0,1,76,NaN,dog,dog,1,0076_lp_dnn_1_dog_10_n02102480_7293.png,n02102480_7293.png,1.0,-2.3431368,-3.6872616,0.95043975
alexnet_w1_mlp_simclrhn_probe0,1,77,NaN,cat,bottle,1,0077_lp_dnn_1_bottle_10_n04591713_4764.png,n04591713_4764.png,0.0,-1.9211814,-1.8494643,-0.05071168
alexnet_w1_mlp_simclrhn_probe0,1,78,NaN,clock,clock,15,0078_lp_dnn_15_clock_10_n02708093_274.png,n02708093_274.png,1.0,-0.105138026,-0.26591098,0.11368365
alexnet_w1_mlp_simclrhn_probe0,1,79,NaN,keyboard,bottle,5,0079_lp_dnn_5_bottle_10_n04557648_29772.png,n04557648_29772.png,0.0,-0.6787729,0.02589278,-0.4982739
alexnet_w1_mlp_simclrhn_probe0,1,80,NaN,clock,car,15,0080_lp_dnn_15_car_10_n03100240_22499.png,n03100240_22499.png,0.0,-1.5105244,-0.028169155,-1.0481834
alexnet_w1_mlp_simclrhn_probe0,1,81,NaN,clock,clock,3,0081_lp_dnn_3_clock_10_n02708093_6252.png,n02708093_6252.png,1.0,3.797529,-0.17727938,2.810614
alexnet_w1_mlp_simclrhn_probe0,1,82,NaN,keyboard,airplane,10,0082_lp_dnn_10_airplane_10_n02690373_5427.png,n02690373_5427.png,0.0,-1.1924038,-0.22707823,-0.6825883
alexnet_w1_mlp_simclrhn_probe0,1,83,NaN,keyboard,dog,15,0083_lp_dnn_15_dog_10_n02107142_46045.png,n02107142_46045.png,0.0,-1.8662698,-0.22357504,-1.1615607
alexnet_w1_mlp_simclrhn_probe0,1,84,NaN,clock,keyboard,40,0084_lp_dnn_40_keyboard_10_n03085013_23793.png,n03085013_23793.png,0.0,-0.5842145,0.15928507,-0.5257336
alexnet_w1_mlp_simclrhn_probe0,1,85,NaN,clock,bicycle,3,0085_lp_dnn_3_bicycle_10_n03792782_12421.png,n03792782_12421.png,0.0,-1.6460476,-0.048851386,-1.1293883
alexnet_w1_mlp_simclrhn_probe0,1,86,NaN,airplane,airplane,0,0086_lp_dnn_0_airplane_10_n02690373_1310.png,n02690373_1310.png,1.0,7.6316767,2.9013267,3.3448627
alexnet_w1_mlp_simclrhn_probe0,1,87,NaN,clock,oven,15,0087_lp_dnn_15_oven_10_n04111531_8793.png,n04111531_8793.png,0.0,-1.5577191,0.14258383,-1.2022958
alexnet_w1_mlp_simclrhn_probe0,1,88,NaN,keyboard,airplane,5,0088_lp_dnn_5_airplane_10_n02690373_633.png,n02690373_633.png,0.0,-0.8077032,-0.48208165,-0.23024921
alexnet_w1_mlp_simclrhn_probe0,1,89,NaN,keyboard,clock,5,0089_lp_dnn_5_clock_10_n02708093_2307.png,n02708093_2307.png,0.0,-0.72271293,-0.24680558,-0.33651733
alexnet_w1_mlp_simclrhn_probe0,1,90,NaN,keyboard,oven,10,0090_lp_dnn_10_oven_10_n04111531_13795.png,n04111531_13795.png,0.0,-1.7504764,-0.09000106,-1.1741333
alexnet_w1_mlp_simclrhn_probe0,1,91,NaN,oven,boat,3,0091_lp_dnn_3_boat_10_n03662601_1427.png,n03662601_1427.png,0.0,-1.6030852,0.11488277,-1.2147869
alexnet_w1_mlp_simclrhn_probe0,1,92,NaN,keyboard,boat,5,0092_lp_dnn_5_boat_10_n04612504_15944.png,n04612504_15944.png,0.0,-2.3311977,-0.12928526,-1.5569872
alexnet_w1_mlp_simclrhn_probe0,1,93,NaN,clock,airplane,40,0093_lp_dnn_40_airplane_10_n02690373_3561.png,n02690373_3561.png,0.0,-0.27029985,-0.026311308,-0.17252596
alexnet_w1_mlp_simclrhn_probe0,1,94,NaN,keyboard,elephant,7,0094_lp_dnn_7_elephant_10_n02504458_1848.png,n02504458_1848.png,0.0,-1.9925635,-0.3668792,-1.1495324
alexnet_w1_mlp_simclrhn_probe0,1,95,NaN,keyboard,oven,5,0095_lp_dnn_5_oven_10_n04111531_4155.png,n04111531_4155.png,0.0,-1.7526963,-0.0892895,-1.1762062
alexnet_w1_mlp_simclrhn_probe0,1,96,NaN,car,car,0,0096_lp_dnn_0_car_10_n03100240_8327.png,n03100240_8327.png,1.0,5.2409306,4.3072443,0.6602159
alexnet_w1_mlp_simclrhn_probe0,1,97,NaN,chair,chair,0,0097_lp_dnn_0_chair_10_n04429376_24319.png,n04429376_24319.png,1.0,-2.7110784,-3.8925486,0.83542556
alexnet_w1_mlp_simclrhn_probe0,1,98,NaN,keyboard,chair,3,0098_lp_dnn_3_chair_10_n03376595_5112.png,n03376595_5112.png,0.0,-1.3805202,-0.884065,-0.3510469
alexnet_w1_mlp_simclrhn_probe0,1,99,NaN,oven,cat,1,0099_lp_dnn_1_cat_10_n02124075_2268.png,n02124075_2268.png,0.0,-2.9103286,-1.7207645,-0.84114885
alexnet_w1_mlp_simclrhn_probe0,1,100,NaN,knife,boat,3,0100_lp_dnn_3_boat_10_n04273569_1137.png,n04273569_1137.png,0.0,-1.2272036,-0.77826095,-0.3174504
alexnet_w1_mlp_simclrhn_probe0,1,101,NaN,chair,chair,1,0101_lp_dnn_1_chair_10_n02791124_15383.png,n02791124_15383.png,1.0,1.995395,-0.6855347,1.8957036
alexnet_w1_mlp_simclrhn_probe0,1,102,NaN,clock,clock,15,0102_lp_dnn_15_clock_10_n04548280_8998.png,n04548280_8998.png,1.0,0.09436778,-0.1641052,0.182768
alexnet_w1_mlp_simclrhn_probe0,1,103,NaN,bear,dog,0,0103_lp_dnn_0_dog_10_n02097047_2800.png,n02097047_2800.png,0.0,-1.7610251,0.34071645,-1.4861557
alexnet_w1_mlp_simclrhn_probe0,1,104,NaN,clock,bicycle,15,0104_lp_dnn_15_bicycle_10_n03792782_18294.png,n03792782_18294.png,0.0,-1.5882246,-0.27274245,-0.93018633
alexnet_w1_mlp_simclrhn_probe0,1,105,NaN,elephant,elephant,0,0105_lp_dnn_0_elephant_10_n02504013_24486.png,n02504013_24486.png,1.0,-0.7611718,-3.8743908,2.2013783
alexnet_w1_mlp_simclrhn_probe0,1,106,NaN,keyboard,airplane,7,0106_lp_dnn_7_airplane_10_n02690373_2923.png,n02690373_2923.png,0.0,-1.0979027,-0.23473167,-0.61035407
alexnet_w1_mlp_simclrhn_probe0,1,107,NaN,airplane,airplane,3,0107_lp_dnn_3_airplane_10_n02690373_15392.png,n02690373_15392.png,1.0,-0.13567162,-0.55067897,0.29345453
alexnet_w1_mlp_simclrhn_probe0,1,108,NaN,keyboard,oven,5,0108_lp_dnn_5_oven_10_n04111531_6080.png,n04111531_6080.png,0.0,-1.1541001,0.026998952,-0.8351632
alexnet_w1_mlp_simclrhn_probe0,1,109,NaN,clock,bear,15,0109_lp_dnn_15_bear_10_n02134084_22736.png,n02134084_22736.png,0.0,-1.6799997,-0.10814025,-1.1114725
alexnet_w1_mlp_simclrhn_probe0,1,110,NaN,knife,knife,1,0110_lp_dnn_1_knife_10_n03041632_33326.png,n03041632_33326.png,1.0,-2.0385888,-4.058768,1.4284823
alexnet_w1_mlp_simclrhn_probe0,1,111,NaN,clock,truck,40,0111_lp_dnn_40_truck_10_n04467665_66876.png,n04467665_66876.png,0.0,-1.2842433,0.020252926,-0.9224182
alexnet_w1_mlp_simclrhn_probe0,1,112,NaN,clock,truck,40,0112_lp_dnn_40_truck_10_n03796401_10234.png,n03796401_10234.png,0.0,-1.2382345,0.035956442,-0.90098906
alexnet_w1_mlp_simclrhn_probe0,1,113,NaN,keyboard,bicycle,7,0113_lp_dnn_7_bicycle_10_n03792782_5416.png,n03792782_5416.png,0.0,-2.142499,-0.17026557,-1.3945796
alexnet_w1_mlp_simclrhn_probe0,1,114,NaN,keyboard,knife,7,0114_lp_dnn_7_knife_10_n03041632_25772.png,n03041632_25772.png,0.0,-0.8670268,-0.14638709,-0.5095692
alexnet_w1_mlp_simclrhn_probe0,1,115,NaN,bird,bicycle,10,0115_lp_dnn_10_bicycle_10_n03792782_7108.png,n03792782_7108.png,0.0,-2.2984078,-0.2783228,-1.4284159
alexnet_w1_mlp_simclrhn_probe0,1,116,NaN,chair,chair,0,0116_lp_dnn_0_chair_10_n03376595_1981.png,n03376595_1981.png,1.0,0.5399684,-3.4414709,2.8153026
alexnet_w1_mlp_simclrhn_probe0,1,117,NaN,clock,oven,15,0117_lp_dnn_15_oven_10_n04111531_6508.png,n04111531_6508.png,0.0,-1.4121722,0.08868448,-1.061266
alexnet_w1_mlp_simclrhn_probe0,1,118,NaN,keyboard,bird,15,0118_lp_dnn_15_bird_10_n01843383_2843.png,n01843383_2843.png,0.0,-0.27873132,-0.12333928,-0.10987876
alexnet_w1_mlp_simclrhn_probe0,1,119,NaN,bird,cat,5,0119_lp_dnn_5_cat_10_n02123597_5887.png,n02123597_5887.png,0.0,-1.9101677,-0.37383753,-1.0863495
alexnet_w1_mlp_simclrhn_probe0,1,120,NaN,clock,clock,40,0120_lp_dnn_40_clock_10_n04548280_9801.png,n04548280_9801.png,1.0,0.20244718,-0.034014445,0.16720362
alexnet_w1_mlp_simclrhn_probe0,1,121,NaN,bird,bird,1,0121_lp_dnn_1_bird_10_n01530575_10332.png,n01530575_10332.png,1.0,-1.4352558,-2.25239,0.5778011
alexnet_w1_mlp_simclrhn_probe0,1,122,NaN,keyboard,elephant,15,0122_lp_dnn_15_elephant_10_n02504013_5887.png,n02504013_5887.png,0.0,-1.8461581,-0.2347093,-1.1394664
alexnet_w1_mlp_simclrhn_probe0,1,123,NaN,oven,cat,3,0123_lp_dnn_3_cat_10_n02124075_8693.png,n02124075_8693.png,0.0,-1.3532227,-0.90019214,-0.320341
alexnet_w1_mlp_simclrhn_probe0,1,124,NaN,clock,boat,15,0124_lp_dnn_15_boat_10_n04612504_26151.png,n04612504_26151.png,0.0,-1.9225407,0.023162583,-1.37582
alexnet_w1_mlp_simclrhn_probe0,1,125,NaN,keyboard,cat,7,0125_lp_dnn_7_cat_10_n02125311_53412.png,n02125311_53412.png,0.0,-1.4907532,0.17951468,-1.1810577
alexnet_w1_mlp_simclrhn_probe0,1,126,NaN,keyboard,knife,7,0126_lp_dnn_7_knife_10_n03041632_46914.png,n03041632_46914.png,0.0,-0.32990327,-0.087688714,-0.17127156
alexnet_w1_mlp_simclrhn_probe0,1,127,NaN,clock,bicycle,15,0127_lp_dnn_15_bicycle_10_n03792782_5629.png,n03792782_5629.png,0.0,-2.3194096,-0.06311401,-1.595442
alexnet_w1_mlp_simclrhn_probe0,1,128,NaN,clock,bottle,40,0128_lp_dnn_40_bottle_10_n02823428_79.png,n02823428_79.png,0.0,-0.165445,-0.13353662,-0.02256263
alexnet_w1_mlp_simclrhn_probe0,1,129,NaN,dog,dog,3,0129_lp_dnn_3_dog_10_n02101006_5024.png,n02101006_5024.png,1.0,-1.3347374,-1.5991515,0.18696898
alexnet_w1_mlp_simclrhn_probe0,1,130,NaN,keyboard,oven,15,0130_lp_dnn_15_oven_10_n04111531_2350.png,n04111531_2350.png,0.0,-2.1014564,-0.044702932,-1.4543443
alexnet_w1_mlp_simclrhn_probe0,1,131,NaN,keyboard,airplane,7,0131_lp_dnn_7_airplane_10_n02690373_4839.png,n02690373_4839.png,0.0,-0.8814356,-0.13614118,-0.52700275
alexnet_w1_mlp_simclrhn_probe0,1,132,NaN,keyboard,car,5,0132_lp_dnn_5_car_10_n03100240_2075.png,n03100240_2075.png,0.0,-2.0988872,0.16491383,-1.6007491
alexnet_w1_mlp_simclrhn_probe0,1,133,NaN,keyboard,cat,5,0133_lp_dnn_5_cat_10_n02123159_3729.png,n02123159_3729.png,0.0,-1.6350068,-0.04151693,-1.1267675
alexnet_w1_mlp_simclrhn_probe0,1,134,NaN,keyboard,knife,10,0134_lp_dnn_10_knife_10_n03041632_3079.png,n03041632_3079.png,0.0,-0.9109611,0.1461471,-0.7474884
alexnet_w1_mlp_simclrhn_probe0,1,135,NaN,keyboard,elephant,15,0135_lp_dnn_15_elephant_10_n02504013_2052.png,n02504013_2052.png,0.0,-1.9105809,-0.20377424,-1.2068946
alexnet_w1_mlp_simclrhn_probe0,1,136,NaN,bottle,cat,40,0136_lp_dnn_40_cat_10_n02123159_3724.png,n02123159_3724.png,0.0,-0.93055993,-0.14412907,-0.5560906
alexnet_w1_mlp_simclrhn_probe0,1,137,NaN,clock,keyboard,15,0137_lp_dnn_15_keyboard_10_n03085013_7955.png,n03085013_7955.png,0.0,-0.38144577,-0.071567446,-0.21911706
alexnet_w1_mlp_simclrhn_probe0,1,138,NaN,clock,bird,40,0138_lp_dnn_40_bird_10_n02056570_9872.png,n02056570_9872.png,0.0,-0.7196168,-0.102086775,-0.43665966
alexnet_w1_mlp_simclrhn_probe0,1,139,NaN,bird,cat,10,0139_lp_dnn_10_cat_10_n02125311_44401.png,n02125311_44401.png,0.0,-1.1992674,-0.10033277,-0.77706414
alexnet_w1_mlp_simclrhn_probe0,1,140,NaN,clock,airplane,10,0140_lp_dnn_10_airplane_10_n02690373_10657.png,n02690373_10657.png,0.0,-0.60128844,-0.15844674,-0.31313637
alexnet_w1_mlp_simclrhn_probe0,1,141,NaN,bird,bird,5,0141_lp_dnn_5_bird_10_n02025239_7919.png,n02025239_7919.png,1.0,-0.016681299,-0.88273466,0.6123922
alexnet_w1_mlp_simclrhn_probe0,1,142,NaN,clock,bear,40,0142_lp_dnn_40_bear_10_n02134084_23165.png,n02134084_23165.png,0.0,-1.3549225,-0.03381939,-0.93416095
alexnet_w1_mlp_simclrhn_probe0,1,143,NaN,clock,knife,40,0143_lp_dnn_40_knife_10_n03041632_28658.png,n03041632_28658.png,0.0,-0.33891004,0.06641973,-0.28661144
alexnet_w1_mlp_simclrhn_probe0,1,144,NaN,keyboard,keyboard,5,0144_lp_dnn_5_keyboard_10_n04505470_4371.png,n04505470_4371.png,1.0,0.1957998,-0.5580446,0.5330485
alexnet_w1_mlp_simclrhn_probe0,1,145,NaN,keyboard,keyboard,0,0145_lp_dnn_0_keyboard_10_n03085013_14237.png,n03085013_14237.png,1.0,3.8472364,1.3642328,1.7557487
alexnet_w1_mlp_simclrhn_probe0,1,146,NaN,bottle,clock,0,0146_lp_dnn_0_clock_10_n03196217_6163.png,n03196217_6163.png,0.0,-4.383278,-3.69985,-0.48325646
alexnet_w1_mlp_simclrhn_probe0,1,147,NaN,clock,chair,15,0147_lp_dnn_15_chair_10_n02791124_3857.png,n02791124_3857.png,0.0,-1.852746,-0.20466332,-1.1653705
alexnet_w1_mlp_simclrhn_probe0,1,148,NaN,clock,truck,40,0148_lp_dnn_40_truck_10_n03417042_20650.png,n03417042_20650.png,0.0,-1.5966902,0.083592094,-1.188139
alexnet_w1_mlp_simclrhn_probe0,1,149,NaN,truck,truck,0,0149_lp_dnn_0_truck_10_n04467665_17101.png,n04467665_17101.png,1.0,6.117055,1.2118458,3.4685066
alexnet_w1_mlp_simclrhn_probe0,1,150,NaN,chair,chair,1,0150_lp_dnn_1_chair_10_n04429376_19354.png,n04429376_19354.png,1.0,-3.088491,-3.824091,0.52014774
alexnet_w1_mlp_simclrhn_probe0,1,151,NaN,knife,knife,0,0151_lp_dnn_0_knife_10_n03041632_42156.png,n03041632_42156.png,1.0,3.6334662,-1.5334452,3.6535583
alexnet_w1_mlp_simclrhn_probe0,1,152,NaN,car,car,1,0152_lp_dnn_1_car_10_n04285008_39.png,n04285008_39.png,1.0,4.2816367,1.5308132,1.9451259
alexnet_w1_mlp_simclrhn_probe0,1,153,NaN,boat,boat,1,0153_lp_dnn_1_boat_10_n03662601_1319.png,n03662601_1319.png,1.0,2.8569613,0.0037783533,2.017505
alexnet_w1_mlp_simclrhn_probe0,1,154,NaN,keyboard,truck,7,0154_lp_dnn_7_truck_10_n03796401_4119.png,n03796401_4119.png,0.0,-2.3091693,-0.12047756,-1.5476387
alexnet_w1_mlp_simclrhn_probe0,1,155,NaN,clock,bottle,15,0155_lp_dnn_15_bottle_10_n03937543_2333.png,n03937543_2333.png,0.0,-0.2106758,-0.0054100156,-0.14514484
alexnet_w1_mlp_simclrhn_probe0,1,156,NaN,bottle,bottle,3,0156_lp_dnn_3_bottle_10_n04591713_7134.png,n04591713_7134.png,1.0,-0.12776348,-0.30908158,0.12821126
alexnet_w1_mlp_simclrhn_probe0,1,157,NaN,dog,dog,0,0157_lp_dnn_0_dog_10_n02107312_3673.png,n02107312_3673.png,1.0,-4.799583,-5.4015265,0.42563835
alexnet_w1_mlp_simclrhn_probe0,1,158,NaN,oven,oven,3,0158_lp_dnn_3_oven_10_n04111531_8373.png,n04111531_8373.png,1.0,-0.047888543,-0.45604345,0.28860912
alexnet_w1_mlp_simclrhn_probe0,1,159,NaN,oven,car,3,0159_lp_dnn_3_car_10_n03100240_13707.png,n03100240_13707.png,0.0,-0.3842784,-0.25925937,-0.088401794
alexnet_w1_mlp_simclrhn_probe0,1,160,NaN,chair,chair,1,0160_lp_dnn_1_chair_10_n02791124_241.png,n02791124_241.png,1.0,0.11146271,-0.7832776,0.63267696
alexnet_w1_mlp_simclrhn_probe0,1,161,NaN,keyboard,airplane,7,0161_lp_dnn_7_airplane_10_n02690373_5628.png,n02690373_5628.png,0.0,-0.8474236,0.0012702644,-0.6001172
alexnet_w1_mlp_simclrhn_probe0,1,162,NaN,clock,boat,40,0162_lp_dnn_40_boat_10_n02951358_1461.png,n02951358_1461.png,0.0,-1.336146,-0.010834481,-0.93713677
alexnet_w1_mlp_simclrhn_probe0,1,163,NaN,keyboard,keyboard,7,0163_lp_dnn_7_keyboard_10_n04505470_4501.png,n04505470_4501.png,1.0,1.0786705,-0.365899,1.021465
alexnet_w1_mlp_simclrhn_probe0,1,164,NaN,bird,bird,1,0164_lp_dnn_1_bird_10_n02033041_11415.png,n02033041_11415.png,1.0,-1.6722151,-2.3645246,0.48953676
alexnet_w1_mlp_simclrhn_probe0,1,165,NaN,oven,knife,1,0165_lp_dnn_1_knife_10_n03041632_6446.png,n03041632_6446.png,0.0,-2.114178,-1.7285817,-0.27265775
alexnet_w1_mlp_simclrhn_probe0,1,166,NaN,bird,bird,0,0166_lp_dnn_0_bird_10_n02011460_3892.png,n02011460_3892.png,1.0,0.3180329,-3.5128353,2.708833
alexnet_w1_mlp_simclrhn_probe0,1,167,NaN,bear,cat,1,0167_lp_dnn_1_cat_10_n02125311_3174.png,n02125311_3174.png,0.0,-2.636524,-2.5045793,-0.093298964
alexnet_w1_mlp_simclrhn_probe0,1,168,NaN,clock,dog,10,0168_lp_dnn_10_dog_10_n02088364_7448.png,n02088364_7448.png,0.0,-1.7433381,-0.07597009,-1.1790073
alexnet_w1_mlp_simclrhn_probe0,1,169,NaN,cat,cat,1,0169_lp_dnn_1_cat_10_n02123394_4299.png,n02123394_4299.png,1.0,-0.28207058,-1.6403733,0.96046513
alexnet_w1_mlp_simclrhn_probe0,1,170,NaN,clock,keyboard,15,0170_lp_dnn_15_keyboard_10_n03085013_23731.png,n03085013_23731.png,0.0,-0.25641888,-0.235534,-0.014767845
alexnet_w1_mlp_simclrhn_probe0,1,171,NaN,keyboard,knife,5,0171_lp_dnn_5_knife_10_n03041632_29285.png,n03041632_29285.png,0.0,-0.96673274,-0.30261093,-0.46960503
alexnet_w1_mlp_simclrhn_probe0,1,172,NaN,keyboard,keyboard,0,0172_lp_dnn_0_keyboard_10_n03085013_12164.png,n03085013_12164.png,1.0,10.07556,-0.3815135,7.3942676
alexnet_w1_mlp_simclrhn_probe0,1,173,NaN,keyboard,bird,5,0173_lp_dnn_5_bird_10_n01582220_9023.png,n01582220_9023.png,0.0,-0.9478015,-0.10762872,-0.5940919
alexnet_w1_mlp_simclrhn_probe0,1,174,NaN,keyboard,bottle,3,0174_lp_dnn_3_bottle_10_n03983396_12728.png,n03983396_12728.png,0.0,-1.153102,-0.38170636,-0.54545915
alexnet_w1_mlp_simclrhn_probe0,1,175,NaN,keyboard,dog,7,0175_lp_dnn_7_dog_10_n02111277_50807.png,n02111277_50807.png,0.0,-1.9808528,-0.14486757,-1.2982377
alexnet_w1_mlp_simclrhn_probe0,1,176,NaN,airplane,boat,5,0176_lp_dnn_5_boat_10_n04273569_2037.png,n04273569_2037.png,0.0,-1.3653772,-0.15093395,-0.85874104
alexnet_w1_mlp_simclrhn_probe0,1,177,NaN,clock,keyboard,40,0177_lp_dnn_40_keyboard_10_n04505470_4672.png,n04505470_4672.png,0.0,-0.52642864,-0.07099768,-0.32203832
alexnet_w1_mlp_simclrhn_probe0,1,178,NaN,keyboard,boat,10,0178_lp_dnn_10_boat_10_n03662601_12034.png,n03662601_12034.png,0.0,-1.8955009,-0.07284869,-1.2888098
alexnet_w1_mlp_simclrhn_probe0,1,179,NaN,clock,airplane,15,0179_lp_dnn_15_airplane_10_n02690373_5845.png,n02690373_5845.png,0.0,-0.9430864,-0.075730264,-0.6133134
alexnet_w1_mlp_simclrhn_probe0,1,180,NaN,keyboard,truck,5,0180_lp_dnn_5_truck_10_n03417042_12128.png,n03417042_12128.png,0.0,-1.9885273,-0.19998218,-1.2646924
alexnet_w1_mlp_simclrhn_probe0,1,181,NaN,keyboard,keyboard,10,0181_lp_dnn_10_keyboard_10_n03085013_2432.png,n03085013_2432.png,1.0,0.25544286,0.03269438,0.15750696
alexnet_w1_mlp_simclrhn_probe0,1,182,NaN,keyboard,chair,5,0182_lp_dnn_5_chair_10_n03376595_9692.png,n03376595_9692.png,0.0,-0.7292088,-0.044200018,-0.4843744
alexnet_w1_mlp_simclrhn_probe0,1,183,NaN,elephant,chair,3,0183_lp_dnn_3_chair_10_n03376595_12583.png,n03376595_12583.png,0.0,-2.1647024,-0.6463623,-1.0736287
alexnet_w1_mlp_simclrhn_probe0,1,184,NaN,bicycle,bear,0,0184_lp_dnn_0_bear_10_n02133161_2135.png,n02133161_2135.png,0.0,-1.6645621,-0.95956445,-0.49850863
alexnet_w1_mlp_simclrhn_probe0,1,185,NaN,clock,airplane,10,0185_lp_dnn_10_airplane_10_n02690373_5176.png,n02690373_5176.png,0.0,-0.6869792,-0.28540567,-0.28395537
alexnet_w1_mlp_simclrhn_probe0,1,186,NaN,elephant,elephant,0,0186_lp_dnn_0_elephant_10_n02504013_10990.png,n02504013_10990.png,1.0,-1.3912501,-2.9254665,1.0848548
alexnet_w1_mlp_simclrhn_probe0,1,187,NaN,clock,boat,10,0187_lp_dnn_10_boat_10_n02951358_3155.png,n02951358_3155.png,0.0,-1.9884322,-0.3131362,-1.1846131
alexnet_w1_mlp_simclrhn_probe0,1,188,NaN,knife,knife,1,0188_lp_dnn_1_knife_10_n03041632_2644.png,n03041632_2644.png,1.0,0.36894444,-1.2451066,1.1413064
alexnet_w1_mlp_simclrhn_probe0,1,189,NaN,keyboard,airplane,5,0189_lp_dnn_5_airplane_10_n02690373_5184.png,n02690373_5184.png,0.0,-1.0318497,0.062484443,-0.7738111
alexnet_w1_mlp_simclrhn_probe0,1,190,NaN,chair,chair,0,0190_lp_dnn_0_chair_10_n04099969_16161.png,n04099969_16161.png,1.0,-2.4626608,-4.011504,1.0951977
alexnet_w1_mlp_simclrhn_probe0,1,191,NaN,clock,boat,10,0191_lp_dnn_10_boat_10_n03344393_5343.png,n03344393_5343.png,0.0,-2.012066,-0.18140863,-1.2944702
alexnet_w1_mlp_simclrhn_probe0,1,192,NaN,oven,oven,0,0192_lp_dnn_0_oven_10_n04111531_15052.png,n04111531_15052.png,1.0,5.418429,-1.739738,5.0615883
alexnet_w1_mlp_simclrhn_probe0,1,193,NaN,clock,bicycle,15,0193_lp_dnn_15_bicycle_10_n02835271_317.png,n02835271_317.png,0.0,-1.5654922,-0.1577437,-0.9954285
alexnet_w1_mlp_simclrhn_probe0,1,194,NaN,bird,bird,0,0194_lp_dnn_0_bird_10_n02002556_15721.png,n02002556_15721.png,1.0,-0.7862745,-3.8767405,2.1852896
alexnet_w1_mlp_simclrhn_probe0,1,195,NaN,keyboard,chair,5,0195_lp_dnn_5_chair_10_n03376595_11280.png,n03376595_11280.png,0.0,-1.7363552,0.0030786544,-1.2299656
alexnet_w1_mlp_simclrhn_probe0,1,196,NaN,keyboard,keyboard,3,0196_lp_dnn_3_keyboard_10_n04505470_4621.png,n04505470_4621.png,1.0,-0.14918244,-1.1968426,0.7408076
alexnet_w1_mlp_simclrhn_probe0,1,197,NaN,keyboard,boat,7,0197_lp_dnn_7_boat_10_n03662601_6042.png,n03662601_6042.png,0.0,-1.815671,-0.19864902,-1.1434072
alexnet_w1_mlp_simclrhn_probe0,1,198,NaN,dog,dog,1,0198_lp_dnn_1_dog_10_n02086646_2810.png,n02086646_2810.png,1.0,-2.9125705,-4.0719914,0.8198345
alexnet_w1_mlp_simclrhn_probe0,1,199,NaN,clock,elephant,15,0199_lp_dnn_15_elephant_10_n02504458_7835.png,n02504458_7835.png,0.0,-1.7949088,-0.1746604,-1.1456885
alexnet_w1_mlp_simclrhn_probe0,1,200,NaN,keyboard,cat,15,0200_lp_dnn_15_cat_10_n02123159_6281.png,n02123159_6281.png,0.0,-1.1051666,-0.108911395,-0.7044588
alexnet_w1_mlp_simclrhn_probe0,1,201,NaN,keyboard,knife,5,0201_lp_dnn_5_knife_10_n03041632_1661.png,n03041632_1661.png,0.0,-1.471364,0.13210452,-1.1338235
alexnet_w1_mlp_simclrhn_probe0,1,202,NaN,clock,clock,1,0202_lp_dnn_1_clock_10_n02708093_2806.png,n02708093_2806.png,1.0,0.3555824,-1.8984114,1.5938143
alexnet_w1_mlp_simclrhn_probe0,1,203,NaN,boat,boat,1,0203_lp_dnn_1_boat_10_n04273569_1201.png,n04273569_1201.png,1.0,2.5130124,-0.8048742,2.3461
alexnet_w1_mlp_simclrhn_probe0,1,204,NaN,clock,bird,40,0204_lp_dnn_40_bird_10_n01614925_13283.png,n01614925_13283.png,0.0,-0.8218587,-0.03754206,-0.55459565
alexnet_w1_mlp_simclrhn_probe0,1,205,NaN,clock,car,40,0205_lp_dnn_40_car_10_n02814533_51701.png,n02814533_51701.png,0.0,-0.8645007,0.003347166,-0.6136611
alexnet_w1_mlp_simclrhn_probe0,1,206,NaN,keyboard,chair,7,0206_lp_dnn_7_chair_10_n04099969_34325.png,n04099969_34325.png,0.0,-1.5604064,0.24468917,-1.2763954
alexnet_w1_mlp_simclrhn_probe0,1,207,NaN,airplane,truck,0,0207_lp_dnn_0_truck_10_n04467665_71305.png,n04467665_71305.png,0.0,-0.5160121,3.2572305,-2.6680853
alexnet_w1_mlp_simclrhn_probe0,1,208,NaN,knife,boat,5,0208_lp_dnn_5_boat_10_n03344393_5916.png,n03344393_5916.png,0.0,-1.5612563,-0.5827367,-0.6919179
alexnet_w1_mlp_simclrhn_probe0,1,209,NaN,keyboard,car,7,0209_lp_dnn_7_car_10_n02814533_28783.png,n02814533_28783.png,0.0,-2.030159,0.12115294,-1.5212072
alexnet_w1_mlp_simclrhn_probe0,1,210,NaN,clock,boat,15,0210_lp_dnn_15_boat_10_n03662601_16825.png,n03662601_16825.png,0.0,-1.7915949,-0.20774257,-1.1199527
alexnet_w1_mlp_simclrhn_probe0,1,211,NaN,elephant,dog,0,0211_lp_dnn_0_dog_10_n02100583_10960.png,n02100583_10960.png,0.0,-4.223705,-3.924448,-0.21160652
alexnet_w1_mlp_simclrhn_probe0,1,212,NaN,keyboard,elephant,10,0212_lp_dnn_10_elephant_10_n02504458_4587.png,n02504458_4587.png,0.0,-1.9332867,-0.24773785,-1.191863
alexnet_w1_mlp_simclrhn_probe0,1,213,NaN,keyboard,bottle,10,0213_lp_dnn_10_bottle_10_n03983396_12670.png,n03983396_12670.png,0.0,-0.4189743,0.09658718,-0.364557
alexnet_w1_mlp_simclrhn_probe0,1,214,NaN,bicycle,bicycle,3,0214_lp_dnn_3_bicycle_10_n02835271_18205.png,n02835271_18205.png,1.0,-0.5220649,-0.9113776,0.27528563
alexnet_w1_mlp_simclrhn_probe0,1,215,NaN,clock,truck,40,0215_lp_dnn_40_truck_10_n04467665_67527.png,n04467665_67527.png,0.0,-1.0777216,-0.19829607,-0.62184775
alexnet_w1_mlp_simclrhn_probe0,1,216,NaN,clock,keyboard,10,0216_lp_dnn_10_keyboard_10_n03085013_4374.png,n03085013_4374.png,0.0,-0.09889454,-0.061033744,-0.026771624
alexnet_w1_mlp_simclrhn_probe0,1,217,NaN,oven,clock,3,0217_lp_dnn_3_clock_10_n03196217_3086.png,n03196217_3086.png,0.0,0.3251005,0.68922794,-0.257477
alexnet_w1_mlp_simclrhn_probe0,1,218,NaN,clock,clock,15,0218_lp_dnn_15_clock_10_n04548280_254.png,n04548280_254.png,1.0,0.08904934,-0.19898854,0.20367356
alexnet_w1_mlp_simclrhn_probe0,1,219,NaN,keyboard,bicycle,15,0219_lp_dnn_15_bicycle_10_n02835271_21707.png,n02835271_21707.png,0.0,-2.424724,-0.24695645,-1.5399144
alexnet_w1_mlp_simclrhn_probe0,1,220,NaN,keyboard,bird,15,0220_lp_dnn_15_bird_10_n01819313_6340.png,n01819313_6340.png,0.0,-0.21546376,-0.15196493,-0.04490045
alexnet_w1_mlp_simclrhn_probe0,1,221,NaN,keyboard,bicycle,5,0221_lp_dnn_5_bicycle_10_n02835271_10556.png,n02835271_10556.png,0.0,-2.1627028,-0.35614502,-1.2774292
alexnet_w1_mlp_simclrhn_probe0,1,222,NaN,clock,chair,15,0222_lp_dnn_15_chair_10_n04099969_3312.png,n04099969_3312.png,0.0,-1.697475,-0.11030915,-1.1222957
alexnet_w1_mlp_simclrhn_probe0,1,223,NaN,clock,car,15,0223_lp_dnn_15_car_10_n04285008_2781.png,n04285008_2781.png,0.0,-1.517007,-0.29252425,-0.8658401
alexnet_w1_mlp_simclrhn_probe0,1,224,NaN,clock,clock,3,0224_lp_dnn_3_clock_10_n04548280_21263.png,n04548280_21263.png,1.0,2.0262756,-0.18995987,1.5671151
alexnet_w1_mlp_simclrhn_probe0,1,225,NaN,keyboard,car,15,0225_lp_dnn_15_car_10_n02814533_9785.png,n02814533_9785.png,0.0,-1.554804,-0.1856533,-0.9681357
alexnet_w1_mlp_simclrhn_probe0,1,226,NaN,truck,truck,0,0226_lp_dnn_0_truck_10_n03417042_24100.png,n03417042_24100.png,1.0,5.9802284,4.589149,0.9836417
alexnet_w1_mlp_simclrhn_probe0,1,227,NaN,clock,dog,15,0227_lp_dnn_15_dog_10_n02091244_10926.png,n02091244_10926.png,0.0,-1.9964703,-0.13821386,-1.3139858
alexnet_w1_mlp_simclrhn_probe0,1,228,NaN,clock,bottle,40,0228_lp_dnn_40_bottle_10_n04591713_2537.png,n04591713_2537.png,0.0,-0.24030972,0.094830714,-0.23698008
alexnet_w1_mlp_simclrhn_probe0,1,229,NaN,keyboard,bear,10,0229_lp_dnn_10_bear_10_n02134418_1311.png,n02134418_1311.png,0.0,-2.1462646,0.11907107,-1.6018342
alexnet_w1_mlp_simclrhn_probe0,1,230,NaN,bird,bicycle,3,0230_lp_dnn_3_bicycle_10_n03792782_210.png,n03792782_210.png,0.0,-1.6889815,-1.0987296,-0.41737115
alexnet_w1_mlp_simclrhn_probe0,1,231,NaN,cat,cat,3,0231_lp_dnn_3_cat_10_n02123045_5371.png,n02123045_5371.png,1.0,-0.6358828,-1.5634999,0.6559244
alexnet_w1_mlp_simclrhn_probe0,1,232,NaN,clock,boat,15,0232_lp_dnn_15_boat_10_n04612504_19111.png,n04612504_19111.png,0.0,-1.980098,-0.025258878,-1.38228
alexnet_w1_mlp_simclrhn_probe0,1,233,NaN,clock,clock,1,0233_lp_dnn_1_clock_10_n03196217_7836.png,n03196217_7836.png,1.0,1.0554897,0.030358456,0.72487724
alexnet_w1_mlp_simclrhn_probe0,1,234,NaN,dog,dog,0,0234_lp_dnn_0_dog_10_n02086910_9742.png,n02086910_9742.png,1.0,0.08779426,-3.3398619,2.423719
alexnet_w1_mlp_simclrhn_probe0,1,235,NaN,bottle,bottle,1,0235_lp_dnn_1_bottle_10_n03937543_4723.png,n03937543_4723.png,1.0,-1.2534997,-1.4053206,0.10735359
alexnet_w1_mlp_simclrhn_probe0,1,236,NaN,keyboard,dog,5,0236_lp_dnn_5_dog_10_n02111129_6495.png,n02111129_6495.png,0.0,-1.6285143,-0.36019015,-0.89684063
alexnet_w1_mlp_simclrhn_probe0,1,237,NaN,knife,knife,1,0237_lp_dnn_1_knife_10_n03041632_3101.png,n03041632_3101.png,1.0,0.5873425,0.54991996,0.02646173
alexnet_w1_mlp_simclrhn_probe0,1,238,NaN,cat,bear,0,0238_lp_dnn_0_bear_10_n02134084_7373.png,n02134084_7373.png,0.0,-3.9139824,-1.7443337,-1.5341733
alexnet_w1_mlp_simclrhn_probe0,1,239,NaN,bird,bird,7,0239_lp_dnn_7_bird_10_n02009229_11916.png,n02009229_11916.png,1.0,-0.029174328,-0.13074529,0.07182152
alexnet_w1_mlp_simclrhn_probe0,1,240,NaN,keyboard,oven,7,0240_lp_dnn_7_oven_10_n04111531_14208.png,n04111531_14208.png,0.0,-1.3547963,0.022437721,-0.9738515
alexnet_w1_mlp_simclrhn_probe0,1,241,NaN,clock,bird,3,0241_lp_dnn_3_bird_10_n01601694_20287.png,n01601694_20287.png,0.0,-1.1419505,-0.6929514,-0.3174903
alexnet_w1_mlp_simclrhn_probe0,1,242,NaN,clock,oven,15,0242_lp_dnn_15_oven_10_n04111531_5519.png,n04111531_5519.png,0.0,-1.5688087,-0.13377185,-1.0147243
alexnet_w1_mlp_simclrhn_probe0,1,243,NaN,car,car,1,0243_lp_dnn_1_car_10_n04285008_10893.png,n04285008_10893.png,1.0,3.3338478,2.0279057,0.9234405
alexnet_w1_mlp_simclrhn_probe0,1,244,NaN,clock,boat,40,0244_lp_dnn_40_boat_10_n02951358_16196.png,n02951358_16196.png,0.0,-1.033396,0.076396756,-0.78474194
alexnet_w1_mlp_simclrhn_probe0,1,245,NaN,clock,clock,7,0245_lp_dnn_7_clock_10_n04548280_532.png,n04548280_532.png,1.0,-0.14369656,-0.23439375,0.06413259
alexnet_w1_mlp_simclrhn_probe0,1,246,NaN,keyboard,keyboard,0,0246_lp_dnn_0_keyboard_10_n04505470_73.png,n04505470_73.png,1.0,13.741417,1.0106283,9.002027
alexnet_w1_mlp_simclrhn_probe0,1,247,NaN,keyboard,bottle,10,0247_lp_dnn_10_bottle_10_n02823428_6766.png,n02823428_6766.png,0.0,-0.658792,-0.056572706,-0.42583337
alexnet_w1_mlp_simclrhn_probe0,1,248,NaN,clock,boat,15,0248_lp_dnn_15_boat_10_n02951358_26579.png,n02951358_26579.png,0.0,-1.2703818,-0.23137634,-0.73468786
alexnet_w1_mlp_simclrhn_probe0,1,249,NaN,keyboard,dog,10,0249_lp_dnn_10_dog_10_n02085782_7651.png,n02085782_7651.png,0.0,-1.9508456,0.117017984,-1.4622003
alexnet_w1_mlp_simclrhn_probe0,1,250,NaN,clock,clock,3,0250_lp_dnn_3_clock_10_n02708093_1747.png,n02708093_1747.png,1.0,1.0610081,-0.24335591,0.9223246
alexnet_w1_mlp_simclrhn_probe0,1,251,NaN,knife,truck,3,0251_lp_dnn_3_truck_10_n04467665_19645.png,n04467665_19645.png,0.0,-1.6745913,-0.6930977,-0.6940208
alexnet_w1_mlp_simclrhn_probe0,1,252,NaN,clock,airplane,15,0252_lp_dnn_15_airplane_10_n02690373_17262.png,n02690373_17262.png,0.0,-0.7230395,-0.12988733,-0.4194219
alexnet_w1_mlp_simclrhn_probe0,1,253,NaN,elephant,elephant,0,0253_lp_dnn_0_elephant_10_n02504458_10428.png,n02504458_10428.png,1.0,1.8102888,-2.6374464,3.1450238
alexnet_w1_mlp_simclrhn_probe0,1,254,NaN,keyboard,cat,7,0254_lp_dnn_7_cat_10_n02124075_9149.png,n02124075_9149.png,0.0,-1.7495189,-0.024939984,-1.2194614
alexnet_w1_mlp_simclrhn_probe0,1,255,NaN,keyboard,elephant,10,0255_lp_dnn_10_elephant_10_n02504013_7923.png,n02504013_7923.png,0.0,-2.7346478,-0.06975323,-1.8843651
alexnet_w1_mlp_simclrhn_probe0,1,256,NaN,cat,cat,3,0256_lp_dnn_3_cat_10_n02123394_4789.png,n02123394_4789.png,1.0,-0.99463797,-1.0882394,0.066186234
alexnet_w1_mlp_simclrhn_probe0,1,257,NaN,keyboard,clock,5,0257_lp_dnn_5_clock_10_n03196217_2530.png,n03196217_2530.png,0.0,0.1495055,0.5122617,-0.25650737
alexnet_w1_mlp_simclrhn_probe0,1,258,NaN,keyboard,airplane,5,0258_lp_dnn_5_airplane_10_n02690373_6992.png,n02690373_6992.png,0.0,-1.1727101,-0.5004311,-0.475373
alexnet_w1_mlp_simclrhn_probe0,1,259,NaN,keyboard,airplane,3,0259_lp_dnn_3_airplane_10_n02690373_5056.png,n02690373_5056.png,0.0,0.06553892,0.45317805,-0.27410227
alexnet_w1_mlp_simclrhn_probe0,1,260,NaN,bear,bear,1,0260_lp_dnn_1_bear_10_n02134418_2231.png,n02134418_2231.png,1.0,0.6454065,-1.1792649,1.2902375
alexnet_w1_mlp_simclrhn_probe0,1,261,NaN,keyboard,truck,10,0261_lp_dnn_10_truck_10_n03796401_180.png,n03796401_180.png,0.0,-2.16215,0.11244318,-1.6083802
alexnet_w1_mlp_simclrhn_probe0,1,262,NaN,cat,bicycle,3,0262_lp_dnn_3_bicycle_10_n02835271_3246.png,n02835271_3246.png,0.0,-1.9510131,-1.8268999,-0.08776129
alexnet_w1_mlp_simclrhn_probe0,1,263,NaN,truck,truck,3,0263_lp_dnn_3_truck_10_n03796401_599.png,n03796401_599.png,1.0,-0.5628394,-0.66597116,0.07292517
alexnet_w1_mlp_simclrhn_probe0,1,264,NaN,keyboard,oven,7,0264_lp_dnn_7_oven_10_n04111531_13862.png,n04111531_13862.png,0.0,-2.0385985,0.20161296,-1.5840688
alexnet_w1_mlp_simclrhn_probe0,1,265,NaN,oven,oven,0,0265_lp_dnn_0_oven_10_n04111531_10420.png,n04111531_10420.png,1.0,-1.1330478,-1.6614888,0.3736642
alexnet_w1_mlp_simclrhn_probe0,1,266,NaN,keyboard,car,10,0266_lp_dnn_10_car_10_n03100240_15531.png,n03100240_15531.png,0.0,-1.6940718,-0.14386821,-1.0961595
alexnet_w1_mlp_simclrhn_probe0,1,267,NaN,keyboard,dog,7,0267_lp_dnn_7_dog_10_n02099849_3128.png,n02099849_3128.png,0.0,-1.7149346,0.03193395,-1.2352226
alexnet_w1_mlp_simclrhn_probe0,1,268,NaN,keyboard,chair,5,0268_lp_dnn_5_chair_10_n02791124_3222.png,n02791124_3222.png,0.0,-1.9047382,-0.056991093,-1.3065546
alexnet_w1_mlp_simclrhn_probe0,1,269,NaN,keyboard,keyboard,5,0269_lp_dnn_5_keyboard_10_n04505470_8364.png,n04505470_8364.png,1.0,0.8060992,-0.764523,1.1105976
alexnet_w1_mlp_simclrhn_probe0,1,270,NaN,clock,clock,0,0270_lp_dnn_0_clock_10_n04548280_9294.png,n04548280_9294.png,1.0,0.19270475,-1.5245708,1.2142973
alexnet_w1_mlp_simclrhn_probe0,1,271,NaN,keyboard,bottle,7,0271_lp_dnn_7_bottle_10_n03937543_3358.png,n03937543_3358.png,0.0,-0.33983403,0.078216195,-0.29560617
alexnet_w1_mlp_simclrhn_probe0,1,272,NaN,keyboard,knife,7,0272_lp_dnn_7_knife_10_n03041632_2058.png,n03041632_2058.png,0.0,-0.39067668,0.035429746,-0.30130276
alexnet_w1_mlp_simclrhn_probe0,1,273,NaN,boat,elephant,1,0273_lp_dnn_1_elephant_10_n02504458_5671.png,n02504458_5671.png,0.0,-0.6643286,1.1489812,-1.2822037
alexnet_w1_mlp_simclrhn_probe0,1,274,NaN,keyboard,chair,10,0274_lp_dnn_10_chair_10_n02791124_6281.png,n02791124_6281.png,0.0,-1.7898047,0.00956741,-1.2723482
alexnet_w1_mlp_simclrhn_probe0,1,275,NaN,clock,cat,15,0275_lp_dnn_15_cat_10_n02125311_44920.png,n02125311_44920.png,0.0,-1.3062927,0.09163651,-0.9884852
alexnet_w1_mlp_simclrhn_probe0,1,276,NaN,keyboard,airplane,5,0276_lp_dnn_5_airplane_10_n02690373_2981.png,n02690373_2981.png,0.0,-0.8856459,-0.5922678,-0.20744966
alexnet_w1_mlp_simclrhn_probe0,1,277,NaN,chair,knife,1,0277_lp_dnn_1_knife_10_n03041632_2468.png,n03041632_2468.png,0.0,-4.2760506,-3.9720893,-0.21493308
alexnet_w1_mlp_simclrhn_probe0,1,278,NaN,chair,clock,1,0278_lp_dnn_1_clock_10_n02708093_3605.png,n02708093_3605.png,0.0,-2.5245898,-1.9136317,-0.43201262
alexnet_w1_mlp_simclrhn_probe0,1,279,NaN,bicycle,bicycle,1,0279_lp_dnn_1_bicycle_10_n02835271_19019.png,n02835271_19019.png,1.0,3.863133,-3.2123446,5.0031185
alexnet_w1_mlp_simclrhn_probe0,1,280,NaN,keyboard,keyboard,7,0280_lp_dnn_7_keyboard_10_n03085013_1188.png,n03085013_1188.png,1.0,0.19515115,-0.4103148,0.42812908
alexnet_w1_mlp_simclrhn_probe0,1,281,NaN,oven,oven,1,0281_lp_dnn_1_oven_10_n04111531_2715.png,n04111531_2715.png,1.0,-0.8221932,-2.641858,1.2866975
alexnet_w1_mlp_simclrhn_probe0,1,282,NaN,keyboard,keyboard,10,0282_lp_dnn_10_keyboard_10_n03085013_9533.png,n03085013_9533.png,1.0,0.2671924,0.17080517,0.068156056
alexnet_w1_mlp_simclrhn_probe0,1,283,NaN,cat,cat,3,0283_lp_dnn_3_cat_10_n02123045_20366.png,n02123045_20366.png,1.0,-0.85433084,-1.4310019,0.40776804
alexnet_w1_mlp_simclrhn_probe0,1,284,NaN,keyboard,chair,5,0284_lp_dnn_5_chair_10_n03376595_302.png,n03376595_302.png,0.0,-1.7690307,-0.05240491,-1.2138377
alexnet_w1_mlp_simclrhn_probe0,1,285,NaN,keyboard,cat,7,0285_lp_dnn_7_cat_10_n02123597_14267.png,n02123597_14267.png,0.0,-1.8090276,0.25191656,-1.4573076
alexnet_w1_mlp_simclrhn_probe0,1,286,NaN,keyboard,dog,15,0286_lp_dnn_15_dog_10_n02098286_2582.png,n02098286_2582.png,0.0,-1.6853731,-0.20333958,-1.047956
alexnet_w1_mlp_simclrhn_probe0,1,287,NaN,boat,boat,1,0287_lp_dnn_1_boat_10_n03344393_4001.png,n03344393_4001.png,1.0,-0.9851821,-1.0643022,0.05594636
alexnet_w1_mlp_simclrhn_probe0,1,288,NaN,clock,bicycle,15,0288_lp_dnn_15_bicycle_10_n02835271_6122.png,n02835271_6122.png,0.0,-1.7304356,-0.17592293,-1.0992066
alexnet_w1_mlp_simclrhn_probe0,1,289,NaN,dog,dog,3,0289_lp_dnn_3_dog_10_n02091134_3075.png,n02091134_3075.png,1.0,-0.9357445,-1.0265301,0.064195134
alexnet_w1_mlp_simclrhn_probe0,1,290,NaN,clock,oven,40,0290_lp_dnn_40_oven_10_n04111531_4795.png,n04111531_4795.png,0.0,-1.222506,-0.039934453,-0.83620447
alexnet_w1_mlp_simclrhn_probe0,1,291,NaN,keyboard,bottle,10,0291_lp_dnn_10_bottle_10_n04591713_4876.png,n04591713_4876.png,0.0,-0.41068336,0.12584476,-0.37938267
alexnet_w1_mlp_simclrhn_probe0,1,292,NaN,clock,bottle,0,0292_lp_dnn_0_bottle_10_n02823428_2510.png,n02823428_2510.png,0.0,0.49392456,3.7912292,-2.3315465
alexnet_w1_mlp_simclrhn_probe0,1,293,NaN,bottle,keyboard,1,0293_lp_dnn_1_keyboard_10_n03085013_5950.png,n03085013_5950.png,0.0,-2.6723247,-2.3791409,-0.20731226
alexnet_w1_mlp_simclrhn_probe0,1,294,NaN,bird,bear,5,0294_lp_dnn_5_bear_10_n02133161_1490.png,n02133161_1490.png,0.0,-0.9797383,-0.2952115,-0.48403355
alexnet_w1_mlp_simclrhn_probe0,1,295,NaN,keyboard,truck,10,0295_lp_dnn_10_truck_10_n03796401_28465.png,n03796401_28465.png,0.0,-1.9201684,0.13294062,-1.4517673
alexnet_w1_mlp_simclrhn_probe0,1,296,NaN,clock,bottle,15,0296_lp_dnn_15_bottle_10_n02823428_6627.png,n02823428_6627.png,0.0,-0.3047084,-0.022893434,-0.19927327
alexnet_w1_mlp_simclrhn_probe0,1,297,NaN,keyboard,truck,5,0297_lp_dnn_5_truck_10_n04467665_69582.png,n04467665_69582.png,0.0,-1.5108688,-0.16144614,-0.95418596
alexnet_w1_mlp_simclrhn_probe0,1,298,NaN,clock,bird,40,0298_lp_dnn_40_bird_10_n02006656_10568.png,n02006656_10568.png,0.0,-0.7643699,-0.018439969,-0.5274521
alexnet_w1_mlp_simclrhn_probe0,1,299,NaN,clock,car,40,0299_lp_dnn_40_car_10_n04285008_11748.png,n04285008_11748.png,0.0,-0.8745702,0.16076137,-0.73209
alexnet_w1_mlp_simclrhn_probe0,1,300,NaN,keyboard,truck,5,0300_lp_dnn_5_truck_10_n04467665_44714.png,n04467665_44714.png,0.0,-1.5763496,-0.22363976,-0.95651037
alexnet_w1_mlp_simclrhn_probe0,1,301,NaN,airplane,airplane,3,0301_lp_dnn_3_airplane_10_n02690373_7487.png,n02690373_7487.png,1.0,0.9675664,-0.8662966,1.296737
alexnet_w1_mlp_simclrhn_probe0,1,302,NaN,clock,elephant,15,0302_lp_dnn_15_elephant_10_n02504458_7472.png,n02504458_7472.png,0.0,-1.7552191,-0.28538117,-1.0393324
alexnet_w1_mlp_simclrhn_probe0,1,303,NaN,knife,boat,3,0303_lp_dnn_3_boat_10_n03662601_25023.png,n03662601_25023.png,0.0,-1.474951,-0.7914739,-0.4832913
alexnet_w1_mlp_simclrhn_probe0,1,304,NaN,bicycle,knife,0,0304_lp_dnn_0_knife_10_n03041632_101673.png,n03041632_101673.png,0.0,-5.6819167,-2.5909119,-2.1856706
alexnet_w1_mlp_simclrhn_probe0,1,305,NaN,keyboard,bottle,7,0305_lp_dnn_7_bottle_10_n03983396_587.png,n03983396_587.png,0.0,-0.631451,-0.070966735,-0.39632225
alexnet_w1_mlp_simclrhn_probe0,1,306,NaN,oven,cat,3,0306_lp_dnn_3_cat_10_n02124075_7692.png,n02124075_7692.png,0.0,-1.799723,-0.4329985,-0.9664202
alexnet_w1_mlp_simclrhn_probe0,1,307,NaN,oven,oven,0,0307_lp_dnn_0_oven_10_n04111531_6313.png,n04111531_6313.png,1.0,2.8747718,-3.3716822,4.41691
alexnet_w1_mlp_simclrhn_probe0,1,308,NaN,keyboard,bird,7,0308_lp_dnn_7_bird_10_n02018795_5770.png,n02018795_5770.png,0.0,-0.3860685,-0.24132723,-0.10234753
alexnet_w1_mlp_simclrhn_probe0,1,309,NaN,bottle,bottle,3,0309_lp_dnn_3_bottle_10_n02823428_4658.png,n02823428_4658.png,1.0,1.4949037,-0.32223922,1.2849141
alexnet_w1_mlp_simclrhn_probe0,1,310,NaN,airplane,airplane,1,0310_lp_dnn_1_airplane_10_n02690373_2724.png,n02690373_2724.png,1.0,4.335076,-1.2458059,3.9462793
alexnet_w1_mlp_simclrhn_probe0,1,311,NaN,clock,boat,40,0311_lp_dnn_40_boat_10_n04612504_7446.png,n04612504_7446.png,0.0,-0.9093625,0.20539486,-0.7882525
alexnet_w1_mlp_simclrhn_probe0,1,312,NaN,keyboard,boat,7,0312_lp_dnn_7_boat_10_n02951358_34783.png,n02951358_34783.png,0.0,-1.8005993,-0.17080393,-1.1524395
alexnet_w1_mlp_simclrhn_probe0,1,313,NaN,cat,cat,0,0313_lp_dnn_0_cat_10_n02123597_680.png,n02123597_680.png,1.0,3.478402,-1.9207984,3.8178113
alexnet_w1_mlp_simclrhn_probe0,1,314,NaN,keyboard,bear,10,0314_lp_dnn_10_bear_10_n02133161_9863.png,n02133161_9863.png,0.0,-1.7235548,-0.14034007,-1.119502
alexnet_w1_mlp_simclrhn_probe0,1,315,NaN,bear,bear,1,0315_lp_dnn_1_bear_10_n02133161_2100.png,n02133161_2100.png,1.0,2.573104,-0.3519093,2.0682967
alexnet_w1_mlp_simclrhn_probe0,1,316,NaN,oven,oven,3,0316_lp_dnn_3_oven_10_n04111531_8009.png,n04111531_8009.png,1.0,0.71578413,0.24001959,0.33641633
alexnet_w1_mlp_simclrhn_probe0,1,317,NaN,clock,car,40,0317_lp_dnn_40_car_10_n03100240_16525.png,n03100240_16525.png,0.0,-0.94499785,-0.12505569,-0.57978666
alexnet_w1_mlp_simclrhn_probe0,1,318,NaN,bird,bird,5,0318_lp_dnn_5_bird_10_n01824575_4941.png,n01824575_4941.png,1.0,-0.14816347,-0.4647383,0.22385222
alexnet_w1_mlp_simclrhn_probe0,1,319,NaN,clock,knife,15,0319_lp_dnn_15_knife_10_n03041632_289.png,n03041632_289.png,0.0,-0.5542677,-0.2163543,-0.23894085
alexnet_w1_mlp_simclrhn_probe0,1,320,NaN,clock,dog,10,0320_lp_dnn_10_dog_10_n02101006_15350.png,n02101006_15350.png,0.0,-1.754617,-0.25096312,-1.0632439
alexnet_w1_mlp_simclrhn_probe0,1,321,NaN,bird,elephant,5,0321_lp_dnn_5_elephant_10_n02504458_1636.png,n02504458_1636.png,0.0,-1.5622511,-0.44668567,-0.7888239
alexnet_w1_mlp_simclrhn_probe0,1,322,NaN,keyboard,car,7,0322_lp_dnn_7_car_10_n04285008_8666.png,n04285008_8666.png,0.0,-2.4345765,-0.015011728,-1.7108907
alexnet_w1_mlp_simclrhn_probe0,1,323,NaN,keyboard,bottle,5,0323_lp_dnn_5_bottle_10_n02823428_5451.png,n02823428_5451.png,0.0,-0.57887423,-0.19503836,-0.27141294
alexnet_w1_mlp_simclrhn_probe0,1,324,NaN,car,car,3,0324_lp_dnn_3_car_10_n03100240_2495.png,n03100240_2495.png,1.0,-0.15259297,-0.3695597,0.15341865
alexnet_w1_mlp_simclrhn_probe0,1,325,NaN,keyboard,bicycle,10,0325_lp_dnn_10_bicycle_10_n02835271_19565.png,n02835271_19565.png,0.0,-2.543022,0.27972057,-1.9959804
alexnet_w1_mlp_simclrhn_probe0,1,326,NaN,airplane,airplane,1,0326_lp_dnn_1_airplane_10_n02690373_349.png,n02690373_349.png,1.0,3.5274189,-2.377255,4.175235
alexnet_w1_mlp_simclrhn_probe0,1,327,NaN,keyboard,cat,7,0327_lp_dnn_7_cat_10_n02123045_20512.png,n02123045_20512.png,0.0,-1.3773146,-0.03923294,-0.9461666
alexnet_w1_mlp_simclrhn_probe0,1,328,NaN,knife,keyboard,1,0328_lp_dnn_1_keyboard_10_n03085013_23619.png,n03085013_23619.png,0.0,-1.2428131,-0.77928776,-0.32776192
alexnet_w1_mlp_simclrhn_probe0,1,329,NaN,keyboard,boat,7,0329_lp_dnn_7_boat_10_n03662601_16925.png,n03662601_16925.png,0.0,-1.5434773,-0.274764,-0.89711577
alexnet_w1_mlp_simclrhn_probe0,1,330,NaN,keyboard,oven,10,0330_lp_dnn_10_oven_10_n04111531_12830.png,n04111531_12830.png,0.0,-1.2019325,0.39546543,-1.129531
alexnet_w1_mlp_simclrhn_probe0,1,331,NaN,bird,boat,5,0331_lp_dnn_5_boat_10_n02951358_33277.png,n02951358_33277.png,0.0,-1.5496804,-0.49388543,-0.7465598
alexnet_w1_mlp_simclrhn_probe0,1,332,NaN,keyboard,bear,15,0332_lp_dnn_15_bear_10_n02133161_156.png,n02133161_156.png,0.0,-1.8542311,-0.16568871,-1.1939797
alexnet_w1_mlp_simclrhn_probe0,1,333,NaN,clock,cat,40,0333_lp_dnn_40_cat_10_n02124075_6638.png,n02124075_6638.png,0.0,-0.79740196,-0.04349712,-0.53309125
alexnet_w1_mlp_simclrhn_probe0,1,334,NaN,keyboard,keyboard,10,0334_lp_dnn_10_keyboard_10_n04505470_4587.png,n04505470_4587.png,1.0,-0.0044972897,-0.21668047,0.15003617
alexnet_w1_mlp_simclrhn_probe0,1,335,NaN,keyboard,bear,10,0335_lp_dnn_10_bear_10_n02134084_27899.png,n02134084_27899.png,0.0,-1.9478271,-0.0574463,-1.3367012
alexnet_w1_mlp_simclrhn_probe0,1,336,NaN,keyboard,keyboard,0,0336_lp_dnn_0_keyboard_10_n03085013_10984.png,n03085013_10984.png,1.0,5.913806,-1.0682174,4.937036
alexnet_w1_mlp_simclrhn_probe0,1,337,NaN,keyboard,bottle,5,0337_lp_dnn_5_bottle_10_n03983396_10469.png,n03983396_10469.png,0.0,-0.8013676,-0.1754267,-0.44260705
alexnet_w1_mlp_simclrhn_probe0,1,338,NaN,keyboard,knife,10,0338_lp_dnn_10_knife_10_n03041632_20707.png,n03041632_20707.png,0.0,-1.0662191,0.073438674,-0.80585974
alexnet_w1_mlp_simclrhn_probe0,1,339,NaN,car,car,1,0339_lp_dnn_1_car_10_n04285008_9411.png,n04285008_9411.png,1.0,2.1425393,1.9738061,0.11931234
alexnet_w1_mlp_simclrhn_probe0,1,340,NaN,clock,airplane,40,0340_lp_dnn_40_airplane_10_n02690373_4671.png,n02690373_4671.png,0.0,-0.36479396,0.21805553,-0.41213685
alexnet_w1_mlp_simclrhn_probe0,1,341,NaN,keyboard,knife,7,0341_lp_dnn_7_knife_10_n03041632_16206.png,n03041632_16206.png,0.0,-0.5991447,-0.22950286,-0.26137626
alexnet_w1_mlp_simclrhn_probe0,1,342,NaN,keyboard,bicycle,5,0342_lp_dnn_5_bicycle_10_n03792782_7180.png,n03792782_7180.png,0.0,-2.647416,-0.3560605,-1.620233
alexnet_w1_mlp_simclrhn_probe0,1,343,NaN,bear,bear,0,0343_lp_dnn_0_bear_10_n02134418_2719.png,n02134418_2719.png,1.0,-1.0444195,-2.5011034,1.0300311
alexnet_w1_mlp_simclrhn_probe0,1,344,NaN,chair,chair,0,0344_lp_dnn_0_chair_10_n04099969_2038.png,n04099969_2038.png,1.0,0.14074552,-2.2272584,1.6744316
alexnet_w1_mlp_simclrhn_probe0,1,345,NaN,oven,dog,1,0345_lp_dnn_1_dog_10_n02113023_5237.png,n02113023_5237.png,0.0,-3.4993498,-0.8425972,-1.8786077
alexnet_w1_mlp_simclrhn_probe0,1,346,NaN,clock,airplane,40,0346_lp_dnn_40_airplane_10_n02690373_2525.png,n02690373_2525.png,0.0,-0.32447946,-0.082869105,-0.17084432
alexnet_w1_mlp_simclrhn_probe0,1,347,NaN,clock,clock,7,0347_lp_dnn_7_clock_10_n04548280_219.png,n04548280_219.png,1.0,0.48596802,-0.10127644,0.41524455
alexnet_w1_mlp_simclrhn_probe0,1,348,NaN,keyboard,boat,15,0348_lp_dnn_15_boat_10_n04612504_2805.png,n04612504_2805.png,0.0,-2.2169666,-0.18848693,-1.4343517
alexnet_w1_mlp_simclrhn_probe0,1,349,NaN,keyboard,clock,7,0349_lp_dnn_7_clock_10_n02708093_7020.png,n02708093_7020.png,0.0,-0.23938292,0.08646747,-0.23041102
alexnet_w1_mlp_simclrhn_probe0,1,350,NaN,oven,oven,3,0350_lp_dnn_3_oven_10_n04111531_5171.png,n04111531_5171.png,1.0,-0.83997685,-1.2097045,0.26143694
alexnet_w1_mlp_simclrhn_probe0,1,351,NaN,oven,cat,3,0351_lp_dnn_3_cat_10_n02125311_37322.png,n02125311_37322.png,0.0,-1.249487,-0.8908771,-0.2535755
alexnet_w1_mlp_simclrhn_probe0,1,352,NaN,keyboard,cat,7,0352_lp_dnn_7_cat_10_n02123597_14094.png,n02123597_14094.png,0.0,-1.9227095,0.057636857,-1.4003164
alexnet_w1_mlp_simclrhn_probe0,1,353,NaN,keyboard,boat,15,0353_lp_dnn_15_boat_10_n02951358_13352.png,n02951358_13352.png,0.0,-2.399993,-0.121396005,-1.6112113
alexnet_w1_mlp_simclrhn_probe0,1,354,NaN,keyboard,bicycle,10,0354_lp_dnn_10_bicycle_10_n02835271_20445.png,n02835271_20445.png,0.0,-2.133336,0.030624479,-1.5301511
alexnet_w1_mlp_simclrhn_probe0,1,355,NaN,keyboard,knife,7,0355_lp_dnn_7_knife_10_n03041632_4708.png,n03041632_4708.png,0.0,-0.6427448,0.26667902,-0.6430598
alexnet_w1_mlp_simclrhn_probe0,1,356,NaN,keyboard,oven,7,0356_lp_dnn_7_oven_10_n04111531_505.png,n04111531_505.png,0.0,-1.4964564,0.42840266,-1.3610809
alexnet_w1_mlp_simclrhn_probe0,1,357,NaN,bicycle,bicycle,1,0357_lp_dnn_1_bicycle_10_n03792782_104.png,n03792782_104.png,1.0,2.7569976,-2.9190595,4.0135784
alexnet_w1_mlp_simclrhn_probe0,1,358,NaN,clock,bottle,40,0358_lp_dnn_40_bottle_10_n04591713_5204.png,n04591713_5204.png,0.0,-0.08849723,-0.08379966,-0.0033216828
alexnet_w1_mlp_simclrhn_probe0,1,359,NaN,keyboard,bicycle,5,0359_lp_dnn_5_bicycle_10_n03792782_5578.png,n03792782_5578.png,0.0,-2.616807,-0.30903262,-1.6318429
alexnet_w1_mlp_simclrhn_probe0,1,360,NaN,keyboard,truck,10,0360_lp_dnn_10_truck_10_n03417042_1437.png,n03417042_1437.png,0.0,-2.498494,-0.07139064,-1.7162212
alexnet_w1_mlp_simclrhn_probe0,1,361,NaN,cat,cat,0,0361_lp_dnn_0_cat_10_n02123045_7482.png,n02123045_7482.png,1.0,-4.0437555,-4.8574758,0.5753871
alexnet_w1_mlp_simclrhn_probe0,1,362,NaN,keyboard,bird,10,0362_lp_dnn_10_bird_10_n02037110_554.png,n02037110_554.png,0.0,-0.18188249,0.029689506,-0.149604
alexnet_w1_mlp_simclrhn_probe0,1,363,NaN,bird,bicycle,5,0363_lp_dnn_5_bicycle_10_n03792782_15.png,n03792782_15.png,0.0,-1.87508,-0.13730553,-1.2287922
alexnet_w1_mlp_simclrhn_probe0,1,364,NaN,keyboard,bicycle,5,0364_lp_dnn_5_bicycle_10_n02835271_7450.png,n02835271_7450.png,0.0,-2.5521727,-0.44003466,-1.4935071
alexnet_w1_mlp_simclrhn_probe0,1,365,NaN,keyboard,boat,5,0365_lp_dnn_5_boat_10_n03344393_3881.png,n03344393_3881.png,0.0,-1.7478977,-0.36250955,-0.97961736
alexnet_w1_mlp_simclrhn_probe0,1,366,NaN,keyboard,chair,10,0366_lp_dnn_10_chair_10_n04099969_3623.png,n04099969_3623.png,0.0,-1.9416401,-0.08123341,-1.3155062
alexnet_w1_mlp_simclrhn_probe0,1,367,NaN,clock,airplane,5,0367_lp_dnn_5_airplane_10_n02690373_2579.png,n02690373_2579.png,0.0,-0.94095004,-0.4653096,-0.3363286
alexnet_w1_mlp_simclrhn_probe0,1,368,NaN,clock,dog,15,0368_lp_dnn_15_dog_10_n02093859_3707.png,n02093859_3707.png,0.0,-2.0037265,-0.2841815,-1.215902
alexnet_w1_mlp_simclrhn_probe0,1,369,NaN,dog,bottle,1,0369_lp_dnn_1_bottle_10_n04560804_22426.png,n04560804_22426.png,0.0,-4.605849,-4.089965,-0.36478502
alexnet_w1_mlp_simclrhn_probe0,1,370,NaN,clock,clock,15,0370_lp_dnn_15_clock_10_n03196217_82.png,n03196217_82.png,1.0,-0.13832402,-0.3410771,0.14336807
alexnet_w1_mlp_simclrhn_probe0,1,371,NaN,keyboard,car,5,0371_lp_dnn_5_car_10_n03100240_16907.png,n03100240_16907.png,0.0,-2.0263817,-0.14290264,-1.3318208
alexnet_w1_mlp_simclrhn_probe0,1,372,NaN,keyboard,oven,5,0372_lp_dnn_5_oven_10_n04111531_9548.png,n04111531_9548.png,0.0,-1.8076879,-0.10149355,-1.2064615
alexnet_w1_mlp_simclrhn_probe0,1,373,NaN,keyboard,clock,7,0373_lp_dnn_7_clock_10_n02708093_3751.png,n02708093_3751.png,0.0,-0.625525,0.03884512,-0.46978062
alexnet_w1_mlp_simclrhn_probe0,1,374,NaN,keyboard,car,7,0374_lp_dnn_7_car_10_n02814533_6593.png,n02814533_6593.png,0.0,-2.5434985,0.2696817,-1.9892188
alexnet_w1_mlp_simclrhn_probe0,1,375,NaN,airplane,airplane,0,0375_lp_dnn_0_airplane_10_n02690373_3212.png,n02690373_3212.png,1.0,8.824045,-0.2530666,6.4184875
alexnet_w1_mlp_simclrhn_probe0,1,376,NaN,cat,cat,1,0376_lp_dnn_1_cat_10_n02123045_5820.png,n02123045_5820.png,1.0,-3.495827,-3.6897907,0.1371531
alexnet_w1_mlp_simclrhn_probe0,1,377,NaN,bottle,elephant,3,0377_lp_dnn_3_elephant_10_n02504458_205.png,n02504458_205.png,0.0,-1.0307411,-0.59562016,-0.30767697
alexnet_w1_mlp_simclrhn_probe0,1,378,NaN,keyboard,elephant,10,0378_lp_dnn_10_elephant_10_n02504013_3425.png,n02504013_3425.png,0.0,-2.075369,-0.120118745,-1.3825706
alexnet_w1_mlp_simclrhn_probe0,1,379,NaN,clock,bird,15,0379_lp_dnn_15_bird_10_n02056570_9572.png,n02056570_9572.png,0.0,-0.5203911,-0.22376446,-0.2097467
alexnet_w1_mlp_simclrhn_probe0,1,380,NaN,clock,elephant,40,0380_lp_dnn_40_elephant_10_n02504013_7635.png,n02504013_7635.png,0.0,-1.2046001,0.07566339,-0.905283
alexnet_w1_mlp_simclrhn_probe0,1,381,NaN,keyboard,boat,10,0381_lp_dnn_10_boat_10_n04273569_10716.png,n04273569_10716.png,0.0,-1.7399769,-0.005972445,-1.2261263
alexnet_w1_mlp_simclrhn_probe0,1,382,NaN,keyboard,bear,15,0382_lp_dnn_15_bear_10_n02134084_19849.png,n02134084_19849.png,0.0,-2.0708647,-0.17601506,-1.339861
alexnet_w1_mlp_simclrhn_probe0,1,383,NaN,clock,boat,40,0383_lp_dnn_40_boat_10_n03662601_35800.png,n03662601_35800.png,0.0,-0.9040741,-0.028483579,-0.619136
alexnet_w1_mlp_simclrhn_probe0,1,384,NaN,clock,bicycle,40,0384_lp_dnn_40_bicycle_10_n03792782_29276.png,n03792782_29276.png,0.0,-1.830398,0.002480569,-1.2960409
alexnet_w1_mlp_simclrhn_probe0,1,385,NaN,keyboard,oven,10,0385_lp_dnn_10_oven_10_n04111531_4392.png,n04111531_4392.png,0.0,-1.9896787,-0.09577003,-1.3391957
alexnet_w1_mlp_simclrhn_probe0,1,386,NaN,airplane,airplane,0,0386_lp_dnn_0_airplane_10_n02690373_7099.png,n02690373_7099.png,1.0,7.3343377,1.0358828,4.45368
alexnet_w1_mlp_simclrhn_probe0,1,387,NaN,bird,cat,5,0387_lp_dnn_5_cat_10_n02124075_13187.png,n02124075_13187.png,0.0,-1.7483444,-0.52552205,-0.86466604
alexnet_w1_mlp_simclrhn_probe0,1,388,NaN,bicycle,knife,0,0388_lp_dnn_0_knife_10_n03041632_32048.png,n03041632_32048.png,0.0,-3.7630587,-3.0827546,-0.48104763
alexnet_w1_mlp_simclrhn_probe0,1,389,NaN,knife,airplane,3,0389_lp_dnn_3_airplane_10_n02690373_20074.png,n02690373_20074.png,0.0,-0.42263636,-0.39502046,-0.019527394
alexnet_w1_mlp_simclrhn_probe0,1,390,NaN,truck,car,1,0390_lp_dnn_1_car_10_n02814533_83577.png,n02814533_83577.png,0.0,3.5488236,3.6489632,-0.0708094
alexnet_w1_mlp_simclrhn_probe0,1,391,NaN,clock,airplane,40,0391_lp_dnn_40_airplane_10_n02690373_19134.png,n02690373_19134.png,0.0,-0.49823448,-0.038050357,-0.3253993
alexnet_w1_mlp_simclrhn_probe0,1,392,NaN,knife,knife,3,0392_lp_dnn_3_knife_10_n03041632_13130.png,n03041632_13130.png,1.0,-0.10837832,-0.66071874,0.39056364
alexnet_w1_mlp_simclrhn_probe0,1,393,NaN,knife,knife,0,0393_lp_dnn_0_knife_10_n03041632_1006.png,n03041632_1006.png,1.0,-1.6452354,-5.313626,2.5939436
alexnet_w1_mlp_simclrhn_probe0,1,394,NaN,elephant,elephant,1,0394_lp_dnn_1_elephant_10_n02504458_7634.png,n02504458_7634.png,1.0,2.8721652,-1.1628091,2.8531575
alexnet_w1_mlp_simclrhn_probe0,1,395,NaN,bicycle,bicycle,1,0395_lp_dnn_1_bicycle_10_n02835271_17184.png,n02835271_17184.png,1.0,5.494059,-2.781257,5.8515325
alexnet_w1_mlp_simclrhn_probe0,1,396,NaN,oven,oven,0,0396_lp_dnn_0_oven_10_n04111531_2189.png,n04111531_2189.png,1.0,-3.0064573,-3.2585282,0.17824104
alexnet_w1_mlp_simclrhn_probe0,1,397,NaN,clock,cat,15,0397_lp_dnn_15_cat_10_n02124075_11888.png,n02124075_11888.png,0.0,-1.0137178,-0.08066744,-0.65976626
alexnet_w1_mlp_simclrhn_probe0,1,398,NaN,keyboard,cat,10,0398_lp_dnn_10_cat_10_n02123394_1690.png,n02123394_1690.png,0.0,-1.5008312,-0.08430381,-1.0016361
alexnet_w1_mlp_simclrhn_probe0,1,399,NaN,dog,dog,1,0399_lp_dnn_1_dog_10_n02111500_2905.png,n02111500_2905.png,1.0,-0.06652647,-0.2879777,0.15658966
alexnet_w1_mlp_simclrhn_probe0,1,400,NaN,keyboard,knife,5,0400_lp_dnn_5_knife_10_n03041632_20433.png,n03041632_20433.png,0.0,-1.5098994,-0.030386701,-1.0461735
alexnet_w1_mlp_simclrhn_probe0,1,401,NaN,clock,clock,15,0401_lp_dnn_15_clock_10_n04548280_22641.png,n04548280_22641.png,1.0,0.07180864,-0.19754353,0.19046074
alexnet_w1_mlp_simclrhn_probe0,1,402,NaN,clock,bottle,15,0402_lp_dnn_15_bottle_10_n04557648_634.png,n04557648_634.png,0.0,-0.33205777,-0.0612561,-0.1914857
alexnet_w1_mlp_simclrhn_probe0,1,403,NaN,truck,truck,1,0403_lp_dnn_1_truck_10_n04467665_69447.png,n04467665_69447.png,1.0,1.0482758,0.67447,0.26432064
alexnet_w1_mlp_simclrhn_probe0,1,404,NaN,elephant,elephant,3,0404_lp_dnn_3_elephant_10_n02504013_1777.png,n02504013_1777.png,1.0,-0.62130225,-1.3932767,0.5458684
alexnet_w1_mlp_simclrhn_probe0,1,405,NaN,truck,truck,0,0405_lp_dnn_0_truck_10_n03796401_2559.png,n03796401_2559.png,1.0,0.26747403,-1.2340902,1.0617663
alexnet_w1_mlp_simclrhn_probe0,1,406,NaN,car,car,1,0406_lp_dnn_1_car_10_n02814533_42547.png,n02814533_42547.png,1.0,6.3598886,3.7604914,1.8380514
alexnet_w1_mlp_simclrhn_probe0,1,407,NaN,clock,clock,15,0407_lp_dnn_15_clock_10_n04548280_7181.png,n04548280_7181.png,1.0,-0.13419138,-0.36410147,0.16257098
alexnet_w1_mlp_simclrhn_probe0,1,408,NaN,airplane,boat,1,0408_lp_dnn_1_boat_10_n03344393_5030.png,n03344393_5030.png,0.0,0.08169768,1.3260021,-0.8798561
alexnet_w1_mlp_simclrhn_probe0,1,409,NaN,keyboard,bottle,15,0409_lp_dnn_15_bottle_10_n04591713_2952.png,n04591713_2952.png,0.0,-0.42551237,-0.08800335,-0.23865493
alexnet_w1_mlp_simclrhn_probe0,1,410,NaN,keyboard,keyboard,5,0410_lp_dnn_5_keyboard_10_n04505470_4742.png,n04505470_4742.png,1.0,-0.05811898,-0.58918405,0.3755197
alexnet_w1_mlp_simclrhn_probe0,1,411,NaN,keyboard,bear,7,0411_lp_dnn_7_bear_10_n02134418_4696.png,n02134418_4696.png,0.0,-1.6252618,-0.09480809,-1.0821942
alexnet_w1_mlp_simclrhn_probe0,1,412,NaN,clock,bear,40,0412_lp_dnn_40_bear_10_n02132136_5815.png,n02132136_5815.png,0.0,-1.2707539,0.067909285,-0.9465778
alexnet_w1_mlp_simclrhn_probe0,1,413,NaN,clock,bicycle,15,0413_lp_dnn_15_bicycle_10_n02835271_8203.png,n02835271_8203.png,0.0,-1.9824541,-0.11365169,-1.3214428
alexnet_w1_mlp_simclrhn_probe0,1,414,NaN,clock,car,40,0414_lp_dnn_40_car_10_n04285008_12868.png,n04285008_12868.png,0.0,-0.7316828,-0.006830851,-0.51254773
alexnet_w1_mlp_simclrhn_probe0,1,415,NaN,clock,bear,40,0415_lp_dnn_40_bear_10_n02132136_7074.png,n02132136_7074.png,0.0,-1.4252486,-0.06101775,-0.9646569
alexnet_w1_mlp_simclrhn_probe0,1,416,NaN,oven,boat,3,0416_lp_dnn_3_boat_10_n03344393_8265.png,n03344393_8265.png,0.0,-1.2879994,-0.93495756,-0.24963827
alexnet_w1_mlp_simclrhn_probe0,1,417,NaN,keyboard,truck,10,0417_lp_dnn_10_truck_10_n04467665_12177.png,n04467665_12177.png,0.0,-2.1901584,0.01844807,-1.5617206
alexnet_w1_mlp_simclrhn_probe0,1,418,NaN,car,car,3,0418_lp_dnn_3_car_10_n03100240_8987.png,n03100240_8987.png,1.0,0.077201635,-0.6822318,0.53700054
alexnet_w1_mlp_simclrhn_probe0,1,419,NaN,keyboard,bird,15,0419_lp_dnn_15_bird_10_n01530575_10601.png,n01530575_10601.png,0.0,-0.33193186,-0.13561647,-0.13881595
alexnet_w1_mlp_simclrhn_probe0,1,420,NaN,keyboard,keyboard,15,0420_lp_dnn_15_keyboard_10_n04505470_313.png,n04505470_313.png,1.0,0.06794721,-0.11283133,0.12782973
alexnet_w1_mlp_simclrhn_probe0,1,421,NaN,truck,truck,1,0421_lp_dnn_1_truck_10_n03417042_5371.png,n03417042_5371.png,1.0,0.38923958,-1.1753826,1.106355
alexnet_w1_mlp_simclrhn_probe0,1,422,NaN,truck,truck,0,0422_lp_dnn_0_truck_10_n03796401_29952.png,n03796401_29952.png,1.0,2.730796,-2.3158717,3.5685332
alexnet_w1_mlp_simclrhn_probe0,1,423,NaN,keyboard,bicycle,5,0423_lp_dnn_5_bicycle_10_n03792782_6159.png,n03792782_6159.png,0.0,-1.5445912,-0.103287786,-1.0191554
alexnet_w1_mlp_simclrhn_probe0,1,424,NaN,bird,elephant,7,0424_lp_dnn_7_elephant_10_n02504458_1336.png,n02504458_1336.png,0.0,-1.8249547,-0.18986262,-1.1561848
alexnet_w1_mlp_simclrhn_probe0,1,425,NaN,keyboard,bicycle,10,0425_lp_dnn_10_bicycle_10_n02835271_8597.png,n02835271_8597.png,0.0,-2.2930312,0.060470313,-1.664177
alexnet_w1_mlp_simclrhn_probe0,1,426,NaN,keyboard,keyboard,3,0426_lp_dnn_3_keyboard_10_n04505470_3615.png,n04505470_3615.png,1.0,0.5955075,-0.65676826,0.8854927
alexnet_w1_mlp_simclrhn_probe0,1,427,NaN,keyboard,dog,7,0427_lp_dnn_7_dog_10_n02090721_7040.png,n02090721_7040.png,0.0,-1.4977262,-0.08322935,-1.0002004
alexnet_w1_mlp_simclrhn_probe0,1,428,NaN,cat,cat,0,0428_lp_dnn_0_cat_10_n02124075_17347.png,n02124075_17347.png,1.0,2.64534,-5.2949944,5.6146646
alexnet_w1_mlp_simclrhn_probe0,1,429,NaN,chair,keyboard,0,0429_lp_dnn_0_keyboard_10_n03085013_23018.png,n03085013_23018.png,0.0,-1.5765069,-1.4031239,-0.122600295
alexnet_w1_mlp_simclrhn_probe0,1,430,NaN,clock,car,40,0430_lp_dnn_40_car_10_n03100240_5018.png,n03100240_5018.png,0.0,-1.1657064,0.022565743,-0.8402353
alexnet_w1_mlp_simclrhn_probe0,1,431,NaN,clock,dog,40,0431_lp_dnn_40_dog_10_n02105056_12631.png,n02105056_12631.png,0.0,-1.5770005,0.1504483,-1.2214907
alexnet_w1_mlp_simclrhn_probe0,1,432,NaN,clock,knife,15,0432_lp_dnn_15_knife_10_n03041632_27848.png,n03041632_27848.png,0.0,-0.42481038,0.23559928,-0.4669802
alexnet_w1_mlp_simclrhn_probe0,1,433,NaN,keyboard,keyboard,3,0433_lp_dnn_3_keyboard_10_n04505470_4432.png,n04505470_4432.png,1.0,1.6545491,-0.41296744,1.461955
alexnet_w1_mlp_simclrhn_probe0,1,434,NaN,clock,bear,15,0434_lp_dnn_15_bear_10_n02132136_786.png,n02132136_786.png,0.0,-1.6546361,-0.08445325,-1.110287
alexnet_w1_mlp_simclrhn_probe0,1,435,NaN,keyboard,truck,15,0435_lp_dnn_15_truck_10_n03796401_10519.png,n03796401_10519.png,0.0,-1.8026006,-0.250062,-1.0978106
alexnet_w1_mlp_simclrhn_probe0,1,436,NaN,keyboard,airplane,5,0436_lp_dnn_5_airplane_10_n02690373_9086.png,n02690373_9086.png,0.0,-0.6959464,0.08669004,-0.5534075
alexnet_w1_mlp_simclrhn_probe0,1,437,NaN,bicycle,boat,0,0437_lp_dnn_0_boat_10_n02951358_512.png,n02951358_512.png,0.0,-5.126752,-0.7985336,-3.0605128
alexnet_w1_mlp_simclrhn_probe0,1,438,NaN,keyboard,bear,10,0438_lp_dnn_10_bear_10_n02132136_10468.png,n02132136_10468.png,0.0,-2.0938864,0.2193717,-1.6357206
alexnet_w1_mlp_simclrhn_probe0,1,439,NaN,keyboard,bear,5,0439_lp_dnn_5_bear_10_n02134084_13175.png,n02134084_13175.png,0.0,-1.6772496,-0.028978288,-1.1655039
alexnet_w1_mlp_simclrhn_probe0,1,440,NaN,keyboard,dog,10,0440_lp_dnn_10_dog_10_n02088364_2119.png,n02088364_2119.png,0.0,-1.75899,0.05105613,-1.279896
alexnet_w1_mlp_simclrhn_probe0,1,441,NaN,boat,boat,1,0441_lp_dnn_1_boat_10_n04612504_26238.png,n04612504_26238.png,1.0,2.1797931,-0.03360404,1.5651083
alexnet_w1_mlp_simclrhn_probe0,1,442,NaN,bear,bear,3,0442_lp_dnn_3_bear_10_n02134084_20142.png,n02134084_20142.png,1.0,-0.61568594,-0.7418371,0.08920233
alexnet_w1_mlp_simclrhn_probe0,1,443,NaN,keyboard,dog,5,0443_lp_dnn_5_dog_10_n02107683_1076.png,n02107683_1076.png,0.0,-1.807206,-0.21168686,-1.1282024
alexnet_w1_mlp_simclrhn_probe0,1,444,NaN,car,car,3,0444_lp_dnn_3_car_10_n02814533_35386.png,n02814533_35386.png,1.0,0.10019357,-0.31884313,0.2963037
alexnet_w1_mlp_simclrhn_probe0,1,445,NaN,knife,bird,3,0445_lp_dnn_3_bird_10_n01531178_15380.png,n01531178_15380.png,0.0,-1.0047405,-0.9680147,-0.025969034
alexnet_w1_mlp_simclrhn_probe0,1,446,NaN,keyboard,bear,7,0446_lp_dnn_7_bear_10_n02134084_17529.png,n02134084_17529.png,0.0,-2.1542177,0.27979547,-1.7211072
alexnet_w1_mlp_simclrhn_probe0,1,447,NaN,keyboard,bicycle,10,0447_lp_dnn_10_bicycle_10_n02835271_22623.png,n02835271_22623.png,0.0,-1.6972637,-0.18835086,-1.0669625
alexnet_w1_mlp_simclrhn_probe0,1,448,NaN,keyboard,chair,15,0448_lp_dnn_15_chair_10_n02791124_3160.png,n02791124_3160.png,0.0,-2.0161133,-0.12619236,-1.336376
alexnet_w1_mlp_simclrhn_probe0,1,449,NaN,bottle,bottle,0,0449_lp_dnn_0_bottle_10_n02823428_2422.png,n02823428_2422.png,1.0,5.2213163,-1.9325917,5.0585766
alexnet_w1_mlp_simclrhn_probe0,1,450,NaN,keyboard,bear,7,0450_lp_dnn_7_bear_10_n02134084_34902.png,n02134084_34902.png,0.0,-1.4776843,-0.22739366,-0.884089
alexnet_w1_mlp_simclrhn_probe0,1,451,NaN,clock,bicycle,15,0451_lp_dnn_15_bicycle_10_n02835271_3535.png,n02835271_3535.png,0.0,-1.9303186,-0.15789597,-1.2532921
alexnet_w1_mlp_simclrhn_probe0,1,452,NaN,oven,oven,1,0452_lp_dnn_1_oven_10_n04111531_10640.png,n04111531_10640.png,1.0,3.6459026,-0.27756983,2.774314
alexnet_w1_mlp_simclrhn_probe0,1,453,NaN,clock,keyboard,40,0453_lp_dnn_40_keyboard_10_n04505470_1338.png,n04505470_1338.png,0.0,-0.55394423,-0.018869534,-0.37835497
alexnet_w1_mlp_simclrhn_probe0,1,454,NaN,chair,keyboard,0,0454_lp_dnn_0_keyboard_10_n03085013_26656.png,n03085013_26656.png,0.0,-0.8244196,0.5371591,-0.96278155
alexnet_w1_mlp_simclrhn_probe0,1,455,NaN,keyboard,boat,5,0455_lp_dnn_5_boat_10_n03344393_9575.png,n03344393_9575.png,0.0,-1.9166731,-0.19469333,-1.2176236
alexnet_w1_mlp_simclrhn_probe0,1,456,NaN,boat,boat,1,0456_lp_dnn_1_boat_10_n03344393_4616.png,n03344393_4616.png,1.0,0.0060664536,-1.9742289,1.4002802
alexnet_w1_mlp_simclrhn_probe0,1,457,NaN,bicycle,bicycle,0,0457_lp_dnn_0_bicycle_10_n02835271_11929.png,n02835271_11929.png,1.0,1.4879469,-3.13131,3.266308
alexnet_w1_mlp_simclrhn_probe0,1,458,NaN,keyboard,keyboard,3,0458_lp_dnn_3_keyboard_10_n03085013_20515.png,n03085013_20515.png,1.0,2.1825428,0.08742162,1.4814744
alexnet_w1_mlp_simclrhn_probe0,1,459,NaN,clock,dog,40,0459_lp_dnn_40_dog_10_n02088364_3791.png,n02088364_3791.png,0.0,-1.2829216,0.06239559,-0.95128286
alexnet_w1_mlp_simclrhn_probe0,1,460,NaN,airplane,airplane,0,0460_lp_dnn_0_airplane_10_n02690373_10114.png,n02690373_10114.png,1.0,9.4451,1.1017916,5.89961
alexnet_w1_mlp_simclrhn_probe0,1,461,NaN,clock,airplane,10,0461_lp_dnn_10_airplane_10_n02690373_8543.png,n02690373_8543.png,0.0,-0.999484,-0.18884836,-0.57320595
alexnet_w1_mlp_simclrhn_probe0,1,462,NaN,keyboard,chair,7,0462_lp_dnn_7_chair_10_n04429376_14967.png,n04429376_14967.png,0.0,-1.4914525,0.057077885,-1.0949763
alexnet_w1_mlp_simclrhn_probe0,1,463,NaN,clock,cat,15,0463_lp_dnn_15_cat_10_n02125311_24439.png,n02125311_24439.png,0.0,-1.2666101,-0.15117317,-0.7887331
alexnet_w1_mlp_simclrhn_probe0,1,464,NaN,keyboard,truck,5,0464_lp_dnn_5_truck_10_n03417042_4665.png,n03417042_4665.png,0.0,-1.963698,-0.083152875,-1.3297462
alexnet_w1_mlp_simclrhn_probe0,1,465,NaN,clock,elephant,40,0465_lp_dnn_40_elephant_10_n02504013_4044.png,n02504013_4044.png,0.0,-1.2708433,-0.11534751,-0.8170589
alexnet_w1_mlp_simclrhn_probe0,1,466,NaN,bird,bird,1,0466_lp_dnn_1_bird_10_n01843065_3596.png,n01843065_3596.png,1.0,-0.9675676,-3.5877724,1.8527645
alexnet_w1_mlp_simclrhn_probe0,1,467,NaN,keyboard,bird,10,0467_lp_dnn_10_bird_10_n02011460_17499.png,n02011460_17499.png,0.0,-0.1620786,-0.0813629,-0.05707462
alexnet_w1_mlp_simclrhn_probe0,1,468,NaN,elephant,elephant,0,0468_lp_dnn_0_elephant_10_n02504458_7506.png,n02504458_7506.png,1.0,-0.10320096,-3.904494,2.68792
alexnet_w1_mlp_simclrhn_probe0,1,469,NaN,clock,keyboard,40,0469_lp_dnn_40_keyboard_10_n03085013_21955.png,n03085013_21955.png,0.0,-0.5807998,0.009024586,-0.41706884
alexnet_w1_mlp_simclrhn_probe0,1,470,NaN,clock,clock,40,0470_lp_dnn_40_clock_10_n02708093_7810.png,n02708093_7810.png,1.0,0.079574615,-0.09824144,0.12573494
alexnet_w1_mlp_simclrhn_probe0,1,471,NaN,clock,car,40,0471_lp_dnn_40_car_10_n02814533_7984.png,n02814533_7984.png,0.0,-1.0240874,-0.06536734,-0.6779175
alexnet_w1_mlp_simclrhn_probe0,1,472,NaN,keyboard,dog,5,0472_lp_dnn_5_dog_10_n02106382_1806.png,n02106382_1806.png,0.0,-1.4322054,-0.67425954,-0.5359487
alexnet_w1_mlp_simclrhn_probe0,1,473,NaN,keyboard,chair,15,0473_lp_dnn_15_chair_10_n02791124_3890.png,n02791124_3890.png,0.0,-2.0874753,-0.18762973,-1.3433937
alexnet_w1_mlp_simclrhn_probe0,1,474,NaN,keyboard,elephant,7,0474_lp_dnn_7_elephant_10_n02504013_16929.png,n02504013_16929.png,0.0,-2.1513264,0.0010101199,-1.5219319
alexnet_w1_mlp_simclrhn_probe0,1,475,NaN,keyboard,elephant,7,0475_lp_dnn_7_elephant_10_n02504013_8052.png,n02504013_8052.png,0.0,-2.148148,0.028133571,-1.5388635
alexnet_w1_mlp_simclrhn_probe0,1,476,NaN,bear,bear,1,0476_lp_dnn_1_bear_10_n02132136_1584.png,n02132136_1584.png,1.0,0.18222496,-0.98860395,0.8279011
alexnet_w1_mlp_simclrhn_probe0,1,477,NaN,keyboard,keyboard,1,0477_lp_dnn_1_keyboard_10_n04505470_532.png,n04505470_532.png,1.0,4.045372,-0.8454022,3.4582996
alexnet_w1_mlp_simclrhn_probe0,1,478,NaN,airplane,airplane,1,0478_lp_dnn_1_airplane_10_n02690373_3988.png,n02690373_3988.png,1.0,6.828413,0.5408824,4.4459553
alexnet_w1_mlp_simclrhn_probe0,1,479,NaN,bird,bicycle,15,0479_lp_dnn_15_bicycle_10_n03792782_13051.png,n03792782_13051.png,0.0,-2.1069393,-0.17596199,-1.3654072
alexnet_w1_mlp_simclrhn_probe0,1,480,NaN,bottle,bear,3,0480_lp_dnn_3_bear_10_n02134084_4818.png,n02134084_4818.png,0.0,-1.2921766,-1.1403844,-0.10733327
alexnet_w1_mlp_simclrhn_probe0,1,481,NaN,keyboard,boat,10,0481_lp_dnn_10_boat_10_n02951358_9146.png,n02951358_9146.png,0.0,-2.0850012,0.040032998,-1.5026262
alexnet_w1_mlp_simclrhn_probe0,1,482,NaN,clock,keyboard,40,0482_lp_dnn_40_keyboard_10_n03085013_19317.png,n03085013_19317.png,0.0,-0.53899723,0.08913205,-0.4441545
alexnet_w1_mlp_simclrhn_probe0,1,483,NaN,clock,bicycle,40,0483_lp_dnn_40_bicycle_10_n03792782_17666.png,n03792782_17666.png,0.0,-1.0540191,-0.16364135,-0.6295922
alexnet_w1_mlp_simclrhn_probe0,1,484,NaN,clock,bear,40,0484_lp_dnn_40_bear_10_n02133161_20090.png,n02133161_20090.png,0.0,-1.2724801,0.0049829134,-0.90330285
alexnet_w1_mlp_simclrhn_probe0,1,485,NaN,keyboard,bottle,3,0485_lp_dnn_3_bottle_10_n03937543_11101.png,n03937543_11101.png,0.0,-1.4472783,-0.5707483,-0.61980027
alexnet_w1_mlp_simclrhn_probe0,1,486,NaN,keyboard,bear,7,0486_lp_dnn_7_bear_10_n02133161_2281.png,n02133161_2281.png,0.0,-1.4377323,-0.21535328,-0.8643526
alexnet_w1_mlp_simclrhn_probe0,1,487,NaN,clock,airplane,10,0487_lp_dnn_10_airplane_10_n02690373_8813.png,n02690373_8813.png,0.0,-1.2365942,-0.07605344,-0.8206263
alexnet_w1_mlp_simclrhn_probe0,1,488,NaN,clock,boat,40,0488_lp_dnn_40_boat_10_n03662601_33625.png,n03662601_33625.png,0.0,-0.520985,0.0269962,-0.38748124
alexnet_w1_mlp_simclrhn_probe0,1,489,NaN,clock,cat,40,0489_lp_dnn_40_cat_10_n02124075_9066.png,n02124075_9066.png,0.0,-0.686346,0.0052725575,-0.48904818
alexnet_w1_mlp_simclrhn_probe0,1,490,NaN,chair,oven,3,0490_lp_dnn_3_oven_10_n04111531_10216.png,n04111531_10216.png,0.0,-1.0216151,-0.75165236,-0.19089252
alexnet_w1_mlp_simclrhn_probe0,1,491,NaN,bird,bird,7,0491_lp_dnn_7_bird_10_n01614925_1097.png,n01614925_1097.png,1.0,-0.2458503,-0.31424978,0.048365742
alexnet_w1_mlp_simclrhn_probe0,1,492,NaN,bird,bird,0,0492_lp_dnn_0_bird_10_n02017213_1163.png,n02017213_1163.png,1.0,-0.9916741,-1.9163444,0.65384066
alexnet_w1_mlp_simclrhn_probe0,1,493,NaN,clock,oven,40,0493_lp_dnn_40_oven_10_n04111531_283.png,n04111531_283.png,0.0,-0.90295255,-0.008998697,-0.63212085
alexnet_w1_mlp_simclrhn_probe0,1,494,NaN,keyboard,truck,15,0494_lp_dnn_15_truck_10_n04467665_39317.png,n04467665_39317.png,0.0,-1.8695439,-0.13720007,-1.2249521
alexnet_w1_mlp_simclrhn_probe0,1,495,NaN,dog,dog,1,0495_lp_dnn_1_dog_10_n02093754_5037.png,n02093754_5037.png,1.0,-0.46817854,-1.6973323,0.86914295
alexnet_w1_mlp_simclrhn_probe0,1,496,NaN,clock,bicycle,40,0496_lp_dnn_40_bicycle_10_n02835271_2580.png,n02835271_2580.png,0.0,-1.6474662,-0.021827908,-1.1494999
alexnet_w1_mlp_simclrhn_probe0,1,497,NaN,keyboard,airplane,7,0497_lp_dnn_7_airplane_10_n02690373_2564.png,n02690373_2564.png,0.0,-1.2419621,-0.20111069,-0.7359931
alexnet_w1_mlp_simclrhn_probe0,1,498,NaN,clock,truck,40,0498_lp_dnn_40_truck_10_n04467665_62626.png,n04467665_62626.png,0.0,-1.4000987,-0.14997013,-0.8839744
alexnet_w1_mlp_simclrhn_probe0,1,499,NaN,keyboard,chair,10,0499_lp_dnn_10_chair_10_n04429376_2450.png,n04429376_2450.png,0.0,-1.5540156,0.03836271,-1.1259816
alexnet_w1_mlp_simclrhn_probe0,1,500,NaN,keyboard,keyboard,0,0500_lp_dnn_0_keyboard_10_n04505470_4044.png,n04505470_4044.png,1.0,10.337822,-1.1642035,8.133161
alexnet_w1_mlp_simclrhn_probe0,1,501,NaN,keyboard,oven,15,0501_lp_dnn_15_oven_10_n04111531_8269.png,n04111531_8269.png,0.0,-1.0676272,0.13203877,-0.848292
alexnet_w1_mlp_simclrhn_probe0,1,502,NaN,keyboard,clock,7,0502_lp_dnn_7_clock_10_n02708093_6890.png,n02708093_6890.png,0.0,-0.11962515,0.08213943,-0.14266911
alexnet_w1_mlp_simclrhn_probe0,1,503,NaN,clock,oven,40,0503_lp_dnn_40_oven_10_n04111531_15947.png,n04111531_15947.png,0.0,-1.1814553,0.05767871,-0.8762
alexnet_w1_mlp_simclrhn_probe0,1,504,NaN,keyboard,bicycle,15,0504_lp_dnn_15_bicycle_10_n03792782_24734.png,n03792782_24734.png,0.0,-2.1734488,-0.118994534,-1.4527186
alexnet_w1_mlp_simclrhn_probe0,1,505,NaN,clock,chair,40,0505_lp_dnn_40_chair_10_n04099969_10401.png,n04099969_10401.png,0.0,-1.1000042,-0.0608805,-0.7347714
alexnet_w1_mlp_simclrhn_probe0,1,506,NaN,elephant,elephant,3,0506_lp_dnn_3_elephant_10_n02504458_2994.png,n02504458_2994.png,1.0,-0.2213153,-1.0076607,0.5560302
alexnet_w1_mlp_simclrhn_probe0,1,507,NaN,elephant,dog,0,0507_lp_dnn_0_dog_10_n02108422_1164.png,n02108422_1164.png,0.0,-4.4351645,-3.352973,-0.76522493
alexnet_w1_mlp_simclrhn_probe0,1,508,NaN,clock,clock,5,0508_lp_dnn_5_clock_10_n04548280_2421.png,n04548280_2421.png,1.0,0.29632637,0.14177763,0.10928246
alexnet_w1_mlp_simclrhn_probe0,1,509,NaN,bird,oven,5,0509_lp_dnn_5_oven_10_n04111531_2930.png,n04111531_2930.png,0.0,-1.4803948,-0.3030163,-0.83253235
alexnet_w1_mlp_simclrhn_probe0,1,510,NaN,bear,bear,1,0510_lp_dnn_1_bear_10_n02132136_4271.png,n02132136_4271.png,1.0,0.75689054,-0.8640145,1.146153
alexnet_w1_mlp_simclrhn_probe0,1,511,NaN,keyboard,oven,7,0511_lp_dnn_7_oven_10_n04111531_8603.png,n04111531_8603.png,0.0,-1.5971781,-0.05791086,-1.0884264
alexnet_w1_mlp_simclrhn_probe0,1,512,NaN,clock,bicycle,40,0512_lp_dnn_40_bicycle_10_n02835271_16850.png,n02835271_16850.png,0.0,-1.9801614,0.027466327,-1.4196072
alexnet_w1_mlp_simclrhn_probe0,1,513,NaN,knife,knife,3,0513_lp_dnn_3_knife_10_n03041632_47410.png,n03041632_47410.png,1.0,-0.54307437,-1.4136186,0.61556774
alexnet_w1_mlp_simclrhn_probe0,1,514,NaN,bird,elephant,15,0514_lp_dnn_15_elephant_10_n02504458_1000.png,n02504458_1000.png,0.0,-2.1429896,-0.14882462,-1.4100877
alexnet_w1_mlp_simclrhn_probe0,1,515,NaN,cat,cat,1,0515_lp_dnn_1_cat_10_n02124075_8884.png,n02124075_8884.png,1.0,0.37713882,-3.7092783,2.8895333
alexnet_w1_mlp_simclrhn_probe0,1,516,NaN,keyboard,bird,7,0516_lp_dnn_7_bird_10_n01622779_1370.png,n01622779_1370.png,0.0,-0.1520739,0.0016171336,-0.10867598
alexnet_w1_mlp_simclrhn_probe0,1,517,NaN,cat,cat,0,0517_lp_dnn_0_cat_10_n02123045_8215.png,n02123045_8215.png,1.0,1.2613548,-6.291307,5.3405385
alexnet_w1_mlp_simclrhn_probe0,1,518,NaN,keyboard,car,5,0518_lp_dnn_5_car_10_n03100240_3083.png,n03100240_3083.png,0.0,-1.6530867,0.03167489,-1.1913064
alexnet_w1_mlp_simclrhn_probe0,1,519,NaN,bear,bicycle,3,0519_lp_dnn_3_bicycle_10_n03792782_9280.png,n03792782_9280.png,0.0,-1.3702972,-0.48773474,-0.62406594
alexnet_w1_mlp_simclrhn_probe0,1,520,NaN,keyboard,bird,5,0520_lp_dnn_5_bird_10_n01819313_3505.png,n01819313_3505.png,0.0,-0.92095876,-0.08028522,-0.594446
alexnet_w1_mlp_simclrhn_probe0,1,521,NaN,bird,bird,15,0521_lp_dnn_15_bird_10_n01531178_5130.png,n01531178_5130.png,1.0,-0.23288201,-0.29443547,0.043524873
alexnet_w1_mlp_simclrhn_probe0,1,522,NaN,clock,clock,15,0522_lp_dnn_15_clock_10_n02708093_2867.png,n02708093_2867.png,1.0,0.12152269,-0.15910526,0.19843392
alexnet_w1_mlp_simclrhn_probe0,1,523,NaN,keyboard,bear,7,0523_lp_dnn_7_bear_10_n02134418_258.png,n02134418_258.png,0.0,-2.7299082,0.54512537,-2.3157985
alexnet_w1_mlp_simclrhn_probe0,1,524,NaN,keyboard,bottle,1,0524_lp_dnn_1_bottle_10_n02823428_8280.png,n02823428_8280.png,0.0,-0.99368465,0.41045126,-0.9928741
alexnet_w1_mlp_simclrhn_probe0,1,525,NaN,keyboard,elephant,7,0525_lp_dnn_7_elephant_10_n02504013_24811.png,n02504013_24811.png,0.0,-2.6194763,0.02446261,-1.8695472
alexnet_w1_mlp_simclrhn_probe0,1,526,NaN,clock,bicycle,40,0526_lp_dnn_40_bicycle_10_n02835271_14499.png,n02835271_14499.png,0.0,-1.5191779,-0.016840125,-1.0623133
alexnet_w1_mlp_simclrhn_probe0,1,527,NaN,bottle,bottle,0,0527_lp_dnn_0_bottle_10_n02823428_14536.png,n02823428_14536.png,1.0,3.9196231,3.3763392,0.38415977
alexnet_w1_mlp_simclrhn_probe0,1,528,NaN,keyboard,knife,5,0528_lp_dnn_5_knife_10_n03041632_21723.png,n03041632_21723.png,0.0,-1.5198549,0.0413083,-1.1039091
alexnet_w1_mlp_simclrhn_probe0,1,529,NaN,keyboard,cat,10,0529_lp_dnn_10_cat_10_n02123159_8396.png,n02123159_8396.png,0.0,-1.3085457,-0.04404655,-0.89413595
alexnet_w1_mlp_simclrhn_probe0,1,530,NaN,clock,bottle,40,0530_lp_dnn_40_bottle_10_n02823428_3486.png,n02823428_3486.png,0.0,-0.2425913,-0.081224956,-0.114103235
alexnet_w1_mlp_simclrhn_probe0,1,531,NaN,elephant,bird,0,0531_lp_dnn_0_bird_10_n01514859_12705.png,n01514859_12705.png,0.0,-3.0694222,-1.2841702,-1.2623639
alexnet_w1_mlp_simclrhn_probe0,1,532,NaN,keyboard,dog,7,0532_lp_dnn_7_dog_10_n02097047_911.png,n02097047_911.png,0.0,-2.0412369,0.086357206,-1.5044361
alexnet_w1_mlp_simclrhn_probe0,1,533,NaN,keyboard,keyboard,10,0533_lp_dnn_10_keyboard_10_n04505470_3132.png,n04505470_3132.png,1.0,0.25797516,-0.07588967,0.2360781
alexnet_w1_mlp_simclrhn_probe0,1,534,NaN,airplane,airplane,1,0534_lp_dnn_1_airplane_10_n02690373_11908.png,n02690373_11908.png,1.0,1.3688091,-0.6357023,1.4174036
alexnet_w1_mlp_simclrhn_probe0,1,535,NaN,clock,elephant,40,0535_lp_dnn_40_elephant_10_n02504458_5169.png,n02504458_5169.png,0.0,-0.97678924,-0.10175029,-0.618746
alexnet_w1_mlp_simclrhn_probe0,1,536,NaN,clock,bottle,15,0536_lp_dnn_15_bottle_10_n03937543_5375.png,n03937543_5375.png,0.0,-0.30872655,0.05759706,-0.25902992
alexnet_w1_mlp_simclrhn_probe0,1,537,NaN,oven,bottle,1,0537_lp_dnn_1_bottle_10_n04591713_6138.png,n04591713_6138.png,0.0,-4.5035677,-2.748074,-1.2413214
alexnet_w1_mlp_simclrhn_probe0,1,538,NaN,clock,bottle,15,0538_lp_dnn_15_bottle_10_n04557648_12559.png,n04557648_12559.png,0.0,-0.1855129,-0.16919363,-0.01153947
alexnet_w1_mlp_simclrhn_probe0,1,539,NaN,clock,clock,40,0539_lp_dnn_40_clock_10_n03196217_3903.png,n03196217_3903.png,1.0,0.28897166,-0.05373158,0.2423278
alexnet_w1_mlp_simclrhn_probe0,1,540,NaN,clock,keyboard,15,0540_lp_dnn_15_keyboard_10_n04505470_4732.png,n04505470_4732.png,0.0,-0.15757523,-0.14075525,-0.011893525
alexnet_w1_mlp_simclrhn_probe0,1,541,NaN,clock,knife,40,0541_lp_dnn_40_knife_10_n03041632_8468.png,n03041632_8468.png,0.0,-0.5044587,-0.14562005,-0.25373727
alexnet_w1_mlp_simclrhn_probe0,1,542,NaN,oven,chair,3,0542_lp_dnn_3_chair_10_n02791124_14040.png,n02791124_14040.png,0.0,-0.64597136,-0.3277899,-0.22498827
alexnet_w1_mlp_simclrhn_probe0,1,543,NaN,knife,boat,15,0543_lp_dnn_15_boat_10_n04273569_3095.png,n04273569_3095.png,0.0,-0.9537903,-0.034181558,-0.6502616
alexnet_w1_mlp_simclrhn_probe0,1,544,NaN,bird,bird,1,0544_lp_dnn_1_bird_10_n02002724_18548.png,n02002724_18548.png,1.0,-0.39919582,-2.9073842,1.773557
alexnet_w1_mlp_simclrhn_probe0,1,545,NaN,bird,oven,10,0545_lp_dnn_10_oven_10_n04111531_8537.png,n04111531_8537.png,0.0,-1.2967008,-0.17581671,-0.79258484
alexnet_w1_mlp_simclrhn_probe0,1,546,NaN,clock,chair,40,0546_lp_dnn_40_chair_10_n02791124_1935.png,n02791124_1935.png,0.0,-1.0111008,-0.024409702,-0.697696
alexnet_w1_mlp_simclrhn_probe0,1,547,NaN,keyboard,dog,5,0547_lp_dnn_5_dog_10_n02102040_1660.png,n02102040_1660.png,0.0,-1.8232933,-0.5477252,-0.9019629
alexnet_w1_mlp_simclrhn_probe0,1,548,NaN,elephant,bear,0,0548_lp_dnn_0_bear_10_n02134084_7790.png,n02134084_7790.png,0.0,-0.37802225,1.9260912,-1.6292542
alexnet_w1_mlp_simclrhn_probe0,1,549,NaN,keyboard,knife,10,0549_lp_dnn_10_knife_10_n03041632_17091.png,n03041632_17091.png,0.0,-0.9314804,0.2730723,-0.85174733
alexnet_w1_mlp_simclrhn_probe0,1,550,NaN,clock,keyboard,5,0550_lp_dnn_5_keyboard_10_n04505470_9331.png,n04505470_9331.png,0.0,-0.1672937,-0.052754283,-0.080991596
alexnet_w1_mlp_simclrhn_probe0,1,551,NaN,keyboard,airplane,5,0551_lp_dnn_5_airplane_10_n02690373_6887.png,n02690373_6887.png,0.0,-0.719105,-0.18020172,-0.38106218
alexnet_w1_mlp_simclrhn_probe0,1,552,NaN,oven,chair,1,0552_lp_dnn_1_chair_10_n02791124_2540.png,n02791124_2540.png,0.0,-2.6035872,-0.43640712,-1.5324278
alexnet_w1_mlp_simclrhn_probe0,1,553,NaN,truck,truck,3,0553_lp_dnn_3_truck_10_n03796401_23774.png,n03796401_23774.png,1.0,-1.042638,-1.2125282,0.120130576
alexnet_w1_mlp_simclrhn_probe0,1,554,NaN,bottle,knife,40,0554_lp_dnn_40_knife_10_n03041632_28201.png,n03041632_28201.png,0.0,-0.3995602,-0.12972263,-0.19080399
alexnet_w1_mlp_simclrhn_probe0,1,555,NaN,keyboard,clock,5,0555_lp_dnn_5_clock_10_n04548280_3563.png,n04548280_3563.png,0.0,-0.27447018,-0.1228265,-0.10722827
alexnet_w1_mlp_simclrhn_probe0,1,556,NaN,bicycle,bicycle,0,0556_lp_dnn_0_bicycle_10_n03792782_8287.png,n03792782_8287.png,1.0,5.7641053,-4.814977,7.480541
alexnet_w1_mlp_simclrhn_probe0,1,557,NaN,clock,clock,3,0557_lp_dnn_3_clock_10_n04548280_4225.png,n04548280_4225.png,1.0,0.59761316,-0.068477914,0.47099754
alexnet_w1_mlp_simclrhn_probe0,1,558,NaN,car,car,0,0558_lp_dnn_0_car_10_n04285008_11931.png,n04285008_11931.png,1.0,8.966132,1.6727803,5.157179
alexnet_w1_mlp_simclrhn_probe0,1,559,NaN,keyboard,elephant,5,0559_lp_dnn_5_elephant_10_n02504013_9396.png,n02504013_9396.png,0.0,-2.5238998,-0.042802766,-1.7544005
alexnet_w1_mlp_simclrhn_probe0,1,560,NaN,clock,boat,40,0560_lp_dnn_40_boat_10_n03344393_2915.png,n03344393_2915.png,0.0,-0.9243563,-0.024563178,-0.6362498
alexnet_w1_mlp_simclrhn_probe0,1,561,NaN,keyboard,bicycle,7,0561_lp_dnn_7_bicycle_10_n03792782_9692.png,n03792782_9692.png,0.0,-2.6482184,0.12736225,-1.962632
alexnet_w1_mlp_simclrhn_probe0,1,562,NaN,keyboard,chair,7,0562_lp_dnn_7_chair_10_n02791124_57.png,n02791124_57.png,0.0,-2.2223103,0.21352163,-1.7223934
alexnet_w1_mlp_simclrhn_probe0,1,563,NaN,clock,car,40,0563_lp_dnn_40_car_10_n04285008_3185.png,n04285008_3185.png,0.0,-1.1370931,0.002731974,-0.805978
alexnet_w1_mlp_simclrhn_probe0,1,564,NaN,bicycle,boat,1,0564_lp_dnn_1_boat_10_n02951358_34917.png,n02951358_34917.png,0.0,-0.6708391,-0.054901026,-0.435534
alexnet_w1_mlp_simclrhn_probe0,1,565,NaN,clock,clock,0,0565_lp_dnn_0_clock_10_n02708093_2762.png,n02708093_2762.png,1.0,5.1128783,-1.7846482,4.877288
alexnet_w1_mlp_simclrhn_probe0,1,566,NaN,keyboard,knife,5,0566_lp_dnn_5_knife_10_n03041632_4879.png,n03041632_4879.png,0.0,-0.052834727,-0.02889672,-0.016926728
alexnet_w1_mlp_simclrhn_probe0,1,567,NaN,car,car,0,0567_lp_dnn_0_car_10_n02814533_4689.png,n02814533_4689.png,1.0,5.2808805,2.714309,1.8148401
alexnet_w1_mlp_simclrhn_probe0,1,568,NaN,boat,boat,1,0568_lp_dnn_1_boat_10_n02951358_2445.png,n02951358_2445.png,1.0,0.541952,-2.1035554,1.8706563
alexnet_w1_mlp_simclrhn_probe0,1,569,NaN,clock,truck,40,0569_lp_dnn_40_truck_10_n03417042_10038.png,n03417042_10038.png,0.0,-1.3514326,-0.012374253,-0.9468572
alexnet_w1_mlp_simclrhn_probe0,1,570,NaN,keyboard,car,10,0570_lp_dnn_10_car_10_n02814533_32924.png,n02814533_32924.png,0.0,-2.122274,0.093415335,-1.5667288
alexnet_w1_mlp_simclrhn_probe0,1,571,NaN,keyboard,bottle,10,0571_lp_dnn_10_bottle_10_n02823428_5135.png,n02823428_5135.png,0.0,-0.4469225,-0.25478148,-0.13586423
alexnet_w1_mlp_simclrhn_probe0,1,572,NaN,oven,keyboard,1,0572_lp_dnn_1_keyboard_10_n03085013_9066.png,n03085013_9066.png,0.0,-0.53481007,-0.32649142,-0.14730354
alexnet_w1_mlp_simclrhn_probe0,1,573,NaN,keyboard,oven,10,0573_lp_dnn_10_oven_10_n04111531_11279.png,n04111531_11279.png,0.0,-1.3031876,-0.039054766,-0.8938769
alexnet_w1_mlp_simclrhn_probe0,1,574,NaN,keyboard,car,10,0574_lp_dnn_10_car_10_n04285008_12182.png,n04285008_12182.png,0.0,-2.1014974,0.12234421,-1.5724936
alexnet_w1_mlp_simclrhn_probe0,1,575,NaN,bear,bear,0,0575_lp_dnn_0_bear_10_n02133161_5681.png,n02133161_5681.png,1.0,0.29363793,-2.928514,2.2784057
alexnet_w1_mlp_simclrhn_probe0,1,576,NaN,keyboard,dog,5,0576_lp_dnn_5_dog_10_n02108915_5514.png,n02108915_5514.png,0.0,-1.5922962,-0.5066263,-0.76768464
alexnet_w1_mlp_simclrhn_probe0,1,577,NaN,keyboard,airplane,15,0577_lp_dnn_15_airplane_10_n02690373_7239.png,n02690373_7239.png,0.0,-0.74711263,-0.11952023,-0.44377485
alexnet_w1_mlp_simclrhn_probe0,1,578,NaN,dog,dog,0,0578_lp_dnn_0_dog_10_n02094258_4979.png,n02094258_4979.png,1.0,0.09480601,-1.2135619,0.9251558
alexnet_w1_mlp_simclrhn_probe0,1,579,NaN,oven,chair,3,0579_lp_dnn_3_chair_10_n04429376_15078.png,n04429376_15078.png,0.0,-0.9128306,-0.25621676,-0.4642961
alexnet_w1_mlp_simclrhn_probe0,1,580,NaN,clock,clock,40,0580_lp_dnn_40_clock_10_n02708093_8276.png,n02708093_8276.png,1.0,0.20579167,-0.08793318,0.20769483
alexnet_w1_mlp_simclrhn_probe0,1,581,NaN,keyboard,keyboard,3,0581_lp_dnn_3_keyboard_10_n04505470_3947.png,n04505470_3947.png,1.0,1.2758433,0.44623366,0.5866226
alexnet_w1_mlp_simclrhn_probe0,1,582,NaN,keyboard,car,15,0582_lp_dnn_15_car_10_n03100240_2996.png,n03100240_2996.png,0.0,-1.5377822,-0.15552762,-0.9774016
alexnet_w1_mlp_simclrhn_probe0,1,583,NaN,keyboard,cat,10,0583_lp_dnn_10_cat_10_n02123159_3226.png,n02123159_3226.png,0.0,-1.504408,-0.071195215,-1.0134345
alexnet_w1_mlp_simclrhn_probe0,1,584,NaN,keyboard,truck,7,0584_lp_dnn_7_truck_10_n03417042_19905.png,n03417042_19905.png,0.0,-2.128985,0.039005503,-1.5330008
alexnet_w1_mlp_simclrhn_probe0,1,585,NaN,elephant,bird,0,0585_lp_dnn_0_bird_10_n02009229_4838.png,n02009229_4838.png,0.0,-1.8391808,-0.4698568,-0.96825826
alexnet_w1_mlp_simclrhn_probe0,1,586,NaN,oven,oven,1,0586_lp_dnn_1_oven_10_n04111531_14383.png,n04111531_14383.png,1.0,-0.0672139,-1.8850186,1.285382
alexnet_w1_mlp_simclrhn_probe0,1,587,NaN,bird,bear,5,0587_lp_dnn_5_bear_10_n02132136_1152.png,n02132136_1152.png,0.0,-1.44526,-0.28729162,-0.8188073
alexnet_w1_mlp_simclrhn_probe0,1,588,NaN,cat,cat,0,0588_lp_dnn_0_cat_10_n02123597_10952.png,n02123597_10952.png,1.0,-3.3974836,-5.0057507,1.1372166
alexnet_w1_mlp_simclrhn_probe0,1,589,NaN,boat,boat,0,0589_lp_dnn_0_boat_10_n04273569_12318.png,n04273569_12318.png,1.0,3.421741,2.4692445,0.67351675
alexnet_w1_mlp_simclrhn_probe0,1,590,NaN,clock,bottle,40,0590_lp_dnn_40_bottle_10_n03937543_1391.png,n03937543_1391.png,0.0,-0.21686782,-0.025610542,-0.13523932
alexnet_w1_mlp_simclrhn_probe0,1,591,NaN,keyboard,dog,10,0591_lp_dnn_10_dog_10_n02091032_9464.png,n02091032_9464.png,0.0,-1.3141818,-0.124712646,-0.8410817
alexnet_w1_mlp_simclrhn_probe0,1,592,NaN,keyboard,oven,7,0592_lp_dnn_7_oven_10_n04111531_5218.png,n04111531_5218.png,0.0,-2.1280727,0.48188385,-1.845518
alexnet_w1_mlp_simclrhn_probe0,1,593,NaN,keyboard,airplane,5,0593_lp_dnn_5_airplane_10_n02690373_9423.png,n02690373_9423.png,0.0,-1.5901341,0.31572646,-1.3476471
alexnet_w1_mlp_simclrhn_probe0,1,594,NaN,elephant,bird,1,0594_lp_dnn_1_bird_10_n01860187_348.png,n01860187_348.png,0.0,-3.8672473,-1.6076955,-1.5977446
alexnet_w1_mlp_simclrhn_probe0,1,595,NaN,clock,bird,40,0595_lp_dnn_40_bird_10_n02006656_8975.png,n02006656_8975.png,0.0,-1.0790793,-0.02519851,-0.7452063
alexnet_w1_mlp_simclrhn_probe0,1,596,NaN,keyboard,oven,10,0596_lp_dnn_10_oven_10_n04111531_7619.png,n04111531_7619.png,0.0,-2.088419,0.34198475,-1.718555
alexnet_w1_mlp_simclrhn_probe0,1,597,NaN,keyboard,bicycle,3,0597_lp_dnn_3_bicycle_10_n02835271_9202.png,n02835271_9202.png,0.0,-1.8445551,-0.882058,-0.68058825
alexnet_w1_mlp_simclrhn_probe0,1,598,NaN,clock,boat,10,0598_lp_dnn_10_boat_10_n03344393_7826.png,n03344393_7826.png,0.0,-2.1857934,-0.14903504,-1.4402057
alexnet_w1_mlp_simclrhn_probe0,1,599,NaN,elephant,elephant,3,0599_lp_dnn_3_elephant_10_n02504013_10330.png,n02504013_10330.png,1.0,-0.439774,-1.4367048,0.7049365
alexnet_w1_mlp_simclrhn_probe0,1,600,NaN,keyboard,truck,10,0600_lp_dnn_10_truck_10_n04467665_69202.png,n04467665_69202.png,0.0,-2.1542823,0.045905232,-1.5557677
alexnet_w1_mlp_simclrhn_probe0,1,601,NaN,keyboard,keyboard,7,0601_lp_dnn_7_keyboard_10_n04505470_1120.png,n04505470_1120.png,1.0,0.5769096,-0.45059454,0.7265552
alexnet_w1_mlp_simclrhn_probe0,1,602,NaN,keyboard,car,5,0602_lp_dnn_5_car_10_n04285008_434.png,n04285008_434.png,0.0,-1.9844393,-0.053911775,-1.365089
alexnet_w1_mlp_simclrhn_probe0,1,603,NaN,bear,cat,1,0603_lp_dnn_1_cat_10_n02123597_7592.png,n02123597_7592.png,0.0,-2.528724,-1.2575148,-0.8988806
alexnet_w1_mlp_simclrhn_probe0,1,604,NaN,clock,dog,15,0604_lp_dnn_15_dog_10_n02090721_583.png,n02090721_583.png,0.0,-1.7267945,-0.18660246,-1.0890802
alexnet_w1_mlp_simclrhn_probe0,1,605,NaN,oven,knife,1,0605_lp_dnn_1_knife_10_n03041632_86783.png,n03041632_86783.png,0.0,-4.1313276,-2.6544702,-1.0442959
alexnet_w1_mlp_simclrhn_probe0,1,606,NaN,keyboard,dog,10,0606_lp_dnn_10_dog_10_n02112018_11708.png,n02112018_11708.png,0.0,-1.7197596,-0.066695794,-1.1688926
alexnet_w1_mlp_simclrhn_probe0,1,607,NaN,elephant,bird,0,0607_lp_dnn_0_bird_10_n02018795_5662.png,n02018795_5662.png,0.0,-3.1136324,-0.6909446,-1.713099
alexnet_w1_mlp_simclrhn_probe0,1,608,NaN,bird,elephant,5,0608_lp_dnn_5_elephant_10_n02504013_1088.png,n02504013_1088.png,0.0,-1.498748,-0.21958376,-0.90450567
alexnet_w1_mlp_simclrhn_probe0,1,609,NaN,keyboard,elephant,5,0609_lp_dnn_5_elephant_10_n02504458_66.png,n02504458_66.png,0.0,-1.6965251,-0.1691454,-1.0800205
alexnet_w1_mlp_simclrhn_probe0,1,610,NaN,keyboard,dog,10,0610_lp_dnn_10_dog_10_n02105056_9099.png,n02105056_9099.png,0.0,-1.7468889,0.03539659,-1.2602662
alexnet_w1_mlp_simclrhn_probe0,1,611,NaN,keyboard,boat,10,0611_lp_dnn_10_boat_10_n04273569_19699.png,n04273569_19699.png,0.0,-2.5429816,0.17673212,-1.923128
alexnet_w1_mlp_simclrhn_probe0,1,612,NaN,dog,dog,1,0612_lp_dnn_1_dog_10_n02097047_2376.png,n02097047_2376.png,1.0,-0.5334218,-1.4252353,0.63060737
alexnet_w1_mlp_simclrhn_probe0,1,613,NaN,boat,boat,1,0613_lp_dnn_1_boat_10_n03662601_11901.png,n03662601_11901.png,1.0,-0.24511845,-1.3567662,0.78605366
alexnet_w1_mlp_simclrhn_probe0,1,614,NaN,oven,oven,1,0614_lp_dnn_1_oven_10_n04111531_7667.png,n04111531_7667.png,1.0,-0.8538209,-1.0129471,0.11251919
alexnet_w1_mlp_simclrhn_probe0,1,615,NaN,clock,knife,10,0615_lp_dnn_10_knife_10_n03041632_24384.png,n03041632_24384.png,0.0,-0.7290672,-0.17444992,-0.39217365
alexnet_w1_mlp_simclrhn_probe0,1,616,NaN,keyboard,car,7,0616_lp_dnn_7_car_10_n03100240_1216.png,n03100240_1216.png,0.0,-2.097581,0.12497005,-1.5715808
alexnet_w1_mlp_simclrhn_probe0,1,617,NaN,bicycle,bicycle,0,0617_lp_dnn_0_bicycle_10_n03792782_3136.png,n03792782_3136.png,1.0,-1.0342892,-2.2008858,0.8249083
alexnet_w1_mlp_simclrhn_probe0,1,618,NaN,keyboard,keyboard,5,0618_lp_dnn_5_keyboard_10_n03085013_26573.png,n03085013_26573.png,1.0,0.14695318,-0.5263731,0.47611356
alexnet_w1_mlp_simclrhn_probe0,1,619,NaN,truck,chair,0,0619_lp_dnn_0_chair_10_n04429376_7888.png,n04429376_7888.png,0.0,-4.225692,-0.6833552,-2.50481
alexnet_w1_mlp_simclrhn_probe0,1,620,NaN,keyboard,chair,5,0620_lp_dnn_5_chair_10_n03376595_899.png,n03376595_899.png,0.0,-1.4635985,-0.2182738,-0.88057756
alexnet_w1_mlp_simclrhn_probe0,1,621,NaN,keyboard,bicycle,5,0621_lp_dnn_5_bicycle_10_n02835271_24207.png,n02835271_24207.png,0.0,-2.30966,0.15364926,-1.7418227
alexnet_w1_mlp_simclrhn_probe0,1,622,NaN,oven,oven,3,0622_lp_dnn_3_oven_10_n04111531_7329.png,n04111531_7329.png,1.0,0.84410834,0.14806712,0.4921755
alexnet_w1_mlp_simclrhn_probe0,1,623,NaN,keyboard,oven,5,0623_lp_dnn_5_oven_10_n04111531_12942.png,n04111531_12942.png,0.0,-1.4402087,-0.3229601,-0.790014
alexnet_w1_mlp_simclrhn_probe0,1,624,NaN,clock,bear,15,0624_lp_dnn_15_bear_10_n02134418_1978.png,n02134418_1978.png,0.0,-1.6489213,-0.09193047,-1.1009587
alexnet_w1_mlp_simclrhn_probe0,1,625,NaN,clock,cat,40,0625_lp_dnn_40_cat_10_n02123159_5872.png,n02123159_5872.png,0.0,-0.98311615,-0.07541682,-0.6418404
alexnet_w1_mlp_simclrhn_probe0,1,626,NaN,clock,keyboard,15,0626_lp_dnn_15_keyboard_10_n03085013_18797.png,n03085013_18797.png,0.0,-0.30565915,-0.09495461,-0.1489906
alexnet_w1_mlp_simclrhn_probe0,1,627,NaN,clock,airplane,15,0627_lp_dnn_15_airplane_10_n02690373_5496.png,n02690373_5496.png,0.0,-0.61812705,-0.17730494,-0.31170833
alexnet_w1_mlp_simclrhn_probe0,1,628,NaN,clock,oven,15,0628_lp_dnn_15_oven_10_n04111531_21963.png,n04111531_21963.png,0.0,-1.5120175,0.011948724,-1.0776068
alexnet_w1_mlp_simclrhn_probe0,1,629,NaN,bottle,bottle,0,0629_lp_dnn_0_bottle_10_n02823428_2918.png,n02823428_2918.png,1.0,5.3162627,-6.1174083,8.084826
alexnet_w1_mlp_simclrhn_probe0,1,630,NaN,keyboard,keyboard,10,0630_lp_dnn_10_keyboard_10_n04505470_9570.png,n04505470_9570.png,1.0,0.09424107,-0.3400596,0.30709696
alexnet_w1_mlp_simclrhn_probe0,1,631,NaN,bird,bird,1,0631_lp_dnn_1_bird_10_n02002556_5977.png,n02002556_5977.png,1.0,-0.6950135,-3.761018,2.1679926
alexnet_w1_mlp_simclrhn_probe0,1,632,NaN,clock,airplane,40,0632_lp_dnn_40_airplane_10_n02690373_5961.png,n02690373_5961.png,0.0,-0.4860659,-0.07396447,-0.29139972
alexnet_w1_mlp_simclrhn_probe0,1,633,NaN,clock,clock,3,0633_lp_dnn_3_clock_10_n04548280_5765.png,n04548280_5765.png,1.0,0.047475036,-0.59423846,0.45375997
alexnet_w1_mlp_simclrhn_probe0,1,634,NaN,clock,cat,15,0634_lp_dnn_15_cat_10_n02123597_11940.png,n02123597_11940.png,0.0,-1.2293533,-0.15728377,-0.75806767
alexnet_w1_mlp_simclrhn_probe0,1,635,NaN,airplane,airplane,3,0635_lp_dnn_3_airplane_10_n02690373_3993.png,n02690373_3993.png,1.0,0.33934608,-0.6981537,0.73362315
alexnet_w1_mlp_simclrhn_probe0,1,636,NaN,keyboard,chair,7,0636_lp_dnn_7_chair_10_n04099969_3984.png,n04099969_3984.png,0.0,-1.9876732,-0.120495155,-1.3202943
