subj,session,trial,rt,object_response,category,condition,imagename,filename,is_correct,targ_act,max_nontarg_act,decision_margin
alexnet,1,1,NaN,knife,chair,40,0001_lp_dnn_40_chair_10_n04099969_7577.png,n04099969_7577.png,0.0,-0.043306068,3.553971,-2.5436592
alexnet,1,2,NaN,knife,cat,40,0002_lp_dnn_40_cat_10_n02124075_12815.png,n02124075_12815.png,0.0,0.12026334,4.2027497,-2.8867538
alexnet,1,3,NaN,bear,truck,5,0003_lp_dnn_5_truck_10_n04467665_34253.png,n04467665_34253.png,0.0,1.4939605,3.92233,-1.7171166
alexnet,1,4,NaN,clock,clock,1,0004_lp_dnn_1_clock_10_n04548280_5320.png,n04548280_5320.png,1.0,6.192042,3.6812043,1.7754303
alexnet,1,5,NaN,elephant,dog,3,0005_lp_dnn_3_dog_10_n02108915_3652.png,n02108915_3652.png,0.0,2.5152688,2.9950013,-0.33922213
alexnet,1,6,NaN,keyboard,keyboard,7,0006_lp_dnn_7_keyboard_10_n04505470_578.png,n04505470_578.png,1.0,3.8580737,1.7991804,1.4558574
alexnet,1,7,NaN,cat,cat,7,0007_lp_dnn_7_cat_10_n02123597_3842.png,n02123597_3842.png,1.0,3.2130432,1.7203553,1.0554898
alexnet,1,8,NaN,bear,bear,1,0008_lp_dnn_1_bear_10_n02134418_14.png,n02134418_14.png,1.0,10.594489,4.413066,4.3709264
alexnet,1,9,NaN,dog,knife,10,0009_lp_dnn_10_knife_10_n03041632_29920.png,n03041632_29920.png,0.0,0.8516449,2.0647018,-0.8577608
alexnet,1,10,NaN,knife,bird,5,0010_lp_dnn_5_bird_10_n01795545_952.png,n01795545_952.png,0.0,-1.2049676,3.3159404,-3.1967647
alexnet,1,11,NaN,cat,bear,3,0011_lp_dnn_3_bear_10_n02132136_6441.png,n02132136_6441.png,0.0,3.3423014,3.710186,-0.2601337
alexnet,1,12,NaN,elephant,bird,3,0012_lp_dnn_3_bird_10_n01829413_8792.png,n01829413_8792.png,0.0,-1.1041536,4.461038,-3.935185
alexnet,1,13,NaN,keyboard,keyboard,7,0013_lp_dnn_7_keyboard_10_n04505470_4458.png,n04505470_4458.png,1.0,6.23968,2.7953146,2.435534
alexnet,1,14,NaN,cat,chair,10,0014_lp_dnn_10_chair_10_n03376595_9176.png,n03376595_9176.png,0.0,-1.5338285,2.2959778,-2.708082
alexnet,1,15,NaN,knife,clock,40,0015_lp_dnn_40_clock_10_n04548280_7662.png,n04548280_7662.png,0.0,2.0006297,3.154626,-0.81599855
alexnet,1,16,NaN,knife,keyboard,40,0016_lp_dnn_40_keyboard_10_n03085013_25809.png,n03085013_25809.png,0.0,-0.20921642,3.3717675,-2.532138
alexnet,1,17,NaN,elephant,oven,5,0017_lp_dnn_5_oven_10_n04111531_1580.png,n04111531_1580.png,0.0,2.2154512,2.3617244,-0.103430726
alexnet,1,18,NaN,elephant,elephant,1,0018_lp_dnn_1_elephant_10_n02504458_900.png,n02504458_900.png,1.0,7.2489843,2.0369382,3.6854732
alexnet,1,19,NaN,knife,dog,7,0019_lp_dnn_7_dog_10_n02106662_2384.png,n02106662_2384.png,0.0,1.6398371,3.4545388,-1.2831879
alexnet,1,20,NaN,knife,truck,10,0020_lp_dnn_10_truck_10_n03796401_22618.png,n03796401_22618.png,0.0,-1.8801581,4.464221,-4.4861536
alexnet,1,21,NaN,knife,elephant,15,0021_lp_dnn_15_elephant_10_n02504013_5463.png,n02504013_5463.png,0.0,0.29311478,3.8959737,-2.547606
alexnet,1,22,NaN,knife,chair,10,0022_lp_dnn_10_chair_10_n04429376_16459.png,n04429376_16459.png,0.0,-0.53002036,4.0262575,-3.221775
alexnet,1,23,NaN,cat,cat,1,0023_lp_dnn_1_cat_10_n02123045_12206.png,n02123045_12206.png,1.0,4.737051,2.1971514,1.7959802
alexnet,1,24,NaN,knife,truck,7,0024_lp_dnn_7_truck_10_n03417042_2633.png,n03417042_2633.png,0.0,-0.481588,3.0371027,-2.48809
alexnet,1,25,NaN,knife,keyboard,15,0025_lp_dnn_15_keyboard_10_n03085013_24416.png,n03085013_24416.png,0.0,0.77743596,4.3513317,-2.5271258
alexnet,1,26,NaN,knife,car,7,0026_lp_dnn_7_car_10_n02814533_44503.png,n02814533_44503.png,0.0,-0.28012145,3.4944892,-2.6690528
alexnet,1,27,NaN,cat,elephant,5,0027_lp_dnn_5_elephant_10_n02504458_5797.png,n02504458_5797.png,0.0,2.9417582,3.3194044,-0.2670362
alexnet,1,28,NaN,chair,chair,0,0028_lp_dnn_0_chair_10_n04429376_8237.png,n04429376_8237.png,1.0,6.043384,5.426969,0.43587124
alexnet,1,29,NaN,oven,cat,7,0029_lp_dnn_7_cat_10_n02123159_587.png,n02123159_587.png,0.0,1.9398755,2.1712081,-0.1635769
alexnet,1,30,NaN,knife,bird,10,0030_lp_dnn_10_bird_10_n02028035_17238.png,n02028035_17238.png,0.0,-0.6065001,4.3510337,-3.5055058
alexnet,1,31,NaN,knife,cat,40,0031_lp_dnn_40_cat_10_n02123159_4348.png,n02123159_4348.png,0.0,-0.16856052,4.5349183,-3.325862
alexnet,1,32,NaN,knife,boat,5,0032_lp_dnn_5_boat_10_n04273569_22332.png,n04273569_22332.png,0.0,1.4275688,4.6616945,-2.2868721
alexnet,1,33,NaN,elephant,elephant,1,0033_lp_dnn_1_elephant_10_n02504013_1244.png,n02504013_1244.png,1.0,11.741844,4.1204305,5.3891535
alexnet,1,34,NaN,oven,bicycle,7,0034_lp_dnn_7_bicycle_10_n03792782_30229.png,n03792782_30229.png,0.0,-0.80501366,2.830766,-2.5708845
alexnet,1,35,NaN,knife,keyboard,10,0035_lp_dnn_10_keyboard_10_n03085013_7573.png,n03085013_7573.png,0.0,0.22218278,2.2048626,-1.4019663
alexnet,1,36,NaN,keyboard,keyboard,3,0036_lp_dnn_3_keyboard_10_n03085013_24578.png,n03085013_24578.png,1.0,7.6736283,6.6957345,0.6914754
alexnet,1,37,NaN,knife,truck,15,0037_lp_dnn_15_truck_10_n03417042_1336.png,n03417042_1336.png,0.0,-2.0520668,2.2866728,-3.0679522
alexnet,1,38,NaN,keyboard,knife,3,0038_lp_dnn_3_knife_10_n03041632_7495.png,n03041632_7495.png,0.0,5.460377,5.731595,-0.19177997
alexnet,1,39,NaN,car,car,0,0039_lp_dnn_0_car_10_n03100240_9625.png,n03100240_9625.png,1.0,6.4573503,4.141712,1.6374034
alexnet,1,40,NaN,knife,elephant,10,0040_lp_dnn_10_elephant_10_n02504458_6107.png,n02504458_6107.png,0.0,1.208415,2.7574673,-1.0953454
alexnet,1,41,NaN,bicycle,bicycle,0,0041_lp_dnn_0_bicycle_10_n03792782_33649.png,n03792782_33649.png,1.0,11.703269,2.6689475,6.3882303
alexnet,1,42,NaN,clock,clock,1,0042_lp_dnn_1_clock_10_n03196217_8282.png,n03196217_8282.png,1.0,9.753558,7.1160884,1.8649728
alexnet,1,43,NaN,keyboard,keyboard,7,0043_lp_dnn_7_keyboard_10_n03085013_21534.png,n03085013_21534.png,1.0,2.3659787,2.3288221,0.026273672
alexnet,1,44,NaN,knife,elephant,15,0044_lp_dnn_15_elephant_10_n02504013_22813.png,n02504013_22813.png,0.0,0.93704545,1.9387958,-0.70834446
alexnet,1,45,NaN,bear,truck,10,0045_lp_dnn_10_truck_10_n03796401_16425.png,n03796401_16425.png,0.0,-1.4516969,2.8870926,-3.0679874
alexnet,1,46,NaN,knife,airplane,15,0046_lp_dnn_15_airplane_10_n02690373_9427.png,n02690373_9427.png,0.0,0.52717924,4.7852917,-3.0109403
alexnet,1,47,NaN,knife,bird,7,0047_lp_dnn_7_bird_10_n02009912_11907.png,n02009912_11907.png,0.0,-1.5270305,4.622927,-4.3486767
alexnet,1,48,NaN,airplane,airplane,1,0048_lp_dnn_1_airplane_10_n02690373_5773.png,n02690373_5773.png,1.0,17.206242,4.8923464,8.707239
alexnet,1,49,NaN,knife,chair,40,0049_lp_dnn_40_chair_10_n02791124_2972.png,n02791124_2972.png,0.0,1.0070177,4.889589,-2.7453926
alexnet,1,50,NaN,bear,bird,1,0050_lp_dnn_1_bird_10_n01819313_18188.png,n01819313_18188.png,0.0,2.2190807,3.0907204,-0.61634237
alexnet,1,51,NaN,keyboard,car,5,0051_lp_dnn_5_car_10_n04285008_7428.png,n04285008_7428.png,0.0,0.2967194,4.277833,-2.8150725
alexnet,1,52,NaN,keyboard,bottle,7,0052_lp_dnn_7_bottle_10_n04591713_6923.png,n04591713_6923.png,0.0,1.0296232,2.0258322,-0.70442617
alexnet,1,53,NaN,chair,knife,0,0053_lp_dnn_0_knife_10_n03041632_22570.png,n03041632_22570.png,0.0,4.416214,4.4332027,-0.0120128635
alexnet,1,54,NaN,bear,bear,0,0054_lp_dnn_0_bear_10_n02132136_7586.png,n02132136_7586.png,1.0,8.2999325,7.021367,0.9040823
alexnet,1,55,NaN,knife,clock,5,0055_lp_dnn_5_clock_10_n04548280_9144.png,n04548280_9144.png,0.0,3.751026,4.1365166,-0.27258307
alexnet,1,56,NaN,chair,bottle,0,0056_lp_dnn_0_bottle_10_n04591713_2680.png,n04591713_2680.png,0.0,3.4133296,4.761425,-0.9532474
alexnet,1,57,NaN,keyboard,cat,3,0057_lp_dnn_3_cat_10_n02123045_1596.png,n02123045_1596.png,0.0,1.5054709,3.7453723,-1.5838495
alexnet,1,58,NaN,knife,cat,10,0058_lp_dnn_10_cat_10_n02123597_19450.png,n02123597_19450.png,0.0,2.1540987,2.6355042,-0.3404051
alexnet,1,59,NaN,knife,chair,15,0059_lp_dnn_15_chair_10_n03376595_3462.png,n03376595_3462.png,0.0,0.9082377,5.6213627,-3.3326828
alexnet,1,60,NaN,keyboard,bottle,3,0060_lp_dnn_3_bottle_10_n04591713_3683.png,n04591713_3683.png,0.0,1.4414933,4.6426735,-2.2635763
alexnet,1,61,NaN,knife,clock,7,0061_lp_dnn_7_clock_10_n03196217_4309.png,n03196217_4309.png,0.0,5.045668,6.010191,-0.68202066
alexnet,1,62,NaN,knife,bear,15,0062_lp_dnn_15_bear_10_n02134084_4923.png,n02134084_4923.png,0.0,0.8239888,3.484513,-1.8812748
alexnet,1,63,NaN,bottle,chair,1,0063_lp_dnn_1_chair_10_n04429376_5238.png,n04429376_5238.png,0.0,3.5750937,4.613075,-0.73396343
alexnet,1,64,NaN,chair,clock,0,0064_lp_dnn_0_clock_10_n03196217_2414.png,n03196217_2414.png,0.0,5.6069875,6.4343,-0.58499825
alexnet,1,65,NaN,cat,bird,3,0065_lp_dnn_3_bird_10_n01797886_2711.png,n01797886_2711.png,0.0,0.31553772,1.4487959,-0.80133456
alexnet,1,66,NaN,knife,truck,15,0066_lp_dnn_15_truck_10_n04467665_68463.png,n04467665_68463.png,0.0,-1.2760733,3.5500906,-3.4126132
alexnet,1,67,NaN,truck,truck,0,0067_lp_dnn_0_truck_10_n03417042_10099.png,n03417042_10099.png,1.0,10.139805,4.66174,3.8735769
alexnet,1,68,NaN,knife,bear,10,0068_lp_dnn_10_bear_10_n02134418_3793.png,n02134418_3793.png,0.0,0.6960341,4.2156506,-2.4887447
alexnet,1,69,NaN,keyboard,bottle,10,0069_lp_dnn_10_bottle_10_n03937543_9524.png,n03937543_9524.png,0.0,1.5128202,2.0035763,-0.34701693
alexnet,1,70,NaN,cat,cat,3,0070_lp_dnn_3_cat_10_n02123394_1038.png,n02123394_1038.png,1.0,5.592076,4.9051385,0.48573807
alexnet,1,71,NaN,knife,dog,5,0071_lp_dnn_5_dog_10_n02110185_7886.png,n02110185_7886.png,0.0,0.17313509,4.6926975,-3.1958132
alexnet,1,72,NaN,clock,clock,3,0072_lp_dnn_3_clock_10_n02708093_4912.png,n02708093_4912.png,1.0,8.662673,4.8853335,2.6709824
alexnet,1,73,NaN,knife,dog,15,0073_lp_dnn_15_dog_10_n02108422_932.png,n02108422_932.png,0.0,0.6220916,2.2135892,-1.1253588
alexnet,1,74,NaN,truck,truck,0,0074_lp_dnn_0_truck_10_n04467665_18621.png,n04467665_18621.png,1.0,12.459488,5.24462,5.101682
alexnet,1,75,NaN,car,truck,1,0075_lp_dnn_1_truck_10_n04467665_50932.png,n04467665_50932.png,0.0,5.284495,6.5068135,-0.86430985
alexnet,1,76,NaN,dog,dog,1,0076_lp_dnn_1_dog_10_n02102480_7293.png,n02102480_7293.png,1.0,4.047559,2.888275,0.8197375
alexnet,1,77,NaN,bottle,bottle,1,0077_lp_dnn_1_bottle_10_n04591713_4764.png,n04591713_4764.png,1.0,3.8748071,2.8025055,0.75823176
alexnet,1,78,NaN,knife,clock,15,0078_lp_dnn_15_clock_10_n02708093_274.png,n02708093_274.png,0.0,1.8709712,3.9392025,-1.4624604
alexnet,1,79,NaN,keyboard,bottle,5,0079_lp_dnn_5_bottle_10_n04557648_29772.png,n04557648_29772.png,0.0,0.24360362,2.6371958,-1.6925253
alexnet,1,80,NaN,knife,car,15,0080_lp_dnn_15_car_10_n03100240_22499.png,n03100240_22499.png,0.0,-0.89368504,3.7425942,-3.2783444
alexnet,1,81,NaN,clock,clock,3,0081_lp_dnn_3_clock_10_n02708093_6252.png,n02708093_6252.png,1.0,9.564399,5.8532095,2.6242073
alexnet,1,82,NaN,knife,airplane,10,0082_lp_dnn_10_airplane_10_n02690373_5427.png,n02690373_5427.png,0.0,-1.1897585,4.685836,-4.1546726
alexnet,1,83,NaN,knife,dog,15,0083_lp_dnn_15_dog_10_n02107142_46045.png,n02107142_46045.png,0.0,1.0429585,3.9883533,-2.0827086
alexnet,1,84,NaN,knife,keyboard,40,0084_lp_dnn_40_keyboard_10_n03085013_23793.png,n03085013_23793.png,0.0,0.65714276,5.339585,-3.3109868
alexnet,1,85,NaN,clock,bicycle,3,0085_lp_dnn_3_bicycle_10_n03792782_12421.png,n03792782_12421.png,0.0,4.998208,5.759098,-0.5380305
alexnet,1,86,NaN,airplane,airplane,0,0086_lp_dnn_0_airplane_10_n02690373_1310.png,n02690373_1310.png,1.0,13.444882,8.925592,3.1956205
alexnet,1,87,NaN,knife,oven,15,0087_lp_dnn_15_oven_10_n04111531_8793.png,n04111531_8793.png,0.0,1.3571181,5.168971,-2.6953871
alexnet,1,88,NaN,airplane,airplane,5,0088_lp_dnn_5_airplane_10_n02690373_633.png,n02690373_633.png,1.0,3.3207448,2.6192017,0.49606588
alexnet,1,89,NaN,knife,clock,5,0089_lp_dnn_5_clock_10_n02708093_2307.png,n02708093_2307.png,0.0,1.0056368,3.6785212,-1.8900148
alexnet,1,90,NaN,keyboard,oven,10,0090_lp_dnn_10_oven_10_n04111531_13795.png,n04111531_13795.png,0.0,0.85182333,1.4577005,-0.42841986
alexnet,1,91,NaN,keyboard,boat,3,0091_lp_dnn_3_boat_10_n03662601_1427.png,n03662601_1427.png,0.0,3.115749,4.1209617,-0.7107928
alexnet,1,92,NaN,bear,boat,5,0092_lp_dnn_5_boat_10_n04612504_15944.png,n04612504_15944.png,0.0,-1.4775712,2.0286117,-2.4792457
alexnet,1,93,NaN,knife,airplane,40,0093_lp_dnn_40_airplane_10_n02690373_3561.png,n02690373_3561.png,0.0,2.511561,3.3585343,-0.5989007
alexnet,1,94,NaN,bear,elephant,7,0094_lp_dnn_7_elephant_10_n02504458_1848.png,n02504458_1848.png,0.0,2.4564126,2.8689046,-0.29167593
alexnet,1,95,NaN,knife,oven,5,0095_lp_dnn_5_oven_10_n04111531_4155.png,n04111531_4155.png,0.0,3.1700423,3.3928163,-0.15752503
alexnet,1,96,NaN,car,car,0,0096_lp_dnn_0_car_10_n03100240_8327.png,n03100240_8327.png,1.0,12.437111,10.9632845,1.0421526
alexnet,1,97,NaN,chair,chair,0,0097_lp_dnn_0_chair_10_n04429376_24319.png,n04429376_24319.png,1.0,3.630401,2.9062715,0.51203686
alexnet,1,98,NaN,keyboard,chair,3,0098_lp_dnn_3_chair_10_n03376595_5112.png,n03376595_5112.png,0.0,2.342409,5.690051,-2.3671405
alexnet,1,99,NaN,cat,cat,1,0099_lp_dnn_1_cat_10_n02124075_2268.png,n02124075_2268.png,1.0,4.774894,3.4730744,0.9205256
alexnet,1,100,NaN,knife,boat,3,0100_lp_dnn_3_boat_10_n04273569_1137.png,n04273569_1137.png,0.0,-0.14508471,5.3960795,-3.918195
alexnet,1,101,NaN,keyboard,chair,1,0101_lp_dnn_1_chair_10_n02791124_15383.png,n02791124_15383.png,0.0,5.83114,8.143305,-1.6349474
alexnet,1,102,NaN,knife,clock,15,0102_lp_dnn_15_clock_10_n04548280_8998.png,n04548280_8998.png,0.0,3.1041965,4.8962092,-1.2671443
alexnet,1,103,NaN,dog,dog,0,0103_lp_dnn_0_dog_10_n02097047_2800.png,n02097047_2800.png,1.0,5.1447506,4.920643,0.15846811
alexnet,1,104,NaN,knife,bicycle,15,0104_lp_dnn_15_bicycle_10_n03792782_18294.png,n03792782_18294.png,0.0,-1.974314,3.7722979,-4.063468
alexnet,1,105,NaN,elephant,elephant,0,0105_lp_dnn_0_elephant_10_n02504013_24486.png,n02504013_24486.png,1.0,12.857201,4.2821364,6.0634856
alexnet,1,106,NaN,knife,airplane,7,0106_lp_dnn_7_airplane_10_n02690373_2923.png,n02690373_2923.png,0.0,-1.2085083,1.9582164,-2.2392125
alexnet,1,107,NaN,airplane,airplane,3,0107_lp_dnn_3_airplane_10_n02690373_15392.png,n02690373_15392.png,1.0,3.5124197,2.6533513,0.6074531
alexnet,1,108,NaN,oven,oven,5,0108_lp_dnn_5_oven_10_n04111531_6080.png,n04111531_6080.png,1.0,3.8109362,2.6430454,0.8258235
alexnet,1,109,NaN,knife,bear,15,0109_lp_dnn_15_bear_10_n02134084_22736.png,n02134084_22736.png,0.0,0.055313185,4.1725054,-2.9112947
alexnet,1,110,NaN,keyboard,knife,1,0110_lp_dnn_1_knife_10_n03041632_33326.png,n03041632_33326.png,0.0,3.0175931,4.7610703,-1.2328246
alexnet,1,111,NaN,knife,truck,40,0111_lp_dnn_40_truck_10_n04467665_66876.png,n04467665_66876.png,0.0,-1.9468267,4.644158,-4.6605296
alexnet,1,112,NaN,knife,truck,40,0112_lp_dnn_40_truck_10_n03796401_10234.png,n03796401_10234.png,0.0,-1.2367108,4.088593,-3.7655587
alexnet,1,113,NaN,cat,bicycle,7,0113_lp_dnn_7_bicycle_10_n03792782_5416.png,n03792782_5416.png,0.0,-0.51267827,2.2012978,-1.9190708
alexnet,1,114,NaN,knife,knife,7,0114_lp_dnn_7_knife_10_n03041632_25772.png,n03041632_25772.png,1.0,3.334814,2.4199758,0.6468884
alexnet,1,115,NaN,cat,bicycle,10,0115_lp_dnn_10_bicycle_10_n03792782_7108.png,n03792782_7108.png,0.0,-1.5135574,2.0939467,-2.5508907
alexnet,1,116,NaN,chair,chair,0,0116_lp_dnn_0_chair_10_n03376595_1981.png,n03376595_1981.png,1.0,7.5046244,5.218956,1.6162117
alexnet,1,117,NaN,knife,oven,15,0117_lp_dnn_15_oven_10_n04111531_6508.png,n04111531_6508.png,0.0,1.0258378,2.3910093,-0.9653221
alexnet,1,118,NaN,knife,bird,15,0118_lp_dnn_15_bird_10_n01843383_2843.png,n01843383_2843.png,0.0,0.41110685,1.6234515,-0.8572571
alexnet,1,119,NaN,cat,cat,5,0119_lp_dnn_5_cat_10_n02123597_5887.png,n02123597_5887.png,1.0,3.1188285,1.8888797,0.8697052
alexnet,1,120,NaN,knife,clock,40,0120_lp_dnn_40_clock_10_n04548280_9801.png,n04548280_9801.png,0.0,3.8368423,5.3684435,-1.0830055
alexnet,1,121,NaN,knife,bird,1,0121_lp_dnn_1_bird_10_n01530575_10332.png,n01530575_10332.png,0.0,-0.06455368,3.9994411,-2.8736784
alexnet,1,122,NaN,knife,elephant,15,0122_lp_dnn_15_elephant_10_n02504013_5887.png,n02504013_5887.png,0.0,0.47858503,2.7972732,-1.6395601
alexnet,1,123,NaN,cat,cat,3,0123_lp_dnn_3_cat_10_n02124075_8693.png,n02124075_8693.png,1.0,2.5401018,2.2144837,0.23024672
alexnet,1,124,NaN,knife,boat,15,0124_lp_dnn_15_boat_10_n04612504_26151.png,n04612504_26151.png,0.0,-1.8690809,4.629566,-4.5952377
alexnet,1,125,NaN,oven,cat,7,0125_lp_dnn_7_cat_10_n02125311_53412.png,n02125311_53412.png,0.0,2.4241438,3.8854704,-1.033314
alexnet,1,126,NaN,knife,knife,7,0126_lp_dnn_7_knife_10_n03041632_46914.png,n03041632_46914.png,1.0,7.2746754,4.0507593,2.2796528
alexnet,1,127,NaN,knife,bicycle,15,0127_lp_dnn_15_bicycle_10_n03792782_5629.png,n03792782_5629.png,0.0,-2.0540037,2.7917266,-3.4264488
alexnet,1,128,NaN,knife,bottle,40,0128_lp_dnn_40_bottle_10_n02823428_79.png,n02823428_79.png,0.0,1.5446578,3.4465852,-1.3448658
alexnet,1,129,NaN,bear,dog,3,0129_lp_dnn_3_dog_10_n02101006_5024.png,n02101006_5024.png,0.0,3.4542654,4.0729527,-0.43747807
alexnet,1,130,NaN,knife,oven,15,0130_lp_dnn_15_oven_10_n04111531_2350.png,n04111531_2350.png,0.0,0.18264264,3.5625484,-2.3899543
alexnet,1,131,NaN,knife,airplane,7,0131_lp_dnn_7_airplane_10_n02690373_4839.png,n02690373_4839.png,0.0,0.31492162,5.195323,-3.4509652
alexnet,1,132,NaN,keyboard,car,5,0132_lp_dnn_5_car_10_n03100240_2075.png,n03100240_2075.png,0.0,-0.032127827,3.7862535,-2.7000034
alexnet,1,133,NaN,knife,cat,5,0133_lp_dnn_5_cat_10_n02123159_3729.png,n02123159_3729.png,0.0,2.2936928,4.81427,-1.7823173
alexnet,1,134,NaN,oven,knife,10,0134_lp_dnn_10_knife_10_n03041632_3079.png,n03041632_3079.png,0.0,1.933011,2.0799117,-0.10387445
alexnet,1,135,NaN,knife,elephant,15,0135_lp_dnn_15_elephant_10_n02504013_2052.png,n02504013_2052.png,0.0,-0.059507877,3.630506,-2.6092339
alexnet,1,136,NaN,knife,cat,40,0136_lp_dnn_40_cat_10_n02123159_3724.png,n02123159_3724.png,0.0,-0.12481755,3.2446384,-2.3825653
alexnet,1,137,NaN,knife,keyboard,15,0137_lp_dnn_15_keyboard_10_n03085013_7955.png,n03085013_7955.png,0.0,1.0812671,4.877754,-2.684522
alexnet,1,138,NaN,knife,bird,40,0138_lp_dnn_40_bird_10_n02056570_9872.png,n02056570_9872.png,0.0,0.21029566,3.9300442,-2.6302595
alexnet,1,139,NaN,knife,cat,10,0139_lp_dnn_10_cat_10_n02125311_44401.png,n02125311_44401.png,0.0,1.2521708,1.8453405,-0.4194343
alexnet,1,140,NaN,knife,airplane,10,0140_lp_dnn_10_airplane_10_n02690373_10657.png,n02690373_10657.png,0.0,0.51728797,5.3072968,-3.3870475
alexnet,1,141,NaN,keyboard,bird,5,0141_lp_dnn_5_bird_10_n02025239_7919.png,n02025239_7919.png,0.0,0.5010414,0.9605048,-0.32488966
alexnet,1,142,NaN,knife,bear,40,0142_lp_dnn_40_bear_10_n02134084_23165.png,n02134084_23165.png,0.0,-0.10731392,3.4442697,-2.5113487
alexnet,1,143,NaN,knife,knife,40,0143_lp_dnn_40_knife_10_n03041632_28658.png,n03041632_28658.png,1.0,3.786261,2.4760063,0.92649007
alexnet,1,144,NaN,keyboard,keyboard,5,0144_lp_dnn_5_keyboard_10_n04505470_4371.png,n04505470_4371.png,1.0,3.566215,3.058258,0.35917982
alexnet,1,145,NaN,keyboard,keyboard,0,0145_lp_dnn_0_keyboard_10_n03085013_14237.png,n03085013_14237.png,1.0,9.788088,6.742685,2.1534252
alexnet,1,146,NaN,bottle,clock,0,0146_lp_dnn_0_clock_10_n03196217_6163.png,n03196217_6163.png,0.0,3.1544914,3.6577992,-0.3558924
alexnet,1,147,NaN,knife,chair,15,0147_lp_dnn_15_chair_10_n02791124_3857.png,n02791124_3857.png,0.0,-1.335855,2.9390166,-3.022791
alexnet,1,148,NaN,knife,truck,40,0148_lp_dnn_40_truck_10_n03417042_20650.png,n03417042_20650.png,0.0,-2.482856,5.5321774,-5.6674848
alexnet,1,149,NaN,truck,truck,0,0149_lp_dnn_0_truck_10_n04467665_17101.png,n04467665_17101.png,1.0,11.225045,6.758226,3.1585183
alexnet,1,150,NaN,clock,chair,1,0150_lp_dnn_1_chair_10_n04429376_19354.png,n04429376_19354.png,0.0,2.7152267,4.1398244,-1.0073427
alexnet,1,151,NaN,knife,knife,0,0151_lp_dnn_0_knife_10_n03041632_42156.png,n03041632_42156.png,1.0,12.310585,3.8351443,5.993042
alexnet,1,152,NaN,car,car,1,0152_lp_dnn_1_car_10_n04285008_39.png,n04285008_39.png,1.0,10.39512,8.55347,1.3022432
alexnet,1,153,NaN,boat,boat,1,0153_lp_dnn_1_boat_10_n03662601_1319.png,n03662601_1319.png,1.0,5.9883223,4.909103,0.76312333
alexnet,1,154,NaN,bear,truck,7,0154_lp_dnn_7_truck_10_n03796401_4119.png,n03796401_4119.png,0.0,-0.6089581,3.0773525,-2.6066153
alexnet,1,155,NaN,knife,bottle,15,0155_lp_dnn_15_bottle_10_n03937543_2333.png,n03937543_2333.png,0.0,2.4298902,4.2294264,-1.2724643
alexnet,1,156,NaN,knife,bottle,3,0156_lp_dnn_3_bottle_10_n04591713_7134.png,n04591713_7134.png,0.0,3.41972,5.0642276,-1.1628425
alexnet,1,157,NaN,dog,dog,0,0157_lp_dnn_0_dog_10_n02107312_3673.png,n02107312_3673.png,1.0,3.3995712,1.3142678,1.4745321
alexnet,1,158,NaN,oven,oven,3,0158_lp_dnn_3_oven_10_n04111531_8373.png,n04111531_8373.png,1.0,5.284423,3.730582,1.0987314
alexnet,1,159,NaN,oven,car,3,0159_lp_dnn_3_car_10_n03100240_13707.png,n03100240_13707.png,0.0,4.893415,5.3205814,-0.30205232
alexnet,1,160,NaN,chair,chair,1,0160_lp_dnn_1_chair_10_n02791124_241.png,n02791124_241.png,1.0,5.4546714,4.5984344,0.6054509
alexnet,1,161,NaN,knife,airplane,7,0161_lp_dnn_7_airplane_10_n02690373_5628.png,n02690373_5628.png,0.0,1.4254608,5.3684773,-2.7881339
alexnet,1,162,NaN,knife,boat,40,0162_lp_dnn_40_boat_10_n02951358_1461.png,n02951358_1461.png,0.0,-0.8834294,3.8522189,-3.348609
alexnet,1,163,NaN,keyboard,keyboard,7,0163_lp_dnn_7_keyboard_10_n04505470_4501.png,n04505470_4501.png,1.0,1.9675314,0.76946163,0.8471633
alexnet,1,164,NaN,elephant,bird,1,0164_lp_dnn_1_bird_10_n02033041_11415.png,n02033041_11415.png,0.0,-0.022114875,2.4865713,-1.7739091
alexnet,1,165,NaN,knife,knife,1,0165_lp_dnn_1_knife_10_n03041632_6446.png,n03041632_6446.png,1.0,4.9109073,4.223153,0.48631564
alexnet,1,166,NaN,bird,bird,0,0166_lp_dnn_0_bird_10_n02011460_3892.png,n02011460_3892.png,1.0,2.9233325,2.02022,0.6385969
alexnet,1,167,NaN,cat,cat,1,0167_lp_dnn_1_cat_10_n02125311_3174.png,n02125311_3174.png,1.0,6.229664,5.8652453,0.2576828
alexnet,1,168,NaN,knife,dog,10,0168_lp_dnn_10_dog_10_n02088364_7448.png,n02088364_7448.png,0.0,1.0330639,4.00191,-2.0992913
alexnet,1,169,NaN,cat,cat,1,0169_lp_dnn_1_cat_10_n02123394_4299.png,n02123394_4299.png,1.0,7.400741,2.6689065,3.3459122
alexnet,1,170,NaN,knife,keyboard,15,0170_lp_dnn_15_keyboard_10_n03085013_23731.png,n03085013_23731.png,0.0,1.0450583,2.6912253,-1.1640159
alexnet,1,171,NaN,oven,knife,5,0171_lp_dnn_5_knife_10_n03041632_29285.png,n03041632_29285.png,0.0,2.663742,3.2659369,-0.42581603
alexnet,1,172,NaN,keyboard,keyboard,0,0172_lp_dnn_0_keyboard_10_n03085013_12164.png,n03085013_12164.png,1.0,17.225178,8.343266,6.2804604
alexnet,1,173,NaN,keyboard,bird,5,0173_lp_dnn_5_bird_10_n01582220_9023.png,n01582220_9023.png,0.0,-1.482364,3.6219192,-3.6092734
alexnet,1,174,NaN,keyboard,bottle,3,0174_lp_dnn_3_bottle_10_n03983396_12728.png,n03983396_12728.png,0.0,0.56906575,2.8799076,-1.634012
alexnet,1,175,NaN,knife,dog,7,0175_lp_dnn_7_dog_10_n02111277_50807.png,n02111277_50807.png,0.0,2.3082755,2.5605094,-0.17835636
alexnet,1,176,NaN,knife,boat,5,0176_lp_dnn_5_boat_10_n04273569_2037.png,n04273569_2037.png,0.0,1.1454704,3.9315076,-1.9700258
alexnet,1,177,NaN,knife,keyboard,40,0177_lp_dnn_40_keyboard_10_n04505470_4672.png,n04505470_4672.png,0.0,-0.23974365,3.0194857,-2.3046234
alexnet,1,178,NaN,knife,boat,10,0178_lp_dnn_10_boat_10_n03662601_12034.png,n03662601_12034.png,0.0,-1.2853646,3.8763146,-3.6498585
alexnet,1,179,NaN,knife,airplane,15,0179_lp_dnn_15_airplane_10_n02690373_5845.png,n02690373_5845.png,0.0,-1.0216063,5.0450296,-4.2897596
alexnet,1,180,NaN,bear,truck,5,0180_lp_dnn_5_truck_10_n03417042_12128.png,n03417042_12128.png,0.0,0.12618092,4.316231,-2.9628127
alexnet,1,181,NaN,knife,keyboard,10,0181_lp_dnn_10_keyboard_10_n03085013_2432.png,n03085013_2432.png,0.0,2.2123451,5.681306,-2.4529257
alexnet,1,182,NaN,keyboard,chair,5,0182_lp_dnn_5_chair_10_n03376595_9692.png,n03376595_9692.png,0.0,2.2470405,4.3178625,-1.4642923
alexnet,1,183,NaN,elephant,chair,3,0183_lp_dnn_3_chair_10_n03376595_12583.png,n03376595_12583.png,0.0,0.80762625,5.1846957,-3.0950556
alexnet,1,184,NaN,bear,bear,0,0184_lp_dnn_0_bear_10_n02133161_2135.png,n02133161_2135.png,1.0,4.128337,2.5992837,1.0812039
alexnet,1,185,NaN,knife,airplane,10,0185_lp_dnn_10_airplane_10_n02690373_5176.png,n02690373_5176.png,0.0,0.10276893,4.761325,-3.2940965
alexnet,1,186,NaN,elephant,elephant,0,0186_lp_dnn_0_elephant_10_n02504013_10990.png,n02504013_10990.png,1.0,8.285189,2.5287948,4.0703855
alexnet,1,187,NaN,knife,boat,10,0187_lp_dnn_10_boat_10_n02951358_3155.png,n02951358_3155.png,0.0,-1.1375109,2.991036,-2.9193234
alexnet,1,188,NaN,knife,knife,1,0188_lp_dnn_1_knife_10_n03041632_2644.png,n03041632_2644.png,1.0,8.713541,6.109807,1.841118
alexnet,1,189,NaN,knife,airplane,5,0189_lp_dnn_5_airplane_10_n02690373_5184.png,n02690373_5184.png,0.0,2.5157974,4.2572803,-1.2314144
alexnet,1,190,NaN,chair,chair,0,0190_lp_dnn_0_chair_10_n04099969_16161.png,n04099969_16161.png,1.0,5.441541,2.9734676,1.7451916
alexnet,1,191,NaN,knife,boat,10,0191_lp_dnn_10_boat_10_n03344393_5343.png,n03344393_5343.png,0.0,-1.8601481,5.3512506,-5.099229
alexnet,1,192,NaN,oven,oven,0,0192_lp_dnn_0_oven_10_n04111531_15052.png,n04111531_15052.png,1.0,12.056801,4.2641044,5.5102687
alexnet,1,193,NaN,knife,bicycle,15,0193_lp_dnn_15_bicycle_10_n02835271_317.png,n02835271_317.png,0.0,-2.202814,4.138853,-4.484236
alexnet,1,194,NaN,bird,bird,0,0194_lp_dnn_0_bird_10_n02002556_15721.png,n02002556_15721.png,1.0,3.7940524,1.2916862,1.76944
alexnet,1,195,NaN,keyboard,chair,5,0195_lp_dnn_5_chair_10_n03376595_11280.png,n03376595_11280.png,0.0,0.21859474,2.9103527,-1.9033604
alexnet,1,196,NaN,keyboard,keyboard,3,0196_lp_dnn_3_keyboard_10_n04505470_4621.png,n04505470_4621.png,1.0,3.3354142,2.6304386,0.49849305
alexnet,1,197,NaN,knife,boat,7,0197_lp_dnn_7_boat_10_n03662601_6042.png,n03662601_6042.png,0.0,-0.4331008,4.9730783,-3.8227458
alexnet,1,198,NaN,dog,dog,1,0198_lp_dnn_1_dog_10_n02086646_2810.png,n02086646_2810.png,1.0,4.1694517,2.9396317,0.86961406
alexnet,1,199,NaN,knife,elephant,15,0199_lp_dnn_15_elephant_10_n02504458_7835.png,n02504458_7835.png,0.0,-0.22280526,4.083158,-3.044776
alexnet,1,200,NaN,knife,cat,15,0200_lp_dnn_15_cat_10_n02123159_6281.png,n02123159_6281.png,0.0,1.4073529,1.9808292,-0.405509
alexnet,1,201,NaN,keyboard,knife,5,0201_lp_dnn_5_knife_10_n03041632_1661.png,n03041632_1661.png,0.0,1.871258,2.9879403,-0.7896136
alexnet,1,202,NaN,clock,clock,1,0202_lp_dnn_1_clock_10_n02708093_2806.png,n02708093_2806.png,1.0,7.77911,3.965264,2.6967964
alexnet,1,203,NaN,boat,boat,1,0203_lp_dnn_1_boat_10_n04273569_1201.png,n04273569_1201.png,1.0,7.9174795,6.1959586,1.2172991
alexnet,1,204,NaN,knife,bird,40,0204_lp_dnn_40_bird_10_n01614925_13283.png,n01614925_13283.png,0.0,-0.049635425,3.9707413,-2.8428357
alexnet,1,205,NaN,knife,car,40,0205_lp_dnn_40_car_10_n02814533_51701.png,n02814533_51701.png,0.0,-0.4415369,4.0361195,-3.1661813
alexnet,1,206,NaN,keyboard,chair,7,0206_lp_dnn_7_chair_10_n04099969_34325.png,n04099969_34325.png,0.0,-0.4703409,2.5649586,-2.146281
alexnet,1,207,NaN,airplane,truck,0,0207_lp_dnn_0_truck_10_n04467665_71305.png,n04467665_71305.png,0.0,7.453701,8.53978,-0.7679736
alexnet,1,208,NaN,knife,boat,5,0208_lp_dnn_5_boat_10_n03344393_5916.png,n03344393_5916.png,0.0,-0.31569442,5.582817,-4.1708775
alexnet,1,209,NaN,knife,car,7,0209_lp_dnn_7_car_10_n02814533_28783.png,n02814533_28783.png,0.0,-0.6708054,2.656342,-2.3526485
alexnet,1,210,NaN,knife,boat,15,0210_lp_dnn_15_boat_10_n03662601_16825.png,n03662601_16825.png,0.0,-0.83202744,4.185796,-3.548137
alexnet,1,211,NaN,knife,dog,0,0211_lp_dnn_0_dog_10_n02100583_10960.png,n02100583_10960.png,0.0,2.3861403,3.7897048,-0.99246997
alexnet,1,212,NaN,cat,elephant,10,0212_lp_dnn_10_elephant_10_n02504458_4587.png,n02504458_4587.png,0.0,1.1523029,2.1488733,-0.70468175
alexnet,1,213,NaN,cat,bottle,10,0213_lp_dnn_10_bottle_10_n03983396_12670.png,n03983396_12670.png,0.0,0.5638588,1.6334,-0.7562799
alexnet,1,214,NaN,keyboard,bicycle,3,0214_lp_dnn_3_bicycle_10_n02835271_18205.png,n02835271_18205.png,0.0,0.31387922,3.945546,-2.5679762
alexnet,1,215,NaN,knife,truck,40,0215_lp_dnn_40_truck_10_n04467665_67527.png,n04467665_67527.png,0.0,-1.2017562,3.2228763,-3.1286876
alexnet,1,216,NaN,knife,keyboard,10,0216_lp_dnn_10_keyboard_10_n03085013_4374.png,n03085013_4374.png,0.0,2.334446,4.9716434,-1.8647803
alexnet,1,217,NaN,oven,clock,3,0217_lp_dnn_3_clock_10_n03196217_3086.png,n03196217_3086.png,0.0,7.0510125,7.4413266,-0.27599376
alexnet,1,218,NaN,knife,clock,15,0218_lp_dnn_15_clock_10_n04548280_254.png,n04548280_254.png,0.0,1.992602,3.616986,-1.148613
alexnet,1,219,NaN,knife,bicycle,15,0219_lp_dnn_15_bicycle_10_n02835271_21707.png,n02835271_21707.png,0.0,-2.2062407,3.0260284,-3.699773
alexnet,1,220,NaN,knife,bird,15,0220_lp_dnn_15_bird_10_n01819313_6340.png,n01819313_6340.png,0.0,0.5264885,1.9009622,-0.97189975
alexnet,1,221,NaN,cat,bicycle,5,0221_lp_dnn_5_bicycle_10_n02835271_10556.png,n02835271_10556.png,0.0,-0.8378051,2.449657,-2.3245866
alexnet,1,222,NaN,knife,chair,15,0222_lp_dnn_15_chair_10_n04099969_3312.png,n04099969_3312.png,0.0,-1.2922654,2.5717463,-2.732269
alexnet,1,223,NaN,knife,car,15,0223_lp_dnn_15_car_10_n04285008_2781.png,n04285008_2781.png,0.0,-1.0466393,3.998682,-3.5675812
alexnet,1,224,NaN,clock,clock,3,0224_lp_dnn_3_clock_10_n04548280_21263.png,n04548280_21263.png,1.0,9.046198,5.64794,2.4029312
alexnet,1,225,NaN,knife,car,15,0225_lp_dnn_15_car_10_n02814533_9785.png,n02814533_9785.png,0.0,-0.40717462,3.569399,-2.8118622
alexnet,1,226,NaN,truck,truck,0,0226_lp_dnn_0_truck_10_n03417042_24100.png,n03417042_24100.png,1.0,14.222704,10.957985,2.308505
alexnet,1,227,NaN,knife,dog,15,0227_lp_dnn_15_dog_10_n02091244_10926.png,n02091244_10926.png,0.0,0.7592512,2.547463,-1.2644567
alexnet,1,228,NaN,knife,bottle,40,0228_lp_dnn_40_bottle_10_n04591713_2537.png,n04591713_2537.png,0.0,2.145209,5.0405154,-2.0472908
alexnet,1,229,NaN,dog,bear,10,0229_lp_dnn_10_bear_10_n02134418_1311.png,n02134418_1311.png,0.0,1.9542634,2.4647217,-0.36094847
alexnet,1,230,NaN,knife,bicycle,3,0230_lp_dnn_3_bicycle_10_n03792782_210.png,n03792782_210.png,0.0,-1.1584406,2.5390944,-2.6145523
alexnet,1,231,NaN,cat,cat,3,0231_lp_dnn_3_cat_10_n02123045_5371.png,n02123045_5371.png,1.0,2.4042256,2.1635764,0.1701647
alexnet,1,232,NaN,knife,boat,15,0232_lp_dnn_15_boat_10_n04612504_19111.png,n04612504_19111.png,0.0,-1.6403649,3.5580711,-3.6758492
alexnet,1,233,NaN,clock,clock,1,0233_lp_dnn_1_clock_10_n03196217_7836.png,n03196217_7836.png,1.0,7.24334,5.610849,1.1543455
alexnet,1,234,NaN,dog,dog,0,0234_lp_dnn_0_dog_10_n02086910_9742.png,n02086910_9742.png,1.0,3.6521652,3.4103684,0.17097612
alexnet,1,235,NaN,bottle,bottle,1,0235_lp_dnn_1_bottle_10_n03937543_4723.png,n03937543_4723.png,1.0,6.623077,4.556746,1.4611167
alexnet,1,236,NaN,cat,dog,5,0236_lp_dnn_5_dog_10_n02111129_6495.png,n02111129_6495.png,0.0,1.7770666,1.9136839,-0.09660302
alexnet,1,237,NaN,knife,knife,1,0237_lp_dnn_1_knife_10_n03041632_3101.png,n03041632_3101.png,1.0,11.594929,6.34726,3.7106621
alexnet,1,238,NaN,knife,bear,0,0238_lp_dnn_0_bear_10_n02134084_7373.png,n02134084_7373.png,0.0,1.3848597,3.941682,-1.8079464
alexnet,1,239,NaN,keyboard,bird,7,0239_lp_dnn_7_bird_10_n02009229_11916.png,n02009229_11916.png,0.0,0.8959814,2.3686252,-1.0413165
alexnet,1,240,NaN,knife,oven,7,0240_lp_dnn_7_oven_10_n04111531_14208.png,n04111531_14208.png,0.0,3.6726947,4.3471193,-0.47689024
alexnet,1,241,NaN,knife,bird,3,0241_lp_dnn_3_bird_10_n01601694_20287.png,n01601694_20287.png,0.0,-2.4634814,5.4430184,-5.5907397
alexnet,1,242,NaN,knife,oven,15,0242_lp_dnn_15_oven_10_n04111531_5519.png,n04111531_5519.png,0.0,0.6145822,2.883564,-1.6044126
alexnet,1,243,NaN,car,car,1,0243_lp_dnn_1_car_10_n04285008_10893.png,n04285008_10893.png,1.0,11.851613,8.545363,2.3378716
alexnet,1,244,NaN,knife,boat,40,0244_lp_dnn_40_boat_10_n02951358_16196.png,n02951358_16196.png,0.0,-0.7859424,5.052505,-4.128406
alexnet,1,245,NaN,knife,clock,7,0245_lp_dnn_7_clock_10_n04548280_532.png,n04548280_532.png,0.0,2.3995466,4.5201993,-1.4995279
alexnet,1,246,NaN,keyboard,keyboard,0,0246_lp_dnn_0_keyboard_10_n04505470_73.png,n04505470_73.png,1.0,11.286419,4.8931384,4.520732
alexnet,1,247,NaN,bird,bottle,10,0247_lp_dnn_10_bottle_10_n02823428_6766.png,n02823428_6766.png,0.0,0.11015023,2.0138457,-1.346116
alexnet,1,248,NaN,knife,boat,15,0248_lp_dnn_15_boat_10_n02951358_26579.png,n02951358_26579.png,0.0,0.2180376,3.7990096,-2.5321295
alexnet,1,249,NaN,knife,dog,10,0249_lp_dnn_10_dog_10_n02085782_7651.png,n02085782_7651.png,0.0,1.3038986,1.9310108,-0.44343534
alexnet,1,250,NaN,clock,clock,3,0250_lp_dnn_3_clock_10_n02708093_1747.png,n02708093_1747.png,1.0,7.9544272,3.86874,2.889017
alexnet,1,251,NaN,keyboard,truck,3,0251_lp_dnn_3_truck_10_n04467665_19645.png,n04467665_19645.png,0.0,0.31586474,3.2839894,-2.098781
alexnet,1,252,NaN,knife,airplane,15,0252_lp_dnn_15_airplane_10_n02690373_17262.png,n02690373_17262.png,0.0,-0.29178748,5.6568785,-4.206342
alexnet,1,253,NaN,elephant,elephant,0,0253_lp_dnn_0_elephant_10_n02504458_10428.png,n02504458_10428.png,1.0,9.971966,3.2401738,4.760096
alexnet,1,254,NaN,oven,cat,7,0254_lp_dnn_7_cat_10_n02124075_9149.png,n02124075_9149.png,0.0,1.0138688,1.8160588,-0.567234
alexnet,1,255,NaN,knife,elephant,10,0255_lp_dnn_10_elephant_10_n02504013_7923.png,n02504013_7923.png,0.0,-0.5771848,2.4436393,-2.1360452
alexnet,1,256,NaN,knife,cat,3,0256_lp_dnn_3_cat_10_n02123394_4789.png,n02123394_4789.png,0.0,3.5170596,3.9246426,-0.2882047
alexnet,1,257,NaN,clock,clock,5,0257_lp_dnn_5_clock_10_n03196217_2530.png,n03196217_2530.png,1.0,3.200444,2.8843174,0.22353525
alexnet,1,258,NaN,knife,airplane,5,0258_lp_dnn_5_airplane_10_n02690373_6992.png,n02690373_6992.png,0.0,1.7492877,3.73774,-1.4060482
alexnet,1,259,NaN,knife,airplane,3,0259_lp_dnn_3_airplane_10_n02690373_5056.png,n02690373_5056.png,0.0,3.9475038,5.5485597,-1.1321175
alexnet,1,260,NaN,bear,bear,1,0260_lp_dnn_1_bear_10_n02134418_2231.png,n02134418_2231.png,1.0,4.6321974,3.2591982,0.9708571
alexnet,1,261,NaN,knife,truck,10,0261_lp_dnn_10_truck_10_n03796401_180.png,n03796401_180.png,0.0,-1.6189198,4.453767,-4.294038
alexnet,1,262,NaN,elephant,bicycle,3,0262_lp_dnn_3_bicycle_10_n02835271_3246.png,n02835271_3246.png,0.0,1.4075333,3.7628908,-1.6654894
alexnet,1,263,NaN,keyboard,truck,3,0263_lp_dnn_3_truck_10_n03796401_599.png,n03796401_599.png,0.0,2.5652747,4.951083,-1.6870214
alexnet,1,264,NaN,elephant,oven,7,0264_lp_dnn_7_oven_10_n04111531_13862.png,n04111531_13862.png,0.0,1.0696454,1.7752806,-0.49895942
alexnet,1,265,NaN,chair,oven,0,0265_lp_dnn_0_oven_10_n04111531_10420.png,n04111531_10420.png,0.0,5.8133526,6.088247,-0.19437958
alexnet,1,266,NaN,knife,car,10,0266_lp_dnn_10_car_10_n03100240_15531.png,n03100240_15531.png,0.0,-1.6187166,2.480268,-2.8984199
alexnet,1,267,NaN,keyboard,dog,7,0267_lp_dnn_7_dog_10_n02099849_3128.png,n02099849_3128.png,0.0,0.4473927,2.6080232,-1.5277965
alexnet,1,268,NaN,knife,chair,5,0268_lp_dnn_5_chair_10_n02791124_3222.png,n02791124_3222.png,0.0,0.7923027,4.0814486,-2.3257775
alexnet,1,269,NaN,keyboard,keyboard,5,0269_lp_dnn_5_keyboard_10_n04505470_8364.png,n04505470_8364.png,1.0,6.584575,4.3412266,1.586287
alexnet,1,270,NaN,clock,clock,0,0270_lp_dnn_0_clock_10_n04548280_9294.png,n04548280_9294.png,1.0,7.7111106,4.0751815,2.57099
alexnet,1,271,NaN,keyboard,bottle,7,0271_lp_dnn_7_bottle_10_n03937543_3358.png,n03937543_3358.png,0.0,1.7300253,2.367994,-0.45111206
alexnet,1,272,NaN,knife,knife,7,0272_lp_dnn_7_knife_10_n03041632_2058.png,n03041632_2058.png,1.0,5.9403696,2.7051997,2.2876105
alexnet,1,273,NaN,airplane,elephant,1,0273_lp_dnn_1_elephant_10_n02504458_5671.png,n02504458_5671.png,0.0,1.6822681,4.8553324,-2.2436953
alexnet,1,274,NaN,knife,chair,10,0274_lp_dnn_10_chair_10_n02791124_6281.png,n02791124_6281.png,0.0,-1.3366783,2.8995044,-2.9954336
alexnet,1,275,NaN,knife,cat,15,0275_lp_dnn_15_cat_10_n02125311_44920.png,n02125311_44920.png,0.0,1.2263917,3.4345055,-1.5613722
alexnet,1,276,NaN,knife,airplane,5,0276_lp_dnn_5_airplane_10_n02690373_2981.png,n02690373_2981.png,0.0,1.1934348,5.307249,-2.908906
alexnet,1,277,NaN,keyboard,knife,1,0277_lp_dnn_1_knife_10_n03041632_2468.png,n03041632_2468.png,0.0,1.0306168,3.8882546,-2.0206552
alexnet,1,278,NaN,clock,clock,1,0278_lp_dnn_1_clock_10_n02708093_3605.png,n02708093_3605.png,1.0,4.2230325,2.837082,0.98001504
alexnet,1,279,NaN,bicycle,bicycle,1,0279_lp_dnn_1_bicycle_10_n02835271_19019.png,n02835271_19019.png,1.0,10.312411,3.6969645,4.6778274
alexnet,1,280,NaN,knife,keyboard,7,0280_lp_dnn_7_keyboard_10_n03085013_1188.png,n03085013_1188.png,0.0,3.7568502,6.140147,-1.6852455
alexnet,1,281,NaN,oven,oven,1,0281_lp_dnn_1_oven_10_n04111531_2715.png,n04111531_2715.png,1.0,3.3424044,1.2286458,1.494653
alexnet,1,282,NaN,knife,keyboard,10,0282_lp_dnn_10_keyboard_10_n03085013_9533.png,n03085013_9533.png,0.0,2.799499,5.565078,-1.9555595
alexnet,1,283,NaN,cat,cat,3,0283_lp_dnn_3_cat_10_n02123045_20366.png,n02123045_20366.png,1.0,3.7675657,3.658575,0.077068046
alexnet,1,284,NaN,keyboard,chair,5,0284_lp_dnn_5_chair_10_n03376595_302.png,n03376595_302.png,0.0,0.6783706,4.393551,-2.6270292
alexnet,1,285,NaN,cat,cat,7,0285_lp_dnn_7_cat_10_n02123597_14267.png,n02123597_14267.png,1.0,2.2164862,1.7941297,0.29865113
alexnet,1,286,NaN,knife,dog,15,0286_lp_dnn_15_dog_10_n02098286_2582.png,n02098286_2582.png,0.0,0.93084604,1.8222442,-0.6303137
alexnet,1,287,NaN,airplane,boat,1,0287_lp_dnn_1_boat_10_n03344393_4001.png,n03344393_4001.png,0.0,4.1080112,5.666373,-1.101928
alexnet,1,288,NaN,knife,bicycle,15,0288_lp_dnn_15_bicycle_10_n02835271_6122.png,n02835271_6122.png,0.0,-1.9081308,3.7149425,-3.976113
alexnet,1,289,NaN,bear,dog,3,0289_lp_dnn_3_dog_10_n02091134_3075.png,n02091134_3075.png,0.0,2.6240754,2.9541063,-0.2333671
alexnet,1,290,NaN,knife,oven,40,0290_lp_dnn_40_oven_10_n04111531_4795.png,n04111531_4795.png,0.0,0.025823772,3.7195983,-2.611893
alexnet,1,291,NaN,keyboard,bottle,10,0291_lp_dnn_10_bottle_10_n04591713_4876.png,n04591713_4876.png,0.0,1.0183848,1.579267,-0.3966036
alexnet,1,292,NaN,clock,bottle,0,0292_lp_dnn_0_bottle_10_n02823428_2510.png,n02823428_2510.png,0.0,2.838799,7.5673957,-3.343623
alexnet,1,293,NaN,keyboard,keyboard,1,0293_lp_dnn_1_keyboard_10_n03085013_5950.png,n03085013_5950.png,1.0,5.0287375,3.9291842,0.77750164
alexnet,1,294,NaN,cat,bear,5,0294_lp_dnn_5_bear_10_n02133161_1490.png,n02133161_1490.png,0.0,0.3570007,2.647607,-1.6197034
alexnet,1,295,NaN,knife,truck,10,0295_lp_dnn_10_truck_10_n03796401_28465.png,n03796401_28465.png,0.0,-2.047494,2.6115866,-3.2944674
alexnet,1,296,NaN,knife,bottle,15,0296_lp_dnn_15_bottle_10_n02823428_6627.png,n02823428_6627.png,0.0,1.7039264,2.800785,-0.7755962
alexnet,1,297,NaN,oven,truck,5,0297_lp_dnn_5_truck_10_n04467665_69582.png,n04467665_69582.png,0.0,0.84053147,4.8847656,-2.8597054
alexnet,1,298,NaN,knife,bird,40,0298_lp_dnn_40_bird_10_n02006656_10568.png,n02006656_10568.png,0.0,0.37315992,4.021557,-2.5798063
alexnet,1,299,NaN,knife,car,40,0299_lp_dnn_40_car_10_n04285008_11748.png,n04285008_11748.png,0.0,-0.37359706,3.5786788,-2.7946813
alexnet,1,300,NaN,bear,truck,5,0300_lp_dnn_5_truck_10_n04467665_44714.png,n04467665_44714.png,0.0,1.8013115,3.6295896,-1.2927878
alexnet,1,301,NaN,airplane,airplane,3,0301_lp_dnn_3_airplane_10_n02690373_7487.png,n02690373_7487.png,1.0,9.798553,7.818576,1.4000556
alexnet,1,302,NaN,knife,elephant,15,0302_lp_dnn_15_elephant_10_n02504458_7472.png,n02504458_7472.png,0.0,0.26444498,2.1686738,-1.3464931
alexnet,1,303,NaN,knife,boat,3,0303_lp_dnn_3_boat_10_n03662601_25023.png,n03662601_25023.png,0.0,1.2929113,3.794236,-1.7687037
alexnet,1,304,NaN,knife,knife,0,0304_lp_dnn_0_knife_10_n03041632_101673.png,n03041632_101673.png,1.0,4.7847433,3.2715197,1.0700107
alexnet,1,305,NaN,bear,bottle,7,0305_lp_dnn_7_bottle_10_n03983396_587.png,n03983396_587.png,0.0,0.6576105,3.046434,-1.6891533
alexnet,1,306,NaN,elephant,cat,3,0306_lp_dnn_3_cat_10_n02124075_7692.png,n02124075_7692.png,0.0,2.0332484,3.8735936,-1.3013206
alexnet,1,307,NaN,oven,oven,0,0307_lp_dnn_0_oven_10_n04111531_6313.png,n04111531_6313.png,1.0,7.9740925,3.81639,2.9399397
alexnet,1,308,NaN,knife,bird,7,0308_lp_dnn_7_bird_10_n02018795_5770.png,n02018795_5770.png,0.0,0.43221426,1.8778856,-1.022244
alexnet,1,309,NaN,bottle,bottle,3,0309_lp_dnn_3_bottle_10_n02823428_4658.png,n02823428_4658.png,1.0,9.052286,5.855344,2.2605796
alexnet,1,310,NaN,airplane,airplane,1,0310_lp_dnn_1_airplane_10_n02690373_2724.png,n02690373_2724.png,1.0,12.492504,5.899463,4.661984
alexnet,1,311,NaN,knife,boat,40,0311_lp_dnn_40_boat_10_n04612504_7446.png,n04612504_7446.png,0.0,-0.71597844,5.749592,-4.571849
alexnet,1,312,NaN,knife,boat,7,0312_lp_dnn_7_boat_10_n02951358_34783.png,n02951358_34783.png,0.0,-0.10476947,2.5432758,-1.8724508
alexnet,1,313,NaN,cat,cat,0,0313_lp_dnn_0_cat_10_n02123597_680.png,n02123597_680.png,1.0,15.343712,4.6052294,7.593254
alexnet,1,314,NaN,dog,bear,10,0314_lp_dnn_10_bear_10_n02133161_9863.png,n02133161_9863.png,0.0,1.9916549,1.9936509,-0.0014114137
alexnet,1,315,NaN,bear,bear,1,0315_lp_dnn_1_bear_10_n02133161_2100.png,n02133161_2100.png,1.0,10.770912,4.3436136,4.5447865
alexnet,1,316,NaN,oven,oven,3,0316_lp_dnn_3_oven_10_n04111531_8009.png,n04111531_8009.png,1.0,7.839521,4.7702093,2.170331
alexnet,1,317,NaN,knife,car,40,0317_lp_dnn_40_car_10_n03100240_16525.png,n03100240_16525.png,0.0,-0.3567749,3.8370624,-2.9654908
alexnet,1,318,NaN,oven,bird,5,0318_lp_dnn_5_bird_10_n01824575_4941.png,n01824575_4941.png,0.0,0.18853119,1.0850062,-0.6339036
alexnet,1,319,NaN,knife,knife,15,0319_lp_dnn_15_knife_10_n03041632_289.png,n03041632_289.png,1.0,3.7101283,2.381716,0.9393294
alexnet,1,320,NaN,knife,dog,10,0320_lp_dnn_10_dog_10_n02101006_15350.png,n02101006_15350.png,0.0,0.62327725,2.560635,-1.369919
alexnet,1,321,NaN,dog,elephant,5,0321_lp_dnn_5_elephant_10_n02504458_1636.png,n02504458_1636.png,0.0,3.2854514,4.085965,-0.5660487
alexnet,1,322,NaN,cat,car,7,0322_lp_dnn_7_car_10_n04285008_8666.png,n04285008_8666.png,0.0,-0.9928784,2.184912,-2.2470372
alexnet,1,323,NaN,oven,bottle,5,0323_lp_dnn_5_bottle_10_n02823428_5451.png,n02823428_5451.png,0.0,1.5847404,2.8524132,-0.89638
alexnet,1,324,NaN,car,car,3,0324_lp_dnn_3_car_10_n03100240_2495.png,n03100240_2495.png,1.0,5.419803,3.4591293,1.3864058
alexnet,1,325,NaN,keyboard,bicycle,10,0325_lp_dnn_10_bicycle_10_n02835271_19565.png,n02835271_19565.png,0.0,-1.0937493,1.3447863,-1.7243052
alexnet,1,326,NaN,airplane,airplane,1,0326_lp_dnn_1_airplane_10_n02690373_349.png,n02690373_349.png,1.0,13.826233,4.844635,6.350949
alexnet,1,327,NaN,knife,cat,7,0327_lp_dnn_7_cat_10_n02123045_20512.png,n02123045_20512.png,0.0,1.1521091,2.38924,-0.87478364
alexnet,1,328,NaN,oven,keyboard,1,0328_lp_dnn_1_keyboard_10_n03085013_23619.png,n03085013_23619.png,0.0,5.0009933,6.603934,-1.1334502
alexnet,1,329,NaN,knife,boat,7,0329_lp_dnn_7_boat_10_n03662601_16925.png,n03662601_16925.png,0.0,-0.77371836,3.0317464,-2.69087
alexnet,1,330,NaN,knife,oven,10,0330_lp_dnn_10_oven_10_n04111531_12830.png,n04111531_12830.png,0.0,2.0371253,3.0275009,-0.70030123
alexnet,1,331,NaN,knife,boat,5,0331_lp_dnn_5_boat_10_n02951358_33277.png,n02951358_33277.png,0.0,0.81674224,2.9959893,-1.5409604
alexnet,1,332,NaN,cat,bear,15,0332_lp_dnn_15_bear_10_n02133161_156.png,n02133161_156.png,0.0,1.8106833,1.9339595,-0.08716946
alexnet,1,333,NaN,knife,cat,40,0333_lp_dnn_40_cat_10_n02124075_6638.png,n02124075_6638.png,0.0,-0.10281539,3.9296865,-2.8514097
alexnet,1,334,NaN,knife,keyboard,10,0334_lp_dnn_10_keyboard_10_n04505470_4587.png,n04505470_4587.png,0.0,2.473138,4.9485354,-1.7503703
alexnet,1,335,NaN,knife,bear,10,0335_lp_dnn_10_bear_10_n02134084_27899.png,n02134084_27899.png,0.0,2.4627624,2.4703102,-0.0053371396
alexnet,1,336,NaN,keyboard,keyboard,0,0336_lp_dnn_0_keyboard_10_n03085013_10984.png,n03085013_10984.png,1.0,17.195084,8.154043,6.392981
alexnet,1,337,NaN,keyboard,bottle,5,0337_lp_dnn_5_bottle_10_n03983396_10469.png,n03983396_10469.png,0.0,0.8225533,3.2713294,-1.7315463
alexnet,1,338,NaN,cat,knife,10,0338_lp_dnn_10_knife_10_n03041632_20707.png,n03041632_20707.png,0.0,0.20286418,1.1822711,-0.6925453
alexnet,1,339,NaN,car,car,1,0339_lp_dnn_1_car_10_n04285008_9411.png,n04285008_9411.png,1.0,9.451592,8.505505,0.6689851
alexnet,1,340,NaN,knife,airplane,40,0340_lp_dnn_40_airplane_10_n02690373_4671.png,n02690373_4671.png,0.0,1.6635275,5.364827,-2.6172142
alexnet,1,341,NaN,knife,knife,7,0341_lp_dnn_7_knife_10_n03041632_16206.png,n03041632_16206.png,1.0,3.1939454,2.4026852,0.5595055
alexnet,1,342,NaN,elephant,bicycle,5,0342_lp_dnn_5_bicycle_10_n03792782_7180.png,n03792782_7180.png,0.0,-0.4009275,2.3828745,-1.9684453
alexnet,1,343,NaN,bear,bear,0,0343_lp_dnn_0_bear_10_n02134418_2719.png,n02134418_2719.png,1.0,6.6918936,6.061788,0.44555187
alexnet,1,344,NaN,chair,chair,0,0344_lp_dnn_0_chair_10_n04099969_2038.png,n04099969_2038.png,1.0,4.35729,3.8132205,0.38471508
alexnet,1,345,NaN,cat,dog,1,0345_lp_dnn_1_dog_10_n02113023_5237.png,n02113023_5237.png,0.0,2.0637944,4.990167,-2.069258
alexnet,1,346,NaN,knife,airplane,40,0346_lp_dnn_40_airplane_10_n02690373_2525.png,n02690373_2525.png,0.0,2.5952976,2.8684497,-0.19314772
alexnet,1,347,NaN,clock,clock,7,0347_lp_dnn_7_clock_10_n04548280_219.png,n04548280_219.png,1.0,5.3709335,3.673961,1.1999408
alexnet,1,348,NaN,knife,boat,15,0348_lp_dnn_15_boat_10_n04612504_2805.png,n04612504_2805.png,0.0,-2.0712166,4.189748,-4.4271703
alexnet,1,349,NaN,keyboard,clock,7,0349_lp_dnn_7_clock_10_n02708093_7020.png,n02708093_7020.png,0.0,3.3153915,3.488203,-0.12219619
alexnet,1,350,NaN,keyboard,oven,3,0350_lp_dnn_3_oven_10_n04111531_5171.png,n04111531_5171.png,0.0,2.3209953,2.8169713,-0.35070798
alexnet,1,351,NaN,cat,cat,3,0351_lp_dnn_3_cat_10_n02125311_37322.png,n02125311_37322.png,1.0,1.3988189,1.2613024,0.09723885
alexnet,1,352,NaN,keyboard,cat,7,0352_lp_dnn_7_cat_10_n02123597_14094.png,n02123597_14094.png,0.0,1.1080093,2.7812853,-1.1831847
alexnet,1,353,NaN,knife,boat,15,0353_lp_dnn_15_boat_10_n02951358_13352.png,n02951358_13352.png,0.0,-2.2112288,3.5203404,-4.0528316
alexnet,1,354,NaN,knife,bicycle,10,0354_lp_dnn_10_bicycle_10_n02835271_20445.png,n02835271_20445.png,0.0,-2.3785088,4.7272377,-5.0245214
alexnet,1,355,NaN,oven,knife,7,0355_lp_dnn_7_knife_10_n03041632_4708.png,n03041632_4708.png,0.0,4.361909,5.289398,-0.65583396
alexnet,1,356,NaN,knife,oven,7,0356_lp_dnn_7_oven_10_n04111531_505.png,n04111531_505.png,0.0,2.737319,2.8885732,-0.10695285
alexnet,1,357,NaN,bicycle,bicycle,1,0357_lp_dnn_1_bicycle_10_n03792782_104.png,n03792782_104.png,1.0,6.4620323,2.6604996,2.6880896
alexnet,1,358,NaN,knife,bottle,40,0358_lp_dnn_40_bottle_10_n04591713_5204.png,n04591713_5204.png,0.0,1.6296993,3.2958617,-1.1781547
alexnet,1,359,NaN,clock,bicycle,5,0359_lp_dnn_5_bicycle_10_n03792782_5578.png,n03792782_5578.png,0.0,1.4872936,2.7030106,-0.85964173
alexnet,1,360,NaN,knife,truck,10,0360_lp_dnn_10_truck_10_n03417042_1437.png,n03417042_1437.png,0.0,-1.368017,1.7184982,-2.1824958
alexnet,1,361,NaN,knife,cat,0,0361_lp_dnn_0_cat_10_n02123045_7482.png,n02123045_7482.png,0.0,2.1532903,2.7631845,-0.43126038
alexnet,1,362,NaN,keyboard,bird,10,0362_lp_dnn_10_bird_10_n02037110_554.png,n02037110_554.png,0.0,0.92230093,1.0797489,-0.111332506
alexnet,1,363,NaN,bear,bicycle,5,0363_lp_dnn_5_bicycle_10_n03792782_15.png,n03792782_15.png,0.0,-1.2341068,2.049684,-2.3219907
alexnet,1,364,NaN,knife,bicycle,5,0364_lp_dnn_5_bicycle_10_n02835271_7450.png,n02835271_7450.png,0.0,-0.7959266,3.819138,-3.2633436
alexnet,1,365,NaN,knife,boat,5,0365_lp_dnn_5_boat_10_n03344393_3881.png,n03344393_3881.png,0.0,1.5825012,3.507362,-1.3610821
alexnet,1,366,NaN,knife,chair,10,0366_lp_dnn_10_chair_10_n04099969_3623.png,n04099969_3623.png,0.0,-1.1849498,1.9102182,-2.1886144
alexnet,1,367,NaN,knife,airplane,5,0367_lp_dnn_5_airplane_10_n02690373_2579.png,n02690373_2579.png,0.0,3.8396475,4.3630114,-0.37007412
alexnet,1,368,NaN,knife,dog,15,0368_lp_dnn_15_dog_10_n02093859_3707.png,n02093859_3707.png,0.0,0.6195256,3.1893575,-1.8171456
alexnet,1,369,NaN,bicycle,bottle,1,0369_lp_dnn_1_bottle_10_n04560804_22426.png,n04560804_22426.png,0.0,1.9393696,3.5541039,-1.1417896
alexnet,1,370,NaN,knife,clock,15,0370_lp_dnn_15_clock_10_n03196217_82.png,n03196217_82.png,0.0,1.8495067,3.9381652,-1.4769045
alexnet,1,371,NaN,knife,car,5,0371_lp_dnn_5_car_10_n03100240_16907.png,n03100240_16907.png,0.0,1.304492,3.5432587,-1.5830472
alexnet,1,372,NaN,keyboard,oven,5,0372_lp_dnn_5_oven_10_n04111531_9548.png,n04111531_9548.png,0.0,1.2401711,3.2908823,-1.4500718
alexnet,1,373,NaN,keyboard,clock,7,0373_lp_dnn_7_clock_10_n02708093_3751.png,n02708093_3751.png,0.0,3.8088977,3.995735,-0.13211384
alexnet,1,374,NaN,cat,car,7,0374_lp_dnn_7_car_10_n02814533_6593.png,n02814533_6593.png,0.0,-1.2061954,2.145167,-2.3697712
alexnet,1,375,NaN,airplane,airplane,0,0375_lp_dnn_0_airplane_10_n02690373_3212.png,n02690373_3212.png,1.0,20.79154,4.714047,11.368505
alexnet,1,376,NaN,knife,cat,1,0376_lp_dnn_1_cat_10_n02123045_5820.png,n02123045_5820.png,0.0,0.66124034,3.2626543,-1.8394775
alexnet,1,377,NaN,elephant,elephant,3,0377_lp_dnn_3_elephant_10_n02504458_205.png,n02504458_205.png,1.0,6.5627275,4.496123,1.4613101
alexnet,1,378,NaN,bottle,elephant,10,0378_lp_dnn_10_elephant_10_n02504013_3425.png,n02504013_3425.png,0.0,0.046861112,1.7673848,-1.216594
alexnet,1,379,NaN,knife,bird,15,0379_lp_dnn_15_bird_10_n02056570_9572.png,n02056570_9572.png,0.0,0.34818333,3.2816129,-2.0742478
alexnet,1,380,NaN,knife,elephant,40,0380_lp_dnn_40_elephant_10_n02504013_7635.png,n02504013_7635.png,0.0,-0.5387338,3.6846938,-2.9864144
alexnet,1,381,NaN,knife,boat,10,0381_lp_dnn_10_boat_10_n04273569_10716.png,n04273569_10716.png,0.0,-1.1644692,4.663858,-4.1212497
alexnet,1,382,NaN,bear,bear,15,0382_lp_dnn_15_bear_10_n02134084_19849.png,n02134084_19849.png,1.0,2.1067019,1.8267435,0.19796047
alexnet,1,383,NaN,knife,boat,40,0383_lp_dnn_40_boat_10_n03662601_35800.png,n03662601_35800.png,0.0,1.0126085,3.2057977,-1.5508189
alexnet,1,384,NaN,knife,bicycle,40,0384_lp_dnn_40_bicycle_10_n03792782_29276.png,n03792782_29276.png,0.0,-1.964603,3.9678283,-4.1948624
alexnet,1,385,NaN,cat,oven,10,0385_lp_dnn_10_oven_10_n04111531_4392.png,n04111531_4392.png,0.0,-0.034520388,1.7291149,-1.2470785
alexnet,1,386,NaN,airplane,airplane,0,0386_lp_dnn_0_airplane_10_n02690373_7099.png,n02690373_7099.png,1.0,23.227825,10.702255,8.856915
alexnet,1,387,NaN,dog,cat,5,0387_lp_dnn_5_cat_10_n02124075_13187.png,n02124075_13187.png,0.0,1.9657989,2.4850898,-0.36719415
alexnet,1,388,NaN,chair,knife,0,0388_lp_dnn_0_knife_10_n03041632_32048.png,n03041632_32048.png,0.0,4.514675,5.492317,-0.69129735
alexnet,1,389,NaN,knife,airplane,3,0389_lp_dnn_3_airplane_10_n02690373_20074.png,n02690373_20074.png,0.0,1.0927473,4.509525,-2.4160266
alexnet,1,390,NaN,truck,car,1,0390_lp_dnn_1_car_10_n02814533_83577.png,n02814533_83577.png,0.0,8.415622,9.163524,-0.5288465
alexnet,1,391,NaN,knife,airplane,40,0391_lp_dnn_40_airplane_10_n02690373_19134.png,n02690373_19134.png,0.0,2.6692452,2.9547927,-0.20191257
alexnet,1,392,NaN,knife,knife,3,0392_lp_dnn_3_knife_10_n03041632_13130.png,n03041632_13130.png,1.0,4.3912144,3.0060825,0.97943616
alexnet,1,393,NaN,knife,knife,0,0393_lp_dnn_0_knife_10_n03041632_1006.png,n03041632_1006.png,1.0,4.940668,3.4085753,1.0833533
alexnet,1,394,NaN,elephant,elephant,1,0394_lp_dnn_1_elephant_10_n02504458_7634.png,n02504458_7634.png,1.0,11.14492,4.210865,4.9031177
alexnet,1,395,NaN,bicycle,bicycle,1,0395_lp_dnn_1_bicycle_10_n02835271_17184.png,n02835271_17184.png,1.0,10.633759,3.7352815,4.87796
alexnet,1,396,NaN,oven,oven,0,0396_lp_dnn_0_oven_10_n04111531_2189.png,n04111531_2189.png,1.0,4.687334,4.3376904,0.24723545
alexnet,1,397,NaN,knife,cat,15,0397_lp_dnn_15_cat_10_n02124075_11888.png,n02124075_11888.png,0.0,0.7197304,4.4182234,-2.6152296
alexnet,1,398,NaN,bear,cat,10,0398_lp_dnn_10_cat_10_n02123394_1690.png,n02123394_1690.png,0.0,1.5558745,1.6126539,-0.04014909
alexnet,1,399,NaN,dog,dog,1,0399_lp_dnn_1_dog_10_n02111500_2905.png,n02111500_2905.png,1.0,4.523497,3.1371346,0.9803064
alexnet,1,400,NaN,keyboard,knife,5,0400_lp_dnn_5_knife_10_n03041632_20433.png,n03041632_20433.png,0.0,0.70185214,3.555097,-2.017549
alexnet,1,401,NaN,knife,clock,15,0401_lp_dnn_15_clock_10_n04548280_22641.png,n04548280_22641.png,0.0,2.6132166,3.3866124,-0.5468734
alexnet,1,402,NaN,knife,bottle,15,0402_lp_dnn_15_bottle_10_n04557648_634.png,n04557648_634.png,0.0,2.1951184,3.9827728,-1.2640625
alexnet,1,403,NaN,truck,truck,1,0403_lp_dnn_1_truck_10_n04467665_69447.png,n04467665_69447.png,1.0,6.3929152,5.796922,0.42143074
alexnet,1,404,NaN,elephant,elephant,3,0404_lp_dnn_3_elephant_10_n02504013_1777.png,n02504013_1777.png,1.0,4.497319,3.171782,0.9372964
alexnet,1,405,NaN,chair,truck,0,0405_lp_dnn_0_truck_10_n03796401_2559.png,n03796401_2559.png,0.0,7.9072676,8.093406,-0.13161956
alexnet,1,406,NaN,car,car,1,0406_lp_dnn_1_car_10_n02814533_42547.png,n02814533_42547.png,1.0,13.515773,9.925859,2.5384521
alexnet,1,407,NaN,knife,clock,15,0407_lp_dnn_15_clock_10_n04548280_7181.png,n04548280_7181.png,0.0,3.1476917,4.405593,-0.88947046
alexnet,1,408,NaN,airplane,boat,1,0408_lp_dnn_1_boat_10_n03344393_5030.png,n03344393_5030.png,0.0,5.108706,6.3308315,-0.8641733
alexnet,1,409,NaN,cat,bottle,15,0409_lp_dnn_15_bottle_10_n04591713_2952.png,n04591713_2952.png,0.0,1.807124,2.005443,-0.14023277
alexnet,1,410,NaN,keyboard,keyboard,5,0410_lp_dnn_5_keyboard_10_n04505470_4742.png,n04505470_4742.png,1.0,3.5839765,1.7844138,1.272483
alexnet,1,411,NaN,bear,bear,7,0411_lp_dnn_7_bear_10_n02134418_4696.png,n02134418_4696.png,1.0,3.7925696,2.676581,0.78912324
alexnet,1,412,NaN,knife,bear,40,0412_lp_dnn_40_bear_10_n02132136_5815.png,n02132136_5815.png,0.0,0.12676275,3.7618306,-2.5703812
alexnet,1,413,NaN,knife,bicycle,15,0413_lp_dnn_15_bicycle_10_n02835271_8203.png,n02835271_8203.png,0.0,-2.0382018,3.9368544,-4.225003
alexnet,1,414,NaN,knife,car,40,0414_lp_dnn_40_car_10_n04285008_12868.png,n04285008_12868.png,0.0,-0.22857761,3.0950775,-2.3501792
alexnet,1,415,NaN,knife,bear,40,0415_lp_dnn_40_bear_10_n02132136_7074.png,n02132136_7074.png,0.0,-0.6039294,4.4454956,-3.5704827
alexnet,1,416,NaN,cat,boat,3,0416_lp_dnn_3_boat_10_n03344393_8265.png,n03344393_8265.png,0.0,1.3349767,2.6085722,-0.90056807
alexnet,1,417,NaN,knife,truck,10,0417_lp_dnn_10_truck_10_n04467665_12177.png,n04467665_12177.png,0.0,-1.2926878,1.6463442,-2.0782096
alexnet,1,418,NaN,car,car,3,0418_lp_dnn_3_car_10_n03100240_8987.png,n03100240_8987.png,1.0,5.1264296,4.4518213,0.47702006
alexnet,1,419,NaN,knife,bird,15,0419_lp_dnn_15_bird_10_n01530575_10601.png,n01530575_10601.png,0.0,0.21620494,2.720623,-1.7708911
alexnet,1,420,NaN,knife,keyboard,15,0420_lp_dnn_15_keyboard_10_n04505470_313.png,n04505470_313.png,0.0,1.7595282,4.310561,-1.8038528
alexnet,1,421,NaN,keyboard,truck,1,0421_lp_dnn_1_truck_10_n03417042_5371.png,n03417042_5371.png,0.0,4.390616,5.7032723,-0.92818826
alexnet,1,422,NaN,truck,truck,0,0422_lp_dnn_0_truck_10_n03796401_29952.png,n03796401_29952.png,1.0,10.923142,4.5626,4.4975824
alexnet,1,423,NaN,keyboard,bicycle,5,0423_lp_dnn_5_bicycle_10_n03792782_6159.png,n03792782_6159.png,0.0,1.6148006,4.214433,-1.838218
alexnet,1,424,NaN,knife,elephant,7,0424_lp_dnn_7_elephant_10_n02504458_1336.png,n02504458_1336.png,0.0,0.8882618,1.8549085,-0.6835224
alexnet,1,425,NaN,bear,bicycle,10,0425_lp_dnn_10_bicycle_10_n02835271_8597.png,n02835271_8597.png,0.0,-1.12287,2.9365098,-2.870415
alexnet,1,426,NaN,keyboard,keyboard,3,0426_lp_dnn_3_keyboard_10_n04505470_3615.png,n04505470_3615.png,1.0,8.734916,6.061651,1.8902835
alexnet,1,427,NaN,knife,dog,7,0427_lp_dnn_7_dog_10_n02090721_7040.png,n02090721_7040.png,0.0,0.82258576,1.5867786,-0.540366
alexnet,1,428,NaN,cat,cat,0,0428_lp_dnn_0_cat_10_n02124075_17347.png,n02124075_17347.png,1.0,11.055726,5.1147647,4.2008944
alexnet,1,429,NaN,chair,keyboard,0,0429_lp_dnn_0_keyboard_10_n03085013_23018.png,n03085013_23018.png,0.0,6.099961,7.4969444,-0.98781663
alexnet,1,430,NaN,knife,car,40,0430_lp_dnn_40_car_10_n03100240_5018.png,n03100240_5018.png,0.0,-0.77101594,5.092873,-4.1463957
alexnet,1,431,NaN,knife,dog,40,0431_lp_dnn_40_dog_10_n02105056_12631.png,n02105056_12631.png,0.0,-0.53364396,4.1851463,-3.3366885
alexnet,1,432,NaN,knife,knife,15,0432_lp_dnn_15_knife_10_n03041632_27848.png,n03041632_27848.png,1.0,3.76817,2.604332,0.8229579
alexnet,1,433,NaN,keyboard,keyboard,3,0433_lp_dnn_3_keyboard_10_n04505470_4432.png,n04505470_4432.png,1.0,6.800906,3.2313159,2.5240815
alexnet,1,434,NaN,knife,bear,15,0434_lp_dnn_15_bear_10_n02132136_786.png,n02132136_786.png,0.0,0.35285422,3.220369,-2.0276392
alexnet,1,435,NaN,knife,truck,15,0435_lp_dnn_15_truck_10_n03796401_10519.png,n03796401_10519.png,0.0,-1.306364,4.385652,-4.0248632
alexnet,1,436,NaN,knife,airplane,5,0436_lp_dnn_5_airplane_10_n02690373_9086.png,n02690373_9086.png,0.0,2.5649347,3.4004374,-0.59078956
alexnet,1,437,NaN,bicycle,boat,0,0437_lp_dnn_0_boat_10_n02951358_512.png,n02951358_512.png,0.0,2.4380374,5.661354,-2.2792292
alexnet,1,438,NaN,knife,bear,10,0438_lp_dnn_10_bear_10_n02132136_10468.png,n02132136_10468.png,0.0,1.1055855,3.6061726,-1.768182
alexnet,1,439,NaN,knife,bear,5,0439_lp_dnn_5_bear_10_n02134084_13175.png,n02134084_13175.png,0.0,1.1024454,2.1521654,-0.74226415
alexnet,1,440,NaN,cat,dog,10,0440_lp_dnn_10_dog_10_n02088364_2119.png,n02088364_2119.png,0.0,1.7918881,1.8821975,-0.063858375
alexnet,1,441,NaN,boat,boat,1,0441_lp_dnn_1_boat_10_n04612504_26238.png,n04612504_26238.png,1.0,7.824687,4.834964,2.1140535
alexnet,1,442,NaN,bear,bear,3,0442_lp_dnn_3_bear_10_n02134084_20142.png,n02134084_20142.png,1.0,3.8127136,3.4549024,0.25301075
alexnet,1,443,NaN,knife,dog,5,0443_lp_dnn_5_dog_10_n02107683_1076.png,n02107683_1076.png,0.0,1.567178,2.5461478,-0.6922362
alexnet,1,444,NaN,car,car,3,0444_lp_dnn_3_car_10_n02814533_35386.png,n02814533_35386.png,1.0,5.7527776,4.641908,0.7855033
alexnet,1,445,NaN,elephant,bird,3,0445_lp_dnn_3_bird_10_n01531178_15380.png,n01531178_15380.png,0.0,-1.6554272,3.6596818,-3.75835
alexnet,1,446,NaN,cat,bear,7,0446_lp_dnn_7_bear_10_n02134084_17529.png,n02134084_17529.png,0.0,1.5539427,2.1266382,-0.40495688
alexnet,1,447,NaN,knife,bicycle,10,0447_lp_dnn_10_bicycle_10_n02835271_22623.png,n02835271_22623.png,0.0,-2.2147524,3.1489725,-3.7927263
alexnet,1,448,NaN,cat,chair,15,0448_lp_dnn_15_chair_10_n02791124_3160.png,n02791124_3160.png,0.0,-1.8917767,1.9260832,-2.6996346
alexnet,1,449,NaN,bottle,bottle,0,0449_lp_dnn_0_bottle_10_n02823428_2422.png,n02823428_2422.png,1.0,11.644968,3.8560858,5.5075717
alexnet,1,450,NaN,knife,bear,7,0450_lp_dnn_7_bear_10_n02134084_34902.png,n02134084_34902.png,0.0,0.36946028,2.1001513,-1.2237834
alexnet,1,451,NaN,knife,bicycle,15,0451_lp_dnn_15_bicycle_10_n02835271_3535.png,n02835271_3535.png,0.0,-2.0654926,5.10448,-5.0699363
alexnet,1,452,NaN,oven,oven,1,0452_lp_dnn_1_oven_10_n04111531_10640.png,n04111531_10640.png,1.0,11.3347645,3.864118,5.2825446
alexnet,1,453,NaN,knife,keyboard,40,0453_lp_dnn_40_keyboard_10_n04505470_1338.png,n04505470_1338.png,0.0,0.22261187,4.310134,-2.8903146
alexnet,1,454,NaN,keyboard,keyboard,0,0454_lp_dnn_0_keyboard_10_n03085013_26656.png,n03085013_26656.png,1.0,7.939693,6.5717134,0.9673076
alexnet,1,455,NaN,oven,boat,5,0455_lp_dnn_5_boat_10_n03344393_9575.png,n03344393_9575.png,0.0,-0.5746845,4.1747828,-3.3583806
alexnet,1,456,NaN,boat,boat,1,0456_lp_dnn_1_boat_10_n03344393_4616.png,n03344393_4616.png,1.0,6.42687,3.039177,2.3954606
alexnet,1,457,NaN,bicycle,bicycle,0,0457_lp_dnn_0_bicycle_10_n02835271_11929.png,n02835271_11929.png,1.0,7.8189025,2.8649678,3.502961
alexnet,1,458,NaN,keyboard,keyboard,3,0458_lp_dnn_3_keyboard_10_n03085013_20515.png,n03085013_20515.png,1.0,9.611103,5.093058,3.1947403
alexnet,1,459,NaN,knife,dog,40,0459_lp_dnn_40_dog_10_n02088364_3791.png,n02088364_3791.png,0.0,-0.6636703,4.547256,-3.6846812
alexnet,1,460,NaN,airplane,airplane,0,0460_lp_dnn_0_airplane_10_n02690373_10114.png,n02690373_10114.png,1.0,20.36827,7.7352357,8.932905
alexnet,1,461,NaN,knife,airplane,10,0461_lp_dnn_10_airplane_10_n02690373_8543.png,n02690373_8543.png,0.0,-1.6953933,4.801634,-4.5940924
alexnet,1,462,NaN,oven,chair,7,0462_lp_dnn_7_chair_10_n04429376_14967.png,n04429376_14967.png,0.0,0.9950191,2.9104383,-1.354406
alexnet,1,463,NaN,knife,cat,15,0463_lp_dnn_15_cat_10_n02125311_24439.png,n02125311_24439.png,0.0,1.3107519,1.5933795,-0.19984788
alexnet,1,464,NaN,elephant,truck,5,0464_lp_dnn_5_truck_10_n03417042_4665.png,n03417042_4665.png,0.0,0.023504376,3.0533152,-2.1423998
alexnet,1,465,NaN,knife,elephant,40,0465_lp_dnn_40_elephant_10_n02504013_4044.png,n02504013_4044.png,0.0,-0.91748863,4.113154,-3.5572014
alexnet,1,466,NaN,bird,bird,1,0466_lp_dnn_1_bird_10_n01843065_3596.png,n01843065_3596.png,1.0,3.778009,2.1901615,1.1227777
alexnet,1,467,NaN,bear,bird,10,0467_lp_dnn_10_bird_10_n02011460_17499.png,n02011460_17499.png,0.0,1.0334444,2.2563758,-0.8647431
alexnet,1,468,NaN,elephant,elephant,0,0468_lp_dnn_0_elephant_10_n02504458_7506.png,n02504458_7506.png,1.0,10.636092,3.232075,5.235431
alexnet,1,469,NaN,knife,keyboard,40,0469_lp_dnn_40_keyboard_10_n03085013_21955.png,n03085013_21955.png,0.0,-0.08255699,3.6145437,-2.614245
alexnet,1,470,NaN,knife,clock,40,0470_lp_dnn_40_clock_10_n02708093_7810.png,n02708093_7810.png,0.0,2.4566622,3.98255,-1.0789655
alexnet,1,471,NaN,knife,car,40,0471_lp_dnn_40_car_10_n02814533_7984.png,n02814533_7984.png,0.0,-0.56976146,3.737834,-3.04593
alexnet,1,472,NaN,dog,dog,5,0472_lp_dnn_5_dog_10_n02106382_1806.png,n02106382_1806.png,1.0,3.1212785,3.0939407,0.019330736
alexnet,1,473,NaN,knife,chair,15,0473_lp_dnn_15_chair_10_n02791124_3890.png,n02791124_3890.png,0.0,-2.198627,2.8000834,-3.5346222
alexnet,1,474,NaN,elephant,elephant,7,0474_lp_dnn_7_elephant_10_n02504013_16929.png,n02504013_16929.png,1.0,2.8982952,1.9533871,0.6681509
alexnet,1,475,NaN,elephant,elephant,7,0475_lp_dnn_7_elephant_10_n02504013_8052.png,n02504013_8052.png,1.0,2.1275907,1.5189712,0.43035895
alexnet,1,476,NaN,bear,bear,1,0476_lp_dnn_1_bear_10_n02132136_1584.png,n02132136_1584.png,1.0,6.1145935,3.698345,1.7085458
alexnet,1,477,NaN,keyboard,keyboard,1,0477_lp_dnn_1_keyboard_10_n04505470_532.png,n04505470_532.png,1.0,11.207779,4.020992,5.081826
alexnet,1,478,NaN,airplane,airplane,1,0478_lp_dnn_1_airplane_10_n02690373_3988.png,n02690373_3988.png,1.0,16.100632,5.933854,7.1889977
alexnet,1,479,NaN,cat,bicycle,15,0479_lp_dnn_15_bicycle_10_n03792782_13051.png,n03792782_13051.png,0.0,-1.5558547,1.7404925,-2.3308694
alexnet,1,480,NaN,knife,bear,3,0480_lp_dnn_3_bear_10_n02134084_4818.png,n02134084_4818.png,0.0,1.8127184,2.0739331,-0.18470672
alexnet,1,481,NaN,knife,boat,10,0481_lp_dnn_10_boat_10_n02951358_9146.png,n02951358_9146.png,0.0,-1.4408342,2.6536858,-2.895263
alexnet,1,482,NaN,knife,keyboard,40,0482_lp_dnn_40_keyboard_10_n03085013_19317.png,n03085013_19317.png,0.0,0.31556022,4.4748774,-2.9410813
alexnet,1,483,NaN,knife,bicycle,40,0483_lp_dnn_40_bicycle_10_n03792782_17666.png,n03792782_17666.png,0.0,-1.20345,2.943071,-2.9320328
alexnet,1,484,NaN,knife,bear,40,0484_lp_dnn_40_bear_10_n02133161_20090.png,n02133161_20090.png,0.0,-0.57560676,3.7782464,-3.0786393
alexnet,1,485,NaN,keyboard,bottle,3,0485_lp_dnn_3_bottle_10_n03937543_11101.png,n03937543_11101.png,0.0,1.1684453,3.7334619,-1.8137406
alexnet,1,486,NaN,bear,bear,7,0486_lp_dnn_7_bear_10_n02133161_2281.png,n02133161_2281.png,1.0,2.7843542,2.5424964,0.17101927
alexnet,1,487,NaN,knife,airplane,10,0487_lp_dnn_10_airplane_10_n02690373_8813.png,n02690373_8813.png,0.0,-1.0963411,5.58118,-4.7217207
alexnet,1,488,NaN,knife,boat,40,0488_lp_dnn_40_boat_10_n03662601_33625.png,n03662601_33625.png,0.0,1.0953825,2.9009526,-1.2767309
alexnet,1,489,NaN,knife,cat,40,0489_lp_dnn_40_cat_10_n02124075_9066.png,n02124075_9066.png,0.0,-0.30251774,4.0058975,-3.0465097
alexnet,1,490,NaN,oven,oven,3,0490_lp_dnn_3_oven_10_n04111531_10216.png,n04111531_10216.png,1.0,2.6609974,2.4845867,0.12474119
alexnet,1,491,NaN,bear,bird,7,0491_lp_dnn_7_bird_10_n01614925_1097.png,n01614925_1097.png,0.0,0.22823073,2.9896796,-1.9526392
alexnet,1,492,NaN,elephant,bird,0,0492_lp_dnn_0_bird_10_n02017213_1163.png,n02017213_1163.png,0.0,1.4362339,8.537228,-5.0211606
alexnet,1,493,NaN,knife,oven,40,0493_lp_dnn_40_oven_10_n04111531_283.png,n04111531_283.png,0.0,-0.53103316,3.7096844,-2.99864
alexnet,1,494,NaN,knife,truck,15,0494_lp_dnn_15_truck_10_n04467665_39317.png,n04467665_39317.png,0.0,-1.8708475,3.7029815,-3.941292
alexnet,1,495,NaN,dog,dog,1,0495_lp_dnn_1_dog_10_n02093754_5037.png,n02093754_5037.png,1.0,5.763077,2.3173878,2.43647
alexnet,1,496,NaN,knife,bicycle,40,0496_lp_dnn_40_bicycle_10_n02835271_2580.png,n02835271_2580.png,0.0,-1.4112897,4.3785276,-4.094019
alexnet,1,497,NaN,knife,airplane,7,0497_lp_dnn_7_airplane_10_n02690373_2564.png,n02690373_2564.png,0.0,1.9787943,2.5580316,-0.40958259
alexnet,1,498,NaN,knife,truck,40,0498_lp_dnn_40_truck_10_n04467665_62626.png,n04467665_62626.png,0.0,-1.5201429,3.5598104,-3.5920694
alexnet,1,499,NaN,knife,chair,10,0499_lp_dnn_10_chair_10_n04429376_2450.png,n04429376_2450.png,0.0,-0.55198574,2.5818152,-2.215932
alexnet,1,500,NaN,keyboard,keyboard,0,0500_lp_dnn_0_keyboard_10_n04505470_4044.png,n04505470_4044.png,1.0,18.902542,5.778459,9.280128
alexnet,1,501,NaN,knife,oven,15,0501_lp_dnn_15_oven_10_n04111531_8269.png,n04111531_8269.png,0.0,4.337185,5.461343,-0.7948997
alexnet,1,502,NaN,knife,clock,7,0502_lp_dnn_7_clock_10_n02708093_6890.png,n02708093_6890.png,0.0,3.8985062,6.379512,-1.754336
alexnet,1,503,NaN,knife,oven,40,0503_lp_dnn_40_oven_10_n04111531_15947.png,n04111531_15947.png,0.0,0.9755864,3.9984245,-2.1374693
alexnet,1,504,NaN,knife,bicycle,15,0504_lp_dnn_15_bicycle_10_n03792782_24734.png,n03792782_24734.png,0.0,-1.4304364,2.1815724,-2.554076
alexnet,1,505,NaN,knife,chair,40,0505_lp_dnn_40_chair_10_n04099969_10401.png,n04099969_10401.png,0.0,0.6029698,4.00758,-2.4074228
alexnet,1,506,NaN,elephant,elephant,3,0506_lp_dnn_3_elephant_10_n02504458_2994.png,n02504458_2994.png,1.0,6.927002,3.6120076,2.344055
alexnet,1,507,NaN,dog,dog,0,0507_lp_dnn_0_dog_10_n02108422_1164.png,n02108422_1164.png,1.0,2.678195,2.0609694,0.43644446
alexnet,1,508,NaN,clock,clock,5,0508_lp_dnn_5_clock_10_n04548280_2421.png,n04548280_2421.png,1.0,6.7700725,4.0412755,1.9295509
alexnet,1,509,NaN,oven,oven,5,0509_lp_dnn_5_oven_10_n04111531_2930.png,n04111531_2930.png,1.0,1.6033828,1.5772394,0.018486198
alexnet,1,510,NaN,bear,bear,1,0510_lp_dnn_1_bear_10_n02132136_4271.png,n02132136_4271.png,1.0,6.6623974,3.5903592,2.172259
alexnet,1,511,NaN,elephant,oven,7,0511_lp_dnn_7_oven_10_n04111531_8603.png,n04111531_8603.png,0.0,1.6652179,2.142033,-0.33715928
alexnet,1,512,NaN,knife,bicycle,40,0512_lp_dnn_40_bicycle_10_n02835271_16850.png,n02835271_16850.png,0.0,-2.2465577,4.356599,-4.669137
alexnet,1,513,NaN,knife,knife,3,0513_lp_dnn_3_knife_10_n03041632_47410.png,n03041632_47410.png,1.0,4.391645,3.494576,0.6343236
alexnet,1,514,NaN,cat,elephant,15,0514_lp_dnn_15_elephant_10_n02504458_1000.png,n02504458_1000.png,0.0,0.79053855,2.085819,-0.9159016
alexnet,1,515,NaN,cat,cat,1,0515_lp_dnn_1_cat_10_n02124075_8884.png,n02124075_8884.png,1.0,6.7816577,1.7426534,3.5631142
alexnet,1,516,NaN,cat,bird,7,0516_lp_dnn_7_bird_10_n01622779_1370.png,n01622779_1370.png,0.0,1.0827628,1.2123815,-0.091654226
alexnet,1,517,NaN,cat,cat,0,0517_lp_dnn_0_cat_10_n02123045_8215.png,n02123045_8215.png,1.0,13.794358,3.1692746,7.513069
alexnet,1,518,NaN,knife,car,5,0518_lp_dnn_5_car_10_n03100240_3083.png,n03100240_3083.png,0.0,-0.12367418,5.4008994,-3.9064636
alexnet,1,519,NaN,bear,bicycle,3,0519_lp_dnn_3_bicycle_10_n03792782_9280.png,n03792782_9280.png,0.0,-0.23339126,3.2149298,-2.4383314
alexnet,1,520,NaN,knife,bird,5,0520_lp_dnn_5_bird_10_n01819313_3505.png,n01819313_3505.png,0.0,-1.8982356,4.4467654,-4.4865932
alexnet,1,521,NaN,knife,bird,15,0521_lp_dnn_15_bird_10_n01531178_5130.png,n01531178_5130.png,0.0,0.83652186,1.9505887,-0.78776425
alexnet,1,522,NaN,knife,clock,15,0522_lp_dnn_15_clock_10_n02708093_2867.png,n02708093_2867.png,0.0,1.7505115,3.1952558,-1.0215884
alexnet,1,523,NaN,keyboard,bear,7,0523_lp_dnn_7_bear_10_n02134418_258.png,n02134418_258.png,0.0,0.5085094,2.7724943,-1.6008791
alexnet,1,524,NaN,keyboard,bottle,1,0524_lp_dnn_1_bottle_10_n02823428_8280.png,n02823428_8280.png,0.0,4.097578,6.8017464,-1.9121358
alexnet,1,525,NaN,knife,elephant,7,0525_lp_dnn_7_elephant_10_n02504013_24811.png,n02504013_24811.png,0.0,1.7112627,2.8543553,-0.8082886
alexnet,1,526,NaN,knife,bicycle,40,0526_lp_dnn_40_bicycle_10_n02835271_14499.png,n02835271_14499.png,0.0,-1.1351498,3.6664276,-3.3952281
alexnet,1,527,NaN,bottle,bottle,0,0527_lp_dnn_0_bottle_10_n02823428_14536.png,n02823428_14536.png,1.0,8.9510145,5.652071,2.3327053
alexnet,1,528,NaN,keyboard,knife,5,0528_lp_dnn_5_knife_10_n03041632_21723.png,n03041632_21723.png,0.0,1.1940246,2.5651507,-0.9695326
alexnet,1,529,NaN,knife,cat,10,0529_lp_dnn_10_cat_10_n02123159_8396.png,n02123159_8396.png,0.0,1.3432244,4.1476736,-1.983045
alexnet,1,530,NaN,knife,bottle,40,0530_lp_dnn_40_bottle_10_n02823428_3486.png,n02823428_3486.png,0.0,1.6388599,3.7810812,-1.5147793
alexnet,1,531,NaN,elephant,bird,0,0531_lp_dnn_0_bird_10_n01514859_12705.png,n01514859_12705.png,0.0,2.1198037,2.9387336,-0.5790709
alexnet,1,532,NaN,cat,dog,7,0532_lp_dnn_7_dog_10_n02097047_911.png,n02097047_911.png,0.0,1.522964,1.8674269,-0.24357204
alexnet,1,533,NaN,knife,keyboard,10,0533_lp_dnn_10_keyboard_10_n04505470_3132.png,n04505470_3132.png,0.0,2.299632,4.116091,-1.2844303
alexnet,1,534,NaN,airplane,airplane,1,0534_lp_dnn_1_airplane_10_n02690373_11908.png,n02690373_11908.png,1.0,5.708052,2.5910285,2.2040687
alexnet,1,535,NaN,knife,elephant,40,0535_lp_dnn_40_elephant_10_n02504458_5169.png,n02504458_5169.png,0.0,-0.90797186,3.0338068,-2.7872584
alexnet,1,536,NaN,knife,bottle,15,0536_lp_dnn_15_bottle_10_n03937543_5375.png,n03937543_5375.png,0.0,2.7472062,4.011811,-0.89421046
alexnet,1,537,NaN,keyboard,bottle,1,0537_lp_dnn_1_bottle_10_n04591713_6138.png,n04591713_6138.png,0.0,2.3986075,6.5497346,-2.93529
alexnet,1,538,NaN,knife,bottle,15,0538_lp_dnn_15_bottle_10_n04557648_12559.png,n04557648_12559.png,0.0,1.9318464,3.756946,-1.2905405
alexnet,1,539,NaN,knife,clock,40,0539_lp_dnn_40_clock_10_n03196217_3903.png,n03196217_3903.png,0.0,2.9488792,4.564825,-1.1426463
alexnet,1,540,NaN,knife,keyboard,15,0540_lp_dnn_15_keyboard_10_n04505470_4732.png,n04505470_4732.png,0.0,0.94708717,3.0607917,-1.494615
alexnet,1,541,NaN,knife,knife,40,0541_lp_dnn_40_knife_10_n03041632_8468.png,n03041632_8468.png,1.0,3.270845,2.134562,0.80347335
alexnet,1,542,NaN,oven,chair,3,0542_lp_dnn_3_chair_10_n02791124_14040.png,n02791124_14040.png,0.0,2.2395637,4.559843,-1.6406853
alexnet,1,543,NaN,knife,boat,15,0543_lp_dnn_15_boat_10_n04273569_3095.png,n04273569_3095.png,0.0,0.33034045,4.8494654,-3.195504
alexnet,1,544,NaN,bird,bird,1,0544_lp_dnn_1_bird_10_n02002724_18548.png,n02002724_18548.png,1.0,2.1418602,2.0418289,0.07073286
alexnet,1,545,NaN,knife,oven,10,0545_lp_dnn_10_oven_10_n04111531_8537.png,n04111531_8537.png,0.0,0.3585855,2.4517505,-1.4800911
alexnet,1,546,NaN,knife,chair,40,0546_lp_dnn_40_chair_10_n02791124_1935.png,n02791124_1935.png,0.0,0.3088107,3.5471,-2.2898164
alexnet,1,547,NaN,bear,dog,5,0547_lp_dnn_5_dog_10_n02102040_1660.png,n02102040_1660.png,0.0,3.1026251,4.96597,-1.3175838
alexnet,1,548,NaN,bear,bear,0,0548_lp_dnn_0_bear_10_n02134084_7790.png,n02134084_7790.png,1.0,7.9225693,5.3265123,1.8356895
alexnet,1,549,NaN,cat,knife,10,0549_lp_dnn_10_knife_10_n03041632_17091.png,n03041632_17091.png,0.0,1.238594,1.6023642,-0.25722432
alexnet,1,550,NaN,knife,keyboard,5,0550_lp_dnn_5_keyboard_10_n04505470_9331.png,n04505470_9331.png,0.0,2.975093,5.115043,-1.5131733
alexnet,1,551,NaN,keyboard,airplane,5,0551_lp_dnn_5_airplane_10_n02690373_6887.png,n02690373_6887.png,0.0,2.6010485,4.1681376,-1.1080993
alexnet,1,552,NaN,keyboard,chair,1,0552_lp_dnn_1_chair_10_n02791124_2540.png,n02791124_2540.png,0.0,3.1275911,5.2610016,-1.508549
alexnet,1,553,NaN,airplane,truck,3,0553_lp_dnn_3_truck_10_n03796401_23774.png,n03796401_23774.png,0.0,3.0464044,3.7634566,-0.5070325
alexnet,1,554,NaN,knife,knife,40,0554_lp_dnn_40_knife_10_n03041632_28201.png,n03041632_28201.png,1.0,3.104608,2.3779151,0.5138495
alexnet,1,555,NaN,knife,clock,5,0555_lp_dnn_5_clock_10_n04548280_3563.png,n04548280_3563.png,0.0,4.083534,4.100149,-0.011748856
alexnet,1,556,NaN,bicycle,bicycle,0,0556_lp_dnn_0_bicycle_10_n03792782_8287.png,n03792782_8287.png,1.0,13.752279,3.5284765,7.22932
alexnet,1,557,NaN,clock,clock,3,0557_lp_dnn_3_clock_10_n04548280_4225.png,n04548280_4225.png,1.0,7.2256904,6.686611,0.38118654
alexnet,1,558,NaN,car,car,0,0558_lp_dnn_0_car_10_n04285008_11931.png,n04285008_11931.png,1.0,17.861855,7.0613475,7.6371117
alexnet,1,559,NaN,keyboard,elephant,5,0559_lp_dnn_5_elephant_10_n02504013_9396.png,n02504013_9396.png,0.0,1.281039,2.193119,-0.644938
alexnet,1,560,NaN,knife,boat,40,0560_lp_dnn_40_boat_10_n03344393_2915.png,n03344393_2915.png,0.0,0.59144056,3.518619,-2.0698278
alexnet,1,561,NaN,knife,bicycle,7,0561_lp_dnn_7_bicycle_10_n03792782_9692.png,n03792782_9692.png,0.0,-1.1489419,2.404054,-2.5123475
alexnet,1,562,NaN,keyboard,chair,7,0562_lp_dnn_7_chair_10_n02791124_57.png,n02791124_57.png,0.0,-0.55941916,2.5445805,-2.1948593
alexnet,1,563,NaN,knife,car,40,0563_lp_dnn_40_car_10_n04285008_3185.png,n04285008_3185.png,0.0,-0.716053,5.3973627,-4.322838
alexnet,1,564,NaN,bicycle,boat,1,0564_lp_dnn_1_boat_10_n02951358_34917.png,n02951358_34917.png,0.0,1.3762934,4.789555,-2.4135406
alexnet,1,565,NaN,clock,clock,0,0565_lp_dnn_0_clock_10_n02708093_2762.png,n02708093_2762.png,1.0,10.289229,3.3274214,4.922742
alexnet,1,566,NaN,knife,knife,5,0566_lp_dnn_5_knife_10_n03041632_4879.png,n03041632_4879.png,1.0,7.927846,3.1313584,3.3916292
alexnet,1,567,NaN,car,car,0,0567_lp_dnn_0_car_10_n02814533_4689.png,n02814533_4689.png,1.0,9.729762,8.101985,1.1510123
alexnet,1,568,NaN,boat,boat,1,0568_lp_dnn_1_boat_10_n02951358_2445.png,n02951358_2445.png,1.0,6.0724506,4.670867,0.9910693
alexnet,1,569,NaN,knife,truck,40,0569_lp_dnn_40_truck_10_n03417042_10038.png,n03417042_10038.png,0.0,-1.4232297,4.439636,-4.1456723
alexnet,1,570,NaN,knife,car,10,0570_lp_dnn_10_car_10_n02814533_32924.png,n02814533_32924.png,0.0,-1.1609036,2.3280597,-2.4670696
alexnet,1,571,NaN,cat,bottle,10,0571_lp_dnn_10_bottle_10_n02823428_5135.png,n02823428_5135.png,0.0,1.3625262,2.0539699,-0.48892453
alexnet,1,572,NaN,keyboard,keyboard,1,0572_lp_dnn_1_keyboard_10_n03085013_9066.png,n03085013_9066.png,1.0,7.3294845,4.835333,1.7636316
alexnet,1,573,NaN,knife,oven,10,0573_lp_dnn_10_oven_10_n04111531_11279.png,n04111531_11279.png,0.0,2.2345433,2.7063212,-0.33359736
alexnet,1,574,NaN,cat,car,10,0574_lp_dnn_10_car_10_n04285008_12182.png,n04285008_12182.png,0.0,-1.3728176,1.7366219,-2.1987057
alexnet,1,575,NaN,bear,bear,0,0575_lp_dnn_0_bear_10_n02133161_5681.png,n02133161_5681.png,1.0,4.8687925,2.5806158,1.6179854
alexnet,1,576,NaN,elephant,dog,5,0576_lp_dnn_5_dog_10_n02108915_5514.png,n02108915_5514.png,0.0,2.058994,2.9602175,-0.6372612
alexnet,1,577,NaN,knife,airplane,15,0577_lp_dnn_15_airplane_10_n02690373_7239.png,n02690373_7239.png,0.0,-1.0181029,2.9308748,-2.7923489
alexnet,1,578,NaN,cat,dog,0,0578_lp_dnn_0_dog_10_n02094258_4979.png,n02094258_4979.png,0.0,6.6615944,7.296648,-0.44905072
alexnet,1,579,NaN,knife,chair,3,0579_lp_dnn_3_chair_10_n04429376_15078.png,n04429376_15078.png,0.0,2.470462,3.0466487,-0.4074255
alexnet,1,580,NaN,knife,clock,40,0580_lp_dnn_40_clock_10_n02708093_8276.png,n02708093_8276.png,0.0,3.2725725,4.3644104,-0.77204597
alexnet,1,581,NaN,keyboard,keyboard,3,0581_lp_dnn_3_keyboard_10_n04505470_3947.png,n04505470_3947.png,1.0,6.8079586,3.907943,2.0506208
alexnet,1,582,NaN,knife,car,15,0582_lp_dnn_15_car_10_n03100240_2996.png,n03100240_2996.png,0.0,-0.8472629,4.4467416,-3.7434266
alexnet,1,583,NaN,knife,cat,10,0583_lp_dnn_10_cat_10_n02123159_3226.png,n02123159_3226.png,0.0,1.9012376,3.2684484,-0.96676403
alexnet,1,584,NaN,knife,truck,7,0584_lp_dnn_7_truck_10_n03417042_19905.png,n03417042_19905.png,0.0,-0.21813446,3.3981519,-2.5571005
alexnet,1,585,NaN,boat,bird,0,0585_lp_dnn_0_bird_10_n02009229_4838.png,n02009229_4838.png,0.0,1.1588199,4.7375526,-2.5305462
alexnet,1,586,NaN,oven,oven,1,0586_lp_dnn_1_oven_10_n04111531_14383.png,n04111531_14383.png,1.0,4.092809,3.35075,0.5247151
alexnet,1,587,NaN,cat,bear,5,0587_lp_dnn_5_bear_10_n02132136_1152.png,n02132136_1152.png,0.0,2.8497756,3.255624,-0.28697824
alexnet,1,588,NaN,cat,cat,0,0588_lp_dnn_0_cat_10_n02123597_10952.png,n02123597_10952.png,1.0,6.608906,3.98204,1.8574747
alexnet,1,589,NaN,boat,boat,0,0589_lp_dnn_0_boat_10_n04273569_12318.png,n04273569_12318.png,1.0,10.745314,10.698942,0.032789573
alexnet,1,590,NaN,knife,bottle,40,0590_lp_dnn_40_bottle_10_n03937543_1391.png,n03937543_1391.png,0.0,1.5097057,2.79708,-0.91031116
alexnet,1,591,NaN,knife,dog,10,0591_lp_dnn_10_dog_10_n02091032_9464.png,n02091032_9464.png,0.0,1.772901,2.192381,-0.29661706
alexnet,1,592,NaN,keyboard,oven,7,0592_lp_dnn_7_oven_10_n04111531_5218.png,n04111531_5218.png,0.0,0.68821776,3.0341954,-1.6588569
alexnet,1,593,NaN,oven,airplane,5,0593_lp_dnn_5_airplane_10_n02690373_9423.png,n02690373_9423.png,0.0,1.0924155,3.5580661,-1.7434783
alexnet,1,594,NaN,chair,bird,1,0594_lp_dnn_1_bird_10_n01860187_348.png,n01860187_348.png,0.0,-0.34043768,2.5674686,-2.0562003
alexnet,1,595,NaN,knife,bird,40,0595_lp_dnn_40_bird_10_n02006656_8975.png,n02006656_8975.png,0.0,0.011165848,3.8564975,-2.7190602
alexnet,1,596,NaN,keyboard,oven,10,0596_lp_dnn_10_oven_10_n04111531_7619.png,n04111531_7619.png,0.0,0.8915626,1.6977081,-0.570031
alexnet,1,597,NaN,keyboard,bicycle,3,0597_lp_dnn_3_bicycle_10_n02835271_9202.png,n02835271_9202.png,0.0,1.2921506,3.5951896,-1.6284946
alexnet,1,598,NaN,knife,boat,10,0598_lp_dnn_10_boat_10_n03344393_7826.png,n03344393_7826.png,0.0,-2.0795534,5.266794,-5.1946526
alexnet,1,599,NaN,elephant,elephant,3,0599_lp_dnn_3_elephant_10_n02504013_10330.png,n02504013_10330.png,1.0,3.7523031,2.896391,0.60522133
alexnet,1,600,NaN,knife,truck,10,0600_lp_dnn_10_truck_10_n04467665_69202.png,n04467665_69202.png,0.0,-2.5132442,3.042004,-3.9281538
alexnet,1,601,NaN,oven,keyboard,7,0601_lp_dnn_7_keyboard_10_n04505470_1120.png,n04505470_1120.png,0.0,3.714499,3.7266643,-0.008602172
alexnet,1,602,NaN,knife,car,5,0602_lp_dnn_5_car_10_n04285008_434.png,n04285008_434.png,0.0,0.09806284,3.9221106,-2.7040102
alexnet,1,603,NaN,knife,cat,1,0603_lp_dnn_1_cat_10_n02123597_7592.png,n02123597_7592.png,0.0,2.6019797,3.227849,-0.4425564
alexnet,1,604,NaN,knife,dog,15,0604_lp_dnn_15_dog_10_n02090721_583.png,n02090721_583.png,0.0,1.9275386,3.2857156,-0.96037614
alexnet,1,605,NaN,knife,knife,1,0605_lp_dnn_1_knife_10_n03041632_86783.png,n03041632_86783.png,1.0,3.4901624,3.3589418,0.09278696
alexnet,1,606,NaN,knife,dog,10,0606_lp_dnn_10_dog_10_n02112018_11708.png,n02112018_11708.png,0.0,0.86121154,3.4204044,-1.8096226
alexnet,1,607,NaN,bicycle,bird,0,0607_lp_dnn_0_bird_10_n02018795_5662.png,n02018795_5662.png,0.0,1.6053705,5.1844497,-2.5307913
alexnet,1,608,NaN,bear,elephant,5,0608_lp_dnn_5_elephant_10_n02504013_1088.png,n02504013_1088.png,0.0,3.4802322,4.9541235,-1.0421985
alexnet,1,609,NaN,elephant,elephant,5,0609_lp_dnn_5_elephant_10_n02504458_66.png,n02504458_66.png,1.0,4.2324743,2.5365434,1.1992043
alexnet,1,610,NaN,knife,dog,10,0610_lp_dnn_10_dog_10_n02105056_9099.png,n02105056_9099.png,0.0,0.8961732,3.598357,-1.9107325
alexnet,1,611,NaN,bottle,boat,10,0611_lp_dnn_10_boat_10_n04273569_19699.png,n04273569_19699.png,0.0,-2.3643246,2.2870705,-3.289033
alexnet,1,612,NaN,dog,dog,1,0612_lp_dnn_1_dog_10_n02097047_2376.png,n02097047_2376.png,1.0,5.872023,4.1848083,1.1930411
alexnet,1,613,NaN,boat,boat,1,0613_lp_dnn_1_boat_10_n03662601_11901.png,n03662601_11901.png,1.0,3.4842083,1.9623305,1.0761302
alexnet,1,614,NaN,chair,oven,1,0614_lp_dnn_1_oven_10_n04111531_7667.png,n04111531_7667.png,0.0,3.6912448,5.0586677,-0.96691394
alexnet,1,615,NaN,bear,knife,10,0615_lp_dnn_10_knife_10_n03041632_24384.png,n03041632_24384.png,0.0,1.4196472,1.5582998,-0.09804217
alexnet,1,616,NaN,knife,car,7,0616_lp_dnn_7_car_10_n03100240_1216.png,n03100240_1216.png,0.0,-1.0044008,1.6014402,-1.842608
alexnet,1,617,NaN,bicycle,bicycle,0,0617_lp_dnn_0_bicycle_10_n03792782_3136.png,n03792782_3136.png,1.0,3.789307,2.695991,0.7730912
alexnet,1,618,NaN,oven,keyboard,5,0618_lp_dnn_5_keyboard_10_n03085013_26573.png,n03085013_26573.png,0.0,1.2762821,2.3221118,-0.73951334
alexnet,1,619,NaN,clock,chair,0,0619_lp_dnn_0_chair_10_n04429376_7888.png,n04429376_7888.png,0.0,5.355748,6.020611,-0.4701289
alexnet,1,620,NaN,knife,chair,5,0620_lp_dnn_5_chair_10_n03376595_899.png,n03376595_899.png,0.0,0.59838593,2.8934147,-1.6228304
alexnet,1,621,NaN,oven,bicycle,5,0621_lp_dnn_5_bicycle_10_n02835271_24207.png,n02835271_24207.png,0.0,1.4454334,3.3812928,-1.3688594
alexnet,1,622,NaN,oven,oven,3,0622_lp_dnn_3_oven_10_n04111531_7329.png,n04111531_7329.png,1.0,8.72389,5.592724,2.2140691
alexnet,1,623,NaN,oven,oven,5,0623_lp_dnn_5_oven_10_n04111531_12942.png,n04111531_12942.png,1.0,3.330759,1.825234,1.064567
alexnet,1,624,NaN,knife,bear,15,0624_lp_dnn_15_bear_10_n02134418_1978.png,n02134418_1978.png,0.0,-0.21833514,3.0689154,-2.3244371
alexnet,1,625,NaN,knife,cat,40,0625_lp_dnn_40_cat_10_n02123159_5872.png,n02123159_5872.png,0.0,0.10400113,4.399493,-3.0373716
alexnet,1,626,NaN,knife,keyboard,15,0626_lp_dnn_15_keyboard_10_n03085013_18797.png,n03085013_18797.png,0.0,1.5354844,4.4269586,-2.0445812
alexnet,1,627,NaN,knife,airplane,15,0627_lp_dnn_15_airplane_10_n02690373_5496.png,n02690373_5496.png,0.0,1.6907167,4.7179813,-2.1405993
alexnet,1,628,NaN,knife,oven,15,0628_lp_dnn_15_oven_10_n04111531_21963.png,n04111531_21963.png,0.0,1.5846069,4.9505396,-2.3800738
alexnet,1,629,NaN,bottle,bottle,0,0629_lp_dnn_0_bottle_10_n02823428_2918.png,n02823428_2918.png,1.0,17.485172,5.6012425,8.403208
alexnet,1,630,NaN,knife,keyboard,10,0630_lp_dnn_10_keyboard_10_n04505470_9570.png,n04505470_9570.png,0.0,0.7074347,2.4501472,-1.2322838
alexnet,1,631,NaN,oven,bird,1,0631_lp_dnn_1_bird_10_n02002556_5977.png,n02002556_5977.png,0.0,0.3909793,1.9076774,-1.0724676
alexnet,1,632,NaN,knife,airplane,40,0632_lp_dnn_40_airplane_10_n02690373_5961.png,n02690373_5961.png,0.0,2.7947598,2.8177192,-0.016234798
alexnet,1,633,NaN,clock,clock,3,0633_lp_dnn_3_clock_10_n04548280_5765.png,n04548280_5765.png,1.0,5.469771,4.3752284,0.77395844
alexnet,1,634,NaN,knife,cat,15,0634_lp_dnn_15_cat_10_n02123597_11940.png,n02123597_11940.png,0.0,1.1637907,3.1202483,-1.3834245
alexnet,1,635,NaN,airplane,airplane,3,0635_lp_dnn_3_airplane_10_n02690373_3993.png,n02690373_3993.png,1.0,6.4741983,3.8790016,1.8350812
alexnet,1,636,NaN,knife,chair,7,0636_lp_dnn_7_chair_10_n04099969_3984.png,n04099969_3984.png,0.0,-0.57783514,3.2285564,-2.6915252
alexnet,1,637,NaN,airplane,airplane,3,0637_lp_dnn_3_airplane_10_n02690373_939.png,n02690373_939.png,1.0,5.123825,4.1858726,0.6632326
alexnet,1,638,NaN,car,car,1,0638_lp_dnn_1_car_10_n02814533_48541.png,n02814533_48541.png,1.0,14.5548525,10.595243,2.7998664
alexnet,1,639,NaN,knife,clock,10,0639_lp_dnn_10_clock_10_n03196217_3986.png,n03196217_3986.png,0.0,3.2514203,5.696272,-1.7287712
alexnet,1,640,NaN,cat,clock,7,0640_lp_dnn_7_clock_10_n03196217_3006.png,n03196217_3006.png,0.0,1.5062798,1.9826866,-0.3368705
alexnet,1,641,NaN,knife,boat,40,0641_lp_dnn_40_boat_10_n03662601_8947.png,n03662601_8947.png,0.0,0.50885856,3.2392995,-1.9307134
alexnet,1,642,NaN,knife,bear,40,0642_lp_dnn_40_bear_10_n02132136_14346.png,n02132136_14346.png,0.0,-0.35920596,3.9969316,-3.0802543
alexnet,1,643,NaN,knife,elephant,10,0643_lp_dnn_10_elephant_10_n02504458_3209.png,n02504458_3209.png,0.0,0.5011531,4.485735,-2.817525
alexnet,1,644,NaN,keyboard,dog,3,0644_lp_dnn_3_dog_10_n02088364_4980.png,n02088364_4980.png,0.0,0.21421845,5.112745,-3.463781
alexnet,1,645,NaN,elephant,elephant,0,0645_lp_dnn_0_elephant_10_n02504013_1187.png,n02504013_1187.png,1.0,12.438545,3.703256,6.1767826
alexnet,1,646,NaN,airplane,airplane,0,0646_lp_dnn_0_airplane_10_n02690373_20690.png,n02690373_20690.png,1.0,17.70487,4.6444097,9.235141
alexnet,1,647,NaN,knife,bird,10,0647_lp_dnn_10_bird_10_n01616318_2290.png,n01616318_2290.png,0.0,-0.39551058,2.8017693,-2.2608182
alexnet,1,648,NaN,knife,bird,1,0648_lp_dnn_1_bird_10_n02051845_1935.png,n02051845_1935.png,0.0,0.7157418,2.2695072,-1.098678
alexnet,1,649,NaN,oven,truck,0,0649_lp_dnn_0_truck_10_n04467665_19131.png,n04467665_19131.png,0.0,5.3385696,7.5237446,-1.5451521
alexnet,1,650,NaN,knife,car,5,0650_lp_dnn_5_car_10_n03100240_2138.png,n03100240_2138.png,0.0,2.3504052,4.786872,-1.7228421
alexnet,1,651,NaN,cat,elephant,10,0651_lp_dnn_10_elephant_10_n02504458_5197.png,n02504458_5197.png,0.0,1.1346703,1.9775137,-0.5959803
alexnet,1,652,NaN,cat,bird,5,0652_lp_dnn_5_bird_10_n01819313_5504.png,n01819313_5504.png,0.0,-0.7263514,2.7614887,-2.4662755
alexnet,1,653,NaN,clock,bird,3,0653_lp_dnn_3_bird_10_n01560419_1470.png,n01560419_1470.png,0.0,-1.0069314,3.3578403,-3.0863597
alexnet,1,654,NaN,knife,airplane,3,0654_lp_dnn_3_airplane_10_n02690373_8650.png,n02690373_8650.png,0.0,5.410494,5.9381704,-0.3731237
alexnet,1,655,NaN,knife,bird,40,0655_lp_dnn_40_bird_10_n02028035_1677.png,n02028035_1677.png,0.0,0.13165545,3.5327215,-2.404917
alexnet,1,656,NaN,clock,clock,1,0656_lp_dnn_1_clock_10_n04548280_9700.png,n04548280_9700.png,1.0,9.6619005,3.3470654,4.465263
alexnet,1,657,NaN,knife,knife,5,0657_lp_dnn_5_knife_10_n03041632_5162.png,n03041632_5162.png,1.0,5.9910994,4.5411434,1.0252737
alexnet,1,658,NaN,knife,airplane,10,0658_lp_dnn_10_airplane_10_n02690373_13326.png,n02690373_13326.png,0.0,0.40505102,3.9334695,-2.4949687
alexnet,1,659,NaN,oven,oven,3,0659_lp_dnn_3_oven_10_n04111531_857.png,n04111531_857.png,1.0,3.7993975,3.6378932,0.11420076
alexnet,1,660,NaN,knife,bottle,40,0660_lp_dnn_40_bottle_10_n04560804_3392.png,n04560804_3392.png,0.0,2.2043712,4.2875557,-1.4730339
alexnet,1,661,NaN,knife,airplane,0,0661_lp_dnn_0_airplane_10_n02690373_4269.png,n02690373_4269.png,0.0,6.2039957,7.9360228,-1.2247281
alexnet,1,662,NaN,keyboard,bicycle,7,0662_lp_dnn_7_bicycle_10_n02835271_12608.png,n02835271_12608.png,0.0,-0.07877982,2.9768503,-2.160657
alexnet,1,663,NaN,elephant,elephant,1,0663_lp_dnn_1_elephant_10_n02504458_4868.png,n02504458_4868.png,1.0,12.273454,7.6715074,3.2540674
alexnet,1,664,NaN,knife,chair,7,0664_lp_dnn_7_chair_10_n03376595_11572.png,n03376595_11572.png,0.0,-0.16308782,2.7787936,-2.0802243
alexnet,1,665,NaN,keyboard,cat,10,0665_lp_dnn_10_cat_10_n02123045_1754.png,n02123045_1754.png,0.0,1.1637009,1.758023,-0.4202492
alexnet,1,666,NaN,bottle,bottle,7,0666_lp_dnn_7_bottle_10_n04560804_2002.png,n04560804_2002.png,1.0,1.9497381,1.8945136,0.039049644
alexnet,1,667,NaN,knife,truck,5,0667_lp_dnn_5_truck_10_n03796401_4878.png,n03796401_4878.png,0.0,-0.39394188,3.4670773,-2.7301528
alexnet,1,668,NaN,knife,bird,40,0668_lp_dnn_40_bird_10_n02033041_4901.png,n02033041_4901.png,0.0,0.18652856,3.365613,-2.2479522
alexnet,1,669,NaN,knife,knife,40,0669_lp_dnn_40_knife_10_n03041632_31932.png,n03041632_31932.png,1.0,3.6428735,2.2182534,1.0073586
alexnet,1,670,NaN,dog,knife,3,0670_lp_dnn_3_knife_10_n03041632_9256.png,n03041632_9256.png,0.0,1.2889425,2.2726927,-0.6956165
alexnet,1,671,NaN,knife,chair,5,0671_lp_dnn_5_chair_10_n04429376_45302.png,n04429376_45302.png,0.0,-0.65673035,3.116451,-2.6680422
alexnet,1,672,NaN,truck,truck,3,0672_lp_dnn_3_truck_10_n03417042_5508.png,n03417042_5508.png,1.0,5.5651035,4.770893,0.56159157
alexnet,1,673,NaN,knife,chair,5,0673_lp_dnn_5_chair_10_n03376595_12326.png,n03376595_12326.png,0.0,1.545136,4.461053,-2.0618646
alexnet,1,674,NaN,clock,clock,0,0674_lp_dnn_0_clock_10_n04548280_4391.png,n04548280_4391.png,1.0,7.474058,2.638158,3.419498
alexnet,1,675,NaN,knife,car,10,0675_lp_dnn_10_car_10_n03100240_4421.png,n03100240_4421.png,0.0,-0.7014039,2.8858893,-2.5365994
alexnet,1,676,NaN,keyboard,dog,3,0676_lp_dnn_3_dog_10_n02111500_7233.png,n02111500_7233.png,0.0,2.5516586,3.5667725,-0.7177939
alexnet,1,677,NaN,bottle,bottle,1,0677_lp_dnn_1_bottle_10_n04591713_4232.png,n04591713_4232.png,1.0,6.105963,3.1628394,2.0811028
alexnet,1,678,NaN,airplane,airplane,1,0678_lp_dnn_1_airplane_10_n02690373_5010.png,n02690373_5010.png,1.0,17.771025,5.1456027,8.927522
alexnet,1,679,NaN,knife,bird,10,0679_lp_dnn_10_bird_10_n01860187_27046.png,n01860187_27046.png,0.0,0.4239992,2.3010485,-1.3272743
alexnet,1,680,NaN,knife,car,10,0680_lp_dnn_10_car_10_n03100240_5136.png,n03100240_5136.png,0.0,-1.4070525,2.434354,-2.7162848
alexnet,1,681,NaN,knife,knife,15,0681_lp_dnn_15_knife_10_n03041632_1884.png,n03041632_1884.png,1.0,2.676946,1.4166255,0.8911811
alexnet,1,682,NaN,oven,clock,1,0682_lp_dnn_1_clock_10_n04548280_2809.png,n04548280_2809.png,0.0,4.1130595,4.670383,-0.3940872
alexnet,1,683,NaN,knife,boat,7,0683_lp_dnn_7_boat_10_n03662601_12308.png,n03662601_12308.png,0.0,0.04118786,3.8917565,-2.7227633
alexnet,1,684,NaN,knife,airplane,10,0684_lp_dnn_10_airplane_10_n02690373_7432.png,n02690373_7432.png,0.0,-0.73063505,3.7281744,-3.1528544
alexnet,1,685,NaN,bear,bicycle,7,0685_lp_dnn_7_bicycle_10_n03792782_6149.png,n03792782_6149.png,0.0,-1.2135937,2.8917527,-2.9029186
alexnet,1,686,NaN,bear,chair,10,0686_lp_dnn_10_chair_10_n04429376_24716.png,n04429376_24716.png,0.0,-1.7778487,2.2064753,-2.8173425
alexnet,1,687,NaN,bottle,bottle,0,0687_lp_dnn_0_bottle_10_n04557648_376.png,n04557648_376.png,1.0,8.267351,4.9158382,2.3698776
alexnet,1,688,NaN,knife,cat,10,0688_lp_dnn_10_cat_10_n02123394_3144.png,n02123394_3144.png,0.0,1.33886,4.056694,-1.9217988
alexnet,1,689,NaN,keyboard,dog,3,0689_lp_dnn_3_dog_10_n02092002_12007.png,n02092002_12007.png,0.0,0.6629674,3.1472397,-1.7566458
alexnet,1,690,NaN,knife,bird,15,0690_lp_dnn_15_bird_10_n02028035_33583.png,n02028035_33583.png,0.0,0.104186095,3.6233554,-2.4884286
alexnet,1,691,NaN,knife,bird,15,0691_lp_dnn_15_bird_10_n01797886_904.png,n01797886_904.png,0.0,0.021409405,2.5942016,-1.8192388
alexnet,1,692,NaN,knife,keyboard,15,0692_lp_dnn_15_keyboard_10_n03085013_21397.png,n03085013_21397.png,0.0,0.63810974,2.8385382,-1.5559379
alexnet,1,693,NaN,knife,dog,40,0693_lp_dnn_40_dog_10_n02108915_11208.png,n02108915_11208.png,0.0,-0.75486916,2.8060503,-2.5179503
alexnet,1,694,NaN,knife,boat,3,0694_lp_dnn_3_boat_10_n03662601_17665.png,n03662601_17665.png,0.0,3.0600057,4.4922385,-1.0127416
alexnet,1,695,NaN,elephant,clock,10,0695_lp_dnn_10_clock_10_n03196217_9160.png,n03196217_9160.png,0.0,0.6703019,2.1606212,-1.0538149
alexnet,1,696,NaN,dog,dog,0,0696_lp_dnn_0_dog_10_n02100735_3595.png,n02100735_3595.png,1.0,5.5385656,3.3243752,1.5656692
alexnet,1,697,NaN,oven,truck,5,0697_lp_dnn_5_truck_10_n03796401_2656.png,n03796401_2656.png,0.0,0.15732646,3.1489062,-2.1153665
alexnet,1,698,NaN,airplane,truck,40,0698_lp_dnn_40_truck_10_n04467665_13193.png,n04467665_13193.png,0.0,-0.84292793,2.9446797,-2.6782432
alexnet,1,699,NaN,oven,oven,5,0699_lp_dnn_5_oven_10_n04111531_20953.png,n04111531_20953.png,1.0,6.7753105,4.073203,1.9106785
alexnet,1,700,NaN,oven,clock,5,0700_lp_dnn_5_clock_10_n02708093_8051.png,n02708093_8051.png,0.0,5.243234,6.098761,-0.6049489
alexnet,1,701,NaN,car,car,0,0701_lp_dnn_0_car_10_n03100240_11428.png,n03100240_11428.png,1.0,17.280825,10.3757,4.8826604
alexnet,1,702,NaN,bicycle,bicycle,1,0702_lp_dnn_1_bicycle_10_n02835271_12473.png,n02835271_12473.png,1.0,9.593431,2.907547,4.7276344
alexnet,1,703,NaN,dog,chair,10,0703_lp_dnn_10_chair_10_n02791124_6865.png,n02791124_6865.png,0.0,-1.9701542,2.086526,-2.8685062
alexnet,1,704,NaN,knife,chair,15,0704_lp_dnn_15_chair_10_n03376595_4464.png,n03376595_4464.png,0.0,-0.9591966,3.7473683,-3.328044
alexnet,1,705,NaN,airplane,airplane,0,0705_lp_dnn_0_airplane_10_n02690373_1051.png,n02690373_1051.png,1.0,21.652565,6.4202156,10.770898
alexnet,1,706,NaN,oven,chair,5,0706_lp_dnn_5_chair_10_n04429376_5789.png,n04429376_5789.png,0.0,0.38222063,2.3368678,-1.3821443
alexnet,1,707,NaN,bicycle,bird,0,0707_lp_dnn_0_bird_10_n01592084_2971.png,n01592084_2971.png,0.0,0.71745485,2.8957787,-1.5403075
alexnet,1,708,NaN,bear,bicycle,5,0708_lp_dnn_5_bicycle_10_n03792782_22760.png,n03792782_22760.png,0.0,-1.0045272,3.2472372,-3.0064514
alexnet,1,709,NaN,knife,airplane,40,0709_lp_dnn_40_airplane_10_n02690373_2656.png,n02690373_2656.png,0.0,2.0453265,3.4290767,-0.9784592
alexnet,1,710,NaN,oven,oven,0,0710_lp_dnn_0_oven_10_n04111531_21173.png,n04111531_21173.png,1.0,4.970449,3.0101678,1.3861281
alexnet,1,711,NaN,keyboard,bottle,3,0711_lp_dnn_3_bottle_10_n04557648_32252.png,n04557648_32252.png,0.0,4.053063,7.5465198,-2.470247
alexnet,1,712,NaN,cat,cat,5,0712_lp_dnn_5_cat_10_n02123597_13835.png,n02123597_13835.png,1.0,2.2698238,1.8359883,0.30676803
alexnet,1,713,NaN,knife,knife,10,0713_lp_dnn_10_knife_10_n03041632_11969.png,n03041632_11969.png,1.0,4.0215063,1.4669486,1.8063452
alexnet,1,714,NaN,keyboard,cat,5,0714_lp_dnn_5_cat_10_n02125311_22884.png,n02125311_22884.png,0.0,0.88668483,4.042217,-2.231298
alexnet,1,715,NaN,bear,bear,7,0715_lp_dnn_7_bear_10_n02134418_860.png,n02134418_860.png,1.0,1.622147,1.3016846,0.22660111
alexnet,1,716,NaN,car,car,0,0716_lp_dnn_0_car_10_n03100240_1696.png,n03100240_1696.png,1.0,11.878009,7.383902,3.1778135
alexnet,1,717,NaN,knife,bird,7,0717_lp_dnn_7_bird_10_n02018207_1606.png,n02018207_1606.png,0.0,-0.9958961,4.0204034,-3.5470593
alexnet,1,718,NaN,knife,bird,40,0718_lp_dnn_40_bird_10_n02018795_4730.png,n02018795_4730.png,0.0,-0.24078895,3.91058,-2.9354613
alexnet,1,719,NaN,knife,truck,10,0719_lp_dnn_10_truck_10_n04467665_67861.png,n04467665_67861.png,0.0,-1.591616,4.3395863,-4.1939936
alexnet,1,720,NaN,truck,truck,1,0720_lp_dnn_1_truck_10_n03417042_820.png,n03417042_820.png,1.0,9.677192,4.9594502,3.335947
alexnet,1,721,NaN,bear,elephant,7,0721_lp_dnn_7_elephant_10_n02504013_7774.png,n02504013_7774.png,0.0,1.9103465,2.5097444,-0.42383832
alexnet,1,722,NaN,knife,boat,3,0722_lp_dnn_3_boat_10_n04273569_11445.png,n04273569_11445.png,0.0,-0.98927796,1.970382,-2.0927956
alexnet,1,723,NaN,elephant,elephant,0,0723_lp_dnn_0_elephant_10_n02504458_5482.png,n02504458_5482.png,1.0,16.782856,5.3469114,8.086434
alexnet,1,724,NaN,knife,clock,10,0724_lp_dnn_10_clock_10_n03196217_454.png,n03196217_454.png,0.0,1.2296144,2.654912,-1.0078377
alexnet,1,725,NaN,knife,oven,40,0725_lp_dnn_40_oven_10_n04111531_17781.png,n04111531_17781.png,0.0,0.056990832,3.6978283,-2.574461
alexnet,1,726,NaN,knife,bottle,5,0726_lp_dnn_5_bottle_10_n02823428_4694.png,n02823428_4694.png,0.0,2.350704,3.4878206,-0.8040629
alexnet,1,727,NaN,oven,truck,3,0727_lp_dnn_3_truck_10_n03796401_24833.png,n03796401_24833.png,0.0,4.739105,5.350045,-0.4319998
alexnet,1,728,NaN,knife,knife,1,0728_lp_dnn_1_knife_10_n03041632_81943.png,n03041632_81943.png,1.0,5.7784915,3.0308342,1.9428872
alexnet,1,729,NaN,knife,dog,10,0729_lp_dnn_10_dog_10_n02100735_1764.png,n02100735_1764.png,0.0,0.5892884,2.8444889,-1.5946676
alexnet,1,730,NaN,knife,car,15,0730_lp_dnn_15_car_10_n02814533_36206.png,n02814533_36206.png,0.0,-1.1262711,4.1017876,-3.696796
alexnet,1,731,NaN,knife,airplane,5,0731_lp_dnn_5_airplane_10_n02690373_7489.png,n02690373_7489.png,0.0,0.40863422,4.930828,-3.197674
alexnet,1,732,NaN,bird,oven,10,0732_lp_dnn_10_oven_10_n04111531_3717.png,n04111531_3717.png,0.0,-0.19794562,1.3585209,-1.100588
alexnet,1,733,NaN,oven,oven,7,0733_lp_dnn_7_oven_10_n04111531_2987.png,n04111531_2987.png,1.0,3.4739523,3.1747868,0.21154195
alexnet,1,734,NaN,clock,clock,0,0734_lp_dnn_0_clock_10_n04548280_2169.png,n04548280_2169.png,1.0,8.738723,5.2214546,2.4870842
alexnet,1,735,NaN,knife,keyboard,40,0735_lp_dnn_40_keyboard_10_n03085013_19547.png,n03085013_19547.png,0.0,-0.31689626,3.0810626,-2.4027197
alexnet,1,736,NaN,keyboard,keyboard,1,0736_lp_dnn_1_keyboard_10_n03085013_20303.png,n03085013_20303.png,1.0,9.443924,8.115576,0.939284
alexnet,1,737,NaN,knife,knife,5,0737_lp_dnn_5_knife_10_n03041632_12748.png,n03041632_12748.png,1.0,10.222141,5.168333,3.5735822
alexnet,1,738,NaN,elephant,elephant,1,0738_lp_dnn_1_elephant_10_n02504458_1626.png,n02504458_1626.png,1.0,7.770431,4.81543,2.0895011
alexnet,1,739,NaN,oven,car,5,0739_lp_dnn_5_car_10_n02814533_82372.png,n02814533_82372.png,0.0,0.21766162,2.7840338,-1.8146992
alexnet,1,740,NaN,boat,boat,1,0740_lp_dnn_1_boat_10_n03344393_5417.png,n03344393_5417.png,1.0,8.325266,7.0225286,0.92117435
alexnet,1,741,NaN,bottle,bottle,0,0741_lp_dnn_0_bottle_10_n04591713_5465.png,n04591713_5465.png,1.0,9.807418,6.8153906,2.1156828
alexnet,1,742,NaN,oven,keyboard,5,0742_lp_dnn_5_keyboard_10_n03085013_2594.png,n03085013_2594.png,0.0,4.9602327,5.4211493,-0.3259172
alexnet,1,743,NaN,knife,car,7,0743_lp_dnn_7_car_10_n03100240_1406.png,n03100240_1406.png,0.0,-0.6463883,4.56582,-3.6855881
alexnet,1,744,NaN,knife,cat,7,0744_lp_dnn_7_cat_10_n02123159_6954.png,n02123159_6954.png,0.0,1.5382763,3.2113683,-1.1830547
alexnet,1,745,NaN,knife,bear,15,0745_lp_dnn_15_bear_10_n02134084_8601.png,n02134084_8601.png,0.0,-0.7507832,4.735508,-3.8793936
alexnet,1,746,NaN,knife,cat,5,0746_lp_dnn_5_cat_10_n02123045_1126.png,n02123045_1126.png,0.0,2.3673418,2.7350116,-0.25998184
alexnet,1,747,NaN,cat,car,7,0747_lp_dnn_7_car_10_n04285008_13094.png,n04285008_13094.png,0.0,-1.2512313,1.4228511,-1.8908617
alexnet,1,748,NaN,knife,knife,0,0748_lp_dnn_0_knife_10_n03041632_11741.png,n03041632_11741.png,1.0,6.285459,5.3379087,0.67001927
alexnet,1,749,NaN,bear,dog,5,0749_lp_dnn_5_dog_10_n02091635_7361.png,n02091635_7361.png,0.0,3.2972496,3.3652065,-0.048052803
alexnet,1,750,NaN,knife,dog,3,0750_lp_dnn_3_dog_10_n02113023_12640.png,n02113023_12640.png,0.0,1.5502582,3.238336,-1.1936513
alexnet,1,751,NaN,knife,chair,40,0751_lp_dnn_40_chair_10_n04099969_8018.png,n04099969_8018.png,0.0,-0.16589214,3.3931205,-2.516602
alexnet,1,752,NaN,knife,clock,7,0752_lp_dnn_7_clock_10_n03196217_1272.png,n03196217_1272.png,0.0,1.9666296,4.5056596,-1.7953655
alexnet,1,753,NaN,knife,knife,15,0753_lp_dnn_15_knife_10_n03041632_45264.png,n03041632_45264.png,1.0,6.2926645,3.5321107,1.9520063
alexnet,1,754,NaN,oven,keyboard,7,0754_lp_dnn_7_keyboard_10_n04505470_5150.png,n04505470_5150.png,0.0,2.0748591,2.1203864,-0.032192606
alexnet,1,755,NaN,knife,bear,10,0755_lp_dnn_10_bear_10_n02134418_745.png,n02134418_745.png,0.0,0.34991324,3.0866473,-1.9351631
alexnet,1,756,NaN,bottle,cat,0,0756_lp_dnn_0_cat_10_n02124075_10310.png,n02124075_10310.png,0.0,0.20691837,8.469457,-5.842497
alexnet,1,757,NaN,dog,bear,3,0757_lp_dnn_3_bear_10_n02134418_14961.png,n02134418_14961.png,0.0,1.5365998,2.3042963,-0.5428434
alexnet,1,758,NaN,chair,chair,1,0758_lp_dnn_1_chair_10_n02791124_3883.png,n02791124_3883.png,1.0,7.8424177,5.2896743,1.8050622
alexnet,1,759,NaN,boat,boat,3,0759_lp_dnn_3_boat_10_n02951358_33722.png,n02951358_33722.png,1.0,3.203591,2.7418904,0.3264717
alexnet,1,760,NaN,oven,bottle,1,0760_lp_dnn_1_bottle_10_n04557648_12301.png,n04557648_12301.png,0.0,2.5504014,4.4415836,-1.3372678
alexnet,1,761,NaN,bear,bear,3,0761_lp_dnn_3_bear_10_n02133161_1480.png,n02133161_1480.png,1.0,5.1419616,3.0120533,1.5060726
alexnet,1,762,NaN,knife,dog,1,0762_lp_dnn_1_dog_10_n02091467_3403.png,n02091467_3403.png,0.0,2.2476683,3.1840165,-0.66209817
alexnet,1,763,NaN,knife,bear,40,0763_lp_dnn_40_bear_10_n02132136_25168.png,n02132136_25168.png,0.0,-0.18185607,4.5615644,-3.354105
alexnet,1,764,NaN,cat,dog,5,0764_lp_dnn_5_dog_10_n02113023_8535.png,n02113023_8535.png,0.0,1.353446,2.7867625,-1.0135078
alexnet,1,765,NaN,bicycle,bicycle,0,0765_lp_dnn_0_bicycle_10_n03792782_6546.png,n03792782_6546.png,1.0,6.1235533,4.787592,0.94466734
alexnet,1,766,NaN,bottle,cat,3,0766_lp_dnn_3_cat_10_n02125311_6283.png,n02125311_6283.png,0.0,1.9707927,2.1112914,-0.09934763
alexnet,1,767,NaN,knife,airplane,40,0767_lp_dnn_40_airplane_10_n02690373_9687.png,n02690373_9687.png,0.0,2.0809143,3.3320863,-0.8847123
