subj,session,trial,rt,object_response,category,condition,imagename,filename,is_correct,targ_act,max_nontarg_act,decision_margin
bagnet33,1,1,NaN,clock,chair,40,0001_lp_dnn_40_chair_10_n04099969_7577.png,n04099969_7577.png,0.0,0.30529174,3.8753622,-2.5244212
bagnet33,1,2,NaN,clock,cat,40,0002_lp_dnn_40_cat_10_n02124075_12815.png,n02124075_12815.png,0.0,0.83464265,3.8561175,-2.1365054
bagnet33,1,3,NaN,keyboard,truck,5,0003_lp_dnn_5_truck_10_n04467665_34253.png,n04467665_34253.png,0.0,-2.2666006,6.7183614,-6.353328
bagnet33,1,4,NaN,clock,clock,1,0004_lp_dnn_1_clock_10_n04548280_5320.png,n04548280_5320.png,1.0,6.9242682,3.283905,2.5741255
bagnet33,1,5,NaN,keyboard,dog,3,0005_lp_dnn_3_dog_10_n02108915_3652.png,n02108915_3652.png,0.0,1.2090557,4.705493,-2.4723547
bagnet33,1,6,NaN,keyboard,keyboard,7,0006_lp_dnn_7_keyboard_10_n04505470_578.png,n04505470_578.png,1.0,10.7169895,5.7286057,3.5273201
bagnet33,1,7,NaN,keyboard,cat,7,0007_lp_dnn_7_cat_10_n02123597_3842.png,n02123597_3842.png,0.0,1.5939385,5.356223,-2.6603372
bagnet33,1,8,NaN,bear,bear,1,0008_lp_dnn_1_bear_10_n02134418_14.png,n02134418_14.png,1.0,7.860091,4.7772126,2.1799245
bagnet33,1,9,NaN,clock,knife,10,0009_lp_dnn_10_knife_10_n03041632_29920.png,n03041632_29920.png,0.0,1.161284,3.2747982,-1.4944803
bagnet33,1,10,NaN,keyboard,bird,5,0010_lp_dnn_5_bird_10_n01795545_952.png,n01795545_952.png,0.0,-1.137271,4.841117,-4.227359
bagnet33,1,11,NaN,keyboard,bear,3,0011_lp_dnn_3_bear_10_n02132136_6441.png,n02132136_6441.png,0.0,0.16490252,2.6642199,-1.7672843
bagnet33,1,12,NaN,keyboard,bird,3,0012_lp_dnn_3_bird_10_n01829413_8792.png,n01829413_8792.png,0.0,-0.6679649,3.970625,-3.2799785
bagnet33,1,13,NaN,keyboard,keyboard,7,0013_lp_dnn_7_keyboard_10_n04505470_4458.png,n04505470_4458.png,1.0,11.623675,4.8377967,4.798341
bagnet33,1,14,NaN,keyboard,chair,10,0014_lp_dnn_10_chair_10_n03376595_9176.png,n03376595_9176.png,0.0,0.53338945,3.8199244,-2.323931
bagnet33,1,15,NaN,clock,clock,40,0015_lp_dnn_40_clock_10_n04548280_7662.png,n04548280_7662.png,1.0,4.090221,2.7065215,0.97842324
bagnet33,1,16,NaN,clock,keyboard,40,0016_lp_dnn_40_keyboard_10_n03085013_25809.png,n03085013_25809.png,0.0,0.03112191,3.0046117,-2.1025748
bagnet33,1,17,NaN,keyboard,oven,5,0017_lp_dnn_5_oven_10_n04111531_1580.png,n04111531_1580.png,0.0,-2.890157,6.113866,-6.3668056
bagnet33,1,18,NaN,elephant,elephant,1,0018_lp_dnn_1_elephant_10_n02504458_900.png,n02504458_900.png,1.0,9.387186,2.3655214,4.965067
bagnet33,1,19,NaN,keyboard,dog,7,0019_lp_dnn_7_dog_10_n02106662_2384.png,n02106662_2384.png,0.0,1.2865882,2.8569736,-1.1104302
bagnet33,1,20,NaN,clock,truck,10,0020_lp_dnn_10_truck_10_n03796401_22618.png,n03796401_22618.png,0.0,-2.1585064,3.5906708,-4.065282
bagnet33,1,21,NaN,clock,elephant,15,0021_lp_dnn_15_elephant_10_n02504013_5463.png,n02504013_5463.png,0.0,-2.8275158,3.5782166,-4.5295367
bagnet33,1,22,NaN,clock,chair,10,0022_lp_dnn_10_chair_10_n04429376_16459.png,n04429376_16459.png,0.0,1.3273573,2.641778,-0.9294358
bagnet33,1,23,NaN,cat,cat,1,0023_lp_dnn_1_cat_10_n02123045_12206.png,n02123045_12206.png,1.0,4.6776314,1.9841502,1.9045788
bagnet33,1,24,NaN,keyboard,truck,7,0024_lp_dnn_7_truck_10_n03417042_2633.png,n03417042_2633.png,0.0,-3.016624,4.1064806,-5.0367956
bagnet33,1,25,NaN,knife,keyboard,15,0025_lp_dnn_15_keyboard_10_n03085013_24416.png,n03085013_24416.png,0.0,-0.17677099,2.9468017,-2.2086995
bagnet33,1,26,NaN,keyboard,car,7,0026_lp_dnn_7_car_10_n02814533_44503.png,n02814533_44503.png,0.0,-3.077079,4.700037,-5.4992514
bagnet33,1,27,NaN,keyboard,elephant,5,0027_lp_dnn_5_elephant_10_n02504458_5797.png,n02504458_5797.png,0.0,-2.3193355,5.349111,-5.4224105
bagnet33,1,28,NaN,clock,chair,0,0028_lp_dnn_0_chair_10_n04429376_8237.png,n04429376_8237.png,0.0,4.8196416,5.327439,-0.35906687
bagnet33,1,29,NaN,keyboard,cat,7,0029_lp_dnn_7_cat_10_n02123159_587.png,n02123159_587.png,0.0,2.016806,4.407736,-1.6906428
bagnet33,1,30,NaN,clock,bird,10,0030_lp_dnn_10_bird_10_n02028035_17238.png,n02028035_17238.png,0.0,0.06462915,2.9084961,-2.0109177
bagnet33,1,31,NaN,clock,cat,40,0031_lp_dnn_40_cat_10_n02123159_4348.png,n02123159_4348.png,0.0,0.6449845,3.342149,-1.9071834
bagnet33,1,32,NaN,keyboard,boat,5,0032_lp_dnn_5_boat_10_n04273569_22332.png,n04273569_22332.png,0.0,-1.6577787,4.232139,-4.164801
bagnet33,1,33,NaN,elephant,elephant,1,0033_lp_dnn_1_elephant_10_n02504013_1244.png,n02504013_1244.png,1.0,9.000542,3.0222516,4.2272897
bagnet33,1,34,NaN,keyboard,bicycle,7,0034_lp_dnn_7_bicycle_10_n03792782_30229.png,n03792782_30229.png,0.0,-1.649981,3.6326833,-3.7354078
bagnet33,1,35,NaN,knife,keyboard,10,0035_lp_dnn_10_keyboard_10_n03085013_7573.png,n03085013_7573.png,0.0,1.757192,3.0683956,-0.927161
bagnet33,1,36,NaN,keyboard,keyboard,3,0036_lp_dnn_3_keyboard_10_n03085013_24578.png,n03085013_24578.png,1.0,9.415789,5.0255885,3.1043403
bagnet33,1,37,NaN,clock,truck,15,0037_lp_dnn_15_truck_10_n03417042_1336.png,n03417042_1336.png,0.0,-2.756005,3.434491,-4.3773417
bagnet33,1,38,NaN,keyboard,knife,3,0038_lp_dnn_3_knife_10_n03041632_7495.png,n03041632_7495.png,0.0,2.3786664,5.628483,-2.2979672
bagnet33,1,39,NaN,car,car,0,0039_lp_dnn_0_car_10_n03100240_9625.png,n03100240_9625.png,1.0,16.653214,11.176504,3.8726184
bagnet33,1,40,NaN,clock,elephant,10,0040_lp_dnn_10_elephant_10_n02504458_6107.png,n02504458_6107.png,0.0,-2.4111328,2.7635634,-3.6590626
bagnet33,1,41,NaN,bicycle,bicycle,0,0041_lp_dnn_0_bicycle_10_n03792782_33649.png,n03792782_33649.png,1.0,16.363905,3.228989,9.287788
bagnet33,1,42,NaN,clock,clock,1,0042_lp_dnn_1_clock_10_n03196217_8282.png,n03196217_8282.png,1.0,30.318197,6.0368285,17.169521
bagnet33,1,43,NaN,keyboard,keyboard,7,0043_lp_dnn_7_keyboard_10_n03085013_21534.png,n03085013_21534.png,1.0,9.63232,3.5151577,4.325487
bagnet33,1,44,NaN,clock,elephant,15,0044_lp_dnn_15_elephant_10_n02504013_22813.png,n02504013_22813.png,0.0,-2.4003482,3.671848,-4.293691
bagnet33,1,45,NaN,keyboard,truck,10,0045_lp_dnn_10_truck_10_n03796401_16425.png,n03796401_16425.png,0.0,-2.9968133,3.5889468,-4.6568356
bagnet33,1,46,NaN,knife,airplane,15,0046_lp_dnn_15_airplane_10_n02690373_9427.png,n02690373_9427.png,0.0,0.9390387,3.2857041,-1.659343
bagnet33,1,47,NaN,keyboard,bird,7,0047_lp_dnn_7_bird_10_n02009912_11907.png,n02009912_11907.png,0.0,-1.0749365,4.2644854,-3.7755413
bagnet33,1,48,NaN,airplane,airplane,1,0048_lp_dnn_1_airplane_10_n02690373_5773.png,n02690373_5773.png,1.0,13.263864,4.0067086,6.545797
bagnet33,1,49,NaN,knife,chair,40,0049_lp_dnn_40_chair_10_n02791124_2972.png,n02791124_2972.png,0.0,0.31168258,3.9117794,-2.5456529
bagnet33,1,50,NaN,bicycle,bird,1,0050_lp_dnn_1_bird_10_n01819313_18188.png,n01819313_18188.png,0.0,1.7137216,3.3368793,-1.1477457
bagnet33,1,51,NaN,keyboard,car,5,0051_lp_dnn_5_car_10_n04285008_7428.png,n04285008_7428.png,0.0,-2.8108318,6.82487,-6.8134704
bagnet33,1,52,NaN,keyboard,bottle,7,0052_lp_dnn_7_bottle_10_n04591713_6923.png,n04591713_6923.png,0.0,2.1895926,7.7414665,-3.925768
bagnet33,1,53,NaN,knife,knife,0,0053_lp_dnn_0_knife_10_n03041632_22570.png,n03041632_22570.png,1.0,7.7886143,7.467758,0.22687952
bagnet33,1,54,NaN,elephant,bear,0,0054_lp_dnn_0_bear_10_n02132136_7586.png,n02132136_7586.png,0.0,11.844932,12.054651,-0.1482942
bagnet33,1,55,NaN,keyboard,clock,5,0055_lp_dnn_5_clock_10_n04548280_9144.png,n04548280_9144.png,0.0,5.7620807,6.2704735,-0.359488
bagnet33,1,56,NaN,airplane,bottle,0,0056_lp_dnn_0_bottle_10_n04591713_2680.png,n04591713_2680.png,0.0,12.267321,12.892194,-0.44185206
bagnet33,1,57,NaN,keyboard,cat,3,0057_lp_dnn_3_cat_10_n02123045_1596.png,n02123045_1596.png,0.0,1.3085778,4.324644,-2.132681
bagnet33,1,58,NaN,clock,cat,10,0058_lp_dnn_10_cat_10_n02123597_19450.png,n02123597_19450.png,0.0,2.3336174,2.8227787,-0.34588924
bagnet33,1,59,NaN,knife,chair,15,0059_lp_dnn_15_chair_10_n03376595_3462.png,n03376595_3462.png,0.0,0.33475798,3.1200044,-1.9694667
bagnet33,1,60,NaN,keyboard,bottle,3,0060_lp_dnn_3_bottle_10_n04591713_3683.png,n04591713_3683.png,0.0,3.220052,5.871372,-1.8747666
bagnet33,1,61,NaN,keyboard,clock,7,0061_lp_dnn_7_clock_10_n03196217_4309.png,n03196217_4309.png,0.0,4.474569,5.754759,-0.90523106
bagnet33,1,62,NaN,clock,bear,15,0062_lp_dnn_15_bear_10_n02134084_4923.png,n02134084_4923.png,0.0,-1.2313293,3.9654229,-3.6746588
bagnet33,1,63,NaN,clock,chair,1,0063_lp_dnn_1_chair_10_n04429376_5238.png,n04429376_5238.png,0.0,2.1330986,4.7105217,-1.8225133
bagnet33,1,64,NaN,clock,clock,0,0064_lp_dnn_0_clock_10_n03196217_2414.png,n03196217_2414.png,1.0,8.822188,4.0458064,3.377412
bagnet33,1,65,NaN,keyboard,bird,3,0065_lp_dnn_3_bird_10_n01797886_2711.png,n01797886_2711.png,0.0,1.2496765,4.415202,-2.2383647
bagnet33,1,66,NaN,clock,truck,15,0066_lp_dnn_15_truck_10_n04467665_68463.png,n04467665_68463.png,0.0,-2.079878,3.168641,-3.7112634
bagnet33,1,67,NaN,truck,truck,0,0067_lp_dnn_0_truck_10_n03417042_10099.png,n03417042_10099.png,1.0,13.446776,10.152564,2.32936
bagnet33,1,68,NaN,clock,bear,10,0068_lp_dnn_10_bear_10_n02134418_3793.png,n02134418_3793.png,0.0,-0.07496956,2.9517329,-2.1402018
bagnet33,1,69,NaN,keyboard,bottle,10,0069_lp_dnn_10_bottle_10_n03937543_9524.png,n03937543_9524.png,0.0,1.1678747,3.3833146,-1.5665525
bagnet33,1,70,NaN,keyboard,cat,3,0070_lp_dnn_3_cat_10_n02123394_1038.png,n02123394_1038.png,0.0,1.581182,4.7739425,-2.2576227
bagnet33,1,71,NaN,keyboard,dog,5,0071_lp_dnn_5_dog_10_n02110185_7886.png,n02110185_7886.png,0.0,-0.45243028,4.621866,-3.5880694
bagnet33,1,72,NaN,clock,clock,3,0072_lp_dnn_3_clock_10_n02708093_4912.png,n02708093_4912.png,1.0,10.245753,5.6292906,3.264332
bagnet33,1,73,NaN,clock,dog,15,0073_lp_dnn_15_dog_10_n02108422_932.png,n02108422_932.png,0.0,-0.8602002,3.7959766,-3.2924144
bagnet33,1,74,NaN,truck,truck,0,0074_lp_dnn_0_truck_10_n04467665_18621.png,n04467665_18621.png,1.0,11.433307,7.137306,3.0377312
bagnet33,1,75,NaN,truck,truck,1,0075_lp_dnn_1_truck_10_n04467665_50932.png,n04467665_50932.png,1.0,10.149867,6.508112,2.5751097
bagnet33,1,76,NaN,dog,dog,1,0076_lp_dnn_1_dog_10_n02102480_7293.png,n02102480_7293.png,1.0,6.246431,3.527717,1.922421
bagnet33,1,77,NaN,knife,bottle,1,0077_lp_dnn_1_bottle_10_n04591713_4764.png,n04591713_4764.png,0.0,3.3651264,3.4356575,-0.049873043
bagnet33,1,78,NaN,clock,clock,15,0078_lp_dnn_15_clock_10_n02708093_274.png,n02708093_274.png,1.0,4.0421147,1.9265488,1.4959309
bagnet33,1,79,NaN,keyboard,bottle,5,0079_lp_dnn_5_bottle_10_n04557648_29772.png,n04557648_29772.png,0.0,2.2120616,8.354155,-4.3431153
bagnet33,1,80,NaN,clock,car,15,0080_lp_dnn_15_car_10_n03100240_22499.png,n03100240_22499.png,0.0,-2.0857646,3.9087906,-4.238791
bagnet33,1,81,NaN,clock,clock,3,0081_lp_dnn_3_clock_10_n02708093_6252.png,n02708093_6252.png,1.0,9.053079,7.354114,1.2013494
bagnet33,1,82,NaN,clock,airplane,10,0082_lp_dnn_10_airplane_10_n02690373_5427.png,n02690373_5427.png,0.0,0.2788532,3.4396152,-2.2349963
bagnet33,1,83,NaN,clock,dog,15,0083_lp_dnn_15_dog_10_n02107142_46045.png,n02107142_46045.png,0.0,-0.9624125,3.9252179,-3.4560766
bagnet33,1,84,NaN,clock,keyboard,40,0084_lp_dnn_40_keyboard_10_n03085013_23793.png,n03085013_23793.png,0.0,-0.35352963,3.1043217,-2.4450703
bagnet33,1,85,NaN,bicycle,bicycle,3,0085_lp_dnn_3_bicycle_10_n03792782_12421.png,n03792782_12421.png,1.0,5.091316,4.930785,0.11351259
bagnet33,1,86,NaN,airplane,airplane,0,0086_lp_dnn_0_airplane_10_n02690373_1310.png,n02690373_1310.png,1.0,17.037964,6.0315933,7.7826796
bagnet33,1,87,NaN,clock,oven,15,0087_lp_dnn_15_oven_10_n04111531_8793.png,n04111531_8793.png,0.0,-3.1795318,3.4836628,-4.7115903
bagnet33,1,88,NaN,keyboard,airplane,5,0088_lp_dnn_5_airplane_10_n02690373_633.png,n02690373_633.png,0.0,-0.8961463,4.329763,-3.695276
bagnet33,1,89,NaN,keyboard,clock,5,0089_lp_dnn_5_clock_10_n02708093_2307.png,n02708093_2307.png,0.0,3.2088482,6.5222235,-2.34291
bagnet33,1,90,NaN,clock,oven,10,0090_lp_dnn_10_oven_10_n04111531_13795.png,n04111531_13795.png,0.0,-1.5619524,4.051046,-3.9689891
bagnet33,1,91,NaN,keyboard,boat,3,0091_lp_dnn_3_boat_10_n03662601_1427.png,n03662601_1427.png,0.0,-0.42852888,6.5619826,-4.943038
bagnet33,1,92,NaN,keyboard,boat,5,0092_lp_dnn_5_boat_10_n04612504_15944.png,n04612504_15944.png,0.0,-1.9810832,5.9563055,-5.6125813
bagnet33,1,93,NaN,clock,airplane,40,0093_lp_dnn_40_airplane_10_n02690373_3561.png,n02690373_3561.png,0.0,1.0396736,3.2288532,-1.5479838
bagnet33,1,94,NaN,bear,elephant,7,0094_lp_dnn_7_elephant_10_n02504458_1848.png,n02504458_1848.png,0.0,-0.7709415,3.524636,-3.037432
bagnet33,1,95,NaN,keyboard,oven,5,0095_lp_dnn_5_oven_10_n04111531_4155.png,n04111531_4155.png,0.0,-1.818813,6.940707,-6.1939163
bagnet33,1,96,NaN,car,car,0,0096_lp_dnn_0_car_10_n03100240_8327.png,n03100240_8327.png,1.0,13.21283,10.511101,1.9104108
bagnet33,1,97,NaN,chair,chair,0,0097_lp_dnn_0_chair_10_n04429376_24319.png,n04429376_24319.png,1.0,6.89405,4.554945,1.6539972
bagnet33,1,98,NaN,keyboard,chair,3,0098_lp_dnn_3_chair_10_n03376595_5112.png,n03376595_5112.png,0.0,1.2505977,8.699287,-5.267019
bagnet33,1,99,NaN,cat,cat,1,0099_lp_dnn_1_cat_10_n02124075_2268.png,n02124075_2268.png,1.0,3.5312426,2.8220332,0.50148684
bagnet33,1,100,NaN,keyboard,boat,3,0100_lp_dnn_3_boat_10_n04273569_1137.png,n04273569_1137.png,0.0,-0.9600254,2.6651607,-2.5633936
bagnet33,1,101,NaN,chair,chair,1,0101_lp_dnn_1_chair_10_n02791124_15383.png,n02791124_15383.png,1.0,9.03316,5.2385397,2.683202
bagnet33,1,102,NaN,clock,clock,15,0102_lp_dnn_15_clock_10_n04548280_8998.png,n04548280_8998.png,1.0,3.6424167,2.257752,0.9791059
bagnet33,1,103,NaN,dog,dog,0,0103_lp_dnn_0_dog_10_n02097047_2800.png,n02097047_2800.png,1.0,7.6519527,7.041235,0.43184268
bagnet33,1,104,NaN,clock,bicycle,15,0104_lp_dnn_15_bicycle_10_n03792782_18294.png,n03792782_18294.png,0.0,-0.97230256,3.4759886,-3.145417
bagnet33,1,105,NaN,elephant,elephant,0,0105_lp_dnn_0_elephant_10_n02504013_24486.png,n02504013_24486.png,1.0,13.7585125,2.7379892,7.792687
bagnet33,1,106,NaN,keyboard,airplane,7,0106_lp_dnn_7_airplane_10_n02690373_2923.png,n02690373_2923.png,0.0,-1.2888519,3.9999576,-3.739753
bagnet33,1,107,NaN,knife,airplane,3,0107_lp_dnn_3_airplane_10_n02690373_15392.png,n02690373_15392.png,0.0,0.72636306,3.4246411,-1.9079707
bagnet33,1,108,NaN,keyboard,oven,5,0108_lp_dnn_5_oven_10_n04111531_6080.png,n04111531_6080.png,0.0,-1.0409702,5.622821,-4.712012
bagnet33,1,109,NaN,clock,bear,15,0109_lp_dnn_15_bear_10_n02134084_22736.png,n02134084_22736.png,0.0,-1.4668347,4.1866083,-3.997588
bagnet33,1,110,NaN,knife,knife,1,0110_lp_dnn_1_knife_10_n03041632_33326.png,n03041632_33326.png,1.0,9.227562,2.9094899,4.4675517
bagnet33,1,111,NaN,knife,truck,40,0111_lp_dnn_40_truck_10_n04467665_66876.png,n04467665_66876.png,0.0,-2.5989814,3.552381,-4.34967
bagnet33,1,112,NaN,knife,truck,40,0112_lp_dnn_40_truck_10_n03796401_10234.png,n03796401_10234.png,0.0,-2.3519444,3.655451,-4.2478704
bagnet33,1,113,NaN,keyboard,bicycle,7,0113_lp_dnn_7_bicycle_10_n03792782_5416.png,n03792782_5416.png,0.0,-2.0643225,5.938288,-5.658701
bagnet33,1,114,NaN,keyboard,knife,7,0114_lp_dnn_7_knife_10_n03041632_25772.png,n03041632_25772.png,0.0,1.7309611,3.441668,-1.2096525
bagnet33,1,115,NaN,clock,bicycle,10,0115_lp_dnn_10_bicycle_10_n03792782_7108.png,n03792782_7108.png,0.0,-1.5864925,2.3090909,-2.7545934
bagnet33,1,116,NaN,chair,chair,0,0116_lp_dnn_0_chair_10_n03376595_1981.png,n03376595_1981.png,1.0,9.074624,5.093433,2.8151274
bagnet33,1,117,NaN,clock,oven,15,0117_lp_dnn_15_oven_10_n04111531_6508.png,n04111531_6508.png,0.0,-2.2065961,3.9800975,-4.3746533
bagnet33,1,118,NaN,clock,bird,15,0118_lp_dnn_15_bird_10_n01843383_2843.png,n01843383_2843.png,0.0,-0.2483719,3.8877163,-2.9246562
bagnet33,1,119,NaN,keyboard,cat,5,0119_lp_dnn_5_cat_10_n02123597_5887.png,n02123597_5887.png,0.0,1.510271,4.882223,-2.3843303
bagnet33,1,120,NaN,clock,clock,40,0120_lp_dnn_40_clock_10_n04548280_9801.png,n04548280_9801.png,1.0,3.485328,3.2280784,0.18190293
bagnet33,1,121,NaN,bird,bird,1,0121_lp_dnn_1_bird_10_n01530575_10332.png,n01530575_10332.png,1.0,2.7071714,2.075762,0.44647387
bagnet33,1,122,NaN,clock,elephant,15,0122_lp_dnn_15_elephant_10_n02504013_5887.png,n02504013_5887.png,0.0,-2.6831794,3.5137455,-4.381888
bagnet33,1,123,NaN,keyboard,cat,3,0123_lp_dnn_3_cat_10_n02124075_8693.png,n02124075_8693.png,0.0,3.0099335,3.9721968,-0.68042296
bagnet33,1,124,NaN,clock,boat,15,0124_lp_dnn_15_boat_10_n04612504_26151.png,n04612504_26151.png,0.0,-1.3603842,3.9878495,-3.7817724
bagnet33,1,125,NaN,keyboard,cat,7,0125_lp_dnn_7_cat_10_n02125311_53412.png,n02125311_53412.png,0.0,2.1908004,4.53045,-1.654382
bagnet33,1,126,NaN,clock,knife,7,0126_lp_dnn_7_knife_10_n03041632_46914.png,n03041632_46914.png,0.0,2.4569016,3.9617126,-1.0640621
bagnet33,1,127,NaN,clock,bicycle,15,0127_lp_dnn_15_bicycle_10_n03792782_5629.png,n03792782_5629.png,0.0,-1.5211554,3.3502862,-3.4446297
bagnet33,1,128,NaN,clock,bottle,40,0128_lp_dnn_40_bottle_10_n02823428_79.png,n02823428_79.png,0.0,2.1438222,3.7770967,-1.1548995
bagnet33,1,129,NaN,keyboard,dog,3,0129_lp_dnn_3_dog_10_n02101006_5024.png,n02101006_5024.png,0.0,2.6794877,3.3174725,-0.45112336
bagnet33,1,130,NaN,clock,oven,15,0130_lp_dnn_15_oven_10_n04111531_2350.png,n04111531_2350.png,0.0,-2.7411742,4.030062,-4.787987
bagnet33,1,131,NaN,clock,airplane,7,0131_lp_dnn_7_airplane_10_n02690373_4839.png,n02690373_4839.png,0.0,-0.22350425,3.2588165,-2.4623728
bagnet33,1,132,NaN,keyboard,car,5,0132_lp_dnn_5_car_10_n03100240_2075.png,n03100240_2075.png,0.0,-2.6455898,7.2015114,-6.962952
bagnet33,1,133,NaN,keyboard,cat,5,0133_lp_dnn_5_cat_10_n02123159_3729.png,n02123159_3729.png,0.0,0.6869592,6.1300526,-3.8488483
bagnet33,1,134,NaN,clock,knife,10,0134_lp_dnn_10_knife_10_n03041632_3079.png,n03041632_3079.png,0.0,1.447695,3.5920298,-1.5162737
bagnet33,1,135,NaN,clock,elephant,15,0135_lp_dnn_15_elephant_10_n02504013_2052.png,n02504013_2052.png,0.0,-2.6127672,3.4359648,-4.277099
bagnet33,1,136,NaN,clock,cat,40,0136_lp_dnn_40_cat_10_n02123159_3724.png,n02123159_3724.png,0.0,0.8124164,3.186734,-1.6788962
bagnet33,1,137,NaN,clock,keyboard,15,0137_lp_dnn_15_keyboard_10_n03085013_7955.png,n03085013_7955.png,0.0,1.6696068,3.1392462,-1.039192
bagnet33,1,138,NaN,clock,bird,40,0138_lp_dnn_40_bird_10_n02056570_9872.png,n02056570_9872.png,0.0,-0.23064837,4.0247645,-3.0090315
bagnet33,1,139,NaN,clock,cat,10,0139_lp_dnn_10_cat_10_n02125311_44401.png,n02125311_44401.png,0.0,0.562629,3.0129178,-1.7326158
bagnet33,1,140,NaN,clock,airplane,10,0140_lp_dnn_10_airplane_10_n02690373_10657.png,n02690373_10657.png,0.0,0.8330455,2.68974,-1.3128812
bagnet33,1,141,NaN,keyboard,bird,5,0141_lp_dnn_5_bird_10_n02025239_7919.png,n02025239_7919.png,0.0,0.027224662,8.539478,-6.0190725
bagnet33,1,142,NaN,clock,bear,40,0142_lp_dnn_40_bear_10_n02134084_23165.png,n02134084_23165.png,0.0,-2.047731,2.9655266,-3.5449085
bagnet33,1,143,NaN,knife,knife,40,0143_lp_dnn_40_knife_10_n03041632_28658.png,n03041632_28658.png,1.0,4.026523,3.521633,0.3570113
bagnet33,1,144,NaN,keyboard,keyboard,5,0144_lp_dnn_5_keyboard_10_n04505470_4371.png,n04505470_4371.png,1.0,7.017768,4.8823905,1.5099399
bagnet33,1,145,NaN,keyboard,keyboard,0,0145_lp_dnn_0_keyboard_10_n03085013_14237.png,n03085013_14237.png,1.0,15.727861,6.376697,6.6122713
bagnet33,1,146,NaN,clock,clock,0,0146_lp_dnn_0_clock_10_n03196217_6163.png,n03196217_6163.png,1.0,9.288853,7.1706743,1.4977783
bagnet33,1,147,NaN,clock,chair,15,0147_lp_dnn_15_chair_10_n02791124_3857.png,n02791124_3857.png,0.0,0.41122264,4.052294,-2.5746262
bagnet33,1,148,NaN,clock,truck,40,0148_lp_dnn_40_truck_10_n03417042_20650.png,n03417042_20650.png,0.0,-2.2509274,3.7629604,-4.252461
bagnet33,1,149,NaN,truck,truck,0,0149_lp_dnn_0_truck_10_n04467665_17101.png,n04467665_17101.png,1.0,13.74177,10.312015,2.4252033
bagnet33,1,150,NaN,clock,chair,1,0150_lp_dnn_1_chair_10_n04429376_19354.png,n04429376_19354.png,0.0,3.937184,8.533458,-3.2500563
bagnet33,1,151,NaN,knife,knife,0,0151_lp_dnn_0_knife_10_n03041632_42156.png,n03041632_42156.png,1.0,22.427383,4.3921266,12.752853
bagnet33,1,152,NaN,car,car,1,0152_lp_dnn_1_car_10_n04285008_39.png,n04285008_39.png,1.0,6.7491837,6.1217837,0.44363874
bagnet33,1,153,NaN,clock,boat,1,0153_lp_dnn_1_boat_10_n03662601_1319.png,n03662601_1319.png,0.0,5.2149005,6.140823,-0.654726
bagnet33,1,154,NaN,keyboard,truck,7,0154_lp_dnn_7_truck_10_n03796401_4119.png,n03796401_4119.png,0.0,-2.7538667,3.554342,-4.460577
bagnet33,1,155,NaN,clock,bottle,15,0155_lp_dnn_15_bottle_10_n03937543_2333.png,n03937543_2333.png,0.0,1.6278261,3.621538,-1.4097672
bagnet33,1,156,NaN,bottle,bottle,3,0156_lp_dnn_3_bottle_10_n04591713_7134.png,n04591713_7134.png,1.0,3.5799947,2.78442,0.56255627
bagnet33,1,157,NaN,dog,dog,0,0157_lp_dnn_0_dog_10_n02107312_3673.png,n02107312_3673.png,1.0,5.1042423,4.568467,0.37885028
bagnet33,1,158,NaN,keyboard,oven,3,0158_lp_dnn_3_oven_10_n04111531_8373.png,n04111531_8373.png,0.0,-0.9183063,4.890195,-4.1072307
bagnet33,1,159,NaN,keyboard,car,3,0159_lp_dnn_3_car_10_n03100240_13707.png,n03100240_13707.png,0.0,-1.7526379,5.8468466,-5.373647
bagnet33,1,160,NaN,chair,chair,1,0160_lp_dnn_1_chair_10_n02791124_241.png,n02791124_241.png,1.0,6.5947437,5.161229,1.0136479
bagnet33,1,161,NaN,keyboard,airplane,7,0161_lp_dnn_7_airplane_10_n02690373_5628.png,n02690373_5628.png,0.0,-0.5572996,5.296015,-4.1389184
bagnet33,1,162,NaN,clock,boat,40,0162_lp_dnn_40_boat_10_n02951358_1461.png,n02951358_1461.png,0.0,-0.11315353,3.7706215,-2.7462437
bagnet33,1,163,NaN,keyboard,keyboard,7,0163_lp_dnn_7_keyboard_10_n04505470_4501.png,n04505470_4501.png,1.0,9.725108,5.180649,3.213418
bagnet33,1,164,NaN,dog,bird,1,0164_lp_dnn_1_bird_10_n02033041_11415.png,n02033041_11415.png,0.0,1.5631499,2.1823301,-0.4378265
bagnet33,1,165,NaN,knife,knife,1,0165_lp_dnn_1_knife_10_n03041632_6446.png,n03041632_6446.png,1.0,5.229766,3.4655766,1.2474701
bagnet33,1,166,NaN,bird,bird,0,0166_lp_dnn_0_bird_10_n02011460_3892.png,n02011460_3892.png,1.0,3.842559,2.2041605,1.1585228
bagnet33,1,167,NaN,cat,cat,1,0167_lp_dnn_1_cat_10_n02125311_3174.png,n02125311_3174.png,1.0,8.034841,3.3346925,3.3235066
bagnet33,1,168,NaN,clock,dog,10,0168_lp_dnn_10_dog_10_n02088364_7448.png,n02088364_7448.png,0.0,-0.17058873,3.1912794,-2.3772
bagnet33,1,169,NaN,cat,cat,1,0169_lp_dnn_1_cat_10_n02123394_4299.png,n02123394_4299.png,1.0,8.430896,2.9386342,3.8836157
bagnet33,1,170,NaN,clock,keyboard,15,0170_lp_dnn_15_keyboard_10_n03085013_23731.png,n03085013_23731.png,0.0,1.2726488,3.596289,-1.6430618
bagnet33,1,171,NaN,keyboard,knife,5,0171_lp_dnn_5_knife_10_n03041632_29285.png,n03041632_29285.png,0.0,1.5875428,8.0937,-4.6005483
bagnet33,1,172,NaN,keyboard,keyboard,0,0172_lp_dnn_0_keyboard_10_n03085013_12164.png,n03085013_12164.png,1.0,35.790638,9.322985,18.715458
bagnet33,1,173,NaN,keyboard,bird,5,0173_lp_dnn_5_bird_10_n01582220_9023.png,n01582220_9023.png,0.0,-0.79998165,6.009345,-4.814921
bagnet33,1,174,NaN,keyboard,bottle,3,0174_lp_dnn_3_bottle_10_n03983396_12728.png,n03983396_12728.png,0.0,1.2863153,4.6959715,-2.410991
bagnet33,1,175,NaN,keyboard,dog,7,0175_lp_dnn_7_dog_10_n02111277_50807.png,n02111277_50807.png,0.0,1.9273537,3.3086045,-0.9766918
bagnet33,1,176,NaN,keyboard,boat,5,0176_lp_dnn_5_boat_10_n04273569_2037.png,n04273569_2037.png,0.0,-1.1659672,3.6269782,-3.3891242
bagnet33,1,177,NaN,clock,keyboard,40,0177_lp_dnn_40_keyboard_10_n04505470_4672.png,n04505470_4672.png,0.0,0.51170325,4.254579,-2.646613
bagnet33,1,178,NaN,clock,boat,10,0178_lp_dnn_10_boat_10_n03662601_12034.png,n03662601_12034.png,0.0,-1.0620512,2.8288288,-2.7512677
bagnet33,1,179,NaN,clock,airplane,15,0179_lp_dnn_15_airplane_10_n02690373_5845.png,n02690373_5845.png,0.0,-0.2987074,2.9896038,-2.3251872
bagnet33,1,180,NaN,keyboard,truck,5,0180_lp_dnn_5_truck_10_n03417042_12128.png,n03417042_12128.png,0.0,-2.9839804,5.952489,-6.319038
bagnet33,1,181,NaN,keyboard,keyboard,10,0181_lp_dnn_10_keyboard_10_n03085013_2432.png,n03085013_2432.png,1.0,3.5825357,3.4394424,0.101182275
bagnet33,1,182,NaN,keyboard,chair,5,0182_lp_dnn_5_chair_10_n03376595_9692.png,n03376595_9692.png,0.0,1.1672578,4.0440545,-2.0342026
bagnet33,1,183,NaN,keyboard,chair,3,0183_lp_dnn_3_chair_10_n03376595_12583.png,n03376595_12583.png,0.0,-0.15986264,3.9103484,-2.8780737
bagnet33,1,184,NaN,bear,bear,0,0184_lp_dnn_0_bear_10_n02133161_2135.png,n02133161_2135.png,1.0,3.6069198,2.8556166,0.5312516
bagnet33,1,185,NaN,clock,airplane,10,0185_lp_dnn_10_airplane_10_n02690373_5176.png,n02690373_5176.png,0.0,-0.053940475,2.5018654,-1.8072277
bagnet33,1,186,NaN,elephant,elephant,0,0186_lp_dnn_0_elephant_10_n02504013_10990.png,n02504013_10990.png,1.0,12.13003,3.7249446,5.9432926
bagnet33,1,187,NaN,clock,boat,10,0187_lp_dnn_10_boat_10_n02951358_3155.png,n02951358_3155.png,0.0,-1.2516901,3.1391869,-3.1048188
bagnet33,1,188,NaN,knife,knife,1,0188_lp_dnn_1_knife_10_n03041632_2644.png,n03041632_2644.png,1.0,8.095356,4.997503,2.1905131
bagnet33,1,189,NaN,keyboard,airplane,5,0189_lp_dnn_5_airplane_10_n02690373_5184.png,n02690373_5184.png,0.0,-1.4274362,6.4256926,-5.553001
bagnet33,1,190,NaN,chair,chair,0,0190_lp_dnn_0_chair_10_n04099969_16161.png,n04099969_16161.png,1.0,11.248929,4.9138813,4.479555
bagnet33,1,191,NaN,clock,boat,10,0191_lp_dnn_10_boat_10_n03344393_5343.png,n03344393_5343.png,0.0,-1.3153106,3.546944,-3.4381332
bagnet33,1,192,NaN,oven,oven,0,0192_lp_dnn_0_oven_10_n04111531_15052.png,n04111531_15052.png,1.0,11.291968,4.573799,4.750463
bagnet33,1,193,NaN,knife,bicycle,15,0193_lp_dnn_15_bicycle_10_n02835271_317.png,n02835271_317.png,0.0,-1.1934379,2.997415,-2.9633808
bagnet33,1,194,NaN,bird,bird,0,0194_lp_dnn_0_bird_10_n02002556_15721.png,n02002556_15721.png,1.0,3.1518881,1.9523056,0.848233
bagnet33,1,195,NaN,keyboard,chair,5,0195_lp_dnn_5_chair_10_n03376595_11280.png,n03376595_11280.png,0.0,0.57817817,8.705809,-5.7471027
bagnet33,1,196,NaN,keyboard,keyboard,3,0196_lp_dnn_3_keyboard_10_n04505470_4621.png,n04505470_4621.png,1.0,6.8200135,4.552132,1.6036344
bagnet33,1,197,NaN,keyboard,boat,7,0197_lp_dnn_7_boat_10_n03662601_6042.png,n03662601_6042.png,0.0,-1.544646,4.320201,-4.1470733
bagnet33,1,198,NaN,dog,dog,1,0198_lp_dnn_1_dog_10_n02086646_2810.png,n02086646_2810.png,1.0,5.0806956,1.970544,2.1992095
bagnet33,1,199,NaN,clock,elephant,15,0199_lp_dnn_15_elephant_10_n02504458_7835.png,n02504458_7835.png,0.0,-2.5920775,3.7820613,-4.507197
bagnet33,1,200,NaN,clock,cat,15,0200_lp_dnn_15_cat_10_n02123159_6281.png,n02123159_6281.png,0.0,1.2691478,3.6981125,-1.7175374
bagnet33,1,201,NaN,keyboard,knife,5,0201_lp_dnn_5_knife_10_n03041632_1661.png,n03041632_1661.png,0.0,1.0014999,5.251309,-3.005069
bagnet33,1,202,NaN,clock,clock,1,0202_lp_dnn_1_clock_10_n02708093_2806.png,n02708093_2806.png,1.0,14.187122,4.784763,6.648472
bagnet33,1,203,NaN,boat,boat,1,0203_lp_dnn_1_boat_10_n04273569_1201.png,n04273569_1201.png,1.0,5.4733014,4.7706842,0.49682537
bagnet33,1,204,NaN,knife,bird,40,0204_lp_dnn_40_bird_10_n01614925_13283.png,n01614925_13283.png,0.0,0.19499792,4.1830797,-2.8199997
bagnet33,1,205,NaN,clock,car,40,0205_lp_dnn_40_car_10_n02814533_51701.png,n02814533_51701.png,0.0,-1.5531446,3.3517113,-3.4682567
bagnet33,1,206,NaN,keyboard,chair,7,0206_lp_dnn_7_chair_10_n04099969_34325.png,n04099969_34325.png,0.0,1.4377384,5.9113536,-3.1633236
bagnet33,1,207,NaN,truck,truck,0,0207_lp_dnn_0_truck_10_n04467665_71305.png,n04467665_71305.png,1.0,11.518444,10.716927,0.56675845
bagnet33,1,208,NaN,knife,boat,5,0208_lp_dnn_5_boat_10_n03344393_5916.png,n03344393_5916.png,0.0,-0.7240392,3.529633,-3.0078003
bagnet33,1,209,NaN,keyboard,car,7,0209_lp_dnn_7_car_10_n02814533_28783.png,n02814533_28783.png,0.0,-2.880706,6.7926726,-6.8401117
bagnet33,1,210,NaN,clock,boat,15,0210_lp_dnn_15_boat_10_n03662601_16825.png,n03662601_16825.png,0.0,-1.2229407,3.70874,-3.4872248
bagnet33,1,211,NaN,elephant,dog,0,0211_lp_dnn_0_dog_10_n02100583_10960.png,n02100583_10960.png,0.0,4.7132826,10.126873,-3.8279865
bagnet33,1,212,NaN,clock,elephant,10,0212_lp_dnn_10_elephant_10_n02504458_4587.png,n02504458_4587.png,0.0,-2.3319626,2.6112244,-3.4953609
bagnet33,1,213,NaN,keyboard,bottle,10,0213_lp_dnn_10_bottle_10_n03983396_12670.png,n03983396_12670.png,0.0,1.3961161,3.4299,-1.4381024
bagnet33,1,214,NaN,keyboard,bicycle,3,0214_lp_dnn_3_bicycle_10_n02835271_18205.png,n02835271_18205.png,0.0,-1.6717315,9.776663,-8.095238
bagnet33,1,215,NaN,clock,truck,40,0215_lp_dnn_40_truck_10_n04467665_67527.png,n04467665_67527.png,0.0,-2.6013894,3.3458793,-4.2053537
bagnet33,1,216,NaN,clock,keyboard,10,0216_lp_dnn_10_keyboard_10_n03085013_4374.png,n03085013_4374.png,0.0,1.0847756,3.6090567,-1.7849363
bagnet33,1,217,NaN,keyboard,clock,3,0217_lp_dnn_3_clock_10_n03196217_3086.png,n03196217_3086.png,0.0,4.8156166,9.3417635,-3.2004693
bagnet33,1,218,NaN,clock,clock,15,0218_lp_dnn_15_clock_10_n04548280_254.png,n04548280_254.png,1.0,5.216759,1.715376,2.475852
bagnet33,1,219,NaN,clock,bicycle,15,0219_lp_dnn_15_bicycle_10_n02835271_21707.png,n02835271_21707.png,0.0,-1.6625811,3.5152347,-3.6612687
bagnet33,1,220,NaN,clock,bird,15,0220_lp_dnn_15_bird_10_n01819313_6340.png,n01819313_6340.png,0.0,0.4761425,3.0436647,-1.8155124
bagnet33,1,221,NaN,keyboard,bicycle,5,0221_lp_dnn_5_bicycle_10_n02835271_10556.png,n02835271_10556.png,0.0,-2.0717793,7.370296,-6.676556
bagnet33,1,222,NaN,clock,chair,15,0222_lp_dnn_15_chair_10_n04099969_3312.png,n04099969_3312.png,0.0,0.51969296,3.6309223,-2.1999714
bagnet33,1,223,NaN,clock,car,15,0223_lp_dnn_15_car_10_n04285008_2781.png,n04285008_2781.png,0.0,-2.529629,3.4742749,-4.2454014
bagnet33,1,224,NaN,clock,clock,3,0224_lp_dnn_3_clock_10_n04548280_21263.png,n04548280_21263.png,1.0,8.307806,4.5266542,2.6736782
bagnet33,1,225,NaN,clock,car,15,0225_lp_dnn_15_car_10_n02814533_9785.png,n02814533_9785.png,0.0,-2.1687078,3.6188204,-4.0924006
bagnet33,1,226,NaN,truck,truck,0,0226_lp_dnn_0_truck_10_n03417042_24100.png,n03417042_24100.png,1.0,13.801772,11.656031,1.5172684
bagnet33,1,227,NaN,clock,dog,15,0227_lp_dnn_15_dog_10_n02091244_10926.png,n02091244_10926.png,0.0,-0.9706738,4.400637,-3.7980907
bagnet33,1,228,NaN,clock,bottle,40,0228_lp_dnn_40_bottle_10_n04591713_2537.png,n04591713_2537.png,0.0,1.7821592,3.6230023,-1.3016727
bagnet33,1,229,NaN,keyboard,bear,10,0229_lp_dnn_10_bear_10_n02134418_1311.png,n02134418_1311.png,0.0,1.2469692,3.3442817,-1.4830239
bagnet33,1,230,NaN,clock,bicycle,3,0230_lp_dnn_3_bicycle_10_n03792782_210.png,n03792782_210.png,0.0,-1.3835319,2.0901957,-2.4562964
bagnet33,1,231,NaN,keyboard,cat,3,0231_lp_dnn_3_cat_10_n02123045_5371.png,n02123045_5371.png,0.0,3.123148,5.417837,-1.6225903
bagnet33,1,232,NaN,clock,boat,15,0232_lp_dnn_15_boat_10_n04612504_19111.png,n04612504_19111.png,0.0,-1.7026255,3.8273828,-3.9103065
bagnet33,1,233,NaN,clock,clock,1,0233_lp_dnn_1_clock_10_n03196217_7836.png,n03196217_7836.png,1.0,6.3103366,5.1270213,0.83673024
bagnet33,1,234,NaN,dog,dog,0,0234_lp_dnn_0_dog_10_n02086910_9742.png,n02086910_9742.png,1.0,10.154465,2.3038752,5.551205
bagnet33,1,235,NaN,bottle,bottle,1,0235_lp_dnn_1_bottle_10_n03937543_4723.png,n03937543_4723.png,1.0,10.913602,4.418685,4.5926
bagnet33,1,236,NaN,keyboard,dog,5,0236_lp_dnn_5_dog_10_n02111129_6495.png,n02111129_6495.png,0.0,1.0724479,5.773847,-3.3243914
bagnet33,1,237,NaN,knife,knife,1,0237_lp_dnn_1_knife_10_n03041632_3101.png,n03041632_3101.png,1.0,4.8197546,4.2207055,0.42359167
bagnet33,1,238,NaN,knife,bear,0,0238_lp_dnn_0_bear_10_n02134084_7373.png,n02134084_7373.png,0.0,-0.40503186,2.6492662,-2.159715
bagnet33,1,239,NaN,keyboard,bird,7,0239_lp_dnn_7_bird_10_n02009229_11916.png,n02009229_11916.png,0.0,-0.2112081,6.1755824,-4.516143
bagnet33,1,240,NaN,keyboard,oven,7,0240_lp_dnn_7_oven_10_n04111531_14208.png,n04111531_14208.png,0.0,-1.5694339,5.1983356,-4.785536
bagnet33,1,241,NaN,clock,bird,3,0241_lp_dnn_3_bird_10_n01601694_20287.png,n01601694_20287.png,0.0,-0.12829255,3.2671108,-2.4009128
bagnet33,1,242,NaN,clock,oven,15,0242_lp_dnn_15_oven_10_n04111531_5519.png,n04111531_5519.png,0.0,-2.3278458,3.892002,-4.3980966
bagnet33,1,243,NaN,car,car,1,0243_lp_dnn_1_car_10_n04285008_10893.png,n04285008_10893.png,1.0,8.656722,7.6788187,0.6914821
bagnet33,1,244,NaN,clock,boat,40,0244_lp_dnn_40_boat_10_n02951358_16196.png,n02951358_16196.png,0.0,-0.62250394,3.3046474,-2.7769156
bagnet33,1,245,NaN,clock,clock,7,0245_lp_dnn_7_clock_10_n04548280_532.png,n04548280_532.png,1.0,3.6691349,2.267476,0.9911224
bagnet33,1,246,NaN,keyboard,keyboard,0,0246_lp_dnn_0_keyboard_10_n04505470_73.png,n04505470_73.png,1.0,76.02721,23.083487,37.436863
bagnet33,1,247,NaN,clock,bottle,10,0247_lp_dnn_10_bottle_10_n02823428_6766.png,n02823428_6766.png,0.0,1.5601748,3.9606335,-1.6973808
bagnet33,1,248,NaN,clock,boat,15,0248_lp_dnn_15_boat_10_n02951358_26579.png,n02951358_26579.png,0.0,-0.7607907,3.1880023,-2.7922182
bagnet33,1,249,NaN,keyboard,dog,10,0249_lp_dnn_10_dog_10_n02085782_7651.png,n02085782_7651.png,0.0,0.605064,3.044221,-1.7247444
bagnet33,1,250,NaN,clock,clock,3,0250_lp_dnn_3_clock_10_n02708093_1747.png,n02708093_1747.png,1.0,10.867581,5.951165,3.4764314
bagnet33,1,251,NaN,keyboard,truck,3,0251_lp_dnn_3_truck_10_n04467665_19645.png,n04467665_19645.png,0.0,-1.3013711,6.0936737,-5.2290864
bagnet33,1,252,NaN,clock,airplane,15,0252_lp_dnn_15_airplane_10_n02690373_17262.png,n02690373_17262.png,0.0,0.63546616,3.2079763,-1.8190395
bagnet33,1,253,NaN,elephant,elephant,0,0253_lp_dnn_0_elephant_10_n02504458_10428.png,n02504458_10428.png,1.0,20.49387,2.087347,13.015377
bagnet33,1,254,NaN,keyboard,cat,7,0254_lp_dnn_7_cat_10_n02124075_9149.png,n02124075_9149.png,0.0,1.8627642,5.6867547,-2.7039695
bagnet33,1,255,NaN,clock,elephant,10,0255_lp_dnn_10_elephant_10_n02504013_7923.png,n02504013_7923.png,0.0,-2.5715199,3.0492375,-3.9744756
bagnet33,1,256,NaN,keyboard,cat,3,0256_lp_dnn_3_cat_10_n02123394_4789.png,n02123394_4789.png,0.0,0.5838532,4.97998,-3.108531
bagnet33,1,257,NaN,keyboard,clock,5,0257_lp_dnn_5_clock_10_n03196217_2530.png,n03196217_2530.png,0.0,3.57013,4.94253,-0.9704334
bagnet33,1,258,NaN,keyboard,airplane,5,0258_lp_dnn_5_airplane_10_n02690373_6992.png,n02690373_6992.png,0.0,-1.7465516,7.145607,-6.287706
bagnet33,1,259,NaN,keyboard,airplane,3,0259_lp_dnn_3_airplane_10_n02690373_5056.png,n02690373_5056.png,0.0,-0.113486946,5.909533,-4.2589183
bagnet33,1,260,NaN,bear,bear,1,0260_lp_dnn_1_bear_10_n02134418_2231.png,n02134418_2231.png,1.0,7.939314,5.1083016,2.001828
bagnet33,1,261,NaN,clock,truck,10,0261_lp_dnn_10_truck_10_n03796401_180.png,n03796401_180.png,0.0,-2.9094143,3.6111119,-4.610708
bagnet33,1,262,NaN,keyboard,bicycle,3,0262_lp_dnn_3_bicycle_10_n02835271_3246.png,n02835271_3246.png,0.0,-0.26824573,3.378536,-2.578664
bagnet33,1,263,NaN,keyboard,truck,3,0263_lp_dnn_3_truck_10_n03796401_599.png,n03796401_599.png,0.0,1.2236875,7.4179854,-4.38003
bagnet33,1,264,NaN,keyboard,oven,7,0264_lp_dnn_7_oven_10_n04111531_13862.png,n04111531_13862.png,0.0,-3.532958,4.9310503,-5.9849577
bagnet33,1,265,NaN,oven,oven,0,0265_lp_dnn_0_oven_10_n04111531_10420.png,n04111531_10420.png,1.0,6.7673254,4.811911,1.3826867
bagnet33,1,266,NaN,clock,car,10,0266_lp_dnn_10_car_10_n03100240_15531.png,n03100240_15531.png,0.0,-2.5339365,3.5016048,-4.267772
bagnet33,1,267,NaN,keyboard,dog,7,0267_lp_dnn_7_dog_10_n02099849_3128.png,n02099849_3128.png,0.0,-0.2883,4.892946,-3.6636941
bagnet33,1,268,NaN,keyboard,chair,5,0268_lp_dnn_5_chair_10_n02791124_3222.png,n02791124_3222.png,0.0,-0.14909801,4.3573065,-3.1865091
bagnet33,1,269,NaN,keyboard,keyboard,5,0269_lp_dnn_5_keyboard_10_n04505470_8364.png,n04505470_8364.png,1.0,16.783663,4.60043,8.614847
bagnet33,1,270,NaN,clock,clock,0,0270_lp_dnn_0_clock_10_n04548280_9294.png,n04548280_9294.png,1.0,44.575718,9.848005,24.556202
bagnet33,1,271,NaN,keyboard,bottle,7,0271_lp_dnn_7_bottle_10_n03937543_3358.png,n03937543_3358.png,0.0,1.5321596,3.9716616,-1.7249885
bagnet33,1,272,NaN,clock,knife,7,0272_lp_dnn_7_knife_10_n03041632_2058.png,n03041632_2058.png,0.0,2.1850183,2.8873787,-0.4966438
bagnet33,1,273,NaN,knife,elephant,1,0273_lp_dnn_1_elephant_10_n02504458_5671.png,n02504458_5671.png,0.0,0.69041216,1.7999419,-0.78455603
bagnet33,1,274,NaN,clock,chair,10,0274_lp_dnn_10_chair_10_n02791124_6281.png,n02791124_6281.png,0.0,1.2718184,3.5486507,-1.6099637
bagnet33,1,275,NaN,clock,cat,15,0275_lp_dnn_15_cat_10_n02125311_44920.png,n02125311_44920.png,0.0,1.7264668,3.207545,-1.0472806
bagnet33,1,276,NaN,keyboard,airplane,5,0276_lp_dnn_5_airplane_10_n02690373_2981.png,n02690373_2981.png,0.0,-0.48238847,3.9018984,-3.100159
bagnet33,1,277,NaN,knife,knife,1,0277_lp_dnn_1_knife_10_n03041632_2468.png,n03041632_2468.png,1.0,4.339286,4.3223124,0.012002074
bagnet33,1,278,NaN,clock,clock,1,0278_lp_dnn_1_clock_10_n02708093_3605.png,n02708093_3605.png,1.0,15.143783,3.4811792,8.246706
bagnet33,1,279,NaN,bicycle,bicycle,1,0279_lp_dnn_1_bicycle_10_n02835271_19019.png,n02835271_19019.png,1.0,24.712173,2.1153762,15.97835
bagnet33,1,280,NaN,clock,keyboard,7,0280_lp_dnn_7_keyboard_10_n03085013_1188.png,n03085013_1188.png,0.0,3.2315793,3.614692,-0.27090156
bagnet33,1,281,NaN,knife,oven,1,0281_lp_dnn_1_oven_10_n04111531_2715.png,n04111531_2715.png,0.0,-0.005496174,2.4533777,-1.7386864
bagnet33,1,282,NaN,clock,keyboard,10,0282_lp_dnn_10_keyboard_10_n03085013_9533.png,n03085013_9533.png,0.0,3.5483575,3.583255,-0.024676306
bagnet33,1,283,NaN,cat,cat,3,0283_lp_dnn_3_cat_10_n02123045_20366.png,n02123045_20366.png,1.0,4.508956,3.5604932,0.6706644
bagnet33,1,284,NaN,keyboard,chair,5,0284_lp_dnn_5_chair_10_n03376595_302.png,n03376595_302.png,0.0,0.98567843,6.504846,-3.902641
bagnet33,1,285,NaN,keyboard,cat,7,0285_lp_dnn_7_cat_10_n02123597_14267.png,n02123597_14267.png,0.0,2.7246516,4.677231,-1.3806821
bagnet33,1,286,NaN,clock,dog,15,0286_lp_dnn_15_dog_10_n02098286_2582.png,n02098286_2582.png,0.0,-0.85635173,3.610014,-3.1581976
bagnet33,1,287,NaN,boat,boat,1,0287_lp_dnn_1_boat_10_n03344393_4001.png,n03344393_4001.png,1.0,3.7351162,1.6991978,1.4396118
bagnet33,1,288,NaN,clock,bicycle,15,0288_lp_dnn_15_bicycle_10_n02835271_6122.png,n02835271_6122.png,0.0,-1.0895559,3.3688242,-3.152551
bagnet33,1,289,NaN,keyboard,dog,3,0289_lp_dnn_3_dog_10_n02091134_3075.png,n02091134_3075.png,0.0,1.5829843,3.1417918,-1.1022434
bagnet33,1,290,NaN,clock,oven,40,0290_lp_dnn_40_oven_10_n04111531_4795.png,n04111531_4795.png,0.0,-3.1836143,3.418895,-4.668679
bagnet33,1,291,NaN,clock,bottle,10,0291_lp_dnn_10_bottle_10_n04591713_4876.png,n04591713_4876.png,0.0,1.9727297,3.8305705,-1.3136919
bagnet33,1,292,NaN,clock,bottle,0,0292_lp_dnn_0_bottle_10_n02823428_2510.png,n02823428_2510.png,0.0,6.7028503,8.836825,-1.5089482
bagnet33,1,293,NaN,keyboard,keyboard,1,0293_lp_dnn_1_keyboard_10_n03085013_5950.png,n03085013_5950.png,1.0,8.3592205,4.2423897,2.911039
bagnet33,1,294,NaN,clock,bear,5,0294_lp_dnn_5_bear_10_n02133161_1490.png,n02133161_1490.png,0.0,-0.52919054,2.6850946,-2.272843
bagnet33,1,295,NaN,clock,truck,10,0295_lp_dnn_10_truck_10_n03796401_28465.png,n03796401_28465.png,0.0,-2.7544842,3.7567832,-4.6041617
bagnet33,1,296,NaN,clock,bottle,15,0296_lp_dnn_15_bottle_10_n02823428_6627.png,n02823428_6627.png,0.0,1.6508838,3.732344,-1.4718145
bagnet33,1,297,NaN,keyboard,truck,5,0297_lp_dnn_5_truck_10_n04467665_69582.png,n04467665_69582.png,0.0,-2.268971,4.030492,-4.454393
bagnet33,1,298,NaN,clock,bird,40,0298_lp_dnn_40_bird_10_n02006656_10568.png,n02006656_10568.png,0.0,0.028108003,4.0045714,-2.8117843
bagnet33,1,299,NaN,knife,car,40,0299_lp_dnn_40_car_10_n04285008_11748.png,n04285008_11748.png,0.0,-2.0193338,3.7601674,-4.0867243
bagnet33,1,300,NaN,keyboard,truck,5,0300_lp_dnn_5_truck_10_n04467665_44714.png,n04467665_44714.png,0.0,-2.9358802,6.526462,-6.6908865
bagnet33,1,301,NaN,keyboard,airplane,3,0301_lp_dnn_3_airplane_10_n02690373_7487.png,n02690373_7487.png,0.0,0.4362619,4.838258,-3.1126812
bagnet33,1,302,NaN,clock,elephant,15,0302_lp_dnn_15_elephant_10_n02504458_7472.png,n02504458_7472.png,0.0,-2.2864149,4.0717907,-4.4959307
bagnet33,1,303,NaN,keyboard,boat,3,0303_lp_dnn_3_boat_10_n03662601_25023.png,n03662601_25023.png,0.0,-0.9626827,5.5827827,-4.628343
bagnet33,1,304,NaN,knife,knife,0,0304_lp_dnn_0_knife_10_n03041632_101673.png,n03041632_101673.png,1.0,5.9542685,2.9242527,2.1425447
bagnet33,1,305,NaN,keyboard,bottle,7,0305_lp_dnn_7_bottle_10_n03983396_587.png,n03983396_587.png,0.0,1.7162157,4.2010627,-1.7570522
bagnet33,1,306,NaN,keyboard,cat,3,0306_lp_dnn_3_cat_10_n02124075_7692.png,n02124075_7692.png,0.0,1.2366647,3.4602094,-1.5722835
bagnet33,1,307,NaN,oven,oven,0,0307_lp_dnn_0_oven_10_n04111531_6313.png,n04111531_6313.png,1.0,11.334837,2.3510942,6.3524656
bagnet33,1,308,NaN,keyboard,bird,7,0308_lp_dnn_7_bird_10_n02018795_5770.png,n02018795_5770.png,0.0,-0.7377891,5.0544453,-4.0957284
bagnet33,1,309,NaN,bottle,bottle,3,0309_lp_dnn_3_bottle_10_n02823428_4658.png,n02823428_4658.png,1.0,5.85308,5.0089164,0.5969137
bagnet33,1,310,NaN,airplane,airplane,1,0310_lp_dnn_1_airplane_10_n02690373_2724.png,n02690373_2724.png,1.0,8.582846,3.4739215,3.6125548
bagnet33,1,311,NaN,clock,boat,40,0311_lp_dnn_40_boat_10_n04612504_7446.png,n04612504_7446.png,0.0,-0.5133952,3.1029913,-2.5571713
bagnet33,1,312,NaN,keyboard,boat,7,0312_lp_dnn_7_boat_10_n02951358_34783.png,n02951358_34783.png,0.0,-1.4534439,3.6900153,-3.636975
bagnet33,1,313,NaN,cat,cat,0,0313_lp_dnn_0_cat_10_n02123597_680.png,n02123597_680.png,1.0,16.56664,2.5029986,9.944497
bagnet33,1,314,NaN,keyboard,bear,10,0314_lp_dnn_10_bear_10_n02133161_9863.png,n02133161_9863.png,0.0,0.5739288,3.0778909,-1.7705686
bagnet33,1,315,NaN,bear,bear,1,0315_lp_dnn_1_bear_10_n02133161_2100.png,n02133161_2100.png,1.0,8.964112,6.9885845,1.3969091
bagnet33,1,316,NaN,keyboard,oven,3,0316_lp_dnn_3_oven_10_n04111531_8009.png,n04111531_8009.png,0.0,1.4144684,10.212784,-6.2213483
bagnet33,1,317,NaN,clock,car,40,0317_lp_dnn_40_car_10_n03100240_16525.png,n03100240_16525.png,0.0,-1.674995,3.0691164,-3.3545933
bagnet33,1,318,NaN,keyboard,bird,5,0318_lp_dnn_5_bird_10_n01824575_4941.png,n01824575_4941.png,0.0,-0.45054656,9.771242,-7.227896
bagnet33,1,319,NaN,clock,knife,15,0319_lp_dnn_15_knife_10_n03041632_289.png,n03041632_289.png,0.0,1.4066038,3.6643274,-1.5964516
bagnet33,1,320,NaN,clock,dog,10,0320_lp_dnn_10_dog_10_n02101006_15350.png,n02101006_15350.png,0.0,0.5823306,3.0503972,-1.7451867
bagnet33,1,321,NaN,keyboard,elephant,5,0321_lp_dnn_5_elephant_10_n02504458_1636.png,n02504458_1636.png,0.0,-1.915006,3.2023273,-3.6185012
bagnet33,1,322,NaN,keyboard,car,7,0322_lp_dnn_7_car_10_n04285008_8666.png,n04285008_8666.png,0.0,-3.3364751,5.7985168,-6.4594145
bagnet33,1,323,NaN,keyboard,bottle,5,0323_lp_dnn_5_bottle_10_n02823428_5451.png,n02823428_5451.png,0.0,2.9649148,6.170643,-2.266792
bagnet33,1,324,NaN,keyboard,car,3,0324_lp_dnn_3_car_10_n03100240_2495.png,n03100240_2495.png,0.0,-2.4705086,4.0248194,-4.5928907
bagnet33,1,325,NaN,keyboard,bicycle,10,0325_lp_dnn_10_bicycle_10_n02835271_19565.png,n02835271_19565.png,0.0,-1.0293334,4.6052885,-3.9842792
bagnet33,1,326,NaN,airplane,airplane,1,0326_lp_dnn_1_airplane_10_n02690373_349.png,n02690373_349.png,1.0,15.624224,6.92965,6.1479926
bagnet33,1,327,NaN,keyboard,cat,7,0327_lp_dnn_7_cat_10_n02123045_20512.png,n02123045_20512.png,0.0,1.8754058,3.3379807,-1.0341967
bagnet33,1,328,NaN,clock,keyboard,1,0328_lp_dnn_1_keyboard_10_n03085013_23619.png,n03085013_23619.png,0.0,4.2369328,4.7830567,-0.38616797
bagnet33,1,329,NaN,clock,boat,7,0329_lp_dnn_7_boat_10_n03662601_16925.png,n03662601_16925.png,0.0,-1.5545416,4.454972,-4.2493677
bagnet33,1,330,NaN,keyboard,oven,10,0330_lp_dnn_10_oven_10_n04111531_12830.png,n04111531_12830.png,0.0,-1.7363913,4.2567596,-4.2377977
bagnet33,1,331,NaN,keyboard,boat,5,0331_lp_dnn_5_boat_10_n02951358_33277.png,n02951358_33277.png,0.0,-1.7394798,6.2036223,-5.6166215
bagnet33,1,332,NaN,clock,bear,15,0332_lp_dnn_15_bear_10_n02133161_156.png,n02133161_156.png,0.0,-1.1576266,3.60382,-3.3668516
bagnet33,1,333,NaN,clock,cat,40,0333_lp_dnn_40_cat_10_n02124075_6638.png,n02124075_6638.png,0.0,0.8133218,4.3600345,-2.5079045
bagnet33,1,334,NaN,clock,keyboard,10,0334_lp_dnn_10_keyboard_10_n04505470_4587.png,n04505470_4587.png,0.0,2.469177,3.4651992,-0.7042941
bagnet33,1,335,NaN,clock,bear,10,0335_lp_dnn_10_bear_10_n02134084_27899.png,n02134084_27899.png,0.0,-0.9415046,3.2547042,-2.9671679
bagnet33,1,336,NaN,keyboard,keyboard,0,0336_lp_dnn_0_keyboard_10_n03085013_10984.png,n03085013_10984.png,1.0,26.49796,7.2534947,13.607892
bagnet33,1,337,NaN,keyboard,bottle,5,0337_lp_dnn_5_bottle_10_n03983396_10469.png,n03983396_10469.png,0.0,1.1697203,6.2627106,-3.601288
bagnet33,1,338,NaN,keyboard,knife,10,0338_lp_dnn_10_knife_10_n03041632_20707.png,n03041632_20707.png,0.0,1.8003156,3.3833058,-1.1193432
bagnet33,1,339,NaN,truck,car,1,0339_lp_dnn_1_car_10_n04285008_9411.png,n04285008_9411.png,0.0,4.0621815,6.028907,-1.3906848
bagnet33,1,340,NaN,clock,airplane,40,0340_lp_dnn_40_airplane_10_n02690373_4671.png,n02690373_4671.png,0.0,1.483176,3.1515148,-1.1796937
bagnet33,1,341,NaN,clock,knife,7,0341_lp_dnn_7_knife_10_n03041632_16206.png,n03041632_16206.png,0.0,1.9287567,2.9135954,-0.69638616
bagnet33,1,342,NaN,keyboard,bicycle,5,0342_lp_dnn_5_bicycle_10_n03792782_7180.png,n03792782_7180.png,0.0,-1.2331418,5.4089894,-4.6966963
bagnet33,1,343,NaN,bear,bear,0,0343_lp_dnn_0_bear_10_n02134418_2719.png,n02134418_2719.png,1.0,4.966035,4.728308,0.16809815
bagnet33,1,344,NaN,chair,chair,0,0344_lp_dnn_0_chair_10_n04099969_2038.png,n04099969_2038.png,1.0,7.7252607,6.175331,1.0959657
bagnet33,1,345,NaN,cat,dog,1,0345_lp_dnn_1_dog_10_n02113023_5237.png,n02113023_5237.png,0.0,1.870021,2.533542,-0.46918017
bagnet33,1,346,NaN,clock,airplane,40,0346_lp_dnn_40_airplane_10_n02690373_2525.png,n02690373_2525.png,0.0,0.31968856,3.6838064,-2.3787906
bagnet33,1,347,NaN,clock,clock,7,0347_lp_dnn_7_clock_10_n04548280_219.png,n04548280_219.png,1.0,7.6017094,6.7612057,0.5943259
bagnet33,1,348,NaN,clock,boat,15,0348_lp_dnn_15_boat_10_n04612504_2805.png,n04612504_2805.png,0.0,-1.3942204,2.890494,-3.0297508
bagnet33,1,349,NaN,keyboard,clock,7,0349_lp_dnn_7_clock_10_n02708093_7020.png,n02708093_7020.png,0.0,3.5929601,4.6863666,-0.7731551
bagnet33,1,350,NaN,keyboard,oven,3,0350_lp_dnn_3_oven_10_n04111531_5171.png,n04111531_5171.png,0.0,-2.7565455,6.4346895,-6.4991846
bagnet33,1,351,NaN,keyboard,cat,3,0351_lp_dnn_3_cat_10_n02125311_37322.png,n02125311_37322.png,0.0,1.9786621,4.406617,-1.7168236
bagnet33,1,352,NaN,keyboard,cat,7,0352_lp_dnn_7_cat_10_n02123597_14094.png,n02123597_14094.png,0.0,2.3698046,3.5857058,-0.85977197
bagnet33,1,353,NaN,clock,boat,15,0353_lp_dnn_15_boat_10_n02951358_13352.png,n02951358_13352.png,0.0,-1.6449454,3.929385,-3.9416468
bagnet33,1,354,NaN,clock,bicycle,10,0354_lp_dnn_10_bicycle_10_n02835271_20445.png,n02835271_20445.png,0.0,-1.2521907,2.6049678,-2.7274232
bagnet33,1,355,NaN,keyboard,knife,7,0355_lp_dnn_7_knife_10_n03041632_4708.png,n03041632_4708.png,0.0,1.7377608,6.3315244,-3.2482812
bagnet33,1,356,NaN,keyboard,oven,7,0356_lp_dnn_7_oven_10_n04111531_505.png,n04111531_505.png,0.0,-3.8679242,5.139844,-6.3694544
bagnet33,1,357,NaN,bicycle,bicycle,1,0357_lp_dnn_1_bicycle_10_n03792782_104.png,n03792782_104.png,1.0,10.972979,3.9912198,4.936849
bagnet33,1,358,NaN,clock,bottle,40,0358_lp_dnn_40_bottle_10_n04591713_5204.png,n04591713_5204.png,0.0,1.9343706,3.3596752,-1.0078425
bagnet33,1,359,NaN,keyboard,bicycle,5,0359_lp_dnn_5_bicycle_10_n03792782_5578.png,n03792782_5578.png,0.0,1.2225187,5.709778,-3.1729712
bagnet33,1,360,NaN,clock,truck,10,0360_lp_dnn_10_truck_10_n03417042_1437.png,n03417042_1437.png,0.0,-3.1779313,3.2504036,-4.5455194
bagnet33,1,361,NaN,cat,cat,0,0361_lp_dnn_0_cat_10_n02123045_7482.png,n02123045_7482.png,1.0,5.7026734,3.073867,1.8588468
bagnet33,1,362,NaN,keyboard,bird,10,0362_lp_dnn_10_bird_10_n02037110_554.png,n02037110_554.png,0.0,-0.2845931,3.5940423,-2.7426095
bagnet33,1,363,NaN,keyboard,bicycle,5,0363_lp_dnn_5_bicycle_10_n03792782_15.png,n03792782_15.png,0.0,-2.110159,7.9356956,-7.103492
bagnet33,1,364,NaN,keyboard,bicycle,5,0364_lp_dnn_5_bicycle_10_n02835271_7450.png,n02835271_7450.png,0.0,-1.6453996,4.8574867,-4.598235
bagnet33,1,365,NaN,keyboard,boat,5,0365_lp_dnn_5_boat_10_n03344393_3881.png,n03344393_3881.png,0.0,-1.6609173,4.692405,-4.4924774
bagnet33,1,366,NaN,keyboard,chair,10,0366_lp_dnn_10_chair_10_n04099969_3623.png,n04099969_3623.png,0.0,0.4120443,3.3269954,-2.0611818
bagnet33,1,367,NaN,clock,airplane,5,0367_lp_dnn_5_airplane_10_n02690373_2579.png,n02690373_2579.png,0.0,-0.24180889,3.1582432,-2.4041998
bagnet33,1,368,NaN,clock,dog,15,0368_lp_dnn_15_dog_10_n02093859_3707.png,n02093859_3707.png,0.0,-1.0858308,3.9761446,-3.5793571
bagnet33,1,369,NaN,knife,bottle,1,0369_lp_dnn_1_bottle_10_n04560804_22426.png,n04560804_22426.png,0.0,3.9205089,4.2483606,-0.23182622
bagnet33,1,370,NaN,clock,clock,15,0370_lp_dnn_15_clock_10_n03196217_82.png,n03196217_82.png,1.0,3.502737,1.7808275,1.2175739
bagnet33,1,371,NaN,keyboard,car,5,0371_lp_dnn_5_car_10_n03100240_16907.png,n03100240_16907.png,0.0,-2.7219992,5.511641,-5.8220634
bagnet33,1,372,NaN,keyboard,oven,5,0372_lp_dnn_5_oven_10_n04111531_9548.png,n04111531_9548.png,0.0,-1.6209377,7.0755854,-6.14937
bagnet33,1,373,NaN,keyboard,clock,7,0373_lp_dnn_7_clock_10_n02708093_3751.png,n02708093_3751.png,0.0,4.1965146,4.381443,-0.13076414
bagnet33,1,374,NaN,keyboard,car,7,0374_lp_dnn_7_car_10_n02814533_6593.png,n02814533_6593.png,0.0,-3.5021837,5.785155,-6.56714
bagnet33,1,375,NaN,airplane,airplane,0,0375_lp_dnn_0_airplane_10_n02690373_3212.png,n02690373_3212.png,1.0,18.555643,5.6725144,9.109748
bagnet33,1,376,NaN,elephant,cat,1,0376_lp_dnn_1_cat_10_n02123045_5820.png,n02123045_5820.png,0.0,2.4723454,4.3732967,-1.3441757
bagnet33,1,377,NaN,keyboard,elephant,3,0377_lp_dnn_3_elephant_10_n02504458_205.png,n02504458_205.png,0.0,-0.2705114,4.853954,-3.623544
bagnet33,1,378,NaN,clock,elephant,10,0378_lp_dnn_10_elephant_10_n02504013_3425.png,n02504013_3425.png,0.0,-2.8869524,3.5013783,-4.517232
bagnet33,1,379,NaN,clock,bird,15,0379_lp_dnn_15_bird_10_n02056570_9572.png,n02056570_9572.png,0.0,0.1839198,3.709143,-2.4927092
bagnet33,1,380,NaN,clock,elephant,40,0380_lp_dnn_40_elephant_10_n02504013_7635.png,n02504013_7635.png,0.0,-2.0427818,4.180643,-4.400626
bagnet33,1,381,NaN,clock,boat,10,0381_lp_dnn_10_boat_10_n04273569_10716.png,n04273569_10716.png,0.0,-1.3034546,2.600208,-2.7603064
bagnet33,1,382,NaN,clock,bear,15,0382_lp_dnn_15_bear_10_n02134084_19849.png,n02134084_19849.png,0.0,-1.478542,3.8630588,-3.7770822
bagnet33,1,383,NaN,knife,boat,40,0383_lp_dnn_40_boat_10_n03662601_35800.png,n03662601_35800.png,0.0,-1.084342,3.333331,-3.1237667
bagnet33,1,384,NaN,clock,bicycle,40,0384_lp_dnn_40_bicycle_10_n03792782_29276.png,n03792782_29276.png,0.0,-1.0320036,4.1662602,-3.6757278
bagnet33,1,385,NaN,keyboard,oven,10,0385_lp_dnn_10_oven_10_n04111531_4392.png,n04111531_4392.png,0.0,-1.9283328,3.887757,-4.1125965
bagnet33,1,386,NaN,airplane,airplane,0,0386_lp_dnn_0_airplane_10_n02690373_7099.png,n02690373_7099.png,1.0,26.03854,7.8148775,12.886076
bagnet33,1,387,NaN,keyboard,cat,5,0387_lp_dnn_5_cat_10_n02124075_13187.png,n02124075_13187.png,0.0,0.6403441,4.6192107,-2.8134835
bagnet33,1,388,NaN,oven,knife,0,0388_lp_dnn_0_knife_10_n03041632_32048.png,n03041632_32048.png,0.0,4.675913,4.948712,-0.19289804
bagnet33,1,389,NaN,knife,airplane,3,0389_lp_dnn_3_airplane_10_n02690373_20074.png,n02690373_20074.png,0.0,0.96837366,6.8378997,-4.1503816
bagnet33,1,390,NaN,truck,car,1,0390_lp_dnn_1_car_10_n02814533_83577.png,n02814533_83577.png,0.0,10.383027,13.120104,-1.9354056
bagnet33,1,391,NaN,clock,airplane,40,0391_lp_dnn_40_airplane_10_n02690373_19134.png,n02690373_19134.png,0.0,0.3558306,4.1954303,-2.715007
bagnet33,1,392,NaN,keyboard,knife,3,0392_lp_dnn_3_knife_10_n03041632_13130.png,n03041632_13130.png,0.0,2.741343,4.521122,-1.2584938
bagnet33,1,393,NaN,chair,knife,0,0393_lp_dnn_0_knife_10_n03041632_1006.png,n03041632_1006.png,0.0,4.1267667,5.5006895,-0.9715102
bagnet33,1,394,NaN,elephant,elephant,1,0394_lp_dnn_1_elephant_10_n02504458_7634.png,n02504458_7634.png,1.0,8.460174,2.8930974,3.9365175
bagnet33,1,395,NaN,bicycle,bicycle,1,0395_lp_dnn_1_bicycle_10_n02835271_17184.png,n02835271_17184.png,1.0,18.444168,4.152823,10.105508
bagnet33,1,396,NaN,oven,oven,0,0396_lp_dnn_0_oven_10_n04111531_2189.png,n04111531_2189.png,1.0,5.335286,3.5199285,1.2836517
bagnet33,1,397,NaN,clock,cat,15,0397_lp_dnn_15_cat_10_n02124075_11888.png,n02124075_11888.png,0.0,0.7810173,3.6342437,-2.0175357
bagnet33,1,398,NaN,clock,cat,10,0398_lp_dnn_10_cat_10_n02123394_1690.png,n02123394_1690.png,0.0,1.0521861,3.555823,-1.7703387
bagnet33,1,399,NaN,dog,dog,1,0399_lp_dnn_1_dog_10_n02111500_2905.png,n02111500_2905.png,1.0,5.317223,3.3909051,1.3621125
bagnet33,1,400,NaN,keyboard,knife,5,0400_lp_dnn_5_knife_10_n03041632_20433.png,n03041632_20433.png,0.0,1.8248991,8.185406,-4.497557
bagnet33,1,401,NaN,clock,clock,15,0401_lp_dnn_15_clock_10_n04548280_22641.png,n04548280_22641.png,1.0,4.0914097,2.716685,0.97207713
bagnet33,1,402,NaN,clock,bottle,15,0402_lp_dnn_15_bottle_10_n04557648_634.png,n04557648_634.png,0.0,1.4469794,3.1456318,-1.2011286
bagnet33,1,403,NaN,truck,truck,1,0403_lp_dnn_1_truck_10_n04467665_69447.png,n04467665_69447.png,1.0,8.094929,6.180966,1.3533762
bagnet33,1,404,NaN,keyboard,elephant,3,0404_lp_dnn_3_elephant_10_n02504013_1777.png,n02504013_1777.png,0.0,1.5400707,3.444251,-1.3464589
bagnet33,1,405,NaN,truck,truck,0,0405_lp_dnn_0_truck_10_n03796401_2559.png,n03796401_2559.png,1.0,6.965309,5.793171,0.8288269
bagnet33,1,406,NaN,car,car,1,0406_lp_dnn_1_car_10_n02814533_42547.png,n02814533_42547.png,1.0,12.653136,8.343966,3.0470438
bagnet33,1,407,NaN,clock,clock,15,0407_lp_dnn_15_clock_10_n04548280_7181.png,n04548280_7181.png,1.0,3.9382515,2.0051455,1.3669124
bagnet33,1,408,NaN,truck,boat,1,0408_lp_dnn_1_boat_10_n03344393_5030.png,n03344393_5030.png,0.0,4.8905888,5.7529335,-0.6097698
bagnet33,1,409,NaN,clock,bottle,15,0409_lp_dnn_15_bottle_10_n04591713_2952.png,n04591713_2952.png,0.0,1.5152683,3.8286083,-1.6357784
bagnet33,1,410,NaN,keyboard,keyboard,5,0410_lp_dnn_5_keyboard_10_n04505470_4742.png,n04505470_4742.png,1.0,10.055805,5.098555,3.5053053
bagnet33,1,411,NaN,keyboard,bear,7,0411_lp_dnn_7_bear_10_n02134418_4696.png,n02134418_4696.png,0.0,0.3114455,5.8077254,-3.8864567
bagnet33,1,412,NaN,clock,bear,40,0412_lp_dnn_40_bear_10_n02132136_5815.png,n02132136_5815.png,0.0,-1.7484928,4.496635,-4.415972
bagnet33,1,413,NaN,clock,bicycle,15,0413_lp_dnn_15_bicycle_10_n02835271_8203.png,n02835271_8203.png,0.0,-1.0763459,3.517995,-3.24869
bagnet33,1,414,NaN,clock,car,40,0414_lp_dnn_40_car_10_n04285008_12868.png,n04285008_12868.png,0.0,-2.0163996,3.1117427,-3.6261444
bagnet33,1,415,NaN,clock,bear,40,0415_lp_dnn_40_bear_10_n02132136_7074.png,n02132136_7074.png,0.0,-2.0643494,3.2491748,-3.757229
bagnet33,1,416,NaN,keyboard,boat,3,0416_lp_dnn_3_boat_10_n03344393_8265.png,n03344393_8265.png,0.0,-1.8733448,2.7922978,-3.2991078
bagnet33,1,417,NaN,keyboard,truck,10,0417_lp_dnn_10_truck_10_n04467665_12177.png,n04467665_12177.png,0.0,-3.2231393,4.499944,-5.461045
bagnet33,1,418,NaN,keyboard,car,3,0418_lp_dnn_3_car_10_n03100240_8987.png,n03100240_8987.png,0.0,-1.3513347,6.8564982,-5.803815
bagnet33,1,419,NaN,clock,bird,15,0419_lp_dnn_15_bird_10_n01530575_10601.png,n01530575_10601.png,0.0,-0.11844156,3.8343344,-2.7950346
bagnet33,1,420,NaN,clock,keyboard,15,0420_lp_dnn_15_keyboard_10_n04505470_313.png,n04505470_313.png,0.0,2.601787,3.9865577,-0.9791807
bagnet33,1,421,NaN,truck,truck,1,0421_lp_dnn_1_truck_10_n03417042_5371.png,n03417042_5371.png,1.0,8.221775,5.8575864,1.6717339
bagnet33,1,422,NaN,truck,truck,0,0422_lp_dnn_0_truck_10_n03796401_29952.png,n03796401_29952.png,1.0,11.380465,8.252678,2.2116792
bagnet33,1,423,NaN,keyboard,bicycle,5,0423_lp_dnn_5_bicycle_10_n03792782_6159.png,n03792782_6159.png,0.0,0.35926053,7.385935,-4.9686093
bagnet33,1,424,NaN,clock,elephant,7,0424_lp_dnn_7_elephant_10_n02504458_1336.png,n02504458_1336.png,0.0,-3.2601087,3.4170122,-4.721438
bagnet33,1,425,NaN,keyboard,bicycle,10,0425_lp_dnn_10_bicycle_10_n02835271_8597.png,n02835271_8597.png,0.0,-1.4451575,3.389073,-3.418317
bagnet33,1,426,NaN,keyboard,keyboard,3,0426_lp_dnn_3_keyboard_10_n04505470_3615.png,n04505470_3615.png,1.0,6.372415,4.0284677,1.6574211
bagnet33,1,427,NaN,keyboard,dog,7,0427_lp_dnn_7_dog_10_n02090721_7040.png,n02090721_7040.png,0.0,-0.06796554,4.1533237,-2.9849021
bagnet33,1,428,NaN,cat,cat,0,0428_lp_dnn_0_cat_10_n02124075_17347.png,n02124075_17347.png,1.0,25.586098,6.3866954,13.576028
bagnet33,1,429,NaN,keyboard,keyboard,0,0429_lp_dnn_0_keyboard_10_n03085013_23018.png,n03085013_23018.png,1.0,7.670121,3.4687676,2.9708056
bagnet33,1,430,NaN,clock,car,40,0430_lp_dnn_40_car_10_n03100240_5018.png,n03100240_5018.png,0.0,-1.7381216,3.7084224,-3.8512883
bagnet33,1,431,NaN,clock,dog,40,0431_lp_dnn_40_dog_10_n02105056_12631.png,n02105056_12631.png,0.0,-1.5834936,4.5586114,-4.3431244
bagnet33,1,432,NaN,clock,knife,15,0432_lp_dnn_15_knife_10_n03041632_27848.png,n03041632_27848.png,0.0,1.9867803,3.9548485,-1.3916345
bagnet33,1,433,NaN,keyboard,keyboard,3,0433_lp_dnn_3_keyboard_10_n04505470_4432.png,n04505470_4432.png,1.0,7.22683,4.916782,1.6334507
bagnet33,1,434,NaN,clock,bear,15,0434_lp_dnn_15_bear_10_n02132136_786.png,n02132136_786.png,0.0,-0.8165453,4.154062,-3.5147502
bagnet33,1,435,NaN,clock,truck,15,0435_lp_dnn_15_truck_10_n03796401_10519.png,n03796401_10519.png,0.0,-2.2941754,3.18692,-3.8757198
bagnet33,1,436,NaN,keyboard,airplane,5,0436_lp_dnn_5_airplane_10_n02690373_9086.png,n02690373_9086.png,0.0,-0.027120799,7.22184,-5.125789
bagnet33,1,437,NaN,bicycle,boat,0,0437_lp_dnn_0_boat_10_n02951358_512.png,n02951358_512.png,0.0,5.2179365,6.629961,-0.9984521
bagnet33,1,438,NaN,keyboard,bear,10,0438_lp_dnn_10_bear_10_n02132136_10468.png,n02132136_10468.png,0.0,0.9190869,3.3546448,-1.7221994
bagnet33,1,439,NaN,keyboard,bear,5,0439_lp_dnn_5_bear_10_n02134084_13175.png,n02134084_13175.png,0.0,-1.2689478,6.171714,-5.261342
bagnet33,1,440,NaN,clock,dog,10,0440_lp_dnn_10_dog_10_n02088364_2119.png,n02088364_2119.png,0.0,0.7184891,2.653126,-1.3679949
bagnet33,1,441,NaN,boat,boat,1,0441_lp_dnn_1_boat_10_n04612504_26238.png,n04612504_26238.png,1.0,8.239623,4.0923467,2.9325674
bagnet33,1,442,NaN,keyboard,bear,3,0442_lp_dnn_3_bear_10_n02134084_20142.png,n02134084_20142.png,0.0,1.2524121,3.0308566,-1.2575502
bagnet33,1,443,NaN,dog,dog,5,0443_lp_dnn_5_dog_10_n02107683_1076.png,n02107683_1076.png,1.0,5.050184,4.6464567,0.28547814
bagnet33,1,444,NaN,keyboard,car,3,0444_lp_dnn_3_car_10_n02814533_35386.png,n02814533_35386.png,0.0,-1.4385608,7.600432,-6.3915334
bagnet33,1,445,NaN,keyboard,bird,3,0445_lp_dnn_3_bird_10_n01531178_15380.png,n01531178_15380.png,0.0,-0.48542485,2.9371653,-2.4201367
bagnet33,1,446,NaN,keyboard,bear,7,0446_lp_dnn_7_bear_10_n02134084_17529.png,n02134084_17529.png,0.0,-1.1467069,5.3530054,-4.5959907
bagnet33,1,447,NaN,clock,bicycle,10,0447_lp_dnn_10_bicycle_10_n02835271_22623.png,n02835271_22623.png,0.0,-1.0739359,2.9390175,-2.8375866
bagnet33,1,448,NaN,clock,chair,15,0448_lp_dnn_15_chair_10_n02791124_3160.png,n02791124_3160.png,0.0,0.13377306,3.4909973,-2.3739161
bagnet33,1,449,NaN,bottle,bottle,0,0449_lp_dnn_0_bottle_10_n02823428_2422.png,n02823428_2422.png,1.0,12.322078,5.798497,4.6128683
bagnet33,1,450,NaN,clock,bear,7,0450_lp_dnn_7_bear_10_n02134084_34902.png,n02134084_34902.png,0.0,-1.8854326,3.0852492,-3.5148027
bagnet33,1,451,NaN,clock,bicycle,15,0451_lp_dnn_15_bicycle_10_n02835271_3535.png,n02835271_3535.png,0.0,-1.162457,3.0642297,-2.9887187
bagnet33,1,452,NaN,oven,oven,1,0452_lp_dnn_1_oven_10_n04111531_10640.png,n04111531_10640.png,1.0,9.883438,4.1057534,4.08544
bagnet33,1,453,NaN,clock,keyboard,40,0453_lp_dnn_40_keyboard_10_n04505470_1338.png,n04505470_1338.png,0.0,0.24491972,3.4196215,-2.244853
bagnet33,1,454,NaN,keyboard,keyboard,0,0454_lp_dnn_0_keyboard_10_n03085013_26656.png,n03085013_26656.png,1.0,8.857168,7.670794,0.83889323
bagnet33,1,455,NaN,keyboard,boat,5,0455_lp_dnn_5_boat_10_n03344393_9575.png,n03344393_9575.png,0.0,-1.6666977,5.702398,-5.2107377
bagnet33,1,456,NaN,boat,boat,1,0456_lp_dnn_1_boat_10_n03344393_4616.png,n03344393_4616.png,1.0,4.555631,2.5913138,1.3889822
bagnet33,1,457,NaN,bicycle,bicycle,0,0457_lp_dnn_0_bicycle_10_n02835271_11929.png,n02835271_11929.png,1.0,17.231037,2.194311,10.632571
bagnet33,1,458,NaN,keyboard,keyboard,3,0458_lp_dnn_3_keyboard_10_n03085013_20515.png,n03085013_20515.png,1.0,14.094059,4.7371173,6.616357
bagnet33,1,459,NaN,clock,dog,40,0459_lp_dnn_40_dog_10_n02088364_3791.png,n02088364_3791.png,0.0,-1.2063725,3.4262114,-3.2757313
bagnet33,1,460,NaN,airplane,airplane,0,0460_lp_dnn_0_airplane_10_n02690373_10114.png,n02690373_10114.png,1.0,24.571278,7.4198604,12.127883
bagnet33,1,461,NaN,clock,airplane,10,0461_lp_dnn_10_airplane_10_n02690373_8543.png,n02690373_8543.png,0.0,-0.07144864,2.956481,-2.1410697
bagnet33,1,462,NaN,keyboard,chair,7,0462_lp_dnn_7_chair_10_n04429376_14967.png,n04429376_14967.png,0.0,0.5357487,3.7493525,-2.272361
bagnet33,1,463,NaN,clock,cat,15,0463_lp_dnn_15_cat_10_n02125311_24439.png,n02125311_24439.png,0.0,1.2381778,3.9223316,-1.8979834
bagnet33,1,464,NaN,keyboard,truck,5,0464_lp_dnn_5_truck_10_n03417042_4665.png,n03417042_4665.png,0.0,-2.0710678,7.6977134,-6.907572
bagnet33,1,465,NaN,clock,elephant,40,0465_lp_dnn_40_elephant_10_n02504013_4044.png,n02504013_4044.png,0.0,-2.3474257,3.2136176,-3.9322515
bagnet33,1,466,NaN,bird,bird,1,0466_lp_dnn_1_bird_10_n01843065_3596.png,n01843065_3596.png,1.0,3.2699542,2.2097862,0.749652
bagnet33,1,467,NaN,clock,bird,10,0467_lp_dnn_10_bird_10_n02011460_17499.png,n02011460_17499.png,0.0,0.5835245,3.15141,-1.8157694
bagnet33,1,468,NaN,elephant,elephant,0,0468_lp_dnn_0_elephant_10_n02504458_7506.png,n02504458_7506.png,1.0,15.015095,2.0137303,9.193354
bagnet33,1,469,NaN,clock,keyboard,40,0469_lp_dnn_40_keyboard_10_n03085013_21955.png,n03085013_21955.png,0.0,-0.2510345,3.073372,-2.3507104
bagnet33,1,470,NaN,clock,clock,40,0470_lp_dnn_40_clock_10_n02708093_7810.png,n02708093_7810.png,1.0,4.2156024,1.9845651,1.5775815
bagnet33,1,471,NaN,clock,car,40,0471_lp_dnn_40_car_10_n02814533_7984.png,n02814533_7984.png,0.0,-1.7375126,3.0945501,-3.4167843
bagnet33,1,472,NaN,keyboard,dog,5,0472_lp_dnn_5_dog_10_n02106382_1806.png,n02106382_1806.png,0.0,1.4194583,3.3709874,-1.3799396
bagnet33,1,473,NaN,clock,chair,15,0473_lp_dnn_15_chair_10_n02791124_3890.png,n02791124_3890.png,0.0,-0.14148803,2.7806816,-2.066286
bagnet33,1,474,NaN,keyboard,elephant,7,0474_lp_dnn_7_elephant_10_n02504013_16929.png,n02504013_16929.png,0.0,-2.2302895,3.7622447,-4.2373614
bagnet33,1,475,NaN,keyboard,elephant,7,0475_lp_dnn_7_elephant_10_n02504013_8052.png,n02504013_8052.png,0.0,-2.16937,3.2301636,-3.8180466
bagnet33,1,476,NaN,bear,bear,1,0476_lp_dnn_1_bear_10_n02132136_1584.png,n02132136_1584.png,1.0,4.300154,2.6425803,1.1720818
bagnet33,1,477,NaN,keyboard,keyboard,1,0477_lp_dnn_1_keyboard_10_n04505470_532.png,n04505470_532.png,1.0,20.171629,9.320851,7.6726584
bagnet33,1,478,NaN,airplane,airplane,1,0478_lp_dnn_1_airplane_10_n02690373_3988.png,n02690373_3988.png,1.0,14.034903,4.608342,6.665585
bagnet33,1,479,NaN,clock,bicycle,15,0479_lp_dnn_15_bicycle_10_n03792782_13051.png,n03792782_13051.png,0.0,-1.2321595,3.084772,-3.0525317
bagnet33,1,480,NaN,cat,bear,3,0480_lp_dnn_3_bear_10_n02134084_4818.png,n02134084_4818.png,0.0,1.1646993,2.5787823,-0.9999077
bagnet33,1,481,NaN,clock,boat,10,0481_lp_dnn_10_boat_10_n02951358_9146.png,n02951358_9146.png,0.0,-1.5348831,3.964329,-3.8885303
bagnet33,1,482,NaN,clock,keyboard,40,0482_lp_dnn_40_keyboard_10_n03085013_19317.png,n03085013_19317.png,0.0,0.08056915,3.6130877,-2.4978678
bagnet33,1,483,NaN,clock,bicycle,40,0483_lp_dnn_40_bicycle_10_n03792782_17666.png,n03792782_17666.png,0.0,-0.9609346,3.3074543,-3.0182066
bagnet33,1,484,NaN,clock,bear,40,0484_lp_dnn_40_bear_10_n02133161_20090.png,n02133161_20090.png,0.0,-1.9841286,3.6695993,-3.9977894
bagnet33,1,485,NaN,keyboard,bottle,3,0485_lp_dnn_3_bottle_10_n03937543_11101.png,n03937543_11101.png,0.0,1.5821356,4.662369,-2.1780539
bagnet33,1,486,NaN,keyboard,bear,7,0486_lp_dnn_7_bear_10_n02133161_2281.png,n02133161_2281.png,0.0,-0.026958019,2.8059928,-2.0031989
bagnet33,1,487,NaN,clock,airplane,10,0487_lp_dnn_10_airplane_10_n02690373_8813.png,n02690373_8813.png,0.0,-0.37328956,3.3815453,-2.6550694
bagnet33,1,488,NaN,clock,boat,40,0488_lp_dnn_40_boat_10_n03662601_33625.png,n03662601_33625.png,0.0,-1.3432537,3.7492344,-3.600933
bagnet33,1,489,NaN,knife,cat,40,0489_lp_dnn_40_cat_10_n02124075_9066.png,n02124075_9066.png,0.0,-0.3305923,3.5798182,-2.7650778
bagnet33,1,490,NaN,keyboard,oven,3,0490_lp_dnn_3_oven_10_n04111531_10216.png,n04111531_10216.png,0.0,-0.2257002,7.027311,-5.1286535
bagnet33,1,491,NaN,keyboard,bird,7,0491_lp_dnn_7_bird_10_n01614925_1097.png,n01614925_1097.png,0.0,-0.7489456,3.3192344,-2.8766377
bagnet33,1,492,NaN,elephant,bird,0,0492_lp_dnn_0_bird_10_n02017213_1163.png,n02017213_1163.png,0.0,0.614257,4.4281874,-2.6968563
bagnet33,1,493,NaN,clock,oven,40,0493_lp_dnn_40_oven_10_n04111531_283.png,n04111531_283.png,0.0,-3.6725783,3.7354763,-5.2382855
bagnet33,1,494,NaN,clock,truck,15,0494_lp_dnn_15_truck_10_n04467665_39317.png,n04467665_39317.png,0.0,-2.6355486,3.162546,-4.099872
bagnet33,1,495,NaN,dog,dog,1,0495_lp_dnn_1_dog_10_n02093754_5037.png,n02093754_5037.png,1.0,9.408786,5.614187,2.6831868
bagnet33,1,496,NaN,clock,bicycle,40,0496_lp_dnn_40_bicycle_10_n02835271_2580.png,n02835271_2580.png,0.0,-1.0001779,3.1393642,-2.9270983
bagnet33,1,497,NaN,keyboard,airplane,7,0497_lp_dnn_7_airplane_10_n02690373_2564.png,n02690373_2564.png,0.0,-1.6767224,4.6888504,-4.5011396
bagnet33,1,498,NaN,clock,truck,40,0498_lp_dnn_40_truck_10_n04467665_62626.png,n04467665_62626.png,0.0,-2.6446552,4.298889,-4.909827
bagnet33,1,499,NaN,clock,chair,10,0499_lp_dnn_10_chair_10_n04429376_2450.png,n04429376_2450.png,0.0,0.57680404,3.0391455,-1.7411382
bagnet33,1,500,NaN,keyboard,keyboard,0,0500_lp_dnn_0_keyboard_10_n04505470_4044.png,n04505470_4044.png,1.0,50.345917,10.980858,27.8353
bagnet33,1,501,NaN,clock,oven,15,0501_lp_dnn_15_oven_10_n04111531_8269.png,n04111531_8269.png,0.0,-1.5237055,4.589359,-4.3225894
bagnet33,1,502,NaN,clock,clock,7,0502_lp_dnn_7_clock_10_n02708093_6890.png,n02708093_6890.png,1.0,5.7076836,4.142923,1.106453
bagnet33,1,503,NaN,clock,oven,40,0503_lp_dnn_40_oven_10_n04111531_15947.png,n04111531_15947.png,0.0,-2.8471947,3.921197,-4.7859755
bagnet33,1,504,NaN,clock,bicycle,15,0504_lp_dnn_15_bicycle_10_n03792782_24734.png,n03792782_24734.png,0.0,-1.3631128,2.936098,-3.0400014
bagnet33,1,505,NaN,knife,chair,40,0505_lp_dnn_40_chair_10_n04099969_10401.png,n04099969_10401.png,0.0,0.13568626,4.037837,-2.7592373
bagnet33,1,506,NaN,keyboard,elephant,3,0506_lp_dnn_3_elephant_10_n02504458_2994.png,n02504458_2994.png,0.0,-0.5874818,4.6063943,-3.6726253
bagnet33,1,507,NaN,airplane,dog,0,0507_lp_dnn_0_dog_10_n02108422_1164.png,n02108422_1164.png,0.0,2.3285468,5.1099544,-1.9667522
bagnet33,1,508,NaN,clock,clock,5,0508_lp_dnn_5_clock_10_n04548280_2421.png,n04548280_2421.png,1.0,6.805156,6.0814285,0.5117528
bagnet33,1,509,NaN,keyboard,oven,5,0509_lp_dnn_5_oven_10_n04111531_2930.png,n04111531_2930.png,0.0,-2.1591487,6.004117,-5.7723002
bagnet33,1,510,NaN,bear,bear,1,0510_lp_dnn_1_bear_10_n02132136_4271.png,n02132136_4271.png,1.0,6.921068,3.624592,2.3309608
bagnet33,1,511,NaN,keyboard,oven,7,0511_lp_dnn_7_oven_10_n04111531_8603.png,n04111531_8603.png,0.0,-1.9942313,4.375749,-4.5042562
bagnet33,1,512,NaN,clock,bicycle,40,0512_lp_dnn_40_bicycle_10_n02835271_16850.png,n02835271_16850.png,0.0,-0.8977815,3.8886375,-3.3845093
bagnet33,1,513,NaN,keyboard,knife,3,0513_lp_dnn_3_knife_10_n03041632_47410.png,n03041632_47410.png,0.0,1.0926514,7.675623,-4.654864
bagnet33,1,514,NaN,clock,elephant,15,0514_lp_dnn_15_elephant_10_n02504458_1000.png,n02504458_1000.png,0.0,-3.034949,3.9662354,-4.950585
bagnet33,1,515,NaN,cat,cat,1,0515_lp_dnn_1_cat_10_n02124075_8884.png,n02124075_8884.png,1.0,16.756102,6.687994,7.1192274
bagnet33,1,516,NaN,keyboard,bird,7,0516_lp_dnn_7_bird_10_n01622779_1370.png,n01622779_1370.png,0.0,-0.44571996,4.0719323,-3.1944628
bagnet33,1,517,NaN,cat,cat,0,0517_lp_dnn_0_cat_10_n02123045_8215.png,n02123045_8215.png,1.0,19.596766,3.196966,11.59641
bagnet33,1,518,NaN,keyboard,car,5,0518_lp_dnn_5_car_10_n03100240_3083.png,n03100240_3083.png,0.0,-2.3976495,5.990347,-5.9312096
bagnet33,1,519,NaN,keyboard,bicycle,3,0519_lp_dnn_3_bicycle_10_n03792782_9280.png,n03792782_9280.png,0.0,-2.320208,4.613503,-4.902874
bagnet33,1,520,NaN,keyboard,bird,5,0520_lp_dnn_5_bird_10_n01819313_3505.png,n01819313_3505.png,0.0,-1.0184714,2.1287246,-2.2254035
bagnet33,1,521,NaN,clock,bird,15,0521_lp_dnn_15_bird_10_n01531178_5130.png,n01531178_5130.png,0.0,0.4439373,3.7122154,-2.3110216
bagnet33,1,522,NaN,clock,clock,15,0522_lp_dnn_15_clock_10_n02708093_2867.png,n02708093_2867.png,1.0,4.0543265,2.0560687,1.4129817
bagnet33,1,523,NaN,keyboard,bear,7,0523_lp_dnn_7_bear_10_n02134418_258.png,n02134418_258.png,0.0,-0.940614,6.7325926,-5.4257765
bagnet33,1,524,NaN,bottle,bottle,1,0524_lp_dnn_1_bottle_10_n02823428_8280.png,n02823428_8280.png,1.0,8.004666,4.820283,2.2516992
bagnet33,1,525,NaN,keyboard,elephant,7,0525_lp_dnn_7_elephant_10_n02504013_24811.png,n02504013_24811.png,0.0,-3.7438066,5.614179,-6.617095
bagnet33,1,526,NaN,clock,bicycle,40,0526_lp_dnn_40_bicycle_10_n02835271_14499.png,n02835271_14499.png,0.0,-1.29756,3.420674,-3.3362954
bagnet33,1,527,NaN,bottle,bottle,0,0527_lp_dnn_0_bottle_10_n02823428_14536.png,n02823428_14536.png,1.0,13.006404,6.415803,4.660259
bagnet33,1,528,NaN,keyboard,knife,5,0528_lp_dnn_5_knife_10_n03041632_21723.png,n03041632_21723.png,0.0,0.29219526,5.705064,-3.827476
bagnet33,1,529,NaN,clock,cat,10,0529_lp_dnn_10_cat_10_n02123159_8396.png,n02123159_8396.png,0.0,2.279682,2.7910626,-0.36160076
bagnet33,1,530,NaN,clock,bottle,40,0530_lp_dnn_40_bottle_10_n02823428_3486.png,n02823428_3486.png,0.0,1.8678752,3.6814985,-1.2824254
bagnet33,1,531,NaN,elephant,bird,0,0531_lp_dnn_0_bird_10_n01514859_12705.png,n01514859_12705.png,0.0,1.532699,3.5393307,-1.418903
bagnet33,1,532,NaN,keyboard,dog,7,0532_lp_dnn_7_dog_10_n02097047_911.png,n02097047_911.png,0.0,0.86889327,5.150762,-3.0277386
bagnet33,1,533,NaN,keyboard,keyboard,10,0533_lp_dnn_10_keyboard_10_n04505470_3132.png,n04505470_3132.png,1.0,4.5327473,4.2704883,0.18544513
bagnet33,1,534,NaN,airplane,airplane,1,0534_lp_dnn_1_airplane_10_n02690373_11908.png,n02690373_11908.png,1.0,6.406185,3.864009,1.7975901
bagnet33,1,535,NaN,clock,elephant,40,0535_lp_dnn_40_elephant_10_n02504458_5169.png,n02504458_5169.png,0.0,-2.2147865,3.9505424,-4.359546
bagnet33,1,536,NaN,clock,bottle,15,0536_lp_dnn_15_bottle_10_n03937543_5375.png,n03937543_5375.png,0.0,1.7789513,3.9518611,-1.5364792
bagnet33,1,537,NaN,keyboard,bottle,1,0537_lp_dnn_1_bottle_10_n04591713_6138.png,n04591713_6138.png,0.0,3.5002136,8.271306,-3.3736718
bagnet33,1,538,NaN,knife,bottle,15,0538_lp_dnn_15_bottle_10_n04557648_12559.png,n04557648_12559.png,0.0,1.6832074,3.0921602,-0.99628013
bagnet33,1,539,NaN,knife,clock,40,0539_lp_dnn_40_clock_10_n03196217_3903.png,n03196217_3903.png,0.0,3.1751995,4.20595,-0.72885054
bagnet33,1,540,NaN,clock,keyboard,15,0540_lp_dnn_15_keyboard_10_n04505470_4732.png,n04505470_4732.png,0.0,1.9682958,4.3867455,-1.7101022
bagnet33,1,541,NaN,clock,knife,40,0541_lp_dnn_40_knife_10_n03041632_8468.png,n03041632_8468.png,0.0,2.4749694,3.95176,-1.0442487
bagnet33,1,542,NaN,keyboard,chair,3,0542_lp_dnn_3_chair_10_n02791124_14040.png,n02791124_14040.png,0.0,1.9549317,6.446783,-3.1762185
bagnet33,1,543,NaN,clock,boat,15,0543_lp_dnn_15_boat_10_n04273569_3095.png,n04273569_3095.png,0.0,-0.6414916,2.644325,-2.3234234
bagnet33,1,544,NaN,bird,bird,1,0544_lp_dnn_1_bird_10_n02002724_18548.png,n02002724_18548.png,1.0,3.8235745,1.8370109,1.4047127
bagnet33,1,545,NaN,clock,oven,10,0545_lp_dnn_10_oven_10_n04111531_8537.png,n04111531_8537.png,0.0,-2.631618,3.4085147,-4.2710185
bagnet33,1,546,NaN,clock,chair,40,0546_lp_dnn_40_chair_10_n02791124_1935.png,n02791124_1935.png,0.0,0.35634717,4.194454,-2.7139516
bagnet33,1,547,NaN,keyboard,dog,5,0547_lp_dnn_5_dog_10_n02102040_1660.png,n02102040_1660.png,0.0,1.8032058,4.386272,-1.8265035
bagnet33,1,548,NaN,elephant,bear,0,0548_lp_dnn_0_bear_10_n02134084_7790.png,n02134084_7790.png,0.0,7.929924,8.5944605,-0.46989825
bagnet33,1,549,NaN,keyboard,knife,10,0549_lp_dnn_10_knife_10_n03041632_17091.png,n03041632_17091.png,0.0,0.6660766,2.6616783,-1.4111035
bagnet33,1,550,NaN,keyboard,keyboard,5,0550_lp_dnn_5_keyboard_10_n04505470_9331.png,n04505470_9331.png,1.0,3.2541318,2.7805488,0.33487374
bagnet33,1,551,NaN,keyboard,airplane,5,0551_lp_dnn_5_airplane_10_n02690373_6887.png,n02690373_6887.png,0.0,-1.2395766,4.768721,-4.2485085
bagnet33,1,552,NaN,bottle,chair,1,0552_lp_dnn_1_chair_10_n02791124_2540.png,n02791124_2540.png,0.0,2.8256657,4.60508,-1.258236
bagnet33,1,553,NaN,keyboard,truck,3,0553_lp_dnn_3_truck_10_n03796401_23774.png,n03796401_23774.png,0.0,-0.8017405,4.9651012,-4.077773
bagnet33,1,554,NaN,clock,knife,40,0554_lp_dnn_40_knife_10_n03041632_28201.png,n03041632_28201.png,0.0,1.5716932,3.9042413,-1.6493607
bagnet33,1,555,NaN,keyboard,clock,5,0555_lp_dnn_5_clock_10_n04548280_3563.png,n04548280_3563.png,0.0,3.508828,3.5285308,-0.013932062
bagnet33,1,556,NaN,bicycle,bicycle,0,0556_lp_dnn_0_bicycle_10_n03792782_8287.png,n03792782_8287.png,1.0,20.198586,3.8974564,11.526639
bagnet33,1,557,NaN,keyboard,clock,3,0557_lp_dnn_3_clock_10_n04548280_4225.png,n04548280_4225.png,0.0,5.2276793,5.5891604,-0.25560582
bagnet33,1,558,NaN,car,car,0,0558_lp_dnn_0_car_10_n04285008_11931.png,n04285008_11931.png,1.0,18.626617,13.846363,3.3801503
bagnet33,1,559,NaN,keyboard,elephant,5,0559_lp_dnn_5_elephant_10_n02504013_9396.png,n02504013_9396.png,0.0,-2.4117002,5.191345,-5.376165
bagnet33,1,560,NaN,clock,boat,40,0560_lp_dnn_40_boat_10_n03344393_2915.png,n03344393_2915.png,0.0,-1.0550942,3.329527,-3.1003954
bagnet33,1,561,NaN,keyboard,bicycle,7,0561_lp_dnn_7_bicycle_10_n03792782_9692.png,n03792782_9692.png,0.0,-1.2073079,5.6687865,-4.862133
bagnet33,1,562,NaN,keyboard,chair,7,0562_lp_dnn_7_chair_10_n02791124_57.png,n02791124_57.png,0.0,0.3808898,5.142695,-3.3671048
bagnet33,1,563,NaN,clock,car,40,0563_lp_dnn_40_car_10_n04285008_3185.png,n04285008_3185.png,0.0,-1.5690027,3.605426,-3.6588738
bagnet33,1,564,NaN,boat,boat,1,0564_lp_dnn_1_boat_10_n02951358_34917.png,n02951358_34917.png,1.0,4.0050464,2.919653,0.7674891
bagnet33,1,565,NaN,clock,clock,0,0565_lp_dnn_0_clock_10_n02708093_2762.png,n02708093_2762.png,1.0,31.302343,9.433442,15.463648
bagnet33,1,566,NaN,clock,knife,5,0566_lp_dnn_5_knife_10_n03041632_4879.png,n03041632_4879.png,0.0,2.4939847,3.0423355,-0.38774258
bagnet33,1,567,NaN,car,car,0,0567_lp_dnn_0_car_10_n02814533_4689.png,n02814533_4689.png,1.0,8.285941,8.163743,0.08640711
bagnet33,1,568,NaN,boat,boat,1,0568_lp_dnn_1_boat_10_n02951358_2445.png,n02951358_2445.png,1.0,4.535476,2.1930513,1.6563445
bagnet33,1,569,NaN,clock,truck,40,0569_lp_dnn_40_truck_10_n03417042_10038.png,n03417042_10038.png,0.0,-2.2209074,3.4684134,-4.0229573
bagnet33,1,570,NaN,clock,car,10,0570_lp_dnn_10_car_10_n02814533_32924.png,n02814533_32924.png,0.0,-2.3794355,3.4705813,-4.1365867
bagnet33,1,571,NaN,clock,bottle,10,0571_lp_dnn_10_bottle_10_n02823428_5135.png,n02823428_5135.png,0.0,1.1592274,2.5156357,-0.9591256
bagnet33,1,572,NaN,keyboard,keyboard,1,0572_lp_dnn_1_keyboard_10_n03085013_9066.png,n03085013_9066.png,1.0,12.985418,2.424637,7.4676003
bagnet33,1,573,NaN,clock,oven,10,0573_lp_dnn_10_oven_10_n04111531_11279.png,n04111531_11279.png,0.0,-1.4166948,3.9774554,-3.8142402
bagnet33,1,574,NaN,keyboard,car,10,0574_lp_dnn_10_car_10_n04285008_12182.png,n04285008_12182.png,0.0,-3.93423,4.4688377,-5.9418664
bagnet33,1,575,NaN,elephant,bear,0,0575_lp_dnn_0_bear_10_n02133161_5681.png,n02133161_5681.png,0.0,1.6775899,3.710228,-1.4372922
bagnet33,1,576,NaN,keyboard,dog,5,0576_lp_dnn_5_dog_10_n02108915_5514.png,n02108915_5514.png,0.0,0.78074294,2.76894,-1.4058677
bagnet33,1,577,NaN,clock,airplane,15,0577_lp_dnn_15_airplane_10_n02690373_7239.png,n02690373_7239.png,0.0,0.90805966,3.384803,-1.7513222
bagnet33,1,578,NaN,dog,dog,0,0578_lp_dnn_0_dog_10_n02094258_4979.png,n02094258_4979.png,1.0,12.398411,12.046945,0.24852413
bagnet33,1,579,NaN,keyboard,chair,3,0579_lp_dnn_3_chair_10_n04429376_15078.png,n04429376_15078.png,0.0,-0.6001377,3.329423,-2.778619
bagnet33,1,580,NaN,clock,clock,40,0580_lp_dnn_40_clock_10_n02708093_8276.png,n02708093_8276.png,1.0,4.63929,2.2446735,1.6932495
bagnet33,1,581,NaN,keyboard,keyboard,3,0581_lp_dnn_3_keyboard_10_n04505470_3947.png,n04505470_3947.png,1.0,21.377478,6.3811913,10.603976
bagnet33,1,582,NaN,clock,car,15,0582_lp_dnn_15_car_10_n03100240_2996.png,n03100240_2996.png,0.0,-2.3348305,3.4018123,-4.056419
bagnet33,1,583,NaN,clock,cat,10,0583_lp_dnn_10_cat_10_n02123159_3226.png,n02123159_3226.png,0.0,1.7508949,3.2952974,-1.0920575
bagnet33,1,584,NaN,keyboard,truck,7,0584_lp_dnn_7_truck_10_n03417042_19905.png,n03417042_19905.png,0.0,-2.5272899,4.243292,-4.787524
bagnet33,1,585,NaN,elephant,bird,0,0585_lp_dnn_0_bird_10_n02009229_4838.png,n02009229_4838.png,0.0,0.72730917,3.6575239,-2.0719748
bagnet33,1,586,NaN,oven,oven,1,0586_lp_dnn_1_oven_10_n04111531_14383.png,n04111531_14383.png,1.0,4.6608644,4.5740767,0.06136817
bagnet33,1,587,NaN,keyboard,bear,5,0587_lp_dnn_5_bear_10_n02132136_1152.png,n02132136_1152.png,0.0,-0.88706857,5.902671,-4.801071
bagnet33,1,588,NaN,cat,cat,0,0588_lp_dnn_0_cat_10_n02123597_10952.png,n02123597_10952.png,1.0,3.5669746,3.4251842,0.10026095
bagnet33,1,589,NaN,boat,boat,0,0589_lp_dnn_0_boat_10_n04273569_12318.png,n04273569_12318.png,1.0,8.735628,8.44086,0.20843269
bagnet33,1,590,NaN,clock,bottle,40,0590_lp_dnn_40_bottle_10_n03937543_1391.png,n03937543_1391.png,0.0,2.0453436,4.018584,-1.3952914
bagnet33,1,591,NaN,clock,dog,10,0591_lp_dnn_10_dog_10_n02091032_9464.png,n02091032_9464.png,0.0,-0.47736487,3.1242645,-2.5467365
bagnet33,1,592,NaN,keyboard,oven,7,0592_lp_dnn_7_oven_10_n04111531_5218.png,n04111531_5218.png,0.0,-3.3868487,8.01184,-8.06009
bagnet33,1,593,NaN,keyboard,airplane,5,0593_lp_dnn_5_airplane_10_n02690373_9423.png,n02690373_9423.png,0.0,-1.8339432,6.8988886,-6.175045
bagnet33,1,594,NaN,elephant,bird,1,0594_lp_dnn_1_bird_10_n01860187_348.png,n01860187_348.png,0.0,1.421878,5.5556235,-2.9229996
bagnet33,1,595,NaN,clock,bird,40,0595_lp_dnn_40_bird_10_n02006656_8975.png,n02006656_8975.png,0.0,0.032278035,3.716273,-2.6049778
bagnet33,1,596,NaN,keyboard,oven,10,0596_lp_dnn_10_oven_10_n04111531_7619.png,n04111531_7619.png,0.0,-3.1059818,6.1833277,-6.568534
bagnet33,1,597,NaN,keyboard,bicycle,3,0597_lp_dnn_3_bicycle_10_n02835271_9202.png,n02835271_9202.png,0.0,0.379198,4.9259405,-3.2150326
bagnet33,1,598,NaN,clock,boat,10,0598_lp_dnn_10_boat_10_n03344393_7826.png,n03344393_7826.png,0.0,-1.4158143,2.6512697,-2.8758626
bagnet33,1,599,NaN,keyboard,elephant,3,0599_lp_dnn_3_elephant_10_n02504013_10330.png,n02504013_10330.png,0.0,2.0352895,4.2837653,-1.5899125
bagnet33,1,600,NaN,keyboard,truck,10,0600_lp_dnn_10_truck_10_n04467665_69202.png,n04467665_69202.png,0.0,-2.9432142,2.8329077,-4.0843353
bagnet33,1,601,NaN,keyboard,keyboard,7,0601_lp_dnn_7_keyboard_10_n04505470_1120.png,n04505470_1120.png,1.0,4.952242,3.70508,0.88187665
bagnet33,1,602,NaN,keyboard,car,5,0602_lp_dnn_5_car_10_n04285008_434.png,n04285008_434.png,0.0,-3.073239,5.249504,-5.8850684
bagnet33,1,603,NaN,cat,cat,1,0603_lp_dnn_1_cat_10_n02123597_7592.png,n02123597_7592.png,1.0,4.9601393,2.454521,1.7717397
bagnet33,1,604,NaN,clock,dog,15,0604_lp_dnn_15_dog_10_n02090721_583.png,n02090721_583.png,0.0,-0.48372716,3.5790472,-2.8728151
bagnet33,1,605,NaN,bottle,knife,1,0605_lp_dnn_1_knife_10_n03041632_86783.png,n03041632_86783.png,0.0,2.939036,3.3439648,-0.286328
bagnet33,1,606,NaN,clock,dog,10,0606_lp_dnn_10_dog_10_n02112018_11708.png,n02112018_11708.png,0.0,-0.5710472,3.7956352,-3.0877109
bagnet33,1,607,NaN,elephant,bird,0,0607_lp_dnn_0_bird_10_n02018795_5662.png,n02018795_5662.png,0.0,-0.22798498,4.792876,-3.5502846
bagnet33,1,608,NaN,keyboard,elephant,5,0608_lp_dnn_5_elephant_10_n02504013_1088.png,n02504013_1088.png,0.0,-2.2953787,5.153326,-5.26703
bagnet33,1,609,NaN,keyboard,elephant,5,0609_lp_dnn_5_elephant_10_n02504458_66.png,n02504458_66.png,0.0,-2.0252168,5.662388,-5.4359574
bagnet33,1,610,NaN,keyboard,dog,10,0610_lp_dnn_10_dog_10_n02105056_9099.png,n02105056_9099.png,0.0,0.038515348,2.850104,-1.9880935
bagnet33,1,611,NaN,keyboard,boat,10,0611_lp_dnn_10_boat_10_n04273569_19699.png,n04273569_19699.png,0.0,-2.0308766,4.2167253,-4.4177217
bagnet33,1,612,NaN,dog,dog,1,0612_lp_dnn_1_dog_10_n02097047_2376.png,n02097047_2376.png,1.0,6.7215266,5.2619033,1.0321096
bagnet33,1,613,NaN,boat,boat,1,0613_lp_dnn_1_boat_10_n03662601_11901.png,n03662601_11901.png,1.0,2.3492165,2.113284,0.16682936
bagnet33,1,614,NaN,clock,oven,1,0614_lp_dnn_1_oven_10_n04111531_7667.png,n04111531_7667.png,0.0,1.541444,4.058942,-1.7801399
bagnet33,1,615,NaN,clock,knife,10,0615_lp_dnn_10_knife_10_n03041632_24384.png,n03041632_24384.png,0.0,1.9218123,3.9416113,-1.4282136
bagnet33,1,616,NaN,keyboard,car,7,0616_lp_dnn_7_car_10_n03100240_1216.png,n03100240_1216.png,0.0,-3.1842709,5.5256414,-6.1588383
bagnet33,1,617,NaN,bicycle,bicycle,0,0617_lp_dnn_0_bicycle_10_n03792782_3136.png,n03792782_3136.png,1.0,6.3942327,2.4698417,2.7749636
bagnet33,1,618,NaN,keyboard,keyboard,5,0618_lp_dnn_5_keyboard_10_n03085013_26573.png,n03085013_26573.png,1.0,5.142435,2.8488796,1.6217886
bagnet33,1,619,NaN,clock,chair,0,0619_lp_dnn_0_chair_10_n04429376_7888.png,n04429376_7888.png,0.0,5.4642773,6.6147523,-0.8135087
bagnet33,1,620,NaN,keyboard,chair,5,0620_lp_dnn_5_chair_10_n03376595_899.png,n03376595_899.png,0.0,-0.027641863,5.1462483,-3.6584928
bagnet33,1,621,NaN,keyboard,bicycle,5,0621_lp_dnn_5_bicycle_10_n02835271_24207.png,n02835271_24207.png,0.0,-1.4943866,6.4656076,-5.6285663
bagnet33,1,622,NaN,keyboard,oven,3,0622_lp_dnn_3_oven_10_n04111531_7329.png,n04111531_7329.png,0.0,1.4275811,6.125156,-3.321687
bagnet33,1,623,NaN,keyboard,oven,5,0623_lp_dnn_5_oven_10_n04111531_12942.png,n04111531_12942.png,0.0,-0.9517966,7.0847034,-5.682664
bagnet33,1,624,NaN,clock,bear,15,0624_lp_dnn_15_bear_10_n02134418_1978.png,n02134418_1978.png,0.0,-0.8170706,3.5639331,-3.0978377
bagnet33,1,625,NaN,clock,cat,40,0625_lp_dnn_40_cat_10_n02123159_5872.png,n02123159_5872.png,0.0,0.35760415,3.9144623,-2.5150785
bagnet33,1,626,NaN,clock,keyboard,15,0626_lp_dnn_15_keyboard_10_n03085013_18797.png,n03085013_18797.png,0.0,0.6167038,3.7088013,-2.186443
bagnet33,1,627,NaN,clock,airplane,15,0627_lp_dnn_15_airplane_10_n02690373_5496.png,n02690373_5496.png,0.0,1.3201022,3.3077052,-1.4054476
bagnet33,1,628,NaN,clock,oven,15,0628_lp_dnn_15_oven_10_n04111531_21963.png,n04111531_21963.png,0.0,-2.2919006,4.271112,-4.640751
bagnet33,1,629,NaN,bottle,bottle,0,0629_lp_dnn_0_bottle_10_n02823428_2918.png,n02823428_2918.png,1.0,18.108128,3.763515,10.143172
bagnet33,1,630,NaN,keyboard,keyboard,10,0630_lp_dnn_10_keyboard_10_n04505470_9570.png,n04505470_9570.png,1.0,3.3314614,2.6065426,0.51259506
bagnet33,1,631,NaN,bird,bird,1,0631_lp_dnn_1_bird_10_n02002556_5977.png,n02002556_5977.png,1.0,1.7078248,1.3462516,0.25567088
bagnet33,1,632,NaN,clock,airplane,40,0632_lp_dnn_40_airplane_10_n02690373_5961.png,n02690373_5961.png,0.0,0.71114206,3.217842,-1.7725046
bagnet33,1,633,NaN,clock,clock,3,0633_lp_dnn_3_clock_10_n04548280_5765.png,n04548280_5765.png,1.0,4.741563,3.4713974,0.89814264
bagnet33,1,634,NaN,clock,cat,15,0634_lp_dnn_15_cat_10_n02123597_11940.png,n02123597_11940.png,0.0,0.9248608,3.7032287,-1.9646028
bagnet33,1,635,NaN,keyboard,airplane,3,0635_lp_dnn_3_airplane_10_n02690373_3993.png,n02690373_3993.png,0.0,-0.5601221,8.430994,-6.3576794
bagnet33,1,636,NaN,keyboard,chair,7,0636_lp_dnn_7_chair_10_n04099969_3984.png,n04099969_3984.png,0.0,0.50321543,2.962155,-1.7387328
bagnet33,1,637,NaN,clock,airplane,3,0637_lp_dnn_3_airplane_10_n02690373_939.png,n02690373_939.png,0.0,-0.27566582,3.8861554,-2.9428523
bagnet33,1,638,NaN,car,car,1,0638_lp_dnn_1_car_10_n02814533_48541.png,n02814533_48541.png,1.0,13.304315,9.746804,2.5155396
bagnet33,1,639,NaN,knife,clock,10,0639_lp_dnn_10_clock_10_n03196217_3986.png,n03196217_3986.png,0.0,2.740362,3.3637867,-0.44082788
bagnet33,1,640,NaN,keyboard,clock,7,0640_lp_dnn_7_clock_10_n03196217_3006.png,n03196217_3006.png,0.0,3.5385044,5.924302,-1.6870137
bagnet33,1,641,NaN,knife,boat,40,0641_lp_dnn_40_boat_10_n03662601_8947.png,n03662601_8947.png,0.0,-0.80263996,3.6619875,-3.1569684
bagnet33,1,642,NaN,clock,bear,40,0642_lp_dnn_40_bear_10_n02132136_14346.png,n02132136_14346.png,0.0,-2.7637296,4.5194654,-5.1499968
bagnet33,1,643,NaN,clock,elephant,10,0643_lp_dnn_10_elephant_10_n02504458_3209.png,n02504458_3209.png,0.0,-2.2796226,2.9663181,-3.7094402
bagnet33,1,644,NaN,keyboard,dog,3,0644_lp_dnn_3_dog_10_n02088364_4980.png,n02088364_4980.png,0.0,0.47935107,4.256347,-2.6707397
bagnet33,1,645,NaN,elephant,elephant,0,0645_lp_dnn_0_elephant_10_n02504013_1187.png,n02504013_1187.png,1.0,13.278295,1.8477873,8.082589
bagnet33,1,646,NaN,airplane,airplane,0,0646_lp_dnn_0_airplane_10_n02690373_20690.png,n02690373_20690.png,1.0,11.929654,3.1797297,6.1871314
bagnet33,1,647,NaN,clock,bird,10,0647_lp_dnn_10_bird_10_n01616318_2290.png,n01616318_2290.png,0.0,-0.48542705,3.7043302,-2.962606
bagnet33,1,648,NaN,clock,bird,1,0648_lp_dnn_1_bird_10_n02051845_1935.png,n02051845_1935.png,0.0,1.0627658,2.9739144,-1.3513861
bagnet33,1,649,NaN,truck,truck,0,0649_lp_dnn_0_truck_10_n04467665_19131.png,n04467665_19131.png,1.0,7.917409,5.783237,1.5090874
bagnet33,1,650,NaN,keyboard,car,5,0650_lp_dnn_5_car_10_n03100240_2138.png,n03100240_2138.png,0.0,-1.5145811,4.604306,-4.326707
bagnet33,1,651,NaN,clock,elephant,10,0651_lp_dnn_10_elephant_10_n02504458_5197.png,n02504458_5197.png,0.0,-3.2618542,4.216067,-5.2876887
bagnet33,1,652,NaN,keyboard,bird,5,0652_lp_dnn_5_bird_10_n01819313_5504.png,n01819313_5504.png,0.0,-0.30442664,3.3902571,-2.612536
bagnet33,1,653,NaN,keyboard,bird,3,0653_lp_dnn_3_bird_10_n01560419_1470.png,n01560419_1470.png,0.0,-1.8823237,4.6856356,-4.6442485
bagnet33,1,654,NaN,keyboard,airplane,3,0654_lp_dnn_3_airplane_10_n02690373_8650.png,n02690373_8650.png,0.0,0.6243887,4.4779367,-2.72487
bagnet33,1,655,NaN,knife,bird,40,0655_lp_dnn_40_bird_10_n02028035_1677.png,n02028035_1677.png,0.0,0.27164713,3.2153072,-2.081482
bagnet33,1,656,NaN,clock,clock,1,0656_lp_dnn_1_clock_10_n04548280_9700.png,n04548280_9700.png,1.0,29.18373,5.3761044,16.834534
bagnet33,1,657,NaN,knife,knife,5,0657_lp_dnn_5_knife_10_n03041632_5162.png,n03041632_5162.png,1.0,3.5879526,2.9450831,0.45457736
bagnet33,1,658,NaN,keyboard,airplane,10,0658_lp_dnn_10_airplane_10_n02690373_13326.png,n02690373_13326.png,0.0,-0.727782,2.8602858,-2.537147
bagnet33,1,659,NaN,keyboard,oven,3,0659_lp_dnn_3_oven_10_n04111531_857.png,n04111531_857.png,0.0,-2.3372161,2.9253995,-3.7212312
bagnet33,1,660,NaN,knife,bottle,40,0660_lp_dnn_40_bottle_10_n04560804_3392.png,n04560804_3392.png,0.0,1.6289301,3.702658,-1.4663471
bagnet33,1,661,NaN,airplane,airplane,0,0661_lp_dnn_0_airplane_10_n02690373_4269.png,n02690373_4269.png,1.0,7.7864027,4.709681,2.1755707
bagnet33,1,662,NaN,keyboard,bicycle,7,0662_lp_dnn_7_bicycle_10_n02835271_12608.png,n02835271_12608.png,0.0,-1.1011689,4.165206,-3.7238894
bagnet33,1,663,NaN,elephant,elephant,1,0663_lp_dnn_1_elephant_10_n02504458_4868.png,n02504458_4868.png,1.0,12.056382,2.8875117,6.483371
bagnet33,1,664,NaN,keyboard,chair,7,0664_lp_dnn_7_chair_10_n03376595_11572.png,n03376595_11572.png,0.0,0.41955692,4.725298,-3.0446186
bagnet33,1,665,NaN,keyboard,cat,10,0665_lp_dnn_10_cat_10_n02123045_1754.png,n02123045_1754.png,0.0,2.0254858,4.313069,-1.6175655
bagnet33,1,666,NaN,keyboard,bottle,7,0666_lp_dnn_7_bottle_10_n04560804_2002.png,n04560804_2002.png,0.0,2.211213,3.8007786,-1.1239926
bagnet33,1,667,NaN,keyboard,truck,5,0667_lp_dnn_5_truck_10_n03796401_4878.png,n03796401_4878.png,0.0,-2.4905345,5.0577474,-5.3374414
bagnet33,1,668,NaN,knife,bird,40,0668_lp_dnn_40_bird_10_n02033041_4901.png,n02033041_4901.png,0.0,0.2506455,4.222228,-2.8083332
bagnet33,1,669,NaN,clock,knife,40,0669_lp_dnn_40_knife_10_n03041632_31932.png,n03041632_31932.png,0.0,1.1094396,3.3231862,-1.5653552
bagnet33,1,670,NaN,keyboard,knife,3,0670_lp_dnn_3_knife_10_n03041632_9256.png,n03041632_9256.png,0.0,1.0168631,6.1801376,-3.6509867
bagnet33,1,671,NaN,keyboard,chair,5,0671_lp_dnn_5_chair_10_n04429376_45302.png,n04429376_45302.png,0.0,0.6899028,4.472686,-2.6748316
bagnet33,1,672,NaN,keyboard,truck,3,0672_lp_dnn_3_truck_10_n03417042_5508.png,n03417042_5508.png,0.0,1.4727465,4.446907,-2.1030493
bagnet33,1,673,NaN,keyboard,chair,5,0673_lp_dnn_5_chair_10_n03376595_12326.png,n03376595_12326.png,0.0,0.48643637,5.9323616,-3.8508508
bagnet33,1,674,NaN,clock,clock,0,0674_lp_dnn_0_clock_10_n04548280_4391.png,n04548280_4391.png,1.0,3.2659597,2.2960262,0.68584657
bagnet33,1,675,NaN,keyboard,car,10,0675_lp_dnn_10_car_10_n03100240_4421.png,n03100240_4421.png,0.0,-2.5970945,4.150973,-4.771604
bagnet33,1,676,NaN,keyboard,dog,3,0676_lp_dnn_3_dog_10_n02111500_7233.png,n02111500_7233.png,0.0,1.3260816,3.2643547,-1.370566
bagnet33,1,677,NaN,bottle,bottle,1,0677_lp_dnn_1_bottle_10_n04591713_4232.png,n04591713_4232.png,1.0,9.8544445,6.200798,2.5835183
bagnet33,1,678,NaN,airplane,airplane,1,0678_lp_dnn_1_airplane_10_n02690373_5010.png,n02690373_5010.png,1.0,13.968703,4.3847036,6.7769113
bagnet33,1,679,NaN,clock,bird,10,0679_lp_dnn_10_bird_10_n01860187_27046.png,n01860187_27046.png,0.0,0.29169542,2.9129257,-1.8534898
bagnet33,1,680,NaN,keyboard,car,10,0680_lp_dnn_10_car_10_n03100240_5136.png,n03100240_5136.png,0.0,-3.2497416,4.1831865,-5.255874
bagnet33,1,681,NaN,clock,knife,15,0681_lp_dnn_15_knife_10_n03041632_1884.png,n03041632_1884.png,0.0,1.9401425,3.5599155,-1.1453525
bagnet33,1,682,NaN,knife,clock,1,0682_lp_dnn_1_clock_10_n04548280_2809.png,n04548280_2809.png,0.0,4.111587,4.128025,-0.011623426
bagnet33,1,683,NaN,keyboard,boat,7,0683_lp_dnn_7_boat_10_n03662601_12308.png,n03662601_12308.png,0.0,-1.8938153,3.8177462,-4.038684
bagnet33,1,684,NaN,keyboard,airplane,10,0684_lp_dnn_10_airplane_10_n02690373_7432.png,n02690373_7432.png,0.0,-0.80748963,3.7980359,-3.2565985
bagnet33,1,685,NaN,keyboard,bicycle,7,0685_lp_dnn_7_bicycle_10_n03792782_6149.png,n03792782_6149.png,0.0,-1.6325438,3.5826483,-3.6876976
bagnet33,1,686,NaN,keyboard,chair,10,0686_lp_dnn_10_chair_10_n04429376_24716.png,n04429376_24716.png,0.0,0.98933214,3.9475121,-2.0917492
bagnet33,1,687,NaN,bottle,bottle,0,0687_lp_dnn_0_bottle_10_n04557648_376.png,n04557648_376.png,1.0,11.474124,4.4033175,4.9998155
bagnet33,1,688,NaN,clock,cat,10,0688_lp_dnn_10_cat_10_n02123394_3144.png,n02123394_3144.png,0.0,0.9902896,3.2183836,-1.5755002
bagnet33,1,689,NaN,keyboard,dog,3,0689_lp_dnn_3_dog_10_n02092002_12007.png,n02092002_12007.png,0.0,-0.3451696,5.023981,-3.796563
bagnet33,1,690,NaN,clock,bird,15,0690_lp_dnn_15_bird_10_n02028035_33583.png,n02028035_33583.png,0.0,0.4193989,3.6379623,-2.2758682
bagnet33,1,691,NaN,clock,bird,15,0691_lp_dnn_15_bird_10_n01797886_904.png,n01797886_904.png,0.0,-0.23129489,3.3720777,-2.5479693
bagnet33,1,692,NaN,clock,keyboard,15,0692_lp_dnn_15_keyboard_10_n03085013_21397.png,n03085013_21397.png,0.0,1.1104869,3.6830246,-1.819059
bagnet33,1,693,NaN,clock,dog,40,0693_lp_dnn_40_dog_10_n02108915_11208.png,n02108915_11208.png,0.0,-1.0141761,3.6831443,-3.3215072
bagnet33,1,694,NaN,keyboard,boat,3,0694_lp_dnn_3_boat_10_n03662601_17665.png,n03662601_17665.png,0.0,-0.43519002,6.4777946,-4.8882184
bagnet33,1,695,NaN,clock,clock,10,0695_lp_dnn_10_clock_10_n03196217_9160.png,n03196217_9160.png,1.0,3.454097,2.7201476,0.5189806
bagnet33,1,696,NaN,dog,dog,0,0696_lp_dnn_0_dog_10_n02100735_3595.png,n02100735_3595.png,1.0,6.2986984,4.39851,1.3436362
bagnet33,1,697,NaN,keyboard,truck,5,0697_lp_dnn_5_truck_10_n03796401_2656.png,n03796401_2656.png,0.0,-2.3632321,7.7678666,-7.163769
bagnet33,1,698,NaN,clock,truck,40,0698_lp_dnn_40_truck_10_n04467665_13193.png,n04467665_13193.png,0.0,-3.0748892,4.143242,-5.1039896
bagnet33,1,699,NaN,keyboard,oven,5,0699_lp_dnn_5_oven_10_n04111531_20953.png,n04111531_20953.png,0.0,0.45902961,6.9822807,-4.612635
bagnet33,1,700,NaN,keyboard,clock,5,0700_lp_dnn_5_clock_10_n02708093_8051.png,n02708093_8051.png,0.0,4.1975193,6.422041,-1.5729743
bagnet33,1,701,NaN,car,car,0,0701_lp_dnn_0_car_10_n03100240_11428.png,n03100240_11428.png,1.0,16.633436,11.024457,3.9661474
bagnet33,1,702,NaN,bicycle,bicycle,1,0702_lp_dnn_1_bicycle_10_n02835271_12473.png,n02835271_12473.png,1.0,13.94607,3.8037128,7.1717296
bagnet33,1,703,NaN,keyboard,chair,10,0703_lp_dnn_10_chair_10_n02791124_6865.png,n02791124_6865.png,0.0,0.046447724,2.916828,-2.0296652
bagnet33,1,704,NaN,clock,chair,15,0704_lp_dnn_15_chair_10_n03376595_4464.png,n03376595_4464.png,0.0,-0.2023499,3.4214942,-2.562445
bagnet33,1,705,NaN,airplane,airplane,0,0705_lp_dnn_0_airplane_10_n02690373_1051.png,n02690373_1051.png,1.0,21.991455,5.855793,11.4096365
bagnet33,1,706,NaN,keyboard,chair,5,0706_lp_dnn_5_chair_10_n04429376_5789.png,n04429376_5789.png,0.0,0.6256033,7.45496,-4.8290844
bagnet33,1,707,NaN,bird,bird,0,0707_lp_dnn_0_bird_10_n01592084_2971.png,n01592084_2971.png,1.0,3.829223,1.859273,1.392965
bagnet33,1,708,NaN,keyboard,bicycle,5,0708_lp_dnn_5_bicycle_10_n03792782_22760.png,n03792782_22760.png,0.0,-1.8309515,6.821374,-6.1181183
bagnet33,1,709,NaN,knife,airplane,40,0709_lp_dnn_40_airplane_10_n02690373_2656.png,n02690373_2656.png,0.0,0.79150486,5.0322394,-2.9986522
bagnet33,1,710,NaN,oven,oven,0,0710_lp_dnn_0_oven_10_n04111531_21173.png,n04111531_21173.png,1.0,9.523798,5.719955,2.6897233
bagnet33,1,711,NaN,keyboard,bottle,3,0711_lp_dnn_3_bottle_10_n04557648_32252.png,n04557648_32252.png,0.0,5.1840405,7.724844,-1.7966194
bagnet33,1,712,NaN,keyboard,cat,5,0712_lp_dnn_5_cat_10_n02123597_13835.png,n02123597_13835.png,0.0,2.067589,6.992874,-3.4827027
bagnet33,1,713,NaN,clock,knife,10,0713_lp_dnn_10_knife_10_n03041632_11969.png,n03041632_11969.png,0.0,2.259072,3.9156792,-1.1713982
bagnet33,1,714,NaN,keyboard,cat,5,0714_lp_dnn_5_cat_10_n02125311_22884.png,n02125311_22884.png,0.0,0.6193113,5.9100285,-3.741102
bagnet33,1,715,NaN,keyboard,bear,7,0715_lp_dnn_7_bear_10_n02134418_860.png,n02134418_860.png,0.0,-0.8152878,5.520526,-4.480097
bagnet33,1,716,NaN,car,car,0,0716_lp_dnn_0_car_10_n03100240_1696.png,n03100240_1696.png,1.0,19.259094,12.263109,4.9469085
bagnet33,1,717,NaN,clock,bird,7,0717_lp_dnn_7_bird_10_n02018207_1606.png,n02018207_1606.png,0.0,-0.7374296,3.123543,-2.73012
bagnet33,1,718,NaN,knife,bird,40,0718_lp_dnn_40_bird_10_n02018795_4730.png,n02018795_4730.png,0.0,-0.27359307,4.5625935,-3.4197001
bagnet33,1,719,NaN,clock,truck,10,0719_lp_dnn_10_truck_10_n04467665_67861.png,n04467665_67861.png,0.0,-2.683969,3.1075413,-4.0952163
bagnet33,1,720,NaN,airplane,truck,1,0720_lp_dnn_1_truck_10_n03417042_820.png,n03417042_820.png,0.0,7.3316975,7.5804915,-0.17592399
bagnet33,1,721,NaN,keyboard,elephant,7,0721_lp_dnn_7_elephant_10_n02504013_7774.png,n02504013_7774.png,0.0,-3.0695863,4.099837,-5.0695477
bagnet33,1,722,NaN,keyboard,boat,3,0722_lp_dnn_3_boat_10_n04273569_11445.png,n04273569_11445.png,0.0,-2.2198598,4.79502,-4.9602695
bagnet33,1,723,NaN,elephant,elephant,0,0723_lp_dnn_0_elephant_10_n02504458_5482.png,n02504458_5482.png,1.0,20.79083,2.3738618,13.022764
bagnet33,1,724,NaN,bear,clock,10,0724_lp_dnn_10_clock_10_n03196217_454.png,n03196217_454.png,0.0,1.9522456,2.975451,-0.7235155
bagnet33,1,725,NaN,clock,oven,40,0725_lp_dnn_40_oven_10_n04111531_17781.png,n04111531_17781.png,0.0,-3.7936816,3.7065156,-5.3034406
bagnet33,1,726,NaN,keyboard,bottle,5,0726_lp_dnn_5_bottle_10_n02823428_4694.png,n02823428_4694.png,0.0,2.4997764,3.2669988,-0.5425082
bagnet33,1,727,NaN,keyboard,truck,3,0727_lp_dnn_3_truck_10_n03796401_24833.png,n03796401_24833.png,0.0,4.104723,9.488698,-3.8070452
bagnet33,1,728,NaN,knife,knife,1,0728_lp_dnn_1_knife_10_n03041632_81943.png,n03041632_81943.png,1.0,5.378754,3.461159,1.3559445
bagnet33,1,729,NaN,clock,dog,10,0729_lp_dnn_10_dog_10_n02100735_1764.png,n02100735_1764.png,0.0,-0.44553578,2.8607762,-2.3379157
bagnet33,1,730,NaN,clock,car,15,0730_lp_dnn_15_car_10_n02814533_36206.png,n02814533_36206.png,0.0,-2.6824398,3.8251572,-4.601566
bagnet33,1,731,NaN,keyboard,airplane,5,0731_lp_dnn_5_airplane_10_n02690373_7489.png,n02690373_7489.png,0.0,-1.2936649,4.546802,-4.1298337
bagnet33,1,732,NaN,clock,oven,10,0732_lp_dnn_10_oven_10_n04111531_3717.png,n04111531_3717.png,0.0,-0.8483605,3.8266888,-3.3057592
bagnet33,1,733,NaN,keyboard,oven,7,0733_lp_dnn_7_oven_10_n04111531_2987.png,n04111531_2987.png,0.0,-2.2338386,5.8815694,-5.73846
bagnet33,1,734,NaN,clock,clock,0,0734_lp_dnn_0_clock_10_n04548280_2169.png,n04548280_2169.png,1.0,11.889234,3.9985821,5.5795336
bagnet33,1,735,NaN,clock,keyboard,40,0735_lp_dnn_40_keyboard_10_n03085013_19547.png,n03085013_19547.png,0.0,0.9433571,3.1044457,-1.5281203
bagnet33,1,736,NaN,keyboard,keyboard,1,0736_lp_dnn_1_keyboard_10_n03085013_20303.png,n03085013_20303.png,1.0,17.705946,6.675322,7.7998295
bagnet33,1,737,NaN,knife,knife,5,0737_lp_dnn_5_knife_10_n03041632_12748.png,n03041632_12748.png,1.0,5.0467043,4.415764,0.44614226
bagnet33,1,738,NaN,elephant,elephant,1,0738_lp_dnn_1_elephant_10_n02504458_1626.png,n02504458_1626.png,1.0,7.005594,5.0823584,1.3599328
bagnet33,1,739,NaN,keyboard,car,5,0739_lp_dnn_5_car_10_n02814533_82372.png,n02814533_82372.png,0.0,-3.537159,6.0817547,-6.801599
bagnet33,1,740,NaN,boat,boat,1,0740_lp_dnn_1_boat_10_n03344393_5417.png,n03344393_5417.png,1.0,4.4597936,2.2246594,1.5804785
bagnet33,1,741,NaN,bottle,bottle,0,0741_lp_dnn_0_bottle_10_n04591713_5465.png,n04591713_5465.png,1.0,5.8127146,4.457083,0.95857614
bagnet33,1,742,NaN,keyboard,keyboard,5,0742_lp_dnn_5_keyboard_10_n03085013_2594.png,n03085013_2594.png,1.0,7.333411,5.917951,1.0008814
bagnet33,1,743,NaN,keyboard,car,7,0743_lp_dnn_7_car_10_n03100240_1406.png,n03100240_1406.png,0.0,-2.1799672,4.2029843,-4.5134287
bagnet33,1,744,NaN,clock,cat,7,0744_lp_dnn_7_cat_10_n02123159_6954.png,n02123159_6954.png,0.0,0.9665578,3.599192,-1.8615535
bagnet33,1,745,NaN,clock,bear,15,0745_lp_dnn_15_bear_10_n02134084_8601.png,n02134084_8601.png,0.0,-1.66486,3.6344318,-3.7471652
bagnet33,1,746,NaN,keyboard,cat,5,0746_lp_dnn_5_cat_10_n02123045_1126.png,n02123045_1126.png,0.0,1.8025466,5.3046007,-2.4763262
bagnet33,1,747,NaN,keyboard,car,7,0747_lp_dnn_7_car_10_n04285008_13094.png,n04285008_13094.png,0.0,-3.333957,4.91673,-5.8341165
bagnet33,1,748,NaN,knife,knife,0,0748_lp_dnn_0_knife_10_n03041632_11741.png,n03041632_11741.png,1.0,7.7597322,5.272985,1.7583959
bagnet33,1,749,NaN,keyboard,dog,5,0749_lp_dnn_5_dog_10_n02091635_7361.png,n02091635_7361.png,0.0,3.4073517,6.041403,-1.8625554
bagnet33,1,750,NaN,keyboard,dog,3,0750_lp_dnn_3_dog_10_n02113023_12640.png,n02113023_12640.png,0.0,1.3651044,4.3914585,-2.1399555
bagnet33,1,751,NaN,clock,chair,40,0751_lp_dnn_40_chair_10_n04099969_8018.png,n04099969_8018.png,0.0,0.025296032,2.6453044,-1.8526257
bagnet33,1,752,NaN,keyboard,clock,7,0752_lp_dnn_7_clock_10_n03196217_1272.png,n03196217_1272.png,0.0,3.8528373,4.902956,-0.7425461
bagnet33,1,753,NaN,clock,knife,15,0753_lp_dnn_15_knife_10_n03041632_45264.png,n03041632_45264.png,0.0,2.0681608,3.031247,-0.68100476
bagnet33,1,754,NaN,keyboard,keyboard,7,0754_lp_dnn_7_keyboard_10_n04505470_5150.png,n04505470_5150.png,1.0,5.3592196,3.8307827,1.0807681
bagnet33,1,755,NaN,clock,bear,10,0755_lp_dnn_10_bear_10_n02134418_745.png,n02134418_745.png,0.0,-1.1748611,3.6644547,-3.4219131
bagnet33,1,756,NaN,bottle,cat,0,0756_lp_dnn_0_cat_10_n02124075_10310.png,n02124075_10310.png,0.0,-0.32494843,7.137134,-5.2764893
