subj,session,trial,rt,object_response,category,condition,imagename,filename,is_correct,targ_act,max_nontarg_act,decision_margin
alexnet_w1_mlp_simclrhn_probe2,1,1,NaN,clock,chair,40,0001_lp_dnn_40_chair_10_n04099969_7577.png,n04099969_7577.png,0.0,-0.5428972,0.16318034,-0.49927226
alexnet_w1_mlp_simclrhn_probe2,1,2,NaN,clock,cat,40,0002_lp_dnn_40_cat_10_n02124075_12815.png,n02124075_12815.png,0.0,-0.4968971,0.22016986,-0.5070429
alexnet_w1_mlp_simclrhn_probe2,1,3,NaN,keyboard,truck,5,0003_lp_dnn_5_truck_10_n04467665_34253.png,n04467665_34253.png,0.0,-1.3406417,0.3167386,-1.1719449
alexnet_w1_mlp_simclrhn_probe2,1,4,NaN,clock,clock,1,0004_lp_dnn_1_clock_10_n04548280_5320.png,n04548280_5320.png,1.0,0.40114307,0.23535493,0.11722992
alexnet_w1_mlp_simclrhn_probe2,1,5,NaN,bottle,dog,3,0005_lp_dnn_3_dog_10_n02108915_3652.png,n02108915_3652.png,0.0,-0.950908,-0.21646595,-0.51932895
alexnet_w1_mlp_simclrhn_probe2,1,6,NaN,keyboard,keyboard,7,0006_lp_dnn_7_keyboard_10_n04505470_578.png,n04505470_578.png,1.0,1.0162396,0.2752869,0.5239327
alexnet_w1_mlp_simclrhn_probe2,1,7,NaN,keyboard,cat,7,0007_lp_dnn_7_cat_10_n02123597_3842.png,n02123597_3842.png,0.0,-0.68881804,0.24739264,-0.66200095
alexnet_w1_mlp_simclrhn_probe2,1,8,NaN,bear,bear,1,0008_lp_dnn_1_bear_10_n02134418_14.png,n02134418_14.png,1.0,5.3389163,1.2498957,2.8913743
alexnet_w1_mlp_simclrhn_probe2,1,9,NaN,keyboard,knife,10,0009_lp_dnn_10_knife_10_n03041632_29920.png,n03041632_29920.png,0.0,-0.26157728,0.13471875,-0.2802236
alexnet_w1_mlp_simclrhn_probe2,1,10,NaN,keyboard,bird,5,0010_lp_dnn_5_bird_10_n01795545_952.png,n01795545_952.png,0.0,-0.20632954,0.21093978,-0.29505396
alexnet_w1_mlp_simclrhn_probe2,1,11,NaN,elephant,bear,3,0011_lp_dnn_3_bear_10_n02132136_6441.png,n02132136_6441.png,0.0,0.13642487,0.16804743,-0.022360526
alexnet_w1_mlp_simclrhn_probe2,1,12,NaN,elephant,bird,3,0012_lp_dnn_3_bird_10_n01829413_8792.png,n01829413_8792.png,0.0,-0.1842635,0.0033746697,-0.13268022
alexnet_w1_mlp_simclrhn_probe2,1,13,NaN,keyboard,keyboard,7,0013_lp_dnn_7_keyboard_10_n04505470_4458.png,n04505470_4458.png,1.0,1.1004133,0.24525057,0.6046914
alexnet_w1_mlp_simclrhn_probe2,1,14,NaN,keyboard,chair,10,0014_lp_dnn_10_chair_10_n03376595_9176.png,n03376595_9176.png,0.0,-0.7512845,0.24182162,-0.70223206
alexnet_w1_mlp_simclrhn_probe2,1,15,NaN,clock,clock,40,0015_lp_dnn_40_clock_10_n04548280_7662.png,n04548280_7662.png,1.0,0.24940021,0.011225328,0.16841508
alexnet_w1_mlp_simclrhn_probe2,1,16,NaN,clock,keyboard,40,0016_lp_dnn_40_keyboard_10_n03085013_25809.png,n03085013_25809.png,0.0,-0.32183677,0.22425358,-0.38614422
alexnet_w1_mlp_simclrhn_probe2,1,17,NaN,keyboard,oven,5,0017_lp_dnn_5_oven_10_n04111531_1580.png,n04111531_1580.png,0.0,-0.6068836,0.10764276,-0.50524646
alexnet_w1_mlp_simclrhn_probe2,1,18,NaN,elephant,elephant,1,0018_lp_dnn_1_elephant_10_n02504458_900.png,n02504458_900.png,1.0,7.8726616,1.327762,4.627943
alexnet_w1_mlp_simclrhn_probe2,1,19,NaN,keyboard,dog,7,0019_lp_dnn_7_dog_10_n02106662_2384.png,n02106662_2384.png,0.0,-1.1537061,0.088122025,-0.8781051
alexnet_w1_mlp_simclrhn_probe2,1,20,NaN,keyboard,truck,10,0020_lp_dnn_10_truck_10_n03796401_22618.png,n03796401_22618.png,0.0,-1.3306534,0.03446862,-0.9652871
alexnet_w1_mlp_simclrhn_probe2,1,21,NaN,clock,elephant,15,0021_lp_dnn_15_elephant_10_n02504013_5463.png,n02504013_5463.png,0.0,-0.6640635,-0.04901896,-0.43490216
alexnet_w1_mlp_simclrhn_probe2,1,22,NaN,keyboard,chair,10,0022_lp_dnn_10_chair_10_n04429376_16459.png,n04429376_16459.png,0.0,-0.6619366,0.11157425,-0.54695475
alexnet_w1_mlp_simclrhn_probe2,1,23,NaN,cat,cat,1,0023_lp_dnn_1_cat_10_n02123045_12206.png,n02123045_12206.png,1.0,2.6133833,-0.5227917,2.2176106
alexnet_w1_mlp_simclrhn_probe2,1,24,NaN,keyboard,truck,7,0024_lp_dnn_7_truck_10_n03417042_2633.png,n03417042_2633.png,0.0,-1.3545318,0.3009042,-1.17057
alexnet_w1_mlp_simclrhn_probe2,1,25,NaN,clock,keyboard,15,0025_lp_dnn_15_keyboard_10_n03085013_24416.png,n03085013_24416.png,0.0,-0.16638671,0.006215502,-0.12204819
alexnet_w1_mlp_simclrhn_probe2,1,26,NaN,keyboard,car,7,0026_lp_dnn_7_car_10_n02814533_44503.png,n02814533_44503.png,0.0,-0.9209621,0.27577063,-0.8462179
alexnet_w1_mlp_simclrhn_probe2,1,27,NaN,bird,elephant,5,0027_lp_dnn_5_elephant_10_n02504458_5797.png,n02504458_5797.png,0.0,-0.49818957,-0.055982385,-0.3126877
alexnet_w1_mlp_simclrhn_probe2,1,28,NaN,chair,chair,0,0028_lp_dnn_0_chair_10_n04429376_8237.png,n04429376_8237.png,1.0,0.50713897,0.47954044,0.019515108
alexnet_w1_mlp_simclrhn_probe2,1,29,NaN,keyboard,cat,7,0029_lp_dnn_7_cat_10_n02123159_587.png,n02123159_587.png,0.0,-0.5644668,0.24317506,-0.571089
alexnet_w1_mlp_simclrhn_probe2,1,30,NaN,keyboard,bird,10,0030_lp_dnn_10_bird_10_n02028035_17238.png,n02028035_17238.png,0.0,-0.2335114,-0.03182225,-0.14261577
alexnet_w1_mlp_simclrhn_probe2,1,31,NaN,clock,cat,40,0031_lp_dnn_40_cat_10_n02123159_4348.png,n02123159_4348.png,0.0,-0.5234284,0.24508528,-0.54342127
alexnet_w1_mlp_simclrhn_probe2,1,32,NaN,airplane,boat,5,0032_lp_dnn_5_boat_10_n04273569_22332.png,n04273569_22332.png,0.0,-0.67357004,-0.103995666,-0.4027499
alexnet_w1_mlp_simclrhn_probe2,1,33,NaN,elephant,elephant,1,0033_lp_dnn_1_elephant_10_n02504013_1244.png,n02504013_1244.png,1.0,9.460369,1.5047914,5.625443
alexnet_w1_mlp_simclrhn_probe2,1,34,NaN,keyboard,bicycle,7,0034_lp_dnn_7_bicycle_10_n03792782_30229.png,n03792782_30229.png,0.0,-0.98912585,0.10738239,-0.7753484
alexnet_w1_mlp_simclrhn_probe2,1,35,NaN,keyboard,keyboard,10,0035_lp_dnn_10_keyboard_10_n03085013_7573.png,n03085013_7573.png,1.0,0.11357501,0.104526,0.0063986187
alexnet_w1_mlp_simclrhn_probe2,1,36,NaN,keyboard,keyboard,3,0036_lp_dnn_3_keyboard_10_n03085013_24578.png,n03085013_24578.png,1.0,1.6763285,0.31872776,0.95996875
alexnet_w1_mlp_simclrhn_probe2,1,37,NaN,keyboard,truck,15,0037_lp_dnn_15_truck_10_n03417042_1336.png,n03417042_1336.png,0.0,-0.9041007,0.017731488,-0.65183383
alexnet_w1_mlp_simclrhn_probe2,1,38,NaN,keyboard,knife,3,0038_lp_dnn_3_knife_10_n03041632_7495.png,n03041632_7495.png,0.0,-0.09011252,-0.061152786,-0.020477626
alexnet_w1_mlp_simclrhn_probe2,1,39,NaN,car,car,0,0039_lp_dnn_0_car_10_n03100240_9625.png,n03100240_9625.png,1.0,7.371699,4.8951726,1.7511685
alexnet_w1_mlp_simclrhn_probe2,1,40,NaN,keyboard,elephant,10,0040_lp_dnn_10_elephant_10_n02504458_6107.png,n02504458_6107.png,0.0,-0.85889935,0.010599896,-0.6148288
alexnet_w1_mlp_simclrhn_probe2,1,41,NaN,bicycle,bicycle,0,0041_lp_dnn_0_bicycle_10_n03792782_33649.png,n03792782_33649.png,1.0,7.8241053,-1.0212796,6.2546315
alexnet_w1_mlp_simclrhn_probe2,1,42,NaN,keyboard,clock,1,0042_lp_dnn_1_clock_10_n03196217_8282.png,n03196217_8282.png,0.0,0.9948091,1.9275278,-0.6595317
alexnet_w1_mlp_simclrhn_probe2,1,43,NaN,keyboard,keyboard,7,0043_lp_dnn_7_keyboard_10_n03085013_21534.png,n03085013_21534.png,1.0,0.45472327,0.14455368,0.21932301
alexnet_w1_mlp_simclrhn_probe2,1,44,NaN,airplane,elephant,15,0044_lp_dnn_15_elephant_10_n02504013_22813.png,n02504013_22813.png,0.0,-0.48351514,0.1067597,-0.41738734
alexnet_w1_mlp_simclrhn_probe2,1,45,NaN,keyboard,truck,10,0045_lp_dnn_10_truck_10_n03796401_16425.png,n03796401_16425.png,0.0,-1.0801041,0.18936732,-0.89765185
alexnet_w1_mlp_simclrhn_probe2,1,46,NaN,clock,airplane,15,0046_lp_dnn_15_airplane_10_n02690373_9427.png,n02690373_9427.png,0.0,0.018654063,0.022994792,-0.0030693589
alexnet_w1_mlp_simclrhn_probe2,1,47,NaN,keyboard,bird,7,0047_lp_dnn_7_bird_10_n02009912_11907.png,n02009912_11907.png,0.0,-0.7565316,0.16111328,-0.6488729
alexnet_w1_mlp_simclrhn_probe2,1,48,NaN,airplane,airplane,1,0048_lp_dnn_1_airplane_10_n02690373_5773.png,n02690373_5773.png,1.0,10.744957,-1.208779,8.452568
alexnet_w1_mlp_simclrhn_probe2,1,49,NaN,clock,chair,40,0049_lp_dnn_40_chair_10_n02791124_2972.png,n02791124_2972.png,0.0,-0.5967382,0.19846134,-0.562291
alexnet_w1_mlp_simclrhn_probe2,1,50,NaN,bird,bird,1,0050_lp_dnn_1_bird_10_n01819313_18188.png,n01819313_18188.png,1.0,0.964912,0.06496355,0.6363597
alexnet_w1_mlp_simclrhn_probe2,1,51,NaN,keyboard,car,5,0051_lp_dnn_5_car_10_n04285008_7428.png,n04285008_7428.png,0.0,-1.2015412,0.6119384,-1.2823238
alexnet_w1_mlp_simclrhn_probe2,1,52,NaN,keyboard,bottle,7,0052_lp_dnn_7_bottle_10_n04591713_6923.png,n04591713_6923.png,0.0,0.16769174,0.3158645,-0.10477397
alexnet_w1_mlp_simclrhn_probe2,1,53,NaN,knife,knife,0,0053_lp_dnn_0_knife_10_n03041632_22570.png,n03041632_22570.png,1.0,1.3513159,0.4360307,0.64720434
alexnet_w1_mlp_simclrhn_probe2,1,54,NaN,bear,bear,0,0054_lp_dnn_0_bear_10_n02132136_7586.png,n02132136_7586.png,1.0,3.1813579,0.5334557,1.8723495
alexnet_w1_mlp_simclrhn_probe2,1,55,NaN,keyboard,clock,5,0055_lp_dnn_5_clock_10_n04548280_9144.png,n04548280_9144.png,0.0,0.19073944,0.4050541,-0.15154335
alexnet_w1_mlp_simclrhn_probe2,1,56,NaN,oven,bottle,0,0056_lp_dnn_0_bottle_10_n04591713_2680.png,n04591713_2680.png,0.0,-1.7440537,-0.10848737,-1.1565201
alexnet_w1_mlp_simclrhn_probe2,1,57,NaN,cat,cat,3,0057_lp_dnn_3_cat_10_n02123045_1596.png,n02123045_1596.png,1.0,-0.3510677,-0.50858533,0.11138179
alexnet_w1_mlp_simclrhn_probe2,1,58,NaN,keyboard,cat,10,0058_lp_dnn_10_cat_10_n02123597_19450.png,n02123597_19450.png,0.0,-0.72077984,0.088976786,-0.5725844
alexnet_w1_mlp_simclrhn_probe2,1,59,NaN,clock,chair,15,0059_lp_dnn_15_chair_10_n03376595_3462.png,n03376595_3462.png,0.0,-0.58981687,0.20782153,-0.56401557
alexnet_w1_mlp_simclrhn_probe2,1,60,NaN,bottle,bottle,3,0060_lp_dnn_3_bottle_10_n04591713_3683.png,n04591713_3683.png,1.0,0.5044802,0.23311657,0.19188306
alexnet_w1_mlp_simclrhn_probe2,1,61,NaN,keyboard,clock,7,0061_lp_dnn_7_clock_10_n03196217_4309.png,n03196217_4309.png,0.0,0.20941846,0.30856568,-0.07010767
alexnet_w1_mlp_simclrhn_probe2,1,62,NaN,clock,bear,15,0062_lp_dnn_15_bear_10_n02134084_4923.png,n02134084_4923.png,0.0,-0.88779575,0.074661635,-0.6805601
alexnet_w1_mlp_simclrhn_probe2,1,63,NaN,oven,chair,1,0063_lp_dnn_1_chair_10_n04429376_5238.png,n04429376_5238.png,0.0,-0.3848157,0.82501006,-0.855476
alexnet_w1_mlp_simclrhn_probe2,1,64,NaN,truck,clock,0,0064_lp_dnn_0_clock_10_n03196217_2414.png,n03196217_2414.png,0.0,-3.1021712,-1.0951735,-1.4191617
alexnet_w1_mlp_simclrhn_probe2,1,65,NaN,bird,bird,3,0065_lp_dnn_3_bird_10_n01797886_2711.png,n01797886_2711.png,1.0,-0.020443058,-0.20378503,0.12964235
alexnet_w1_mlp_simclrhn_probe2,1,66,NaN,airplane,truck,15,0066_lp_dnn_15_truck_10_n04467665_68463.png,n04467665_68463.png,0.0,-0.7804105,0.20882344,-0.69949406
alexnet_w1_mlp_simclrhn_probe2,1,67,NaN,truck,truck,0,0067_lp_dnn_0_truck_10_n03417042_10099.png,n03417042_10099.png,1.0,6.4923663,2.2786267,2.9795637
alexnet_w1_mlp_simclrhn_probe2,1,68,NaN,clock,bear,10,0068_lp_dnn_10_bear_10_n02134418_3793.png,n02134418_3793.png,0.0,-0.82560366,0.05207013,-0.6206091
alexnet_w1_mlp_simclrhn_probe2,1,69,NaN,keyboard,bottle,10,0069_lp_dnn_10_bottle_10_n03937543_9524.png,n03937543_9524.png,0.0,-0.046389844,0.15083753,-0.13946082
alexnet_w1_mlp_simclrhn_probe2,1,70,NaN,cat,cat,3,0070_lp_dnn_3_cat_10_n02123394_1038.png,n02123394_1038.png,1.0,-0.10666863,-0.20671405,0.07074279
alexnet_w1_mlp_simclrhn_probe2,1,71,NaN,keyboard,dog,5,0071_lp_dnn_5_dog_10_n02110185_7886.png,n02110185_7886.png,0.0,-1.1998312,0.19450083,-0.98594165
alexnet_w1_mlp_simclrhn_probe2,1,72,NaN,clock,clock,3,0072_lp_dnn_3_clock_10_n02708093_4912.png,n02708093_4912.png,1.0,0.89951485,0.2726899,0.4432322
alexnet_w1_mlp_simclrhn_probe2,1,73,NaN,keyboard,dog,15,0073_lp_dnn_15_dog_10_n02108422_932.png,n02108422_932.png,0.0,-0.74680495,-0.0148904435,-0.5175417
alexnet_w1_mlp_simclrhn_probe2,1,74,NaN,truck,truck,0,0074_lp_dnn_0_truck_10_n04467665_18621.png,n04467665_18621.png,1.0,7.2837434,1.7760744,3.89451
alexnet_w1_mlp_simclrhn_probe2,1,75,NaN,truck,truck,1,0075_lp_dnn_1_truck_10_n04467665_50932.png,n04467665_50932.png,1.0,4.0103545,2.9356155,0.7599552
alexnet_w1_mlp_simclrhn_probe2,1,76,NaN,dog,dog,1,0076_lp_dnn_1_dog_10_n02102480_7293.png,n02102480_7293.png,1.0,1.4676352,-3.0111163,3.1669555
alexnet_w1_mlp_simclrhn_probe2,1,77,NaN,bottle,bottle,1,0077_lp_dnn_1_bottle_10_n04591713_4764.png,n04591713_4764.png,1.0,-0.1955043,-0.21906862,0.016662493
alexnet_w1_mlp_simclrhn_probe2,1,78,NaN,airplane,clock,15,0078_lp_dnn_15_clock_10_n02708093_274.png,n02708093_274.png,0.0,0.017322587,0.0330649,-0.011131498
alexnet_w1_mlp_simclrhn_probe2,1,79,NaN,keyboard,bottle,5,0079_lp_dnn_5_bottle_10_n04557648_29772.png,n04557648_29772.png,0.0,-0.10755326,0.1677807,-0.1946905
alexnet_w1_mlp_simclrhn_probe2,1,80,NaN,clock,car,15,0080_lp_dnn_15_car_10_n03100240_22499.png,n03100240_22499.png,0.0,-0.69465286,0.08823094,-0.55358243
alexnet_w1_mlp_simclrhn_probe2,1,81,NaN,clock,clock,3,0081_lp_dnn_3_clock_10_n02708093_6252.png,n02708093_6252.png,1.0,3.0939586,-0.45414466,2.508888
alexnet_w1_mlp_simclrhn_probe2,1,82,NaN,bottle,airplane,10,0082_lp_dnn_10_airplane_10_n02690373_5427.png,n02690373_5427.png,0.0,-0.34193712,-0.038694877,-0.21442464
alexnet_w1_mlp_simclrhn_probe2,1,83,NaN,clock,dog,15,0083_lp_dnn_15_dog_10_n02107142_46045.png,n02107142_46045.png,0.0,-0.9953114,0.040269576,-0.73226637
alexnet_w1_mlp_simclrhn_probe2,1,84,NaN,clock,keyboard,40,0084_lp_dnn_40_keyboard_10_n03085013_23793.png,n03085013_23793.png,0.0,-0.2791458,0.27078134,-0.3888572
alexnet_w1_mlp_simclrhn_probe2,1,85,NaN,clock,bicycle,3,0085_lp_dnn_3_bicycle_10_n03792782_12421.png,n03792782_12421.png,0.0,-0.8822499,0.3014021,-0.8369683
alexnet_w1_mlp_simclrhn_probe2,1,86,NaN,airplane,airplane,0,0086_lp_dnn_0_airplane_10_n02690373_1310.png,n02690373_1310.png,1.0,7.239267,4.3572273,2.0379097
alexnet_w1_mlp_simclrhn_probe2,1,87,NaN,bottle,oven,15,0087_lp_dnn_15_oven_10_n04111531_8793.png,n04111531_8793.png,0.0,-1.1797056,0.21072242,-0.9831811
alexnet_w1_mlp_simclrhn_probe2,1,88,NaN,keyboard,airplane,5,0088_lp_dnn_5_airplane_10_n02690373_633.png,n02690373_633.png,0.0,-0.28309834,0.10201205,-0.27231416
alexnet_w1_mlp_simclrhn_probe2,1,89,NaN,keyboard,clock,5,0089_lp_dnn_5_clock_10_n02708093_2307.png,n02708093_2307.png,0.0,-0.20259507,0.051027402,-0.17933817
alexnet_w1_mlp_simclrhn_probe2,1,90,NaN,keyboard,oven,10,0090_lp_dnn_10_oven_10_n04111531_13795.png,n04111531_13795.png,0.0,-0.83128256,0.07735157,-0.64250135
alexnet_w1_mlp_simclrhn_probe2,1,91,NaN,oven,boat,3,0091_lp_dnn_3_boat_10_n03662601_1427.png,n03662601_1427.png,0.0,-0.42769924,0.16426477,-0.41858178
alexnet_w1_mlp_simclrhn_probe2,1,92,NaN,keyboard,boat,5,0092_lp_dnn_5_boat_10_n04612504_15944.png,n04612504_15944.png,0.0,-0.62901706,0.24517453,-0.6181468
alexnet_w1_mlp_simclrhn_probe2,1,93,NaN,airplane,airplane,40,0093_lp_dnn_40_airplane_10_n02690373_3561.png,n02690373_3561.png,1.0,0.27365786,0.19756657,0.05380467
alexnet_w1_mlp_simclrhn_probe2,1,94,NaN,bottle,elephant,7,0094_lp_dnn_7_elephant_10_n02504458_1848.png,n02504458_1848.png,0.0,-0.8857858,0.062151056,-0.6702926
alexnet_w1_mlp_simclrhn_probe2,1,95,NaN,keyboard,oven,5,0095_lp_dnn_5_oven_10_n04111531_4155.png,n04111531_4155.png,0.0,-0.89317846,0.28097835,-0.83025426
alexnet_w1_mlp_simclrhn_probe2,1,96,NaN,car,car,0,0096_lp_dnn_0_car_10_n03100240_8327.png,n03100240_8327.png,1.0,8.234557,8.047667,0.13215162
alexnet_w1_mlp_simclrhn_probe2,1,97,NaN,oven,chair,0,0097_lp_dnn_0_chair_10_n04429376_24319.png,n04429376_24319.png,0.0,0.8695045,1.3668159,-0.35165226
alexnet_w1_mlp_simclrhn_probe2,1,98,NaN,keyboard,chair,3,0098_lp_dnn_3_chair_10_n03376595_5112.png,n03376595_5112.png,0.0,-0.5967655,-0.03508991,-0.39716464
alexnet_w1_mlp_simclrhn_probe2,1,99,NaN,bear,cat,1,0099_lp_dnn_1_cat_10_n02124075_2268.png,n02124075_2268.png,0.0,-0.018826166,0.44449574,-0.32761806
alexnet_w1_mlp_simclrhn_probe2,1,100,NaN,airplane,boat,3,0100_lp_dnn_3_boat_10_n04273569_1137.png,n04273569_1137.png,0.0,-0.62751293,-0.16627216,-0.32614648
alexnet_w1_mlp_simclrhn_probe2,1,101,NaN,chair,chair,1,0101_lp_dnn_1_chair_10_n02791124_15383.png,n02791124_15383.png,1.0,2.6020617,1.05276,1.0955218
alexnet_w1_mlp_simclrhn_probe2,1,102,NaN,clock,clock,15,0102_lp_dnn_15_clock_10_n04548280_8998.png,n04548280_8998.png,1.0,0.15689574,0.028228596,0.09098142
alexnet_w1_mlp_simclrhn_probe2,1,103,NaN,bear,dog,0,0103_lp_dnn_0_dog_10_n02097047_2800.png,n02097047_2800.png,0.0,-0.62532365,0.76476324,-0.9829399
alexnet_w1_mlp_simclrhn_probe2,1,104,NaN,airplane,bicycle,15,0104_lp_dnn_15_bicycle_10_n03792782_18294.png,n03792782_18294.png,0.0,-0.9382799,-0.025686935,-0.6453007
alexnet_w1_mlp_simclrhn_probe2,1,105,NaN,elephant,elephant,0,0105_lp_dnn_0_elephant_10_n02504013_24486.png,n02504013_24486.png,1.0,1.9324484,-0.43457136,1.6737356
alexnet_w1_mlp_simclrhn_probe2,1,106,NaN,keyboard,airplane,7,0106_lp_dnn_7_airplane_10_n02690373_2923.png,n02690373_2923.png,0.0,-0.14557765,0.12009448,-0.18785858
alexnet_w1_mlp_simclrhn_probe2,1,107,NaN,airplane,airplane,3,0107_lp_dnn_3_airplane_10_n02690373_15392.png,n02690373_15392.png,1.0,0.23273796,-0.013294399,0.17397115
alexnet_w1_mlp_simclrhn_probe2,1,108,NaN,keyboard,oven,5,0108_lp_dnn_5_oven_10_n04111531_6080.png,n04111531_6080.png,0.0,-0.54550284,0.34223384,-0.62772465
alexnet_w1_mlp_simclrhn_probe2,1,109,NaN,clock,bear,15,0109_lp_dnn_15_bear_10_n02134084_22736.png,n02134084_22736.png,0.0,-0.77162385,0.05759142,-0.58634377
alexnet_w1_mlp_simclrhn_probe2,1,110,NaN,knife,knife,1,0110_lp_dnn_1_knife_10_n03041632_33326.png,n03041632_33326.png,1.0,0.0690788,-1.5709367,1.1596661
alexnet_w1_mlp_simclrhn_probe2,1,111,NaN,clock,truck,40,0111_lp_dnn_40_truck_10_n04467665_66876.png,n04467665_66876.png,0.0,-0.9421458,0.19775878,-0.8060343
alexnet_w1_mlp_simclrhn_probe2,1,112,NaN,airplane,truck,40,0112_lp_dnn_40_truck_10_n03796401_10234.png,n03796401_10234.png,0.0,-0.83177733,0.29817674,-0.79899824
alexnet_w1_mlp_simclrhn_probe2,1,113,NaN,keyboard,bicycle,7,0113_lp_dnn_7_bicycle_10_n03792782_5416.png,n03792782_5416.png,0.0,-0.7469708,0.18752307,-0.6607869
alexnet_w1_mlp_simclrhn_probe2,1,114,NaN,keyboard,knife,7,0114_lp_dnn_7_knife_10_n03041632_25772.png,n03041632_25772.png,0.0,-0.17232579,0.07030549,-0.17156623
alexnet_w1_mlp_simclrhn_probe2,1,115,NaN,keyboard,bicycle,10,0115_lp_dnn_10_bicycle_10_n03792782_7108.png,n03792782_7108.png,0.0,-1.0063825,-0.008030169,-0.7059417
alexnet_w1_mlp_simclrhn_probe2,1,116,NaN,chair,chair,0,0116_lp_dnn_0_chair_10_n03376595_1981.png,n03376595_1981.png,1.0,3.0529723,1.0365261,1.4258428
alexnet_w1_mlp_simclrhn_probe2,1,117,NaN,keyboard,oven,15,0117_lp_dnn_15_oven_10_n04111531_6508.png,n04111531_6508.png,0.0,-0.895204,0.14563264,-0.7359827
alexnet_w1_mlp_simclrhn_probe2,1,118,NaN,keyboard,bird,15,0118_lp_dnn_15_bird_10_n01843383_2843.png,n01843383_2843.png,0.0,-0.20062137,0.037733853,-0.1685426
alexnet_w1_mlp_simclrhn_probe2,1,119,NaN,keyboard,cat,5,0119_lp_dnn_5_cat_10_n02123597_5887.png,n02123597_5887.png,0.0,-0.54062164,0.02038353,-0.39669058
alexnet_w1_mlp_simclrhn_probe2,1,120,NaN,clock,clock,40,0120_lp_dnn_40_clock_10_n04548280_9801.png,n04548280_9801.png,1.0,0.27736947,0.16809545,0.0772684
alexnet_w1_mlp_simclrhn_probe2,1,121,NaN,bird,bird,1,0121_lp_dnn_1_bird_10_n01530575_10332.png,n01530575_10332.png,1.0,3.5411074,-2.7291996,4.433777
alexnet_w1_mlp_simclrhn_probe2,1,122,NaN,airplane,elephant,15,0122_lp_dnn_15_elephant_10_n02504013_5887.png,n02504013_5887.png,0.0,-0.5810861,0.075705186,-0.46442157
alexnet_w1_mlp_simclrhn_probe2,1,123,NaN,cat,cat,3,0123_lp_dnn_3_cat_10_n02124075_8693.png,n02124075_8693.png,1.0,-0.19032542,-0.75776005,0.40123686
alexnet_w1_mlp_simclrhn_probe2,1,124,NaN,clock,boat,15,0124_lp_dnn_15_boat_10_n04612504_26151.png,n04612504_26151.png,0.0,-0.7046834,0.091723,-0.5631444
alexnet_w1_mlp_simclrhn_probe2,1,125,NaN,keyboard,cat,7,0125_lp_dnn_7_cat_10_n02125311_53412.png,n02125311_53412.png,0.0,-0.74964255,0.3030127,-0.74433964
alexnet_w1_mlp_simclrhn_probe2,1,126,NaN,bottle,knife,7,0126_lp_dnn_7_knife_10_n03041632_46914.png,n03041632_46914.png,0.0,-0.050922543,0.16760921,-0.1545253
alexnet_w1_mlp_simclrhn_probe2,1,127,NaN,clock,bicycle,15,0127_lp_dnn_15_bicycle_10_n03792782_5629.png,n03792782_5629.png,0.0,-0.98744434,0.066620134,-0.7453362
alexnet_w1_mlp_simclrhn_probe2,1,128,NaN,clock,bottle,40,0128_lp_dnn_40_bottle_10_n02823428_79.png,n02823428_79.png,0.0,-0.08936012,0.16322635,-0.17860562
alexnet_w1_mlp_simclrhn_probe2,1,129,NaN,dog,dog,3,0129_lp_dnn_3_dog_10_n02101006_5024.png,n02101006_5024.png,1.0,-0.24249135,-0.36825255,0.0889266
alexnet_w1_mlp_simclrhn_probe2,1,130,NaN,keyboard,oven,15,0130_lp_dnn_15_oven_10_n04111531_2350.png,n04111531_2350.png,0.0,-1.0957236,0.062236845,-0.8188017
alexnet_w1_mlp_simclrhn_probe2,1,131,NaN,keyboard,airplane,7,0131_lp_dnn_7_airplane_10_n02690373_4839.png,n02690373_4839.png,0.0,-0.25539106,0.1251209,-0.26906258
alexnet_w1_mlp_simclrhn_probe2,1,132,NaN,keyboard,car,5,0132_lp_dnn_5_car_10_n03100240_2075.png,n03100240_2075.png,0.0,-0.9515357,0.4038329,-0.95839036
alexnet_w1_mlp_simclrhn_probe2,1,133,NaN,keyboard,cat,5,0133_lp_dnn_5_cat_10_n02123159_3729.png,n02123159_3729.png,0.0,-0.81105065,0.27698535,-0.7693577
alexnet_w1_mlp_simclrhn_probe2,1,134,NaN,keyboard,knife,10,0134_lp_dnn_10_knife_10_n03041632_3079.png,n03041632_3079.png,0.0,-0.23749174,0.2252682,-0.3272207
alexnet_w1_mlp_simclrhn_probe2,1,135,NaN,clock,elephant,15,0135_lp_dnn_15_elephant_10_n02504013_2052.png,n02504013_2052.png,0.0,-0.6549021,0.041175336,-0.49220112
alexnet_w1_mlp_simclrhn_probe2,1,136,NaN,clock,cat,40,0136_lp_dnn_40_cat_10_n02123159_3724.png,n02123159_3724.png,0.0,-0.4360743,0.1878864,-0.44120684
alexnet_w1_mlp_simclrhn_probe2,1,137,NaN,clock,keyboard,15,0137_lp_dnn_15_keyboard_10_n03085013_7955.png,n03085013_7955.png,0.0,-0.13777308,0.116085865,-0.1795054
alexnet_w1_mlp_simclrhn_probe2,1,138,NaN,clock,bird,40,0138_lp_dnn_40_bird_10_n02056570_9872.png,n02056570_9872.png,0.0,-0.37230405,0.1917005,-0.39881143
alexnet_w1_mlp_simclrhn_probe2,1,139,NaN,keyboard,cat,10,0139_lp_dnn_10_cat_10_n02125311_44401.png,n02125311_44401.png,0.0,-0.38726237,-0.008189138,-0.26804525
alexnet_w1_mlp_simclrhn_probe2,1,140,NaN,clock,airplane,10,0140_lp_dnn_10_airplane_10_n02690373_10657.png,n02690373_10657.png,0.0,-0.110667676,0.006669114,-0.082969636
alexnet_w1_mlp_simclrhn_probe2,1,141,NaN,bird,bird,5,0141_lp_dnn_5_bird_10_n02025239_7919.png,n02025239_7919.png,1.0,0.045630872,0.0069084913,0.02738086
alexnet_w1_mlp_simclrhn_probe2,1,142,NaN,clock,bear,40,0142_lp_dnn_40_bear_10_n02134084_23165.png,n02134084_23165.png,0.0,-0.698295,0.22108395,-0.6500991
alexnet_w1_mlp_simclrhn_probe2,1,143,NaN,clock,knife,40,0143_lp_dnn_40_knife_10_n03041632_28658.png,n03041632_28658.png,0.0,0.07266384,0.2720329,-0.1409752
alexnet_w1_mlp_simclrhn_probe2,1,144,NaN,keyboard,keyboard,5,0144_lp_dnn_5_keyboard_10_n04505470_4371.png,n04505470_4371.png,1.0,0.4824403,0.24717508,0.16635762
alexnet_w1_mlp_simclrhn_probe2,1,145,NaN,keyboard,keyboard,0,0145_lp_dnn_0_keyboard_10_n03085013_14237.png,n03085013_14237.png,1.0,5.2549458,3.2643065,1.4075946
alexnet_w1_mlp_simclrhn_probe2,1,146,NaN,bottle,clock,0,0146_lp_dnn_0_clock_10_n03196217_6163.png,n03196217_6163.png,0.0,0.1431506,0.510464,-0.2597298
alexnet_w1_mlp_simclrhn_probe2,1,147,NaN,clock,chair,15,0147_lp_dnn_15_chair_10_n02791124_3857.png,n02791124_3857.png,0.0,-0.9096336,0.06924133,-0.69216913
alexnet_w1_mlp_simclrhn_probe2,1,148,NaN,clock,truck,40,0148_lp_dnn_40_truck_10_n03417042_20650.png,n03417042_20650.png,0.0,-0.9426569,0.24097401,-0.83695346
alexnet_w1_mlp_simclrhn_probe2,1,149,NaN,truck,truck,0,0149_lp_dnn_0_truck_10_n04467665_17101.png,n04467665_17101.png,1.0,9.753696,3.7977743,4.211473
alexnet_w1_mlp_simclrhn_probe2,1,150,NaN,chair,chair,1,0150_lp_dnn_1_chair_10_n04429376_19354.png,n04429376_19354.png,1.0,0.495061,-0.46959594,0.6821155
alexnet_w1_mlp_simclrhn_probe2,1,151,NaN,knife,knife,0,0151_lp_dnn_0_knife_10_n03041632_42156.png,n03041632_42156.png,1.0,3.830499,-0.32470912,2.938176
alexnet_w1_mlp_simclrhn_probe2,1,152,NaN,car,car,1,0152_lp_dnn_1_car_10_n04285008_39.png,n04285008_39.png,1.0,6.146868,3.4869723,1.8808304
alexnet_w1_mlp_simclrhn_probe2,1,153,NaN,boat,boat,1,0153_lp_dnn_1_boat_10_n03662601_1319.png,n03662601_1319.png,1.0,4.908427,1.0631036,2.719054
alexnet_w1_mlp_simclrhn_probe2,1,154,NaN,keyboard,truck,7,0154_lp_dnn_7_truck_10_n03796401_4119.png,n03796401_4119.png,0.0,-1.1697713,0.2034755,-0.97103214
alexnet_w1_mlp_simclrhn_probe2,1,155,NaN,clock,bottle,15,0155_lp_dnn_15_bottle_10_n03937543_2333.png,n03937543_2333.png,0.0,-0.0019651917,0.11157157,-0.08028262
alexnet_w1_mlp_simclrhn_probe2,1,156,NaN,bottle,bottle,3,0156_lp_dnn_3_bottle_10_n04591713_7134.png,n04591713_7134.png,1.0,0.66668206,0.15778403,0.35984525
alexnet_w1_mlp_simclrhn_probe2,1,157,NaN,dog,dog,0,0157_lp_dnn_0_dog_10_n02107312_3673.png,n02107312_3673.png,1.0,0.74214405,-1.5792092,1.6414446
alexnet_w1_mlp_simclrhn_probe2,1,158,NaN,keyboard,oven,3,0158_lp_dnn_3_oven_10_n04111531_8373.png,n04111531_8373.png,0.0,-0.1603325,0.12921181,-0.20473875
alexnet_w1_mlp_simclrhn_probe2,1,159,NaN,keyboard,car,3,0159_lp_dnn_3_car_10_n03100240_13707.png,n03100240_13707.png,0.0,-0.08816784,0.09202305,-0.1274142
alexnet_w1_mlp_simclrhn_probe2,1,160,NaN,bottle,chair,1,0160_lp_dnn_1_chair_10_n02791124_241.png,n02791124_241.png,0.0,0.6683468,0.80855185,-0.09913993
alexnet_w1_mlp_simclrhn_probe2,1,161,NaN,keyboard,airplane,7,0161_lp_dnn_7_airplane_10_n02690373_5628.png,n02690373_5628.png,0.0,-0.4068231,0.11424254,-0.36844906
alexnet_w1_mlp_simclrhn_probe2,1,162,NaN,airplane,boat,40,0162_lp_dnn_40_boat_10_n02951358_1461.png,n02951358_1461.png,0.0,-0.35239086,0.1703638,-0.3696434
alexnet_w1_mlp_simclrhn_probe2,1,163,NaN,keyboard,keyboard,7,0163_lp_dnn_7_keyboard_10_n04505470_4501.png,n04505470_4501.png,1.0,0.80926394,0.080348864,0.5154208
alexnet_w1_mlp_simclrhn_probe2,1,164,NaN,bird,bird,1,0164_lp_dnn_1_bird_10_n02033041_11415.png,n02033041_11415.png,1.0,3.0078998,-3.0775304,4.303049
alexnet_w1_mlp_simclrhn_probe2,1,165,NaN,oven,knife,1,0165_lp_dnn_1_knife_10_n03041632_6446.png,n03041632_6446.png,0.0,0.78223264,1.0828954,-0.21260068
alexnet_w1_mlp_simclrhn_probe2,1,166,NaN,bird,bird,0,0166_lp_dnn_0_bird_10_n02011460_3892.png,n02011460_3892.png,1.0,1.8814611,-2.3590503,2.9984944
alexnet_w1_mlp_simclrhn_probe2,1,167,NaN,bear,cat,1,0167_lp_dnn_1_cat_10_n02125311_3174.png,n02125311_3174.png,0.0,-0.6248535,0.88022673,-1.0642525
alexnet_w1_mlp_simclrhn_probe2,1,168,NaN,clock,dog,10,0168_lp_dnn_10_dog_10_n02088364_7448.png,n02088364_7448.png,0.0,-1.1617658,0.069234364,-0.8704486
alexnet_w1_mlp_simclrhn_probe2,1,169,NaN,cat,cat,1,0169_lp_dnn_1_cat_10_n02123394_4299.png,n02123394_4299.png,1.0,0.8194773,-0.35839063,0.8328784
alexnet_w1_mlp_simclrhn_probe2,1,170,NaN,clock,keyboard,15,0170_lp_dnn_15_keyboard_10_n03085013_23731.png,n03085013_23731.png,0.0,-0.11683919,-0.042577665,-0.05251083
alexnet_w1_mlp_simclrhn_probe2,1,171,NaN,keyboard,knife,5,0171_lp_dnn_5_knife_10_n03041632_29285.png,n03041632_29285.png,0.0,-0.27620903,0.27646315,-0.39079824
alexnet_w1_mlp_simclrhn_probe2,1,172,NaN,keyboard,keyboard,0,0172_lp_dnn_0_keyboard_10_n03085013_12164.png,n03085013_12164.png,1.0,10.523662,1.065919,6.687634
alexnet_w1_mlp_simclrhn_probe2,1,173,NaN,keyboard,bird,5,0173_lp_dnn_5_bird_10_n01582220_9023.png,n01582220_9023.png,0.0,-0.94020265,0.39621845,-0.9449925
alexnet_w1_mlp_simclrhn_probe2,1,174,NaN,keyboard,bottle,3,0174_lp_dnn_3_bottle_10_n03983396_12728.png,n03983396_12728.png,0.0,-0.0012065789,0.18948057,-0.13483618
alexnet_w1_mlp_simclrhn_probe2,1,175,NaN,keyboard,dog,7,0175_lp_dnn_7_dog_10_n02111277_50807.png,n02111277_50807.png,0.0,-1.1525358,0.03915087,-0.8426497
alexnet_w1_mlp_simclrhn_probe2,1,176,NaN,keyboard,boat,5,0176_lp_dnn_5_boat_10_n04273569_2037.png,n04273569_2037.png,0.0,-0.9194873,0.117212206,-0.73305726
alexnet_w1_mlp_simclrhn_probe2,1,177,NaN,clock,keyboard,40,0177_lp_dnn_40_keyboard_10_n04505470_4672.png,n04505470_4672.png,0.0,-0.25153768,0.21649975,-0.33095244
alexnet_w1_mlp_simclrhn_probe2,1,178,NaN,keyboard,boat,10,0178_lp_dnn_10_boat_10_n03662601_12034.png,n03662601_12034.png,0.0,-0.71747756,0.0011620522,-0.5081549
alexnet_w1_mlp_simclrhn_probe2,1,179,NaN,clock,airplane,15,0179_lp_dnn_15_airplane_10_n02690373_5845.png,n02690373_5845.png,0.0,-0.16957264,0.06623737,-0.16674286
alexnet_w1_mlp_simclrhn_probe2,1,180,NaN,keyboard,truck,5,0180_lp_dnn_5_truck_10_n03417042_12128.png,n03417042_12128.png,0.0,-0.9584364,0.22806558,-0.8389836
alexnet_w1_mlp_simclrhn_probe2,1,181,NaN,keyboard,keyboard,10,0181_lp_dnn_10_keyboard_10_n03085013_2432.png,n03085013_2432.png,1.0,0.2596409,0.25493604,0.0033268405
alexnet_w1_mlp_simclrhn_probe2,1,182,NaN,keyboard,chair,5,0182_lp_dnn_5_chair_10_n03376595_9692.png,n03376595_9692.png,0.0,-0.47199064,0.27183098,-0.52596134
alexnet_w1_mlp_simclrhn_probe2,1,183,NaN,airplane,chair,3,0183_lp_dnn_3_chair_10_n03376595_12583.png,n03376595_12583.png,0.0,-0.9523234,-0.24708395,-0.49867958
alexnet_w1_mlp_simclrhn_probe2,1,184,NaN,bear,bear,0,0184_lp_dnn_0_bear_10_n02133161_2135.png,n02133161_2135.png,1.0,-0.5801148,-0.7541974,0.12309501
alexnet_w1_mlp_simclrhn_probe2,1,185,NaN,bottle,airplane,10,0185_lp_dnn_10_airplane_10_n02690373_5176.png,n02690373_5176.png,0.0,-0.15360625,-0.033701833,-0.08478522
alexnet_w1_mlp_simclrhn_probe2,1,186,NaN,elephant,elephant,0,0186_lp_dnn_0_elephant_10_n02504013_10990.png,n02504013_10990.png,1.0,0.7290966,-1.570643,1.6261615
alexnet_w1_mlp_simclrhn_probe2,1,187,NaN,keyboard,boat,10,0187_lp_dnn_10_boat_10_n02951358_3155.png,n02951358_3155.png,0.0,-0.67729634,0.007488437,-0.48421597
alexnet_w1_mlp_simclrhn_probe2,1,188,NaN,knife,knife,1,0188_lp_dnn_1_knife_10_n03041632_2644.png,n03041632_2644.png,1.0,1.4693098,-0.20293266,1.182454
alexnet_w1_mlp_simclrhn_probe2,1,189,NaN,keyboard,airplane,5,0189_lp_dnn_5_airplane_10_n02690373_5184.png,n02690373_5184.png,0.0,-0.4731203,0.35875154,-0.58822227
alexnet_w1_mlp_simclrhn_probe2,1,190,NaN,chair,chair,0,0190_lp_dnn_0_chair_10_n04099969_16161.png,n04099969_16161.png,1.0,-0.0009300709,-0.93354136,0.6594558
alexnet_w1_mlp_simclrhn_probe2,1,191,NaN,clock,boat,10,0191_lp_dnn_10_boat_10_n03344393_5343.png,n03344393_5343.png,0.0,-0.93377763,-0.029099008,-0.6397044
alexnet_w1_mlp_simclrhn_probe2,1,192,NaN,oven,oven,0,0192_lp_dnn_0_oven_10_n04111531_15052.png,n04111531_15052.png,1.0,5.541724,-0.23600425,4.085471
alexnet_w1_mlp_simclrhn_probe2,1,193,NaN,clock,bicycle,15,0193_lp_dnn_15_bicycle_10_n02835271_317.png,n02835271_317.png,0.0,-0.98095095,0.03184162,-0.7161525
alexnet_w1_mlp_simclrhn_probe2,1,194,NaN,bird,bird,0,0194_lp_dnn_0_bird_10_n02002556_15721.png,n02002556_15721.png,1.0,0.6967725,-2.3692408,2.1679988
alexnet_w1_mlp_simclrhn_probe2,1,195,NaN,keyboard,chair,5,0195_lp_dnn_5_chair_10_n03376595_11280.png,n03376595_11280.png,0.0,-0.7519728,0.23836736,-0.70027626
alexnet_w1_mlp_simclrhn_probe2,1,196,NaN,keyboard,keyboard,3,0196_lp_dnn_3_keyboard_10_n04505470_4621.png,n04505470_4621.png,1.0,0.33413017,-0.056790173,0.27642244
alexnet_w1_mlp_simclrhn_probe2,1,197,NaN,keyboard,boat,7,0197_lp_dnn_7_boat_10_n03662601_6042.png,n03662601_6042.png,0.0,-0.7756758,0.03203723,-0.5711394
alexnet_w1_mlp_simclrhn_probe2,1,198,NaN,dog,dog,1,0198_lp_dnn_1_dog_10_n02086646_2810.png,n02086646_2810.png,1.0,0.03381774,-1.0438561,0.76203054
alexnet_w1_mlp_simclrhn_probe2,1,199,NaN,clock,elephant,15,0199_lp_dnn_15_elephant_10_n02504458_7835.png,n02504458_7835.png,0.0,-0.7344368,0.021603743,-0.53460145
alexnet_w1_mlp_simclrhn_probe2,1,200,NaN,clock,cat,15,0200_lp_dnn_15_cat_10_n02123159_6281.png,n02123159_6281.png,0.0,-0.4705867,0.027846007,-0.35244516
alexnet_w1_mlp_simclrhn_probe2,1,201,NaN,keyboard,knife,5,0201_lp_dnn_5_knife_10_n03041632_1661.png,n03041632_1661.png,0.0,-0.38425845,0.31138578,-0.49189478
alexnet_w1_mlp_simclrhn_probe2,1,202,NaN,clock,clock,1,0202_lp_dnn_1_clock_10_n02708093_2806.png,n02708093_2806.png,1.0,2.2193744,-0.9425564,2.2358227
alexnet_w1_mlp_simclrhn_probe2,1,203,NaN,boat,boat,1,0203_lp_dnn_1_boat_10_n04273569_1201.png,n04273569_1201.png,1.0,5.522664,2.6894693,2.0033712
alexnet_w1_mlp_simclrhn_probe2,1,204,NaN,clock,bird,40,0204_lp_dnn_40_bird_10_n01614925_13283.png,n01614925_13283.png,0.0,-0.42075142,0.21245854,-0.44774705
alexnet_w1_mlp_simclrhn_probe2,1,205,NaN,airplane,car,40,0205_lp_dnn_40_car_10_n02814533_51701.png,n02814533_51701.png,0.0,-0.518888,0.3364337,-0.6048038
alexnet_w1_mlp_simclrhn_probe2,1,206,NaN,keyboard,chair,7,0206_lp_dnn_7_chair_10_n04099969_34325.png,n04099969_34325.png,0.0,-0.60260797,0.23884109,-0.5949943
alexnet_w1_mlp_simclrhn_probe2,1,207,NaN,airplane,truck,0,0207_lp_dnn_0_truck_10_n04467665_71305.png,n04467665_71305.png,0.0,0.4235111,4.0138345,-2.538742
alexnet_w1_mlp_simclrhn_probe2,1,208,NaN,bottle,boat,5,0208_lp_dnn_5_boat_10_n03344393_5916.png,n03344393_5916.png,0.0,-0.7775972,-0.02053492,-0.53532386
alexnet_w1_mlp_simclrhn_probe2,1,209,NaN,keyboard,car,7,0209_lp_dnn_7_car_10_n02814533_28783.png,n02814533_28783.png,0.0,-0.7803479,0.2253063,-0.7111049
alexnet_w1_mlp_simclrhn_probe2,1,210,NaN,airplane,boat,15,0210_lp_dnn_15_boat_10_n03662601_16825.png,n03662601_16825.png,0.0,-0.5965725,0.0079116225,-0.42743483
alexnet_w1_mlp_simclrhn_probe2,1,211,NaN,dog,dog,0,0211_lp_dnn_0_dog_10_n02100583_10960.png,n02100583_10960.png,1.0,0.5220015,-1.9238466,1.7294757
alexnet_w1_mlp_simclrhn_probe2,1,212,NaN,keyboard,elephant,10,0212_lp_dnn_10_elephant_10_n02504458_4587.png,n02504458_4587.png,0.0,-0.6783659,0.034395877,-0.5039987
alexnet_w1_mlp_simclrhn_probe2,1,213,NaN,keyboard,bottle,10,0213_lp_dnn_10_bottle_10_n03983396_12670.png,n03983396_12670.png,0.0,-0.072533555,0.19611114,-0.18996048
alexnet_w1_mlp_simclrhn_probe2,1,214,NaN,bicycle,bicycle,3,0214_lp_dnn_3_bicycle_10_n02835271_18205.png,n02835271_18205.png,1.0,-0.10201443,-0.25461724,0.10790649
alexnet_w1_mlp_simclrhn_probe2,1,215,NaN,clock,truck,40,0215_lp_dnn_40_truck_10_n04467665_67527.png,n04467665_67527.png,0.0,-0.8141656,0.07661644,-0.62987804
alexnet_w1_mlp_simclrhn_probe2,1,216,NaN,clock,keyboard,10,0216_lp_dnn_10_keyboard_10_n03085013_4374.png,n03085013_4374.png,0.0,-0.057947114,0.09462693,-0.10788614
alexnet_w1_mlp_simclrhn_probe2,1,217,NaN,clock,clock,3,0217_lp_dnn_3_clock_10_n03196217_3086.png,n03196217_3086.png,1.0,0.51285154,0.50150657,0.008022104
alexnet_w1_mlp_simclrhn_probe2,1,218,NaN,clock,clock,15,0218_lp_dnn_15_clock_10_n04548280_254.png,n04548280_254.png,1.0,0.200411,0.012351656,0.13297804
alexnet_w1_mlp_simclrhn_probe2,1,219,NaN,clock,bicycle,15,0219_lp_dnn_15_bicycle_10_n02835271_21707.png,n02835271_21707.png,0.0,-1.1380897,-0.015757227,-0.7936089
alexnet_w1_mlp_simclrhn_probe2,1,220,NaN,airplane,bird,15,0220_lp_dnn_15_bird_10_n01819313_6340.png,n01819313_6340.png,0.0,-0.071788624,-0.057008296,-0.01045127
alexnet_w1_mlp_simclrhn_probe2,1,221,NaN,keyboard,bicycle,5,0221_lp_dnn_5_bicycle_10_n02835271_10556.png,n02835271_10556.png,0.0,-0.6450318,0.11168179,-0.53507733
alexnet_w1_mlp_simclrhn_probe2,1,222,NaN,clock,chair,15,0222_lp_dnn_15_chair_10_n04099969_3312.png,n04099969_3312.png,0.0,-0.75990784,0.06260615,-0.58160526
alexnet_w1_mlp_simclrhn_probe2,1,223,NaN,clock,car,15,0223_lp_dnn_15_car_10_n04285008_2781.png,n04285008_2781.png,0.0,-0.7741706,0.048634484,-0.581811
alexnet_w1_mlp_simclrhn_probe2,1,224,NaN,clock,clock,3,0224_lp_dnn_3_clock_10_n04548280_21263.png,n04548280_21263.png,1.0,1.5721718,-0.021253245,1.1267216
alexnet_w1_mlp_simclrhn_probe2,1,225,NaN,keyboard,car,15,0225_lp_dnn_15_car_10_n02814533_9785.png,n02814533_9785.png,0.0,-0.7277923,-0.015509799,-0.50365984
alexnet_w1_mlp_simclrhn_probe2,1,226,NaN,truck,truck,0,0226_lp_dnn_0_truck_10_n03417042_24100.png,n03417042_24100.png,1.0,6.925125,5.307467,1.143857
alexnet_w1_mlp_simclrhn_probe2,1,227,NaN,clock,dog,15,0227_lp_dnn_15_dog_10_n02091244_10926.png,n02091244_10926.png,0.0,-1.0408287,0.04331338,-0.76660424
alexnet_w1_mlp_simclrhn_probe2,1,228,NaN,clock,bottle,40,0228_lp_dnn_40_bottle_10_n04591713_2537.png,n04591713_2537.png,0.0,-0.11162313,0.19863944,-0.21938877
alexnet_w1_mlp_simclrhn_probe2,1,229,NaN,keyboard,bear,10,0229_lp_dnn_10_bear_10_n02134418_1311.png,n02134418_1311.png,0.0,-1.012332,0.13919726,-0.8142541
alexnet_w1_mlp_simclrhn_probe2,1,230,NaN,airplane,bicycle,3,0230_lp_dnn_3_bicycle_10_n03792782_210.png,n03792782_210.png,0.0,-0.52233434,0.060702384,-0.41226923
alexnet_w1_mlp_simclrhn_probe2,1,231,NaN,cat,cat,3,0231_lp_dnn_3_cat_10_n02123045_5371.png,n02123045_5371.png,1.0,0.6041214,-0.57281435,0.8322192
alexnet_w1_mlp_simclrhn_probe2,1,232,NaN,clock,boat,15,0232_lp_dnn_15_boat_10_n04612504_19111.png,n04612504_19111.png,0.0,-0.7368142,0.094191946,-0.5876101
alexnet_w1_mlp_simclrhn_probe2,1,233,NaN,clock,clock,1,0233_lp_dnn_1_clock_10_n03196217_7836.png,n03196217_7836.png,1.0,1.0418191,0.867544,0.123231106
alexnet_w1_mlp_simclrhn_probe2,1,234,NaN,dog,dog,0,0234_lp_dnn_0_dog_10_n02086910_9742.png,n02086910_9742.png,1.0,1.3230125,-2.759683,2.8869016
alexnet_w1_mlp_simclrhn_probe2,1,235,NaN,bottle,bottle,1,0235_lp_dnn_1_bottle_10_n03937543_4723.png,n03937543_4723.png,1.0,0.3001172,0.21984875,0.056758363
alexnet_w1_mlp_simclrhn_probe2,1,236,NaN,keyboard,dog,5,0236_lp_dnn_5_dog_10_n02111129_6495.png,n02111129_6495.png,0.0,-0.7948287,0.07948101,-0.61823034
alexnet_w1_mlp_simclrhn_probe2,1,237,NaN,knife,knife,1,0237_lp_dnn_1_knife_10_n03041632_3101.png,n03041632_3101.png,1.0,1.3548697,1.04248,0.2208929
alexnet_w1_mlp_simclrhn_probe2,1,238,NaN,cat,bear,0,0238_lp_dnn_0_bear_10_n02134084_7373.png,n02134084_7373.png,0.0,-1.4309964,0.63598174,-1.4615743
alexnet_w1_mlp_simclrhn_probe2,1,239,NaN,keyboard,bird,7,0239_lp_dnn_7_bird_10_n02009229_11916.png,n02009229_11916.png,0.0,0.011047554,0.04134052,-0.021420361
alexnet_w1_mlp_simclrhn_probe2,1,240,NaN,keyboard,oven,7,0240_lp_dnn_7_oven_10_n04111531_14208.png,n04111531_14208.png,0.0,-0.7607683,0.09561393,-0.6055537
alexnet_w1_mlp_simclrhn_probe2,1,241,NaN,bottle,bird,3,0241_lp_dnn_3_bird_10_n01601694_20287.png,n01601694_20287.png,0.0,-0.563368,-0.162931,-0.28315175
alexnet_w1_mlp_simclrhn_probe2,1,242,NaN,clock,oven,15,0242_lp_dnn_15_oven_10_n04111531_5519.png,n04111531_5519.png,0.0,-0.7790278,0.016899453,-0.5628056
alexnet_w1_mlp_simclrhn_probe2,1,243,NaN,car,car,1,0243_lp_dnn_1_car_10_n04285008_10893.png,n04285008_10893.png,1.0,4.495354,3.0489244,1.0227803
alexnet_w1_mlp_simclrhn_probe2,1,244,NaN,airplane,boat,40,0244_lp_dnn_40_boat_10_n02951358_16196.png,n02951358_16196.png,0.0,-0.34180102,0.2943624,-0.44983548
alexnet_w1_mlp_simclrhn_probe2,1,245,NaN,clock,clock,7,0245_lp_dnn_7_clock_10_n04548280_532.png,n04548280_532.png,1.0,0.11386604,0.05090743,0.044518463
alexnet_w1_mlp_simclrhn_probe2,1,246,NaN,keyboard,keyboard,0,0246_lp_dnn_0_keyboard_10_n04505470_73.png,n04505470_73.png,1.0,12.5185375,0.8866082,8.225017
alexnet_w1_mlp_simclrhn_probe2,1,247,NaN,airplane,bottle,10,0247_lp_dnn_10_bottle_10_n02823428_6766.png,n02823428_6766.png,0.0,-0.10484272,0.19692098,-0.21337917
alexnet_w1_mlp_simclrhn_probe2,1,248,NaN,airplane,boat,15,0248_lp_dnn_15_boat_10_n02951358_26579.png,n02951358_26579.png,0.0,-0.44013506,0.03978467,-0.33935452
alexnet_w1_mlp_simclrhn_probe2,1,249,NaN,keyboard,dog,10,0249_lp_dnn_10_dog_10_n02085782_7651.png,n02085782_7651.png,0.0,-1.0121601,0.2001367,-0.8572233
alexnet_w1_mlp_simclrhn_probe2,1,250,NaN,clock,clock,3,0250_lp_dnn_3_clock_10_n02708093_1747.png,n02708093_1747.png,1.0,0.93339425,0.4506967,0.34131873
alexnet_w1_mlp_simclrhn_probe2,1,251,NaN,keyboard,truck,3,0251_lp_dnn_3_truck_10_n04467665_19645.png,n04467665_19645.png,0.0,-0.8082311,0.12282336,-0.65835494
alexnet_w1_mlp_simclrhn_probe2,1,252,NaN,clock,airplane,15,0252_lp_dnn_15_airplane_10_n02690373_17262.png,n02690373_17262.png,0.0,-0.061612174,0.07277125,-0.09502343
alexnet_w1_mlp_simclrhn_probe2,1,253,NaN,elephant,elephant,0,0253_lp_dnn_0_elephant_10_n02504458_10428.png,n02504458_10428.png,1.0,2.7487392,-0.63499093,2.3926587
alexnet_w1_mlp_simclrhn_probe2,1,254,NaN,keyboard,cat,7,0254_lp_dnn_7_cat_10_n02124075_9149.png,n02124075_9149.png,0.0,-1.0132192,0.16813317,-0.8353423
alexnet_w1_mlp_simclrhn_probe2,1,255,NaN,bottle,elephant,10,0255_lp_dnn_10_elephant_10_n02504013_7923.png,n02504013_7923.png,0.0,-1.3006879,0.02589223,-0.9380338
alexnet_w1_mlp_simclrhn_probe2,1,256,NaN,cat,cat,3,0256_lp_dnn_3_cat_10_n02123394_4789.png,n02123394_4789.png,1.0,-0.45693266,-0.5487949,0.06495643
alexnet_w1_mlp_simclrhn_probe2,1,257,NaN,keyboard,clock,5,0257_lp_dnn_5_clock_10_n03196217_2530.png,n03196217_2530.png,0.0,0.25787413,0.5707941,-0.22126783
alexnet_w1_mlp_simclrhn_probe2,1,258,NaN,keyboard,airplane,5,0258_lp_dnn_5_airplane_10_n02690373_6992.png,n02690373_6992.png,0.0,-0.2641807,-0.06870415,-0.13822278
alexnet_w1_mlp_simclrhn_probe2,1,259,NaN,keyboard,airplane,3,0259_lp_dnn_3_airplane_10_n02690373_5056.png,n02690373_5056.png,0.0,0.14622067,0.55897075,-0.29185838
alexnet_w1_mlp_simclrhn_probe2,1,260,NaN,bear,bear,1,0260_lp_dnn_1_bear_10_n02134418_2231.png,n02134418_2231.png,1.0,2.1899462,-0.44183654,1.8609514
alexnet_w1_mlp_simclrhn_probe2,1,261,NaN,clock,truck,10,0261_lp_dnn_10_truck_10_n03796401_180.png,n03796401_180.png,0.0,-1.3590887,0.17415695,-1.0841683
alexnet_w1_mlp_simclrhn_probe2,1,262,NaN,bird,bicycle,3,0262_lp_dnn_3_bicycle_10_n02835271_3246.png,n02835271_3246.png,0.0,-0.4634995,-0.16406935,-0.21172908
alexnet_w1_mlp_simclrhn_probe2,1,263,NaN,truck,truck,3,0263_lp_dnn_3_truck_10_n03796401_599.png,n03796401_599.png,1.0,0.17401549,0.108357325,0.046427336
alexnet_w1_mlp_simclrhn_probe2,1,264,NaN,keyboard,oven,7,0264_lp_dnn_7_oven_10_n04111531_13862.png,n04111531_13862.png,0.0,-1.0205725,0.3634675,-0.97866416
alexnet_w1_mlp_simclrhn_probe2,1,265,NaN,chair,oven,0,0265_lp_dnn_0_oven_10_n04111531_10420.png,n04111531_10420.png,0.0,1.0807803,1.3491206,-0.18974528
alexnet_w1_mlp_simclrhn_probe2,1,266,NaN,airplane,car,10,0266_lp_dnn_10_car_10_n03100240_15531.png,n03100240_15531.png,0.0,-0.66462487,0.024140358,-0.48703057
alexnet_w1_mlp_simclrhn_probe2,1,267,NaN,keyboard,dog,7,0267_lp_dnn_7_dog_10_n02099849_3128.png,n02099849_3128.png,0.0,-0.89500946,0.25656343,-0.81428504
alexnet_w1_mlp_simclrhn_probe2,1,268,NaN,keyboard,chair,5,0268_lp_dnn_5_chair_10_n02791124_3222.png,n02791124_3222.png,0.0,-1.4554586,0.41237786,-1.3207599
alexnet_w1_mlp_simclrhn_probe2,1,269,NaN,keyboard,keyboard,5,0269_lp_dnn_5_keyboard_10_n04505470_8364.png,n04505470_8364.png,1.0,0.8527141,0.13449185,0.5078598
alexnet_w1_mlp_simclrhn_probe2,1,270,NaN,clock,clock,0,0270_lp_dnn_0_clock_10_n04548280_9294.png,n04548280_9294.png,1.0,2.1362984,0.2208679,1.354414
alexnet_w1_mlp_simclrhn_probe2,1,271,NaN,keyboard,bottle,7,0271_lp_dnn_7_bottle_10_n03937543_3358.png,n03937543_3358.png,0.0,0.1897241,0.28342348,-0.066255465
alexnet_w1_mlp_simclrhn_probe2,1,272,NaN,keyboard,knife,7,0272_lp_dnn_7_knife_10_n03041632_2058.png,n03041632_2058.png,0.0,-0.081730455,0.06408963,-0.10311037
alexnet_w1_mlp_simclrhn_probe2,1,273,NaN,boat,elephant,1,0273_lp_dnn_1_elephant_10_n02504458_5671.png,n02504458_5671.png,0.0,-0.3893694,1.856529,-1.5880901
alexnet_w1_mlp_simclrhn_probe2,1,274,NaN,keyboard,chair,10,0274_lp_dnn_10_chair_10_n02791124_6281.png,n02791124_6281.png,0.0,-0.74825406,0.1485526,-0.6341381
alexnet_w1_mlp_simclrhn_probe2,1,275,NaN,clock,cat,15,0275_lp_dnn_15_cat_10_n02125311_44920.png,n02125311_44920.png,0.0,-0.6314449,0.13032593,-0.5386533
alexnet_w1_mlp_simclrhn_probe2,1,276,NaN,bottle,airplane,5,0276_lp_dnn_5_airplane_10_n02690373_2981.png,n02690373_2981.png,0.0,-0.25456622,-0.15668853,-0.069209985
alexnet_w1_mlp_simclrhn_probe2,1,277,NaN,knife,knife,1,0277_lp_dnn_1_knife_10_n03041632_2468.png,n03041632_2468.png,1.0,-0.454462,-0.8055032,0.24822362
alexnet_w1_mlp_simclrhn_probe2,1,278,NaN,clock,clock,1,0278_lp_dnn_1_clock_10_n02708093_3605.png,n02708093_3605.png,1.0,-0.042488735,-0.29026052,0.17520112
alexnet_w1_mlp_simclrhn_probe2,1,279,NaN,bicycle,bicycle,1,0279_lp_dnn_1_bicycle_10_n02835271_19019.png,n02835271_19019.png,1.0,6.24452,-0.7288027,4.930884
alexnet_w1_mlp_simclrhn_probe2,1,280,NaN,keyboard,keyboard,7,0280_lp_dnn_7_keyboard_10_n03085013_1188.png,n03085013_1188.png,1.0,0.11920272,-0.04578964,0.11666722
alexnet_w1_mlp_simclrhn_probe2,1,281,NaN,oven,oven,1,0281_lp_dnn_1_oven_10_n04111531_2715.png,n04111531_2715.png,1.0,0.47969094,-1.149664,1.152128
alexnet_w1_mlp_simclrhn_probe2,1,282,NaN,bottle,keyboard,10,0282_lp_dnn_10_keyboard_10_n03085013_9533.png,n03085013_9533.png,0.0,0.15168008,0.18258317,-0.021851782
alexnet_w1_mlp_simclrhn_probe2,1,283,NaN,cat,cat,3,0283_lp_dnn_3_cat_10_n02123045_20366.png,n02123045_20366.png,1.0,0.24968858,-0.1894111,0.31049037
alexnet_w1_mlp_simclrhn_probe2,1,284,NaN,keyboard,chair,5,0284_lp_dnn_5_chair_10_n03376595_302.png,n03376595_302.png,0.0,-0.7047117,0.06610167,-0.54504734
alexnet_w1_mlp_simclrhn_probe2,1,285,NaN,keyboard,cat,7,0285_lp_dnn_7_cat_10_n02123597_14267.png,n02123597_14267.png,0.0,-0.79605937,0.27443856,-0.7569564
alexnet_w1_mlp_simclrhn_probe2,1,286,NaN,keyboard,dog,15,0286_lp_dnn_15_dog_10_n02098286_2582.png,n02098286_2582.png,0.0,-0.7688002,-7.368624e-06,-0.5436186
alexnet_w1_mlp_simclrhn_probe2,1,287,NaN,boat,boat,1,0287_lp_dnn_1_boat_10_n03344393_4001.png,n03344393_4001.png,1.0,1.6629517,1.4059049,0.18175955
alexnet_w1_mlp_simclrhn_probe2,1,288,NaN,airplane,bicycle,15,0288_lp_dnn_15_bicycle_10_n02835271_6122.png,n02835271_6122.png,0.0,-0.89533275,0.037215516,-0.65941125
alexnet_w1_mlp_simclrhn_probe2,1,289,NaN,bear,dog,3,0289_lp_dnn_3_dog_10_n02091134_3075.png,n02091134_3075.png,0.0,-0.2277085,-0.02194348,-0.14549784
alexnet_w1_mlp_simclrhn_probe2,1,290,NaN,airplane,oven,40,0290_lp_dnn_40_oven_10_n04111531_4795.png,n04111531_4795.png,0.0,-0.7613853,0.20050603,-0.6801599
alexnet_w1_mlp_simclrhn_probe2,1,291,NaN,keyboard,bottle,10,0291_lp_dnn_10_bottle_10_n04591713_4876.png,n04591713_4876.png,0.0,0.0359904,0.25497526,-0.15484568
alexnet_w1_mlp_simclrhn_probe2,1,292,NaN,bottle,bottle,0,0292_lp_dnn_0_bottle_10_n02823428_2510.png,n02823428_2510.png,1.0,2.9032798,2.227188,0.478069
alexnet_w1_mlp_simclrhn_probe2,1,293,NaN,chair,keyboard,1,0293_lp_dnn_1_keyboard_10_n03085013_5950.png,n03085013_5950.png,0.0,-0.34038898,0.3252662,-0.4706893
alexnet_w1_mlp_simclrhn_probe2,1,294,NaN,airplane,bear,5,0294_lp_dnn_5_bear_10_n02133161_1490.png,n02133161_1490.png,0.0,-0.29999626,0.038753152,-0.23953201
alexnet_w1_mlp_simclrhn_probe2,1,295,NaN,keyboard,truck,10,0295_lp_dnn_10_truck_10_n03796401_28465.png,n03796401_28465.png,0.0,-0.9055118,0.15441418,-0.7494809
alexnet_w1_mlp_simclrhn_probe2,1,296,NaN,clock,bottle,15,0296_lp_dnn_15_bottle_10_n02823428_6627.png,n02823428_6627.png,0.0,-0.068250336,0.11400464,-0.12887372
alexnet_w1_mlp_simclrhn_probe2,1,297,NaN,keyboard,truck,5,0297_lp_dnn_5_truck_10_n04467665_69582.png,n04467665_69582.png,0.0,-1.0545483,0.080943786,-0.80291414
alexnet_w1_mlp_simclrhn_probe2,1,298,NaN,clock,bird,40,0298_lp_dnn_40_bird_10_n02006656_10568.png,n02006656_10568.png,0.0,-0.44066027,0.21631753,-0.46455345
alexnet_w1_mlp_simclrhn_probe2,1,299,NaN,clock,car,40,0299_lp_dnn_40_car_10_n04285008_11748.png,n04285008_11748.png,0.0,-0.5494999,0.28258553,-0.5883733
alexnet_w1_mlp_simclrhn_probe2,1,300,NaN,keyboard,truck,5,0300_lp_dnn_5_truck_10_n04467665_44714.png,n04467665_44714.png,0.0,-0.78196144,0.26037434,-0.73704267
alexnet_w1_mlp_simclrhn_probe2,1,301,NaN,airplane,airplane,3,0301_lp_dnn_3_airplane_10_n02690373_7487.png,n02690373_7487.png,1.0,0.95110536,-0.08686076,0.7339529
alexnet_w1_mlp_simclrhn_probe2,1,302,NaN,clock,elephant,15,0302_lp_dnn_15_elephant_10_n02504458_7472.png,n02504458_7472.png,0.0,-0.7367529,0.0075614466,-0.5263097
alexnet_w1_mlp_simclrhn_probe2,1,303,NaN,airplane,boat,3,0303_lp_dnn_3_boat_10_n03662601_25023.png,n03662601_25023.png,0.0,-0.42381406,-0.021604523,-0.28440508
alexnet_w1_mlp_simclrhn_probe2,1,304,NaN,bicycle,knife,0,0304_lp_dnn_0_knife_10_n03041632_101673.png,n03041632_101673.png,0.0,-0.61502945,1.4287448,-1.4451666
alexnet_w1_mlp_simclrhn_probe2,1,305,NaN,keyboard,bottle,7,0305_lp_dnn_7_bottle_10_n03983396_587.png,n03983396_587.png,0.0,0.020136109,0.15336257,-0.09420534
alexnet_w1_mlp_simclrhn_probe2,1,306,NaN,oven,cat,3,0306_lp_dnn_3_cat_10_n02124075_7692.png,n02124075_7692.png,0.0,-0.30835518,-0.022607017,-0.20205446
alexnet_w1_mlp_simclrhn_probe2,1,307,NaN,oven,oven,0,0307_lp_dnn_0_oven_10_n04111531_6313.png,n04111531_6313.png,1.0,4.994395,-0.42192015,3.8299131
alexnet_w1_mlp_simclrhn_probe2,1,308,NaN,keyboard,bird,7,0308_lp_dnn_7_bird_10_n02018795_5770.png,n02018795_5770.png,0.0,-0.09178302,0.07964373,-0.12121701
alexnet_w1_mlp_simclrhn_probe2,1,309,NaN,bottle,bottle,3,0309_lp_dnn_3_bottle_10_n02823428_4658.png,n02823428_4658.png,1.0,2.2145808,-0.055259466,1.6050195
alexnet_w1_mlp_simclrhn_probe2,1,310,NaN,airplane,airplane,1,0310_lp_dnn_1_airplane_10_n02690373_2724.png,n02690373_2724.png,1.0,5.409591,-0.32374215,4.054079
alexnet_w1_mlp_simclrhn_probe2,1,311,NaN,clock,boat,40,0311_lp_dnn_40_boat_10_n04612504_7446.png,n04612504_7446.png,0.0,-0.28423718,0.28477457,-0.40235206
alexnet_w1_mlp_simclrhn_probe2,1,312,NaN,keyboard,boat,7,0312_lp_dnn_7_boat_10_n02951358_34783.png,n02951358_34783.png,0.0,-0.47873655,0.073348224,-0.39038292
alexnet_w1_mlp_simclrhn_probe2,1,313,NaN,cat,cat,0,0313_lp_dnn_0_cat_10_n02123597_680.png,n02123597_680.png,1.0,4.571294,-0.17520398,3.3562808
alexnet_w1_mlp_simclrhn_probe2,1,314,NaN,keyboard,bear,10,0314_lp_dnn_10_bear_10_n02133161_9863.png,n02133161_9863.png,0.0,-0.6528454,0.10125744,-0.53323126
alexnet_w1_mlp_simclrhn_probe2,1,315,NaN,bear,bear,1,0315_lp_dnn_1_bear_10_n02133161_2100.png,n02133161_2100.png,1.0,3.8798497,0.22559254,2.58395
alexnet_w1_mlp_simclrhn_probe2,1,316,NaN,keyboard,oven,3,0316_lp_dnn_3_oven_10_n04111531_8009.png,n04111531_8009.png,0.0,0.22385976,0.69333607,-0.3319699
alexnet_w1_mlp_simclrhn_probe2,1,317,NaN,airplane,car,40,0317_lp_dnn_40_car_10_n03100240_16525.png,n03100240_16525.png,0.0,-0.5470037,0.2633968,-0.5730397
alexnet_w1_mlp_simclrhn_probe2,1,318,NaN,bird,bird,5,0318_lp_dnn_5_bird_10_n01824575_4941.png,n01824575_4941.png,1.0,0.08252615,-0.02720569,0.07759213
alexnet_w1_mlp_simclrhn_probe2,1,319,NaN,clock,knife,15,0319_lp_dnn_15_knife_10_n03041632_289.png,n03041632_289.png,0.0,-0.11399168,0.03845955,-0.1077993
alexnet_w1_mlp_simclrhn_probe2,1,320,NaN,bottle,dog,10,0320_lp_dnn_10_dog_10_n02101006_15350.png,n02101006_15350.png,0.0,-1.1102501,0.17540172,-0.90909314
alexnet_w1_mlp_simclrhn_probe2,1,321,NaN,airplane,elephant,5,0321_lp_dnn_5_elephant_10_n02504458_1636.png,n02504458_1636.png,0.0,-0.35839194,-0.05052431,-0.21769531
alexnet_w1_mlp_simclrhn_probe2,1,322,NaN,keyboard,car,7,0322_lp_dnn_7_car_10_n04285008_8666.png,n04285008_8666.png,0.0,-0.800951,0.19708477,-0.70571786
alexnet_w1_mlp_simclrhn_probe2,1,323,NaN,keyboard,bottle,5,0323_lp_dnn_5_bottle_10_n02823428_5451.png,n02823428_5451.png,0.0,0.35232255,0.3809728,-0.02025879
alexnet_w1_mlp_simclrhn_probe2,1,324,NaN,car,car,3,0324_lp_dnn_3_car_10_n03100240_2495.png,n03100240_2495.png,1.0,0.61702543,0.35652637,0.18420066
alexnet_w1_mlp_simclrhn_probe2,1,325,NaN,keyboard,bicycle,10,0325_lp_dnn_10_bicycle_10_n02835271_19565.png,n02835271_19565.png,0.0,-1.0321444,0.2626317,-0.91554505
alexnet_w1_mlp_simclrhn_probe2,1,326,NaN,airplane,airplane,1,0326_lp_dnn_1_airplane_10_n02690373_349.png,n02690373_349.png,1.0,4.0196285,-0.6639115,3.3117628
alexnet_w1_mlp_simclrhn_probe2,1,327,NaN,keyboard,cat,7,0327_lp_dnn_7_cat_10_n02123045_20512.png,n02123045_20512.png,0.0,-0.7116821,0.16938987,-0.62301195
alexnet_w1_mlp_simclrhn_probe2,1,328,NaN,knife,keyboard,1,0328_lp_dnn_1_keyboard_10_n03085013_23619.png,n03085013_23619.png,0.0,-0.6542738,0.02547586,-0.4806556
alexnet_w1_mlp_simclrhn_probe2,1,329,NaN,bottle,boat,7,0329_lp_dnn_7_boat_10_n03662601_16925.png,n03662601_16925.png,0.0,-0.84044063,0.16572788,-0.7114686
alexnet_w1_mlp_simclrhn_probe2,1,330,NaN,keyboard,oven,10,0330_lp_dnn_10_oven_10_n04111531_12830.png,n04111531_12830.png,0.0,-0.7494696,0.3641312,-0.78743464
alexnet_w1_mlp_simclrhn_probe2,1,331,NaN,keyboard,boat,5,0331_lp_dnn_5_boat_10_n02951358_33277.png,n02951358_33277.png,0.0,-0.6806021,-0.05251421,-0.4441252
alexnet_w1_mlp_simclrhn_probe2,1,332,NaN,keyboard,bear,15,0332_lp_dnn_15_bear_10_n02133161_156.png,n02133161_156.png,0.0,-0.6138967,-0.0641022,-0.38876346
alexnet_w1_mlp_simclrhn_probe2,1,333,NaN,clock,cat,40,0333_lp_dnn_40_cat_10_n02124075_6638.png,n02124075_6638.png,0.0,-0.50638145,0.19327025,-0.49472848
alexnet_w1_mlp_simclrhn_probe2,1,334,NaN,keyboard,keyboard,10,0334_lp_dnn_10_keyboard_10_n04505470_4587.png,n04505470_4587.png,1.0,0.0052223653,-0.040721893,0.032487497
alexnet_w1_mlp_simclrhn_probe2,1,335,NaN,keyboard,bear,10,0335_lp_dnn_10_bear_10_n02134084_27899.png,n02134084_27899.png,0.0,-0.81429935,0.082500204,-0.63413304
alexnet_w1_mlp_simclrhn_probe2,1,336,NaN,keyboard,keyboard,0,0336_lp_dnn_0_keyboard_10_n03085013_10984.png,n03085013_10984.png,1.0,7.8028574,0.61188775,5.0847836
alexnet_w1_mlp_simclrhn_probe2,1,337,NaN,keyboard,bottle,5,0337_lp_dnn_5_bottle_10_n03983396_10469.png,n03983396_10469.png,0.0,-0.19220571,0.11541006,-0.2175172
alexnet_w1_mlp_simclrhn_probe2,1,338,NaN,keyboard,knife,10,0338_lp_dnn_10_knife_10_n03041632_20707.png,n03041632_20707.png,0.0,-0.32484204,0.06706271,-0.2771185
alexnet_w1_mlp_simclrhn_probe2,1,339,NaN,truck,car,1,0339_lp_dnn_1_car_10_n04285008_9411.png,n04285008_9411.png,0.0,2.8284628,3.4179275,-0.41681448
alexnet_w1_mlp_simclrhn_probe2,1,340,NaN,airplane,airplane,40,0340_lp_dnn_40_airplane_10_n02690373_4671.png,n02690373_4671.png,1.0,0.318199,0.2968661,0.015084652
alexnet_w1_mlp_simclrhn_probe2,1,341,NaN,keyboard,knife,7,0341_lp_dnn_7_knife_10_n03041632_16206.png,n03041632_16206.png,0.0,-0.17532362,0.015585452,-0.1349931
alexnet_w1_mlp_simclrhn_probe2,1,342,NaN,keyboard,bicycle,5,0342_lp_dnn_5_bicycle_10_n03792782_7180.png,n03792782_7180.png,0.0,-1.0277544,0.18564674,-0.8580042
alexnet_w1_mlp_simclrhn_probe2,1,343,NaN,bear,bear,0,0343_lp_dnn_0_bear_10_n02134418_2719.png,n02134418_2719.png,1.0,3.1296222,0.34068814,1.9720742
alexnet_w1_mlp_simclrhn_probe2,1,344,NaN,chair,chair,0,0344_lp_dnn_0_chair_10_n04099969_2038.png,n04099969_2038.png,1.0,2.3391757,0.24083233,1.4837528
alexnet_w1_mlp_simclrhn_probe2,1,345,NaN,cat,dog,1,0345_lp_dnn_1_dog_10_n02113023_5237.png,n02113023_5237.png,0.0,-0.7747405,0.24946626,-0.72422355
alexnet_w1_mlp_simclrhn_probe2,1,346,NaN,clock,airplane,40,0346_lp_dnn_40_airplane_10_n02690373_2525.png,n02690373_2525.png,0.0,0.07976869,0.19434874,-0.08102033
alexnet_w1_mlp_simclrhn_probe2,1,347,NaN,clock,clock,7,0347_lp_dnn_7_clock_10_n04548280_219.png,n04548280_219.png,1.0,0.18008621,0.16169597,0.013003862
alexnet_w1_mlp_simclrhn_probe2,1,348,NaN,clock,boat,15,0348_lp_dnn_15_boat_10_n04612504_2805.png,n04612504_2805.png,0.0,-0.91085976,-0.04321143,-0.61352
alexnet_w1_mlp_simclrhn_probe2,1,349,NaN,bottle,clock,7,0349_lp_dnn_7_clock_10_n02708093_7020.png,n02708093_7020.png,0.0,0.063932076,0.22634803,-0.114845425
alexnet_w1_mlp_simclrhn_probe2,1,350,NaN,oven,oven,3,0350_lp_dnn_3_oven_10_n04111531_5171.png,n04111531_5171.png,1.0,-0.16428366,-0.19561744,0.022156324
alexnet_w1_mlp_simclrhn_probe2,1,351,NaN,bear,cat,3,0351_lp_dnn_3_cat_10_n02125311_37322.png,n02125311_37322.png,0.0,-0.24307384,-0.22721413,-0.011214508
alexnet_w1_mlp_simclrhn_probe2,1,352,NaN,bottle,cat,7,0352_lp_dnn_7_cat_10_n02123597_14094.png,n02123597_14094.png,0.0,-1.0939764,0.2096889,-0.9218306
alexnet_w1_mlp_simclrhn_probe2,1,353,NaN,clock,boat,15,0353_lp_dnn_15_boat_10_n02951358_13352.png,n02951358_13352.png,0.0,-0.8475639,-0.020045271,-0.58514404
alexnet_w1_mlp_simclrhn_probe2,1,354,NaN,keyboard,bicycle,10,0354_lp_dnn_10_bicycle_10_n02835271_20445.png,n02835271_20445.png,0.0,-1.1630887,0.056805477,-0.86259544
alexnet_w1_mlp_simclrhn_probe2,1,355,NaN,keyboard,knife,7,0355_lp_dnn_7_knife_10_n03041632_4708.png,n03041632_4708.png,0.0,-0.18925753,0.3702583,-0.39563745
alexnet_w1_mlp_simclrhn_probe2,1,356,NaN,keyboard,oven,7,0356_lp_dnn_7_oven_10_n04111531_505.png,n04111531_505.png,0.0,-0.98890615,0.5336497,-1.0766096
alexnet_w1_mlp_simclrhn_probe2,1,357,NaN,bicycle,bicycle,1,0357_lp_dnn_1_bicycle_10_n03792782_104.png,n03792782_104.png,1.0,4.478588,-0.8551556,3.7715263
alexnet_w1_mlp_simclrhn_probe2,1,358,NaN,clock,bottle,40,0358_lp_dnn_40_bottle_10_n04591713_5204.png,n04591713_5204.png,0.0,-0.10409272,0.20098145,-0.21572001
alexnet_w1_mlp_simclrhn_probe2,1,359,NaN,keyboard,bicycle,5,0359_lp_dnn_5_bicycle_10_n03792782_5578.png,n03792782_5578.png,0.0,-1.0102973,0.15367436,-0.8230523
alexnet_w1_mlp_simclrhn_probe2,1,360,NaN,keyboard,truck,10,0360_lp_dnn_10_truck_10_n03417042_1437.png,n03417042_1437.png,0.0,-1.1757811,0.13346845,-0.92577934
alexnet_w1_mlp_simclrhn_probe2,1,361,NaN,bear,cat,0,0361_lp_dnn_0_cat_10_n02123045_7482.png,n02123045_7482.png,0.0,-0.32862625,-0.086937815,-0.17089953
alexnet_w1_mlp_simclrhn_probe2,1,362,NaN,keyboard,bird,10,0362_lp_dnn_10_bird_10_n02037110_554.png,n02037110_554.png,0.0,-0.07702182,0.13745166,-0.15165566
alexnet_w1_mlp_simclrhn_probe2,1,363,NaN,bird,bicycle,5,0363_lp_dnn_5_bicycle_10_n03792782_15.png,n03792782_15.png,0.0,-0.55892015,0.11745034,-0.47826618
alexnet_w1_mlp_simclrhn_probe2,1,364,NaN,keyboard,bicycle,5,0364_lp_dnn_5_bicycle_10_n02835271_7450.png,n02835271_7450.png,0.0,-1.1443491,-0.007911257,-0.80358297
alexnet_w1_mlp_simclrhn_probe2,1,365,NaN,keyboard,boat,5,0365_lp_dnn_5_boat_10_n03344393_3881.png,n03344393_3881.png,0.0,-0.7780889,0.087762564,-0.6122495
alexnet_w1_mlp_simclrhn_probe2,1,366,NaN,keyboard,chair,10,0366_lp_dnn_10_chair_10_n04099969_3623.png,n04099969_3623.png,0.0,-0.6973716,0.1994342,-0.6341375
alexnet_w1_mlp_simclrhn_probe2,1,367,NaN,knife,airplane,5,0367_lp_dnn_5_airplane_10_n02690373_2579.png,n02690373_2579.png,0.0,-0.34291786,-0.010909535,-0.23476535
alexnet_w1_mlp_simclrhn_probe2,1,368,NaN,clock,dog,15,0368_lp_dnn_15_dog_10_n02093859_3707.png,n02093859_3707.png,0.0,-0.99591255,-0.02113826,-0.68926954
alexnet_w1_mlp_simclrhn_probe2,1,369,NaN,oven,bottle,1,0369_lp_dnn_1_bottle_10_n04560804_22426.png,n04560804_22426.png,0.0,-1.0767236,0.7158635,-1.2675505
alexnet_w1_mlp_simclrhn_probe2,1,370,NaN,clock,clock,15,0370_lp_dnn_15_clock_10_n03196217_82.png,n03196217_82.png,1.0,0.04099277,-0.05195003,0.06572049
alexnet_w1_mlp_simclrhn_probe2,1,371,NaN,keyboard,car,5,0371_lp_dnn_5_car_10_n03100240_16907.png,n03100240_16907.png,0.0,-0.99363106,0.11279854,-0.7823639
alexnet_w1_mlp_simclrhn_probe2,1,372,NaN,keyboard,oven,5,0372_lp_dnn_5_oven_10_n04111531_9548.png,n04111531_9548.png,0.0,-0.70897204,0.14555143,-0.60423934
alexnet_w1_mlp_simclrhn_probe2,1,373,NaN,keyboard,clock,7,0373_lp_dnn_7_clock_10_n02708093_3751.png,n02708093_3751.png,0.0,-0.15824305,0.11533291,-0.19344743
alexnet_w1_mlp_simclrhn_probe2,1,374,NaN,keyboard,car,7,0374_lp_dnn_7_car_10_n02814533_6593.png,n02814533_6593.png,0.0,-1.0510195,0.3424207,-0.9853111
alexnet_w1_mlp_simclrhn_probe2,1,375,NaN,airplane,airplane,0,0375_lp_dnn_0_airplane_10_n02690373_3212.png,n02690373_3212.png,1.0,9.663344,0.22652975,6.6728354
alexnet_w1_mlp_simclrhn_probe2,1,376,NaN,cat,cat,1,0376_lp_dnn_1_cat_10_n02123045_5820.png,n02123045_5820.png,1.0,-0.41648078,-1.0614704,0.45607653
alexnet_w1_mlp_simclrhn_probe2,1,377,NaN,bottle,elephant,3,0377_lp_dnn_3_elephant_10_n02504458_205.png,n02504458_205.png,0.0,-0.63361466,0.3418239,-0.6897392
alexnet_w1_mlp_simclrhn_probe2,1,378,NaN,keyboard,elephant,10,0378_lp_dnn_10_elephant_10_n02504013_3425.png,n02504013_3425.png,0.0,-0.8055186,0.09201438,-0.63465166
alexnet_w1_mlp_simclrhn_probe2,1,379,NaN,clock,bird,15,0379_lp_dnn_15_bird_10_n02056570_9572.png,n02056570_9572.png,0.0,-0.27958715,0.04728551,-0.23113386
alexnet_w1_mlp_simclrhn_probe2,1,380,NaN,clock,elephant,40,0380_lp_dnn_40_elephant_10_n02504013_7635.png,n02504013_7635.png,0.0,-0.6949073,0.27617005,-0.68665534
alexnet_w1_mlp_simclrhn_probe2,1,381,NaN,keyboard,boat,10,0381_lp_dnn_10_boat_10_n04273569_10716.png,n04273569_10716.png,0.0,-0.76662815,0.056260042,-0.58186984
alexnet_w1_mlp_simclrhn_probe2,1,382,NaN,clock,bear,15,0382_lp_dnn_15_bear_10_n02134084_19849.png,n02134084_19849.png,0.0,-0.6847945,-0.020354643,-0.46982995
alexnet_w1_mlp_simclrhn_probe2,1,383,NaN,clock,boat,40,0383_lp_dnn_40_boat_10_n03662601_35800.png,n03662601_35800.png,0.0,-0.37678656,0.22919679,-0.42849496
alexnet_w1_mlp_simclrhn_probe2,1,384,NaN,clock,bicycle,40,0384_lp_dnn_40_bicycle_10_n03792782_29276.png,n03792782_29276.png,0.0,-0.8977891,0.21498297,-0.7868487
alexnet_w1_mlp_simclrhn_probe2,1,385,NaN,keyboard,oven,10,0385_lp_dnn_10_oven_10_n04111531_4392.png,n04111531_4392.png,0.0,-0.6651789,0.110817,-0.54871196
alexnet_w1_mlp_simclrhn_probe2,1,386,NaN,airplane,airplane,0,0386_lp_dnn_0_airplane_10_n02690373_7099.png,n02690373_7099.png,1.0,11.142169,0.46212378,7.5519323
alexnet_w1_mlp_simclrhn_probe2,1,387,NaN,keyboard,cat,5,0387_lp_dnn_5_cat_10_n02124075_13187.png,n02124075_13187.png,0.0,-0.6120872,-0.010682613,-0.42525724
alexnet_w1_mlp_simclrhn_probe2,1,388,NaN,knife,knife,0,0388_lp_dnn_0_knife_10_n03041632_32048.png,n03041632_32048.png,1.0,-0.82420725,-0.8545828,0.021478752
alexnet_w1_mlp_simclrhn_probe2,1,389,NaN,airplane,airplane,3,0389_lp_dnn_3_airplane_10_n02690373_20074.png,n02690373_20074.png,1.0,0.22505692,-0.240401,0.32912844
alexnet_w1_mlp_simclrhn_probe2,1,390,NaN,truck,car,1,0390_lp_dnn_1_car_10_n02814533_83577.png,n02814533_83577.png,0.0,3.97273,4.3578997,-0.27235615
alexnet_w1_mlp_simclrhn_probe2,1,391,NaN,clock,airplane,40,0391_lp_dnn_40_airplane_10_n02690373_19134.png,n02690373_19134.png,0.0,-0.10547289,0.13634945,-0.17099422
alexnet_w1_mlp_simclrhn_probe2,1,392,NaN,knife,knife,3,0392_lp_dnn_3_knife_10_n03041632_13130.png,n03041632_13130.png,1.0,0.021438027,-0.14512472,0.11777765
alexnet_w1_mlp_simclrhn_probe2,1,393,NaN,knife,knife,0,0393_lp_dnn_0_knife_10_n03041632_1006.png,n03041632_1006.png,1.0,0.3302013,-1.620781,1.3795527
alexnet_w1_mlp_simclrhn_probe2,1,394,NaN,elephant,elephant,1,0394_lp_dnn_1_elephant_10_n02504458_7634.png,n02504458_7634.png,1.0,5.1815157,1.1477834,2.8522797
alexnet_w1_mlp_simclrhn_probe2,1,395,NaN,bicycle,bicycle,1,0395_lp_dnn_1_bicycle_10_n02835271_17184.png,n02835271_17184.png,1.0,8.348145,-1.2832744,6.810442
alexnet_w1_mlp_simclrhn_probe2,1,396,NaN,oven,oven,0,0396_lp_dnn_0_oven_10_n04111531_2189.png,n04111531_2189.png,1.0,0.059215486,0.02876103,0.021534553
alexnet_w1_mlp_simclrhn_probe2,1,397,NaN,clock,cat,15,0397_lp_dnn_15_cat_10_n02124075_11888.png,n02124075_11888.png,0.0,-0.57079154,0.10232129,-0.47596264
alexnet_w1_mlp_simclrhn_probe2,1,398,NaN,keyboard,cat,10,0398_lp_dnn_10_cat_10_n02123394_1690.png,n02123394_1690.png,0.0,-0.35512462,0.09752753,-0.32007343
alexnet_w1_mlp_simclrhn_probe2,1,399,NaN,dog,dog,1,0399_lp_dnn_1_dog_10_n02111500_2905.png,n02111500_2905.png,1.0,1.50557,-2.2949395,2.687366
alexnet_w1_mlp_simclrhn_probe2,1,400,NaN,keyboard,knife,5,0400_lp_dnn_5_knife_10_n03041632_20433.png,n03041632_20433.png,0.0,-0.33378536,0.20055567,-0.37783617
alexnet_w1_mlp_simclrhn_probe2,1,401,NaN,clock,clock,15,0401_lp_dnn_15_clock_10_n04548280_22641.png,n04548280_22641.png,1.0,0.045537025,-0.12306465,0.11921939
alexnet_w1_mlp_simclrhn_probe2,1,402,NaN,clock,bottle,15,0402_lp_dnn_15_bottle_10_n04557648_634.png,n04557648_634.png,0.0,-0.1313513,0.041446943,-0.12218682
alexnet_w1_mlp_simclrhn_probe2,1,403,NaN,truck,truck,1,0403_lp_dnn_1_truck_10_n04467665_69447.png,n04467665_69447.png,1.0,3.150332,2.5047216,0.45651546
alexnet_w1_mlp_simclrhn_probe2,1,404,NaN,elephant,elephant,3,0404_lp_dnn_3_elephant_10_n02504013_1777.png,n02504013_1777.png,1.0,0.9098724,0.21080033,0.4943186
alexnet_w1_mlp_simclrhn_probe2,1,405,NaN,truck,truck,0,0405_lp_dnn_0_truck_10_n03796401_2559.png,n03796401_2559.png,1.0,2.7619681,0.8830328,1.3286079
alexnet_w1_mlp_simclrhn_probe2,1,406,NaN,car,car,1,0406_lp_dnn_1_car_10_n02814533_42547.png,n02814533_42547.png,1.0,7.3612404,5.1587906,1.5573672
alexnet_w1_mlp_simclrhn_probe2,1,407,NaN,clock,clock,15,0407_lp_dnn_15_clock_10_n04548280_7181.png,n04548280_7181.png,1.0,0.06808112,-0.05498439,0.08702046
alexnet_w1_mlp_simclrhn_probe2,1,408,NaN,airplane,boat,1,0408_lp_dnn_1_boat_10_n03344393_5030.png,n03344393_5030.png,0.0,2.321256,2.9172883,-0.42145854
alexnet_w1_mlp_simclrhn_probe2,1,409,NaN,keyboard,bottle,15,0409_lp_dnn_15_bottle_10_n04591713_2952.png,n04591713_2952.png,0.0,-0.14117022,0.045993693,-0.13234487
alexnet_w1_mlp_simclrhn_probe2,1,410,NaN,keyboard,keyboard,5,0410_lp_dnn_5_keyboard_10_n04505470_4742.png,n04505470_4742.png,1.0,0.2890993,0.080272965,0.14766252
alexnet_w1_mlp_simclrhn_probe2,1,411,NaN,keyboard,bear,7,0411_lp_dnn_7_bear_10_n02134418_4696.png,n02134418_4696.png,0.0,-0.61847925,0.16119313,-0.5513116
alexnet_w1_mlp_simclrhn_probe2,1,412,NaN,clock,bear,40,0412_lp_dnn_40_bear_10_n02132136_5815.png,n02132136_5815.png,0.0,-0.6309309,0.23412599,-0.6116876
alexnet_w1_mlp_simclrhn_probe2,1,413,NaN,clock,bicycle,15,0413_lp_dnn_15_bicycle_10_n02835271_8203.png,n02835271_8203.png,0.0,-1.0525717,0.06514879,-0.79034775
alexnet_w1_mlp_simclrhn_probe2,1,414,NaN,clock,car,40,0414_lp_dnn_40_car_10_n04285008_12868.png,n04285008_12868.png,0.0,-0.5533047,0.1593774,-0.5039423
alexnet_w1_mlp_simclrhn_probe2,1,415,NaN,clock,bear,40,0415_lp_dnn_40_bear_10_n02132136_7074.png,n02132136_7074.png,0.0,-0.66046,0.19356976,-0.60389024
alexnet_w1_mlp_simclrhn_probe2,1,416,NaN,airplane,boat,3,0416_lp_dnn_3_boat_10_n03344393_8265.png,n03344393_8265.png,0.0,-0.22073159,0.10956451,-0.23355462
alexnet_w1_mlp_simclrhn_probe2,1,417,NaN,keyboard,truck,10,0417_lp_dnn_10_truck_10_n04467665_12177.png,n04467665_12177.png,0.0,-0.9543966,0.17867684,-0.8012039
alexnet_w1_mlp_simclrhn_probe2,1,418,NaN,car,car,3,0418_lp_dnn_3_car_10_n03100240_8987.png,n03100240_8987.png,1.0,1.041484,0.44944152,0.41863725
alexnet_w1_mlp_simclrhn_probe2,1,419,NaN,clock,bird,15,0419_lp_dnn_15_bird_10_n01530575_10601.png,n01530575_10601.png,0.0,-0.19231018,-0.022547526,-0.12004033
alexnet_w1_mlp_simclrhn_probe2,1,420,NaN,keyboard,keyboard,15,0420_lp_dnn_15_keyboard_10_n04505470_313.png,n04505470_313.png,1.0,0.05612573,0.019518448,0.025885256
alexnet_w1_mlp_simclrhn_probe2,1,421,NaN,truck,truck,1,0421_lp_dnn_1_truck_10_n03417042_5371.png,n03417042_5371.png,1.0,0.2909667,0.06437878,0.16022184
alexnet_w1_mlp_simclrhn_probe2,1,422,NaN,truck,truck,0,0422_lp_dnn_0_truck_10_n03796401_29952.png,n03796401_29952.png,1.0,4.502059,-1.2050173,4.0355124
alexnet_w1_mlp_simclrhn_probe2,1,423,NaN,keyboard,bicycle,5,0423_lp_dnn_5_bicycle_10_n03792782_6159.png,n03792782_6159.png,0.0,-0.8177873,0.093852594,-0.64462674
alexnet_w1_mlp_simclrhn_probe2,1,424,NaN,airplane,elephant,7,0424_lp_dnn_7_elephant_10_n02504458_1336.png,n02504458_1336.png,0.0,-0.37170696,0.1003478,-0.33379313
alexnet_w1_mlp_simclrhn_probe2,1,425,NaN,keyboard,bicycle,10,0425_lp_dnn_10_bicycle_10_n02835271_8597.png,n02835271_8597.png,0.0,-0.6016711,0.11901881,-0.5096047
alexnet_w1_mlp_simclrhn_probe2,1,426,NaN,keyboard,keyboard,3,0426_lp_dnn_3_keyboard_10_n04505470_3615.png,n04505470_3615.png,1.0,1.139065,0.07977337,0.74903226
alexnet_w1_mlp_simclrhn_probe2,1,427,NaN,keyboard,dog,7,0427_lp_dnn_7_dog_10_n02090721_7040.png,n02090721_7040.png,0.0,-0.742827,0.16006589,-0.6384417
alexnet_w1_mlp_simclrhn_probe2,1,428,NaN,cat,cat,0,0428_lp_dnn_0_cat_10_n02124075_17347.png,n02124075_17347.png,1.0,6.053888,-0.87356806,4.8984513
alexnet_w1_mlp_simclrhn_probe2,1,429,NaN,chair,keyboard,0,0429_lp_dnn_0_keyboard_10_n03085013_23018.png,n03085013_23018.png,0.0,0.26972097,0.8560187,-0.41457513
alexnet_w1_mlp_simclrhn_probe2,1,430,NaN,airplane,car,40,0430_lp_dnn_40_car_10_n03100240_5018.png,n03100240_5018.png,0.0,-0.6058839,0.22591978,-0.58817405
alexnet_w1_mlp_simclrhn_probe2,1,431,NaN,clock,dog,40,0431_lp_dnn_40_dog_10_n02105056_12631.png,n02105056_12631.png,0.0,-0.9294458,0.28296116,-0.85730124
alexnet_w1_mlp_simclrhn_probe2,1,432,NaN,clock,knife,15,0432_lp_dnn_15_knife_10_n03041632_27848.png,n03041632_27848.png,0.0,-0.09440443,0.19597007,-0.2053258
alexnet_w1_mlp_simclrhn_probe2,1,433,NaN,keyboard,keyboard,3,0433_lp_dnn_3_keyboard_10_n04505470_4432.png,n04505470_4432.png,1.0,1.9622412,0.08245544,1.3292093
alexnet_w1_mlp_simclrhn_probe2,1,434,NaN,clock,bear,15,0434_lp_dnn_15_bear_10_n02132136_786.png,n02132136_786.png,0.0,-0.7422465,0.07546906,-0.57821226
alexnet_w1_mlp_simclrhn_probe2,1,435,NaN,clock,truck,15,0435_lp_dnn_15_truck_10_n03796401_10519.png,n03796401_10519.png,0.0,-0.96775734,-0.028810332,-0.66393584
alexnet_w1_mlp_simclrhn_probe2,1,436,NaN,keyboard,airplane,5,0436_lp_dnn_5_airplane_10_n02690373_9086.png,n02690373_9086.png,0.0,-0.22982098,0.1657325,-0.27969855
alexnet_w1_mlp_simclrhn_probe2,1,437,NaN,bicycle,boat,0,0437_lp_dnn_0_boat_10_n02951358_512.png,n02951358_512.png,0.0,-0.06358473,2.1549861,-1.5687666
alexnet_w1_mlp_simclrhn_probe2,1,438,NaN,keyboard,bear,10,0438_lp_dnn_10_bear_10_n02132136_10468.png,n02132136_10468.png,0.0,-0.8282357,0.13854729,-0.68361884
alexnet_w1_mlp_simclrhn_probe2,1,439,NaN,keyboard,bear,5,0439_lp_dnn_5_bear_10_n02134084_13175.png,n02134084_13175.png,0.0,-0.59213006,0.17074522,-0.5394343
alexnet_w1_mlp_simclrhn_probe2,1,440,NaN,keyboard,dog,10,0440_lp_dnn_10_dog_10_n02088364_2119.png,n02088364_2119.png,0.0,-0.8417536,0.1536664,-0.7038682
alexnet_w1_mlp_simclrhn_probe2,1,441,NaN,boat,boat,1,0441_lp_dnn_1_boat_10_n04612504_26238.png,n04612504_26238.png,1.0,4.6423583,0.93547344,2.6211634
alexnet_w1_mlp_simclrhn_probe2,1,442,NaN,bear,bear,3,0442_lp_dnn_3_bear_10_n02134084_20142.png,n02134084_20142.png,1.0,-0.29897368,-0.31243432,0.009518107
alexnet_w1_mlp_simclrhn_probe2,1,443,NaN,keyboard,dog,5,0443_lp_dnn_5_dog_10_n02107683_1076.png,n02107683_1076.png,0.0,-1.0498073,0.24284497,-0.9140432
alexnet_w1_mlp_simclrhn_probe2,1,444,NaN,airplane,car,3,0444_lp_dnn_3_car_10_n02814533_35386.png,n02814533_35386.png,0.0,0.26347515,0.33673775,-0.051804483
alexnet_w1_mlp_simclrhn_probe2,1,445,NaN,bottle,bird,3,0445_lp_dnn_3_bird_10_n01531178_15380.png,n01531178_15380.png,0.0,-0.47211072,-0.23924156,-0.16466337
alexnet_w1_mlp_simclrhn_probe2,1,446,NaN,keyboard,bear,7,0446_lp_dnn_7_bear_10_n02134084_17529.png,n02134084_17529.png,0.0,-1.1090753,0.2910579,-0.99004376
alexnet_w1_mlp_simclrhn_probe2,1,447,NaN,airplane,bicycle,10,0447_lp_dnn_10_bicycle_10_n02835271_22623.png,n02835271_22623.png,0.0,-0.7721547,0.058909863,-0.58765143
alexnet_w1_mlp_simclrhn_probe2,1,448,NaN,keyboard,chair,15,0448_lp_dnn_15_chair_10_n02791124_3160.png,n02791124_3160.png,0.0,-0.7870364,0.012637697,-0.56545496
alexnet_w1_mlp_simclrhn_probe2,1,449,NaN,bottle,bottle,0,0449_lp_dnn_0_bottle_10_n02823428_2422.png,n02823428_2422.png,1.0,10.04415,-1.79756,8.373354
alexnet_w1_mlp_simclrhn_probe2,1,450,NaN,keyboard,bear,7,0450_lp_dnn_7_bear_10_n02134084_34902.png,n02134084_34902.png,0.0,-0.78962183,0.054687582,-0.59701693
alexnet_w1_mlp_simclrhn_probe2,1,451,NaN,clock,bicycle,15,0451_lp_dnn_15_bicycle_10_n02835271_3535.png,n02835271_3535.png,0.0,-1.0006334,-0.011248134,-0.69960105
alexnet_w1_mlp_simclrhn_probe2,1,452,NaN,oven,oven,1,0452_lp_dnn_1_oven_10_n04111531_10640.png,n04111531_10640.png,1.0,3.1664414,0.102110386,2.1668093
alexnet_w1_mlp_simclrhn_probe2,1,453,NaN,clock,keyboard,40,0453_lp_dnn_40_keyboard_10_n04505470_1338.png,n04505470_1338.png,0.0,-0.18936482,0.25355387,-0.31319082
alexnet_w1_mlp_simclrhn_probe2,1,454,NaN,chair,keyboard,0,0454_lp_dnn_0_keyboard_10_n03085013_26656.png,n03085013_26656.png,0.0,2.634331,3.2439322,-0.4310532
alexnet_w1_mlp_simclrhn_probe2,1,455,NaN,keyboard,boat,5,0455_lp_dnn_5_boat_10_n03344393_9575.png,n03344393_9575.png,0.0,-0.8719918,0.109278575,-0.693863
alexnet_w1_mlp_simclrhn_probe2,1,456,NaN,boat,boat,1,0456_lp_dnn_1_boat_10_n03344393_4616.png,n03344393_4616.png,1.0,3.4958172,0.633455,2.0239956
alexnet_w1_mlp_simclrhn_probe2,1,457,NaN,bicycle,bicycle,0,0457_lp_dnn_0_bicycle_10_n02835271_11929.png,n02835271_11929.png,1.0,5.901511,-1.7877638,5.4371386
alexnet_w1_mlp_simclrhn_probe2,1,458,NaN,keyboard,keyboard,3,0458_lp_dnn_3_keyboard_10_n03085013_20515.png,n03085013_20515.png,1.0,2.1282907,0.23893267,1.3359779
alexnet_w1_mlp_simclrhn_probe2,1,459,NaN,clock,dog,40,0459_lp_dnn_40_dog_10_n02088364_3791.png,n02088364_3791.png,0.0,-0.8769443,0.2542149,-0.79985034
alexnet_w1_mlp_simclrhn_probe2,1,460,NaN,airplane,airplane,0,0460_lp_dnn_0_airplane_10_n02690373_10114.png,n02690373_10114.png,1.0,12.076189,3.4458797,6.10255
alexnet_w1_mlp_simclrhn_probe2,1,461,NaN,bottle,airplane,10,0461_lp_dnn_10_airplane_10_n02690373_8543.png,n02690373_8543.png,0.0,-0.26978153,0.004271404,-0.1937847
alexnet_w1_mlp_simclrhn_probe2,1,462,NaN,bottle,chair,7,0462_lp_dnn_7_chair_10_n04429376_14967.png,n04429376_14967.png,0.0,-1.0420511,0.43051293,-1.04126
alexnet_w1_mlp_simclrhn_probe2,1,463,NaN,clock,cat,15,0463_lp_dnn_15_cat_10_n02125311_24439.png,n02125311_24439.png,0.0,-0.54851145,0.008629386,-0.39395806
alexnet_w1_mlp_simclrhn_probe2,1,464,NaN,keyboard,truck,5,0464_lp_dnn_5_truck_10_n03417042_4665.png,n03417042_4665.png,0.0,-1.2212266,0.2114007,-1.0130205
alexnet_w1_mlp_simclrhn_probe2,1,465,NaN,airplane,elephant,40,0465_lp_dnn_40_elephant_10_n02504013_4044.png,n02504013_4044.png,0.0,-0.68959546,0.26897293,-0.67781025
alexnet_w1_mlp_simclrhn_probe2,1,466,NaN,bird,bird,1,0466_lp_dnn_1_bird_10_n01843065_3596.png,n01843065_3596.png,1.0,2.6741905,-2.873964,3.923138
alexnet_w1_mlp_simclrhn_probe2,1,467,NaN,keyboard,bird,10,0467_lp_dnn_10_bird_10_n02011460_17499.png,n02011460_17499.png,0.0,-0.048589963,0.08122589,-0.091793664
alexnet_w1_mlp_simclrhn_probe2,1,468,NaN,elephant,elephant,0,0468_lp_dnn_0_elephant_10_n02504458_7506.png,n02504458_7506.png,1.0,5.93353,0.42727464,3.8935103
alexnet_w1_mlp_simclrhn_probe2,1,469,NaN,airplane,keyboard,40,0469_lp_dnn_40_keyboard_10_n03085013_21955.png,n03085013_21955.png,0.0,-0.322585,0.29976538,-0.44006816
alexnet_w1_mlp_simclrhn_probe2,1,470,NaN,clock,clock,40,0470_lp_dnn_40_clock_10_n02708093_7810.png,n02708093_7810.png,1.0,0.24480952,0.20823765,0.025860222
alexnet_w1_mlp_simclrhn_probe2,1,471,NaN,clock,car,40,0471_lp_dnn_40_car_10_n02814533_7984.png,n02814533_7984.png,0.0,-0.6107042,0.17454718,-0.5552566
alexnet_w1_mlp_simclrhn_probe2,1,472,NaN,keyboard,dog,5,0472_lp_dnn_5_dog_10_n02106382_1806.png,n02106382_1806.png,0.0,-0.9314811,-0.053403288,-0.62089485
alexnet_w1_mlp_simclrhn_probe2,1,473,NaN,keyboard,chair,15,0473_lp_dnn_15_chair_10_n02791124_3890.png,n02791124_3890.png,0.0,-0.8874639,0.031327456,-0.64968365
alexnet_w1_mlp_simclrhn_probe2,1,474,NaN,keyboard,elephant,7,0474_lp_dnn_7_elephant_10_n02504013_16929.png,n02504013_16929.png,0.0,-0.883536,0.23513941,-0.79102296
alexnet_w1_mlp_simclrhn_probe2,1,475,NaN,keyboard,elephant,7,0475_lp_dnn_7_elephant_10_n02504013_8052.png,n02504013_8052.png,0.0,-0.6955092,0.20288663,-0.6352618
alexnet_w1_mlp_simclrhn_probe2,1,476,NaN,bear,bear,1,0476_lp_dnn_1_bear_10_n02132136_1584.png,n02132136_1584.png,1.0,1.97597,0.5126148,1.0347484
alexnet_w1_mlp_simclrhn_probe2,1,477,NaN,keyboard,keyboard,1,0477_lp_dnn_1_keyboard_10_n04505470_532.png,n04505470_532.png,1.0,6.0015635,0.1220932,4.1574135
alexnet_w1_mlp_simclrhn_probe2,1,478,NaN,airplane,airplane,1,0478_lp_dnn_1_airplane_10_n02690373_3988.png,n02690373_3988.png,1.0,7.711828,1.9595602,4.0674677
alexnet_w1_mlp_simclrhn_probe2,1,479,NaN,airplane,bicycle,15,0479_lp_dnn_15_bicycle_10_n03792782_13051.png,n03792782_13051.png,0.0,-0.7169685,0.046046376,-0.53953296
alexnet_w1_mlp_simclrhn_probe2,1,480,NaN,bottle,bear,3,0480_lp_dnn_3_bear_10_n02134084_4818.png,n02134084_4818.png,0.0,-0.75640213,-0.44470686,-0.22040185
alexnet_w1_mlp_simclrhn_probe2,1,481,NaN,keyboard,boat,10,0481_lp_dnn_10_boat_10_n02951358_9146.png,n02951358_9146.png,0.0,-0.51558,0.09215627,-0.42973447
alexnet_w1_mlp_simclrhn_probe2,1,482,NaN,clock,keyboard,40,0482_lp_dnn_40_keyboard_10_n03085013_19317.png,n03085013_19317.png,0.0,-0.22860399,0.24391423,-0.33412084
alexnet_w1_mlp_simclrhn_probe2,1,483,NaN,airplane,bicycle,40,0483_lp_dnn_40_bicycle_10_n03792782_17666.png,n03792782_17666.png,0.0,-0.90668905,0.11680174,-0.7237173
alexnet_w1_mlp_simclrhn_probe2,1,484,NaN,clock,bear,40,0484_lp_dnn_40_bear_10_n02133161_20090.png,n02133161_20090.png,0.0,-0.6970378,0.21190506,-0.6427197
alexnet_w1_mlp_simclrhn_probe2,1,485,NaN,keyboard,bottle,3,0485_lp_dnn_3_bottle_10_n03937543_11101.png,n03937543_11101.png,0.0,-0.3295772,-0.11867034,-0.14913368
alexnet_w1_mlp_simclrhn_probe2,1,486,NaN,keyboard,bear,7,0486_lp_dnn_7_bear_10_n02133161_2281.png,n02133161_2281.png,0.0,-0.8287122,0.0069646835,-0.5909128
alexnet_w1_mlp_simclrhn_probe2,1,487,NaN,clock,airplane,10,0487_lp_dnn_10_airplane_10_n02690373_8813.png,n02690373_8813.png,0.0,-0.41101265,0.03319907,-0.31410512
alexnet_w1_mlp_simclrhn_probe2,1,488,NaN,clock,boat,40,0488_lp_dnn_40_boat_10_n03662601_33625.png,n03662601_33625.png,0.0,-0.36855438,0.2161837,-0.41347227
alexnet_w1_mlp_simclrhn_probe2,1,489,NaN,clock,cat,40,0489_lp_dnn_40_cat_10_n02124075_9066.png,n02124075_9066.png,0.0,-0.49108553,0.23897462,-0.5162305
alexnet_w1_mlp_simclrhn_probe2,1,490,NaN,airplane,oven,3,0490_lp_dnn_3_oven_10_n04111531_10216.png,n04111531_10216.png,0.0,-0.051598925,0.011457697,-0.04458776
alexnet_w1_mlp_simclrhn_probe2,1,491,NaN,keyboard,bird,7,0491_lp_dnn_7_bird_10_n01614925_1097.png,n01614925_1097.png,0.0,-0.09607071,0.037421644,-0.09439335
alexnet_w1_mlp_simclrhn_probe2,1,492,NaN,bird,bird,0,0492_lp_dnn_0_bird_10_n02017213_1163.png,n02017213_1163.png,1.0,2.3315322,-1.2021043,2.4986584
alexnet_w1_mlp_simclrhn_probe2,1,493,NaN,clock,oven,40,0493_lp_dnn_40_oven_10_n04111531_283.png,n04111531_283.png,0.0,-0.80525875,0.20169872,-0.71202654
alexnet_w1_mlp_simclrhn_probe2,1,494,NaN,keyboard,truck,15,0494_lp_dnn_15_truck_10_n04467665_39317.png,n04467665_39317.png,0.0,-0.9227401,0.051825665,-0.6891221
alexnet_w1_mlp_simclrhn_probe2,1,495,NaN,dog,dog,1,0495_lp_dnn_1_dog_10_n02093754_5037.png,n02093754_5037.png,1.0,0.7485367,-1.2066262,1.382509
alexnet_w1_mlp_simclrhn_probe2,1,496,NaN,clock,bicycle,40,0496_lp_dnn_40_bicycle_10_n02835271_2580.png,n02835271_2580.png,0.0,-1.0745361,0.2234078,-0.9177849
alexnet_w1_mlp_simclrhn_probe2,1,497,NaN,keyboard,airplane,7,0497_lp_dnn_7_airplane_10_n02690373_2564.png,n02690373_2564.png,0.0,-0.47349212,0.15613842,-0.44521606
alexnet_w1_mlp_simclrhn_probe2,1,498,NaN,clock,truck,40,0498_lp_dnn_40_truck_10_n04467665_62626.png,n04467665_62626.png,0.0,-0.90895534,0.18181223,-0.77128917
alexnet_w1_mlp_simclrhn_probe2,1,499,NaN,keyboard,chair,10,0499_lp_dnn_10_chair_10_n04429376_2450.png,n04429376_2450.png,0.0,-0.718027,0.26157907,-0.6926861
alexnet_w1_mlp_simclrhn_probe2,1,500,NaN,keyboard,keyboard,0,0500_lp_dnn_0_keyboard_10_n04505470_4044.png,n04505470_4044.png,1.0,12.3818,0.34859028,8.508764
alexnet_w1_mlp_simclrhn_probe2,1,501,NaN,keyboard,oven,15,0501_lp_dnn_15_oven_10_n04111531_8269.png,n04111531_8269.png,0.0,-0.75280553,0.19000435,-0.6666673
alexnet_w1_mlp_simclrhn_probe2,1,502,NaN,clock,clock,7,0502_lp_dnn_7_clock_10_n02708093_6890.png,n02708093_6890.png,1.0,0.12903173,0.10150695,0.019462962
alexnet_w1_mlp_simclrhn_probe2,1,503,NaN,clock,oven,40,0503_lp_dnn_40_oven_10_n04111531_15947.png,n04111531_15947.png,0.0,-0.7816985,0.17398043,-0.67576706
alexnet_w1_mlp_simclrhn_probe2,1,504,NaN,airplane,bicycle,15,0504_lp_dnn_15_bicycle_10_n03792782_24734.png,n03792782_24734.png,0.0,-0.7260082,0.026405767,-0.532037
alexnet_w1_mlp_simclrhn_probe2,1,505,NaN,clock,chair,40,0505_lp_dnn_40_chair_10_n04099969_10401.png,n04099969_10401.png,0.0,-0.5747355,0.23790123,-0.57462096
alexnet_w1_mlp_simclrhn_probe2,1,506,NaN,elephant,elephant,3,0506_lp_dnn_3_elephant_10_n02504458_2994.png,n02504458_2994.png,1.0,0.23607412,0.040327445,0.1384138
alexnet_w1_mlp_simclrhn_probe2,1,507,NaN,elephant,dog,0,0507_lp_dnn_0_dog_10_n02108422_1164.png,n02108422_1164.png,0.0,-0.1423114,0.17816415,-0.22661044
alexnet_w1_mlp_simclrhn_probe2,1,508,NaN,keyboard,clock,5,0508_lp_dnn_5_clock_10_n04548280_2421.png,n04548280_2421.png,0.0,0.26895145,0.29740077,-0.020116713
alexnet_w1_mlp_simclrhn_probe2,1,509,NaN,keyboard,oven,5,0509_lp_dnn_5_oven_10_n04111531_2930.png,n04111531_2930.png,0.0,-0.50474393,0.10450181,-0.43080184
alexnet_w1_mlp_simclrhn_probe2,1,510,NaN,bear,bear,1,0510_lp_dnn_1_bear_10_n02132136_4271.png,n02132136_4271.png,1.0,2.8603745,0.69828653,1.5288271
alexnet_w1_mlp_simclrhn_probe2,1,511,NaN,keyboard,oven,7,0511_lp_dnn_7_oven_10_n04111531_8603.png,n04111531_8603.png,0.0,-0.88599616,0.38483757,-0.8986152
alexnet_w1_mlp_simclrhn_probe2,1,512,NaN,clock,bicycle,40,0512_lp_dnn_40_bicycle_10_n02835271_16850.png,n02835271_16850.png,0.0,-0.92949474,0.24885738,-0.8332208
alexnet_w1_mlp_simclrhn_probe2,1,513,NaN,knife,knife,3,0513_lp_dnn_3_knife_10_n03041632_47410.png,n03041632_47410.png,1.0,-0.056782216,-0.27818218,0.15655342
alexnet_w1_mlp_simclrhn_probe2,1,514,NaN,keyboard,elephant,15,0514_lp_dnn_15_elephant_10_n02504458_1000.png,n02504458_1000.png,0.0,-0.5419229,0.048750322,-0.4176691
alexnet_w1_mlp_simclrhn_probe2,1,515,NaN,cat,cat,1,0515_lp_dnn_1_cat_10_n02124075_8884.png,n02124075_8884.png,1.0,1.3256958,-1.959067,2.322678
alexnet_w1_mlp_simclrhn_probe2,1,516,NaN,keyboard,bird,7,0516_lp_dnn_7_bird_10_n01622779_1370.png,n01622779_1370.png,0.0,0.026686544,0.10015001,-0.051946517
alexnet_w1_mlp_simclrhn_probe2,1,517,NaN,cat,cat,0,0517_lp_dnn_0_cat_10_n02123045_8215.png,n02123045_8215.png,1.0,4.4338984,-2.826909,5.1341662
alexnet_w1_mlp_simclrhn_probe2,1,518,NaN,keyboard,car,5,0518_lp_dnn_5_car_10_n03100240_3083.png,n03100240_3083.png,0.0,-1.0033096,0.29873553,-0.92068493
alexnet_w1_mlp_simclrhn_probe2,1,519,NaN,bird,bicycle,3,0519_lp_dnn_3_bicycle_10_n03792782_9280.png,n03792782_9280.png,0.0,-0.49170908,-0.013757452,-0.33796287
alexnet_w1_mlp_simclrhn_probe2,1,520,NaN,bottle,bird,5,0520_lp_dnn_5_bird_10_n01819313_3505.png,n01819313_3505.png,0.0,-0.802888,0.05231857,-0.6047224
alexnet_w1_mlp_simclrhn_probe2,1,521,NaN,airplane,bird,15,0521_lp_dnn_15_bird_10_n01531178_5130.png,n01531178_5130.png,0.0,-0.08510714,0.056747243,-0.10030619
alexnet_w1_mlp_simclrhn_probe2,1,522,NaN,clock,clock,15,0522_lp_dnn_15_clock_10_n02708093_2867.png,n02708093_2867.png,1.0,0.1600937,0.06758047,0.06541673
alexnet_w1_mlp_simclrhn_probe2,1,523,NaN,keyboard,bear,7,0523_lp_dnn_7_bear_10_n02134418_258.png,n02134418_258.png,0.0,-1.5360423,0.48924285,-1.4320929
alexnet_w1_mlp_simclrhn_probe2,1,524,NaN,keyboard,bottle,1,0524_lp_dnn_1_bottle_10_n02823428_8280.png,n02823428_8280.png,0.0,0.08439733,1.4220662,-0.94587475
alexnet_w1_mlp_simclrhn_probe2,1,525,NaN,keyboard,elephant,7,0525_lp_dnn_7_elephant_10_n02504013_24811.png,n02504013_24811.png,0.0,-0.9250517,0.16869816,-0.773398
alexnet_w1_mlp_simclrhn_probe2,1,526,NaN,airplane,bicycle,40,0526_lp_dnn_40_bicycle_10_n02835271_14499.png,n02835271_14499.png,0.0,-0.8325161,0.24767262,-0.7638088
alexnet_w1_mlp_simclrhn_probe2,1,527,NaN,bottle,bottle,0,0527_lp_dnn_0_bottle_10_n02823428_14536.png,n02823428_14536.png,1.0,5.122209,3.2793977,1.3030645
alexnet_w1_mlp_simclrhn_probe2,1,528,NaN,keyboard,knife,5,0528_lp_dnn_5_knife_10_n03041632_21723.png,n03041632_21723.png,0.0,-0.3763078,0.2465606,-0.4404345
alexnet_w1_mlp_simclrhn_probe2,1,529,NaN,clock,cat,10,0529_lp_dnn_10_cat_10_n02123159_8396.png,n02123159_8396.png,0.0,-0.7645958,0.03407288,-0.56474406
alexnet_w1_mlp_simclrhn_probe2,1,530,NaN,clock,bottle,40,0530_lp_dnn_40_bottle_10_n02823428_3486.png,n02823428_3486.png,0.0,-0.13177276,0.16526347,-0.21003634
alexnet_w1_mlp_simclrhn_probe2,1,531,NaN,bird,bird,0,0531_lp_dnn_0_bird_10_n01514859_12705.png,n01514859_12705.png,1.0,0.84877926,-0.34703982,0.8455718
alexnet_w1_mlp_simclrhn_probe2,1,532,NaN,keyboard,dog,7,0532_lp_dnn_7_dog_10_n02097047_911.png,n02097047_911.png,0.0,-0.77390176,0.180794,-0.67507184
alexnet_w1_mlp_simclrhn_probe2,1,533,NaN,keyboard,keyboard,10,0533_lp_dnn_10_keyboard_10_n04505470_3132.png,n04505470_3132.png,1.0,0.1911654,0.118355475,0.051484395
alexnet_w1_mlp_simclrhn_probe2,1,534,NaN,airplane,airplane,1,0534_lp_dnn_1_airplane_10_n02690373_11908.png,n02690373_11908.png,1.0,2.3599432,0.12411607,1.5809684
alexnet_w1_mlp_simclrhn_probe2,1,535,NaN,clock,elephant,40,0535_lp_dnn_40_elephant_10_n02504458_5169.png,n02504458_5169.png,0.0,-0.76295525,0.14383323,-0.6411963
alexnet_w1_mlp_simclrhn_probe2,1,536,NaN,clock,bottle,15,0536_lp_dnn_15_bottle_10_n03937543_5375.png,n03937543_5375.png,0.0,-0.03635214,0.100038804,-0.09644296
alexnet_w1_mlp_simclrhn_probe2,1,537,NaN,oven,bottle,1,0537_lp_dnn_1_bottle_10_n04591713_6138.png,n04591713_6138.png,0.0,-1.1498045,-0.2859595,-0.61083066
alexnet_w1_mlp_simclrhn_probe2,1,538,NaN,airplane,bottle,15,0538_lp_dnn_15_bottle_10_n04557648_12559.png,n04557648_12559.png,0.0,-0.13068902,0.13011713,-0.1844178
alexnet_w1_mlp_simclrhn_probe2,1,539,NaN,clock,clock,40,0539_lp_dnn_40_clock_10_n03196217_3903.png,n03196217_3903.png,1.0,0.29169777,0.20076871,0.06429656
alexnet_w1_mlp_simclrhn_probe2,1,540,NaN,keyboard,keyboard,15,0540_lp_dnn_15_keyboard_10_n04505470_4732.png,n04505470_4732.png,1.0,0.0028767213,-0.014687337,0.012419665
alexnet_w1_mlp_simclrhn_probe2,1,541,NaN,clock,knife,40,0541_lp_dnn_40_knife_10_n03041632_8468.png,n03041632_8468.png,0.0,-0.0027121678,0.17064671,-0.12258325
alexnet_w1_mlp_simclrhn_probe2,1,542,NaN,bottle,chair,3,0542_lp_dnn_3_chair_10_n02791124_14040.png,n02791124_14040.png,0.0,-0.39711377,0.30645537,-0.49749854
alexnet_w1_mlp_simclrhn_probe2,1,543,NaN,airplane,boat,15,0543_lp_dnn_15_boat_10_n04273569_3095.png,n04273569_3095.png,0.0,-0.3112962,0.2487915,-0.3960418
alexnet_w1_mlp_simclrhn_probe2,1,544,NaN,bird,bird,1,0544_lp_dnn_1_bird_10_n02002724_18548.png,n02002724_18548.png,1.0,2.3803115,-1.6251796,2.83231
alexnet_w1_mlp_simclrhn_probe2,1,545,NaN,airplane,oven,10,0545_lp_dnn_10_oven_10_n04111531_8537.png,n04111531_8537.png,0.0,-0.6065787,0.15584517,-0.5391151
alexnet_w1_mlp_simclrhn_probe2,1,546,NaN,clock,chair,40,0546_lp_dnn_40_chair_10_n02791124_1935.png,n02791124_1935.png,0.0,-0.5961687,0.19093855,-0.55656886
alexnet_w1_mlp_simclrhn_probe2,1,547,NaN,keyboard,dog,5,0547_lp_dnn_5_dog_10_n02102040_1660.png,n02102040_1660.png,0.0,-1.0593702,0.022675626,-0.76512194
alexnet_w1_mlp_simclrhn_probe2,1,548,NaN,elephant,bear,0,0548_lp_dnn_0_bear_10_n02134084_7790.png,n02134084_7790.png,0.0,0.95219266,1.7476856,-0.56249845
alexnet_w1_mlp_simclrhn_probe2,1,549,NaN,keyboard,knife,10,0549_lp_dnn_10_knife_10_n03041632_17091.png,n03041632_17091.png,0.0,-0.19521454,0.23170342,-0.3018766
alexnet_w1_mlp_simclrhn_probe2,1,550,NaN,bottle,keyboard,5,0550_lp_dnn_5_keyboard_10_n04505470_9331.png,n04505470_9331.png,0.0,0.21916515,0.3345147,-0.081564456
alexnet_w1_mlp_simclrhn_probe2,1,551,NaN,keyboard,airplane,5,0551_lp_dnn_5_airplane_10_n02690373_6887.png,n02690373_6887.png,0.0,-0.32514206,0.0675202,-0.27765414
alexnet_w1_mlp_simclrhn_probe2,1,552,NaN,oven,chair,1,0552_lp_dnn_1_chair_10_n02791124_2540.png,n02791124_2540.png,0.0,0.30290407,1.2102759,-0.6416088
alexnet_w1_mlp_simclrhn_probe2,1,553,NaN,airplane,truck,3,0553_lp_dnn_3_truck_10_n03796401_23774.png,n03796401_23774.png,0.0,-0.26049376,0.28717995,-0.3872638
alexnet_w1_mlp_simclrhn_probe2,1,554,NaN,clock,knife,40,0554_lp_dnn_40_knife_10_n03041632_28201.png,n03041632_28201.png,0.0,0.052518237,0.146715,-0.06660718
alexnet_w1_mlp_simclrhn_probe2,1,555,NaN,bottle,clock,5,0555_lp_dnn_5_clock_10_n04548280_3563.png,n04548280_3563.png,0.0,0.049933475,0.27261686,-0.15746093
alexnet_w1_mlp_simclrhn_probe2,1,556,NaN,bicycle,bicycle,0,0556_lp_dnn_0_bicycle_10_n03792782_8287.png,n03792782_8287.png,1.0,9.230935,-2.4654436,8.270589
alexnet_w1_mlp_simclrhn_probe2,1,557,NaN,clock,clock,3,0557_lp_dnn_3_clock_10_n04548280_4225.png,n04548280_4225.png,1.0,0.5687299,0.27995136,0.20419724
alexnet_w1_mlp_simclrhn_probe2,1,558,NaN,car,car,0,0558_lp_dnn_0_car_10_n04285008_11931.png,n04285008_11931.png,1.0,12.61839,5.6825533,4.9043775
alexnet_w1_mlp_simclrhn_probe2,1,559,NaN,keyboard,elephant,5,0559_lp_dnn_5_elephant_10_n02504013_9396.png,n02504013_9396.png,0.0,-0.6712712,0.24659368,-0.64902854
alexnet_w1_mlp_simclrhn_probe2,1,560,NaN,clock,boat,40,0560_lp_dnn_40_boat_10_n03344393_2915.png,n03344393_2915.png,0.0,-0.32357845,0.2055924,-0.37418032
alexnet_w1_mlp_simclrhn_probe2,1,561,NaN,keyboard,bicycle,7,0561_lp_dnn_7_bicycle_10_n03792782_9692.png,n03792782_9692.png,0.0,-1.0866683,0.27569073,-0.9633333
alexnet_w1_mlp_simclrhn_probe2,1,562,NaN,keyboard,chair,7,0562_lp_dnn_7_chair_10_n02791124_57.png,n02791124_57.png,0.0,-0.9359519,0.48665544,-1.0059353
alexnet_w1_mlp_simclrhn_probe2,1,563,NaN,airplane,car,40,0563_lp_dnn_40_car_10_n04285008_3185.png,n04285008_3185.png,0.0,-0.77263445,0.14963156,-0.65214056
alexnet_w1_mlp_simclrhn_probe2,1,564,NaN,boat,boat,1,0564_lp_dnn_1_boat_10_n02951358_34917.png,n02951358_34917.png,1.0,2.4686189,0.20053078,1.6037805
alexnet_w1_mlp_simclrhn_probe2,1,565,NaN,clock,clock,0,0565_lp_dnn_0_clock_10_n02708093_2762.png,n02708093_2762.png,1.0,7.875483,0.054806948,5.530053
alexnet_w1_mlp_simclrhn_probe2,1,566,NaN,knife,knife,5,0566_lp_dnn_5_knife_10_n03041632_4879.png,n03041632_4879.png,1.0,0.08066532,0.034614526,0.03256283
alexnet_w1_mlp_simclrhn_probe2,1,567,NaN,car,car,0,0567_lp_dnn_0_car_10_n02814533_4689.png,n02814533_4689.png,1.0,9.222535,6.7551675,1.7446924
alexnet_w1_mlp_simclrhn_probe2,1,568,NaN,boat,boat,1,0568_lp_dnn_1_boat_10_n02951358_2445.png,n02951358_2445.png,1.0,2.3697822,-0.8609836,2.2844965
alexnet_w1_mlp_simclrhn_probe2,1,569,NaN,clock,truck,40,0569_lp_dnn_40_truck_10_n03417042_10038.png,n03417042_10038.png,0.0,-0.8397962,0.22219078,-0.7509382
alexnet_w1_mlp_simclrhn_probe2,1,570,NaN,keyboard,car,10,0570_lp_dnn_10_car_10_n02814533_32924.png,n02814533_32924.png,0.0,-0.5376963,0.18890774,-0.5137867
alexnet_w1_mlp_simclrhn_probe2,1,571,NaN,keyboard,bottle,10,0571_lp_dnn_10_bottle_10_n02823428_5135.png,n02823428_5135.png,0.0,-0.01997578,0.013266385,-0.023505762
alexnet_w1_mlp_simclrhn_probe2,1,572,NaN,oven,keyboard,1,0572_lp_dnn_1_keyboard_10_n03085013_9066.png,n03085013_9066.png,0.0,1.1684157,1.2220383,-0.037916906
alexnet_w1_mlp_simclrhn_probe2,1,573,NaN,keyboard,oven,10,0573_lp_dnn_10_oven_10_n04111531_11279.png,n04111531_11279.png,0.0,-0.7857386,0.13938041,-0.65415794
alexnet_w1_mlp_simclrhn_probe2,1,574,NaN,keyboard,car,10,0574_lp_dnn_10_car_10_n04285008_12182.png,n04285008_12182.png,0.0,-0.6534957,0.18471466,-0.5927043
alexnet_w1_mlp_simclrhn_probe2,1,575,NaN,bear,bear,0,0575_lp_dnn_0_bear_10_n02133161_5681.png,n02133161_5681.png,1.0,1.5164857,-0.90814865,1.7144755
alexnet_w1_mlp_simclrhn_probe2,1,576,NaN,keyboard,dog,5,0576_lp_dnn_5_dog_10_n02108915_5514.png,n02108915_5514.png,0.0,-0.9986278,-0.030587718,-0.68450767
alexnet_w1_mlp_simclrhn_probe2,1,577,NaN,keyboard,airplane,15,0577_lp_dnn_15_airplane_10_n02690373_7239.png,n02690373_7239.png,0.0,-0.040872112,-0.02602069,-0.010501541
alexnet_w1_mlp_simclrhn_probe2,1,578,NaN,dog,dog,0,0578_lp_dnn_0_dog_10_n02094258_4979.png,n02094258_4979.png,1.0,2.2500339,-2.2652724,3.1928039
alexnet_w1_mlp_simclrhn_probe2,1,579,NaN,oven,chair,3,0579_lp_dnn_3_chair_10_n04429376_15078.png,n04429376_15078.png,0.0,-0.14636065,0.49679706,-0.4547812
alexnet_w1_mlp_simclrhn_probe2,1,580,NaN,clock,clock,40,0580_lp_dnn_40_clock_10_n02708093_8276.png,n02708093_8276.png,1.0,0.26358858,0.1069403,0.11076706
alexnet_w1_mlp_simclrhn_probe2,1,581,NaN,keyboard,keyboard,3,0581_lp_dnn_3_keyboard_10_n04505470_3947.png,n04505470_3947.png,1.0,1.7601149,0.3609246,0.98937696
alexnet_w1_mlp_simclrhn_probe2,1,582,NaN,clock,car,15,0582_lp_dnn_15_car_10_n03100240_2996.png,n03100240_2996.png,0.0,-0.87695867,0.008907497,-0.62640196
alexnet_w1_mlp_simclrhn_probe2,1,583,NaN,keyboard,cat,10,0583_lp_dnn_10_cat_10_n02123159_3226.png,n02123159_3226.png,0.0,-0.70558745,0.14663814,-0.6026145
alexnet_w1_mlp_simclrhn_probe2,1,584,NaN,keyboard,truck,7,0584_lp_dnn_7_truck_10_n03417042_19905.png,n03417042_19905.png,0.0,-1.2235006,0.07504432,-0.9182099
alexnet_w1_mlp_simclrhn_probe2,1,585,NaN,bird,bird,0,0585_lp_dnn_0_bird_10_n02009229_4838.png,n02009229_4838.png,1.0,0.52945256,-0.15479092,0.48383322
alexnet_w1_mlp_simclrhn_probe2,1,586,NaN,oven,oven,1,0586_lp_dnn_1_oven_10_n04111531_14383.png,n04111531_14383.png,1.0,1.5793761,0.7078185,0.6162843
alexnet_w1_mlp_simclrhn_probe2,1,587,NaN,keyboard,bear,5,0587_lp_dnn_5_bear_10_n02132136_1152.png,n02132136_1152.png,0.0,-0.3751549,0.06650516,-0.31230083
alexnet_w1_mlp_simclrhn_probe2,1,588,NaN,cat,cat,0,0588_lp_dnn_0_cat_10_n02123597_10952.png,n02123597_10952.png,1.0,0.10211883,-1.094273,0.84597677
alexnet_w1_mlp_simclrhn_probe2,1,589,NaN,boat,boat,0,0589_lp_dnn_0_boat_10_n04273569_12318.png,n04273569_12318.png,1.0,5.877446,3.7854147,1.4792897
alexnet_w1_mlp_simclrhn_probe2,1,590,NaN,clock,bottle,40,0590_lp_dnn_40_bottle_10_n03937543_1391.png,n03937543_1391.png,0.0,-0.21260552,0.14669795,-0.25406593
alexnet_w1_mlp_simclrhn_probe2,1,591,NaN,keyboard,dog,10,0591_lp_dnn_10_dog_10_n02091032_9464.png,n02091032_9464.png,0.0,-0.65558195,0.044801086,-0.49524564
alexnet_w1_mlp_simclrhn_probe2,1,592,NaN,keyboard,oven,7,0592_lp_dnn_7_oven_10_n04111531_5218.png,n04111531_5218.png,0.0,-0.86642694,0.518549,-0.9793259
alexnet_w1_mlp_simclrhn_probe2,1,593,NaN,keyboard,airplane,5,0593_lp_dnn_5_airplane_10_n02690373_9423.png,n02690373_9423.png,0.0,-0.54485476,0.4752922,-0.7213529
alexnet_w1_mlp_simclrhn_probe2,1,594,NaN,bird,bird,1,0594_lp_dnn_1_bird_10_n01860187_348.png,n01860187_348.png,1.0,0.762176,-0.16386473,0.65480965
alexnet_w1_mlp_simclrhn_probe2,1,595,NaN,clock,bird,40,0595_lp_dnn_40_bird_10_n02006656_8975.png,n02006656_8975.png,0.0,-0.34404284,0.19548626,-0.38150468
alexnet_w1_mlp_simclrhn_probe2,1,596,NaN,keyboard,oven,10,0596_lp_dnn_10_oven_10_n04111531_7619.png,n04111531_7619.png,0.0,-0.86607,0.33329836,-0.8480815
alexnet_w1_mlp_simclrhn_probe2,1,597,NaN,airplane,bicycle,3,0597_lp_dnn_3_bicycle_10_n02835271_9202.png,n02835271_9202.png,0.0,-0.51125073,0.024840191,-0.37907353
alexnet_w1_mlp_simclrhn_probe2,1,598,NaN,clock,boat,10,0598_lp_dnn_10_boat_10_n03344393_7826.png,n03344393_7826.png,0.0,-1.0036366,0.08450074,-0.7694293
alexnet_w1_mlp_simclrhn_probe2,1,599,NaN,elephant,elephant,3,0599_lp_dnn_3_elephant_10_n02504013_10330.png,n02504013_10330.png,1.0,0.7997216,-0.12243077,0.6520602
alexnet_w1_mlp_simclrhn_probe2,1,600,NaN,keyboard,truck,10,0600_lp_dnn_10_truck_10_n04467665_69202.png,n04467665_69202.png,0.0,-1.2837666,0.15284532,-1.015838
alexnet_w1_mlp_simclrhn_probe2,1,601,NaN,keyboard,keyboard,7,0601_lp_dnn_7_keyboard_10_n04505470_1120.png,n04505470_1120.png,1.0,0.6266363,0.287546,0.23977306
alexnet_w1_mlp_simclrhn_probe2,1,602,NaN,keyboard,car,5,0602_lp_dnn_5_car_10_n04285008_434.png,n04285008_434.png,0.0,-1.063652,0.12312241,-0.8391763
alexnet_w1_mlp_simclrhn_probe2,1,603,NaN,bear,cat,1,0603_lp_dnn_1_cat_10_n02123597_7592.png,n02123597_7592.png,0.0,-1.0830281,-0.7300528,-0.2495912
alexnet_w1_mlp_simclrhn_probe2,1,604,NaN,clock,dog,15,0604_lp_dnn_15_dog_10_n02090721_583.png,n02090721_583.png,0.0,-1.0380021,-0.0037731603,-0.7313103
alexnet_w1_mlp_simclrhn_probe2,1,605,NaN,oven,knife,1,0605_lp_dnn_1_knife_10_n03041632_86783.png,n03041632_86783.png,0.0,-0.37999612,0.53949225,-0.65017647
alexnet_w1_mlp_simclrhn_probe2,1,606,NaN,keyboard,dog,10,0606_lp_dnn_10_dog_10_n02112018_11708.png,n02112018_11708.png,0.0,-1.042217,0.11127413,-0.8156414
alexnet_w1_mlp_simclrhn_probe2,1,607,NaN,elephant,bird,0,0607_lp_dnn_0_bird_10_n02018795_5662.png,n02018795_5662.png,0.0,-1.4683793,1.0379226,-1.7722231
alexnet_w1_mlp_simclrhn_probe2,1,608,NaN,airplane,elephant,5,0608_lp_dnn_5_elephant_10_n02504013_1088.png,n02504013_1088.png,0.0,-0.24171945,0.121687256,-0.25696737
alexnet_w1_mlp_simclrhn_probe2,1,609,NaN,keyboard,elephant,5,0609_lp_dnn_5_elephant_10_n02504458_66.png,n02504458_66.png,0.0,-0.7444551,0.22983089,-0.6889242
alexnet_w1_mlp_simclrhn_probe2,1,610,NaN,bottle,dog,10,0610_lp_dnn_10_dog_10_n02105056_9099.png,n02105056_9099.png,0.0,-1.1629831,0.13383973,-0.9169922
alexnet_w1_mlp_simclrhn_probe2,1,611,NaN,keyboard,boat,10,0611_lp_dnn_10_boat_10_n04273569_19699.png,n04273569_19699.png,0.0,-0.77848417,0.2255788,-0.7099798
alexnet_w1_mlp_simclrhn_probe2,1,612,NaN,dog,dog,1,0612_lp_dnn_1_dog_10_n02097047_2376.png,n02097047_2376.png,1.0,3.2708068,0.7351888,1.7929528
alexnet_w1_mlp_simclrhn_probe2,1,613,NaN,boat,boat,1,0613_lp_dnn_1_boat_10_n03662601_11901.png,n03662601_11901.png,1.0,2.1787927,0.10393802,1.4671438
alexnet_w1_mlp_simclrhn_probe2,1,614,NaN,oven,oven,1,0614_lp_dnn_1_oven_10_n04111531_7667.png,n04111531_7667.png,1.0,0.6835676,0.10461367,0.40938225
alexnet_w1_mlp_simclrhn_probe2,1,615,NaN,keyboard,knife,10,0615_lp_dnn_10_knife_10_n03041632_24384.png,n03041632_24384.png,0.0,-0.17274733,0.06855564,-0.17062697
alexnet_w1_mlp_simclrhn_probe2,1,616,NaN,keyboard,car,7,0616_lp_dnn_7_car_10_n03100240_1216.png,n03100240_1216.png,0.0,-0.6421016,0.21435739,-0.6056079
alexnet_w1_mlp_simclrhn_probe2,1,617,NaN,bicycle,bicycle,0,0617_lp_dnn_0_bicycle_10_n03792782_3136.png,n03792782_3136.png,1.0,0.4324345,-0.9602669,0.9847886
alexnet_w1_mlp_simclrhn_probe2,1,618,NaN,keyboard,keyboard,5,0618_lp_dnn_5_keyboard_10_n03085013_26573.png,n03085013_26573.png,1.0,0.27528673,-0.02036434,0.20905688
alexnet_w1_mlp_simclrhn_probe2,1,619,NaN,clock,chair,0,0619_lp_dnn_0_chair_10_n04429376_7888.png,n04429376_7888.png,0.0,-0.1736232,1.0340662,-0.8539654
alexnet_w1_mlp_simclrhn_probe2,1,620,NaN,keyboard,chair,5,0620_lp_dnn_5_chair_10_n03376595_899.png,n03376595_899.png,0.0,-1.0281707,0.13058387,-0.81936324
alexnet_w1_mlp_simclrhn_probe2,1,621,NaN,keyboard,bicycle,5,0621_lp_dnn_5_bicycle_10_n02835271_24207.png,n02835271_24207.png,0.0,-1.1575916,0.32242116,-1.046527
alexnet_w1_mlp_simclrhn_probe2,1,622,NaN,oven,oven,3,0622_lp_dnn_3_oven_10_n04111531_7329.png,n04111531_7329.png,1.0,0.7407823,0.46049014,0.1981965
alexnet_w1_mlp_simclrhn_probe2,1,623,NaN,keyboard,oven,5,0623_lp_dnn_5_oven_10_n04111531_12942.png,n04111531_12942.png,0.0,-0.66675055,0.23233384,-0.6357487
alexnet_w1_mlp_simclrhn_probe2,1,624,NaN,clock,bear,15,0624_lp_dnn_15_bear_10_n02134418_1978.png,n02134418_1978.png,0.0,-0.79280055,0.07701775,-0.6150544
alexnet_w1_mlp_simclrhn_probe2,1,625,NaN,clock,cat,40,0625_lp_dnn_40_cat_10_n02123159_5872.png,n02123159_5872.png,0.0,-0.44665852,0.19575845,-0.4542574
alexnet_w1_mlp_simclrhn_probe2,1,626,NaN,clock,keyboard,15,0626_lp_dnn_15_keyboard_10_n03085013_18797.png,n03085013_18797.png,0.0,-0.07498714,0.1138375,-0.1335192
alexnet_w1_mlp_simclrhn_probe2,1,627,NaN,airplane,airplane,15,0627_lp_dnn_15_airplane_10_n02690373_5496.png,n02690373_5496.png,1.0,0.07295208,0.03164973,0.02920517
alexnet_w1_mlp_simclrhn_probe2,1,628,NaN,clock,oven,15,0628_lp_dnn_15_oven_10_n04111531_21963.png,n04111531_21963.png,0.0,-0.87134206,0.09043023,-0.68007576
alexnet_w1_mlp_simclrhn_probe2,1,629,NaN,bottle,bottle,0,0629_lp_dnn_0_bottle_10_n02823428_2918.png,n02823428_2918.png,1.0,8.781213,-1.6536665,7.378574
alexnet_w1_mlp_simclrhn_probe2,1,630,NaN,keyboard,keyboard,10,0630_lp_dnn_10_keyboard_10_n04505470_9570.png,n04505470_9570.png,1.0,0.1841336,0.028456304,0.11008048
alexnet_w1_mlp_simclrhn_probe2,1,631,NaN,bird,bird,1,0631_lp_dnn_1_bird_10_n02002556_5977.png,n02002556_5977.png,1.0,1.6543136,-1.8573816,2.4831436
alexnet_w1_mlp_simclrhn_probe2,1,632,NaN,clock,airplane,40,0632_lp_dnn_40_airplane_10_n02690373_5961.png,n02690373_5961.png,0.0,-0.006388575,0.11868775,-0.08844232
alexnet_w1_mlp_simclrhn_probe2,1,633,NaN,clock,clock,3,0633_lp_dnn_3_clock_10_n04548280_5765.png,n04548280_5765.png,1.0,0.111376345,0.10078734,0.0074875564
alexnet_w1_mlp_simclrhn_probe2,1,634,NaN,clock,cat,15,0634_lp_dnn_15_cat_10_n02123597_11940.png,n02123597_11940.png,0.0,-0.48396578,0.052191705,-0.3791206
alexnet_w1_mlp_simclrhn_probe2,1,635,NaN,airplane,airplane,3,0635_lp_dnn_3_airplane_10_n02690373_3993.png,n02690373_3993.png,1.0,0.48979682,0.1438418,0.24462715
