subj,session,trial,rt,object_response,category,condition,imagename,filename,is_correct,targ_act,max_nontarg_act,decision_margin
vit_b_16,1,1,NaN,knife,chair,40,0001_lp_dnn_40_chair_10_n04099969_7577.png,n04099969_7577.png,0.0,0.4199399,5.365277,-3.4968812
vit_b_16,1,2,NaN,knife,cat,40,0002_lp_dnn_40_cat_10_n02124075_12815.png,n02124075_12815.png,0.0,-0.5841501,4.1896434,-3.3755815
vit_b_16,1,3,NaN,knife,truck,5,0003_lp_dnn_5_truck_10_n04467665_34253.png,n04467665_34253.png,0.0,0.49334827,2.1640368,-1.1813552
vit_b_16,1,4,NaN,clock,clock,1,0004_lp_dnn_1_clock_10_n04548280_5320.png,n04548280_5320.png,1.0,4.5527987,0.6852645,2.7347596
vit_b_16,1,5,NaN,knife,dog,3,0005_lp_dnn_3_dog_10_n02108915_3652.png,n02108915_3652.png,0.0,0.110009424,1.9957306,-1.3334063
vit_b_16,1,6,NaN,keyboard,keyboard,7,0006_lp_dnn_7_keyboard_10_n04505470_578.png,n04505470_578.png,1.0,5.6830654,0.71330047,3.5141544
vit_b_16,1,7,NaN,cat,cat,7,0007_lp_dnn_7_cat_10_n02123597_3842.png,n02123597_3842.png,1.0,3.8588877,1.6613636,1.5538841
vit_b_16,1,8,NaN,bear,bear,1,0008_lp_dnn_1_bear_10_n02134418_14.png,n02134418_14.png,1.0,3.0898628,0.22698851,2.0243578
vit_b_16,1,9,NaN,knife,knife,10,0009_lp_dnn_10_knife_10_n03041632_29920.png,n03041632_29920.png,1.0,3.743968,1.9310875,1.2819002
vit_b_16,1,10,NaN,airplane,bird,5,0010_lp_dnn_5_bird_10_n01795545_952.png,n01795545_952.png,0.0,0.08505364,1.6565039,-1.1111832
vit_b_16,1,11,NaN,elephant,bear,3,0011_lp_dnn_3_bear_10_n02132136_6441.png,n02132136_6441.png,0.0,3.637799,5.9434166,-1.6303178
vit_b_16,1,12,NaN,elephant,bird,3,0012_lp_dnn_3_bird_10_n01829413_8792.png,n01829413_8792.png,0.0,-0.11436018,1.4939296,-1.1372327
vit_b_16,1,13,NaN,keyboard,keyboard,7,0013_lp_dnn_7_keyboard_10_n04505470_4458.png,n04505470_4458.png,1.0,6.1970077,0.6647955,3.9118648
vit_b_16,1,14,NaN,knife,chair,10,0014_lp_dnn_10_chair_10_n03376595_9176.png,n03376595_9176.png,0.0,-0.545079,3.0358102,-2.532071
vit_b_16,1,15,NaN,knife,clock,40,0015_lp_dnn_40_clock_10_n04548280_7662.png,n04548280_7662.png,0.0,2.654186,4.020104,-0.9658498
vit_b_16,1,16,NaN,knife,keyboard,40,0016_lp_dnn_40_keyboard_10_n03085013_25809.png,n03085013_25809.png,0.0,0.79497564,5.5689287,-3.3756945
vit_b_16,1,17,NaN,oven,oven,5,0017_lp_dnn_5_oven_10_n04111531_1580.png,n04111531_1580.png,1.0,6.264696,1.5404472,3.3405485
vit_b_16,1,18,NaN,elephant,elephant,1,0018_lp_dnn_1_elephant_10_n02504458_900.png,n02504458_900.png,1.0,6.4571123,0.2957661,4.35673
vit_b_16,1,19,NaN,knife,dog,7,0019_lp_dnn_7_dog_10_n02106662_2384.png,n02106662_2384.png,0.0,0.5482215,2.4240038,-1.3263783
vit_b_16,1,20,NaN,knife,truck,10,0020_lp_dnn_10_truck_10_n03796401_22618.png,n03796401_22618.png,0.0,-0.07263118,3.5714726,-2.5767705
vit_b_16,1,21,NaN,knife,elephant,15,0021_lp_dnn_15_elephant_10_n02504013_5463.png,n02504013_5463.png,0.0,-0.14066374,2.4731965,-1.8482783
vit_b_16,1,22,NaN,knife,chair,10,0022_lp_dnn_10_chair_10_n04429376_16459.png,n04429376_16459.png,0.0,-0.06402685,3.8539665,-2.7704396
vit_b_16,1,23,NaN,cat,cat,1,0023_lp_dnn_1_cat_10_n02123045_12206.png,n02123045_12206.png,1.0,4.619451,0.6042971,2.8391426
vit_b_16,1,24,NaN,knife,truck,7,0024_lp_dnn_7_truck_10_n03417042_2633.png,n03417042_2633.png,0.0,-0.48496708,4.02263,-3.1873527
vit_b_16,1,25,NaN,knife,keyboard,15,0025_lp_dnn_15_keyboard_10_n03085013_24416.png,n03085013_24416.png,0.0,2.6404343,6.4348607,-2.6830647
vit_b_16,1,26,NaN,knife,car,7,0026_lp_dnn_7_car_10_n02814533_44503.png,n02814533_44503.png,0.0,0.72002023,2.294895,-1.1136045
vit_b_16,1,27,NaN,elephant,elephant,5,0027_lp_dnn_5_elephant_10_n02504458_5797.png,n02504458_5797.png,1.0,2.4202778,1.6218122,0.56460047
vit_b_16,1,28,NaN,chair,chair,0,0028_lp_dnn_0_chair_10_n04429376_8237.png,n04429376_8237.png,1.0,3.9998832,3.259324,0.52365434
vit_b_16,1,29,NaN,oven,cat,7,0029_lp_dnn_7_cat_10_n02123159_587.png,n02123159_587.png,0.0,-0.16953225,3.1125417,-2.3207767
vit_b_16,1,30,NaN,knife,bird,10,0030_lp_dnn_10_bird_10_n02028035_17238.png,n02028035_17238.png,0.0,-0.464175,4.9163604,-3.8046129
vit_b_16,1,31,NaN,knife,cat,40,0031_lp_dnn_40_cat_10_n02123159_4348.png,n02123159_4348.png,0.0,-0.69399065,4.3191156,-3.5448015
vit_b_16,1,32,NaN,oven,boat,5,0032_lp_dnn_5_boat_10_n04273569_22332.png,n04273569_22332.png,0.0,0.8450457,4.164374,-2.3471196
vit_b_16,1,33,NaN,elephant,elephant,1,0033_lp_dnn_1_elephant_10_n02504013_1244.png,n02504013_1244.png,1.0,7.5063515,0.38855058,5.0330453
vit_b_16,1,34,NaN,clock,bicycle,7,0034_lp_dnn_7_bicycle_10_n03792782_30229.png,n03792782_30229.png,0.0,0.42648205,1.6694965,-0.878944
vit_b_16,1,35,NaN,knife,keyboard,10,0035_lp_dnn_10_keyboard_10_n03085013_7573.png,n03085013_7573.png,0.0,3.2675624,3.8214698,-0.3916717
vit_b_16,1,36,NaN,keyboard,keyboard,3,0036_lp_dnn_3_keyboard_10_n03085013_24578.png,n03085013_24578.png,1.0,6.538397,1.1781594,3.7902603
vit_b_16,1,37,NaN,knife,truck,15,0037_lp_dnn_15_truck_10_n03417042_1336.png,n03417042_1336.png,0.0,-0.930476,4.020544,-3.5009
vit_b_16,1,38,NaN,knife,knife,3,0038_lp_dnn_3_knife_10_n03041632_7495.png,n03041632_7495.png,1.0,0.8294648,0.75082356,0.05560775
vit_b_16,1,39,NaN,car,car,0,0039_lp_dnn_0_car_10_n03100240_9625.png,n03100240_9625.png,1.0,6.9012628,1.1145294,4.091839
vit_b_16,1,40,NaN,knife,elephant,10,0040_lp_dnn_10_elephant_10_n02504458_6107.png,n02504458_6107.png,0.0,0.16613117,2.614264,-1.7310913
vit_b_16,1,41,NaN,bicycle,bicycle,0,0041_lp_dnn_0_bicycle_10_n03792782_33649.png,n03792782_33649.png,1.0,8.542366,0.6744554,5.5634527
vit_b_16,1,42,NaN,clock,clock,1,0042_lp_dnn_1_clock_10_n03196217_8282.png,n03196217_8282.png,1.0,4.969597,0.6104707,3.0823677
vit_b_16,1,43,NaN,keyboard,keyboard,7,0043_lp_dnn_7_keyboard_10_n03085013_21534.png,n03085013_21534.png,1.0,5.405361,1.0095773,3.1082888
vit_b_16,1,44,NaN,knife,elephant,15,0044_lp_dnn_15_elephant_10_n02504013_22813.png,n02504013_22813.png,0.0,0.41920772,4.132182,-2.6254694
vit_b_16,1,45,NaN,knife,truck,10,0045_lp_dnn_10_truck_10_n03796401_16425.png,n03796401_16425.png,0.0,-0.69122064,3.2727077,-2.8029206
vit_b_16,1,46,NaN,knife,airplane,15,0046_lp_dnn_15_airplane_10_n02690373_9427.png,n02690373_9427.png,0.0,-1.0795189,6.2033496,-5.1497655
vit_b_16,1,47,NaN,keyboard,bird,7,0047_lp_dnn_7_bird_10_n02009912_11907.png,n02009912_11907.png,0.0,-0.44535118,2.9633944,-2.4103472
vit_b_16,1,48,NaN,airplane,airplane,1,0048_lp_dnn_1_airplane_10_n02690373_5773.png,n02690373_5773.png,1.0,9.160653,0.1857619,6.3462067
vit_b_16,1,49,NaN,knife,chair,40,0049_lp_dnn_40_chair_10_n02791124_2972.png,n02791124_2972.png,0.0,-0.003161773,3.551186,-2.5133035
vit_b_16,1,50,NaN,bear,bird,1,0050_lp_dnn_1_bird_10_n01819313_18188.png,n01819313_18188.png,0.0,-0.005809049,2.0922077,-1.4835219
vit_b_16,1,51,NaN,oven,car,5,0051_lp_dnn_5_car_10_n04285008_7428.png,n04285008_7428.png,0.0,1.75321,3.1342988,-0.9765773
vit_b_16,1,52,NaN,knife,bottle,7,0052_lp_dnn_7_bottle_10_n04591713_6923.png,n04591713_6923.png,0.0,2.359501,2.4898467,-0.09216841
vit_b_16,1,53,NaN,knife,knife,0,0053_lp_dnn_0_knife_10_n03041632_22570.png,n03041632_22570.png,1.0,5.2347417,1.4847969,2.6516113
vit_b_16,1,54,NaN,bear,bear,0,0054_lp_dnn_0_bear_10_n02132136_7586.png,n02132136_7586.png,1.0,5.8038664,0.41660184,3.8093715
vit_b_16,1,55,NaN,clock,clock,5,0055_lp_dnn_5_clock_10_n04548280_9144.png,n04548280_9144.png,1.0,3.8932648,1.7248067,1.5333314
vit_b_16,1,56,NaN,bottle,bottle,0,0056_lp_dnn_0_bottle_10_n04591713_2680.png,n04591713_2680.png,1.0,3.2031186,0.008998334,2.258584
vit_b_16,1,57,NaN,cat,cat,3,0057_lp_dnn_3_cat_10_n02123045_1596.png,n02123045_1596.png,1.0,4.021339,0.8254006,2.2598698
vit_b_16,1,58,NaN,knife,cat,10,0058_lp_dnn_10_cat_10_n02123597_19450.png,n02123597_19450.png,0.0,1.0606161,2.2094946,-0.8123798
vit_b_16,1,59,NaN,knife,chair,15,0059_lp_dnn_15_chair_10_n03376595_3462.png,n03376595_3462.png,0.0,-0.41402587,6.443812,-4.8492236
vit_b_16,1,60,NaN,bottle,bottle,3,0060_lp_dnn_3_bottle_10_n04591713_3683.png,n04591713_3683.png,1.0,4.572476,0.27031744,3.0420854
vit_b_16,1,61,NaN,clock,clock,7,0061_lp_dnn_7_clock_10_n03196217_4309.png,n03196217_4309.png,1.0,5.5875735,1.9799881,2.5509481
vit_b_16,1,62,NaN,knife,bear,15,0062_lp_dnn_15_bear_10_n02134084_4923.png,n02134084_4923.png,0.0,-0.5007491,4.6583676,-3.6480465
vit_b_16,1,63,NaN,chair,chair,1,0063_lp_dnn_1_chair_10_n04429376_5238.png,n04429376_5238.png,1.0,4.496962,0.19475733,3.042118
vit_b_16,1,64,NaN,clock,clock,0,0064_lp_dnn_0_clock_10_n03196217_2414.png,n03196217_2414.png,1.0,3.1746,0.92364144,1.591668
vit_b_16,1,65,NaN,bird,bird,3,0065_lp_dnn_3_bird_10_n01797886_2711.png,n01797886_2711.png,1.0,1.2950462,1.0286564,0.18836607
vit_b_16,1,66,NaN,knife,truck,15,0066_lp_dnn_15_truck_10_n04467665_68463.png,n04467665_68463.png,0.0,-1.0197138,6.161651,-5.077992
vit_b_16,1,67,NaN,truck,truck,0,0067_lp_dnn_0_truck_10_n03417042_10099.png,n03417042_10099.png,1.0,2.0500045,0.20287386,1.3061186
vit_b_16,1,68,NaN,knife,bear,10,0068_lp_dnn_10_bear_10_n02134418_3793.png,n02134418_3793.png,0.0,-0.039377272,3.950542,-2.821299
vit_b_16,1,69,NaN,knife,bottle,10,0069_lp_dnn_10_bottle_10_n03937543_9524.png,n03937543_9524.png,0.0,1.7030224,1.9290249,-0.15980795
vit_b_16,1,70,NaN,cat,cat,3,0070_lp_dnn_3_cat_10_n02123394_1038.png,n02123394_1038.png,1.0,3.2716262,0.98087835,1.6198034
vit_b_16,1,71,NaN,oven,dog,5,0071_lp_dnn_5_dog_10_n02110185_7886.png,n02110185_7886.png,0.0,0.51440316,2.8253796,-1.6341072
vit_b_16,1,72,NaN,clock,clock,3,0072_lp_dnn_3_clock_10_n02708093_4912.png,n02708093_4912.png,1.0,6.498293,0.12045733,4.509811
vit_b_16,1,73,NaN,knife,dog,15,0073_lp_dnn_15_dog_10_n02108422_932.png,n02108422_932.png,0.0,-0.3263807,2.7254303,-2.1579564
vit_b_16,1,74,NaN,truck,truck,0,0074_lp_dnn_0_truck_10_n04467665_18621.png,n04467665_18621.png,1.0,3.144726,0.16929336,2.1039486
vit_b_16,1,75,NaN,truck,truck,1,0075_lp_dnn_1_truck_10_n04467665_50932.png,n04467665_50932.png,1.0,1.375279,1.0127772,0.25632745
vit_b_16,1,76,NaN,oven,dog,1,0076_lp_dnn_1_dog_10_n02102480_7293.png,n02102480_7293.png,0.0,-0.39066675,0.46194986,-0.60289097
vit_b_16,1,77,NaN,bottle,bottle,1,0077_lp_dnn_1_bottle_10_n04591713_4764.png,n04591713_4764.png,1.0,4.9145823,0.45446387,3.15378
vit_b_16,1,78,NaN,knife,clock,15,0078_lp_dnn_15_clock_10_n02708093_274.png,n02708093_274.png,0.0,1.2489628,3.61116,-1.6703259
vit_b_16,1,79,NaN,keyboard,bottle,5,0079_lp_dnn_5_bottle_10_n04557648_29772.png,n04557648_29772.png,0.0,0.31888637,3.0894866,-1.9591103
vit_b_16,1,80,NaN,knife,car,15,0080_lp_dnn_15_car_10_n03100240_22499.png,n03100240_22499.png,0.0,-0.55003905,3.6017687,-2.9357715
vit_b_16,1,81,NaN,clock,clock,3,0081_lp_dnn_3_clock_10_n02708093_6252.png,n02708093_6252.png,1.0,5.9059014,0.32156536,3.9487221
vit_b_16,1,82,NaN,knife,airplane,10,0082_lp_dnn_10_airplane_10_n02690373_5427.png,n02690373_5427.png,0.0,-0.51689863,4.703627,-3.6914692
vit_b_16,1,83,NaN,knife,dog,15,0083_lp_dnn_15_dog_10_n02107142_46045.png,n02107142_46045.png,0.0,-0.25252014,3.8518093,-2.9021993
vit_b_16,1,84,NaN,knife,keyboard,40,0084_lp_dnn_40_keyboard_10_n03085013_23793.png,n03085013_23793.png,0.0,0.7735452,4.876454,-2.9011946
vit_b_16,1,85,NaN,bicycle,bicycle,3,0085_lp_dnn_3_bicycle_10_n03792782_12421.png,n03792782_12421.png,1.0,5.203472,1.3319672,2.7375674
vit_b_16,1,86,NaN,airplane,airplane,0,0086_lp_dnn_0_airplane_10_n02690373_1310.png,n02690373_1310.png,1.0,9.331668,0.31801584,6.3736143
vit_b_16,1,87,NaN,knife,oven,15,0087_lp_dnn_15_oven_10_n04111531_8793.png,n04111531_8793.png,0.0,2.4328144,4.096466,-1.1763794
vit_b_16,1,88,NaN,airplane,airplane,5,0088_lp_dnn_5_airplane_10_n02690373_633.png,n02690373_633.png,1.0,7.12808,2.0111325,3.6182282
vit_b_16,1,89,NaN,bottle,clock,5,0089_lp_dnn_5_clock_10_n02708093_2307.png,n02708093_2307.png,0.0,1.121945,1.4002049,-0.19675945
vit_b_16,1,90,NaN,keyboard,oven,10,0090_lp_dnn_10_oven_10_n04111531_13795.png,n04111531_13795.png,0.0,1.1419544,2.6236877,-1.0477437
vit_b_16,1,91,NaN,boat,boat,3,0091_lp_dnn_3_boat_10_n03662601_1427.png,n03662601_1427.png,1.0,4.5804377,3.125056,1.0291102
vit_b_16,1,92,NaN,oven,boat,5,0092_lp_dnn_5_boat_10_n04612504_15944.png,n04612504_15944.png,0.0,-0.059400797,2.2974367,-1.6665359
vit_b_16,1,93,NaN,knife,airplane,40,0093_lp_dnn_40_airplane_10_n02690373_3561.png,n02690373_3561.png,0.0,-0.75988525,5.581653,-4.4841447
vit_b_16,1,94,NaN,elephant,elephant,7,0094_lp_dnn_7_elephant_10_n02504458_1848.png,n02504458_1848.png,1.0,3.4192045,1.864013,1.0996865
vit_b_16,1,95,NaN,oven,oven,5,0095_lp_dnn_5_oven_10_n04111531_4155.png,n04111531_4155.png,1.0,3.3003986,2.160622,0.80594385
vit_b_16,1,96,NaN,car,car,0,0096_lp_dnn_0_car_10_n03100240_8327.png,n03100240_8327.png,1.0,6.61549,1.2124432,3.820531
vit_b_16,1,97,NaN,chair,chair,0,0097_lp_dnn_0_chair_10_n04429376_24319.png,n04429376_24319.png,1.0,4.3384833,0.19857043,2.9273608
vit_b_16,1,98,NaN,chair,chair,3,0098_lp_dnn_3_chair_10_n03376595_5112.png,n03376595_5112.png,1.0,3.8063684,0.81910545,2.112314
vit_b_16,1,99,NaN,cat,cat,1,0099_lp_dnn_1_cat_10_n02124075_2268.png,n02124075_2268.png,1.0,3.7224376,1.4855925,1.5816883
vit_b_16,1,100,NaN,boat,boat,3,0100_lp_dnn_3_boat_10_n04273569_1137.png,n04273569_1137.png,1.0,2.8704827,1.5213976,0.95394725
vit_b_16,1,101,NaN,chair,chair,1,0101_lp_dnn_1_chair_10_n02791124_15383.png,n02791124_15383.png,1.0,2.9325895,0.29143223,1.8675803
vit_b_16,1,102,NaN,knife,clock,15,0102_lp_dnn_15_clock_10_n04548280_8998.png,n04548280_8998.png,0.0,1.6508455,3.2947762,-1.1624346
vit_b_16,1,103,NaN,dog,dog,0,0103_lp_dnn_0_dog_10_n02097047_2800.png,n02097047_2800.png,1.0,0.5351702,0.048297796,0.3442708
vit_b_16,1,104,NaN,keyboard,bicycle,15,0104_lp_dnn_15_bicycle_10_n03792782_18294.png,n03792782_18294.png,0.0,-0.9022275,4.391837,-3.743469
vit_b_16,1,105,NaN,elephant,elephant,0,0105_lp_dnn_0_elephant_10_n02504013_24486.png,n02504013_24486.png,1.0,7.863028,0.31212708,5.3392935
vit_b_16,1,106,NaN,knife,airplane,7,0106_lp_dnn_7_airplane_10_n02690373_2923.png,n02690373_2923.png,0.0,-0.3996575,3.3866181,-2.6773012
vit_b_16,1,107,NaN,airplane,airplane,3,0107_lp_dnn_3_airplane_10_n02690373_15392.png,n02690373_15392.png,1.0,5.6465073,1.9050634,2.6456003
vit_b_16,1,108,NaN,oven,oven,5,0108_lp_dnn_5_oven_10_n04111531_6080.png,n04111531_6080.png,1.0,3.5816064,1.2878748,1.6219133
vit_b_16,1,109,NaN,knife,bear,15,0109_lp_dnn_15_bear_10_n02134084_22736.png,n02134084_22736.png,0.0,-0.40416557,3.9851427,-3.10371
vit_b_16,1,110,NaN,knife,knife,1,0110_lp_dnn_1_knife_10_n03041632_33326.png,n03041632_33326.png,1.0,6.856441,0.6279438,4.4042125
vit_b_16,1,111,NaN,knife,truck,40,0111_lp_dnn_40_truck_10_n04467665_66876.png,n04467665_66876.png,0.0,-1.1760631,4.6156163,-4.095336
vit_b_16,1,112,NaN,knife,truck,40,0112_lp_dnn_40_truck_10_n03796401_10234.png,n03796401_10234.png,0.0,-1.2679482,6.2499413,-5.315951
vit_b_16,1,113,NaN,knife,bicycle,7,0113_lp_dnn_7_bicycle_10_n03792782_5416.png,n03792782_5416.png,0.0,-0.2656086,2.4001718,-1.8849914
vit_b_16,1,114,NaN,knife,knife,7,0114_lp_dnn_7_knife_10_n03041632_25772.png,n03041632_25772.png,1.0,2.4235425,1.2922223,0.79996425
vit_b_16,1,115,NaN,knife,bicycle,10,0115_lp_dnn_10_bicycle_10_n03792782_7108.png,n03792782_7108.png,0.0,-0.82815015,2.6879163,-2.4862344
vit_b_16,1,116,NaN,chair,chair,0,0116_lp_dnn_0_chair_10_n03376595_1981.png,n03376595_1981.png,1.0,2.7129145,0.4071528,1.6304197
vit_b_16,1,117,NaN,knife,oven,15,0117_lp_dnn_15_oven_10_n04111531_6508.png,n04111531_6508.png,0.0,2.8556886,3.4375272,-0.41142204
vit_b_16,1,118,NaN,clock,bird,15,0118_lp_dnn_15_bird_10_n01843383_2843.png,n01843383_2843.png,0.0,-0.22320575,3.3345592,-2.51572
vit_b_16,1,119,NaN,cat,cat,5,0119_lp_dnn_5_cat_10_n02123597_5887.png,n02123597_5887.png,1.0,3.6264107,0.8477522,1.9648082
vit_b_16,1,120,NaN,knife,clock,40,0120_lp_dnn_40_clock_10_n04548280_9801.png,n04548280_9801.png,0.0,2.7546256,4.042791,-0.91087043
vit_b_16,1,121,NaN,elephant,bird,1,0121_lp_dnn_1_bird_10_n01530575_10332.png,n01530575_10332.png,0.0,0.60670626,0.6696981,-0.04454197
vit_b_16,1,122,NaN,knife,elephant,15,0122_lp_dnn_15_elephant_10_n02504013_5887.png,n02504013_5887.png,0.0,-0.075356364,3.9325955,-2.83405
vit_b_16,1,123,NaN,cat,cat,3,0123_lp_dnn_3_cat_10_n02124075_8693.png,n02124075_8693.png,1.0,2.8736851,1.0667264,1.2777127
vit_b_16,1,124,NaN,knife,boat,15,0124_lp_dnn_15_boat_10_n04612504_26151.png,n04612504_26151.png,0.0,-0.92492133,4.3029175,-3.6966405
vit_b_16,1,125,NaN,oven,cat,7,0125_lp_dnn_7_cat_10_n02125311_53412.png,n02125311_53412.png,0.0,0.5172245,4.534831,-2.840877
vit_b_16,1,126,NaN,knife,knife,7,0126_lp_dnn_7_knife_10_n03041632_46914.png,n03041632_46914.png,1.0,8.37902,3.278744,3.6064398
vit_b_16,1,127,NaN,knife,bicycle,15,0127_lp_dnn_15_bicycle_10_n03792782_5629.png,n03792782_5629.png,0.0,-0.42021394,4.241196,-3.296115
vit_b_16,1,128,NaN,knife,bottle,40,0128_lp_dnn_40_bottle_10_n02823428_79.png,n02823428_79.png,0.0,1.6412333,3.5894885,-1.3776245
vit_b_16,1,129,NaN,dog,dog,3,0129_lp_dnn_3_dog_10_n02101006_5024.png,n02101006_5024.png,1.0,0.64802176,0.41914082,0.16184327
vit_b_16,1,130,NaN,knife,oven,15,0130_lp_dnn_15_oven_10_n04111531_2350.png,n04111531_2350.png,0.0,1.3576547,4.1037326,-1.9417704
vit_b_16,1,131,NaN,knife,airplane,7,0131_lp_dnn_7_airplane_10_n02690373_4839.png,n02690373_4839.png,0.0,2.7070642,5.903233,-2.2600327
vit_b_16,1,132,NaN,oven,car,5,0132_lp_dnn_5_car_10_n03100240_2075.png,n03100240_2075.png,0.0,2.1830995,4.278582,-1.48173
vit_b_16,1,133,NaN,knife,cat,5,0133_lp_dnn_5_cat_10_n02123159_3729.png,n02123159_3729.png,0.0,1.0219835,1.9015311,-0.62193406
vit_b_16,1,134,NaN,oven,knife,10,0134_lp_dnn_10_knife_10_n03041632_3079.png,n03041632_3079.png,0.0,2.0866766,3.435116,-0.9534907
vit_b_16,1,135,NaN,knife,elephant,15,0135_lp_dnn_15_elephant_10_n02504013_2052.png,n02504013_2052.png,0.0,-0.09247228,3.1213288,-2.2725005
vit_b_16,1,136,NaN,knife,cat,40,0136_lp_dnn_40_cat_10_n02123159_3724.png,n02123159_3724.png,0.0,-0.26855877,4.957318,-3.695253
vit_b_16,1,137,NaN,knife,keyboard,15,0137_lp_dnn_15_keyboard_10_n03085013_7955.png,n03085013_7955.png,0.0,2.4698353,4.484767,-1.4247719
vit_b_16,1,138,NaN,knife,bird,40,0138_lp_dnn_40_bird_10_n02056570_9872.png,n02056570_9872.png,0.0,-0.42403784,4.9772725,-3.8193033
vit_b_16,1,139,NaN,knife,cat,10,0139_lp_dnn_10_cat_10_n02125311_44401.png,n02125311_44401.png,0.0,0.101879984,1.4296635,-0.9388848
vit_b_16,1,140,NaN,knife,airplane,10,0140_lp_dnn_10_airplane_10_n02690373_10657.png,n02690373_10657.png,0.0,0.6104431,6.46841,-4.142208
vit_b_16,1,141,NaN,dog,bird,5,0141_lp_dnn_5_bird_10_n02025239_7919.png,n02025239_7919.png,0.0,-0.21998411,1.1656055,-0.9797598
vit_b_16,1,142,NaN,knife,bear,40,0142_lp_dnn_40_bear_10_n02134084_23165.png,n02134084_23165.png,0.0,-0.9658982,5.141725,-4.318742
vit_b_16,1,143,NaN,knife,knife,40,0143_lp_dnn_40_knife_10_n03041632_28658.png,n03041632_28658.png,1.0,3.9649453,2.2385337,1.2207574
vit_b_16,1,144,NaN,keyboard,keyboard,5,0144_lp_dnn_5_keyboard_10_n04505470_4371.png,n04505470_4371.png,1.0,2.49607,1.9889334,0.35859963
vit_b_16,1,145,NaN,keyboard,keyboard,0,0145_lp_dnn_0_keyboard_10_n03085013_14237.png,n03085013_14237.png,1.0,4.9539013,0.63795,3.0518386
vit_b_16,1,146,NaN,clock,clock,0,0146_lp_dnn_0_clock_10_n03196217_6163.png,n03196217_6163.png,1.0,5.5320244,1.3610547,2.9493213
vit_b_16,1,147,NaN,knife,chair,15,0147_lp_dnn_15_chair_10_n02791124_3857.png,n02791124_3857.png,0.0,-0.43474054,3.616622,-2.8647459
vit_b_16,1,148,NaN,knife,truck,40,0148_lp_dnn_40_truck_10_n03417042_20650.png,n03417042_20650.png,0.0,-0.91846377,4.856176,-4.083287
vit_b_16,1,149,NaN,truck,truck,0,0149_lp_dnn_0_truck_10_n04467665_17101.png,n04467665_17101.png,1.0,3.394913,0.2705366,2.2092676
vit_b_16,1,150,NaN,chair,chair,1,0150_lp_dnn_1_chair_10_n04429376_19354.png,n04429376_19354.png,1.0,1.8857905,0.72969824,0.8174806
vit_b_16,1,151,NaN,knife,knife,0,0151_lp_dnn_0_knife_10_n03041632_42156.png,n03041632_42156.png,1.0,9.211725,0.5868019,6.098742
vit_b_16,1,152,NaN,car,car,1,0152_lp_dnn_1_car_10_n04285008_39.png,n04285008_39.png,1.0,6.6405234,0.99818844,3.9897335
vit_b_16,1,153,NaN,boat,boat,1,0153_lp_dnn_1_boat_10_n03662601_1319.png,n03662601_1319.png,1.0,2.997697,0.86614966,1.5072317
vit_b_16,1,154,NaN,oven,truck,7,0154_lp_dnn_7_truck_10_n03796401_4119.png,n03796401_4119.png,0.0,0.6962728,3.3419778,-1.870796
vit_b_16,1,155,NaN,knife,bottle,15,0155_lp_dnn_15_bottle_10_n03937543_2333.png,n03937543_2333.png,0.0,1.2560185,4.772551,-2.486564
vit_b_16,1,156,NaN,bottle,bottle,3,0156_lp_dnn_3_bottle_10_n04591713_7134.png,n04591713_7134.png,1.0,0.91516453,0.53649426,0.26776034
vit_b_16,1,157,NaN,keyboard,dog,0,0157_lp_dnn_0_dog_10_n02107312_3673.png,n02107312_3673.png,0.0,0.02547027,0.41351408,-0.27438843
vit_b_16,1,158,NaN,oven,oven,3,0158_lp_dnn_3_oven_10_n04111531_8373.png,n04111531_8373.png,1.0,7.0830436,1.3310652,4.067263
vit_b_16,1,159,NaN,bicycle,car,3,0159_lp_dnn_3_car_10_n03100240_13707.png,n03100240_13707.png,0.0,1.7452549,2.6090264,-0.61077875
vit_b_16,1,160,NaN,chair,chair,1,0160_lp_dnn_1_chair_10_n02791124_241.png,n02791124_241.png,1.0,3.3667889,0.13558227,2.2848082
vit_b_16,1,161,NaN,oven,airplane,7,0161_lp_dnn_7_airplane_10_n02690373_5628.png,n02690373_5628.png,0.0,0.47526473,4.887882,-3.120192
vit_b_16,1,162,NaN,knife,boat,40,0162_lp_dnn_40_boat_10_n02951358_1461.png,n02951358_1461.png,0.0,-1.253186,3.7153144,-3.5132601
vit_b_16,1,163,NaN,keyboard,keyboard,7,0163_lp_dnn_7_keyboard_10_n04505470_4501.png,n04505470_4501.png,1.0,5.4054976,2.3373363,2.1695178
vit_b_16,1,164,NaN,bird,bird,1,0164_lp_dnn_1_bird_10_n02033041_11415.png,n02033041_11415.png,1.0,0.5497352,0.4810281,0.048583243
vit_b_16,1,165,NaN,knife,knife,1,0165_lp_dnn_1_knife_10_n03041632_6446.png,n03041632_6446.png,1.0,8.75683,0.5246775,5.821011
vit_b_16,1,166,NaN,elephant,bird,0,0166_lp_dnn_0_bird_10_n02011460_3892.png,n02011460_3892.png,0.0,0.07787523,0.2971105,-0.15502276
vit_b_16,1,167,NaN,cat,cat,1,0167_lp_dnn_1_cat_10_n02125311_3174.png,n02125311_3174.png,1.0,2.0043828,0.12776633,1.3269683
vit_b_16,1,168,NaN,knife,dog,10,0168_lp_dnn_10_dog_10_n02088364_7448.png,n02088364_7448.png,0.0,-0.21941078,4.4033613,-3.2687936
vit_b_16,1,169,NaN,cat,cat,1,0169_lp_dnn_1_cat_10_n02123394_4299.png,n02123394_4299.png,1.0,4.01331,0.5023814,2.4826014
vit_b_16,1,170,NaN,knife,keyboard,15,0170_lp_dnn_15_keyboard_10_n03085013_23731.png,n03085013_23731.png,0.0,2.0078888,3.3814545,-0.9712576
vit_b_16,1,171,NaN,knife,knife,5,0171_lp_dnn_5_knife_10_n03041632_29285.png,n03041632_29285.png,1.0,1.720822,1.499134,0.15675712
vit_b_16,1,172,NaN,keyboard,keyboard,0,0172_lp_dnn_0_keyboard_10_n03085013_12164.png,n03085013_12164.png,1.0,6.582486,0.6725638,4.1789465
vit_b_16,1,173,NaN,oven,bird,5,0173_lp_dnn_5_bird_10_n01582220_9023.png,n01582220_9023.png,0.0,-0.6137875,3.8890953,-3.184019
vit_b_16,1,174,NaN,keyboard,bottle,3,0174_lp_dnn_3_bottle_10_n03983396_12728.png,n03983396_12728.png,0.0,1.0552619,1.1426525,-0.06179453
vit_b_16,1,175,NaN,bear,dog,7,0175_lp_dnn_7_dog_10_n02111277_50807.png,n02111277_50807.png,0.0,0.9710806,2.706992,-1.2274747
vit_b_16,1,176,NaN,oven,boat,5,0176_lp_dnn_5_boat_10_n04273569_2037.png,n04273569_2037.png,0.0,2.0487278,3.106637,-0.7480548
vit_b_16,1,177,NaN,knife,keyboard,40,0177_lp_dnn_40_keyboard_10_n04505470_4672.png,n04505470_4672.png,0.0,1.1181757,4.5118604,-2.3996975
vit_b_16,1,178,NaN,knife,boat,10,0178_lp_dnn_10_boat_10_n03662601_12034.png,n03662601_12034.png,0.0,-0.9310862,3.9069333,-3.4209964
vit_b_16,1,179,NaN,knife,airplane,15,0179_lp_dnn_15_airplane_10_n02690373_5845.png,n02690373_5845.png,0.0,-0.9611422,5.789409,-4.7733607
vit_b_16,1,180,NaN,knife,truck,5,0180_lp_dnn_5_truck_10_n03417042_12128.png,n03417042_12128.png,0.0,0.21521324,1.2669797,-0.7437112
vit_b_16,1,181,NaN,knife,keyboard,10,0181_lp_dnn_10_keyboard_10_n03085013_2432.png,n03085013_2432.png,0.0,2.664421,3.8067605,-0.807756
vit_b_16,1,182,NaN,chair,chair,5,0182_lp_dnn_5_chair_10_n03376595_9692.png,n03376595_9692.png,1.0,1.9195545,1.1108569,0.5718356
vit_b_16,1,183,NaN,bicycle,chair,3,0183_lp_dnn_3_chair_10_n03376595_12583.png,n03376595_12583.png,0.0,0.16401845,1.7035817,-1.0886356
vit_b_16,1,184,NaN,bear,bear,0,0184_lp_dnn_0_bear_10_n02133161_2135.png,n02133161_2135.png,1.0,2.770938,0.17856155,1.833087
vit_b_16,1,185,NaN,knife,airplane,10,0185_lp_dnn_10_airplane_10_n02690373_5176.png,n02690373_5176.png,0.0,-0.14391023,4.2114534,-3.0797074
vit_b_16,1,186,NaN,elephant,elephant,0,0186_lp_dnn_0_elephant_10_n02504013_10990.png,n02504013_10990.png,1.0,7.026209,0.33912572,4.728482
vit_b_16,1,187,NaN,knife,boat,10,0187_lp_dnn_10_boat_10_n02951358_3155.png,n02951358_3155.png,0.0,-0.67026746,2.571015,-2.2919328
vit_b_16,1,188,NaN,knife,knife,1,0188_lp_dnn_1_knife_10_n03041632_2644.png,n03041632_2644.png,1.0,9.9180975,0.88171124,6.3896904
vit_b_16,1,189,NaN,airplane,airplane,5,0189_lp_dnn_5_airplane_10_n02690373_5184.png,n02690373_5184.png,1.0,9.102649,2.218452,4.867862
vit_b_16,1,190,NaN,chair,chair,0,0190_lp_dnn_0_chair_10_n04099969_16161.png,n04099969_16161.png,1.0,2.7686253,0.4417998,1.645314
vit_b_16,1,191,NaN,knife,boat,10,0191_lp_dnn_10_boat_10_n03344393_5343.png,n03344393_5343.png,0.0,-0.68933785,4.42968,-3.619692
vit_b_16,1,192,NaN,oven,oven,0,0192_lp_dnn_0_oven_10_n04111531_15052.png,n04111531_15052.png,1.0,8.290907,0.9164137,5.2145543
vit_b_16,1,193,NaN,keyboard,bicycle,15,0193_lp_dnn_15_bicycle_10_n02835271_317.png,n02835271_317.png,0.0,-1.0147333,3.7410512,-3.3628476
vit_b_16,1,194,NaN,elephant,bird,0,0194_lp_dnn_0_bird_10_n02002556_15721.png,n02002556_15721.png,0.0,0.50615585,0.58285284,-0.054232962
vit_b_16,1,195,NaN,keyboard,chair,5,0195_lp_dnn_5_chair_10_n03376595_11280.png,n03376595_11280.png,0.0,0.5045135,3.2072358,-1.9111133
vit_b_16,1,196,NaN,keyboard,keyboard,3,0196_lp_dnn_3_keyboard_10_n04505470_4621.png,n04505470_4621.png,1.0,1.5719001,0.8900431,0.48214576
vit_b_16,1,197,NaN,oven,boat,7,0197_lp_dnn_7_boat_10_n03662601_6042.png,n03662601_6042.png,0.0,2.9032235,3.0419345,-0.098083474
vit_b_16,1,198,NaN,bicycle,dog,1,0198_lp_dnn_1_dog_10_n02086646_2810.png,n02086646_2810.png,0.0,0.20738949,0.46119738,-0.17946929
vit_b_16,1,199,NaN,knife,elephant,15,0199_lp_dnn_15_elephant_10_n02504458_7835.png,n02504458_7835.png,0.0,-0.30782053,3.9347632,-2.9999597
vit_b_16,1,200,NaN,clock,cat,15,0200_lp_dnn_15_cat_10_n02123159_6281.png,n02123159_6281.png,0.0,0.29083166,3.1080186,-1.9920521
vit_b_16,1,201,NaN,knife,knife,5,0201_lp_dnn_5_knife_10_n03041632_1661.png,n03041632_1661.png,1.0,2.4120913,0.7626317,1.166344
vit_b_16,1,202,NaN,clock,clock,1,0202_lp_dnn_1_clock_10_n02708093_2806.png,n02708093_2806.png,1.0,3.9816084,0.63330394,2.3676088
vit_b_16,1,203,NaN,boat,boat,1,0203_lp_dnn_1_boat_10_n04273569_1201.png,n04273569_1201.png,1.0,3.5936654,0.49099135,2.1939218
vit_b_16,1,204,NaN,knife,bird,40,0204_lp_dnn_40_bird_10_n01614925_13283.png,n01614925_13283.png,0.0,-0.32206136,4.1565537,-3.1668594
vit_b_16,1,205,NaN,knife,car,40,0205_lp_dnn_40_car_10_n02814533_51701.png,n02814533_51701.png,0.0,-0.8812254,5.8996806,-4.794825
vit_b_16,1,206,NaN,oven,chair,7,0206_lp_dnn_7_chair_10_n04099969_34325.png,n04099969_34325.png,0.0,2.6427152,2.9926727,-0.2474573
vit_b_16,1,207,NaN,truck,truck,0,0207_lp_dnn_0_truck_10_n04467665_71305.png,n04467665_71305.png,1.0,2.1852043,0.78694856,0.9887161
vit_b_16,1,208,NaN,boat,boat,5,0208_lp_dnn_5_boat_10_n03344393_5916.png,n03344393_5916.png,1.0,2.2994952,1.568078,0.51719004
vit_b_16,1,209,NaN,keyboard,car,7,0209_lp_dnn_7_car_10_n02814533_28783.png,n02814533_28783.png,0.0,-0.4457997,2.8946545,-2.3620577
vit_b_16,1,210,NaN,knife,boat,15,0210_lp_dnn_15_boat_10_n03662601_16825.png,n03662601_16825.png,0.0,-0.92206204,4.92353,-4.1334577
vit_b_16,1,211,NaN,elephant,dog,0,0211_lp_dnn_0_dog_10_n02100583_10960.png,n02100583_10960.png,0.0,0.3991098,0.7399967,-0.24104342
vit_b_16,1,212,NaN,elephant,elephant,10,0212_lp_dnn_10_elephant_10_n02504458_4587.png,n02504458_4587.png,1.0,5.5140343,1.8020823,2.6247466
vit_b_16,1,213,NaN,knife,bottle,10,0213_lp_dnn_10_bottle_10_n03983396_12670.png,n03983396_12670.png,0.0,0.17005025,2.546124,-1.680138
vit_b_16,1,214,NaN,bicycle,bicycle,3,0214_lp_dnn_3_bicycle_10_n02835271_18205.png,n02835271_18205.png,1.0,4.766768,0.7285921,2.8554218
vit_b_16,1,215,NaN,knife,truck,40,0215_lp_dnn_40_truck_10_n04467665_67527.png,n04467665_67527.png,0.0,-1.3628285,4.9417214,-4.45799
vit_b_16,1,216,NaN,knife,keyboard,10,0216_lp_dnn_10_keyboard_10_n03085013_4374.png,n03085013_4374.png,0.0,1.3957489,8.209372,-4.817959
vit_b_16,1,217,NaN,clock,clock,3,0217_lp_dnn_3_clock_10_n03196217_3086.png,n03196217_3086.png,1.0,1.0442878,0.4294527,0.4347541
vit_b_16,1,218,NaN,knife,clock,15,0218_lp_dnn_15_clock_10_n04548280_254.png,n04548280_254.png,0.0,2.3753889,7.198201,-3.4102433
vit_b_16,1,219,NaN,knife,bicycle,15,0219_lp_dnn_15_bicycle_10_n02835271_21707.png,n02835271_21707.png,0.0,-0.5257948,2.974166,-2.474846
vit_b_16,1,220,NaN,knife,bird,15,0220_lp_dnn_15_bird_10_n01819313_6340.png,n01819313_6340.png,0.0,-0.5160248,3.0832257,-2.5450544
vit_b_16,1,221,NaN,knife,bicycle,5,0221_lp_dnn_5_bicycle_10_n02835271_10556.png,n02835271_10556.png,0.0,0.24105588,2.3652005,-1.501997
vit_b_16,1,222,NaN,knife,chair,15,0222_lp_dnn_15_chair_10_n04099969_3312.png,n04099969_3312.png,0.0,-0.2743071,3.348609,-2.5617886
vit_b_16,1,223,NaN,knife,car,15,0223_lp_dnn_15_car_10_n04285008_2781.png,n04285008_2781.png,0.0,-0.6609501,4.1220756,-3.3821099
vit_b_16,1,224,NaN,clock,clock,3,0224_lp_dnn_3_clock_10_n04548280_21263.png,n04548280_21263.png,1.0,5.7447667,0.51550275,3.697648
vit_b_16,1,225,NaN,knife,car,15,0225_lp_dnn_15_car_10_n02814533_9785.png,n02814533_9785.png,0.0,-0.09746373,6.04242,-4.341553
vit_b_16,1,226,NaN,truck,truck,0,0226_lp_dnn_0_truck_10_n03417042_24100.png,n03417042_24100.png,1.0,1.3742738,0.28074354,0.7732426
vit_b_16,1,227,NaN,knife,dog,15,0227_lp_dnn_15_dog_10_n02091244_10926.png,n02091244_10926.png,0.0,0.2534424,2.1858091,-1.3663896
vit_b_16,1,228,NaN,knife,bottle,40,0228_lp_dnn_40_bottle_10_n04591713_2537.png,n04591713_2537.png,0.0,1.4253874,4.7017403,-2.3167315
vit_b_16,1,229,NaN,knife,bear,10,0229_lp_dnn_10_bear_10_n02134418_1311.png,n02134418_1311.png,0.0,-0.62232316,3.0144877,-2.5716136
vit_b_16,1,230,NaN,bicycle,bicycle,3,0230_lp_dnn_3_bicycle_10_n03792782_210.png,n03792782_210.png,1.0,1.9908334,0.505739,1.0501204
vit_b_16,1,231,NaN,cat,cat,3,0231_lp_dnn_3_cat_10_n02123045_5371.png,n02123045_5371.png,1.0,4.372795,2.416153,1.3835549
vit_b_16,1,232,NaN,knife,boat,15,0232_lp_dnn_15_boat_10_n04612504_19111.png,n04612504_19111.png,0.0,-1.2200005,4.14094,-3.7907577
vit_b_16,1,233,NaN,clock,clock,1,0233_lp_dnn_1_clock_10_n03196217_7836.png,n03196217_7836.png,1.0,5.918525,0.23142798,4.021385
vit_b_16,1,234,NaN,airplane,dog,0,0234_lp_dnn_0_dog_10_n02086910_9742.png,n02086910_9742.png,0.0,-0.03160983,0.43986887,-0.3333858
vit_b_16,1,235,NaN,bottle,bottle,1,0235_lp_dnn_1_bottle_10_n03937543_4723.png,n03937543_4723.png,1.0,1.2123201,0.253496,0.67799103
vit_b_16,1,236,NaN,knife,dog,5,0236_lp_dnn_5_dog_10_n02111129_6495.png,n02111129_6495.png,0.0,0.3879065,0.54585737,-0.11168814
vit_b_16,1,237,NaN,knife,knife,1,0237_lp_dnn_1_knife_10_n03041632_3101.png,n03041632_3101.png,1.0,10.76698,0.34344348,7.3705535
vit_b_16,1,238,NaN,bear,bear,0,0238_lp_dnn_0_bear_10_n02134084_7373.png,n02134084_7373.png,1.0,3.500509,1.0300668,1.7468666
vit_b_16,1,239,NaN,cat,bird,7,0239_lp_dnn_7_bird_10_n02009229_11916.png,n02009229_11916.png,0.0,0.62569433,1.2021608,-0.40762338
vit_b_16,1,240,NaN,oven,oven,7,0240_lp_dnn_7_oven_10_n04111531_14208.png,n04111531_14208.png,1.0,4.0046086,3.1473637,0.60616374
vit_b_16,1,241,NaN,keyboard,bird,3,0241_lp_dnn_3_bird_10_n01601694_20287.png,n01601694_20287.png,0.0,1.0604106,1.3107355,-0.1770064
vit_b_16,1,242,NaN,knife,oven,15,0242_lp_dnn_15_oven_10_n04111531_5519.png,n04111531_5519.png,0.0,0.921025,4.027634,-2.1967044
vit_b_16,1,243,NaN,car,car,1,0243_lp_dnn_1_car_10_n04285008_10893.png,n04285008_10893.png,1.0,6.068687,0.48912528,3.9453459
vit_b_16,1,244,NaN,knife,boat,40,0244_lp_dnn_40_boat_10_n02951358_16196.png,n02951358_16196.png,0.0,-1.0121139,5.7096663,-4.7530165
vit_b_16,1,245,NaN,knife,clock,7,0245_lp_dnn_7_clock_10_n04548280_532.png,n04548280_532.png,0.0,3.0756447,5.2791553,-1.5581173
vit_b_16,1,246,NaN,keyboard,keyboard,0,0246_lp_dnn_0_keyboard_10_n04505470_73.png,n04505470_73.png,1.0,5.6951647,0.3718927,3.7641215
vit_b_16,1,247,NaN,knife,bottle,10,0247_lp_dnn_10_bottle_10_n02823428_6766.png,n02823428_6766.png,0.0,0.7783094,4.0782213,-2.3333902
vit_b_16,1,248,NaN,knife,boat,15,0248_lp_dnn_15_boat_10_n02951358_26579.png,n02951358_26579.png,0.0,-1.1484606,3.9647002,-3.615551
vit_b_16,1,249,NaN,knife,dog,10,0249_lp_dnn_10_dog_10_n02085782_7651.png,n02085782_7651.png,0.0,-0.14214025,2.6587281,-1.980513
vit_b_16,1,250,NaN,clock,clock,3,0250_lp_dnn_3_clock_10_n02708093_1747.png,n02708093_1747.png,1.0,6.128162,0.7229014,3.8220963
vit_b_16,1,251,NaN,knife,truck,3,0251_lp_dnn_3_truck_10_n04467665_19645.png,n04467665_19645.png,0.0,1.4932435,1.7796001,-0.20248476
vit_b_16,1,252,NaN,knife,airplane,15,0252_lp_dnn_15_airplane_10_n02690373_17262.png,n02690373_17262.png,0.0,-1.1675133,5.030129,-4.382395
vit_b_16,1,253,NaN,elephant,elephant,0,0253_lp_dnn_0_elephant_10_n02504458_10428.png,n02504458_10428.png,1.0,7.1273193,0.50707775,4.6812177
vit_b_16,1,254,NaN,knife,cat,7,0254_lp_dnn_7_cat_10_n02124075_9149.png,n02124075_9149.png,0.0,0.32374611,1.146838,-0.58201385
vit_b_16,1,255,NaN,keyboard,elephant,10,0255_lp_dnn_10_elephant_10_n02504013_7923.png,n02504013_7923.png,0.0,-0.609396,3.858743,-3.1594512
vit_b_16,1,256,NaN,cat,cat,3,0256_lp_dnn_3_cat_10_n02123394_4789.png,n02123394_4789.png,1.0,1.4215349,0.66996324,0.53144145
vit_b_16,1,257,NaN,bottle,clock,5,0257_lp_dnn_5_clock_10_n03196217_2530.png,n03196217_2530.png,0.0,1.9279498,1.9932753,-0.046192102
vit_b_16,1,258,NaN,knife,airplane,5,0258_lp_dnn_5_airplane_10_n02690373_6992.png,n02690373_6992.png,0.0,-0.06885749,4.2796836,-3.074883
vit_b_16,1,259,NaN,airplane,airplane,3,0259_lp_dnn_3_airplane_10_n02690373_5056.png,n02690373_5056.png,1.0,6.9039364,2.7565236,2.9326637
vit_b_16,1,260,NaN,bear,bear,1,0260_lp_dnn_1_bear_10_n02134418_2231.png,n02134418_2231.png,1.0,2.583875,0.19491276,1.6892514
vit_b_16,1,261,NaN,knife,truck,10,0261_lp_dnn_10_truck_10_n03796401_180.png,n03796401_180.png,0.0,-0.9488,3.938959,-3.4561675
vit_b_16,1,262,NaN,bicycle,bicycle,3,0262_lp_dnn_3_bicycle_10_n02835271_3246.png,n02835271_3246.png,1.0,6.057527,0.7593187,3.746399
vit_b_16,1,263,NaN,truck,truck,3,0263_lp_dnn_3_truck_10_n03796401_599.png,n03796401_599.png,1.0,1.5393506,0.68735033,0.6024552
vit_b_16,1,264,NaN,keyboard,oven,7,0264_lp_dnn_7_oven_10_n04111531_13862.png,n04111531_13862.png,0.0,1.2337937,1.358938,-0.088490345
vit_b_16,1,265,NaN,oven,oven,0,0265_lp_dnn_0_oven_10_n04111531_10420.png,n04111531_10420.png,1.0,7.095608,1.4842594,3.967823
vit_b_16,1,266,NaN,knife,car,10,0266_lp_dnn_10_car_10_n03100240_15531.png,n03100240_15531.png,0.0,-0.4140054,3.2702782,-2.6051822
vit_b_16,1,267,NaN,knife,dog,7,0267_lp_dnn_7_dog_10_n02099849_3128.png,n02099849_3128.png,0.0,-0.432173,3.8981442,-3.061997
vit_b_16,1,268,NaN,oven,chair,5,0268_lp_dnn_5_chair_10_n02791124_3222.png,n02791124_3222.png,0.0,0.15711865,0.68955547,-0.3764897
vit_b_16,1,269,NaN,keyboard,keyboard,5,0269_lp_dnn_5_keyboard_10_n04505470_8364.png,n04505470_8364.png,1.0,6.5921726,1.6254765,3.5119846
vit_b_16,1,270,NaN,clock,clock,0,0270_lp_dnn_0_clock_10_n04548280_9294.png,n04548280_9294.png,1.0,5.1268992,1.0818406,2.8602886
vit_b_16,1,271,NaN,clock,bottle,7,0271_lp_dnn_7_bottle_10_n03937543_3358.png,n03937543_3358.png,0.0,2.5213258,3.043916,-0.36952704
vit_b_16,1,272,NaN,knife,knife,7,0272_lp_dnn_7_knife_10_n03041632_2058.png,n03041632_2058.png,1.0,7.795435,0.6071214,5.0829053
vit_b_16,1,273,NaN,elephant,elephant,1,0273_lp_dnn_1_elephant_10_n02504458_5671.png,n02504458_5671.png,1.0,4.011451,1.7119083,1.6260221
vit_b_16,1,274,NaN,oven,chair,10,0274_lp_dnn_10_chair_10_n02791124_6281.png,n02791124_6281.png,0.0,-0.38838235,4.1069655,-3.1786911
vit_b_16,1,275,NaN,knife,cat,15,0275_lp_dnn_15_cat_10_n02125311_44920.png,n02125311_44920.png,0.0,-0.08023474,4.2703595,-3.0763347
vit_b_16,1,276,NaN,airplane,airplane,5,0276_lp_dnn_5_airplane_10_n02690373_2981.png,n02690373_2981.png,1.0,5.2175417,1.68722,2.4963143
vit_b_16,1,277,NaN,knife,knife,1,0277_lp_dnn_1_knife_10_n03041632_2468.png,n03041632_2468.png,1.0,6.1041226,0.8869257,3.6891153
vit_b_16,1,278,NaN,clock,clock,1,0278_lp_dnn_1_clock_10_n02708093_3605.png,n02708093_3605.png,1.0,6.248981,0.59901893,3.9951265
vit_b_16,1,279,NaN,bicycle,bicycle,1,0279_lp_dnn_1_bicycle_10_n02835271_19019.png,n02835271_19019.png,1.0,5.649993,0.8919295,3.3644588
vit_b_16,1,280,NaN,keyboard,keyboard,7,0280_lp_dnn_7_keyboard_10_n03085013_1188.png,n03085013_1188.png,1.0,5.3642054,1.5795648,2.676145
vit_b_16,1,281,NaN,oven,oven,1,0281_lp_dnn_1_oven_10_n04111531_2715.png,n04111531_2715.png,1.0,8.240109,0.6459155,5.369906
vit_b_16,1,282,NaN,knife,keyboard,10,0282_lp_dnn_10_keyboard_10_n03085013_9533.png,n03085013_9533.png,0.0,1.09524,5.9102297,-3.4047117
vit_b_16,1,283,NaN,cat,cat,3,0283_lp_dnn_3_cat_10_n02123045_20366.png,n02123045_20366.png,1.0,4.864536,0.13647914,3.3432412
vit_b_16,1,284,NaN,chair,chair,5,0284_lp_dnn_5_chair_10_n03376595_302.png,n03376595_302.png,1.0,1.9965136,1.9257237,0.050056044
vit_b_16,1,285,NaN,keyboard,cat,7,0285_lp_dnn_7_cat_10_n02123597_14267.png,n02123597_14267.png,0.0,1.8591508,3.2925434,-1.0135617
vit_b_16,1,286,NaN,knife,dog,15,0286_lp_dnn_15_dog_10_n02098286_2582.png,n02098286_2582.png,0.0,-0.07802181,3.5292964,-2.550759
vit_b_16,1,287,NaN,boat,boat,1,0287_lp_dnn_1_boat_10_n03344393_4001.png,n03344393_4001.png,1.0,2.058967,0.2870674,1.2529223
vit_b_16,1,288,NaN,knife,bicycle,15,0288_lp_dnn_15_bicycle_10_n02835271_6122.png,n02835271_6122.png,0.0,-0.49037212,4.9260683,-3.8300018
vit_b_16,1,289,NaN,dog,dog,3,0289_lp_dnn_3_dog_10_n02091134_3075.png,n02091134_3075.png,1.0,1.4074367,0.27549282,0.80040526
vit_b_16,1,290,NaN,knife,oven,40,0290_lp_dnn_40_oven_10_n04111531_4795.png,n04111531_4795.png,0.0,0.3030974,5.481178,-3.6614559
vit_b_16,1,291,NaN,keyboard,bottle,10,0291_lp_dnn_10_bottle_10_n04591713_4876.png,n04591713_4876.png,0.0,1.0783557,3.4850788,-1.7018102
vit_b_16,1,292,NaN,bottle,bottle,0,0292_lp_dnn_0_bottle_10_n02823428_2510.png,n02823428_2510.png,1.0,2.7179103,0.24469537,1.748827
vit_b_16,1,293,NaN,keyboard,keyboard,1,0293_lp_dnn_1_keyboard_10_n03085013_5950.png,n03085013_5950.png,1.0,6.2141347,0.90269893,3.7557523
vit_b_16,1,294,NaN,cat,bear,5,0294_lp_dnn_5_bear_10_n02133161_1490.png,n02133161_1490.png,0.0,0.30183768,1.5317698,-0.86969334
vit_b_16,1,295,NaN,knife,truck,10,0295_lp_dnn_10_truck_10_n03796401_28465.png,n03796401_28465.png,0.0,0.052089036,3.6035495,-2.511262
vit_b_16,1,296,NaN,knife,bottle,15,0296_lp_dnn_15_bottle_10_n02823428_6627.png,n02823428_6627.png,0.0,0.994456,5.3708453,-3.0945747
vit_b_16,1,297,NaN,oven,truck,5,0297_lp_dnn_5_truck_10_n04467665_69582.png,n04467665_69582.png,0.0,0.3783738,4.218649,-2.7154846
vit_b_16,1,298,NaN,knife,bird,40,0298_lp_dnn_40_bird_10_n02006656_10568.png,n02006656_10568.png,0.0,-0.44568664,3.986174,-3.133799
vit_b_16,1,299,NaN,knife,car,40,0299_lp_dnn_40_car_10_n04285008_11748.png,n04285008_11748.png,0.0,-1.1308122,4.5609193,-4.024662
vit_b_16,1,300,NaN,truck,truck,5,0300_lp_dnn_5_truck_10_n04467665_44714.png,n04467665_44714.png,1.0,3.7270503,1.4147075,1.6350732
vit_b_16,1,301,NaN,airplane,airplane,3,0301_lp_dnn_3_airplane_10_n02690373_7487.png,n02690373_7487.png,1.0,9.403328,0.8385688,6.0561996
vit_b_16,1,302,NaN,knife,elephant,15,0302_lp_dnn_15_elephant_10_n02504458_7472.png,n02504458_7472.png,0.0,0.41882885,4.22706,-2.692826
vit_b_16,1,303,NaN,knife,boat,3,0303_lp_dnn_3_boat_10_n03662601_25023.png,n03662601_25023.png,0.0,-0.385038,1.728571,-1.4945474
vit_b_16,1,304,NaN,knife,knife,0,0304_lp_dnn_0_knife_10_n03041632_101673.png,n03041632_101673.png,1.0,5.047665,1.5870348,2.4470353
vit_b_16,1,305,NaN,knife,bottle,7,0305_lp_dnn_7_bottle_10_n03983396_587.png,n03983396_587.png,0.0,1.7732819,3.8860936,-1.4939834
vit_b_16,1,306,NaN,cat,cat,3,0306_lp_dnn_3_cat_10_n02124075_7692.png,n02124075_7692.png,1.0,2.3105814,2.0953016,0.15222582
vit_b_16,1,307,NaN,oven,oven,0,0307_lp_dnn_0_oven_10_n04111531_6313.png,n04111531_6313.png,1.0,9.525179,0.48959547,6.3891225
vit_b_16,1,308,NaN,knife,bird,7,0308_lp_dnn_7_bird_10_n02018795_5770.png,n02018795_5770.png,0.0,-0.37053156,2.885068,-2.3020566
vit_b_16,1,309,NaN,bottle,bottle,3,0309_lp_dnn_3_bottle_10_n02823428_4658.png,n02823428_4658.png,1.0,4.6058807,1.2737361,2.356182
vit_b_16,1,310,NaN,airplane,airplane,1,0310_lp_dnn_1_airplane_10_n02690373_2724.png,n02690373_2724.png,1.0,8.987547,0.22757712,6.194234
vit_b_16,1,311,NaN,knife,boat,40,0311_lp_dnn_40_boat_10_n04612504_7446.png,n04612504_7446.png,0.0,-1.10303,4.1510677,-3.7152083
vit_b_16,1,312,NaN,knife,boat,7,0312_lp_dnn_7_boat_10_n02951358_34783.png,n02951358_34783.png,0.0,-0.16134009,3.3609035,-2.4906023
vit_b_16,1,313,NaN,cat,cat,0,0313_lp_dnn_0_cat_10_n02123597_680.png,n02123597_680.png,1.0,3.3427744,0.42730263,2.06155
vit_b_16,1,314,NaN,knife,bear,10,0314_lp_dnn_10_bear_10_n02133161_9863.png,n02133161_9863.png,0.0,-0.05247596,2.5190458,-1.8183405
vit_b_16,1,315,NaN,bear,bear,1,0315_lp_dnn_1_bear_10_n02133161_2100.png,n02133161_2100.png,1.0,6.1115217,0.34545225,4.0772266
vit_b_16,1,316,NaN,oven,oven,3,0316_lp_dnn_3_oven_10_n04111531_8009.png,n04111531_8009.png,1.0,7.1835027,1.6344143,3.923798
vit_b_16,1,317,NaN,knife,car,40,0317_lp_dnn_40_car_10_n03100240_16525.png,n03100240_16525.png,0.0,-0.923731,4.8554406,-4.0864916
vit_b_16,1,318,NaN,keyboard,bird,5,0318_lp_dnn_5_bird_10_n01824575_4941.png,n01824575_4941.png,0.0,-0.26185107,1.1892359,-1.0260735
vit_b_16,1,319,NaN,knife,knife,15,0319_lp_dnn_15_knife_10_n03041632_289.png,n03041632_289.png,1.0,4.0368047,2.579157,1.0307125
vit_b_16,1,320,NaN,elephant,dog,10,0320_lp_dnn_10_dog_10_n02101006_15350.png,n02101006_15350.png,0.0,0.25539154,3.8891118,-2.5694282
vit_b_16,1,321,NaN,elephant,elephant,5,0321_lp_dnn_5_elephant_10_n02504458_1636.png,n02504458_1636.png,1.0,1.2232807,1.1033626,0.08479491
vit_b_16,1,322,NaN,keyboard,car,7,0322_lp_dnn_7_car_10_n04285008_8666.png,n04285008_8666.png,0.0,-0.34732953,2.1569781,-1.770813
vit_b_16,1,323,NaN,keyboard,bottle,5,0323_lp_dnn_5_bottle_10_n02823428_5451.png,n02823428_5451.png,0.0,1.6025654,2.6847205,-0.76519924
vit_b_16,1,324,NaN,car,car,3,0324_lp_dnn_3_car_10_n03100240_2495.png,n03100240_2495.png,1.0,6.147074,1.8642344,3.0284252
vit_b_16,1,325,NaN,knife,bicycle,10,0325_lp_dnn_10_bicycle_10_n02835271_19565.png,n02835271_19565.png,0.0,-0.6274115,3.0525231,-2.6021066
vit_b_16,1,326,NaN,airplane,airplane,1,0326_lp_dnn_1_airplane_10_n02690373_349.png,n02690373_349.png,1.0,9.05547,0.27374154,6.20962
vit_b_16,1,327,NaN,cat,cat,7,0327_lp_dnn_7_cat_10_n02123045_20512.png,n02123045_20512.png,1.0,3.5984192,1.4835851,1.4954135
vit_b_16,1,328,NaN,keyboard,keyboard,1,0328_lp_dnn_1_keyboard_10_n03085013_23619.png,n03085013_23619.png,1.0,5.7922916,1.2149435,3.236674
vit_b_16,1,329,NaN,knife,boat,7,0329_lp_dnn_7_boat_10_n03662601_16925.png,n03662601_16925.png,0.0,-0.3176332,2.9205616,-2.2897494
vit_b_16,1,330,NaN,clock,oven,10,0330_lp_dnn_10_oven_10_n04111531_12830.png,n04111531_12830.png,0.0,2.228501,3.2449214,-0.71871775
vit_b_16,1,331,NaN,knife,boat,5,0331_lp_dnn_5_boat_10_n02951358_33277.png,n02951358_33277.png,0.0,0.46269384,2.4788733,-1.425654
vit_b_16,1,332,NaN,knife,bear,15,0332_lp_dnn_15_bear_10_n02133161_156.png,n02133161_156.png,0.0,-0.6321852,2.1083984,-1.9378853
vit_b_16,1,333,NaN,knife,cat,40,0333_lp_dnn_40_cat_10_n02124075_6638.png,n02124075_6638.png,0.0,-0.31311747,3.8625708,-2.9526575
vit_b_16,1,334,NaN,knife,keyboard,10,0334_lp_dnn_10_keyboard_10_n04505470_4587.png,n04505470_4587.png,0.0,0.53768003,4.4779572,-2.7861967
vit_b_16,1,335,NaN,bear,bear,10,0335_lp_dnn_10_bear_10_n02134084_27899.png,n02134084_27899.png,1.0,2.3749192,1.8349587,0.38180974
vit_b_16,1,336,NaN,keyboard,keyboard,0,0336_lp_dnn_0_keyboard_10_n03085013_10984.png,n03085013_10984.png,1.0,5.9338465,0.4969759,3.844448
vit_b_16,1,337,NaN,bicycle,bottle,5,0337_lp_dnn_5_bottle_10_n03983396_10469.png,n03983396_10469.png,0.0,1.9580173,2.1336322,-0.12417844
vit_b_16,1,338,NaN,keyboard,knife,10,0338_lp_dnn_10_knife_10_n03041632_20707.png,n03041632_20707.png,0.0,1.7435268,3.1747365,-1.0120181
vit_b_16,1,339,NaN,car,car,1,0339_lp_dnn_1_car_10_n04285008_9411.png,n04285008_9411.png,1.0,5.839676,0.6442302,3.673735
vit_b_16,1,340,NaN,knife,airplane,40,0340_lp_dnn_40_airplane_10_n02690373_4671.png,n02690373_4671.png,0.0,0.034180805,4.3474803,-3.0499635
vit_b_16,1,341,NaN,knife,knife,7,0341_lp_dnn_7_knife_10_n03041632_16206.png,n03041632_16206.png,1.0,2.3872035,1.0927255,0.91533417
vit_b_16,1,342,NaN,knife,bicycle,5,0342_lp_dnn_5_bicycle_10_n03792782_7180.png,n03792782_7180.png,0.0,0.99738693,1.2873814,-0.20505707
vit_b_16,1,343,NaN,bear,bear,0,0343_lp_dnn_0_bear_10_n02134418_2719.png,n02134418_2719.png,1.0,3.3494048,0.047598552,2.3347297
vit_b_16,1,344,NaN,chair,chair,0,0344_lp_dnn_0_chair_10_n04099969_2038.png,n04099969_2038.png,1.0,4.138473,0.26536927,2.738698
vit_b_16,1,345,NaN,oven,dog,1,0345_lp_dnn_1_dog_10_n02113023_5237.png,n02113023_5237.png,0.0,0.2943324,0.70942384,-0.29351395
vit_b_16,1,346,NaN,knife,airplane,40,0346_lp_dnn_40_airplane_10_n02690373_2525.png,n02690373_2525.png,0.0,-0.6059624,5.4878664,-4.3089876
vit_b_16,1,347,NaN,clock,clock,7,0347_lp_dnn_7_clock_10_n04548280_219.png,n04548280_219.png,1.0,3.2549887,1.2345581,1.4286602
vit_b_16,1,348,NaN,knife,boat,15,0348_lp_dnn_15_boat_10_n04612504_2805.png,n04612504_2805.png,0.0,-1.0607641,4.750326,-4.1090617
vit_b_16,1,349,NaN,clock,clock,7,0349_lp_dnn_7_clock_10_n02708093_7020.png,n02708093_7020.png,1.0,5.032171,2.3956225,1.8643212
vit_b_16,1,350,NaN,bottle,oven,3,0350_lp_dnn_3_oven_10_n04111531_5171.png,n04111531_5171.png,0.0,1.19654,2.2080617,-0.7152539
vit_b_16,1,351,NaN,cat,cat,3,0351_lp_dnn_3_cat_10_n02125311_37322.png,n02125311_37322.png,1.0,2.4476545,0.47051525,1.3980486
vit_b_16,1,352,NaN,knife,cat,7,0352_lp_dnn_7_cat_10_n02123597_14094.png,n02123597_14094.png,0.0,-0.21525423,2.5967684,-1.9884003
vit_b_16,1,353,NaN,knife,boat,15,0353_lp_dnn_15_boat_10_n02951358_13352.png,n02951358_13352.png,0.0,-1.0691994,2.093531,-2.236388
vit_b_16,1,354,NaN,knife,bicycle,10,0354_lp_dnn_10_bicycle_10_n02835271_20445.png,n02835271_20445.png,0.0,-1.0407923,5.8728166,-4.88866
vit_b_16,1,355,NaN,oven,knife,7,0355_lp_dnn_7_knife_10_n03041632_4708.png,n03041632_4708.png,0.0,2.228594,2.5287294,-0.21222776
vit_b_16,1,356,NaN,oven,oven,7,0356_lp_dnn_7_oven_10_n04111531_505.png,n04111531_505.png,1.0,4.0576634,2.6341662,1.0065645
vit_b_16,1,357,NaN,bicycle,bicycle,1,0357_lp_dnn_1_bicycle_10_n03792782_104.png,n03792782_104.png,1.0,6.9362755,0.5841602,4.491624
vit_b_16,1,358,NaN,knife,bottle,40,0358_lp_dnn_40_bottle_10_n04591713_5204.png,n04591713_5204.png,0.0,1.6949514,5.360814,-2.5921564
vit_b_16,1,359,NaN,bicycle,bicycle,5,0359_lp_dnn_5_bicycle_10_n03792782_5578.png,n03792782_5578.png,1.0,5.90483,0.9999982,3.46824
vit_b_16,1,360,NaN,knife,truck,10,0360_lp_dnn_10_truck_10_n03417042_1437.png,n03417042_1437.png,0.0,-0.9145453,3.1765432,-2.8928363
vit_b_16,1,361,NaN,cat,cat,0,0361_lp_dnn_0_cat_10_n02123045_7482.png,n02123045_7482.png,1.0,4.0208745,0.15393735,2.7343376
vit_b_16,1,362,NaN,cat,bird,10,0362_lp_dnn_10_bird_10_n02037110_554.png,n02037110_554.png,0.0,-0.896643,2.661895,-2.5162663
vit_b_16,1,363,NaN,elephant,bicycle,5,0363_lp_dnn_5_bicycle_10_n03792782_15.png,n03792782_15.png,0.0,0.1933262,1.7028468,-1.0673922
vit_b_16,1,364,NaN,knife,bicycle,5,0364_lp_dnn_5_bicycle_10_n02835271_7450.png,n02835271_7450.png,0.0,0.021885157,1.7157714,-1.1977584
vit_b_16,1,365,NaN,oven,boat,5,0365_lp_dnn_5_boat_10_n03344393_3881.png,n03344393_3881.png,0.0,2.7236557,3.0358782,-0.22077464
vit_b_16,1,366,NaN,knife,chair,10,0366_lp_dnn_10_chair_10_n04099969_3623.png,n04099969_3623.png,0.0,0.12335758,2.7725606,-1.8732694
vit_b_16,1,367,NaN,airplane,airplane,5,0367_lp_dnn_5_airplane_10_n02690373_2579.png,n02690373_2579.png,1.0,6.117013,3.0791035,2.1481264
vit_b_16,1,368,NaN,knife,dog,15,0368_lp_dnn_15_dog_10_n02093859_3707.png,n02093859_3707.png,0.0,0.35171512,3.486541,-2.2166567
vit_b_16,1,369,NaN,bottle,bottle,1,0369_lp_dnn_1_bottle_10_n04560804_22426.png,n04560804_22426.png,1.0,2.5824733,2.2193663,0.2567554
vit_b_16,1,370,NaN,knife,clock,15,0370_lp_dnn_15_clock_10_n03196217_82.png,n03196217_82.png,0.0,1.4221686,4.398456,-2.104553
vit_b_16,1,371,NaN,car,car,5,0371_lp_dnn_5_car_10_n03100240_16907.png,n03100240_16907.png,1.0,4.276415,2.3891087,1.334527
vit_b_16,1,372,NaN,keyboard,oven,5,0372_lp_dnn_5_oven_10_n04111531_9548.png,n04111531_9548.png,0.0,-0.7698812,1.5798502,-1.6615111
vit_b_16,1,373,NaN,clock,clock,7,0373_lp_dnn_7_clock_10_n02708093_3751.png,n02708093_3751.png,1.0,5.7443256,0.6728638,3.586065
vit_b_16,1,374,NaN,oven,car,7,0374_lp_dnn_7_car_10_n02814533_6593.png,n02814533_6593.png,0.0,0.10038597,3.7448153,-2.5770009
vit_b_16,1,375,NaN,airplane,airplane,0,0375_lp_dnn_0_airplane_10_n02690373_3212.png,n02690373_3212.png,1.0,9.07191,0.29500508,6.206209
vit_b_16,1,376,NaN,cat,cat,1,0376_lp_dnn_1_cat_10_n02123045_5820.png,n02123045_5820.png,1.0,4.9216895,0.89940596,2.844184
vit_b_16,1,377,NaN,elephant,elephant,3,0377_lp_dnn_3_elephant_10_n02504458_205.png,n02504458_205.png,1.0,7.167616,0.8899715,4.438965
vit_b_16,1,378,NaN,knife,elephant,10,0378_lp_dnn_10_elephant_10_n02504013_3425.png,n02504013_3425.png,0.0,0.19986893,3.6093035,-2.4108343
vit_b_16,1,379,NaN,knife,bird,15,0379_lp_dnn_15_bird_10_n02056570_9572.png,n02056570_9572.png,0.0,-0.5495751,4.378835,-3.4849126
vit_b_16,1,380,NaN,knife,elephant,40,0380_lp_dnn_40_elephant_10_n02504013_7635.png,n02504013_7635.png,0.0,-0.8448974,5.188419,-4.2661986
vit_b_16,1,381,NaN,oven,boat,10,0381_lp_dnn_10_boat_10_n04273569_10716.png,n04273569_10716.png,0.0,-1.1508917,4.777086,-4.1917133
vit_b_16,1,382,NaN,knife,bear,15,0382_lp_dnn_15_bear_10_n02134084_19849.png,n02134084_19849.png,0.0,0.95247096,1.9323853,-0.6929041
vit_b_16,1,383,NaN,knife,boat,40,0383_lp_dnn_40_boat_10_n03662601_35800.png,n03662601_35800.png,0.0,-1.0864384,4.781405,-4.149192
vit_b_16,1,384,NaN,knife,bicycle,40,0384_lp_dnn_40_bicycle_10_n03792782_29276.png,n03792782_29276.png,0.0,-0.62476134,5.316574,-4.201159
vit_b_16,1,385,NaN,knife,oven,10,0385_lp_dnn_10_oven_10_n04111531_4392.png,n04111531_4392.png,0.0,0.068262056,2.29828,-1.5768608
vit_b_16,1,386,NaN,airplane,airplane,0,0386_lp_dnn_0_airplane_10_n02690373_7099.png,n02690373_7099.png,1.0,8.697886,0.14024629,6.0511656
vit_b_16,1,387,NaN,clock,cat,5,0387_lp_dnn_5_cat_10_n02124075_13187.png,n02124075_13187.png,0.0,0.45417586,1.4221534,-0.6844635
vit_b_16,1,388,NaN,knife,knife,0,0388_lp_dnn_0_knife_10_n03041632_32048.png,n03041632_32048.png,1.0,7.284316,0.6994531,4.6562014
vit_b_16,1,389,NaN,knife,airplane,3,0389_lp_dnn_3_airplane_10_n02690373_20074.png,n02690373_20074.png,0.0,0.3828265,1.3361619,-0.6741099
vit_b_16,1,390,NaN,truck,car,1,0390_lp_dnn_1_car_10_n02814533_83577.png,n02814533_83577.png,0.0,2.8693116,3.3723817,-0.3557243
vit_b_16,1,391,NaN,knife,airplane,40,0391_lp_dnn_40_airplane_10_n02690373_19134.png,n02690373_19134.png,0.0,0.41889125,3.4068782,-2.1128259
vit_b_16,1,392,NaN,knife,knife,3,0392_lp_dnn_3_knife_10_n03041632_13130.png,n03041632_13130.png,1.0,9.629475,0.59135294,6.390918
vit_b_16,1,393,NaN,knife,knife,0,0393_lp_dnn_0_knife_10_n03041632_1006.png,n03041632_1006.png,1.0,2.149096,0.5865898,1.1048588
vit_b_16,1,394,NaN,elephant,elephant,1,0394_lp_dnn_1_elephant_10_n02504458_7634.png,n02504458_7634.png,1.0,6.7354317,0.40874612,4.4736423
vit_b_16,1,395,NaN,bicycle,bicycle,1,0395_lp_dnn_1_bicycle_10_n02835271_17184.png,n02835271_17184.png,1.0,4.567593,0.46053767,2.904127
vit_b_16,1,396,NaN,oven,oven,0,0396_lp_dnn_0_oven_10_n04111531_2189.png,n04111531_2189.png,1.0,8.145571,1.6943891,4.561674
vit_b_16,1,397,NaN,knife,cat,15,0397_lp_dnn_15_cat_10_n02124075_11888.png,n02124075_11888.png,0.0,-0.37573275,5.038795,-3.8286495
vit_b_16,1,398,NaN,clock,cat,10,0398_lp_dnn_10_cat_10_n02123394_1690.png,n02123394_1690.png,0.0,0.8792166,2.7974331,-1.3563839
vit_b_16,1,399,NaN,airplane,dog,1,0399_lp_dnn_1_dog_10_n02111500_2905.png,n02111500_2905.png,0.0,0.006052769,0.4378234,-0.30530795
vit_b_16,1,400,NaN,knife,knife,5,0400_lp_dnn_5_knife_10_n03041632_20433.png,n03041632_20433.png,1.0,1.6316954,1.2451049,0.27336076
vit_b_16,1,401,NaN,knife,clock,15,0401_lp_dnn_15_clock_10_n04548280_22641.png,n04548280_22641.png,0.0,2.5309126,2.8526044,-0.22747043
vit_b_16,1,402,NaN,knife,bottle,15,0402_lp_dnn_15_bottle_10_n04557648_634.png,n04557648_634.png,0.0,1.709405,4.101126,-1.6912024
vit_b_16,1,403,NaN,truck,truck,1,0403_lp_dnn_1_truck_10_n04467665_69447.png,n04467665_69447.png,1.0,3.2318566,1.9172987,0.9295328
vit_b_16,1,404,NaN,elephant,elephant,3,0404_lp_dnn_3_elephant_10_n02504013_1777.png,n02504013_1777.png,1.0,5.4111323,0.22834162,3.6647866
vit_b_16,1,405,NaN,truck,truck,0,0405_lp_dnn_0_truck_10_n03796401_2559.png,n03796401_2559.png,1.0,2.4791777,1.1262883,0.9566373
vit_b_16,1,406,NaN,car,car,1,0406_lp_dnn_1_car_10_n02814533_42547.png,n02814533_42547.png,1.0,4.768564,0.35340366,3.1219902
vit_b_16,1,407,NaN,knife,clock,15,0407_lp_dnn_15_clock_10_n04548280_7181.png,n04548280_7181.png,0.0,1.4632163,3.1855845,-1.2178982
vit_b_16,1,408,NaN,boat,boat,1,0408_lp_dnn_1_boat_10_n03344393_5030.png,n03344393_5030.png,1.0,2.4828937,0.5395272,1.3741677
vit_b_16,1,409,NaN,knife,bottle,15,0409_lp_dnn_15_bottle_10_n04591713_2952.png,n04591713_2952.png,0.0,0.43849897,2.0513082,-1.1404283
vit_b_16,1,410,NaN,keyboard,keyboard,5,0410_lp_dnn_5_keyboard_10_n04505470_4742.png,n04505470_4742.png,1.0,4.6979094,2.1960533,1.7690794
vit_b_16,1,411,NaN,knife,bear,7,0411_lp_dnn_7_bear_10_n02134418_4696.png,n02134418_4696.png,0.0,0.88427854,2.1310675,-0.88161296
vit_b_16,1,412,NaN,knife,bear,40,0412_lp_dnn_40_bear_10_n02132136_5815.png,n02132136_5815.png,0.0,-1.0233202,5.5193663,-4.626378
vit_b_16,1,413,NaN,knife,bicycle,15,0413_lp_dnn_15_bicycle_10_n02835271_8203.png,n02835271_8203.png,0.0,-0.54697937,2.8478146,-2.400482
vit_b_16,1,414,NaN,knife,car,40,0414_lp_dnn_40_car_10_n04285008_12868.png,n04285008_12868.png,0.0,-0.9763054,4.944644,-4.1867437
vit_b_16,1,415,NaN,knife,bear,40,0415_lp_dnn_40_bear_10_n02132136_7074.png,n02132136_7074.png,0.0,-1.1441338,4.228228,-3.7988338
vit_b_16,1,416,NaN,boat,boat,3,0416_lp_dnn_3_boat_10_n03344393_8265.png,n03344393_8265.png,1.0,2.4301536,1.8839654,0.38621342
vit_b_16,1,417,NaN,knife,truck,10,0417_lp_dnn_10_truck_10_n04467665_12177.png,n04467665_12177.png,0.0,-0.27687982,3.022272,-2.3328526
vit_b_16,1,418,NaN,car,car,3,0418_lp_dnn_3_car_10_n03100240_8987.png,n03100240_8987.png,1.0,6.284673,1.854983,3.1322641
vit_b_16,1,419,NaN,keyboard,bird,15,0419_lp_dnn_15_bird_10_n01530575_10601.png,n01530575_10601.png,0.0,-0.12565978,2.666206,-1.9741471
vit_b_16,1,420,NaN,knife,keyboard,15,0420_lp_dnn_15_keyboard_10_n04505470_313.png,n04505470_313.png,0.0,3.284295,3.67592,-0.27692065
vit_b_16,1,421,NaN,airplane,truck,1,0421_lp_dnn_1_truck_10_n03417042_5371.png,n03417042_5371.png,0.0,2.4971967,3.269599,-0.5461709
vit_b_16,1,422,NaN,truck,truck,0,0422_lp_dnn_0_truck_10_n03796401_29952.png,n03796401_29952.png,1.0,1.3073156,0.6495268,0.46512693
vit_b_16,1,423,NaN,bicycle,bicycle,5,0423_lp_dnn_5_bicycle_10_n03792782_6159.png,n03792782_6159.png,1.0,4.7228103,2.6529224,1.4636317
vit_b_16,1,424,NaN,elephant,elephant,7,0424_lp_dnn_7_elephant_10_n02504458_1336.png,n02504458_1336.png,1.0,5.869371,1.2630259,3.257178
vit_b_16,1,425,NaN,clock,bicycle,10,0425_lp_dnn_10_bicycle_10_n02835271_8597.png,n02835271_8597.png,0.0,-0.67630076,1.8915621,-1.8157533
vit_b_16,1,426,NaN,keyboard,keyboard,3,0426_lp_dnn_3_keyboard_10_n04505470_3615.png,n04505470_3615.png,1.0,4.879964,1.5142063,2.37995
vit_b_16,1,427,NaN,elephant,dog,7,0427_lp_dnn_7_dog_10_n02090721_7040.png,n02090721_7040.png,0.0,1.0734359,2.8445916,-1.2523962
vit_b_16,1,428,NaN,cat,cat,0,0428_lp_dnn_0_cat_10_n02124075_17347.png,n02124075_17347.png,1.0,3.9332914,0.8441788,2.1843326
vit_b_16,1,429,NaN,keyboard,keyboard,0,0429_lp_dnn_0_keyboard_10_n03085013_23018.png,n03085013_23018.png,1.0,5.5996113,0.6533482,3.4975364
vit_b_16,1,430,NaN,knife,car,40,0430_lp_dnn_40_car_10_n03100240_5018.png,n03100240_5018.png,0.0,-0.9877184,4.3195696,-3.7528195
vit_b_16,1,431,NaN,knife,dog,40,0431_lp_dnn_40_dog_10_n02105056_12631.png,n02105056_12631.png,0.0,-0.6718039,4.818824,-3.88246
vit_b_16,1,432,NaN,knife,knife,15,0432_lp_dnn_15_knife_10_n03041632_27848.png,n03041632_27848.png,1.0,4.362289,4.19385,0.119104296
vit_b_16,1,433,NaN,keyboard,keyboard,3,0433_lp_dnn_3_keyboard_10_n04505470_4432.png,n04505470_4432.png,1.0,5.0987997,1.5476897,2.511014
vit_b_16,1,434,NaN,knife,bear,15,0434_lp_dnn_15_bear_10_n02132136_786.png,n02132136_786.png,0.0,-0.6621862,3.7814152,-3.1421008
vit_b_16,1,435,NaN,knife,truck,15,0435_lp_dnn_15_truck_10_n03796401_10519.png,n03796401_10519.png,0.0,-1.3501751,3.5104651,-3.436992
vit_b_16,1,436,NaN,airplane,airplane,5,0436_lp_dnn_5_airplane_10_n02690373_9086.png,n02690373_9086.png,1.0,7.6298313,1.1650766,4.571272
vit_b_16,1,437,NaN,boat,boat,0,0437_lp_dnn_0_boat_10_n02951358_512.png,n02951358_512.png,1.0,1.698402,0.17601454,1.0764905
vit_b_16,1,438,NaN,clock,bear,10,0438_lp_dnn_10_bear_10_n02132136_10468.png,n02132136_10468.png,0.0,0.21706077,1.8154312,-1.1302186
vit_b_16,1,439,NaN,bottle,bear,5,0439_lp_dnn_5_bear_10_n02134084_13175.png,n02134084_13175.png,0.0,-0.8098147,1.9419451,-1.945788
vit_b_16,1,440,NaN,knife,dog,10,0440_lp_dnn_10_dog_10_n02088364_2119.png,n02088364_2119.png,0.0,-0.03290476,3.4675126,-2.475169
vit_b_16,1,441,NaN,boat,boat,1,0441_lp_dnn_1_boat_10_n04612504_26238.png,n04612504_26238.png,1.0,2.4141164,0.3689714,1.446136
vit_b_16,1,442,NaN,knife,bear,3,0442_lp_dnn_3_bear_10_n02134084_20142.png,n02134084_20142.png,0.0,0.1934658,2.540883,-1.6598748
vit_b_16,1,443,NaN,dog,dog,5,0443_lp_dnn_5_dog_10_n02107683_1076.png,n02107683_1076.png,1.0,0.4784354,0.39610946,0.058213226
vit_b_16,1,444,NaN,car,car,3,0444_lp_dnn_3_car_10_n02814533_35386.png,n02814533_35386.png,1.0,2.88733,1.1142622,1.2537483
vit_b_16,1,445,NaN,bird,bird,3,0445_lp_dnn_3_bird_10_n01531178_15380.png,n01531178_15380.png,1.0,1.9987763,1.5122848,0.3440015
vit_b_16,1,446,NaN,oven,bear,7,0446_lp_dnn_7_bear_10_n02134084_17529.png,n02134084_17529.png,0.0,0.75731426,3.6108198,-2.017733
vit_b_16,1,447,NaN,knife,bicycle,10,0447_lp_dnn_10_bicycle_10_n02835271_22623.png,n02835271_22623.png,0.0,0.38947845,4.361082,-2.808348
vit_b_16,1,448,NaN,knife,chair,15,0448_lp_dnn_15_chair_10_n02791124_3160.png,n02791124_3160.png,0.0,-0.5467245,2.9725645,-2.4885132
vit_b_16,1,449,NaN,bottle,bottle,0,0449_lp_dnn_0_bottle_10_n02823428_2422.png,n02823428_2422.png,1.0,3.7139935,0.4110501,2.3355339
vit_b_16,1,450,NaN,knife,bear,7,0450_lp_dnn_7_bear_10_n02134084_34902.png,n02134084_34902.png,0.0,-0.9769621,2.3533037,-2.3548536
vit_b_16,1,451,NaN,knife,bicycle,15,0451_lp_dnn_15_bicycle_10_n02835271_3535.png,n02835271_3535.png,0.0,-0.5960377,4.5899835,-3.6670709
vit_b_16,1,452,NaN,oven,oven,1,0452_lp_dnn_1_oven_10_n04111531_10640.png,n04111531_10640.png,1.0,9.941895,1.4319319,6.0174527
vit_b_16,1,453,NaN,knife,keyboard,40,0453_lp_dnn_40_keyboard_10_n04505470_1338.png,n04505470_1338.png,0.0,1.4006598,4.5977936,-2.260715
vit_b_16,1,454,NaN,keyboard,keyboard,0,0454_lp_dnn_0_keyboard_10_n03085013_26656.png,n03085013_26656.png,1.0,3.1785452,0.34509867,2.0035493
vit_b_16,1,455,NaN,knife,boat,5,0455_lp_dnn_5_boat_10_n03344393_9575.png,n03344393_9575.png,0.0,1.1425635,1.8972915,-0.53367335
vit_b_16,1,456,NaN,boat,boat,1,0456_lp_dnn_1_boat_10_n03344393_4616.png,n03344393_4616.png,1.0,2.2694516,0.19879413,1.4641759
vit_b_16,1,457,NaN,bicycle,bicycle,0,0457_lp_dnn_0_bicycle_10_n02835271_11929.png,n02835271_11929.png,1.0,5.8674297,0.2454267,3.9753566
vit_b_16,1,458,NaN,keyboard,keyboard,3,0458_lp_dnn_3_keyboard_10_n03085013_20515.png,n03085013_20515.png,1.0,4.703685,0.5804507,2.915567
vit_b_16,1,459,NaN,knife,dog,40,0459_lp_dnn_40_dog_10_n02088364_3791.png,n02088364_3791.png,0.0,-0.75549024,4.7568073,-3.897783
vit_b_16,1,460,NaN,airplane,airplane,0,0460_lp_dnn_0_airplane_10_n02690373_10114.png,n02690373_10114.png,1.0,9.28782,0.21748921,6.4136925
vit_b_16,1,461,NaN,knife,airplane,10,0461_lp_dnn_10_airplane_10_n02690373_8543.png,n02690373_8543.png,0.0,-0.71563756,4.7589817,-3.8711405
vit_b_16,1,462,NaN,knife,chair,7,0462_lp_dnn_7_chair_10_n04429376_14967.png,n04429376_14967.png,0.0,0.82433736,4.91571,-2.8930373
vit_b_16,1,463,NaN,clock,cat,15,0463_lp_dnn_15_cat_10_n02125311_24439.png,n02125311_24439.png,0.0,0.028495735,3.7206783,-2.6107674
vit_b_16,1,464,NaN,oven,truck,5,0464_lp_dnn_5_truck_10_n03417042_4665.png,n03417042_4665.png,0.0,2.2817755,4.268752,-1.4050046
vit_b_16,1,465,NaN,knife,elephant,40,0465_lp_dnn_40_elephant_10_n02504013_4044.png,n02504013_4044.png,0.0,-0.43578583,5.1304555,-3.935927
vit_b_16,1,466,NaN,knife,bird,1,0466_lp_dnn_1_bird_10_n01843065_3596.png,n01843065_3596.png,0.0,0.046004195,0.66331184,-0.43650246
vit_b_16,1,467,NaN,knife,bird,10,0467_lp_dnn_10_bird_10_n02011460_17499.png,n02011460_17499.png,0.0,-0.63274884,4.5370245,-3.6555817
vit_b_16,1,468,NaN,elephant,elephant,0,0468_lp_dnn_0_elephant_10_n02504458_7506.png,n02504458_7506.png,1.0,6.9165177,0.59174883,4.472287
vit_b_16,1,469,NaN,knife,keyboard,40,0469_lp_dnn_40_keyboard_10_n03085013_21955.png,n03085013_21955.png,0.0,0.6985997,5.662729,-3.5101693
vit_b_16,1,470,NaN,knife,clock,40,0470_lp_dnn_40_clock_10_n02708093_7810.png,n02708093_7810.png,0.0,1.9777783,4.374635,-1.6948338
vit_b_16,1,471,NaN,knife,car,40,0471_lp_dnn_40_car_10_n02814533_7984.png,n02814533_7984.png,0.0,-0.78519076,5.2461233,-4.264783
vit_b_16,1,472,NaN,dog,dog,5,0472_lp_dnn_5_dog_10_n02106382_1806.png,n02106382_1806.png,1.0,1.3260409,1.0100268,0.22345568
vit_b_16,1,473,NaN,knife,chair,15,0473_lp_dnn_15_chair_10_n02791124_3890.png,n02791124_3890.png,0.0,-1.1241236,2.6760006,-2.6870935
vit_b_16,1,474,NaN,elephant,elephant,7,0474_lp_dnn_7_elephant_10_n02504013_16929.png,n02504013_16929.png,1.0,6.5080724,1.3462886,3.6499324
vit_b_16,1,475,NaN,elephant,elephant,7,0475_lp_dnn_7_elephant_10_n02504013_8052.png,n02504013_8052.png,1.0,7.04508,2.2816367,3.3682632
vit_b_16,1,476,NaN,bear,bear,1,0476_lp_dnn_1_bear_10_n02132136_1584.png,n02132136_1584.png,1.0,6.353657,1.1792687,3.658845
vit_b_16,1,477,NaN,keyboard,keyboard,1,0477_lp_dnn_1_keyboard_10_n04505470_532.png,n04505470_532.png,1.0,4.8526597,0.35360307,3.1813138
vit_b_16,1,478,NaN,airplane,airplane,1,0478_lp_dnn_1_airplane_10_n02690373_3988.png,n02690373_3988.png,1.0,8.796684,0.2045159,6.075581
vit_b_16,1,479,NaN,knife,bicycle,15,0479_lp_dnn_15_bicycle_10_n03792782_13051.png,n03792782_13051.png,0.0,-0.44944346,2.40054,-2.0152428
vit_b_16,1,480,NaN,bear,bear,3,0480_lp_dnn_3_bear_10_n02134084_4818.png,n02134084_4818.png,1.0,3.4239073,0.4555074,2.098976
vit_b_16,1,481,NaN,knife,boat,10,0481_lp_dnn_10_boat_10_n02951358_9146.png,n02951358_9146.png,0.0,-1.0390842,3.1204267,-2.9412181
vit_b_16,1,482,NaN,knife,keyboard,40,0482_lp_dnn_40_keyboard_10_n03085013_19317.png,n03085013_19317.png,0.0,0.8084899,4.349831,-2.5041065
vit_b_16,1,483,NaN,knife,bicycle,40,0483_lp_dnn_40_bicycle_10_n03792782_17666.png,n03792782_17666.png,0.0,-0.88259685,5.110169,-4.2375255
vit_b_16,1,484,NaN,knife,bear,40,0484_lp_dnn_40_bear_10_n02133161_20090.png,n02133161_20090.png,0.0,-1.0658376,5.377524,-4.5561447
vit_b_16,1,485,NaN,clock,bottle,3,0485_lp_dnn_3_bottle_10_n03937543_11101.png,n03937543_11101.png,0.0,0.7146799,1.396876,-0.4823855
vit_b_16,1,486,NaN,elephant,bear,7,0486_lp_dnn_7_bear_10_n02133161_2281.png,n02133161_2281.png,0.0,3.867129,4.003798,-0.09663952
vit_b_16,1,487,NaN,knife,airplane,10,0487_lp_dnn_10_airplane_10_n02690373_8813.png,n02690373_8813.png,0.0,-1.063581,4.2050295,-3.7254703
vit_b_16,1,488,NaN,knife,boat,40,0488_lp_dnn_40_boat_10_n03662601_33625.png,n03662601_33625.png,0.0,-0.7479098,3.6230593,-3.0907416
vit_b_16,1,489,NaN,knife,cat,40,0489_lp_dnn_40_cat_10_n02124075_9066.png,n02124075_9066.png,0.0,-0.61687523,4.647178,-3.7222478
vit_b_16,1,490,NaN,truck,oven,3,0490_lp_dnn_3_oven_10_n04111531_10216.png,n04111531_10216.png,0.0,1.1939247,2.9046311,-1.2096522
vit_b_16,1,491,NaN,elephant,bird,7,0491_lp_dnn_7_bird_10_n01614925_1097.png,n01614925_1097.png,0.0,0.24666919,2.4240727,-1.5396568
vit_b_16,1,492,NaN,oven,bird,0,0492_lp_dnn_0_bird_10_n02017213_1163.png,n02017213_1163.png,0.0,0.021947306,0.20243277,-0.1276225
vit_b_16,1,493,NaN,knife,oven,40,0493_lp_dnn_40_oven_10_n04111531_283.png,n04111531_283.png,0.0,0.33527154,4.4751234,-2.9273176
vit_b_16,1,494,NaN,knife,truck,15,0494_lp_dnn_15_truck_10_n04467665_39317.png,n04467665_39317.png,0.0,-0.67352736,5.7924924,-4.5721664
vit_b_16,1,495,NaN,airplane,dog,1,0495_lp_dnn_1_dog_10_n02093754_5037.png,n02093754_5037.png,0.0,0.02312559,0.49768627,-0.3355651
vit_b_16,1,496,NaN,knife,bicycle,40,0496_lp_dnn_40_bicycle_10_n02835271_2580.png,n02835271_2580.png,0.0,-0.7117783,5.5428967,-4.4227233
vit_b_16,1,497,NaN,airplane,airplane,7,0497_lp_dnn_7_airplane_10_n02690373_2564.png,n02690373_2564.png,1.0,3.0943806,2.583386,0.3613278
vit_b_16,1,498,NaN,knife,truck,40,0498_lp_dnn_40_truck_10_n04467665_62626.png,n04467665_62626.png,0.0,-1.320992,4.7112365,-4.2654295
vit_b_16,1,499,NaN,elephant,chair,10,0499_lp_dnn_10_chair_10_n04429376_2450.png,n04429376_2450.png,0.0,-0.013891488,3.346407,-2.3760898
vit_b_16,1,500,NaN,keyboard,keyboard,0,0500_lp_dnn_0_keyboard_10_n04505470_4044.png,n04505470_4044.png,1.0,5.350046,0.36974162,3.5216074
vit_b_16,1,501,NaN,knife,oven,15,0501_lp_dnn_15_oven_10_n04111531_8269.png,n04111531_8269.png,0.0,3.2236528,3.4508667,-0.16066447
vit_b_16,1,502,NaN,clock,clock,7,0502_lp_dnn_7_clock_10_n02708093_6890.png,n02708093_6890.png,1.0,5.979961,0.16667719,4.1106124
vit_b_16,1,503,NaN,knife,oven,40,0503_lp_dnn_40_oven_10_n04111531_15947.png,n04111531_15947.png,0.0,-0.44605455,3.120921,-2.5222325
vit_b_16,1,504,NaN,knife,bicycle,15,0504_lp_dnn_15_bicycle_10_n03792782_24734.png,n03792782_24734.png,0.0,-0.4037137,2.4636235,-2.0275137
vit_b_16,1,505,NaN,knife,chair,40,0505_lp_dnn_40_chair_10_n04099969_10401.png,n04099969_10401.png,0.0,0.14106181,4.187657,-2.8613749
vit_b_16,1,506,NaN,elephant,elephant,3,0506_lp_dnn_3_elephant_10_n02504458_2994.png,n02504458_2994.png,1.0,7.886731,0.57406783,5.1708336
vit_b_16,1,507,NaN,dog,dog,0,0507_lp_dnn_0_dog_10_n02108422_1164.png,n02108422_1164.png,1.0,0.91834795,0.5426241,0.2656769
vit_b_16,1,508,NaN,clock,clock,5,0508_lp_dnn_5_clock_10_n04548280_2421.png,n04548280_2421.png,1.0,6.4828467,0.35258994,4.3347464
vit_b_16,1,509,NaN,bear,oven,5,0509_lp_dnn_5_oven_10_n04111531_2930.png,n04111531_2930.png,0.0,-0.74707025,1.2829077,-1.4354112
vit_b_16,1,510,NaN,bear,bear,1,0510_lp_dnn_1_bear_10_n02132136_4271.png,n02132136_4271.png,1.0,6.105467,0.3490442,4.0704055
vit_b_16,1,511,NaN,oven,oven,7,0511_lp_dnn_7_oven_10_n04111531_8603.png,n04111531_8603.png,1.0,3.8990762,1.8720125,1.4333506
vit_b_16,1,512,NaN,knife,bicycle,40,0512_lp_dnn_40_bicycle_10_n02835271_16850.png,n02835271_16850.png,0.0,-0.632468,4.022619,-3.2916434
vit_b_16,1,513,NaN,knife,knife,3,0513_lp_dnn_3_knife_10_n03041632_47410.png,n03041632_47410.png,1.0,7.7463365,0.2365443,5.310225
vit_b_16,1,514,NaN,knife,elephant,15,0514_lp_dnn_15_elephant_10_n02504458_1000.png,n02504458_1000.png,0.0,-0.07156661,3.0166662,-2.1837103
vit_b_16,1,515,NaN,cat,cat,1,0515_lp_dnn_1_cat_10_n02124075_8884.png,n02124075_8884.png,1.0,3.9526865,0.64477265,2.3390484
vit_b_16,1,516,NaN,knife,bird,7,0516_lp_dnn_7_bird_10_n01622779_1370.png,n01622779_1370.png,0.0,-0.25845543,2.1088362,-1.673928
vit_b_16,1,517,NaN,cat,cat,0,0517_lp_dnn_0_cat_10_n02123045_8215.png,n02123045_8215.png,1.0,4.154316,0.37877977,2.6697073
vit_b_16,1,518,NaN,car,car,5,0518_lp_dnn_5_car_10_n03100240_3083.png,n03100240_3083.png,1.0,5.6711173,2.45823,2.2718544
vit_b_16,1,519,NaN,elephant,bicycle,3,0519_lp_dnn_3_bicycle_10_n03792782_9280.png,n03792782_9280.png,0.0,1.7049648,2.1532726,-0.31700155
vit_b_16,1,520,NaN,cat,bird,5,0520_lp_dnn_5_bird_10_n01819313_3505.png,n01819313_3505.png,0.0,-0.13100478,1.5157713,-1.1644466
vit_b_16,1,521,NaN,knife,bird,15,0521_lp_dnn_15_bird_10_n01531178_5130.png,n01531178_5130.png,0.0,-0.6852498,3.6618419,-3.073858
vit_b_16,1,522,NaN,knife,clock,15,0522_lp_dnn_15_clock_10_n02708093_2867.png,n02708093_2867.png,0.0,3.4805005,4.4299865,-0.67138803
vit_b_16,1,523,NaN,keyboard,bear,7,0523_lp_dnn_7_bear_10_n02134418_258.png,n02134418_258.png,0.0,-0.19989768,1.9379157,-1.5116624
vit_b_16,1,524,NaN,bottle,bottle,1,0524_lp_dnn_1_bottle_10_n02823428_8280.png,n02823428_8280.png,1.0,3.1379528,1.9018123,0.87408334
vit_b_16,1,525,NaN,knife,elephant,7,0525_lp_dnn_7_elephant_10_n02504013_24811.png,n02504013_24811.png,0.0,0.24732958,1.9015698,-1.1697245
vit_b_16,1,526,NaN,knife,bicycle,40,0526_lp_dnn_40_bicycle_10_n02835271_14499.png,n02835271_14499.png,0.0,-0.9084366,4.399625,-3.7533665
vit_b_16,1,527,NaN,bottle,bottle,0,0527_lp_dnn_0_bottle_10_n02823428_14536.png,n02823428_14536.png,1.0,2.561855,0.21341762,1.6605961
vit_b_16,1,528,NaN,knife,knife,5,0528_lp_dnn_5_knife_10_n03041632_21723.png,n03041632_21723.png,1.0,2.0650425,1.0596437,0.71092427
vit_b_16,1,529,NaN,knife,cat,10,0529_lp_dnn_10_cat_10_n02123159_8396.png,n02123159_8396.png,0.0,0.5887058,2.846468,-1.5964789
vit_b_16,1,530,NaN,knife,bottle,40,0530_lp_dnn_40_bottle_10_n02823428_3486.png,n02823428_3486.png,0.0,1.5960528,3.9345682,-1.6535801
vit_b_16,1,531,NaN,elephant,bird,0,0531_lp_dnn_0_bird_10_n01514859_12705.png,n01514859_12705.png,0.0,0.052705985,0.31889382,-0.18822323
vit_b_16,1,532,NaN,dog,dog,7,0532_lp_dnn_7_dog_10_n02097047_911.png,n02097047_911.png,1.0,0.6787565,0.4869616,0.13561946
vit_b_16,1,533,NaN,knife,keyboard,10,0533_lp_dnn_10_keyboard_10_n04505470_3132.png,n04505470_3132.png,0.0,3.3155077,4.1568522,-0.59492046
vit_b_16,1,534,NaN,airplane,airplane,1,0534_lp_dnn_1_airplane_10_n02690373_11908.png,n02690373_11908.png,1.0,8.923602,0.34886357,6.063256
vit_b_16,1,535,NaN,knife,elephant,40,0535_lp_dnn_40_elephant_10_n02504458_5169.png,n02504458_5169.png,0.0,-1.0672609,4.231979,-3.7471282
vit_b_16,1,536,NaN,knife,bottle,15,0536_lp_dnn_15_bottle_10_n03937543_5375.png,n03937543_5375.png,0.0,0.52746034,4.7478447,-2.9842627
vit_b_16,1,537,NaN,bottle,bottle,1,0537_lp_dnn_1_bottle_10_n04591713_6138.png,n04591713_6138.png,1.0,3.0830128,0.76472867,1.6392744
vit_b_16,1,538,NaN,knife,bottle,15,0538_lp_dnn_15_bottle_10_n04557648_12559.png,n04557648_12559.png,0.0,0.99845916,6.991306,-4.2375827
vit_b_16,1,539,NaN,knife,clock,40,0539_lp_dnn_40_clock_10_n03196217_3903.png,n03196217_3903.png,0.0,3.1339042,4.4473577,-0.9287518
vit_b_16,1,540,NaN,knife,keyboard,15,0540_lp_dnn_15_keyboard_10_n04505470_4732.png,n04505470_4732.png,0.0,2.592586,4.002245,-0.9967794
vit_b_16,1,541,NaN,knife,knife,40,0541_lp_dnn_40_knife_10_n03041632_8468.png,n03041632_8468.png,1.0,5.05844,1.6847407,2.385566
vit_b_16,1,542,NaN,chair,chair,3,0542_lp_dnn_3_chair_10_n02791124_14040.png,n02791124_14040.png,1.0,3.075188,1.0471846,1.4340148
vit_b_16,1,543,NaN,knife,boat,15,0543_lp_dnn_15_boat_10_n04273569_3095.png,n04273569_3095.png,0.0,-1.1878065,6.4098363,-5.372345
vit_b_16,1,544,NaN,oven,bird,1,0544_lp_dnn_1_bird_10_n02002724_18548.png,n02002724_18548.png,0.0,0.23042457,0.44127437,-0.14909333
vit_b_16,1,545,NaN,knife,oven,10,0545_lp_dnn_10_oven_10_n04111531_8537.png,n04111531_8537.png,0.0,0.34732667,3.7843003,-2.4303074
vit_b_16,1,546,NaN,knife,chair,40,0546_lp_dnn_40_chair_10_n02791124_1935.png,n02791124_1935.png,0.0,0.13780858,4.3531485,-2.9806952
vit_b_16,1,547,NaN,bear,dog,5,0547_lp_dnn_5_dog_10_n02102040_1660.png,n02102040_1660.png,0.0,1.0349922,1.7653182,-0.51641846
vit_b_16,1,548,NaN,bear,bear,0,0548_lp_dnn_0_bear_10_n02134084_7790.png,n02134084_7790.png,1.0,3.5819647,0.39069036,2.2565718
vit_b_16,1,549,NaN,knife,knife,10,0549_lp_dnn_10_knife_10_n03041632_17091.png,n03041632_17091.png,1.0,3.9966762,2.9534657,0.73766124
vit_b_16,1,550,NaN,knife,keyboard,5,0550_lp_dnn_5_keyboard_10_n04505470_9331.png,n04505470_9331.png,0.0,2.2982383,2.3539784,-0.039414216
vit_b_16,1,551,NaN,airplane,airplane,5,0551_lp_dnn_5_airplane_10_n02690373_6887.png,n02690373_6887.png,1.0,7.2509804,2.3850994,3.4406974
vit_b_16,1,552,NaN,keyboard,chair,1,0552_lp_dnn_1_chair_10_n02791124_2540.png,n02791124_2540.png,0.0,2.02704,2.8918824,-0.61153597
vit_b_16,1,553,NaN,truck,truck,3,0553_lp_dnn_3_truck_10_n03796401_23774.png,n03796401_23774.png,1.0,3.687722,1.401044,1.6169255
vit_b_16,1,554,NaN,knife,knife,40,0554_lp_dnn_40_knife_10_n03041632_28201.png,n03041632_28201.png,1.0,4.939511,1.7312313,2.2685964
vit_b_16,1,555,NaN,clock,clock,5,0555_lp_dnn_5_clock_10_n04548280_3563.png,n04548280_3563.png,1.0,3.137975,2.2181284,0.6504297
vit_b_16,1,556,NaN,bicycle,bicycle,0,0556_lp_dnn_0_bicycle_10_n03792782_8287.png,n03792782_8287.png,1.0,8.622702,1.085427,5.329658
vit_b_16,1,557,NaN,clock,clock,3,0557_lp_dnn_3_clock_10_n04548280_4225.png,n04548280_4225.png,1.0,4.5799623,0.5444997,2.8535028
vit_b_16,1,558,NaN,car,car,0,0558_lp_dnn_0_car_10_n04285008_11931.png,n04285008_11931.png,1.0,6.4332356,0.15621284,4.4385257
vit_b_16,1,559,NaN,elephant,elephant,5,0559_lp_dnn_5_elephant_10_n02504013_9396.png,n02504013_9396.png,1.0,4.760105,1.6524155,2.1974685
vit_b_16,1,560,NaN,knife,boat,40,0560_lp_dnn_40_boat_10_n03344393_2915.png,n03344393_2915.png,0.0,-1.1241379,5.0437264,-4.3613386
vit_b_16,1,561,NaN,knife,bicycle,7,0561_lp_dnn_7_bicycle_10_n03792782_9692.png,n03792782_9692.png,0.0,0.5585862,2.2392554,-1.1884127
vit_b_16,1,562,NaN,keyboard,chair,7,0562_lp_dnn_7_chair_10_n02791124_57.png,n02791124_57.png,0.0,1.4050072,4.888771,-2.463393
vit_b_16,1,563,NaN,knife,car,40,0563_lp_dnn_40_car_10_n04285008_3185.png,n04285008_3185.png,0.0,-0.79290074,4.2863035,-3.5915396
vit_b_16,1,564,NaN,boat,boat,1,0564_lp_dnn_1_boat_10_n02951358_34917.png,n02951358_34917.png,1.0,2.0587277,0.3593303,1.2016555
vit_b_16,1,565,NaN,clock,clock,0,0565_lp_dnn_0_clock_10_n02708093_2762.png,n02708093_2762.png,1.0,5.605385,0.47686172,3.6264133
vit_b_16,1,566,NaN,knife,knife,5,0566_lp_dnn_5_knife_10_n03041632_4879.png,n03041632_4879.png,1.0,9.870652,0.49687704,6.62826
vit_b_16,1,567,NaN,car,car,0,0567_lp_dnn_0_car_10_n02814533_4689.png,n02814533_4689.png,1.0,2.998627,1.2964876,1.2035943
vit_b_16,1,568,NaN,boat,boat,1,0568_lp_dnn_1_boat_10_n02951358_2445.png,n02951358_2445.png,1.0,1.8902534,0.4063622,1.0492696
vit_b_16,1,569,NaN,knife,truck,40,0569_lp_dnn_40_truck_10_n03417042_10038.png,n03417042_10038.png,0.0,-1.121412,4.6589546,-4.0873365
vit_b_16,1,570,NaN,oven,car,10,0570_lp_dnn_10_car_10_n02814533_32924.png,n02814533_32924.png,0.0,-0.4999292,4.4957833,-3.5325022
vit_b_16,1,571,NaN,knife,bottle,10,0571_lp_dnn_10_bottle_10_n02823428_5135.png,n02823428_5135.png,0.0,0.6212186,1.7151536,-0.7735289
vit_b_16,1,572,NaN,keyboard,keyboard,1,0572_lp_dnn_1_keyboard_10_n03085013_9066.png,n03085013_9066.png,1.0,6.186679,1.6226677,3.2272432
vit_b_16,1,573,NaN,knife,oven,10,0573_lp_dnn_10_oven_10_n04111531_11279.png,n04111531_11279.png,0.0,2.103292,2.3553069,-0.17820144
vit_b_16,1,574,NaN,knife,car,10,0574_lp_dnn_10_car_10_n04285008_12182.png,n04285008_12182.png,0.0,0.60010046,2.4030821,-1.2749006
vit_b_16,1,575,NaN,bear,bear,0,0575_lp_dnn_0_bear_10_n02133161_5681.png,n02133161_5681.png,1.0,5.0002093,1.2611243,2.6439326
vit_b_16,1,576,NaN,knife,dog,5,0576_lp_dnn_5_dog_10_n02108915_5514.png,n02108915_5514.png,0.0,0.5614411,1.1575015,-0.4214783
vit_b_16,1,577,NaN,knife,airplane,15,0577_lp_dnn_15_airplane_10_n02690373_7239.png,n02690373_7239.png,0.0,-0.28211385,5.007521,-3.740337
vit_b_16,1,578,NaN,dog,dog,0,0578_lp_dnn_0_dog_10_n02094258_4979.png,n02094258_4979.png,1.0,0.30917117,0.19289215,0.08222169
vit_b_16,1,579,NaN,chair,chair,3,0579_lp_dnn_3_chair_10_n04429376_15078.png,n04429376_15078.png,1.0,4.053267,0.4025774,2.5814273
vit_b_16,1,580,NaN,knife,clock,40,0580_lp_dnn_40_clock_10_n02708093_8276.png,n02708093_8276.png,0.0,1.3906108,3.556692,-1.5316505
vit_b_16,1,581,NaN,keyboard,keyboard,3,0581_lp_dnn_3_keyboard_10_n04505470_3947.png,n04505470_3947.png,1.0,6.5144143,0.8540875,4.0024557
vit_b_16,1,582,NaN,knife,car,15,0582_lp_dnn_15_car_10_n03100240_2996.png,n03100240_2996.png,0.0,-0.7557003,4.8553534,-3.967614
vit_b_16,1,583,NaN,knife,cat,10,0583_lp_dnn_10_cat_10_n02123159_3226.png,n02123159_3226.png,0.0,0.45308718,3.0695348,-1.8501079
vit_b_16,1,584,NaN,oven,truck,7,0584_lp_dnn_7_truck_10_n03417042_19905.png,n03417042_19905.png,0.0,-0.1116076,6.161356,-4.435655
vit_b_16,1,585,NaN,elephant,bird,0,0585_lp_dnn_0_bird_10_n02009229_4838.png,n02009229_4838.png,0.0,1.3937455,2.867999,-1.0424547
vit_b_16,1,586,NaN,oven,oven,1,0586_lp_dnn_1_oven_10_n04111531_14383.png,n04111531_14383.png,1.0,6.713012,2.3337116,3.0966332
vit_b_16,1,587,NaN,bear,bear,5,0587_lp_dnn_5_bear_10_n02132136_1152.png,n02132136_1152.png,1.0,4.6261883,1.7362537,2.0434923
vit_b_16,1,588,NaN,cat,cat,0,0588_lp_dnn_0_cat_10_n02123597_10952.png,n02123597_10952.png,1.0,2.6334348,1.7676727,0.61218625
vit_b_16,1,589,NaN,airplane,boat,0,0589_lp_dnn_0_boat_10_n04273569_12318.png,n04273569_12318.png,0.0,1.9108088,1.9691886,-0.04128073
vit_b_16,1,590,NaN,knife,bottle,40,0590_lp_dnn_40_bottle_10_n03937543_1391.png,n03937543_1391.png,0.0,1.308361,3.5005808,-1.5501335
vit_b_16,1,591,NaN,knife,dog,10,0591_lp_dnn_10_dog_10_n02091032_9464.png,n02091032_9464.png,0.0,0.21536961,2.977703,-1.9532647
vit_b_16,1,592,NaN,keyboard,oven,7,0592_lp_dnn_7_oven_10_n04111531_5218.png,n04111531_5218.png,0.0,-0.7133141,5.219375,-4.195045
vit_b_16,1,593,NaN,clock,airplane,5,0593_lp_dnn_5_airplane_10_n02690373_9423.png,n02690373_9423.png,0.0,0.6677325,3.7062514,-2.1485574
vit_b_16,1,594,NaN,elephant,bird,1,0594_lp_dnn_1_bird_10_n01860187_348.png,n01860187_348.png,0.0,0.25740695,0.9044622,-0.45753717
vit_b_16,1,595,NaN,knife,bird,40,0595_lp_dnn_40_bird_10_n02006656_8975.png,n02006656_8975.png,0.0,-0.47413573,3.8464787,-3.0551357
vit_b_16,1,596,NaN,keyboard,oven,10,0596_lp_dnn_10_oven_10_n04111531_7619.png,n04111531_7619.png,0.0,1.909814,2.8202038,-0.6437428
vit_b_16,1,597,NaN,bicycle,bicycle,3,0597_lp_dnn_3_bicycle_10_n02835271_9202.png,n02835271_9202.png,1.0,5.759039,1.1919405,3.2294264
vit_b_16,1,598,NaN,knife,boat,10,0598_lp_dnn_10_boat_10_n03344393_7826.png,n03344393_7826.png,0.0,-0.7856817,4.5161767,-3.74898
vit_b_16,1,599,NaN,elephant,elephant,3,0599_lp_dnn_3_elephant_10_n02504013_10330.png,n02504013_10330.png,1.0,7.1688232,0.31210145,4.8484344
vit_b_16,1,600,NaN,knife,truck,10,0600_lp_dnn_10_truck_10_n04467665_69202.png,n04467665_69202.png,0.0,-0.49321586,3.0388641,-2.4975576
vit_b_16,1,601,NaN,keyboard,keyboard,7,0601_lp_dnn_7_keyboard_10_n04505470_1120.png,n04505470_1120.png,1.0,3.6142383,3.0312634,0.4122255
vit_b_16,1,602,NaN,car,car,5,0602_lp_dnn_5_car_10_n04285008_434.png,n04285008_434.png,1.0,2.856391,2.3959124,0.3256075
vit_b_16,1,603,NaN,cat,cat,1,0603_lp_dnn_1_cat_10_n02123597_7592.png,n02123597_7592.png,1.0,2.1009586,0.24575217,1.311829
vit_b_16,1,604,NaN,knife,dog,15,0604_lp_dnn_15_dog_10_n02090721_583.png,n02090721_583.png,0.0,-0.049456876,2.0040498,-1.4520484
vit_b_16,1,605,NaN,knife,knife,1,0605_lp_dnn_1_knife_10_n03041632_86783.png,n03041632_86783.png,1.0,5.7707973,3.260537,1.7750221
vit_b_16,1,606,NaN,knife,dog,10,0606_lp_dnn_10_dog_10_n02112018_11708.png,n02112018_11708.png,0.0,-0.22552729,3.9461274,-2.9498053
vit_b_16,1,607,NaN,elephant,bird,0,0607_lp_dnn_0_bird_10_n02018795_5662.png,n02018795_5662.png,0.0,-0.026034607,1.9063367,-1.3663929
vit_b_16,1,608,NaN,elephant,elephant,5,0608_lp_dnn_5_elephant_10_n02504013_1088.png,n02504013_1088.png,1.0,6.681306,4.3994823,1.613493
vit_b_16,1,609,NaN,elephant,elephant,5,0609_lp_dnn_5_elephant_10_n02504458_66.png,n02504458_66.png,1.0,7.797702,0.94479126,4.8457394
vit_b_16,1,610,NaN,knife,dog,10,0610_lp_dnn_10_dog_10_n02105056_9099.png,n02105056_9099.png,0.0,-0.58677024,3.2451196,-2.7095554
vit_b_16,1,611,NaN,knife,boat,10,0611_lp_dnn_10_boat_10_n04273569_19699.png,n04273569_19699.png,0.0,-0.96659863,2.4726067,-2.4318852
vit_b_16,1,612,NaN,dog,dog,1,0612_lp_dnn_1_dog_10_n02097047_2376.png,n02097047_2376.png,1.0,0.2929468,0.2521459,0.028850593
vit_b_16,1,613,NaN,boat,boat,1,0613_lp_dnn_1_boat_10_n03662601_11901.png,n03662601_11901.png,1.0,2.4999804,0.7628322,1.2283493
vit_b_16,1,614,NaN,oven,oven,1,0614_lp_dnn_1_oven_10_n04111531_7667.png,n04111531_7667.png,1.0,4.218372,1.0189368,2.2623425
vit_b_16,1,615,NaN,knife,knife,10,0615_lp_dnn_10_knife_10_n03041632_24384.png,n03041632_24384.png,1.0,2.8968825,2.1693814,0.514421
vit_b_16,1,616,NaN,knife,car,7,0616_lp_dnn_7_car_10_n03100240_1216.png,n03100240_1216.png,0.0,0.32700345,1.9927803,-1.1778821
vit_b_16,1,617,NaN,bicycle,bicycle,0,0617_lp_dnn_0_bicycle_10_n03792782_3136.png,n03792782_3136.png,1.0,3.5878687,1.9414952,1.1641619
vit_b_16,1,618,NaN,keyboard,keyboard,5,0618_lp_dnn_5_keyboard_10_n03085013_26573.png,n03085013_26573.png,1.0,3.8853526,1.7300093,1.5240579
vit_b_16,1,619,NaN,clock,chair,0,0619_lp_dnn_0_chair_10_n04429376_7888.png,n04429376_7888.png,0.0,1.7084466,2.6660535,-0.67713034
vit_b_16,1,620,NaN,chair,chair,5,0620_lp_dnn_5_chair_10_n03376595_899.png,n03376595_899.png,1.0,3.5927424,1.1644851,1.7170373
vit_b_16,1,621,NaN,bicycle,bicycle,5,0621_lp_dnn_5_bicycle_10_n02835271_24207.png,n02835271_24207.png,1.0,1.3537052,1.2646675,0.062959135
vit_b_16,1,622,NaN,oven,oven,3,0622_lp_dnn_3_oven_10_n04111531_7329.png,n04111531_7329.png,1.0,4.446655,1.26095,2.2526333
vit_b_16,1,623,NaN,bottle,oven,5,0623_lp_dnn_5_oven_10_n04111531_12942.png,n04111531_12942.png,0.0,1.1906642,2.303293,-0.7867474
vit_b_16,1,624,NaN,knife,bear,15,0624_lp_dnn_15_bear_10_n02134418_1978.png,n02134418_1978.png,0.0,-0.7492728,3.7574058,-3.186703
vit_b_16,1,625,NaN,knife,cat,40,0625_lp_dnn_40_cat_10_n02123159_5872.png,n02123159_5872.png,0.0,-0.5022144,5.094252,-3.9572995
vit_b_16,1,626,NaN,knife,keyboard,15,0626_lp_dnn_15_keyboard_10_n03085013_18797.png,n03085013_18797.png,0.0,1.635719,4.1547523,-1.7812257
vit_b_16,1,627,NaN,knife,airplane,15,0627_lp_dnn_15_airplane_10_n02690373_5496.png,n02690373_5496.png,0.0,-0.879288,6.0405736,-4.893081
vit_b_16,1,628,NaN,knife,oven,15,0628_lp_dnn_15_oven_10_n04111531_21963.png,n04111531_21963.png,0.0,4.012872,5.265679,-0.88586813
vit_b_16,1,629,NaN,bottle,bottle,0,0629_lp_dnn_0_bottle_10_n02823428_2918.png,n02823428_2918.png,1.0,2.9174926,0.331454,1.8286054
vit_b_16,1,630,NaN,knife,keyboard,10,0630_lp_dnn_10_keyboard_10_n04505470_9570.png,n04505470_9570.png,0.0,2.221931,3.9380243,-1.2134613
vit_b_16,1,631,NaN,bird,bird,1,0631_lp_dnn_1_bird_10_n02002556_5977.png,n02002556_5977.png,1.0,0.70824915,0.47763354,0.16306987
vit_b_16,1,632,NaN,knife,airplane,40,0632_lp_dnn_40_airplane_10_n02690373_5961.png,n02690373_5961.png,0.0,-0.50857836,4.621699,-3.6276538
vit_b_16,1,633,NaN,clock,clock,3,0633_lp_dnn_3_clock_10_n04548280_5765.png,n04548280_5765.png,1.0,5.748373,1.7998606,2.79202
vit_b_16,1,634,NaN,knife,cat,15,0634_lp_dnn_15_cat_10_n02123597_11940.png,n02123597_11940.png,0.0,1.0979223,2.9593015,-1.3161938
vit_b_16,1,635,NaN,airplane,airplane,3,0635_lp_dnn_3_airplane_10_n02690373_3993.png,n02690373_3993.png,1.0,9.209382,2.7573388,4.562284
vit_b_16,1,636,NaN,knife,chair,7,0636_lp_dnn_7_chair_10_n04099969_3984.png,n04099969_3984.png,0.0,1.3096666,2.9911222,-1.1889687
vit_b_16,1,637,NaN,airplane,airplane,3,0637_lp_dnn_3_airplane_10_n02690373_939.png,n02690373_939.png,1.0,8.121086,0.9810886,5.048741
vit_b_16,1,638,NaN,car,car,1,0638_lp_dnn_1_car_10_n02814533_48541.png,n02814533_48541.png,1.0,2.8009164,0.9117043,1.3358747
vit_b_16,1,639,NaN,knife,clock,10,0639_lp_dnn_10_clock_10_n03196217_3986.png,n03196217_3986.png,0.0,3.536273,5.5505013,-1.4242746
vit_b_16,1,640,NaN,knife,clock,7,0640_lp_dnn_7_clock_10_n03196217_3006.png,n03196217_3006.png,0.0,2.3152952,3.486721,-0.8283231
vit_b_16,1,641,NaN,knife,boat,40,0641_lp_dnn_40_boat_10_n03662601_8947.png,n03662601_8947.png,0.0,-1.1677353,4.3272004,-3.8855066
vit_b_16,1,642,NaN,knife,bear,40,0642_lp_dnn_40_bear_10_n02132136_14346.png,n02132136_14346.png,0.0,-1.0190903,4.1308255,-3.6415403
vit_b_16,1,643,NaN,knife,elephant,10,0643_lp_dnn_10_elephant_10_n02504458_3209.png,n02504458_3209.png,0.0,0.8165865,4.30924,-2.4696789
vit_b_16,1,644,NaN,dog,dog,3,0644_lp_dnn_3_dog_10_n02088364_4980.png,n02088364_4980.png,1.0,0.375395,0.36751765,0.0055701276
vit_b_16,1,645,NaN,elephant,elephant,0,0645_lp_dnn_0_elephant_10_n02504013_1187.png,n02504013_1187.png,1.0,5.7943144,0.50850165,3.7376342
vit_b_16,1,646,NaN,airplane,airplane,0,0646_lp_dnn_0_airplane_10_n02690373_20690.png,n02690373_20690.png,1.0,9.25476,0.42092496,6.2464643
vit_b_16,1,647,NaN,oven,bird,10,0647_lp_dnn_10_bird_10_n01616318_2290.png,n01616318_2290.png,0.0,-0.68600285,2.9594183,-2.577702
vit_b_16,1,648,NaN,airplane,bird,1,0648_lp_dnn_1_bird_10_n02051845_1935.png,n02051845_1935.png,0.0,0.21213663,0.51458895,-0.2138661
vit_b_16,1,649,NaN,truck,truck,0,0649_lp_dnn_0_truck_10_n04467665_19131.png,n04467665_19131.png,1.0,4.847728,1.9476924,2.0506346
vit_b_16,1,650,NaN,car,car,5,0650_lp_dnn_5_car_10_n03100240_2138.png,n03100240_2138.png,1.0,3.643097,1.5868216,1.4540063
vit_b_16,1,651,NaN,keyboard,elephant,10,0651_lp_dnn_10_elephant_10_n02504458_5197.png,n02504458_5197.png,0.0,1.0709647,3.0815513,-1.4216995
vit_b_16,1,652,NaN,elephant,bird,5,0652_lp_dnn_5_bird_10_n01819313_5504.png,n01819313_5504.png,0.0,-0.6685832,0.83849573,-1.0656657
vit_b_16,1,653,NaN,bird,bird,3,0653_lp_dnn_3_bird_10_n01560419_1470.png,n01560419_1470.png,1.0,0.91801065,0.3326855,0.41388738
vit_b_16,1,654,NaN,airplane,airplane,3,0654_lp_dnn_3_airplane_10_n02690373_8650.png,n02690373_8650.png,1.0,6.5757856,2.0924158,3.1702213
vit_b_16,1,655,NaN,knife,bird,40,0655_lp_dnn_40_bird_10_n02028035_1677.png,n02028035_1677.png,0.0,-0.5867422,4.4164624,-3.5378
vit_b_16,1,656,NaN,clock,clock,1,0656_lp_dnn_1_clock_10_n04548280_9700.png,n04548280_9700.png,1.0,5.3579526,0.43932277,3.4779963
vit_b_16,1,657,NaN,knife,knife,5,0657_lp_dnn_5_knife_10_n03041632_5162.png,n03041632_5162.png,1.0,8.906823,0.9822924,5.60349
vit_b_16,1,658,NaN,oven,airplane,10,0658_lp_dnn_10_airplane_10_n02690373_13326.png,n02690373_13326.png,0.0,0.45536804,5.166225,-3.331079
vit_b_16,1,659,NaN,oven,oven,3,0659_lp_dnn_3_oven_10_n04111531_857.png,n04111531_857.png,1.0,3.2034907,1.5232412,1.1881158
vit_b_16,1,660,NaN,knife,bottle,40,0660_lp_dnn_40_bottle_10_n04560804_3392.png,n04560804_3392.png,0.0,1.6869096,4.281037,-1.834325
vit_b_16,1,661,NaN,airplane,airplane,0,0661_lp_dnn_0_airplane_10_n02690373_4269.png,n02690373_4269.png,1.0,9.372155,0.87285554,6.009913
vit_b_16,1,662,NaN,knife,bicycle,7,0662_lp_dnn_7_bicycle_10_n02835271_12608.png,n02835271_12608.png,0.0,0.34845865,1.4944006,-0.81030333
vit_b_16,1,663,NaN,elephant,elephant,1,0663_lp_dnn_1_elephant_10_n02504458_4868.png,n02504458_4868.png,1.0,6.9294863,0.4439394,4.585974
vit_b_16,1,664,NaN,knife,chair,7,0664_lp_dnn_7_chair_10_n03376595_11572.png,n03376595_11572.png,0.0,0.22843571,2.702122,-1.7491603
vit_b_16,1,665,NaN,bottle,cat,10,0665_lp_dnn_10_cat_10_n02123045_1754.png,n02123045_1754.png,0.0,0.054324348,2.2842016,-1.5767614
vit_b_16,1,666,NaN,knife,bottle,7,0666_lp_dnn_7_bottle_10_n04560804_2002.png,n04560804_2002.png,0.0,2.687846,3.326605,-0.4516709
vit_b_16,1,667,NaN,keyboard,truck,5,0667_lp_dnn_5_truck_10_n03796401_4878.png,n03796401_4878.png,0.0,-0.50120276,2.1813874,-1.8968778
vit_b_16,1,668,NaN,knife,bird,40,0668_lp_dnn_40_bird_10_n02033041_4901.png,n02033041_4901.png,0.0,-0.35526985,4.629519,-3.5247781
vit_b_16,1,669,NaN,knife,knife,40,0669_lp_dnn_40_knife_10_n03041632_31932.png,n03041632_31932.png,1.0,5.127092,2.0362234,2.185574
vit_b_16,1,670,NaN,knife,knife,3,0670_lp_dnn_3_knife_10_n03041632_9256.png,n03041632_9256.png,1.0,1.5965608,0.38158065,0.8591207
vit_b_16,1,671,NaN,oven,chair,5,0671_lp_dnn_5_chair_10_n04429376_45302.png,n04429376_45302.png,0.0,-0.6324065,2.5047126,-2.2182782
vit_b_16,1,672,NaN,truck,truck,3,0672_lp_dnn_3_truck_10_n03417042_5508.png,n03417042_5508.png,1.0,3.416112,1.5754455,1.3015478
vit_b_16,1,673,NaN,chair,chair,5,0673_lp_dnn_5_chair_10_n03376595_12326.png,n03376595_12326.png,1.0,3.8864832,3.2027946,0.48344088
vit_b_16,1,674,NaN,clock,clock,0,0674_lp_dnn_0_clock_10_n04548280_4391.png,n04548280_4391.png,1.0,6.1338296,0.8756851,3.7180696
vit_b_16,1,675,NaN,keyboard,car,10,0675_lp_dnn_10_car_10_n03100240_4421.png,n03100240_4421.png,0.0,1.1791301,3.4966145,-1.638709
vit_b_16,1,676,NaN,dog,dog,3,0676_lp_dnn_3_dog_10_n02111500_7233.png,n02111500_7233.png,1.0,1.0628234,0.98781073,0.05304198
vit_b_16,1,677,NaN,bottle,bottle,1,0677_lp_dnn_1_bottle_10_n04591713_4232.png,n04591713_4232.png,1.0,1.688139,0.5140186,0.8302285
vit_b_16,1,678,NaN,airplane,airplane,1,0678_lp_dnn_1_airplane_10_n02690373_5010.png,n02690373_5010.png,1.0,9.36527,0.32751933,6.3906546
vit_b_16,1,679,NaN,knife,bird,10,0679_lp_dnn_10_bird_10_n01860187_27046.png,n01860187_27046.png,0.0,-0.5435768,3.4750023,-2.8415644
vit_b_16,1,680,NaN,clock,car,10,0680_lp_dnn_10_car_10_n03100240_5136.png,n03100240_5136.png,0.0,-0.10171912,4.070539,-2.9502318
vit_b_16,1,681,NaN,knife,knife,15,0681_lp_dnn_15_knife_10_n03041632_1884.png,n03041632_1884.png,1.0,2.7333593,2.418885,0.22236694
vit_b_16,1,682,NaN,clock,clock,1,0682_lp_dnn_1_clock_10_n04548280_2809.png,n04548280_2809.png,1.0,3.6087844,2.6308634,0.6914946
vit_b_16,1,683,NaN,oven,boat,7,0683_lp_dnn_7_boat_10_n03662601_12308.png,n03662601_12308.png,0.0,-0.1457852,3.5383058,-2.6050456
vit_b_16,1,684,NaN,knife,airplane,10,0684_lp_dnn_10_airplane_10_n02690373_7432.png,n02690373_7432.png,0.0,0.17433962,3.8428543,-2.5940316
vit_b_16,1,685,NaN,car,bicycle,7,0685_lp_dnn_7_bicycle_10_n03792782_6149.png,n03792782_6149.png,0.0,2.6526468,2.6665576,-0.0098364
vit_b_16,1,686,NaN,knife,chair,10,0686_lp_dnn_10_chair_10_n04429376_24716.png,n04429376_24716.png,0.0,-0.50651443,3.0443327,-2.510828
vit_b_16,1,687,NaN,bottle,bottle,0,0687_lp_dnn_0_bottle_10_n04557648_376.png,n04557648_376.png,1.0,2.0156572,0.17161857,1.3039322
vit_b_16,1,688,NaN,knife,cat,10,0688_lp_dnn_10_cat_10_n02123394_3144.png,n02123394_3144.png,0.0,2.2461333,3.6394877,-0.98525035
vit_b_16,1,689,NaN,elephant,dog,3,0689_lp_dnn_3_dog_10_n02092002_12007.png,n02092002_12007.png,0.0,0.78403425,0.8252201,-0.029122798
vit_b_16,1,690,NaN,knife,bird,15,0690_lp_dnn_15_bird_10_n02028035_33583.png,n02028035_33583.png,0.0,-0.6320457,3.4041488,-2.8540204
vit_b_16,1,691,NaN,knife,bird,15,0691_lp_dnn_15_bird_10_n01797886_904.png,n01797886_904.png,0.0,-0.419094,3.209065,-2.565496
vit_b_16,1,692,NaN,keyboard,keyboard,15,0692_lp_dnn_15_keyboard_10_n03085013_21397.png,n03085013_21397.png,1.0,3.1209278,3.0524216,0.048441228
vit_b_16,1,693,NaN,knife,dog,40,0693_lp_dnn_40_dog_10_n02108915_11208.png,n02108915_11208.png,0.0,-0.9190896,3.644216,-3.2267447
vit_b_16,1,694,NaN,boat,boat,3,0694_lp_dnn_3_boat_10_n03662601_17665.png,n03662601_17665.png,1.0,3.863955,1.6114588,1.5927554
vit_b_16,1,695,NaN,bottle,clock,10,0695_lp_dnn_10_clock_10_n03196217_9160.png,n03196217_9160.png,0.0,1.1977798,3.1094372,-1.351746
vit_b_16,1,696,NaN,knife,dog,0,0696_lp_dnn_0_dog_10_n02100735_3595.png,n02100735_3595.png,0.0,-0.070718996,0.3805757,-0.31911355
vit_b_16,1,697,NaN,keyboard,truck,5,0697_lp_dnn_5_truck_10_n03796401_2656.png,n03796401_2656.png,0.0,-0.05326888,2.7570598,-1.9872025
vit_b_16,1,698,NaN,knife,truck,40,0698_lp_dnn_40_truck_10_n04467665_13193.png,n04467665_13193.png,0.0,-1.42272,4.8175054,-4.4125056
vit_b_16,1,699,NaN,oven,oven,5,0699_lp_dnn_5_oven_10_n04111531_20953.png,n04111531_20953.png,1.0,7.1986094,1.6674995,3.9110854
vit_b_16,1,700,NaN,clock,clock,5,0700_lp_dnn_5_clock_10_n02708093_8051.png,n02708093_8051.png,1.0,2.9525175,2.048727,0.6390764
vit_b_16,1,701,NaN,car,car,0,0701_lp_dnn_0_car_10_n03100240_11428.png,n03100240_11428.png,1.0,5.805588,0.3597296,3.8508031
vit_b_16,1,702,NaN,bicycle,bicycle,1,0702_lp_dnn_1_bicycle_10_n02835271_12473.png,n02835271_12473.png,1.0,6.3453565,0.9866053,3.7892094
vit_b_16,1,703,NaN,knife,chair,10,0703_lp_dnn_10_chair_10_n02791124_6865.png,n02791124_6865.png,0.0,-0.5114836,2.2891572,-1.9803522
vit_b_16,1,704,NaN,knife,chair,15,0704_lp_dnn_15_chair_10_n03376595_4464.png,n03376595_4464.png,0.0,-0.6909256,2.6835542,-2.3861175
vit_b_16,1,705,NaN,airplane,airplane,0,0705_lp_dnn_0_airplane_10_n02690373_1051.png,n02690373_1051.png,1.0,9.170307,0.35077363,6.236352
vit_b_16,1,706,NaN,oven,chair,5,0706_lp_dnn_5_chair_10_n04429376_5789.png,n04429376_5789.png,0.0,1.9765806,2.2627707,-0.20236692
vit_b_16,1,707,NaN,bear,bird,0,0707_lp_dnn_0_bird_10_n01592084_2971.png,n01592084_2971.png,0.0,0.063266456,0.6426247,-0.40966815
vit_b_16,1,708,NaN,elephant,bicycle,5,0708_lp_dnn_5_bicycle_10_n03792782_22760.png,n03792782_22760.png,0.0,0.3654347,2.4924068,-1.5039965
vit_b_16,1,709,NaN,knife,airplane,40,0709_lp_dnn_40_airplane_10_n02690373_2656.png,n02690373_2656.png,0.0,0.68643785,3.94625,-2.3050354
vit_b_16,1,710,NaN,oven,oven,0,0710_lp_dnn_0_oven_10_n04111531_21173.png,n04111531_21173.png,1.0,9.490599,2.8442445,4.699682
vit_b_16,1,711,NaN,keyboard,bottle,3,0711_lp_dnn_3_bottle_10_n04557648_32252.png,n04557648_32252.png,0.0,1.9610196,2.427229,-0.32965976
vit_b_16,1,712,NaN,keyboard,cat,5,0712_lp_dnn_5_cat_10_n02123597_13835.png,n02123597_13835.png,0.0,0.6924474,2.7693987,-1.4686264
vit_b_16,1,713,NaN,knife,knife,10,0713_lp_dnn_10_knife_10_n03041632_11969.png,n03041632_11969.png,1.0,6.3773913,3.4870617,2.0437717
vit_b_16,1,714,NaN,knife,cat,5,0714_lp_dnn_5_cat_10_n02125311_22884.png,n02125311_22884.png,0.0,0.023961598,1.7203819,-1.1995503
vit_b_16,1,715,NaN,oven,bear,7,0715_lp_dnn_7_bear_10_n02134418_860.png,n02134418_860.png,0.0,-0.28392845,2.8456244,-2.212928
vit_b_16,1,716,NaN,car,car,0,0716_lp_dnn_0_car_10_n03100240_1696.png,n03100240_1696.png,1.0,4.729422,0.42753798,3.0418916
vit_b_16,1,717,NaN,knife,bird,7,0717_lp_dnn_7_bird_10_n02018207_1606.png,n02018207_1606.png,0.0,-0.2678209,2.7684965,-2.1470006
vit_b_16,1,718,NaN,knife,bird,40,0718_lp_dnn_40_bird_10_n02018795_4730.png,n02018795_4730.png,0.0,-0.48215806,4.252502,-3.3479104
vit_b_16,1,719,NaN,knife,truck,10,0719_lp_dnn_10_truck_10_n04467665_67861.png,n04467665_67861.png,0.0,-0.6916181,2.4483042,-2.2202604
vit_b_16,1,720,NaN,truck,truck,1,0720_lp_dnn_1_truck_10_n03417042_820.png,n03417042_820.png,1.0,2.2013183,0.41520864,1.2629703
vit_b_16,1,721,NaN,elephant,elephant,7,0721_lp_dnn_7_elephant_10_n02504013_7774.png,n02504013_7774.png,1.0,4.4055433,1.8532974,1.8047105
vit_b_16,1,722,NaN,keyboard,boat,3,0722_lp_dnn_3_boat_10_n04273569_11445.png,n04273569_11445.png,0.0,1.3899992,3.341665,-1.3800362
vit_b_16,1,723,NaN,elephant,elephant,0,0723_lp_dnn_0_elephant_10_n02504458_5482.png,n02504458_5482.png,1.0,7.598897,0.50590193,5.015505
vit_b_16,1,724,NaN,knife,clock,10,0724_lp_dnn_10_clock_10_n03196217_454.png,n03196217_454.png,0.0,1.9936695,3.1588757,-0.8239252
vit_b_16,1,725,NaN,knife,oven,40,0725_lp_dnn_40_oven_10_n04111531_17781.png,n04111531_17781.png,0.0,0.7662595,5.4184737,-3.289612
vit_b_16,1,726,NaN,bottle,bottle,5,0726_lp_dnn_5_bottle_10_n02823428_4694.png,n02823428_4694.png,1.0,3.7056143,1.2132431,1.7623725
vit_b_16,1,727,NaN,truck,truck,3,0727_lp_dnn_3_truck_10_n03796401_24833.png,n03796401_24833.png,1.0,3.3627603,1.0343078,1.6464646
vit_b_16,1,728,NaN,knife,knife,1,0728_lp_dnn_1_knife_10_n03041632_81943.png,n03041632_81943.png,1.0,10.66112,0.4512062,7.2194996
vit_b_16,1,729,NaN,knife,dog,10,0729_lp_dnn_10_dog_10_n02100735_1764.png,n02100735_1764.png,0.0,0.17370999,3.2266166,-2.158731
vit_b_16,1,730,NaN,knife,car,15,0730_lp_dnn_15_car_10_n02814533_36206.png,n02814533_36206.png,0.0,-0.3990401,3.4328117,-2.7095284
vit_b_16,1,731,NaN,knife,airplane,5,0731_lp_dnn_5_airplane_10_n02690373_7489.png,n02690373_7489.png,0.0,2.6392095,2.70438,-0.046082523
vit_b_16,1,732,NaN,knife,oven,10,0732_lp_dnn_10_oven_10_n04111531_3717.png,n04111531_3717.png,0.0,1.0713559,3.6304047,-1.8095207
vit_b_16,1,733,NaN,oven,oven,7,0733_lp_dnn_7_oven_10_n04111531_2987.png,n04111531_2987.png,1.0,3.1202846,2.3718176,0.5292461
vit_b_16,1,734,NaN,clock,clock,0,0734_lp_dnn_0_clock_10_n04548280_2169.png,n04548280_2169.png,1.0,5.8353887,0.1765066,4.001434
vit_b_16,1,735,NaN,knife,keyboard,40,0735_lp_dnn_40_keyboard_10_n03085013_19547.png,n03085013_19547.png,0.0,0.6126496,4.49338,-2.7440908
vit_b_16,1,736,NaN,keyboard,keyboard,1,0736_lp_dnn_1_keyboard_10_n03085013_20303.png,n03085013_20303.png,1.0,6.07367,0.16508423,4.178001
vit_b_16,1,737,NaN,knife,knife,5,0737_lp_dnn_5_knife_10_n03041632_12748.png,n03041632_12748.png,1.0,8.445386,0.16269653,5.8567457
vit_b_16,1,738,NaN,elephant,elephant,1,0738_lp_dnn_1_elephant_10_n02504458_1626.png,n02504458_1626.png,1.0,7.7637453,0.38201,5.219675
vit_b_16,1,739,NaN,truck,car,5,0739_lp_dnn_5_car_10_n02814533_82372.png,n02814533_82372.png,0.0,1.9359077,3.6024485,-1.1784223
vit_b_16,1,740,NaN,boat,boat,1,0740_lp_dnn_1_boat_10_n03344393_5417.png,n03344393_5417.png,1.0,2.2231517,0.50563884,1.214465
vit_b_16,1,741,NaN,bottle,bottle,0,0741_lp_dnn_0_bottle_10_n04591713_5465.png,n04591713_5465.png,1.0,3.6812901,1.4814053,1.5555536
vit_b_16,1,742,NaN,oven,keyboard,5,0742_lp_dnn_5_keyboard_10_n03085013_2594.png,n03085013_2594.png,0.0,2.3856826,3.244136,-0.6070183
vit_b_16,1,743,NaN,knife,car,7,0743_lp_dnn_7_car_10_n03100240_1406.png,n03100240_1406.png,0.0,1.5964762,2.6315217,-0.7318877
vit_b_16,1,744,NaN,cat,cat,7,0744_lp_dnn_7_cat_10_n02123159_6954.png,n02123159_6954.png,1.0,1.6640054,1.6286154,0.025024524
vit_b_16,1,745,NaN,knife,bear,15,0745_lp_dnn_15_bear_10_n02134084_8601.png,n02134084_8601.png,0.0,-0.7760041,3.4596553,-2.9950638
vit_b_16,1,746,NaN,cat,cat,5,0746_lp_dnn_5_cat_10_n02123045_1126.png,n02123045_1126.png,1.0,4.8720527,1.9432544,2.0709732
vit_b_16,1,747,NaN,car,car,7,0747_lp_dnn_7_car_10_n04285008_13094.png,n04285008_13094.png,1.0,2.807017,2.1673665,0.45230126
vit_b_16,1,748,NaN,knife,knife,0,0748_lp_dnn_0_knife_10_n03041632_11741.png,n03041632_11741.png,1.0,9.691356,0.86482406,6.2413
vit_b_16,1,749,NaN,bear,dog,5,0749_lp_dnn_5_dog_10_n02091635_7361.png,n02091635_7361.png,0.0,0.52026236,0.6909237,-0.12067579
vit_b_16,1,750,NaN,dog,dog,3,0750_lp_dnn_3_dog_10_n02113023_12640.png,n02113023_12640.png,1.0,0.28052446,0.21318741,0.047614485
vit_b_16,1,751,NaN,knife,chair,40,0751_lp_dnn_40_chair_10_n04099969_8018.png,n04099969_8018.png,0.0,0.45392615,5.6857543,-3.6994612
vit_b_16,1,752,NaN,oven,clock,7,0752_lp_dnn_7_clock_10_n03196217_1272.png,n03196217_1272.png,0.0,2.9391253,4.8716164,-1.3664776
vit_b_16,1,753,NaN,knife,knife,15,0753_lp_dnn_15_knife_10_n03041632_45264.png,n03041632_45264.png,1.0,4.351925,3.8413339,0.36104238
vit_b_16,1,754,NaN,oven,keyboard,7,0754_lp_dnn_7_keyboard_10_n04505470_5150.png,n04505470_5150.png,0.0,3.6011596,7.8267465,-2.9879413
vit_b_16,1,755,NaN,keyboard,bear,10,0755_lp_dnn_10_bear_10_n02134418_745.png,n02134418_745.png,0.0,-0.71780854,2.809536,-2.4942093
vit_b_16,1,756,NaN,cat,cat,0,0756_lp_dnn_0_cat_10_n02124075_10310.png,n02124075_10310.png,1.0,3.4848301,1.1740344,1.6339794
vit_b_16,1,757,NaN,bear,bear,3,0757_lp_dnn_3_bear_10_n02134418_14961.png,n02134418_14961.png,1.0,2.5845842,1.7206041,0.6109263
vit_b_16,1,758,NaN,chair,chair,1,0758_lp_dnn_1_chair_10_n02791124_3883.png,n02791124_3883.png,1.0,2.5048995,0.1880268,1.6382763
vit_b_16,1,759,NaN,boat,boat,3,0759_lp_dnn_3_boat_10_n02951358_33722.png,n02951358_33722.png,1.0,1.7317588,1.2102137,0.36878812
