subj,session,trial,rt,object_response,category,condition,imagename,filename,is_correct,targ_act,max_nontarg_act,decision_margin
convnext_large,1,1,NaN,knife,chair,40,0001_lp_dnn_40_chair_10_n04099969_7577.png,n04099969_7577.png,0.0,-0.111171745,2.835474,-2.0835931
convnext_large,1,2,NaN,knife,cat,40,0002_lp_dnn_40_cat_10_n02124075_12815.png,n02124075_12815.png,0.0,-0.2106167,2.038098,-1.5900815
convnext_large,1,3,NaN,oven,truck,5,0003_lp_dnn_5_truck_10_n04467665_34253.png,n04467665_34253.png,0.0,-0.21263666,2.4993427,-1.917659
convnext_large,1,4,NaN,clock,clock,1,0004_lp_dnn_1_clock_10_n04548280_5320.png,n04548280_5320.png,1.0,4.631361,0.18634017,3.1431043
convnext_large,1,5,NaN,cat,dog,3,0005_lp_dnn_3_dog_10_n02108915_3652.png,n02108915_3652.png,0.0,0.23776034,1.8861094,-1.1655588
convnext_large,1,6,NaN,keyboard,keyboard,7,0006_lp_dnn_7_keyboard_10_n04505470_578.png,n04505470_578.png,1.0,6.056016,1.342698,3.332819
convnext_large,1,7,NaN,knife,cat,7,0007_lp_dnn_7_cat_10_n02123597_3842.png,n02123597_3842.png,0.0,1.8878969,2.1498158,-0.18520464
convnext_large,1,8,NaN,bear,bear,1,0008_lp_dnn_1_bear_10_n02134418_14.png,n02134418_14.png,1.0,3.302034,0.4051714,2.048391
convnext_large,1,9,NaN,knife,knife,10,0009_lp_dnn_10_knife_10_n03041632_29920.png,n03041632_29920.png,1.0,4.348391,1.5872729,1.9524055
convnext_large,1,10,NaN,knife,bird,5,0010_lp_dnn_5_bird_10_n01795545_952.png,n01795545_952.png,0.0,0.547576,3.4411778,-2.0460856
convnext_large,1,11,NaN,bear,bear,3,0011_lp_dnn_3_bear_10_n02132136_6441.png,n02132136_6441.png,1.0,4.3563757,4.322789,0.023749243
convnext_large,1,12,NaN,bear,bird,3,0012_lp_dnn_3_bird_10_n01829413_8792.png,n01829413_8792.png,0.0,0.64578104,1.4527861,-0.5706388
convnext_large,1,13,NaN,keyboard,keyboard,7,0013_lp_dnn_7_keyboard_10_n04505470_4458.png,n04505470_4458.png,1.0,6.8773313,1.5815693,3.7446694
convnext_large,1,14,NaN,knife,chair,10,0014_lp_dnn_10_chair_10_n03376595_9176.png,n03376595_9176.png,0.0,-0.3200339,4.621975,-3.494528
convnext_large,1,15,NaN,clock,clock,40,0015_lp_dnn_40_clock_10_n04548280_7662.png,n04548280_7662.png,1.0,1.7590119,1.6254013,0.09447697
convnext_large,1,16,NaN,knife,keyboard,40,0016_lp_dnn_40_keyboard_10_n03085013_25809.png,n03085013_25809.png,0.0,0.298738,3.2886744,-2.1142044
convnext_large,1,17,NaN,oven,oven,5,0017_lp_dnn_5_oven_10_n04111531_1580.png,n04111531_1580.png,1.0,5.936422,2.9925282,2.0816472
convnext_large,1,18,NaN,elephant,elephant,1,0018_lp_dnn_1_elephant_10_n02504458_900.png,n02504458_900.png,1.0,6.2781916,0.355159,4.1882167
convnext_large,1,19,NaN,knife,dog,7,0019_lp_dnn_7_dog_10_n02106662_2384.png,n02106662_2384.png,0.0,0.4034651,2.5745378,-1.5351802
convnext_large,1,20,NaN,knife,truck,10,0020_lp_dnn_10_truck_10_n03796401_22618.png,n03796401_22618.png,0.0,-0.7300185,5.803019,-4.6195555
convnext_large,1,21,NaN,knife,elephant,15,0021_lp_dnn_15_elephant_10_n02504013_5463.png,n02504013_5463.png,0.0,-0.32647428,2.2436407,-1.8173456
convnext_large,1,22,NaN,knife,chair,10,0022_lp_dnn_10_chair_10_n04429376_16459.png,n04429376_16459.png,0.0,-0.3958854,6.017988,-4.5352936
convnext_large,1,23,NaN,cat,cat,1,0023_lp_dnn_1_cat_10_n02123045_12206.png,n02123045_12206.png,1.0,4.2317076,0.62752664,2.5485408
convnext_large,1,24,NaN,knife,truck,7,0024_lp_dnn_7_truck_10_n03417042_2633.png,n03417042_2633.png,0.0,-0.25442457,4.1088343,-3.08529
convnext_large,1,25,NaN,knife,keyboard,15,0025_lp_dnn_15_keyboard_10_n03085013_24416.png,n03085013_24416.png,0.0,1.2660389,5.907054,-3.2816932
convnext_large,1,26,NaN,knife,car,7,0026_lp_dnn_7_car_10_n02814533_44503.png,n02814533_44503.png,0.0,0.2566969,5.2714577,-3.5459716
convnext_large,1,27,NaN,elephant,elephant,5,0027_lp_dnn_5_elephant_10_n02504458_5797.png,n02504458_5797.png,1.0,4.1534925,2.015907,1.5115012
convnext_large,1,28,NaN,chair,chair,0,0028_lp_dnn_0_chair_10_n04429376_8237.png,n04429376_8237.png,1.0,3.7768946,3.610091,0.11794796
convnext_large,1,29,NaN,keyboard,cat,7,0029_lp_dnn_7_cat_10_n02123159_587.png,n02123159_587.png,0.0,0.9507926,2.6387103,-1.1935381
convnext_large,1,30,NaN,knife,bird,10,0030_lp_dnn_10_bird_10_n02028035_17238.png,n02028035_17238.png,0.0,-0.49981767,4.1727767,-3.3040233
convnext_large,1,31,NaN,knife,cat,40,0031_lp_dnn_40_cat_10_n02123159_4348.png,n02123159_4348.png,0.0,-0.25900134,2.6512814,-2.0578806
convnext_large,1,32,NaN,oven,boat,5,0032_lp_dnn_5_boat_10_n04273569_22332.png,n04273569_22332.png,0.0,0.09451644,4.311247,-2.981679
convnext_large,1,33,NaN,elephant,elephant,1,0033_lp_dnn_1_elephant_10_n02504013_1244.png,n02504013_1244.png,1.0,6.4839,0.3884352,4.3101444
convnext_large,1,34,NaN,knife,bicycle,7,0034_lp_dnn_7_bicycle_10_n03792782_30229.png,n03792782_30229.png,0.0,0.5928507,2.810282,-1.5679607
convnext_large,1,35,NaN,keyboard,keyboard,10,0035_lp_dnn_10_keyboard_10_n03085013_7573.png,n03085013_7573.png,1.0,4.7167034,3.7750645,0.6658393
convnext_large,1,36,NaN,keyboard,keyboard,3,0036_lp_dnn_3_keyboard_10_n03085013_24578.png,n03085013_24578.png,1.0,6.6236515,0.90265185,4.0453577
convnext_large,1,37,NaN,knife,truck,15,0037_lp_dnn_15_truck_10_n03417042_1336.png,n03417042_1336.png,0.0,-1.0645329,3.7970781,-3.437678
convnext_large,1,38,NaN,knife,knife,3,0038_lp_dnn_3_knife_10_n03041632_7495.png,n03041632_7495.png,1.0,4.678228,1.239526,2.4315295
convnext_large,1,39,NaN,car,car,0,0039_lp_dnn_0_car_10_n03100240_9625.png,n03100240_9625.png,1.0,5.871225,0.49856678,3.7990432
convnext_large,1,40,NaN,knife,elephant,10,0040_lp_dnn_10_elephant_10_n02504458_6107.png,n02504458_6107.png,0.0,1.3812168,3.712649,-1.6485716
convnext_large,1,41,NaN,bicycle,bicycle,0,0041_lp_dnn_0_bicycle_10_n03792782_33649.png,n03792782_33649.png,1.0,6.815463,0.44104338,4.5073953
convnext_large,1,42,NaN,clock,clock,1,0042_lp_dnn_1_clock_10_n03196217_8282.png,n03196217_8282.png,1.0,4.7498717,0.2866329,3.1559863
convnext_large,1,43,NaN,keyboard,keyboard,7,0043_lp_dnn_7_keyboard_10_n03085013_21534.png,n03085013_21534.png,1.0,4.876001,4.0015497,0.61833036
convnext_large,1,44,NaN,knife,elephant,15,0044_lp_dnn_15_elephant_10_n02504013_22813.png,n02504013_22813.png,0.0,0.2650032,3.4875703,-2.2786992
convnext_large,1,45,NaN,knife,truck,10,0045_lp_dnn_10_truck_10_n03796401_16425.png,n03796401_16425.png,0.0,-0.66806245,5.3530393,-4.257562
convnext_large,1,46,NaN,knife,airplane,15,0046_lp_dnn_15_airplane_10_n02690373_9427.png,n02690373_9427.png,0.0,-0.9857302,4.7584615,-4.061757
convnext_large,1,47,NaN,knife,bird,7,0047_lp_dnn_7_bird_10_n02009912_11907.png,n02009912_11907.png,0.0,-0.92153805,4.3735456,-3.7441895
convnext_large,1,48,NaN,airplane,airplane,1,0048_lp_dnn_1_airplane_10_n02690373_5773.png,n02690373_5773.png,1.0,8.005745,0.26787978,5.471497
convnext_large,1,49,NaN,knife,chair,40,0049_lp_dnn_40_chair_10_n02791124_2972.png,n02791124_2972.png,0.0,0.002335284,2.3093648,-1.6313162
convnext_large,1,50,NaN,truck,bird,1,0050_lp_dnn_1_bird_10_n01819313_18188.png,n01819313_18188.png,0.0,-0.015568685,0.17128721,-0.13212708
convnext_large,1,51,NaN,keyboard,car,5,0051_lp_dnn_5_car_10_n04285008_7428.png,n04285008_7428.png,0.0,1.9830502,2.297161,-0.22210993
convnext_large,1,52,NaN,clock,bottle,7,0052_lp_dnn_7_bottle_10_n04591713_6923.png,n04591713_6923.png,0.0,1.4865885,2.8545158,-0.9672707
convnext_large,1,53,NaN,knife,knife,0,0053_lp_dnn_0_knife_10_n03041632_22570.png,n03041632_22570.png,1.0,8.966654,0.34559688,6.096008
convnext_large,1,54,NaN,bear,bear,0,0054_lp_dnn_0_bear_10_n02132136_7586.png,n02132136_7586.png,1.0,5.3198524,0.6243103,3.3202496
convnext_large,1,55,NaN,clock,clock,5,0055_lp_dnn_5_clock_10_n04548280_9144.png,n04548280_9144.png,1.0,3.7539585,2.945506,0.5716622
convnext_large,1,56,NaN,bottle,bottle,0,0056_lp_dnn_0_bottle_10_n04591713_2680.png,n04591713_2680.png,1.0,2.387226,0.7120644,1.1845182
convnext_large,1,57,NaN,cat,cat,3,0057_lp_dnn_3_cat_10_n02123045_1596.png,n02123045_1596.png,1.0,2.8878133,1.6379001,0.88382214
convnext_large,1,58,NaN,knife,cat,10,0058_lp_dnn_10_cat_10_n02123597_19450.png,n02123597_19450.png,0.0,0.59684473,4.722215,-2.9170775
convnext_large,1,59,NaN,knife,chair,15,0059_lp_dnn_15_chair_10_n03376595_3462.png,n03376595_3462.png,0.0,-0.2175622,4.952868,-3.6560464
convnext_large,1,60,NaN,bottle,bottle,3,0060_lp_dnn_3_bottle_10_n04591713_3683.png,n04591713_3683.png,1.0,4.286655,0.974868,2.341787
convnext_large,1,61,NaN,clock,clock,7,0061_lp_dnn_7_clock_10_n03196217_4309.png,n03196217_4309.png,1.0,4.112237,3.1313307,0.6936055
convnext_large,1,62,NaN,knife,bear,15,0062_lp_dnn_15_bear_10_n02134084_4923.png,n02134084_4923.png,0.0,-0.7219138,5.0439215,-4.077061
convnext_large,1,63,NaN,chair,chair,1,0063_lp_dnn_1_chair_10_n04429376_5238.png,n04429376_5238.png,1.0,3.6404502,0.42871904,2.2710369
convnext_large,1,64,NaN,clock,clock,0,0064_lp_dnn_0_clock_10_n03196217_2414.png,n03196217_2414.png,1.0,3.6450558,1.0006397,1.8698846
convnext_large,1,65,NaN,cat,bird,3,0065_lp_dnn_3_bird_10_n01797886_2711.png,n01797886_2711.png,0.0,1.2817655,1.5913271,-0.21889311
convnext_large,1,66,NaN,knife,truck,15,0066_lp_dnn_15_truck_10_n04467665_68463.png,n04467665_68463.png,0.0,-1.000036,6.226328,-5.1098113
convnext_large,1,67,NaN,truck,truck,0,0067_lp_dnn_0_truck_10_n03417042_10099.png,n03417042_10099.png,1.0,2.0645096,0.37843272,1.1922364
convnext_large,1,68,NaN,knife,bear,10,0068_lp_dnn_10_bear_10_n02134418_3793.png,n02134418_3793.png,0.0,-0.07362987,4.31525,-3.1034067
convnext_large,1,69,NaN,knife,bottle,10,0069_lp_dnn_10_bottle_10_n03937543_9524.png,n03937543_9524.png,0.0,1.150706,2.6837156,-1.0840014
convnext_large,1,70,NaN,cat,cat,3,0070_lp_dnn_3_cat_10_n02123394_1038.png,n02123394_1038.png,1.0,3.3211908,1.3192227,1.4156053
convnext_large,1,71,NaN,knife,dog,5,0071_lp_dnn_5_dog_10_n02110185_7886.png,n02110185_7886.png,0.0,0.6477459,4.8410225,-2.9650943
convnext_large,1,72,NaN,clock,clock,3,0072_lp_dnn_3_clock_10_n02708093_4912.png,n02708093_4912.png,1.0,5.820099,0.31889006,3.8899422
convnext_large,1,73,NaN,knife,dog,15,0073_lp_dnn_15_dog_10_n02108422_932.png,n02108422_932.png,0.0,-0.05964261,2.7736413,-2.0034342
convnext_large,1,74,NaN,truck,truck,0,0074_lp_dnn_0_truck_10_n04467665_18621.png,n04467665_18621.png,1.0,3.245017,0.50370127,1.938403
convnext_large,1,75,NaN,truck,truck,1,0075_lp_dnn_1_truck_10_n04467665_50932.png,n04467665_50932.png,1.0,1.9918262,0.47849753,1.0700849
convnext_large,1,76,NaN,oven,dog,1,0076_lp_dnn_1_dog_10_n02102480_7293.png,n02102480_7293.png,0.0,0.07941481,0.59276575,-0.36299396
convnext_large,1,77,NaN,bottle,bottle,1,0077_lp_dnn_1_bottle_10_n04591713_4764.png,n04591713_4764.png,1.0,3.6160386,1.4485936,1.5326151
convnext_large,1,78,NaN,knife,clock,15,0078_lp_dnn_15_clock_10_n02708093_274.png,n02708093_274.png,0.0,1.2309433,4.7059193,-2.457179
convnext_large,1,79,NaN,keyboard,bottle,5,0079_lp_dnn_5_bottle_10_n04557648_29772.png,n04557648_29772.png,0.0,0.43425995,3.412816,-2.1061573
convnext_large,1,80,NaN,knife,car,15,0080_lp_dnn_15_car_10_n03100240_22499.png,n03100240_22499.png,0.0,-0.6386204,5.678692,-4.4670143
convnext_large,1,81,NaN,clock,clock,3,0081_lp_dnn_3_clock_10_n02708093_6252.png,n02708093_6252.png,1.0,5.7398453,0.64527667,3.602404
convnext_large,1,82,NaN,knife,airplane,10,0082_lp_dnn_10_airplane_10_n02690373_5427.png,n02690373_5427.png,0.0,-0.28203726,6.9057403,-5.082526
convnext_large,1,83,NaN,knife,dog,15,0083_lp_dnn_15_dog_10_n02107142_46045.png,n02107142_46045.png,0.0,-0.43611583,5.6911545,-4.3326344
convnext_large,1,84,NaN,knife,keyboard,40,0084_lp_dnn_40_keyboard_10_n03085013_23793.png,n03085013_23793.png,0.0,0.44364148,4.0738935,-2.5669758
convnext_large,1,85,NaN,bicycle,bicycle,3,0085_lp_dnn_3_bicycle_10_n03792782_12421.png,n03792782_12421.png,1.0,5.6448736,1.7133613,2.779999
convnext_large,1,86,NaN,airplane,airplane,0,0086_lp_dnn_0_airplane_10_n02690373_1310.png,n02690373_1310.png,1.0,9.032398,0.65130186,5.9263296
convnext_large,1,87,NaN,knife,oven,15,0087_lp_dnn_15_oven_10_n04111531_8793.png,n04111531_8793.png,0.0,1.1950675,5.4150357,-2.9839683
convnext_large,1,88,NaN,airplane,airplane,5,0088_lp_dnn_5_airplane_10_n02690373_633.png,n02690373_633.png,1.0,3.597637,3.1598866,0.30953625
convnext_large,1,89,NaN,clock,clock,5,0089_lp_dnn_5_clock_10_n02708093_2307.png,n02708093_2307.png,1.0,2.747876,2.3709114,0.2665542
convnext_large,1,90,NaN,knife,oven,10,0090_lp_dnn_10_oven_10_n04111531_13795.png,n04111531_13795.png,0.0,1.1991409,4.082959,-2.0391674
convnext_large,1,91,NaN,boat,boat,3,0091_lp_dnn_3_boat_10_n03662601_1427.png,n03662601_1427.png,1.0,3.107247,1.8148959,0.91383034
convnext_large,1,92,NaN,knife,boat,5,0092_lp_dnn_5_boat_10_n04612504_15944.png,n04612504_15944.png,0.0,-0.79543954,2.5768685,-2.3845818
convnext_large,1,93,NaN,knife,airplane,40,0093_lp_dnn_40_airplane_10_n02690373_3561.png,n02690373_3561.png,0.0,-0.25804323,2.5639558,-1.9954547
convnext_large,1,94,NaN,elephant,elephant,7,0094_lp_dnn_7_elephant_10_n02504458_1848.png,n02504458_1848.png,1.0,5.239167,4.3104305,0.65671605
convnext_large,1,95,NaN,oven,oven,5,0095_lp_dnn_5_oven_10_n04111531_4155.png,n04111531_4155.png,1.0,4.0099683,2.179813,1.2941153
convnext_large,1,96,NaN,car,car,0,0096_lp_dnn_0_car_10_n03100240_8327.png,n03100240_8327.png,1.0,5.987343,0.8606909,3.6250904
convnext_large,1,97,NaN,chair,chair,0,0097_lp_dnn_0_chair_10_n04429376_24319.png,n04429376_24319.png,1.0,3.4937584,0.41309446,2.1783583
convnext_large,1,98,NaN,chair,chair,3,0098_lp_dnn_3_chair_10_n03376595_5112.png,n03376595_5112.png,1.0,2.5824418,0.8983988,1.1907982
convnext_large,1,99,NaN,cat,cat,1,0099_lp_dnn_1_cat_10_n02124075_2268.png,n02124075_2268.png,1.0,3.4556892,0.47249156,2.1094394
convnext_large,1,100,NaN,knife,boat,3,0100_lp_dnn_3_boat_10_n04273569_1137.png,n04273569_1137.png,0.0,0.5716256,2.0795832,-1.066287
convnext_large,1,101,NaN,chair,chair,1,0101_lp_dnn_1_chair_10_n02791124_15383.png,n02791124_15383.png,1.0,2.6773667,0.2008467,1.7511642
convnext_large,1,102,NaN,knife,clock,15,0102_lp_dnn_15_clock_10_n04548280_8998.png,n04548280_8998.png,0.0,1.483888,5.120228,-2.5712805
convnext_large,1,103,NaN,dog,dog,0,0103_lp_dnn_0_dog_10_n02097047_2800.png,n02097047_2800.png,1.0,0.8212396,0.30021012,0.3684235
convnext_large,1,104,NaN,knife,bicycle,15,0104_lp_dnn_15_bicycle_10_n03792782_18294.png,n03792782_18294.png,0.0,-1.2733474,3.3503375,-3.269439
convnext_large,1,105,NaN,elephant,elephant,0,0105_lp_dnn_0_elephant_10_n02504013_24486.png,n02504013_24486.png,1.0,6.7984486,0.27561057,4.6123433
convnext_large,1,106,NaN,knife,airplane,7,0106_lp_dnn_7_airplane_10_n02690373_2923.png,n02690373_2923.png,0.0,0.5074504,4.8806806,-3.0923407
convnext_large,1,107,NaN,airplane,airplane,3,0107_lp_dnn_3_airplane_10_n02690373_15392.png,n02690373_15392.png,1.0,5.925322,0.845346,3.5920856
convnext_large,1,108,NaN,oven,oven,5,0108_lp_dnn_5_oven_10_n04111531_6080.png,n04111531_6080.png,1.0,4.440361,2.0083096,1.7197201
convnext_large,1,109,NaN,knife,bear,15,0109_lp_dnn_15_bear_10_n02134084_22736.png,n02134084_22736.png,0.0,-0.4750176,5.884777,-4.497054
convnext_large,1,110,NaN,knife,knife,1,0110_lp_dnn_1_knife_10_n03041632_33326.png,n03041632_33326.png,1.0,7.8699408,1.0915904,4.7930174
convnext_large,1,111,NaN,knife,truck,40,0111_lp_dnn_40_truck_10_n04467665_66876.png,n04467665_66876.png,0.0,-0.7093018,2.816063,-2.4928095
convnext_large,1,112,NaN,knife,truck,40,0112_lp_dnn_40_truck_10_n03796401_10234.png,n03796401_10234.png,0.0,-0.9083928,2.953301,-2.73063
convnext_large,1,113,NaN,knife,bicycle,7,0113_lp_dnn_7_bicycle_10_n03792782_5416.png,n03792782_5416.png,0.0,-1.103375,1.8376863,-2.0796444
convnext_large,1,114,NaN,clock,knife,7,0114_lp_dnn_7_knife_10_n03041632_25772.png,n03041632_25772.png,0.0,2.6929631,2.9711945,-0.1967393
convnext_large,1,115,NaN,knife,bicycle,10,0115_lp_dnn_10_bicycle_10_n03792782_7108.png,n03792782_7108.png,0.0,-1.0433545,2.5569208,-2.545779
convnext_large,1,116,NaN,chair,chair,0,0116_lp_dnn_0_chair_10_n03376595_1981.png,n03376595_1981.png,1.0,2.4953277,0.3345154,1.5279251
convnext_large,1,117,NaN,knife,oven,15,0117_lp_dnn_15_oven_10_n04111531_6508.png,n04111531_6508.png,0.0,1.2631216,4.6689367,-2.4082751
convnext_large,1,118,NaN,keyboard,bird,15,0118_lp_dnn_15_bird_10_n01843383_2843.png,n01843383_2843.png,0.0,-0.008911751,2.6833854,-1.9037416
convnext_large,1,119,NaN,cat,cat,5,0119_lp_dnn_5_cat_10_n02123597_5887.png,n02123597_5887.png,1.0,2.8078496,1.0530268,1.2408471
convnext_large,1,120,NaN,clock,clock,40,0120_lp_dnn_40_clock_10_n04548280_9801.png,n04548280_9801.png,1.0,2.12769,1.8959229,0.16388415
convnext_large,1,121,NaN,bird,bird,1,0121_lp_dnn_1_bird_10_n01530575_10332.png,n01530575_10332.png,1.0,0.4304648,0.38272557,0.03375674
convnext_large,1,122,NaN,knife,elephant,15,0122_lp_dnn_15_elephant_10_n02504013_5887.png,n02504013_5887.png,0.0,0.31843436,3.3972101,-2.1770234
convnext_large,1,123,NaN,cat,cat,3,0123_lp_dnn_3_cat_10_n02124075_8693.png,n02124075_8693.png,1.0,3.2723997,1.1552178,1.4970737
convnext_large,1,124,NaN,knife,boat,15,0124_lp_dnn_15_boat_10_n04612504_26151.png,n04612504_26151.png,0.0,-1.0886704,6.220483,-5.1683517
convnext_large,1,125,NaN,knife,cat,7,0125_lp_dnn_7_cat_10_n02125311_53412.png,n02125311_53412.png,0.0,0.30793422,3.1803253,-2.0310872
convnext_large,1,126,NaN,knife,knife,7,0126_lp_dnn_7_knife_10_n03041632_46914.png,n03041632_46914.png,1.0,8.405708,1.2161627,5.0837765
convnext_large,1,127,NaN,knife,bicycle,15,0127_lp_dnn_15_bicycle_10_n03792782_5629.png,n03792782_5629.png,0.0,-1.181792,4.4856005,-4.007452
convnext_large,1,128,NaN,knife,bottle,40,0128_lp_dnn_40_bottle_10_n02823428_79.png,n02823428_79.png,0.0,1.1185795,1.8018801,-0.48316652
convnext_large,1,129,NaN,knife,dog,3,0129_lp_dnn_3_dog_10_n02101006_5024.png,n02101006_5024.png,0.0,0.68949056,0.9199642,-0.16296947
convnext_large,1,130,NaN,knife,oven,15,0130_lp_dnn_15_oven_10_n04111531_2350.png,n04111531_2350.png,0.0,1.0338757,5.5874715,-3.2198784
convnext_large,1,131,NaN,knife,airplane,7,0131_lp_dnn_7_airplane_10_n02690373_4839.png,n02690373_4839.png,0.0,0.23944569,5.8878717,-3.9940405
convnext_large,1,132,NaN,car,car,5,0132_lp_dnn_5_car_10_n03100240_2075.png,n03100240_2075.png,1.0,3.4137344,2.8835285,0.37491223
convnext_large,1,133,NaN,knife,cat,5,0133_lp_dnn_5_cat_10_n02123159_3729.png,n02123159_3729.png,0.0,0.24860759,4.6897945,-3.1403935
convnext_large,1,134,NaN,knife,knife,10,0134_lp_dnn_10_knife_10_n03041632_3079.png,n03041632_3079.png,1.0,4.4904494,1.5462457,2.0818665
convnext_large,1,135,NaN,knife,elephant,15,0135_lp_dnn_15_elephant_10_n02504013_2052.png,n02504013_2052.png,0.0,0.9094939,3.6674297,-1.9501551
convnext_large,1,136,NaN,knife,cat,40,0136_lp_dnn_40_cat_10_n02123159_3724.png,n02123159_3724.png,0.0,-0.12105667,3.2259257,-2.366674
convnext_large,1,137,NaN,knife,keyboard,15,0137_lp_dnn_15_keyboard_10_n03085013_7955.png,n03085013_7955.png,0.0,1.877567,7.3359895,-3.8596878
convnext_large,1,138,NaN,knife,bird,40,0138_lp_dnn_40_bird_10_n02056570_9872.png,n02056570_9872.png,0.0,-0.9700806,3.4769053,-3.144494
convnext_large,1,139,NaN,knife,cat,10,0139_lp_dnn_10_cat_10_n02125311_44401.png,n02125311_44401.png,0.0,0.8756363,2.000965,-0.7957276
convnext_large,1,140,NaN,knife,airplane,10,0140_lp_dnn_10_airplane_10_n02690373_10657.png,n02690373_10657.png,0.0,-0.018128335,6.73609,-4.775954
convnext_large,1,141,NaN,dog,bird,5,0141_lp_dnn_5_bird_10_n02025239_7919.png,n02025239_7919.png,0.0,0.08226372,1.0364727,-0.6747276
convnext_large,1,142,NaN,knife,bear,40,0142_lp_dnn_40_bear_10_n02134084_23165.png,n02134084_23165.png,0.0,-1.5563979,3.1653178,-3.3387575
convnext_large,1,143,NaN,knife,knife,40,0143_lp_dnn_40_knife_10_n03041632_28658.png,n03041632_28658.png,1.0,2.561917,1.480155,0.7649213
convnext_large,1,144,NaN,knife,keyboard,5,0144_lp_dnn_5_keyboard_10_n04505470_4371.png,n04505470_4371.png,0.0,2.9409184,2.9417782,-0.00060792617
convnext_large,1,145,NaN,keyboard,keyboard,0,0145_lp_dnn_0_keyboard_10_n03085013_14237.png,n03085013_14237.png,1.0,5.069434,0.46819413,3.2535682
convnext_large,1,146,NaN,clock,clock,0,0146_lp_dnn_0_clock_10_n03196217_6163.png,n03196217_6163.png,1.0,4.0263934,1.3568871,1.887626
convnext_large,1,147,NaN,knife,chair,15,0147_lp_dnn_15_chair_10_n02791124_3857.png,n02791124_3857.png,0.0,-0.6607131,3.5935397,-3.0082111
convnext_large,1,148,NaN,knife,truck,40,0148_lp_dnn_40_truck_10_n03417042_20650.png,n03417042_20650.png,0.0,-0.82431865,3.0730448,-2.7558522
convnext_large,1,149,NaN,truck,truck,0,0149_lp_dnn_0_truck_10_n04467665_17101.png,n04467665_17101.png,1.0,2.956716,0.41324404,1.7985064
convnext_large,1,150,NaN,chair,chair,1,0150_lp_dnn_1_chair_10_n04429376_19354.png,n04429376_19354.png,1.0,2.5574296,0.2973357,1.5981277
convnext_large,1,151,NaN,knife,knife,0,0151_lp_dnn_0_knife_10_n03041632_42156.png,n03041632_42156.png,1.0,8.411263,0.22895612,5.785765
convnext_large,1,152,NaN,car,car,1,0152_lp_dnn_1_car_10_n04285008_39.png,n04285008_39.png,1.0,4.865523,0.23935714,3.2711933
convnext_large,1,153,NaN,boat,boat,1,0153_lp_dnn_1_boat_10_n03662601_1319.png,n03662601_1319.png,1.0,2.278563,0.6925082,1.1215101
convnext_large,1,154,NaN,knife,truck,7,0154_lp_dnn_7_truck_10_n03796401_4119.png,n03796401_4119.png,0.0,-0.75937307,2.5237725,-2.3215344
convnext_large,1,155,NaN,knife,bottle,15,0155_lp_dnn_15_bottle_10_n03937543_2333.png,n03937543_2333.png,0.0,1.5549774,5.6370387,-2.8864532
convnext_large,1,156,NaN,knife,bottle,3,0156_lp_dnn_3_bottle_10_n04591713_7134.png,n04591713_7134.png,0.0,1.384911,1.6775641,-0.20693707
convnext_large,1,157,NaN,dog,dog,0,0157_lp_dnn_0_dog_10_n02107312_3673.png,n02107312_3673.png,1.0,0.33398038,0.24580172,0.062351733
convnext_large,1,158,NaN,oven,oven,3,0158_lp_dnn_3_oven_10_n04111531_8373.png,n04111531_8373.png,1.0,6.5148015,1.96482,3.2173228
convnext_large,1,159,NaN,car,car,3,0159_lp_dnn_3_car_10_n03100240_13707.png,n03100240_13707.png,1.0,3.9587555,1.8905683,1.4624293
convnext_large,1,160,NaN,chair,chair,1,0160_lp_dnn_1_chair_10_n02791124_241.png,n02791124_241.png,1.0,3.3800662,0.3432611,2.1473455
convnext_large,1,161,NaN,knife,airplane,7,0161_lp_dnn_7_airplane_10_n02690373_5628.png,n02690373_5628.png,0.0,-0.37268984,4.9344964,-3.7527473
convnext_large,1,162,NaN,knife,boat,40,0162_lp_dnn_40_boat_10_n02951358_1461.png,n02951358_1461.png,0.0,-1.0187962,2.6703458,-2.6086173
convnext_large,1,163,NaN,keyboard,keyboard,7,0163_lp_dnn_7_keyboard_10_n04505470_4501.png,n04505470_4501.png,1.0,6.0988574,2.5431771,2.5142457
convnext_large,1,164,NaN,oven,bird,1,0164_lp_dnn_1_bird_10_n02033041_11415.png,n02033041_11415.png,0.0,0.30757016,0.5510274,-0.17215028
convnext_large,1,165,NaN,knife,knife,1,0165_lp_dnn_1_knife_10_n03041632_6446.png,n03041632_6446.png,1.0,7.8236256,0.55329597,5.140899
convnext_large,1,166,NaN,bird,bird,0,0166_lp_dnn_0_bird_10_n02011460_3892.png,n02011460_3892.png,1.0,0.123703316,0.11387083,0.006952618
convnext_large,1,167,NaN,cat,cat,1,0167_lp_dnn_1_cat_10_n02125311_3174.png,n02125311_3174.png,1.0,2.4723775,0.5308341,1.3728786
convnext_large,1,168,NaN,knife,dog,10,0168_lp_dnn_10_dog_10_n02088364_7448.png,n02088364_7448.png,0.0,0.25389674,7.162595,-4.885187
convnext_large,1,169,NaN,cat,cat,1,0169_lp_dnn_1_cat_10_n02123394_4299.png,n02123394_4299.png,1.0,2.2817554,0.3585577,1.3599062
convnext_large,1,170,NaN,knife,keyboard,15,0170_lp_dnn_15_keyboard_10_n03085013_23731.png,n03085013_23731.png,0.0,1.9358635,4.9834847,-2.1549938
convnext_large,1,171,NaN,knife,knife,5,0171_lp_dnn_5_knife_10_n03041632_29285.png,n03041632_29285.png,1.0,3.186821,2.2119744,0.6893207
convnext_large,1,172,NaN,keyboard,keyboard,0,0172_lp_dnn_0_keyboard_10_n03085013_12164.png,n03085013_12164.png,1.0,6.5153027,0.8236705,4.024592
convnext_large,1,173,NaN,knife,bird,5,0173_lp_dnn_5_bird_10_n01582220_9023.png,n01582220_9023.png,0.0,-0.897716,3.5202355,-3.1239636
convnext_large,1,174,NaN,bottle,bottle,3,0174_lp_dnn_3_bottle_10_n03983396_12728.png,n03983396_12728.png,1.0,2.3467717,2.2469635,0.070575066
convnext_large,1,175,NaN,knife,dog,7,0175_lp_dnn_7_dog_10_n02111277_50807.png,n02111277_50807.png,0.0,0.7104775,2.7250571,-1.424523
convnext_large,1,176,NaN,knife,boat,5,0176_lp_dnn_5_boat_10_n04273569_2037.png,n04273569_2037.png,0.0,0.461598,5.3668213,-3.4685168
convnext_large,1,177,NaN,knife,keyboard,40,0177_lp_dnn_40_keyboard_10_n04505470_4672.png,n04505470_4672.png,0.0,0.61899257,2.731881,-1.4940377
convnext_large,1,178,NaN,knife,boat,10,0178_lp_dnn_10_boat_10_n03662601_12034.png,n03662601_12034.png,0.0,-1.1671329,4.5953207,-4.07467
convnext_large,1,179,NaN,knife,airplane,15,0179_lp_dnn_15_airplane_10_n02690373_5845.png,n02690373_5845.png,0.0,-0.6559932,5.215443,-4.1517324
convnext_large,1,180,NaN,knife,truck,5,0180_lp_dnn_5_truck_10_n03417042_12128.png,n03417042_12128.png,0.0,0.39898106,2.5009358,-1.4863064
convnext_large,1,181,NaN,knife,keyboard,10,0181_lp_dnn_10_keyboard_10_n03085013_2432.png,n03085013_2432.png,0.0,2.7220058,6.1433735,-2.4192724
convnext_large,1,182,NaN,chair,chair,5,0182_lp_dnn_5_chair_10_n03376595_9692.png,n03376595_9692.png,1.0,2.2623494,0.81761557,1.0215812
convnext_large,1,183,NaN,elephant,chair,3,0183_lp_dnn_3_chair_10_n03376595_12583.png,n03376595_12583.png,0.0,-0.6085649,3.3253121,-2.781671
convnext_large,1,184,NaN,bear,bear,0,0184_lp_dnn_0_bear_10_n02133161_2135.png,n02133161_2135.png,1.0,3.6659937,1.3234501,1.6564285
convnext_large,1,185,NaN,knife,airplane,10,0185_lp_dnn_10_airplane_10_n02690373_5176.png,n02690373_5176.png,0.0,0.048696995,6.4837046,-4.5502377
convnext_large,1,186,NaN,elephant,elephant,0,0186_lp_dnn_0_elephant_10_n02504013_10990.png,n02504013_10990.png,1.0,6.4134283,0.2957516,4.325851
convnext_large,1,187,NaN,knife,boat,10,0187_lp_dnn_10_boat_10_n02951358_3155.png,n02951358_3155.png,0.0,-1.0429206,5.028595,-4.29321
convnext_large,1,188,NaN,knife,knife,1,0188_lp_dnn_1_knife_10_n03041632_2644.png,n03041632_2644.png,1.0,8.763685,1.0961647,5.421756
convnext_large,1,189,NaN,airplane,airplane,5,0189_lp_dnn_5_airplane_10_n02690373_5184.png,n02690373_5184.png,1.0,5.652487,3.2187355,1.7209221
convnext_large,1,190,NaN,chair,chair,0,0190_lp_dnn_0_chair_10_n04099969_16161.png,n04099969_16161.png,1.0,2.3018787,0.68734413,1.1416484
convnext_large,1,191,NaN,knife,boat,10,0191_lp_dnn_10_boat_10_n03344393_5343.png,n03344393_5343.png,0.0,-0.60224545,6.9343433,-5.329173
convnext_large,1,192,NaN,oven,oven,0,0192_lp_dnn_0_oven_10_n04111531_15052.png,n04111531_15052.png,1.0,8.318628,0.46233815,5.5552363
convnext_large,1,193,NaN,knife,bicycle,15,0193_lp_dnn_15_bicycle_10_n02835271_317.png,n02835271_317.png,0.0,-1.3519248,3.632264,-3.5243535
convnext_large,1,194,NaN,airplane,bird,0,0194_lp_dnn_0_bird_10_n02002556_15721.png,n02002556_15721.png,0.0,0.33582342,0.4478266,-0.079198204
convnext_large,1,195,NaN,knife,chair,5,0195_lp_dnn_5_chair_10_n03376595_11280.png,n03376595_11280.png,0.0,0.60741323,2.3821664,-1.2549399
convnext_large,1,196,NaN,knife,keyboard,3,0196_lp_dnn_3_keyboard_10_n04505470_4621.png,n04505470_4621.png,0.0,1.7563348,1.8790416,-0.086766794
convnext_large,1,197,NaN,knife,boat,7,0197_lp_dnn_7_boat_10_n03662601_6042.png,n03662601_6042.png,0.0,1.2616171,4.2554846,-2.116984
convnext_large,1,198,NaN,airplane,dog,1,0198_lp_dnn_1_dog_10_n02086646_2810.png,n02086646_2810.png,0.0,0.26012516,0.42122635,-0.11391575
convnext_large,1,199,NaN,knife,elephant,15,0199_lp_dnn_15_elephant_10_n02504458_7835.png,n02504458_7835.png,0.0,0.2830053,3.7470894,-2.4494774
convnext_large,1,200,NaN,knife,cat,15,0200_lp_dnn_15_cat_10_n02123159_6281.png,n02123159_6281.png,0.0,0.16206086,4.9511514,-3.3863986
convnext_large,1,201,NaN,knife,knife,5,0201_lp_dnn_5_knife_10_n03041632_1661.png,n03041632_1661.png,1.0,3.468521,1.3374008,1.5069295
convnext_large,1,202,NaN,clock,clock,1,0202_lp_dnn_1_clock_10_n02708093_2806.png,n02708093_2806.png,1.0,4.414868,0.4689375,2.7901943
convnext_large,1,203,NaN,boat,boat,1,0203_lp_dnn_1_boat_10_n04273569_1201.png,n04273569_1201.png,1.0,2.891052,0.6003484,1.6197721
convnext_large,1,204,NaN,knife,bird,40,0204_lp_dnn_40_bird_10_n01614925_13283.png,n01614925_13283.png,0.0,-0.8426236,3.0682745,-2.7654226
convnext_large,1,205,NaN,knife,car,40,0205_lp_dnn_40_car_10_n02814533_51701.png,n02814533_51701.png,0.0,-0.42303088,3.0852218,-2.4807093
convnext_large,1,206,NaN,keyboard,chair,7,0206_lp_dnn_7_chair_10_n04099969_34325.png,n04099969_34325.png,0.0,0.1924039,3.1054351,-2.0598242
convnext_large,1,207,NaN,truck,truck,0,0207_lp_dnn_0_truck_10_n04467665_71305.png,n04467665_71305.png,1.0,2.064292,1.2513283,0.5748521
convnext_large,1,208,NaN,knife,boat,5,0208_lp_dnn_5_boat_10_n03344393_5916.png,n03344393_5916.png,0.0,1.8349025,4.9517994,-2.203979
convnext_large,1,209,NaN,knife,car,7,0209_lp_dnn_7_car_10_n02814533_28783.png,n02814533_28783.png,0.0,-0.24258621,3.3289664,-2.525469
convnext_large,1,210,NaN,knife,boat,15,0210_lp_dnn_15_boat_10_n03662601_16825.png,n03662601_16825.png,0.0,-0.89866906,5.5050592,-4.52812
convnext_large,1,211,NaN,keyboard,dog,0,0211_lp_dnn_0_dog_10_n02100583_10960.png,n02100583_10960.png,0.0,0.22214052,0.38066313,-0.11209241
convnext_large,1,212,NaN,elephant,elephant,10,0212_lp_dnn_10_elephant_10_n02504458_4587.png,n02504458_4587.png,1.0,3.7848668,2.3656611,1.00353
convnext_large,1,213,NaN,keyboard,bottle,10,0213_lp_dnn_10_bottle_10_n03983396_12670.png,n03983396_12670.png,0.0,0.9151941,2.2976396,-0.9775367
convnext_large,1,214,NaN,bicycle,bicycle,3,0214_lp_dnn_3_bicycle_10_n02835271_18205.png,n02835271_18205.png,1.0,4.915551,0.62649465,3.0328212
convnext_large,1,215,NaN,knife,truck,40,0215_lp_dnn_40_truck_10_n04467665_67527.png,n04467665_67527.png,0.0,-1.0437468,3.374076,-3.1238725
convnext_large,1,216,NaN,knife,keyboard,10,0216_lp_dnn_10_keyboard_10_n03085013_4374.png,n03085013_4374.png,0.0,1.8047976,8.251758,-4.558689
convnext_large,1,217,NaN,oven,clock,3,0217_lp_dnn_3_clock_10_n03196217_3086.png,n03196217_3086.png,0.0,1.2671108,1.3091097,-0.02969768
convnext_large,1,218,NaN,knife,clock,15,0218_lp_dnn_15_clock_10_n04548280_254.png,n04548280_254.png,0.0,1.3155805,5.822747,-3.1870482
convnext_large,1,219,NaN,knife,bicycle,15,0219_lp_dnn_15_bicycle_10_n02835271_21707.png,n02835271_21707.png,0.0,-1.3337193,3.1750855,-3.1882064
convnext_large,1,220,NaN,knife,bird,15,0220_lp_dnn_15_bird_10_n01819313_6340.png,n01819313_6340.png,0.0,-0.042975932,2.7242198,-1.9567028
convnext_large,1,221,NaN,knife,bicycle,5,0221_lp_dnn_5_bicycle_10_n02835271_10556.png,n02835271_10556.png,0.0,-0.5040302,1.4356622,-1.3715696
convnext_large,1,222,NaN,knife,chair,15,0222_lp_dnn_15_chair_10_n04099969_3312.png,n04099969_3312.png,0.0,-0.5766063,4.897537,-3.870804
convnext_large,1,223,NaN,knife,car,15,0223_lp_dnn_15_car_10_n04285008_2781.png,n04285008_2781.png,0.0,-0.92977494,3.4014058,-3.0626073
convnext_large,1,224,NaN,clock,clock,3,0224_lp_dnn_3_clock_10_n04548280_21263.png,n04548280_21263.png,1.0,4.993236,0.784556,2.9759862
convnext_large,1,225,NaN,knife,car,15,0225_lp_dnn_15_car_10_n02814533_9785.png,n02814533_9785.png,0.0,-0.9465351,4.3773046,-3.7645233
convnext_large,1,226,NaN,truck,truck,0,0226_lp_dnn_0_truck_10_n03417042_24100.png,n03417042_24100.png,1.0,2.198513,0.41596693,1.2604504
convnext_large,1,227,NaN,knife,dog,15,0227_lp_dnn_15_dog_10_n02091244_10926.png,n02091244_10926.png,0.0,-0.5787769,3.5282767,-2.9041257
convnext_large,1,228,NaN,knife,bottle,40,0228_lp_dnn_40_bottle_10_n04591713_2537.png,n04591713_2537.png,0.0,1.6787069,2.7258759,-0.7404603
convnext_large,1,229,NaN,knife,bear,10,0229_lp_dnn_10_bear_10_n02134418_1311.png,n02134418_1311.png,0.0,0.16387561,3.9425952,-2.6719584
convnext_large,1,230,NaN,bottle,bicycle,3,0230_lp_dnn_3_bicycle_10_n03792782_210.png,n03792782_210.png,0.0,0.05313082,1.2224131,-0.8268074
convnext_large,1,231,NaN,cat,cat,3,0231_lp_dnn_3_cat_10_n02123045_5371.png,n02123045_5371.png,1.0,4.095375,0.9823548,2.2012377
convnext_large,1,232,NaN,knife,boat,15,0232_lp_dnn_15_boat_10_n04612504_19111.png,n04612504_19111.png,0.0,-1.0433881,4.857558,-4.172599
convnext_large,1,233,NaN,clock,clock,1,0233_lp_dnn_1_clock_10_n03196217_7836.png,n03196217_7836.png,1.0,5.0354466,0.29168862,3.3543437
convnext_large,1,234,NaN,elephant,dog,0,0234_lp_dnn_0_dog_10_n02086910_9742.png,n02086910_9742.png,0.0,0.29126304,0.49765489,-0.14594108
convnext_large,1,235,NaN,bottle,bottle,1,0235_lp_dnn_1_bottle_10_n03937543_4723.png,n03937543_4723.png,1.0,0.80078954,0.6560322,0.10235889
convnext_large,1,236,NaN,knife,dog,5,0236_lp_dnn_5_dog_10_n02111129_6495.png,n02111129_6495.png,0.0,0.7335296,1.3872391,-0.4622424
convnext_large,1,237,NaN,knife,knife,1,0237_lp_dnn_1_knife_10_n03041632_3101.png,n03041632_3101.png,1.0,7.94033,0.22848064,5.453101
convnext_large,1,238,NaN,bear,bear,0,0238_lp_dnn_0_bear_10_n02134084_7373.png,n02134084_7373.png,1.0,2.8282666,0.7939252,1.4384966
convnext_large,1,239,NaN,keyboard,bird,7,0239_lp_dnn_7_bird_10_n02009229_11916.png,n02009229_11916.png,0.0,0.15821664,1.5636355,-0.9937812
convnext_large,1,240,NaN,knife,oven,7,0240_lp_dnn_7_oven_10_n04111531_14208.png,n04111531_14208.png,0.0,3.9831138,6.573806,-1.831896
convnext_large,1,241,NaN,knife,bird,3,0241_lp_dnn_3_bird_10_n01601694_20287.png,n01601694_20287.png,0.0,0.11178799,1.073287,-0.6798825
convnext_large,1,242,NaN,knife,oven,15,0242_lp_dnn_15_oven_10_n04111531_5519.png,n04111531_5519.png,0.0,0.45441806,5.3411074,-3.4554112
convnext_large,1,243,NaN,car,car,1,0243_lp_dnn_1_car_10_n04285008_10893.png,n04285008_10893.png,1.0,5.001291,0.25229058,3.35805
convnext_large,1,244,NaN,knife,boat,40,0244_lp_dnn_40_boat_10_n02951358_16196.png,n02951358_16196.png,0.0,-0.92497605,3.338627,-3.0148227
convnext_large,1,245,NaN,knife,clock,7,0245_lp_dnn_7_clock_10_n04548280_532.png,n04548280_532.png,0.0,3.1766825,7.714056,-3.2084076
convnext_large,1,246,NaN,keyboard,keyboard,0,0246_lp_dnn_0_keyboard_10_n04505470_73.png,n04505470_73.png,1.0,5.8543825,0.6128222,3.706343
convnext_large,1,247,NaN,keyboard,bottle,10,0247_lp_dnn_10_bottle_10_n02823428_6766.png,n02823428_6766.png,0.0,1.0002543,4.787634,-2.678082
convnext_large,1,248,NaN,knife,boat,15,0248_lp_dnn_15_boat_10_n02951358_26579.png,n02951358_26579.png,0.0,-1.0768585,3.2272694,-3.043478
convnext_large,1,249,NaN,knife,dog,10,0249_lp_dnn_10_dog_10_n02085782_7651.png,n02085782_7651.png,0.0,0.05452085,3.3724403,-2.3461235
convnext_large,1,250,NaN,clock,clock,3,0250_lp_dnn_3_clock_10_n02708093_1747.png,n02708093_1747.png,1.0,5.2287817,0.81585306,3.1204119
convnext_large,1,251,NaN,truck,truck,3,0251_lp_dnn_3_truck_10_n04467665_19645.png,n04467665_19645.png,1.0,2.573291,1.903564,0.47356856
convnext_large,1,252,NaN,knife,airplane,15,0252_lp_dnn_15_airplane_10_n02690373_17262.png,n02690373_17262.png,0.0,-1.0150666,5.5804563,-4.663739
convnext_large,1,253,NaN,elephant,elephant,0,0253_lp_dnn_0_elephant_10_n02504458_10428.png,n02504458_10428.png,1.0,6.26528,0.2781217,4.23356
convnext_large,1,254,NaN,knife,cat,7,0254_lp_dnn_7_cat_10_n02124075_9149.png,n02124075_9149.png,0.0,1.7463031,2.7843313,-0.7339968
convnext_large,1,255,NaN,knife,elephant,10,0255_lp_dnn_10_elephant_10_n02504013_7923.png,n02504013_7923.png,0.0,-0.20536053,3.8807998,-2.8893516
convnext_large,1,256,NaN,cat,cat,3,0256_lp_dnn_3_cat_10_n02123394_4789.png,n02123394_4789.png,1.0,2.8563945,1.2660359,1.1245533
convnext_large,1,257,NaN,knife,clock,5,0257_lp_dnn_5_clock_10_n03196217_2530.png,n03196217_2530.png,0.0,2.3637106,3.4306865,-0.7544659
convnext_large,1,258,NaN,knife,airplane,5,0258_lp_dnn_5_airplane_10_n02690373_6992.png,n02690373_6992.png,0.0,1.7991421,2.5361092,-0.5211144
convnext_large,1,259,NaN,keyboard,airplane,3,0259_lp_dnn_3_airplane_10_n02690373_5056.png,n02690373_5056.png,0.0,1.9363728,2.3613942,-0.30053553
convnext_large,1,260,NaN,bear,bear,1,0260_lp_dnn_1_bear_10_n02134418_2231.png,n02134418_2231.png,1.0,3.3037047,0.4519559,2.016491
convnext_large,1,261,NaN,knife,truck,10,0261_lp_dnn_10_truck_10_n03796401_180.png,n03796401_180.png,0.0,-0.62669224,4.905306,-3.9117134
convnext_large,1,262,NaN,bicycle,bicycle,3,0262_lp_dnn_3_bicycle_10_n02835271_3246.png,n02835271_3246.png,1.0,4.77369,0.86241496,2.7656894
convnext_large,1,263,NaN,truck,truck,3,0263_lp_dnn_3_truck_10_n03796401_599.png,n03796401_599.png,1.0,2.1471813,0.6280419,1.0741937
convnext_large,1,264,NaN,knife,oven,7,0264_lp_dnn_7_oven_10_n04111531_13862.png,n04111531_13862.png,0.0,1.0284986,3.6137962,-1.8280815
convnext_large,1,265,NaN,oven,oven,0,0265_lp_dnn_0_oven_10_n04111531_10420.png,n04111531_10420.png,1.0,7.9453115,1.3353057,4.67398
convnext_large,1,266,NaN,knife,car,10,0266_lp_dnn_10_car_10_n03100240_15531.png,n03100240_15531.png,0.0,-0.84830475,3.8577445,-3.3276792
convnext_large,1,267,NaN,knife,dog,7,0267_lp_dnn_7_dog_10_n02099849_3128.png,n02099849_3128.png,0.0,-0.19290781,4.372964,-3.228559
convnext_large,1,268,NaN,knife,chair,5,0268_lp_dnn_5_chair_10_n02791124_3222.png,n02791124_3222.png,0.0,0.2730353,2.3914967,-1.4979784
convnext_large,1,269,NaN,keyboard,keyboard,5,0269_lp_dnn_5_keyboard_10_n04505470_8364.png,n04505470_8364.png,1.0,5.667467,1.8510967,2.6985815
convnext_large,1,270,NaN,clock,clock,0,0270_lp_dnn_0_clock_10_n04548280_9294.png,n04548280_9294.png,1.0,4.850921,0.48540932,3.086883
convnext_large,1,271,NaN,knife,bottle,7,0271_lp_dnn_7_bottle_10_n03937543_3358.png,n03937543_3358.png,0.0,1.8165187,2.9436774,-0.7970216
convnext_large,1,272,NaN,knife,knife,7,0272_lp_dnn_7_knife_10_n03041632_2058.png,n03041632_2058.png,1.0,7.798724,0.88825226,4.8864417
convnext_large,1,273,NaN,elephant,elephant,1,0273_lp_dnn_1_elephant_10_n02504458_5671.png,n02504458_5671.png,1.0,3.796174,0.9126483,2.0389607
convnext_large,1,274,NaN,knife,chair,10,0274_lp_dnn_10_chair_10_n02791124_6281.png,n02791124_6281.png,0.0,-0.6712761,4.9262266,-3.9580321
convnext_large,1,275,NaN,knife,cat,15,0275_lp_dnn_15_cat_10_n02125311_44920.png,n02125311_44920.png,0.0,0.12582539,5.3837495,-3.7179139
convnext_large,1,276,NaN,airplane,airplane,5,0276_lp_dnn_5_airplane_10_n02690373_2981.png,n02690373_2981.png,1.0,5.574253,3.2011876,1.6780107
convnext_large,1,277,NaN,knife,knife,1,0277_lp_dnn_1_knife_10_n03041632_2468.png,n03041632_2468.png,1.0,7.026554,-0.09721848,5.037268
convnext_large,1,278,NaN,clock,clock,1,0278_lp_dnn_1_clock_10_n02708093_3605.png,n02708093_3605.png,1.0,4.8945475,0.441189,3.1490002
convnext_large,1,279,NaN,bicycle,bicycle,1,0279_lp_dnn_1_bicycle_10_n02835271_19019.png,n02835271_19019.png,1.0,5.2317305,0.5125848,3.33694
convnext_large,1,280,NaN,keyboard,keyboard,7,0280_lp_dnn_7_keyboard_10_n03085013_1188.png,n03085013_1188.png,1.0,5.220501,2.9727604,1.5893925
convnext_large,1,281,NaN,oven,oven,1,0281_lp_dnn_1_oven_10_n04111531_2715.png,n04111531_2715.png,1.0,9.256106,0.52299035,6.175246
convnext_large,1,282,NaN,knife,keyboard,10,0282_lp_dnn_10_keyboard_10_n03085013_9533.png,n03085013_9533.png,0.0,1.2851715,8.5165205,-5.113336
convnext_large,1,283,NaN,cat,cat,3,0283_lp_dnn_3_cat_10_n02123045_20366.png,n02123045_20366.png,1.0,4.317312,0.41615152,2.7585368
convnext_large,1,284,NaN,keyboard,chair,5,0284_lp_dnn_5_chair_10_n03376595_302.png,n03376595_302.png,0.0,0.99419117,3.0623868,-1.4624351
convnext_large,1,285,NaN,keyboard,cat,7,0285_lp_dnn_7_cat_10_n02123597_14267.png,n02123597_14267.png,0.0,2.2133625,2.6865125,-0.33456758
convnext_large,1,286,NaN,knife,dog,15,0286_lp_dnn_15_dog_10_n02098286_2582.png,n02098286_2582.png,0.0,-0.24340056,3.153864,-2.4022288
convnext_large,1,287,NaN,boat,boat,1,0287_lp_dnn_1_boat_10_n03344393_4001.png,n03344393_4001.png,1.0,1.9773687,0.6848054,0.9139803
convnext_large,1,288,NaN,knife,bicycle,15,0288_lp_dnn_15_bicycle_10_n02835271_6122.png,n02835271_6122.png,0.0,-1.2123373,4.7169366,-4.19263
convnext_large,1,289,NaN,dog,dog,3,0289_lp_dnn_3_dog_10_n02091134_3075.png,n02091134_3075.png,1.0,2.2021127,0.7395083,1.0342175
convnext_large,1,290,NaN,knife,oven,40,0290_lp_dnn_40_oven_10_n04111531_4795.png,n04111531_4795.png,0.0,-0.98472977,2.766924,-2.6528199
convnext_large,1,291,NaN,knife,bottle,10,0291_lp_dnn_10_bottle_10_n04591713_4876.png,n04591713_4876.png,0.0,1.1725323,4.2844086,-2.2004287
convnext_large,1,292,NaN,bottle,bottle,0,0292_lp_dnn_0_bottle_10_n02823428_2510.png,n02823428_2510.png,1.0,3.1519508,0.280967,2.0300922
convnext_large,1,293,NaN,keyboard,keyboard,1,0293_lp_dnn_1_keyboard_10_n03085013_5950.png,n03085013_5950.png,1.0,6.256713,0.8925637,3.7930262
convnext_large,1,294,NaN,knife,bear,5,0294_lp_dnn_5_bear_10_n02133161_1490.png,n02133161_1490.png,0.0,0.7639506,2.233921,-1.0394261
convnext_large,1,295,NaN,knife,truck,10,0295_lp_dnn_10_truck_10_n03796401_28465.png,n03796401_28465.png,0.0,1.1528475,4.73806,-2.535128
convnext_large,1,296,NaN,knife,bottle,15,0296_lp_dnn_15_bottle_10_n02823428_6627.png,n02823428_6627.png,0.0,1.1722475,5.9413824,-3.3722878
convnext_large,1,297,NaN,knife,truck,5,0297_lp_dnn_5_truck_10_n04467665_69582.png,n04467665_69582.png,0.0,0.15604006,5.0837517,-3.4844182
convnext_large,1,298,NaN,knife,bird,40,0298_lp_dnn_40_bird_10_n02006656_10568.png,n02006656_10568.png,0.0,-1.120284,4.1741924,-3.7437603
convnext_large,1,299,NaN,knife,car,40,0299_lp_dnn_40_car_10_n04285008_11748.png,n04285008_11748.png,0.0,-0.77516794,2.1486254,-2.067434
convnext_large,1,300,NaN,truck,truck,5,0300_lp_dnn_5_truck_10_n04467665_44714.png,n04467665_44714.png,1.0,3.0190551,1.3790667,1.159647
convnext_large,1,301,NaN,airplane,airplane,3,0301_lp_dnn_3_airplane_10_n02690373_7487.png,n02690373_7487.png,1.0,6.8731866,2.5521276,3.0554504
convnext_large,1,302,NaN,knife,elephant,15,0302_lp_dnn_15_elephant_10_n02504458_7472.png,n02504458_7472.png,0.0,-0.3315765,3.1490612,-2.4611826
convnext_large,1,303,NaN,airplane,boat,3,0303_lp_dnn_3_boat_10_n03662601_25023.png,n03662601_25023.png,0.0,-0.043660212,1.6767172,-1.2164905
convnext_large,1,304,NaN,knife,knife,0,0304_lp_dnn_0_knife_10_n03041632_101673.png,n03041632_101673.png,1.0,6.8235908,0.6660952,4.354007
convnext_large,1,305,NaN,knife,bottle,7,0305_lp_dnn_7_bottle_10_n03983396_587.png,n03983396_587.png,0.0,0.75205946,3.9503696,-2.2615469
convnext_large,1,306,NaN,elephant,cat,3,0306_lp_dnn_3_cat_10_n02124075_7692.png,n02124075_7692.png,0.0,1.9341239,3.5456958,-1.1395534
convnext_large,1,307,NaN,oven,oven,0,0307_lp_dnn_0_oven_10_n04111531_6313.png,n04111531_6313.png,1.0,8.745081,0.40067694,5.900385
convnext_large,1,308,NaN,clock,bird,7,0308_lp_dnn_7_bird_10_n02018795_5770.png,n02018795_5770.png,0.0,-0.22278309,2.321263,-1.7989123
convnext_large,1,309,NaN,bottle,bottle,3,0309_lp_dnn_3_bottle_10_n02823428_4658.png,n02823428_4658.png,1.0,3.0216084,1.581629,1.0182191
convnext_large,1,310,NaN,airplane,airplane,1,0310_lp_dnn_1_airplane_10_n02690373_2724.png,n02690373_2724.png,1.0,8.439423,0.2479448,5.7922497
convnext_large,1,311,NaN,knife,boat,40,0311_lp_dnn_40_boat_10_n04612504_7446.png,n04612504_7446.png,0.0,-1.0066458,2.403945,-2.4116518
convnext_large,1,312,NaN,knife,boat,7,0312_lp_dnn_7_boat_10_n02951358_34783.png,n02951358_34783.png,0.0,-0.87464666,4.2671213,-3.6357791
convnext_large,1,313,NaN,cat,cat,0,0313_lp_dnn_0_cat_10_n02123597_680.png,n02123597_680.png,1.0,3.5828066,0.77913654,1.982494
convnext_large,1,314,NaN,knife,bear,10,0314_lp_dnn_10_bear_10_n02133161_9863.png,n02133161_9863.png,0.0,0.5772356,2.0427065,-1.0362444
convnext_large,1,315,NaN,bear,bear,1,0315_lp_dnn_1_bear_10_n02133161_2100.png,n02133161_2100.png,1.0,5.110918,0.5020311,3.258975
convnext_large,1,316,NaN,oven,oven,3,0316_lp_dnn_3_oven_10_n04111531_8009.png,n04111531_8009.png,1.0,7.858696,1.5677128,4.448397
convnext_large,1,317,NaN,knife,car,40,0317_lp_dnn_40_car_10_n03100240_16525.png,n03100240_16525.png,0.0,-0.39332435,2.468611,-2.023694
convnext_large,1,318,NaN,clock,bird,5,0318_lp_dnn_5_bird_10_n01824575_4941.png,n01824575_4941.png,0.0,0.07696588,1.4183817,-0.9485242
convnext_large,1,319,NaN,knife,knife,15,0319_lp_dnn_15_knife_10_n03041632_289.png,n03041632_289.png,1.0,3.8372993,2.2202559,1.1434225
convnext_large,1,320,NaN,knife,dog,10,0320_lp_dnn_10_dog_10_n02101006_15350.png,n02101006_15350.png,0.0,0.11742485,4.237054,-2.9130175
convnext_large,1,321,NaN,elephant,elephant,5,0321_lp_dnn_5_elephant_10_n02504458_1636.png,n02504458_1636.png,1.0,2.9434168,1.3324646,1.1391153
convnext_large,1,322,NaN,knife,car,7,0322_lp_dnn_7_car_10_n04285008_8666.png,n04285008_8666.png,0.0,-1.1901022,3.088869,-3.0256896
convnext_large,1,323,NaN,bottle,bottle,5,0323_lp_dnn_5_bottle_10_n02823428_5451.png,n02823428_5451.png,1.0,3.8555863,1.7118251,1.5158681
convnext_large,1,324,NaN,car,car,3,0324_lp_dnn_3_car_10_n03100240_2495.png,n03100240_2495.png,1.0,5.0239854,1.3157735,2.6221018
convnext_large,1,325,NaN,knife,bicycle,10,0325_lp_dnn_10_bicycle_10_n02835271_19565.png,n02835271_19565.png,0.0,-1.1087784,2.6819081,-2.6804202
convnext_large,1,326,NaN,airplane,airplane,1,0326_lp_dnn_1_airplane_10_n02690373_349.png,n02690373_349.png,1.0,8.598593,0.31200776,5.8595004
convnext_large,1,327,NaN,knife,cat,7,0327_lp_dnn_7_cat_10_n02123045_20512.png,n02123045_20512.png,0.0,2.340807,4.182592,-1.3023386
convnext_large,1,328,NaN,keyboard,keyboard,1,0328_lp_dnn_1_keyboard_10_n03085013_23619.png,n03085013_23619.png,1.0,5.3598814,0.51090133,3.4287467
convnext_large,1,329,NaN,knife,boat,7,0329_lp_dnn_7_boat_10_n03662601_16925.png,n03662601_16925.png,0.0,-0.3649991,3.8605633,-2.987924
convnext_large,1,330,NaN,knife,oven,10,0330_lp_dnn_10_oven_10_n04111531_12830.png,n04111531_12830.png,0.0,1.578395,4.329235,-1.9451377
convnext_large,1,331,NaN,knife,boat,5,0331_lp_dnn_5_boat_10_n02951358_33277.png,n02951358_33277.png,0.0,1.0569408,1.7570572,-0.49505705
convnext_large,1,332,NaN,knife,bear,15,0332_lp_dnn_15_bear_10_n02133161_156.png,n02133161_156.png,0.0,-0.434318,2.6754723,-2.1989539
convnext_large,1,333,NaN,knife,cat,40,0333_lp_dnn_40_cat_10_n02124075_6638.png,n02124075_6638.png,0.0,-0.31975985,3.1381643,-2.4451215
convnext_large,1,334,NaN,knife,keyboard,10,0334_lp_dnn_10_keyboard_10_n04505470_4587.png,n04505470_4587.png,0.0,2.720193,4.070753,-0.95499027
convnext_large,1,335,NaN,knife,bear,10,0335_lp_dnn_10_bear_10_n02134084_27899.png,n02134084_27899.png,0.0,0.46873268,6.2912936,-4.1171722
convnext_large,1,336,NaN,keyboard,keyboard,0,0336_lp_dnn_0_keyboard_10_n03085013_10984.png,n03085013_10984.png,1.0,5.403632,0.5890271,3.4044402
convnext_large,1,337,NaN,keyboard,bottle,5,0337_lp_dnn_5_bottle_10_n03983396_10469.png,n03983396_10469.png,0.0,1.2945715,3.1099677,-1.283679
convnext_large,1,338,NaN,keyboard,knife,10,0338_lp_dnn_10_knife_10_n03041632_20707.png,n03041632_20707.png,0.0,2.0830274,2.3233368,-0.16992447
convnext_large,1,339,NaN,car,car,1,0339_lp_dnn_1_car_10_n04285008_9411.png,n04285008_9411.png,1.0,3.605924,0.5247572,2.178714
convnext_large,1,340,NaN,clock,airplane,40,0340_lp_dnn_40_airplane_10_n02690373_4671.png,n02690373_4671.png,0.0,-0.19634381,2.5078714,-1.912169
convnext_large,1,341,NaN,knife,knife,7,0341_lp_dnn_7_knife_10_n03041632_16206.png,n03041632_16206.png,1.0,3.661632,1.4307317,1.5774847
convnext_large,1,342,NaN,knife,bicycle,5,0342_lp_dnn_5_bicycle_10_n03792782_7180.png,n03792782_7180.png,0.0,-0.19377747,2.2653985,-1.7389001
convnext_large,1,343,NaN,bear,bear,0,0343_lp_dnn_0_bear_10_n02134418_2719.png,n02134418_2719.png,1.0,2.9302278,0.29116517,1.8660991
convnext_large,1,344,NaN,chair,chair,0,0344_lp_dnn_0_chair_10_n04099969_2038.png,n04099969_2038.png,1.0,3.9641502,0.5514761,2.413125
convnext_large,1,345,NaN,dog,dog,1,0345_lp_dnn_1_dog_10_n02113023_5237.png,n02113023_5237.png,1.0,0.817231,0.64905703,0.11891696
convnext_large,1,346,NaN,knife,airplane,40,0346_lp_dnn_40_airplane_10_n02690373_2525.png,n02690373_2525.png,0.0,-0.39420164,3.7052083,-2.8987207
convnext_large,1,347,NaN,clock,clock,7,0347_lp_dnn_7_clock_10_n04548280_219.png,n04548280_219.png,1.0,2.1807182,1.0177408,0.8223492
convnext_large,1,348,NaN,knife,boat,15,0348_lp_dnn_15_boat_10_n04612504_2805.png,n04612504_2805.png,0.0,-1.2936193,4.7004,-4.2384114
convnext_large,1,349,NaN,clock,clock,7,0349_lp_dnn_7_clock_10_n02708093_7020.png,n02708093_7020.png,1.0,3.9872382,2.3921375,1.1279064
convnext_large,1,350,NaN,oven,oven,3,0350_lp_dnn_3_oven_10_n04111531_5171.png,n04111531_5171.png,1.0,2.342567,0.89724123,1.0219996
convnext_large,1,351,NaN,cat,cat,3,0351_lp_dnn_3_cat_10_n02125311_37322.png,n02125311_37322.png,1.0,1.4882845,1.0695214,0.29611018
convnext_large,1,352,NaN,knife,cat,7,0352_lp_dnn_7_cat_10_n02123597_14094.png,n02123597_14094.png,0.0,0.14278848,4.6254807,-3.169742
convnext_large,1,353,NaN,knife,boat,15,0353_lp_dnn_15_boat_10_n02951358_13352.png,n02951358_13352.png,0.0,-1.4214741,3.6804852,-3.60763
convnext_large,1,354,NaN,knife,bicycle,10,0354_lp_dnn_10_bicycle_10_n02835271_20445.png,n02835271_20445.png,0.0,-1.1044664,7.9794292,-6.4232845
convnext_large,1,355,NaN,knife,knife,7,0355_lp_dnn_7_knife_10_n03041632_4708.png,n03041632_4708.png,1.0,4.0983014,2.346734,1.2385452
convnext_large,1,356,NaN,knife,oven,7,0356_lp_dnn_7_oven_10_n04111531_505.png,n04111531_505.png,0.0,3.1646326,5.0059586,-1.3020141
convnext_large,1,357,NaN,bicycle,bicycle,1,0357_lp_dnn_1_bicycle_10_n03792782_104.png,n03792782_104.png,1.0,7.0724344,0.71312743,4.496709
convnext_large,1,358,NaN,knife,bottle,40,0358_lp_dnn_40_bottle_10_n04591713_5204.png,n04591713_5204.png,0.0,1.6891128,2.4699023,-0.55210155
convnext_large,1,359,NaN,bicycle,bicycle,5,0359_lp_dnn_5_bicycle_10_n03792782_5578.png,n03792782_5578.png,1.0,2.6547856,1.724022,0.65814924
convnext_large,1,360,NaN,knife,truck,10,0360_lp_dnn_10_truck_10_n03417042_1437.png,n03417042_1437.png,0.0,-0.87935925,4.2632265,-3.6363573
convnext_large,1,361,NaN,cat,cat,0,0361_lp_dnn_0_cat_10_n02123045_7482.png,n02123045_7482.png,1.0,3.5606098,0.43460473,2.2104194
convnext_large,1,362,NaN,knife,bird,10,0362_lp_dnn_10_bird_10_n02037110_554.png,n02037110_554.png,0.0,-0.47666666,2.0214298,-1.766421
convnext_large,1,363,NaN,knife,bicycle,5,0363_lp_dnn_5_bicycle_10_n03792782_15.png,n03792782_15.png,0.0,-0.47520036,1.6648529,-1.5132462
convnext_large,1,364,NaN,knife,bicycle,5,0364_lp_dnn_5_bicycle_10_n02835271_7450.png,n02835271_7450.png,0.0,0.32552397,1.9635373,-1.1582503
convnext_large,1,365,NaN,knife,boat,5,0365_lp_dnn_5_boat_10_n03344393_3881.png,n03344393_3881.png,0.0,0.0247144,2.9889064,-2.0960002
convnext_large,1,366,NaN,knife,chair,10,0366_lp_dnn_10_chair_10_n04099969_3623.png,n04099969_3623.png,0.0,-0.03929854,2.8874764,-2.0695424
convnext_large,1,367,NaN,knife,airplane,5,0367_lp_dnn_5_airplane_10_n02690373_2579.png,n02690373_2579.png,0.0,4.833013,7.430351,-1.8365952
convnext_large,1,368,NaN,knife,dog,15,0368_lp_dnn_15_dog_10_n02093859_3707.png,n02093859_3707.png,0.0,-0.20110144,5.40376,-3.9632354
convnext_large,1,369,NaN,bottle,bottle,1,0369_lp_dnn_1_bottle_10_n04560804_22426.png,n04560804_22426.png,1.0,2.9405544,0.9286569,1.4226264
convnext_large,1,370,NaN,knife,clock,15,0370_lp_dnn_15_clock_10_n03196217_82.png,n03196217_82.png,0.0,0.24241708,4.1008797,-2.7283452
convnext_large,1,371,NaN,knife,car,5,0371_lp_dnn_5_car_10_n03100240_16907.png,n03100240_16907.png,0.0,2.6833012,3.2336862,-0.38918096
convnext_large,1,372,NaN,keyboard,oven,5,0372_lp_dnn_5_oven_10_n04111531_9548.png,n04111531_9548.png,0.0,1.3644259,3.002296,-1.158149
convnext_large,1,373,NaN,clock,clock,7,0373_lp_dnn_7_clock_10_n02708093_3751.png,n02708093_3751.png,1.0,4.8345547,0.65188944,2.957591
convnext_large,1,374,NaN,knife,car,7,0374_lp_dnn_7_car_10_n02814533_6593.png,n02814533_6593.png,0.0,-0.97936493,3.7340336,-3.332876
convnext_large,1,375,NaN,airplane,airplane,0,0375_lp_dnn_0_airplane_10_n02690373_3212.png,n02690373_3212.png,1.0,8.5036955,0.23411217,5.847479
convnext_large,1,376,NaN,cat,cat,1,0376_lp_dnn_1_cat_10_n02123045_5820.png,n02123045_5820.png,1.0,4.3895245,0.8622783,2.4941397
convnext_large,1,377,NaN,elephant,elephant,3,0377_lp_dnn_3_elephant_10_n02504458_205.png,n02504458_205.png,1.0,6.586879,1.0972717,3.8817382
convnext_large,1,378,NaN,knife,elephant,10,0378_lp_dnn_10_elephant_10_n02504013_3425.png,n02504013_3425.png,0.0,-0.008688152,2.5359683,-1.799344
convnext_large,1,379,NaN,knife,bird,15,0379_lp_dnn_15_bird_10_n02056570_9572.png,n02056570_9572.png,0.0,-0.6110745,4.1115856,-3.339425
convnext_large,1,380,NaN,knife,elephant,40,0380_lp_dnn_40_elephant_10_n02504013_7635.png,n02504013_7635.png,0.0,-0.97642887,2.7364402,-2.625395
convnext_large,1,381,NaN,knife,boat,10,0381_lp_dnn_10_boat_10_n04273569_10716.png,n04273569_10716.png,0.0,-1.2242315,6.066481,-5.155312
convnext_large,1,382,NaN,knife,bear,15,0382_lp_dnn_15_bear_10_n02134084_19849.png,n02134084_19849.png,0.0,0.02106738,3.4693785,-2.4383242
convnext_large,1,383,NaN,knife,boat,40,0383_lp_dnn_40_boat_10_n03662601_35800.png,n03662601_35800.png,0.0,-1.0029566,2.1246376,-2.211543
convnext_large,1,384,NaN,knife,bicycle,40,0384_lp_dnn_40_bicycle_10_n03792782_29276.png,n03792782_29276.png,0.0,-0.9453467,3.6693332,-3.2630715
convnext_large,1,385,NaN,knife,oven,10,0385_lp_dnn_10_oven_10_n04111531_4392.png,n04111531_4392.png,0.0,0.39195994,2.6816607,-1.6190629
convnext_large,1,386,NaN,airplane,airplane,0,0386_lp_dnn_0_airplane_10_n02690373_7099.png,n02690373_7099.png,1.0,8.761491,0.3884521,5.9206324
convnext_large,1,387,NaN,knife,cat,5,0387_lp_dnn_5_cat_10_n02124075_13187.png,n02124075_13187.png,0.0,1.0934755,1.3127863,-0.1550762
convnext_large,1,388,NaN,knife,knife,0,0388_lp_dnn_0_knife_10_n03041632_32048.png,n03041632_32048.png,1.0,9.179266,1.0123354,5.774892
convnext_large,1,389,NaN,airplane,airplane,3,0389_lp_dnn_3_airplane_10_n02690373_20074.png,n02690373_20074.png,1.0,6.0635185,2.7089727,2.3720222
convnext_large,1,390,NaN,car,car,1,0390_lp_dnn_1_car_10_n02814533_83577.png,n02814533_83577.png,1.0,2.4943736,0.80187446,1.1967777
convnext_large,1,391,NaN,knife,airplane,40,0391_lp_dnn_40_airplane_10_n02690373_19134.png,n02690373_19134.png,0.0,-0.25149798,2.3267374,-1.8230878
convnext_large,1,392,NaN,knife,knife,3,0392_lp_dnn_3_knife_10_n03041632_13130.png,n03041632_13130.png,1.0,7.880288,0.1590037,5.4597726
convnext_large,1,393,NaN,knife,knife,0,0393_lp_dnn_0_knife_10_n03041632_1006.png,n03041632_1006.png,1.0,2.6281767,1.0957917,1.0835599
convnext_large,1,394,NaN,elephant,elephant,1,0394_lp_dnn_1_elephant_10_n02504458_7634.png,n02504458_7634.png,1.0,6.1057143,0.8740721,3.6993299
convnext_large,1,395,NaN,bicycle,bicycle,1,0395_lp_dnn_1_bicycle_10_n02835271_17184.png,n02835271_17184.png,1.0,4.9696274,0.33013538,3.2806163
convnext_large,1,396,NaN,oven,oven,0,0396_lp_dnn_0_oven_10_n04111531_2189.png,n04111531_2189.png,1.0,6.16537,1.7675574,3.1097233
convnext_large,1,397,NaN,knife,cat,15,0397_lp_dnn_15_cat_10_n02124075_11888.png,n02124075_11888.png,0.0,0.00440375,3.2437704,-2.2905781
convnext_large,1,398,NaN,knife,cat,10,0398_lp_dnn_10_cat_10_n02123394_1690.png,n02123394_1690.png,0.0,0.6529507,1.9020988,-0.8832811
convnext_large,1,399,NaN,dog,dog,1,0399_lp_dnn_1_dog_10_n02111500_2905.png,n02111500_2905.png,1.0,0.50027347,0.17647523,0.22895993
convnext_large,1,400,NaN,knife,knife,5,0400_lp_dnn_5_knife_10_n03041632_20433.png,n03041632_20433.png,1.0,1.8209711,1.3103031,0.36109683
convnext_large,1,401,NaN,knife,clock,15,0401_lp_dnn_15_clock_10_n04548280_22641.png,n04548280_22641.png,0.0,0.5659192,1.9284785,-0.9634749
convnext_large,1,402,NaN,knife,bottle,15,0402_lp_dnn_15_bottle_10_n04557648_634.png,n04557648_634.png,0.0,1.5325192,3.4249816,-1.338173
convnext_large,1,403,NaN,truck,truck,1,0403_lp_dnn_1_truck_10_n04467665_69447.png,n04467665_69447.png,1.0,1.8544554,0.33712083,1.0729175
convnext_large,1,404,NaN,elephant,elephant,3,0404_lp_dnn_3_elephant_10_n02504013_1777.png,n02504013_1777.png,1.0,5.2440386,0.3076023,3.4905875
convnext_large,1,405,NaN,truck,truck,0,0405_lp_dnn_0_truck_10_n03796401_2559.png,n03796401_2559.png,1.0,1.9482659,0.6204218,0.9389276
convnext_large,1,406,NaN,car,car,1,0406_lp_dnn_1_car_10_n02814533_42547.png,n02814533_42547.png,1.0,2.5479507,0.35326058,1.5518804
convnext_large,1,407,NaN,knife,clock,15,0407_lp_dnn_15_clock_10_n04548280_7181.png,n04548280_7181.png,0.0,1.3049335,6.056029,-3.3595316
convnext_large,1,408,NaN,boat,boat,1,0408_lp_dnn_1_boat_10_n03344393_5030.png,n03344393_5030.png,1.0,2.5767703,0.24913831,1.6458844
convnext_large,1,409,NaN,keyboard,bottle,15,0409_lp_dnn_15_bottle_10_n04591713_2952.png,n04591713_2952.png,0.0,1.2867162,2.8966138,-1.1383696
convnext_large,1,410,NaN,keyboard,keyboard,5,0410_lp_dnn_5_keyboard_10_n04505470_4742.png,n04505470_4742.png,1.0,3.5512118,2.3755293,0.8313331
convnext_large,1,411,NaN,knife,bear,7,0411_lp_dnn_7_bear_10_n02134418_4696.png,n02134418_4696.png,0.0,1.2709961,2.1248271,-0.60374975
convnext_large,1,412,NaN,knife,bear,40,0412_lp_dnn_40_bear_10_n02132136_5815.png,n02132136_5815.png,0.0,-1.6506704,2.7911203,-3.1408203
convnext_large,1,413,NaN,knife,bicycle,15,0413_lp_dnn_15_bicycle_10_n02835271_8203.png,n02835271_8203.png,0.0,-1.2687979,3.3897493,-3.2940905
convnext_large,1,414,NaN,knife,car,40,0414_lp_dnn_40_car_10_n04285008_12868.png,n04285008_12868.png,0.0,-0.26875746,2.8880458,-2.232197
convnext_large,1,415,NaN,knife,bear,40,0415_lp_dnn_40_bear_10_n02132136_7074.png,n02132136_7074.png,0.0,-1.6939158,2.162519,-2.7269113
convnext_large,1,416,NaN,boat,boat,3,0416_lp_dnn_3_boat_10_n03344393_8265.png,n03344393_8265.png,1.0,2.2267563,1.19092,0.7324469
convnext_large,1,417,NaN,knife,truck,10,0417_lp_dnn_10_truck_10_n04467665_12177.png,n04467665_12177.png,0.0,1.3395575,3.4112782,-1.4649277
convnext_large,1,418,NaN,car,car,3,0418_lp_dnn_3_car_10_n03100240_8987.png,n03100240_8987.png,1.0,5.4729023,1.161905,3.0483353
convnext_large,1,419,NaN,knife,bird,15,0419_lp_dnn_15_bird_10_n01530575_10601.png,n01530575_10601.png,0.0,-0.40871686,3.0965443,-2.478594
convnext_large,1,420,NaN,knife,keyboard,15,0420_lp_dnn_15_keyboard_10_n04505470_313.png,n04505470_313.png,0.0,2.971929,5.2018743,-1.5768094
convnext_large,1,421,NaN,truck,truck,1,0421_lp_dnn_1_truck_10_n03417042_5371.png,n03417042_5371.png,1.0,4.2934637,2.5446372,1.2366071
convnext_large,1,422,NaN,truck,truck,0,0422_lp_dnn_0_truck_10_n03796401_29952.png,n03796401_29952.png,1.0,1.5538293,0.44425812,0.78458536
convnext_large,1,423,NaN,bicycle,bicycle,5,0423_lp_dnn_5_bicycle_10_n03792782_6159.png,n03792782_6159.png,1.0,5.838109,1.591294,3.0029516
convnext_large,1,424,NaN,knife,elephant,7,0424_lp_dnn_7_elephant_10_n02504458_1336.png,n02504458_1336.png,0.0,0.9619682,3.3045588,-1.6564617
convnext_large,1,425,NaN,knife,bicycle,10,0425_lp_dnn_10_bicycle_10_n02835271_8597.png,n02835271_8597.png,0.0,-1.0568271,2.6151934,-2.5965106
convnext_large,1,426,NaN,keyboard,keyboard,3,0426_lp_dnn_3_keyboard_10_n04505470_3615.png,n04505470_3615.png,1.0,4.0179663,2.1049461,1.3527095
convnext_large,1,427,NaN,knife,dog,7,0427_lp_dnn_7_dog_10_n02090721_7040.png,n02090721_7040.png,0.0,0.40068159,2.768932,-1.6746061
convnext_large,1,428,NaN,cat,cat,0,0428_lp_dnn_0_cat_10_n02124075_17347.png,n02124075_17347.png,1.0,4.5846763,0.68420017,2.758053
convnext_large,1,429,NaN,keyboard,keyboard,0,0429_lp_dnn_0_keyboard_10_n03085013_23018.png,n03085013_23018.png,1.0,4.57716,0.74801296,2.7076159
convnext_large,1,430,NaN,knife,car,40,0430_lp_dnn_40_car_10_n03100240_5018.png,n03100240_5018.png,0.0,-0.62282306,2.7607422,-2.392542
convnext_large,1,431,NaN,knife,dog,40,0431_lp_dnn_40_dog_10_n02105056_12631.png,n02105056_12631.png,0.0,-1.0935225,2.67195,-2.6625912
convnext_large,1,432,NaN,knife,knife,15,0432_lp_dnn_15_knife_10_n03041632_27848.png,n03041632_27848.png,1.0,5.504122,2.0594764,2.4357321
convnext_large,1,433,NaN,keyboard,keyboard,3,0433_lp_dnn_3_keyboard_10_n04505470_4432.png,n04505470_4432.png,1.0,5.6294613,1.1235226,3.1861796
convnext_large,1,434,NaN,knife,bear,15,0434_lp_dnn_15_bear_10_n02132136_786.png,n02132136_786.png,0.0,-0.7279788,4.6178546,-3.780075
convnext_large,1,435,NaN,knife,truck,15,0435_lp_dnn_15_truck_10_n03796401_10519.png,n03796401_10519.png,0.0,-1.0216984,3.0581827,-2.8849118
convnext_large,1,436,NaN,airplane,airplane,5,0436_lp_dnn_5_airplane_10_n02690373_9086.png,n02690373_9086.png,1.0,3.8060129,1.9599549,1.3053602
convnext_large,1,437,NaN,boat,boat,0,0437_lp_dnn_0_boat_10_n02951358_512.png,n02951358_512.png,1.0,1.9562546,0.16950522,1.2634226
convnext_large,1,438,NaN,knife,bear,10,0438_lp_dnn_10_bear_10_n02132136_10468.png,n02132136_10468.png,0.0,0.54273844,2.8101475,-1.6033003
convnext_large,1,439,NaN,knife,bear,5,0439_lp_dnn_5_bear_10_n02134084_13175.png,n02134084_13175.png,0.0,0.48345837,2.503123,-1.4281187
convnext_large,1,440,NaN,keyboard,dog,10,0440_lp_dnn_10_dog_10_n02088364_2119.png,n02088364_2119.png,0.0,0.2942362,3.3310466,-2.1473494
convnext_large,1,441,NaN,boat,boat,1,0441_lp_dnn_1_boat_10_n04612504_26238.png,n04612504_26238.png,1.0,2.3003128,0.18165176,1.4981196
convnext_large,1,442,NaN,knife,bear,3,0442_lp_dnn_3_bear_10_n02134084_20142.png,n02134084_20142.png,0.0,0.83599406,2.197567,-0.9627775
convnext_large,1,443,NaN,knife,dog,5,0443_lp_dnn_5_dog_10_n02107683_1076.png,n02107683_1076.png,0.0,0.7344766,1.1910253,-0.32282865
convnext_large,1,444,NaN,car,car,3,0444_lp_dnn_3_car_10_n02814533_35386.png,n02814533_35386.png,1.0,2.5403247,1.0321777,1.066421
convnext_large,1,445,NaN,knife,bird,3,0445_lp_dnn_3_bird_10_n01531178_15380.png,n01531178_15380.png,0.0,1.7054518,3.4808087,-1.2553669
convnext_large,1,446,NaN,knife,bear,7,0446_lp_dnn_7_bear_10_n02134084_17529.png,n02134084_17529.png,0.0,1.0049231,4.23717,-2.285544
convnext_large,1,447,NaN,knife,bicycle,10,0447_lp_dnn_10_bicycle_10_n02835271_22623.png,n02835271_22623.png,0.0,-0.84090954,4.161087,-3.5369458
convnext_large,1,448,NaN,knife,chair,15,0448_lp_dnn_15_chair_10_n02791124_3160.png,n02791124_3160.png,0.0,-0.7428631,2.4678092,-2.2702882
convnext_large,1,449,NaN,bottle,bottle,0,0449_lp_dnn_0_bottle_10_n02823428_2422.png,n02823428_2422.png,1.0,2.8307967,1.0120525,1.2860464
convnext_large,1,450,NaN,knife,bear,7,0450_lp_dnn_7_bear_10_n02134084_34902.png,n02134084_34902.png,0.0,0.27179843,3.1929274,-2.06555
convnext_large,1,451,NaN,knife,bicycle,15,0451_lp_dnn_15_bicycle_10_n02835271_3535.png,n02835271_3535.png,0.0,-1.3771827,4.164319,-3.9184337
convnext_large,1,452,NaN,oven,oven,1,0452_lp_dnn_1_oven_10_n04111531_10640.png,n04111531_10640.png,1.0,8.423309,0.81216335,5.381893
convnext_large,1,453,NaN,knife,keyboard,40,0453_lp_dnn_40_keyboard_10_n04505470_1338.png,n04505470_1338.png,0.0,0.27819067,2.624814,-1.6593133
convnext_large,1,454,NaN,keyboard,keyboard,0,0454_lp_dnn_0_keyboard_10_n03085013_26656.png,n03085013_26656.png,1.0,2.8780127,1.4084074,1.0391679
convnext_large,1,455,NaN,knife,boat,5,0455_lp_dnn_5_boat_10_n03344393_9575.png,n03344393_9575.png,0.0,0.6846112,3.9750047,-2.3266594
convnext_large,1,456,NaN,boat,boat,1,0456_lp_dnn_1_boat_10_n03344393_4616.png,n03344393_4616.png,1.0,2.1156144,0.8885907,0.8676368
convnext_large,1,457,NaN,bicycle,bicycle,0,0457_lp_dnn_0_bicycle_10_n02835271_11929.png,n02835271_11929.png,1.0,5.882269,0.44263592,3.8464015
convnext_large,1,458,NaN,keyboard,keyboard,3,0458_lp_dnn_3_keyboard_10_n03085013_20515.png,n03085013_20515.png,1.0,5.9081817,1.134573,3.375451
convnext_large,1,459,NaN,knife,dog,40,0459_lp_dnn_40_dog_10_n02088364_3791.png,n02088364_3791.png,0.0,-1.0096933,2.1521645,-2.235771
convnext_large,1,460,NaN,airplane,airplane,0,0460_lp_dnn_0_airplane_10_n02690373_10114.png,n02690373_10114.png,1.0,8.409464,0.4011043,5.6627655
convnext_large,1,461,NaN,knife,airplane,10,0461_lp_dnn_10_airplane_10_n02690373_8543.png,n02690373_8543.png,0.0,-0.46217713,6.269835,-4.7602515
convnext_large,1,462,NaN,knife,chair,7,0462_lp_dnn_7_chair_10_n04429376_14967.png,n04429376_14967.png,0.0,0.2663389,5.5226355,-3.716763
convnext_large,1,463,NaN,knife,cat,15,0463_lp_dnn_15_cat_10_n02125311_24439.png,n02125311_24439.png,0.0,0.34615198,3.1252754,-1.965137
convnext_large,1,464,NaN,knife,truck,5,0464_lp_dnn_5_truck_10_n03417042_4665.png,n03417042_4665.png,0.0,1.6167076,2.2763462,-0.46643496
convnext_large,1,465,NaN,knife,elephant,40,0465_lp_dnn_40_elephant_10_n02504013_4044.png,n02504013_4044.png,0.0,-1.2077508,3.1473904,-3.0795498
convnext_large,1,466,NaN,bird,bird,1,0466_lp_dnn_1_bird_10_n01843065_3596.png,n01843065_3596.png,1.0,0.5347952,0.49347925,0.029214805
convnext_large,1,467,NaN,knife,bird,10,0467_lp_dnn_10_bird_10_n02011460_17499.png,n02011460_17499.png,0.0,-0.44746256,4.004349,-3.1479063
convnext_large,1,468,NaN,elephant,elephant,0,0468_lp_dnn_0_elephant_10_n02504458_7506.png,n02504458_7506.png,1.0,7.124754,0.3800751,4.7692084
convnext_large,1,469,NaN,knife,keyboard,40,0469_lp_dnn_40_keyboard_10_n03085013_21955.png,n03085013_21955.png,0.0,0.58536065,2.717866,-1.507909
convnext_large,1,470,NaN,knife,clock,40,0470_lp_dnn_40_clock_10_n02708093_7810.png,n02708093_7810.png,0.0,1.4980835,2.2469444,-0.5295247
convnext_large,1,471,NaN,knife,car,40,0471_lp_dnn_40_car_10_n02814533_7984.png,n02814533_7984.png,0.0,-0.3701036,3.1028006,-2.4557142
convnext_large,1,472,NaN,knife,dog,5,0472_lp_dnn_5_dog_10_n02106382_1806.png,n02106382_1806.png,0.0,1.4473023,2.7406902,-0.91456336
convnext_large,1,473,NaN,knife,chair,15,0473_lp_dnn_15_chair_10_n02791124_3890.png,n02791124_3890.png,0.0,-0.9437264,3.2560036,-2.9696577
convnext_large,1,474,NaN,elephant,elephant,7,0474_lp_dnn_7_elephant_10_n02504013_16929.png,n02504013_16929.png,1.0,6.031621,2.584521,2.4374678
convnext_large,1,475,NaN,elephant,elephant,7,0475_lp_dnn_7_elephant_10_n02504013_8052.png,n02504013_8052.png,1.0,4.6211085,1.6559818,2.0966613
convnext_large,1,476,NaN,bear,bear,1,0476_lp_dnn_1_bear_10_n02132136_1584.png,n02132136_1584.png,1.0,5.229487,0.4861294,3.3540604
convnext_large,1,477,NaN,keyboard,keyboard,1,0477_lp_dnn_1_keyboard_10_n04505470_532.png,n04505470_532.png,1.0,4.946787,0.57075816,3.0943196
convnext_large,1,478,NaN,airplane,airplane,1,0478_lp_dnn_1_airplane_10_n02690373_3988.png,n02690373_3988.png,1.0,8.173831,0.350013,5.532275
convnext_large,1,479,NaN,knife,bicycle,15,0479_lp_dnn_15_bicycle_10_n03792782_13051.png,n03792782_13051.png,0.0,-1.0243368,3.1163602,-2.927915
convnext_large,1,480,NaN,bear,bear,3,0480_lp_dnn_3_bear_10_n02134084_4818.png,n02134084_4818.png,1.0,2.3245144,0.9106228,0.9997723
convnext_large,1,481,NaN,keyboard,boat,10,0481_lp_dnn_10_boat_10_n02951358_9146.png,n02951358_9146.png,0.0,-1.4074106,4.106427,-3.8988721
convnext_large,1,482,NaN,knife,keyboard,40,0482_lp_dnn_40_keyboard_10_n03085013_19317.png,n03085013_19317.png,0.0,0.26834935,2.1260085,-1.3135633
convnext_large,1,483,NaN,knife,bicycle,40,0483_lp_dnn_40_bicycle_10_n03792782_17666.png,n03792782_17666.png,0.0,-0.75949633,2.7608032,-2.4892275
convnext_large,1,484,NaN,knife,bear,40,0484_lp_dnn_40_bear_10_n02133161_20090.png,n02133161_20090.png,0.0,-1.7854458,2.5771527,-3.084823
convnext_large,1,485,NaN,clock,bottle,3,0485_lp_dnn_3_bottle_10_n03937543_11101.png,n03937543_11101.png,0.0,0.43669128,1.5155131,-0.76284224
convnext_large,1,486,NaN,bear,bear,7,0486_lp_dnn_7_bear_10_n02133161_2281.png,n02133161_2281.png,1.0,2.9825969,2.36939,0.43360275
convnext_large,1,487,NaN,knife,airplane,10,0487_lp_dnn_10_airplane_10_n02690373_8813.png,n02690373_8813.png,0.0,-0.36925128,7.53198,-5.587014
convnext_large,1,488,NaN,knife,boat,40,0488_lp_dnn_40_boat_10_n03662601_33625.png,n03662601_33625.png,0.0,-0.8817828,2.6021938,-2.4635434
convnext_large,1,489,NaN,knife,cat,40,0489_lp_dnn_40_cat_10_n02124075_9066.png,n02124075_9066.png,0.0,-0.08850521,2.2291021,-1.638796
convnext_large,1,490,NaN,truck,oven,3,0490_lp_dnn_3_oven_10_n04111531_10216.png,n04111531_10216.png,0.0,1.2913672,2.975997,-1.1912131
convnext_large,1,491,NaN,bear,bird,7,0491_lp_dnn_7_bird_10_n01614925_1097.png,n01614925_1097.png,0.0,-0.58761966,1.9495459,-1.7940471
convnext_large,1,492,NaN,chair,bird,0,0492_lp_dnn_0_bird_10_n02017213_1163.png,n02017213_1163.png,0.0,0.27590805,0.27959222,-0.0026050967
convnext_large,1,493,NaN,knife,oven,40,0493_lp_dnn_40_oven_10_n04111531_283.png,n04111531_283.png,0.0,-0.9390898,2.067192,-2.1257622
convnext_large,1,494,NaN,knife,truck,15,0494_lp_dnn_15_truck_10_n04467665_39317.png,n04467665_39317.png,0.0,-0.8776454,4.2486,-3.624803
convnext_large,1,495,NaN,dog,dog,1,0495_lp_dnn_1_dog_10_n02093754_5037.png,n02093754_5037.png,1.0,0.47021607,0.29738703,0.12220858
convnext_large,1,496,NaN,knife,bicycle,40,0496_lp_dnn_40_bicycle_10_n02835271_2580.png,n02835271_2580.png,0.0,-1.1316345,2.9929423,-2.916516
convnext_large,1,497,NaN,clock,airplane,7,0497_lp_dnn_7_airplane_10_n02690373_2564.png,n02690373_2564.png,0.0,0.95156664,3.8819382,-2.0720856
convnext_large,1,498,NaN,knife,truck,40,0498_lp_dnn_40_truck_10_n04467665_62626.png,n04467665_62626.png,0.0,-0.8677402,2.6179914,-2.4647844
convnext_large,1,499,NaN,knife,chair,10,0499_lp_dnn_10_chair_10_n04429376_2450.png,n04429376_2450.png,0.0,0.32305428,3.3435588,-2.1358192
convnext_large,1,500,NaN,keyboard,keyboard,0,0500_lp_dnn_0_keyboard_10_n04505470_4044.png,n04505470_4044.png,1.0,5.3875513,0.57149565,3.4054658
convnext_large,1,501,NaN,keyboard,oven,15,0501_lp_dnn_15_oven_10_n04111531_8269.png,n04111531_8269.png,0.0,1.3446733,4.1631804,-1.9929856
convnext_large,1,502,NaN,clock,clock,7,0502_lp_dnn_7_clock_10_n02708093_6890.png,n02708093_6890.png,1.0,5.6296806,1.1794138,3.1468139
convnext_large,1,503,NaN,knife,oven,40,0503_lp_dnn_40_oven_10_n04111531_15947.png,n04111531_15947.png,0.0,-1.1951253,2.6746383,-2.7363362
convnext_large,1,504,NaN,keyboard,bicycle,15,0504_lp_dnn_15_bicycle_10_n03792782_24734.png,n03792782_24734.png,0.0,-1.2418413,2.2021952,-2.4353015
convnext_large,1,505,NaN,knife,chair,40,0505_lp_dnn_40_chair_10_n04099969_10401.png,n04099969_10401.png,0.0,-0.08387399,2.5312088,-1.8491428
convnext_large,1,506,NaN,elephant,elephant,3,0506_lp_dnn_3_elephant_10_n02504458_2994.png,n02504458_2994.png,1.0,7.903594,0.46899414,5.257056
convnext_large,1,507,NaN,airplane,dog,0,0507_lp_dnn_0_dog_10_n02108422_1164.png,n02108422_1164.png,0.0,0.2229796,0.64215904,-0.29640463
convnext_large,1,508,NaN,clock,clock,5,0508_lp_dnn_5_clock_10_n04548280_2421.png,n04548280_2421.png,1.0,5.201248,1.2440767,2.798143
convnext_large,1,509,NaN,oven,oven,5,0509_lp_dnn_5_oven_10_n04111531_2930.png,n04111531_2930.png,1.0,1.2714956,0.7144716,0.39387545
convnext_large,1,510,NaN,bear,bear,1,0510_lp_dnn_1_bear_10_n02132136_4271.png,n02132136_4271.png,1.0,5.7191405,0.4675628,3.7134264
convnext_large,1,511,NaN,knife,oven,7,0511_lp_dnn_7_oven_10_n04111531_8603.png,n04111531_8603.png,0.0,2.1405563,3.8026419,-1.175272
convnext_large,1,512,NaN,knife,bicycle,40,0512_lp_dnn_40_bicycle_10_n02835271_16850.png,n02835271_16850.png,0.0,-1.1129961,2.6413052,-2.654692
convnext_large,1,513,NaN,knife,knife,3,0513_lp_dnn_3_knife_10_n03041632_47410.png,n03041632_47410.png,1.0,6.273375,0.3843678,4.164157
convnext_large,1,514,NaN,knife,elephant,15,0514_lp_dnn_15_elephant_10_n02504458_1000.png,n02504458_1000.png,0.0,0.008714676,3.0224974,-2.1310663
convnext_large,1,515,NaN,cat,cat,1,0515_lp_dnn_1_cat_10_n02124075_8884.png,n02124075_8884.png,1.0,3.1467154,0.5680863,1.823366
convnext_large,1,516,NaN,knife,bird,7,0516_lp_dnn_7_bird_10_n01622779_1370.png,n01622779_1370.png,0.0,-0.26773402,1.90097,-1.5335053
convnext_large,1,517,NaN,cat,cat,0,0517_lp_dnn_0_cat_10_n02123045_8215.png,n02123045_8215.png,1.0,4.047154,0.9122961,2.2166793
convnext_large,1,518,NaN,car,car,5,0518_lp_dnn_5_car_10_n03100240_3083.png,n03100240_3083.png,1.0,4.7940516,1.8927352,2.0515406
convnext_large,1,519,NaN,elephant,bicycle,3,0519_lp_dnn_3_bicycle_10_n03792782_9280.png,n03792782_9280.png,0.0,0.27941012,2.0332825,-1.2401751
convnext_large,1,520,NaN,knife,bird,5,0520_lp_dnn_5_bird_10_n01819313_3505.png,n01819313_3505.png,0.0,-0.21938019,2.4996915,-1.9226741
convnext_large,1,521,NaN,knife,bird,15,0521_lp_dnn_15_bird_10_n01531178_5130.png,n01531178_5130.png,0.0,-0.1261806,3.1603332,-2.3239162
convnext_large,1,522,NaN,knife,clock,15,0522_lp_dnn_15_clock_10_n02708093_2867.png,n02708093_2867.png,0.0,1.1967763,7.007565,-4.108848
convnext_large,1,523,NaN,knife,bear,7,0523_lp_dnn_7_bear_10_n02134418_258.png,n02134418_258.png,0.0,-0.60029364,4.5567827,-3.6466038
convnext_large,1,524,NaN,bottle,bottle,1,0524_lp_dnn_1_bottle_10_n02823428_8280.png,n02823428_8280.png,1.0,2.4001536,0.58086854,1.2864289
convnext_large,1,525,NaN,knife,elephant,7,0525_lp_dnn_7_elephant_10_n02504013_24811.png,n02504013_24811.png,0.0,0.860812,2.3647325,-1.0634325
convnext_large,1,526,NaN,knife,bicycle,40,0526_lp_dnn_40_bicycle_10_n02835271_14499.png,n02835271_14499.png,0.0,-1.0906479,2.1317105,-2.2785516
convnext_large,1,527,NaN,bottle,bottle,0,0527_lp_dnn_0_bottle_10_n02823428_14536.png,n02823428_14536.png,1.0,3.284436,0.28354928,2.1219473
convnext_large,1,528,NaN,knife,knife,5,0528_lp_dnn_5_knife_10_n03041632_21723.png,n03041632_21723.png,1.0,3.0125158,0.57003057,1.727098
convnext_large,1,529,NaN,knife,cat,10,0529_lp_dnn_10_cat_10_n02123159_8396.png,n02123159_8396.png,0.0,0.22251284,5.0184546,-3.391243
convnext_large,1,530,NaN,knife,bottle,40,0530_lp_dnn_40_bottle_10_n02823428_3486.png,n02823428_3486.png,0.0,1.3570051,2.2079306,-0.6016952
convnext_large,1,531,NaN,airplane,bird,0,0531_lp_dnn_0_bird_10_n01514859_12705.png,n01514859_12705.png,0.0,0.15078492,0.37461784,-0.15827377
convnext_large,1,532,NaN,knife,dog,7,0532_lp_dnn_7_dog_10_n02097047_911.png,n02097047_911.png,0.0,0.7562203,1.4083443,-0.4611213
convnext_large,1,533,NaN,knife,keyboard,10,0533_lp_dnn_10_keyboard_10_n04505470_3132.png,n04505470_3132.png,0.0,4.7071147,5.2115955,-0.35672182
convnext_large,1,534,NaN,airplane,airplane,1,0534_lp_dnn_1_airplane_10_n02690373_11908.png,n02690373_11908.png,1.0,7.561234,0.4100277,5.056667
convnext_large,1,535,NaN,knife,elephant,40,0535_lp_dnn_40_elephant_10_n02504458_5169.png,n02504458_5169.png,0.0,-0.9514413,1.8099368,-1.9525892
convnext_large,1,536,NaN,knife,bottle,15,0536_lp_dnn_15_bottle_10_n03937543_5375.png,n03937543_5375.png,0.0,1.0523125,5.3819413,-3.06151
convnext_large,1,537,NaN,knife,bottle,1,0537_lp_dnn_1_bottle_10_n04591713_6138.png,n04591713_6138.png,0.0,1.3388561,1.910411,-0.40415037
convnext_large,1,538,NaN,knife,bottle,15,0538_lp_dnn_15_bottle_10_n04557648_12559.png,n04557648_12559.png,0.0,1.8095694,3.6499925,-1.3013756
convnext_large,1,539,NaN,knife,clock,40,0539_lp_dnn_40_clock_10_n03196217_3903.png,n03196217_3903.png,0.0,1.9538387,4.766117,-1.9885811
convnext_large,1,540,NaN,knife,keyboard,15,0540_lp_dnn_15_keyboard_10_n04505470_4732.png,n04505470_4732.png,0.0,2.5491943,3.6220512,-0.7586244
convnext_large,1,541,NaN,knife,knife,40,0541_lp_dnn_40_knife_10_n03041632_8468.png,n03041632_8468.png,1.0,2.86279,1.4222667,1.0186039
convnext_large,1,542,NaN,oven,chair,3,0542_lp_dnn_3_chair_10_n02791124_14040.png,n02791124_14040.png,0.0,1.4163139,1.9035469,-0.34452578
convnext_large,1,543,NaN,knife,boat,15,0543_lp_dnn_15_boat_10_n04273569_3095.png,n04273569_3095.png,0.0,-1.0748585,4.8828783,-4.212756
convnext_large,1,544,NaN,airplane,bird,1,0544_lp_dnn_1_bird_10_n02002724_18548.png,n02002724_18548.png,0.0,0.28608987,0.48097458,-0.13780431
convnext_large,1,545,NaN,knife,oven,10,0545_lp_dnn_10_oven_10_n04111531_8537.png,n04111531_8537.png,0.0,0.36919612,3.709206,-2.3617437
convnext_large,1,546,NaN,knife,chair,40,0546_lp_dnn_40_chair_10_n02791124_1935.png,n02791124_1935.png,0.0,0.0481197,1.6982665,-1.1668301
convnext_large,1,547,NaN,knife,dog,5,0547_lp_dnn_5_dog_10_n02102040_1660.png,n02102040_1660.png,0.0,1.2583646,1.6701669,-0.2911882
convnext_large,1,548,NaN,bear,bear,0,0548_lp_dnn_0_bear_10_n02134084_7790.png,n02134084_7790.png,1.0,3.2428644,0.5721401,1.8884873
convnext_large,1,549,NaN,knife,knife,10,0549_lp_dnn_10_knife_10_n03041632_17091.png,n03041632_17091.png,1.0,4.063213,2.1537352,1.3502047
convnext_large,1,550,NaN,knife,keyboard,5,0550_lp_dnn_5_keyboard_10_n04505470_9331.png,n04505470_9331.png,0.0,2.0720725,3.8309722,-1.24373
convnext_large,1,551,NaN,airplane,airplane,5,0551_lp_dnn_5_airplane_10_n02690373_6887.png,n02690373_6887.png,1.0,5.5729322,3.3570452,1.5668688
convnext_large,1,552,NaN,chair,chair,1,0552_lp_dnn_1_chair_10_n02791124_2540.png,n02791124_2540.png,1.0,1.7418864,1.4201512,0.22750111
convnext_large,1,553,NaN,truck,truck,3,0553_lp_dnn_3_truck_10_n03796401_23774.png,n03796401_23774.png,1.0,2.2579937,1.505366,0.5321882
convnext_large,1,554,NaN,knife,knife,40,0554_lp_dnn_40_knife_10_n03041632_28201.png,n03041632_28201.png,1.0,3.4633412,1.4023832,1.4573174
convnext_large,1,555,NaN,clock,clock,5,0555_lp_dnn_5_clock_10_n04548280_3563.png,n04548280_3563.png,1.0,4.624511,4.1104774,0.36347646
convnext_large,1,556,NaN,bicycle,bicycle,0,0556_lp_dnn_0_bicycle_10_n03792782_8287.png,n03792782_8287.png,1.0,6.910424,1.1971645,4.0398846
convnext_large,1,557,NaN,clock,clock,3,0557_lp_dnn_3_clock_10_n04548280_4225.png,n04548280_4225.png,1.0,4.467425,1.4873184,2.1072536
convnext_large,1,558,NaN,car,car,0,0558_lp_dnn_0_car_10_n04285008_11931.png,n04285008_11931.png,1.0,5.069966,0.6971804,3.0920265
convnext_large,1,559,NaN,elephant,elephant,5,0559_lp_dnn_5_elephant_10_n02504013_9396.png,n02504013_9396.png,1.0,3.727589,1.4831359,1.587068
convnext_large,1,560,NaN,knife,boat,40,0560_lp_dnn_40_boat_10_n03344393_2915.png,n03344393_2915.png,0.0,-0.95291126,2.5132916,-2.4509754
convnext_large,1,561,NaN,bicycle,bicycle,7,0561_lp_dnn_7_bicycle_10_n03792782_9692.png,n03792782_9692.png,1.0,3.6392407,2.7998433,0.59354365
convnext_large,1,562,NaN,keyboard,chair,7,0562_lp_dnn_7_chair_10_n02791124_57.png,n02791124_57.png,0.0,0.24290541,3.7409616,-2.4734993
convnext_large,1,563,NaN,knife,car,40,0563_lp_dnn_40_car_10_n04285008_3185.png,n04285008_3185.png,0.0,-0.57170534,2.9314048,-2.477073
convnext_large,1,564,NaN,boat,boat,1,0564_lp_dnn_1_boat_10_n02951358_34917.png,n02951358_34917.png,1.0,1.9102112,0.29614365,1.1413181
convnext_large,1,565,NaN,clock,clock,0,0565_lp_dnn_0_clock_10_n02708093_2762.png,n02708093_2762.png,1.0,4.628978,0.35653466,3.0210736
convnext_large,1,566,NaN,knife,knife,5,0566_lp_dnn_5_knife_10_n03041632_4879.png,n03041632_4879.png,1.0,7.5153623,0.9808127,4.6206245
convnext_large,1,567,NaN,car,car,0,0567_lp_dnn_0_car_10_n02814533_4689.png,n02814533_4689.png,1.0,4.0588794,1.335826,1.9254895
convnext_large,1,568,NaN,boat,boat,1,0568_lp_dnn_1_boat_10_n02951358_2445.png,n02951358_2445.png,1.0,2.1380825,0.14696404,1.4079334
convnext_large,1,569,NaN,knife,truck,40,0569_lp_dnn_40_truck_10_n03417042_10038.png,n03417042_10038.png,0.0,-0.9111084,2.8708081,-2.674219
convnext_large,1,570,NaN,knife,car,10,0570_lp_dnn_10_car_10_n02814533_32924.png,n02814533_32924.png,0.0,-0.5834542,4.5781484,-3.649804
convnext_large,1,571,NaN,knife,bottle,10,0571_lp_dnn_10_bottle_10_n02823428_5135.png,n02823428_5135.png,0.0,0.6422429,2.848125,-1.5597942
convnext_large,1,572,NaN,keyboard,keyboard,1,0572_lp_dnn_1_keyboard_10_n03085013_9066.png,n03085013_9066.png,1.0,6.48018,2.1627994,3.052849
convnext_large,1,573,NaN,knife,oven,10,0573_lp_dnn_10_oven_10_n04111531_11279.png,n04111531_11279.png,0.0,1.9173279,5.661992,-2.6478775
convnext_large,1,574,NaN,knife,car,10,0574_lp_dnn_10_car_10_n04285008_12182.png,n04285008_12182.png,0.0,-0.09430746,3.1505563,-2.2944653
convnext_large,1,575,NaN,bear,bear,0,0575_lp_dnn_0_bear_10_n02133161_5681.png,n02133161_5681.png,1.0,4.324956,0.8120288,2.4840145
convnext_large,1,576,NaN,dog,dog,5,0576_lp_dnn_5_dog_10_n02108915_5514.png,n02108915_5514.png,1.0,1.6359968,1.164624,0.33331093
convnext_large,1,577,NaN,knife,airplane,15,0577_lp_dnn_15_airplane_10_n02690373_7239.png,n02690373_7239.png,0.0,-1.0191295,4.0690536,-3.597889
convnext_large,1,578,NaN,airplane,dog,0,0578_lp_dnn_0_dog_10_n02094258_4979.png,n02094258_4979.png,0.0,0.3798652,0.4906531,-0.07833888
convnext_large,1,579,NaN,chair,chair,3,0579_lp_dnn_3_chair_10_n04429376_15078.png,n04429376_15078.png,1.0,2.821828,1.6025345,0.86217064
convnext_large,1,580,NaN,knife,clock,40,0580_lp_dnn_40_clock_10_n02708093_8276.png,n02708093_8276.png,0.0,1.6538372,2.907551,-0.8865096
convnext_large,1,581,NaN,keyboard,keyboard,3,0581_lp_dnn_3_keyboard_10_n04505470_3947.png,n04505470_3947.png,1.0,6.960762,0.5475486,4.5348268
convnext_large,1,582,NaN,knife,car,15,0582_lp_dnn_15_car_10_n03100240_2996.png,n03100240_2996.png,0.0,-0.7572023,6.1540833,-4.887017
convnext_large,1,583,NaN,knife,cat,10,0583_lp_dnn_10_cat_10_n02123159_3226.png,n02123159_3226.png,0.0,-0.17436141,4.1421742,-3.0522516
convnext_large,1,584,NaN,knife,truck,7,0584_lp_dnn_7_truck_10_n03417042_19905.png,n03417042_19905.png,0.0,-0.5693464,6.5649586,-5.0447154
convnext_large,1,585,NaN,elephant,bird,0,0585_lp_dnn_0_bird_10_n02009229_4838.png,n02009229_4838.png,0.0,1.0839937,1.6859062,-0.4256164
convnext_large,1,586,NaN,oven,oven,1,0586_lp_dnn_1_oven_10_n04111531_14383.png,n04111531_14383.png,1.0,8.760463,0.31324333,5.9730864
convnext_large,1,587,NaN,elephant,bear,5,0587_lp_dnn_5_bear_10_n02132136_1152.png,n02132136_1152.png,0.0,3.3034806,3.6649468,-0.25559518
convnext_large,1,588,NaN,cat,cat,0,0588_lp_dnn_0_cat_10_n02123597_10952.png,n02123597_10952.png,1.0,1.3477288,0.77738106,0.4032968
convnext_large,1,589,NaN,boat,boat,0,0589_lp_dnn_0_boat_10_n04273569_12318.png,n04273569_12318.png,1.0,2.6052802,0.9110323,1.1980141
convnext_large,1,590,NaN,knife,bottle,40,0590_lp_dnn_40_bottle_10_n03937543_1391.png,n03937543_1391.png,0.0,1.4102362,2.5180516,-0.7833438
convnext_large,1,591,NaN,knife,dog,10,0591_lp_dnn_10_dog_10_n02091032_9464.png,n02091032_9464.png,0.0,0.47584155,1.7751293,-0.9187352
convnext_large,1,592,NaN,keyboard,oven,7,0592_lp_dnn_7_oven_10_n04111531_5218.png,n04111531_5218.png,0.0,0.5697652,5.777886,-3.6826975
convnext_large,1,593,NaN,clock,airplane,5,0593_lp_dnn_5_airplane_10_n02690373_9423.png,n02690373_9423.png,0.0,0.08013314,4.153047,-2.8799853
convnext_large,1,594,NaN,elephant,bird,1,0594_lp_dnn_1_bird_10_n01860187_348.png,n01860187_348.png,0.0,0.30924782,0.74991083,-0.3115958
convnext_large,1,595,NaN,knife,bird,40,0595_lp_dnn_40_bird_10_n02006656_8975.png,n02006656_8975.png,0.0,-0.90981114,2.7875636,-2.6144388
convnext_large,1,596,NaN,knife,oven,10,0596_lp_dnn_10_oven_10_n04111531_7619.png,n04111531_7619.png,0.0,2.8476465,4.2309747,-0.97816074
convnext_large,1,597,NaN,bicycle,bicycle,3,0597_lp_dnn_3_bicycle_10_n02835271_9202.png,n02835271_9202.png,1.0,3.829586,0.86457163,2.096582
convnext_large,1,598,NaN,knife,boat,10,0598_lp_dnn_10_boat_10_n03344393_7826.png,n03344393_7826.png,0.0,-1.073036,6.430588,-5.3058634
convnext_large,1,599,NaN,elephant,elephant,3,0599_lp_dnn_3_elephant_10_n02504013_10330.png,n02504013_10330.png,1.0,6.2237234,0.24069804,4.230638
convnext_large,1,600,NaN,knife,truck,10,0600_lp_dnn_10_truck_10_n04467665_69202.png,n04467665_69202.png,0.0,-0.4161822,4.49224,-3.4707785
convnext_large,1,601,NaN,knife,keyboard,7,0601_lp_dnn_7_keyboard_10_n04505470_1120.png,n04505470_1120.png,0.0,3.4364643,3.4932745,-0.040170837
convnext_large,1,602,NaN,knife,car,5,0602_lp_dnn_5_car_10_n04285008_434.png,n04285008_434.png,0.0,2.0708318,2.7956066,-0.5124932
convnext_large,1,603,NaN,cat,cat,1,0603_lp_dnn_1_cat_10_n02123597_7592.png,n02123597_7592.png,1.0,1.9755336,0.43623564,1.088448
convnext_large,1,604,NaN,knife,dog,15,0604_lp_dnn_15_dog_10_n02090721_583.png,n02090721_583.png,0.0,-0.40894806,2.7136006,-2.2079754
convnext_large,1,605,NaN,knife,knife,1,0605_lp_dnn_1_knife_10_n03041632_86783.png,n03041632_86783.png,1.0,5.090934,0.0916659,3.5350163
convnext_large,1,606,NaN,knife,dog,10,0606_lp_dnn_10_dog_10_n02112018_11708.png,n02112018_11708.png,0.0,-0.35501534,5.828799,-4.372617
convnext_large,1,607,NaN,elephant,bird,0,0607_lp_dnn_0_bird_10_n02018795_5662.png,n02018795_5662.png,0.0,-0.007014261,2.929717,-2.0765827
convnext_large,1,608,NaN,bear,elephant,5,0608_lp_dnn_5_elephant_10_n02504013_1088.png,n02504013_1088.png,0.0,3.966281,4.2461214,-0.1978771
convnext_large,1,609,NaN,elephant,elephant,5,0609_lp_dnn_5_elephant_10_n02504458_66.png,n02504458_66.png,1.0,6.780552,1.5457013,3.7015986
convnext_large,1,610,NaN,knife,dog,10,0610_lp_dnn_10_dog_10_n02105056_9099.png,n02105056_9099.png,0.0,-0.573356,4.45833,-3.5579395
convnext_large,1,611,NaN,knife,boat,10,0611_lp_dnn_10_boat_10_n04273569_19699.png,n04273569_19699.png,0.0,-0.89189464,3.3810794,-3.0214489
convnext_large,1,612,NaN,knife,dog,1,0612_lp_dnn_1_dog_10_n02097047_2376.png,n02097047_2376.png,0.0,0.46736106,0.51671994,-0.034901995
convnext_large,1,613,NaN,boat,boat,1,0613_lp_dnn_1_boat_10_n03662601_11901.png,n03662601_11901.png,1.0,1.392174,0.45600075,0.6619745
convnext_large,1,614,NaN,oven,oven,1,0614_lp_dnn_1_oven_10_n04111531_7667.png,n04111531_7667.png,1.0,4.274463,0.32450253,2.793044
convnext_large,1,615,NaN,knife,knife,10,0615_lp_dnn_10_knife_10_n03041632_24384.png,n03041632_24384.png,1.0,5.2384186,3.0571556,1.5423858
convnext_large,1,616,NaN,knife,car,7,0616_lp_dnn_7_car_10_n03100240_1216.png,n03100240_1216.png,0.0,0.39271602,4.3616266,-2.8064437
convnext_large,1,617,NaN,bicycle,bicycle,0,0617_lp_dnn_0_bicycle_10_n03792782_3136.png,n03792782_3136.png,1.0,4.7931466,2.2942138,1.7670124
convnext_large,1,618,NaN,knife,keyboard,5,0618_lp_dnn_5_keyboard_10_n03085013_26573.png,n03085013_26573.png,0.0,2.040874,2.0761545,-0.024947057
convnext_large,1,619,NaN,chair,chair,0,0619_lp_dnn_0_chair_10_n04429376_7888.png,n04429376_7888.png,1.0,2.3367233,1.0089992,0.9388427
convnext_large,1,620,NaN,knife,chair,5,0620_lp_dnn_5_chair_10_n03376595_899.png,n03376595_899.png,0.0,1.7347599,2.9123318,-0.8326691
convnext_large,1,621,NaN,truck,bicycle,5,0621_lp_dnn_5_bicycle_10_n02835271_24207.png,n02835271_24207.png,0.0,2.019183,3.2675636,-0.8827385
convnext_large,1,622,NaN,oven,oven,3,0622_lp_dnn_3_oven_10_n04111531_7329.png,n04111531_7329.png,1.0,8.273033,1.5386785,4.7619076
convnext_large,1,623,NaN,keyboard,oven,5,0623_lp_dnn_5_oven_10_n04111531_12942.png,n04111531_12942.png,0.0,1.921482,2.9102337,-0.69915307
convnext_large,1,624,NaN,knife,bear,15,0624_lp_dnn_15_bear_10_n02134418_1978.png,n02134418_1978.png,0.0,-1.0295417,4.0891743,-3.619479
convnext_large,1,625,NaN,knife,cat,40,0625_lp_dnn_40_cat_10_n02123159_5872.png,n02123159_5872.png,0.0,-0.30409727,4.733466,-3.5620952
convnext_large,1,626,NaN,knife,keyboard,15,0626_lp_dnn_15_keyboard_10_n03085013_18797.png,n03085013_18797.png,0.0,1.3115824,5.6832066,-3.0912051
convnext_large,1,627,NaN,knife,airplane,15,0627_lp_dnn_15_airplane_10_n02690373_5496.png,n02690373_5496.png,0.0,-1.1068002,4.239196,-3.78019
convnext_large,1,628,NaN,knife,oven,15,0628_lp_dnn_15_oven_10_n04111531_21963.png,n04111531_21963.png,0.0,1.1392648,6.704194,-3.934999
convnext_large,1,629,NaN,bottle,bottle,0,0629_lp_dnn_0_bottle_10_n02823428_2918.png,n02823428_2918.png,1.0,2.5257275,0.18997946,1.6516232
convnext_large,1,630,NaN,knife,keyboard,10,0630_lp_dnn_10_keyboard_10_n04505470_9570.png,n04505470_9570.png,0.0,2.8368115,5.5535107,-1.9209964
convnext_large,1,631,NaN,bird,bird,1,0631_lp_dnn_1_bird_10_n02002556_5977.png,n02002556_5977.png,1.0,0.6020402,0.5425791,0.042045318
convnext_large,1,632,NaN,knife,airplane,40,0632_lp_dnn_40_airplane_10_n02690373_5961.png,n02690373_5961.png,0.0,-0.094003946,3.155497,-2.2977443
convnext_large,1,633,NaN,clock,clock,3,0633_lp_dnn_3_clock_10_n04548280_5765.png,n04548280_5765.png,1.0,5.0671296,1.0426147,2.845762
convnext_large,1,634,NaN,knife,cat,15,0634_lp_dnn_15_cat_10_n02123597_11940.png,n02123597_11940.png,0.0,-0.073610954,3.5883346,-2.5893867
convnext_large,1,635,NaN,airplane,airplane,3,0635_lp_dnn_3_airplane_10_n02690373_3993.png,n02690373_3993.png,1.0,7.609489,1.8369,4.0818367
convnext_large,1,636,NaN,knife,chair,7,0636_lp_dnn_7_chair_10_n04099969_3984.png,n04099969_3984.png,0.0,-0.59538966,6.05688,-4.703865
convnext_large,1,637,NaN,airplane,airplane,3,0637_lp_dnn_3_airplane_10_n02690373_939.png,n02690373_939.png,1.0,6.952166,0.9461903,4.246866
convnext_large,1,638,NaN,car,car,1,0638_lp_dnn_1_car_10_n02814533_48541.png,n02814533_48541.png,1.0,2.601543,1.4247583,0.83211243
convnext_large,1,639,NaN,knife,clock,10,0639_lp_dnn_10_clock_10_n03196217_3986.png,n03196217_3986.png,0.0,2.166199,6.29587,-2.9201186
convnext_large,1,640,NaN,knife,clock,7,0640_lp_dnn_7_clock_10_n03196217_3006.png,n03196217_3006.png,0.0,2.3479364,3.208794,-0.60871834
convnext_large,1,641,NaN,knife,boat,40,0641_lp_dnn_40_boat_10_n03662601_8947.png,n03662601_8947.png,0.0,-1.111798,2.4638743,-2.5283823
convnext_large,1,642,NaN,knife,bear,40,0642_lp_dnn_40_bear_10_n02132136_14346.png,n02132136_14346.png,0.0,-1.404479,3.3728032,-3.3780487
convnext_large,1,643,NaN,knife,elephant,10,0643_lp_dnn_10_elephant_10_n02504458_3209.png,n02504458_3209.png,0.0,1.1283246,5.990134,-3.4378183
convnext_large,1,644,NaN,knife,dog,3,0644_lp_dnn_3_dog_10_n02088364_4980.png,n02088364_4980.png,0.0,0.50613916,0.99905634,-0.34854507
convnext_large,1,645,NaN,elephant,elephant,0,0645_lp_dnn_0_elephant_10_n02504013_1187.png,n02504013_1187.png,1.0,6.060344,0.2940316,4.077399
convnext_large,1,646,NaN,airplane,airplane,0,0646_lp_dnn_0_airplane_10_n02690373_20690.png,n02690373_20690.png,1.0,8.0448265,0.38683122,5.4150205
convnext_large,1,647,NaN,knife,bird,10,0647_lp_dnn_10_bird_10_n01616318_2290.png,n01616318_2290.png,0.0,-1.1223512,5.6086564,-4.759541
convnext_large,1,648,NaN,airplane,bird,1,0648_lp_dnn_1_bird_10_n02051845_1935.png,n02051845_1935.png,0.0,0.28399134,0.47893372,-0.13784508
convnext_large,1,649,NaN,truck,truck,0,0649_lp_dnn_0_truck_10_n04467665_19131.png,n04467665_19131.png,1.0,4.2023945,2.058707,1.515816
convnext_large,1,650,NaN,knife,car,5,0650_lp_dnn_5_car_10_n03100240_2138.png,n03100240_2138.png,0.0,3.2219334,3.4278002,-0.14556982
convnext_large,1,651,NaN,elephant,elephant,10,0651_lp_dnn_10_elephant_10_n02504458_5197.png,n02504458_5197.png,1.0,3.7080464,3.2570357,0.31891274
convnext_large,1,652,NaN,bear,bird,5,0652_lp_dnn_5_bird_10_n01819313_5504.png,n01819313_5504.png,0.0,-0.2729939,1.8933516,-1.5318375
convnext_large,1,653,NaN,knife,bird,3,0653_lp_dnn_3_bird_10_n01560419_1470.png,n01560419_1470.png,0.0,0.5701726,1.1436734,-0.4055263
convnext_large,1,654,NaN,airplane,airplane,3,0654_lp_dnn_3_airplane_10_n02690373_8650.png,n02690373_8650.png,1.0,6.106637,1.0934434,3.5448632
convnext_large,1,655,NaN,knife,bird,40,0655_lp_dnn_40_bird_10_n02028035_1677.png,n02028035_1677.png,0.0,-0.9286523,3.0056648,-2.7819824
convnext_large,1,656,NaN,clock,clock,1,0656_lp_dnn_1_clock_10_n04548280_9700.png,n04548280_9700.png,1.0,4.9206843,0.3246928,3.249857
convnext_large,1,657,NaN,knife,knife,5,0657_lp_dnn_5_knife_10_n03041632_5162.png,n03041632_5162.png,1.0,6.7580624,1.5801548,3.6613336
convnext_large,1,658,NaN,knife,airplane,10,0658_lp_dnn_10_airplane_10_n02690373_13326.png,n02690373_13326.png,0.0,-0.24222264,5.380563,-3.97591
convnext_large,1,659,NaN,oven,oven,3,0659_lp_dnn_3_oven_10_n04111531_857.png,n04111531_857.png,1.0,4.024396,2.2218363,1.2746022
convnext_large,1,660,NaN,knife,bottle,40,0660_lp_dnn_40_bottle_10_n04560804_3392.png,n04560804_3392.png,0.0,1.3471011,2.277443,-0.65785104
convnext_large,1,661,NaN,airplane,airplane,0,0661_lp_dnn_0_airplane_10_n02690373_4269.png,n02690373_4269.png,1.0,9.075289,0.42055368,6.1198225
convnext_large,1,662,NaN,clock,bicycle,7,0662_lp_dnn_7_bicycle_10_n02835271_12608.png,n02835271_12608.png,0.0,-1.0352906,2.9671109,-2.830125
convnext_large,1,663,NaN,elephant,elephant,1,0663_lp_dnn_1_elephant_10_n02504458_4868.png,n02504458_4868.png,1.0,5.8474264,0.6461406,3.6778646
convnext_large,1,664,NaN,knife,chair,7,0664_lp_dnn_7_chair_10_n03376595_11572.png,n03376595_11572.png,0.0,-0.572655,5.467848,-4.271281
convnext_large,1,665,NaN,knife,cat,10,0665_lp_dnn_10_cat_10_n02123045_1754.png,n02123045_1754.png,0.0,0.2988054,3.8460853,-2.5083058
convnext_large,1,666,NaN,knife,bottle,7,0666_lp_dnn_7_bottle_10_n04560804_2002.png,n04560804_2002.png,0.0,1.967136,3.0058181,-0.73445916
convnext_large,1,667,NaN,knife,truck,5,0667_lp_dnn_5_truck_10_n03796401_4878.png,n03796401_4878.png,0.0,0.46911293,3.0773516,-1.8443033
convnext_large,1,668,NaN,knife,bird,40,0668_lp_dnn_40_bird_10_n02033041_4901.png,n02033041_4901.png,0.0,-1.1380517,2.1990108,-2.3596597
convnext_large,1,669,NaN,knife,knife,40,0669_lp_dnn_40_knife_10_n03041632_31932.png,n03041632_31932.png,1.0,4.4529686,1.326057,2.2110605
convnext_large,1,670,NaN,knife,knife,3,0670_lp_dnn_3_knife_10_n03041632_9256.png,n03041632_9256.png,1.0,6.700246,0.855575,4.1328063
convnext_large,1,671,NaN,knife,chair,5,0671_lp_dnn_5_chair_10_n04429376_45302.png,n04429376_45302.png,0.0,-0.24273904,6.1287503,-4.5053234
convnext_large,1,672,NaN,truck,truck,3,0672_lp_dnn_3_truck_10_n03417042_5508.png,n03417042_5508.png,1.0,3.3001814,0.8052015,1.7642173
convnext_large,1,673,NaN,chair,chair,5,0673_lp_dnn_5_chair_10_n03376595_12326.png,n03376595_12326.png,1.0,2.360897,1.4794719,0.6232617
convnext_large,1,674,NaN,clock,clock,0,0674_lp_dnn_0_clock_10_n04548280_4391.png,n04548280_4391.png,1.0,3.4436772,0.7099346,1.933048
convnext_large,1,675,NaN,knife,car,10,0675_lp_dnn_10_car_10_n03100240_4421.png,n03100240_4421.png,0.0,1.2732916,3.9336987,-1.881192
convnext_large,1,676,NaN,oven,dog,3,0676_lp_dnn_3_dog_10_n02111500_7233.png,n02111500_7233.png,0.0,0.14116862,0.6549793,-0.36331898
convnext_large,1,677,NaN,bottle,bottle,1,0677_lp_dnn_1_bottle_10_n04591713_4232.png,n04591713_4232.png,1.0,1.6012589,0.21972972,0.9768886
convnext_large,1,678,NaN,airplane,airplane,1,0678_lp_dnn_1_airplane_10_n02690373_5010.png,n02690373_5010.png,1.0,8.56624,0.26138717,5.8724184
convnext_large,1,679,NaN,knife,bird,10,0679_lp_dnn_10_bird_10_n01860187_27046.png,n01860187_27046.png,0.0,-0.89055073,4.0304193,-3.4796512
convnext_large,1,680,NaN,knife,car,10,0680_lp_dnn_10_car_10_n03100240_5136.png,n03100240_5136.png,0.0,-0.6786105,3.994888,-3.3046627
convnext_large,1,681,NaN,knife,knife,15,0681_lp_dnn_15_knife_10_n03041632_1884.png,n03041632_1884.png,1.0,2.7732713,2.630453,0.100987725
convnext_large,1,682,NaN,clock,clock,1,0682_lp_dnn_1_clock_10_n04548280_2809.png,n04548280_2809.png,1.0,3.6773205,3.254026,0.29931444
convnext_large,1,683,NaN,knife,boat,7,0683_lp_dnn_7_boat_10_n03662601_12308.png,n03662601_12308.png,0.0,-0.41372377,4.1780405,-3.246868
convnext_large,1,684,NaN,knife,airplane,10,0684_lp_dnn_10_airplane_10_n02690373_7432.png,n02690373_7432.png,0.0,0.48610008,4.4808345,-2.8247037
convnext_large,1,685,NaN,knife,bicycle,7,0685_lp_dnn_7_bicycle_10_n03792782_6149.png,n03792782_6149.png,0.0,-0.72085977,2.548748,-2.311962
convnext_large,1,686,NaN,knife,chair,10,0686_lp_dnn_10_chair_10_n04429376_24716.png,n04429376_24716.png,0.0,-0.32875818,4.2788343,-3.25806
convnext_large,1,687,NaN,bottle,bottle,0,0687_lp_dnn_0_bottle_10_n04557648_376.png,n04557648_376.png,1.0,2.5717452,0.5232302,1.4485188
convnext_large,1,688,NaN,knife,cat,10,0688_lp_dnn_10_cat_10_n02123394_3144.png,n02123394_3144.png,0.0,0.39489952,5.573053,-3.6615076
convnext_large,1,689,NaN,knife,dog,3,0689_lp_dnn_3_dog_10_n02092002_12007.png,n02092002_12007.png,0.0,0.53776455,1.1629505,-0.44207326
convnext_large,1,690,NaN,knife,bird,15,0690_lp_dnn_15_bird_10_n02028035_33583.png,n02028035_33583.png,0.0,-0.61267006,3.592517,-2.9735162
convnext_large,1,691,NaN,knife,bird,15,0691_lp_dnn_15_bird_10_n01797886_904.png,n01797886_904.png,0.0,-0.4561193,3.1798873,-2.571045
convnext_large,1,692,NaN,knife,keyboard,15,0692_lp_dnn_15_keyboard_10_n03085013_21397.png,n03085013_21397.png,0.0,3.0686052,4.3250484,-0.8884396
convnext_large,1,693,NaN,knife,dog,40,0693_lp_dnn_40_dog_10_n02108915_11208.png,n02108915_11208.png,0.0,-1.0236253,3.9500198,-3.5168984
convnext_large,1,694,NaN,boat,boat,3,0694_lp_dnn_3_boat_10_n03662601_17665.png,n03662601_17665.png,1.0,2.1157002,1.8914264,0.15858553
convnext_large,1,695,NaN,knife,clock,10,0695_lp_dnn_10_clock_10_n03196217_9160.png,n03196217_9160.png,0.0,2.3056185,3.0659332,-0.5376237
convnext_large,1,696,NaN,airplane,dog,0,0696_lp_dnn_0_dog_10_n02100735_3595.png,n02100735_3595.png,0.0,0.22877511,0.29110524,-0.044074055
convnext_large,1,697,NaN,bottle,truck,5,0697_lp_dnn_5_truck_10_n03796401_2656.png,n03796401_2656.png,0.0,-0.124234736,2.5699475,-1.9050745
convnext_large,1,698,NaN,knife,truck,40,0698_lp_dnn_40_truck_10_n04467665_13193.png,n04467665_13193.png,0.0,-0.96148497,3.014122,-2.8111787
convnext_large,1,699,NaN,oven,oven,5,0699_lp_dnn_5_oven_10_n04111531_20953.png,n04111531_20953.png,1.0,5.026997,2.1825836,2.0113041
convnext_large,1,700,NaN,clock,clock,5,0700_lp_dnn_5_clock_10_n02708093_8051.png,n02708093_8051.png,1.0,2.1530204,1.3346976,0.5786416
convnext_large,1,701,NaN,car,car,0,0701_lp_dnn_0_car_10_n03100240_11428.png,n03100240_11428.png,1.0,5.8954697,0.3559856,3.9170067
convnext_large,1,702,NaN,bicycle,bicycle,1,0702_lp_dnn_1_bicycle_10_n02835271_12473.png,n02835271_12473.png,1.0,5.2280564,0.42405406,3.3969426
convnext_large,1,703,NaN,knife,chair,10,0703_lp_dnn_10_chair_10_n02791124_6865.png,n02791124_6865.png,0.0,-1.0823604,2.86745,-2.7929378
convnext_large,1,704,NaN,knife,chair,15,0704_lp_dnn_15_chair_10_n03376595_4464.png,n03376595_4464.png,0.0,-0.5126213,3.859106,-3.091278
convnext_large,1,705,NaN,airplane,airplane,0,0705_lp_dnn_0_airplane_10_n02690373_1051.png,n02690373_1051.png,1.0,8.225105,0.36054465,5.5610843
convnext_large,1,706,NaN,knife,chair,5,0706_lp_dnn_5_chair_10_n04429376_5789.png,n04429376_5789.png,0.0,0.67269164,4.2976475,-2.563231
convnext_large,1,707,NaN,car,bird,0,0707_lp_dnn_0_bird_10_n01592084_2971.png,n01592084_2971.png,0.0,0.0120278075,0.573147,-0.3967712
convnext_large,1,708,NaN,knife,bicycle,5,0708_lp_dnn_5_bicycle_10_n03792782_22760.png,n03792782_22760.png,0.0,-0.9545785,1.0659324,-1.428717
convnext_large,1,709,NaN,knife,airplane,40,0709_lp_dnn_40_airplane_10_n02690373_2656.png,n02690373_2656.png,0.0,-0.17742711,3.6821604,-2.7291405
convnext_large,1,710,NaN,oven,oven,0,0710_lp_dnn_0_oven_10_n04111531_21173.png,n04111531_21173.png,1.0,7.584796,1.9821625,3.9616601
convnext_large,1,711,NaN,bottle,bottle,3,0711_lp_dnn_3_bottle_10_n04557648_32252.png,n04557648_32252.png,1.0,2.8585851,2.490931,0.2599707
convnext_large,1,712,NaN,keyboard,cat,5,0712_lp_dnn_5_cat_10_n02123597_13835.png,n02123597_13835.png,0.0,1.160941,2.3555071,-0.84468585
convnext_large,1,713,NaN,knife,knife,10,0713_lp_dnn_10_knife_10_n03041632_11969.png,n03041632_11969.png,1.0,6.1742268,1.8760415,3.0392761
convnext_large,1,714,NaN,knife,cat,5,0714_lp_dnn_5_cat_10_n02125311_22884.png,n02125311_22884.png,0.0,0.51322097,2.634346,-1.4998618
convnext_large,1,715,NaN,knife,bear,7,0715_lp_dnn_7_bear_10_n02134418_860.png,n02134418_860.png,0.0,0.7853646,2.8536143,-1.4624734
convnext_large,1,716,NaN,car,car,0,0716_lp_dnn_0_car_10_n03100240_1696.png,n03100240_1696.png,1.0,4.683499,0.19036281,3.177127
convnext_large,1,717,NaN,knife,bird,7,0717_lp_dnn_7_bird_10_n02018207_1606.png,n02018207_1606.png,0.0,-0.5590784,6.260583,-4.822229
convnext_large,1,718,NaN,knife,bird,40,0718_lp_dnn_40_bird_10_n02018795_4730.png,n02018795_4730.png,0.0,-0.91068107,2.051323,-2.094453
convnext_large,1,719,NaN,knife,truck,10,0719_lp_dnn_10_truck_10_n04467665_67861.png,n04467665_67861.png,0.0,-0.8779839,5.6674104,-4.628293
convnext_large,1,720,NaN,truck,truck,1,0720_lp_dnn_1_truck_10_n03417042_820.png,n03417042_820.png,1.0,2.1552527,0.77261126,0.97767514
convnext_large,1,721,NaN,elephant,elephant,7,0721_lp_dnn_7_elephant_10_n02504013_7774.png,n02504013_7774.png,1.0,3.8906302,3.4177294,0.33439142
convnext_large,1,722,NaN,boat,boat,3,0722_lp_dnn_3_boat_10_n04273569_11445.png,n04273569_11445.png,1.0,2.1821828,1.1905423,0.7011957
convnext_large,1,723,NaN,elephant,elephant,0,0723_lp_dnn_0_elephant_10_n02504458_5482.png,n02504458_5482.png,1.0,7.228758,0.4011744,4.8278303
convnext_large,1,724,NaN,knife,clock,10,0724_lp_dnn_10_clock_10_n03196217_454.png,n03196217_454.png,0.0,1.2858616,4.851467,-2.521264
convnext_large,1,725,NaN,knife,oven,40,0725_lp_dnn_40_oven_10_n04111531_17781.png,n04111531_17781.png,0.0,-0.74797535,2.3035357,-2.1577442
convnext_large,1,726,NaN,bottle,bottle,5,0726_lp_dnn_5_bottle_10_n02823428_4694.png,n02823428_4694.png,1.0,3.6021068,3.3405254,0.184966
