subj,session,trial,rt,object_response,category,condition,imagename,filename,is_correct,targ_act,max_nontarg_act,decision_margin
alexnet_w1_mlp_simclrhn_probe3,1,1,NaN,knife,chair,40,0001_lp_dnn_40_chair_10_n04099969_7577.png,n04099969_7577.png,0.0,-0.09687267,0.3082921,-0.28649476
alexnet_w1_mlp_simclrhn_probe3,1,2,NaN,bottle,cat,40,0002_lp_dnn_40_cat_10_n02124075_12815.png,n02124075_12815.png,0.0,0.005464991,0.2865685,-0.1987702
alexnet_w1_mlp_simclrhn_probe3,1,3,NaN,bottle,truck,5,0003_lp_dnn_5_truck_10_n04467665_34253.png,n04467665_34253.png,0.0,-0.29384643,0.84945345,-0.8084351
alexnet_w1_mlp_simclrhn_probe3,1,4,NaN,bottle,clock,1,0004_lp_dnn_1_clock_10_n04548280_5320.png,n04548280_5320.png,0.0,0.6550414,1.087241,-0.3056113
alexnet_w1_mlp_simclrhn_probe3,1,5,NaN,bottle,dog,3,0005_lp_dnn_3_dog_10_n02108915_3652.png,n02108915_3652.png,0.0,-0.081664674,0.61772484,-0.49454308
alexnet_w1_mlp_simclrhn_probe3,1,6,NaN,keyboard,keyboard,7,0006_lp_dnn_7_keyboard_10_n04505470_578.png,n04505470_578.png,1.0,0.64972734,0.63955146,0.0071954364
alexnet_w1_mlp_simclrhn_probe3,1,7,NaN,bottle,cat,7,0007_lp_dnn_7_cat_10_n02123597_3842.png,n02123597_3842.png,0.0,-0.09944423,0.38859254,-0.3450941
alexnet_w1_mlp_simclrhn_probe3,1,8,NaN,bear,bear,1,0008_lp_dnn_1_bear_10_n02134418_14.png,n02134418_14.png,1.0,6.541889,4.231408,1.6337569
alexnet_w1_mlp_simclrhn_probe3,1,9,NaN,bottle,knife,10,0009_lp_dnn_10_knife_10_n03041632_29920.png,n03041632_29920.png,0.0,0.07185683,0.36630222,-0.20820434
alexnet_w1_mlp_simclrhn_probe3,1,10,NaN,bottle,bird,5,0010_lp_dnn_5_bird_10_n01795545_952.png,n01795545_952.png,0.0,0.016154805,0.4010129,-0.27213576
alexnet_w1_mlp_simclrhn_probe3,1,11,NaN,oven,bear,3,0011_lp_dnn_3_bear_10_n02132136_6441.png,n02132136_6441.png,0.0,0.12516429,0.21669458,-0.06472169
alexnet_w1_mlp_simclrhn_probe3,1,12,NaN,bear,bird,3,0012_lp_dnn_3_bird_10_n01829413_8792.png,n01829413_8792.png,0.0,-0.11284698,0.23757458,-0.24778546
alexnet_w1_mlp_simclrhn_probe3,1,13,NaN,bottle,keyboard,7,0013_lp_dnn_7_keyboard_10_n04505470_4458.png,n04505470_4458.png,0.0,0.5036539,0.5092914,-0.0039863335
alexnet_w1_mlp_simclrhn_probe3,1,14,NaN,bottle,chair,10,0014_lp_dnn_10_chair_10_n03376595_9176.png,n03376595_9176.png,0.0,-0.18290693,0.3214324,-0.35662177
alexnet_w1_mlp_simclrhn_probe3,1,15,NaN,clock,clock,40,0015_lp_dnn_40_clock_10_n04548280_7662.png,n04548280_7662.png,1.0,0.30691043,0.2776948,0.020658573
alexnet_w1_mlp_simclrhn_probe3,1,16,NaN,knife,keyboard,40,0016_lp_dnn_40_keyboard_10_n03085013_25809.png,n03085013_25809.png,0.0,-0.12056897,0.31578183,-0.3085466
alexnet_w1_mlp_simclrhn_probe3,1,17,NaN,bottle,oven,5,0017_lp_dnn_5_oven_10_n04111531_1580.png,n04111531_1580.png,0.0,0.11397281,0.36718097,-0.17904522
alexnet_w1_mlp_simclrhn_probe3,1,18,NaN,elephant,elephant,1,0018_lp_dnn_1_elephant_10_n02504458_900.png,n02504458_900.png,1.0,8.509445,2.1929622,4.4664283
alexnet_w1_mlp_simclrhn_probe3,1,19,NaN,bottle,dog,7,0019_lp_dnn_7_dog_10_n02106662_2384.png,n02106662_2384.png,0.0,-0.11264395,0.6566226,-0.5439536
alexnet_w1_mlp_simclrhn_probe3,1,20,NaN,bottle,truck,10,0020_lp_dnn_10_truck_10_n03796401_22618.png,n03796401_22618.png,0.0,-0.30672053,0.4547718,-0.5384564
alexnet_w1_mlp_simclrhn_probe3,1,21,NaN,bottle,elephant,15,0021_lp_dnn_15_elephant_10_n02504013_5463.png,n02504013_5463.png,0.0,-0.18565091,0.25231797,-0.30969077
alexnet_w1_mlp_simclrhn_probe3,1,22,NaN,bottle,chair,10,0022_lp_dnn_10_chair_10_n04429376_16459.png,n04429376_16459.png,0.0,-0.19325303,0.35866067,-0.39026192
alexnet_w1_mlp_simclrhn_probe3,1,23,NaN,cat,cat,1,0023_lp_dnn_1_cat_10_n02123045_12206.png,n02123045_12206.png,1.0,2.5401402,1.2142893,0.9375181
alexnet_w1_mlp_simclrhn_probe3,1,24,NaN,bottle,truck,7,0024_lp_dnn_7_truck_10_n03417042_2633.png,n03417042_2633.png,0.0,-0.34197325,0.7119454,-0.745233
alexnet_w1_mlp_simclrhn_probe3,1,25,NaN,bottle,keyboard,15,0025_lp_dnn_15_keyboard_10_n03085013_24416.png,n03085013_24416.png,0.0,0.08153884,0.37074238,-0.20449777
alexnet_w1_mlp_simclrhn_probe3,1,26,NaN,bottle,car,7,0026_lp_dnn_7_car_10_n02814533_44503.png,n02814533_44503.png,0.0,-0.32174227,0.7312724,-0.7445938
alexnet_w1_mlp_simclrhn_probe3,1,27,NaN,bottle,elephant,5,0027_lp_dnn_5_elephant_10_n02504458_5797.png,n02504458_5797.png,0.0,-0.19606027,0.33883598,-0.37822878
alexnet_w1_mlp_simclrhn_probe3,1,28,NaN,oven,chair,0,0028_lp_dnn_0_chair_10_n04429376_8237.png,n04429376_8237.png,0.0,1.6303657,3.3565874,-1.2206231
alexnet_w1_mlp_simclrhn_probe3,1,29,NaN,bottle,cat,7,0029_lp_dnn_7_cat_10_n02123159_587.png,n02123159_587.png,0.0,-0.15495245,0.48439053,-0.45208377
alexnet_w1_mlp_simclrhn_probe3,1,30,NaN,bottle,bird,10,0030_lp_dnn_10_bird_10_n02028035_17238.png,n02028035_17238.png,0.0,-0.008157967,0.26944318,-0.19629367
alexnet_w1_mlp_simclrhn_probe3,1,31,NaN,knife,cat,40,0031_lp_dnn_40_cat_10_n02123159_4348.png,n02123159_4348.png,0.0,-0.016915623,0.2655933,-0.19976397
alexnet_w1_mlp_simclrhn_probe3,1,32,NaN,bottle,boat,5,0032_lp_dnn_5_boat_10_n04273569_22332.png,n04273569_22332.png,0.0,-0.31541088,0.3512544,-0.47140357
alexnet_w1_mlp_simclrhn_probe3,1,33,NaN,elephant,elephant,1,0033_lp_dnn_1_elephant_10_n02504013_1244.png,n02504013_1244.png,1.0,12.5752945,3.3889918,6.4956965
alexnet_w1_mlp_simclrhn_probe3,1,34,NaN,bottle,bicycle,7,0034_lp_dnn_7_bicycle_10_n03792782_30229.png,n03792782_30229.png,0.0,-0.29629034,0.46599293,-0.53901565
alexnet_w1_mlp_simclrhn_probe3,1,35,NaN,bottle,keyboard,10,0035_lp_dnn_10_keyboard_10_n03085013_7573.png,n03085013_7573.png,0.0,0.06856097,0.24077079,-0.12177073
alexnet_w1_mlp_simclrhn_probe3,1,36,NaN,keyboard,keyboard,3,0036_lp_dnn_3_keyboard_10_n03085013_24578.png,n03085013_24578.png,1.0,1.932585,0.94187814,0.70053554
alexnet_w1_mlp_simclrhn_probe3,1,37,NaN,bottle,truck,15,0037_lp_dnn_15_truck_10_n03417042_1336.png,n03417042_1336.png,0.0,-0.24248496,0.26279953,-0.3572901
alexnet_w1_mlp_simclrhn_probe3,1,38,NaN,bottle,knife,3,0038_lp_dnn_3_knife_10_n03041632_7495.png,n03041632_7495.png,0.0,0.3651102,0.5502752,-0.13093144
alexnet_w1_mlp_simclrhn_probe3,1,39,NaN,car,car,0,0039_lp_dnn_0_car_10_n03100240_9625.png,n03100240_9625.png,1.0,8.897766,5.709218,2.254644
alexnet_w1_mlp_simclrhn_probe3,1,40,NaN,bottle,elephant,10,0040_lp_dnn_10_elephant_10_n02504458_6107.png,n02504458_6107.png,0.0,-0.2306628,0.29224986,-0.36975506
alexnet_w1_mlp_simclrhn_probe3,1,41,NaN,bicycle,bicycle,0,0041_lp_dnn_0_bicycle_10_n03792782_33649.png,n03792782_33649.png,1.0,9.443718,1.9454974,5.3020425
alexnet_w1_mlp_simclrhn_probe3,1,42,NaN,knife,clock,1,0042_lp_dnn_1_clock_10_n03196217_8282.png,n03196217_8282.png,0.0,1.1760244,1.4570091,-0.19868615
alexnet_w1_mlp_simclrhn_probe3,1,43,NaN,bottle,keyboard,7,0043_lp_dnn_7_keyboard_10_n03085013_21534.png,n03085013_21534.png,0.0,0.35840142,0.6565451,-0.21081942
alexnet_w1_mlp_simclrhn_probe3,1,44,NaN,bottle,elephant,15,0044_lp_dnn_15_elephant_10_n02504013_22813.png,n02504013_22813.png,0.0,-0.21938846,0.23267826,-0.31965944
alexnet_w1_mlp_simclrhn_probe3,1,45,NaN,bottle,truck,10,0045_lp_dnn_10_truck_10_n03796401_16425.png,n03796401_16425.png,0.0,-0.2835334,0.43160936,-0.5056823
alexnet_w1_mlp_simclrhn_probe3,1,46,NaN,bottle,airplane,15,0046_lp_dnn_15_airplane_10_n02690373_9427.png,n02690373_9427.png,0.0,-0.16018727,0.34612936,-0.35801995
alexnet_w1_mlp_simclrhn_probe3,1,47,NaN,bottle,bird,7,0047_lp_dnn_7_bird_10_n02009912_11907.png,n02009912_11907.png,0.0,-0.10362564,0.57485354,-0.47975725
alexnet_w1_mlp_simclrhn_probe3,1,48,NaN,airplane,airplane,1,0048_lp_dnn_1_airplane_10_n02690373_5773.png,n02690373_5773.png,1.0,8.835999,1.1334834,5.446501
alexnet_w1_mlp_simclrhn_probe3,1,49,NaN,bottle,chair,40,0049_lp_dnn_40_chair_10_n02791124_2972.png,n02791124_2972.png,0.0,-0.14164385,0.27345285,-0.2935177
alexnet_w1_mlp_simclrhn_probe3,1,50,NaN,bird,bird,1,0050_lp_dnn_1_bird_10_n01819313_18188.png,n01819313_18188.png,1.0,2.2845132,1.6319582,0.46142608
alexnet_w1_mlp_simclrhn_probe3,1,51,NaN,bottle,car,5,0051_lp_dnn_5_car_10_n04285008_7428.png,n04285008_7428.png,0.0,-0.29846826,1.1120656,-0.997398
alexnet_w1_mlp_simclrhn_probe3,1,52,NaN,bottle,bottle,7,0052_lp_dnn_7_bottle_10_n04591713_6923.png,n04591713_6923.png,1.0,0.49504328,0.2159419,0.19735448
alexnet_w1_mlp_simclrhn_probe3,1,53,NaN,knife,knife,0,0053_lp_dnn_0_knife_10_n03041632_22570.png,n03041632_22570.png,1.0,2.2379222,1.0562965,0.8355356
alexnet_w1_mlp_simclrhn_probe3,1,54,NaN,bear,bear,0,0054_lp_dnn_0_bear_10_n02132136_7586.png,n02132136_7586.png,1.0,5.996399,1.5680218,3.1313355
alexnet_w1_mlp_simclrhn_probe3,1,55,NaN,bottle,clock,5,0055_lp_dnn_5_clock_10_n04548280_9144.png,n04548280_9144.png,0.0,0.2571205,0.88926774,-0.44699562
alexnet_w1_mlp_simclrhn_probe3,1,56,NaN,oven,bottle,0,0056_lp_dnn_0_bottle_10_n04591713_2680.png,n04591713_2680.png,0.0,0.5709836,1.6153029,-0.73844534
alexnet_w1_mlp_simclrhn_probe3,1,57,NaN,oven,cat,3,0057_lp_dnn_3_cat_10_n02123045_1596.png,n02123045_1596.png,0.0,0.24356382,0.30147642,-0.040950395
alexnet_w1_mlp_simclrhn_probe3,1,58,NaN,bottle,cat,10,0058_lp_dnn_10_cat_10_n02123597_19450.png,n02123597_19450.png,0.0,-0.07091806,0.38641676,-0.32338455
alexnet_w1_mlp_simclrhn_probe3,1,59,NaN,bottle,chair,15,0059_lp_dnn_15_chair_10_n03376595_3462.png,n03376595_3462.png,0.0,-0.18222614,0.40061888,-0.4121337
alexnet_w1_mlp_simclrhn_probe3,1,60,NaN,bottle,bottle,3,0060_lp_dnn_3_bottle_10_n04591713_3683.png,n04591713_3683.png,1.0,1.1179472,0.41577303,0.49651214
alexnet_w1_mlp_simclrhn_probe3,1,61,NaN,bottle,clock,7,0061_lp_dnn_7_clock_10_n03196217_4309.png,n03196217_4309.png,0.0,0.63071495,1.0134872,-0.27066088
alexnet_w1_mlp_simclrhn_probe3,1,62,NaN,bottle,bear,15,0062_lp_dnn_15_bear_10_n02134084_4923.png,n02134084_4923.png,0.0,-0.15592831,0.3398335,-0.35055655
alexnet_w1_mlp_simclrhn_probe3,1,63,NaN,oven,chair,1,0063_lp_dnn_1_chair_10_n04429376_5238.png,n04429376_5238.png,0.0,0.6937156,1.8713952,-0.8327453
alexnet_w1_mlp_simclrhn_probe3,1,64,NaN,bicycle,clock,0,0064_lp_dnn_0_clock_10_n03196217_2414.png,n03196217_2414.png,0.0,-0.28408203,1.8588176,-1.5152588
alexnet_w1_mlp_simclrhn_probe3,1,65,NaN,knife,bird,3,0065_lp_dnn_3_bird_10_n01797886_2711.png,n01797886_2711.png,0.0,0.023644196,0.19252552,-0.11941713
alexnet_w1_mlp_simclrhn_probe3,1,66,NaN,bottle,truck,15,0066_lp_dnn_15_truck_10_n04467665_68463.png,n04467665_68463.png,0.0,-0.2443288,0.334964,-0.40962186
alexnet_w1_mlp_simclrhn_probe3,1,67,NaN,truck,truck,0,0067_lp_dnn_0_truck_10_n03417042_10099.png,n03417042_10099.png,1.0,9.07633,3.0126464,4.2876716
alexnet_w1_mlp_simclrhn_probe3,1,68,NaN,bottle,bear,10,0068_lp_dnn_10_bear_10_n02134418_3793.png,n02134418_3793.png,0.0,-0.18115686,0.40993935,-0.41796815
alexnet_w1_mlp_simclrhn_probe3,1,69,NaN,bottle,bottle,10,0069_lp_dnn_10_bottle_10_n03937543_9524.png,n03937543_9524.png,1.0,0.36369762,0.18141913,0.12889035
alexnet_w1_mlp_simclrhn_probe3,1,70,NaN,cat,cat,3,0070_lp_dnn_3_cat_10_n02123394_1038.png,n02123394_1038.png,1.0,0.40654162,0.34516218,0.043401815
alexnet_w1_mlp_simclrhn_probe3,1,71,NaN,bottle,dog,5,0071_lp_dnn_5_dog_10_n02110185_7886.png,n02110185_7886.png,0.0,-0.12854567,0.7423965,-0.6158491
alexnet_w1_mlp_simclrhn_probe3,1,72,NaN,clock,clock,3,0072_lp_dnn_3_clock_10_n02708093_4912.png,n02708093_4912.png,1.0,0.9402466,0.70587856,0.16572322
alexnet_w1_mlp_simclrhn_probe3,1,73,NaN,bottle,dog,15,0073_lp_dnn_15_dog_10_n02108422_932.png,n02108422_932.png,0.0,-0.06330979,0.21977152,-0.2001687
alexnet_w1_mlp_simclrhn_probe3,1,74,NaN,truck,truck,0,0074_lp_dnn_0_truck_10_n04467665_18621.png,n04467665_18621.png,1.0,8.436449,0.8649137,5.3538837
alexnet_w1_mlp_simclrhn_probe3,1,75,NaN,car,truck,1,0075_lp_dnn_1_truck_10_n04467665_50932.png,n04467665_50932.png,0.0,2.7108116,2.8889148,-0.12593798
alexnet_w1_mlp_simclrhn_probe3,1,76,NaN,dog,dog,1,0076_lp_dnn_1_dog_10_n02102480_7293.png,n02102480_7293.png,1.0,2.2071736,0.94376636,0.89336383
alexnet_w1_mlp_simclrhn_probe3,1,77,NaN,clock,bottle,1,0077_lp_dnn_1_bottle_10_n04591713_4764.png,n04591713_4764.png,0.0,0.09465492,0.25804198,-0.1155321
alexnet_w1_mlp_simclrhn_probe3,1,78,NaN,bottle,clock,15,0078_lp_dnn_15_clock_10_n02708093_274.png,n02708093_274.png,0.0,0.16958791,0.30239415,-0.0939082
alexnet_w1_mlp_simclrhn_probe3,1,79,NaN,bottle,bottle,5,0079_lp_dnn_5_bottle_10_n04557648_29772.png,n04557648_29772.png,1.0,0.466171,0.34260076,0.087377355
alexnet_w1_mlp_simclrhn_probe3,1,80,NaN,bottle,car,15,0080_lp_dnn_15_car_10_n03100240_22499.png,n03100240_22499.png,0.0,-0.30151883,0.42006853,-0.5102393
alexnet_w1_mlp_simclrhn_probe3,1,81,NaN,clock,clock,3,0081_lp_dnn_3_clock_10_n02708093_6252.png,n02708093_6252.png,1.0,2.9493673,0.4339933,1.778638
alexnet_w1_mlp_simclrhn_probe3,1,82,NaN,bottle,airplane,10,0082_lp_dnn_10_airplane_10_n02690373_5427.png,n02690373_5427.png,0.0,-0.3162411,0.46984318,-0.55584556
alexnet_w1_mlp_simclrhn_probe3,1,83,NaN,bottle,dog,15,0083_lp_dnn_15_dog_10_n02107142_46045.png,n02107142_46045.png,0.0,-0.09635249,0.42712826,-0.37015682
alexnet_w1_mlp_simclrhn_probe3,1,84,NaN,bottle,keyboard,40,0084_lp_dnn_40_keyboard_10_n03085013_23793.png,n03085013_23793.png,0.0,0.0038974732,0.2877666,-0.20072581
alexnet_w1_mlp_simclrhn_probe3,1,85,NaN,clock,bicycle,3,0085_lp_dnn_3_bicycle_10_n03792782_12421.png,n03792782_12421.png,0.0,-0.28370118,0.71024054,-0.7028229
alexnet_w1_mlp_simclrhn_probe3,1,86,NaN,airplane,airplane,0,0086_lp_dnn_0_airplane_10_n02690373_1310.png,n02690373_1310.png,1.0,6.4358425,4.4152036,1.4288075
alexnet_w1_mlp_simclrhn_probe3,1,87,NaN,bottle,oven,15,0087_lp_dnn_15_oven_10_n04111531_8793.png,n04111531_8793.png,0.0,-0.022062058,0.5738496,-0.4213732
alexnet_w1_mlp_simclrhn_probe3,1,88,NaN,bottle,airplane,5,0088_lp_dnn_5_airplane_10_n02690373_633.png,n02690373_633.png,0.0,-0.28923196,0.61282337,-0.63784945
alexnet_w1_mlp_simclrhn_probe3,1,89,NaN,bottle,clock,5,0089_lp_dnn_5_clock_10_n02708093_2307.png,n02708093_2307.png,0.0,0.14189865,0.35124925,-0.14803323
alexnet_w1_mlp_simclrhn_probe3,1,90,NaN,bottle,oven,10,0090_lp_dnn_10_oven_10_n04111531_13795.png,n04111531_13795.png,0.0,0.027701236,0.40424824,-0.26625896
alexnet_w1_mlp_simclrhn_probe3,1,91,NaN,oven,boat,3,0091_lp_dnn_3_boat_10_n03662601_1427.png,n03662601_1427.png,0.0,-0.12477778,1.0820851,-0.853381
alexnet_w1_mlp_simclrhn_probe3,1,92,NaN,bottle,boat,5,0092_lp_dnn_5_boat_10_n04612504_15944.png,n04612504_15944.png,0.0,-0.2701397,0.45139566,-0.5102025
alexnet_w1_mlp_simclrhn_probe3,1,93,NaN,knife,airplane,40,0093_lp_dnn_40_airplane_10_n02690373_3561.png,n02690373_3561.png,0.0,-0.0024837814,0.317704,-0.22640695
alexnet_w1_mlp_simclrhn_probe3,1,94,NaN,bottle,elephant,7,0094_lp_dnn_7_elephant_10_n02504458_1848.png,n02504458_1848.png,0.0,-0.25837833,0.43521765,-0.49044645
alexnet_w1_mlp_simclrhn_probe3,1,95,NaN,bottle,oven,5,0095_lp_dnn_5_oven_10_n04111531_4155.png,n04111531_4155.png,0.0,0.10181427,0.6775418,-0.40710086
alexnet_w1_mlp_simclrhn_probe3,1,96,NaN,truck,car,0,0096_lp_dnn_0_car_10_n03100240_8327.png,n03100240_8327.png,0.0,8.947836,10.588104,-1.1598449
alexnet_w1_mlp_simclrhn_probe3,1,97,NaN,oven,chair,0,0097_lp_dnn_0_chair_10_n04429376_24319.png,n04429376_24319.png,0.0,2.2940872,3.8673725,-1.1124808
alexnet_w1_mlp_simclrhn_probe3,1,98,NaN,keyboard,chair,3,0098_lp_dnn_3_chair_10_n03376595_5112.png,n03376595_5112.png,0.0,0.11549177,0.34519228,-0.16242279
alexnet_w1_mlp_simclrhn_probe3,1,99,NaN,bear,cat,1,0099_lp_dnn_1_cat_10_n02124075_2268.png,n02124075_2268.png,0.0,1.5222179,1.6580844,-0.096072145
alexnet_w1_mlp_simclrhn_probe3,1,100,NaN,knife,boat,3,0100_lp_dnn_3_boat_10_n04273569_1137.png,n04273569_1137.png,0.0,-0.22829673,0.36811826,-0.4217291
alexnet_w1_mlp_simclrhn_probe3,1,101,NaN,chair,chair,1,0101_lp_dnn_1_chair_10_n02791124_15383.png,n02791124_15383.png,1.0,3.6347284,1.9907355,1.1624786
alexnet_w1_mlp_simclrhn_probe3,1,102,NaN,bottle,clock,15,0102_lp_dnn_15_clock_10_n04548280_8998.png,n04548280_8998.png,0.0,0.25864205,0.44546396,-0.13210304
alexnet_w1_mlp_simclrhn_probe3,1,103,NaN,bear,dog,0,0103_lp_dnn_0_dog_10_n02097047_2800.png,n02097047_2800.png,0.0,0.78131235,2.9897668,-1.5616132
alexnet_w1_mlp_simclrhn_probe3,1,104,NaN,bottle,bicycle,15,0104_lp_dnn_15_bicycle_10_n03792782_18294.png,n03792782_18294.png,0.0,-0.22636212,0.26981768,-0.35085213
alexnet_w1_mlp_simclrhn_probe3,1,105,NaN,elephant,elephant,0,0105_lp_dnn_0_elephant_10_n02504013_24486.png,n02504013_24486.png,1.0,4.205607,3.552409,0.46188074
alexnet_w1_mlp_simclrhn_probe3,1,106,NaN,bottle,airplane,7,0106_lp_dnn_7_airplane_10_n02690373_2923.png,n02690373_2923.png,0.0,-0.3240545,0.44776386,-0.545758
alexnet_w1_mlp_simclrhn_probe3,1,107,NaN,knife,airplane,3,0107_lp_dnn_3_airplane_10_n02690373_15392.png,n02690373_15392.png,0.0,0.41848367,0.52075297,-0.07231531
alexnet_w1_mlp_simclrhn_probe3,1,108,NaN,bottle,oven,5,0108_lp_dnn_5_oven_10_n04111531_6080.png,n04111531_6080.png,0.0,0.25057775,0.8785121,-0.44401664
alexnet_w1_mlp_simclrhn_probe3,1,109,NaN,bottle,bear,15,0109_lp_dnn_15_bear_10_n02134084_22736.png,n02134084_22736.png,0.0,-0.16469659,0.36873683,-0.3771944
alexnet_w1_mlp_simclrhn_probe3,1,110,NaN,knife,knife,1,0110_lp_dnn_1_knife_10_n03041632_33326.png,n03041632_33326.png,1.0,1.1230499,0.4957081,0.4435976
alexnet_w1_mlp_simclrhn_probe3,1,111,NaN,knife,truck,40,0111_lp_dnn_40_truck_10_n04467665_66876.png,n04467665_66876.png,0.0,-0.23541862,0.25971946,-0.3501155
alexnet_w1_mlp_simclrhn_probe3,1,112,NaN,knife,truck,40,0112_lp_dnn_40_truck_10_n03796401_10234.png,n03796401_10234.png,0.0,-0.25628233,0.33029634,-0.41477376
alexnet_w1_mlp_simclrhn_probe3,1,113,NaN,bottle,bicycle,7,0113_lp_dnn_7_bicycle_10_n03792782_5416.png,n03792782_5416.png,0.0,-0.28535563,0.31218028,-0.4225217
alexnet_w1_mlp_simclrhn_probe3,1,114,NaN,bottle,knife,7,0114_lp_dnn_7_knife_10_n03041632_25772.png,n03041632_25772.png,0.0,0.13623022,0.2567013,-0.085185915
alexnet_w1_mlp_simclrhn_probe3,1,115,NaN,bottle,bicycle,10,0115_lp_dnn_10_bicycle_10_n03792782_7108.png,n03792782_7108.png,0.0,-0.27687377,0.255496,-0.37644225
alexnet_w1_mlp_simclrhn_probe3,1,116,NaN,chair,chair,0,0116_lp_dnn_0_chair_10_n03376595_1981.png,n03376595_1981.png,1.0,4.7515616,3.1970892,1.0991781
alexnet_w1_mlp_simclrhn_probe3,1,117,NaN,bottle,oven,15,0117_lp_dnn_15_oven_10_n04111531_6508.png,n04111531_6508.png,0.0,0.043284528,0.5469,-0.3561099
alexnet_w1_mlp_simclrhn_probe3,1,118,NaN,bottle,bird,15,0118_lp_dnn_15_bird_10_n01843383_2843.png,n01843383_2843.png,0.0,-0.013078634,0.31785914,-0.23400834
alexnet_w1_mlp_simclrhn_probe3,1,119,NaN,bottle,cat,5,0119_lp_dnn_5_cat_10_n02123597_5887.png,n02123597_5887.png,0.0,-0.15144153,0.25609,-0.28816828
alexnet_w1_mlp_simclrhn_probe3,1,120,NaN,knife,clock,40,0120_lp_dnn_40_clock_10_n04548280_9801.png,n04548280_9801.png,0.0,0.23893428,0.27874264,-0.028148763
alexnet_w1_mlp_simclrhn_probe3,1,121,NaN,bird,bird,1,0121_lp_dnn_1_bird_10_n01530575_10332.png,n01530575_10332.png,1.0,3.2565987,0.61709017,1.8664144
alexnet_w1_mlp_simclrhn_probe3,1,122,NaN,bottle,elephant,15,0122_lp_dnn_15_elephant_10_n02504013_5887.png,n02504013_5887.png,0.0,-0.21117829,0.24901453,-0.32540545
alexnet_w1_mlp_simclrhn_probe3,1,123,NaN,bottle,cat,3,0123_lp_dnn_3_cat_10_n02124075_8693.png,n02124075_8693.png,0.0,0.33090523,0.64495134,-0.22206414
alexnet_w1_mlp_simclrhn_probe3,1,124,NaN,bottle,boat,15,0124_lp_dnn_15_boat_10_n04612504_26151.png,n04612504_26151.png,0.0,-0.2990206,0.42774385,-0.5139001
alexnet_w1_mlp_simclrhn_probe3,1,125,NaN,bottle,cat,7,0125_lp_dnn_7_cat_10_n02125311_53412.png,n02125311_53412.png,0.0,-0.08960435,0.4583901,-0.3874906
alexnet_w1_mlp_simclrhn_probe3,1,126,NaN,bottle,knife,7,0126_lp_dnn_7_knife_10_n03041632_46914.png,n03041632_46914.png,0.0,0.23002023,0.73461694,-0.35680377
alexnet_w1_mlp_simclrhn_probe3,1,127,NaN,bottle,bicycle,15,0127_lp_dnn_15_bicycle_10_n03792782_5629.png,n03792782_5629.png,0.0,-0.24410197,0.3525999,-0.42193195
alexnet_w1_mlp_simclrhn_probe3,1,128,NaN,knife,bottle,40,0128_lp_dnn_40_bottle_10_n02823428_79.png,n02823428_79.png,0.0,0.24483684,0.25164697,-0.004815488
alexnet_w1_mlp_simclrhn_probe3,1,129,NaN,dog,dog,3,0129_lp_dnn_3_dog_10_n02101006_5024.png,n02101006_5024.png,1.0,0.48415202,0.25137722,0.16459663
alexnet_w1_mlp_simclrhn_probe3,1,130,NaN,bottle,oven,15,0130_lp_dnn_15_oven_10_n04111531_2350.png,n04111531_2350.png,0.0,-0.025067348,0.46562916,-0.34697485
alexnet_w1_mlp_simclrhn_probe3,1,131,NaN,bottle,airplane,7,0131_lp_dnn_7_airplane_10_n02690373_4839.png,n02690373_4839.png,0.0,-0.32829124,0.6235746,-0.6730708
alexnet_w1_mlp_simclrhn_probe3,1,132,NaN,bottle,car,5,0132_lp_dnn_5_car_10_n03100240_2075.png,n03100240_2075.png,0.0,-0.35855758,0.7889865,-0.81143624
alexnet_w1_mlp_simclrhn_probe3,1,133,NaN,bottle,cat,5,0133_lp_dnn_5_cat_10_n02123159_3729.png,n02123159_3729.png,0.0,-0.12311705,0.7153531,-0.5928879
alexnet_w1_mlp_simclrhn_probe3,1,134,NaN,bottle,knife,10,0134_lp_dnn_10_knife_10_n03041632_3079.png,n03041632_3079.png,0.0,0.07942702,0.4313614,-0.24885519
alexnet_w1_mlp_simclrhn_probe3,1,135,NaN,bottle,elephant,15,0135_lp_dnn_15_elephant_10_n02504013_2052.png,n02504013_2052.png,0.0,-0.20107871,0.28443554,-0.34331042
alexnet_w1_mlp_simclrhn_probe3,1,136,NaN,knife,cat,40,0136_lp_dnn_40_cat_10_n02123159_3724.png,n02123159_3724.png,0.0,0.020881554,0.25618693,-0.16638604
alexnet_w1_mlp_simclrhn_probe3,1,137,NaN,bottle,keyboard,15,0137_lp_dnn_15_keyboard_10_n03085013_7955.png,n03085013_7955.png,0.0,0.19375697,0.52203023,-0.23212425
alexnet_w1_mlp_simclrhn_probe3,1,138,NaN,knife,bird,40,0138_lp_dnn_40_bird_10_n02056570_9872.png,n02056570_9872.png,0.0,-0.112651244,0.2684325,-0.2694669
alexnet_w1_mlp_simclrhn_probe3,1,139,NaN,bottle,cat,10,0139_lp_dnn_10_cat_10_n02125311_44401.png,n02125311_44401.png,0.0,-0.09421098,0.20174384,-0.20927167
alexnet_w1_mlp_simclrhn_probe3,1,140,NaN,bottle,airplane,10,0140_lp_dnn_10_airplane_10_n02690373_10657.png,n02690373_10657.png,0.0,-0.2211645,0.5540881,-0.54818636
alexnet_w1_mlp_simclrhn_probe3,1,141,NaN,knife,bird,5,0141_lp_dnn_5_bird_10_n02025239_7919.png,n02025239_7919.png,0.0,0.006028919,0.17299113,-0.11806011
alexnet_w1_mlp_simclrhn_probe3,1,142,NaN,knife,bear,40,0142_lp_dnn_40_bear_10_n02134084_23165.png,n02134084_23165.png,0.0,-0.121169895,0.3498265,-0.33304477
alexnet_w1_mlp_simclrhn_probe3,1,143,NaN,knife,knife,40,0143_lp_dnn_40_knife_10_n03041632_28658.png,n03041632_28658.png,1.0,0.28344393,0.25267294,0.021758374
alexnet_w1_mlp_simclrhn_probe3,1,144,NaN,bottle,keyboard,5,0144_lp_dnn_5_keyboard_10_n04505470_4371.png,n04505470_4371.png,0.0,0.77245206,0.97610366,-0.14400344
alexnet_w1_mlp_simclrhn_probe3,1,145,NaN,keyboard,keyboard,0,0145_lp_dnn_0_keyboard_10_n03085013_14237.png,n03085013_14237.png,1.0,4.047351,3.2477434,0.56540793
alexnet_w1_mlp_simclrhn_probe3,1,146,NaN,bottle,clock,0,0146_lp_dnn_0_clock_10_n03196217_6163.png,n03196217_6163.png,0.0,1.6051531,2.3151495,-0.5020433
alexnet_w1_mlp_simclrhn_probe3,1,147,NaN,bottle,chair,15,0147_lp_dnn_15_chair_10_n02791124_3857.png,n02791124_3857.png,0.0,-0.24840155,0.36307144,-0.43237668
alexnet_w1_mlp_simclrhn_probe3,1,148,NaN,bottle,truck,40,0148_lp_dnn_40_truck_10_n03417042_20650.png,n03417042_20650.png,0.0,-0.24196726,0.2735086,-0.3644965
alexnet_w1_mlp_simclrhn_probe3,1,149,NaN,truck,truck,0,0149_lp_dnn_0_truck_10_n04467665_17101.png,n04467665_17101.png,1.0,11.576771,2.8190773,6.1926246
alexnet_w1_mlp_simclrhn_probe3,1,150,NaN,chair,chair,1,0150_lp_dnn_1_chair_10_n04429376_19354.png,n04429376_19354.png,1.0,1.6149491,0.9565199,0.46557978
alexnet_w1_mlp_simclrhn_probe3,1,151,NaN,knife,knife,0,0151_lp_dnn_0_knife_10_n03041632_42156.png,n03041632_42156.png,1.0,2.651702,0.5241647,1.5043961
alexnet_w1_mlp_simclrhn_probe3,1,152,NaN,car,car,1,0152_lp_dnn_1_car_10_n04285008_39.png,n04285008_39.png,1.0,8.207516,4.413701,2.6826322
alexnet_w1_mlp_simclrhn_probe3,1,153,NaN,boat,boat,1,0153_lp_dnn_1_boat_10_n03662601_1319.png,n03662601_1319.png,1.0,5.5246334,1.1272079,3.1094496
alexnet_w1_mlp_simclrhn_probe3,1,154,NaN,bottle,truck,7,0154_lp_dnn_7_truck_10_n03796401_4119.png,n03796401_4119.png,0.0,-0.33080974,0.46926984,-0.5657417
alexnet_w1_mlp_simclrhn_probe3,1,155,NaN,bottle,bottle,15,0155_lp_dnn_15_bottle_10_n03937543_2333.png,n03937543_2333.png,1.0,0.37750292,0.19066648,0.13211331
alexnet_w1_mlp_simclrhn_probe3,1,156,NaN,bottle,bottle,3,0156_lp_dnn_3_bottle_10_n04591713_7134.png,n04591713_7134.png,1.0,1.5940418,0.75102776,0.596101
alexnet_w1_mlp_simclrhn_probe3,1,157,NaN,elephant,dog,0,0157_lp_dnn_0_dog_10_n02107312_3673.png,n02107312_3673.png,0.0,3.2362075,3.4792094,-0.17182831
alexnet_w1_mlp_simclrhn_probe3,1,158,NaN,bottle,oven,3,0158_lp_dnn_3_oven_10_n04111531_8373.png,n04111531_8373.png,0.0,0.5729802,0.74487007,-0.12154447
alexnet_w1_mlp_simclrhn_probe3,1,159,NaN,oven,car,3,0159_lp_dnn_3_car_10_n03100240_13707.png,n03100240_13707.png,0.0,0.16012242,1.2269751,-0.7543788
alexnet_w1_mlp_simclrhn_probe3,1,160,NaN,bottle,chair,1,0160_lp_dnn_1_chair_10_n02791124_241.png,n02791124_241.png,0.0,0.7661273,1.8070055,-0.7360121
alexnet_w1_mlp_simclrhn_probe3,1,161,NaN,bottle,airplane,7,0161_lp_dnn_7_airplane_10_n02690373_5628.png,n02690373_5628.png,0.0,-0.33140457,0.6005796,-0.6590124
alexnet_w1_mlp_simclrhn_probe3,1,162,NaN,bottle,boat,40,0162_lp_dnn_40_boat_10_n02951358_1461.png,n02951358_1461.png,0.0,-0.20555358,0.2758832,-0.34042722
alexnet_w1_mlp_simclrhn_probe3,1,163,NaN,bottle,keyboard,7,0163_lp_dnn_7_keyboard_10_n04505470_4501.png,n04505470_4501.png,0.0,0.38325155,0.4252696,-0.029711252
alexnet_w1_mlp_simclrhn_probe3,1,164,NaN,bird,bird,1,0164_lp_dnn_1_bird_10_n02033041_11415.png,n02033041_11415.png,1.0,2.9464052,0.31080967,1.8636476
alexnet_w1_mlp_simclrhn_probe3,1,165,NaN,knife,knife,1,0165_lp_dnn_1_knife_10_n03041632_6446.png,n03041632_6446.png,1.0,1.5108703,1.3861456,0.088193715
alexnet_w1_mlp_simclrhn_probe3,1,166,NaN,bird,bird,0,0166_lp_dnn_0_bird_10_n02011460_3892.png,n02011460_3892.png,1.0,3.1102993,0.42961067,1.8955331
alexnet_w1_mlp_simclrhn_probe3,1,167,NaN,bear,cat,1,0167_lp_dnn_1_cat_10_n02125311_3174.png,n02125311_3174.png,0.0,0.6998429,3.0804737,-1.6833602
alexnet_w1_mlp_simclrhn_probe3,1,168,NaN,bottle,dog,10,0168_lp_dnn_10_dog_10_n02088364_7448.png,n02088364_7448.png,0.0,-0.095257364,0.44088128,-0.3791073
alexnet_w1_mlp_simclrhn_probe3,1,169,NaN,cat,cat,1,0169_lp_dnn_1_cat_10_n02123394_4299.png,n02123394_4299.png,1.0,1.1872923,0.76493686,0.2986504
alexnet_w1_mlp_simclrhn_probe3,1,170,NaN,bottle,keyboard,15,0170_lp_dnn_15_keyboard_10_n03085013_23731.png,n03085013_23731.png,0.0,0.08417313,0.22565474,-0.100042604
alexnet_w1_mlp_simclrhn_probe3,1,171,NaN,bottle,knife,5,0171_lp_dnn_5_knife_10_n03041632_29285.png,n03041632_29285.png,0.0,0.11785036,0.7728724,-0.46317053
alexnet_w1_mlp_simclrhn_probe3,1,172,NaN,keyboard,keyboard,0,0172_lp_dnn_0_keyboard_10_n03085013_12164.png,n03085013_12164.png,1.0,9.39932,1.93573,5.277555
alexnet_w1_mlp_simclrhn_probe3,1,173,NaN,bottle,bird,5,0173_lp_dnn_5_bird_10_n01582220_9023.png,n01582220_9023.png,0.0,-0.047805626,0.900283,-0.6703999
alexnet_w1_mlp_simclrhn_probe3,1,174,NaN,bottle,bottle,3,0174_lp_dnn_3_bottle_10_n03983396_12728.png,n03983396_12728.png,1.0,0.4243553,0.20622496,0.15424144
alexnet_w1_mlp_simclrhn_probe3,1,175,NaN,bottle,dog,7,0175_lp_dnn_7_dog_10_n02111277_50807.png,n02111277_50807.png,0.0,-0.09482785,0.49130577,-0.41445905
alexnet_w1_mlp_simclrhn_probe3,1,176,NaN,knife,boat,5,0176_lp_dnn_5_boat_10_n04273569_2037.png,n04273569_2037.png,0.0,-0.374436,0.45905367,-0.5893662
alexnet_w1_mlp_simclrhn_probe3,1,177,NaN,knife,keyboard,40,0177_lp_dnn_40_keyboard_10_n04505470_4672.png,n04505470_4672.png,0.0,-0.0637165,0.27658448,-0.24062914
alexnet_w1_mlp_simclrhn_probe3,1,178,NaN,bottle,boat,10,0178_lp_dnn_10_boat_10_n03662601_12034.png,n03662601_12034.png,0.0,-0.2715006,0.3311302,-0.42612433
alexnet_w1_mlp_simclrhn_probe3,1,179,NaN,bottle,airplane,15,0179_lp_dnn_15_airplane_10_n02690373_5845.png,n02690373_5845.png,0.0,-0.27733675,0.4344175,-0.50328624
alexnet_w1_mlp_simclrhn_probe3,1,180,NaN,bottle,truck,5,0180_lp_dnn_5_truck_10_n03417042_12128.png,n03417042_12128.png,0.0,-0.36848995,0.7632459,-0.8002581
alexnet_w1_mlp_simclrhn_probe3,1,181,NaN,bottle,keyboard,10,0181_lp_dnn_10_keyboard_10_n03085013_2432.png,n03085013_2432.png,0.0,0.49794415,0.83489114,-0.23825751
alexnet_w1_mlp_simclrhn_probe3,1,182,NaN,bottle,chair,5,0182_lp_dnn_5_chair_10_n03376595_9692.png,n03376595_9692.png,0.0,-0.09628453,0.3731131,-0.33191425
alexnet_w1_mlp_simclrhn_probe3,1,183,NaN,bottle,chair,3,0183_lp_dnn_3_chair_10_n03376595_12583.png,n03376595_12583.png,0.0,-0.20414406,0.41130334,-0.43518704
alexnet_w1_mlp_simclrhn_probe3,1,184,NaN,bird,bear,0,0184_lp_dnn_0_bear_10_n02133161_2135.png,n02133161_2135.png,0.0,0.5468595,1.130485,-0.4126856
alexnet_w1_mlp_simclrhn_probe3,1,185,NaN,bottle,airplane,10,0185_lp_dnn_10_airplane_10_n02690373_5176.png,n02690373_5176.png,0.0,-0.24968448,0.45809278,-0.5004741
alexnet_w1_mlp_simclrhn_probe3,1,186,NaN,elephant,elephant,0,0186_lp_dnn_0_elephant_10_n02504013_10990.png,n02504013_10990.png,1.0,1.0270836,0.8998759,0.08994947
alexnet_w1_mlp_simclrhn_probe3,1,187,NaN,bottle,boat,10,0187_lp_dnn_10_boat_10_n02951358_3155.png,n02951358_3155.png,0.0,-0.27069804,0.36606714,-0.450261
alexnet_w1_mlp_simclrhn_probe3,1,188,NaN,knife,knife,1,0188_lp_dnn_1_knife_10_n03041632_2644.png,n03041632_2644.png,1.0,1.5874504,0.7440994,0.5963392
alexnet_w1_mlp_simclrhn_probe3,1,189,NaN,bottle,airplane,5,0189_lp_dnn_5_airplane_10_n02690373_5184.png,n02690373_5184.png,0.0,-0.4612056,0.9759993,-1.0162573
alexnet_w1_mlp_simclrhn_probe3,1,190,NaN,chair,chair,0,0190_lp_dnn_0_chair_10_n04099969_16161.png,n04099969_16161.png,1.0,1.3632193,0.78101945,0.41167745
alexnet_w1_mlp_simclrhn_probe3,1,191,NaN,bottle,boat,10,0191_lp_dnn_10_boat_10_n03344393_5343.png,n03344393_5343.png,0.0,-0.31766534,0.47570089,-0.5609946
alexnet_w1_mlp_simclrhn_probe3,1,192,NaN,oven,oven,0,0192_lp_dnn_0_oven_10_n04111531_15052.png,n04111531_15052.png,1.0,7.5225234,1.2037774,4.468028
alexnet_w1_mlp_simclrhn_probe3,1,193,NaN,bottle,bicycle,15,0193_lp_dnn_15_bicycle_10_n02835271_317.png,n02835271_317.png,0.0,-0.2225885,0.28781065,-0.36090672
alexnet_w1_mlp_simclrhn_probe3,1,194,NaN,bird,bird,0,0194_lp_dnn_0_bird_10_n02002556_15721.png,n02002556_15721.png,1.0,2.3874035,0.48215255,1.3472159
alexnet_w1_mlp_simclrhn_probe3,1,195,NaN,bottle,chair,5,0195_lp_dnn_5_chair_10_n03376595_11280.png,n03376595_11280.png,0.0,-0.1826936,0.47697616,-0.46645698
alexnet_w1_mlp_simclrhn_probe3,1,196,NaN,bottle,keyboard,3,0196_lp_dnn_3_keyboard_10_n04505470_4621.png,n04505470_4621.png,0.0,0.2571329,0.4351588,-0.12588333
alexnet_w1_mlp_simclrhn_probe3,1,197,NaN,bottle,boat,7,0197_lp_dnn_7_boat_10_n03662601_6042.png,n03662601_6042.png,0.0,-0.34683275,0.5542615,-0.6371699
alexnet_w1_mlp_simclrhn_probe3,1,198,NaN,dog,dog,1,0198_lp_dnn_1_dog_10_n02086646_2810.png,n02086646_2810.png,1.0,1.5674236,1.4880245,0.05614365
alexnet_w1_mlp_simclrhn_probe3,1,199,NaN,bottle,elephant,15,0199_lp_dnn_15_elephant_10_n02504458_7835.png,n02504458_7835.png,0.0,-0.19559786,0.24915083,-0.31448483
alexnet_w1_mlp_simclrhn_probe3,1,200,NaN,bottle,cat,15,0200_lp_dnn_15_cat_10_n02123159_6281.png,n02123159_6281.png,0.0,-0.04154325,0.36380345,-0.2866234
alexnet_w1_mlp_simclrhn_probe3,1,201,NaN,bottle,knife,5,0201_lp_dnn_5_knife_10_n03041632_1661.png,n03041632_1661.png,0.0,0.037471306,0.7869007,-0.5299266
alexnet_w1_mlp_simclrhn_probe3,1,202,NaN,clock,clock,1,0202_lp_dnn_1_clock_10_n02708093_2806.png,n02708093_2806.png,1.0,2.2838519,1.2832415,0.70753837
alexnet_w1_mlp_simclrhn_probe3,1,203,NaN,boat,boat,1,0203_lp_dnn_1_boat_10_n04273569_1201.png,n04273569_1201.png,1.0,5.9954715,2.886559,2.198333
alexnet_w1_mlp_simclrhn_probe3,1,204,NaN,knife,bird,40,0204_lp_dnn_40_bird_10_n01614925_13283.png,n01614925_13283.png,0.0,-0.11107652,0.29423994,-0.28660202
alexnet_w1_mlp_simclrhn_probe3,1,205,NaN,knife,car,40,0205_lp_dnn_40_car_10_n02814533_51701.png,n02814533_51701.png,0.0,-0.292085,0.33152577,-0.4409594
alexnet_w1_mlp_simclrhn_probe3,1,206,NaN,bottle,chair,7,0206_lp_dnn_7_chair_10_n04099969_34325.png,n04099969_34325.png,0.0,-0.16355243,0.3133293,-0.33720633
alexnet_w1_mlp_simclrhn_probe3,1,207,NaN,airplane,truck,0,0207_lp_dnn_0_truck_10_n04467665_71305.png,n04467665_71305.png,0.0,1.5118635,4.004426,-1.7625079
alexnet_w1_mlp_simclrhn_probe3,1,208,NaN,bottle,boat,5,0208_lp_dnn_5_boat_10_n03344393_5916.png,n03344393_5916.png,0.0,-0.26515633,0.5534504,-0.5788424
alexnet_w1_mlp_simclrhn_probe3,1,209,NaN,bottle,car,7,0209_lp_dnn_7_car_10_n02814533_28783.png,n02814533_28783.png,0.0,-0.36792335,0.47188124,-0.59383154
alexnet_w1_mlp_simclrhn_probe3,1,210,NaN,bottle,boat,15,0210_lp_dnn_15_boat_10_n03662601_16825.png,n03662601_16825.png,0.0,-0.3064325,0.38952947,-0.49211943
alexnet_w1_mlp_simclrhn_probe3,1,211,NaN,elephant,dog,0,0211_lp_dnn_0_dog_10_n02100583_10960.png,n02100583_10960.png,0.0,1.0552484,1.8930482,-0.5924139
alexnet_w1_mlp_simclrhn_probe3,1,212,NaN,bottle,elephant,10,0212_lp_dnn_10_elephant_10_n02504458_4587.png,n02504458_4587.png,0.0,-0.2423886,0.27884442,-0.3685674
alexnet_w1_mlp_simclrhn_probe3,1,213,NaN,bottle,bottle,10,0213_lp_dnn_10_bottle_10_n03983396_12670.png,n03983396_12670.png,1.0,0.2882678,0.18561181,0.07258874
alexnet_w1_mlp_simclrhn_probe3,1,214,NaN,oven,bicycle,3,0214_lp_dnn_3_bicycle_10_n02835271_18205.png,n02835271_18205.png,0.0,0.2534893,0.50462353,-0.17757873
alexnet_w1_mlp_simclrhn_probe3,1,215,NaN,knife,truck,40,0215_lp_dnn_40_truck_10_n04467665_67527.png,n04467665_67527.png,0.0,-0.25092724,0.3155997,-0.40059507
alexnet_w1_mlp_simclrhn_probe3,1,216,NaN,bottle,keyboard,10,0216_lp_dnn_10_keyboard_10_n03085013_4374.png,n03085013_4374.png,0.0,0.103351995,0.37875405,-0.19473867
alexnet_w1_mlp_simclrhn_probe3,1,217,NaN,oven,clock,3,0217_lp_dnn_3_clock_10_n03196217_3086.png,n03196217_3086.png,0.0,0.96751523,1.237933,-0.19121426
alexnet_w1_mlp_simclrhn_probe3,1,218,NaN,bottle,clock,15,0218_lp_dnn_15_clock_10_n04548280_254.png,n04548280_254.png,0.0,0.1466292,0.311717,-0.116734706
alexnet_w1_mlp_simclrhn_probe3,1,219,NaN,bottle,bicycle,15,0219_lp_dnn_15_bicycle_10_n02835271_21707.png,n02835271_21707.png,0.0,-0.27951092,0.33502814,-0.4345447
alexnet_w1_mlp_simclrhn_probe3,1,220,NaN,bottle,bird,15,0220_lp_dnn_15_bird_10_n01819313_6340.png,n01819313_6340.png,0.0,-0.016400259,0.24274893,-0.18324615
alexnet_w1_mlp_simclrhn_probe3,1,221,NaN,bottle,bicycle,5,0221_lp_dnn_5_bicycle_10_n02835271_10556.png,n02835271_10556.png,0.0,-0.38256875,0.5761071,-0.6778862
alexnet_w1_mlp_simclrhn_probe3,1,222,NaN,bottle,chair,15,0222_lp_dnn_15_chair_10_n04099969_3312.png,n04099969_3312.png,0.0,-0.1779048,0.27526563,-0.32043988
alexnet_w1_mlp_simclrhn_probe3,1,223,NaN,bottle,car,15,0223_lp_dnn_15_car_10_n04285008_2781.png,n04285008_2781.png,0.0,-0.32591546,0.29918328,-0.44201154
alexnet_w1_mlp_simclrhn_probe3,1,224,NaN,clock,clock,3,0224_lp_dnn_3_clock_10_n04548280_21263.png,n04548280_21263.png,1.0,1.8891945,0.41807464,1.0402389
alexnet_w1_mlp_simclrhn_probe3,1,225,NaN,bottle,car,15,0225_lp_dnn_15_car_10_n02814533_9785.png,n02814533_9785.png,0.0,-0.34597638,0.30745408,-0.46204513
alexnet_w1_mlp_simclrhn_probe3,1,226,NaN,truck,truck,0,0226_lp_dnn_0_truck_10_n03417042_24100.png,n03417042_24100.png,1.0,7.8240366,5.431741,1.6916083
alexnet_w1_mlp_simclrhn_probe3,1,227,NaN,bottle,dog,15,0227_lp_dnn_15_dog_10_n02091244_10926.png,n02091244_10926.png,0.0,-0.08503883,0.34311944,-0.30275363
alexnet_w1_mlp_simclrhn_probe3,1,228,NaN,bottle,bottle,40,0228_lp_dnn_40_bottle_10_n04591713_2537.png,n04591713_2537.png,1.0,0.24292554,0.21964401,0.016462527
alexnet_w1_mlp_simclrhn_probe3,1,229,NaN,bottle,bear,10,0229_lp_dnn_10_bear_10_n02134418_1311.png,n02134418_1311.png,0.0,-0.22427118,0.45626357,-0.48121074
alexnet_w1_mlp_simclrhn_probe3,1,230,NaN,oven,bicycle,3,0230_lp_dnn_3_bicycle_10_n03792782_210.png,n03792782_210.png,0.0,-0.095030576,0.2309642,-0.23051313
alexnet_w1_mlp_simclrhn_probe3,1,231,NaN,cat,cat,3,0231_lp_dnn_3_cat_10_n02123045_5371.png,n02123045_5371.png,1.0,0.5310482,0.40897352,0.08631983
alexnet_w1_mlp_simclrhn_probe3,1,232,NaN,bottle,boat,15,0232_lp_dnn_15_boat_10_n04612504_19111.png,n04612504_19111.png,0.0,-0.26931447,0.4141372,-0.4832733
alexnet_w1_mlp_simclrhn_probe3,1,233,NaN,knife,clock,1,0233_lp_dnn_1_clock_10_n03196217_7836.png,n03196217_7836.png,0.0,1.1804076,1.3907961,-0.14876708
alexnet_w1_mlp_simclrhn_probe3,1,234,NaN,dog,dog,0,0234_lp_dnn_0_dog_10_n02086910_9742.png,n02086910_9742.png,1.0,3.3911192,0.1794815,2.2709708
alexnet_w1_mlp_simclrhn_probe3,1,235,NaN,airplane,bottle,1,0235_lp_dnn_1_bottle_10_n03937543_4723.png,n03937543_4723.png,0.0,0.6655471,0.8085129,-0.10109212
alexnet_w1_mlp_simclrhn_probe3,1,236,NaN,bottle,dog,5,0236_lp_dnn_5_dog_10_n02111129_6495.png,n02111129_6495.png,0.0,-0.16731988,0.8361845,-0.7095848
alexnet_w1_mlp_simclrhn_probe3,1,237,NaN,knife,knife,1,0237_lp_dnn_1_knife_10_n03041632_3101.png,n03041632_3101.png,1.0,1.7841213,1.2731354,0.36132157
alexnet_w1_mlp_simclrhn_probe3,1,238,NaN,cat,bear,0,0238_lp_dnn_0_bear_10_n02134084_7373.png,n02134084_7373.png,0.0,1.5434101,2.003943,-0.32564595
alexnet_w1_mlp_simclrhn_probe3,1,239,NaN,bottle,bird,7,0239_lp_dnn_7_bird_10_n02009229_11916.png,n02009229_11916.png,0.0,-0.016118784,0.1890205,-0.14505538
alexnet_w1_mlp_simclrhn_probe3,1,240,NaN,bottle,oven,7,0240_lp_dnn_7_oven_10_n04111531_14208.png,n04111531_14208.png,0.0,0.19856074,0.5821485,-0.2712375
alexnet_w1_mlp_simclrhn_probe3,1,241,NaN,bottle,bird,3,0241_lp_dnn_3_bird_10_n01601694_20287.png,n01601694_20287.png,0.0,-0.02990304,0.61689246,-0.4573535
alexnet_w1_mlp_simclrhn_probe3,1,242,NaN,bottle,oven,15,0242_lp_dnn_15_oven_10_n04111531_5519.png,n04111531_5519.png,0.0,0.014389034,0.3456642,-0.23424692
alexnet_w1_mlp_simclrhn_probe3,1,243,NaN,car,car,1,0243_lp_dnn_1_car_10_n04285008_10893.png,n04285008_10893.png,1.0,7.0957966,4.08339,2.130093
alexnet_w1_mlp_simclrhn_probe3,1,244,NaN,bottle,boat,40,0244_lp_dnn_40_boat_10_n02951358_16196.png,n02951358_16196.png,0.0,-0.22982702,0.29606146,-0.37185928
alexnet_w1_mlp_simclrhn_probe3,1,245,NaN,bottle,clock,7,0245_lp_dnn_7_clock_10_n04548280_532.png,n04548280_532.png,0.0,0.19684154,0.42295986,-0.1598898
alexnet_w1_mlp_simclrhn_probe3,1,246,NaN,keyboard,keyboard,0,0246_lp_dnn_0_keyboard_10_n04505470_73.png,n04505470_73.png,1.0,15.5535345,1.8229387,9.708998
alexnet_w1_mlp_simclrhn_probe3,1,247,NaN,bottle,bottle,10,0247_lp_dnn_10_bottle_10_n02823428_6766.png,n02823428_6766.png,1.0,0.23555219,0.1275412,0.076375306
alexnet_w1_mlp_simclrhn_probe3,1,248,NaN,bottle,boat,15,0248_lp_dnn_15_boat_10_n02951358_26579.png,n02951358_26579.png,0.0,-0.21910171,0.25377235,-0.33437246
alexnet_w1_mlp_simclrhn_probe3,1,249,NaN,bottle,dog,10,0249_lp_dnn_10_dog_10_n02085782_7651.png,n02085782_7651.png,0.0,-0.08646944,0.39539295,-0.34072816
alexnet_w1_mlp_simclrhn_probe3,1,250,NaN,clock,clock,3,0250_lp_dnn_3_clock_10_n02708093_1747.png,n02708093_1747.png,1.0,1.3497998,1.3479669,0.0012960156
alexnet_w1_mlp_simclrhn_probe3,1,251,NaN,bottle,truck,3,0251_lp_dnn_3_truck_10_n04467665_19645.png,n04467665_19645.png,0.0,-0.23508786,0.70189065,-0.6625439
alexnet_w1_mlp_simclrhn_probe3,1,252,NaN,bottle,airplane,15,0252_lp_dnn_15_airplane_10_n02690373_17262.png,n02690373_17262.png,0.0,-0.20192927,0.39076146,-0.41909564
alexnet_w1_mlp_simclrhn_probe3,1,253,NaN,elephant,elephant,0,0253_lp_dnn_0_elephant_10_n02504458_10428.png,n02504458_10428.png,1.0,4.415807,1.9242558,1.7617925
alexnet_w1_mlp_simclrhn_probe3,1,254,NaN,bottle,cat,7,0254_lp_dnn_7_cat_10_n02124075_9149.png,n02124075_9149.png,0.0,-0.07913136,0.5549971,-0.44839653
alexnet_w1_mlp_simclrhn_probe3,1,255,NaN,bottle,elephant,10,0255_lp_dnn_10_elephant_10_n02504013_7923.png,n02504013_7923.png,0.0,-0.2886021,0.5345082,-0.5820269
alexnet_w1_mlp_simclrhn_probe3,1,256,NaN,bottle,cat,3,0256_lp_dnn_3_cat_10_n02123394_4789.png,n02123394_4789.png,0.0,0.2238997,0.24399687,-0.014210843
alexnet_w1_mlp_simclrhn_probe3,1,257,NaN,bottle,clock,5,0257_lp_dnn_5_clock_10_n03196217_2530.png,n03196217_2530.png,0.0,0.5173187,1.1550071,-0.4509138
alexnet_w1_mlp_simclrhn_probe3,1,258,NaN,bottle,airplane,5,0258_lp_dnn_5_airplane_10_n02690373_6992.png,n02690373_6992.png,0.0,-0.38027272,0.58270633,-0.68092906
alexnet_w1_mlp_simclrhn_probe3,1,259,NaN,keyboard,airplane,3,0259_lp_dnn_3_airplane_10_n02690373_5056.png,n02690373_5056.png,0.0,-0.098946445,0.65143955,-0.53060305
alexnet_w1_mlp_simclrhn_probe3,1,260,NaN,bear,bear,1,0260_lp_dnn_1_bear_10_n02134418_2231.png,n02134418_2231.png,1.0,2.7586696,0.61617225,1.5149744
alexnet_w1_mlp_simclrhn_probe3,1,261,NaN,bottle,truck,10,0261_lp_dnn_10_truck_10_n03796401_180.png,n03796401_180.png,0.0,-0.33814168,0.5850888,-0.65282255
alexnet_w1_mlp_simclrhn_probe3,1,262,NaN,cat,bicycle,3,0262_lp_dnn_3_bicycle_10_n02835271_3246.png,n02835271_3246.png,0.0,-0.050373405,0.15685974,-0.14653596
alexnet_w1_mlp_simclrhn_probe3,1,263,NaN,bottle,truck,3,0263_lp_dnn_3_truck_10_n03796401_599.png,n03796401_599.png,0.0,0.13617985,0.47419763,-0.23901466
alexnet_w1_mlp_simclrhn_probe3,1,264,NaN,bottle,oven,7,0264_lp_dnn_7_oven_10_n04111531_13862.png,n04111531_13862.png,0.0,0.12795553,0.68811464,-0.3960923
alexnet_w1_mlp_simclrhn_probe3,1,265,NaN,chair,oven,0,0265_lp_dnn_0_oven_10_n04111531_10420.png,n04111531_10420.png,0.0,3.1304696,3.437419,-0.217046
alexnet_w1_mlp_simclrhn_probe3,1,266,NaN,bottle,car,10,0266_lp_dnn_10_car_10_n03100240_15531.png,n03100240_15531.png,0.0,-0.333118,0.23671983,-0.4029362
alexnet_w1_mlp_simclrhn_probe3,1,267,NaN,bottle,dog,7,0267_lp_dnn_7_dog_10_n02099849_3128.png,n02099849_3128.png,0.0,-0.10753094,0.5121344,-0.43816957
alexnet_w1_mlp_simclrhn_probe3,1,268,NaN,bottle,chair,5,0268_lp_dnn_5_chair_10_n02791124_3222.png,n02791124_3222.png,0.0,-0.386975,0.8980896,-0.9086779
alexnet_w1_mlp_simclrhn_probe3,1,269,NaN,keyboard,keyboard,5,0269_lp_dnn_5_keyboard_10_n04505470_8364.png,n04505470_8364.png,1.0,0.40623048,0.36433157,0.029627
alexnet_w1_mlp_simclrhn_probe3,1,270,NaN,clock,clock,0,0270_lp_dnn_0_clock_10_n04548280_9294.png,n04548280_9294.png,1.0,2.0532506,1.2750896,0.5502429
alexnet_w1_mlp_simclrhn_probe3,1,271,NaN,bottle,bottle,7,0271_lp_dnn_7_bottle_10_n03937543_3358.png,n03937543_3358.png,1.0,0.5742801,0.23316696,0.2412034
alexnet_w1_mlp_simclrhn_probe3,1,272,NaN,bottle,knife,7,0272_lp_dnn_7_knife_10_n03041632_2058.png,n03041632_2058.png,0.0,0.16983952,0.48912022,-0.22576554
alexnet_w1_mlp_simclrhn_probe3,1,273,NaN,boat,elephant,1,0273_lp_dnn_1_elephant_10_n02504458_5671.png,n02504458_5671.png,0.0,0.18923803,2.300209,-1.4926819
alexnet_w1_mlp_simclrhn_probe3,1,274,NaN,bottle,chair,10,0274_lp_dnn_10_chair_10_n02791124_6281.png,n02791124_6281.png,0.0,-0.19389723,0.4040603,-0.42281985
alexnet_w1_mlp_simclrhn_probe3,1,275,NaN,bottle,cat,15,0275_lp_dnn_15_cat_10_n02125311_44920.png,n02125311_44920.png,0.0,-0.053308617,0.43172535,-0.34297082
alexnet_w1_mlp_simclrhn_probe3,1,276,NaN,bottle,airplane,5,0276_lp_dnn_5_airplane_10_n02690373_2981.png,n02690373_2981.png,0.0,-0.33019865,0.7126975,-0.737439
alexnet_w1_mlp_simclrhn_probe3,1,277,NaN,knife,knife,1,0277_lp_dnn_1_knife_10_n03041632_2468.png,n03041632_2468.png,1.0,0.7994381,0.68502545,0.08090197
alexnet_w1_mlp_simclrhn_probe3,1,278,NaN,oven,clock,1,0278_lp_dnn_1_clock_10_n02708093_3605.png,n02708093_3605.png,0.0,0.9556396,1.8294559,-0.6178814
alexnet_w1_mlp_simclrhn_probe3,1,279,NaN,bicycle,bicycle,1,0279_lp_dnn_1_bicycle_10_n02835271_19019.png,n02835271_19019.png,1.0,8.36846,1.0259326,5.191951
alexnet_w1_mlp_simclrhn_probe3,1,280,NaN,bottle,keyboard,7,0280_lp_dnn_7_keyboard_10_n03085013_1188.png,n03085013_1188.png,0.0,0.18092476,0.3656251,-0.13060288
alexnet_w1_mlp_simclrhn_probe3,1,281,NaN,oven,oven,1,0281_lp_dnn_1_oven_10_n04111531_2715.png,n04111531_2715.png,1.0,0.84126043,0.31338105,0.37326708
alexnet_w1_mlp_simclrhn_probe3,1,282,NaN,bottle,keyboard,10,0282_lp_dnn_10_keyboard_10_n03085013_9533.png,n03085013_9533.png,0.0,0.42744237,0.75167215,-0.22926508
alexnet_w1_mlp_simclrhn_probe3,1,283,NaN,cat,cat,3,0283_lp_dnn_3_cat_10_n02123045_20366.png,n02123045_20366.png,1.0,0.5807454,0.08302992,0.35193798
alexnet_w1_mlp_simclrhn_probe3,1,284,NaN,bottle,chair,5,0284_lp_dnn_5_chair_10_n03376595_302.png,n03376595_302.png,0.0,-0.11917654,0.33654788,-0.32224584
alexnet_w1_mlp_simclrhn_probe3,1,285,NaN,bottle,cat,7,0285_lp_dnn_7_cat_10_n02123597_14267.png,n02123597_14267.png,0.0,-0.18314464,0.53787386,-0.5098371
alexnet_w1_mlp_simclrhn_probe3,1,286,NaN,bottle,dog,15,0286_lp_dnn_15_dog_10_n02098286_2582.png,n02098286_2582.png,0.0,-0.07121533,0.24583271,-0.22418682
alexnet_w1_mlp_simclrhn_probe3,1,287,NaN,boat,boat,1,0287_lp_dnn_1_boat_10_n03344393_4001.png,n03344393_4001.png,1.0,1.3770697,1.1059581,0.19170485
alexnet_w1_mlp_simclrhn_probe3,1,288,NaN,bottle,bicycle,15,0288_lp_dnn_15_bicycle_10_n02835271_6122.png,n02835271_6122.png,0.0,-0.22249503,0.2821488,-0.3568371
alexnet_w1_mlp_simclrhn_probe3,1,289,NaN,bear,dog,3,0289_lp_dnn_3_dog_10_n02091134_3075.png,n02091134_3075.png,0.0,0.33751556,0.37698162,-0.027906714
alexnet_w1_mlp_simclrhn_probe3,1,290,NaN,knife,oven,40,0290_lp_dnn_40_oven_10_n04111531_4795.png,n04111531_4795.png,0.0,-0.038478468,0.32738572,-0.25870505
alexnet_w1_mlp_simclrhn_probe3,1,291,NaN,bottle,bottle,10,0291_lp_dnn_10_bottle_10_n04591713_4876.png,n04591713_4876.png,1.0,0.4441175,0.36466667,0.056180213
alexnet_w1_mlp_simclrhn_probe3,1,292,NaN,clock,bottle,0,0292_lp_dnn_0_bottle_10_n02823428_2510.png,n02823428_2510.png,0.0,3.0314622,4.617446,-1.1214598
alexnet_w1_mlp_simclrhn_probe3,1,293,NaN,chair,keyboard,1,0293_lp_dnn_1_keyboard_10_n03085013_5950.png,n03085013_5950.png,0.0,0.32994303,1.238167,-0.6422114
alexnet_w1_mlp_simclrhn_probe3,1,294,NaN,bottle,bear,5,0294_lp_dnn_5_bear_10_n02133161_1490.png,n02133161_1490.png,0.0,-0.13676822,0.31923753,-0.32244477
alexnet_w1_mlp_simclrhn_probe3,1,295,NaN,bottle,truck,10,0295_lp_dnn_10_truck_10_n03796401_28465.png,n03796401_28465.png,0.0,-0.27868348,0.40381235,-0.48259744
alexnet_w1_mlp_simclrhn_probe3,1,296,NaN,bottle,bottle,15,0296_lp_dnn_15_bottle_10_n02823428_6627.png,n02823428_6627.png,1.0,0.33255672,0.18617326,0.10350874
alexnet_w1_mlp_simclrhn_probe3,1,297,NaN,bottle,truck,5,0297_lp_dnn_5_truck_10_n04467665_69582.png,n04467665_69582.png,0.0,-0.26641226,0.5819526,-0.5998845
alexnet_w1_mlp_simclrhn_probe3,1,298,NaN,bottle,bird,40,0298_lp_dnn_40_bird_10_n02006656_10568.png,n02006656_10568.png,0.0,-0.11336733,0.25252163,-0.25872257
alexnet_w1_mlp_simclrhn_probe3,1,299,NaN,knife,car,40,0299_lp_dnn_40_car_10_n04285008_11748.png,n04285008_11748.png,0.0,-0.31198335,0.3344403,-0.45709056
alexnet_w1_mlp_simclrhn_probe3,1,300,NaN,bottle,truck,5,0300_lp_dnn_5_truck_10_n04467665_44714.png,n04467665_44714.png,0.0,-0.3118955,0.6385919,-0.6720961
alexnet_w1_mlp_simclrhn_probe3,1,301,NaN,airplane,airplane,3,0301_lp_dnn_3_airplane_10_n02690373_7487.png,n02690373_7487.png,1.0,0.8365831,0.47446716,0.25605464
alexnet_w1_mlp_simclrhn_probe3,1,302,NaN,bottle,elephant,15,0302_lp_dnn_15_elephant_10_n02504458_7472.png,n02504458_7472.png,0.0,-0.22082433,0.2888033,-0.36036116
alexnet_w1_mlp_simclrhn_probe3,1,303,NaN,oven,boat,3,0303_lp_dnn_3_boat_10_n03662601_25023.png,n03662601_25023.png,0.0,-0.17345056,0.5346193,-0.500681
alexnet_w1_mlp_simclrhn_probe3,1,304,NaN,bicycle,knife,0,0304_lp_dnn_0_knife_10_n03041632_101673.png,n03041632_101673.png,0.0,0.6386081,3.8565924,-2.2754586
alexnet_w1_mlp_simclrhn_probe3,1,305,NaN,bottle,bottle,7,0305_lp_dnn_7_bottle_10_n03983396_587.png,n03983396_587.png,1.0,0.41622424,0.18971175,0.16016853
alexnet_w1_mlp_simclrhn_probe3,1,306,NaN,oven,cat,3,0306_lp_dnn_3_cat_10_n02124075_7692.png,n02124075_7692.png,0.0,0.10910219,0.7923457,-0.48312613
alexnet_w1_mlp_simclrhn_probe3,1,307,NaN,oven,oven,0,0307_lp_dnn_0_oven_10_n04111531_6313.png,n04111531_6313.png,1.0,4.4289904,0.9572839,2.4548671
alexnet_w1_mlp_simclrhn_probe3,1,308,NaN,bottle,bird,7,0308_lp_dnn_7_bird_10_n02018795_5770.png,n02018795_5770.png,0.0,0.017426256,0.27736577,-0.183805
alexnet_w1_mlp_simclrhn_probe3,1,309,NaN,bottle,bottle,3,0309_lp_dnn_3_bottle_10_n02823428_4658.png,n02823428_4658.png,1.0,2.4837658,0.5846439,1.342882
alexnet_w1_mlp_simclrhn_probe3,1,310,NaN,airplane,airplane,1,0310_lp_dnn_1_airplane_10_n02690373_2724.png,n02690373_2724.png,1.0,5.807293,0.68773645,3.620073
alexnet_w1_mlp_simclrhn_probe3,1,311,NaN,knife,boat,40,0311_lp_dnn_40_boat_10_n04612504_7446.png,n04612504_7446.png,0.0,-0.1833115,0.30794477,-0.34737065
alexnet_w1_mlp_simclrhn_probe3,1,312,NaN,bottle,boat,7,0312_lp_dnn_7_boat_10_n02951358_34783.png,n02951358_34783.png,0.0,-0.24904945,0.32220277,-0.40393633
alexnet_w1_mlp_simclrhn_probe3,1,313,NaN,cat,cat,0,0313_lp_dnn_0_cat_10_n02123597_680.png,n02123597_680.png,1.0,4.244131,1.7672294,1.7514338
alexnet_w1_mlp_simclrhn_probe3,1,314,NaN,bottle,bear,10,0314_lp_dnn_10_bear_10_n02133161_9863.png,n02133161_9863.png,0.0,-0.18490657,0.26154774,-0.31569088
alexnet_w1_mlp_simclrhn_probe3,1,315,NaN,bear,bear,1,0315_lp_dnn_1_bear_10_n02133161_2100.png,n02133161_2100.png,1.0,3.703187,1.1222296,1.8250126
alexnet_w1_mlp_simclrhn_probe3,1,316,NaN,oven,oven,3,0316_lp_dnn_3_oven_10_n04111531_8009.png,n04111531_8009.png,1.0,0.923957,0.7603785,0.11566748
alexnet_w1_mlp_simclrhn_probe3,1,317,NaN,knife,car,40,0317_lp_dnn_40_car_10_n03100240_16525.png,n03100240_16525.png,0.0,-0.28813204,0.25789908,-0.38610232
alexnet_w1_mlp_simclrhn_probe3,1,318,NaN,bottle,bird,5,0318_lp_dnn_5_bird_10_n01824575_4941.png,n01824575_4941.png,0.0,0.039131843,0.18268873,-0.101510055
alexnet_w1_mlp_simclrhn_probe3,1,319,NaN,bottle,knife,15,0319_lp_dnn_15_knife_10_n03041632_289.png,n03041632_289.png,0.0,0.10085426,0.322504,-0.15673004
alexnet_w1_mlp_simclrhn_probe3,1,320,NaN,bottle,dog,10,0320_lp_dnn_10_dog_10_n02101006_15350.png,n02101006_15350.png,0.0,-0.07928789,0.48264435,-0.39734608
alexnet_w1_mlp_simclrhn_probe3,1,321,NaN,bottle,elephant,5,0321_lp_dnn_5_elephant_10_n02504458_1636.png,n02504458_1636.png,0.0,-0.17511982,0.24569859,-0.29756355
alexnet_w1_mlp_simclrhn_probe3,1,322,NaN,bottle,car,7,0322_lp_dnn_7_car_10_n04285008_8666.png,n04285008_8666.png,0.0,-0.37377968,0.34981504,-0.5116587
alexnet_w1_mlp_simclrhn_probe3,1,323,NaN,bottle,bottle,5,0323_lp_dnn_5_bottle_10_n02823428_5451.png,n02823428_5451.png,1.0,0.77285945,0.41751754,0.2512647
alexnet_w1_mlp_simclrhn_probe3,1,324,NaN,oven,car,3,0324_lp_dnn_3_car_10_n03100240_2495.png,n03100240_2495.png,0.0,0.23891468,0.4406258,-0.14263129
alexnet_w1_mlp_simclrhn_probe3,1,325,NaN,bottle,bicycle,10,0325_lp_dnn_10_bicycle_10_n02835271_19565.png,n02835271_19565.png,0.0,-0.27178425,0.34451675,-0.43579063
alexnet_w1_mlp_simclrhn_probe3,1,326,NaN,airplane,airplane,1,0326_lp_dnn_1_airplane_10_n02690373_349.png,n02690373_349.png,1.0,2.7243834,0.7524493,1.3943679
alexnet_w1_mlp_simclrhn_probe3,1,327,NaN,bottle,cat,7,0327_lp_dnn_7_cat_10_n02123045_20512.png,n02123045_20512.png,0.0,-0.083438374,0.44647673,-0.37470657
alexnet_w1_mlp_simclrhn_probe3,1,328,NaN,knife,keyboard,1,0328_lp_dnn_1_keyboard_10_n03085013_23619.png,n03085013_23619.png,0.0,-0.017534643,0.9048699,-0.6522385
alexnet_w1_mlp_simclrhn_probe3,1,329,NaN,bottle,boat,7,0329_lp_dnn_7_boat_10_n03662601_16925.png,n03662601_16925.png,0.0,-0.25924283,0.5540704,-0.57509935
alexnet_w1_mlp_simclrhn_probe3,1,330,NaN,bottle,oven,10,0330_lp_dnn_10_oven_10_n04111531_12830.png,n04111531_12830.png,0.0,0.11179566,0.5786394,-0.33010837
alexnet_w1_mlp_simclrhn_probe3,1,331,NaN,bottle,boat,5,0331_lp_dnn_5_boat_10_n02951358_33277.png,n02951358_33277.png,0.0,-0.26221746,0.41766983,-0.48075292
alexnet_w1_mlp_simclrhn_probe3,1,332,NaN,bottle,bear,15,0332_lp_dnn_15_bear_10_n02133161_156.png,n02133161_156.png,0.0,-0.16288422,0.23514406,-0.2814485
alexnet_w1_mlp_simclrhn_probe3,1,333,NaN,bottle,cat,40,0333_lp_dnn_40_cat_10_n02124075_6638.png,n02124075_6638.png,0.0,-0.0042171697,0.2537743,-0.18242751
alexnet_w1_mlp_simclrhn_probe3,1,334,NaN,bottle,keyboard,10,0334_lp_dnn_10_keyboard_10_n04505470_4587.png,n04505470_4587.png,0.0,0.16407278,0.32692328,-0.115152694
alexnet_w1_mlp_simclrhn_probe3,1,335,NaN,bottle,bear,10,0335_lp_dnn_10_bear_10_n02134084_27899.png,n02134084_27899.png,0.0,-0.19098653,0.46119404,-0.4611613
alexnet_w1_mlp_simclrhn_probe3,1,336,NaN,keyboard,keyboard,0,0336_lp_dnn_0_keyboard_10_n03085013_10984.png,n03085013_10984.png,1.0,8.309013,1.3681141,4.907957
alexnet_w1_mlp_simclrhn_probe3,1,337,NaN,bottle,bottle,5,0337_lp_dnn_5_bottle_10_n03983396_10469.png,n03983396_10469.png,1.0,0.2461211,0.18271583,0.04483429
alexnet_w1_mlp_simclrhn_probe3,1,338,NaN,bottle,knife,10,0338_lp_dnn_10_knife_10_n03041632_20707.png,n03041632_20707.png,0.0,0.09081654,0.28175786,-0.1350159
alexnet_w1_mlp_simclrhn_probe3,1,339,NaN,truck,car,1,0339_lp_dnn_1_car_10_n04285008_9411.png,n04285008_9411.png,0.0,2.7988434,4.1727934,-0.97152936
alexnet_w1_mlp_simclrhn_probe3,1,340,NaN,knife,airplane,40,0340_lp_dnn_40_airplane_10_n02690373_4671.png,n02690373_4671.png,0.0,-0.0037536249,0.28984588,-0.20760621
alexnet_w1_mlp_simclrhn_probe3,1,341,NaN,bottle,knife,7,0341_lp_dnn_7_knife_10_n03041632_16206.png,n03041632_16206.png,0.0,0.14357038,0.39332864,-0.17660576
alexnet_w1_mlp_simclrhn_probe3,1,342,NaN,bottle,bicycle,5,0342_lp_dnn_5_bicycle_10_n03792782_7180.png,n03792782_7180.png,0.0,-0.3275018,0.5428894,-0.61545956
alexnet_w1_mlp_simclrhn_probe3,1,343,NaN,bear,bear,0,0343_lp_dnn_0_bear_10_n02134418_2719.png,n02134418_2719.png,1.0,4.716214,1.9127527,1.9823467
alexnet_w1_mlp_simclrhn_probe3,1,344,NaN,chair,chair,0,0344_lp_dnn_0_chair_10_n04099969_2038.png,n04099969_2038.png,1.0,3.6474016,2.6912122,0.67612803
alexnet_w1_mlp_simclrhn_probe3,1,345,NaN,oven,dog,1,0345_lp_dnn_1_dog_10_n02113023_5237.png,n02113023_5237.png,0.0,0.48076543,2.4084768,-1.3630978
alexnet_w1_mlp_simclrhn_probe3,1,346,NaN,knife,airplane,40,0346_lp_dnn_40_airplane_10_n02690373_2525.png,n02690373_2525.png,0.0,-0.122255296,0.3408254,-0.3274475
alexnet_w1_mlp_simclrhn_probe3,1,347,NaN,bottle,clock,7,0347_lp_dnn_7_clock_10_n04548280_219.png,n04548280_219.png,0.0,0.48291326,0.53301793,-0.03542936
alexnet_w1_mlp_simclrhn_probe3,1,348,NaN,bottle,boat,15,0348_lp_dnn_15_boat_10_n04612504_2805.png,n04612504_2805.png,0.0,-0.30615863,0.40250364,-0.5010999
alexnet_w1_mlp_simclrhn_probe3,1,349,NaN,bottle,clock,7,0349_lp_dnn_7_clock_10_n02708093_7020.png,n02708093_7020.png,0.0,0.27006704,0.75530463,-0.3431148
alexnet_w1_mlp_simclrhn_probe3,1,350,NaN,oven,oven,3,0350_lp_dnn_3_oven_10_n04111531_5171.png,n04111531_5171.png,1.0,0.46378794,0.24454479,0.15502833
alexnet_w1_mlp_simclrhn_probe3,1,351,NaN,oven,cat,3,0351_lp_dnn_3_cat_10_n02125311_37322.png,n02125311_37322.png,0.0,0.03617291,0.30264035,-0.18842095
alexnet_w1_mlp_simclrhn_probe3,1,352,NaN,bottle,cat,7,0352_lp_dnn_7_cat_10_n02123597_14094.png,n02123597_14094.png,0.0,-0.08210405,0.49500006,-0.40807423
alexnet_w1_mlp_simclrhn_probe3,1,353,NaN,bottle,boat,15,0353_lp_dnn_15_boat_10_n02951358_13352.png,n02951358_13352.png,0.0,-0.2387631,0.31362137,-0.39059484
alexnet_w1_mlp_simclrhn_probe3,1,354,NaN,bottle,bicycle,10,0354_lp_dnn_10_bicycle_10_n02835271_20445.png,n02835271_20445.png,0.0,-0.26435706,0.4869059,-0.5312231
alexnet_w1_mlp_simclrhn_probe3,1,355,NaN,bottle,knife,7,0355_lp_dnn_7_knife_10_n03041632_4708.png,n03041632_4708.png,0.0,0.23198096,0.6844106,-0.31991604
alexnet_w1_mlp_simclrhn_probe3,1,356,NaN,bottle,oven,7,0356_lp_dnn_7_oven_10_n04111531_505.png,n04111531_505.png,0.0,0.0614284,0.7229624,-0.46777517
alexnet_w1_mlp_simclrhn_probe3,1,357,NaN,bicycle,bicycle,1,0357_lp_dnn_1_bicycle_10_n03792782_104.png,n03792782_104.png,1.0,4.528263,0.91872025,2.5523322
alexnet_w1_mlp_simclrhn_probe3,1,358,NaN,knife,bottle,40,0358_lp_dnn_40_bottle_10_n04591713_5204.png,n04591713_5204.png,0.0,0.2115313,0.30965045,-0.06938072
alexnet_w1_mlp_simclrhn_probe3,1,359,NaN,bottle,bicycle,5,0359_lp_dnn_5_bicycle_10_n03792782_5578.png,n03792782_5578.png,0.0,-0.31533813,0.39203328,-0.50018716
alexnet_w1_mlp_simclrhn_probe3,1,360,NaN,bottle,truck,10,0360_lp_dnn_10_truck_10_n03417042_1437.png,n03417042_1437.png,0.0,-0.28013158,0.40166932,-0.48210606
alexnet_w1_mlp_simclrhn_probe3,1,361,NaN,oven,cat,0,0361_lp_dnn_0_cat_10_n02123045_7482.png,n02123045_7482.png,0.0,0.9887008,1.7469338,-0.5361517
alexnet_w1_mlp_simclrhn_probe3,1,362,NaN,bottle,bird,10,0362_lp_dnn_10_bird_10_n02037110_554.png,n02037110_554.png,0.0,-0.005079959,0.2252371,-0.16285875
alexnet_w1_mlp_simclrhn_probe3,1,363,NaN,bottle,bicycle,5,0363_lp_dnn_5_bicycle_10_n03792782_15.png,n03792782_15.png,0.0,-0.1991728,0.19647028,-0.27976188
alexnet_w1_mlp_simclrhn_probe3,1,364,NaN,bottle,bicycle,5,0364_lp_dnn_5_bicycle_10_n02835271_7450.png,n02835271_7450.png,0.0,-0.30130306,0.6826507,-0.69576037
alexnet_w1_mlp_simclrhn_probe3,1,365,NaN,bottle,boat,5,0365_lp_dnn_5_boat_10_n03344393_3881.png,n03344393_3881.png,0.0,-0.35642093,0.659128,-0.71810156
alexnet_w1_mlp_simclrhn_probe3,1,366,NaN,bottle,chair,10,0366_lp_dnn_10_chair_10_n04099969_3623.png,n04099969_3623.png,0.0,-0.2185659,0.44698054,-0.4706124
alexnet_w1_mlp_simclrhn_probe3,1,367,NaN,bottle,airplane,5,0367_lp_dnn_5_airplane_10_n02690373_2579.png,n02690373_2579.png,0.0,-0.30692345,0.5490206,-0.60524386
alexnet_w1_mlp_simclrhn_probe3,1,368,NaN,bottle,dog,15,0368_lp_dnn_15_dog_10_n02093859_3707.png,n02093859_3707.png,0.0,-0.088926196,0.36376342,-0.3200999
alexnet_w1_mlp_simclrhn_probe3,1,369,NaN,oven,bottle,1,0369_lp_dnn_1_bottle_10_n04560804_22426.png,n04560804_22426.png,0.0,0.37357023,1.9176358,-1.0918193
alexnet_w1_mlp_simclrhn_probe3,1,370,NaN,bottle,clock,15,0370_lp_dnn_15_clock_10_n03196217_82.png,n03196217_82.png,0.0,0.184062,0.34971777,-0.117136315
alexnet_w1_mlp_simclrhn_probe3,1,371,NaN,bottle,car,5,0371_lp_dnn_5_car_10_n03100240_16907.png,n03100240_16907.png,0.0,-0.32370406,0.47658524,-0.56588995
alexnet_w1_mlp_simclrhn_probe3,1,372,NaN,bottle,oven,5,0372_lp_dnn_5_oven_10_n04111531_9548.png,n04111531_9548.png,0.0,-0.07893771,0.23996,-0.22549474
alexnet_w1_mlp_simclrhn_probe3,1,373,NaN,bottle,clock,7,0373_lp_dnn_7_clock_10_n02708093_3751.png,n02708093_3751.png,0.0,0.111714266,0.27351785,-0.114412405
alexnet_w1_mlp_simclrhn_probe3,1,374,NaN,bottle,car,7,0374_lp_dnn_7_car_10_n02814533_6593.png,n02814533_6593.png,0.0,-0.3956406,0.5440838,-0.6644855
alexnet_w1_mlp_simclrhn_probe3,1,375,NaN,airplane,airplane,0,0375_lp_dnn_0_airplane_10_n02690373_3212.png,n02690373_3212.png,1.0,8.4233885,1.4465051,4.9334016
alexnet_w1_mlp_simclrhn_probe3,1,376,NaN,cat,cat,1,0376_lp_dnn_1_cat_10_n02123045_5820.png,n02123045_5820.png,1.0,1.4343185,0.7277355,0.49962965
alexnet_w1_mlp_simclrhn_probe3,1,377,NaN,bottle,elephant,3,0377_lp_dnn_3_elephant_10_n02504458_205.png,n02504458_205.png,0.0,0.010119975,1.1044986,-0.77384263
alexnet_w1_mlp_simclrhn_probe3,1,378,NaN,bottle,elephant,10,0378_lp_dnn_10_elephant_10_n02504013_3425.png,n02504013_3425.png,0.0,-0.22340477,0.34799212,-0.4040386
alexnet_w1_mlp_simclrhn_probe3,1,379,NaN,bottle,bird,15,0379_lp_dnn_15_bird_10_n02056570_9572.png,n02056570_9572.png,0.0,-0.008519525,0.29641566,-0.21562174
alexnet_w1_mlp_simclrhn_probe3,1,380,NaN,clock,elephant,40,0380_lp_dnn_40_elephant_10_n02504013_7635.png,n02504013_7635.png,0.0,-0.20807834,0.2877232,-0.35058466
alexnet_w1_mlp_simclrhn_probe3,1,381,NaN,bottle,boat,10,0381_lp_dnn_10_boat_10_n04273569_10716.png,n04273569_10716.png,0.0,-0.30213517,0.49961752,-0.56692475
alexnet_w1_mlp_simclrhn_probe3,1,382,NaN,bottle,bear,15,0382_lp_dnn_15_bear_10_n02134084_19849.png,n02134084_19849.png,0.0,-0.18408544,0.31990966,-0.35637838
alexnet_w1_mlp_simclrhn_probe3,1,383,NaN,knife,boat,40,0383_lp_dnn_40_boat_10_n03662601_35800.png,n03662601_35800.png,0.0,-0.19167309,0.29672188,-0.3453474
alexnet_w1_mlp_simclrhn_probe3,1,384,NaN,knife,bicycle,40,0384_lp_dnn_40_bicycle_10_n03792782_29276.png,n03792782_29276.png,0.0,-0.21330911,0.34009454,-0.39131546
alexnet_w1_mlp_simclrhn_probe3,1,385,NaN,bottle,oven,10,0385_lp_dnn_10_oven_10_n04111531_4392.png,n04111531_4392.png,0.0,0.019273996,0.24022885,-0.15623868
alexnet_w1_mlp_simclrhn_probe3,1,386,NaN,airplane,airplane,0,0386_lp_dnn_0_airplane_10_n02690373_7099.png,n02690373_7099.png,1.0,11.347476,2.6291752,6.1647696
alexnet_w1_mlp_simclrhn_probe3,1,387,NaN,bottle,cat,5,0387_lp_dnn_5_cat_10_n02124075_13187.png,n02124075_13187.png,0.0,-0.07435734,0.34571514,-0.29703608
alexnet_w1_mlp_simclrhn_probe3,1,388,NaN,knife,knife,0,0388_lp_dnn_0_knife_10_n03041632_32048.png,n03041632_32048.png,1.0,1.5363429,1.4761168,0.04258627
alexnet_w1_mlp_simclrhn_probe3,1,389,NaN,knife,airplane,3,0389_lp_dnn_3_airplane_10_n02690373_20074.png,n02690373_20074.png,0.0,0.23148541,0.47856256,-0.17470993
alexnet_w1_mlp_simclrhn_probe3,1,390,NaN,truck,car,1,0390_lp_dnn_1_car_10_n02814533_83577.png,n02814533_83577.png,0.0,4.593594,5.633212,-0.73512095
alexnet_w1_mlp_simclrhn_probe3,1,391,NaN,knife,airplane,40,0391_lp_dnn_40_airplane_10_n02690373_19134.png,n02690373_19134.png,0.0,-0.1969222,0.25548294,-0.31989875
alexnet_w1_mlp_simclrhn_probe3,1,392,NaN,knife,knife,3,0392_lp_dnn_3_knife_10_n03041632_13130.png,n03041632_13130.png,1.0,0.34746376,0.29400894,0.037798263
alexnet_w1_mlp_simclrhn_probe3,1,393,NaN,knife,knife,0,0393_lp_dnn_0_knife_10_n03041632_1006.png,n03041632_1006.png,1.0,1.7493494,1.1057484,0.4550946
alexnet_w1_mlp_simclrhn_probe3,1,394,NaN,elephant,elephant,1,0394_lp_dnn_1_elephant_10_n02504458_7634.png,n02504458_7634.png,1.0,7.8313484,2.8547778,3.518967
alexnet_w1_mlp_simclrhn_probe3,1,395,NaN,bicycle,bicycle,1,0395_lp_dnn_1_bicycle_10_n02835271_17184.png,n02835271_17184.png,1.0,9.304124,1.4031267,5.5868487
alexnet_w1_mlp_simclrhn_probe3,1,396,NaN,chair,oven,0,0396_lp_dnn_0_oven_10_n04111531_2189.png,n04111531_2189.png,0.0,1.5285099,1.605408,-0.054375168
alexnet_w1_mlp_simclrhn_probe3,1,397,NaN,bottle,cat,15,0397_lp_dnn_15_cat_10_n02124075_11888.png,n02124075_11888.png,0.0,-0.026626745,0.32912016,-0.25155103
alexnet_w1_mlp_simclrhn_probe3,1,398,NaN,bottle,cat,10,0398_lp_dnn_10_cat_10_n02123394_1690.png,n02123394_1690.png,0.0,-0.10288751,0.23963511,-0.24220008
alexnet_w1_mlp_simclrhn_probe3,1,399,NaN,dog,dog,1,0399_lp_dnn_1_dog_10_n02111500_2905.png,n02111500_2905.png,1.0,1.620836,0.28670865,0.9433706
alexnet_w1_mlp_simclrhn_probe3,1,400,NaN,bottle,knife,5,0400_lp_dnn_5_knife_10_n03041632_20433.png,n03041632_20433.png,0.0,0.04116585,0.45500585,-0.29262906
alexnet_w1_mlp_simclrhn_probe3,1,401,NaN,bottle,clock,15,0401_lp_dnn_15_clock_10_n04548280_22641.png,n04548280_22641.png,0.0,0.14848654,0.23221244,-0.05920315
alexnet_w1_mlp_simclrhn_probe3,1,402,NaN,bottle,bottle,15,0402_lp_dnn_15_bottle_10_n04557648_634.png,n04557648_634.png,1.0,0.2796299,0.16430496,0.081547044
alexnet_w1_mlp_simclrhn_probe3,1,403,NaN,truck,truck,1,0403_lp_dnn_1_truck_10_n04467665_69447.png,n04467665_69447.png,1.0,3.8089824,2.6121643,0.8462782
alexnet_w1_mlp_simclrhn_probe3,1,404,NaN,oven,elephant,3,0404_lp_dnn_3_elephant_10_n02504013_1777.png,n02504013_1777.png,0.0,0.051346462,0.35328147,-0.2135003
alexnet_w1_mlp_simclrhn_probe3,1,405,NaN,truck,truck,0,0405_lp_dnn_0_truck_10_n03796401_2559.png,n03796401_2559.png,1.0,6.105812,3.0295362,2.1752555
alexnet_w1_mlp_simclrhn_probe3,1,406,NaN,car,car,1,0406_lp_dnn_1_car_10_n02814533_42547.png,n02814533_42547.png,1.0,7.5775533,5.904229,1.1832188
alexnet_w1_mlp_simclrhn_probe3,1,407,NaN,bottle,clock,15,0407_lp_dnn_15_clock_10_n04548280_7181.png,n04548280_7181.png,0.0,0.17212199,0.29995266,-0.09038994
alexnet_w1_mlp_simclrhn_probe3,1,408,NaN,airplane,boat,1,0408_lp_dnn_1_boat_10_n03344393_5030.png,n03344393_5030.png,0.0,3.193027,3.9419246,-0.52955055
alexnet_w1_mlp_simclrhn_probe3,1,409,NaN,bottle,bottle,15,0409_lp_dnn_15_bottle_10_n04591713_2952.png,n04591713_2952.png,1.0,0.25010198,0.12825274,0.08616042
alexnet_w1_mlp_simclrhn_probe3,1,410,NaN,bottle,keyboard,5,0410_lp_dnn_5_keyboard_10_n04505470_4742.png,n04505470_4742.png,0.0,0.21393865,0.42388353,-0.14845344
alexnet_w1_mlp_simclrhn_probe3,1,411,NaN,bottle,bear,7,0411_lp_dnn_7_bear_10_n02134418_4696.png,n02134418_4696.png,0.0,-0.19279401,0.33364096,-0.37224573
alexnet_w1_mlp_simclrhn_probe3,1,412,NaN,bottle,bear,40,0412_lp_dnn_40_bear_10_n02132136_5815.png,n02132136_5815.png,0.0,-0.11840818,0.2934719,-0.2912432
alexnet_w1_mlp_simclrhn_probe3,1,413,NaN,bottle,bicycle,15,0413_lp_dnn_15_bicycle_10_n02835271_8203.png,n02835271_8203.png,0.0,-0.25214714,0.2920608,-0.38481313
alexnet_w1_mlp_simclrhn_probe3,1,414,NaN,knife,car,40,0414_lp_dnn_40_car_10_n04285008_12868.png,n04285008_12868.png,0.0,-0.32177112,0.36670467,-0.4868259
alexnet_w1_mlp_simclrhn_probe3,1,415,NaN,bottle,bear,40,0415_lp_dnn_40_bear_10_n02132136_7074.png,n02132136_7074.png,0.0,-0.15231898,0.2573233,-0.28966084
alexnet_w1_mlp_simclrhn_probe3,1,416,NaN,oven,boat,3,0416_lp_dnn_3_boat_10_n03344393_8265.png,n03344393_8265.png,0.0,0.06327893,0.6968539,-0.44800517
alexnet_w1_mlp_simclrhn_probe3,1,417,NaN,bottle,truck,10,0417_lp_dnn_10_truck_10_n04467665_12177.png,n04467665_12177.png,0.0,-0.288645,0.38620064,-0.47718793
alexnet_w1_mlp_simclrhn_probe3,1,418,NaN,car,car,3,0418_lp_dnn_3_car_10_n03100240_8987.png,n03100240_8987.png,1.0,1.1832262,0.72881085,0.3213202
alexnet_w1_mlp_simclrhn_probe3,1,419,NaN,bottle,bird,15,0419_lp_dnn_15_bird_10_n01530575_10601.png,n01530575_10601.png,0.0,-0.034305025,0.28268608,-0.22414657
alexnet_w1_mlp_simclrhn_probe3,1,420,NaN,bottle,keyboard,15,0420_lp_dnn_15_keyboard_10_n04505470_313.png,n04505470_313.png,0.0,0.23068517,0.42787108,-0.13943149
alexnet_w1_mlp_simclrhn_probe3,1,421,NaN,keyboard,truck,1,0421_lp_dnn_1_truck_10_n03417042_5371.png,n03417042_5371.png,0.0,0.553331,0.8550704,-0.21336198
alexnet_w1_mlp_simclrhn_probe3,1,422,NaN,truck,truck,0,0422_lp_dnn_0_truck_10_n03796401_29952.png,n03796401_29952.png,1.0,5.649851,0.8900666,3.3656757
alexnet_w1_mlp_simclrhn_probe3,1,423,NaN,bottle,bicycle,5,0423_lp_dnn_5_bicycle_10_n03792782_6159.png,n03792782_6159.png,0.0,-0.14165421,0.47935098,-0.43911698
alexnet_w1_mlp_simclrhn_probe3,1,424,NaN,bottle,elephant,7,0424_lp_dnn_7_elephant_10_n02504458_1336.png,n02504458_1336.png,0.0,-0.21630104,0.24167082,-0.32383502
alexnet_w1_mlp_simclrhn_probe3,1,425,NaN,bottle,bicycle,10,0425_lp_dnn_10_bicycle_10_n02835271_8597.png,n02835271_8597.png,0.0,-0.2803894,0.21033242,-0.34699273
alexnet_w1_mlp_simclrhn_probe3,1,426,NaN,keyboard,keyboard,3,0426_lp_dnn_3_keyboard_10_n04505470_3615.png,n04505470_3615.png,1.0,1.3736238,0.6279131,0.52729714
alexnet_w1_mlp_simclrhn_probe3,1,427,NaN,bottle,dog,7,0427_lp_dnn_7_dog_10_n02090721_7040.png,n02090721_7040.png,0.0,-0.06949181,0.31909457,-0.27477208
alexnet_w1_mlp_simclrhn_probe3,1,428,NaN,cat,cat,0,0428_lp_dnn_0_cat_10_n02124075_17347.png,n02124075_17347.png,1.0,6.639616,1.821327,3.4070446
alexnet_w1_mlp_simclrhn_probe3,1,429,NaN,chair,keyboard,0,0429_lp_dnn_0_keyboard_10_n03085013_23018.png,n03085013_23018.png,0.0,1.4500017,2.2592185,-0.5722026
alexnet_w1_mlp_simclrhn_probe3,1,430,NaN,bottle,car,40,0430_lp_dnn_40_car_10_n03100240_5018.png,n03100240_5018.png,0.0,-0.29988882,0.24558903,-0.3857111
alexnet_w1_mlp_simclrhn_probe3,1,431,NaN,bottle,dog,40,0431_lp_dnn_40_dog_10_n02105056_12631.png,n02105056_12631.png,0.0,-0.08256567,0.24048865,-0.2284339
alexnet_w1_mlp_simclrhn_probe3,1,432,NaN,bottle,knife,15,0432_lp_dnn_15_knife_10_n03041632_27848.png,n03041632_27848.png,0.0,0.11288242,0.58176386,-0.33154926
alexnet_w1_mlp_simclrhn_probe3,1,433,NaN,keyboard,keyboard,3,0433_lp_dnn_3_keyboard_10_n04505470_4432.png,n04505470_4432.png,1.0,1.9595919,0.757816,0.84978384
alexnet_w1_mlp_simclrhn_probe3,1,434,NaN,bottle,bear,15,0434_lp_dnn_15_bear_10_n02132136_786.png,n02132136_786.png,0.0,-0.15347145,0.3547153,-0.3593423
alexnet_w1_mlp_simclrhn_probe3,1,435,NaN,bottle,truck,15,0435_lp_dnn_15_truck_10_n03796401_10519.png,n03796401_10519.png,0.0,-0.26718438,0.33518863,-0.42594203
alexnet_w1_mlp_simclrhn_probe3,1,436,NaN,bottle,airplane,5,0436_lp_dnn_5_airplane_10_n02690373_9086.png,n02690373_9086.png,0.0,-0.13870849,0.5161233,-0.463036
alexnet_w1_mlp_simclrhn_probe3,1,437,NaN,bicycle,boat,0,0437_lp_dnn_0_boat_10_n02951358_512.png,n02951358_512.png,0.0,0.9875394,4.034343,-2.1544154
alexnet_w1_mlp_simclrhn_probe3,1,438,NaN,bottle,bear,10,0438_lp_dnn_10_bear_10_n02132136_10468.png,n02132136_10468.png,0.0,-0.21638307,0.4605926,-0.47869408
alexnet_w1_mlp_simclrhn_probe3,1,439,NaN,bottle,bear,5,0439_lp_dnn_5_bear_10_n02134084_13175.png,n02134084_13175.png,0.0,-0.25344092,0.51405746,-0.54270333
alexnet_w1_mlp_simclrhn_probe3,1,440,NaN,bottle,dog,10,0440_lp_dnn_10_dog_10_n02088364_2119.png,n02088364_2119.png,0.0,-0.08223311,0.29344013,-0.2656411
alexnet_w1_mlp_simclrhn_probe3,1,441,NaN,boat,boat,1,0441_lp_dnn_1_boat_10_n04612504_26238.png,n04612504_26238.png,1.0,7.2591414,1.4824985,4.0847034
alexnet_w1_mlp_simclrhn_probe3,1,442,NaN,oven,bear,3,0442_lp_dnn_3_bear_10_n02134084_20142.png,n02134084_20142.png,0.0,0.16831002,0.40095803,-0.16450699
alexnet_w1_mlp_simclrhn_probe3,1,443,NaN,bottle,dog,5,0443_lp_dnn_5_dog_10_n02107683_1076.png,n02107683_1076.png,0.0,-0.0802943,0.4836297,-0.3987545
alexnet_w1_mlp_simclrhn_probe3,1,444,NaN,bottle,car,3,0444_lp_dnn_3_car_10_n02814533_35386.png,n02814533_35386.png,0.0,0.23979916,0.40752727,-0.11860169
alexnet_w1_mlp_simclrhn_probe3,1,445,NaN,bottle,bird,3,0445_lp_dnn_3_bird_10_n01531178_15380.png,n01531178_15380.png,0.0,0.13660501,0.3813613,-0.17306884
alexnet_w1_mlp_simclrhn_probe3,1,446,NaN,bottle,bear,7,0446_lp_dnn_7_bear_10_n02134084_17529.png,n02134084_17529.png,0.0,-0.27618128,0.5411811,-0.57796246
alexnet_w1_mlp_simclrhn_probe3,1,447,NaN,bottle,bicycle,10,0447_lp_dnn_10_bicycle_10_n02835271_22623.png,n02835271_22623.png,0.0,-0.2368407,0.26887652,-0.35759607
alexnet_w1_mlp_simclrhn_probe3,1,448,NaN,bottle,chair,15,0448_lp_dnn_15_chair_10_n02791124_3160.png,n02791124_3160.png,0.0,-0.17791566,0.24759842,-0.30088392
alexnet_w1_mlp_simclrhn_probe3,1,449,NaN,bottle,bottle,0,0449_lp_dnn_0_bottle_10_n02823428_2422.png,n02823428_2422.png,1.0,8.394123,1.6835518,4.7450905
alexnet_w1_mlp_simclrhn_probe3,1,450,NaN,bottle,bear,7,0450_lp_dnn_7_bear_10_n02134084_34902.png,n02134084_34902.png,0.0,-0.17791225,0.34378764,-0.36889756
alexnet_w1_mlp_simclrhn_probe3,1,451,NaN,bottle,bicycle,15,0451_lp_dnn_15_bicycle_10_n02835271_3535.png,n02835271_3535.png,0.0,-0.22888383,0.36383384,-0.41911468
alexnet_w1_mlp_simclrhn_probe3,1,452,NaN,oven,oven,1,0452_lp_dnn_1_oven_10_n04111531_10640.png,n04111531_10640.png,1.0,4.459248,1.0328139,2.422855
alexnet_w1_mlp_simclrhn_probe3,1,453,NaN,clock,keyboard,40,0453_lp_dnn_40_keyboard_10_n04505470_1338.png,n04505470_1338.png,0.0,-0.025543436,0.22569704,-0.17765386
alexnet_w1_mlp_simclrhn_probe3,1,454,NaN,chair,keyboard,0,0454_lp_dnn_0_keyboard_10_n03085013_26656.png,n03085013_26656.png,0.0,3.9840162,4.425476,-0.3121593
alexnet_w1_mlp_simclrhn_probe3,1,455,NaN,bottle,boat,5,0455_lp_dnn_5_boat_10_n03344393_9575.png,n03344393_9575.png,0.0,-0.3644251,0.7554897,-0.7918993
alexnet_w1_mlp_simclrhn_probe3,1,456,NaN,boat,boat,1,0456_lp_dnn_1_boat_10_n03344393_4616.png,n03344393_4616.png,1.0,3.690902,1.413636,1.6102703
alexnet_w1_mlp_simclrhn_probe3,1,457,NaN,bicycle,bicycle,0,0457_lp_dnn_0_bicycle_10_n02835271_11929.png,n02835271_11929.png,1.0,6.0212145,2.2706625,2.6520407
alexnet_w1_mlp_simclrhn_probe3,1,458,NaN,keyboard,keyboard,3,0458_lp_dnn_3_keyboard_10_n03085013_20515.png,n03085013_20515.png,1.0,2.2582788,0.48127964,1.2565283
alexnet_w1_mlp_simclrhn_probe3,1,459,NaN,bottle,dog,40,0459_lp_dnn_40_dog_10_n02088364_3791.png,n02088364_3791.png,0.0,-0.082101956,0.24871811,-0.23392513
alexnet_w1_mlp_simclrhn_probe3,1,460,NaN,airplane,airplane,0,0460_lp_dnn_0_airplane_10_n02690373_10114.png,n02690373_10114.png,1.0,10.233101,5.1103616,3.6223238
alexnet_w1_mlp_simclrhn_probe3,1,461,NaN,bottle,airplane,10,0461_lp_dnn_10_airplane_10_n02690373_8543.png,n02690373_8543.png,0.0,-0.29314193,0.5502152,-0.5963435
alexnet_w1_mlp_simclrhn_probe3,1,462,NaN,bottle,chair,7,0462_lp_dnn_7_chair_10_n04429376_14967.png,n04429376_14967.png,0.0,-0.28181562,0.77264833,-0.74561864
alexnet_w1_mlp_simclrhn_probe3,1,463,NaN,bottle,cat,15,0463_lp_dnn_15_cat_10_n02125311_24439.png,n02125311_24439.png,0.0,-0.027624076,0.33828646,-0.25873783
alexnet_w1_mlp_simclrhn_probe3,1,464,NaN,bottle,truck,5,0464_lp_dnn_5_truck_10_n03417042_4665.png,n03417042_4665.png,0.0,-0.3570888,0.8087185,-0.82435024
alexnet_w1_mlp_simclrhn_probe3,1,465,NaN,knife,elephant,40,0465_lp_dnn_40_elephant_10_n02504013_4044.png,n02504013_4044.png,0.0,-0.18087491,0.30685088,-0.34487423
alexnet_w1_mlp_simclrhn_probe3,1,466,NaN,bird,bird,1,0466_lp_dnn_1_bird_10_n01843065_3596.png,n01843065_3596.png,1.0,2.6118617,0.11806115,1.7633834
alexnet_w1_mlp_simclrhn_probe3,1,467,NaN,bottle,bird,10,0467_lp_dnn_10_bird_10_n02011460_17499.png,n02011460_17499.png,0.0,0.03530702,0.24084044,-0.14533408
alexnet_w1_mlp_simclrhn_probe3,1,468,NaN,elephant,elephant,0,0468_lp_dnn_0_elephant_10_n02504458_7506.png,n02504458_7506.png,1.0,3.9306622,1.3361976,1.8345635
alexnet_w1_mlp_simclrhn_probe3,1,469,NaN,knife,keyboard,40,0469_lp_dnn_40_keyboard_10_n03085013_21955.png,n03085013_21955.png,0.0,-0.1057674,0.37346518,-0.33886862
alexnet_w1_mlp_simclrhn_probe3,1,470,NaN,bottle,clock,40,0470_lp_dnn_40_clock_10_n02708093_7810.png,n02708093_7810.png,0.0,0.21072765,0.26186734,-0.03616123
alexnet_w1_mlp_simclrhn_probe3,1,471,NaN,knife,car,40,0471_lp_dnn_40_car_10_n02814533_7984.png,n02814533_7984.png,0.0,-0.30733037,0.2670596,-0.40615502
alexnet_w1_mlp_simclrhn_probe3,1,472,NaN,bottle,dog,5,0472_lp_dnn_5_dog_10_n02106382_1806.png,n02106382_1806.png,0.0,-0.12263027,0.5306492,-0.46193832
alexnet_w1_mlp_simclrhn_probe3,1,473,NaN,bottle,chair,15,0473_lp_dnn_15_chair_10_n02791124_3890.png,n02791124_3890.png,0.0,-0.19304602,0.3187254,-0.36187705
alexnet_w1_mlp_simclrhn_probe3,1,474,NaN,bottle,elephant,7,0474_lp_dnn_7_elephant_10_n02504013_16929.png,n02504013_16929.png,0.0,-0.27203372,0.40553004,-0.47910994
alexnet_w1_mlp_simclrhn_probe3,1,475,NaN,bottle,elephant,7,0475_lp_dnn_7_elephant_10_n02504013_8052.png,n02504013_8052.png,0.0,-0.29227495,0.28348807,-0.40712592
alexnet_w1_mlp_simclrhn_probe3,1,476,NaN,bear,bear,1,0476_lp_dnn_1_bear_10_n02132136_1584.png,n02132136_1584.png,1.0,3.554912,3.090128,0.32865202
alexnet_w1_mlp_simclrhn_probe3,1,477,NaN,keyboard,keyboard,1,0477_lp_dnn_1_keyboard_10_n04505470_532.png,n04505470_532.png,1.0,5.7178087,1.9368913,2.6735125
alexnet_w1_mlp_simclrhn_probe3,1,478,NaN,airplane,airplane,1,0478_lp_dnn_1_airplane_10_n02690373_3988.png,n02690373_3988.png,1.0,7.1841373,2.543025,3.2817621
alexnet_w1_mlp_simclrhn_probe3,1,479,NaN,bottle,bicycle,15,0479_lp_dnn_15_bicycle_10_n03792782_13051.png,n03792782_13051.png,0.0,-0.28568462,0.23863988,-0.3707534
alexnet_w1_mlp_simclrhn_probe3,1,480,NaN,bottle,bear,3,0480_lp_dnn_3_bear_10_n02134084_4818.png,n02134084_4818.png,0.0,-0.049128044,0.35842708,-0.288185
alexnet_w1_mlp_simclrhn_probe3,1,481,NaN,bottle,boat,10,0481_lp_dnn_10_boat_10_n02951358_9146.png,n02951358_9146.png,0.0,-0.2638008,0.31705946,-0.41073024
alexnet_w1_mlp_simclrhn_probe3,1,482,NaN,bottle,keyboard,40,0482_lp_dnn_40_keyboard_10_n03085013_19317.png,n03085013_19317.png,0.0,-0.011532657,0.25338158,-0.18732266
alexnet_w1_mlp_simclrhn_probe3,1,483,NaN,knife,bicycle,40,0483_lp_dnn_40_bicycle_10_n03792782_17666.png,n03792782_17666.png,0.0,-0.2023465,0.31697902,-0.36721858
alexnet_w1_mlp_simclrhn_probe3,1,484,NaN,knife,bear,40,0484_lp_dnn_40_bear_10_n02133161_20090.png,n02133161_20090.png,0.0,-0.13505223,0.2769902,-0.291358
alexnet_w1_mlp_simclrhn_probe3,1,485,NaN,oven,bottle,3,0485_lp_dnn_3_bottle_10_n03937543_11101.png,n03937543_11101.png,0.0,0.127311,0.4504035,-0.22846092
alexnet_w1_mlp_simclrhn_probe3,1,486,NaN,bottle,bear,7,0486_lp_dnn_7_bear_10_n02133161_2281.png,n02133161_2281.png,0.0,-0.19905835,0.53096837,-0.51620686
alexnet_w1_mlp_simclrhn_probe3,1,487,NaN,bottle,airplane,10,0487_lp_dnn_10_airplane_10_n02690373_8813.png,n02690373_8813.png,0.0,-0.2522992,0.5276719,-0.55152285
alexnet_w1_mlp_simclrhn_probe3,1,488,NaN,knife,boat,40,0488_lp_dnn_40_boat_10_n03662601_33625.png,n03662601_33625.png,0.0,-0.16544273,0.3624019,-0.37324256
alexnet_w1_mlp_simclrhn_probe3,1,489,NaN,knife,cat,40,0489_lp_dnn_40_cat_10_n02124075_9066.png,n02124075_9066.png,0.0,-0.0010858335,0.27538058,-0.19549128
alexnet_w1_mlp_simclrhn_probe3,1,490,NaN,oven,oven,3,0490_lp_dnn_3_oven_10_n04111531_10216.png,n04111531_10216.png,1.0,0.6412319,0.50942385,0.09320236
alexnet_w1_mlp_simclrhn_probe3,1,491,NaN,bottle,bird,7,0491_lp_dnn_7_bird_10_n01614925_1097.png,n01614925_1097.png,0.0,0.016916651,0.22682095,-0.14842476
alexnet_w1_mlp_simclrhn_probe3,1,492,NaN,bear,bird,0,0492_lp_dnn_0_bird_10_n02017213_1163.png,n02017213_1163.png,0.0,3.0754964,3.4153512,-0.24031357
alexnet_w1_mlp_simclrhn_probe3,1,493,NaN,knife,oven,40,0493_lp_dnn_40_oven_10_n04111531_283.png,n04111531_283.png,0.0,-0.042222545,0.2887522,-0.2340345
alexnet_w1_mlp_simclrhn_probe3,1,494,NaN,bottle,truck,15,0494_lp_dnn_15_truck_10_n04467665_39317.png,n04467665_39317.png,0.0,-0.27302644,0.32560244,-0.42329454
alexnet_w1_mlp_simclrhn_probe3,1,495,NaN,dog,dog,1,0495_lp_dnn_1_dog_10_n02093754_5037.png,n02093754_5037.png,1.0,0.92252356,0.6317572,0.20560287
alexnet_w1_mlp_simclrhn_probe3,1,496,NaN,knife,bicycle,40,0496_lp_dnn_40_bicycle_10_n02835271_2580.png,n02835271_2580.png,0.0,-0.18181044,0.27975085,-0.32637313
alexnet_w1_mlp_simclrhn_probe3,1,497,NaN,bottle,airplane,7,0497_lp_dnn_7_airplane_10_n02690373_2564.png,n02690373_2564.png,0.0,-0.32620683,0.44367972,-0.544392
alexnet_w1_mlp_simclrhn_probe3,1,498,NaN,bottle,truck,40,0498_lp_dnn_40_truck_10_n04467665_62626.png,n04467665_62626.png,0.0,-0.24728575,0.26533377,-0.36247674
alexnet_w1_mlp_simclrhn_probe3,1,499,NaN,bottle,chair,10,0499_lp_dnn_10_chair_10_n04429376_2450.png,n04429376_2450.png,0.0,-0.17879389,0.36508957,-0.38458368
alexnet_w1_mlp_simclrhn_probe3,1,500,NaN,keyboard,keyboard,0,0500_lp_dnn_0_keyboard_10_n04505470_4044.png,n04505470_4044.png,1.0,11.892702,2.4213104,6.697285
alexnet_w1_mlp_simclrhn_probe3,1,501,NaN,bottle,oven,15,0501_lp_dnn_15_oven_10_n04111531_8269.png,n04111531_8269.png,0.0,0.16051254,0.5245415,-0.25740734
alexnet_w1_mlp_simclrhn_probe3,1,502,NaN,bottle,clock,7,0502_lp_dnn_7_clock_10_n02708093_6890.png,n02708093_6890.png,0.0,0.254018,0.42060524,-0.11779497
alexnet_w1_mlp_simclrhn_probe3,1,503,NaN,bottle,oven,40,0503_lp_dnn_40_oven_10_n04111531_15947.png,n04111531_15947.png,0.0,-0.022124682,0.2655289,-0.20340179
alexnet_w1_mlp_simclrhn_probe3,1,504,NaN,bottle,bicycle,15,0504_lp_dnn_15_bicycle_10_n03792782_24734.png,n03792782_24734.png,0.0,-0.25167084,0.23461092,-0.34385312
alexnet_w1_mlp_simclrhn_probe3,1,505,NaN,bottle,chair,40,0505_lp_dnn_40_chair_10_n04099969_10401.png,n04099969_10401.png,0.0,-0.14450674,0.28200942,-0.3015925
alexnet_w1_mlp_simclrhn_probe3,1,506,NaN,elephant,elephant,3,0506_lp_dnn_3_elephant_10_n02504458_2994.png,n02504458_2994.png,1.0,0.39547974,0.39197278,0.0024797942
alexnet_w1_mlp_simclrhn_probe3,1,507,NaN,bicycle,dog,0,0507_lp_dnn_0_dog_10_n02108422_1164.png,n02108422_1164.png,0.0,1.0397192,2.158311,-0.79096377
alexnet_w1_mlp_simclrhn_probe3,1,508,NaN,bottle,clock,5,0508_lp_dnn_5_clock_10_n04548280_2421.png,n04548280_2421.png,0.0,0.3710011,0.5814515,-0.1488109
alexnet_w1_mlp_simclrhn_probe3,1,509,NaN,bottle,oven,5,0509_lp_dnn_5_oven_10_n04111531_2930.png,n04111531_2930.png,0.0,0.07359835,0.2811841,-0.14678529
alexnet_w1_mlp_simclrhn_probe3,1,510,NaN,bear,bear,1,0510_lp_dnn_1_bear_10_n02132136_4271.png,n02132136_4271.png,1.0,3.1826677,2.0035195,0.8337837
alexnet_w1_mlp_simclrhn_probe3,1,511,NaN,bottle,oven,7,0511_lp_dnn_7_oven_10_n04111531_8603.png,n04111531_8603.png,0.0,0.14192803,0.6239642,-0.34085104
alexnet_w1_mlp_simclrhn_probe3,1,512,NaN,bottle,bicycle,40,0512_lp_dnn_40_bicycle_10_n02835271_16850.png,n02835271_16850.png,0.0,-0.23190078,0.33970118,-0.40418366
alexnet_w1_mlp_simclrhn_probe3,1,513,NaN,knife,knife,3,0513_lp_dnn_3_knife_10_n03041632_47410.png,n03041632_47410.png,1.0,0.34026363,0.31468445,0.018087216
alexnet_w1_mlp_simclrhn_probe3,1,514,NaN,bottle,elephant,15,0514_lp_dnn_15_elephant_10_n02504458_1000.png,n02504458_1000.png,0.0,-0.20847818,0.255816,-0.32830557
alexnet_w1_mlp_simclrhn_probe3,1,515,NaN,cat,cat,1,0515_lp_dnn_1_cat_10_n02124075_8884.png,n02124075_8884.png,1.0,2.3670583,0.098918356,1.6038171
alexnet_w1_mlp_simclrhn_probe3,1,516,NaN,bottle,bird,7,0516_lp_dnn_7_bird_10_n01622779_1370.png,n01622779_1370.png,0.0,0.023921948,0.22992705,-0.1456676
alexnet_w1_mlp_simclrhn_probe3,1,517,NaN,cat,cat,0,0517_lp_dnn_0_cat_10_n02123045_8215.png,n02123045_8215.png,1.0,5.8764787,0.6327446,3.7078798
alexnet_w1_mlp_simclrhn_probe3,1,518,NaN,bottle,car,5,0518_lp_dnn_5_car_10_n03100240_3083.png,n03100240_3083.png,0.0,-0.3291191,0.5691161,-0.6351482
alexnet_w1_mlp_simclrhn_probe3,1,519,NaN,oven,bicycle,3,0519_lp_dnn_3_bicycle_10_n03792782_9280.png,n03792782_9280.png,0.0,-0.14029558,0.2049914,-0.24415477
alexnet_w1_mlp_simclrhn_probe3,1,520,NaN,bottle,bird,5,0520_lp_dnn_5_bird_10_n01819313_3505.png,n01819313_3505.png,0.0,-0.08507545,0.60342777,-0.48684528
alexnet_w1_mlp_simclrhn_probe3,1,521,NaN,bottle,bird,15,0521_lp_dnn_15_bird_10_n01531178_5130.png,n01531178_5130.png,0.0,-0.0052430984,0.22577007,-0.16335098
alexnet_w1_mlp_simclrhn_probe3,1,522,NaN,bottle,clock,15,0522_lp_dnn_15_clock_10_n02708093_2867.png,n02708093_2867.png,0.0,0.27208963,0.5954625,-0.22865915
alexnet_w1_mlp_simclrhn_probe3,1,523,NaN,bottle,bear,7,0523_lp_dnn_7_bear_10_n02134418_258.png,n02134418_258.png,0.0,-0.3007965,0.80669624,-0.7831156
alexnet_w1_mlp_simclrhn_probe3,1,524,NaN,keyboard,bottle,1,0524_lp_dnn_1_bottle_10_n02823428_8280.png,n02823428_8280.png,0.0,1.0320994,1.4793117,-0.31622687
alexnet_w1_mlp_simclrhn_probe3,1,525,NaN,bottle,elephant,7,0525_lp_dnn_7_elephant_10_n02504013_24811.png,n02504013_24811.png,0.0,-0.26722315,0.42876372,-0.49213704
alexnet_w1_mlp_simclrhn_probe3,1,526,NaN,bottle,bicycle,40,0526_lp_dnn_40_bicycle_10_n02835271_14499.png,n02835271_14499.png,0.0,-0.21823207,0.24272029,-0.32594255
alexnet_w1_mlp_simclrhn_probe3,1,527,NaN,clock,bottle,0,0527_lp_dnn_0_bottle_10_n02823428_14536.png,n02823428_14536.png,0.0,5.9789667,6.091751,-0.079750605
alexnet_w1_mlp_simclrhn_probe3,1,528,NaN,bottle,knife,5,0528_lp_dnn_5_knife_10_n03041632_21723.png,n03041632_21723.png,0.0,0.083707675,0.49435177,-0.29036924
alexnet_w1_mlp_simclrhn_probe3,1,529,NaN,bottle,cat,10,0529_lp_dnn_10_cat_10_n02123159_8396.png,n02123159_8396.png,0.0,-0.05347745,0.45708942,-0.3610253
alexnet_w1_mlp_simclrhn_probe3,1,530,NaN,bottle,bottle,40,0530_lp_dnn_40_bottle_10_n02823428_3486.png,n02823428_3486.png,1.0,0.22877805,0.22227888,0.004595608
alexnet_w1_mlp_simclrhn_probe3,1,531,NaN,bear,bird,0,0531_lp_dnn_0_bird_10_n01514859_12705.png,n01514859_12705.png,0.0,1.8286144,2.9791331,-0.8135396
alexnet_w1_mlp_simclrhn_probe3,1,532,NaN,bottle,dog,7,0532_lp_dnn_7_dog_10_n02097047_911.png,n02097047_911.png,0.0,-0.10922453,0.38158223,-0.34705278
alexnet_w1_mlp_simclrhn_probe3,1,533,NaN,bottle,keyboard,10,0533_lp_dnn_10_keyboard_10_n04505470_3132.png,n04505470_3132.png,0.0,0.20591837,0.4650134,-0.18320787
alexnet_w1_mlp_simclrhn_probe3,1,534,NaN,airplane,airplane,1,0534_lp_dnn_1_airplane_10_n02690373_11908.png,n02690373_11908.png,1.0,2.917855,0.6581849,1.5978281
alexnet_w1_mlp_simclrhn_probe3,1,535,NaN,knife,elephant,40,0535_lp_dnn_40_elephant_10_n02504458_5169.png,n02504458_5169.png,0.0,-0.19692196,0.26908356,-0.32951567
alexnet_w1_mlp_simclrhn_probe3,1,536,NaN,bottle,bottle,15,0536_lp_dnn_15_bottle_10_n03937543_5375.png,n03937543_5375.png,1.0,0.44689065,0.23448916,0.15019053
alexnet_w1_mlp_simclrhn_probe3,1,537,NaN,oven,bottle,1,0537_lp_dnn_1_bottle_10_n04591713_6138.png,n04591713_6138.png,0.0,-0.07164983,0.9610865,-0.7302548
alexnet_w1_mlp_simclrhn_probe3,1,538,NaN,bottle,bottle,15,0538_lp_dnn_15_bottle_10_n04557648_12559.png,n04557648_12559.png,1.0,0.27723804,0.24962984,0.019521946
alexnet_w1_mlp_simclrhn_probe3,1,539,NaN,knife,clock,40,0539_lp_dnn_40_clock_10_n03196217_3903.png,n03196217_3903.png,0.0,0.27468684,0.35595602,-0.057465985
alexnet_w1_mlp_simclrhn_probe3,1,540,NaN,bottle,keyboard,15,0540_lp_dnn_15_keyboard_10_n04505470_4732.png,n04505470_4732.png,0.0,0.14751177,0.32358626,-0.12450347
alexnet_w1_mlp_simclrhn_probe3,1,541,NaN,knife,knife,40,0541_lp_dnn_40_knife_10_n03041632_8468.png,n03041632_8468.png,1.0,0.2657583,0.20540978,0.042672854
alexnet_w1_mlp_simclrhn_probe3,1,542,NaN,bottle,chair,3,0542_lp_dnn_3_chair_10_n02791124_14040.png,n02791124_14040.png,0.0,0.046463788,1.1839644,-0.80433434
alexnet_w1_mlp_simclrhn_probe3,1,543,NaN,bottle,boat,15,0543_lp_dnn_15_boat_10_n04273569_3095.png,n04273569_3095.png,0.0,-0.21224797,0.34046128,-0.39082444
alexnet_w1_mlp_simclrhn_probe3,1,544,NaN,bird,bird,1,0544_lp_dnn_1_bird_10_n02002724_18548.png,n02002724_18548.png,1.0,1.9874213,1.1407094,0.5987157
alexnet_w1_mlp_simclrhn_probe3,1,545,NaN,bottle,oven,10,0545_lp_dnn_10_oven_10_n04111531_8537.png,n04111531_8537.png,0.0,0.015483167,0.22148092,-0.14566241
alexnet_w1_mlp_simclrhn_probe3,1,546,NaN,bottle,chair,40,0546_lp_dnn_40_chair_10_n02791124_1935.png,n02791124_1935.png,0.0,-0.14581612,0.26902002,-0.29333344
alexnet_w1_mlp_simclrhn_probe3,1,547,NaN,bottle,dog,5,0547_lp_dnn_5_dog_10_n02102040_1660.png,n02102040_1660.png,0.0,-0.0589521,0.29227278,-0.2483535
alexnet_w1_mlp_simclrhn_probe3,1,548,NaN,elephant,bear,0,0548_lp_dnn_0_bear_10_n02134084_7790.png,n02134084_7790.png,0.0,3.5109107,4.7695913,-0.89002156
alexnet_w1_mlp_simclrhn_probe3,1,549,NaN,bottle,knife,10,0549_lp_dnn_10_knife_10_n03041632_17091.png,n03041632_17091.png,0.0,0.11119086,0.31265974,-0.14246002
alexnet_w1_mlp_simclrhn_probe3,1,550,NaN,bottle,keyboard,5,0550_lp_dnn_5_keyboard_10_n04505470_9331.png,n04505470_9331.png,0.0,0.6025456,1.1054441,-0.35560292
alexnet_w1_mlp_simclrhn_probe3,1,551,NaN,bottle,airplane,5,0551_lp_dnn_5_airplane_10_n02690373_6887.png,n02690373_6887.png,0.0,-0.3304039,0.49501538,-0.5836596
alexnet_w1_mlp_simclrhn_probe3,1,552,NaN,oven,chair,1,0552_lp_dnn_1_chair_10_n02791124_2540.png,n02791124_2540.png,0.0,1.0712733,2.6120028,-1.0894603
alexnet_w1_mlp_simclrhn_probe3,1,553,NaN,oven,truck,3,0553_lp_dnn_3_truck_10_n03796401_23774.png,n03796401_23774.png,0.0,0.026857533,0.52875817,-0.35489732
alexnet_w1_mlp_simclrhn_probe3,1,554,NaN,bottle,knife,40,0554_lp_dnn_40_knife_10_n03041632_28201.png,n03041632_28201.png,0.0,0.26500228,0.2816257,-0.011754525
alexnet_w1_mlp_simclrhn_probe3,1,555,NaN,bottle,clock,5,0555_lp_dnn_5_clock_10_n04548280_3563.png,n04548280_3563.png,0.0,0.20447607,0.66221946,-0.3236735
alexnet_w1_mlp_simclrhn_probe3,1,556,NaN,bicycle,bicycle,0,0556_lp_dnn_0_bicycle_10_n03792782_8287.png,n03792782_8287.png,1.0,9.753204,0.63205194,6.4496293
alexnet_w1_mlp_simclrhn_probe3,1,557,NaN,clock,clock,3,0557_lp_dnn_3_clock_10_n04548280_4225.png,n04548280_4225.png,1.0,0.7863302,0.7056708,0.057034843
alexnet_w1_mlp_simclrhn_probe3,1,558,NaN,car,car,0,0558_lp_dnn_0_car_10_n04285008_11931.png,n04285008_11931.png,1.0,16.991306,6.5176535,7.405991
alexnet_w1_mlp_simclrhn_probe3,1,559,NaN,bottle,elephant,5,0559_lp_dnn_5_elephant_10_n02504013_9396.png,n02504013_9396.png,0.0,-0.26575586,0.5675367,-0.58922684
alexnet_w1_mlp_simclrhn_probe3,1,560,NaN,knife,boat,40,0560_lp_dnn_40_boat_10_n03344393_2915.png,n03344393_2915.png,0.0,-0.21102457,0.27657616,-0.3447858
alexnet_w1_mlp_simclrhn_probe3,1,561,NaN,bottle,bicycle,7,0561_lp_dnn_7_bicycle_10_n03792782_9692.png,n03792782_9692.png,0.0,-0.28548175,0.5124673,-0.5642352
alexnet_w1_mlp_simclrhn_probe3,1,562,NaN,bottle,chair,7,0562_lp_dnn_7_chair_10_n02791124_57.png,n02791124_57.png,0.0,-0.24383008,0.4938337,-0.52160704
alexnet_w1_mlp_simclrhn_probe3,1,563,NaN,bottle,car,40,0563_lp_dnn_40_car_10_n04285008_3185.png,n04285008_3185.png,0.0,-0.2950965,0.2497951,-0.38529655
alexnet_w1_mlp_simclrhn_probe3,1,564,NaN,boat,boat,1,0564_lp_dnn_1_boat_10_n02951358_34917.png,n02951358_34917.png,1.0,3.4058616,2.2552335,0.81361693
alexnet_w1_mlp_simclrhn_probe3,1,565,NaN,clock,clock,0,0565_lp_dnn_0_clock_10_n02708093_2762.png,n02708093_2762.png,1.0,6.8560715,1.6477591,3.6828332
alexnet_w1_mlp_simclrhn_probe3,1,566,NaN,bottle,knife,5,0566_lp_dnn_5_knife_10_n03041632_4879.png,n03041632_4879.png,0.0,0.285269,0.45651987,-0.12109266
alexnet_w1_mlp_simclrhn_probe3,1,567,NaN,car,car,0,0567_lp_dnn_0_car_10_n02814533_4689.png,n02814533_4689.png,1.0,10.795999,7.556896,2.2903912
alexnet_w1_mlp_simclrhn_probe3,1,568,NaN,boat,boat,1,0568_lp_dnn_1_boat_10_n02951358_2445.png,n02951358_2445.png,1.0,2.0420365,0.41948593,1.1473166
alexnet_w1_mlp_simclrhn_probe3,1,569,NaN,bottle,truck,40,0569_lp_dnn_40_truck_10_n03417042_10038.png,n03417042_10038.png,0.0,-0.2394709,0.260606,-0.35360777
alexnet_w1_mlp_simclrhn_probe3,1,570,NaN,bottle,car,10,0570_lp_dnn_10_car_10_n02814533_32924.png,n02814533_32924.png,0.0,-0.3571361,0.42443722,-0.5526558
alexnet_w1_mlp_simclrhn_probe3,1,571,NaN,bottle,bottle,10,0571_lp_dnn_10_bottle_10_n02823428_5135.png,n02823428_5135.png,1.0,0.41842264,0.2187846,0.14116542
alexnet_w1_mlp_simclrhn_probe3,1,572,NaN,oven,keyboard,1,0572_lp_dnn_1_keyboard_10_n03085013_9066.png,n03085013_9066.png,0.0,2.4921756,2.975151,-0.34151524
alexnet_w1_mlp_simclrhn_probe3,1,573,NaN,bottle,oven,10,0573_lp_dnn_10_oven_10_n04111531_11279.png,n04111531_11279.png,0.0,0.082628354,0.48036608,-0.28124306
alexnet_w1_mlp_simclrhn_probe3,1,574,NaN,bottle,car,10,0574_lp_dnn_10_car_10_n04285008_12182.png,n04285008_12182.png,0.0,-0.35370576,0.33469275,-0.48677126
alexnet_w1_mlp_simclrhn_probe3,1,575,NaN,bear,bear,0,0575_lp_dnn_0_bear_10_n02133161_5681.png,n02133161_5681.png,1.0,3.7682316,1.0330389,1.9340734
alexnet_w1_mlp_simclrhn_probe3,1,576,NaN,bottle,dog,5,0576_lp_dnn_5_dog_10_n02108915_5514.png,n02108915_5514.png,0.0,-0.10322458,0.40276715,-0.3577902
alexnet_w1_mlp_simclrhn_probe3,1,577,NaN,bottle,airplane,15,0577_lp_dnn_15_airplane_10_n02690373_7239.png,n02690373_7239.png,0.0,-0.2671505,0.34855598,-0.4353702
alexnet_w1_mlp_simclrhn_probe3,1,578,NaN,dog,dog,0,0578_lp_dnn_0_dog_10_n02094258_4979.png,n02094258_4979.png,1.0,2.7617264,0.76990783,1.4084284
alexnet_w1_mlp_simclrhn_probe3,1,579,NaN,oven,chair,3,0579_lp_dnn_3_chair_10_n04429376_15078.png,n04429376_15078.png,0.0,0.18325739,1.1377555,-0.6749321
alexnet_w1_mlp_simclrhn_probe3,1,580,NaN,bottle,clock,40,0580_lp_dnn_40_clock_10_n02708093_8276.png,n02708093_8276.png,0.0,0.25977245,0.30649439,-0.033037398
alexnet_w1_mlp_simclrhn_probe3,1,581,NaN,keyboard,keyboard,3,0581_lp_dnn_3_keyboard_10_n04505470_3947.png,n04505470_3947.png,1.0,1.8439302,0.39928642,1.0215175
alexnet_w1_mlp_simclrhn_probe3,1,582,NaN,bottle,car,15,0582_lp_dnn_15_car_10_n03100240_2996.png,n03100240_2996.png,0.0,-0.31536213,0.44108865,-0.5348915
alexnet_w1_mlp_simclrhn_probe3,1,583,NaN,bottle,cat,10,0583_lp_dnn_10_cat_10_n02123159_3226.png,n02123159_3226.png,0.0,-0.0753873,0.43666077,-0.36207268
alexnet_w1_mlp_simclrhn_probe3,1,584,NaN,bottle,truck,7,0584_lp_dnn_7_truck_10_n03417042_19905.png,n03417042_19905.png,0.0,-0.3351408,0.5706643,-0.64050096
alexnet_w1_mlp_simclrhn_probe3,1,585,NaN,bird,bird,0,0585_lp_dnn_0_bird_10_n02009229_4838.png,n02009229_4838.png,1.0,1.502917,1.4409832,0.043793865
alexnet_w1_mlp_simclrhn_probe3,1,586,NaN,oven,oven,1,0586_lp_dnn_1_oven_10_n04111531_14383.png,n04111531_14383.png,1.0,2.6056502,2.1977322,0.28844157
alexnet_w1_mlp_simclrhn_probe3,1,587,NaN,bottle,bear,5,0587_lp_dnn_5_bear_10_n02132136_1152.png,n02132136_1152.png,0.0,-0.2048412,0.25141793,-0.32262394
alexnet_w1_mlp_simclrhn_probe3,1,588,NaN,cat,cat,0,0588_lp_dnn_0_cat_10_n02123597_10952.png,n02123597_10952.png,1.0,1.0317504,0.8175761,0.15144412
alexnet_w1_mlp_simclrhn_probe3,1,589,NaN,boat,boat,0,0589_lp_dnn_0_boat_10_n04273569_12318.png,n04273569_12318.png,1.0,5.937104,4.5335703,0.9924484
alexnet_w1_mlp_simclrhn_probe3,1,590,NaN,knife,bottle,40,0590_lp_dnn_40_bottle_10_n03937543_1391.png,n03937543_1391.png,0.0,0.1279322,0.3356598,-0.14688559
alexnet_w1_mlp_simclrhn_probe3,1,591,NaN,bottle,dog,10,0591_lp_dnn_10_dog_10_n02091032_9464.png,n02091032_9464.png,0.0,-0.074077114,0.24241321,-0.22379246
alexnet_w1_mlp_simclrhn_probe3,1,592,NaN,bottle,oven,7,0592_lp_dnn_7_oven_10_n04111531_5218.png,n04111531_5218.png,0.0,0.028381426,0.65672,-0.44430247
alexnet_w1_mlp_simclrhn_probe3,1,593,NaN,bottle,airplane,5,0593_lp_dnn_5_airplane_10_n02690373_9423.png,n02690373_9423.png,0.0,-0.47604874,0.8086191,-0.9083974
alexnet_w1_mlp_simclrhn_probe3,1,594,NaN,oven,bird,1,0594_lp_dnn_1_bird_10_n01860187_348.png,n01860187_348.png,0.0,1.7332321,2.0683138,-0.23693855
alexnet_w1_mlp_simclrhn_probe3,1,595,NaN,bottle,bird,40,0595_lp_dnn_40_bird_10_n02006656_8975.png,n02006656_8975.png,0.0,-0.102048784,0.2879867,-0.27579674
alexnet_w1_mlp_simclrhn_probe3,1,596,NaN,bottle,oven,10,0596_lp_dnn_10_oven_10_n04111531_7619.png,n04111531_7619.png,0.0,0.07830486,0.5680973,-0.34633556
alexnet_w1_mlp_simclrhn_probe3,1,597,NaN,bottle,bicycle,3,0597_lp_dnn_3_bicycle_10_n02835271_9202.png,n02835271_9202.png,0.0,-0.17802908,0.5003281,-0.47967097
alexnet_w1_mlp_simclrhn_probe3,1,598,NaN,bottle,boat,10,0598_lp_dnn_10_boat_10_n03344393_7826.png,n03344393_7826.png,0.0,-0.328151,0.51637536,-0.5971703
alexnet_w1_mlp_simclrhn_probe3,1,599,NaN,elephant,elephant,3,0599_lp_dnn_3_elephant_10_n02504013_10330.png,n02504013_10330.png,1.0,0.6942879,0.20760529,0.34413657
alexnet_w1_mlp_simclrhn_probe3,1,600,NaN,bottle,truck,10,0600_lp_dnn_10_truck_10_n04467665_69202.png,n04467665_69202.png,0.0,-0.30583787,0.4928011,-0.564723
alexnet_w1_mlp_simclrhn_probe3,1,601,NaN,bottle,keyboard,7,0601_lp_dnn_7_keyboard_10_n04505470_1120.png,n04505470_1120.png,0.0,0.44484696,0.70338386,-0.1828132
alexnet_w1_mlp_simclrhn_probe3,1,602,NaN,bottle,car,5,0602_lp_dnn_5_car_10_n04285008_434.png,n04285008_434.png,0.0,-0.31988233,0.55452394,-0.6182986
alexnet_w1_mlp_simclrhn_probe3,1,603,NaN,cat,cat,1,0603_lp_dnn_1_cat_10_n02123597_7592.png,n02123597_7592.png,1.0,0.41414753,0.34219775,0.050876178
alexnet_w1_mlp_simclrhn_probe3,1,604,NaN,bottle,dog,15,0604_lp_dnn_15_dog_10_n02090721_583.png,n02090721_583.png,0.0,-0.07930679,0.29864463,-0.267252
alexnet_w1_mlp_simclrhn_probe3,1,605,NaN,oven,knife,1,0605_lp_dnn_1_knife_10_n03041632_86783.png,n03041632_86783.png,0.0,0.5840983,1.5653667,-0.6938616
alexnet_w1_mlp_simclrhn_probe3,1,606,NaN,bottle,dog,10,0606_lp_dnn_10_dog_10_n02112018_11708.png,n02112018_11708.png,0.0,-0.09236168,0.43507698,-0.37295544
alexnet_w1_mlp_simclrhn_probe3,1,607,NaN,elephant,bird,0,0607_lp_dnn_0_bird_10_n02018795_5662.png,n02018795_5662.png,0.0,0.0739273,2.3562045,-1.6138136
alexnet_w1_mlp_simclrhn_probe3,1,608,NaN,bottle,elephant,5,0608_lp_dnn_5_elephant_10_n02504013_1088.png,n02504013_1088.png,0.0,-0.18638808,0.24148758,-0.30255377
alexnet_w1_mlp_simclrhn_probe3,1,609,NaN,bottle,elephant,5,0609_lp_dnn_5_elephant_10_n02504458_66.png,n02504458_66.png,0.0,-0.25264752,0.45395142,-0.4996409
alexnet_w1_mlp_simclrhn_probe3,1,610,NaN,bottle,dog,10,0610_lp_dnn_10_dog_10_n02105056_9099.png,n02105056_9099.png,0.0,-0.10754354,0.6441797,-0.5315486
alexnet_w1_mlp_simclrhn_probe3,1,611,NaN,bottle,boat,10,0611_lp_dnn_10_boat_10_n04273569_19699.png,n04273569_19699.png,0.0,-0.2783091,0.42480263,-0.4971751
alexnet_w1_mlp_simclrhn_probe3,1,612,NaN,dog,dog,1,0612_lp_dnn_1_dog_10_n02097047_2376.png,n02097047_2376.png,1.0,3.5198092,2.7121112,0.5711287
alexnet_w1_mlp_simclrhn_probe3,1,613,NaN,boat,boat,1,0613_lp_dnn_1_boat_10_n03662601_11901.png,n03662601_11901.png,1.0,2.035723,0.950252,0.76754385
alexnet_w1_mlp_simclrhn_probe3,1,614,NaN,oven,oven,1,0614_lp_dnn_1_oven_10_n04111531_7667.png,n04111531_7667.png,1.0,1.5029104,0.6162205,0.6269845
alexnet_w1_mlp_simclrhn_probe3,1,615,NaN,bottle,knife,10,0615_lp_dnn_10_knife_10_n03041632_24384.png,n03041632_24384.png,0.0,0.12645976,0.4517135,-0.22998911
alexnet_w1_mlp_simclrhn_probe3,1,616,NaN,bottle,car,7,0616_lp_dnn_7_car_10_n03100240_1216.png,n03100240_1216.png,0.0,-0.36870703,0.43917832,-0.5712612
alexnet_w1_mlp_simclrhn_probe3,1,617,NaN,elephant,bicycle,0,0617_lp_dnn_0_bicycle_10_n03792782_3136.png,n03792782_3136.png,0.0,2.1740716,2.9067411,-0.51807564
alexnet_w1_mlp_simclrhn_probe3,1,618,NaN,bottle,keyboard,5,0618_lp_dnn_5_keyboard_10_n03085013_26573.png,n03085013_26573.png,0.0,0.26110506,0.4056785,-0.102228865
alexnet_w1_mlp_simclrhn_probe3,1,619,NaN,clock,chair,0,0619_lp_dnn_0_chair_10_n04429376_7888.png,n04429376_7888.png,0.0,0.7334072,1.9928713,-0.8905756
alexnet_w1_mlp_simclrhn_probe3,1,620,NaN,bottle,chair,5,0620_lp_dnn_5_chair_10_n03376595_899.png,n03376595_899.png,0.0,-0.2797108,0.65885395,-0.66366553
alexnet_w1_mlp_simclrhn_probe3,1,621,NaN,bottle,bicycle,5,0621_lp_dnn_5_bicycle_10_n02835271_24207.png,n02835271_24207.png,0.0,-0.34883887,0.7568916,-0.7818696
alexnet_w1_mlp_simclrhn_probe3,1,622,NaN,oven,oven,3,0622_lp_dnn_3_oven_10_n04111531_7329.png,n04111531_7329.png,1.0,1.0917215,0.7619133,0.23320964
alexnet_w1_mlp_simclrhn_probe3,1,623,NaN,bottle,oven,5,0623_lp_dnn_5_oven_10_n04111531_12942.png,n04111531_12942.png,0.0,0.18286936,0.69530684,-0.36234802
alexnet_w1_mlp_simclrhn_probe3,1,624,NaN,bottle,bear,15,0624_lp_dnn_15_bear_10_n02134418_1978.png,n02134418_1978.png,0.0,-0.17287752,0.38548717,-0.39482346
alexnet_w1_mlp_simclrhn_probe3,1,625,NaN,knife,cat,40,0625_lp_dnn_40_cat_10_n02123159_5872.png,n02123159_5872.png,0.0,0.016925469,0.26698193,-0.17681661
alexnet_w1_mlp_simclrhn_probe3,1,626,NaN,bottle,keyboard,15,0626_lp_dnn_15_keyboard_10_n03085013_18797.png,n03085013_18797.png,0.0,0.1470694,0.37349218,-0.1601051
alexnet_w1_mlp_simclrhn_probe3,1,627,NaN,bottle,airplane,15,0627_lp_dnn_15_airplane_10_n02690373_5496.png,n02690373_5496.png,0.0,-0.1374049,0.3283929,-0.32936877
alexnet_w1_mlp_simclrhn_probe3,1,628,NaN,bottle,oven,15,0628_lp_dnn_15_oven_10_n04111531_21963.png,n04111531_21963.png,0.0,0.032040976,0.4242382,-0.27732533
alexnet_w1_mlp_simclrhn_probe3,1,629,NaN,bottle,bottle,0,0629_lp_dnn_0_bottle_10_n02823428_2918.png,n02823428_2918.png,1.0,10.512751,3.2508287,5.1349545
alexnet_w1_mlp_simclrhn_probe3,1,630,NaN,bottle,keyboard,10,0630_lp_dnn_10_keyboard_10_n04505470_9570.png,n04505470_9570.png,0.0,0.13297427,0.38762903,-0.18006812
alexnet_w1_mlp_simclrhn_probe3,1,631,NaN,bird,bird,1,0631_lp_dnn_1_bird_10_n02002556_5977.png,n02002556_5977.png,1.0,2.3437877,0.21409175,1.5059224
alexnet_w1_mlp_simclrhn_probe3,1,632,NaN,knife,airplane,40,0632_lp_dnn_40_airplane_10_n02690373_5961.png,n02690373_5961.png,0.0,-0.11901797,0.356227,-0.33604896
alexnet_w1_mlp_simclrhn_probe3,1,633,NaN,bottle,clock,3,0633_lp_dnn_3_clock_10_n04548280_5765.png,n04548280_5765.png,0.0,0.33417556,0.51604146,-0.12859862
alexnet_w1_mlp_simclrhn_probe3,1,634,NaN,bottle,cat,15,0634_lp_dnn_15_cat_10_n02123597_11940.png,n02123597_11940.png,0.0,-0.055460606,0.2540642,-0.2188671
alexnet_w1_mlp_simclrhn_probe3,1,635,NaN,oven,airplane,3,0635_lp_dnn_3_airplane_10_n02690373_3993.png,n02690373_3993.png,0.0,0.28314394,0.880003,-0.42204309
alexnet_w1_mlp_simclrhn_probe3,1,636,NaN,bottle,chair,7,0636_lp_dnn_7_chair_10_n04099969_3984.png,n04099969_3984.png,0.0,-0.21487595,0.4209326,-0.44958454
alexnet_w1_mlp_simclrhn_probe3,1,637,NaN,knife,airplane,3,0637_lp_dnn_3_airplane_10_n02690373_939.png,n02690373_939.png,0.0,0.07459873,0.34697288,-0.19259761
alexnet_w1_mlp_simclrhn_probe3,1,638,NaN,car,car,1,0638_lp_dnn_1_car_10_n02814533_48541.png,n02814533_48541.png,1.0,10.228499,8.419804,1.278941
alexnet_w1_mlp_simclrhn_probe3,1,639,NaN,bottle,clock,10,0639_lp_dnn_10_clock_10_n03196217_3986.png,n03196217_3986.png,0.0,0.24103595,0.5017745,-0.18437
alexnet_w1_mlp_simclrhn_probe3,1,640,NaN,bottle,clock,7,0640_lp_dnn_7_clock_10_n03196217_3006.png,n03196217_3006.png,0.0,0.1560084,0.5609216,-0.28631687
