subj,session,trial,rt,object_response,category,condition,imagename,filename,is_correct,targ_act,max_nontarg_act,decision_margin
alexnet_w1_mlp_simclrhn_probe3,1,1,NaN,knife,chair,40,0001_lp_dnn_40_chair_10_n04099969_7577.png,n04099969_7577.png,0.0,-0.050042767,0.29319283,-0.24270423
alexnet_w1_mlp_simclrhn_probe3,1,2,NaN,clock,cat,40,0002_lp_dnn_40_cat_10_n02124075_12815.png,n02124075_12815.png,0.0,-0.04848053,0.27098474,-0.22589608
alexnet_w1_mlp_simclrhn_probe3,1,3,NaN,bottle,truck,5,0003_lp_dnn_5_truck_10_n04467665_34253.png,n04467665_34253.png,0.0,-0.30903018,0.82772267,-0.80380565
alexnet_w1_mlp_simclrhn_probe3,1,4,NaN,oven,clock,1,0004_lp_dnn_1_clock_10_n04548280_5320.png,n04548280_5320.png,0.0,1.0803384,1.1422541,-0.04378105
alexnet_w1_mlp_simclrhn_probe3,1,5,NaN,bottle,dog,3,0005_lp_dnn_3_dog_10_n02108915_3652.png,n02108915_3652.png,0.0,-0.079317816,0.36854288,-0.31668535
alexnet_w1_mlp_simclrhn_probe3,1,6,NaN,keyboard,keyboard,7,0006_lp_dnn_7_keyboard_10_n04505470_578.png,n04505470_578.png,1.0,1.1935016,0.7515353,0.31251737
alexnet_w1_mlp_simclrhn_probe3,1,7,NaN,bottle,cat,7,0007_lp_dnn_7_cat_10_n02123597_3842.png,n02123597_3842.png,0.0,-0.15191512,0.41563413,-0.40131792
alexnet_w1_mlp_simclrhn_probe3,1,8,NaN,bear,bear,1,0008_lp_dnn_1_bear_10_n02134418_14.png,n02134418_14.png,1.0,6.376218,3.1865287,2.255451
alexnet_w1_mlp_simclrhn_probe3,1,9,NaN,bottle,knife,10,0009_lp_dnn_10_knife_10_n03041632_29920.png,n03041632_29920.png,0.0,0.089772366,0.43460867,-0.24383609
alexnet_w1_mlp_simclrhn_probe3,1,10,NaN,bottle,bird,5,0010_lp_dnn_5_bird_10_n01795545_952.png,n01795545_952.png,0.0,-0.038876627,0.35969427,-0.2818322
alexnet_w1_mlp_simclrhn_probe3,1,11,NaN,oven,bear,3,0011_lp_dnn_3_bear_10_n02132136_6441.png,n02132136_6441.png,0.0,0.115166135,0.21131025,-0.06798416
alexnet_w1_mlp_simclrhn_probe3,1,12,NaN,oven,bird,3,0012_lp_dnn_3_bird_10_n01829413_8792.png,n01829413_8792.png,0.0,-0.0017820989,0.21813473,-0.15550469
alexnet_w1_mlp_simclrhn_probe3,1,13,NaN,keyboard,keyboard,7,0013_lp_dnn_7_keyboard_10_n04505470_4458.png,n04505470_4458.png,1.0,1.1714003,0.5555536,0.4354694
alexnet_w1_mlp_simclrhn_probe3,1,14,NaN,bottle,chair,10,0014_lp_dnn_10_chair_10_n03376595_9176.png,n03376595_9176.png,0.0,-0.15737566,0.37073752,-0.37343243
alexnet_w1_mlp_simclrhn_probe3,1,15,NaN,clock,clock,40,0015_lp_dnn_40_clock_10_n04548280_7662.png,n04548280_7662.png,1.0,0.28672084,0.2775355,0.006495019
alexnet_w1_mlp_simclrhn_probe3,1,16,NaN,knife,keyboard,40,0016_lp_dnn_40_keyboard_10_n03085013_25809.png,n03085013_25809.png,0.0,-0.1263553,0.33152813,-0.3237725
alexnet_w1_mlp_simclrhn_probe3,1,17,NaN,bottle,oven,5,0017_lp_dnn_5_oven_10_n04111531_1580.png,n04111531_1580.png,0.0,0.112307906,0.38950256,-0.19600622
alexnet_w1_mlp_simclrhn_probe3,1,18,NaN,elephant,elephant,1,0018_lp_dnn_1_elephant_10_n02504458_900.png,n02504458_900.png,1.0,10.478064,2.9657238,5.3120265
alexnet_w1_mlp_simclrhn_probe3,1,19,NaN,bottle,dog,7,0019_lp_dnn_7_dog_10_n02106662_2384.png,n02106662_2384.png,0.0,-0.14617853,0.46074158,-0.42915735
alexnet_w1_mlp_simclrhn_probe3,1,20,NaN,bottle,truck,10,0020_lp_dnn_10_truck_10_n03796401_22618.png,n03796401_22618.png,0.0,-0.30531538,0.40207538,-0.5002008
alexnet_w1_mlp_simclrhn_probe3,1,21,NaN,bottle,elephant,15,0021_lp_dnn_15_elephant_10_n02504013_5463.png,n02504013_5463.png,0.0,-0.2148619,0.25402802,-0.33155525
alexnet_w1_mlp_simclrhn_probe3,1,22,NaN,bottle,chair,10,0022_lp_dnn_10_chair_10_n04429376_16459.png,n04429376_16459.png,0.0,-0.21173131,0.54235524,-0.53321975
alexnet_w1_mlp_simclrhn_probe3,1,23,NaN,cat,cat,1,0023_lp_dnn_1_cat_10_n02123045_12206.png,n02123045_12206.png,1.0,4.157655,0.8957153,2.3065395
alexnet_w1_mlp_simclrhn_probe3,1,24,NaN,bottle,truck,7,0024_lp_dnn_7_truck_10_n03417042_2633.png,n03417042_2633.png,0.0,-0.33343938,0.67196053,-0.7109251
alexnet_w1_mlp_simclrhn_probe3,1,25,NaN,bottle,keyboard,15,0025_lp_dnn_15_keyboard_10_n03085013_24416.png,n03085013_24416.png,0.0,0.07721125,0.3485864,-0.19189121
alexnet_w1_mlp_simclrhn_probe3,1,26,NaN,bottle,car,7,0026_lp_dnn_7_car_10_n02814533_44503.png,n02814533_44503.png,0.0,-0.35923132,0.6547515,-0.7169941
alexnet_w1_mlp_simclrhn_probe3,1,27,NaN,bottle,elephant,5,0027_lp_dnn_5_elephant_10_n02504458_5797.png,n02504458_5797.png,0.0,-0.2168446,0.28442296,-0.3544497
alexnet_w1_mlp_simclrhn_probe3,1,28,NaN,oven,chair,0,0028_lp_dnn_0_chair_10_n04429376_8237.png,n04429376_8237.png,0.0,1.174732,2.2424283,-0.7549753
alexnet_w1_mlp_simclrhn_probe3,1,29,NaN,bottle,cat,7,0029_lp_dnn_7_cat_10_n02123159_587.png,n02123159_587.png,0.0,-0.16786234,0.4619979,-0.44537845
alexnet_w1_mlp_simclrhn_probe3,1,30,NaN,bottle,bird,10,0030_lp_dnn_10_bird_10_n02028035_17238.png,n02028035_17238.png,0.0,-0.039635718,0.27283162,-0.22094777
alexnet_w1_mlp_simclrhn_probe3,1,31,NaN,clock,cat,40,0031_lp_dnn_40_cat_10_n02123159_4348.png,n02123159_4348.png,0.0,-0.06383173,0.2920029,-0.25161305
alexnet_w1_mlp_simclrhn_probe3,1,32,NaN,bottle,boat,5,0032_lp_dnn_5_boat_10_n04273569_22332.png,n04273569_22332.png,0.0,-0.32446823,0.39836636,-0.5111213
alexnet_w1_mlp_simclrhn_probe3,1,33,NaN,elephant,elephant,1,0033_lp_dnn_1_elephant_10_n02504013_1244.png,n02504013_1244.png,1.0,12.409092,2.898416,6.7250633
alexnet_w1_mlp_simclrhn_probe3,1,34,NaN,bottle,bicycle,7,0034_lp_dnn_7_bicycle_10_n03792782_30229.png,n03792782_30229.png,0.0,-0.2935063,0.32159042,-0.43493906
alexnet_w1_mlp_simclrhn_probe3,1,35,NaN,bottle,keyboard,10,0035_lp_dnn_10_keyboard_10_n03085013_7573.png,n03085013_7573.png,0.0,0.20797822,0.39688995,-0.13358077
alexnet_w1_mlp_simclrhn_probe3,1,36,NaN,keyboard,keyboard,3,0036_lp_dnn_3_keyboard_10_n03085013_24578.png,n03085013_24578.png,1.0,1.8592453,0.7140291,0.8097902
alexnet_w1_mlp_simclrhn_probe3,1,37,NaN,bottle,truck,15,0037_lp_dnn_15_truck_10_n03417042_1336.png,n03417042_1336.png,0.0,-0.27452743,0.3076994,-0.41169658
alexnet_w1_mlp_simclrhn_probe3,1,38,NaN,knife,knife,3,0038_lp_dnn_3_knife_10_n03041632_7495.png,n03041632_7495.png,1.0,0.3977963,0.33134487,0.046988256
alexnet_w1_mlp_simclrhn_probe3,1,39,NaN,car,car,0,0039_lp_dnn_0_car_10_n03100240_9625.png,n03100240_9625.png,1.0,10.143675,6.315403,2.7069972
alexnet_w1_mlp_simclrhn_probe3,1,40,NaN,bottle,elephant,10,0040_lp_dnn_10_elephant_10_n02504458_6107.png,n02504458_6107.png,0.0,-0.26992965,0.37933847,-0.45910192
alexnet_w1_mlp_simclrhn_probe3,1,41,NaN,bicycle,bicycle,0,0041_lp_dnn_0_bicycle_10_n03792782_33649.png,n03792782_33649.png,1.0,9.27961,1.3899676,5.5788198
alexnet_w1_mlp_simclrhn_probe3,1,42,NaN,knife,clock,1,0042_lp_dnn_1_clock_10_n03196217_8282.png,n03196217_8282.png,0.0,0.8045611,1.4011078,-0.42182222
alexnet_w1_mlp_simclrhn_probe3,1,43,NaN,keyboard,keyboard,7,0043_lp_dnn_7_keyboard_10_n03085013_21534.png,n03085013_21534.png,1.0,0.5995493,0.5926808,0.00485675
alexnet_w1_mlp_simclrhn_probe3,1,44,NaN,bottle,elephant,15,0044_lp_dnn_15_elephant_10_n02504013_22813.png,n02504013_22813.png,0.0,-0.22174078,0.2671365,-0.34568846
alexnet_w1_mlp_simclrhn_probe3,1,45,NaN,bottle,truck,10,0045_lp_dnn_10_truck_10_n03796401_16425.png,n03796401_16425.png,0.0,-0.30386826,0.4474919,-0.5312919
alexnet_w1_mlp_simclrhn_probe3,1,46,NaN,bottle,airplane,15,0046_lp_dnn_15_airplane_10_n02690373_9427.png,n02690373_9427.png,0.0,-0.13855954,0.30056342,-0.31050685
alexnet_w1_mlp_simclrhn_probe3,1,47,NaN,bottle,bird,7,0047_lp_dnn_7_bird_10_n02009912_11907.png,n02009912_11907.png,0.0,-0.086484715,0.4815227,-0.4016419
alexnet_w1_mlp_simclrhn_probe3,1,48,NaN,airplane,airplane,1,0048_lp_dnn_1_airplane_10_n02690373_5773.png,n02690373_5773.png,1.0,12.3394985,0.680546,8.244124
alexnet_w1_mlp_simclrhn_probe3,1,49,NaN,bottle,chair,40,0049_lp_dnn_40_chair_10_n02791124_2972.png,n02791124_2972.png,0.0,-0.07112019,0.2605317,-0.23451328
alexnet_w1_mlp_simclrhn_probe3,1,50,NaN,bird,bird,1,0050_lp_dnn_1_bird_10_n01819313_18188.png,n01819313_18188.png,1.0,1.5924991,0.6577186,0.66098964
alexnet_w1_mlp_simclrhn_probe3,1,51,NaN,bottle,car,5,0051_lp_dnn_5_car_10_n04285008_7428.png,n04285008_7428.png,0.0,-0.39385453,0.82731724,-0.8634988
alexnet_w1_mlp_simclrhn_probe3,1,52,NaN,bottle,bottle,7,0052_lp_dnn_7_bottle_10_n04591713_6923.png,n04591713_6923.png,1.0,0.64342993,0.44125366,0.14296022
alexnet_w1_mlp_simclrhn_probe3,1,53,NaN,knife,knife,0,0053_lp_dnn_0_knife_10_n03041632_22570.png,n03041632_22570.png,1.0,2.0330582,1.019427,0.7167455
alexnet_w1_mlp_simclrhn_probe3,1,54,NaN,bear,bear,0,0054_lp_dnn_0_bear_10_n02132136_7586.png,n02132136_7586.png,1.0,5.177341,1.466779,2.6237636
alexnet_w1_mlp_simclrhn_probe3,1,55,NaN,bottle,clock,5,0055_lp_dnn_5_clock_10_n04548280_9144.png,n04548280_9144.png,0.0,0.42904004,0.80889195,-0.26859587
alexnet_w1_mlp_simclrhn_probe3,1,56,NaN,chair,bottle,0,0056_lp_dnn_0_bottle_10_n04591713_2680.png,n04591713_2680.png,0.0,0.5211805,1.7828116,-0.89210796
alexnet_w1_mlp_simclrhn_probe3,1,57,NaN,bottle,cat,3,0057_lp_dnn_3_cat_10_n02123045_1596.png,n02123045_1596.png,0.0,0.12532412,0.21035716,-0.060127445
alexnet_w1_mlp_simclrhn_probe3,1,58,NaN,bottle,cat,10,0058_lp_dnn_10_cat_10_n02123597_19450.png,n02123597_19450.png,0.0,-0.13054502,0.4426933,-0.4053407
alexnet_w1_mlp_simclrhn_probe3,1,59,NaN,bottle,chair,15,0059_lp_dnn_15_chair_10_n03376595_3462.png,n03376595_3462.png,0.0,-0.10417904,0.3606895,-0.32871172
alexnet_w1_mlp_simclrhn_probe3,1,60,NaN,bottle,bottle,3,0060_lp_dnn_3_bottle_10_n04591713_3683.png,n04591713_3683.png,1.0,1.0371912,0.45897785,0.40885857
alexnet_w1_mlp_simclrhn_probe3,1,61,NaN,bottle,clock,7,0061_lp_dnn_7_clock_10_n03196217_4309.png,n03196217_4309.png,0.0,0.5667571,0.87125766,-0.21531443
alexnet_w1_mlp_simclrhn_probe3,1,62,NaN,bottle,bear,15,0062_lp_dnn_15_bear_10_n02134084_4923.png,n02134084_4923.png,0.0,-0.15678735,0.3436223,-0.35384306
alexnet_w1_mlp_simclrhn_probe3,1,63,NaN,oven,chair,1,0063_lp_dnn_1_chair_10_n04429376_5238.png,n04429376_5238.png,0.0,0.5644493,1.4166074,-0.6025668
alexnet_w1_mlp_simclrhn_probe3,1,64,NaN,bicycle,clock,0,0064_lp_dnn_0_clock_10_n03196217_2414.png,n03196217_2414.png,0.0,-0.15232332,1.9683177,-1.4995197
alexnet_w1_mlp_simclrhn_probe3,1,65,NaN,knife,bird,3,0065_lp_dnn_3_bird_10_n01797886_2711.png,n01797886_2711.png,0.0,-0.0008454491,0.22276871,-0.15811908
alexnet_w1_mlp_simclrhn_probe3,1,66,NaN,bottle,truck,15,0066_lp_dnn_15_truck_10_n04467665_68463.png,n04467665_68463.png,0.0,-0.27167186,0.30253285,-0.40602404
alexnet_w1_mlp_simclrhn_probe3,1,67,NaN,truck,truck,0,0067_lp_dnn_0_truck_10_n03417042_10099.png,n03417042_10099.png,1.0,7.684493,2.0524292,3.9824705
alexnet_w1_mlp_simclrhn_probe3,1,68,NaN,bottle,bear,10,0068_lp_dnn_10_bear_10_n02134418_3793.png,n02134418_3793.png,0.0,-0.18184918,0.45367497,-0.44938344
alexnet_w1_mlp_simclrhn_probe3,1,69,NaN,bottle,bottle,10,0069_lp_dnn_10_bottle_10_n03937543_9524.png,n03937543_9524.png,1.0,0.37023038,0.22500134,0.10269244
alexnet_w1_mlp_simclrhn_probe3,1,70,NaN,cat,cat,3,0070_lp_dnn_3_cat_10_n02123394_1038.png,n02123394_1038.png,1.0,0.27163985,0.18288323,0.06276041
alexnet_w1_mlp_simclrhn_probe3,1,71,NaN,bottle,dog,5,0071_lp_dnn_5_dog_10_n02110185_7886.png,n02110185_7886.png,0.0,-0.16166091,0.6636396,-0.5835756
alexnet_w1_mlp_simclrhn_probe3,1,72,NaN,clock,clock,3,0072_lp_dnn_3_clock_10_n02708093_4912.png,n02708093_4912.png,1.0,1.0244015,0.63171536,0.27767107
alexnet_w1_mlp_simclrhn_probe3,1,73,NaN,bottle,dog,15,0073_lp_dnn_15_dog_10_n02108422_932.png,n02108422_932.png,0.0,-0.114229664,0.23773408,-0.24887596
alexnet_w1_mlp_simclrhn_probe3,1,74,NaN,truck,truck,0,0074_lp_dnn_0_truck_10_n04467665_18621.png,n04467665_18621.png,1.0,7.5137672,0.4507696,4.9942937
alexnet_w1_mlp_simclrhn_probe3,1,75,NaN,truck,truck,1,0075_lp_dnn_1_truck_10_n04467665_50932.png,n04467665_50932.png,1.0,4.4330225,3.2100666,0.86476046
alexnet_w1_mlp_simclrhn_probe3,1,76,NaN,dog,dog,1,0076_lp_dnn_1_dog_10_n02102480_7293.png,n02102480_7293.png,1.0,2.120846,0.6095075,1.0686777
alexnet_w1_mlp_simclrhn_probe3,1,77,NaN,clock,bottle,1,0077_lp_dnn_1_bottle_10_n04591713_4764.png,n04591713_4764.png,0.0,0.23476084,0.306801,-0.050940085
alexnet_w1_mlp_simclrhn_probe3,1,78,NaN,bottle,clock,15,0078_lp_dnn_15_clock_10_n02708093_274.png,n02708093_274.png,0.0,0.20087814,0.26122376,-0.042670798
alexnet_w1_mlp_simclrhn_probe3,1,79,NaN,bottle,bottle,5,0079_lp_dnn_5_bottle_10_n04557648_29772.png,n04557648_29772.png,1.0,0.34141248,0.26815832,0.05179852
alexnet_w1_mlp_simclrhn_probe3,1,80,NaN,bottle,car,15,0080_lp_dnn_15_car_10_n03100240_22499.png,n03100240_22499.png,0.0,-0.3222215,0.37391752,-0.4922446
alexnet_w1_mlp_simclrhn_probe3,1,81,NaN,clock,clock,3,0081_lp_dnn_3_clock_10_n02708093_6252.png,n02708093_6252.png,1.0,3.447092,0.31983483,2.211305
alexnet_w1_mlp_simclrhn_probe3,1,82,NaN,bottle,airplane,10,0082_lp_dnn_10_airplane_10_n02690373_5427.png,n02690373_5427.png,0.0,-0.29849118,0.47637102,-0.54791033
alexnet_w1_mlp_simclrhn_probe3,1,83,NaN,bottle,dog,15,0083_lp_dnn_15_dog_10_n02107142_46045.png,n02107142_46045.png,0.0,-0.13800637,0.397343,-0.3785492
alexnet_w1_mlp_simclrhn_probe3,1,84,NaN,clock,keyboard,40,0084_lp_dnn_40_keyboard_10_n03085013_23793.png,n03085013_23793.png,0.0,-0.012404427,0.29399016,-0.21665369
alexnet_w1_mlp_simclrhn_probe3,1,85,NaN,clock,bicycle,3,0085_lp_dnn_3_bicycle_10_n03792782_12421.png,n03792782_12421.png,0.0,-0.26733306,0.53929967,-0.5703755
alexnet_w1_mlp_simclrhn_probe3,1,86,NaN,airplane,airplane,0,0086_lp_dnn_0_airplane_10_n02690373_1310.png,n02690373_1310.png,1.0,7.323328,4.929342,1.692804
alexnet_w1_mlp_simclrhn_probe3,1,87,NaN,bottle,oven,15,0087_lp_dnn_15_oven_10_n04111531_8793.png,n04111531_8793.png,0.0,-0.019206911,0.6449636,-0.46963948
alexnet_w1_mlp_simclrhn_probe3,1,88,NaN,bottle,airplane,5,0088_lp_dnn_5_airplane_10_n02690373_633.png,n02690373_633.png,0.0,-0.2825668,0.48656386,-0.5438575
alexnet_w1_mlp_simclrhn_probe3,1,89,NaN,bottle,clock,5,0089_lp_dnn_5_clock_10_n02708093_2307.png,n02708093_2307.png,0.0,0.17220967,0.3353537,-0.11536026
alexnet_w1_mlp_simclrhn_probe3,1,90,NaN,bottle,oven,10,0090_lp_dnn_10_oven_10_n04111531_13795.png,n04111531_13795.png,0.0,0.016413733,0.36776724,-0.24844447
alexnet_w1_mlp_simclrhn_probe3,1,91,NaN,oven,boat,3,0091_lp_dnn_3_boat_10_n03662601_1427.png,n03662601_1427.png,0.0,-0.18222427,0.70074666,-0.6243547
alexnet_w1_mlp_simclrhn_probe3,1,92,NaN,bottle,boat,5,0092_lp_dnn_5_boat_10_n04612504_15944.png,n04612504_15944.png,0.0,-0.28166065,0.4275901,-0.50151604
alexnet_w1_mlp_simclrhn_probe3,1,93,NaN,knife,airplane,40,0093_lp_dnn_40_airplane_10_n02690373_3561.png,n02690373_3561.png,0.0,0.033456847,0.27554822,-0.17118445
alexnet_w1_mlp_simclrhn_probe3,1,94,NaN,bottle,elephant,7,0094_lp_dnn_7_elephant_10_n02504458_1848.png,n02504458_1848.png,0.0,-0.33160523,0.49403262,-0.5838141
alexnet_w1_mlp_simclrhn_probe3,1,95,NaN,bottle,oven,5,0095_lp_dnn_5_oven_10_n04111531_4155.png,n04111531_4155.png,0.0,0.008555289,0.5153853,-0.35838297
alexnet_w1_mlp_simclrhn_probe3,1,96,NaN,truck,car,0,0096_lp_dnn_0_car_10_n03100240_8327.png,n03100240_8327.png,0.0,7.745577,8.159922,-0.292986
alexnet_w1_mlp_simclrhn_probe3,1,97,NaN,oven,chair,0,0097_lp_dnn_0_chair_10_n04429376_24319.png,n04429376_24319.png,0.0,2.633893,3.3011508,-0.4718225
alexnet_w1_mlp_simclrhn_probe3,1,98,NaN,keyboard,chair,3,0098_lp_dnn_3_chair_10_n03376595_5112.png,n03376595_5112.png,0.0,0.12185522,0.32637018,-0.1446139
alexnet_w1_mlp_simclrhn_probe3,1,99,NaN,bear,cat,1,0099_lp_dnn_1_cat_10_n02124075_2268.png,n02124075_2268.png,0.0,1.2802472,1.8836656,-0.42668122
alexnet_w1_mlp_simclrhn_probe3,1,100,NaN,bottle,boat,3,0100_lp_dnn_3_boat_10_n04273569_1137.png,n04273569_1137.png,0.0,-0.24519567,0.2989177,-0.38474628
alexnet_w1_mlp_simclrhn_probe3,1,101,NaN,chair,chair,1,0101_lp_dnn_1_chair_10_n02791124_15383.png,n02791124_15383.png,1.0,3.0812778,1.5091543,1.1116592
alexnet_w1_mlp_simclrhn_probe3,1,102,NaN,bottle,clock,15,0102_lp_dnn_15_clock_10_n04548280_8998.png,n04548280_8998.png,0.0,0.2808761,0.411434,-0.09231837
alexnet_w1_mlp_simclrhn_probe3,1,103,NaN,bear,dog,0,0103_lp_dnn_0_dog_10_n02097047_2800.png,n02097047_2800.png,0.0,0.53010535,2.1644678,-1.1556689
alexnet_w1_mlp_simclrhn_probe3,1,104,NaN,bottle,bicycle,15,0104_lp_dnn_15_bicycle_10_n03792782_18294.png,n03792782_18294.png,0.0,-0.25085756,0.27370894,-0.37092456
alexnet_w1_mlp_simclrhn_probe3,1,105,NaN,elephant,elephant,0,0105_lp_dnn_0_elephant_10_n02504013_24486.png,n02504013_24486.png,1.0,3.9397333,1.9705132,1.3924489
alexnet_w1_mlp_simclrhn_probe3,1,106,NaN,bottle,airplane,7,0106_lp_dnn_7_airplane_10_n02690373_2923.png,n02690373_2923.png,0.0,-0.29016858,0.41017967,-0.49522102
alexnet_w1_mlp_simclrhn_probe3,1,107,NaN,bottle,airplane,3,0107_lp_dnn_3_airplane_10_n02690373_15392.png,n02690373_15392.png,0.0,-0.055592813,0.37220812,-0.30250093
alexnet_w1_mlp_simclrhn_probe3,1,108,NaN,bottle,oven,5,0108_lp_dnn_5_oven_10_n04111531_6080.png,n04111531_6080.png,0.0,0.14310725,0.6993351,-0.3933125
alexnet_w1_mlp_simclrhn_probe3,1,109,NaN,bottle,bear,15,0109_lp_dnn_15_bear_10_n02134084_22736.png,n02134084_22736.png,0.0,-0.14540143,0.34093475,-0.34389162
alexnet_w1_mlp_simclrhn_probe3,1,110,NaN,knife,knife,1,0110_lp_dnn_1_knife_10_n03041632_33326.png,n03041632_33326.png,1.0,0.9348341,0.20498204,0.51608336
alexnet_w1_mlp_simclrhn_probe3,1,111,NaN,clock,truck,40,0111_lp_dnn_40_truck_10_n04467665_66876.png,n04467665_66876.png,0.0,-0.279015,0.25194564,-0.3754459
alexnet_w1_mlp_simclrhn_probe3,1,112,NaN,knife,truck,40,0112_lp_dnn_40_truck_10_n03796401_10234.png,n03796401_10234.png,0.0,-0.2971992,0.27249584,-0.4028352
alexnet_w1_mlp_simclrhn_probe3,1,113,NaN,bottle,bicycle,7,0113_lp_dnn_7_bicycle_10_n03792782_5416.png,n03792782_5416.png,0.0,-0.28174168,0.29379815,-0.40696812
alexnet_w1_mlp_simclrhn_probe3,1,114,NaN,bottle,knife,7,0114_lp_dnn_7_knife_10_n03041632_25772.png,n03041632_25772.png,0.0,0.16225019,0.3919911,-0.16245136
alexnet_w1_mlp_simclrhn_probe3,1,115,NaN,bottle,bicycle,10,0115_lp_dnn_10_bicycle_10_n03792782_7108.png,n03792782_7108.png,0.0,-0.27418357,0.32323408,-0.42243809
alexnet_w1_mlp_simclrhn_probe3,1,116,NaN,chair,chair,0,0116_lp_dnn_0_chair_10_n03376595_1981.png,n03376595_1981.png,1.0,3.8564816,2.3662915,1.0537235
alexnet_w1_mlp_simclrhn_probe3,1,117,NaN,bottle,oven,15,0117_lp_dnn_15_oven_10_n04111531_6508.png,n04111531_6508.png,0.0,0.0251831,0.50532335,-0.3395104
alexnet_w1_mlp_simclrhn_probe3,1,118,NaN,bottle,bird,15,0118_lp_dnn_15_bird_10_n01843383_2843.png,n01843383_2843.png,0.0,0.012347471,0.34478077,-0.23506585
alexnet_w1_mlp_simclrhn_probe3,1,119,NaN,bottle,cat,5,0119_lp_dnn_5_cat_10_n02123597_5887.png,n02123597_5887.png,0.0,-0.16522346,0.21069872,-0.26581714
alexnet_w1_mlp_simclrhn_probe3,1,120,NaN,bottle,clock,40,0120_lp_dnn_40_clock_10_n04548280_9801.png,n04548280_9801.png,0.0,0.29707575,0.3149065,-0.012608251
alexnet_w1_mlp_simclrhn_probe3,1,121,NaN,bird,bird,1,0121_lp_dnn_1_bird_10_n01530575_10332.png,n01530575_10332.png,1.0,3.1441379,0.82039976,1.643131
alexnet_w1_mlp_simclrhn_probe3,1,122,NaN,bottle,elephant,15,0122_lp_dnn_15_elephant_10_n02504013_5887.png,n02504013_5887.png,0.0,-0.22743744,0.24945435,-0.33721343
alexnet_w1_mlp_simclrhn_probe3,1,123,NaN,cat,cat,3,0123_lp_dnn_3_cat_10_n02124075_8693.png,n02124075_8693.png,1.0,0.5669295,0.4337482,0.094173424
alexnet_w1_mlp_simclrhn_probe3,1,124,NaN,bottle,boat,15,0124_lp_dnn_15_boat_10_n04612504_26151.png,n04612504_26151.png,0.0,-0.25091258,0.4255581,-0.478337
alexnet_w1_mlp_simclrhn_probe3,1,125,NaN,bottle,cat,7,0125_lp_dnn_7_cat_10_n02125311_53412.png,n02125311_53412.png,0.0,-0.16285126,0.5314241,-0.49092683
alexnet_w1_mlp_simclrhn_probe3,1,126,NaN,bottle,knife,7,0126_lp_dnn_7_knife_10_n03041632_46914.png,n03041632_46914.png,0.0,0.24839509,0.6260707,-0.26705697
alexnet_w1_mlp_simclrhn_probe3,1,127,NaN,bottle,bicycle,15,0127_lp_dnn_15_bicycle_10_n03792782_5629.png,n03792782_5629.png,0.0,-0.25978935,0.29893994,-0.39508128
alexnet_w1_mlp_simclrhn_probe3,1,128,NaN,knife,bottle,40,0128_lp_dnn_40_bottle_10_n02823428_79.png,n02823428_79.png,0.0,0.2317432,0.25269508,-0.014815218
alexnet_w1_mlp_simclrhn_probe3,1,129,NaN,dog,dog,3,0129_lp_dnn_3_dog_10_n02101006_5024.png,n02101006_5024.png,1.0,0.266551,0.23061769,0.025408681
alexnet_w1_mlp_simclrhn_probe3,1,130,NaN,bottle,oven,15,0130_lp_dnn_15_oven_10_n04111531_2350.png,n04111531_2350.png,0.0,-0.019130204,0.4357924,-0.32167885
alexnet_w1_mlp_simclrhn_probe3,1,131,NaN,bottle,airplane,7,0131_lp_dnn_7_airplane_10_n02690373_4839.png,n02690373_4839.png,0.0,-0.32806683,0.523846,-0.6023933
alexnet_w1_mlp_simclrhn_probe3,1,132,NaN,bottle,car,5,0132_lp_dnn_5_car_10_n03100240_2075.png,n03100240_2075.png,0.0,-0.3867155,0.6631381,-0.74235857
alexnet_w1_mlp_simclrhn_probe3,1,133,NaN,bottle,cat,5,0133_lp_dnn_5_cat_10_n02123159_3729.png,n02123159_3729.png,0.0,-0.17181323,0.644679,-0.5773472
alexnet_w1_mlp_simclrhn_probe3,1,134,NaN,bottle,knife,10,0134_lp_dnn_10_knife_10_n03041632_3079.png,n03041632_3079.png,0.0,0.10138568,0.56635684,-0.32878426
alexnet_w1_mlp_simclrhn_probe3,1,135,NaN,bottle,elephant,15,0135_lp_dnn_15_elephant_10_n02504013_2052.png,n02504013_2052.png,0.0,-0.23864025,0.29049256,-0.37415344
alexnet_w1_mlp_simclrhn_probe3,1,136,NaN,knife,cat,40,0136_lp_dnn_40_cat_10_n02123159_3724.png,n02123159_3724.png,0.0,-0.03851604,0.23264645,-0.19174083
alexnet_w1_mlp_simclrhn_probe3,1,137,NaN,bottle,keyboard,15,0137_lp_dnn_15_keyboard_10_n03085013_7955.png,n03085013_7955.png,0.0,0.19612367,0.48474547,-0.20408642
alexnet_w1_mlp_simclrhn_probe3,1,138,NaN,knife,bird,40,0138_lp_dnn_40_bird_10_n02056570_9872.png,n02056570_9872.png,0.0,-0.05769033,0.25613078,-0.22190504
alexnet_w1_mlp_simclrhn_probe3,1,139,NaN,bottle,cat,10,0139_lp_dnn_10_cat_10_n02125311_44401.png,n02125311_44401.png,0.0,-0.11717407,0.20408548,-0.22716482
alexnet_w1_mlp_simclrhn_probe3,1,140,NaN,bottle,airplane,10,0140_lp_dnn_10_airplane_10_n02690373_10657.png,n02690373_10657.png,0.0,-0.21550673,0.45268825,-0.47248524
alexnet_w1_mlp_simclrhn_probe3,1,141,NaN,knife,bird,5,0141_lp_dnn_5_bird_10_n02025239_7919.png,n02025239_7919.png,0.0,-0.007741215,0.1738233,-0.1283855
alexnet_w1_mlp_simclrhn_probe3,1,142,NaN,knife,bear,40,0142_lp_dnn_40_bear_10_n02134084_23165.png,n02134084_23165.png,0.0,-0.11341448,0.31349418,-0.30187002
alexnet_w1_mlp_simclrhn_probe3,1,143,NaN,clock,knife,40,0143_lp_dnn_40_knife_10_n03041632_28658.png,n03041632_28658.png,0.0,0.27348858,0.29200304,-0.013091696
alexnet_w1_mlp_simclrhn_probe3,1,144,NaN,bottle,keyboard,5,0144_lp_dnn_5_keyboard_10_n04505470_4371.png,n04505470_4371.png,0.0,0.6614537,0.74581105,-0.059649635
alexnet_w1_mlp_simclrhn_probe3,1,145,NaN,keyboard,keyboard,0,0145_lp_dnn_0_keyboard_10_n03085013_14237.png,n03085013_14237.png,1.0,3.7628531,2.4910893,0.8992728
alexnet_w1_mlp_simclrhn_probe3,1,146,NaN,bottle,clock,0,0146_lp_dnn_0_clock_10_n03196217_6163.png,n03196217_6163.png,0.0,1.6210222,1.7113781,-0.063891254
alexnet_w1_mlp_simclrhn_probe3,1,147,NaN,bottle,chair,15,0147_lp_dnn_15_chair_10_n02791124_3857.png,n02791124_3857.png,0.0,-0.14917293,0.3698721,-0.36702025
alexnet_w1_mlp_simclrhn_probe3,1,148,NaN,clock,truck,40,0148_lp_dnn_40_truck_10_n03417042_20650.png,n03417042_20650.png,0.0,-0.2921496,0.2741044,-0.40040207
alexnet_w1_mlp_simclrhn_probe3,1,149,NaN,truck,truck,0,0149_lp_dnn_0_truck_10_n04467665_17101.png,n04467665_17101.png,1.0,9.839442,0.8307058,6.3701386
alexnet_w1_mlp_simclrhn_probe3,1,150,NaN,chair,chair,1,0150_lp_dnn_1_chair_10_n04429376_19354.png,n04429376_19354.png,1.0,2.0154445,0.6289294,0.9804143
alexnet_w1_mlp_simclrhn_probe3,1,151,NaN,knife,knife,0,0151_lp_dnn_0_knife_10_n03041632_42156.png,n03041632_42156.png,1.0,3.05483,0.07446568,2.107436
alexnet_w1_mlp_simclrhn_probe3,1,152,NaN,car,car,1,0152_lp_dnn_1_car_10_n04285008_39.png,n04285008_39.png,1.0,6.7180705,2.4346497,3.0288358
alexnet_w1_mlp_simclrhn_probe3,1,153,NaN,boat,boat,1,0153_lp_dnn_1_boat_10_n03662601_1319.png,n03662601_1319.png,1.0,5.530949,0.53727025,3.5310643
alexnet_w1_mlp_simclrhn_probe3,1,154,NaN,bottle,truck,7,0154_lp_dnn_7_truck_10_n03796401_4119.png,n03796401_4119.png,0.0,-0.33999914,0.6596137,-0.70683306
alexnet_w1_mlp_simclrhn_probe3,1,155,NaN,bottle,bottle,15,0155_lp_dnn_15_bottle_10_n03937543_2333.png,n03937543_2333.png,1.0,0.38568714,0.23204589,0.108640775
alexnet_w1_mlp_simclrhn_probe3,1,156,NaN,bottle,bottle,3,0156_lp_dnn_3_bottle_10_n04591713_7134.png,n04591713_7134.png,1.0,1.4334303,0.60743016,0.5840703
alexnet_w1_mlp_simclrhn_probe3,1,157,NaN,dog,dog,0,0157_lp_dnn_0_dog_10_n02107312_3673.png,n02107312_3673.png,1.0,3.0428033,1.4384208,1.1344697
alexnet_w1_mlp_simclrhn_probe3,1,158,NaN,bottle,oven,3,0158_lp_dnn_3_oven_10_n04111531_8373.png,n04111531_8373.png,0.0,0.43411118,0.58547884,-0.1070331
alexnet_w1_mlp_simclrhn_probe3,1,159,NaN,oven,car,3,0159_lp_dnn_3_car_10_n03100240_13707.png,n03100240_13707.png,0.0,0.11886106,0.58454597,-0.32928896
alexnet_w1_mlp_simclrhn_probe3,1,160,NaN,bottle,chair,1,0160_lp_dnn_1_chair_10_n02791124_241.png,n02791124_241.png,0.0,0.9716861,1.6231123,-0.46062788
alexnet_w1_mlp_simclrhn_probe3,1,161,NaN,bottle,airplane,7,0161_lp_dnn_7_airplane_10_n02690373_5628.png,n02690373_5628.png,0.0,-0.37010378,0.6011449,-0.6867765
alexnet_w1_mlp_simclrhn_probe3,1,162,NaN,bottle,boat,40,0162_lp_dnn_40_boat_10_n02951358_1461.png,n02951358_1461.png,0.0,-0.17180426,0.257808,-0.30378175
alexnet_w1_mlp_simclrhn_probe3,1,163,NaN,keyboard,keyboard,7,0163_lp_dnn_7_keyboard_10_n04505470_4501.png,n04505470_4501.png,1.0,0.99500453,0.50679296,0.3452177
alexnet_w1_mlp_simclrhn_probe3,1,164,NaN,bird,bird,1,0164_lp_dnn_1_bird_10_n02033041_11415.png,n02033041_11415.png,1.0,3.6400156,0.19727734,2.4343836
alexnet_w1_mlp_simclrhn_probe3,1,165,NaN,oven,knife,1,0165_lp_dnn_1_knife_10_n03041632_6446.png,n03041632_6446.png,0.0,1.2845854,1.3284312,-0.031003729
alexnet_w1_mlp_simclrhn_probe3,1,166,NaN,bird,bird,0,0166_lp_dnn_0_bird_10_n02011460_3892.png,n02011460_3892.png,1.0,2.844112,0.465967,1.6816025
alexnet_w1_mlp_simclrhn_probe3,1,167,NaN,bear,cat,1,0167_lp_dnn_1_cat_10_n02125311_3174.png,n02125311_3174.png,0.0,0.4407538,2.0826516,-1.160997
alexnet_w1_mlp_simclrhn_probe3,1,168,NaN,bottle,dog,10,0168_lp_dnn_10_dog_10_n02088364_7448.png,n02088364_7448.png,0.0,-0.15646632,0.40446502,-0.39663836
alexnet_w1_mlp_simclrhn_probe3,1,169,NaN,cat,cat,1,0169_lp_dnn_1_cat_10_n02123394_4299.png,n02123394_4299.png,1.0,1.4961015,0.42560318,0.75695664
alexnet_w1_mlp_simclrhn_probe3,1,170,NaN,bottle,keyboard,15,0170_lp_dnn_15_keyboard_10_n03085013_23731.png,n03085013_23731.png,0.0,0.091494456,0.24614581,-0.109355025
alexnet_w1_mlp_simclrhn_probe3,1,171,NaN,bottle,knife,5,0171_lp_dnn_5_knife_10_n03041632_29285.png,n03041632_29285.png,0.0,0.11739654,0.58447796,-0.33027646
alexnet_w1_mlp_simclrhn_probe3,1,172,NaN,keyboard,keyboard,0,0172_lp_dnn_0_keyboard_10_n03085013_12164.png,n03085013_12164.png,1.0,11.1263895,1.3825788,6.8899145
alexnet_w1_mlp_simclrhn_probe3,1,173,NaN,bottle,bird,5,0173_lp_dnn_5_bird_10_n01582220_9023.png,n01582220_9023.png,0.0,-0.10566851,0.8105615,-0.64787245
alexnet_w1_mlp_simclrhn_probe3,1,174,NaN,bottle,bottle,3,0174_lp_dnn_3_bottle_10_n03983396_12728.png,n03983396_12728.png,1.0,0.46386936,0.29306376,0.1207778
alexnet_w1_mlp_simclrhn_probe3,1,175,NaN,bottle,dog,7,0175_lp_dnn_7_dog_10_n02111277_50807.png,n02111277_50807.png,0.0,-0.13310467,0.46534222,-0.42316586
alexnet_w1_mlp_simclrhn_probe3,1,176,NaN,bottle,boat,5,0176_lp_dnn_5_boat_10_n04273569_2037.png,n04273569_2037.png,0.0,-0.37974972,0.5232281,-0.63850176
alexnet_w1_mlp_simclrhn_probe3,1,177,NaN,knife,keyboard,40,0177_lp_dnn_40_keyboard_10_n04505470_4672.png,n04505470_4672.png,0.0,-0.0729843,0.2925555,-0.2584757
alexnet_w1_mlp_simclrhn_probe3,1,178,NaN,bottle,boat,10,0178_lp_dnn_10_boat_10_n03662601_12034.png,n03662601_12034.png,0.0,-0.24335964,0.34814945,-0.4182601
alexnet_w1_mlp_simclrhn_probe3,1,179,NaN,bottle,airplane,15,0179_lp_dnn_15_airplane_10_n02690373_5845.png,n02690373_5845.png,0.0,-0.24044585,0.40784234,-0.45840898
alexnet_w1_mlp_simclrhn_probe3,1,180,NaN,bottle,truck,5,0180_lp_dnn_5_truck_10_n03417042_12128.png,n03417042_12128.png,0.0,-0.29880804,0.6849138,-0.6955964
alexnet_w1_mlp_simclrhn_probe3,1,181,NaN,bottle,keyboard,10,0181_lp_dnn_10_keyboard_10_n03085013_2432.png,n03085013_2432.png,0.0,0.49613705,0.7351447,-0.16900392
alexnet_w1_mlp_simclrhn_probe3,1,182,NaN,bottle,chair,5,0182_lp_dnn_5_chair_10_n03376595_9692.png,n03376595_9692.png,0.0,-0.08455078,0.42552924,-0.36068106
alexnet_w1_mlp_simclrhn_probe3,1,183,NaN,bottle,chair,3,0183_lp_dnn_3_chair_10_n03376595_12583.png,n03376595_12583.png,0.0,-0.15383571,0.3076861,-0.3263452
alexnet_w1_mlp_simclrhn_probe3,1,184,NaN,bicycle,bear,0,0184_lp_dnn_0_bear_10_n02133161_2135.png,n02133161_2135.png,0.0,0.859803,1.1249862,-0.1875128
alexnet_w1_mlp_simclrhn_probe3,1,185,NaN,bottle,airplane,10,0185_lp_dnn_10_airplane_10_n02690373_5176.png,n02690373_5176.png,0.0,-0.23575218,0.46228126,-0.4935842
alexnet_w1_mlp_simclrhn_probe3,1,186,NaN,elephant,elephant,0,0186_lp_dnn_0_elephant_10_n02504013_10990.png,n02504013_10990.png,1.0,2.1152034,0.9798907,0.8027873
alexnet_w1_mlp_simclrhn_probe3,1,187,NaN,bottle,boat,10,0187_lp_dnn_10_boat_10_n02951358_3155.png,n02951358_3155.png,0.0,-0.24307254,0.3822053,-0.44213822
alexnet_w1_mlp_simclrhn_probe3,1,188,NaN,knife,knife,1,0188_lp_dnn_1_knife_10_n03041632_2644.png,n03041632_2644.png,1.0,1.3928096,0.3516238,0.7362296
alexnet_w1_mlp_simclrhn_probe3,1,189,NaN,bottle,airplane,5,0189_lp_dnn_5_airplane_10_n02690373_5184.png,n02690373_5184.png,0.0,-0.4350588,0.7013151,-0.80353767
alexnet_w1_mlp_simclrhn_probe3,1,190,NaN,chair,chair,0,0190_lp_dnn_0_chair_10_n04099969_16161.png,n04099969_16161.png,1.0,1.859421,0.9204209,0.6639734
alexnet_w1_mlp_simclrhn_probe3,1,191,NaN,bottle,boat,10,0191_lp_dnn_10_boat_10_n03344393_5343.png,n03344393_5343.png,0.0,-0.27120548,0.44310325,-0.50509256
alexnet_w1_mlp_simclrhn_probe3,1,192,NaN,oven,oven,0,0192_lp_dnn_0_oven_10_n04111531_15052.png,n04111531_15052.png,1.0,6.252185,0.8569359,3.8150172
alexnet_w1_mlp_simclrhn_probe3,1,193,NaN,bottle,bicycle,15,0193_lp_dnn_15_bicycle_10_n02835271_317.png,n02835271_317.png,0.0,-0.2513745,0.27570972,-0.37270483
alexnet_w1_mlp_simclrhn_probe3,1,194,NaN,bird,bird,0,0194_lp_dnn_0_bird_10_n02002556_15721.png,n02002556_15721.png,1.0,2.1113632,0.514444,1.1291924
alexnet_w1_mlp_simclrhn_probe3,1,195,NaN,bottle,chair,5,0195_lp_dnn_5_chair_10_n03376595_11280.png,n03376595_11280.png,0.0,-0.16131273,0.42335725,-0.4134241
alexnet_w1_mlp_simclrhn_probe3,1,196,NaN,bottle,keyboard,3,0196_lp_dnn_3_keyboard_10_n04505470_4621.png,n04505470_4621.png,0.0,0.39276916,0.42878744,-0.025468772
alexnet_w1_mlp_simclrhn_probe3,1,197,NaN,bottle,boat,7,0197_lp_dnn_7_boat_10_n03662601_6042.png,n03662601_6042.png,0.0,-0.3102388,0.4423115,-0.53213346
alexnet_w1_mlp_simclrhn_probe3,1,198,NaN,dog,dog,1,0198_lp_dnn_1_dog_10_n02086646_2810.png,n02086646_2810.png,1.0,1.4050854,1.3866857,0.013010563
alexnet_w1_mlp_simclrhn_probe3,1,199,NaN,bottle,elephant,15,0199_lp_dnn_15_elephant_10_n02504458_7835.png,n02504458_7835.png,0.0,-0.24023268,0.27916428,-0.36726913
alexnet_w1_mlp_simclrhn_probe3,1,200,NaN,bottle,cat,15,0200_lp_dnn_15_cat_10_n02123159_6281.png,n02123159_6281.png,0.0,-0.09599719,0.3285133,-0.30017424
alexnet_w1_mlp_simclrhn_probe3,1,201,NaN,bottle,knife,5,0201_lp_dnn_5_knife_10_n03041632_1661.png,n03041632_1661.png,0.0,0.054458365,0.5740751,-0.36742452
alexnet_w1_mlp_simclrhn_probe3,1,202,NaN,clock,clock,1,0202_lp_dnn_1_clock_10_n02708093_2806.png,n02708093_2806.png,1.0,2.4817488,0.78449684,1.2001384
alexnet_w1_mlp_simclrhn_probe3,1,203,NaN,boat,boat,1,0203_lp_dnn_1_boat_10_n04273569_1201.png,n04273569_1201.png,1.0,5.8996444,2.1388342,2.6592944
alexnet_w1_mlp_simclrhn_probe3,1,204,NaN,knife,bird,40,0204_lp_dnn_40_bird_10_n01614925_13283.png,n01614925_13283.png,0.0,-0.06033292,0.2606328,-0.22695705
alexnet_w1_mlp_simclrhn_probe3,1,205,NaN,knife,car,40,0205_lp_dnn_40_car_10_n02814533_51701.png,n02814533_51701.png,0.0,-0.28643277,0.28034952,-0.4007756
alexnet_w1_mlp_simclrhn_probe3,1,206,NaN,bottle,chair,7,0206_lp_dnn_7_chair_10_n04099969_34325.png,n04099969_34325.png,0.0,-0.12745814,0.31339076,-0.31172726
alexnet_w1_mlp_simclrhn_probe3,1,207,NaN,airplane,truck,0,0207_lp_dnn_0_truck_10_n04467665_71305.png,n04467665_71305.png,0.0,1.5561254,2.79199,-0.87388825
alexnet_w1_mlp_simclrhn_probe3,1,208,NaN,bottle,boat,5,0208_lp_dnn_5_boat_10_n03344393_5916.png,n03344393_5916.png,0.0,-0.24342747,0.49958733,-0.5253908
alexnet_w1_mlp_simclrhn_probe3,1,209,NaN,bottle,car,7,0209_lp_dnn_7_car_10_n02814533_28783.png,n02814533_28783.png,0.0,-0.3642489,0.4024291,-0.5421232
alexnet_w1_mlp_simclrhn_probe3,1,210,NaN,bottle,boat,15,0210_lp_dnn_15_boat_10_n03662601_16825.png,n03662601_16825.png,0.0,-0.23455027,0.32756254,-0.39747378
alexnet_w1_mlp_simclrhn_probe3,1,211,NaN,dog,dog,0,0211_lp_dnn_0_dog_10_n02100583_10960.png,n02100583_10960.png,1.0,1.5162536,1.0116568,0.35680383
alexnet_w1_mlp_simclrhn_probe3,1,212,NaN,bottle,elephant,10,0212_lp_dnn_10_elephant_10_n02504458_4587.png,n02504458_4587.png,0.0,-0.24470015,0.31183237,-0.39352793
alexnet_w1_mlp_simclrhn_probe3,1,213,NaN,bottle,bottle,10,0213_lp_dnn_10_bottle_10_n03983396_12670.png,n03983396_12670.png,1.0,0.330088,0.22418597,0.074884035
alexnet_w1_mlp_simclrhn_probe3,1,214,NaN,oven,bicycle,3,0214_lp_dnn_3_bicycle_10_n02835271_18205.png,n02835271_18205.png,0.0,0.06927507,0.38652226,-0.22432764
alexnet_w1_mlp_simclrhn_probe3,1,215,NaN,knife,truck,40,0215_lp_dnn_40_truck_10_n04467665_67527.png,n04467665_67527.png,0.0,-0.27922374,0.31877014,-0.4228455
alexnet_w1_mlp_simclrhn_probe3,1,216,NaN,bottle,keyboard,10,0216_lp_dnn_10_keyboard_10_n03085013_4374.png,n03085013_4374.png,0.0,0.18798152,0.44676775,-0.18298951
alexnet_w1_mlp_simclrhn_probe3,1,217,NaN,clock,clock,3,0217_lp_dnn_3_clock_10_n03196217_3086.png,n03196217_3086.png,1.0,0.76465154,0.75019896,0.010219515
alexnet_w1_mlp_simclrhn_probe3,1,218,NaN,bottle,clock,15,0218_lp_dnn_15_clock_10_n04548280_254.png,n04548280_254.png,0.0,0.2914101,0.36053887,-0.04888143
alexnet_w1_mlp_simclrhn_probe3,1,219,NaN,bottle,bicycle,15,0219_lp_dnn_15_bicycle_10_n02835271_21707.png,n02835271_21707.png,0.0,-0.28989878,0.36882737,-0.46578974
alexnet_w1_mlp_simclrhn_probe3,1,220,NaN,bottle,bird,15,0220_lp_dnn_15_bird_10_n01819313_6340.png,n01819313_6340.png,0.0,0.0011129812,0.22361717,-0.15733422
alexnet_w1_mlp_simclrhn_probe3,1,221,NaN,bottle,bicycle,5,0221_lp_dnn_5_bicycle_10_n02835271_10556.png,n02835271_10556.png,0.0,-0.35396773,0.35190722,-0.49912894
alexnet_w1_mlp_simclrhn_probe3,1,222,NaN,bottle,chair,15,0222_lp_dnn_15_chair_10_n04099969_3312.png,n04099969_3312.png,0.0,-0.12623975,0.3169823,-0.3134053
alexnet_w1_mlp_simclrhn_probe3,1,223,NaN,bottle,car,15,0223_lp_dnn_15_car_10_n04285008_2781.png,n04285008_2781.png,0.0,-0.3441848,0.32065412,-0.47011212
alexnet_w1_mlp_simclrhn_probe3,1,224,NaN,clock,clock,3,0224_lp_dnn_3_clock_10_n04548280_21263.png,n04548280_21263.png,1.0,1.7126511,0.29644737,1.0014073
alexnet_w1_mlp_simclrhn_probe3,1,225,NaN,bottle,car,15,0225_lp_dnn_15_car_10_n02814533_9785.png,n02814533_9785.png,0.0,-0.34053615,0.35917825,-0.49477282
alexnet_w1_mlp_simclrhn_probe3,1,226,NaN,truck,truck,0,0226_lp_dnn_0_truck_10_n03417042_24100.png,n03417042_24100.png,1.0,7.3558106,4.4068437,2.0852346
alexnet_w1_mlp_simclrhn_probe3,1,227,NaN,bottle,dog,15,0227_lp_dnn_15_dog_10_n02091244_10926.png,n02091244_10926.png,0.0,-0.13480686,0.3314832,-0.32971686
alexnet_w1_mlp_simclrhn_probe3,1,228,NaN,clock,bottle,40,0228_lp_dnn_40_bottle_10_n04591713_2537.png,n04591713_2537.png,0.0,0.24670246,0.26332954,-0.011757117
alexnet_w1_mlp_simclrhn_probe3,1,229,NaN,bottle,bear,10,0229_lp_dnn_10_bear_10_n02134418_1311.png,n02134418_1311.png,0.0,-0.21635269,0.5007734,-0.5070847
alexnet_w1_mlp_simclrhn_probe3,1,230,NaN,oven,bicycle,3,0230_lp_dnn_3_bicycle_10_n03792782_210.png,n03792782_210.png,0.0,-0.17370684,0.19039798,-0.25746098
alexnet_w1_mlp_simclrhn_probe3,1,231,NaN,cat,cat,3,0231_lp_dnn_3_cat_10_n02123045_5371.png,n02123045_5371.png,1.0,1.0099118,0.3222856,0.48622516
alexnet_w1_mlp_simclrhn_probe3,1,232,NaN,bottle,boat,15,0232_lp_dnn_15_boat_10_n04612504_19111.png,n04612504_19111.png,0.0,-0.2263463,0.40886348,-0.44916117
alexnet_w1_mlp_simclrhn_probe3,1,233,NaN,knife,clock,1,0233_lp_dnn_1_clock_10_n03196217_7836.png,n03196217_7836.png,0.0,1.0568378,1.1197277,-0.0444699
alexnet_w1_mlp_simclrhn_probe3,1,234,NaN,dog,dog,0,0234_lp_dnn_0_dog_10_n02086910_9742.png,n02086910_9742.png,1.0,1.770857,0.9410047,0.5867942
alexnet_w1_mlp_simclrhn_probe3,1,235,NaN,bottle,bottle,1,0235_lp_dnn_1_bottle_10_n03937543_4723.png,n03937543_4723.png,1.0,0.957063,0.59905565,0.25314945
alexnet_w1_mlp_simclrhn_probe3,1,236,NaN,bottle,dog,5,0236_lp_dnn_5_dog_10_n02111129_6495.png,n02111129_6495.png,0.0,-0.12177633,0.41822115,-0.38183588
alexnet_w1_mlp_simclrhn_probe3,1,237,NaN,knife,knife,1,0237_lp_dnn_1_knife_10_n03041632_3101.png,n03041632_3101.png,1.0,1.6079061,0.89188796,0.5063013
alexnet_w1_mlp_simclrhn_probe3,1,238,NaN,cat,bear,0,0238_lp_dnn_0_bear_10_n02134084_7373.png,n02134084_7373.png,0.0,1.3878462,2.0599875,-0.4752757
alexnet_w1_mlp_simclrhn_probe3,1,239,NaN,bottle,bird,7,0239_lp_dnn_7_bird_10_n02009229_11916.png,n02009229_11916.png,0.0,-0.030454705,0.17541288,-0.14557037
alexnet_w1_mlp_simclrhn_probe3,1,240,NaN,bottle,oven,7,0240_lp_dnn_7_oven_10_n04111531_14208.png,n04111531_14208.png,0.0,0.08003317,0.5079409,-0.30257645
alexnet_w1_mlp_simclrhn_probe3,1,241,NaN,bottle,bird,3,0241_lp_dnn_3_bird_10_n01601694_20287.png,n01601694_20287.png,0.0,0.0033755442,0.48690027,-0.34190363
alexnet_w1_mlp_simclrhn_probe3,1,242,NaN,bottle,oven,15,0242_lp_dnn_15_oven_10_n04111531_5519.png,n04111531_5519.png,0.0,0.041514643,0.3147859,-0.19323197
alexnet_w1_mlp_simclrhn_probe3,1,243,NaN,car,car,1,0243_lp_dnn_1_car_10_n04285008_10893.png,n04285008_10893.png,1.0,4.6515784,2.7338183,1.3560612
alexnet_w1_mlp_simclrhn_probe3,1,244,NaN,clock,boat,40,0244_lp_dnn_40_boat_10_n02951358_16196.png,n02951358_16196.png,0.0,-0.17363593,0.2671527,-0.31168464
alexnet_w1_mlp_simclrhn_probe3,1,245,NaN,bottle,clock,7,0245_lp_dnn_7_clock_10_n04548280_532.png,n04548280_532.png,0.0,0.2701238,0.4426011,-0.12195987
alexnet_w1_mlp_simclrhn_probe3,1,246,NaN,keyboard,keyboard,0,0246_lp_dnn_0_keyboard_10_n04505470_73.png,n04505470_73.png,1.0,13.643175,1.5902818,8.522683
alexnet_w1_mlp_simclrhn_probe3,1,247,NaN,bottle,bottle,10,0247_lp_dnn_10_bottle_10_n02823428_6766.png,n02823428_6766.png,1.0,0.2793037,0.15791792,0.085832715
alexnet_w1_mlp_simclrhn_probe3,1,248,NaN,bottle,boat,15,0248_lp_dnn_15_boat_10_n02951358_26579.png,n02951358_26579.png,0.0,-0.18874499,0.24433586,-0.30623442
alexnet_w1_mlp_simclrhn_probe3,1,249,NaN,bottle,dog,10,0249_lp_dnn_10_dog_10_n02085782_7651.png,n02085782_7651.png,0.0,-0.13722438,0.45773393,-0.42069906
alexnet_w1_mlp_simclrhn_probe3,1,250,NaN,clock,clock,3,0250_lp_dnn_3_clock_10_n02708093_1747.png,n02708093_1747.png,1.0,1.1908351,0.8370709,0.2501491
alexnet_w1_mlp_simclrhn_probe3,1,251,NaN,bottle,truck,3,0251_lp_dnn_3_truck_10_n04467665_19645.png,n04467665_19645.png,0.0,-0.2508825,0.5954767,-0.59846634
alexnet_w1_mlp_simclrhn_probe3,1,252,NaN,bottle,airplane,15,0252_lp_dnn_15_airplane_10_n02690373_17262.png,n02690373_17262.png,0.0,-0.19144413,0.36576054,-0.3940032
alexnet_w1_mlp_simclrhn_probe3,1,253,NaN,elephant,elephant,0,0253_lp_dnn_0_elephant_10_n02504458_10428.png,n02504458_10428.png,1.0,4.719973,1.8176087,2.0522814
alexnet_w1_mlp_simclrhn_probe3,1,254,NaN,bottle,cat,7,0254_lp_dnn_7_cat_10_n02124075_9149.png,n02124075_9149.png,0.0,-0.15847787,0.6082855,-0.5421836
alexnet_w1_mlp_simclrhn_probe3,1,255,NaN,bottle,elephant,10,0255_lp_dnn_10_elephant_10_n02504013_7923.png,n02504013_7923.png,0.0,-0.3500865,0.4941466,-0.5969629
alexnet_w1_mlp_simclrhn_probe3,1,256,NaN,bottle,cat,3,0256_lp_dnn_3_cat_10_n02123394_4789.png,n02123394_4789.png,0.0,0.047896553,0.2597626,-0.14981191
alexnet_w1_mlp_simclrhn_probe3,1,257,NaN,bottle,clock,5,0257_lp_dnn_5_clock_10_n03196217_2530.png,n03196217_2530.png,0.0,0.54588515,1.0634443,-0.36596957
alexnet_w1_mlp_simclrhn_probe3,1,258,NaN,bottle,airplane,5,0258_lp_dnn_5_airplane_10_n02690373_6992.png,n02690373_6992.png,0.0,-0.332833,0.4238458,-0.5350527
alexnet_w1_mlp_simclrhn_probe3,1,259,NaN,keyboard,airplane,3,0259_lp_dnn_3_airplane_10_n02690373_5056.png,n02690373_5056.png,0.0,-0.010210786,0.6382991,-0.45856577
alexnet_w1_mlp_simclrhn_probe3,1,260,NaN,bear,bear,1,0260_lp_dnn_1_bear_10_n02134418_2231.png,n02134418_2231.png,1.0,3.2059045,0.6629117,1.7981675
alexnet_w1_mlp_simclrhn_probe3,1,261,NaN,bottle,truck,10,0261_lp_dnn_10_truck_10_n03796401_180.png,n03796401_180.png,0.0,-0.33418,0.58888096,-0.6527027
alexnet_w1_mlp_simclrhn_probe3,1,262,NaN,knife,bicycle,3,0262_lp_dnn_3_bicycle_10_n02835271_3246.png,n02835271_3246.png,0.0,-0.12945889,0.15636797,-0.20211011
alexnet_w1_mlp_simclrhn_probe3,1,263,NaN,truck,truck,3,0263_lp_dnn_3_truck_10_n03796401_599.png,n03796401_599.png,1.0,0.3567459,0.32372466,0.023349544
alexnet_w1_mlp_simclrhn_probe3,1,264,NaN,bottle,oven,7,0264_lp_dnn_7_oven_10_n04111531_13862.png,n04111531_13862.png,0.0,-0.010209456,0.7985431,-0.57187444
alexnet_w1_mlp_simclrhn_probe3,1,265,NaN,oven,oven,0,0265_lp_dnn_0_oven_10_n04111531_10420.png,n04111531_10420.png,1.0,2.8908916,2.884797,0.004309431
alexnet_w1_mlp_simclrhn_probe3,1,266,NaN,bottle,car,10,0266_lp_dnn_10_car_10_n03100240_15531.png,n03100240_15531.png,0.0,-0.33706036,0.21521522,-0.39051783
alexnet_w1_mlp_simclrhn_probe3,1,267,NaN,bottle,dog,7,0267_lp_dnn_7_dog_10_n02099849_3128.png,n02099849_3128.png,0.0,-0.14739962,0.47207648,-0.43803576
alexnet_w1_mlp_simclrhn_probe3,1,268,NaN,bottle,chair,5,0268_lp_dnn_5_chair_10_n02791124_3222.png,n02791124_3222.png,0.0,-0.3872317,0.7475783,-0.8024318
alexnet_w1_mlp_simclrhn_probe3,1,269,NaN,keyboard,keyboard,5,0269_lp_dnn_5_keyboard_10_n04505470_8364.png,n04505470_8364.png,1.0,0.9575279,0.57431495,0.27097246
alexnet_w1_mlp_simclrhn_probe3,1,270,NaN,clock,clock,0,0270_lp_dnn_0_clock_10_n04548280_9294.png,n04548280_9294.png,1.0,2.4055278,0.52386576,1.3305361
alexnet_w1_mlp_simclrhn_probe3,1,271,NaN,bottle,bottle,7,0271_lp_dnn_7_bottle_10_n03937543_3358.png,n03937543_3358.png,1.0,0.62846625,0.36625987,0.1854079
alexnet_w1_mlp_simclrhn_probe3,1,272,NaN,bottle,knife,7,0272_lp_dnn_7_knife_10_n03041632_2058.png,n03041632_2058.png,0.0,0.2616784,0.4634893,-0.14270185
alexnet_w1_mlp_simclrhn_probe3,1,273,NaN,boat,elephant,1,0273_lp_dnn_1_elephant_10_n02504458_5671.png,n02504458_5671.png,0.0,0.34008545,1.8395656,-1.0602927
alexnet_w1_mlp_simclrhn_probe3,1,274,NaN,bottle,chair,10,0274_lp_dnn_10_chair_10_n02791124_6281.png,n02791124_6281.png,0.0,-0.18585654,0.4461134,-0.44687024
alexnet_w1_mlp_simclrhn_probe3,1,275,NaN,bottle,cat,15,0275_lp_dnn_15_cat_10_n02125311_44920.png,n02125311_44920.png,0.0,-0.08270071,0.38935143,-0.33379126
alexnet_w1_mlp_simclrhn_probe3,1,276,NaN,bottle,airplane,5,0276_lp_dnn_5_airplane_10_n02690373_2981.png,n02690373_2981.png,0.0,-0.23965552,0.47442314,-0.5049299
alexnet_w1_mlp_simclrhn_probe3,1,277,NaN,chair,knife,1,0277_lp_dnn_1_knife_10_n03041632_2468.png,n03041632_2468.png,0.0,0.4347505,0.5836103,-0.105259776
alexnet_w1_mlp_simclrhn_probe3,1,278,NaN,oven,clock,1,0278_lp_dnn_1_clock_10_n02708093_3605.png,n02708093_3605.png,0.0,0.5286778,0.8904623,-0.25582024
alexnet_w1_mlp_simclrhn_probe3,1,279,NaN,bicycle,bicycle,1,0279_lp_dnn_1_bicycle_10_n02835271_19019.png,n02835271_19019.png,1.0,7.3819976,0.1638426,5.1040063
alexnet_w1_mlp_simclrhn_probe3,1,280,NaN,bottle,keyboard,7,0280_lp_dnn_7_keyboard_10_n03085013_1188.png,n03085013_1188.png,0.0,0.29007307,0.3518552,-0.043686558
alexnet_w1_mlp_simclrhn_probe3,1,281,NaN,oven,oven,1,0281_lp_dnn_1_oven_10_n04111531_2715.png,n04111531_2715.png,1.0,0.9393254,0.23720865,0.4964715
alexnet_w1_mlp_simclrhn_probe3,1,282,NaN,bottle,keyboard,10,0282_lp_dnn_10_keyboard_10_n03085013_9533.png,n03085013_9533.png,0.0,0.44293532,0.6727006,-0.16246858
alexnet_w1_mlp_simclrhn_probe3,1,283,NaN,cat,cat,3,0283_lp_dnn_3_cat_10_n02123045_20366.png,n02123045_20366.png,1.0,0.44847953,0.19716491,0.17770629
alexnet_w1_mlp_simclrhn_probe3,1,284,NaN,bottle,chair,5,0284_lp_dnn_5_chair_10_n03376595_302.png,n03376595_302.png,0.0,-0.076070026,0.25621083,-0.23495807
alexnet_w1_mlp_simclrhn_probe3,1,285,NaN,bottle,cat,7,0285_lp_dnn_7_cat_10_n02123597_14267.png,n02123597_14267.png,0.0,-0.18286006,0.47923565,-0.46817237
alexnet_w1_mlp_simclrhn_probe3,1,286,NaN,bottle,dog,15,0286_lp_dnn_15_dog_10_n02098286_2582.png,n02098286_2582.png,0.0,-0.115782835,0.2434816,-0.25403833
alexnet_w1_mlp_simclrhn_probe3,1,287,NaN,boat,boat,1,0287_lp_dnn_1_boat_10_n03344393_4001.png,n03344393_4001.png,1.0,2.1019583,1.5903885,0.36173445
alexnet_w1_mlp_simclrhn_probe3,1,288,NaN,bottle,bicycle,15,0288_lp_dnn_15_bicycle_10_n02835271_6122.png,n02835271_6122.png,0.0,-0.24916576,0.2975473,-0.38658452
alexnet_w1_mlp_simclrhn_probe3,1,289,NaN,oven,dog,3,0289_lp_dnn_3_dog_10_n02091134_3075.png,n02091134_3075.png,0.0,0.2007402,0.27867323,-0.055106975
alexnet_w1_mlp_simclrhn_probe3,1,290,NaN,knife,oven,40,0290_lp_dnn_40_oven_10_n04111531_4795.png,n04111531_4795.png,0.0,0.056045536,0.29866594,-0.17155854
alexnet_w1_mlp_simclrhn_probe3,1,291,NaN,bottle,bottle,10,0291_lp_dnn_10_bottle_10_n04591713_4876.png,n04591713_4876.png,1.0,0.47168142,0.3622615,0.07737156
alexnet_w1_mlp_simclrhn_probe3,1,292,NaN,bottle,bottle,0,0292_lp_dnn_0_bottle_10_n02823428_2510.png,n02823428_2510.png,1.0,3.9074059,3.6565435,0.17738648
alexnet_w1_mlp_simclrhn_probe3,1,293,NaN,chair,keyboard,1,0293_lp_dnn_1_keyboard_10_n03085013_5950.png,n03085013_5950.png,0.0,0.4120627,1.2160194,-0.56848323
alexnet_w1_mlp_simclrhn_probe3,1,294,NaN,bottle,bear,5,0294_lp_dnn_5_bear_10_n02133161_1490.png,n02133161_1490.png,0.0,-0.12304117,0.23335245,-0.25200835
alexnet_w1_mlp_simclrhn_probe3,1,295,NaN,bottle,truck,10,0295_lp_dnn_10_truck_10_n03796401_28465.png,n03796401_28465.png,0.0,-0.29620892,0.3488726,-0.45614153
alexnet_w1_mlp_simclrhn_probe3,1,296,NaN,bottle,bottle,15,0296_lp_dnn_15_bottle_10_n02823428_6627.png,n02823428_6627.png,1.0,0.30631992,0.22801584,0.055369347
alexnet_w1_mlp_simclrhn_probe3,1,297,NaN,bottle,truck,5,0297_lp_dnn_5_truck_10_n04467665_69582.png,n04467665_69582.png,0.0,-0.27584976,0.54349834,-0.5793666
alexnet_w1_mlp_simclrhn_probe3,1,298,NaN,bottle,bird,40,0298_lp_dnn_40_bird_10_n02006656_10568.png,n02006656_10568.png,0.0,-0.06101637,0.24968706,-0.2197005
alexnet_w1_mlp_simclrhn_probe3,1,299,NaN,clock,car,40,0299_lp_dnn_40_car_10_n04285008_11748.png,n04285008_11748.png,0.0,-0.30745807,0.3044589,-0.43269065
alexnet_w1_mlp_simclrhn_probe3,1,300,NaN,bottle,truck,5,0300_lp_dnn_5_truck_10_n04467665_44714.png,n04467665_44714.png,0.0,-0.2837908,0.5212401,-0.56924284
alexnet_w1_mlp_simclrhn_probe3,1,301,NaN,airplane,airplane,3,0301_lp_dnn_3_airplane_10_n02690373_7487.png,n02690373_7487.png,1.0,0.6947116,0.43690127,0.18229945
alexnet_w1_mlp_simclrhn_probe3,1,302,NaN,bottle,elephant,15,0302_lp_dnn_15_elephant_10_n02504458_7472.png,n02504458_7472.png,0.0,-0.2770573,0.2979017,-0.4065574
alexnet_w1_mlp_simclrhn_probe3,1,303,NaN,bottle,boat,3,0303_lp_dnn_3_boat_10_n03662601_25023.png,n03662601_25023.png,0.0,-0.2707685,0.34814125,-0.43763527
alexnet_w1_mlp_simclrhn_probe3,1,304,NaN,bicycle,knife,0,0304_lp_dnn_0_knife_10_n03041632_101673.png,n03041632_101673.png,0.0,0.5476525,2.6473825,-1.4847333
alexnet_w1_mlp_simclrhn_probe3,1,305,NaN,bottle,bottle,7,0305_lp_dnn_7_bottle_10_n03983396_587.png,n03983396_587.png,1.0,0.45624062,0.26548085,0.13488753
alexnet_w1_mlp_simclrhn_probe3,1,306,NaN,oven,cat,3,0306_lp_dnn_3_cat_10_n02124075_7692.png,n02124075_7692.png,0.0,-0.04797205,0.6107698,-0.46580082
alexnet_w1_mlp_simclrhn_probe3,1,307,NaN,oven,oven,0,0307_lp_dnn_0_oven_10_n04111531_6313.png,n04111531_6313.png,1.0,5.183798,0.8792013,3.0438094
alexnet_w1_mlp_simclrhn_probe3,1,308,NaN,bottle,bird,7,0308_lp_dnn_7_bird_10_n02018795_5770.png,n02018795_5770.png,0.0,-0.036764935,0.2266294,-0.18624794
alexnet_w1_mlp_simclrhn_probe3,1,309,NaN,bottle,bottle,3,0309_lp_dnn_3_bottle_10_n02823428_4658.png,n02823428_4658.png,1.0,2.6241238,0.38122973,1.5859658
alexnet_w1_mlp_simclrhn_probe3,1,310,NaN,airplane,airplane,1,0310_lp_dnn_1_airplane_10_n02690373_2724.png,n02690373_2724.png,1.0,5.976344,0.55920184,3.8304982
alexnet_w1_mlp_simclrhn_probe3,1,311,NaN,knife,boat,40,0311_lp_dnn_40_boat_10_n04612504_7446.png,n04612504_7446.png,0.0,-0.14459856,0.28318617,-0.3024895
alexnet_w1_mlp_simclrhn_probe3,1,312,NaN,bottle,boat,7,0312_lp_dnn_7_boat_10_n02951358_34783.png,n02951358_34783.png,0.0,-0.23605606,0.3586614,-0.4205288
alexnet_w1_mlp_simclrhn_probe3,1,313,NaN,cat,cat,0,0313_lp_dnn_0_cat_10_n02123597_680.png,n02123597_680.png,1.0,4.456532,0.35994497,2.8967247
alexnet_w1_mlp_simclrhn_probe3,1,314,NaN,bottle,bear,10,0314_lp_dnn_10_bear_10_n02133161_9863.png,n02133161_9863.png,0.0,-0.17413534,0.34110084,-0.364327
alexnet_w1_mlp_simclrhn_probe3,1,315,NaN,bear,bear,1,0315_lp_dnn_1_bear_10_n02133161_2100.png,n02133161_2100.png,1.0,5.3025303,0.5076858,3.3904672
alexnet_w1_mlp_simclrhn_probe3,1,316,NaN,oven,oven,3,0316_lp_dnn_3_oven_10_n04111531_8009.png,n04111531_8009.png,1.0,0.61458987,0.5920167,0.015961643
alexnet_w1_mlp_simclrhn_probe3,1,317,NaN,knife,car,40,0317_lp_dnn_40_car_10_n03100240_16525.png,n03100240_16525.png,0.0,-0.30207756,0.23871866,-0.3824007
alexnet_w1_mlp_simclrhn_probe3,1,318,NaN,knife,bird,5,0318_lp_dnn_5_bird_10_n01824575_4941.png,n01824575_4941.png,0.0,-0.014524089,0.18983291,-0.14450222
alexnet_w1_mlp_simclrhn_probe3,1,319,NaN,bottle,knife,15,0319_lp_dnn_15_knife_10_n03041632_289.png,n03041632_289.png,0.0,0.17016391,0.35604572,-0.13143829
alexnet_w1_mlp_simclrhn_probe3,1,320,NaN,bottle,dog,10,0320_lp_dnn_10_dog_10_n02101006_15350.png,n02101006_15350.png,0.0,-0.1716965,0.6261896,-0.5641907
alexnet_w1_mlp_simclrhn_probe3,1,321,NaN,bottle,elephant,5,0321_lp_dnn_5_elephant_10_n02504458_1636.png,n02504458_1636.png,0.0,-0.19534859,0.19490264,-0.2759493
alexnet_w1_mlp_simclrhn_probe3,1,322,NaN,bottle,car,7,0322_lp_dnn_7_car_10_n04285008_8666.png,n04285008_8666.png,0.0,-0.3585283,0.30683678,-0.47048417
alexnet_w1_mlp_simclrhn_probe3,1,323,NaN,bottle,bottle,5,0323_lp_dnn_5_bottle_10_n02823428_5451.png,n02823428_5451.png,1.0,0.83722335,0.5208219,0.2237296
alexnet_w1_mlp_simclrhn_probe3,1,324,NaN,car,car,3,0324_lp_dnn_3_car_10_n03100240_2495.png,n03100240_2495.png,1.0,0.5826542,0.31979552,0.18586914
alexnet_w1_mlp_simclrhn_probe3,1,325,NaN,bottle,bicycle,10,0325_lp_dnn_10_bicycle_10_n02835271_19565.png,n02835271_19565.png,0.0,-0.29742527,0.43071195,-0.5148708
alexnet_w1_mlp_simclrhn_probe3,1,326,NaN,airplane,airplane,1,0326_lp_dnn_1_airplane_10_n02690373_349.png,n02690373_349.png,1.0,4.4634285,0.49299926,2.8075175
alexnet_w1_mlp_simclrhn_probe3,1,327,NaN,bottle,cat,7,0327_lp_dnn_7_cat_10_n02123045_20512.png,n02123045_20512.png,0.0,-0.12683278,0.4563854,-0.41239756
alexnet_w1_mlp_simclrhn_probe3,1,328,NaN,knife,keyboard,1,0328_lp_dnn_1_keyboard_10_n03085013_23619.png,n03085013_23619.png,0.0,-0.07133052,0.86282754,-0.6605495
alexnet_w1_mlp_simclrhn_probe3,1,329,NaN,bottle,boat,7,0329_lp_dnn_7_boat_10_n03662601_16925.png,n03662601_16925.png,0.0,-0.2648283,0.60982853,-0.61847574
alexnet_w1_mlp_simclrhn_probe3,1,330,NaN,bottle,oven,10,0330_lp_dnn_10_oven_10_n04111531_12830.png,n04111531_12830.png,0.0,0.029562995,0.5913979,-0.39727727
alexnet_w1_mlp_simclrhn_probe3,1,331,NaN,bottle,boat,5,0331_lp_dnn_5_boat_10_n02951358_33277.png,n02951358_33277.png,0.0,-0.24570575,0.3287068,-0.40617105
alexnet_w1_mlp_simclrhn_probe3,1,332,NaN,bottle,bear,15,0332_lp_dnn_15_bear_10_n02133161_156.png,n02133161_156.png,0.0,-0.13764288,0.24727997,-0.27218157
alexnet_w1_mlp_simclrhn_probe3,1,333,NaN,clock,cat,40,0333_lp_dnn_40_cat_10_n02124075_6638.png,n02124075_6638.png,0.0,-0.060933013,0.2448483,-0.21622004
alexnet_w1_mlp_simclrhn_probe3,1,334,NaN,bottle,keyboard,10,0334_lp_dnn_10_keyboard_10_n04505470_4587.png,n04505470_4587.png,0.0,0.16634403,0.31460717,-0.10483787
alexnet_w1_mlp_simclrhn_probe3,1,335,NaN,bottle,bear,10,0335_lp_dnn_10_bear_10_n02134084_27899.png,n02134084_27899.png,0.0,-0.17252904,0.38612923,-0.39503103
alexnet_w1_mlp_simclrhn_probe3,1,336,NaN,keyboard,keyboard,0,0336_lp_dnn_0_keyboard_10_n03085013_10984.png,n03085013_10984.png,1.0,8.126432,0.82759374,5.1610584
alexnet_w1_mlp_simclrhn_probe3,1,337,NaN,bottle,bottle,5,0337_lp_dnn_5_bottle_10_n03983396_10469.png,n03983396_10469.png,1.0,0.22817814,0.18258889,0.03223647
alexnet_w1_mlp_simclrhn_probe3,1,338,NaN,bottle,knife,10,0338_lp_dnn_10_knife_10_n03041632_20707.png,n03041632_20707.png,0.0,0.119103976,0.22766174,-0.07676194
alexnet_w1_mlp_simclrhn_probe3,1,339,NaN,truck,car,1,0339_lp_dnn_1_car_10_n04285008_9411.png,n04285008_9411.png,0.0,2.1325014,3.0041914,-0.61637795
alexnet_w1_mlp_simclrhn_probe3,1,340,NaN,clock,airplane,40,0340_lp_dnn_40_airplane_10_n02690373_4671.png,n02690373_4671.png,0.0,0.053170197,0.29240802,-0.16916668
alexnet_w1_mlp_simclrhn_probe3,1,341,NaN,bottle,knife,7,0341_lp_dnn_7_knife_10_n03041632_16206.png,n03041632_16206.png,0.0,0.16821893,0.3614568,-0.13663982
alexnet_w1_mlp_simclrhn_probe3,1,342,NaN,bottle,bicycle,5,0342_lp_dnn_5_bicycle_10_n03792782_7180.png,n03792782_7180.png,0.0,-0.32514417,0.49281576,-0.578385
alexnet_w1_mlp_simclrhn_probe3,1,343,NaN,bear,bear,0,0343_lp_dnn_0_bear_10_n02134418_2719.png,n02134418_2719.png,1.0,4.644256,1.7798246,2.0254588
alexnet_w1_mlp_simclrhn_probe3,1,344,NaN,chair,chair,0,0344_lp_dnn_0_chair_10_n04099969_2038.png,n04099969_2038.png,1.0,3.0360217,2.0057297,0.7285265
alexnet_w1_mlp_simclrhn_probe3,1,345,NaN,oven,dog,1,0345_lp_dnn_1_dog_10_n02113023_5237.png,n02113023_5237.png,0.0,0.7141465,1.9048649,-0.8419651
alexnet_w1_mlp_simclrhn_probe3,1,346,NaN,knife,airplane,40,0346_lp_dnn_40_airplane_10_n02690373_2525.png,n02690373_2525.png,0.0,-0.08968108,0.32736266,-0.29489446
alexnet_w1_mlp_simclrhn_probe3,1,347,NaN,clock,clock,7,0347_lp_dnn_7_clock_10_n04548280_219.png,n04548280_219.png,1.0,0.5300959,0.507877,0.015711123
alexnet_w1_mlp_simclrhn_probe3,1,348,NaN,bottle,boat,15,0348_lp_dnn_15_boat_10_n04612504_2805.png,n04612504_2805.png,0.0,-0.24751778,0.41200128,-0.4663504
alexnet_w1_mlp_simclrhn_probe3,1,349,NaN,bottle,clock,7,0349_lp_dnn_7_clock_10_n02708093_7020.png,n02708093_7020.png,0.0,0.32975724,0.6795796,-0.24736178
alexnet_w1_mlp_simclrhn_probe3,1,350,NaN,oven,oven,3,0350_lp_dnn_3_oven_10_n04111531_5171.png,n04111531_5171.png,1.0,0.3409623,0.24846797,0.065403365
alexnet_w1_mlp_simclrhn_probe3,1,351,NaN,oven,cat,3,0351_lp_dnn_3_cat_10_n02125311_37322.png,n02125311_37322.png,0.0,0.02162072,0.29341462,-0.19218731
alexnet_w1_mlp_simclrhn_probe3,1,352,NaN,bottle,cat,7,0352_lp_dnn_7_cat_10_n02123597_14094.png,n02123597_14094.png,0.0,-0.14367022,0.6753138,-0.57910913
alexnet_w1_mlp_simclrhn_probe3,1,353,NaN,bottle,boat,15,0353_lp_dnn_15_boat_10_n02951358_13352.png,n02951358_13352.png,0.0,-0.21307507,0.3533037,-0.40049028
alexnet_w1_mlp_simclrhn_probe3,1,354,NaN,bottle,bicycle,10,0354_lp_dnn_10_bicycle_10_n02835271_20445.png,n02835271_20445.png,0.0,-0.32054514,0.45125675,-0.5457464
alexnet_w1_mlp_simclrhn_probe3,1,355,NaN,bottle,knife,7,0355_lp_dnn_7_knife_10_n03041632_4708.png,n03041632_4708.png,0.0,0.17528333,0.7373376,-0.3974324
alexnet_w1_mlp_simclrhn_probe3,1,356,NaN,bottle,oven,7,0356_lp_dnn_7_oven_10_n04111531_505.png,n04111531_505.png,0.0,-0.0207127,0.66556674,-0.48527282
alexnet_w1_mlp_simclrhn_probe3,1,357,NaN,bicycle,bicycle,1,0357_lp_dnn_1_bicycle_10_n03792782_104.png,n03792782_104.png,1.0,6.2199397,1.1464696,3.587485
alexnet_w1_mlp_simclrhn_probe3,1,358,NaN,knife,bottle,40,0358_lp_dnn_40_bottle_10_n04591713_5204.png,n04591713_5204.png,0.0,0.22664765,0.28172114,-0.038942847
alexnet_w1_mlp_simclrhn_probe3,1,359,NaN,bottle,bicycle,5,0359_lp_dnn_5_bicycle_10_n03792782_5578.png,n03792782_5578.png,0.0,-0.34708667,0.4637354,-0.5733378
alexnet_w1_mlp_simclrhn_probe3,1,360,NaN,bottle,truck,10,0360_lp_dnn_10_truck_10_n03417042_1437.png,n03417042_1437.png,0.0,-0.29331625,0.42948633,-0.5110986
alexnet_w1_mlp_simclrhn_probe3,1,361,NaN,bear,cat,0,0361_lp_dnn_0_cat_10_n02123045_7482.png,n02123045_7482.png,0.0,2.1963928,2.2337024,-0.026381904
alexnet_w1_mlp_simclrhn_probe3,1,362,NaN,bottle,bird,10,0362_lp_dnn_10_bird_10_n02037110_554.png,n02037110_554.png,0.0,-0.02756714,0.23942757,-0.18879378
alexnet_w1_mlp_simclrhn_probe3,1,363,NaN,bottle,bicycle,5,0363_lp_dnn_5_bicycle_10_n03792782_15.png,n03792782_15.png,0.0,-0.23903179,0.16180126,-0.2834318
alexnet_w1_mlp_simclrhn_probe3,1,364,NaN,bottle,bicycle,5,0364_lp_dnn_5_bicycle_10_n02835271_7450.png,n02835271_7450.png,0.0,-0.29111218,0.47187987,-0.53951687
alexnet_w1_mlp_simclrhn_probe3,1,365,NaN,bottle,boat,5,0365_lp_dnn_5_boat_10_n03344393_3881.png,n03344393_3881.png,0.0,-0.35069612,0.47620377,-0.58470654
alexnet_w1_mlp_simclrhn_probe3,1,366,NaN,bottle,chair,10,0366_lp_dnn_10_chair_10_n04099969_3623.png,n04099969_3623.png,0.0,-0.22215486,0.5163818,-0.5222243
alexnet_w1_mlp_simclrhn_probe3,1,367,NaN,bottle,airplane,5,0367_lp_dnn_5_airplane_10_n02690373_2579.png,n02690373_2579.png,0.0,-0.25442022,0.4204618,-0.47721368
alexnet_w1_mlp_simclrhn_probe3,1,368,NaN,bottle,dog,15,0368_lp_dnn_15_dog_10_n02093859_3707.png,n02093859_3707.png,0.0,-0.12815379,0.32992247,-0.3239088
alexnet_w1_mlp_simclrhn_probe3,1,369,NaN,oven,bottle,1,0369_lp_dnn_1_bottle_10_n04560804_22426.png,n04560804_22426.png,0.0,0.43552473,2.0487816,-1.1407449
alexnet_w1_mlp_simclrhn_probe3,1,370,NaN,bottle,clock,15,0370_lp_dnn_15_clock_10_n03196217_82.png,n03196217_82.png,0.0,0.22349854,0.3495637,-0.089141525
alexnet_w1_mlp_simclrhn_probe3,1,371,NaN,bottle,car,5,0371_lp_dnn_5_car_10_n03100240_16907.png,n03100240_16907.png,0.0,-0.35684955,0.3841493,-0.52396536
alexnet_w1_mlp_simclrhn_probe3,1,372,NaN,bottle,oven,5,0372_lp_dnn_5_oven_10_n04111531_9548.png,n04111531_9548.png,0.0,0.010888662,0.24671759,-0.16675623
alexnet_w1_mlp_simclrhn_probe3,1,373,NaN,bottle,clock,7,0373_lp_dnn_7_clock_10_n02708093_3751.png,n02708093_3751.png,0.0,0.15537515,0.25138727,-0.067890815
alexnet_w1_mlp_simclrhn_probe3,1,374,NaN,bottle,car,7,0374_lp_dnn_7_car_10_n02814533_6593.png,n02814533_6593.png,0.0,-0.4100908,0.5759048,-0.6972042
alexnet_w1_mlp_simclrhn_probe3,1,375,NaN,airplane,airplane,0,0375_lp_dnn_0_airplane_10_n02690373_3212.png,n02690373_3212.png,1.0,11.205161,0.89159346,7.292794
alexnet_w1_mlp_simclrhn_probe3,1,376,NaN,cat,cat,1,0376_lp_dnn_1_cat_10_n02123045_5820.png,n02123045_5820.png,1.0,0.92096907,0.5995046,0.22730972
alexnet_w1_mlp_simclrhn_probe3,1,377,NaN,bottle,elephant,3,0377_lp_dnn_3_elephant_10_n02504458_205.png,n02504458_205.png,0.0,-0.12928759,0.9284202,-0.74791235
alexnet_w1_mlp_simclrhn_probe3,1,378,NaN,bottle,elephant,10,0378_lp_dnn_10_elephant_10_n02504013_3425.png,n02504013_3425.png,0.0,-0.30464697,0.4322044,-0.5210326
alexnet_w1_mlp_simclrhn_probe3,1,379,NaN,bottle,bird,15,0379_lp_dnn_15_bird_10_n02056570_9572.png,n02056570_9572.png,0.0,-0.018807651,0.30635223,-0.22992276
alexnet_w1_mlp_simclrhn_probe3,1,380,NaN,clock,elephant,40,0380_lp_dnn_40_elephant_10_n02504013_7635.png,n02504013_7635.png,0.0,-0.21137533,0.29010954,-0.35460335
alexnet_w1_mlp_simclrhn_probe3,1,381,NaN,bottle,boat,10,0381_lp_dnn_10_boat_10_n04273569_10716.png,n04273569_10716.png,0.0,-0.28179443,0.4685547,-0.530577
alexnet_w1_mlp_simclrhn_probe3,1,382,NaN,bottle,bear,15,0382_lp_dnn_15_bear_10_n02134084_19849.png,n02134084_19849.png,0.0,-0.14472267,0.30585387,-0.31860572
alexnet_w1_mlp_simclrhn_probe3,1,383,NaN,clock,boat,40,0383_lp_dnn_40_boat_10_n03662601_35800.png,n03662601_35800.png,0.0,-0.15953341,0.2621735,-0.29819182
alexnet_w1_mlp_simclrhn_probe3,1,384,NaN,knife,bicycle,40,0384_lp_dnn_40_bicycle_10_n03792782_29276.png,n03792782_29276.png,0.0,-0.23308766,0.32120162,-0.39194173
alexnet_w1_mlp_simclrhn_probe3,1,385,NaN,bottle,oven,10,0385_lp_dnn_10_oven_10_n04111531_4392.png,n04111531_4392.png,0.0,0.03633759,0.27548853,-0.16910526
alexnet_w1_mlp_simclrhn_probe3,1,386,NaN,airplane,airplane,0,0386_lp_dnn_0_airplane_10_n02690373_7099.png,n02690373_7099.png,1.0,14.093209,2.7438085,8.025238
alexnet_w1_mlp_simclrhn_probe3,1,387,NaN,bottle,cat,5,0387_lp_dnn_5_cat_10_n02124075_13187.png,n02124075_13187.png,0.0,-0.15878458,0.44429466,-0.42644143
alexnet_w1_mlp_simclrhn_probe3,1,388,NaN,bicycle,knife,0,0388_lp_dnn_0_knife_10_n03041632_32048.png,n03041632_32048.png,0.0,0.60990083,1.2294176,-0.4380645
alexnet_w1_mlp_simclrhn_probe3,1,389,NaN,knife,airplane,3,0389_lp_dnn_3_airplane_10_n02690373_20074.png,n02690373_20074.png,0.0,0.07176942,0.22560513,-0.108778276
alexnet_w1_mlp_simclrhn_probe3,1,390,NaN,truck,car,1,0390_lp_dnn_1_car_10_n02814533_83577.png,n02814533_83577.png,0.0,3.4393837,4.498357,-0.7488071
alexnet_w1_mlp_simclrhn_probe3,1,391,NaN,knife,airplane,40,0391_lp_dnn_40_airplane_10_n02690373_19134.png,n02690373_19134.png,0.0,-0.10001418,0.28926712,-0.27526346
alexnet_w1_mlp_simclrhn_probe3,1,392,NaN,knife,knife,3,0392_lp_dnn_3_knife_10_n03041632_13130.png,n03041632_13130.png,1.0,0.37061876,0.2788118,0.06491732
alexnet_w1_mlp_simclrhn_probe3,1,393,NaN,knife,knife,0,0393_lp_dnn_0_knife_10_n03041632_1006.png,n03041632_1006.png,1.0,1.7320471,0.8166467,0.6472858
alexnet_w1_mlp_simclrhn_probe3,1,394,NaN,elephant,elephant,1,0394_lp_dnn_1_elephant_10_n02504458_7634.png,n02504458_7634.png,1.0,7.046449,2.3063896,3.3517284
alexnet_w1_mlp_simclrhn_probe3,1,395,NaN,bicycle,bicycle,1,0395_lp_dnn_1_bicycle_10_n02835271_17184.png,n02835271_17184.png,1.0,10.257477,0.91147673,6.6086197
alexnet_w1_mlp_simclrhn_probe3,1,396,NaN,oven,oven,0,0396_lp_dnn_0_oven_10_n04111531_2189.png,n04111531_2189.png,1.0,1.4253441,1.3660809,0.041905433
alexnet_w1_mlp_simclrhn_probe3,1,397,NaN,bottle,cat,15,0397_lp_dnn_15_cat_10_n02124075_11888.png,n02124075_11888.png,0.0,-0.07215824,0.36869428,-0.31172982
alexnet_w1_mlp_simclrhn_probe3,1,398,NaN,bottle,cat,10,0398_lp_dnn_10_cat_10_n02123394_1690.png,n02123394_1690.png,0.0,-0.12652728,0.2262417,-0.24944532
alexnet_w1_mlp_simclrhn_probe3,1,399,NaN,dog,dog,1,0399_lp_dnn_1_dog_10_n02111500_2905.png,n02111500_2905.png,1.0,1.4008149,0.8642708,0.37939397
alexnet_w1_mlp_simclrhn_probe3,1,400,NaN,bottle,knife,5,0400_lp_dnn_5_knife_10_n03041632_20433.png,n03041632_20433.png,0.0,0.09754123,0.26161563,-0.116018124
alexnet_w1_mlp_simclrhn_probe3,1,401,NaN,bottle,clock,15,0401_lp_dnn_15_clock_10_n04548280_22641.png,n04548280_22641.png,0.0,0.22424734,0.23482563,-0.0074799806
alexnet_w1_mlp_simclrhn_probe3,1,402,NaN,bottle,bottle,15,0402_lp_dnn_15_bottle_10_n04557648_634.png,n04557648_634.png,1.0,0.27379316,0.21677099,0.04032076
alexnet_w1_mlp_simclrhn_probe3,1,403,NaN,truck,truck,1,0403_lp_dnn_1_truck_10_n04467665_69447.png,n04467665_69447.png,1.0,3.70965,2.234276,1.043247
alexnet_w1_mlp_simclrhn_probe3,1,404,NaN,elephant,elephant,3,0404_lp_dnn_3_elephant_10_n02504013_1777.png,n02504013_1777.png,1.0,0.9224931,0.30713993,0.4351204
alexnet_w1_mlp_simclrhn_probe3,1,405,NaN,truck,truck,0,0405_lp_dnn_0_truck_10_n03796401_2559.png,n03796401_2559.png,1.0,4.9794416,2.7890725,1.5488249
alexnet_w1_mlp_simclrhn_probe3,1,406,NaN,car,car,1,0406_lp_dnn_1_car_10_n02814533_42547.png,n02814533_42547.png,1.0,8.720559,5.628416,2.1864753
alexnet_w1_mlp_simclrhn_probe3,1,407,NaN,bottle,clock,15,0407_lp_dnn_15_clock_10_n04548280_7181.png,n04548280_7181.png,0.0,0.22772889,0.32483625,-0.06866528
alexnet_w1_mlp_simclrhn_probe3,1,408,NaN,boat,boat,1,0408_lp_dnn_1_boat_10_n03344393_5030.png,n03344393_5030.png,1.0,2.7952254,2.7114687,0.059224922
alexnet_w1_mlp_simclrhn_probe3,1,409,NaN,bottle,bottle,15,0409_lp_dnn_15_bottle_10_n04591713_2952.png,n04591713_2952.png,1.0,0.27353045,0.17948993,0.06649669
alexnet_w1_mlp_simclrhn_probe3,1,410,NaN,bottle,keyboard,5,0410_lp_dnn_5_keyboard_10_n04505470_4742.png,n04505470_4742.png,0.0,0.38374263,0.49865082,-0.08125236
alexnet_w1_mlp_simclrhn_probe3,1,411,NaN,bottle,bear,7,0411_lp_dnn_7_bear_10_n02134418_4696.png,n02134418_4696.png,0.0,-0.16506262,0.29963169,-0.32858852
alexnet_w1_mlp_simclrhn_probe3,1,412,NaN,bottle,bear,40,0412_lp_dnn_40_bear_10_n02132136_5815.png,n02132136_5815.png,0.0,-0.12054351,0.28822446,-0.28904262
alexnet_w1_mlp_simclrhn_probe3,1,413,NaN,bottle,bicycle,15,0413_lp_dnn_15_bicycle_10_n02835271_8203.png,n02835271_8203.png,0.0,-0.27440572,0.3483154,-0.4403303
alexnet_w1_mlp_simclrhn_probe3,1,414,NaN,knife,car,40,0414_lp_dnn_40_car_10_n04285008_12868.png,n04285008_12868.png,0.0,-0.29255354,0.3334682,-0.44266424
alexnet_w1_mlp_simclrhn_probe3,1,415,NaN,bottle,bear,40,0415_lp_dnn_40_bear_10_n02132136_7074.png,n02132136_7074.png,0.0,-0.12984288,0.263248,-0.27795723
alexnet_w1_mlp_simclrhn_probe3,1,416,NaN,bottle,boat,3,0416_lp_dnn_3_boat_10_n03344393_8265.png,n03344393_8265.png,0.0,-0.02303285,0.45122465,-0.3353507
alexnet_w1_mlp_simclrhn_probe3,1,417,NaN,bottle,truck,10,0417_lp_dnn_10_truck_10_n04467665_12177.png,n04467665_12177.png,0.0,-0.29525253,0.37887383,-0.47667935
alexnet_w1_mlp_simclrhn_probe3,1,418,NaN,car,car,3,0418_lp_dnn_3_car_10_n03100240_8987.png,n03100240_8987.png,1.0,1.1758051,0.501116,0.47707725
alexnet_w1_mlp_simclrhn_probe3,1,419,NaN,bottle,bird,15,0419_lp_dnn_15_bird_10_n01530575_10601.png,n01530575_10601.png,0.0,-0.0028681573,0.29147393,-0.20813128
alexnet_w1_mlp_simclrhn_probe3,1,420,NaN,bottle,keyboard,15,0420_lp_dnn_15_keyboard_10_n04505470_313.png,n04505470_313.png,0.0,0.25642812,0.40956265,-0.10828246
alexnet_w1_mlp_simclrhn_probe3,1,421,NaN,chair,truck,1,0421_lp_dnn_1_truck_10_n03417042_5371.png,n03417042_5371.png,0.0,0.6058367,0.9292952,-0.2287197
alexnet_w1_mlp_simclrhn_probe3,1,422,NaN,truck,truck,0,0422_lp_dnn_0_truck_10_n03796401_29952.png,n03796401_29952.png,1.0,5.6470537,1.024218,3.2688384
alexnet_w1_mlp_simclrhn_probe3,1,423,NaN,bottle,bicycle,5,0423_lp_dnn_5_bicycle_10_n03792782_6159.png,n03792782_6159.png,0.0,-0.2284823,0.3659474,-0.4203253
alexnet_w1_mlp_simclrhn_probe3,1,424,NaN,bottle,elephant,7,0424_lp_dnn_7_elephant_10_n02504458_1336.png,n02504458_1336.png,0.0,-0.22056188,0.26857817,-0.34587425
alexnet_w1_mlp_simclrhn_probe3,1,425,NaN,bottle,bicycle,10,0425_lp_dnn_10_bicycle_10_n02835271_8597.png,n02835271_8597.png,0.0,-0.28299117,0.22113298,-0.35646963
alexnet_w1_mlp_simclrhn_probe3,1,426,NaN,keyboard,keyboard,3,0426_lp_dnn_3_keyboard_10_n04505470_3615.png,n04505470_3615.png,1.0,1.1071717,0.58206135,0.37130907
alexnet_w1_mlp_simclrhn_probe3,1,427,NaN,bottle,dog,7,0427_lp_dnn_7_dog_10_n02090721_7040.png,n02090721_7040.png,0.0,-0.12165159,0.3322873,-0.3209833
alexnet_w1_mlp_simclrhn_probe3,1,428,NaN,cat,cat,0,0428_lp_dnn_0_cat_10_n02124075_17347.png,n02124075_17347.png,1.0,9.119941,1.6552796,5.2783127
alexnet_w1_mlp_simclrhn_probe3,1,429,NaN,chair,keyboard,0,0429_lp_dnn_0_keyboard_10_n03085013_23018.png,n03085013_23018.png,0.0,1.767681,2.158529,-0.2763713
alexnet_w1_mlp_simclrhn_probe3,1,430,NaN,clock,car,40,0430_lp_dnn_40_car_10_n03100240_5018.png,n03100240_5018.png,0.0,-0.31084356,0.2653137,-0.40740472
alexnet_w1_mlp_simclrhn_probe3,1,431,NaN,clock,dog,40,0431_lp_dnn_40_dog_10_n02105056_12631.png,n02105056_12631.png,0.0,-0.14224537,0.28806964,-0.30427867
alexnet_w1_mlp_simclrhn_probe3,1,432,NaN,bottle,knife,15,0432_lp_dnn_15_knife_10_n03041632_27848.png,n03041632_27848.png,0.0,0.16680874,0.5656376,-0.2820146
alexnet_w1_mlp_simclrhn_probe3,1,433,NaN,keyboard,keyboard,3,0433_lp_dnn_3_keyboard_10_n04505470_4432.png,n04505470_4432.png,1.0,2.2477536,0.6533742,1.1273965
alexnet_w1_mlp_simclrhn_probe3,1,434,NaN,bottle,bear,15,0434_lp_dnn_15_bear_10_n02132136_786.png,n02132136_786.png,0.0,-0.15392604,0.33742318,-0.34743637
alexnet_w1_mlp_simclrhn_probe3,1,435,NaN,bottle,truck,15,0435_lp_dnn_15_truck_10_n03796401_10519.png,n03796401_10519.png,0.0,-0.28947204,0.32121676,-0.4318222
alexnet_w1_mlp_simclrhn_probe3,1,436,NaN,bottle,airplane,5,0436_lp_dnn_5_airplane_10_n02690373_9086.png,n02690373_9086.png,0.0,-0.26997244,0.5012341,-0.5453254
alexnet_w1_mlp_simclrhn_probe3,1,437,NaN,bicycle,boat,0,0437_lp_dnn_0_boat_10_n02951358_512.png,n02951358_512.png,0.0,1.9978278,3.566923,-1.1095178
alexnet_w1_mlp_simclrhn_probe3,1,438,NaN,bottle,bear,10,0438_lp_dnn_10_bear_10_n02132136_10468.png,n02132136_10468.png,0.0,-0.17925148,0.37475827,-0.39174405
alexnet_w1_mlp_simclrhn_probe3,1,439,NaN,bottle,bear,5,0439_lp_dnn_5_bear_10_n02134084_13175.png,n02134084_13175.png,0.0,-0.20651324,0.36717582,-0.4056594
alexnet_w1_mlp_simclrhn_probe3,1,440,NaN,bottle,dog,10,0440_lp_dnn_10_dog_10_n02088364_2119.png,n02088364_2119.png,0.0,-0.124188155,0.36643097,-0.3469201
alexnet_w1_mlp_simclrhn_probe3,1,441,NaN,boat,boat,1,0441_lp_dnn_1_boat_10_n04612504_26238.png,n04612504_26238.png,1.0,6.818147,2.070119,3.357363
alexnet_w1_mlp_simclrhn_probe3,1,442,NaN,oven,bear,3,0442_lp_dnn_3_bear_10_n02134084_20142.png,n02134084_20142.png,0.0,0.08674761,0.36503568,-0.19677939
alexnet_w1_mlp_simclrhn_probe3,1,443,NaN,bottle,dog,5,0443_lp_dnn_5_dog_10_n02107683_1076.png,n02107683_1076.png,0.0,-0.13585448,0.45680195,-0.41907138
alexnet_w1_mlp_simclrhn_probe3,1,444,NaN,bottle,car,3,0444_lp_dnn_3_car_10_n02814533_35386.png,n02814533_35386.png,0.0,0.17875187,0.32371044,-0.10250119
alexnet_w1_mlp_simclrhn_probe3,1,445,NaN,bottle,bird,3,0445_lp_dnn_3_bird_10_n01531178_15380.png,n01531178_15380.png,0.0,0.047036793,0.3272853,-0.19816561
alexnet_w1_mlp_simclrhn_probe3,1,446,NaN,bottle,bear,7,0446_lp_dnn_7_bear_10_n02134084_17529.png,n02134084_17529.png,0.0,-0.22730915,0.47222465,-0.49464512
alexnet_w1_mlp_simclrhn_probe3,1,447,NaN,bottle,bicycle,10,0447_lp_dnn_10_bicycle_10_n02835271_22623.png,n02835271_22623.png,0.0,-0.25127605,0.2547859,-0.35783982
alexnet_w1_mlp_simclrhn_probe3,1,448,NaN,bottle,chair,15,0448_lp_dnn_15_chair_10_n02791124_3160.png,n02791124_3160.png,0.0,-0.10881441,0.26623374,-0.2651991
alexnet_w1_mlp_simclrhn_probe3,1,449,NaN,bottle,bottle,0,0449_lp_dnn_0_bottle_10_n02823428_2422.png,n02823428_2422.png,1.0,10.103671,0.9408171,6.4791164
alexnet_w1_mlp_simclrhn_probe3,1,450,NaN,bottle,bear,7,0450_lp_dnn_7_bear_10_n02134084_34902.png,n02134084_34902.png,0.0,-0.18703161,0.39334184,-0.41038603
alexnet_w1_mlp_simclrhn_probe3,1,451,NaN,bottle,bicycle,15,0451_lp_dnn_15_bicycle_10_n02835271_3535.png,n02835271_3535.png,0.0,-0.26283526,0.31174117,-0.4062869
alexnet_w1_mlp_simclrhn_probe3,1,452,NaN,oven,oven,1,0452_lp_dnn_1_oven_10_n04111531_10640.png,n04111531_10640.png,1.0,3.5163126,0.6370734,2.0359294
alexnet_w1_mlp_simclrhn_probe3,1,453,NaN,clock,keyboard,40,0453_lp_dnn_40_keyboard_10_n04505470_1338.png,n04505470_1338.png,0.0,-0.009018354,0.26448265,-0.19339442
alexnet_w1_mlp_simclrhn_probe3,1,454,NaN,chair,keyboard,0,0454_lp_dnn_0_keyboard_10_n03085013_26656.png,n03085013_26656.png,0.0,3.4576626,4.3288584,-0.6160285
alexnet_w1_mlp_simclrhn_probe3,1,455,NaN,bottle,boat,5,0455_lp_dnn_5_boat_10_n03344393_9575.png,n03344393_9575.png,0.0,-0.31788185,0.53827584,-0.6053949
alexnet_w1_mlp_simclrhn_probe3,1,456,NaN,boat,boat,1,0456_lp_dnn_1_boat_10_n03344393_4616.png,n03344393_4616.png,1.0,3.7669919,1.1283293,1.8658162
alexnet_w1_mlp_simclrhn_probe3,1,457,NaN,bicycle,bicycle,0,0457_lp_dnn_0_bicycle_10_n02835271_11929.png,n02835271_11929.png,1.0,8.228073,0.9432872,5.1511216
alexnet_w1_mlp_simclrhn_probe3,1,458,NaN,keyboard,keyboard,3,0458_lp_dnn_3_keyboard_10_n03085013_20515.png,n03085013_20515.png,1.0,2.3071082,0.49116024,1.2840691
alexnet_w1_mlp_simclrhn_probe3,1,459,NaN,clock,dog,40,0459_lp_dnn_40_dog_10_n02088364_3791.png,n02088364_3791.png,0.0,-0.13644062,0.27333596,-0.2897558
alexnet_w1_mlp_simclrhn_probe3,1,460,NaN,airplane,airplane,0,0460_lp_dnn_0_airplane_10_n02690373_10114.png,n02690373_10114.png,1.0,13.67893,4.214251,6.692539
alexnet_w1_mlp_simclrhn_probe3,1,461,NaN,bottle,airplane,10,0461_lp_dnn_10_airplane_10_n02690373_8543.png,n02690373_8543.png,0.0,-0.2681409,0.5190267,-0.55661154
alexnet_w1_mlp_simclrhn_probe3,1,462,NaN,bottle,chair,7,0462_lp_dnn_7_chair_10_n04429376_14967.png,n04429376_14967.png,0.0,-0.39668357,0.9549425,-0.955744
alexnet_w1_mlp_simclrhn_probe3,1,463,NaN,bottle,cat,15,0463_lp_dnn_15_cat_10_n02125311_24439.png,n02125311_24439.png,0.0,-0.08988013,0.36019507,-0.31825125
alexnet_w1_mlp_simclrhn_probe3,1,464,NaN,bottle,truck,5,0464_lp_dnn_5_truck_10_n03417042_4665.png,n03417042_4665.png,0.0,-0.3215832,0.55993843,-0.62332994
alexnet_w1_mlp_simclrhn_probe3,1,465,NaN,knife,elephant,40,0465_lp_dnn_40_elephant_10_n02504013_4044.png,n02504013_4044.png,0.0,-0.21685146,0.26884815,-0.3434415
alexnet_w1_mlp_simclrhn_probe3,1,466,NaN,bird,bird,1,0466_lp_dnn_1_bird_10_n01843065_3596.png,n01843065_3596.png,1.0,1.9369636,0.28213176,1.1701428
alexnet_w1_mlp_simclrhn_probe3,1,467,NaN,bottle,bird,10,0467_lp_dnn_10_bird_10_n02011460_17499.png,n02011460_17499.png,0.0,-0.020580426,0.24731196,-0.18942852
alexnet_w1_mlp_simclrhn_probe3,1,468,NaN,elephant,elephant,0,0468_lp_dnn_0_elephant_10_n02504458_7506.png,n02504458_7506.png,1.0,8.404625,2.9345906,3.8678987
alexnet_w1_mlp_simclrhn_probe3,1,469,NaN,knife,keyboard,40,0469_lp_dnn_40_keyboard_10_n03085013_21955.png,n03085013_21955.png,0.0,-0.104641944,0.33357295,-0.30986473
alexnet_w1_mlp_simclrhn_probe3,1,470,NaN,clock,clock,40,0470_lp_dnn_40_clock_10_n02708093_7810.png,n02708093_7810.png,1.0,0.2638596,0.25684032,0.0049633817
alexnet_w1_mlp_simclrhn_probe3,1,471,NaN,knife,car,40,0471_lp_dnn_40_car_10_n02814533_7984.png,n02814533_7984.png,0.0,-0.31384242,0.2483632,-0.3975394
alexnet_w1_mlp_simclrhn_probe3,1,472,NaN,bottle,dog,5,0472_lp_dnn_5_dog_10_n02106382_1806.png,n02106382_1806.png,0.0,-0.12583292,0.46602368,-0.41850582
alexnet_w1_mlp_simclrhn_probe3,1,473,NaN,bottle,chair,15,0473_lp_dnn_15_chair_10_n02791124_3890.png,n02791124_3890.png,0.0,-0.14016123,0.35169926,-0.3477979
alexnet_w1_mlp_simclrhn_probe3,1,474,NaN,bottle,elephant,7,0474_lp_dnn_7_elephant_10_n02504013_16929.png,n02504013_16929.png,0.0,-0.29782268,0.4309879,-0.5153469
alexnet_w1_mlp_simclrhn_probe3,1,475,NaN,bottle,elephant,7,0475_lp_dnn_7_elephant_10_n02504013_8052.png,n02504013_8052.png,0.0,-0.29410285,0.40477428,-0.49418074
alexnet_w1_mlp_simclrhn_probe3,1,476,NaN,bear,bear,1,0476_lp_dnn_1_bear_10_n02132136_1584.png,n02132136_1584.png,1.0,2.7133594,2.2685113,0.31455508
alexnet_w1_mlp_simclrhn_probe3,1,477,NaN,keyboard,keyboard,1,0477_lp_dnn_1_keyboard_10_n04505470_532.png,n04505470_532.png,1.0,6.652183,1.3559272,3.7450187
alexnet_w1_mlp_simclrhn_probe3,1,478,NaN,airplane,airplane,1,0478_lp_dnn_1_airplane_10_n02690373_3988.png,n02690373_3988.png,1.0,8.338846,1.8301065,4.602374
alexnet_w1_mlp_simclrhn_probe3,1,479,NaN,bottle,bicycle,15,0479_lp_dnn_15_bicycle_10_n03792782_13051.png,n03792782_13051.png,0.0,-0.3024349,0.32344213,-0.4425619
alexnet_w1_mlp_simclrhn_probe3,1,480,NaN,bottle,bear,3,0480_lp_dnn_3_bear_10_n02134084_4818.png,n02134084_4818.png,0.0,0.04178922,0.22138107,-0.12699062
alexnet_w1_mlp_simclrhn_probe3,1,481,NaN,bottle,boat,10,0481_lp_dnn_10_boat_10_n02951358_9146.png,n02951358_9146.png,0.0,-0.22615862,0.3173016,-0.38428444
alexnet_w1_mlp_simclrhn_probe3,1,482,NaN,clock,keyboard,40,0482_lp_dnn_40_keyboard_10_n03085013_19317.png,n03085013_19317.png,0.0,0.0013633966,0.26840162,-0.18882455
alexnet_w1_mlp_simclrhn_probe3,1,483,NaN,knife,bicycle,40,0483_lp_dnn_40_bicycle_10_n03792782_17666.png,n03792782_17666.png,0.0,-0.27196038,0.30224395,-0.40602377
alexnet_w1_mlp_simclrhn_probe3,1,484,NaN,clock,bear,40,0484_lp_dnn_40_bear_10_n02133161_20090.png,n02133161_20090.png,0.0,-0.11093351,0.25398037,-0.2580331
alexnet_w1_mlp_simclrhn_probe3,1,485,NaN,oven,bottle,3,0485_lp_dnn_3_bottle_10_n03937543_11101.png,n03937543_11101.png,0.0,0.14784554,0.21093708,-0.04461246
alexnet_w1_mlp_simclrhn_probe3,1,486,NaN,bottle,bear,7,0486_lp_dnn_7_bear_10_n02133161_2281.png,n02133161_2281.png,0.0,-0.16692238,0.43010697,-0.4221635
alexnet_w1_mlp_simclrhn_probe3,1,487,NaN,bottle,airplane,10,0487_lp_dnn_10_airplane_10_n02690373_8813.png,n02690373_8813.png,0.0,-0.2710263,0.5129841,-0.5543791
alexnet_w1_mlp_simclrhn_probe3,1,488,NaN,knife,boat,40,0488_lp_dnn_40_boat_10_n03662601_33625.png,n03662601_33625.png,0.0,-0.16199847,0.38623255,-0.38765788
alexnet_w1_mlp_simclrhn_probe3,1,489,NaN,knife,cat,40,0489_lp_dnn_40_cat_10_n02124075_9066.png,n02124075_9066.png,0.0,-0.057145905,0.2826114,-0.24024469
alexnet_w1_mlp_simclrhn_probe3,1,490,NaN,oven,oven,3,0490_lp_dnn_3_oven_10_n04111531_10216.png,n04111531_10216.png,1.0,0.4701612,0.40022904,0.049449507
alexnet_w1_mlp_simclrhn_probe3,1,491,NaN,bottle,bird,7,0491_lp_dnn_7_bird_10_n01614925_1097.png,n01614925_1097.png,0.0,-0.022477435,0.20774439,-0.16279142
alexnet_w1_mlp_simclrhn_probe3,1,492,NaN,bird,bird,0,0492_lp_dnn_0_bird_10_n02017213_1163.png,n02017213_1163.png,1.0,2.9312172,2.0050964,0.6548663
alexnet_w1_mlp_simclrhn_probe3,1,493,NaN,knife,oven,40,0493_lp_dnn_40_oven_10_n04111531_283.png,n04111531_283.png,0.0,0.037063323,0.2784231,-0.17066713
alexnet_w1_mlp_simclrhn_probe3,1,494,NaN,bottle,truck,15,0494_lp_dnn_15_truck_10_n04467665_39317.png,n04467665_39317.png,0.0,-0.28923059,0.37107626,-0.46690744
alexnet_w1_mlp_simclrhn_probe3,1,495,NaN,dog,dog,1,0495_lp_dnn_1_dog_10_n02093754_5037.png,n02093754_5037.png,1.0,0.71786565,0.49566954,0.15711637
alexnet_w1_mlp_simclrhn_probe3,1,496,NaN,clock,bicycle,40,0496_lp_dnn_40_bicycle_10_n02835271_2580.png,n02835271_2580.png,0.0,-0.23598325,0.26627722,-0.35515177
alexnet_w1_mlp_simclrhn_probe3,1,497,NaN,bottle,airplane,7,0497_lp_dnn_7_airplane_10_n02690373_2564.png,n02690373_2564.png,0.0,-0.3769709,0.38926777,-0.5418126
alexnet_w1_mlp_simclrhn_probe3,1,498,NaN,knife,truck,40,0498_lp_dnn_40_truck_10_n04467665_62626.png,n04467665_62626.png,0.0,-0.29084295,0.25686887,-0.38729078
alexnet_w1_mlp_simclrhn_probe3,1,499,NaN,bottle,chair,10,0499_lp_dnn_10_chair_10_n04429376_2450.png,n04429376_2450.png,0.0,-0.25427756,0.5585208,-0.5747353
alexnet_w1_mlp_simclrhn_probe3,1,500,NaN,keyboard,keyboard,0,0500_lp_dnn_0_keyboard_10_n04505470_4044.png,n04505470_4044.png,1.0,13.914532,1.5397846,8.750268
alexnet_w1_mlp_simclrhn_probe3,1,501,NaN,bottle,oven,15,0501_lp_dnn_15_oven_10_n04111531_8269.png,n04111531_8269.png,0.0,0.06991519,0.61691606,-0.38678804
alexnet_w1_mlp_simclrhn_probe3,1,502,NaN,bottle,clock,7,0502_lp_dnn_7_clock_10_n02708093_6890.png,n02708093_6890.png,0.0,0.3521627,0.37866074,-0.018736951
alexnet_w1_mlp_simclrhn_probe3,1,503,NaN,bottle,oven,40,0503_lp_dnn_40_oven_10_n04111531_15947.png,n04111531_15947.png,0.0,0.06443535,0.23837058,-0.12299079
alexnet_w1_mlp_simclrhn_probe3,1,504,NaN,bottle,bicycle,15,0504_lp_dnn_15_bicycle_10_n03792782_24734.png,n03792782_24734.png,0.0,-0.27050868,0.2434583,-0.36342955
alexnet_w1_mlp_simclrhn_probe3,1,505,NaN,bottle,chair,40,0505_lp_dnn_40_chair_10_n04099969_10401.png,n04099969_10401.png,0.0,-0.0735413,0.25355068,-0.23128897
alexnet_w1_mlp_simclrhn_probe3,1,506,NaN,oven,elephant,3,0506_lp_dnn_3_elephant_10_n02504458_2994.png,n02504458_2994.png,0.0,0.1694392,0.26124558,-0.064916916
alexnet_w1_mlp_simclrhn_probe3,1,507,NaN,bicycle,dog,0,0507_lp_dnn_0_dog_10_n02108422_1164.png,n02108422_1164.png,0.0,1.1291004,1.6259588,-0.35133192
alexnet_w1_mlp_simclrhn_probe3,1,508,NaN,bottle,clock,5,0508_lp_dnn_5_clock_10_n04548280_2421.png,n04548280_2421.png,0.0,0.511903,0.5175696,-0.004006901
alexnet_w1_mlp_simclrhn_probe3,1,509,NaN,bottle,oven,5,0509_lp_dnn_5_oven_10_n04111531_2930.png,n04111531_2930.png,0.0,0.09321807,0.22538449,-0.09345577
alexnet_w1_mlp_simclrhn_probe3,1,510,NaN,bear,bear,1,0510_lp_dnn_1_bear_10_n02132136_4271.png,n02132136_4271.png,1.0,4.2645416,2.1579585,1.4895792
alexnet_w1_mlp_simclrhn_probe3,1,511,NaN,bottle,oven,7,0511_lp_dnn_7_oven_10_n04111531_8603.png,n04111531_8603.png,0.0,0.016910713,0.7269439,-0.5020693
alexnet_w1_mlp_simclrhn_probe3,1,512,NaN,bottle,bicycle,40,0512_lp_dnn_40_bicycle_10_n02835271_16850.png,n02835271_16850.png,0.0,-0.23167443,0.3076881,-0.38138694
alexnet_w1_mlp_simclrhn_probe3,1,513,NaN,knife,knife,3,0513_lp_dnn_3_knife_10_n03041632_47410.png,n03041632_47410.png,1.0,0.33364326,0.18553104,0.10473116
alexnet_w1_mlp_simclrhn_probe3,1,514,NaN,bottle,elephant,15,0514_lp_dnn_15_elephant_10_n02504458_1000.png,n02504458_1000.png,0.0,-0.22439922,0.27628836,-0.3540396
alexnet_w1_mlp_simclrhn_probe3,1,515,NaN,cat,cat,1,0515_lp_dnn_1_cat_10_n02124075_8884.png,n02124075_8884.png,1.0,2.958561,0.3472521,1.8464742
alexnet_w1_mlp_simclrhn_probe3,1,516,NaN,bottle,bird,7,0516_lp_dnn_7_bird_10_n01622779_1370.png,n01622779_1370.png,0.0,-0.024502793,0.1759096,-0.14171296
alexnet_w1_mlp_simclrhn_probe3,1,517,NaN,cat,cat,0,0517_lp_dnn_0_cat_10_n02123045_8215.png,n02123045_8215.png,1.0,7.491611,0.5923596,4.8785076
alexnet_w1_mlp_simclrhn_probe3,1,518,NaN,bottle,car,5,0518_lp_dnn_5_car_10_n03100240_3083.png,n03100240_3083.png,0.0,-0.38665792,0.43638298,-0.5819778
alexnet_w1_mlp_simclrhn_probe3,1,519,NaN,oven,bicycle,3,0519_lp_dnn_3_bicycle_10_n03792782_9280.png,n03792782_9280.png,0.0,-0.21111664,0.2368089,-0.31673118
alexnet_w1_mlp_simclrhn_probe3,1,520,NaN,bottle,bird,5,0520_lp_dnn_5_bird_10_n01819313_3505.png,n01819313_3505.png,0.0,-0.04831314,0.57824457,-0.4430432
alexnet_w1_mlp_simclrhn_probe3,1,521,NaN,bottle,bird,15,0521_lp_dnn_15_bird_10_n01531178_5130.png,n01531178_5130.png,0.0,-0.0016869501,0.264432,-0.18817453
alexnet_w1_mlp_simclrhn_probe3,1,522,NaN,bottle,clock,15,0522_lp_dnn_15_clock_10_n02708093_2867.png,n02708093_2867.png,0.0,0.3103684,0.50956184,-0.14085104
alexnet_w1_mlp_simclrhn_probe3,1,523,NaN,bottle,bear,7,0523_lp_dnn_7_bear_10_n02134418_258.png,n02134418_258.png,0.0,-0.29002908,0.7268346,-0.7190312
alexnet_w1_mlp_simclrhn_probe3,1,524,NaN,keyboard,bottle,1,0524_lp_dnn_1_bottle_10_n02823428_8280.png,n02823428_8280.png,0.0,0.87276936,1.6037589,-0.51688766
alexnet_w1_mlp_simclrhn_probe3,1,525,NaN,bottle,elephant,7,0525_lp_dnn_7_elephant_10_n02504013_24811.png,n02504013_24811.png,0.0,-0.2609086,0.37829283,-0.45198366
alexnet_w1_mlp_simclrhn_probe3,1,526,NaN,clock,bicycle,40,0526_lp_dnn_40_bicycle_10_n02835271_14499.png,n02835271_14499.png,0.0,-0.24252857,0.25546554,-0.35213503
alexnet_w1_mlp_simclrhn_probe3,1,527,NaN,bottle,bottle,0,0527_lp_dnn_0_bottle_10_n02823428_14536.png,n02823428_14536.png,1.0,6.712993,4.9935427,1.2158351
alexnet_w1_mlp_simclrhn_probe3,1,528,NaN,bottle,knife,5,0528_lp_dnn_5_knife_10_n03041632_21723.png,n03041632_21723.png,0.0,0.068165794,0.37868378,-0.21956937
alexnet_w1_mlp_simclrhn_probe3,1,529,NaN,bottle,cat,10,0529_lp_dnn_10_cat_10_n02123159_8396.png,n02123159_8396.png,0.0,-0.10012629,0.42136982,-0.36875343
alexnet_w1_mlp_simclrhn_probe3,1,530,NaN,clock,bottle,40,0530_lp_dnn_40_bottle_10_n02823428_3486.png,n02823428_3486.png,0.0,0.21280105,0.24419235,-0.022196997
alexnet_w1_mlp_simclrhn_probe3,1,531,NaN,bird,bird,0,0531_lp_dnn_0_bird_10_n01514859_12705.png,n01514859_12705.png,1.0,2.9102776,1.6926731,0.8609764
alexnet_w1_mlp_simclrhn_probe3,1,532,NaN,bottle,dog,7,0532_lp_dnn_7_dog_10_n02097047_911.png,n02097047_911.png,0.0,-0.11675692,0.29393953,-0.29040626
alexnet_w1_mlp_simclrhn_probe3,1,533,NaN,bottle,keyboard,10,0533_lp_dnn_10_keyboard_10_n04505470_3132.png,n04505470_3132.png,0.0,0.36892015,0.5374015,-0.11913431
alexnet_w1_mlp_simclrhn_probe3,1,534,NaN,airplane,airplane,1,0534_lp_dnn_1_airplane_10_n02690373_11908.png,n02690373_11908.png,1.0,2.775748,0.4382951,1.6528288
alexnet_w1_mlp_simclrhn_probe3,1,535,NaN,knife,elephant,40,0535_lp_dnn_40_elephant_10_n02504458_5169.png,n02504458_5169.png,0.0,-0.21797976,0.24939126,-0.33048123
alexnet_w1_mlp_simclrhn_probe3,1,536,NaN,bottle,bottle,15,0536_lp_dnn_15_bottle_10_n03937543_5375.png,n03937543_5375.png,1.0,0.35766354,0.26576722,0.064980514
alexnet_w1_mlp_simclrhn_probe3,1,537,NaN,oven,bottle,1,0537_lp_dnn_1_bottle_10_n04591713_6138.png,n04591713_6138.png,0.0,0.03534359,0.3509937,-0.22319834
alexnet_w1_mlp_simclrhn_probe3,1,538,NaN,bottle,bottle,15,0538_lp_dnn_15_bottle_10_n04557648_12559.png,n04557648_12559.png,1.0,0.27202675,0.22686543,0.031933878
alexnet_w1_mlp_simclrhn_probe3,1,539,NaN,clock,clock,40,0539_lp_dnn_40_clock_10_n03196217_3903.png,n03196217_3903.png,1.0,0.30215177,0.29704806,0.0036088661
alexnet_w1_mlp_simclrhn_probe3,1,540,NaN,bottle,keyboard,15,0540_lp_dnn_15_keyboard_10_n04505470_4732.png,n04505470_4732.png,0.0,0.16573685,0.3281032,-0.114810355
alexnet_w1_mlp_simclrhn_probe3,1,541,NaN,knife,knife,40,0541_lp_dnn_40_knife_10_n03041632_8468.png,n03041632_8468.png,1.0,0.26252973,0.24979948,0.00900165
alexnet_w1_mlp_simclrhn_probe3,1,542,NaN,bottle,chair,3,0542_lp_dnn_3_chair_10_n02791124_14040.png,n02791124_14040.png,0.0,-0.14624475,0.95270485,-0.7770747
alexnet_w1_mlp_simclrhn_probe3,1,543,NaN,bottle,boat,15,0543_lp_dnn_15_boat_10_n04273569_3095.png,n04273569_3095.png,0.0,-0.21448974,0.3035796,-0.36633033
alexnet_w1_mlp_simclrhn_probe3,1,544,NaN,bird,bird,1,0544_lp_dnn_1_bird_10_n02002724_18548.png,n02002724_18548.png,1.0,2.318236,0.24145097,1.4685088
alexnet_w1_mlp_simclrhn_probe3,1,545,NaN,bottle,oven,10,0545_lp_dnn_10_oven_10_n04111531_8537.png,n04111531_8537.png,0.0,0.053390414,0.19248284,-0.0983532
alexnet_w1_mlp_simclrhn_probe3,1,546,NaN,bottle,chair,40,0546_lp_dnn_40_chair_10_n02791124_1935.png,n02791124_1935.png,0.0,-0.10828722,0.28178477,-0.27582255
alexnet_w1_mlp_simclrhn_probe3,1,547,NaN,bottle,dog,5,0547_lp_dnn_5_dog_10_n02102040_1660.png,n02102040_1660.png,0.0,-0.13377678,0.37673154,-0.36098388
alexnet_w1_mlp_simclrhn_probe3,1,548,NaN,elephant,bear,0,0548_lp_dnn_0_bear_10_n02134084_7790.png,n02134084_7790.png,0.0,3.5010123,3.9676223,-0.32994306
alexnet_w1_mlp_simclrhn_probe3,1,549,NaN,bottle,knife,10,0549_lp_dnn_10_knife_10_n03041632_17091.png,n03041632_17091.png,0.0,0.11901332,0.40821785,-0.2044985
alexnet_w1_mlp_simclrhn_probe3,1,550,NaN,bottle,keyboard,5,0550_lp_dnn_5_keyboard_10_n04505470_9331.png,n04505470_9331.png,0.0,0.56532824,0.88062084,-0.22294554
alexnet_w1_mlp_simclrhn_probe3,1,551,NaN,bottle,airplane,5,0551_lp_dnn_5_airplane_10_n02690373_6887.png,n02690373_6887.png,0.0,-0.31597272,0.36502746,-0.48153985
alexnet_w1_mlp_simclrhn_probe3,1,552,NaN,oven,chair,1,0552_lp_dnn_1_chair_10_n02791124_2540.png,n02791124_2540.png,0.0,1.0269868,1.9922018,-0.6825101
alexnet_w1_mlp_simclrhn_probe3,1,553,NaN,oven,truck,3,0553_lp_dnn_3_truck_10_n03796401_23774.png,n03796401_23774.png,0.0,-0.046521258,0.30535734,-0.24881573
alexnet_w1_mlp_simclrhn_probe3,1,554,NaN,knife,knife,40,0554_lp_dnn_40_knife_10_n03041632_28201.png,n03041632_28201.png,1.0,0.2852998,0.22703837,0.041197058
alexnet_w1_mlp_simclrhn_probe3,1,555,NaN,bottle,clock,5,0555_lp_dnn_5_clock_10_n04548280_3563.png,n04548280_3563.png,0.0,0.3259087,0.73545825,-0.28959528
alexnet_w1_mlp_simclrhn_probe3,1,556,NaN,bicycle,bicycle,0,0556_lp_dnn_0_bicycle_10_n03792782_8287.png,n03792782_8287.png,1.0,10.860167,0.7670767,7.1368923
alexnet_w1_mlp_simclrhn_probe3,1,557,NaN,clock,clock,3,0557_lp_dnn_3_clock_10_n04548280_4225.png,n04548280_4225.png,1.0,0.7641669,0.6386305,0.088767625
alexnet_w1_mlp_simclrhn_probe3,1,558,NaN,car,car,0,0558_lp_dnn_0_car_10_n04285008_11931.png,n04285008_11931.png,1.0,13.865998,3.5649877,7.283914
alexnet_w1_mlp_simclrhn_probe3,1,559,NaN,bottle,elephant,5,0559_lp_dnn_5_elephant_10_n02504013_9396.png,n02504013_9396.png,0.0,-0.31228065,0.50501955,-0.5779185
alexnet_w1_mlp_simclrhn_probe3,1,560,NaN,clock,boat,40,0560_lp_dnn_40_boat_10_n03344393_2915.png,n03344393_2915.png,0.0,-0.16656084,0.25416413,-0.2974975
alexnet_w1_mlp_simclrhn_probe3,1,561,NaN,bottle,bicycle,7,0561_lp_dnn_7_bicycle_10_n03792782_9692.png,n03792782_9692.png,0.0,-0.30821085,0.42492804,-0.5184075
alexnet_w1_mlp_simclrhn_probe3,1,562,NaN,bottle,chair,7,0562_lp_dnn_7_chair_10_n02791124_57.png,n02791124_57.png,0.0,-0.2606547,0.5794512,-0.59404457
alexnet_w1_mlp_simclrhn_probe3,1,563,NaN,bottle,car,40,0563_lp_dnn_40_car_10_n04285008_3185.png,n04285008_3185.png,0.0,-0.31346497,0.24968375,-0.3982063
alexnet_w1_mlp_simclrhn_probe3,1,564,NaN,boat,boat,1,0564_lp_dnn_1_boat_10_n02951358_34917.png,n02951358_34917.png,1.0,4.676263,1.3795787,2.3311079
alexnet_w1_mlp_simclrhn_probe3,1,565,NaN,clock,clock,0,0565_lp_dnn_0_clock_10_n02708093_2762.png,n02708093_2762.png,1.0,7.445667,0.85953903,4.657096
alexnet_w1_mlp_simclrhn_probe3,1,566,NaN,bottle,knife,5,0566_lp_dnn_5_knife_10_n03041632_4879.png,n03041632_4879.png,0.0,0.3710524,0.4209693,-0.035296574
alexnet_w1_mlp_simclrhn_probe3,1,567,NaN,car,car,0,0567_lp_dnn_0_car_10_n02814533_4689.png,n02814533_4689.png,1.0,10.616477,6.287615,3.060968
alexnet_w1_mlp_simclrhn_probe3,1,568,NaN,boat,boat,1,0568_lp_dnn_1_boat_10_n02951358_2445.png,n02951358_2445.png,1.0,3.2172723,0.71390474,1.7701482
alexnet_w1_mlp_simclrhn_probe3,1,569,NaN,clock,truck,40,0569_lp_dnn_40_truck_10_n03417042_10038.png,n03417042_10038.png,0.0,-0.28850934,0.2565386,-0.3854071
alexnet_w1_mlp_simclrhn_probe3,1,570,NaN,bottle,car,10,0570_lp_dnn_10_car_10_n02814533_32924.png,n02814533_32924.png,0.0,-0.34076938,0.34058237,-0.4817885
alexnet_w1_mlp_simclrhn_probe3,1,571,NaN,bottle,bottle,10,0571_lp_dnn_10_bottle_10_n02823428_5135.png,n02823428_5135.png,1.0,0.41622168,0.23365307,0.12909551
alexnet_w1_mlp_simclrhn_probe3,1,572,NaN,oven,keyboard,1,0572_lp_dnn_1_keyboard_10_n03085013_9066.png,n03085013_9066.png,0.0,1.6313047,1.8838406,-0.1785698
alexnet_w1_mlp_simclrhn_probe3,1,573,NaN,bottle,oven,10,0573_lp_dnn_10_oven_10_n04111531_11279.png,n04111531_11279.png,0.0,0.044255983,0.4808109,-0.30869097
alexnet_w1_mlp_simclrhn_probe3,1,574,NaN,bottle,car,10,0574_lp_dnn_10_car_10_n04285008_12182.png,n04285008_12182.png,0.0,-0.33952847,0.31640077,-0.463812
alexnet_w1_mlp_simclrhn_probe3,1,575,NaN,bear,bear,0,0575_lp_dnn_0_bear_10_n02133161_5681.png,n02133161_5681.png,1.0,2.5713463,0.5970429,1.3960433
alexnet_w1_mlp_simclrhn_probe3,1,576,NaN,bottle,dog,5,0576_lp_dnn_5_dog_10_n02108915_5514.png,n02108915_5514.png,0.0,-0.1474352,0.40934372,-0.39370215
alexnet_w1_mlp_simclrhn_probe3,1,577,NaN,bottle,airplane,15,0577_lp_dnn_15_airplane_10_n02690373_7239.png,n02690373_7239.png,0.0,-0.2473546,0.35044166,-0.4227058
alexnet_w1_mlp_simclrhn_probe3,1,578,NaN,dog,dog,0,0578_lp_dnn_0_dog_10_n02094258_4979.png,n02094258_4979.png,1.0,2.170826,0.7449731,1.0082302
alexnet_w1_mlp_simclrhn_probe3,1,579,NaN,oven,chair,3,0579_lp_dnn_3_chair_10_n04429376_15078.png,n04429376_15078.png,0.0,0.17679355,0.91025126,-0.5186329
alexnet_w1_mlp_simclrhn_probe3,1,580,NaN,bottle,clock,40,0580_lp_dnn_40_clock_10_n02708093_8276.png,n02708093_8276.png,0.0,0.29091898,0.3121431,-0.015007713
alexnet_w1_mlp_simclrhn_probe3,1,581,NaN,keyboard,keyboard,3,0581_lp_dnn_3_keyboard_10_n04505470_3947.png,n04505470_3947.png,1.0,2.0355349,0.45799908,1.1154863
alexnet_w1_mlp_simclrhn_probe3,1,582,NaN,bottle,car,15,0582_lp_dnn_15_car_10_n03100240_2996.png,n03100240_2996.png,0.0,-0.33264768,0.40740556,-0.52329665
alexnet_w1_mlp_simclrhn_probe3,1,583,NaN,bottle,cat,10,0583_lp_dnn_10_cat_10_n02123159_3226.png,n02123159_3226.png,0.0,-0.12885927,0.44131967,-0.40317738
alexnet_w1_mlp_simclrhn_probe3,1,584,NaN,bottle,truck,7,0584_lp_dnn_7_truck_10_n03417042_19905.png,n03417042_19905.png,0.0,-0.29841167,0.50047284,-0.56489664
alexnet_w1_mlp_simclrhn_probe3,1,585,NaN,bird,bird,0,0585_lp_dnn_0_bird_10_n02009229_4838.png,n02009229_4838.png,1.0,1.7293965,0.9291997,0.56582457
alexnet_w1_mlp_simclrhn_probe3,1,586,NaN,oven,oven,1,0586_lp_dnn_1_oven_10_n04111531_14383.png,n04111531_14383.png,1.0,2.3496656,1.4763067,0.61755806
alexnet_w1_mlp_simclrhn_probe3,1,587,NaN,bottle,bear,5,0587_lp_dnn_5_bear_10_n02132136_1152.png,n02132136_1152.png,0.0,-0.17604676,0.19415094,-0.26176932
alexnet_w1_mlp_simclrhn_probe3,1,588,NaN,cat,cat,0,0588_lp_dnn_0_cat_10_n02123597_10952.png,n02123597_10952.png,1.0,1.6233746,0.50571316,0.79030603
alexnet_w1_mlp_simclrhn_probe3,1,589,NaN,boat,boat,0,0589_lp_dnn_0_boat_10_n04273569_12318.png,n04273569_12318.png,1.0,6.0693574,4.556838,1.0695127
alexnet_w1_mlp_simclrhn_probe3,1,590,NaN,knife,bottle,40,0590_lp_dnn_40_bottle_10_n03937543_1391.png,n03937543_1391.png,0.0,0.13542517,0.3211701,-0.1313415
alexnet_w1_mlp_simclrhn_probe3,1,591,NaN,bottle,dog,10,0591_lp_dnn_10_dog_10_n02091032_9464.png,n02091032_9464.png,0.0,-0.11579194,0.26497737,-0.26924458
alexnet_w1_mlp_simclrhn_probe3,1,592,NaN,keyboard,oven,7,0592_lp_dnn_7_oven_10_n04111531_5218.png,n04111531_5218.png,0.0,-0.025390893,0.59072614,-0.4356605
alexnet_w1_mlp_simclrhn_probe3,1,593,NaN,bottle,airplane,5,0593_lp_dnn_5_airplane_10_n02690373_9423.png,n02690373_9423.png,0.0,-0.40281713,0.64593494,-0.7415797
alexnet_w1_mlp_simclrhn_probe3,1,594,NaN,bird,bird,1,0594_lp_dnn_1_bird_10_n01860187_348.png,n01860187_348.png,1.0,2.495518,1.857305,0.45128468
alexnet_w1_mlp_simclrhn_probe3,1,595,NaN,bottle,bird,40,0595_lp_dnn_40_bird_10_n02006656_8975.png,n02006656_8975.png,0.0,-0.048385892,0.2633973,-0.22046402
alexnet_w1_mlp_simclrhn_probe3,1,596,NaN,bottle,oven,10,0596_lp_dnn_10_oven_10_n04111531_7619.png,n04111531_7619.png,0.0,0.029758379,0.5508008,-0.3684326
alexnet_w1_mlp_simclrhn_probe3,1,597,NaN,bottle,bicycle,3,0597_lp_dnn_3_bicycle_10_n02835271_9202.png,n02835271_9202.png,0.0,-0.28400582,0.35441393,-0.45143095
alexnet_w1_mlp_simclrhn_probe3,1,598,NaN,bottle,boat,10,0598_lp_dnn_10_boat_10_n03344393_7826.png,n03344393_7826.png,0.0,-0.2688455,0.5012806,-0.5445614
alexnet_w1_mlp_simclrhn_probe3,1,599,NaN,elephant,elephant,3,0599_lp_dnn_3_elephant_10_n02504013_10330.png,n02504013_10330.png,1.0,0.967939,0.18501683,0.5536096
alexnet_w1_mlp_simclrhn_probe3,1,600,NaN,bottle,truck,10,0600_lp_dnn_10_truck_10_n04467665_69202.png,n04467665_69202.png,0.0,-0.31226498,0.49056205,-0.5676844
alexnet_w1_mlp_simclrhn_probe3,1,601,NaN,keyboard,keyboard,7,0601_lp_dnn_7_keyboard_10_n04505470_1120.png,n04505470_1120.png,1.0,0.75642204,0.7218777,0.024426544
alexnet_w1_mlp_simclrhn_probe3,1,602,NaN,bottle,car,5,0602_lp_dnn_5_car_10_n04285008_434.png,n04285008_434.png,0.0,-0.33712792,0.43624347,-0.54685616
alexnet_w1_mlp_simclrhn_probe3,1,603,NaN,bear,cat,1,0603_lp_dnn_1_cat_10_n02123597_7592.png,n02123597_7592.png,0.0,0.34822068,0.5269127,-0.12635434
alexnet_w1_mlp_simclrhn_probe3,1,604,NaN,bottle,dog,15,0604_lp_dnn_15_dog_10_n02090721_583.png,n02090721_583.png,0.0,-0.13802023,0.32451433,-0.32706133
alexnet_w1_mlp_simclrhn_probe3,1,605,NaN,oven,knife,1,0605_lp_dnn_1_knife_10_n03041632_86783.png,n03041632_86783.png,0.0,0.70518446,1.7239149,-0.72035116
alexnet_w1_mlp_simclrhn_probe3,1,606,NaN,bottle,dog,10,0606_lp_dnn_10_dog_10_n02112018_11708.png,n02112018_11708.png,0.0,-0.1429129,0.4106237,-0.3914095
alexnet_w1_mlp_simclrhn_probe3,1,607,NaN,elephant,bird,0,0607_lp_dnn_0_bird_10_n02018795_5662.png,n02018795_5662.png,0.0,-0.0595078,1.7531666,-1.2817544
alexnet_w1_mlp_simclrhn_probe3,1,608,NaN,bottle,elephant,5,0608_lp_dnn_5_elephant_10_n02504013_1088.png,n02504013_1088.png,0.0,-0.17786431,0.18952115,-0.25978073
alexnet_w1_mlp_simclrhn_probe3,1,609,NaN,bottle,elephant,5,0609_lp_dnn_5_elephant_10_n02504458_66.png,n02504458_66.png,0.0,-0.29866993,0.4234836,-0.51063967
alexnet_w1_mlp_simclrhn_probe3,1,610,NaN,bottle,dog,10,0610_lp_dnn_10_dog_10_n02105056_9099.png,n02105056_9099.png,0.0,-0.16137086,0.60795313,-0.54399425
alexnet_w1_mlp_simclrhn_probe3,1,611,NaN,bottle,boat,10,0611_lp_dnn_10_boat_10_n04273569_19699.png,n04273569_19699.png,0.0,-0.2528595,0.45685235,-0.5018421
alexnet_w1_mlp_simclrhn_probe3,1,612,NaN,dog,dog,1,0612_lp_dnn_1_dog_10_n02097047_2376.png,n02097047_2376.png,1.0,2.888617,2.2099986,0.47985572
alexnet_w1_mlp_simclrhn_probe3,1,613,NaN,boat,boat,1,0613_lp_dnn_1_boat_10_n03662601_11901.png,n03662601_11901.png,1.0,2.9458065,0.7320307,1.5653759
alexnet_w1_mlp_simclrhn_probe3,1,614,NaN,oven,oven,1,0614_lp_dnn_1_oven_10_n04111531_7667.png,n04111531_7667.png,1.0,1.4831433,0.69059914,0.56041336
alexnet_w1_mlp_simclrhn_probe3,1,615,NaN,bottle,knife,10,0615_lp_dnn_10_knife_10_n03041632_24384.png,n03041632_24384.png,0.0,0.13468736,0.5013775,-0.25928912
alexnet_w1_mlp_simclrhn_probe3,1,616,NaN,bottle,car,7,0616_lp_dnn_7_car_10_n03100240_1216.png,n03100240_1216.png,0.0,-0.34685528,0.37969014,-0.51374525
alexnet_w1_mlp_simclrhn_probe3,1,617,NaN,bicycle,bicycle,0,0617_lp_dnn_0_bicycle_10_n03792782_3136.png,n03792782_3136.png,1.0,2.2920477,1.7337034,0.3948091
alexnet_w1_mlp_simclrhn_probe3,1,618,NaN,bottle,keyboard,5,0618_lp_dnn_5_keyboard_10_n03085013_26573.png,n03085013_26573.png,0.0,0.34305483,0.39579797,-0.03729503
alexnet_w1_mlp_simclrhn_probe3,1,619,NaN,clock,chair,0,0619_lp_dnn_0_chair_10_n04429376_7888.png,n04429376_7888.png,0.0,1.4732193,1.765605,-0.20674792
alexnet_w1_mlp_simclrhn_probe3,1,620,NaN,bottle,chair,5,0620_lp_dnn_5_chair_10_n03376595_899.png,n03376595_899.png,0.0,-0.22198722,0.5021401,-0.5120353
alexnet_w1_mlp_simclrhn_probe3,1,621,NaN,bottle,bicycle,5,0621_lp_dnn_5_bicycle_10_n02835271_24207.png,n02835271_24207.png,0.0,-0.38400203,0.5707565,-0.67511624
alexnet_w1_mlp_simclrhn_probe3,1,622,NaN,oven,oven,3,0622_lp_dnn_3_oven_10_n04111531_7329.png,n04111531_7329.png,1.0,1.1669563,0.74281424,0.29991373
alexnet_w1_mlp_simclrhn_probe3,1,623,NaN,bottle,oven,5,0623_lp_dnn_5_oven_10_n04111531_12942.png,n04111531_12942.png,0.0,0.08923074,0.52039546,-0.3048795
alexnet_w1_mlp_simclrhn_probe3,1,624,NaN,bottle,bear,15,0624_lp_dnn_15_bear_10_n02134418_1978.png,n02134418_1978.png,0.0,-0.16895308,0.38825035,-0.39400232
alexnet_w1_mlp_simclrhn_probe3,1,625,NaN,knife,cat,40,0625_lp_dnn_40_cat_10_n02123159_5872.png,n02123159_5872.png,0.0,-0.03999198,0.27343962,-0.2216296
alexnet_w1_mlp_simclrhn_probe3,1,626,NaN,bottle,keyboard,15,0626_lp_dnn_15_keyboard_10_n03085013_18797.png,n03085013_18797.png,0.0,0.18879947,0.4318314,-0.17184952
alexnet_w1_mlp_simclrhn_probe3,1,627,NaN,bottle,airplane,15,0627_lp_dnn_15_airplane_10_n02690373_5496.png,n02690373_5496.png,0.0,-0.13848591,0.32942706,-0.33086443
alexnet_w1_mlp_simclrhn_probe3,1,628,NaN,bottle,oven,15,0628_lp_dnn_15_oven_10_n04111531_21963.png,n04111531_21963.png,0.0,0.06691313,0.3948209,-0.23186581
alexnet_w1_mlp_simclrhn_probe3,1,629,NaN,bottle,bottle,0,0629_lp_dnn_0_bottle_10_n02823428_2918.png,n02823428_2918.png,1.0,10.352029,2.7165387,5.399107
alexnet_w1_mlp_simclrhn_probe3,1,630,NaN,bottle,keyboard,10,0630_lp_dnn_10_keyboard_10_n04505470_9570.png,n04505470_9570.png,0.0,0.2929775,0.48035422,-0.13249534
alexnet_w1_mlp_simclrhn_probe3,1,631,NaN,bird,bird,1,0631_lp_dnn_1_bird_10_n02002556_5977.png,n02002556_5977.png,1.0,2.2376401,0.06276792,1.5378668
alexnet_w1_mlp_simclrhn_probe3,1,632,NaN,knife,airplane,40,0632_lp_dnn_40_airplane_10_n02690373_5961.png,n02690373_5961.png,0.0,-0.05986821,0.32707095,-0.2736073
alexnet_w1_mlp_simclrhn_probe3,1,633,NaN,bottle,clock,3,0633_lp_dnn_3_clock_10_n04548280_5765.png,n04548280_5765.png,0.0,0.41768456,0.48809773,-0.049789634
alexnet_w1_mlp_simclrhn_probe3,1,634,NaN,bottle,cat,15,0634_lp_dnn_15_cat_10_n02123597_11940.png,n02123597_11940.png,0.0,-0.08565479,0.28050894,-0.25891685
alexnet_w1_mlp_simclrhn_probe3,1,635,NaN,oven,airplane,3,0635_lp_dnn_3_airplane_10_n02690373_3993.png,n02690373_3993.png,0.0,-0.08660605,0.43269372,-0.36720037
alexnet_w1_mlp_simclrhn_probe3,1,636,NaN,bottle,chair,7,0636_lp_dnn_7_chair_10_n04099969_3984.png,n04099969_3984.png,0.0,-0.25517428,0.63425314,-0.6289202
alexnet_w1_mlp_simclrhn_probe3,1,637,NaN,knife,airplane,3,0637_lp_dnn_3_airplane_10_n02690373_939.png,n02690373_939.png,0.0,0.2344436,0.2857929,-0.036309425
alexnet_w1_mlp_simclrhn_probe3,1,638,NaN,car,car,1,0638_lp_dnn_1_car_10_n02814533_48541.png,n02814533_48541.png,1.0,8.012235,6.4614353,1.0965807
alexnet_w1_mlp_simclrhn_probe3,1,639,NaN,bottle,clock,10,0639_lp_dnn_10_clock_10_n03196217_3986.png,n03196217_3986.png,0.0,0.27354452,0.53823096,-0.18716158
alexnet_w1_mlp_simclrhn_probe3,1,640,NaN,bottle,clock,7,0640_lp_dnn_7_clock_10_n03196217_3006.png,n03196217_3006.png,0.0,0.3391391,0.9067691,-0.40137503
