subj,session,trial,rt,object_response,category,condition,imagename,filename,is_correct,targ_act,max_nontarg_act,decision_margin
alexnet_w1_mlp_simclrhn_probe1,1,1,NaN,knife,chair,40,0001_lp_dnn_40_chair_10_n04099969_7577.png,n04099969_7577.png,0.0,-1.5248768,-0.40669957,-0.79067075
alexnet_w1_mlp_simclrhn_probe1,1,2,NaN,clock,cat,40,0002_lp_dnn_40_cat_10_n02124075_12815.png,n02124075_12815.png,0.0,-1.4563166,-0.3176763,-0.80514026
alexnet_w1_mlp_simclrhn_probe1,1,3,NaN,keyboard,truck,5,0003_lp_dnn_5_truck_10_n04467665_34253.png,n04467665_34253.png,0.0,-2.9467254,-0.23950407,-1.9142946
alexnet_w1_mlp_simclrhn_probe1,1,4,NaN,oven,clock,1,0004_lp_dnn_1_clock_10_n04548280_5320.png,n04548280_5320.png,0.0,-0.52379256,-0.27027345,-0.1792651
alexnet_w1_mlp_simclrhn_probe1,1,5,NaN,keyboard,dog,3,0005_lp_dnn_3_dog_10_n02108915_3652.png,n02108915_3652.png,0.0,-1.9424384,-0.73107725,-0.8565617
alexnet_w1_mlp_simclrhn_probe1,1,6,NaN,keyboard,keyboard,7,0006_lp_dnn_7_keyboard_10_n04505470_578.png,n04505470_578.png,1.0,0.5246243,-0.9733507,1.0592283
alexnet_w1_mlp_simclrhn_probe1,1,7,NaN,bird,cat,7,0007_lp_dnn_7_cat_10_n02123597_3842.png,n02123597_3842.png,0.0,-3.040405,-0.84322053,-1.5536442
alexnet_w1_mlp_simclrhn_probe1,1,8,NaN,bear,bear,1,0008_lp_dnn_1_bear_10_n02134418_14.png,n02134418_14.png,1.0,6.1481643,2.9705684,2.2468996
alexnet_w1_mlp_simclrhn_probe1,1,9,NaN,bird,knife,10,0009_lp_dnn_10_knife_10_n03041632_29920.png,n03041632_29920.png,0.0,-2.8050427,-0.7594476,-1.4464543
alexnet_w1_mlp_simclrhn_probe1,1,10,NaN,bird,bird,5,0010_lp_dnn_5_bird_10_n01795545_952.png,n01795545_952.png,1.0,-0.690393,-0.7676177,0.054606132
alexnet_w1_mlp_simclrhn_probe1,1,11,NaN,bear,bear,3,0011_lp_dnn_3_bear_10_n02132136_6441.png,n02132136_6441.png,1.0,0.10448699,-0.2348222,0.23992783
alexnet_w1_mlp_simclrhn_probe1,1,12,NaN,bear,bird,3,0012_lp_dnn_3_bird_10_n01829413_8792.png,n01829413_8792.png,0.0,-1.0466709,-0.000562191,-0.73971057
alexnet_w1_mlp_simclrhn_probe1,1,13,NaN,keyboard,keyboard,7,0013_lp_dnn_7_keyboard_10_n04505470_4458.png,n04505470_4458.png,1.0,0.28843838,-0.90181166,0.8416339
alexnet_w1_mlp_simclrhn_probe1,1,14,NaN,bird,chair,10,0014_lp_dnn_10_chair_10_n03376595_9176.png,n03376595_9176.png,0.0,-4.101446,-0.77779967,-2.350173
alexnet_w1_mlp_simclrhn_probe1,1,15,NaN,clock,clock,40,0015_lp_dnn_40_clock_10_n04548280_7662.png,n04548280_7662.png,1.0,-0.28119123,-0.63273233,0.2485771
alexnet_w1_mlp_simclrhn_probe1,1,16,NaN,clock,keyboard,40,0016_lp_dnn_40_keyboard_10_n03085013_25809.png,n03085013_25809.png,0.0,-1.3144752,-0.14510775,-0.82686764
alexnet_w1_mlp_simclrhn_probe1,1,17,NaN,bird,oven,5,0017_lp_dnn_5_oven_10_n04111531_1580.png,n04111531_1580.png,0.0,-2.476462,-0.531722,-1.3751388
alexnet_w1_mlp_simclrhn_probe1,1,18,NaN,elephant,elephant,1,0018_lp_dnn_1_elephant_10_n02504458_900.png,n02504458_900.png,1.0,5.192863,-1.0635682,4.423965
alexnet_w1_mlp_simclrhn_probe1,1,19,NaN,keyboard,dog,7,0019_lp_dnn_7_dog_10_n02106662_2384.png,n02106662_2384.png,0.0,-3.4460404,-0.6414111,-1.9831724
alexnet_w1_mlp_simclrhn_probe1,1,20,NaN,keyboard,truck,10,0020_lp_dnn_10_truck_10_n03796401_22618.png,n03796401_22618.png,0.0,-4.3854995,-0.8738751,-2.4830935
alexnet_w1_mlp_simclrhn_probe1,1,21,NaN,bird,elephant,15,0021_lp_dnn_15_elephant_10_n02504013_5463.png,n02504013_5463.png,0.0,-3.338609,-0.6843004,-1.8768796
alexnet_w1_mlp_simclrhn_probe1,1,22,NaN,bird,chair,10,0022_lp_dnn_10_chair_10_n04429376_16459.png,n04429376_16459.png,0.0,-3.4490438,-0.7082021,-1.9380677
alexnet_w1_mlp_simclrhn_probe1,1,23,NaN,cat,cat,1,0023_lp_dnn_1_cat_10_n02123045_12206.png,n02123045_12206.png,1.0,1.4787134,0.20291369,0.90212667
alexnet_w1_mlp_simclrhn_probe1,1,24,NaN,keyboard,truck,7,0024_lp_dnn_7_truck_10_n03417042_2633.png,n03417042_2633.png,0.0,-4.3441305,-0.65064883,-2.611686
alexnet_w1_mlp_simclrhn_probe1,1,25,NaN,bottle,keyboard,15,0025_lp_dnn_15_keyboard_10_n03085013_24416.png,n03085013_24416.png,0.0,-1.1584864,-0.8676527,-0.20565045
alexnet_w1_mlp_simclrhn_probe1,1,26,NaN,keyboard,car,7,0026_lp_dnn_7_car_10_n02814533_44503.png,n02814533_44503.png,0.0,-3.5627394,-0.7102086,-2.0170438
alexnet_w1_mlp_simclrhn_probe1,1,27,NaN,bird,elephant,5,0027_lp_dnn_5_elephant_10_n02504458_5797.png,n02504458_5797.png,0.0,-2.6776242,-0.49898556,-1.5405302
alexnet_w1_mlp_simclrhn_probe1,1,28,NaN,clock,chair,0,0028_lp_dnn_0_chair_10_n04429376_8237.png,n04429376_8237.png,0.0,-0.9502623,-0.7960968,-0.10901148
alexnet_w1_mlp_simclrhn_probe1,1,29,NaN,bird,cat,7,0029_lp_dnn_7_cat_10_n02123159_587.png,n02123159_587.png,0.0,-3.5271845,-0.5856215,-2.0799992
alexnet_w1_mlp_simclrhn_probe1,1,30,NaN,bird,bird,10,0030_lp_dnn_10_bird_10_n02028035_17238.png,n02028035_17238.png,1.0,-0.60761684,-1.1114515,0.35626492
alexnet_w1_mlp_simclrhn_probe1,1,31,NaN,clock,cat,40,0031_lp_dnn_40_cat_10_n02123159_4348.png,n02123159_4348.png,0.0,-1.4691038,-0.32653216,-0.8079202
alexnet_w1_mlp_simclrhn_probe1,1,32,NaN,bird,boat,5,0032_lp_dnn_5_boat_10_n04273569_22332.png,n04273569_22332.png,0.0,-3.250135,-0.64893574,-1.8393255
alexnet_w1_mlp_simclrhn_probe1,1,33,NaN,elephant,elephant,1,0033_lp_dnn_1_elephant_10_n02504013_1244.png,n02504013_1244.png,1.0,7.772212,0.85017234,4.8946214
alexnet_w1_mlp_simclrhn_probe1,1,34,NaN,keyboard,bicycle,7,0034_lp_dnn_7_bicycle_10_n03792782_30229.png,n03792782_30229.png,0.0,-3.5341024,-0.8651149,-1.8872592
alexnet_w1_mlp_simclrhn_probe1,1,35,NaN,bird,keyboard,10,0035_lp_dnn_10_keyboard_10_n03085013_7573.png,n03085013_7573.png,0.0,-1.122069,-0.247294,-0.61855936
alexnet_w1_mlp_simclrhn_probe1,1,36,NaN,keyboard,keyboard,3,0036_lp_dnn_3_keyboard_10_n03085013_24578.png,n03085013_24578.png,1.0,1.5646489,0.33196387,0.8716399
alexnet_w1_mlp_simclrhn_probe1,1,37,NaN,bird,truck,15,0037_lp_dnn_15_truck_10_n03417042_1336.png,n03417042_1336.png,0.0,-4.726716,-0.6322498,-2.8952248
alexnet_w1_mlp_simclrhn_probe1,1,38,NaN,keyboard,knife,3,0038_lp_dnn_3_knife_10_n03041632_7495.png,n03041632_7495.png,0.0,-0.39014328,-0.27345595,-0.082510404
alexnet_w1_mlp_simclrhn_probe1,1,39,NaN,car,car,0,0039_lp_dnn_0_car_10_n03100240_9625.png,n03100240_9625.png,1.0,5.6152396,2.8893695,1.9274813
alexnet_w1_mlp_simclrhn_probe1,1,40,NaN,bird,elephant,10,0040_lp_dnn_10_elephant_10_n02504458_6107.png,n02504458_6107.png,0.0,-3.5602207,-0.5567951,-2.1237426
alexnet_w1_mlp_simclrhn_probe1,1,41,NaN,bicycle,bicycle,0,0041_lp_dnn_0_bicycle_10_n03792782_33649.png,n03792782_33649.png,1.0,6.6438603,-1.4825523,5.7462416
alexnet_w1_mlp_simclrhn_probe1,1,42,NaN,clock,clock,1,0042_lp_dnn_1_clock_10_n03196217_8282.png,n03196217_8282.png,1.0,1.4404917,0.7824926,0.46527565
alexnet_w1_mlp_simclrhn_probe1,1,43,NaN,keyboard,keyboard,7,0043_lp_dnn_7_keyboard_10_n03085013_21534.png,n03085013_21534.png,1.0,-0.25983346,-0.7452215,0.3432212
alexnet_w1_mlp_simclrhn_probe1,1,44,NaN,bird,elephant,15,0044_lp_dnn_15_elephant_10_n02504013_22813.png,n02504013_22813.png,0.0,-3.3672085,-0.44082338,-2.0692668
alexnet_w1_mlp_simclrhn_probe1,1,45,NaN,bird,truck,10,0045_lp_dnn_10_truck_10_n03796401_16425.png,n03796401_16425.png,0.0,-5.8273726,-0.973113,-3.4324799
alexnet_w1_mlp_simclrhn_probe1,1,46,NaN,knife,airplane,15,0046_lp_dnn_15_airplane_10_n02690373_9427.png,n02690373_9427.png,0.0,-1.6416088,-0.7420014,-0.63611853
alexnet_w1_mlp_simclrhn_probe1,1,47,NaN,keyboard,bird,7,0047_lp_dnn_7_bird_10_n02009912_11907.png,n02009912_11907.png,0.0,-1.5450606,-0.7202179,-0.5832519
alexnet_w1_mlp_simclrhn_probe1,1,48,NaN,airplane,airplane,1,0048_lp_dnn_1_airplane_10_n02690373_5773.png,n02690373_5773.png,1.0,7.7894597,-2.4675152,7.2527766
alexnet_w1_mlp_simclrhn_probe1,1,49,NaN,clock,chair,40,0049_lp_dnn_40_chair_10_n02791124_2972.png,n02791124_2972.png,0.0,-1.7489656,-0.43128166,-0.93174326
alexnet_w1_mlp_simclrhn_probe1,1,50,NaN,bird,bird,1,0050_lp_dnn_1_bird_10_n01819313_18188.png,n01819313_18188.png,1.0,0.5124158,-0.25184438,0.54041356
alexnet_w1_mlp_simclrhn_probe1,1,51,NaN,keyboard,car,5,0051_lp_dnn_5_car_10_n04285008_7428.png,n04285008_7428.png,0.0,-3.4093008,0.06324887,-2.4554634
alexnet_w1_mlp_simclrhn_probe1,1,52,NaN,bird,bottle,7,0052_lp_dnn_7_bottle_10_n04591713_6923.png,n04591713_6923.png,0.0,-1.6696441,-0.4903506,-0.83388644
alexnet_w1_mlp_simclrhn_probe1,1,53,NaN,knife,knife,0,0053_lp_dnn_0_knife_10_n03041632_22570.png,n03041632_22570.png,1.0,0.59021604,0.3187949,0.19192372
alexnet_w1_mlp_simclrhn_probe1,1,54,NaN,bear,bear,0,0054_lp_dnn_0_bear_10_n02132136_7586.png,n02132136_7586.png,1.0,2.6419148,1.5799007,0.75095737
alexnet_w1_mlp_simclrhn_probe1,1,55,NaN,keyboard,clock,5,0055_lp_dnn_5_clock_10_n04548280_9144.png,n04548280_9144.png,0.0,-0.6030467,-0.050840676,-0.39046863
alexnet_w1_mlp_simclrhn_probe1,1,56,NaN,oven,bottle,0,0056_lp_dnn_0_bottle_10_n04591713_2680.png,n04591713_2680.png,0.0,-2.5090768,-1.3253412,-0.8370275
alexnet_w1_mlp_simclrhn_probe1,1,57,NaN,cat,cat,3,0057_lp_dnn_3_cat_10_n02123045_1596.png,n02123045_1596.png,1.0,-0.4744792,-0.6353759,0.11377116
alexnet_w1_mlp_simclrhn_probe1,1,58,NaN,bird,cat,10,0058_lp_dnn_10_cat_10_n02123597_19450.png,n02123597_19450.png,0.0,-3.1284664,-0.9863958,-1.5146726
alexnet_w1_mlp_simclrhn_probe1,1,59,NaN,clock,chair,15,0059_lp_dnn_15_chair_10_n03376595_3462.png,n03376595_3462.png,0.0,-1.4695396,-0.38279402,-0.7684452
alexnet_w1_mlp_simclrhn_probe1,1,60,NaN,bottle,bottle,3,0060_lp_dnn_3_bottle_10_n04591713_3683.png,n04591713_3683.png,1.0,0.07438098,0.027888378,0.032875232
alexnet_w1_mlp_simclrhn_probe1,1,61,NaN,keyboard,clock,7,0061_lp_dnn_7_clock_10_n03196217_4309.png,n03196217_4309.png,0.0,-0.45503262,-0.058076978,-0.28069
alexnet_w1_mlp_simclrhn_probe1,1,62,NaN,bird,bear,15,0062_lp_dnn_15_bear_10_n02134084_4923.png,n02134084_4923.png,0.0,-3.2466726,-0.9519521,-1.6226126
alexnet_w1_mlp_simclrhn_probe1,1,63,NaN,oven,chair,1,0063_lp_dnn_1_chair_10_n04429376_5238.png,n04429376_5238.png,0.0,-0.42172712,1.3028785,-1.2194803
alexnet_w1_mlp_simclrhn_probe1,1,64,NaN,airplane,clock,0,0064_lp_dnn_0_clock_10_n03196217_2414.png,n03196217_2414.png,0.0,-4.853118,-1.2939925,-2.5166817
alexnet_w1_mlp_simclrhn_probe1,1,65,NaN,bird,bird,3,0065_lp_dnn_3_bird_10_n01797886_2711.png,n01797886_2711.png,1.0,-0.58231103,-1.2398239,0.46493185
alexnet_w1_mlp_simclrhn_probe1,1,66,NaN,bird,truck,15,0066_lp_dnn_15_truck_10_n04467665_68463.png,n04467665_68463.png,0.0,-2.9196784,-0.72503924,-1.5518442
alexnet_w1_mlp_simclrhn_probe1,1,67,NaN,truck,truck,0,0067_lp_dnn_0_truck_10_n03417042_10099.png,n03417042_10099.png,1.0,8.045722,3.382782,3.2971966
alexnet_w1_mlp_simclrhn_probe1,1,68,NaN,bird,bear,10,0068_lp_dnn_10_bear_10_n02134418_3793.png,n02134418_3793.png,0.0,-2.9119508,-0.80914694,-1.486907
alexnet_w1_mlp_simclrhn_probe1,1,69,NaN,bird,bottle,10,0069_lp_dnn_10_bottle_10_n03937543_9524.png,n03937543_9524.png,0.0,-1.5273907,-0.6980789,-0.586412
alexnet_w1_mlp_simclrhn_probe1,1,70,NaN,cat,cat,3,0070_lp_dnn_3_cat_10_n02123394_1038.png,n02123394_1038.png,1.0,-0.24119101,-0.4195379,0.1261103
alexnet_w1_mlp_simclrhn_probe1,1,71,NaN,keyboard,dog,5,0071_lp_dnn_5_dog_10_n02110185_7886.png,n02110185_7886.png,0.0,-2.9788678,-0.51418835,-1.7427917
alexnet_w1_mlp_simclrhn_probe1,1,72,NaN,clock,clock,3,0072_lp_dnn_3_clock_10_n02708093_4912.png,n02708093_4912.png,1.0,1.0014204,0.058186717,0.6669669
alexnet_w1_mlp_simclrhn_probe1,1,73,NaN,bird,dog,15,0073_lp_dnn_15_dog_10_n02108422_932.png,n02108422_932.png,0.0,-3.2206337,-0.5553437,-1.8846447
alexnet_w1_mlp_simclrhn_probe1,1,74,NaN,truck,truck,0,0074_lp_dnn_0_truck_10_n04467665_18621.png,n04467665_18621.png,1.0,7.3256693,1.180766,4.345103
alexnet_w1_mlp_simclrhn_probe1,1,75,NaN,car,truck,1,0075_lp_dnn_1_truck_10_n04467665_50932.png,n04467665_50932.png,0.0,1.521063,2.1769238,-0.46376362
alexnet_w1_mlp_simclrhn_probe1,1,76,NaN,dog,dog,1,0076_lp_dnn_1_dog_10_n02102480_7293.png,n02102480_7293.png,1.0,0.22636889,-2.1727273,1.6964172
alexnet_w1_mlp_simclrhn_probe1,1,77,NaN,knife,bottle,1,0077_lp_dnn_1_bottle_10_n04591713_4764.png,n04591713_4764.png,0.0,-1.5493829,-1.0642306,-0.34305453
alexnet_w1_mlp_simclrhn_probe1,1,78,NaN,bird,clock,15,0078_lp_dnn_15_clock_10_n02708093_274.png,n02708093_274.png,0.0,-1.3638034,-0.99534196,-0.2605416
alexnet_w1_mlp_simclrhn_probe1,1,79,NaN,keyboard,bottle,5,0079_lp_dnn_5_bottle_10_n04557648_29772.png,n04557648_29772.png,0.0,-1.8721431,-0.5660042,-0.92357975
alexnet_w1_mlp_simclrhn_probe1,1,80,NaN,bottle,car,15,0080_lp_dnn_15_car_10_n03100240_22499.png,n03100240_22499.png,0.0,-3.8453915,-1.1797076,-1.8849231
alexnet_w1_mlp_simclrhn_probe1,1,81,NaN,clock,clock,3,0081_lp_dnn_3_clock_10_n02708093_6252.png,n02708093_6252.png,1.0,3.7131326,0.23837426,2.4570253
alexnet_w1_mlp_simclrhn_probe1,1,82,NaN,keyboard,airplane,10,0082_lp_dnn_10_airplane_10_n02690373_5427.png,n02690373_5427.png,0.0,-2.9847383,-1.1144081,-1.3225232
alexnet_w1_mlp_simclrhn_probe1,1,83,NaN,bird,dog,15,0083_lp_dnn_15_dog_10_n02107142_46045.png,n02107142_46045.png,0.0,-3.900977,-1.1068963,-1.9757135
alexnet_w1_mlp_simclrhn_probe1,1,84,NaN,clock,keyboard,40,0084_lp_dnn_40_keyboard_10_n03085013_23793.png,n03085013_23793.png,0.0,-1.0945914,-0.36239076,-0.517744
alexnet_w1_mlp_simclrhn_probe1,1,85,NaN,clock,bicycle,3,0085_lp_dnn_3_bicycle_10_n03792782_12421.png,n03792782_12421.png,0.0,-1.9226508,0.15617153,-1.4699494
alexnet_w1_mlp_simclrhn_probe1,1,86,NaN,airplane,airplane,0,0086_lp_dnn_0_airplane_10_n02690373_1310.png,n02690373_1310.png,1.0,6.9635525,2.9957118,2.8056872
alexnet_w1_mlp_simclrhn_probe1,1,87,NaN,clock,oven,15,0087_lp_dnn_15_oven_10_n04111531_8793.png,n04111531_8793.png,0.0,-2.3211775,-0.55683684,-1.2475773
alexnet_w1_mlp_simclrhn_probe1,1,88,NaN,keyboard,airplane,5,0088_lp_dnn_5_airplane_10_n02690373_633.png,n02690373_633.png,0.0,-1.4573493,-0.6253555,-0.58830845
alexnet_w1_mlp_simclrhn_probe1,1,89,NaN,keyboard,clock,5,0089_lp_dnn_5_clock_10_n02708093_2307.png,n02708093_2307.png,0.0,-1.3245662,-0.68150175,-0.45471528
alexnet_w1_mlp_simclrhn_probe1,1,90,NaN,bird,oven,10,0090_lp_dnn_10_oven_10_n04111531_13795.png,n04111531_13795.png,0.0,-2.6593852,-0.96446604,-1.1984888
alexnet_w1_mlp_simclrhn_probe1,1,91,NaN,oven,boat,3,0091_lp_dnn_3_boat_10_n03662601_1427.png,n03662601_1427.png,0.0,-1.4990585,0.49316812,-1.4087169
alexnet_w1_mlp_simclrhn_probe1,1,92,NaN,keyboard,boat,5,0092_lp_dnn_5_boat_10_n04612504_15944.png,n04612504_15944.png,0.0,-3.961961,-0.6025902,-2.375434
alexnet_w1_mlp_simclrhn_probe1,1,93,NaN,clock,airplane,40,0093_lp_dnn_40_airplane_10_n02690373_3561.png,n02690373_3561.png,0.0,-1.2032064,-0.39606917,-0.57073224
alexnet_w1_mlp_simclrhn_probe1,1,94,NaN,bird,elephant,7,0094_lp_dnn_7_elephant_10_n02504458_1848.png,n02504458_1848.png,0.0,-2.821418,-0.69037473,-1.5068753
alexnet_w1_mlp_simclrhn_probe1,1,95,NaN,keyboard,oven,5,0095_lp_dnn_5_oven_10_n04111531_4155.png,n04111531_4155.png,0.0,-2.3746777,-0.43765187,-1.3696841
alexnet_w1_mlp_simclrhn_probe1,1,96,NaN,truck,car,0,0096_lp_dnn_0_car_10_n03100240_8327.png,n03100240_8327.png,0.0,7.2005906,7.3057947,-0.07439054
alexnet_w1_mlp_simclrhn_probe1,1,97,NaN,oven,chair,0,0097_lp_dnn_0_chair_10_n04429376_24319.png,n04429376_24319.png,0.0,-0.24262029,0.032549888,-0.1945747
alexnet_w1_mlp_simclrhn_probe1,1,98,NaN,keyboard,chair,3,0098_lp_dnn_3_chair_10_n03376595_5112.png,n03376595_5112.png,0.0,-1.2605546,-0.5195422,-0.52397484
alexnet_w1_mlp_simclrhn_probe1,1,99,NaN,oven,cat,1,0099_lp_dnn_1_cat_10_n02124075_2268.png,n02124075_2268.png,0.0,0.015211423,0.92772776,-0.6452465
alexnet_w1_mlp_simclrhn_probe1,1,100,NaN,knife,boat,3,0100_lp_dnn_3_boat_10_n04273569_1137.png,n04273569_1137.png,0.0,-1.4238455,-0.13801618,-0.9092186
alexnet_w1_mlp_simclrhn_probe1,1,101,NaN,chair,chair,1,0101_lp_dnn_1_chair_10_n02791124_15383.png,n02791124_15383.png,1.0,2.9498177,0.6262155,1.6430349
alexnet_w1_mlp_simclrhn_probe1,1,102,NaN,clock,clock,15,0102_lp_dnn_15_clock_10_n04548280_8998.png,n04548280_8998.png,1.0,-0.45992994,-0.47915763,0.013596025
alexnet_w1_mlp_simclrhn_probe1,1,103,NaN,bear,dog,0,0103_lp_dnn_0_dog_10_n02097047_2800.png,n02097047_2800.png,0.0,-1.021168,1.5782669,-1.838078
alexnet_w1_mlp_simclrhn_probe1,1,104,NaN,bird,bicycle,15,0104_lp_dnn_15_bicycle_10_n03792782_18294.png,n03792782_18294.png,0.0,-2.6649456,-0.78556865,-1.3289201
alexnet_w1_mlp_simclrhn_probe1,1,105,NaN,elephant,elephant,0,0105_lp_dnn_0_elephant_10_n02504013_24486.png,n02504013_24486.png,1.0,1.3528452,0.3901,0.68076366
alexnet_w1_mlp_simclrhn_probe1,1,106,NaN,bird,airplane,7,0106_lp_dnn_7_airplane_10_n02690373_2923.png,n02690373_2923.png,0.0,-2.5577023,-0.78756684,-1.2516748
alexnet_w1_mlp_simclrhn_probe1,1,107,NaN,airplane,airplane,3,0107_lp_dnn_3_airplane_10_n02690373_15392.png,n02690373_15392.png,1.0,0.038608246,-0.22796898,0.18849856
alexnet_w1_mlp_simclrhn_probe1,1,108,NaN,keyboard,oven,5,0108_lp_dnn_5_oven_10_n04111531_6080.png,n04111531_6080.png,0.0,-1.5375952,-0.35365045,-0.83717537
alexnet_w1_mlp_simclrhn_probe1,1,109,NaN,bottle,bear,15,0109_lp_dnn_15_bear_10_n02134084_22736.png,n02134084_22736.png,0.0,-2.859958,-0.9575199,-1.3452269
alexnet_w1_mlp_simclrhn_probe1,1,110,NaN,knife,knife,1,0110_lp_dnn_1_knife_10_n03041632_33326.png,n03041632_33326.png,1.0,-0.55528355,-1.5646904,0.7137584
alexnet_w1_mlp_simclrhn_probe1,1,111,NaN,knife,truck,40,0111_lp_dnn_40_truck_10_n04467665_66876.png,n04467665_66876.png,0.0,-2.6707554,-0.38738096,-1.6145895
alexnet_w1_mlp_simclrhn_probe1,1,112,NaN,knife,truck,40,0112_lp_dnn_40_truck_10_n03796401_10234.png,n03796401_10234.png,0.0,-2.5794303,-0.46071732,-1.4981563
alexnet_w1_mlp_simclrhn_probe1,1,113,NaN,bird,bicycle,7,0113_lp_dnn_7_bicycle_10_n03792782_5416.png,n03792782_5416.png,0.0,-4.1176543,-0.6037098,-2.484734
alexnet_w1_mlp_simclrhn_probe1,1,114,NaN,bird,knife,7,0114_lp_dnn_7_knife_10_n03041632_25772.png,n03041632_25772.png,0.0,-2.2713065,-0.5064508,-1.2479415
alexnet_w1_mlp_simclrhn_probe1,1,115,NaN,bird,bicycle,10,0115_lp_dnn_10_bicycle_10_n03792782_7108.png,n03792782_7108.png,0.0,-3.4331748,-0.6013427,-2.0024078
alexnet_w1_mlp_simclrhn_probe1,1,116,NaN,chair,chair,0,0116_lp_dnn_0_chair_10_n03376595_1981.png,n03376595_1981.png,1.0,2.5784535,0.04212965,1.7934518
alexnet_w1_mlp_simclrhn_probe1,1,117,NaN,bottle,oven,15,0117_lp_dnn_15_oven_10_n04111531_6508.png,n04111531_6508.png,0.0,-2.490107,-1.092984,-0.9879152
alexnet_w1_mlp_simclrhn_probe1,1,118,NaN,bird,bird,15,0118_lp_dnn_15_bird_10_n01843383_2843.png,n01843383_2843.png,1.0,-0.80310893,-1.4444597,0.45350346
alexnet_w1_mlp_simclrhn_probe1,1,119,NaN,bird,cat,5,0119_lp_dnn_5_cat_10_n02123597_5887.png,n02123597_5887.png,0.0,-3.314787,-0.4119367,-2.0526252
alexnet_w1_mlp_simclrhn_probe1,1,120,NaN,clock,clock,40,0120_lp_dnn_40_clock_10_n04548280_9801.png,n04548280_9801.png,1.0,-0.34825233,-0.4452697,0.068601646
alexnet_w1_mlp_simclrhn_probe1,1,121,NaN,bird,bird,1,0121_lp_dnn_1_bird_10_n01530575_10332.png,n01530575_10332.png,1.0,-0.8127165,-1.0907652,0.19661017
alexnet_w1_mlp_simclrhn_probe1,1,122,NaN,bird,elephant,15,0122_lp_dnn_15_elephant_10_n02504013_5887.png,n02504013_5887.png,0.0,-3.3174996,-0.7728982,-1.799305
alexnet_w1_mlp_simclrhn_probe1,1,123,NaN,oven,cat,3,0123_lp_dnn_3_cat_10_n02124075_8693.png,n02124075_8693.png,0.0,-0.8331832,-0.332259,-0.35420692
alexnet_w1_mlp_simclrhn_probe1,1,124,NaN,keyboard,boat,15,0124_lp_dnn_15_boat_10_n04612504_26151.png,n04612504_26151.png,0.0,-3.0513027,-0.9019889,-1.5197943
alexnet_w1_mlp_simclrhn_probe1,1,125,NaN,keyboard,cat,7,0125_lp_dnn_7_cat_10_n02125311_53412.png,n02125311_53412.png,0.0,-2.9906225,-0.7738404,-1.5675017
alexnet_w1_mlp_simclrhn_probe1,1,126,NaN,bottle,knife,7,0126_lp_dnn_7_knife_10_n03041632_46914.png,n03041632_46914.png,0.0,-0.97326094,-0.595327,-0.26723963
alexnet_w1_mlp_simclrhn_probe1,1,127,NaN,bird,bicycle,15,0127_lp_dnn_15_bicycle_10_n03792782_5629.png,n03792782_5629.png,0.0,-3.539683,-1.0350444,-1.771047
alexnet_w1_mlp_simclrhn_probe1,1,128,NaN,clock,bottle,40,0128_lp_dnn_40_bottle_10_n02823428_79.png,n02823428_79.png,0.0,-0.5491964,-0.46642208,-0.058530297
alexnet_w1_mlp_simclrhn_probe1,1,129,NaN,dog,dog,3,0129_lp_dnn_3_dog_10_n02101006_5024.png,n02101006_5024.png,1.0,-0.28609908,-0.745542,0.3248752
alexnet_w1_mlp_simclrhn_probe1,1,130,NaN,bird,oven,15,0130_lp_dnn_15_oven_10_n04111531_2350.png,n04111531_2350.png,0.0,-3.2770917,-1.2822062,-1.4105971
alexnet_w1_mlp_simclrhn_probe1,1,131,NaN,keyboard,airplane,7,0131_lp_dnn_7_airplane_10_n02690373_4839.png,n02690373_4839.png,0.0,-1.8994592,-0.5294356,-0.9687531
alexnet_w1_mlp_simclrhn_probe1,1,132,NaN,keyboard,car,5,0132_lp_dnn_5_car_10_n03100240_2075.png,n03100240_2075.png,0.0,-3.2530663,-0.254251,-2.1204827
alexnet_w1_mlp_simclrhn_probe1,1,133,NaN,keyboard,cat,5,0133_lp_dnn_5_cat_10_n02123159_3729.png,n02123159_3729.png,0.0,-2.421356,-0.30635887,-1.4955288
alexnet_w1_mlp_simclrhn_probe1,1,134,NaN,bird,knife,10,0134_lp_dnn_10_knife_10_n03041632_3079.png,n03041632_3079.png,0.0,-2.3859916,-0.82497615,-1.1038046
alexnet_w1_mlp_simclrhn_probe1,1,135,NaN,bird,elephant,15,0135_lp_dnn_15_elephant_10_n02504013_2052.png,n02504013_2052.png,0.0,-3.3692083,-0.77630687,-1.8334582
alexnet_w1_mlp_simclrhn_probe1,1,136,NaN,clock,cat,40,0136_lp_dnn_40_cat_10_n02123159_3724.png,n02123159_3724.png,0.0,-1.7654997,-0.29260632,-1.0414929
alexnet_w1_mlp_simclrhn_probe1,1,137,NaN,clock,keyboard,15,0137_lp_dnn_15_keyboard_10_n03085013_7955.png,n03085013_7955.png,0.0,-0.8788802,-0.45601812,-0.29900864
alexnet_w1_mlp_simclrhn_probe1,1,138,NaN,knife,bird,40,0138_lp_dnn_40_bird_10_n02056570_9872.png,n02056570_9872.png,0.0,-1.5746404,-0.3338083,-0.8774008
alexnet_w1_mlp_simclrhn_probe1,1,139,NaN,bird,cat,10,0139_lp_dnn_10_cat_10_n02125311_44401.png,n02125311_44401.png,0.0,-2.6920807,-0.32866716,-1.6711859
alexnet_w1_mlp_simclrhn_probe1,1,140,NaN,bottle,airplane,10,0140_lp_dnn_10_airplane_10_n02690373_10657.png,n02690373_10657.png,0.0,-1.3916562,-0.65430766,-0.5213841
alexnet_w1_mlp_simclrhn_probe1,1,141,NaN,bird,bird,5,0141_lp_dnn_5_bird_10_n02025239_7919.png,n02025239_7919.png,1.0,-0.1201678,-1.3330368,0.85762787
alexnet_w1_mlp_simclrhn_probe1,1,142,NaN,clock,bear,40,0142_lp_dnn_40_bear_10_n02134084_23165.png,n02134084_23165.png,0.0,-2.648806,-0.17209339,-1.7513003
alexnet_w1_mlp_simclrhn_probe1,1,143,NaN,clock,knife,40,0143_lp_dnn_40_knife_10_n03041632_28658.png,n03041632_28658.png,0.0,-0.46465278,-0.21517229,-0.17640935
alexnet_w1_mlp_simclrhn_probe1,1,144,NaN,keyboard,keyboard,5,0144_lp_dnn_5_keyboard_10_n04505470_4371.png,n04505470_4371.png,1.0,0.58062696,-0.58224267,0.8222731
alexnet_w1_mlp_simclrhn_probe1,1,145,NaN,keyboard,keyboard,0,0145_lp_dnn_0_keyboard_10_n03085013_14237.png,n03085013_14237.png,1.0,3.5341,1.7538497,1.2588271
alexnet_w1_mlp_simclrhn_probe1,1,146,NaN,bottle,clock,0,0146_lp_dnn_0_clock_10_n03196217_6163.png,n03196217_6163.png,0.0,-0.73705816,-0.37347296,-0.25709358
alexnet_w1_mlp_simclrhn_probe1,1,147,NaN,bird,chair,15,0147_lp_dnn_15_chair_10_n02791124_3857.png,n02791124_3857.png,0.0,-3.481193,-1.1379709,-1.6569083
alexnet_w1_mlp_simclrhn_probe1,1,148,NaN,knife,truck,40,0148_lp_dnn_40_truck_10_n03417042_20650.png,n03417042_20650.png,0.0,-3.0840743,-0.4788431,-1.8421768
alexnet_w1_mlp_simclrhn_probe1,1,149,NaN,truck,truck,0,0149_lp_dnn_0_truck_10_n04467665_17101.png,n04467665_17101.png,1.0,10.199428,5.583751,3.263776
alexnet_w1_mlp_simclrhn_probe1,1,150,NaN,chair,chair,1,0150_lp_dnn_1_chair_10_n04429376_19354.png,n04429376_19354.png,1.0,-2.1198852,-2.4189765,0.21148951
alexnet_w1_mlp_simclrhn_probe1,1,151,NaN,knife,knife,0,0151_lp_dnn_0_knife_10_n03041632_42156.png,n03041632_42156.png,1.0,2.6003067,-1.7482078,3.0748641
alexnet_w1_mlp_simclrhn_probe1,1,152,NaN,car,car,1,0152_lp_dnn_1_car_10_n04285008_39.png,n04285008_39.png,1.0,7.183021,3.9955149,2.2539072
alexnet_w1_mlp_simclrhn_probe1,1,153,NaN,boat,boat,1,0153_lp_dnn_1_boat_10_n03662601_1319.png,n03662601_1319.png,1.0,3.5534797,0.31965452,2.2866597
alexnet_w1_mlp_simclrhn_probe1,1,154,NaN,bird,truck,7,0154_lp_dnn_7_truck_10_n03796401_4119.png,n03796401_4119.png,0.0,-4.800479,-0.6815561,-2.9125183
alexnet_w1_mlp_simclrhn_probe1,1,155,NaN,clock,bottle,15,0155_lp_dnn_15_bottle_10_n03937543_2333.png,n03937543_2333.png,0.0,-0.87226295,-0.8489464,-0.0164873
alexnet_w1_mlp_simclrhn_probe1,1,156,NaN,clock,bottle,3,0156_lp_dnn_3_bottle_10_n04591713_7134.png,n04591713_7134.png,0.0,-0.14682798,0.00748008,-0.109112285
alexnet_w1_mlp_simclrhn_probe1,1,157,NaN,dog,dog,0,0157_lp_dnn_0_dog_10_n02107312_3673.png,n02107312_3673.png,1.0,-0.96868414,-2.1307654,0.82171553
alexnet_w1_mlp_simclrhn_probe1,1,158,NaN,oven,oven,3,0158_lp_dnn_3_oven_10_n04111531_8373.png,n04111531_8373.png,1.0,0.0088056475,-0.46167505,0.33268008
alexnet_w1_mlp_simclrhn_probe1,1,159,NaN,oven,car,3,0159_lp_dnn_3_car_10_n03100240_13707.png,n03100240_13707.png,0.0,0.05602683,0.21690544,-0.11375836
alexnet_w1_mlp_simclrhn_probe1,1,160,NaN,chair,chair,1,0160_lp_dnn_1_chair_10_n02791124_241.png,n02791124_241.png,1.0,0.5499274,0.4477895,0.07222242
alexnet_w1_mlp_simclrhn_probe1,1,161,NaN,keyboard,airplane,7,0161_lp_dnn_7_airplane_10_n02690373_5628.png,n02690373_5628.png,0.0,-2.592454,-0.65360403,-1.370974
alexnet_w1_mlp_simclrhn_probe1,1,162,NaN,clock,boat,40,0162_lp_dnn_40_boat_10_n02951358_1461.png,n02951358_1461.png,0.0,-2.2724977,-0.5171381,-1.2412267
alexnet_w1_mlp_simclrhn_probe1,1,163,NaN,keyboard,keyboard,7,0163_lp_dnn_7_keyboard_10_n04505470_4501.png,n04505470_4501.png,1.0,-0.4323898,-0.5242707,0.06496962
alexnet_w1_mlp_simclrhn_probe1,1,164,NaN,bird,bird,1,0164_lp_dnn_1_bird_10_n02033041_11415.png,n02033041_11415.png,1.0,-0.631322,-2.290949,1.1735336
alexnet_w1_mlp_simclrhn_probe1,1,165,NaN,knife,knife,1,0165_lp_dnn_1_knife_10_n03041632_6446.png,n03041632_6446.png,1.0,0.51356936,0.20456496,0.21849911
alexnet_w1_mlp_simclrhn_probe1,1,166,NaN,bird,bird,0,0166_lp_dnn_0_bird_10_n02011460_3892.png,n02011460_3892.png,1.0,-0.024063421,-5.7970576,4.0821233
alexnet_w1_mlp_simclrhn_probe1,1,167,NaN,bear,cat,1,0167_lp_dnn_1_cat_10_n02125311_3174.png,n02125311_3174.png,0.0,-0.6701114,0.2820015,-0.6732455
alexnet_w1_mlp_simclrhn_probe1,1,168,NaN,keyboard,dog,10,0168_lp_dnn_10_dog_10_n02088364_7448.png,n02088364_7448.png,0.0,-3.1004574,-0.88203496,-1.5686616
alexnet_w1_mlp_simclrhn_probe1,1,169,NaN,cat,cat,1,0169_lp_dnn_1_cat_10_n02123394_4299.png,n02123394_4299.png,1.0,0.87984496,0.20218524,0.4791778
alexnet_w1_mlp_simclrhn_probe1,1,170,NaN,bird,keyboard,15,0170_lp_dnn_15_keyboard_10_n03085013_23731.png,n03085013_23731.png,0.0,-1.1078424,-0.6904427,-0.2951462
alexnet_w1_mlp_simclrhn_probe1,1,171,NaN,keyboard,knife,5,0171_lp_dnn_5_knife_10_n03041632_29285.png,n03041632_29285.png,0.0,-1.8444321,-0.3778274,-1.0370462
alexnet_w1_mlp_simclrhn_probe1,1,172,NaN,keyboard,keyboard,0,0172_lp_dnn_0_keyboard_10_n03085013_12164.png,n03085013_12164.png,1.0,9.221604,0.5374337,6.140636
alexnet_w1_mlp_simclrhn_probe1,1,173,NaN,keyboard,bird,5,0173_lp_dnn_5_bird_10_n01582220_9023.png,n01582220_9023.png,0.0,-1.1064414,-0.34133357,-0.54101294
alexnet_w1_mlp_simclrhn_probe1,1,174,NaN,keyboard,bottle,3,0174_lp_dnn_3_bottle_10_n03983396_12728.png,n03983396_12728.png,0.0,-0.86520964,-0.34103024,-0.37065083
alexnet_w1_mlp_simclrhn_probe1,1,175,NaN,keyboard,dog,7,0175_lp_dnn_7_dog_10_n02111277_50807.png,n02111277_50807.png,0.0,-3.9587836,-1.0478996,-2.0583057
alexnet_w1_mlp_simclrhn_probe1,1,176,NaN,knife,boat,5,0176_lp_dnn_5_boat_10_n04273569_2037.png,n04273569_2037.png,0.0,-2.0598092,-0.693311,-0.9662602
alexnet_w1_mlp_simclrhn_probe1,1,177,NaN,clock,keyboard,40,0177_lp_dnn_40_keyboard_10_n04505470_4672.png,n04505470_4672.png,0.0,-0.99311733,-0.28924495,-0.49771294
alexnet_w1_mlp_simclrhn_probe1,1,178,NaN,bird,boat,10,0178_lp_dnn_10_boat_10_n03662601_12034.png,n03662601_12034.png,0.0,-3.8861244,-0.8503166,-2.1466403
alexnet_w1_mlp_simclrhn_probe1,1,179,NaN,keyboard,airplane,15,0179_lp_dnn_15_airplane_10_n02690373_5845.png,n02690373_5845.png,0.0,-2.6940372,-1.1061964,-1.122773
alexnet_w1_mlp_simclrhn_probe1,1,180,NaN,keyboard,truck,5,0180_lp_dnn_5_truck_10_n03417042_12128.png,n03417042_12128.png,0.0,-4.222293,-0.4763389,-2.6487896
alexnet_w1_mlp_simclrhn_probe1,1,181,NaN,keyboard,keyboard,10,0181_lp_dnn_10_keyboard_10_n03085013_2432.png,n03085013_2432.png,1.0,-0.52729785,-0.5916904,0.04553242
alexnet_w1_mlp_simclrhn_probe1,1,182,NaN,keyboard,chair,5,0182_lp_dnn_5_chair_10_n03376595_9692.png,n03376595_9692.png,0.0,-1.8676151,-0.33717927,-1.0821816
alexnet_w1_mlp_simclrhn_probe1,1,183,NaN,elephant,chair,3,0183_lp_dnn_3_chair_10_n03376595_12583.png,n03376595_12583.png,0.0,-2.2347114,-0.14640224,-1.4766576
alexnet_w1_mlp_simclrhn_probe1,1,184,NaN,bear,bear,0,0184_lp_dnn_0_bear_10_n02133161_2135.png,n02133161_2135.png,1.0,-1.5779344,-1.6296157,0.036544185
alexnet_w1_mlp_simclrhn_probe1,1,185,NaN,bird,airplane,10,0185_lp_dnn_10_airplane_10_n02690373_5176.png,n02690373_5176.png,0.0,-1.8978757,-0.8124701,-0.76749766
alexnet_w1_mlp_simclrhn_probe1,1,186,NaN,elephant,elephant,0,0186_lp_dnn_0_elephant_10_n02504013_10990.png,n02504013_10990.png,1.0,-1.8371346,-2.2521577,0.29346564
alexnet_w1_mlp_simclrhn_probe1,1,187,NaN,bird,boat,10,0187_lp_dnn_10_boat_10_n02951358_3155.png,n02951358_3155.png,0.0,-3.6574416,-1.015668,-1.8680161
alexnet_w1_mlp_simclrhn_probe1,1,188,NaN,knife,knife,1,0188_lp_dnn_1_knife_10_n03041632_2644.png,n03041632_2644.png,1.0,1.7039804,-0.8980351,1.8399029
alexnet_w1_mlp_simclrhn_probe1,1,189,NaN,keyboard,airplane,5,0189_lp_dnn_5_airplane_10_n02690373_5184.png,n02690373_5184.png,0.0,-2.1470113,-0.15798423,-1.4064546
alexnet_w1_mlp_simclrhn_probe1,1,190,NaN,oven,chair,0,0190_lp_dnn_0_chair_10_n04099969_16161.png,n04099969_16161.png,0.0,-4.408164,-1.6956089,-1.9180661
alexnet_w1_mlp_simclrhn_probe1,1,191,NaN,bottle,boat,10,0191_lp_dnn_10_boat_10_n03344393_5343.png,n03344393_5343.png,0.0,-3.593451,-1.12174,-1.7477638
alexnet_w1_mlp_simclrhn_probe1,1,192,NaN,oven,oven,0,0192_lp_dnn_0_oven_10_n04111531_15052.png,n04111531_15052.png,1.0,6.705003,-0.8045815,5.310078
alexnet_w1_mlp_simclrhn_probe1,1,193,NaN,bottle,bicycle,15,0193_lp_dnn_15_bicycle_10_n02835271_317.png,n02835271_317.png,0.0,-2.569898,-0.942514,-1.1507342
alexnet_w1_mlp_simclrhn_probe1,1,194,NaN,bird,bird,0,0194_lp_dnn_0_bird_10_n02002556_15721.png,n02002556_15721.png,1.0,0.04079698,-3.862348,2.7599404
alexnet_w1_mlp_simclrhn_probe1,1,195,NaN,keyboard,chair,5,0195_lp_dnn_5_chair_10_n03376595_11280.png,n03376595_11280.png,0.0,-2.9867964,-0.52163243,-1.7431341
alexnet_w1_mlp_simclrhn_probe1,1,196,NaN,keyboard,keyboard,3,0196_lp_dnn_3_keyboard_10_n04505470_4621.png,n04505470_4621.png,1.0,0.22849879,-0.8103685,0.73459005
alexnet_w1_mlp_simclrhn_probe1,1,197,NaN,keyboard,boat,7,0197_lp_dnn_7_boat_10_n03662601_6042.png,n03662601_6042.png,0.0,-3.206555,-0.8081347,-1.6959393
alexnet_w1_mlp_simclrhn_probe1,1,198,NaN,dog,dog,1,0198_lp_dnn_1_dog_10_n02086646_2810.png,n02086646_2810.png,1.0,-0.9533539,-1.3342096,0.26930565
alexnet_w1_mlp_simclrhn_probe1,1,199,NaN,bird,elephant,15,0199_lp_dnn_15_elephant_10_n02504458_7835.png,n02504458_7835.png,0.0,-3.1880841,-0.8490618,-1.6539387
alexnet_w1_mlp_simclrhn_probe1,1,200,NaN,bird,cat,15,0200_lp_dnn_15_cat_10_n02123159_6281.png,n02123159_6281.png,0.0,-2.4160416,-0.90640926,-1.0674713
alexnet_w1_mlp_simclrhn_probe1,1,201,NaN,keyboard,knife,5,0201_lp_dnn_5_knife_10_n03041632_1661.png,n03041632_1661.png,0.0,-2.767538,-0.15780434,-1.8453605
alexnet_w1_mlp_simclrhn_probe1,1,202,NaN,clock,clock,1,0202_lp_dnn_1_clock_10_n02708093_2806.png,n02708093_2806.png,1.0,2.164008,-1.0901827,2.3010602
alexnet_w1_mlp_simclrhn_probe1,1,203,NaN,boat,boat,1,0203_lp_dnn_1_boat_10_n04273569_1201.png,n04273569_1201.png,1.0,3.1488793,0.82502663,1.643212
alexnet_w1_mlp_simclrhn_probe1,1,204,NaN,clock,bird,40,0204_lp_dnn_40_bird_10_n01614925_13283.png,n01614925_13283.png,0.0,-1.9255247,-0.31245065,-1.1406156
alexnet_w1_mlp_simclrhn_probe1,1,205,NaN,knife,car,40,0205_lp_dnn_40_car_10_n02814533_51701.png,n02814533_51701.png,0.0,-2.220765,-0.38100746,-1.3009051
alexnet_w1_mlp_simclrhn_probe1,1,206,NaN,bird,chair,7,0206_lp_dnn_7_chair_10_n04099969_34325.png,n04099969_34325.png,0.0,-3.4075162,-0.6891031,-1.9222084
alexnet_w1_mlp_simclrhn_probe1,1,207,NaN,airplane,truck,0,0207_lp_dnn_0_truck_10_n04467665_71305.png,n04467665_71305.png,0.0,-0.72693133,2.8669677,-2.5412705
alexnet_w1_mlp_simclrhn_probe1,1,208,NaN,keyboard,boat,5,0208_lp_dnn_5_boat_10_n03344393_5916.png,n03344393_5916.png,0.0,-2.3468773,-0.7299489,-1.1433411
alexnet_w1_mlp_simclrhn_probe1,1,209,NaN,keyboard,car,7,0209_lp_dnn_7_car_10_n02814533_28783.png,n02814533_28783.png,0.0,-4.5885973,-0.79683745,-2.6811793
alexnet_w1_mlp_simclrhn_probe1,1,210,NaN,keyboard,boat,15,0210_lp_dnn_15_boat_10_n03662601_16825.png,n03662601_16825.png,0.0,-3.5510929,-1.0764458,-1.7498398
alexnet_w1_mlp_simclrhn_probe1,1,211,NaN,cat,dog,0,0211_lp_dnn_0_dog_10_n02100583_10960.png,n02100583_10960.png,0.0,-2.4564676,-1.8187507,-0.45093393
alexnet_w1_mlp_simclrhn_probe1,1,212,NaN,bird,elephant,10,0212_lp_dnn_10_elephant_10_n02504458_4587.png,n02504458_4587.png,0.0,-3.532141,-0.6147334,-2.0629187
alexnet_w1_mlp_simclrhn_probe1,1,213,NaN,bird,bottle,10,0213_lp_dnn_10_bottle_10_n03983396_12670.png,n03983396_12670.png,0.0,-1.8229275,-0.7424105,-0.76404095
alexnet_w1_mlp_simclrhn_probe1,1,214,NaN,bicycle,bicycle,3,0214_lp_dnn_3_bicycle_10_n02835271_18205.png,n02835271_18205.png,1.0,-0.43418986,-0.8201515,0.2729161
alexnet_w1_mlp_simclrhn_probe1,1,215,NaN,clock,truck,40,0215_lp_dnn_40_truck_10_n04467665_67527.png,n04467665_67527.png,0.0,-2.1377296,-0.42984375,-1.2076577
alexnet_w1_mlp_simclrhn_probe1,1,216,NaN,keyboard,keyboard,10,0216_lp_dnn_10_keyboard_10_n03085013_4374.png,n03085013_4374.png,1.0,-1.1277213,-1.1277759,3.8606515e-05
alexnet_w1_mlp_simclrhn_probe1,1,217,NaN,keyboard,clock,3,0217_lp_dnn_3_clock_10_n03196217_3086.png,n03196217_3086.png,0.0,0.524352,0.71596706,-0.1354923
alexnet_w1_mlp_simclrhn_probe1,1,218,NaN,bird,clock,15,0218_lp_dnn_15_clock_10_n04548280_254.png,n04548280_254.png,0.0,-1.1225004,-0.87242913,-0.1768271
alexnet_w1_mlp_simclrhn_probe1,1,219,NaN,bird,bicycle,15,0219_lp_dnn_15_bicycle_10_n02835271_21707.png,n02835271_21707.png,0.0,-3.505114,-0.9824761,-1.7837744
alexnet_w1_mlp_simclrhn_probe1,1,220,NaN,bird,bird,15,0220_lp_dnn_15_bird_10_n01819313_6340.png,n01819313_6340.png,1.0,-0.62637097,-1.3288245,0.49670967
alexnet_w1_mlp_simclrhn_probe1,1,221,NaN,keyboard,bicycle,5,0221_lp_dnn_5_bicycle_10_n02835271_10556.png,n02835271_10556.png,0.0,-2.959911,-0.5042493,-1.7364151
alexnet_w1_mlp_simclrhn_probe1,1,222,NaN,bird,chair,15,0222_lp_dnn_15_chair_10_n04099969_3312.png,n04099969_3312.png,0.0,-3.1831055,-0.8585396,-1.6437163
alexnet_w1_mlp_simclrhn_probe1,1,223,NaN,bird,car,15,0223_lp_dnn_15_car_10_n04285008_2781.png,n04285008_2781.png,0.0,-3.406393,-0.78827417,-1.8512895
alexnet_w1_mlp_simclrhn_probe1,1,224,NaN,clock,clock,3,0224_lp_dnn_3_clock_10_n04548280_21263.png,n04548280_21263.png,1.0,2.327699,0.086434506,1.5848132
alexnet_w1_mlp_simclrhn_probe1,1,225,NaN,bird,car,15,0225_lp_dnn_15_car_10_n02814533_9785.png,n02814533_9785.png,0.0,-3.8320854,-0.6770366,-2.2309566
alexnet_w1_mlp_simclrhn_probe1,1,226,NaN,truck,truck,0,0226_lp_dnn_0_truck_10_n03417042_24100.png,n03417042_24100.png,1.0,8.2852955,7.6948304,0.41752186
alexnet_w1_mlp_simclrhn_probe1,1,227,NaN,keyboard,dog,15,0227_lp_dnn_15_dog_10_n02091244_10926.png,n02091244_10926.png,0.0,-3.7913394,-1.041321,-1.9445567
alexnet_w1_mlp_simclrhn_probe1,1,228,NaN,knife,bottle,40,0228_lp_dnn_40_bottle_10_n04591713_2537.png,n04591713_2537.png,0.0,-0.77085304,-0.41376114,-0.2525021
alexnet_w1_mlp_simclrhn_probe1,1,229,NaN,bird,bear,10,0229_lp_dnn_10_bear_10_n02134418_1311.png,n02134418_1311.png,0.0,-4.008795,-1.1617594,-2.013158
alexnet_w1_mlp_simclrhn_probe1,1,230,NaN,airplane,bicycle,3,0230_lp_dnn_3_bicycle_10_n03792782_210.png,n03792782_210.png,0.0,-1.352469,-0.4941798,-0.6069021
alexnet_w1_mlp_simclrhn_probe1,1,231,NaN,cat,cat,3,0231_lp_dnn_3_cat_10_n02123045_5371.png,n02123045_5371.png,1.0,-0.10643061,-0.8526298,0.5276425
alexnet_w1_mlp_simclrhn_probe1,1,232,NaN,bottle,boat,15,0232_lp_dnn_15_boat_10_n04612504_19111.png,n04612504_19111.png,0.0,-3.5070195,-0.88209254,-1.8561038
alexnet_w1_mlp_simclrhn_probe1,1,233,NaN,clock,clock,1,0233_lp_dnn_1_clock_10_n03196217_7836.png,n03196217_7836.png,1.0,0.48743436,0.32595876,0.11418049
alexnet_w1_mlp_simclrhn_probe1,1,234,NaN,dog,dog,0,0234_lp_dnn_0_dog_10_n02086910_9742.png,n02086910_9742.png,1.0,2.9775698,-1.5218872,3.1815965
alexnet_w1_mlp_simclrhn_probe1,1,235,NaN,clock,bottle,1,0235_lp_dnn_1_bottle_10_n03937543_4723.png,n03937543_4723.png,0.0,-0.5629453,-0.37185133,-0.13512385
alexnet_w1_mlp_simclrhn_probe1,1,236,NaN,keyboard,dog,5,0236_lp_dnn_5_dog_10_n02111129_6495.png,n02111129_6495.png,0.0,-2.8523521,-0.58161074,-1.6056567
alexnet_w1_mlp_simclrhn_probe1,1,237,NaN,knife,knife,1,0237_lp_dnn_1_knife_10_n03041632_3101.png,n03041632_3101.png,1.0,1.0176926,0.15544486,0.6097012
alexnet_w1_mlp_simclrhn_probe1,1,238,NaN,cat,bear,0,0238_lp_dnn_0_bear_10_n02134084_7373.png,n02134084_7373.png,0.0,-2.5108533,-0.82514435,-1.1919763
alexnet_w1_mlp_simclrhn_probe1,1,239,NaN,bird,bird,7,0239_lp_dnn_7_bird_10_n02009229_11916.png,n02009229_11916.png,1.0,-0.3097031,-1.2133974,0.63900834
alexnet_w1_mlp_simclrhn_probe1,1,240,NaN,keyboard,oven,7,0240_lp_dnn_7_oven_10_n04111531_14208.png,n04111531_14208.png,0.0,-1.7195055,-0.6821927,-0.733491
alexnet_w1_mlp_simclrhn_probe1,1,241,NaN,clock,bird,3,0241_lp_dnn_3_bird_10_n01601694_20287.png,n01601694_20287.png,0.0,-1.3748561,-0.82584745,-0.38820776
alexnet_w1_mlp_simclrhn_probe1,1,242,NaN,bird,oven,15,0242_lp_dnn_15_oven_10_n04111531_5519.png,n04111531_5519.png,0.0,-2.810329,-1.0392218,-1.2523619
alexnet_w1_mlp_simclrhn_probe1,1,243,NaN,car,car,1,0243_lp_dnn_1_car_10_n04285008_10893.png,n04285008_10893.png,1.0,5.61805,4.1462994,1.0406849
alexnet_w1_mlp_simclrhn_probe1,1,244,NaN,knife,boat,40,0244_lp_dnn_40_boat_10_n02951358_16196.png,n02951358_16196.png,0.0,-2.3844566,-0.4643551,-1.3577168
alexnet_w1_mlp_simclrhn_probe1,1,245,NaN,bottle,clock,7,0245_lp_dnn_7_clock_10_n04548280_532.png,n04548280_532.png,0.0,-0.6756058,-0.6505194,-0.017738765
alexnet_w1_mlp_simclrhn_probe1,1,246,NaN,keyboard,keyboard,0,0246_lp_dnn_0_keyboard_10_n04505470_73.png,n04505470_73.png,1.0,13.525404,0.13214813,9.470463
alexnet_w1_mlp_simclrhn_probe1,1,247,NaN,bird,bottle,10,0247_lp_dnn_10_bottle_10_n02823428_6766.png,n02823428_6766.png,0.0,-2.0480917,-0.21125264,-1.2988414
alexnet_w1_mlp_simclrhn_probe1,1,248,NaN,bird,boat,15,0248_lp_dnn_15_boat_10_n02951358_26579.png,n02951358_26579.png,0.0,-2.3942494,-0.7333067,-1.174464
alexnet_w1_mlp_simclrhn_probe1,1,249,NaN,bird,dog,10,0249_lp_dnn_10_dog_10_n02085782_7651.png,n02085782_7651.png,0.0,-4.0728846,-0.8900442,-2.250608
alexnet_w1_mlp_simclrhn_probe1,1,250,NaN,clock,clock,3,0250_lp_dnn_3_clock_10_n02708093_1747.png,n02708093_1747.png,1.0,1.618657,0.6712693,0.6699043
alexnet_w1_mlp_simclrhn_probe1,1,251,NaN,keyboard,truck,3,0251_lp_dnn_3_truck_10_n04467665_19645.png,n04467665_19645.png,0.0,-1.4636023,0.0022163093,-1.0364903
alexnet_w1_mlp_simclrhn_probe1,1,252,NaN,bottle,airplane,15,0252_lp_dnn_15_airplane_10_n02690373_17262.png,n02690373_17262.png,0.0,-2.1139097,-0.8417673,-0.89954054
alexnet_w1_mlp_simclrhn_probe1,1,253,NaN,elephant,elephant,0,0253_lp_dnn_0_elephant_10_n02504458_10428.png,n02504458_10428.png,1.0,3.4630299,0.19859427,2.3083045
alexnet_w1_mlp_simclrhn_probe1,1,254,NaN,keyboard,cat,7,0254_lp_dnn_7_cat_10_n02124075_9149.png,n02124075_9149.png,0.0,-3.5309646,-0.92101616,-1.8455123
alexnet_w1_mlp_simclrhn_probe1,1,255,NaN,keyboard,elephant,10,0255_lp_dnn_10_elephant_10_n02504013_7923.png,n02504013_7923.png,0.0,-4.173234,-0.8239818,-2.368279
alexnet_w1_mlp_simclrhn_probe1,1,256,NaN,cat,cat,3,0256_lp_dnn_3_cat_10_n02123394_4789.png,n02123394_4789.png,1.0,-0.5177078,-0.8513727,0.23593672
alexnet_w1_mlp_simclrhn_probe1,1,257,NaN,keyboard,clock,5,0257_lp_dnn_5_clock_10_n03196217_2530.png,n03196217_2530.png,0.0,-0.09361807,0.26128227,-0.25095242
alexnet_w1_mlp_simclrhn_probe1,1,258,NaN,keyboard,airplane,5,0258_lp_dnn_5_airplane_10_n02690373_6992.png,n02690373_6992.png,0.0,-1.7454855,-0.6360537,-0.78448683
alexnet_w1_mlp_simclrhn_probe1,1,259,NaN,keyboard,airplane,3,0259_lp_dnn_3_airplane_10_n02690373_5056.png,n02690373_5056.png,0.0,-0.3656817,0.14161281,-0.35871142
alexnet_w1_mlp_simclrhn_probe1,1,260,NaN,bear,bear,1,0260_lp_dnn_1_bear_10_n02134418_2231.png,n02134418_2231.png,1.0,1.8205225,-1.1235329,2.0817616
alexnet_w1_mlp_simclrhn_probe1,1,261,NaN,keyboard,truck,10,0261_lp_dnn_10_truck_10_n03796401_180.png,n03796401_180.png,0.0,-4.541731,-0.90964556,-2.568272
alexnet_w1_mlp_simclrhn_probe1,1,262,NaN,cat,bicycle,3,0262_lp_dnn_3_bicycle_10_n02835271_3246.png,n02835271_3246.png,0.0,-0.9575886,-0.6142414,-0.24278313
alexnet_w1_mlp_simclrhn_probe1,1,263,NaN,keyboard,truck,3,0263_lp_dnn_3_truck_10_n03796401_599.png,n03796401_599.png,0.0,-0.5506401,-0.16767587,-0.27079663
alexnet_w1_mlp_simclrhn_probe1,1,264,NaN,bird,oven,7,0264_lp_dnn_7_oven_10_n04111531_13862.png,n04111531_13862.png,0.0,-3.3246,-0.9462475,-1.6817491
alexnet_w1_mlp_simclrhn_probe1,1,265,NaN,chair,oven,0,0265_lp_dnn_0_oven_10_n04111531_10420.png,n04111531_10420.png,0.0,-1.8343378,0.91169137,-1.9417359
alexnet_w1_mlp_simclrhn_probe1,1,266,NaN,bird,car,10,0266_lp_dnn_10_car_10_n03100240_15531.png,n03100240_15531.png,0.0,-3.5620174,-0.58310455,-2.1064095
alexnet_w1_mlp_simclrhn_probe1,1,267,NaN,bird,dog,7,0267_lp_dnn_7_dog_10_n02099849_3128.png,n02099849_3128.png,0.0,-3.8490787,-0.66571426,-2.2509785
alexnet_w1_mlp_simclrhn_probe1,1,268,NaN,keyboard,chair,5,0268_lp_dnn_5_chair_10_n02791124_3222.png,n02791124_3222.png,0.0,-3.34206,-0.26246744,-2.1776009
alexnet_w1_mlp_simclrhn_probe1,1,269,NaN,keyboard,keyboard,5,0269_lp_dnn_5_keyboard_10_n04505470_8364.png,n04505470_8364.png,1.0,0.22138965,-1.1113684,0.9424023
alexnet_w1_mlp_simclrhn_probe1,1,270,NaN,clock,clock,0,0270_lp_dnn_0_clock_10_n04548280_9294.png,n04548280_9294.png,1.0,1.1782469,0.090840764,0.7689122
alexnet_w1_mlp_simclrhn_probe1,1,271,NaN,bird,bottle,7,0271_lp_dnn_7_bottle_10_n03937543_3358.png,n03937543_3358.png,0.0,-1.1157467,-0.6954572,-0.29718956
alexnet_w1_mlp_simclrhn_probe1,1,272,NaN,keyboard,knife,7,0272_lp_dnn_7_knife_10_n03041632_2058.png,n03041632_2058.png,0.0,-1.0172682,-0.52987623,-0.34463817
alexnet_w1_mlp_simclrhn_probe1,1,273,NaN,boat,elephant,1,0273_lp_dnn_1_elephant_10_n02504458_5671.png,n02504458_5671.png,0.0,-2.3705177,1.2129633,-2.5339038
alexnet_w1_mlp_simclrhn_probe1,1,274,NaN,bird,chair,10,0274_lp_dnn_10_chair_10_n02791124_6281.png,n02791124_6281.png,0.0,-3.6067452,-0.77836716,-1.9999654
alexnet_w1_mlp_simclrhn_probe1,1,275,NaN,keyboard,cat,15,0275_lp_dnn_15_cat_10_n02125311_44920.png,n02125311_44920.png,0.0,-2.8726513,-1.1127648,-1.2444277
alexnet_w1_mlp_simclrhn_probe1,1,276,NaN,keyboard,airplane,5,0276_lp_dnn_5_airplane_10_n02690373_2981.png,n02690373_2981.png,0.0,-1.6721094,-0.48790935,-0.8373559
alexnet_w1_mlp_simclrhn_probe1,1,277,NaN,knife,knife,1,0277_lp_dnn_1_knife_10_n03041632_2468.png,n03041632_2468.png,1.0,-1.6813269,-1.6895391,0.0058069085
alexnet_w1_mlp_simclrhn_probe1,1,278,NaN,clock,clock,1,0278_lp_dnn_1_clock_10_n02708093_3605.png,n02708093_3605.png,1.0,-0.724775,-0.7980451,0.051809773
alexnet_w1_mlp_simclrhn_probe1,1,279,NaN,bicycle,bicycle,1,0279_lp_dnn_1_bicycle_10_n02835271_19019.png,n02835271_19019.png,1.0,5.8659663,-1.3946742,5.1340485
alexnet_w1_mlp_simclrhn_probe1,1,280,NaN,keyboard,keyboard,7,0280_lp_dnn_7_keyboard_10_n03085013_1188.png,n03085013_1188.png,1.0,-0.2340839,-0.86752963,0.4479138
alexnet_w1_mlp_simclrhn_probe1,1,281,NaN,oven,oven,1,0281_lp_dnn_1_oven_10_n04111531_2715.png,n04111531_2715.png,1.0,0.8644196,-1.2644526,1.50534
alexnet_w1_mlp_simclrhn_probe1,1,282,NaN,clock,keyboard,10,0282_lp_dnn_10_keyboard_10_n03085013_9533.png,n03085013_9533.png,0.0,-0.5031151,-0.49473605,-0.0059248987
alexnet_w1_mlp_simclrhn_probe1,1,283,NaN,cat,cat,3,0283_lp_dnn_3_cat_10_n02123045_20366.png,n02123045_20366.png,1.0,0.054141622,-0.8160574,0.61532366
alexnet_w1_mlp_simclrhn_probe1,1,284,NaN,keyboard,chair,5,0284_lp_dnn_5_chair_10_n03376595_302.png,n03376595_302.png,0.0,-3.4044573,-0.8504988,-1.8059213
alexnet_w1_mlp_simclrhn_probe1,1,285,NaN,keyboard,cat,7,0285_lp_dnn_7_cat_10_n02123597_14267.png,n02123597_14267.png,0.0,-4.242162,-0.93084645,-2.3414538
alexnet_w1_mlp_simclrhn_probe1,1,286,NaN,bird,dog,15,0286_lp_dnn_15_dog_10_n02098286_2582.png,n02098286_2582.png,0.0,-3.6368103,-0.68584263,-2.0866494
alexnet_w1_mlp_simclrhn_probe1,1,287,NaN,airplane,boat,1,0287_lp_dnn_1_boat_10_n03344393_4001.png,n03344393_4001.png,0.0,-0.7023336,-0.013628118,-0.48698834
alexnet_w1_mlp_simclrhn_probe1,1,288,NaN,bird,bicycle,15,0288_lp_dnn_15_bicycle_10_n02835271_6122.png,n02835271_6122.png,0.0,-2.495021,-0.8750096,-1.1455212
alexnet_w1_mlp_simclrhn_probe1,1,289,NaN,bear,dog,3,0289_lp_dnn_3_dog_10_n02091134_3075.png,n02091134_3075.png,0.0,-0.18832596,0.19707662,-0.27252078
alexnet_w1_mlp_simclrhn_probe1,1,290,NaN,clock,oven,40,0290_lp_dnn_40_oven_10_n04111531_4795.png,n04111531_4795.png,0.0,-2.0864272,-0.32126728,-1.2481565
alexnet_w1_mlp_simclrhn_probe1,1,291,NaN,bird,bottle,10,0291_lp_dnn_10_bottle_10_n04591713_4876.png,n04591713_4876.png,0.0,-1.99149,-1.0322564,-0.67828065
alexnet_w1_mlp_simclrhn_probe1,1,292,NaN,clock,bottle,0,0292_lp_dnn_0_bottle_10_n02823428_2510.png,n02823428_2510.png,0.0,1.3064319,4.913922,-2.5508807
alexnet_w1_mlp_simclrhn_probe1,1,293,NaN,oven,keyboard,1,0293_lp_dnn_1_keyboard_10_n03085013_5950.png,n03085013_5950.png,0.0,-0.609931,-0.14869276,-0.3261447
alexnet_w1_mlp_simclrhn_probe1,1,294,NaN,bird,bear,5,0294_lp_dnn_5_bear_10_n02133161_1490.png,n02133161_1490.png,0.0,-1.8416021,-0.47928756,-0.96330184
alexnet_w1_mlp_simclrhn_probe1,1,295,NaN,keyboard,truck,10,0295_lp_dnn_10_truck_10_n03796401_28465.png,n03796401_28465.png,0.0,-4.2951837,-0.85044694,-2.4357967
alexnet_w1_mlp_simclrhn_probe1,1,296,NaN,clock,bottle,15,0296_lp_dnn_15_bottle_10_n02823428_6627.png,n02823428_6627.png,0.0,-0.86121064,-0.67408997,-0.1323143
alexnet_w1_mlp_simclrhn_probe1,1,297,NaN,keyboard,truck,5,0297_lp_dnn_5_truck_10_n04467665_69582.png,n04467665_69582.png,0.0,-2.5550783,-0.45592573,-1.484325
alexnet_w1_mlp_simclrhn_probe1,1,298,NaN,clock,bird,40,0298_lp_dnn_40_bird_10_n02006656_10568.png,n02006656_10568.png,0.0,-1.6281915,-0.3586637,-0.8976917
alexnet_w1_mlp_simclrhn_probe1,1,299,NaN,clock,car,40,0299_lp_dnn_40_car_10_n04285008_11748.png,n04285008_11748.png,0.0,-2.0630624,-0.20793273,-1.3117748
alexnet_w1_mlp_simclrhn_probe1,1,300,NaN,keyboard,truck,5,0300_lp_dnn_5_truck_10_n04467665_44714.png,n04467665_44714.png,0.0,-3.1192656,-0.39271545,-1.9279621
alexnet_w1_mlp_simclrhn_probe1,1,301,NaN,airplane,airplane,3,0301_lp_dnn_3_airplane_10_n02690373_7487.png,n02690373_7487.png,1.0,0.9588964,-0.59767014,1.1006588
alexnet_w1_mlp_simclrhn_probe1,1,302,NaN,bird,elephant,15,0302_lp_dnn_15_elephant_10_n02504458_7472.png,n02504458_7472.png,0.0,-2.9964697,-0.84862953,-1.5187525
alexnet_w1_mlp_simclrhn_probe1,1,303,NaN,knife,boat,3,0303_lp_dnn_3_boat_10_n03662601_25023.png,n03662601_25023.png,0.0,-1.3417734,-0.37621886,-0.68275017
alexnet_w1_mlp_simclrhn_probe1,1,304,NaN,bicycle,knife,0,0304_lp_dnn_0_knife_10_n03041632_101673.png,n03041632_101673.png,0.0,-1.9628007,-0.17208968,-1.2662239
alexnet_w1_mlp_simclrhn_probe1,1,305,NaN,bird,bottle,7,0305_lp_dnn_7_bottle_10_n03983396_587.png,n03983396_587.png,0.0,-1.5505619,-0.55270004,-0.7055949
alexnet_w1_mlp_simclrhn_probe1,1,306,NaN,oven,cat,3,0306_lp_dnn_3_cat_10_n02124075_7692.png,n02124075_7692.png,0.0,-0.7623499,-0.25498438,-0.3587616
alexnet_w1_mlp_simclrhn_probe1,1,307,NaN,oven,oven,0,0307_lp_dnn_0_oven_10_n04111531_6313.png,n04111531_6313.png,1.0,4.484559,-1.4484665,4.1952825
alexnet_w1_mlp_simclrhn_probe1,1,308,NaN,bird,bird,7,0308_lp_dnn_7_bird_10_n02018795_5770.png,n02018795_5770.png,1.0,-0.46913248,-1.1757479,0.49965253
alexnet_w1_mlp_simclrhn_probe1,1,309,NaN,bottle,bottle,3,0309_lp_dnn_3_bottle_10_n02823428_4658.png,n02823428_4658.png,1.0,1.7152487,0.42682645,0.9110521
alexnet_w1_mlp_simclrhn_probe1,1,310,NaN,airplane,airplane,1,0310_lp_dnn_1_airplane_10_n02690373_2724.png,n02690373_2724.png,1.0,4.9092817,-0.7137216,3.976064
alexnet_w1_mlp_simclrhn_probe1,1,311,NaN,clock,boat,40,0311_lp_dnn_40_boat_10_n04612504_7446.png,n04612504_7446.png,0.0,-1.983935,-0.42784104,-1.1003246
alexnet_w1_mlp_simclrhn_probe1,1,312,NaN,bird,boat,7,0312_lp_dnn_7_boat_10_n02951358_34783.png,n02951358_34783.png,0.0,-4.1306543,-0.36245933,-2.6645162
alexnet_w1_mlp_simclrhn_probe1,1,313,NaN,cat,cat,0,0313_lp_dnn_0_cat_10_n02123597_680.png,n02123597_680.png,1.0,5.305571,0.9324559,3.0922594
alexnet_w1_mlp_simclrhn_probe1,1,314,NaN,bird,bear,10,0314_lp_dnn_10_bear_10_n02133161_9863.png,n02133161_9863.png,0.0,-3.151187,-0.41552472,-1.9344053
alexnet_w1_mlp_simclrhn_probe1,1,315,NaN,bear,bear,1,0315_lp_dnn_1_bear_10_n02133161_2100.png,n02133161_2100.png,1.0,2.6798966,0.71950877,1.3862035
alexnet_w1_mlp_simclrhn_probe1,1,316,NaN,oven,oven,3,0316_lp_dnn_3_oven_10_n04111531_8009.png,n04111531_8009.png,1.0,0.49792477,0.12174845,0.26599684
alexnet_w1_mlp_simclrhn_probe1,1,317,NaN,knife,car,40,0317_lp_dnn_40_car_10_n03100240_16525.png,n03100240_16525.png,0.0,-2.2057664,-0.49430084,-1.210189
alexnet_w1_mlp_simclrhn_probe1,1,318,NaN,bird,bird,5,0318_lp_dnn_5_bird_10_n01824575_4941.png,n01824575_4941.png,1.0,-0.111418046,-1.406043,0.9154382
alexnet_w1_mlp_simclrhn_probe1,1,319,NaN,clock,knife,15,0319_lp_dnn_15_knife_10_n03041632_289.png,n03041632_289.png,0.0,-1.3038846,-0.9797233,-0.2292167
alexnet_w1_mlp_simclrhn_probe1,1,320,NaN,bird,dog,10,0320_lp_dnn_10_dog_10_n02101006_15350.png,n02101006_15350.png,0.0,-3.3613892,-0.7014161,-1.8808851
alexnet_w1_mlp_simclrhn_probe1,1,321,NaN,bird,elephant,5,0321_lp_dnn_5_elephant_10_n02504458_1636.png,n02504458_1636.png,0.0,-2.2663713,-0.5357533,-1.2237318
alexnet_w1_mlp_simclrhn_probe1,1,322,NaN,bird,car,7,0322_lp_dnn_7_car_10_n04285008_8666.png,n04285008_8666.png,0.0,-5.2118053,-0.7331364,-3.1668973
alexnet_w1_mlp_simclrhn_probe1,1,323,NaN,keyboard,bottle,5,0323_lp_dnn_5_bottle_10_n02823428_5451.png,n02823428_5451.png,0.0,-0.8761299,-0.4627721,-0.29228812
alexnet_w1_mlp_simclrhn_probe1,1,324,NaN,car,car,3,0324_lp_dnn_3_car_10_n03100240_2495.png,n03100240_2495.png,1.0,0.44724908,0.15370536,0.20756677
alexnet_w1_mlp_simclrhn_probe1,1,325,NaN,bird,bicycle,10,0325_lp_dnn_10_bicycle_10_n02835271_19565.png,n02835271_19565.png,0.0,-4.252569,-0.5821436,-2.595383
alexnet_w1_mlp_simclrhn_probe1,1,326,NaN,airplane,airplane,1,0326_lp_dnn_1_airplane_10_n02690373_349.png,n02690373_349.png,1.0,3.5038922,-0.6642369,2.9473124
alexnet_w1_mlp_simclrhn_probe1,1,327,NaN,bird,cat,7,0327_lp_dnn_7_cat_10_n02123045_20512.png,n02123045_20512.png,0.0,-3.1139956,-0.8974015,-1.5673686
alexnet_w1_mlp_simclrhn_probe1,1,328,NaN,clock,keyboard,1,0328_lp_dnn_1_keyboard_10_n03085013_23619.png,n03085013_23619.png,0.0,-1.2026193,-0.18742771,-0.71784884
alexnet_w1_mlp_simclrhn_probe1,1,329,NaN,bottle,boat,7,0329_lp_dnn_7_boat_10_n03662601_16925.png,n03662601_16925.png,0.0,-2.709397,-0.7225646,-1.4049028
alexnet_w1_mlp_simclrhn_probe1,1,330,NaN,keyboard,oven,10,0330_lp_dnn_10_oven_10_n04111531_12830.png,n04111531_12830.png,0.0,-2.6368704,-0.8765786,-1.2447143
alexnet_w1_mlp_simclrhn_probe1,1,331,NaN,bird,boat,5,0331_lp_dnn_5_boat_10_n02951358_33277.png,n02951358_33277.png,0.0,-2.7450023,-0.52053046,-1.5729392
alexnet_w1_mlp_simclrhn_probe1,1,332,NaN,bird,bear,15,0332_lp_dnn_15_bear_10_n02133161_156.png,n02133161_156.png,0.0,-3.291338,-0.7229729,-1.8161085
alexnet_w1_mlp_simclrhn_probe1,1,333,NaN,clock,cat,40,0333_lp_dnn_40_cat_10_n02124075_6638.png,n02124075_6638.png,0.0,-1.5107476,-0.30609125,-0.8518207
alexnet_w1_mlp_simclrhn_probe1,1,334,NaN,keyboard,keyboard,10,0334_lp_dnn_10_keyboard_10_n04505470_4587.png,n04505470_4587.png,1.0,-0.9530481,-1.0610396,0.07636149
alexnet_w1_mlp_simclrhn_probe1,1,335,NaN,keyboard,bear,10,0335_lp_dnn_10_bear_10_n02134084_27899.png,n02134084_27899.png,0.0,-3.2043962,-0.8975097,-1.6312152
alexnet_w1_mlp_simclrhn_probe1,1,336,NaN,keyboard,keyboard,0,0336_lp_dnn_0_keyboard_10_n03085013_10984.png,n03085013_10984.png,1.0,6.7810307,-0.5751015,5.201571
alexnet_w1_mlp_simclrhn_probe1,1,337,NaN,bird,bottle,5,0337_lp_dnn_5_bottle_10_n03983396_10469.png,n03983396_10469.png,0.0,-1.665842,-0.5586967,-0.78287
alexnet_w1_mlp_simclrhn_probe1,1,338,NaN,bird,knife,10,0338_lp_dnn_10_knife_10_n03041632_20707.png,n03041632_20707.png,0.0,-2.9660559,-0.77989256,-1.545851
alexnet_w1_mlp_simclrhn_probe1,1,339,NaN,car,car,1,0339_lp_dnn_1_car_10_n04285008_9411.png,n04285008_9411.png,1.0,4.3558917,4.1799965,0.1243767
alexnet_w1_mlp_simclrhn_probe1,1,340,NaN,clock,airplane,40,0340_lp_dnn_40_airplane_10_n02690373_4671.png,n02690373_4671.png,0.0,-1.4413373,-0.30731934,-0.8018718
alexnet_w1_mlp_simclrhn_probe1,1,341,NaN,bird,knife,7,0341_lp_dnn_7_knife_10_n03041632_16206.png,n03041632_16206.png,0.0,-1.5598938,-0.5911221,-0.6850251
alexnet_w1_mlp_simclrhn_probe1,1,342,NaN,keyboard,bicycle,5,0342_lp_dnn_5_bicycle_10_n03792782_7180.png,n03792782_7180.png,0.0,-3.085414,-0.7224492,-1.6708684
alexnet_w1_mlp_simclrhn_probe1,1,343,NaN,bear,bear,0,0343_lp_dnn_0_bear_10_n02134418_2719.png,n02134418_2719.png,1.0,1.9840244,0.4397286,1.091982
alexnet_w1_mlp_simclrhn_probe1,1,344,NaN,chair,chair,0,0344_lp_dnn_0_chair_10_n04099969_2038.png,n04099969_2038.png,1.0,2.5476794,-0.4509851,2.120376
alexnet_w1_mlp_simclrhn_probe1,1,345,NaN,oven,dog,1,0345_lp_dnn_1_dog_10_n02113023_5237.png,n02113023_5237.png,0.0,-1.9621534,1.3618745,-2.350443
alexnet_w1_mlp_simclrhn_probe1,1,346,NaN,clock,airplane,40,0346_lp_dnn_40_airplane_10_n02690373_2525.png,n02690373_2525.png,0.0,-1.095506,-0.3875995,-0.50056547
alexnet_w1_mlp_simclrhn_probe1,1,347,NaN,keyboard,clock,7,0347_lp_dnn_7_clock_10_n04548280_219.png,n04548280_219.png,0.0,-0.541388,-0.39266825,-0.10516073
alexnet_w1_mlp_simclrhn_probe1,1,348,NaN,bird,boat,15,0348_lp_dnn_15_boat_10_n04612504_2805.png,n04612504_2805.png,0.0,-4.7642107,-1.1189846,-2.577564
alexnet_w1_mlp_simclrhn_probe1,1,349,NaN,keyboard,clock,7,0349_lp_dnn_7_clock_10_n02708093_7020.png,n02708093_7020.png,0.0,-1.2415767,-0.49824306,-0.5256162
alexnet_w1_mlp_simclrhn_probe1,1,350,NaN,oven,oven,3,0350_lp_dnn_3_oven_10_n04111531_5171.png,n04111531_5171.png,1.0,-0.49687558,-0.85526705,0.25342104
alexnet_w1_mlp_simclrhn_probe1,1,351,NaN,cat,cat,3,0351_lp_dnn_3_cat_10_n02125311_37322.png,n02125311_37322.png,1.0,-0.58944863,-0.6396438,0.035493337
alexnet_w1_mlp_simclrhn_probe1,1,352,NaN,keyboard,cat,7,0352_lp_dnn_7_cat_10_n02123597_14094.png,n02123597_14094.png,0.0,-3.840781,-1.2411261,-1.8382336
alexnet_w1_mlp_simclrhn_probe1,1,353,NaN,bird,boat,15,0353_lp_dnn_15_boat_10_n02951358_13352.png,n02951358_13352.png,0.0,-4.2596726,-1.0425912,-2.2748203
alexnet_w1_mlp_simclrhn_probe1,1,354,NaN,keyboard,bicycle,10,0354_lp_dnn_10_bicycle_10_n02835271_20445.png,n02835271_20445.png,0.0,-3.1564581,-0.9183372,-1.5825906
alexnet_w1_mlp_simclrhn_probe1,1,355,NaN,keyboard,knife,7,0355_lp_dnn_7_knife_10_n03041632_4708.png,n03041632_4708.png,0.0,-1.6302552,-0.6536568,-0.6905594
alexnet_w1_mlp_simclrhn_probe1,1,356,NaN,keyboard,oven,7,0356_lp_dnn_7_oven_10_n04111531_505.png,n04111531_505.png,0.0,-2.2807295,-0.62857234,-1.1682515
alexnet_w1_mlp_simclrhn_probe1,1,357,NaN,bicycle,bicycle,1,0357_lp_dnn_1_bicycle_10_n03792782_104.png,n03792782_104.png,1.0,3.8349981,-2.0493584,4.1608686
alexnet_w1_mlp_simclrhn_probe1,1,358,NaN,clock,bottle,40,0358_lp_dnn_40_bottle_10_n04591713_5204.png,n04591713_5204.png,0.0,-0.5031663,-0.3601056,-0.1011592
alexnet_w1_mlp_simclrhn_probe1,1,359,NaN,bird,bicycle,5,0359_lp_dnn_5_bicycle_10_n03792782_5578.png,n03792782_5578.png,0.0,-3.9014668,-0.73146874,-2.2415273
alexnet_w1_mlp_simclrhn_probe1,1,360,NaN,bird,truck,10,0360_lp_dnn_10_truck_10_n03417042_1437.png,n03417042_1437.png,0.0,-5.8458743,-0.9296306,-3.4763093
alexnet_w1_mlp_simclrhn_probe1,1,361,NaN,oven,cat,0,0361_lp_dnn_0_cat_10_n02123045_7482.png,n02123045_7482.png,0.0,-2.1981964,-1.6460099,-0.39045483
alexnet_w1_mlp_simclrhn_probe1,1,362,NaN,bird,bird,10,0362_lp_dnn_10_bird_10_n02037110_554.png,n02037110_554.png,1.0,-0.48384365,-1.4221098,0.66345435
alexnet_w1_mlp_simclrhn_probe1,1,363,NaN,bird,bicycle,5,0363_lp_dnn_5_bicycle_10_n03792782_15.png,n03792782_15.png,0.0,-3.0191047,-0.30463335,-1.9194211
alexnet_w1_mlp_simclrhn_probe1,1,364,NaN,keyboard,bicycle,5,0364_lp_dnn_5_bicycle_10_n02835271_7450.png,n02835271_7450.png,0.0,-3.180564,-0.62337244,-1.8082074
alexnet_w1_mlp_simclrhn_probe1,1,365,NaN,keyboard,boat,5,0365_lp_dnn_5_boat_10_n03344393_3881.png,n03344393_3881.png,0.0,-2.4843554,-0.5623668,-1.3590512
alexnet_w1_mlp_simclrhn_probe1,1,366,NaN,bird,chair,10,0366_lp_dnn_10_chair_10_n04099969_3623.png,n04099969_3623.png,0.0,-3.796544,-0.71336,-2.1801403
alexnet_w1_mlp_simclrhn_probe1,1,367,NaN,clock,airplane,5,0367_lp_dnn_5_airplane_10_n02690373_2579.png,n02690373_2579.png,0.0,-1.684005,-0.5407299,-0.8084176
alexnet_w1_mlp_simclrhn_probe1,1,368,NaN,keyboard,dog,15,0368_lp_dnn_15_dog_10_n02093859_3707.png,n02093859_3707.png,0.0,-3.2821517,-1.1662097,-1.496197
alexnet_w1_mlp_simclrhn_probe1,1,369,NaN,oven,bottle,1,0369_lp_dnn_1_bottle_10_n04560804_22426.png,n04560804_22426.png,0.0,-2.1413648,-1.4725581,-0.47291774
alexnet_w1_mlp_simclrhn_probe1,1,370,NaN,clock,clock,15,0370_lp_dnn_15_clock_10_n03196217_82.png,n03196217_82.png,1.0,-0.92027473,-0.98498756,0.045758877
alexnet_w1_mlp_simclrhn_probe1,1,371,NaN,keyboard,car,5,0371_lp_dnn_5_car_10_n03100240_16907.png,n03100240_16907.png,0.0,-3.1504707,-0.5505888,-1.8383942
alexnet_w1_mlp_simclrhn_probe1,1,372,NaN,keyboard,oven,5,0372_lp_dnn_5_oven_10_n04111531_9548.png,n04111531_9548.png,0.0,-2.5160794,-0.61773545,-1.342332
alexnet_w1_mlp_simclrhn_probe1,1,373,NaN,bird,clock,7,0373_lp_dnn_7_clock_10_n02708093_3751.png,n02708093_3751.png,0.0,-2.08502,-0.69166154,-0.9852532
alexnet_w1_mlp_simclrhn_probe1,1,374,NaN,keyboard,car,7,0374_lp_dnn_7_car_10_n02814533_6593.png,n02814533_6593.png,0.0,-5.0411706,-1.0224881,-2.8416376
alexnet_w1_mlp_simclrhn_probe1,1,375,NaN,airplane,airplane,0,0375_lp_dnn_0_airplane_10_n02690373_3212.png,n02690373_3212.png,1.0,7.26616,-0.45030108,5.4563622
alexnet_w1_mlp_simclrhn_probe1,1,376,NaN,cat,cat,1,0376_lp_dnn_1_cat_10_n02123045_5820.png,n02123045_5820.png,1.0,-0.73327285,-1.1741579,0.3117528
alexnet_w1_mlp_simclrhn_probe1,1,377,NaN,bottle,elephant,3,0377_lp_dnn_3_elephant_10_n02504458_205.png,n02504458_205.png,0.0,-0.6456289,-0.23768148,-0.2884624
alexnet_w1_mlp_simclrhn_probe1,1,378,NaN,bird,elephant,10,0378_lp_dnn_10_elephant_10_n02504013_3425.png,n02504013_3425.png,0.0,-3.4599104,-0.5621381,-2.0490346
alexnet_w1_mlp_simclrhn_probe1,1,379,NaN,bird,bird,15,0379_lp_dnn_15_bird_10_n02056570_9572.png,n02056570_9572.png,1.0,-0.91001225,-1.0228401,0.079781376
alexnet_w1_mlp_simclrhn_probe1,1,380,NaN,clock,elephant,40,0380_lp_dnn_40_elephant_10_n02504013_7635.png,n02504013_7635.png,0.0,-2.0873911,-0.086241566,-1.4150265
alexnet_w1_mlp_simclrhn_probe1,1,381,NaN,keyboard,boat,10,0381_lp_dnn_10_boat_10_n04273569_10716.png,n04273569_10716.png,0.0,-3.0271516,-0.79681605,-1.5770854
alexnet_w1_mlp_simclrhn_probe1,1,382,NaN,bird,bear,15,0382_lp_dnn_15_bear_10_n02134084_19849.png,n02134084_19849.png,0.0,-3.5162222,-0.97570753,-1.7964152
alexnet_w1_mlp_simclrhn_probe1,1,383,NaN,clock,boat,40,0383_lp_dnn_40_boat_10_n03662601_35800.png,n03662601_35800.png,0.0,-1.9658601,-0.49867544,-1.0374563
alexnet_w1_mlp_simclrhn_probe1,1,384,NaN,knife,bicycle,40,0384_lp_dnn_40_bicycle_10_n03792782_29276.png,n03792782_29276.png,0.0,-2.4957995,-0.17473012,-1.641244
alexnet_w1_mlp_simclrhn_probe1,1,385,NaN,bird,oven,10,0385_lp_dnn_10_oven_10_n04111531_4392.png,n04111531_4392.png,0.0,-3.3797421,-0.43056187,-2.0853856
alexnet_w1_mlp_simclrhn_probe1,1,386,NaN,airplane,airplane,0,0386_lp_dnn_0_airplane_10_n02690373_7099.png,n02690373_7099.png,1.0,10.140276,2.0196571,5.7421446
alexnet_w1_mlp_simclrhn_probe1,1,387,NaN,bird,cat,5,0387_lp_dnn_5_cat_10_n02124075_13187.png,n02124075_13187.png,0.0,-2.999073,-0.33901048,-1.8809483
alexnet_w1_mlp_simclrhn_probe1,1,388,NaN,knife,knife,0,0388_lp_dnn_0_knife_10_n03041632_32048.png,n03041632_32048.png,1.0,-0.5240475,-0.93222165,0.2886227
alexnet_w1_mlp_simclrhn_probe1,1,389,NaN,airplane,airplane,3,0389_lp_dnn_3_airplane_10_n02690373_20074.png,n02690373_20074.png,1.0,-0.18457566,-0.20745069,0.016175086
alexnet_w1_mlp_simclrhn_probe1,1,390,NaN,truck,car,1,0390_lp_dnn_1_car_10_n02814533_83577.png,n02814533_83577.png,0.0,5.3161044,6.211713,-0.6332908
alexnet_w1_mlp_simclrhn_probe1,1,391,NaN,clock,airplane,40,0391_lp_dnn_40_airplane_10_n02690373_19134.png,n02690373_19134.png,0.0,-1.4103426,-0.48057362,-0.6574459
alexnet_w1_mlp_simclrhn_probe1,1,392,NaN,knife,knife,3,0392_lp_dnn_3_knife_10_n03041632_13130.png,n03041632_13130.png,1.0,-0.28758204,-0.7605085,0.3344095
alexnet_w1_mlp_simclrhn_probe1,1,393,NaN,knife,knife,0,0393_lp_dnn_0_knife_10_n03041632_1006.png,n03041632_1006.png,1.0,-1.1133627,-2.9140525,1.27328
alexnet_w1_mlp_simclrhn_probe1,1,394,NaN,elephant,elephant,1,0394_lp_dnn_1_elephant_10_n02504458_7634.png,n02504458_7634.png,1.0,4.974079,0.42467934,3.2169116
alexnet_w1_mlp_simclrhn_probe1,1,395,NaN,bicycle,bicycle,1,0395_lp_dnn_1_bicycle_10_n02835271_17184.png,n02835271_17184.png,1.0,6.654761,-1.565944,5.8129163
alexnet_w1_mlp_simclrhn_probe1,1,396,NaN,chair,oven,0,0396_lp_dnn_0_oven_10_n04111531_2189.png,n04111531_2189.png,0.0,-0.9305656,-0.68494326,-0.17368123
alexnet_w1_mlp_simclrhn_probe1,1,397,NaN,clock,cat,15,0397_lp_dnn_15_cat_10_n02124075_11888.png,n02124075_11888.png,0.0,-2.0604327,-0.7629338,-0.91747034
alexnet_w1_mlp_simclrhn_probe1,1,398,NaN,bird,cat,10,0398_lp_dnn_10_cat_10_n02123394_1690.png,n02123394_1690.png,0.0,-3.5074825,-0.45762897,-2.156572
alexnet_w1_mlp_simclrhn_probe1,1,399,NaN,dog,dog,1,0399_lp_dnn_1_dog_10_n02111500_2905.png,n02111500_2905.png,1.0,1.392412,-0.6203488,1.4232367
alexnet_w1_mlp_simclrhn_probe1,1,400,NaN,keyboard,knife,5,0400_lp_dnn_5_knife_10_n03041632_20433.png,n03041632_20433.png,0.0,-2.3651984,-0.08081105,-1.6153058
alexnet_w1_mlp_simclrhn_probe1,1,401,NaN,keyboard,clock,15,0401_lp_dnn_15_clock_10_n04548280_22641.png,n04548280_22641.png,0.0,-0.9006383,-0.8806691,-0.014120333
alexnet_w1_mlp_simclrhn_probe1,1,402,NaN,bird,bottle,15,0402_lp_dnn_15_bottle_10_n04557648_634.png,n04557648_634.png,0.0,-0.9775981,-0.9453074,-0.022832971
alexnet_w1_mlp_simclrhn_probe1,1,403,NaN,truck,truck,1,0403_lp_dnn_1_truck_10_n04467665_69447.png,n04467665_69447.png,1.0,1.8421904,1.3410028,0.35439312
alexnet_w1_mlp_simclrhn_probe1,1,404,NaN,elephant,elephant,3,0404_lp_dnn_3_elephant_10_n02504013_1777.png,n02504013_1777.png,1.0,-0.39390978,-0.6462957,0.17846382
alexnet_w1_mlp_simclrhn_probe1,1,405,NaN,truck,truck,0,0405_lp_dnn_0_truck_10_n03796401_2559.png,n03796401_2559.png,1.0,3.4987416,0.21495703,2.3219864
alexnet_w1_mlp_simclrhn_probe1,1,406,NaN,car,car,1,0406_lp_dnn_1_car_10_n02814533_42547.png,n02814533_42547.png,1.0,6.8145185,5.3034163,1.0685107
alexnet_w1_mlp_simclrhn_probe1,1,407,NaN,bird,clock,15,0407_lp_dnn_15_clock_10_n04548280_7181.png,n04548280_7181.png,0.0,-1.387414,-0.9836339,-0.28551567
alexnet_w1_mlp_simclrhn_probe1,1,408,NaN,airplane,boat,1,0408_lp_dnn_1_boat_10_n03344393_5030.png,n03344393_5030.png,0.0,1.2666782,2.6592708,-0.98471165
alexnet_w1_mlp_simclrhn_probe1,1,409,NaN,bird,bottle,15,0409_lp_dnn_15_bottle_10_n04591713_2952.png,n04591713_2952.png,0.0,-1.8049501,-0.5286309,-0.902494
alexnet_w1_mlp_simclrhn_probe1,1,410,NaN,keyboard,keyboard,5,0410_lp_dnn_5_keyboard_10_n04505470_4742.png,n04505470_4742.png,1.0,-0.41590798,-0.73329586,0.22442712
alexnet_w1_mlp_simclrhn_probe1,1,411,NaN,bird,bear,7,0411_lp_dnn_7_bear_10_n02134418_4696.png,n02134418_4696.png,0.0,-2.9061453,-0.68629706,-1.5696697
alexnet_w1_mlp_simclrhn_probe1,1,412,NaN,clock,bear,40,0412_lp_dnn_40_bear_10_n02132136_5815.png,n02132136_5815.png,0.0,-2.8256483,-0.25839815,-1.8153201
alexnet_w1_mlp_simclrhn_probe1,1,413,NaN,bird,bicycle,15,0413_lp_dnn_15_bicycle_10_n02835271_8203.png,n02835271_8203.png,0.0,-3.0521677,-1.0467246,-1.4180624
alexnet_w1_mlp_simclrhn_probe1,1,414,NaN,clock,car,40,0414_lp_dnn_40_car_10_n04285008_12868.png,n04285008_12868.png,0.0,-1.936329,-0.45544145,-1.0471456
alexnet_w1_mlp_simclrhn_probe1,1,415,NaN,clock,bear,40,0415_lp_dnn_40_bear_10_n02132136_7074.png,n02132136_7074.png,0.0,-2.3456025,-0.6459856,-1.2018107
alexnet_w1_mlp_simclrhn_probe1,1,416,NaN,oven,boat,3,0416_lp_dnn_3_boat_10_n03344393_8265.png,n03344393_8265.png,0.0,-1.1370697,-0.27225375,-0.61151725
alexnet_w1_mlp_simclrhn_probe1,1,417,NaN,bird,truck,10,0417_lp_dnn_10_truck_10_n04467665_12177.png,n04467665_12177.png,0.0,-5.6155148,-0.79574764,-3.4080899
alexnet_w1_mlp_simclrhn_probe1,1,418,NaN,car,car,3,0418_lp_dnn_3_car_10_n03100240_8987.png,n03100240_8987.png,1.0,0.5091763,-0.0062556732,0.36446548
alexnet_w1_mlp_simclrhn_probe1,1,419,NaN,bird,bird,15,0419_lp_dnn_15_bird_10_n01530575_10601.png,n01530575_10601.png,1.0,-0.8276533,-1.0803638,0.17869328
alexnet_w1_mlp_simclrhn_probe1,1,420,NaN,keyboard,keyboard,15,0420_lp_dnn_15_keyboard_10_n04505470_313.png,n04505470_313.png,1.0,-0.97252953,-1.0726365,0.070786305
alexnet_w1_mlp_simclrhn_probe1,1,421,NaN,truck,truck,1,0421_lp_dnn_1_truck_10_n03417042_5371.png,n03417042_5371.png,1.0,1.0532062,0.3777274,0.47763565
alexnet_w1_mlp_simclrhn_probe1,1,422,NaN,truck,truck,0,0422_lp_dnn_0_truck_10_n03796401_29952.png,n03796401_29952.png,1.0,4.5307026,-1.0290003,3.9313037
alexnet_w1_mlp_simclrhn_probe1,1,423,NaN,keyboard,bicycle,5,0423_lp_dnn_5_bicycle_10_n03792782_6159.png,n03792782_6159.png,0.0,-2.1081862,-0.20697987,-1.344356
alexnet_w1_mlp_simclrhn_probe1,1,424,NaN,bird,elephant,7,0424_lp_dnn_7_elephant_10_n02504458_1336.png,n02504458_1336.png,0.0,-3.2716622,-0.2921271,-2.1068494
alexnet_w1_mlp_simclrhn_probe1,1,425,NaN,bird,bicycle,10,0425_lp_dnn_10_bicycle_10_n02835271_8597.png,n02835271_8597.png,0.0,-4.1666307,-0.30995837,-2.7270792
alexnet_w1_mlp_simclrhn_probe1,1,426,NaN,keyboard,keyboard,3,0426_lp_dnn_3_keyboard_10_n04505470_3615.png,n04505470_3615.png,1.0,1.1214489,-0.44347844,1.1065707
alexnet_w1_mlp_simclrhn_probe1,1,427,NaN,bird,dog,7,0427_lp_dnn_7_dog_10_n02090721_7040.png,n02090721_7040.png,0.0,-3.2065997,-0.61924344,-1.8295373
alexnet_w1_mlp_simclrhn_probe1,1,428,NaN,cat,cat,0,0428_lp_dnn_0_cat_10_n02124075_17347.png,n02124075_17347.png,1.0,3.861952,-2.0274906,4.164465
alexnet_w1_mlp_simclrhn_probe1,1,429,NaN,chair,keyboard,0,0429_lp_dnn_0_keyboard_10_n03085013_23018.png,n03085013_23018.png,0.0,-0.22897571,0.39419192,-0.44064608
alexnet_w1_mlp_simclrhn_probe1,1,430,NaN,knife,car,40,0430_lp_dnn_40_car_10_n03100240_5018.png,n03100240_5018.png,0.0,-2.3813903,-0.42194036,-1.3855404
alexnet_w1_mlp_simclrhn_probe1,1,431,NaN,clock,dog,40,0431_lp_dnn_40_dog_10_n02105056_12631.png,n02105056_12631.png,0.0,-2.7185028,-0.15124337,-1.8153265
alexnet_w1_mlp_simclrhn_probe1,1,432,NaN,clock,knife,15,0432_lp_dnn_15_knife_10_n03041632_27848.png,n03041632_27848.png,0.0,-1.4540842,-0.9123853,-0.38303897
alexnet_w1_mlp_simclrhn_probe1,1,433,NaN,keyboard,keyboard,3,0433_lp_dnn_3_keyboard_10_n04505470_4432.png,n04505470_4432.png,1.0,2.0196378,0.002610496,1.4262538
alexnet_w1_mlp_simclrhn_probe1,1,434,NaN,clock,bear,15,0434_lp_dnn_15_bear_10_n02132136_786.png,n02132136_786.png,0.0,-2.9806309,-0.9890129,-1.4082866
alexnet_w1_mlp_simclrhn_probe1,1,435,NaN,bird,truck,15,0435_lp_dnn_15_truck_10_n03796401_10519.png,n03796401_10519.png,0.0,-3.8636675,-0.89123285,-2.1018286
alexnet_w1_mlp_simclrhn_probe1,1,436,NaN,keyboard,airplane,5,0436_lp_dnn_5_airplane_10_n02690373_9086.png,n02690373_9086.png,0.0,-1.1103117,-0.53267574,-0.40845034
alexnet_w1_mlp_simclrhn_probe1,1,437,NaN,bicycle,boat,0,0437_lp_dnn_0_boat_10_n02951358_512.png,n02951358_512.png,0.0,-2.3058681,3.005516,-3.7557158
alexnet_w1_mlp_simclrhn_probe1,1,438,NaN,keyboard,bear,10,0438_lp_dnn_10_bear_10_n02132136_10468.png,n02132136_10468.png,0.0,-3.8781533,-0.9430208,-2.075452
alexnet_w1_mlp_simclrhn_probe1,1,439,NaN,keyboard,bear,5,0439_lp_dnn_5_bear_10_n02134084_13175.png,n02134084_13175.png,0.0,-2.887777,-0.61547565,-1.6067598
alexnet_w1_mlp_simclrhn_probe1,1,440,NaN,bird,dog,10,0440_lp_dnn_10_dog_10_n02088364_2119.png,n02088364_2119.png,0.0,-4.0427175,-0.59774524,-2.4359634
alexnet_w1_mlp_simclrhn_probe1,1,441,NaN,boat,boat,1,0441_lp_dnn_1_boat_10_n04612504_26238.png,n04612504_26238.png,1.0,3.58811,0.57042086,2.1338286
alexnet_w1_mlp_simclrhn_probe1,1,442,NaN,bear,bear,3,0442_lp_dnn_3_bear_10_n02134084_20142.png,n02134084_20142.png,1.0,-0.21229339,-0.6290909,0.29472035
alexnet_w1_mlp_simclrhn_probe1,1,443,NaN,keyboard,dog,5,0443_lp_dnn_5_dog_10_n02107683_1076.png,n02107683_1076.png,0.0,-3.3046832,-0.8620042,-1.7272348
alexnet_w1_mlp_simclrhn_probe1,1,444,NaN,car,car,3,0444_lp_dnn_3_car_10_n02814533_35386.png,n02814533_35386.png,1.0,0.11369506,0.10704617,0.0047014756
alexnet_w1_mlp_simclrhn_probe1,1,445,NaN,bird,bird,3,0445_lp_dnn_3_bird_10_n01531178_15380.png,n01531178_15380.png,1.0,-0.76679665,-1.1657479,0.28210112
alexnet_w1_mlp_simclrhn_probe1,1,446,NaN,keyboard,bear,7,0446_lp_dnn_7_bear_10_n02134084_17529.png,n02134084_17529.png,0.0,-3.8629827,-0.9344225,-2.0708048
alexnet_w1_mlp_simclrhn_probe1,1,447,NaN,bird,bicycle,10,0447_lp_dnn_10_bicycle_10_n02835271_22623.png,n02835271_22623.png,0.0,-3.1280446,-0.65809375,-1.7465191
alexnet_w1_mlp_simclrhn_probe1,1,448,NaN,bird,chair,15,0448_lp_dnn_15_chair_10_n02791124_3160.png,n02791124_3160.png,0.0,-4.230903,-0.70473963,-2.493374
alexnet_w1_mlp_simclrhn_probe1,1,449,NaN,bottle,bottle,0,0449_lp_dnn_0_bottle_10_n02823428_2422.png,n02823428_2422.png,1.0,6.8724523,0.215357,4.7072773
alexnet_w1_mlp_simclrhn_probe1,1,450,NaN,bird,bear,7,0450_lp_dnn_7_bear_10_n02134084_34902.png,n02134084_34902.png,0.0,-2.4033546,-0.67525095,-1.2219539
alexnet_w1_mlp_simclrhn_probe1,1,451,NaN,keyboard,bicycle,15,0451_lp_dnn_15_bicycle_10_n02835271_3535.png,n02835271_3535.png,0.0,-2.806981,-1.0397252,-1.2496387
alexnet_w1_mlp_simclrhn_probe1,1,452,NaN,oven,oven,1,0452_lp_dnn_1_oven_10_n04111531_10640.png,n04111531_10640.png,1.0,3.660904,0.32876486,2.356178
alexnet_w1_mlp_simclrhn_probe1,1,453,NaN,clock,keyboard,40,0453_lp_dnn_40_keyboard_10_n04505470_1338.png,n04505470_1338.png,0.0,-1.044039,-0.25734362,-0.55627763
alexnet_w1_mlp_simclrhn_probe1,1,454,NaN,car,keyboard,0,0454_lp_dnn_0_keyboard_10_n03085013_26656.png,n03085013_26656.png,0.0,0.32893765,1.7489644,-1.0041106
alexnet_w1_mlp_simclrhn_probe1,1,455,NaN,keyboard,boat,5,0455_lp_dnn_5_boat_10_n03344393_9575.png,n03344393_9575.png,0.0,-3.5373924,-0.48193434,-2.160535
alexnet_w1_mlp_simclrhn_probe1,1,456,NaN,boat,boat,1,0456_lp_dnn_1_boat_10_n03344393_4616.png,n03344393_4616.png,1.0,0.6094352,-0.94907236,1.1020312
alexnet_w1_mlp_simclrhn_probe1,1,457,NaN,bicycle,bicycle,0,0457_lp_dnn_0_bicycle_10_n02835271_11929.png,n02835271_11929.png,1.0,1.8485551,-1.4928123,2.3627036
alexnet_w1_mlp_simclrhn_probe1,1,458,NaN,keyboard,keyboard,3,0458_lp_dnn_3_keyboard_10_n03085013_20515.png,n03085013_20515.png,1.0,2.3928933,-0.039066225,1.7196552
alexnet_w1_mlp_simclrhn_probe1,1,459,NaN,clock,dog,40,0459_lp_dnn_40_dog_10_n02088364_3791.png,n02088364_3791.png,0.0,-2.3295705,-0.2340609,-1.481749
alexnet_w1_mlp_simclrhn_probe1,1,460,NaN,airplane,airplane,0,0460_lp_dnn_0_airplane_10_n02690373_10114.png,n02690373_10114.png,1.0,8.410904,2.8977122,3.8984153
alexnet_w1_mlp_simclrhn_probe1,1,461,NaN,bottle,airplane,10,0461_lp_dnn_10_airplane_10_n02690373_8543.png,n02690373_8543.png,0.0,-2.6444306,-1.0279448,-1.1430281
alexnet_w1_mlp_simclrhn_probe1,1,462,NaN,keyboard,chair,7,0462_lp_dnn_7_chair_10_n04429376_14967.png,n04429376_14967.png,0.0,-2.602837,-0.52021176,-1.4726386
alexnet_w1_mlp_simclrhn_probe1,1,463,NaN,bird,cat,15,0463_lp_dnn_15_cat_10_n02125311_24439.png,n02125311_24439.png,0.0,-2.8856866,-1.0666066,-1.2862839
alexnet_w1_mlp_simclrhn_probe1,1,464,NaN,keyboard,truck,5,0464_lp_dnn_5_truck_10_n03417042_4665.png,n03417042_4665.png,0.0,-3.9318566,-0.27671885,-2.5845728
alexnet_w1_mlp_simclrhn_probe1,1,465,NaN,clock,elephant,40,0465_lp_dnn_40_elephant_10_n02504013_4044.png,n02504013_4044.png,0.0,-2.1361604,-0.3501428,-1.2629051
alexnet_w1_mlp_simclrhn_probe1,1,466,NaN,bird,bird,1,0466_lp_dnn_1_bird_10_n01843065_3596.png,n01843065_3596.png,1.0,1.1978362,-3.3301656,3.2017808
alexnet_w1_mlp_simclrhn_probe1,1,467,NaN,bird,bird,10,0467_lp_dnn_10_bird_10_n02011460_17499.png,n02011460_17499.png,1.0,-0.41360793,-1.3311505,0.6488006
alexnet_w1_mlp_simclrhn_probe1,1,468,NaN,elephant,elephant,0,0468_lp_dnn_0_elephant_10_n02504458_7506.png,n02504458_7506.png,1.0,1.7578602,-0.9374606,1.9058797
alexnet_w1_mlp_simclrhn_probe1,1,469,NaN,clock,keyboard,40,0469_lp_dnn_40_keyboard_10_n03085013_21955.png,n03085013_21955.png,0.0,-1.1139266,-0.36260554,-0.53126425
alexnet_w1_mlp_simclrhn_probe1,1,470,NaN,clock,clock,40,0470_lp_dnn_40_clock_10_n02708093_7810.png,n02708093_7810.png,1.0,-0.29538873,-0.37145245,0.053785175
alexnet_w1_mlp_simclrhn_probe1,1,471,NaN,clock,car,40,0471_lp_dnn_40_car_10_n02814533_7984.png,n02814533_7984.png,0.0,-2.174896,-0.41953996,-1.2412242
alexnet_w1_mlp_simclrhn_probe1,1,472,NaN,keyboard,dog,5,0472_lp_dnn_5_dog_10_n02106382_1806.png,n02106382_1806.png,0.0,-2.721847,-0.67167616,-1.4496897
alexnet_w1_mlp_simclrhn_probe1,1,473,NaN,bird,chair,15,0473_lp_dnn_15_chair_10_n02791124_3890.png,n02791124_3890.png,0.0,-4.0376234,-0.98715967,-2.1570036
alexnet_w1_mlp_simclrhn_probe1,1,474,NaN,bird,elephant,7,0474_lp_dnn_7_elephant_10_n02504013_16929.png,n02504013_16929.png,0.0,-3.9749665,-0.71410084,-2.3057802
alexnet_w1_mlp_simclrhn_probe1,1,475,NaN,bird,elephant,7,0475_lp_dnn_7_elephant_10_n02504013_8052.png,n02504013_8052.png,0.0,-3.804204,-0.40534985,-2.403353
alexnet_w1_mlp_simclrhn_probe1,1,476,NaN,bear,bear,1,0476_lp_dnn_1_bear_10_n02132136_1584.png,n02132136_1584.png,1.0,2.342586,0.9040511,1.0171978
alexnet_w1_mlp_simclrhn_probe1,1,477,NaN,keyboard,keyboard,1,0477_lp_dnn_1_keyboard_10_n04505470_532.png,n04505470_532.png,1.0,4.666603,1.1099128,2.5149598
alexnet_w1_mlp_simclrhn_probe1,1,478,NaN,airplane,airplane,1,0478_lp_dnn_1_airplane_10_n02690373_3988.png,n02690373_3988.png,1.0,6.232303,1.8194845,3.1203341
alexnet_w1_mlp_simclrhn_probe1,1,479,NaN,bird,bicycle,15,0479_lp_dnn_15_bicycle_10_n03792782_13051.png,n03792782_13051.png,0.0,-3.7688625,-0.52189237,-2.2959547
alexnet_w1_mlp_simclrhn_probe1,1,480,NaN,bottle,bear,3,0480_lp_dnn_3_bear_10_n02134084_4818.png,n02134084_4818.png,0.0,-1.5552855,-1.1639291,-0.27673075
alexnet_w1_mlp_simclrhn_probe1,1,481,NaN,bird,boat,10,0481_lp_dnn_10_boat_10_n02951358_9146.png,n02951358_9146.png,0.0,-4.268292,-0.77021134,-2.4735167
alexnet_w1_mlp_simclrhn_probe1,1,482,NaN,clock,keyboard,40,0482_lp_dnn_40_keyboard_10_n03085013_19317.png,n03085013_19317.png,0.0,-1.1205696,-0.44887006,-0.4749633
alexnet_w1_mlp_simclrhn_probe1,1,483,NaN,clock,bicycle,40,0483_lp_dnn_40_bicycle_10_n03792782_17666.png,n03792782_17666.png,0.0,-1.9226253,-0.43942794,-1.0487789
alexnet_w1_mlp_simclrhn_probe1,1,484,NaN,clock,bear,40,0484_lp_dnn_40_bear_10_n02133161_20090.png,n02133161_20090.png,0.0,-2.3061717,-0.30439994,-1.4154663
alexnet_w1_mlp_simclrhn_probe1,1,485,NaN,keyboard,bottle,3,0485_lp_dnn_3_bottle_10_n03937543_11101.png,n03937543_11101.png,0.0,-1.5087845,-0.49076828,-0.7198462
alexnet_w1_mlp_simclrhn_probe1,1,486,NaN,bird,bear,7,0486_lp_dnn_7_bear_10_n02133161_2281.png,n02133161_2281.png,0.0,-2.6555576,-0.90656257,-1.2367263
alexnet_w1_mlp_simclrhn_probe1,1,487,NaN,clock,airplane,10,0487_lp_dnn_10_airplane_10_n02690373_8813.png,n02690373_8813.png,0.0,-2.7618806,-0.8988004,-1.3173968
alexnet_w1_mlp_simclrhn_probe1,1,488,NaN,clock,boat,40,0488_lp_dnn_40_boat_10_n03662601_33625.png,n03662601_33625.png,0.0,-1.4380875,-0.3660457,-0.758048
alexnet_w1_mlp_simclrhn_probe1,1,489,NaN,clock,cat,40,0489_lp_dnn_40_cat_10_n02124075_9066.png,n02124075_9066.png,0.0,-1.4402456,-0.23322143,-0.853495
alexnet_w1_mlp_simclrhn_probe1,1,490,NaN,oven,oven,3,0490_lp_dnn_3_oven_10_n04111531_10216.png,n04111531_10216.png,1.0,-0.4133859,-0.64829195,0.16610366
alexnet_w1_mlp_simclrhn_probe1,1,491,NaN,bird,bird,7,0491_lp_dnn_7_bird_10_n01614925_1097.png,n01614925_1097.png,1.0,-0.451773,-1.1636701,0.5033873
alexnet_w1_mlp_simclrhn_probe1,1,492,NaN,bird,bird,0,0492_lp_dnn_0_bird_10_n02017213_1163.png,n02017213_1163.png,1.0,-0.9889234,-1.2422284,0.1791137
alexnet_w1_mlp_simclrhn_probe1,1,493,NaN,clock,oven,40,0493_lp_dnn_40_oven_10_n04111531_283.png,n04111531_283.png,0.0,-1.9445269,-0.43658876,-1.0662733
alexnet_w1_mlp_simclrhn_probe1,1,494,NaN,bird,truck,15,0494_lp_dnn_15_truck_10_n04467665_39317.png,n04467665_39317.png,0.0,-4.6957417,-0.73173,-2.8029795
alexnet_w1_mlp_simclrhn_probe1,1,495,NaN,dog,dog,1,0495_lp_dnn_1_dog_10_n02093754_5037.png,n02093754_5037.png,1.0,0.86085635,-0.2990003,0.8201425
alexnet_w1_mlp_simclrhn_probe1,1,496,NaN,clock,bicycle,40,0496_lp_dnn_40_bicycle_10_n02835271_2580.png,n02835271_2580.png,0.0,-2.513908,-0.57418215,-1.3715932
alexnet_w1_mlp_simclrhn_probe1,1,497,NaN,bird,airplane,7,0497_lp_dnn_7_airplane_10_n02690373_2564.png,n02690373_2564.png,0.0,-2.5706522,-0.7983256,-1.2532243
alexnet_w1_mlp_simclrhn_probe1,1,498,NaN,clock,truck,40,0498_lp_dnn_40_truck_10_n04467665_62626.png,n04467665_62626.png,0.0,-2.3348935,-0.31589362,-1.4276485
alexnet_w1_mlp_simclrhn_probe1,1,499,NaN,bird,chair,10,0499_lp_dnn_10_chair_10_n04429376_2450.png,n04429376_2450.png,0.0,-3.356716,-0.5402339,-1.9915535
alexnet_w1_mlp_simclrhn_probe1,1,500,NaN,keyboard,keyboard,0,0500_lp_dnn_0_keyboard_10_n04505470_4044.png,n04505470_4044.png,1.0,10.240067,0.40314707,6.955753
alexnet_w1_mlp_simclrhn_probe1,1,501,NaN,keyboard,oven,15,0501_lp_dnn_15_oven_10_n04111531_8269.png,n04111531_8269.png,0.0,-2.1078312,-0.9395852,-0.8260747
alexnet_w1_mlp_simclrhn_probe1,1,502,NaN,keyboard,clock,7,0502_lp_dnn_7_clock_10_n02708093_6890.png,n02708093_6890.png,0.0,-0.7189367,-0.3536511,-0.25829592
alexnet_w1_mlp_simclrhn_probe1,1,503,NaN,clock,oven,40,0503_lp_dnn_40_oven_10_n04111531_15947.png,n04111531_15947.png,0.0,-2.0913043,-0.59147406,-1.0605402
alexnet_w1_mlp_simclrhn_probe1,1,504,NaN,bird,bicycle,15,0504_lp_dnn_15_bicycle_10_n03792782_24734.png,n03792782_24734.png,0.0,-3.5584788,-0.6400839,-2.063617
alexnet_w1_mlp_simclrhn_probe1,1,505,NaN,bottle,chair,40,0505_lp_dnn_40_chair_10_n04099969_10401.png,n04099969_10401.png,0.0,-1.6167679,-0.44580534,-0.8279956
alexnet_w1_mlp_simclrhn_probe1,1,506,NaN,elephant,elephant,3,0506_lp_dnn_3_elephant_10_n02504458_2994.png,n02504458_2994.png,1.0,0.48535803,-0.47207817,0.67700964
alexnet_w1_mlp_simclrhn_probe1,1,507,NaN,elephant,dog,0,0507_lp_dnn_0_dog_10_n02108422_1164.png,n02108422_1164.png,0.0,-1.6373307,-1.1434727,-0.34921032
alexnet_w1_mlp_simclrhn_probe1,1,508,NaN,keyboard,clock,5,0508_lp_dnn_5_clock_10_n04548280_2421.png,n04548280_2421.png,0.0,-0.32118443,-0.17110817,-0.10611994
alexnet_w1_mlp_simclrhn_probe1,1,509,NaN,bird,oven,5,0509_lp_dnn_5_oven_10_n04111531_2930.png,n04111531_2930.png,0.0,-2.8573527,-0.32979974,-1.7872499
alexnet_w1_mlp_simclrhn_probe1,1,510,NaN,bear,bear,1,0510_lp_dnn_1_bear_10_n02132136_4271.png,n02132136_4271.png,1.0,2.2761936,0.73172873,1.0921016
alexnet_w1_mlp_simclrhn_probe1,1,511,NaN,keyboard,oven,7,0511_lp_dnn_7_oven_10_n04111531_8603.png,n04111531_8603.png,0.0,-2.5865908,-0.9129003,-1.1834779
alexnet_w1_mlp_simclrhn_probe1,1,512,NaN,clock,bicycle,40,0512_lp_dnn_40_bicycle_10_n02835271_16850.png,n02835271_16850.png,0.0,-2.6306987,-0.29589376,-1.6509565
alexnet_w1_mlp_simclrhn_probe1,1,513,NaN,knife,knife,3,0513_lp_dnn_3_knife_10_n03041632_47410.png,n03041632_47410.png,1.0,-0.48647332,-0.8085185,0.22772035
alexnet_w1_mlp_simclrhn_probe1,1,514,NaN,bird,elephant,15,0514_lp_dnn_15_elephant_10_n02504458_1000.png,n02504458_1000.png,0.0,-3.7369766,-0.5799931,-2.2323244
alexnet_w1_mlp_simclrhn_probe1,1,515,NaN,cat,cat,1,0515_lp_dnn_1_cat_10_n02124075_8884.png,n02124075_8884.png,1.0,0.94433016,-2.620488,2.5207071
alexnet_w1_mlp_simclrhn_probe1,1,516,NaN,bird,bird,7,0516_lp_dnn_7_bird_10_n01622779_1370.png,n01622779_1370.png,1.0,-0.33184293,-1.1847451,0.6030929
alexnet_w1_mlp_simclrhn_probe1,1,517,NaN,cat,cat,0,0517_lp_dnn_0_cat_10_n02123045_8215.png,n02123045_8215.png,1.0,2.3559234,-3.3443038,4.030669
alexnet_w1_mlp_simclrhn_probe1,1,518,NaN,keyboard,car,5,0518_lp_dnn_5_car_10_n03100240_3083.png,n03100240_3083.png,0.0,-2.6925614,-0.37261868,-1.6404473
alexnet_w1_mlp_simclrhn_probe1,1,519,NaN,bear,bicycle,3,0519_lp_dnn_3_bicycle_10_n03792782_9280.png,n03792782_9280.png,0.0,-1.4818058,-0.30624452,-0.8312474
alexnet_w1_mlp_simclrhn_probe1,1,520,NaN,keyboard,bird,5,0520_lp_dnn_5_bird_10_n01819313_3505.png,n01819313_3505.png,0.0,-1.1894842,-0.27124667,-0.649292
alexnet_w1_mlp_simclrhn_probe1,1,521,NaN,bird,bird,15,0521_lp_dnn_15_bird_10_n01531178_5130.png,n01531178_5130.png,1.0,-0.6146116,-1.5734525,0.6780029
alexnet_w1_mlp_simclrhn_probe1,1,522,NaN,bottle,clock,15,0522_lp_dnn_15_clock_10_n02708093_2867.png,n02708093_2867.png,0.0,-0.82029533,-0.7493057,-0.050197236
alexnet_w1_mlp_simclrhn_probe1,1,523,NaN,keyboard,bear,7,0523_lp_dnn_7_bear_10_n02134418_258.png,n02134418_258.png,0.0,-3.7365632,-0.38178545,-2.3721862
alexnet_w1_mlp_simclrhn_probe1,1,524,NaN,keyboard,bottle,1,0524_lp_dnn_1_bottle_10_n02823428_8280.png,n02823428_8280.png,0.0,-0.4373152,0.50421584,-0.665763
alexnet_w1_mlp_simclrhn_probe1,1,525,NaN,bird,elephant,7,0525_lp_dnn_7_elephant_10_n02504013_24811.png,n02504013_24811.png,0.0,-4.156739,-0.797227,-2.375534
alexnet_w1_mlp_simclrhn_probe1,1,526,NaN,knife,bicycle,40,0526_lp_dnn_40_bicycle_10_n02835271_14499.png,n02835271_14499.png,0.0,-1.9785888,-0.46308544,-1.0716227
alexnet_w1_mlp_simclrhn_probe1,1,527,NaN,clock,bottle,0,0527_lp_dnn_0_bottle_10_n02823428_14536.png,n02823428_14536.png,0.0,4.3486648,5.4808884,-0.80060303
alexnet_w1_mlp_simclrhn_probe1,1,528,NaN,keyboard,knife,5,0528_lp_dnn_5_knife_10_n03041632_21723.png,n03041632_21723.png,0.0,-2.679694,-0.41089344,-1.6042843
alexnet_w1_mlp_simclrhn_probe1,1,529,NaN,keyboard,cat,10,0529_lp_dnn_10_cat_10_n02123159_8396.png,n02123159_8396.png,0.0,-3.0164802,-1.1118425,-1.3467822
alexnet_w1_mlp_simclrhn_probe1,1,530,NaN,clock,bottle,40,0530_lp_dnn_40_bottle_10_n02823428_3486.png,n02823428_3486.png,0.0,-0.6059908,-0.331614,-0.19401373
alexnet_w1_mlp_simclrhn_probe1,1,531,NaN,elephant,bird,0,0531_lp_dnn_0_bird_10_n01514859_12705.png,n01514859_12705.png,0.0,-2.369797,-0.75701374,-1.14041
alexnet_w1_mlp_simclrhn_probe1,1,532,NaN,bird,dog,7,0532_lp_dnn_7_dog_10_n02097047_911.png,n02097047_911.png,0.0,-4.719492,-0.7192154,-2.8286228
alexnet_w1_mlp_simclrhn_probe1,1,533,NaN,keyboard,keyboard,10,0533_lp_dnn_10_keyboard_10_n04505470_3132.png,n04505470_3132.png,1.0,-0.7555189,-1.0486451,0.20727155
alexnet_w1_mlp_simclrhn_probe1,1,534,NaN,airplane,airplane,1,0534_lp_dnn_1_airplane_10_n02690373_11908.png,n02690373_11908.png,1.0,1.6272693,-0.43511084,1.458323
alexnet_w1_mlp_simclrhn_probe1,1,535,NaN,clock,elephant,40,0535_lp_dnn_40_elephant_10_n02504458_5169.png,n02504458_5169.png,0.0,-2.058815,-0.448838,-1.1384257
alexnet_w1_mlp_simclrhn_probe1,1,536,NaN,keyboard,bottle,15,0536_lp_dnn_15_bottle_10_n03937543_5375.png,n03937543_5375.png,0.0,-0.96688783,-0.7109915,-0.18094604
alexnet_w1_mlp_simclrhn_probe1,1,537,NaN,oven,bottle,1,0537_lp_dnn_1_bottle_10_n04591713_6138.png,n04591713_6138.png,0.0,-3.2408254,-1.3977939,-1.3032202
alexnet_w1_mlp_simclrhn_probe1,1,538,NaN,bottle,bottle,15,0538_lp_dnn_15_bottle_10_n04557648_12559.png,n04557648_12559.png,1.0,-0.7526755,-0.75547373,0.0019786682
alexnet_w1_mlp_simclrhn_probe1,1,539,NaN,clock,clock,40,0539_lp_dnn_40_clock_10_n03196217_3903.png,n03196217_3903.png,1.0,-0.14163472,-0.46780142,0.23063467
alexnet_w1_mlp_simclrhn_probe1,1,540,NaN,bird,keyboard,15,0540_lp_dnn_15_keyboard_10_n04505470_4732.png,n04505470_4732.png,0.0,-1.2115576,-0.9817709,-0.16248378
alexnet_w1_mlp_simclrhn_probe1,1,541,NaN,clock,knife,40,0541_lp_dnn_40_knife_10_n03041632_8468.png,n03041632_8468.png,0.0,-0.6110468,-0.45217028,-0.112342656
alexnet_w1_mlp_simclrhn_probe1,1,542,NaN,keyboard,chair,3,0542_lp_dnn_3_chair_10_n02791124_14040.png,n02791124_14040.png,0.0,-0.8712034,-0.016958132,-0.60404265
alexnet_w1_mlp_simclrhn_probe1,1,543,NaN,knife,boat,15,0543_lp_dnn_15_boat_10_n04273569_3095.png,n04273569_3095.png,0.0,-1.7630405,-0.5379917,-0.8662403
alexnet_w1_mlp_simclrhn_probe1,1,544,NaN,bird,bird,1,0544_lp_dnn_1_bird_10_n02002724_18548.png,n02002724_18548.png,1.0,0.26502746,-0.9045993,0.827051
alexnet_w1_mlp_simclrhn_probe1,1,545,NaN,bird,oven,10,0545_lp_dnn_10_oven_10_n04111531_8537.png,n04111531_8537.png,0.0,-2.2975442,-0.5599199,-1.228686
alexnet_w1_mlp_simclrhn_probe1,1,546,NaN,clock,chair,40,0546_lp_dnn_40_chair_10_n02791124_1935.png,n02791124_1935.png,0.0,-1.6741009,-0.40064386,-0.90047014
alexnet_w1_mlp_simclrhn_probe1,1,547,NaN,bird,dog,5,0547_lp_dnn_5_dog_10_n02102040_1660.png,n02102040_1660.png,0.0,-3.328716,-0.6788049,-1.8737702
alexnet_w1_mlp_simclrhn_probe1,1,548,NaN,elephant,bear,0,0548_lp_dnn_0_bear_10_n02134084_7790.png,n02134084_7790.png,0.0,1.1788261,3.2475903,-1.4628372
alexnet_w1_mlp_simclrhn_probe1,1,549,NaN,bird,knife,10,0549_lp_dnn_10_knife_10_n03041632_17091.png,n03041632_17091.png,0.0,-2.9495595,-0.6668695,-1.6141056
alexnet_w1_mlp_simclrhn_probe1,1,550,NaN,clock,keyboard,5,0550_lp_dnn_5_keyboard_10_n04505470_9331.png,n04505470_9331.png,0.0,-0.4141804,-0.106405936,-0.2176294
alexnet_w1_mlp_simclrhn_probe1,1,551,NaN,keyboard,airplane,5,0551_lp_dnn_5_airplane_10_n02690373_6887.png,n02690373_6887.png,0.0,-1.9463924,-0.55210674,-0.98590887
alexnet_w1_mlp_simclrhn_probe1,1,552,NaN,oven,chair,1,0552_lp_dnn_1_chair_10_n02791124_2540.png,n02791124_2540.png,0.0,-1.2714765,0.57836026,-1.3080322
alexnet_w1_mlp_simclrhn_probe1,1,553,NaN,oven,truck,3,0553_lp_dnn_3_truck_10_n03796401_23774.png,n03796401_23774.png,0.0,-0.608779,-0.35015047,-0.182878
alexnet_w1_mlp_simclrhn_probe1,1,554,NaN,clock,knife,40,0554_lp_dnn_40_knife_10_n03041632_28201.png,n03041632_28201.png,0.0,-0.5568572,-0.39178726,-0.11672209
alexnet_w1_mlp_simclrhn_probe1,1,555,NaN,keyboard,clock,5,0555_lp_dnn_5_clock_10_n04548280_3563.png,n04548280_3563.png,0.0,-0.71837044,-0.46496034,-0.179188
alexnet_w1_mlp_simclrhn_probe1,1,556,NaN,bicycle,bicycle,0,0556_lp_dnn_0_bicycle_10_n03792782_8287.png,n03792782_8287.png,1.0,8.4033575,-3.3292139,8.296181
alexnet_w1_mlp_simclrhn_probe1,1,557,NaN,clock,clock,3,0557_lp_dnn_3_clock_10_n04548280_4225.png,n04548280_4225.png,1.0,0.6070342,-0.05408671,0.46748307
alexnet_w1_mlp_simclrhn_probe1,1,558,NaN,car,car,0,0558_lp_dnn_0_car_10_n04285008_11931.png,n04285008_11931.png,1.0,13.809293,5.3478413,5.98315
alexnet_w1_mlp_simclrhn_probe1,1,559,NaN,bird,elephant,5,0559_lp_dnn_5_elephant_10_n02504013_9396.png,n02504013_9396.png,0.0,-3.569087,-0.6657664,-2.0529578
alexnet_w1_mlp_simclrhn_probe1,1,560,NaN,knife,boat,40,0560_lp_dnn_40_boat_10_n03344393_2915.png,n03344393_2915.png,0.0,-1.8544245,-0.4599271,-0.9860586
alexnet_w1_mlp_simclrhn_probe1,1,561,NaN,keyboard,bicycle,7,0561_lp_dnn_7_bicycle_10_n03792782_9692.png,n03792782_9692.png,0.0,-4.281687,-0.6383164,-2.576252
alexnet_w1_mlp_simclrhn_probe1,1,562,NaN,keyboard,chair,7,0562_lp_dnn_7_chair_10_n02791124_57.png,n02791124_57.png,0.0,-4.1641507,-0.7583204,-2.4082859
alexnet_w1_mlp_simclrhn_probe1,1,563,NaN,knife,car,40,0563_lp_dnn_40_car_10_n04285008_3185.png,n04285008_3185.png,0.0,-2.871606,-0.84678066,-1.431768
alexnet_w1_mlp_simclrhn_probe1,1,564,NaN,bicycle,boat,1,0564_lp_dnn_1_boat_10_n02951358_34917.png,n02951358_34917.png,0.0,-0.08702548,1.4788811,-1.1072632
alexnet_w1_mlp_simclrhn_probe1,1,565,NaN,clock,clock,0,0565_lp_dnn_0_clock_10_n02708093_2762.png,n02708093_2762.png,1.0,6.358341,-0.38810006,4.7704544
alexnet_w1_mlp_simclrhn_probe1,1,566,NaN,knife,knife,5,0566_lp_dnn_5_knife_10_n03041632_4879.png,n03041632_4879.png,1.0,-0.49670908,-0.5435294,0.03310696
alexnet_w1_mlp_simclrhn_probe1,1,567,NaN,car,car,0,0567_lp_dnn_0_car_10_n02814533_4689.png,n02814533_4689.png,1.0,8.367035,5.3607254,2.1257818
alexnet_w1_mlp_simclrhn_probe1,1,568,NaN,boat,boat,1,0568_lp_dnn_1_boat_10_n02951358_2445.png,n02951358_2445.png,1.0,0.52841157,-1.9355242,1.7422658
alexnet_w1_mlp_simclrhn_probe1,1,569,NaN,clock,truck,40,0569_lp_dnn_40_truck_10_n03417042_10038.png,n03417042_10038.png,0.0,-2.8740435,-0.57558614,-1.6252549
alexnet_w1_mlp_simclrhn_probe1,1,570,NaN,bird,car,10,0570_lp_dnn_10_car_10_n02814533_32924.png,n02814533_32924.png,0.0,-4.501064,-0.83122504,-2.594968
alexnet_w1_mlp_simclrhn_probe1,1,571,NaN,bird,bottle,10,0571_lp_dnn_10_bottle_10_n02823428_5135.png,n02823428_5135.png,0.0,-1.334095,-0.9456162,-0.27469602
alexnet_w1_mlp_simclrhn_probe1,1,572,NaN,keyboard,keyboard,1,0572_lp_dnn_1_keyboard_10_n03085013_9066.png,n03085013_9066.png,1.0,1.6767361,1.5781258,0.069728
alexnet_w1_mlp_simclrhn_probe1,1,573,NaN,bird,oven,10,0573_lp_dnn_10_oven_10_n04111531_11279.png,n04111531_11279.png,0.0,-2.3164887,-1.0718871,-0.8800663
alexnet_w1_mlp_simclrhn_probe1,1,574,NaN,bird,car,10,0574_lp_dnn_10_car_10_n04285008_12182.png,n04285008_12182.png,0.0,-5.266927,-0.7661591,-3.1825235
alexnet_w1_mlp_simclrhn_probe1,1,575,NaN,bear,bear,0,0575_lp_dnn_0_bear_10_n02133161_5681.png,n02133161_5681.png,1.0,2.222755,-1.4888785,2.6245213
alexnet_w1_mlp_simclrhn_probe1,1,576,NaN,bird,dog,5,0576_lp_dnn_5_dog_10_n02108915_5514.png,n02108915_5514.png,0.0,-2.8109808,-0.65395945,-1.5252444
alexnet_w1_mlp_simclrhn_probe1,1,577,NaN,bird,airplane,15,0577_lp_dnn_15_airplane_10_n02690373_7239.png,n02690373_7239.png,0.0,-2.2698565,-0.8115421,-1.0311841
alexnet_w1_mlp_simclrhn_probe1,1,578,NaN,dog,dog,0,0578_lp_dnn_0_dog_10_n02094258_4979.png,n02094258_4979.png,1.0,2.4356852,0.16768913,1.6037154
alexnet_w1_mlp_simclrhn_probe1,1,579,NaN,oven,chair,3,0579_lp_dnn_3_chair_10_n04429376_15078.png,n04429376_15078.png,0.0,-0.61252606,0.6095504,-0.86413854
alexnet_w1_mlp_simclrhn_probe1,1,580,NaN,clock,clock,40,0580_lp_dnn_40_clock_10_n02708093_8276.png,n02708093_8276.png,1.0,-0.28751794,-0.47642487,0.13357738
alexnet_w1_mlp_simclrhn_probe1,1,581,NaN,keyboard,keyboard,3,0581_lp_dnn_3_keyboard_10_n04505470_3947.png,n04505470_3947.png,1.0,1.5646404,0.32152608,0.8790146
alexnet_w1_mlp_simclrhn_probe1,1,582,NaN,bottle,car,15,0582_lp_dnn_15_car_10_n03100240_2996.png,n03100240_2996.png,0.0,-3.4595554,-0.95707756,-1.7695191
alexnet_w1_mlp_simclrhn_probe1,1,583,NaN,bird,cat,10,0583_lp_dnn_10_cat_10_n02123159_3226.png,n02123159_3226.png,0.0,-2.9544709,-0.8884363,-1.4609071
alexnet_w1_mlp_simclrhn_probe1,1,584,NaN,keyboard,truck,7,0584_lp_dnn_7_truck_10_n03417042_19905.png,n03417042_19905.png,0.0,-4.429082,-0.87308764,-2.5144677
alexnet_w1_mlp_simclrhn_probe1,1,585,NaN,bicycle,bird,0,0585_lp_dnn_0_bird_10_n02009229_4838.png,n02009229_4838.png,0.0,-1.7776816,0.46483165,-1.5856963
alexnet_w1_mlp_simclrhn_probe1,1,586,NaN,oven,oven,1,0586_lp_dnn_1_oven_10_n04111531_14383.png,n04111531_14383.png,1.0,1.1207428,-0.45082814,1.1112684
alexnet_w1_mlp_simclrhn_probe1,1,587,NaN,bird,bear,5,0587_lp_dnn_5_bear_10_n02132136_1152.png,n02132136_1152.png,0.0,-2.3425798,-0.33670276,-1.4183693
alexnet_w1_mlp_simclrhn_probe1,1,588,NaN,cat,cat,0,0588_lp_dnn_0_cat_10_n02123597_10952.png,n02123597_10952.png,1.0,-1.5398092,-2.3337293,0.5613862
alexnet_w1_mlp_simclrhn_probe1,1,589,NaN,boat,boat,0,0589_lp_dnn_0_boat_10_n04273569_12318.png,n04273569_12318.png,1.0,3.6001391,2.334499,0.8949428
alexnet_w1_mlp_simclrhn_probe1,1,590,NaN,clock,bottle,40,0590_lp_dnn_40_bottle_10_n03937543_1391.png,n03937543_1391.png,0.0,-0.80803365,-0.4036921,-0.28591266
alexnet_w1_mlp_simclrhn_probe1,1,591,NaN,bird,dog,10,0591_lp_dnn_10_dog_10_n02091032_9464.png,n02091032_9464.png,0.0,-3.2370298,-0.61840314,-1.8516487
alexnet_w1_mlp_simclrhn_probe1,1,592,NaN,keyboard,oven,7,0592_lp_dnn_7_oven_10_n04111531_5218.png,n04111531_5218.png,0.0,-3.4440699,-0.11203799,-2.3561025
alexnet_w1_mlp_simclrhn_probe1,1,593,NaN,keyboard,airplane,5,0593_lp_dnn_5_airplane_10_n02690373_9423.png,n02690373_9423.png,0.0,-2.780544,-0.07687789,-1.9117807
alexnet_w1_mlp_simclrhn_probe1,1,594,NaN,oven,bird,1,0594_lp_dnn_1_bird_10_n01860187_348.png,n01860187_348.png,0.0,-2.1001034,-0.56852734,-1.0829878
alexnet_w1_mlp_simclrhn_probe1,1,595,NaN,clock,bird,40,0595_lp_dnn_40_bird_10_n02006656_8975.png,n02006656_8975.png,0.0,-1.7923123,-0.45025936,-0.9489747
alexnet_w1_mlp_simclrhn_probe1,1,596,NaN,keyboard,oven,10,0596_lp_dnn_10_oven_10_n04111531_7619.png,n04111531_7619.png,0.0,-3.4832993,-0.8751131,-1.8442662
alexnet_w1_mlp_simclrhn_probe1,1,597,NaN,keyboard,bicycle,3,0597_lp_dnn_3_bicycle_10_n02835271_9202.png,n02835271_9202.png,0.0,-1.763287,-0.07778856,-1.1918273
alexnet_w1_mlp_simclrhn_probe1,1,598,NaN,keyboard,boat,10,0598_lp_dnn_10_boat_10_n03344393_7826.png,n03344393_7826.png,0.0,-3.3424454,-0.8268344,-1.7788056
alexnet_w1_mlp_simclrhn_probe1,1,599,NaN,elephant,elephant,3,0599_lp_dnn_3_elephant_10_n02504013_10330.png,n02504013_10330.png,1.0,0.23718882,-0.74942887,0.69764405
alexnet_w1_mlp_simclrhn_probe1,1,600,NaN,keyboard,truck,10,0600_lp_dnn_10_truck_10_n04467665_69202.png,n04467665_69202.png,0.0,-4.760239,-1.1073523,-2.582981
alexnet_w1_mlp_simclrhn_probe1,1,601,NaN,keyboard,keyboard,7,0601_lp_dnn_7_keyboard_10_n04505470_1120.png,n04505470_1120.png,1.0,-0.34542978,-1.1217197,0.5489199
alexnet_w1_mlp_simclrhn_probe1,1,602,NaN,keyboard,car,5,0602_lp_dnn_5_car_10_n04285008_434.png,n04285008_434.png,0.0,-3.6045055,-0.49098742,-2.2015898
alexnet_w1_mlp_simclrhn_probe1,1,603,NaN,bear,cat,1,0603_lp_dnn_1_cat_10_n02123597_7592.png,n02123597_7592.png,0.0,-1.1625215,-0.72720635,-0.3078143
alexnet_w1_mlp_simclrhn_probe1,1,604,NaN,bird,dog,15,0604_lp_dnn_15_dog_10_n02090721_583.png,n02090721_583.png,0.0,-3.5200646,-1.0363936,-1.7562206
alexnet_w1_mlp_simclrhn_probe1,1,605,NaN,bicycle,knife,1,0605_lp_dnn_1_knife_10_n03041632_86783.png,n03041632_86783.png,0.0,-1.7473425,-0.68802124,-0.7490532
alexnet_w1_mlp_simclrhn_probe1,1,606,NaN,keyboard,dog,10,0606_lp_dnn_10_dog_10_n02112018_11708.png,n02112018_11708.png,0.0,-3.2964349,-1.0528812,-1.586432
alexnet_w1_mlp_simclrhn_probe1,1,607,NaN,elephant,bird,0,0607_lp_dnn_0_bird_10_n02018795_5662.png,n02018795_5662.png,0.0,-3.4429297,-0.540263,-2.0524955
alexnet_w1_mlp_simclrhn_probe1,1,608,NaN,bird,elephant,5,0608_lp_dnn_5_elephant_10_n02504013_1088.png,n02504013_1088.png,0.0,-2.5233011,-0.19021016,-1.6497445
alexnet_w1_mlp_simclrhn_probe1,1,609,NaN,keyboard,elephant,5,0609_lp_dnn_5_elephant_10_n02504458_66.png,n02504458_66.png,0.0,-3.0117016,-0.35833156,-1.8762159
alexnet_w1_mlp_simclrhn_probe1,1,610,NaN,keyboard,dog,10,0610_lp_dnn_10_dog_10_n02105056_9099.png,n02105056_9099.png,0.0,-3.4366455,-0.86496204,-1.8184549
alexnet_w1_mlp_simclrhn_probe1,1,611,NaN,bird,boat,10,0611_lp_dnn_10_boat_10_n04273569_19699.png,n04273569_19699.png,0.0,-4.243409,-0.75779796,-2.4646993
alexnet_w1_mlp_simclrhn_probe1,1,612,NaN,dog,dog,1,0612_lp_dnn_1_dog_10_n02097047_2376.png,n02097047_2376.png,1.0,2.6375391,1.6830335,0.6749374
alexnet_w1_mlp_simclrhn_probe1,1,613,NaN,boat,boat,1,0613_lp_dnn_1_boat_10_n03662601_11901.png,n03662601_11901.png,1.0,0.6935166,-0.48082298,0.8303835
alexnet_w1_mlp_simclrhn_probe1,1,614,NaN,oven,oven,1,0614_lp_dnn_1_oven_10_n04111531_7667.png,n04111531_7667.png,1.0,-0.3047324,-0.43421024,0.09155465
alexnet_w1_mlp_simclrhn_probe1,1,615,NaN,bird,knife,10,0615_lp_dnn_10_knife_10_n03041632_24384.png,n03041632_24384.png,0.0,-2.1152823,-0.7212139,-0.98575526
alexnet_w1_mlp_simclrhn_probe1,1,616,NaN,bird,car,7,0616_lp_dnn_7_car_10_n03100240_1216.png,n03100240_1216.png,0.0,-4.682803,-0.7647076,-2.770512
alexnet_w1_mlp_simclrhn_probe1,1,617,NaN,bicycle,bicycle,0,0617_lp_dnn_0_bicycle_10_n03792782_3136.png,n03792782_3136.png,1.0,-0.37657765,-1.2435749,0.61305964
alexnet_w1_mlp_simclrhn_probe1,1,618,NaN,keyboard,keyboard,5,0618_lp_dnn_5_keyboard_10_n03085013_26573.png,n03085013_26573.png,1.0,-0.55297434,-1.0875657,0.37801316
alexnet_w1_mlp_simclrhn_probe1,1,619,NaN,truck,chair,0,0619_lp_dnn_0_chair_10_n04429376_7888.png,n04429376_7888.png,0.0,-3.7641208,0.264764,-2.848852
alexnet_w1_mlp_simclrhn_probe1,1,620,NaN,keyboard,chair,5,0620_lp_dnn_5_chair_10_n03376595_899.png,n03376595_899.png,0.0,-2.4147131,-0.4407736,-1.395786
alexnet_w1_mlp_simclrhn_probe1,1,621,NaN,keyboard,bicycle,5,0621_lp_dnn_5_bicycle_10_n02835271_24207.png,n02835271_24207.png,0.0,-2.7274997,0.23613055,-2.095603
alexnet_w1_mlp_simclrhn_probe1,1,622,NaN,oven,oven,3,0622_lp_dnn_3_oven_10_n04111531_7329.png,n04111531_7329.png,1.0,1.0495821,0.35184345,0.49337575
alexnet_w1_mlp_simclrhn_probe1,1,623,NaN,keyboard,oven,5,0623_lp_dnn_5_oven_10_n04111531_12942.png,n04111531_12942.png,0.0,-2.253283,-0.6749709,-1.1160352
alexnet_w1_mlp_simclrhn_probe1,1,624,NaN,bird,bear,15,0624_lp_dnn_15_bear_10_n02134418_1978.png,n02134418_1978.png,0.0,-2.7710009,-0.96400726,-1.2777375
alexnet_w1_mlp_simclrhn_probe1,1,625,NaN,clock,cat,40,0625_lp_dnn_40_cat_10_n02123159_5872.png,n02123159_5872.png,0.0,-1.599246,-0.21335964,-0.9799697
alexnet_w1_mlp_simclrhn_probe1,1,626,NaN,bottle,keyboard,15,0626_lp_dnn_15_keyboard_10_n03085013_18797.png,n03085013_18797.png,0.0,-1.1243432,-0.9259351,-0.1402957
alexnet_w1_mlp_simclrhn_probe1,1,627,NaN,knife,airplane,15,0627_lp_dnn_15_airplane_10_n02690373_5496.png,n02690373_5496.png,0.0,-1.4505408,-0.6768466,-0.5470844
alexnet_w1_mlp_simclrhn_probe1,1,628,NaN,keyboard,oven,15,0628_lp_dnn_15_oven_10_n04111531_21963.png,n04111531_21963.png,0.0,-2.1216717,-0.9210987,-0.8489333
alexnet_w1_mlp_simclrhn_probe1,1,629,NaN,bottle,bottle,0,0629_lp_dnn_0_bottle_10_n02823428_2918.png,n02823428_2918.png,1.0,7.3578863,-3.4420164,7.636685
alexnet_w1_mlp_simclrhn_probe1,1,630,NaN,bird,keyboard,10,0630_lp_dnn_10_keyboard_10_n04505470_9570.png,n04505470_9570.png,0.0,-1.2424682,-0.57468545,-0.47219375
alexnet_w1_mlp_simclrhn_probe1,1,631,NaN,bird,bird,1,0631_lp_dnn_1_bird_10_n02002556_5977.png,n02002556_5977.png,1.0,0.85151184,-3.6262212,3.1662354
alexnet_w1_mlp_simclrhn_probe1,1,632,NaN,clock,airplane,40,0632_lp_dnn_40_airplane_10_n02690373_5961.png,n02690373_5961.png,0.0,-1.417914,-0.50286335,-0.6470386
alexnet_w1_mlp_simclrhn_probe1,1,633,NaN,clock,clock,3,0633_lp_dnn_3_clock_10_n04548280_5765.png,n04548280_5765.png,1.0,0.11672159,-0.30938476,0.3013027
alexnet_w1_mlp_simclrhn_probe1,1,634,NaN,bird,cat,15,0634_lp_dnn_15_cat_10_n02123597_11940.png,n02123597_11940.png,0.0,-2.7320855,-0.94518805,-1.2635273
alexnet_w1_mlp_simclrhn_probe1,1,635,NaN,airplane,airplane,3,0635_lp_dnn_3_airplane_10_n02690373_3993.png,n02690373_3993.png,1.0,0.65176547,-0.11750903,0.5439592
alexnet_w1_mlp_simclrhn_probe1,1,636,NaN,bird,chair,7,0636_lp_dnn_7_chair_10_n04099969_3984.png,n04099969_3984.png,0.0,-3.7960255,-0.6402913,-2.2314413
alexnet_w1_mlp_simclrhn_probe1,1,637,NaN,knife,airplane,3,0637_lp_dnn_3_airplane_10_n02690373_939.png,n02690373_939.png,0.0,-0.5436564,-0.45036474,-0.06596717
alexnet_w1_mlp_simclrhn_probe1,1,638,NaN,car,car,1,0638_lp_dnn_1_car_10_n02814533_48541.png,n02814533_48541.png,1.0,10.910637,8.694555,1.5670063
alexnet_w1_mlp_simclrhn_probe1,1,639,NaN,clock,clock,10,0639_lp_dnn_10_clock_10_n03196217_3986.png,n03196217_3986.png,1.0,-0.5933866,-0.59656316,0.0022461743
alexnet_w1_mlp_simclrhn_probe1,1,640,NaN,bird,clock,7,0640_lp_dnn_7_clock_10_n03196217_3006.png,n03196217_3006.png,0.0,-1.5505396,-0.6370274,-0.6459507
alexnet_w1_mlp_simclrhn_probe1,1,641,NaN,clock,boat,40,0641_lp_dnn_40_boat_10_n03662601_8947.png,n03662601_8947.png,0.0,-1.738241,-0.46811387,-0.89811546
