subj,session,trial,rt,object_response,category,condition,imagename,filename,is_correct,targ_act,max_nontarg_act,decision_margin
alexnet_w3_mlp_simclrhn_probe1,1,1,NaN,clock,chair,40,0001_lp_dnn_40_chair_10_n04099969_7577.png,n04099969_7577.png,0.0,-1.4836297,-0.46227598,-0.7222062
alexnet_w3_mlp_simclrhn_probe1,1,2,NaN,clock,cat,40,0002_lp_dnn_40_cat_10_n02124075_12815.png,n02124075_12815.png,0.0,-1.2433238,-0.44153905,-0.56694746
alexnet_w3_mlp_simclrhn_probe1,1,3,NaN,keyboard,truck,5,0003_lp_dnn_5_truck_10_n04467665_34253.png,n04467665_34253.png,0.0,-2.5750332,-0.16330692,-1.705348
alexnet_w3_mlp_simclrhn_probe1,1,4,NaN,clock,clock,1,0004_lp_dnn_1_clock_10_n04548280_5320.png,n04548280_5320.png,1.0,-0.12133304,-0.7958278,0.47693983
alexnet_w3_mlp_simclrhn_probe1,1,5,NaN,oven,dog,3,0005_lp_dnn_3_dog_10_n02108915_3652.png,n02108915_3652.png,0.0,-1.5813575,-0.5090977,-0.7582022
alexnet_w3_mlp_simclrhn_probe1,1,6,NaN,keyboard,keyboard,7,0006_lp_dnn_7_keyboard_10_n04505470_578.png,n04505470_578.png,1.0,0.7286923,-1.0704956,1.272218
alexnet_w3_mlp_simclrhn_probe1,1,7,NaN,keyboard,cat,7,0007_lp_dnn_7_cat_10_n02123597_3842.png,n02123597_3842.png,0.0,-2.0244944,-0.35716742,-1.1789782
alexnet_w3_mlp_simclrhn_probe1,1,8,NaN,bear,bear,1,0008_lp_dnn_1_bear_10_n02134418_14.png,n02134418_14.png,1.0,6.162898,1.4143548,3.3577273
alexnet_w3_mlp_simclrhn_probe1,1,9,NaN,keyboard,knife,10,0009_lp_dnn_10_knife_10_n03041632_29920.png,n03041632_29920.png,0.0,-1.5243083,-0.7461482,-0.5502423
alexnet_w3_mlp_simclrhn_probe1,1,10,NaN,keyboard,bird,5,0010_lp_dnn_5_bird_10_n01795545_952.png,n01795545_952.png,0.0,-1.2045716,-0.36293855,-0.5951245
alexnet_w3_mlp_simclrhn_probe1,1,11,NaN,elephant,bear,3,0011_lp_dnn_3_bear_10_n02132136_6441.png,n02132136_6441.png,0.0,0.07123143,0.100162484,-0.020457342
alexnet_w3_mlp_simclrhn_probe1,1,12,NaN,bear,bird,3,0012_lp_dnn_3_bird_10_n01829413_8792.png,n01829413_8792.png,0.0,-0.72788745,-0.057619907,-0.4739507
alexnet_w3_mlp_simclrhn_probe1,1,13,NaN,keyboard,keyboard,7,0013_lp_dnn_7_keyboard_10_n04505470_4458.png,n04505470_4458.png,1.0,0.81585896,-0.89491445,1.2096995
alexnet_w3_mlp_simclrhn_probe1,1,14,NaN,keyboard,chair,10,0014_lp_dnn_10_chair_10_n03376595_9176.png,n03376595_9176.png,0.0,-2.6073942,-0.45051432,-1.5251445
alexnet_w3_mlp_simclrhn_probe1,1,15,NaN,clock,clock,40,0015_lp_dnn_40_clock_10_n04548280_7662.png,n04548280_7662.png,1.0,-0.35198912,-0.73975176,0.2741896
alexnet_w3_mlp_simclrhn_probe1,1,16,NaN,clock,keyboard,40,0016_lp_dnn_40_keyboard_10_n03085013_25809.png,n03085013_25809.png,0.0,-1.1859431,-0.38081595,-0.56931084
alexnet_w3_mlp_simclrhn_probe1,1,17,NaN,keyboard,oven,5,0017_lp_dnn_5_oven_10_n04111531_1580.png,n04111531_1580.png,0.0,-1.4894338,-0.7605709,-0.5153839
alexnet_w3_mlp_simclrhn_probe1,1,18,NaN,elephant,elephant,1,0018_lp_dnn_1_elephant_10_n02504458_900.png,n02504458_900.png,1.0,7.129367,-0.10347456,5.1143913
alexnet_w3_mlp_simclrhn_probe1,1,19,NaN,keyboard,dog,7,0019_lp_dnn_7_dog_10_n02106662_2384.png,n02106662_2384.png,0.0,-2.194534,-0.2609452,-1.3672538
alexnet_w3_mlp_simclrhn_probe1,1,20,NaN,keyboard,truck,10,0020_lp_dnn_10_truck_10_n03796401_22618.png,n03796401_22618.png,0.0,-3.5804062,-0.83520633,-1.9411495
alexnet_w3_mlp_simclrhn_probe1,1,21,NaN,bird,elephant,15,0021_lp_dnn_15_elephant_10_n02504013_5463.png,n02504013_5463.png,0.0,-2.6512122,-0.9509705,-1.2022525
alexnet_w3_mlp_simclrhn_probe1,1,22,NaN,keyboard,chair,10,0022_lp_dnn_10_chair_10_n04429376_16459.png,n04429376_16459.png,0.0,-1.9136013,-0.53916293,-0.97187465
alexnet_w3_mlp_simclrhn_probe1,1,23,NaN,cat,cat,1,0023_lp_dnn_1_cat_10_n02123045_12206.png,n02123045_12206.png,1.0,2.284833,-0.45033285,1.9340544
alexnet_w3_mlp_simclrhn_probe1,1,24,NaN,keyboard,truck,7,0024_lp_dnn_7_truck_10_n03417042_2633.png,n03417042_2633.png,0.0,-3.3194869,-0.23313761,-2.1823785
alexnet_w3_mlp_simclrhn_probe1,1,25,NaN,bottle,keyboard,15,0025_lp_dnn_15_keyboard_10_n03085013_24416.png,n03085013_24416.png,0.0,-1.2126207,-1.0359285,-0.12494029
alexnet_w3_mlp_simclrhn_probe1,1,26,NaN,keyboard,car,7,0026_lp_dnn_7_car_10_n02814533_44503.png,n02814533_44503.png,0.0,-2.7294567,-0.18746023,-1.7974629
alexnet_w3_mlp_simclrhn_probe1,1,27,NaN,bird,elephant,5,0027_lp_dnn_5_elephant_10_n02504458_5797.png,n02504458_5797.png,0.0,-1.7017288,-0.9405329,-0.5382468
alexnet_w3_mlp_simclrhn_probe1,1,28,NaN,clock,chair,0,0028_lp_dnn_0_chair_10_n04429376_8237.png,n04429376_8237.png,0.0,-1.3940415,-0.53695536,-0.60605145
alexnet_w3_mlp_simclrhn_probe1,1,29,NaN,keyboard,cat,7,0029_lp_dnn_7_cat_10_n02123159_587.png,n02123159_587.png,0.0,-2.3763769,-0.49575603,-1.3297998
alexnet_w3_mlp_simclrhn_probe1,1,30,NaN,keyboard,bird,10,0030_lp_dnn_10_bird_10_n02028035_17238.png,n02028035_17238.png,0.0,-0.8652147,-0.6590418,-0.14578624
alexnet_w3_mlp_simclrhn_probe1,1,31,NaN,clock,cat,40,0031_lp_dnn_40_cat_10_n02123159_4348.png,n02123159_4348.png,0.0,-1.2471356,-0.48645142,-0.537885
alexnet_w3_mlp_simclrhn_probe1,1,32,NaN,keyboard,boat,5,0032_lp_dnn_5_boat_10_n04273569_22332.png,n04273569_22332.png,0.0,-2.2960134,-0.686842,-1.137856
alexnet_w3_mlp_simclrhn_probe1,1,33,NaN,elephant,elephant,1,0033_lp_dnn_1_elephant_10_n02504013_1244.png,n02504013_1244.png,1.0,9.493855,0.18666026,6.581181
alexnet_w3_mlp_simclrhn_probe1,1,34,NaN,keyboard,bicycle,7,0034_lp_dnn_7_bicycle_10_n03792782_30229.png,n03792782_30229.png,0.0,-2.5745869,-0.6822046,-1.3381164
alexnet_w3_mlp_simclrhn_probe1,1,35,NaN,keyboard,keyboard,10,0035_lp_dnn_10_keyboard_10_n03085013_7573.png,n03085013_7573.png,1.0,-0.35386217,-0.69456124,0.24091063
alexnet_w3_mlp_simclrhn_probe1,1,36,NaN,keyboard,keyboard,3,0036_lp_dnn_3_keyboard_10_n03085013_24578.png,n03085013_24578.png,1.0,1.5046599,0.020741135,1.0492891
alexnet_w3_mlp_simclrhn_probe1,1,37,NaN,bird,truck,15,0037_lp_dnn_15_truck_10_n03417042_1336.png,n03417042_1336.png,0.0,-3.536738,-1.0054592,-1.7898843
alexnet_w3_mlp_simclrhn_probe1,1,38,NaN,keyboard,knife,3,0038_lp_dnn_3_knife_10_n03041632_7495.png,n03041632_7495.png,0.0,-0.7034836,-0.3155498,-0.27431062
alexnet_w3_mlp_simclrhn_probe1,1,39,NaN,car,car,0,0039_lp_dnn_0_car_10_n03100240_9625.png,n03100240_9625.png,1.0,6.356359,4.2066193,1.5200956
alexnet_w3_mlp_simclrhn_probe1,1,40,NaN,keyboard,elephant,10,0040_lp_dnn_10_elephant_10_n02504458_6107.png,n02504458_6107.png,0.0,-2.3371277,-0.6859889,-1.1675315
alexnet_w3_mlp_simclrhn_probe1,1,41,NaN,bicycle,bicycle,0,0041_lp_dnn_0_bicycle_10_n03792782_33649.png,n03792782_33649.png,1.0,7.8347225,-2.632403,7.4013753
alexnet_w3_mlp_simclrhn_probe1,1,42,NaN,clock,clock,1,0042_lp_dnn_1_clock_10_n03196217_8282.png,n03196217_8282.png,1.0,0.99132234,0.3029556,0.4867488
alexnet_w3_mlp_simclrhn_probe1,1,43,NaN,keyboard,keyboard,7,0043_lp_dnn_7_keyboard_10_n03085013_21534.png,n03085013_21534.png,1.0,0.097183675,-0.7183525,0.5766711
alexnet_w3_mlp_simclrhn_probe1,1,44,NaN,bird,elephant,15,0044_lp_dnn_15_elephant_10_n02504013_22813.png,n02504013_22813.png,0.0,-2.3193645,-0.7468125,-1.1119622
alexnet_w3_mlp_simclrhn_probe1,1,45,NaN,keyboard,truck,10,0045_lp_dnn_10_truck_10_n03796401_16425.png,n03796401_16425.png,0.0,-3.5424676,-0.6141207,-2.070654
alexnet_w3_mlp_simclrhn_probe1,1,46,NaN,clock,airplane,15,0046_lp_dnn_15_airplane_10_n02690373_9427.png,n02690373_9427.png,0.0,-1.2805748,-0.9609048,-0.22604084
alexnet_w3_mlp_simclrhn_probe1,1,47,NaN,keyboard,bird,7,0047_lp_dnn_7_bird_10_n02009912_11907.png,n02009912_11907.png,0.0,-1.5164891,-0.48915398,-0.72643566
alexnet_w3_mlp_simclrhn_probe1,1,48,NaN,airplane,airplane,1,0048_lp_dnn_1_airplane_10_n02690373_5773.png,n02690373_5773.png,1.0,10.063055,-2.4242241,8.82984
alexnet_w3_mlp_simclrhn_probe1,1,49,NaN,clock,chair,40,0049_lp_dnn_40_chair_10_n02791124_2972.png,n02791124_2972.png,0.0,-1.8055751,-0.597954,-0.85391706
alexnet_w3_mlp_simclrhn_probe1,1,50,NaN,bird,bird,1,0050_lp_dnn_1_bird_10_n01819313_18188.png,n01819313_18188.png,1.0,-0.5251886,-1.0885886,0.39838395
alexnet_w3_mlp_simclrhn_probe1,1,51,NaN,keyboard,car,5,0051_lp_dnn_5_car_10_n04285008_7428.png,n04285008_7428.png,0.0,-2.5966513,0.1331132,-1.930235
alexnet_w3_mlp_simclrhn_probe1,1,52,NaN,keyboard,bottle,7,0052_lp_dnn_7_bottle_10_n04591713_6923.png,n04591713_6923.png,0.0,-1.1333205,-0.3949863,-0.52208114
alexnet_w3_mlp_simclrhn_probe1,1,53,NaN,knife,knife,0,0053_lp_dnn_0_knife_10_n03041632_22570.png,n03041632_22570.png,1.0,0.7407476,-0.15763378,0.6352516
alexnet_w3_mlp_simclrhn_probe1,1,54,NaN,bear,bear,0,0054_lp_dnn_0_bear_10_n02132136_7586.png,n02132136_7586.png,1.0,2.9996078,0.42483222,1.8206414
alexnet_w3_mlp_simclrhn_probe1,1,55,NaN,keyboard,clock,5,0055_lp_dnn_5_clock_10_n04548280_9144.png,n04548280_9144.png,0.0,-0.3986969,0.09038418,-0.34583256
alexnet_w3_mlp_simclrhn_probe1,1,56,NaN,oven,bottle,0,0056_lp_dnn_0_bottle_10_n04591713_2680.png,n04591713_2680.png,0.0,-2.6518524,-0.7782523,-1.3248353
alexnet_w3_mlp_simclrhn_probe1,1,57,NaN,cat,cat,3,0057_lp_dnn_3_cat_10_n02123045_1596.png,n02123045_1596.png,1.0,-0.5761867,-0.578585,0.0016958627
alexnet_w3_mlp_simclrhn_probe1,1,58,NaN,keyboard,cat,10,0058_lp_dnn_10_cat_10_n02123597_19450.png,n02123597_19450.png,0.0,-2.3787663,-0.59632766,-1.2603744
alexnet_w3_mlp_simclrhn_probe1,1,59,NaN,clock,chair,15,0059_lp_dnn_15_chair_10_n03376595_3462.png,n03376595_3462.png,0.0,-1.498613,-0.53666717,-0.68019843
alexnet_w3_mlp_simclrhn_probe1,1,60,NaN,bottle,bottle,3,0060_lp_dnn_3_bottle_10_n04591713_3683.png,n04591713_3683.png,1.0,0.28015637,0.07668725,0.1438744
alexnet_w3_mlp_simclrhn_probe1,1,61,NaN,keyboard,clock,7,0061_lp_dnn_7_clock_10_n03196217_4309.png,n03196217_4309.png,0.0,-0.54020065,0.057916284,-0.42293254
alexnet_w3_mlp_simclrhn_probe1,1,62,NaN,keyboard,bear,15,0062_lp_dnn_15_bear_10_n02134084_4923.png,n02134084_4923.png,0.0,-2.6846595,-0.9255558,-1.2438742
alexnet_w3_mlp_simclrhn_probe1,1,63,NaN,oven,chair,1,0063_lp_dnn_1_chair_10_n04429376_5238.png,n04429376_5238.png,0.0,-1.2238125,0.7867493,-1.4216819
alexnet_w3_mlp_simclrhn_probe1,1,64,NaN,truck,clock,0,0064_lp_dnn_0_clock_10_n03196217_2414.png,n03196217_2414.png,0.0,-3.6894543,-1.8673129,-1.2884486
alexnet_w3_mlp_simclrhn_probe1,1,65,NaN,bird,bird,3,0065_lp_dnn_3_bird_10_n01797886_2711.png,n01797886_2711.png,1.0,-0.40315142,-0.7295143,0.2307734
alexnet_w3_mlp_simclrhn_probe1,1,66,NaN,bird,truck,15,0066_lp_dnn_15_truck_10_n04467665_68463.png,n04467665_68463.png,0.0,-2.5218627,-0.84754467,-1.1839217
alexnet_w3_mlp_simclrhn_probe1,1,67,NaN,truck,truck,0,0067_lp_dnn_0_truck_10_n03417042_10099.png,n03417042_10099.png,1.0,7.198312,2.4365265,3.367091
alexnet_w3_mlp_simclrhn_probe1,1,68,NaN,keyboard,bear,10,0068_lp_dnn_10_bear_10_n02134418_3793.png,n02134418_3793.png,0.0,-2.3951411,-0.8285747,-1.1077298
alexnet_w3_mlp_simclrhn_probe1,1,69,NaN,keyboard,bottle,10,0069_lp_dnn_10_bottle_10_n03937543_9524.png,n03937543_9524.png,0.0,-1.1187096,-0.67570305,-0.31325293
alexnet_w3_mlp_simclrhn_probe1,1,70,NaN,cat,cat,3,0070_lp_dnn_3_cat_10_n02123394_1038.png,n02123394_1038.png,1.0,-0.63238436,-0.71831083,0.060759194
alexnet_w3_mlp_simclrhn_probe1,1,71,NaN,keyboard,dog,5,0071_lp_dnn_5_dog_10_n02110185_7886.png,n02110185_7886.png,0.0,-2.3890429,-0.4927001,-1.3409169
alexnet_w3_mlp_simclrhn_probe1,1,72,NaN,clock,clock,3,0072_lp_dnn_3_clock_10_n02708093_4912.png,n02708093_4912.png,1.0,0.957341,-0.023191888,0.69334143
alexnet_w3_mlp_simclrhn_probe1,1,73,NaN,bird,dog,15,0073_lp_dnn_15_dog_10_n02108422_932.png,n02108422_932.png,0.0,-2.4307218,-0.8520852,-1.1162647
alexnet_w3_mlp_simclrhn_probe1,1,74,NaN,truck,truck,0,0074_lp_dnn_0_truck_10_n04467665_18621.png,n04467665_18621.png,1.0,8.162858,1.3837241,4.7935715
alexnet_w3_mlp_simclrhn_probe1,1,75,NaN,truck,truck,1,0075_lp_dnn_1_truck_10_n04467665_50932.png,n04467665_50932.png,1.0,3.1928544,2.746873,0.31535655
alexnet_w3_mlp_simclrhn_probe1,1,76,NaN,dog,dog,1,0076_lp_dnn_1_dog_10_n02102480_7293.png,n02102480_7293.png,1.0,0.46017522,-2.6892796,2.227001
alexnet_w3_mlp_simclrhn_probe1,1,77,NaN,knife,bottle,1,0077_lp_dnn_1_bottle_10_n04591713_4764.png,n04591713_4764.png,0.0,-1.5613899,-0.8426982,-0.50819176
alexnet_w3_mlp_simclrhn_probe1,1,78,NaN,bird,clock,15,0078_lp_dnn_15_clock_10_n02708093_274.png,n02708093_274.png,0.0,-1.1973747,-1.0386894,-0.11220747
alexnet_w3_mlp_simclrhn_probe1,1,79,NaN,keyboard,bottle,5,0079_lp_dnn_5_bottle_10_n04557648_29772.png,n04557648_29772.png,0.0,-1.257251,-0.6676815,-0.4168886
alexnet_w3_mlp_simclrhn_probe1,1,80,NaN,bottle,car,15,0080_lp_dnn_15_car_10_n03100240_22499.png,n03100240_22499.png,0.0,-3.0385075,-1.1265888,-1.3519306
alexnet_w3_mlp_simclrhn_probe1,1,81,NaN,clock,clock,3,0081_lp_dnn_3_clock_10_n02708093_6252.png,n02708093_6252.png,1.0,3.8209581,-0.59885615,3.1252806
alexnet_w3_mlp_simclrhn_probe1,1,82,NaN,keyboard,airplane,10,0082_lp_dnn_10_airplane_10_n02690373_5427.png,n02690373_5427.png,0.0,-2.276815,-0.91942656,-0.95981854
alexnet_w3_mlp_simclrhn_probe1,1,83,NaN,keyboard,dog,15,0083_lp_dnn_15_dog_10_n02107142_46045.png,n02107142_46045.png,0.0,-2.4831226,-0.94568396,-1.0871333
alexnet_w3_mlp_simclrhn_probe1,1,84,NaN,clock,keyboard,40,0084_lp_dnn_40_keyboard_10_n03085013_23793.png,n03085013_23793.png,0.0,-1.267588,-0.5379161,-0.5159559
alexnet_w3_mlp_simclrhn_probe1,1,85,NaN,clock,bicycle,3,0085_lp_dnn_3_bicycle_10_n03792782_12421.png,n03792782_12421.png,0.0,-1.1656355,0.035288054,-0.84918123
alexnet_w3_mlp_simclrhn_probe1,1,86,NaN,airplane,airplane,0,0086_lp_dnn_0_airplane_10_n02690373_1310.png,n02690373_1310.png,1.0,8.7733135,3.7002404,3.5872047
alexnet_w3_mlp_simclrhn_probe1,1,87,NaN,bottle,oven,15,0087_lp_dnn_15_oven_10_n04111531_8793.png,n04111531_8793.png,0.0,-1.954176,-0.52605164,-1.0098364
alexnet_w3_mlp_simclrhn_probe1,1,88,NaN,keyboard,airplane,5,0088_lp_dnn_5_airplane_10_n02690373_633.png,n02690373_633.png,0.0,-1.1519265,-0.49108678,-0.46728426
alexnet_w3_mlp_simclrhn_probe1,1,89,NaN,keyboard,clock,5,0089_lp_dnn_5_clock_10_n02708093_2307.png,n02708093_2307.png,0.0,-1.106664,-0.60137737,-0.35729158
alexnet_w3_mlp_simclrhn_probe1,1,90,NaN,keyboard,oven,10,0090_lp_dnn_10_oven_10_n04111531_13795.png,n04111531_13795.png,0.0,-2.1878572,-0.9617845,-0.86696434
alexnet_w3_mlp_simclrhn_probe1,1,91,NaN,oven,boat,3,0091_lp_dnn_3_boat_10_n03662601_1427.png,n03662601_1427.png,0.0,-1.4318031,0.34402338,-1.2556989
alexnet_w3_mlp_simclrhn_probe1,1,92,NaN,keyboard,boat,5,0092_lp_dnn_5_boat_10_n04612504_15944.png,n04612504_15944.png,0.0,-2.6319537,-0.4090947,-1.5717987
alexnet_w3_mlp_simclrhn_probe1,1,93,NaN,clock,airplane,40,0093_lp_dnn_40_airplane_10_n02690373_3561.png,n02690373_3561.png,0.0,-1.2272146,-0.5627453,-0.46985075
alexnet_w3_mlp_simclrhn_probe1,1,94,NaN,keyboard,elephant,7,0094_lp_dnn_7_elephant_10_n02504458_1848.png,n02504458_1848.png,0.0,-1.9368582,-0.5380818,-0.98908424
alexnet_w3_mlp_simclrhn_probe1,1,95,NaN,keyboard,oven,5,0095_lp_dnn_5_oven_10_n04111531_4155.png,n04111531_4155.png,0.0,-1.5814008,-0.25668287,-0.93671703
alexnet_w3_mlp_simclrhn_probe1,1,96,NaN,car,car,0,0096_lp_dnn_0_car_10_n03100240_8327.png,n03100240_8327.png,1.0,8.855747,8.412819,0.3131976
alexnet_w3_mlp_simclrhn_probe1,1,97,NaN,chair,chair,0,0097_lp_dnn_0_chair_10_n04429376_24319.png,n04429376_24319.png,1.0,-0.19016922,-0.5288328,0.23947132
alexnet_w3_mlp_simclrhn_probe1,1,98,NaN,keyboard,chair,3,0098_lp_dnn_3_chair_10_n03376595_5112.png,n03376595_5112.png,0.0,-0.60939634,-0.4385045,-0.12083879
alexnet_w3_mlp_simclrhn_probe1,1,99,NaN,oven,cat,1,0099_lp_dnn_1_cat_10_n02124075_2268.png,n02124075_2268.png,0.0,-0.41923213,-0.0903662,-0.23254335
alexnet_w3_mlp_simclrhn_probe1,1,100,NaN,knife,boat,3,0100_lp_dnn_3_boat_10_n04273569_1137.png,n04273569_1137.png,0.0,-1.6162691,-0.720636,-0.63330823
alexnet_w3_mlp_simclrhn_probe1,1,101,NaN,chair,chair,1,0101_lp_dnn_1_chair_10_n02791124_15383.png,n02791124_15383.png,1.0,3.0753927,0.19687828,2.035417
alexnet_w3_mlp_simclrhn_probe1,1,102,NaN,bottle,clock,15,0102_lp_dnn_15_clock_10_n04548280_8998.png,n04548280_8998.png,0.0,-0.69261247,-0.6779029,-0.010401253
alexnet_w3_mlp_simclrhn_probe1,1,103,NaN,bear,dog,0,0103_lp_dnn_0_dog_10_n02097047_2800.png,n02097047_2800.png,0.0,-0.5520493,1.0387263,-1.1248482
alexnet_w3_mlp_simclrhn_probe1,1,104,NaN,bird,bicycle,15,0104_lp_dnn_15_bicycle_10_n03792782_18294.png,n03792782_18294.png,0.0,-2.2870502,-0.905456,-0.9769346
alexnet_w3_mlp_simclrhn_probe1,1,105,NaN,elephant,elephant,0,0105_lp_dnn_0_elephant_10_n02504013_24486.png,n02504013_24486.png,1.0,3.4216733,-1.9457853,3.7953663
alexnet_w3_mlp_simclrhn_probe1,1,106,NaN,keyboard,airplane,7,0106_lp_dnn_7_airplane_10_n02690373_2923.png,n02690373_2923.png,0.0,-1.6949929,-0.6406921,-0.74550325
alexnet_w3_mlp_simclrhn_probe1,1,107,NaN,airplane,airplane,3,0107_lp_dnn_3_airplane_10_n02690373_15392.png,n02690373_15392.png,1.0,-0.2538631,-0.56602424,0.22073127
alexnet_w3_mlp_simclrhn_probe1,1,108,NaN,keyboard,oven,5,0108_lp_dnn_5_oven_10_n04111531_6080.png,n04111531_6080.png,0.0,-1.2769666,-0.20476812,-0.75815874
alexnet_w3_mlp_simclrhn_probe1,1,109,NaN,bottle,bear,15,0109_lp_dnn_15_bear_10_n02134084_22736.png,n02134084_22736.png,0.0,-2.6665328,-0.93887943,-1.2216353
alexnet_w3_mlp_simclrhn_probe1,1,110,NaN,knife,knife,1,0110_lp_dnn_1_knife_10_n03041632_33326.png,n03041632_33326.png,1.0,-0.2315213,-2.0649974,1.2964635
alexnet_w3_mlp_simclrhn_probe1,1,111,NaN,clock,truck,40,0111_lp_dnn_40_truck_10_n04467665_66876.png,n04467665_66876.png,0.0,-2.5590513,-0.6021747,-1.3837206
alexnet_w3_mlp_simclrhn_probe1,1,112,NaN,clock,truck,40,0112_lp_dnn_40_truck_10_n03796401_10234.png,n03796401_10234.png,0.0,-2.3711634,-0.4979552,-1.3245583
alexnet_w3_mlp_simclrhn_probe1,1,113,NaN,keyboard,bicycle,7,0113_lp_dnn_7_bicycle_10_n03792782_5416.png,n03792782_5416.png,0.0,-2.270751,-0.7318932,-1.0881368
alexnet_w3_mlp_simclrhn_probe1,1,114,NaN,keyboard,knife,7,0114_lp_dnn_7_knife_10_n03041632_25772.png,n03041632_25772.png,0.0,-1.0753089,-0.50536877,-0.40300855
alexnet_w3_mlp_simclrhn_probe1,1,115,NaN,keyboard,bicycle,10,0115_lp_dnn_10_bicycle_10_n03792782_7108.png,n03792782_7108.png,0.0,-2.5976849,-0.77941114,-1.2857138
alexnet_w3_mlp_simclrhn_probe1,1,116,NaN,chair,chair,0,0116_lp_dnn_0_chair_10_n03376595_1981.png,n03376595_1981.png,1.0,2.1106842,-0.667707,1.9646193
alexnet_w3_mlp_simclrhn_probe1,1,117,NaN,keyboard,oven,15,0117_lp_dnn_15_oven_10_n04111531_6508.png,n04111531_6508.png,0.0,-1.8823321,-0.712711,-0.82704705
alexnet_w3_mlp_simclrhn_probe1,1,118,NaN,keyboard,bird,15,0118_lp_dnn_15_bird_10_n01843383_2843.png,n01843383_2843.png,0.0,-1.0573303,-1.0517406,-0.0039524473
alexnet_w3_mlp_simclrhn_probe1,1,119,NaN,bird,cat,5,0119_lp_dnn_5_cat_10_n02123597_5887.png,n02123597_5887.png,0.0,-2.464914,-1.0774418,-0.9810911
alexnet_w3_mlp_simclrhn_probe1,1,120,NaN,clock,clock,40,0120_lp_dnn_40_clock_10_n04548280_9801.png,n04548280_9801.png,1.0,-0.44121203,-0.62380725,0.12911433
alexnet_w3_mlp_simclrhn_probe1,1,121,NaN,bird,bird,1,0121_lp_dnn_1_bird_10_n01530575_10332.png,n01530575_10332.png,1.0,1.7577754,-3.0438097,3.3952334
alexnet_w3_mlp_simclrhn_probe1,1,122,NaN,bird,elephant,15,0122_lp_dnn_15_elephant_10_n02504013_5887.png,n02504013_5887.png,0.0,-2.3609974,-0.8589026,-1.0621415
alexnet_w3_mlp_simclrhn_probe1,1,123,NaN,cat,cat,3,0123_lp_dnn_3_cat_10_n02124075_8693.png,n02124075_8693.png,1.0,-0.50568706,-0.56341577,0.04082036
alexnet_w3_mlp_simclrhn_probe1,1,124,NaN,clock,boat,15,0124_lp_dnn_15_boat_10_n04612504_26151.png,n04612504_26151.png,0.0,-2.838551,-0.8087594,-1.4352794
alexnet_w3_mlp_simclrhn_probe1,1,125,NaN,keyboard,cat,7,0125_lp_dnn_7_cat_10_n02125311_53412.png,n02125311_53412.png,0.0,-2.1781046,-0.13270745,-1.4463143
alexnet_w3_mlp_simclrhn_probe1,1,126,NaN,keyboard,knife,7,0126_lp_dnn_7_knife_10_n03041632_46914.png,n03041632_46914.png,0.0,-0.8197524,-0.4570596,-0.25646254
alexnet_w3_mlp_simclrhn_probe1,1,127,NaN,keyboard,bicycle,15,0127_lp_dnn_15_bicycle_10_n03792782_5629.png,n03792782_5629.png,0.0,-2.87597,-0.8867947,-1.4065593
alexnet_w3_mlp_simclrhn_probe1,1,128,NaN,clock,bottle,40,0128_lp_dnn_40_bottle_10_n02823428_79.png,n02823428_79.png,0.0,-0.7114807,-0.5065624,-0.1448991
alexnet_w3_mlp_simclrhn_probe1,1,129,NaN,dog,dog,3,0129_lp_dnn_3_dog_10_n02101006_5024.png,n02101006_5024.png,1.0,-0.39340302,-0.63383436,0.17001063
alexnet_w3_mlp_simclrhn_probe1,1,130,NaN,keyboard,oven,15,0130_lp_dnn_15_oven_10_n04111531_2350.png,n04111531_2350.png,0.0,-2.474853,-0.90713954,-1.1085409
alexnet_w3_mlp_simclrhn_probe1,1,131,NaN,keyboard,airplane,7,0131_lp_dnn_7_airplane_10_n02690373_4839.png,n02690373_4839.png,0.0,-1.4462941,-0.40228465,-0.7382262
alexnet_w3_mlp_simclrhn_probe1,1,132,NaN,keyboard,car,5,0132_lp_dnn_5_car_10_n03100240_2075.png,n03100240_2075.png,0.0,-2.228915,0.04562804,-1.6083448
alexnet_w3_mlp_simclrhn_probe1,1,133,NaN,keyboard,cat,5,0133_lp_dnn_5_cat_10_n02123159_3729.png,n02123159_3729.png,0.0,-2.123429,-0.22713718,-1.3408809
alexnet_w3_mlp_simclrhn_probe1,1,134,NaN,keyboard,knife,10,0134_lp_dnn_10_knife_10_n03041632_3079.png,n03041632_3079.png,0.0,-1.3708874,-0.40310687,-0.6843242
alexnet_w3_mlp_simclrhn_probe1,1,135,NaN,keyboard,elephant,15,0135_lp_dnn_15_elephant_10_n02504013_2052.png,n02504013_2052.png,0.0,-2.424693,-0.85765123,-1.108066
alexnet_w3_mlp_simclrhn_probe1,1,136,NaN,clock,cat,40,0136_lp_dnn_40_cat_10_n02123159_3724.png,n02123159_3724.png,0.0,-1.3665234,-0.45777282,-0.64258367
alexnet_w3_mlp_simclrhn_probe1,1,137,NaN,clock,keyboard,15,0137_lp_dnn_15_keyboard_10_n03085013_7955.png,n03085013_7955.png,0.0,-0.826593,-0.6309014,-0.13837485
alexnet_w3_mlp_simclrhn_probe1,1,138,NaN,clock,bird,40,0138_lp_dnn_40_bird_10_n02056570_9872.png,n02056570_9872.png,0.0,-1.3424994,-0.4479176,-0.63256484
alexnet_w3_mlp_simclrhn_probe1,1,139,NaN,bird,cat,10,0139_lp_dnn_10_cat_10_n02125311_44401.png,n02125311_44401.png,0.0,-1.8873309,-0.73075765,-0.81782085
alexnet_w3_mlp_simclrhn_probe1,1,140,NaN,keyboard,airplane,10,0140_lp_dnn_10_airplane_10_n02690373_10657.png,n02690373_10657.png,0.0,-1.0551472,-0.58453083,-0.332776
alexnet_w3_mlp_simclrhn_probe1,1,141,NaN,bird,bird,5,0141_lp_dnn_5_bird_10_n02025239_7919.png,n02025239_7919.png,1.0,-0.56279165,-1.4462986,0.62473375
alexnet_w3_mlp_simclrhn_probe1,1,142,NaN,clock,bear,40,0142_lp_dnn_40_bear_10_n02134084_23165.png,n02134084_23165.png,0.0,-2.489204,-0.45997158,-1.434884
alexnet_w3_mlp_simclrhn_probe1,1,143,NaN,clock,knife,40,0143_lp_dnn_40_knife_10_n03041632_28658.png,n03041632_28658.png,0.0,-0.7225089,-0.29842862,-0.29987004
alexnet_w3_mlp_simclrhn_probe1,1,144,NaN,keyboard,keyboard,5,0144_lp_dnn_5_keyboard_10_n04505470_4371.png,n04505470_4371.png,1.0,-0.026710268,-0.69493085,0.4725033
alexnet_w3_mlp_simclrhn_probe1,1,145,NaN,keyboard,keyboard,0,0145_lp_dnn_0_keyboard_10_n03085013_14237.png,n03085013_14237.png,1.0,3.2005534,1.2669872,1.3672378
alexnet_w3_mlp_simclrhn_probe1,1,146,NaN,bottle,clock,0,0146_lp_dnn_0_clock_10_n03196217_6163.png,n03196217_6163.png,0.0,-1.2519609,-1.0924146,-0.112816244
alexnet_w3_mlp_simclrhn_probe1,1,147,NaN,keyboard,chair,15,0147_lp_dnn_15_chair_10_n02791124_3857.png,n02791124_3857.png,0.0,-2.505294,-0.8339805,-1.1817971
alexnet_w3_mlp_simclrhn_probe1,1,148,NaN,clock,truck,40,0148_lp_dnn_40_truck_10_n03417042_20650.png,n03417042_20650.png,0.0,-2.9122663,-0.6079333,-1.6294096
alexnet_w3_mlp_simclrhn_probe1,1,149,NaN,truck,truck,0,0149_lp_dnn_0_truck_10_n04467665_17101.png,n04467665_17101.png,1.0,10.489714,5.3449054,3.637929
alexnet_w3_mlp_simclrhn_probe1,1,150,NaN,chair,chair,1,0150_lp_dnn_1_chair_10_n04429376_19354.png,n04429376_19354.png,1.0,-1.8115199,-1.8598248,0.034156732
alexnet_w3_mlp_simclrhn_probe1,1,151,NaN,knife,knife,0,0151_lp_dnn_0_knife_10_n03041632_42156.png,n03041632_42156.png,1.0,4.0348024,-1.9721653,4.2475677
alexnet_w3_mlp_simclrhn_probe1,1,152,NaN,car,car,1,0152_lp_dnn_1_car_10_n04285008_39.png,n04285008_39.png,1.0,6.766365,3.442556,2.350288
alexnet_w3_mlp_simclrhn_probe1,1,153,NaN,boat,boat,1,0153_lp_dnn_1_boat_10_n03662601_1319.png,n03662601_1319.png,1.0,4.0953207,0.10626122,2.820691
alexnet_w3_mlp_simclrhn_probe1,1,154,NaN,keyboard,truck,7,0154_lp_dnn_7_truck_10_n03796401_4119.png,n03796401_4119.png,0.0,-3.1753755,-0.6311888,-1.7990116
alexnet_w3_mlp_simclrhn_probe1,1,155,NaN,clock,bottle,15,0155_lp_dnn_15_bottle_10_n03937543_2333.png,n03937543_2333.png,0.0,-0.82908726,-0.69789267,-0.09276859
alexnet_w3_mlp_simclrhn_probe1,1,156,NaN,bottle,bottle,3,0156_lp_dnn_3_bottle_10_n04591713_7134.png,n04591713_7134.png,1.0,0.05964125,-0.5071798,0.400803
alexnet_w3_mlp_simclrhn_probe1,1,157,NaN,dog,dog,0,0157_lp_dnn_0_dog_10_n02107312_3673.png,n02107312_3673.png,1.0,-1.3772216,-2.619164,0.8781859
alexnet_w3_mlp_simclrhn_probe1,1,158,NaN,oven,oven,3,0158_lp_dnn_3_oven_10_n04111531_8373.png,n04111531_8373.png,1.0,-0.098644584,-0.43070248,0.2348004
alexnet_w3_mlp_simclrhn_probe1,1,159,NaN,oven,car,3,0159_lp_dnn_3_car_10_n03100240_13707.png,n03100240_13707.png,0.0,-0.0549465,-0.023746453,-0.022061765
alexnet_w3_mlp_simclrhn_probe1,1,160,NaN,chair,chair,1,0160_lp_dnn_1_chair_10_n02791124_241.png,n02791124_241.png,1.0,0.73595786,0.33689395,0.28218082
alexnet_w3_mlp_simclrhn_probe1,1,161,NaN,keyboard,airplane,7,0161_lp_dnn_7_airplane_10_n02690373_5628.png,n02690373_5628.png,0.0,-2.002594,-0.5884272,-0.999967
alexnet_w3_mlp_simclrhn_probe1,1,162,NaN,clock,boat,40,0162_lp_dnn_40_boat_10_n02951358_1461.png,n02951358_1461.png,0.0,-2.2603335,-0.61006796,-1.166914
alexnet_w3_mlp_simclrhn_probe1,1,163,NaN,keyboard,keyboard,7,0163_lp_dnn_7_keyboard_10_n04505470_4501.png,n04505470_4501.png,1.0,0.5549396,-0.7980764,0.9567268
alexnet_w3_mlp_simclrhn_probe1,1,164,NaN,bird,bird,1,0164_lp_dnn_1_bird_10_n02033041_11415.png,n02033041_11415.png,1.0,0.8226102,-3.9291458,3.3599992
alexnet_w3_mlp_simclrhn_probe1,1,165,NaN,oven,knife,1,0165_lp_dnn_1_knife_10_n03041632_6446.png,n03041632_6446.png,0.0,0.27316523,0.50143594,-0.16141176
alexnet_w3_mlp_simclrhn_probe1,1,166,NaN,bird,bird,0,0166_lp_dnn_0_bird_10_n02011460_3892.png,n02011460_3892.png,1.0,0.38330588,-5.22754,3.9674673
alexnet_w3_mlp_simclrhn_probe1,1,167,NaN,bear,cat,1,0167_lp_dnn_1_cat_10_n02125311_3174.png,n02125311_3174.png,0.0,-1.2025598,-0.72434694,-0.33814758
alexnet_w3_mlp_simclrhn_probe1,1,168,NaN,keyboard,dog,10,0168_lp_dnn_10_dog_10_n02088364_7448.png,n02088364_7448.png,0.0,-2.3996964,-0.6345032,-1.2481802
alexnet_w3_mlp_simclrhn_probe1,1,169,NaN,cat,cat,1,0169_lp_dnn_1_cat_10_n02123394_4299.png,n02123394_4299.png,1.0,1.0446155,-0.27840436,0.93551636
alexnet_w3_mlp_simclrhn_probe1,1,170,NaN,keyboard,keyboard,15,0170_lp_dnn_15_keyboard_10_n03085013_23731.png,n03085013_23731.png,1.0,-0.96302545,-1.0010568,0.026892219
alexnet_w3_mlp_simclrhn_probe1,1,171,NaN,keyboard,knife,5,0171_lp_dnn_5_knife_10_n03041632_29285.png,n03041632_29285.png,0.0,-1.3790197,-0.41285288,-0.68318313
alexnet_w3_mlp_simclrhn_probe1,1,172,NaN,keyboard,keyboard,0,0172_lp_dnn_0_keyboard_10_n03085013_12164.png,n03085013_12164.png,1.0,10.909584,-0.12570429,7.803127
alexnet_w3_mlp_simclrhn_probe1,1,173,NaN,keyboard,bird,5,0173_lp_dnn_5_bird_10_n01582220_9023.png,n01582220_9023.png,0.0,-1.8755041,-0.108854756,-1.2492098
alexnet_w3_mlp_simclrhn_probe1,1,174,NaN,keyboard,bottle,3,0174_lp_dnn_3_bottle_10_n03983396_12728.png,n03983396_12728.png,0.0,-0.78921443,-0.19036427,-0.423451
alexnet_w3_mlp_simclrhn_probe1,1,175,NaN,keyboard,dog,7,0175_lp_dnn_7_dog_10_n02111277_50807.png,n02111277_50807.png,0.0,-2.4489002,-0.5324278,-1.3551507
alexnet_w3_mlp_simclrhn_probe1,1,176,NaN,keyboard,boat,5,0176_lp_dnn_5_boat_10_n04273569_2037.png,n04273569_2037.png,0.0,-2.163875,-0.42521334,-1.2294196
alexnet_w3_mlp_simclrhn_probe1,1,177,NaN,clock,keyboard,40,0177_lp_dnn_40_keyboard_10_n04505470_4672.png,n04505470_4672.png,0.0,-0.86559576,-0.37049532,-0.3500889
alexnet_w3_mlp_simclrhn_probe1,1,178,NaN,keyboard,boat,10,0178_lp_dnn_10_boat_10_n03662601_12034.png,n03662601_12034.png,0.0,-2.8574147,-0.84585226,-1.4223894
alexnet_w3_mlp_simclrhn_probe1,1,179,NaN,keyboard,airplane,15,0179_lp_dnn_15_airplane_10_n02690373_5845.png,n02690373_5845.png,0.0,-1.8236833,-0.8457185,-0.6915255
alexnet_w3_mlp_simclrhn_probe1,1,180,NaN,keyboard,truck,5,0180_lp_dnn_5_truck_10_n03417042_12128.png,n03417042_12128.png,0.0,-2.437139,-0.33318016,-1.4877236
alexnet_w3_mlp_simclrhn_probe1,1,181,NaN,keyboard,keyboard,10,0181_lp_dnn_10_keyboard_10_n03085013_2432.png,n03085013_2432.png,1.0,-0.2557833,-0.69029415,0.30724558
alexnet_w3_mlp_simclrhn_probe1,1,182,NaN,keyboard,chair,5,0182_lp_dnn_5_chair_10_n03376595_9692.png,n03376595_9692.png,0.0,-1.1224113,-0.07696009,-0.7392456
alexnet_w3_mlp_simclrhn_probe1,1,183,NaN,elephant,chair,3,0183_lp_dnn_3_chair_10_n03376595_12583.png,n03376595_12583.png,0.0,-1.5860411,-0.3332377,-0.88586575
alexnet_w3_mlp_simclrhn_probe1,1,184,NaN,bear,bear,0,0184_lp_dnn_0_bear_10_n02133161_2135.png,n02133161_2135.png,1.0,-2.072727,-2.3394322,0.18858911
alexnet_w3_mlp_simclrhn_probe1,1,185,NaN,keyboard,airplane,10,0185_lp_dnn_10_airplane_10_n02690373_5176.png,n02690373_5176.png,0.0,-1.397105,-0.8093327,-0.41561776
alexnet_w3_mlp_simclrhn_probe1,1,186,NaN,elephant,elephant,0,0186_lp_dnn_0_elephant_10_n02504013_10990.png,n02504013_10990.png,1.0,0.16422123,-2.2362309,1.697376
alexnet_w3_mlp_simclrhn_probe1,1,187,NaN,keyboard,boat,10,0187_lp_dnn_10_boat_10_n02951358_3155.png,n02951358_3155.png,0.0,-2.6931593,-0.8838205,-1.2793958
alexnet_w3_mlp_simclrhn_probe1,1,188,NaN,knife,knife,1,0188_lp_dnn_1_knife_10_n03041632_2644.png,n03041632_2644.png,1.0,1.2283864,-1.3157231,1.798957
alexnet_w3_mlp_simclrhn_probe1,1,189,NaN,keyboard,airplane,5,0189_lp_dnn_5_airplane_10_n02690373_5184.png,n02690373_5184.png,0.0,-1.818901,-0.21545397,-1.1338083
alexnet_w3_mlp_simclrhn_probe1,1,190,NaN,knife,chair,0,0190_lp_dnn_0_chair_10_n04099969_16161.png,n04099969_16161.png,0.0,-4.6966505,-3.8290162,-0.61351013
alexnet_w3_mlp_simclrhn_probe1,1,191,NaN,keyboard,boat,10,0191_lp_dnn_10_boat_10_n03344393_5343.png,n03344393_5343.png,0.0,-3.2052376,-1.072992,-1.5077254
alexnet_w3_mlp_simclrhn_probe1,1,192,NaN,oven,oven,0,0192_lp_dnn_0_oven_10_n04111531_15052.png,n04111531_15052.png,1.0,6.5973825,-1.128349,5.4629173
alexnet_w3_mlp_simclrhn_probe1,1,193,NaN,clock,bicycle,15,0193_lp_dnn_15_bicycle_10_n02835271_317.png,n02835271_317.png,0.0,-2.211029,-0.90679854,-0.9222302
alexnet_w3_mlp_simclrhn_probe1,1,194,NaN,bird,bird,0,0194_lp_dnn_0_bird_10_n02002556_15721.png,n02002556_15721.png,1.0,0.3510039,-4.473153,3.411194
alexnet_w3_mlp_simclrhn_probe1,1,195,NaN,keyboard,chair,5,0195_lp_dnn_5_chair_10_n03376595_11280.png,n03376595_11280.png,0.0,-1.971159,-0.34507728,-1.1498134
alexnet_w3_mlp_simclrhn_probe1,1,196,NaN,keyboard,keyboard,3,0196_lp_dnn_3_keyboard_10_n04505470_4621.png,n04505470_4621.png,1.0,0.23902991,-0.4983488,0.5214055
alexnet_w3_mlp_simclrhn_probe1,1,197,NaN,keyboard,boat,7,0197_lp_dnn_7_boat_10_n03662601_6042.png,n03662601_6042.png,0.0,-2.4368446,-0.73269266,-1.2050173
alexnet_w3_mlp_simclrhn_probe1,1,198,NaN,dog,dog,1,0198_lp_dnn_1_dog_10_n02086646_2810.png,n02086646_2810.png,1.0,-1.2047932,-2.5370693,0.9420615
alexnet_w3_mlp_simclrhn_probe1,1,199,NaN,keyboard,elephant,15,0199_lp_dnn_15_elephant_10_n02504458_7835.png,n02504458_7835.png,0.0,-2.4871268,-0.9727533,-1.0708238
alexnet_w3_mlp_simclrhn_probe1,1,200,NaN,keyboard,cat,15,0200_lp_dnn_15_cat_10_n02123159_6281.png,n02123159_6281.png,0.0,-1.7915064,-0.804421,-0.6979748
alexnet_w3_mlp_simclrhn_probe1,1,201,NaN,keyboard,knife,5,0201_lp_dnn_5_knife_10_n03041632_1661.png,n03041632_1661.png,0.0,-1.6045747,-0.17680845,-1.0095832
alexnet_w3_mlp_simclrhn_probe1,1,202,NaN,clock,clock,1,0202_lp_dnn_1_clock_10_n02708093_2806.png,n02708093_2806.png,1.0,1.8810487,-1.6129802,2.4706516
alexnet_w3_mlp_simclrhn_probe1,1,203,NaN,boat,boat,1,0203_lp_dnn_1_boat_10_n04273569_1201.png,n04273569_1201.png,1.0,4.282963,0.31185552,2.807997
alexnet_w3_mlp_simclrhn_probe1,1,204,NaN,clock,bird,40,0204_lp_dnn_40_bird_10_n01614925_13283.png,n01614925_13283.png,0.0,-1.5052491,-0.4506786,-0.745694
alexnet_w3_mlp_simclrhn_probe1,1,205,NaN,clock,car,40,0205_lp_dnn_40_car_10_n02814533_51701.png,n02814533_51701.png,0.0,-2.0746834,-0.6036299,-1.040192
alexnet_w3_mlp_simclrhn_probe1,1,206,NaN,keyboard,chair,7,0206_lp_dnn_7_chair_10_n04099969_34325.png,n04099969_34325.png,0.0,-1.8225211,-0.23959818,-1.1192956
alexnet_w3_mlp_simclrhn_probe1,1,207,NaN,airplane,truck,0,0207_lp_dnn_0_truck_10_n04467665_71305.png,n04467665_71305.png,0.0,-0.9825741,3.4809554,-3.156192
alexnet_w3_mlp_simclrhn_probe1,1,208,NaN,keyboard,boat,5,0208_lp_dnn_5_boat_10_n03344393_5916.png,n03344393_5916.png,0.0,-1.8673645,-0.85984975,-0.7124205
alexnet_w3_mlp_simclrhn_probe1,1,209,NaN,keyboard,car,7,0209_lp_dnn_7_car_10_n02814533_28783.png,n02814533_28783.png,0.0,-2.7519903,-0.49945515,-1.5927829
alexnet_w3_mlp_simclrhn_probe1,1,210,NaN,bird,boat,15,0210_lp_dnn_15_boat_10_n03662601_16825.png,n03662601_16825.png,0.0,-3.01344,-1.1174642,-1.3406574
alexnet_w3_mlp_simclrhn_probe1,1,211,NaN,dog,dog,0,0211_lp_dnn_0_dog_10_n02100583_10960.png,n02100583_10960.png,1.0,-1.5793464,-3.8306117,1.591885
alexnet_w3_mlp_simclrhn_probe1,1,212,NaN,keyboard,elephant,10,0212_lp_dnn_10_elephant_10_n02504458_4587.png,n02504458_4587.png,0.0,-2.1923106,-0.8277173,-0.9649132
alexnet_w3_mlp_simclrhn_probe1,1,213,NaN,keyboard,bottle,10,0213_lp_dnn_10_bottle_10_n03983396_12670.png,n03983396_12670.png,0.0,-1.2346964,-0.71197,-0.3696234
alexnet_w3_mlp_simclrhn_probe1,1,214,NaN,bicycle,bicycle,3,0214_lp_dnn_3_bicycle_10_n02835271_18205.png,n02835271_18205.png,1.0,-0.12651187,-0.65099627,0.37086648
alexnet_w3_mlp_simclrhn_probe1,1,215,NaN,clock,truck,40,0215_lp_dnn_40_truck_10_n04467665_67527.png,n04467665_67527.png,0.0,-2.0616655,-0.46197554,-1.1311517
alexnet_w3_mlp_simclrhn_probe1,1,216,NaN,bottle,keyboard,10,0216_lp_dnn_10_keyboard_10_n03085013_4374.png,n03085013_4374.png,0.0,-0.8602226,-0.83937496,-0.014741492
alexnet_w3_mlp_simclrhn_probe1,1,217,NaN,keyboard,clock,3,0217_lp_dnn_3_clock_10_n03196217_3086.png,n03196217_3086.png,0.0,0.18523467,0.57951516,-0.2787984
alexnet_w3_mlp_simclrhn_probe1,1,218,NaN,clock,clock,15,0218_lp_dnn_15_clock_10_n04548280_254.png,n04548280_254.png,1.0,-0.4495556,-0.7038011,0.17977871
alexnet_w3_mlp_simclrhn_probe1,1,219,NaN,keyboard,bicycle,15,0219_lp_dnn_15_bicycle_10_n02835271_21707.png,n02835271_21707.png,0.0,-3.1598043,-1.0975776,-1.4582145
alexnet_w3_mlp_simclrhn_probe1,1,220,NaN,bird,bird,15,0220_lp_dnn_15_bird_10_n01819313_6340.png,n01819313_6340.png,1.0,-0.94683295,-1.1277413,0.12792155
alexnet_w3_mlp_simclrhn_probe1,1,221,NaN,keyboard,bicycle,5,0221_lp_dnn_5_bicycle_10_n02835271_10556.png,n02835271_10556.png,0.0,-2.087096,-0.6695701,-1.0023422
alexnet_w3_mlp_simclrhn_probe1,1,222,NaN,keyboard,chair,15,0222_lp_dnn_15_chair_10_n04099969_3312.png,n04099969_3312.png,0.0,-2.3357148,-0.958187,-0.9740593
alexnet_w3_mlp_simclrhn_probe1,1,223,NaN,bottle,car,15,0223_lp_dnn_15_car_10_n04285008_2781.png,n04285008_2781.png,0.0,-2.334837,-0.8317704,-1.0628285
alexnet_w3_mlp_simclrhn_probe1,1,224,NaN,clock,clock,3,0224_lp_dnn_3_clock_10_n04548280_21263.png,n04548280_21263.png,1.0,1.6388334,-0.32557598,1.3890471
alexnet_w3_mlp_simclrhn_probe1,1,225,NaN,keyboard,car,15,0225_lp_dnn_15_car_10_n02814533_9785.png,n02814533_9785.png,0.0,-2.6994998,-0.8913651,-1.2785444
alexnet_w3_mlp_simclrhn_probe1,1,226,NaN,truck,truck,0,0226_lp_dnn_0_truck_10_n03417042_24100.png,n03417042_24100.png,1.0,9.283125,7.821777,1.0333291
alexnet_w3_mlp_simclrhn_probe1,1,227,NaN,keyboard,dog,15,0227_lp_dnn_15_dog_10_n02091244_10926.png,n02091244_10926.png,0.0,-3.1043181,-1.055448,-1.4487699
alexnet_w3_mlp_simclrhn_probe1,1,228,NaN,clock,bottle,40,0228_lp_dnn_40_bottle_10_n04591713_2537.png,n04591713_2537.png,0.0,-0.80157036,-0.51103544,-0.20543921
alexnet_w3_mlp_simclrhn_probe1,1,229,NaN,keyboard,bear,10,0229_lp_dnn_10_bear_10_n02134418_1311.png,n02134418_1311.png,0.0,-3.068317,-0.6587708,-1.7038064
alexnet_w3_mlp_simclrhn_probe1,1,230,NaN,oven,bicycle,3,0230_lp_dnn_3_bicycle_10_n03792782_210.png,n03792782_210.png,0.0,-1.1116095,-0.90464085,-0.14634891
alexnet_w3_mlp_simclrhn_probe1,1,231,NaN,cat,cat,3,0231_lp_dnn_3_cat_10_n02123045_5371.png,n02123045_5371.png,1.0,0.36456373,-1.1499288,1.070908
alexnet_w3_mlp_simclrhn_probe1,1,232,NaN,clock,boat,15,0232_lp_dnn_15_boat_10_n04612504_19111.png,n04612504_19111.png,0.0,-3.0341752,-0.86151475,-1.5363029
alexnet_w3_mlp_simclrhn_probe1,1,233,NaN,clock,clock,1,0233_lp_dnn_1_clock_10_n03196217_7836.png,n03196217_7836.png,1.0,1.0447944,-0.40884385,1.0278776
alexnet_w3_mlp_simclrhn_probe1,1,234,NaN,dog,dog,0,0234_lp_dnn_0_dog_10_n02086910_9742.png,n02086910_9742.png,1.0,1.5861425,-4.572891,4.3550944
alexnet_w3_mlp_simclrhn_probe1,1,235,NaN,clock,bottle,1,0235_lp_dnn_1_bottle_10_n03937543_4723.png,n03937543_4723.png,0.0,-0.6638791,-0.5116406,-0.10764887
alexnet_w3_mlp_simclrhn_probe1,1,236,NaN,keyboard,dog,5,0236_lp_dnn_5_dog_10_n02111129_6495.png,n02111129_6495.png,0.0,-1.9759673,-0.7582937,-0.8610252
alexnet_w3_mlp_simclrhn_probe1,1,237,NaN,knife,knife,1,0237_lp_dnn_1_knife_10_n03041632_3101.png,n03041632_3101.png,1.0,0.39176285,-0.07397866,0.32932898
alexnet_w3_mlp_simclrhn_probe1,1,238,NaN,cat,bear,0,0238_lp_dnn_0_bear_10_n02134084_7373.png,n02134084_7373.png,0.0,-5.030592,-0.7412999,-3.0329874
alexnet_w3_mlp_simclrhn_probe1,1,239,NaN,bird,bird,7,0239_lp_dnn_7_bird_10_n02009229_11916.png,n02009229_11916.png,1.0,-0.75532603,-1.1427343,0.273939
alexnet_w3_mlp_simclrhn_probe1,1,240,NaN,keyboard,oven,7,0240_lp_dnn_7_oven_10_n04111531_14208.png,n04111531_14208.png,0.0,-1.4728116,-0.5174394,-0.67555016
alexnet_w3_mlp_simclrhn_probe1,1,241,NaN,bottle,bird,3,0241_lp_dnn_3_bird_10_n01601694_20287.png,n01601694_20287.png,0.0,-1.1981834,-1.1702188,-0.019773953
alexnet_w3_mlp_simclrhn_probe1,1,242,NaN,keyboard,oven,15,0242_lp_dnn_15_oven_10_n04111531_5519.png,n04111531_5519.png,0.0,-2.1139808,-1.0449581,-0.7559132
alexnet_w3_mlp_simclrhn_probe1,1,243,NaN,car,car,1,0243_lp_dnn_1_car_10_n04285008_10893.png,n04285008_10893.png,1.0,5.6142745,3.6054978,1.4204196
alexnet_w3_mlp_simclrhn_probe1,1,244,NaN,knife,boat,40,0244_lp_dnn_40_boat_10_n02951358_16196.png,n02951358_16196.png,0.0,-2.2979124,-0.7791313,-1.0739404
alexnet_w3_mlp_simclrhn_probe1,1,245,NaN,clock,clock,7,0245_lp_dnn_7_clock_10_n04548280_532.png,n04548280_532.png,1.0,-0.5062881,-0.5502004,0.03105068
alexnet_w3_mlp_simclrhn_probe1,1,246,NaN,keyboard,keyboard,0,0246_lp_dnn_0_keyboard_10_n04505470_73.png,n04505470_73.png,1.0,12.40749,-0.4941439,9.122832
alexnet_w3_mlp_simclrhn_probe1,1,247,NaN,bird,bottle,10,0247_lp_dnn_10_bottle_10_n02823428_6766.png,n02823428_6766.png,0.0,-1.3988407,-0.81483996,-0.41295087
alexnet_w3_mlp_simclrhn_probe1,1,248,NaN,bird,boat,15,0248_lp_dnn_15_boat_10_n02951358_26579.png,n02951358_26579.png,0.0,-2.3367636,-0.7820943,-1.0993173
alexnet_w3_mlp_simclrhn_probe1,1,249,NaN,keyboard,dog,10,0249_lp_dnn_10_dog_10_n02085782_7651.png,n02085782_7651.png,0.0,-2.7123904,-0.48018676,-1.5784065
alexnet_w3_mlp_simclrhn_probe1,1,250,NaN,clock,clock,3,0250_lp_dnn_3_clock_10_n02708093_1747.png,n02708093_1747.png,1.0,1.223187,0.29719496,0.65477526
alexnet_w3_mlp_simclrhn_probe1,1,251,NaN,keyboard,truck,3,0251_lp_dnn_3_truck_10_n04467665_19645.png,n04467665_19645.png,0.0,-0.8893974,-0.22791909,-0.4677358
alexnet_w3_mlp_simclrhn_probe1,1,252,NaN,bottle,airplane,15,0252_lp_dnn_15_airplane_10_n02690373_17262.png,n02690373_17262.png,0.0,-1.6166459,-0.81527,-0.5666584
alexnet_w3_mlp_simclrhn_probe1,1,253,NaN,elephant,elephant,0,0253_lp_dnn_0_elephant_10_n02504458_10428.png,n02504458_10428.png,1.0,3.054103,-1.7782843,3.4170136
alexnet_w3_mlp_simclrhn_probe1,1,254,NaN,keyboard,cat,7,0254_lp_dnn_7_cat_10_n02124075_9149.png,n02124075_9149.png,0.0,-2.42665,-0.3441353,-1.4725603
alexnet_w3_mlp_simclrhn_probe1,1,255,NaN,keyboard,elephant,10,0255_lp_dnn_10_elephant_10_n02504013_7923.png,n02504013_7923.png,0.0,-3.3525543,-0.7688459,-1.8269577
alexnet_w3_mlp_simclrhn_probe1,1,256,NaN,cat,cat,3,0256_lp_dnn_3_cat_10_n02123394_4789.png,n02123394_4789.png,1.0,-0.80812025,-1.0833505,0.19461721
alexnet_w3_mlp_simclrhn_probe1,1,257,NaN,keyboard,clock,5,0257_lp_dnn_5_clock_10_n03196217_2530.png,n03196217_2530.png,0.0,-0.2976445,0.5309175,-0.5858818
alexnet_w3_mlp_simclrhn_probe1,1,258,NaN,keyboard,airplane,5,0258_lp_dnn_5_airplane_10_n02690373_6992.png,n02690373_6992.png,0.0,-1.5129213,-0.75842386,-0.53351027
alexnet_w3_mlp_simclrhn_probe1,1,259,NaN,keyboard,airplane,3,0259_lp_dnn_3_airplane_10_n02690373_5056.png,n02690373_5056.png,0.0,-0.26403612,0.18591858,-0.31816602
alexnet_w3_mlp_simclrhn_probe1,1,260,NaN,bear,bear,1,0260_lp_dnn_1_bear_10_n02134418_2231.png,n02134418_2231.png,1.0,2.1170545,-0.9768922,2.1877508
alexnet_w3_mlp_simclrhn_probe1,1,261,NaN,keyboard,truck,10,0261_lp_dnn_10_truck_10_n03796401_180.png,n03796401_180.png,0.0,-3.3530369,-0.40979636,-2.0811853
alexnet_w3_mlp_simclrhn_probe1,1,262,NaN,bicycle,bicycle,3,0262_lp_dnn_3_bicycle_10_n02835271_3246.png,n02835271_3246.png,1.0,-0.5189637,-0.73440343,0.1523389
alexnet_w3_mlp_simclrhn_probe1,1,263,NaN,truck,truck,3,0263_lp_dnn_3_truck_10_n03796401_599.png,n03796401_599.png,1.0,0.29387552,0.0071002566,0.20278074
alexnet_w3_mlp_simclrhn_probe1,1,264,NaN,keyboard,oven,7,0264_lp_dnn_7_oven_10_n04111531_13862.png,n04111531_13862.png,0.0,-2.2215097,-0.24751158,-1.3958274
alexnet_w3_mlp_simclrhn_probe1,1,265,NaN,chair,oven,0,0265_lp_dnn_0_oven_10_n04111531_10420.png,n04111531_10420.png,0.0,-0.6400832,0.054926433,-0.49144605
alexnet_w3_mlp_simclrhn_probe1,1,266,NaN,keyboard,car,10,0266_lp_dnn_10_car_10_n03100240_15531.png,n03100240_15531.png,0.0,-2.5038848,-0.77528745,-1.2223029
alexnet_w3_mlp_simclrhn_probe1,1,267,NaN,keyboard,dog,7,0267_lp_dnn_7_dog_10_n02099849_3128.png,n02099849_3128.png,0.0,-2.4926062,-0.3456584,-1.5181214
alexnet_w3_mlp_simclrhn_probe1,1,268,NaN,keyboard,chair,5,0268_lp_dnn_5_chair_10_n02791124_3222.png,n02791124_3222.png,0.0,-2.5945184,-0.15155035,-1.7274394
alexnet_w3_mlp_simclrhn_probe1,1,269,NaN,keyboard,keyboard,5,0269_lp_dnn_5_keyboard_10_n04505470_8364.png,n04505470_8364.png,1.0,0.63375163,-0.7050095,0.94664705
alexnet_w3_mlp_simclrhn_probe1,1,270,NaN,clock,clock,0,0270_lp_dnn_0_clock_10_n04548280_9294.png,n04548280_9294.png,1.0,2.1473596,-0.6560326,1.9822977
alexnet_w3_mlp_simclrhn_probe1,1,271,NaN,keyboard,bottle,7,0271_lp_dnn_7_bottle_10_n03937543_3358.png,n03937543_3358.png,0.0,-0.8684525,-0.31519443,-0.39121252
alexnet_w3_mlp_simclrhn_probe1,1,272,NaN,keyboard,knife,7,0272_lp_dnn_7_knife_10_n03041632_2058.png,n03041632_2058.png,0.0,-1.0259209,-0.34996992,-0.4779695
alexnet_w3_mlp_simclrhn_probe1,1,273,NaN,boat,elephant,1,0273_lp_dnn_1_elephant_10_n02504458_5671.png,n02504458_5671.png,0.0,-2.3067281,0.16729818,-1.7494007
alexnet_w3_mlp_simclrhn_probe1,1,274,NaN,keyboard,chair,10,0274_lp_dnn_10_chair_10_n02791124_6281.png,n02791124_6281.png,0.0,-2.1560206,-0.4654165,-1.1954377
alexnet_w3_mlp_simclrhn_probe1,1,275,NaN,keyboard,cat,15,0275_lp_dnn_15_cat_10_n02125311_44920.png,n02125311_44920.png,0.0,-1.9506816,-0.8219008,-0.7981686
alexnet_w3_mlp_simclrhn_probe1,1,276,NaN,keyboard,airplane,5,0276_lp_dnn_5_airplane_10_n02690373_2981.png,n02690373_2981.png,0.0,-1.5284696,-0.7123028,-0.5771171
alexnet_w3_mlp_simclrhn_probe1,1,277,NaN,bottle,knife,1,0277_lp_dnn_1_knife_10_n03041632_2468.png,n03041632_2468.png,0.0,-2.0001602,-1.7645727,-0.1665855
alexnet_w3_mlp_simclrhn_probe1,1,278,NaN,clock,clock,1,0278_lp_dnn_1_clock_10_n02708093_3605.png,n02708093_3605.png,1.0,-0.6809619,-1.1549783,0.3351802
alexnet_w3_mlp_simclrhn_probe1,1,279,NaN,bicycle,bicycle,1,0279_lp_dnn_1_bicycle_10_n02835271_19019.png,n02835271_19019.png,1.0,6.4727893,-2.0358596,6.0165234
alexnet_w3_mlp_simclrhn_probe1,1,280,NaN,keyboard,keyboard,7,0280_lp_dnn_7_keyboard_10_n03085013_1188.png,n03085013_1188.png,1.0,-0.3064681,-0.7957988,0.34600905
alexnet_w3_mlp_simclrhn_probe1,1,281,NaN,oven,oven,1,0281_lp_dnn_1_oven_10_n04111531_2715.png,n04111531_2715.png,1.0,1.0618454,-2.041947,2.1947126
alexnet_w3_mlp_simclrhn_probe1,1,282,NaN,keyboard,keyboard,10,0282_lp_dnn_10_keyboard_10_n03085013_9533.png,n03085013_9533.png,1.0,-0.6321485,-0.84690136,0.1518532
alexnet_w3_mlp_simclrhn_probe1,1,283,NaN,cat,cat,3,0283_lp_dnn_3_cat_10_n02123045_20366.png,n02123045_20366.png,1.0,0.23899412,-0.64613974,0.6258842
alexnet_w3_mlp_simclrhn_probe1,1,284,NaN,keyboard,chair,5,0284_lp_dnn_5_chair_10_n03376595_302.png,n03376595_302.png,0.0,-1.9599504,-0.65005875,-0.9262333
alexnet_w3_mlp_simclrhn_probe1,1,285,NaN,keyboard,cat,7,0285_lp_dnn_7_cat_10_n02123597_14267.png,n02123597_14267.png,0.0,-2.489077,-0.46466318,-1.4314767
alexnet_w3_mlp_simclrhn_probe1,1,286,NaN,keyboard,dog,15,0286_lp_dnn_15_dog_10_n02098286_2582.png,n02098286_2582.png,0.0,-2.611024,-0.99489164,-1.1427782
alexnet_w3_mlp_simclrhn_probe1,1,287,NaN,airplane,boat,1,0287_lp_dnn_1_boat_10_n03344393_4001.png,n03344393_4001.png,0.0,0.44394237,0.49264145,-0.03443545
alexnet_w3_mlp_simclrhn_probe1,1,288,NaN,clock,bicycle,15,0288_lp_dnn_15_bicycle_10_n02835271_6122.png,n02835271_6122.png,0.0,-2.0976615,-0.8771188,-0.86305404
alexnet_w3_mlp_simclrhn_probe1,1,289,NaN,bear,dog,3,0289_lp_dnn_3_dog_10_n02091134_3075.png,n02091134_3075.png,0.0,-0.25190517,-0.13642521,-0.081656665
alexnet_w3_mlp_simclrhn_probe1,1,290,NaN,clock,oven,40,0290_lp_dnn_40_oven_10_n04111531_4795.png,n04111531_4795.png,0.0,-1.7254251,-0.44268963,-0.90703094
alexnet_w3_mlp_simclrhn_probe1,1,291,NaN,keyboard,bottle,10,0291_lp_dnn_10_bottle_10_n04591713_4876.png,n04591713_4876.png,0.0,-1.240864,-0.54798365,-0.48994043
alexnet_w3_mlp_simclrhn_probe1,1,292,NaN,clock,bottle,0,0292_lp_dnn_0_bottle_10_n02823428_2510.png,n02823428_2510.png,0.0,1.5793474,2.839447,-0.891025
alexnet_w3_mlp_simclrhn_probe1,1,293,NaN,bottle,keyboard,1,0293_lp_dnn_1_keyboard_10_n03085013_5950.png,n03085013_5950.png,0.0,-0.70919585,-0.6584898,-0.035854578
alexnet_w3_mlp_simclrhn_probe1,1,294,NaN,bird,bear,5,0294_lp_dnn_5_bear_10_n02133161_1490.png,n02133161_1490.png,0.0,-1.1129849,-0.6078718,-0.3571689
alexnet_w3_mlp_simclrhn_probe1,1,295,NaN,keyboard,truck,10,0295_lp_dnn_10_truck_10_n03796401_28465.png,n03796401_28465.png,0.0,-3.365982,-0.61578685,-1.9446818
alexnet_w3_mlp_simclrhn_probe1,1,296,NaN,clock,bottle,15,0296_lp_dnn_15_bottle_10_n02823428_6627.png,n02823428_6627.png,0.0,-0.7939826,-0.69046336,-0.073199175
alexnet_w3_mlp_simclrhn_probe1,1,297,NaN,keyboard,truck,5,0297_lp_dnn_5_truck_10_n04467665_69582.png,n04467665_69582.png,0.0,-2.1671953,-0.3005867,-1.3198917
alexnet_w3_mlp_simclrhn_probe1,1,298,NaN,clock,bird,40,0298_lp_dnn_40_bird_10_n02006656_10568.png,n02006656_10568.png,0.0,-1.4817185,-0.40081856,-0.7643117
alexnet_w3_mlp_simclrhn_probe1,1,299,NaN,clock,car,40,0299_lp_dnn_40_car_10_n04285008_11748.png,n04285008_11748.png,0.0,-1.8807582,-0.31550306,-1.1068026
alexnet_w3_mlp_simclrhn_probe1,1,300,NaN,keyboard,truck,5,0300_lp_dnn_5_truck_10_n04467665_44714.png,n04467665_44714.png,0.0,-1.9485531,-0.20813727,-1.2306598
alexnet_w3_mlp_simclrhn_probe1,1,301,NaN,airplane,airplane,3,0301_lp_dnn_3_airplane_10_n02690373_7487.png,n02690373_7487.png,1.0,0.80112064,-0.765855,1.1080191
alexnet_w3_mlp_simclrhn_probe1,1,302,NaN,keyboard,elephant,15,0302_lp_dnn_15_elephant_10_n02504458_7472.png,n02504458_7472.png,0.0,-2.4118342,-0.88924205,-1.0766352
alexnet_w3_mlp_simclrhn_probe1,1,303,NaN,clock,boat,3,0303_lp_dnn_3_boat_10_n03662601_25023.png,n03662601_25023.png,0.0,-1.3887869,-0.65167284,-0.52121836
alexnet_w3_mlp_simclrhn_probe1,1,304,NaN,bicycle,knife,0,0304_lp_dnn_0_knife_10_n03041632_101673.png,n03041632_101673.png,0.0,-2.1804051,0.08243097,-1.6000669
alexnet_w3_mlp_simclrhn_probe1,1,305,NaN,keyboard,bottle,7,0305_lp_dnn_7_bottle_10_n03983396_587.png,n03983396_587.png,0.0,-1.0208299,-0.555669,-0.32891843
alexnet_w3_mlp_simclrhn_probe1,1,306,NaN,oven,cat,3,0306_lp_dnn_3_cat_10_n02124075_7692.png,n02124075_7692.png,0.0,-0.8433197,0.012244381,-0.6049752
alexnet_w3_mlp_simclrhn_probe1,1,307,NaN,oven,oven,0,0307_lp_dnn_0_oven_10_n04111531_6313.png,n04111531_6313.png,1.0,5.2932463,-1.6913044,4.938823
alexnet_w3_mlp_simclrhn_probe1,1,308,NaN,keyboard,bird,7,0308_lp_dnn_7_bird_10_n02018795_5770.png,n02018795_5770.png,0.0,-0.90722656,-0.86796236,-0.027763983
alexnet_w3_mlp_simclrhn_probe1,1,309,NaN,bottle,bottle,3,0309_lp_dnn_3_bottle_10_n02823428_4658.png,n02823428_4658.png,1.0,1.9668181,-0.6696929,1.8642948
alexnet_w3_mlp_simclrhn_probe1,1,310,NaN,airplane,airplane,1,0310_lp_dnn_1_airplane_10_n02690373_2724.png,n02690373_2724.png,1.0,4.7013154,-1.3158913,4.254808
alexnet_w3_mlp_simclrhn_probe1,1,311,NaN,clock,boat,40,0311_lp_dnn_40_boat_10_n04612504_7446.png,n04612504_7446.png,0.0,-1.8901179,-0.4051567,-1.050026
alexnet_w3_mlp_simclrhn_probe1,1,312,NaN,keyboard,boat,7,0312_lp_dnn_7_boat_10_n02951358_34783.png,n02951358_34783.png,0.0,-2.3999403,-0.69317305,-1.2068667
alexnet_w3_mlp_simclrhn_probe1,1,313,NaN,cat,cat,0,0313_lp_dnn_0_cat_10_n02123597_680.png,n02123597_680.png,1.0,4.7849884,-1.7264179,4.6042595
alexnet_w3_mlp_simclrhn_probe1,1,314,NaN,keyboard,bear,10,0314_lp_dnn_10_bear_10_n02133161_9863.png,n02133161_9863.png,0.0,-2.3656707,-0.75320554,-1.140185
alexnet_w3_mlp_simclrhn_probe1,1,315,NaN,bear,bear,1,0315_lp_dnn_1_bear_10_n02133161_2100.png,n02133161_2100.png,1.0,3.678311,-0.039001383,2.628537
alexnet_w3_mlp_simclrhn_probe1,1,316,NaN,keyboard,oven,3,0316_lp_dnn_3_oven_10_n04111531_8009.png,n04111531_8009.png,0.0,0.36932737,0.3775037,-0.005781536
alexnet_w3_mlp_simclrhn_probe1,1,317,NaN,knife,car,40,0317_lp_dnn_40_car_10_n03100240_16525.png,n03100240_16525.png,0.0,-2.0514734,-0.6842227,-0.9667922
alexnet_w3_mlp_simclrhn_probe1,1,318,NaN,bird,bird,5,0318_lp_dnn_5_bird_10_n01824575_4941.png,n01824575_4941.png,1.0,-0.8262935,-1.2020934,0.26573062
alexnet_w3_mlp_simclrhn_probe1,1,319,NaN,keyboard,knife,15,0319_lp_dnn_15_knife_10_n03041632_289.png,n03041632_289.png,0.0,-1.2189614,-0.8863144,-0.23521693
alexnet_w3_mlp_simclrhn_probe1,1,320,NaN,keyboard,dog,10,0320_lp_dnn_10_dog_10_n02101006_15350.png,n02101006_15350.png,0.0,-2.3976023,-0.5708876,-1.2916824
alexnet_w3_mlp_simclrhn_probe1,1,321,NaN,bird,elephant,5,0321_lp_dnn_5_elephant_10_n02504458_1636.png,n02504458_1636.png,0.0,-1.2180684,-0.8098393,-0.28866154
alexnet_w3_mlp_simclrhn_probe1,1,322,NaN,keyboard,car,7,0322_lp_dnn_7_car_10_n04285008_8666.png,n04285008_8666.png,0.0,-2.9600947,-0.6388546,-1.6413646
alexnet_w3_mlp_simclrhn_probe1,1,323,NaN,keyboard,bottle,5,0323_lp_dnn_5_bottle_10_n02823428_5451.png,n02823428_5451.png,0.0,-0.4420554,-0.008368745,-0.3066628
alexnet_w3_mlp_simclrhn_probe1,1,324,NaN,car,car,3,0324_lp_dnn_3_car_10_n03100240_2495.png,n03100240_2495.png,1.0,0.95708436,0.38705313,0.40307295
alexnet_w3_mlp_simclrhn_probe1,1,325,NaN,keyboard,bicycle,10,0325_lp_dnn_10_bicycle_10_n02835271_19565.png,n02835271_19565.png,0.0,-3.082315,-0.43827707,-1.8696172
alexnet_w3_mlp_simclrhn_probe1,1,326,NaN,airplane,airplane,1,0326_lp_dnn_1_airplane_10_n02690373_349.png,n02690373_349.png,1.0,5.1897,-1.1813581,4.5050187
alexnet_w3_mlp_simclrhn_probe1,1,327,NaN,keyboard,cat,7,0327_lp_dnn_7_cat_10_n02123045_20512.png,n02123045_20512.png,0.0,-1.8771086,-0.40978774,-1.0375525
alexnet_w3_mlp_simclrhn_probe1,1,328,NaN,clock,keyboard,1,0328_lp_dnn_1_keyboard_10_n03085013_23619.png,n03085013_23619.png,0.0,-1.0269055,-0.70328027,-0.22883762
alexnet_w3_mlp_simclrhn_probe1,1,329,NaN,keyboard,boat,7,0329_lp_dnn_7_boat_10_n03662601_16925.png,n03662601_16925.png,0.0,-2.0613837,-0.40827742,-1.1689227
alexnet_w3_mlp_simclrhn_probe1,1,330,NaN,keyboard,oven,10,0330_lp_dnn_10_oven_10_n04111531_12830.png,n04111531_12830.png,0.0,-1.5022223,-0.02024883,-1.0479134
alexnet_w3_mlp_simclrhn_probe1,1,331,NaN,keyboard,boat,5,0331_lp_dnn_5_boat_10_n02951358_33277.png,n02951358_33277.png,0.0,-2.0646925,-0.9426235,-0.79342264
alexnet_w3_mlp_simclrhn_probe1,1,332,NaN,bird,bear,15,0332_lp_dnn_15_bear_10_n02133161_156.png,n02133161_156.png,0.0,-2.7754464,-1.0212882,-1.2403772
alexnet_w3_mlp_simclrhn_probe1,1,333,NaN,clock,cat,40,0333_lp_dnn_40_cat_10_n02124075_6638.png,n02124075_6638.png,0.0,-1.3147345,-0.44888294,-0.6122495
alexnet_w3_mlp_simclrhn_probe1,1,334,NaN,keyboard,keyboard,10,0334_lp_dnn_10_keyboard_10_n04505470_4587.png,n04505470_4587.png,1.0,-0.65471625,-0.9318328,0.19595098
alexnet_w3_mlp_simclrhn_probe1,1,335,NaN,keyboard,bear,10,0335_lp_dnn_10_bear_10_n02134084_27899.png,n02134084_27899.png,0.0,-2.5100498,-0.69527525,-1.2832394
alexnet_w3_mlp_simclrhn_probe1,1,336,NaN,keyboard,keyboard,0,0336_lp_dnn_0_keyboard_10_n03085013_10984.png,n03085013_10984.png,1.0,6.6509233,-2.0223422,6.132925
alexnet_w3_mlp_simclrhn_probe1,1,337,NaN,keyboard,bottle,5,0337_lp_dnn_5_bottle_10_n03983396_10469.png,n03983396_10469.png,0.0,-1.4456316,-0.6312617,-0.5758465
alexnet_w3_mlp_simclrhn_probe1,1,338,NaN,keyboard,knife,10,0338_lp_dnn_10_knife_10_n03041632_20707.png,n03041632_20707.png,0.0,-1.7858045,-0.82115304,-0.6821116
alexnet_w3_mlp_simclrhn_probe1,1,339,NaN,truck,car,1,0339_lp_dnn_1_car_10_n04285008_9411.png,n04285008_9411.png,0.0,4.518549,4.5266113,-0.0057009514
alexnet_w3_mlp_simclrhn_probe1,1,340,NaN,clock,airplane,40,0340_lp_dnn_40_airplane_10_n02690373_4671.png,n02690373_4671.png,0.0,-1.2473414,-0.375651,-0.6163782
alexnet_w3_mlp_simclrhn_probe1,1,341,NaN,keyboard,knife,7,0341_lp_dnn_7_knife_10_n03041632_16206.png,n03041632_16206.png,0.0,-1.1556051,-0.6915748,-0.32811895
alexnet_w3_mlp_simclrhn_probe1,1,342,NaN,keyboard,bicycle,5,0342_lp_dnn_5_bicycle_10_n03792782_7180.png,n03792782_7180.png,0.0,-2.509686,-0.33410087,-1.538371
alexnet_w3_mlp_simclrhn_probe1,1,343,NaN,bear,bear,0,0343_lp_dnn_0_bear_10_n02134418_2719.png,n02134418_2719.png,1.0,2.525205,0.63202316,1.3386817
alexnet_w3_mlp_simclrhn_probe1,1,344,NaN,chair,chair,0,0344_lp_dnn_0_chair_10_n04099969_2038.png,n04099969_2038.png,1.0,1.7913846,-0.18171887,1.3951948
alexnet_w3_mlp_simclrhn_probe1,1,345,NaN,cat,dog,1,0345_lp_dnn_1_dog_10_n02113023_5237.png,n02113023_5237.png,0.0,-1.4311424,0.18988387,-1.1462387
alexnet_w3_mlp_simclrhn_probe1,1,346,NaN,clock,airplane,40,0346_lp_dnn_40_airplane_10_n02690373_2525.png,n02690373_2525.png,0.0,-1.0495805,-0.30489388,-0.52657294
alexnet_w3_mlp_simclrhn_probe1,1,347,NaN,keyboard,clock,7,0347_lp_dnn_7_clock_10_n04548280_219.png,n04548280_219.png,0.0,-0.30025503,-0.2945073,-0.004064263
alexnet_w3_mlp_simclrhn_probe1,1,348,NaN,keyboard,boat,15,0348_lp_dnn_15_boat_10_n04612504_2805.png,n04612504_2805.png,0.0,-3.6037915,-1.0937507,-1.7748668
alexnet_w3_mlp_simclrhn_probe1,1,349,NaN,keyboard,clock,7,0349_lp_dnn_7_clock_10_n02708093_7020.png,n02708093_7020.png,0.0,-0.78602725,-0.17428057,-0.43257022
alexnet_w3_mlp_simclrhn_probe1,1,350,NaN,oven,oven,3,0350_lp_dnn_3_oven_10_n04111531_5171.png,n04111531_5171.png,1.0,-0.36228913,-0.6909666,0.23241007
alexnet_w3_mlp_simclrhn_probe1,1,351,NaN,oven,cat,3,0351_lp_dnn_3_cat_10_n02125311_37322.png,n02125311_37322.png,0.0,-0.6925108,-0.34726858,-0.2441231
alexnet_w3_mlp_simclrhn_probe1,1,352,NaN,keyboard,cat,7,0352_lp_dnn_7_cat_10_n02123597_14094.png,n02123597_14094.png,0.0,-2.7056503,-0.38039786,-1.6442019
alexnet_w3_mlp_simclrhn_probe1,1,353,NaN,keyboard,boat,15,0353_lp_dnn_15_boat_10_n02951358_13352.png,n02951358_13352.png,0.0,-3.9957366,-1.1277835,-2.027949
alexnet_w3_mlp_simclrhn_probe1,1,354,NaN,keyboard,bicycle,10,0354_lp_dnn_10_bicycle_10_n02835271_20445.png,n02835271_20445.png,0.0,-2.4999084,-0.5345969,-1.3896852
alexnet_w3_mlp_simclrhn_probe1,1,355,NaN,keyboard,knife,7,0355_lp_dnn_7_knife_10_n03041632_4708.png,n03041632_4708.png,0.0,-1.1630521,-0.12986022,-0.73057705
alexnet_w3_mlp_simclrhn_probe1,1,356,NaN,keyboard,oven,7,0356_lp_dnn_7_oven_10_n04111531_505.png,n04111531_505.png,0.0,-1.744512,0.09620358,-1.3015825
alexnet_w3_mlp_simclrhn_probe1,1,357,NaN,bicycle,bicycle,1,0357_lp_dnn_1_bicycle_10_n03792782_104.png,n03792782_104.png,1.0,5.0244045,-1.6271689,4.7033725
alexnet_w3_mlp_simclrhn_probe1,1,358,NaN,clock,bottle,40,0358_lp_dnn_40_bottle_10_n04591713_5204.png,n04591713_5204.png,0.0,-0.63343346,-0.4582901,-0.12384506
alexnet_w3_mlp_simclrhn_probe1,1,359,NaN,keyboard,bicycle,5,0359_lp_dnn_5_bicycle_10_n03792782_5578.png,n03792782_5578.png,0.0,-2.363154,-0.6014839,-1.2456889
alexnet_w3_mlp_simclrhn_probe1,1,360,NaN,keyboard,truck,10,0360_lp_dnn_10_truck_10_n03417042_1437.png,n03417042_1437.png,0.0,-3.6245756,-0.65196234,-2.1019552
alexnet_w3_mlp_simclrhn_probe1,1,361,NaN,cat,cat,0,0361_lp_dnn_0_cat_10_n02123045_7482.png,n02123045_7482.png,1.0,-0.5340538,-1.8074938,0.9004581
alexnet_w3_mlp_simclrhn_probe1,1,362,NaN,keyboard,bird,10,0362_lp_dnn_10_bird_10_n02037110_554.png,n02037110_554.png,0.0,-0.95485514,-0.8366073,-0.08361387
alexnet_w3_mlp_simclrhn_probe1,1,363,NaN,bird,bicycle,5,0363_lp_dnn_5_bicycle_10_n03792782_15.png,n03792782_15.png,0.0,-1.973445,-0.689907,-0.9075985
alexnet_w3_mlp_simclrhn_probe1,1,364,NaN,keyboard,bicycle,5,0364_lp_dnn_5_bicycle_10_n02835271_7450.png,n02835271_7450.png,0.0,-2.6294289,-0.84555995,-1.2613858
alexnet_w3_mlp_simclrhn_probe1,1,365,NaN,keyboard,boat,5,0365_lp_dnn_5_boat_10_n03344393_3881.png,n03344393_3881.png,0.0,-2.0696993,-0.3825185,-1.193017
alexnet_w3_mlp_simclrhn_probe1,1,366,NaN,keyboard,chair,10,0366_lp_dnn_10_chair_10_n04099969_3623.png,n04099969_3623.png,0.0,-2.3422496,-0.54529136,-1.2706413
alexnet_w3_mlp_simclrhn_probe1,1,367,NaN,keyboard,airplane,5,0367_lp_dnn_5_airplane_10_n02690373_2579.png,n02690373_2579.png,0.0,-1.2297351,-0.6012884,-0.44437897
alexnet_w3_mlp_simclrhn_probe1,1,368,NaN,bottle,dog,15,0368_lp_dnn_15_dog_10_n02093859_3707.png,n02093859_3707.png,0.0,-2.5408144,-1.1821047,-0.96075284
alexnet_w3_mlp_simclrhn_probe1,1,369,NaN,oven,bottle,1,0369_lp_dnn_1_bottle_10_n04560804_22426.png,n04560804_22426.png,0.0,-2.1555924,-1.5700853,-0.4140161
alexnet_w3_mlp_simclrhn_probe1,1,370,NaN,keyboard,clock,15,0370_lp_dnn_15_clock_10_n03196217_82.png,n03196217_82.png,0.0,-0.85750777,-0.82515097,-0.022879712
alexnet_w3_mlp_simclrhn_probe1,1,371,NaN,keyboard,car,5,0371_lp_dnn_5_car_10_n03100240_16907.png,n03100240_16907.png,0.0,-2.1776054,-0.4583483,-1.2156984
alexnet_w3_mlp_simclrhn_probe1,1,372,NaN,keyboard,oven,5,0372_lp_dnn_5_oven_10_n04111531_9548.png,n04111531_9548.png,0.0,-1.948298,-0.6043814,-0.9502926
alexnet_w3_mlp_simclrhn_probe1,1,373,NaN,keyboard,clock,7,0373_lp_dnn_7_clock_10_n02708093_3751.png,n02708093_3751.png,0.0,-1.7727028,-0.7576194,-0.71777236
alexnet_w3_mlp_simclrhn_probe1,1,374,NaN,keyboard,car,7,0374_lp_dnn_7_car_10_n02814533_6593.png,n02814533_6593.png,0.0,-3.2329159,-0.34310475,-2.043405
alexnet_w3_mlp_simclrhn_probe1,1,375,NaN,airplane,airplane,0,0375_lp_dnn_0_airplane_10_n02690373_3212.png,n02690373_3212.png,1.0,10.452638,0.12693262,7.301376
alexnet_w3_mlp_simclrhn_probe1,1,376,NaN,cat,cat,1,0376_lp_dnn_1_cat_10_n02123045_5820.png,n02123045_5820.png,1.0,-0.95614594,-1.2471031,0.20573778
alexnet_w3_mlp_simclrhn_probe1,1,377,NaN,bottle,elephant,3,0377_lp_dnn_3_elephant_10_n02504458_205.png,n02504458_205.png,0.0,-1.113533,-0.4370437,-0.47835022
alexnet_w3_mlp_simclrhn_probe1,1,378,NaN,keyboard,elephant,10,0378_lp_dnn_10_elephant_10_n02504013_3425.png,n02504013_3425.png,0.0,-2.287939,-0.5430856,-1.2337978
alexnet_w3_mlp_simclrhn_probe1,1,379,NaN,clock,bird,15,0379_lp_dnn_15_bird_10_n02056570_9572.png,n02056570_9572.png,0.0,-0.97835517,-0.8396163,-0.098103195
alexnet_w3_mlp_simclrhn_probe1,1,380,NaN,clock,elephant,40,0380_lp_dnn_40_elephant_10_n02504013_7635.png,n02504013_7635.png,0.0,-1.9773829,-0.15845753,-1.2861745
alexnet_w3_mlp_simclrhn_probe1,1,381,NaN,keyboard,boat,10,0381_lp_dnn_10_boat_10_n04273569_10716.png,n04273569_10716.png,0.0,-2.4799168,-0.5204561,-1.385548
alexnet_w3_mlp_simclrhn_probe1,1,382,NaN,keyboard,bear,15,0382_lp_dnn_15_bear_10_n02134084_19849.png,n02134084_19849.png,0.0,-2.9836838,-1.1956682,-1.264318
alexnet_w3_mlp_simclrhn_probe1,1,383,NaN,clock,boat,40,0383_lp_dnn_40_boat_10_n03662601_35800.png,n03662601_35800.png,0.0,-1.885289,-0.48076698,-0.993147
alexnet_w3_mlp_simclrhn_probe1,1,384,NaN,clock,bicycle,40,0384_lp_dnn_40_bicycle_10_n03792782_29276.png,n03792782_29276.png,0.0,-2.4045534,-0.43572333,-1.3921732
alexnet_w3_mlp_simclrhn_probe1,1,385,NaN,keyboard,oven,10,0385_lp_dnn_10_oven_10_n04111531_4392.png,n04111531_4392.png,0.0,-2.363735,-0.88617337,-1.0447938
alexnet_w3_mlp_simclrhn_probe1,1,386,NaN,airplane,airplane,0,0386_lp_dnn_0_airplane_10_n02690373_7099.png,n02690373_7099.png,1.0,11.533062,1.1233851,7.360753
alexnet_w3_mlp_simclrhn_probe1,1,387,NaN,keyboard,cat,5,0387_lp_dnn_5_cat_10_n02124075_13187.png,n02124075_13187.png,0.0,-2.1450086,-0.9901724,-0.8165925
alexnet_w3_mlp_simclrhn_probe1,1,388,NaN,bicycle,knife,0,0388_lp_dnn_0_knife_10_n03041632_32048.png,n03041632_32048.png,0.0,-1.603706,-0.99043274,-0.4336497
alexnet_w3_mlp_simclrhn_probe1,1,389,NaN,airplane,airplane,3,0389_lp_dnn_3_airplane_10_n02690373_20074.png,n02690373_20074.png,1.0,-0.38316768,-0.72301656,0.24030945
alexnet_w3_mlp_simclrhn_probe1,1,390,NaN,truck,car,1,0390_lp_dnn_1_car_10_n02814533_83577.png,n02814533_83577.png,0.0,5.939241,6.131621,-0.13603318
alexnet_w3_mlp_simclrhn_probe1,1,391,NaN,clock,airplane,40,0391_lp_dnn_40_airplane_10_n02690373_19134.png,n02690373_19134.png,0.0,-1.3782201,-0.44501448,-0.65987605
alexnet_w3_mlp_simclrhn_probe1,1,392,NaN,knife,knife,3,0392_lp_dnn_3_knife_10_n03041632_13130.png,n03041632_13130.png,1.0,-0.38346097,-0.8630465,0.3391182
alexnet_w3_mlp_simclrhn_probe1,1,393,NaN,knife,knife,0,0393_lp_dnn_0_knife_10_n03041632_1006.png,n03041632_1006.png,1.0,0.05001287,-3.3662055,2.415631
alexnet_w3_mlp_simclrhn_probe1,1,394,NaN,elephant,elephant,1,0394_lp_dnn_1_elephant_10_n02504458_7634.png,n02504458_7634.png,1.0,5.013642,0.10639125,3.4699502
alexnet_w3_mlp_simclrhn_probe1,1,395,NaN,bicycle,bicycle,1,0395_lp_dnn_1_bicycle_10_n02835271_17184.png,n02835271_17184.png,1.0,8.446643,-2.3172448,7.611218
alexnet_w3_mlp_simclrhn_probe1,1,396,NaN,truck,oven,0,0396_lp_dnn_0_oven_10_n04111531_2189.png,n04111531_2189.png,0.0,-1.2621918,-1.1682416,-0.06643279
alexnet_w3_mlp_simclrhn_probe1,1,397,NaN,clock,cat,15,0397_lp_dnn_15_cat_10_n02124075_11888.png,n02124075_11888.png,0.0,-1.5498667,-0.80008,-0.53017926
alexnet_w3_mlp_simclrhn_probe1,1,398,NaN,bird,cat,10,0398_lp_dnn_10_cat_10_n02123394_1690.png,n02123394_1690.png,0.0,-2.2050679,-0.8984342,-0.9239296
alexnet_w3_mlp_simclrhn_probe1,1,399,NaN,dog,dog,1,0399_lp_dnn_1_dog_10_n02111500_2905.png,n02111500_2905.png,1.0,1.1685746,-2.047087,2.273816
alexnet_w3_mlp_simclrhn_probe1,1,400,NaN,keyboard,knife,5,0400_lp_dnn_5_knife_10_n03041632_20433.png,n03041632_20433.png,0.0,-1.6926585,-0.3267976,-0.9658095
alexnet_w3_mlp_simclrhn_probe1,1,401,NaN,clock,clock,15,0401_lp_dnn_15_clock_10_n04548280_22641.png,n04548280_22641.png,1.0,-0.729441,-0.8705501,0.09977921
alexnet_w3_mlp_simclrhn_probe1,1,402,NaN,keyboard,bottle,15,0402_lp_dnn_15_bottle_10_n04557648_634.png,n04557648_634.png,0.0,-0.9460475,-0.81539834,-0.0923829
alexnet_w3_mlp_simclrhn_probe1,1,403,NaN,truck,truck,1,0403_lp_dnn_1_truck_10_n04467665_69447.png,n04467665_69447.png,1.0,2.191455,1.8003939,0.27652186
alexnet_w3_mlp_simclrhn_probe1,1,404,NaN,elephant,elephant,3,0404_lp_dnn_3_elephant_10_n02504013_1777.png,n02504013_1777.png,1.0,0.8085154,-0.23141162,0.73533946
alexnet_w3_mlp_simclrhn_probe1,1,405,NaN,truck,truck,0,0405_lp_dnn_0_truck_10_n03796401_2559.png,n03796401_2559.png,1.0,2.1836367,0.32146156,1.3167567
alexnet_w3_mlp_simclrhn_probe1,1,406,NaN,car,car,1,0406_lp_dnn_1_car_10_n02814533_42547.png,n02814533_42547.png,1.0,8.74626,5.943327,1.9819728
alexnet_w3_mlp_simclrhn_probe1,1,407,NaN,clock,clock,15,0407_lp_dnn_15_clock_10_n04548280_7181.png,n04548280_7181.png,1.0,-0.99852794,-1.0174977,0.013413614
alexnet_w3_mlp_simclrhn_probe1,1,408,NaN,airplane,boat,1,0408_lp_dnn_1_boat_10_n03344393_5030.png,n03344393_5030.png,0.0,1.5243367,1.7784072,-0.17965499
alexnet_w3_mlp_simclrhn_probe1,1,409,NaN,keyboard,bottle,15,0409_lp_dnn_15_bottle_10_n04591713_2952.png,n04591713_2952.png,0.0,-1.3768008,-0.92782474,-0.317474
alexnet_w3_mlp_simclrhn_probe1,1,410,NaN,keyboard,keyboard,5,0410_lp_dnn_5_keyboard_10_n04505470_4742.png,n04505470_4742.png,1.0,-0.03275323,-0.7616199,0.5153866
alexnet_w3_mlp_simclrhn_probe1,1,411,NaN,keyboard,bear,7,0411_lp_dnn_7_bear_10_n02134418_4696.png,n02134418_4696.png,0.0,-1.9333017,-0.40519398,-1.0805353
alexnet_w3_mlp_simclrhn_probe1,1,412,NaN,clock,bear,40,0412_lp_dnn_40_bear_10_n02132136_5815.png,n02132136_5815.png,0.0,-2.3428955,-0.4010905,-1.3730636
alexnet_w3_mlp_simclrhn_probe1,1,413,NaN,keyboard,bicycle,15,0413_lp_dnn_15_bicycle_10_n02835271_8203.png,n02835271_8203.png,0.0,-2.7527034,-0.85784125,-1.3398699
alexnet_w3_mlp_simclrhn_probe1,1,414,NaN,clock,car,40,0414_lp_dnn_40_car_10_n04285008_12868.png,n04285008_12868.png,0.0,-1.85451,-0.4474472,-0.9949436
alexnet_w3_mlp_simclrhn_probe1,1,415,NaN,clock,bear,40,0415_lp_dnn_40_bear_10_n02132136_7074.png,n02132136_7074.png,0.0,-2.386497,-0.65985554,-1.2209198
alexnet_w3_mlp_simclrhn_probe1,1,416,NaN,oven,boat,3,0416_lp_dnn_3_boat_10_n03344393_8265.png,n03344393_8265.png,0.0,-0.9454237,-0.6370267,-0.21806961
alexnet_w3_mlp_simclrhn_probe1,1,417,NaN,keyboard,truck,10,0417_lp_dnn_10_truck_10_n04467665_12177.png,n04467665_12177.png,0.0,-3.4793243,-0.6726178,-1.9846412
alexnet_w3_mlp_simclrhn_probe1,1,418,NaN,car,car,3,0418_lp_dnn_3_car_10_n03100240_8987.png,n03100240_8987.png,1.0,1.1694974,0.32673407,0.59592366
alexnet_w3_mlp_simclrhn_probe1,1,419,NaN,keyboard,bird,15,0419_lp_dnn_15_bird_10_n01530575_10601.png,n01530575_10601.png,0.0,-0.95988303,-0.87586737,-0.05940805
alexnet_w3_mlp_simclrhn_probe1,1,420,NaN,keyboard,keyboard,15,0420_lp_dnn_15_keyboard_10_n04505470_313.png,n04505470_313.png,1.0,-0.73571634,-1.0536184,0.22479072
alexnet_w3_mlp_simclrhn_probe1,1,421,NaN,truck,truck,1,0421_lp_dnn_1_truck_10_n03417042_5371.png,n03417042_5371.png,1.0,0.15527938,-0.5953373,0.5307661
alexnet_w3_mlp_simclrhn_probe1,1,422,NaN,truck,truck,0,0422_lp_dnn_0_truck_10_n03796401_29952.png,n03796401_29952.png,1.0,4.4790463,-0.95196664,3.8403063
alexnet_w3_mlp_simclrhn_probe1,1,423,NaN,keyboard,bicycle,5,0423_lp_dnn_5_bicycle_10_n03792782_6159.png,n03792782_6159.png,0.0,-1.8454853,-0.3992766,-1.022624
alexnet_w3_mlp_simclrhn_probe1,1,424,NaN,bird,elephant,7,0424_lp_dnn_7_elephant_10_n02504458_1336.png,n02504458_1336.png,0.0,-1.9159615,-0.7832527,-0.80094606
alexnet_w3_mlp_simclrhn_probe1,1,425,NaN,keyboard,bicycle,10,0425_lp_dnn_10_bicycle_10_n02835271_8597.png,n02835271_8597.png,0.0,-2.7601435,-0.8640291,-1.3407553
alexnet_w3_mlp_simclrhn_probe1,1,426,NaN,keyboard,keyboard,3,0426_lp_dnn_3_keyboard_10_n04505470_3615.png,n04505470_3615.png,1.0,0.73213434,-0.6497208,0.97711915
alexnet_w3_mlp_simclrhn_probe1,1,427,NaN,keyboard,dog,7,0427_lp_dnn_7_dog_10_n02090721_7040.png,n02090721_7040.png,0.0,-2.0301423,-0.62223583,-0.99554026
alexnet_w3_mlp_simclrhn_probe1,1,428,NaN,cat,cat,0,0428_lp_dnn_0_cat_10_n02124075_17347.png,n02124075_17347.png,1.0,7.5886497,-2.8169587,7.3578763
alexnet_w3_mlp_simclrhn_probe1,1,429,NaN,keyboard,keyboard,0,0429_lp_dnn_0_keyboard_10_n03085013_23018.png,n03085013_23018.png,1.0,0.3765521,0.34345776,0.023401238
alexnet_w3_mlp_simclrhn_probe1,1,430,NaN,clock,car,40,0430_lp_dnn_40_car_10_n03100240_5018.png,n03100240_5018.png,0.0,-2.0903237,-0.49670145,-1.1268611
alexnet_w3_mlp_simclrhn_probe1,1,431,NaN,clock,dog,40,0431_lp_dnn_40_dog_10_n02105056_12631.png,n02105056_12631.png,0.0,-2.5484543,-0.2555776,-1.6213087
alexnet_w3_mlp_simclrhn_probe1,1,432,NaN,clock,knife,15,0432_lp_dnn_15_knife_10_n03041632_27848.png,n03041632_27848.png,0.0,-1.1728675,-0.6839892,-0.34568918
alexnet_w3_mlp_simclrhn_probe1,1,433,NaN,keyboard,keyboard,3,0433_lp_dnn_3_keyboard_10_n04505470_4432.png,n04505470_4432.png,1.0,1.9210157,-0.12519698,1.4468908
alexnet_w3_mlp_simclrhn_probe1,1,434,NaN,keyboard,bear,15,0434_lp_dnn_15_bear_10_n02132136_786.png,n02132136_786.png,0.0,-2.47967,-0.91669863,-1.1051877
alexnet_w3_mlp_simclrhn_probe1,1,435,NaN,bird,truck,15,0435_lp_dnn_15_truck_10_n03796401_10519.png,n03796401_10519.png,0.0,-3.535555,-0.9321386,-1.8408933
alexnet_w3_mlp_simclrhn_probe1,1,436,NaN,keyboard,airplane,5,0436_lp_dnn_5_airplane_10_n02690373_9086.png,n02690373_9086.png,0.0,-1.4399302,-0.41444018,-0.725131
alexnet_w3_mlp_simclrhn_probe1,1,437,NaN,bicycle,boat,0,0437_lp_dnn_0_boat_10_n02951358_512.png,n02951358_512.png,0.0,-1.101249,2.0768313,-2.2472422
alexnet_w3_mlp_simclrhn_probe1,1,438,NaN,keyboard,bear,10,0438_lp_dnn_10_bear_10_n02132136_10468.png,n02132136_10468.png,0.0,-3.1670513,-0.5505525,-1.8501441
alexnet_w3_mlp_simclrhn_probe1,1,439,NaN,keyboard,bear,5,0439_lp_dnn_5_bear_10_n02134084_13175.png,n02134084_13175.png,0.0,-2.1711688,-0.5644398,-1.136129
alexnet_w3_mlp_simclrhn_probe1,1,440,NaN,keyboard,dog,10,0440_lp_dnn_10_dog_10_n02088364_2119.png,n02088364_2119.png,0.0,-2.4341853,-0.6418919,-1.2673428
alexnet_w3_mlp_simclrhn_probe1,1,441,NaN,boat,boat,1,0441_lp_dnn_1_boat_10_n04612504_26238.png,n04612504_26238.png,1.0,3.9952648,0.10384554,2.751649
alexnet_w3_mlp_simclrhn_probe1,1,442,NaN,oven,bear,3,0442_lp_dnn_3_bear_10_n02134084_20142.png,n02134084_20142.png,0.0,-0.32959363,-0.29961482,-0.02119822
alexnet_w3_mlp_simclrhn_probe1,1,443,NaN,keyboard,dog,5,0443_lp_dnn_5_dog_10_n02107683_1076.png,n02107683_1076.png,0.0,-2.1675234,-0.20730336,-1.3860849
alexnet_w3_mlp_simclrhn_probe1,1,444,NaN,car,car,3,0444_lp_dnn_3_car_10_n02814533_35386.png,n02814533_35386.png,1.0,0.60580975,0.036322333,0.4026884
alexnet_w3_mlp_simclrhn_probe1,1,445,NaN,bird,bird,3,0445_lp_dnn_3_bird_10_n01531178_15380.png,n01531178_15380.png,1.0,-1.0532243,-1.0880989,0.024660038
alexnet_w3_mlp_simclrhn_probe1,1,446,NaN,keyboard,bear,7,0446_lp_dnn_7_bear_10_n02134084_17529.png,n02134084_17529.png,0.0,-2.8887527,-0.4882734,-1.6973952
alexnet_w3_mlp_simclrhn_probe1,1,447,NaN,keyboard,bicycle,10,0447_lp_dnn_10_bicycle_10_n02835271_22623.png,n02835271_22623.png,0.0,-2.3276205,-0.8199866,-1.0660582
alexnet_w3_mlp_simclrhn_probe1,1,448,NaN,bird,chair,15,0448_lp_dnn_15_chair_10_n02791124_3160.png,n02791124_3160.png,0.0,-2.8572242,-1.0112581,-1.3052952
alexnet_w3_mlp_simclrhn_probe1,1,449,NaN,bottle,bottle,0,0449_lp_dnn_0_bottle_10_n02823428_2422.png,n02823428_2422.png,1.0,8.93825,-0.87313473,6.9376965
alexnet_w3_mlp_simclrhn_probe1,1,450,NaN,keyboard,bear,7,0450_lp_dnn_7_bear_10_n02134084_34902.png,n02134084_34902.png,0.0,-2.0292542,-0.64020497,-0.98220617
alexnet_w3_mlp_simclrhn_probe1,1,451,NaN,clock,bicycle,15,0451_lp_dnn_15_bicycle_10_n02835271_3535.png,n02835271_3535.png,0.0,-2.5556107,-1.0611254,-1.0567607
alexnet_w3_mlp_simclrhn_probe1,1,452,NaN,oven,oven,1,0452_lp_dnn_1_oven_10_n04111531_10640.png,n04111531_10640.png,1.0,3.5487647,-0.20979886,2.6577058
alexnet_w3_mlp_simclrhn_probe1,1,453,NaN,clock,keyboard,40,0453_lp_dnn_40_keyboard_10_n04505470_1338.png,n04505470_1338.png,0.0,-0.8962724,-0.38374686,-0.3624103
alexnet_w3_mlp_simclrhn_probe1,1,454,NaN,chair,keyboard,0,0454_lp_dnn_0_keyboard_10_n03085013_26656.png,n03085013_26656.png,0.0,-0.33295244,0.97263527,-0.92319
alexnet_w3_mlp_simclrhn_probe1,1,455,NaN,keyboard,boat,5,0455_lp_dnn_5_boat_10_n03344393_9575.png,n03344393_9575.png,0.0,-2.5891075,-0.59217983,-1.4120412
alexnet_w3_mlp_simclrhn_probe1,1,456,NaN,boat,boat,1,0456_lp_dnn_1_boat_10_n03344393_4616.png,n03344393_4616.png,1.0,1.737394,-1.6917546,2.4247744
alexnet_w3_mlp_simclrhn_probe1,1,457,NaN,bicycle,bicycle,0,0457_lp_dnn_0_bicycle_10_n02835271_11929.png,n02835271_11929.png,1.0,4.1648183,-2.8554125,4.9640527
alexnet_w3_mlp_simclrhn_probe1,1,458,NaN,keyboard,keyboard,3,0458_lp_dnn_3_keyboard_10_n03085013_20515.png,n03085013_20515.png,1.0,2.0727298,-0.33652827,1.7036028
alexnet_w3_mlp_simclrhn_probe1,1,459,NaN,clock,dog,40,0459_lp_dnn_40_dog_10_n02088364_3791.png,n02088364_3791.png,0.0,-2.002782,-0.31188646,-1.1956438
alexnet_w3_mlp_simclrhn_probe1,1,460,NaN,airplane,airplane,0,0460_lp_dnn_0_airplane_10_n02690373_10114.png,n02690373_10114.png,1.0,11.677262,2.8777022,6.222229
alexnet_w3_mlp_simclrhn_probe1,1,461,NaN,keyboard,airplane,10,0461_lp_dnn_10_airplane_10_n02690373_8543.png,n02690373_8543.png,0.0,-1.9727993,-0.87223494,-0.77821654
alexnet_w3_mlp_simclrhn_probe1,1,462,NaN,keyboard,chair,7,0462_lp_dnn_7_chair_10_n04429376_14967.png,n04429376_14967.png,0.0,-1.8537967,-0.15493356,-1.2012777
alexnet_w3_mlp_simclrhn_probe1,1,463,NaN,keyboard,cat,15,0463_lp_dnn_15_cat_10_n02125311_24439.png,n02125311_24439.png,0.0,-2.0513728,-0.92626697,-0.79557
alexnet_w3_mlp_simclrhn_probe1,1,464,NaN,keyboard,truck,5,0464_lp_dnn_5_truck_10_n03417042_4665.png,n03417042_4665.png,0.0,-2.6025796,-0.46658662,-1.5103751
alexnet_w3_mlp_simclrhn_probe1,1,465,NaN,clock,elephant,40,0465_lp_dnn_40_elephant_10_n02504013_4044.png,n02504013_4044.png,0.0,-2.3537796,-0.5053552,-1.3070334
alexnet_w3_mlp_simclrhn_probe1,1,466,NaN,bird,bird,1,0466_lp_dnn_1_bird_10_n01843065_3596.png,n01843065_3596.png,1.0,1.980068,-4.24984,4.4052105
alexnet_w3_mlp_simclrhn_probe1,1,467,NaN,bird,bird,10,0467_lp_dnn_10_bird_10_n02011460_17499.png,n02011460_17499.png,1.0,-0.8306966,-0.9244966,0.066326626
alexnet_w3_mlp_simclrhn_probe1,1,468,NaN,elephant,elephant,0,0468_lp_dnn_0_elephant_10_n02504458_7506.png,n02504458_7506.png,1.0,4.756096,-1.273255,4.263395
alexnet_w3_mlp_simclrhn_probe1,1,469,NaN,clock,keyboard,40,0469_lp_dnn_40_keyboard_10_n03085013_21955.png,n03085013_21955.png,0.0,-1.1889112,-0.54257494,-0.45702875
alexnet_w3_mlp_simclrhn_probe1,1,470,NaN,clock,clock,40,0470_lp_dnn_40_clock_10_n02708093_7810.png,n02708093_7810.png,1.0,-0.41391015,-0.6521858,0.16848633
alexnet_w3_mlp_simclrhn_probe1,1,471,NaN,clock,car,40,0471_lp_dnn_40_car_10_n02814533_7984.png,n02814533_7984.png,0.0,-1.9303416,-0.5290868,-0.99083674
alexnet_w3_mlp_simclrhn_probe1,1,472,NaN,keyboard,dog,5,0472_lp_dnn_5_dog_10_n02106382_1806.png,n02106382_1806.png,0.0,-1.7698139,-0.6706364,-0.77723587
alexnet_w3_mlp_simclrhn_probe1,1,473,NaN,keyboard,chair,15,0473_lp_dnn_15_chair_10_n02791124_3890.png,n02791124_3890.png,0.0,-2.796179,-0.95087796,-1.304825
alexnet_w3_mlp_simclrhn_probe1,1,474,NaN,keyboard,elephant,7,0474_lp_dnn_7_elephant_10_n02504013_16929.png,n02504013_16929.png,0.0,-2.5756278,-0.42464015,-1.520978
alexnet_w3_mlp_simclrhn_probe1,1,475,NaN,keyboard,elephant,7,0475_lp_dnn_7_elephant_10_n02504013_8052.png,n02504013_8052.png,0.0,-2.221004,-0.43572414,-1.2623836
alexnet_w3_mlp_simclrhn_probe1,1,476,NaN,bear,bear,1,0476_lp_dnn_1_bear_10_n02132136_1584.png,n02132136_1584.png,1.0,2.2471035,0.35344848,1.3390163
alexnet_w3_mlp_simclrhn_probe1,1,477,NaN,keyboard,keyboard,1,0477_lp_dnn_1_keyboard_10_n04505470_532.png,n04505470_532.png,1.0,5.2131515,0.087623715,3.6242955
alexnet_w3_mlp_simclrhn_probe1,1,478,NaN,airplane,airplane,1,0478_lp_dnn_1_airplane_10_n02690373_3988.png,n02690373_3988.png,1.0,8.188711,1.9221194,4.43115
alexnet_w3_mlp_simclrhn_probe1,1,479,NaN,bird,bicycle,15,0479_lp_dnn_15_bicycle_10_n03792782_13051.png,n03792782_13051.png,0.0,-2.5552635,-0.856766,-1.2010192
alexnet_w3_mlp_simclrhn_probe1,1,480,NaN,bottle,bear,3,0480_lp_dnn_3_bear_10_n02134084_4818.png,n02134084_4818.png,0.0,-1.2979312,-1.1082078,-0.13415469
alexnet_w3_mlp_simclrhn_probe1,1,481,NaN,keyboard,boat,10,0481_lp_dnn_10_boat_10_n02951358_9146.png,n02951358_9146.png,0.0,-2.9944284,-0.8251618,-1.5339032
alexnet_w3_mlp_simclrhn_probe1,1,482,NaN,clock,keyboard,40,0482_lp_dnn_40_keyboard_10_n03085013_19317.png,n03085013_19317.png,0.0,-1.1033435,-0.48064622,-0.44031346
alexnet_w3_mlp_simclrhn_probe1,1,483,NaN,clock,bicycle,40,0483_lp_dnn_40_bicycle_10_n03792782_17666.png,n03792782_17666.png,0.0,-1.8206034,-0.46479854,-0.9586988
alexnet_w3_mlp_simclrhn_probe1,1,484,NaN,clock,bear,40,0484_lp_dnn_40_bear_10_n02133161_20090.png,n02133161_20090.png,0.0,-2.1557,-0.4174169,-1.2291517
alexnet_w3_mlp_simclrhn_probe1,1,485,NaN,oven,bottle,3,0485_lp_dnn_3_bottle_10_n03937543_11101.png,n03937543_11101.png,0.0,-1.2221597,-0.635128,-0.4150941
alexnet_w3_mlp_simclrhn_probe1,1,486,NaN,keyboard,bear,7,0486_lp_dnn_7_bear_10_n02133161_2281.png,n02133161_2281.png,0.0,-1.9981227,-0.7468107,-0.8848112
alexnet_w3_mlp_simclrhn_probe1,1,487,NaN,bottle,airplane,10,0487_lp_dnn_10_airplane_10_n02690373_8813.png,n02690373_8813.png,0.0,-2.108539,-0.89457506,-0.8584022
alexnet_w3_mlp_simclrhn_probe1,1,488,NaN,clock,boat,40,0488_lp_dnn_40_boat_10_n03662601_33625.png,n03662601_33625.png,0.0,-1.3493874,-0.26661405,-0.7656364
alexnet_w3_mlp_simclrhn_probe1,1,489,NaN,clock,cat,40,0489_lp_dnn_40_cat_10_n02124075_9066.png,n02124075_9066.png,0.0,-1.2186073,-0.4112136,-0.57091355
alexnet_w3_mlp_simclrhn_probe1,1,490,NaN,oven,oven,3,0490_lp_dnn_3_oven_10_n04111531_10216.png,n04111531_10216.png,1.0,-0.22653994,-0.31662878,0.063702434
alexnet_w3_mlp_simclrhn_probe1,1,491,NaN,bird,bird,7,0491_lp_dnn_7_bird_10_n01614925_1097.png,n01614925_1097.png,1.0,-0.77745837,-0.9084315,0.09261197
alexnet_w3_mlp_simclrhn_probe1,1,492,NaN,bird,bird,0,0492_lp_dnn_0_bird_10_n02017213_1163.png,n02017213_1163.png,1.0,0.4784495,-4.5570974,3.5606694
alexnet_w3_mlp_simclrhn_probe1,1,493,NaN,clock,oven,40,0493_lp_dnn_40_oven_10_n04111531_283.png,n04111531_283.png,0.0,-1.7286427,-0.5490413,-0.8341042
alexnet_w3_mlp_simclrhn_probe1,1,494,NaN,keyboard,truck,15,0494_lp_dnn_15_truck_10_n04467665_39317.png,n04467665_39317.png,0.0,-3.2808418,-0.8129246,-1.7450811
alexnet_w3_mlp_simclrhn_probe1,1,495,NaN,dog,dog,1,0495_lp_dnn_1_dog_10_n02093754_5037.png,n02093754_5037.png,1.0,0.85475916,-2.2249515,2.1776843
alexnet_w3_mlp_simclrhn_probe1,1,496,NaN,clock,bicycle,40,0496_lp_dnn_40_bicycle_10_n02835271_2580.png,n02835271_2580.png,0.0,-2.4588723,-0.5967156,-1.3167436
alexnet_w3_mlp_simclrhn_probe1,1,497,NaN,keyboard,airplane,7,0497_lp_dnn_7_airplane_10_n02690373_2564.png,n02690373_2564.png,0.0,-2.0025306,-0.7703117,-0.87131035
alexnet_w3_mlp_simclrhn_probe1,1,498,NaN,clock,truck,40,0498_lp_dnn_40_truck_10_n04467665_62626.png,n04467665_62626.png,0.0,-2.2892814,-0.38582778,-1.345945
alexnet_w3_mlp_simclrhn_probe1,1,499,NaN,keyboard,chair,10,0499_lp_dnn_10_chair_10_n04429376_2450.png,n04429376_2450.png,0.0,-1.948971,-0.25788236,-1.1957803
alexnet_w3_mlp_simclrhn_probe1,1,500,NaN,keyboard,keyboard,0,0500_lp_dnn_0_keyboard_10_n04505470_4044.png,n04505470_4044.png,1.0,12.126645,-0.60890436,9.005394
alexnet_w3_mlp_simclrhn_probe1,1,501,NaN,keyboard,oven,15,0501_lp_dnn_15_oven_10_n04111531_8269.png,n04111531_8269.png,0.0,-1.8777541,-0.4691548,-0.9960301
alexnet_w3_mlp_simclrhn_probe1,1,502,NaN,keyboard,clock,7,0502_lp_dnn_7_clock_10_n02708093_6890.png,n02708093_6890.png,0.0,-0.6135797,-0.2226296,-0.27644345
alexnet_w3_mlp_simclrhn_probe1,1,503,NaN,clock,oven,40,0503_lp_dnn_40_oven_10_n04111531_15947.png,n04111531_15947.png,0.0,-1.794793,-0.6032601,-0.842541
alexnet_w3_mlp_simclrhn_probe1,1,504,NaN,bird,bicycle,15,0504_lp_dnn_15_bicycle_10_n03792782_24734.png,n03792782_24734.png,0.0,-2.9512353,-0.95715785,-1.4100257
alexnet_w3_mlp_simclrhn_probe1,1,505,NaN,clock,chair,40,0505_lp_dnn_40_chair_10_n04099969_10401.png,n04099969_10401.png,0.0,-1.600802,-0.494987,-0.78192925
alexnet_w3_mlp_simclrhn_probe1,1,506,NaN,elephant,elephant,3,0506_lp_dnn_3_elephant_10_n02504458_2994.png,n02504458_2994.png,1.0,0.5077438,-0.798362,0.9235563
alexnet_w3_mlp_simclrhn_probe1,1,507,NaN,elephant,dog,0,0507_lp_dnn_0_dog_10_n02108422_1164.png,n02108422_1164.png,0.0,-1.6318147,-0.9902434,-0.45365945
alexnet_w3_mlp_simclrhn_probe1,1,508,NaN,keyboard,clock,5,0508_lp_dnn_5_clock_10_n04548280_2421.png,n04548280_2421.png,0.0,-0.097171456,-0.00969772,-0.06185327
alexnet_w3_mlp_simclrhn_probe1,1,509,NaN,keyboard,oven,5,0509_lp_dnn_5_oven_10_n04111531_2930.png,n04111531_2930.png,0.0,-1.5445825,-0.9140245,-0.44587186
alexnet_w3_mlp_simclrhn_probe1,1,510,NaN,bear,bear,1,0510_lp_dnn_1_bear_10_n02132136_4271.png,n02132136_4271.png,1.0,2.8939002,0.06842119,1.9979154
alexnet_w3_mlp_simclrhn_probe1,1,511,NaN,keyboard,oven,7,0511_lp_dnn_7_oven_10_n04111531_8603.png,n04111531_8603.png,0.0,-1.7743676,-0.30674928,-1.0377628
alexnet_w3_mlp_simclrhn_probe1,1,512,NaN,clock,bicycle,40,0512_lp_dnn_40_bicycle_10_n02835271_16850.png,n02835271_16850.png,0.0,-2.508718,-0.45763218,-1.4503368
alexnet_w3_mlp_simclrhn_probe1,1,513,NaN,knife,knife,3,0513_lp_dnn_3_knife_10_n03041632_47410.png,n03041632_47410.png,1.0,-0.23806919,-0.93645245,0.49383155
alexnet_w3_mlp_simclrhn_probe1,1,514,NaN,bird,elephant,15,0514_lp_dnn_15_elephant_10_n02504458_1000.png,n02504458_1000.png,0.0,-2.6885004,-0.8153852,-1.3244925
alexnet_w3_mlp_simclrhn_probe1,1,515,NaN,cat,cat,1,0515_lp_dnn_1_cat_10_n02124075_8884.png,n02124075_8884.png,1.0,2.0164738,-2.7802894,3.391824
alexnet_w3_mlp_simclrhn_probe1,1,516,NaN,bird,bird,7,0516_lp_dnn_7_bird_10_n01622779_1370.png,n01622779_1370.png,1.0,-0.8542818,-0.8580171,0.0026412588
alexnet_w3_mlp_simclrhn_probe1,1,517,NaN,cat,cat,0,0517_lp_dnn_0_cat_10_n02123045_8215.png,n02123045_8215.png,1.0,5.352628,-4.998317,7.3192234
alexnet_w3_mlp_simclrhn_probe1,1,518,NaN,keyboard,car,5,0518_lp_dnn_5_car_10_n03100240_3083.png,n03100240_3083.png,0.0,-2.295741,-0.17627195,-1.4986911
alexnet_w3_mlp_simclrhn_probe1,1,519,NaN,bear,bicycle,3,0519_lp_dnn_3_bicycle_10_n03792782_9280.png,n03792782_9280.png,0.0,-1.1596577,-0.5118736,-0.45805255
alexnet_w3_mlp_simclrhn_probe1,1,520,NaN,keyboard,bird,5,0520_lp_dnn_5_bird_10_n01819313_3505.png,n01819313_3505.png,0.0,-1.327002,-0.24835965,-0.76271534
alexnet_w3_mlp_simclrhn_probe1,1,521,NaN,bird,bird,15,0521_lp_dnn_15_bird_10_n01531178_5130.png,n01531178_5130.png,1.0,-0.885762,-1.0301206,0.10207697
alexnet_w3_mlp_simclrhn_probe1,1,522,NaN,clock,clock,15,0522_lp_dnn_15_clock_10_n02708093_2867.png,n02708093_2867.png,1.0,-0.89591384,-0.91173136,0.011184678
alexnet_w3_mlp_simclrhn_probe1,1,523,NaN,keyboard,bear,7,0523_lp_dnn_7_bear_10_n02134418_258.png,n02134418_258.png,0.0,-3.6608222,0.12820771,-2.6792488
alexnet_w3_mlp_simclrhn_probe1,1,524,NaN,keyboard,bottle,1,0524_lp_dnn_1_bottle_10_n02823428_8280.png,n02823428_8280.png,0.0,-0.65359527,0.6667527,-0.93362707
alexnet_w3_mlp_simclrhn_probe1,1,525,NaN,keyboard,elephant,7,0525_lp_dnn_7_elephant_10_n02504013_24811.png,n02504013_24811.png,0.0,-2.70885,-0.5833335,-1.5029671
alexnet_w3_mlp_simclrhn_probe1,1,526,NaN,clock,bicycle,40,0526_lp_dnn_40_bicycle_10_n02835271_14499.png,n02835271_14499.png,0.0,-2.161099,-0.56105703,-1.1314005
alexnet_w3_mlp_simclrhn_probe1,1,527,NaN,bottle,bottle,0,0527_lp_dnn_0_bottle_10_n02823428_14536.png,n02823428_14536.png,1.0,4.175016,2.7787075,0.9873392
alexnet_w3_mlp_simclrhn_probe1,1,528,NaN,keyboard,knife,5,0528_lp_dnn_5_knife_10_n03041632_21723.png,n03041632_21723.png,0.0,-1.7829831,-0.44997326,-0.94258034
alexnet_w3_mlp_simclrhn_probe1,1,529,NaN,keyboard,cat,10,0529_lp_dnn_10_cat_10_n02123159_8396.png,n02123159_8396.png,0.0,-1.928682,-0.63166606,-0.91712874
alexnet_w3_mlp_simclrhn_probe1,1,530,NaN,clock,bottle,40,0530_lp_dnn_40_bottle_10_n02823428_3486.png,n02823428_3486.png,0.0,-0.83155435,-0.4857216,-0.24454069
alexnet_w3_mlp_simclrhn_probe1,1,531,NaN,bird,bird,0,0531_lp_dnn_0_bird_10_n01514859_12705.png,n01514859_12705.png,1.0,-1.0008266,-1.7423351,0.52432567
alexnet_w3_mlp_simclrhn_probe1,1,532,NaN,keyboard,dog,7,0532_lp_dnn_7_dog_10_n02097047_911.png,n02097047_911.png,0.0,-2.6638703,-0.68822885,-1.3969895
alexnet_w3_mlp_simclrhn_probe1,1,533,NaN,keyboard,keyboard,10,0533_lp_dnn_10_keyboard_10_n04505470_3132.png,n04505470_3132.png,1.0,-0.44175875,-0.98582804,0.38471508
alexnet_w3_mlp_simclrhn_probe1,1,534,NaN,airplane,airplane,1,0534_lp_dnn_1_airplane_10_n02690373_11908.png,n02690373_11908.png,1.0,1.0317097,-0.7600968,1.2669985
alexnet_w3_mlp_simclrhn_probe1,1,535,NaN,clock,elephant,40,0535_lp_dnn_40_elephant_10_n02504458_5169.png,n02504458_5169.png,0.0,-2.1673236,-0.5150034,-1.1683668
alexnet_w3_mlp_simclrhn_probe1,1,536,NaN,keyboard,bottle,15,0536_lp_dnn_15_bottle_10_n03937543_5375.png,n03937543_5375.png,0.0,-0.9701175,-0.5644099,-0.2868786
alexnet_w3_mlp_simclrhn_probe1,1,537,NaN,knife,bottle,1,0537_lp_dnn_1_bottle_10_n04591713_6138.png,n04591713_6138.png,0.0,-3.0819228,-2.2742805,-0.5710893
alexnet_w3_mlp_simclrhn_probe1,1,538,NaN,clock,bottle,15,0538_lp_dnn_15_bottle_10_n04557648_12559.png,n04557648_12559.png,0.0,-0.72132343,-0.63194996,-0.063196585
alexnet_w3_mlp_simclrhn_probe1,1,539,NaN,clock,clock,40,0539_lp_dnn_40_clock_10_n03196217_3903.png,n03196217_3903.png,1.0,-0.37631395,-0.635127,0.18300846
alexnet_w3_mlp_simclrhn_probe1,1,540,NaN,keyboard,keyboard,15,0540_lp_dnn_15_keyboard_10_n04505470_4732.png,n04505470_4732.png,1.0,-1.0247462,-1.1132706,0.06259625
alexnet_w3_mlp_simclrhn_probe1,1,541,NaN,clock,knife,40,0541_lp_dnn_40_knife_10_n03041632_8468.png,n03041632_8468.png,0.0,-0.7543205,-0.400381,-0.25027302
alexnet_w3_mlp_simclrhn_probe1,1,542,NaN,keyboard,chair,3,0542_lp_dnn_3_chair_10_n02791124_14040.png,n02791124_14040.png,0.0,-0.7933551,0.09942682,-0.63129216
alexnet_w3_mlp_simclrhn_probe1,1,543,NaN,knife,boat,15,0543_lp_dnn_15_boat_10_n04273569_3095.png,n04273569_3095.png,0.0,-2.0295742,-0.7883547,-0.87767476
alexnet_w3_mlp_simclrhn_probe1,1,544,NaN,bird,bird,1,0544_lp_dnn_1_bird_10_n02002724_18548.png,n02002724_18548.png,1.0,1.6957641,-3.7512834,3.851644
alexnet_w3_mlp_simclrhn_probe1,1,545,NaN,bird,oven,10,0545_lp_dnn_10_oven_10_n04111531_8537.png,n04111531_8537.png,0.0,-1.8283176,-0.64764464,-0.8348619
alexnet_w3_mlp_simclrhn_probe1,1,546,NaN,clock,chair,40,0546_lp_dnn_40_chair_10_n02791124_1935.png,n02791124_1935.png,0.0,-1.7017566,-0.47634342,-0.866498
alexnet_w3_mlp_simclrhn_probe1,1,547,NaN,keyboard,dog,5,0547_lp_dnn_5_dog_10_n02102040_1660.png,n02102040_1660.png,0.0,-2.2993448,-0.8074944,-1.0548975
alexnet_w3_mlp_simclrhn_probe1,1,548,NaN,elephant,bear,0,0548_lp_dnn_0_bear_10_n02134084_7790.png,n02134084_7790.png,0.0,1.8025702,3.862327,-1.456468
alexnet_w3_mlp_simclrhn_probe1,1,549,NaN,keyboard,knife,10,0549_lp_dnn_10_knife_10_n03041632_17091.png,n03041632_17091.png,0.0,-1.3534219,-0.41929772,-0.66052556
alexnet_w3_mlp_simclrhn_probe1,1,550,NaN,keyboard,keyboard,5,0550_lp_dnn_5_keyboard_10_n04505470_9331.png,n04505470_9331.png,1.0,-0.36601222,-0.6452299,0.1974367
alexnet_w3_mlp_simclrhn_probe1,1,551,NaN,keyboard,airplane,5,0551_lp_dnn_5_airplane_10_n02690373_6887.png,n02690373_6887.png,0.0,-1.2515842,-0.7269479,-0.37097386
alexnet_w3_mlp_simclrhn_probe1,1,552,NaN,oven,chair,1,0552_lp_dnn_1_chair_10_n02791124_2540.png,n02791124_2540.png,0.0,-1.1088791,0.44805425,-1.1009182
alexnet_w3_mlp_simclrhn_probe1,1,553,NaN,airplane,truck,3,0553_lp_dnn_3_truck_10_n03796401_23774.png,n03796401_23774.png,0.0,-0.46898594,-0.40578678,-0.044688556
alexnet_w3_mlp_simclrhn_probe1,1,554,NaN,clock,knife,40,0554_lp_dnn_40_knife_10_n03041632_28201.png,n03041632_28201.png,0.0,-0.7085223,-0.5652662,-0.10129738
alexnet_w3_mlp_simclrhn_probe1,1,555,NaN,keyboard,clock,5,0555_lp_dnn_5_clock_10_n04548280_3563.png,n04548280_3563.png,0.0,-0.5299271,-0.05884351,-0.3331064
alexnet_w3_mlp_simclrhn_probe1,1,556,NaN,bicycle,bicycle,0,0556_lp_dnn_0_bicycle_10_n03792782_8287.png,n03792782_8287.png,1.0,9.28834,-3.8984325,9.324456
alexnet_w3_mlp_simclrhn_probe1,1,557,NaN,clock,clock,3,0557_lp_dnn_3_clock_10_n04548280_4225.png,n04548280_4225.png,1.0,0.26234546,-0.109053336,0.26261863
alexnet_w3_mlp_simclrhn_probe1,1,558,NaN,car,car,0,0558_lp_dnn_0_car_10_n04285008_11931.png,n04285008_11931.png,1.0,14.316548,5.1809993,6.4598093
alexnet_w3_mlp_simclrhn_probe1,1,559,NaN,keyboard,elephant,5,0559_lp_dnn_5_elephant_10_n02504013_9396.png,n02504013_9396.png,0.0,-2.382558,-0.40072066,-1.4013708
alexnet_w3_mlp_simclrhn_probe1,1,560,NaN,clock,boat,40,0560_lp_dnn_40_boat_10_n03344393_2915.png,n03344393_2915.png,0.0,-1.6432549,-0.47110724,-0.8288336
alexnet_w3_mlp_simclrhn_probe1,1,561,NaN,keyboard,bicycle,7,0561_lp_dnn_7_bicycle_10_n03792782_9692.png,n03792782_9692.png,0.0,-3.13685,-0.49239275,-1.8699137
alexnet_w3_mlp_simclrhn_probe1,1,562,NaN,keyboard,chair,7,0562_lp_dnn_7_chair_10_n02791124_57.png,n02791124_57.png,0.0,-2.2479045,0.0365825,-1.6153762
alexnet_w3_mlp_simclrhn_probe1,1,563,NaN,clock,car,40,0563_lp_dnn_40_car_10_n04285008_3185.png,n04285008_3185.png,0.0,-2.6486447,-0.92914224,-1.2158718
alexnet_w3_mlp_simclrhn_probe1,1,564,NaN,boat,boat,1,0564_lp_dnn_1_boat_10_n02951358_34917.png,n02951358_34917.png,1.0,0.38994274,-0.15236841,0.38347188
alexnet_w3_mlp_simclrhn_probe1,1,565,NaN,clock,clock,0,0565_lp_dnn_0_clock_10_n02708093_2762.png,n02708093_2762.png,1.0,7.6856475,-0.7290321,5.950077
alexnet_w3_mlp_simclrhn_probe1,1,566,NaN,keyboard,knife,5,0566_lp_dnn_5_knife_10_n03041632_4879.png,n03041632_4879.png,0.0,-0.61359704,-0.3955042,-0.15421492
alexnet_w3_mlp_simclrhn_probe1,1,567,NaN,car,car,0,0567_lp_dnn_0_car_10_n02814533_4689.png,n02814533_4689.png,1.0,11.505322,7.474007,2.8505704
alexnet_w3_mlp_simclrhn_probe1,1,568,NaN,boat,boat,1,0568_lp_dnn_1_boat_10_n02951358_2445.png,n02951358_2445.png,1.0,1.127782,-2.9094186,2.8547318
alexnet_w3_mlp_simclrhn_probe1,1,569,NaN,clock,truck,40,0569_lp_dnn_40_truck_10_n03417042_10038.png,n03417042_10038.png,0.0,-2.60799,-0.57667756,-1.4363549
alexnet_w3_mlp_simclrhn_probe1,1,570,NaN,keyboard,car,10,0570_lp_dnn_10_car_10_n02814533_32924.png,n02814533_32924.png,0.0,-2.8261616,-0.5817232,-1.5870576
alexnet_w3_mlp_simclrhn_probe1,1,571,NaN,keyboard,bottle,10,0571_lp_dnn_10_bottle_10_n02823428_5135.png,n02823428_5135.png,0.0,-1.0920491,-0.91544056,-0.12488111
alexnet_w3_mlp_simclrhn_probe1,1,572,NaN,oven,keyboard,1,0572_lp_dnn_1_keyboard_10_n03085013_9066.png,n03085013_9066.png,0.0,1.3860946,1.6210372,-0.16612956
alexnet_w3_mlp_simclrhn_probe1,1,573,NaN,keyboard,oven,10,0573_lp_dnn_10_oven_10_n04111531_11279.png,n04111531_11279.png,0.0,-1.5964986,-0.64524543,-0.6726376
alexnet_w3_mlp_simclrhn_probe1,1,574,NaN,keyboard,car,10,0574_lp_dnn_10_car_10_n04285008_12182.png,n04285008_12182.png,0.0,-2.9434948,-0.5828013,-1.6692624
alexnet_w3_mlp_simclrhn_probe1,1,575,NaN,bear,bear,0,0575_lp_dnn_0_bear_10_n02133161_5681.png,n02133161_5681.png,1.0,1.8584847,-1.6771777,2.5000908
alexnet_w3_mlp_simclrhn_probe1,1,576,NaN,keyboard,dog,5,0576_lp_dnn_5_dog_10_n02108915_5514.png,n02108915_5514.png,0.0,-1.8965155,-0.6826347,-0.85834336
alexnet_w3_mlp_simclrhn_probe1,1,577,NaN,keyboard,airplane,15,0577_lp_dnn_15_airplane_10_n02690373_7239.png,n02690373_7239.png,0.0,-1.7411501,-0.8269233,-0.646456
alexnet_w3_mlp_simclrhn_probe1,1,578,NaN,dog,dog,0,0578_lp_dnn_0_dog_10_n02094258_4979.png,n02094258_4979.png,1.0,2.1249647,-1.3968703,2.4903133
alexnet_w3_mlp_simclrhn_probe1,1,579,NaN,oven,chair,3,0579_lp_dnn_3_chair_10_n04429376_15078.png,n04429376_15078.png,0.0,-0.38371855,0.47779834,-0.60918444
alexnet_w3_mlp_simclrhn_probe1,1,580,NaN,clock,clock,40,0580_lp_dnn_40_clock_10_n02708093_8276.png,n02708093_8276.png,1.0,-0.4084355,-0.6871603,0.19708821
alexnet_w3_mlp_simclrhn_probe1,1,581,NaN,keyboard,keyboard,3,0581_lp_dnn_3_keyboard_10_n04505470_3947.png,n04505470_3947.png,1.0,1.2395597,0.053169165,0.8389048
alexnet_w3_mlp_simclrhn_probe1,1,582,NaN,bottle,car,15,0582_lp_dnn_15_car_10_n03100240_2996.png,n03100240_2996.png,0.0,-2.9660826,-1.0655228,-1.3438988
alexnet_w3_mlp_simclrhn_probe1,1,583,NaN,keyboard,cat,10,0583_lp_dnn_10_cat_10_n02123159_3226.png,n02123159_3226.png,0.0,-2.1813152,-0.5220436,-1.1732823
alexnet_w3_mlp_simclrhn_probe1,1,584,NaN,keyboard,truck,7,0584_lp_dnn_7_truck_10_n03417042_19905.png,n03417042_19905.png,0.0,-3.2325468,-0.73344225,-1.7671337
alexnet_w3_mlp_simclrhn_probe1,1,585,NaN,bird,bird,0,0585_lp_dnn_0_bird_10_n02009229_4838.png,n02009229_4838.png,1.0,-0.6161843,-1.0059931,0.27563646
alexnet_w3_mlp_simclrhn_probe1,1,586,NaN,oven,oven,1,0586_lp_dnn_1_oven_10_n04111531_14383.png,n04111531_14383.png,1.0,0.4199038,-0.67385215,0.7734023
alexnet_w3_mlp_simclrhn_probe1,1,587,NaN,bird,bear,5,0587_lp_dnn_5_bear_10_n02132136_1152.png,n02132136_1152.png,0.0,-1.826329,-0.9618074,-0.61130905
alexnet_w3_mlp_simclrhn_probe1,1,588,NaN,cat,cat,0,0588_lp_dnn_0_cat_10_n02123597_10952.png,n02123597_10952.png,1.0,-0.48113692,-2.1251218,1.1624728
alexnet_w3_mlp_simclrhn_probe1,1,589,NaN,boat,boat,0,0589_lp_dnn_0_boat_10_n04273569_12318.png,n04273569_12318.png,1.0,4.752851,2.5294068,1.5722125
alexnet_w3_mlp_simclrhn_probe1,1,590,NaN,clock,bottle,40,0590_lp_dnn_40_bottle_10_n03937543_1391.png,n03937543_1391.png,0.0,-0.8471793,-0.42575952,-0.29798877
alexnet_w3_mlp_simclrhn_probe1,1,591,NaN,keyboard,dog,10,0591_lp_dnn_10_dog_10_n02091032_9464.png,n02091032_9464.png,0.0,-1.9738806,-0.78199774,-0.84278846
alexnet_w3_mlp_simclrhn_probe1,1,592,NaN,keyboard,oven,7,0592_lp_dnn_7_oven_10_n04111531_5218.png,n04111531_5218.png,0.0,-2.2266831,0.11369616,-1.654898
alexnet_w3_mlp_simclrhn_probe1,1,593,NaN,keyboard,airplane,5,0593_lp_dnn_5_airplane_10_n02690373_9423.png,n02690373_9423.png,0.0,-2.1457536,0.11141886,-1.5960621
alexnet_w3_mlp_simclrhn_probe1,1,594,NaN,elephant,bird,1,0594_lp_dnn_1_bird_10_n01860187_348.png,n01860187_348.png,0.0,-0.8258743,-0.38108099,-0.3145164
alexnet_w3_mlp_simclrhn_probe1,1,595,NaN,clock,bird,40,0595_lp_dnn_40_bird_10_n02006656_8975.png,n02006656_8975.png,0.0,-1.442321,-0.5444894,-0.6348628
alexnet_w3_mlp_simclrhn_probe1,1,596,NaN,keyboard,oven,10,0596_lp_dnn_10_oven_10_n04111531_7619.png,n04111531_7619.png,0.0,-2.446013,-0.42141908,-1.431604
alexnet_w3_mlp_simclrhn_probe1,1,597,NaN,keyboard,bicycle,3,0597_lp_dnn_3_bicycle_10_n02835271_9202.png,n02835271_9202.png,0.0,-1.209151,-0.6807247,-0.37365386
alexnet_w3_mlp_simclrhn_probe1,1,598,NaN,keyboard,boat,10,0598_lp_dnn_10_boat_10_n03344393_7826.png,n03344393_7826.png,0.0,-2.987576,-0.55948126,-1.7169224
alexnet_w3_mlp_simclrhn_probe1,1,599,NaN,elephant,elephant,3,0599_lp_dnn_3_elephant_10_n02504013_10330.png,n02504013_10330.png,1.0,0.8088595,-0.4597321,0.89702976
alexnet_w3_mlp_simclrhn_probe1,1,600,NaN,keyboard,truck,10,0600_lp_dnn_10_truck_10_n04467665_69202.png,n04467665_69202.png,0.0,-3.10421,-0.40321615,-1.909891
alexnet_w3_mlp_simclrhn_probe1,1,601,NaN,keyboard,keyboard,7,0601_lp_dnn_7_keyboard_10_n04505470_1120.png,n04505470_1120.png,1.0,0.38134792,-0.7199698,0.7787493
alexnet_w3_mlp_simclrhn_probe1,1,602,NaN,keyboard,car,5,0602_lp_dnn_5_car_10_n04285008_434.png,n04285008_434.png,0.0,-2.3655515,-0.46124408,-1.3465487
alexnet_w3_mlp_simclrhn_probe1,1,603,NaN,bear,cat,1,0603_lp_dnn_1_cat_10_n02123597_7592.png,n02123597_7592.png,0.0,-1.768206,-0.8733719,-0.6327433
alexnet_w3_mlp_simclrhn_probe1,1,604,NaN,keyboard,dog,15,0604_lp_dnn_15_dog_10_n02090721_583.png,n02090721_583.png,0.0,-2.5808504,-0.8337693,-1.2353729
alexnet_w3_mlp_simclrhn_probe1,1,605,NaN,oven,knife,1,0605_lp_dnn_1_knife_10_n03041632_86783.png,n03041632_86783.png,0.0,-1.6090695,-0.4068858,-0.85007226
alexnet_w3_mlp_simclrhn_probe1,1,606,NaN,keyboard,dog,10,0606_lp_dnn_10_dog_10_n02112018_11708.png,n02112018_11708.png,0.0,-2.328482,-0.52758455,-1.2734268
alexnet_w3_mlp_simclrhn_probe1,1,607,NaN,bicycle,bird,0,0607_lp_dnn_0_bird_10_n02018795_5662.png,n02018795_5662.png,0.0,-3.4425476,-0.40221804,-2.1498375
alexnet_w3_mlp_simclrhn_probe1,1,608,NaN,bird,elephant,5,0608_lp_dnn_5_elephant_10_n02504013_1088.png,n02504013_1088.png,0.0,-1.0461142,-0.6085595,-0.3093979
alexnet_w3_mlp_simclrhn_probe1,1,609,NaN,keyboard,elephant,5,0609_lp_dnn_5_elephant_10_n02504458_66.png,n02504458_66.png,0.0,-1.7524252,-0.35658148,-0.9870106
alexnet_w3_mlp_simclrhn_probe1,1,610,NaN,keyboard,dog,10,0610_lp_dnn_10_dog_10_n02105056_9099.png,n02105056_9099.png,0.0,-2.4227228,-0.5013876,-1.3585892
alexnet_w3_mlp_simclrhn_probe1,1,611,NaN,keyboard,boat,10,0611_lp_dnn_10_boat_10_n04273569_19699.png,n04273569_19699.png,0.0,-3.5031624,-0.46572742,-2.147791
alexnet_w3_mlp_simclrhn_probe1,1,612,NaN,dog,dog,1,0612_lp_dnn_1_dog_10_n02097047_2376.png,n02097047_2376.png,1.0,3.0751858,0.9027552,1.5361403
alexnet_w3_mlp_simclrhn_probe1,1,613,NaN,boat,boat,1,0613_lp_dnn_1_boat_10_n03662601_11901.png,n03662601_11901.png,1.0,0.91934794,-0.7272701,1.1643349
alexnet_w3_mlp_simclrhn_probe1,1,614,NaN,oven,oven,1,0614_lp_dnn_1_oven_10_n04111531_7667.png,n04111531_7667.png,1.0,0.15048692,-0.13576889,0.20241342
alexnet_w3_mlp_simclrhn_probe1,1,615,NaN,keyboard,knife,10,0615_lp_dnn_10_knife_10_n03041632_24384.png,n03041632_24384.png,0.0,-1.2790813,-0.732277,-0.38664907
alexnet_w3_mlp_simclrhn_probe1,1,616,NaN,keyboard,car,7,0616_lp_dnn_7_car_10_n03100240_1216.png,n03100240_1216.png,0.0,-2.6803343,-0.56055367,-1.4989113
alexnet_w3_mlp_simclrhn_probe1,1,617,NaN,bicycle,bicycle,0,0617_lp_dnn_0_bicycle_10_n03792782_3136.png,n03792782_3136.png,1.0,-1.6790873,-2.452304,0.54674673
alexnet_w3_mlp_simclrhn_probe1,1,618,NaN,keyboard,keyboard,5,0618_lp_dnn_5_keyboard_10_n03085013_26573.png,n03085013_26573.png,1.0,-0.046591133,-0.93222564,0.6262382
alexnet_w3_mlp_simclrhn_probe1,1,619,NaN,clock,chair,0,0619_lp_dnn_0_chair_10_n04429376_7888.png,n04429376_7888.png,0.0,-3.929556,-0.032438338,-2.7556784
alexnet_w3_mlp_simclrhn_probe1,1,620,NaN,keyboard,chair,5,0620_lp_dnn_5_chair_10_n03376595_899.png,n03376595_899.png,0.0,-2.0254595,-0.42878503,-1.1290194
alexnet_w3_mlp_simclrhn_probe1,1,621,NaN,keyboard,bicycle,5,0621_lp_dnn_5_bicycle_10_n02835271_24207.png,n02835271_24207.png,0.0,-2.5302398,-0.110219,-1.7112131
alexnet_w3_mlp_simclrhn_probe1,1,622,NaN,oven,oven,3,0622_lp_dnn_3_oven_10_n04111531_7329.png,n04111531_7329.png,1.0,1.1879189,0.1407702,0.740446
alexnet_w3_mlp_simclrhn_probe1,1,623,NaN,keyboard,oven,5,0623_lp_dnn_5_oven_10_n04111531_12942.png,n04111531_12942.png,0.0,-1.3672045,-0.45919064,-0.64206284
alexnet_w3_mlp_simclrhn_probe1,1,624,NaN,keyboard,bear,15,0624_lp_dnn_15_bear_10_n02134418_1978.png,n02134418_1978.png,0.0,-2.301215,-0.79743093,-1.0633359
alexnet_w3_mlp_simclrhn_probe1,1,625,NaN,clock,cat,40,0625_lp_dnn_40_cat_10_n02123159_5872.png,n02123159_5872.png,0.0,-1.2627355,-0.38206223,-0.6227301
alexnet_w3_mlp_simclrhn_probe1,1,626,NaN,bottle,keyboard,15,0626_lp_dnn_15_keyboard_10_n03085013_18797.png,n03085013_18797.png,0.0,-0.94426256,-0.9411393,-0.0022084948
alexnet_w3_mlp_simclrhn_probe1,1,627,NaN,bottle,airplane,15,0627_lp_dnn_15_airplane_10_n02690373_5496.png,n02690373_5496.png,0.0,-1.3827052,-0.7860322,-0.42191154
alexnet_w3_mlp_simclrhn_probe1,1,628,NaN,bottle,oven,15,0628_lp_dnn_15_oven_10_n04111531_21963.png,n04111531_21963.png,0.0,-2.0570385,-0.9397276,-0.7900582
alexnet_w3_mlp_simclrhn_probe1,1,629,NaN,bottle,bottle,0,0629_lp_dnn_0_bottle_10_n02823428_2918.png,n02823428_2918.png,1.0,8.080949,-5.4379454,9.559302
alexnet_w3_mlp_simclrhn_probe1,1,630,NaN,keyboard,keyboard,10,0630_lp_dnn_10_keyboard_10_n04505470_9570.png,n04505470_9570.png,1.0,-0.47400758,-0.97880745,0.3569474
alexnet_w3_mlp_simclrhn_probe1,1,631,NaN,bird,bird,1,0631_lp_dnn_1_bird_10_n02002556_5977.png,n02002556_5977.png,1.0,0.8695842,-4.068138,3.4914968
alexnet_w3_mlp_simclrhn_probe1,1,632,NaN,clock,airplane,40,0632_lp_dnn_40_airplane_10_n02690373_5961.png,n02690373_5961.png,0.0,-1.4889834,-0.5263201,-0.6807057
alexnet_w3_mlp_simclrhn_probe1,1,633,NaN,clock,clock,3,0633_lp_dnn_3_clock_10_n04548280_5765.png,n04548280_5765.png,1.0,-0.023321716,-0.3094249,0.20230551
alexnet_w3_mlp_simclrhn_probe1,1,634,NaN,keyboard,cat,15,0634_lp_dnn_15_cat_10_n02123597_11940.png,n02123597_11940.png,0.0,-1.8242222,-0.9065206,-0.648913
alexnet_w3_mlp_simclrhn_probe1,1,635,NaN,airplane,airplane,3,0635_lp_dnn_3_airplane_10_n02690373_3993.png,n02690373_3993.png,1.0,0.41987228,-0.4257915,0.5979746
alexnet_w3_mlp_simclrhn_probe1,1,636,NaN,keyboard,chair,7,0636_lp_dnn_7_chair_10_n04099969_3984.png,n04099969_3984.png,0.0,-2.377592,-0.67294824,-1.2053653
alexnet_w3_mlp_simclrhn_probe1,1,637,NaN,airplane,airplane,3,0637_lp_dnn_3_airplane_10_n02690373_939.png,n02690373_939.png,1.0,-0.30124083,-0.65353626,0.24911049
