subj,session,trial,rt,object_response,category,condition,imagename,filename,is_correct,targ_act,max_nontarg_act,decision_margin
alexnet_w1_mlp_simclrhn_probe2,1,1,NaN,clock,chair,40,0001_lp_dnn_40_chair_10_n04099969_7577.png,n04099969_7577.png,0.0,-0.6760664,0.13209303,-0.571455
alexnet_w1_mlp_simclrhn_probe2,1,2,NaN,clock,cat,40,0002_lp_dnn_40_cat_10_n02124075_12815.png,n02124075_12815.png,0.0,-0.5336217,0.19317384,-0.5139221
alexnet_w1_mlp_simclrhn_probe2,1,3,NaN,keyboard,truck,5,0003_lp_dnn_5_truck_10_n04467665_34253.png,n04467665_34253.png,0.0,-1.152258,0.17696384,-0.93990177
alexnet_w1_mlp_simclrhn_probe2,1,4,NaN,bottle,clock,1,0004_lp_dnn_1_clock_10_n04548280_5320.png,n04548280_5320.png,0.0,-0.46140626,-0.03833496,-0.29915658
alexnet_w1_mlp_simclrhn_probe2,1,5,NaN,bottle,dog,3,0005_lp_dnn_3_dog_10_n02108915_3652.png,n02108915_3652.png,0.0,-1.1447451,-0.07302618,-0.7578197
alexnet_w1_mlp_simclrhn_probe2,1,6,NaN,keyboard,keyboard,7,0006_lp_dnn_7_keyboard_10_n04505470_578.png,n04505470_578.png,1.0,0.414506,-0.20566352,0.4385261
alexnet_w1_mlp_simclrhn_probe2,1,7,NaN,keyboard,cat,7,0007_lp_dnn_7_cat_10_n02123597_3842.png,n02123597_3842.png,0.0,-0.71616465,0.01786048,-0.51903415
alexnet_w1_mlp_simclrhn_probe2,1,8,NaN,bear,bear,1,0008_lp_dnn_1_bear_10_n02134418_14.png,n02134418_14.png,1.0,5.146739,2.1941416,2.0878017
alexnet_w1_mlp_simclrhn_probe2,1,9,NaN,bird,knife,10,0009_lp_dnn_10_knife_10_n03041632_29920.png,n03041632_29920.png,0.0,-0.7128485,-0.035930075,-0.47865358
alexnet_w1_mlp_simclrhn_probe2,1,10,NaN,keyboard,bird,5,0010_lp_dnn_5_bird_10_n01795545_952.png,n01795545_952.png,0.0,-0.050010853,0.015595011,-0.04639035
alexnet_w1_mlp_simclrhn_probe2,1,11,NaN,bear,bear,3,0011_lp_dnn_3_bear_10_n02132136_6441.png,n02132136_6441.png,1.0,0.15513426,0.14020938,0.010553487
alexnet_w1_mlp_simclrhn_probe2,1,12,NaN,bear,bird,3,0012_lp_dnn_3_bird_10_n01829413_8792.png,n01829413_8792.png,0.0,-0.37351,0.22502735,-0.4232298
alexnet_w1_mlp_simclrhn_probe2,1,13,NaN,keyboard,keyboard,7,0013_lp_dnn_7_keyboard_10_n04505470_4458.png,n04505470_4458.png,1.0,0.3004339,-0.1567533,0.3232802
alexnet_w1_mlp_simclrhn_probe2,1,14,NaN,bird,chair,10,0014_lp_dnn_10_chair_10_n03376595_9176.png,n03376595_9176.png,0.0,-1.4320347,0.0047515966,-1.0159613
alexnet_w1_mlp_simclrhn_probe2,1,15,NaN,clock,clock,40,0015_lp_dnn_40_clock_10_n04548280_7662.png,n04548280_7662.png,1.0,0.2553209,-0.07520275,0.23371553
alexnet_w1_mlp_simclrhn_probe2,1,16,NaN,clock,keyboard,40,0016_lp_dnn_40_keyboard_10_n03085013_25809.png,n03085013_25809.png,0.0,-0.41720462,0.26840273,-0.4847976
alexnet_w1_mlp_simclrhn_probe2,1,17,NaN,bird,oven,5,0017_lp_dnn_5_oven_10_n04111531_1580.png,n04111531_1580.png,0.0,-0.76499665,-0.012219856,-0.5322936
alexnet_w1_mlp_simclrhn_probe2,1,18,NaN,elephant,elephant,1,0018_lp_dnn_1_elephant_10_n02504458_900.png,n02504458_900.png,1.0,5.748825,-0.057979256,4.1060305
alexnet_w1_mlp_simclrhn_probe2,1,19,NaN,bottle,dog,7,0019_lp_dnn_7_dog_10_n02106662_2384.png,n02106662_2384.png,0.0,-1.4767249,0.05350248,-1.0820341
alexnet_w1_mlp_simclrhn_probe2,1,20,NaN,bottle,truck,10,0020_lp_dnn_10_truck_10_n03796401_22618.png,n03796401_22618.png,0.0,-2.0462246,-0.30059886,-1.2343438
alexnet_w1_mlp_simclrhn_probe2,1,21,NaN,bird,elephant,15,0021_lp_dnn_15_elephant_10_n02504013_5463.png,n02504013_5463.png,0.0,-0.9485581,0.03375823,-0.69460255
alexnet_w1_mlp_simclrhn_probe2,1,22,NaN,bird,chair,10,0022_lp_dnn_10_chair_10_n04429376_16459.png,n04429376_16459.png,0.0,-1.0259451,0.01928852,-0.7390918
alexnet_w1_mlp_simclrhn_probe2,1,23,NaN,cat,cat,1,0023_lp_dnn_1_cat_10_n02123045_12206.png,n02123045_12206.png,1.0,1.8098726,0.5770053,0.8717688
alexnet_w1_mlp_simclrhn_probe2,1,24,NaN,keyboard,truck,7,0024_lp_dnn_7_truck_10_n03417042_2633.png,n03417042_2633.png,0.0,-1.656567,0.040729873,-1.2001702
alexnet_w1_mlp_simclrhn_probe2,1,25,NaN,clock,keyboard,15,0025_lp_dnn_15_keyboard_10_n03085013_24416.png,n03085013_24416.png,0.0,-0.24452998,-0.040910795,-0.1439805
alexnet_w1_mlp_simclrhn_probe2,1,26,NaN,bottle,car,7,0026_lp_dnn_7_car_10_n02814533_44503.png,n02814533_44503.png,0.0,-1.080978,0.05126934,-0.8006198
alexnet_w1_mlp_simclrhn_probe2,1,27,NaN,bird,elephant,5,0027_lp_dnn_5_elephant_10_n02504458_5797.png,n02504458_5797.png,0.0,-0.63739324,-0.03054262,-0.4291082
alexnet_w1_mlp_simclrhn_probe2,1,28,NaN,oven,chair,0,0028_lp_dnn_0_chair_10_n04429376_8237.png,n04429376_8237.png,0.0,0.34221622,0.781474,-0.31060216
alexnet_w1_mlp_simclrhn_probe2,1,29,NaN,keyboard,cat,7,0029_lp_dnn_7_cat_10_n02123159_587.png,n02123159_587.png,0.0,-0.74581057,0.038488366,-0.55458313
alexnet_w1_mlp_simclrhn_probe2,1,30,NaN,bird,bird,10,0030_lp_dnn_10_bird_10_n02028035_17238.png,n02028035_17238.png,1.0,0.006757985,-0.12376019,0.0922903
alexnet_w1_mlp_simclrhn_probe2,1,31,NaN,clock,cat,40,0031_lp_dnn_40_cat_10_n02123159_4348.png,n02123159_4348.png,0.0,-0.50387025,0.2238308,-0.51456237
alexnet_w1_mlp_simclrhn_probe2,1,32,NaN,bird,boat,5,0032_lp_dnn_5_boat_10_n04273569_22332.png,n04273569_22332.png,0.0,-0.61091274,-0.07727893,-0.3773361
alexnet_w1_mlp_simclrhn_probe2,1,33,NaN,elephant,elephant,1,0033_lp_dnn_1_elephant_10_n02504013_1244.png,n02504013_1244.png,1.0,9.056462,1.3320956,5.461952
alexnet_w1_mlp_simclrhn_probe2,1,34,NaN,keyboard,bicycle,7,0034_lp_dnn_7_bicycle_10_n03792782_30229.png,n03792782_30229.png,0.0,-1.1666708,-0.018808179,-0.8116615
alexnet_w1_mlp_simclrhn_probe2,1,35,NaN,bird,keyboard,10,0035_lp_dnn_10_keyboard_10_n03085013_7573.png,n03085013_7573.png,0.0,-0.14879282,0.15063238,-0.21172558
alexnet_w1_mlp_simclrhn_probe2,1,36,NaN,keyboard,keyboard,3,0036_lp_dnn_3_keyboard_10_n03085013_24578.png,n03085013_24578.png,1.0,1.464634,0.40143806,0.7517931
alexnet_w1_mlp_simclrhn_probe2,1,37,NaN,bird,truck,15,0037_lp_dnn_15_truck_10_n03417042_1336.png,n03417042_1336.png,0.0,-1.4626302,0.098074935,-1.1035851
alexnet_w1_mlp_simclrhn_probe2,1,38,NaN,keyboard,knife,3,0038_lp_dnn_3_knife_10_n03041632_7495.png,n03041632_7495.png,0.0,-0.2220616,-0.012927204,-0.14788036
alexnet_w1_mlp_simclrhn_probe2,1,39,NaN,car,car,0,0039_lp_dnn_0_car_10_n03100240_9625.png,n03100240_9625.png,1.0,5.455925,3.1116786,1.6576326
alexnet_w1_mlp_simclrhn_probe2,1,40,NaN,bird,elephant,10,0040_lp_dnn_10_elephant_10_n02504458_6107.png,n02504458_6107.png,0.0,-0.86771023,0.047780503,-0.6473497
alexnet_w1_mlp_simclrhn_probe2,1,41,NaN,bicycle,bicycle,0,0041_lp_dnn_0_bicycle_10_n03792782_33649.png,n03792782_33649.png,1.0,7.0142946,-0.8616094,5.569105
alexnet_w1_mlp_simclrhn_probe2,1,42,NaN,keyboard,clock,1,0042_lp_dnn_1_clock_10_n03196217_8282.png,n03196217_8282.png,0.0,0.88320065,1.695298,-0.57423955
alexnet_w1_mlp_simclrhn_probe2,1,43,NaN,keyboard,keyboard,7,0043_lp_dnn_7_keyboard_10_n03085013_21534.png,n03085013_21534.png,1.0,0.16936187,-0.02559699,0.13785674
alexnet_w1_mlp_simclrhn_probe2,1,44,NaN,bird,elephant,15,0044_lp_dnn_15_elephant_10_n02504013_22813.png,n02504013_22813.png,0.0,-0.80696595,0.15815844,-0.682446
alexnet_w1_mlp_simclrhn_probe2,1,45,NaN,bird,truck,10,0045_lp_dnn_10_truck_10_n03796401_16425.png,n03796401_16425.png,0.0,-1.8070644,-0.096468985,-1.2095736
alexnet_w1_mlp_simclrhn_probe2,1,46,NaN,clock,airplane,15,0046_lp_dnn_15_airplane_10_n02690373_9427.png,n02690373_9427.png,0.0,-0.007883698,-0.004647666,-0.00228822
alexnet_w1_mlp_simclrhn_probe2,1,47,NaN,keyboard,bird,7,0047_lp_dnn_7_bird_10_n02009912_11907.png,n02009912_11907.png,0.0,-0.64610803,0.0058925003,-0.46103403
alexnet_w1_mlp_simclrhn_probe2,1,48,NaN,airplane,airplane,1,0048_lp_dnn_1_airplane_10_n02690373_5773.png,n02690373_5773.png,1.0,7.6773577,-1.2530854,6.314777
alexnet_w1_mlp_simclrhn_probe2,1,49,NaN,clock,chair,40,0049_lp_dnn_40_chair_10_n02791124_2972.png,n02791124_2972.png,0.0,-0.70939565,0.18964712,-0.63571924
alexnet_w1_mlp_simclrhn_probe2,1,50,NaN,bird,bird,1,0050_lp_dnn_1_bird_10_n01819313_18188.png,n01819313_18188.png,1.0,0.8154346,0.25572658,0.39577332
alexnet_w1_mlp_simclrhn_probe2,1,51,NaN,keyboard,car,5,0051_lp_dnn_5_car_10_n04285008_7428.png,n04285008_7428.png,0.0,-1.1996342,0.578187,-1.2571094
alexnet_w1_mlp_simclrhn_probe2,1,52,NaN,keyboard,bottle,7,0052_lp_dnn_7_bottle_10_n04591713_6923.png,n04591713_6923.png,0.0,-0.20703693,0.0040815994,-0.14928333
alexnet_w1_mlp_simclrhn_probe2,1,53,NaN,knife,knife,0,0053_lp_dnn_0_knife_10_n03041632_22570.png,n03041632_22570.png,1.0,1.0155904,-0.2604562,0.90230125
alexnet_w1_mlp_simclrhn_probe2,1,54,NaN,bear,bear,0,0054_lp_dnn_0_bear_10_n02132136_7586.png,n02132136_7586.png,1.0,3.3297007,0.8133702,1.7793144
alexnet_w1_mlp_simclrhn_probe2,1,55,NaN,bottle,clock,5,0055_lp_dnn_5_clock_10_n04548280_9144.png,n04548280_9144.png,0.0,-0.12285987,0.18326701,-0.2164644
alexnet_w1_mlp_simclrhn_probe2,1,56,NaN,oven,bottle,0,0056_lp_dnn_0_bottle_10_n04591713_2680.png,n04591713_2680.png,0.0,-1.8035867,-0.39272502,-0.99762994
alexnet_w1_mlp_simclrhn_probe2,1,57,NaN,cat,cat,3,0057_lp_dnn_3_cat_10_n02123045_1596.png,n02123045_1596.png,1.0,-0.15146686,-0.46890637,0.22446363
alexnet_w1_mlp_simclrhn_probe2,1,58,NaN,bird,cat,10,0058_lp_dnn_10_cat_10_n02123597_19450.png,n02123597_19450.png,0.0,-0.7937297,-0.09363008,-0.4950452
alexnet_w1_mlp_simclrhn_probe2,1,59,NaN,clock,chair,15,0059_lp_dnn_15_chair_10_n03376595_3462.png,n03376595_3462.png,0.0,-0.71497977,0.19548512,-0.6437959
alexnet_w1_mlp_simclrhn_probe2,1,60,NaN,bottle,bottle,3,0060_lp_dnn_3_bottle_10_n04591713_3683.png,n04591713_3683.png,1.0,0.36401647,0.2086532,0.10985843
alexnet_w1_mlp_simclrhn_probe2,1,61,NaN,keyboard,clock,7,0061_lp_dnn_7_clock_10_n03196217_4309.png,n03196217_4309.png,0.0,0.2608054,0.3423845,-0.05768513
alexnet_w1_mlp_simclrhn_probe2,1,62,NaN,bird,bear,15,0062_lp_dnn_15_bear_10_n02134084_4923.png,n02134084_4923.png,0.0,-0.8969791,-0.1824109,-0.505276
alexnet_w1_mlp_simclrhn_probe2,1,63,NaN,oven,chair,1,0063_lp_dnn_1_chair_10_n04429376_5238.png,n04429376_5238.png,0.0,-0.62575525,0.789109,-1.0004601
alexnet_w1_mlp_simclrhn_probe2,1,64,NaN,truck,clock,0,0064_lp_dnn_0_clock_10_n03196217_2414.png,n03196217_2414.png,0.0,-3.8220062,-0.90048504,-2.0658274
alexnet_w1_mlp_simclrhn_probe2,1,65,NaN,bird,bird,3,0065_lp_dnn_3_bird_10_n01797886_2711.png,n01797886_2711.png,1.0,-0.10475009,-0.5053924,0.28329688
alexnet_w1_mlp_simclrhn_probe2,1,66,NaN,airplane,truck,15,0066_lp_dnn_15_truck_10_n04467665_68463.png,n04467665_68463.png,0.0,-0.95397484,0.05143729,-0.71093374
alexnet_w1_mlp_simclrhn_probe2,1,67,NaN,truck,truck,0,0067_lp_dnn_0_truck_10_n03417042_10099.png,n03417042_10099.png,1.0,7.0346136,2.893562,2.9281654
alexnet_w1_mlp_simclrhn_probe2,1,68,NaN,bird,bear,10,0068_lp_dnn_10_bear_10_n02134418_3793.png,n02134418_3793.png,0.0,-0.70950097,-0.10136115,-0.4300198
alexnet_w1_mlp_simclrhn_probe2,1,69,NaN,bird,bottle,10,0069_lp_dnn_10_bottle_10_n03937543_9524.png,n03937543_9524.png,0.0,-0.3118918,-0.03894188,-0.19300473
alexnet_w1_mlp_simclrhn_probe2,1,70,NaN,cat,cat,3,0070_lp_dnn_3_cat_10_n02123394_1038.png,n02123394_1038.png,1.0,0.1861471,0.14522147,0.028938785
alexnet_w1_mlp_simclrhn_probe2,1,71,NaN,keyboard,dog,5,0071_lp_dnn_5_dog_10_n02110185_7886.png,n02110185_7886.png,0.0,-1.1810035,0.11251789,-0.9146578
alexnet_w1_mlp_simclrhn_probe2,1,72,NaN,clock,clock,3,0072_lp_dnn_3_clock_10_n02708093_4912.png,n02708093_4912.png,1.0,0.78583556,0.22954868,0.39335424
alexnet_w1_mlp_simclrhn_probe2,1,73,NaN,bird,dog,15,0073_lp_dnn_15_dog_10_n02108422_932.png,n02108422_932.png,0.0,-0.9069404,0.07954809,-0.6975527
alexnet_w1_mlp_simclrhn_probe2,1,74,NaN,truck,truck,0,0074_lp_dnn_0_truck_10_n04467665_18621.png,n04467665_18621.png,1.0,7.224662,2.031475,3.6721377
alexnet_w1_mlp_simclrhn_probe2,1,75,NaN,car,truck,1,0075_lp_dnn_1_truck_10_n04467665_50932.png,n04467665_50932.png,0.0,1.7321355,1.8391985,-0.07570493
alexnet_w1_mlp_simclrhn_probe2,1,76,NaN,dog,dog,1,0076_lp_dnn_1_dog_10_n02102480_7293.png,n02102480_7293.png,1.0,1.2204837,-1.037463,1.5966094
alexnet_w1_mlp_simclrhn_probe2,1,77,NaN,bottle,bottle,1,0077_lp_dnn_1_bottle_10_n04591713_4764.png,n04591713_4764.png,1.0,-0.67872816,-0.72287583,0.031217117
alexnet_w1_mlp_simclrhn_probe2,1,78,NaN,bird,clock,15,0078_lp_dnn_15_clock_10_n02708093_274.png,n02708093_274.png,0.0,-0.2739465,-0.028203312,-0.17376667
alexnet_w1_mlp_simclrhn_probe2,1,79,NaN,keyboard,bottle,5,0079_lp_dnn_5_bottle_10_n04557648_29772.png,n04557648_29772.png,0.0,-0.258376,0.099010825,-0.25271064
alexnet_w1_mlp_simclrhn_probe2,1,80,NaN,clock,car,15,0080_lp_dnn_15_car_10_n03100240_22499.png,n03100240_22499.png,0.0,-0.973037,-0.15534528,-0.5781954
alexnet_w1_mlp_simclrhn_probe2,1,81,NaN,clock,clock,3,0081_lp_dnn_3_clock_10_n02708093_6252.png,n02708093_6252.png,1.0,2.349002,-0.33461562,1.8976042
alexnet_w1_mlp_simclrhn_probe2,1,82,NaN,bird,airplane,10,0082_lp_dnn_10_airplane_10_n02690373_5427.png,n02690373_5427.png,0.0,-0.44632748,-0.22177997,-0.15877907
alexnet_w1_mlp_simclrhn_probe2,1,83,NaN,bird,dog,15,0083_lp_dnn_15_dog_10_n02107142_46045.png,n02107142_46045.png,0.0,-1.2062576,-0.14940245,-0.7473094
alexnet_w1_mlp_simclrhn_probe2,1,84,NaN,clock,keyboard,40,0084_lp_dnn_40_keyboard_10_n03085013_23793.png,n03085013_23793.png,0.0,-0.37272274,0.2008655,-0.40558815
alexnet_w1_mlp_simclrhn_probe2,1,85,NaN,clock,bicycle,3,0085_lp_dnn_3_bicycle_10_n03792782_12421.png,n03792782_12421.png,0.0,-1.2953918,0.30171028,-1.1293217
alexnet_w1_mlp_simclrhn_probe2,1,86,NaN,airplane,airplane,0,0086_lp_dnn_0_airplane_10_n02690373_1310.png,n02690373_1310.png,1.0,5.596544,3.321277,1.6088567
alexnet_w1_mlp_simclrhn_probe2,1,87,NaN,clock,oven,15,0087_lp_dnn_15_oven_10_n04111531_8793.png,n04111531_8793.png,0.0,-1.2206539,0.08308791,-0.9218847
alexnet_w1_mlp_simclrhn_probe2,1,88,NaN,keyboard,airplane,5,0088_lp_dnn_5_airplane_10_n02690373_633.png,n02690373_633.png,0.0,-0.17975494,-0.015766025,-0.11595768
alexnet_w1_mlp_simclrhn_probe2,1,89,NaN,keyboard,clock,5,0089_lp_dnn_5_clock_10_n02708093_2307.png,n02708093_2307.png,0.0,-0.22773056,0.03060764,-0.18267271
alexnet_w1_mlp_simclrhn_probe2,1,90,NaN,bird,oven,10,0090_lp_dnn_10_oven_10_n04111531_13795.png,n04111531_13795.png,0.0,-0.98384666,-0.061441008,-0.6522393
alexnet_w1_mlp_simclrhn_probe2,1,91,NaN,oven,boat,3,0091_lp_dnn_3_boat_10_n03662601_1427.png,n03662601_1427.png,0.0,-0.39350012,0.47521606,-0.6142751
alexnet_w1_mlp_simclrhn_probe2,1,92,NaN,keyboard,boat,5,0092_lp_dnn_5_boat_10_n04612504_15944.png,n04612504_15944.png,0.0,-0.807772,0.07923991,-0.6272121
alexnet_w1_mlp_simclrhn_probe2,1,93,NaN,airplane,airplane,40,0093_lp_dnn_40_airplane_10_n02690373_3561.png,n02690373_3561.png,1.0,0.14426538,0.13915959,0.0036103413
alexnet_w1_mlp_simclrhn_probe2,1,94,NaN,bird,elephant,7,0094_lp_dnn_7_elephant_10_n02504458_1848.png,n02504458_1848.png,0.0,-0.93485105,-0.08487517,-0.60102373
alexnet_w1_mlp_simclrhn_probe2,1,95,NaN,keyboard,oven,5,0095_lp_dnn_5_oven_10_n04111531_4155.png,n04111531_4155.png,0.0,-0.8419762,0.20734887,-0.7419849
alexnet_w1_mlp_simclrhn_probe2,1,96,NaN,truck,car,0,0096_lp_dnn_0_car_10_n03100240_8327.png,n03100240_8327.png,0.0,7.9863076,8.320293,-0.23616363
alexnet_w1_mlp_simclrhn_probe2,1,97,NaN,oven,chair,0,0097_lp_dnn_0_chair_10_n04429376_24319.png,n04429376_24319.png,0.0,0.48498356,1.6287475,-0.8087632
alexnet_w1_mlp_simclrhn_probe2,1,98,NaN,keyboard,chair,3,0098_lp_dnn_3_chair_10_n03376595_5112.png,n03376595_5112.png,0.0,-0.67821246,-0.098266475,-0.41008374
alexnet_w1_mlp_simclrhn_probe2,1,99,NaN,cat,cat,1,0099_lp_dnn_1_cat_10_n02124075_2268.png,n02124075_2268.png,1.0,0.47081456,0.20026796,0.19130535
alexnet_w1_mlp_simclrhn_probe2,1,100,NaN,knife,boat,3,0100_lp_dnn_3_boat_10_n04273569_1137.png,n04273569_1137.png,0.0,-0.42581996,-0.033753246,-0.27723303
alexnet_w1_mlp_simclrhn_probe2,1,101,NaN,chair,chair,1,0101_lp_dnn_1_chair_10_n02791124_15383.png,n02791124_15383.png,1.0,2.4245327,0.6552042,1.2511042
alexnet_w1_mlp_simclrhn_probe2,1,102,NaN,clock,clock,15,0102_lp_dnn_15_clock_10_n04548280_8998.png,n04548280_8998.png,1.0,0.172714,-0.012670098,0.13108635
alexnet_w1_mlp_simclrhn_probe2,1,103,NaN,bear,dog,0,0103_lp_dnn_0_dog_10_n02097047_2800.png,n02097047_2800.png,0.0,-0.70028484,1.5996974,-1.626333
alexnet_w1_mlp_simclrhn_probe2,1,104,NaN,bird,bicycle,15,0104_lp_dnn_15_bicycle_10_n03792782_18294.png,n03792782_18294.png,0.0,-1.0697362,-0.061093174,-0.71321833
alexnet_w1_mlp_simclrhn_probe2,1,105,NaN,elephant,elephant,0,0105_lp_dnn_0_elephant_10_n02504013_24486.png,n02504013_24486.png,1.0,1.3388171,1.0160159,0.22825494
alexnet_w1_mlp_simclrhn_probe2,1,106,NaN,keyboard,airplane,7,0106_lp_dnn_7_airplane_10_n02690373_2923.png,n02690373_2923.png,0.0,-0.25487226,-0.05141771,-0.1438641
alexnet_w1_mlp_simclrhn_probe2,1,107,NaN,airplane,airplane,3,0107_lp_dnn_3_airplane_10_n02690373_15392.png,n02690373_15392.png,1.0,0.5989991,0.03275024,0.4003984
alexnet_w1_mlp_simclrhn_probe2,1,108,NaN,bottle,oven,5,0108_lp_dnn_5_oven_10_n04111531_6080.png,n04111531_6080.png,0.0,-0.50994235,0.1263992,-0.44996145
alexnet_w1_mlp_simclrhn_probe2,1,109,NaN,clock,bear,15,0109_lp_dnn_15_bear_10_n02134084_22736.png,n02134084_22736.png,0.0,-0.8554418,-0.096711256,-0.5365035
alexnet_w1_mlp_simclrhn_probe2,1,110,NaN,knife,knife,1,0110_lp_dnn_1_knife_10_n03041632_33326.png,n03041632_33326.png,1.0,0.08049536,-1.8146619,1.3400786
alexnet_w1_mlp_simclrhn_probe2,1,111,NaN,clock,truck,40,0111_lp_dnn_40_truck_10_n04467665_66876.png,n04467665_66876.png,0.0,-1.099787,0.15346552,-0.8861834
alexnet_w1_mlp_simclrhn_probe2,1,112,NaN,airplane,truck,40,0112_lp_dnn_40_truck_10_n03796401_10234.png,n03796401_10234.png,0.0,-0.98128986,0.19252267,-0.8300108
alexnet_w1_mlp_simclrhn_probe2,1,113,NaN,bird,bicycle,7,0113_lp_dnn_7_bicycle_10_n03792782_5416.png,n03792782_5416.png,0.0,-1.1530273,0.06647158,-0.86231595
alexnet_w1_mlp_simclrhn_probe2,1,114,NaN,bird,knife,7,0114_lp_dnn_7_knife_10_n03041632_25772.png,n03041632_25772.png,0.0,-0.52918315,0.08823605,-0.4365813
alexnet_w1_mlp_simclrhn_probe2,1,115,NaN,bird,bicycle,10,0115_lp_dnn_10_bicycle_10_n03792782_7108.png,n03792782_7108.png,0.0,-1.0735313,0.06888508,-0.80781037
alexnet_w1_mlp_simclrhn_probe2,1,116,NaN,chair,chair,0,0116_lp_dnn_0_chair_10_n03376595_1981.png,n03376595_1981.png,1.0,3.3354034,1.1168875,1.5687276
alexnet_w1_mlp_simclrhn_probe2,1,117,NaN,bottle,oven,15,0117_lp_dnn_15_oven_10_n04111531_6508.png,n04111531_6508.png,0.0,-1.0317277,-0.066969074,-0.6821873
alexnet_w1_mlp_simclrhn_probe2,1,118,NaN,bird,bird,15,0118_lp_dnn_15_bird_10_n01843383_2843.png,n01843383_2843.png,1.0,0.05151861,-0.2500708,0.21325593
alexnet_w1_mlp_simclrhn_probe2,1,119,NaN,bird,cat,5,0119_lp_dnn_5_cat_10_n02123597_5887.png,n02123597_5887.png,0.0,-0.75804716,0.049346127,-0.5709133
alexnet_w1_mlp_simclrhn_probe2,1,120,NaN,clock,clock,40,0120_lp_dnn_40_clock_10_n04548280_9801.png,n04548280_9801.png,1.0,0.22425862,0.15638794,0.047991816
alexnet_w1_mlp_simclrhn_probe2,1,121,NaN,bird,bird,1,0121_lp_dnn_1_bird_10_n01530575_10332.png,n01530575_10332.png,1.0,1.001066,-2.0994215,2.1923757
alexnet_w1_mlp_simclrhn_probe2,1,122,NaN,bird,elephant,15,0122_lp_dnn_15_elephant_10_n02504013_5887.png,n02504013_5887.png,0.0,-0.97854507,0.019349005,-0.70561767
alexnet_w1_mlp_simclrhn_probe2,1,123,NaN,bottle,cat,3,0123_lp_dnn_3_cat_10_n02124075_8693.png,n02124075_8693.png,0.0,-0.3533597,-0.28206912,-0.050410055
alexnet_w1_mlp_simclrhn_probe2,1,124,NaN,clock,boat,15,0124_lp_dnn_15_boat_10_n04612504_26151.png,n04612504_26151.png,0.0,-0.8190392,-0.06613595,-0.532383
alexnet_w1_mlp_simclrhn_probe2,1,125,NaN,keyboard,cat,7,0125_lp_dnn_7_cat_10_n02125311_53412.png,n02125311_53412.png,0.0,-0.66890866,0.061973177,-0.5168115
alexnet_w1_mlp_simclrhn_probe2,1,126,NaN,bottle,knife,7,0126_lp_dnn_7_knife_10_n03041632_46914.png,n03041632_46914.png,0.0,-0.21443708,0.11649812,-0.23400654
alexnet_w1_mlp_simclrhn_probe2,1,127,NaN,clock,bicycle,15,0127_lp_dnn_15_bicycle_10_n03792782_5629.png,n03792782_5629.png,0.0,-1.2788417,-0.10557135,-0.82962745
alexnet_w1_mlp_simclrhn_probe2,1,128,NaN,clock,bottle,40,0128_lp_dnn_40_bottle_10_n02823428_79.png,n02823428_79.png,0.0,-0.12735376,0.13204274,-0.18342102
alexnet_w1_mlp_simclrhn_probe2,1,129,NaN,dog,dog,3,0129_lp_dnn_3_dog_10_n02101006_5024.png,n02101006_5024.png,1.0,-0.13998401,-0.24681892,0.07554369
alexnet_w1_mlp_simclrhn_probe2,1,130,NaN,bird,oven,15,0130_lp_dnn_15_oven_10_n04111531_2350.png,n04111531_2350.png,0.0,-1.2473103,-0.1644354,-0.7657082
alexnet_w1_mlp_simclrhn_probe2,1,131,NaN,keyboard,airplane,7,0131_lp_dnn_7_airplane_10_n02690373_4839.png,n02690373_4839.png,0.0,-0.40100944,-0.048744783,-0.24908872
alexnet_w1_mlp_simclrhn_probe2,1,132,NaN,keyboard,car,5,0132_lp_dnn_5_car_10_n03100240_2075.png,n03100240_2075.png,0.0,-0.96675515,0.1952988,-0.8216962
alexnet_w1_mlp_simclrhn_probe2,1,133,NaN,keyboard,cat,5,0133_lp_dnn_5_cat_10_n02123159_3729.png,n02123159_3729.png,0.0,-0.7996318,0.18527241,-0.6964324
alexnet_w1_mlp_simclrhn_probe2,1,134,NaN,bird,knife,10,0134_lp_dnn_10_knife_10_n03041632_3079.png,n03041632_3079.png,0.0,-0.6383915,-0.042423315,-0.42141315
alexnet_w1_mlp_simclrhn_probe2,1,135,NaN,bird,elephant,15,0135_lp_dnn_15_elephant_10_n02504013_2052.png,n02504013_2052.png,0.0,-0.8215534,-0.012268663,-0.5722507
alexnet_w1_mlp_simclrhn_probe2,1,136,NaN,clock,cat,40,0136_lp_dnn_40_cat_10_n02123159_3724.png,n02123159_3724.png,0.0,-0.656403,0.16619657,-0.58166575
alexnet_w1_mlp_simclrhn_probe2,1,137,NaN,clock,keyboard,15,0137_lp_dnn_15_keyboard_10_n03085013_7955.png,n03085013_7955.png,0.0,-0.15035701,0.21540032,-0.2586295
alexnet_w1_mlp_simclrhn_probe2,1,138,NaN,clock,bird,40,0138_lp_dnn_40_bird_10_n02056570_9872.png,n02056570_9872.png,0.0,-0.5123032,0.11655081,-0.44466692
alexnet_w1_mlp_simclrhn_probe2,1,139,NaN,bird,cat,10,0139_lp_dnn_10_cat_10_n02125311_44401.png,n02125311_44401.png,0.0,-0.5006838,0.15580855,-0.4642102
alexnet_w1_mlp_simclrhn_probe2,1,140,NaN,bottle,airplane,10,0140_lp_dnn_10_airplane_10_n02690373_10657.png,n02690373_10657.png,0.0,-0.10000147,-0.015585838,-0.059690867
alexnet_w1_mlp_simclrhn_probe2,1,141,NaN,bird,bird,5,0141_lp_dnn_5_bird_10_n02025239_7919.png,n02025239_7919.png,1.0,0.14047983,-0.23504078,0.26553318
alexnet_w1_mlp_simclrhn_probe2,1,142,NaN,clock,bear,40,0142_lp_dnn_40_bear_10_n02134084_23165.png,n02134084_23165.png,0.0,-0.938167,0.18788016,-0.79623556
alexnet_w1_mlp_simclrhn_probe2,1,143,NaN,clock,knife,40,0143_lp_dnn_40_knife_10_n03041632_28658.png,n03041632_28658.png,0.0,0.028854068,0.22195132,-0.13654038
alexnet_w1_mlp_simclrhn_probe2,1,144,NaN,keyboard,keyboard,5,0144_lp_dnn_5_keyboard_10_n04505470_4371.png,n04505470_4371.png,1.0,0.62770087,0.24861367,0.26805514
alexnet_w1_mlp_simclrhn_probe2,1,145,NaN,keyboard,keyboard,0,0145_lp_dnn_0_keyboard_10_n03085013_14237.png,n03085013_14237.png,1.0,4.8124475,3.056288,1.2417923
alexnet_w1_mlp_simclrhn_probe2,1,146,NaN,bottle,clock,0,0146_lp_dnn_0_clock_10_n03196217_6163.png,n03196217_6163.png,0.0,-0.06869321,0.66331524,-0.51760817
alexnet_w1_mlp_simclrhn_probe2,1,147,NaN,bird,chair,15,0147_lp_dnn_15_chair_10_n02791124_3857.png,n02791124_3857.png,0.0,-1.4845834,-0.21160236,-0.90013355
alexnet_w1_mlp_simclrhn_probe2,1,148,NaN,clock,truck,40,0148_lp_dnn_40_truck_10_n03417042_20650.png,n03417042_20650.png,0.0,-1.1768835,0.13925187,-0.9306482
alexnet_w1_mlp_simclrhn_probe2,1,149,NaN,truck,truck,0,0149_lp_dnn_0_truck_10_n04467665_17101.png,n04467665_17101.png,1.0,10.75054,5.149368,3.9606268
alexnet_w1_mlp_simclrhn_probe2,1,150,NaN,chair,chair,1,0150_lp_dnn_1_chair_10_n04429376_19354.png,n04429376_19354.png,1.0,-0.41727638,-0.97229165,0.39245507
alexnet_w1_mlp_simclrhn_probe2,1,151,NaN,knife,knife,0,0151_lp_dnn_0_knife_10_n03041632_42156.png,n03041632_42156.png,1.0,3.063457,-0.44435436,2.4803972
alexnet_w1_mlp_simclrhn_probe2,1,152,NaN,car,car,1,0152_lp_dnn_1_car_10_n04285008_39.png,n04285008_39.png,1.0,6.1993613,3.6164196,1.8264157
alexnet_w1_mlp_simclrhn_probe2,1,153,NaN,boat,boat,1,0153_lp_dnn_1_boat_10_n03662601_1319.png,n03662601_1319.png,1.0,3.2124443,0.31119072,2.0514963
alexnet_w1_mlp_simclrhn_probe2,1,154,NaN,bird,truck,7,0154_lp_dnn_7_truck_10_n03796401_4119.png,n03796401_4119.png,0.0,-1.4908086,-0.09022255,-0.9903639
alexnet_w1_mlp_simclrhn_probe2,1,155,NaN,clock,bottle,15,0155_lp_dnn_15_bottle_10_n03937543_2333.png,n03937543_2333.png,0.0,-0.12660725,0.0008921052,-0.09015566
alexnet_w1_mlp_simclrhn_probe2,1,156,NaN,bottle,bottle,3,0156_lp_dnn_3_bottle_10_n04591713_7134.png,n04591713_7134.png,1.0,0.38694334,0.13731791,0.17651184
alexnet_w1_mlp_simclrhn_probe2,1,157,NaN,dog,dog,0,0157_lp_dnn_0_dog_10_n02107312_3673.png,n02107312_3673.png,1.0,0.33312792,-0.20625651,0.3814024
alexnet_w1_mlp_simclrhn_probe2,1,158,NaN,bottle,oven,3,0158_lp_dnn_3_oven_10_n04111531_8373.png,n04111531_8373.png,0.0,-0.09042151,0.035965562,-0.089369155
alexnet_w1_mlp_simclrhn_probe2,1,159,NaN,oven,car,3,0159_lp_dnn_3_car_10_n03100240_13707.png,n03100240_13707.png,0.0,-0.03922289,0.4537807,-0.3486062
alexnet_w1_mlp_simclrhn_probe2,1,160,NaN,bottle,chair,1,0160_lp_dnn_1_chair_10_n02791124_241.png,n02791124_241.png,0.0,0.24546984,0.69938296,-0.32096505
alexnet_w1_mlp_simclrhn_probe2,1,161,NaN,keyboard,airplane,7,0161_lp_dnn_7_airplane_10_n02690373_5628.png,n02690373_5628.png,0.0,-0.4072276,-0.07685976,-0.23360536
alexnet_w1_mlp_simclrhn_probe2,1,162,NaN,clock,boat,40,0162_lp_dnn_40_boat_10_n02951358_1461.png,n02951358_1461.png,0.0,-0.46621665,0.1138655,-0.41018006
alexnet_w1_mlp_simclrhn_probe2,1,163,NaN,keyboard,keyboard,7,0163_lp_dnn_7_keyboard_10_n04505470_4501.png,n04505470_4501.png,1.0,0.10732891,0.033502534,0.05220313
alexnet_w1_mlp_simclrhn_probe2,1,164,NaN,bird,bird,1,0164_lp_dnn_1_bird_10_n02033041_11415.png,n02033041_11415.png,1.0,0.60351855,-1.8166851,1.7113425
alexnet_w1_mlp_simclrhn_probe2,1,165,NaN,oven,knife,1,0165_lp_dnn_1_knife_10_n03041632_6446.png,n03041632_6446.png,0.0,0.5520394,0.6656978,-0.080368645
alexnet_w1_mlp_simclrhn_probe2,1,166,NaN,bird,bird,0,0166_lp_dnn_0_bird_10_n02011460_3892.png,n02011460_3892.png,1.0,1.2469119,-2.9605608,2.9751327
alexnet_w1_mlp_simclrhn_probe2,1,167,NaN,bear,cat,1,0167_lp_dnn_1_cat_10_n02125311_3174.png,n02125311_3174.png,0.0,-0.98356295,1.5622463,-1.800159
alexnet_w1_mlp_simclrhn_probe2,1,168,NaN,clock,dog,10,0168_lp_dnn_10_dog_10_n02088364_7448.png,n02088364_7448.png,0.0,-1.2733256,-0.060059056,-0.85790896
alexnet_w1_mlp_simclrhn_probe2,1,169,NaN,cat,cat,1,0169_lp_dnn_1_cat_10_n02123394_4299.png,n02123394_4299.png,1.0,0.5759293,0.011867924,0.3988516
alexnet_w1_mlp_simclrhn_probe2,1,170,NaN,bird,keyboard,15,0170_lp_dnn_15_keyboard_10_n03085013_23731.png,n03085013_23731.png,0.0,-0.22163188,-0.011563398,-0.14854085
alexnet_w1_mlp_simclrhn_probe2,1,171,NaN,keyboard,knife,5,0171_lp_dnn_5_knife_10_n03041632_29285.png,n03041632_29285.png,0.0,-0.40062785,0.22050685,-0.43920857
alexnet_w1_mlp_simclrhn_probe2,1,172,NaN,keyboard,keyboard,0,0172_lp_dnn_0_keyboard_10_n03085013_12164.png,n03085013_12164.png,1.0,8.494437,0.87827414,5.385441
alexnet_w1_mlp_simclrhn_probe2,1,173,NaN,keyboard,bird,5,0173_lp_dnn_5_bird_10_n01582220_9023.png,n01582220_9023.png,0.0,-0.7861674,0.29346982,-0.7634188
alexnet_w1_mlp_simclrhn_probe2,1,174,NaN,keyboard,bottle,3,0174_lp_dnn_3_bottle_10_n03983396_12728.png,n03983396_12728.png,0.0,-0.23864225,-0.04456521,-0.1372332
alexnet_w1_mlp_simclrhn_probe2,1,175,NaN,keyboard,dog,7,0175_lp_dnn_7_dog_10_n02111277_50807.png,n02111277_50807.png,0.0,-1.3299317,0.009309381,-0.9469865
alexnet_w1_mlp_simclrhn_probe2,1,176,NaN,knife,boat,5,0176_lp_dnn_5_boat_10_n04273569_2037.png,n04273569_2037.png,0.0,-0.6705312,0.0040236674,-0.47698236
alexnet_w1_mlp_simclrhn_probe2,1,177,NaN,clock,keyboard,40,0177_lp_dnn_40_keyboard_10_n04505470_4672.png,n04505470_4672.png,0.0,-0.30372325,0.15654026,-0.32545543
alexnet_w1_mlp_simclrhn_probe2,1,178,NaN,bird,boat,10,0178_lp_dnn_10_boat_10_n03662601_12034.png,n03662601_12034.png,0.0,-0.9478043,-0.019568348,-0.65636194
alexnet_w1_mlp_simclrhn_probe2,1,179,NaN,clock,airplane,15,0179_lp_dnn_15_airplane_10_n02690373_5845.png,n02690373_5845.png,0.0,-0.3060453,-0.14489844,-0.11394803
alexnet_w1_mlp_simclrhn_probe2,1,180,NaN,keyboard,truck,5,0180_lp_dnn_5_truck_10_n03417042_12128.png,n03417042_12128.png,0.0,-1.3484583,0.086986154,-1.0150125
alexnet_w1_mlp_simclrhn_probe2,1,181,NaN,bottle,keyboard,10,0181_lp_dnn_10_keyboard_10_n03085013_2432.png,n03085013_2432.png,0.0,0.1212141,0.20077182,-0.056255806
alexnet_w1_mlp_simclrhn_probe2,1,182,NaN,keyboard,chair,5,0182_lp_dnn_5_chair_10_n03376595_9692.png,n03376595_9692.png,0.0,-0.73506176,0.14486475,-0.622202
alexnet_w1_mlp_simclrhn_probe2,1,183,NaN,elephant,chair,3,0183_lp_dnn_3_chair_10_n03376595_12583.png,n03376595_12583.png,0.0,-1.0024534,-0.07141266,-0.6583452
alexnet_w1_mlp_simclrhn_probe2,1,184,NaN,bird,bear,0,0184_lp_dnn_0_bear_10_n02133161_2135.png,n02133161_2135.png,0.0,-0.7014483,-0.6908529,-0.0074921083
alexnet_w1_mlp_simclrhn_probe2,1,185,NaN,airplane,airplane,10,0185_lp_dnn_10_airplane_10_n02690373_5176.png,n02690373_5176.png,1.0,-0.1518432,-0.15342325,0.0011172603
alexnet_w1_mlp_simclrhn_probe2,1,186,NaN,elephant,elephant,0,0186_lp_dnn_0_elephant_10_n02504013_10990.png,n02504013_10990.png,1.0,-0.23088181,-0.93486786,0.49779332
alexnet_w1_mlp_simclrhn_probe2,1,187,NaN,bird,boat,10,0187_lp_dnn_10_boat_10_n02951358_3155.png,n02951358_3155.png,0.0,-0.84379613,-0.0881395,-0.53432995
alexnet_w1_mlp_simclrhn_probe2,1,188,NaN,knife,knife,1,0188_lp_dnn_1_knife_10_n03041632_2644.png,n03041632_2644.png,1.0,1.5338237,0.14727205,0.9804401
alexnet_w1_mlp_simclrhn_probe2,1,189,NaN,keyboard,airplane,5,0189_lp_dnn_5_airplane_10_n02690373_5184.png,n02690373_5184.png,0.0,-0.71679467,0.2757312,-0.7018218
alexnet_w1_mlp_simclrhn_probe2,1,190,NaN,chair,chair,0,0190_lp_dnn_0_chair_10_n04099969_16161.png,n04099969_16161.png,1.0,-0.14634627,-0.2708223,0.088017836
alexnet_w1_mlp_simclrhn_probe2,1,191,NaN,bottle,boat,10,0191_lp_dnn_10_boat_10_n03344393_5343.png,n03344393_5343.png,0.0,-1.0282806,-0.17028631,-0.6066936
alexnet_w1_mlp_simclrhn_probe2,1,192,NaN,oven,oven,0,0192_lp_dnn_0_oven_10_n04111531_15052.png,n04111531_15052.png,1.0,5.6652036,-0.5941565,4.4260364
alexnet_w1_mlp_simclrhn_probe2,1,193,NaN,airplane,bicycle,15,0193_lp_dnn_15_bicycle_10_n02835271_317.png,n02835271_317.png,0.0,-1.0803759,-0.03921622,-0.73621106
alexnet_w1_mlp_simclrhn_probe2,1,194,NaN,bird,bird,0,0194_lp_dnn_0_bird_10_n02002556_15721.png,n02002556_15721.png,1.0,0.42545956,-1.9194473,1.6580995
alexnet_w1_mlp_simclrhn_probe2,1,195,NaN,keyboard,chair,5,0195_lp_dnn_5_chair_10_n03376595_11280.png,n03376595_11280.png,0.0,-0.956201,0.095143996,-0.7434132
alexnet_w1_mlp_simclrhn_probe2,1,196,NaN,keyboard,keyboard,3,0196_lp_dnn_3_keyboard_10_n04505470_4621.png,n04505470_4621.png,1.0,0.16390227,-0.20885108,0.26357642
alexnet_w1_mlp_simclrhn_probe2,1,197,NaN,keyboard,boat,7,0197_lp_dnn_7_boat_10_n03662601_6042.png,n03662601_6042.png,0.0,-0.9604934,-0.09109448,-0.61475784
alexnet_w1_mlp_simclrhn_probe2,1,198,NaN,dog,dog,1,0198_lp_dnn_1_dog_10_n02086646_2810.png,n02086646_2810.png,1.0,-0.108150974,-0.6500614,0.38318858
alexnet_w1_mlp_simclrhn_probe2,1,199,NaN,bird,elephant,15,0199_lp_dnn_15_elephant_10_n02504458_7835.png,n02504458_7835.png,0.0,-0.9530176,-0.012007766,-0.6653944
alexnet_w1_mlp_simclrhn_probe2,1,200,NaN,bird,cat,15,0200_lp_dnn_15_cat_10_n02123159_6281.png,n02123159_6281.png,0.0,-0.543831,-0.10064536,-0.31337956
alexnet_w1_mlp_simclrhn_probe2,1,201,NaN,keyboard,knife,5,0201_lp_dnn_5_knife_10_n03041632_1661.png,n03041632_1661.png,0.0,-0.67289805,0.42255688,-0.7746036
alexnet_w1_mlp_simclrhn_probe2,1,202,NaN,clock,clock,1,0202_lp_dnn_1_clock_10_n02708093_2806.png,n02708093_2806.png,1.0,1.8104528,-0.8144271,1.8560704
alexnet_w1_mlp_simclrhn_probe2,1,203,NaN,boat,boat,1,0203_lp_dnn_1_boat_10_n04273569_1201.png,n04273569_1201.png,1.0,4.1375904,1.7421123,1.693859
alexnet_w1_mlp_simclrhn_probe2,1,204,NaN,clock,bird,40,0204_lp_dnn_40_bird_10_n01614925_13283.png,n01614925_13283.png,0.0,-0.55479246,0.2027539,-0.53566617
alexnet_w1_mlp_simclrhn_probe2,1,205,NaN,airplane,car,40,0205_lp_dnn_40_car_10_n02814533_51701.png,n02814533_51701.png,0.0,-0.652312,0.25137737,-0.6390049
alexnet_w1_mlp_simclrhn_probe2,1,206,NaN,keyboard,chair,7,0206_lp_dnn_7_chair_10_n04099969_34325.png,n04099969_34325.png,0.0,-1.1434044,-0.007966094,-0.8028762
alexnet_w1_mlp_simclrhn_probe2,1,207,NaN,airplane,truck,0,0207_lp_dnn_0_truck_10_n04467665_71305.png,n04467665_71305.png,0.0,-0.5587714,2.843377,-2.4056823
alexnet_w1_mlp_simclrhn_probe2,1,208,NaN,bottle,boat,5,0208_lp_dnn_5_boat_10_n03344393_5916.png,n03344393_5916.png,0.0,-0.70834386,-0.0584173,-0.4595675
alexnet_w1_mlp_simclrhn_probe2,1,209,NaN,keyboard,car,7,0209_lp_dnn_7_car_10_n02814533_28783.png,n02814533_28783.png,0.0,-1.1280036,0.0832197,-0.8564642
alexnet_w1_mlp_simclrhn_probe2,1,210,NaN,bird,boat,15,0210_lp_dnn_15_boat_10_n03662601_16825.png,n03662601_16825.png,0.0,-0.88600683,-0.15227146,-0.5188293
alexnet_w1_mlp_simclrhn_probe2,1,211,NaN,cat,dog,0,0211_lp_dnn_0_dog_10_n02100583_10960.png,n02100583_10960.png,0.0,-1.1135962,-0.68535334,-0.30281344
alexnet_w1_mlp_simclrhn_probe2,1,212,NaN,bird,elephant,10,0212_lp_dnn_10_elephant_10_n02504458_4587.png,n02504458_4587.png,0.0,-1.0856326,0.07067644,-0.8176339
alexnet_w1_mlp_simclrhn_probe2,1,213,NaN,bird,bottle,10,0213_lp_dnn_10_bottle_10_n03983396_12670.png,n03983396_12670.png,0.0,-0.43320876,0.06869306,-0.35489818
alexnet_w1_mlp_simclrhn_probe2,1,214,NaN,bicycle,bicycle,3,0214_lp_dnn_3_bicycle_10_n02835271_18205.png,n02835271_18205.png,1.0,-0.036012806,-0.25730643,0.15647823
alexnet_w1_mlp_simclrhn_probe2,1,215,NaN,clock,truck,40,0215_lp_dnn_40_truck_10_n04467665_67527.png,n04467665_67527.png,0.0,-1.0663337,0.09767941,-0.8230815
alexnet_w1_mlp_simclrhn_probe2,1,216,NaN,clock,keyboard,10,0216_lp_dnn_10_keyboard_10_n03085013_4374.png,n03085013_4374.png,0.0,-0.19560546,-0.09545186,-0.07081929
alexnet_w1_mlp_simclrhn_probe2,1,217,NaN,clock,clock,3,0217_lp_dnn_3_clock_10_n03196217_3086.png,n03196217_3086.png,1.0,0.58606195,0.5493922,0.025929416
alexnet_w1_mlp_simclrhn_probe2,1,218,NaN,clock,clock,15,0218_lp_dnn_15_clock_10_n04548280_254.png,n04548280_254.png,1.0,-0.07153706,-0.16380166,0.06524092
alexnet_w1_mlp_simclrhn_probe2,1,219,NaN,bird,bicycle,15,0219_lp_dnn_15_bicycle_10_n02835271_21707.png,n02835271_21707.png,0.0,-1.3159661,-0.05055747,-0.894779
alexnet_w1_mlp_simclrhn_probe2,1,220,NaN,bird,bird,15,0220_lp_dnn_15_bird_10_n01819313_6340.png,n01819313_6340.png,1.0,0.05588404,-0.24265042,0.21109574
alexnet_w1_mlp_simclrhn_probe2,1,221,NaN,keyboard,bicycle,5,0221_lp_dnn_5_bicycle_10_n02835271_10556.png,n02835271_10556.png,0.0,-1.0648087,0.05896229,-0.7946262
alexnet_w1_mlp_simclrhn_probe2,1,222,NaN,bird,chair,15,0222_lp_dnn_15_chair_10_n04099969_3312.png,n04099969_3312.png,0.0,-1.0994301,-0.016676435,-0.7656225
alexnet_w1_mlp_simclrhn_probe2,1,223,NaN,airplane,car,15,0223_lp_dnn_15_car_10_n04285008_2781.png,n04285008_2781.png,0.0,-0.8853275,-0.07530928,-0.5727694
alexnet_w1_mlp_simclrhn_probe2,1,224,NaN,clock,clock,3,0224_lp_dnn_3_clock_10_n04548280_21263.png,n04548280_21263.png,1.0,1.6138517,-0.08858323,1.2038033
alexnet_w1_mlp_simclrhn_probe2,1,225,NaN,bird,car,15,0225_lp_dnn_15_car_10_n02814533_9785.png,n02814533_9785.png,0.0,-0.92582875,-0.020210523,-0.6403688
alexnet_w1_mlp_simclrhn_probe2,1,226,NaN,truck,truck,0,0226_lp_dnn_0_truck_10_n03417042_24100.png,n03417042_24100.png,1.0,7.172195,5.760587,0.99815744
alexnet_w1_mlp_simclrhn_probe2,1,227,NaN,clock,dog,15,0227_lp_dnn_15_dog_10_n02091244_10926.png,n02091244_10926.png,0.0,-1.2370596,-0.11574366,-0.79289013
alexnet_w1_mlp_simclrhn_probe2,1,228,NaN,clock,bottle,40,0228_lp_dnn_40_bottle_10_n04591713_2537.png,n04591713_2537.png,0.0,-0.23772652,0.06003213,-0.21054715
alexnet_w1_mlp_simclrhn_probe2,1,229,NaN,keyboard,bear,10,0229_lp_dnn_10_bear_10_n02134418_1311.png,n02134418_1311.png,0.0,-1.0922687,-0.07251228,-0.7210767
alexnet_w1_mlp_simclrhn_probe2,1,230,NaN,airplane,bicycle,3,0230_lp_dnn_3_bicycle_10_n03792782_210.png,n03792782_210.png,0.0,-0.79649615,-0.19716063,-0.42379424
alexnet_w1_mlp_simclrhn_probe2,1,231,NaN,cat,cat,3,0231_lp_dnn_3_cat_10_n02123045_5371.png,n02123045_5371.png,1.0,0.08269795,-0.45390853,0.3794381
alexnet_w1_mlp_simclrhn_probe2,1,232,NaN,clock,boat,15,0232_lp_dnn_15_boat_10_n04612504_19111.png,n04612504_19111.png,0.0,-0.98405063,-0.04184839,-0.6662376
alexnet_w1_mlp_simclrhn_probe2,1,233,NaN,knife,clock,1,0233_lp_dnn_1_clock_10_n03196217_7836.png,n03196217_7836.png,0.0,0.46312818,0.83212525,-0.26092035
alexnet_w1_mlp_simclrhn_probe2,1,234,NaN,dog,dog,0,0234_lp_dnn_0_dog_10_n02086910_9742.png,n02086910_9742.png,1.0,1.5842335,-1.7728103,2.3737884
alexnet_w1_mlp_simclrhn_probe2,1,235,NaN,clock,bottle,1,0235_lp_dnn_1_bottle_10_n03937543_4723.png,n03937543_4723.png,0.0,-0.14470795,0.12711044,-0.19220464
alexnet_w1_mlp_simclrhn_probe2,1,236,NaN,keyboard,dog,5,0236_lp_dnn_5_dog_10_n02111129_6495.png,n02111129_6495.png,0.0,-1.3765526,0.123355456,-1.0605952
alexnet_w1_mlp_simclrhn_probe2,1,237,NaN,knife,knife,1,0237_lp_dnn_1_knife_10_n03041632_3101.png,n03041632_3101.png,1.0,1.231706,1.1264029,0.07446059
alexnet_w1_mlp_simclrhn_probe2,1,238,NaN,cat,bear,0,0238_lp_dnn_0_bear_10_n02134084_7373.png,n02134084_7373.png,0.0,-1.4585278,0.37195858,-1.2943494
alexnet_w1_mlp_simclrhn_probe2,1,239,NaN,bird,bird,7,0239_lp_dnn_7_bird_10_n02009229_11916.png,n02009229_11916.png,1.0,0.13622603,-0.27091172,0.28788987
alexnet_w1_mlp_simclrhn_probe2,1,240,NaN,keyboard,oven,7,0240_lp_dnn_7_oven_10_n04111531_14208.png,n04111531_14208.png,0.0,-0.66139466,-0.011250541,-0.4597213
alexnet_w1_mlp_simclrhn_probe2,1,241,NaN,bottle,bird,3,0241_lp_dnn_3_bird_10_n01601694_20287.png,n01601694_20287.png,0.0,-0.7823718,-0.06700606,-0.50584
alexnet_w1_mlp_simclrhn_probe2,1,242,NaN,bird,oven,15,0242_lp_dnn_15_oven_10_n04111531_5519.png,n04111531_5519.png,0.0,-0.981883,-0.057531983,-0.6536149
alexnet_w1_mlp_simclrhn_probe2,1,243,NaN,car,car,1,0243_lp_dnn_1_car_10_n04285008_10893.png,n04285008_10893.png,1.0,5.81094,3.8838184,1.3626807
alexnet_w1_mlp_simclrhn_probe2,1,244,NaN,airplane,boat,40,0244_lp_dnn_40_boat_10_n02951358_16196.png,n02951358_16196.png,0.0,-0.48901215,0.18013391,-0.47315773
alexnet_w1_mlp_simclrhn_probe2,1,245,NaN,clock,clock,7,0245_lp_dnn_7_clock_10_n04548280_532.png,n04548280_532.png,1.0,0.057006467,-0.048149534,0.074356526
alexnet_w1_mlp_simclrhn_probe2,1,246,NaN,keyboard,keyboard,0,0246_lp_dnn_0_keyboard_10_n04505470_73.png,n04505470_73.png,1.0,13.302719,0.55126387,9.016641
alexnet_w1_mlp_simclrhn_probe2,1,247,NaN,bird,bottle,10,0247_lp_dnn_10_bottle_10_n02823428_6766.png,n02823428_6766.png,0.0,-0.5722519,0.28731078,-0.6078026
alexnet_w1_mlp_simclrhn_probe2,1,248,NaN,airplane,boat,15,0248_lp_dnn_15_boat_10_n02951358_26579.png,n02951358_26579.png,0.0,-0.5524802,-0.011406556,-0.38259688
alexnet_w1_mlp_simclrhn_probe2,1,249,NaN,keyboard,dog,10,0249_lp_dnn_10_dog_10_n02085782_7651.png,n02085782_7651.png,0.0,-1.1451663,-0.08359424,-0.7506448
alexnet_w1_mlp_simclrhn_probe2,1,250,NaN,clock,clock,3,0250_lp_dnn_3_clock_10_n02708093_1747.png,n02708093_1747.png,1.0,1.0340363,0.66698325,0.25954568
alexnet_w1_mlp_simclrhn_probe2,1,251,NaN,keyboard,truck,3,0251_lp_dnn_3_truck_10_n04467665_19645.png,n04467665_19645.png,0.0,-0.8372942,0.0757744,-0.64563704
alexnet_w1_mlp_simclrhn_probe2,1,252,NaN,clock,airplane,15,0252_lp_dnn_15_airplane_10_n02690373_17262.png,n02690373_17262.png,0.0,-0.12362209,-0.064238615,-0.04199046
alexnet_w1_mlp_simclrhn_probe2,1,253,NaN,elephant,elephant,0,0253_lp_dnn_0_elephant_10_n02504458_10428.png,n02504458_10428.png,1.0,2.2372413,-0.8473413,2.1811292
alexnet_w1_mlp_simclrhn_probe2,1,254,NaN,keyboard,cat,7,0254_lp_dnn_7_cat_10_n02124075_9149.png,n02124075_9149.png,0.0,-0.80813843,-0.03858897,-0.5441537
alexnet_w1_mlp_simclrhn_probe2,1,255,NaN,bottle,elephant,10,0255_lp_dnn_10_elephant_10_n02504013_7923.png,n02504013_7923.png,0.0,-1.6863036,-0.1102311,-1.1144515
alexnet_w1_mlp_simclrhn_probe2,1,256,NaN,cat,cat,3,0256_lp_dnn_3_cat_10_n02123394_4789.png,n02123394_4789.png,1.0,-0.19616956,-0.5962223,0.28288
alexnet_w1_mlp_simclrhn_probe2,1,257,NaN,bottle,clock,5,0257_lp_dnn_5_clock_10_n03196217_2530.png,n03196217_2530.png,0.0,0.2406397,0.43720573,-0.13899317
alexnet_w1_mlp_simclrhn_probe2,1,258,NaN,keyboard,airplane,5,0258_lp_dnn_5_airplane_10_n02690373_6992.png,n02690373_6992.png,0.0,-0.30146146,-0.05347307,-0.17535427
alexnet_w1_mlp_simclrhn_probe2,1,259,NaN,keyboard,airplane,3,0259_lp_dnn_3_airplane_10_n02690373_5056.png,n02690373_5056.png,0.0,-0.18683368,0.3736189,-0.39629984
alexnet_w1_mlp_simclrhn_probe2,1,260,NaN,bear,bear,1,0260_lp_dnn_1_bear_10_n02134418_2231.png,n02134418_2231.png,1.0,1.6748912,-0.3738401,1.4486718
alexnet_w1_mlp_simclrhn_probe2,1,261,NaN,bottle,truck,10,0261_lp_dnn_10_truck_10_n03796401_180.png,n03796401_180.png,0.0,-1.6836555,-0.047382142,-1.15702
alexnet_w1_mlp_simclrhn_probe2,1,262,NaN,cat,bicycle,3,0262_lp_dnn_3_bicycle_10_n02835271_3246.png,n02835271_3246.png,0.0,-0.683025,-0.30855125,-0.26479292
alexnet_w1_mlp_simclrhn_probe2,1,263,NaN,airplane,truck,3,0263_lp_dnn_3_truck_10_n03796401_599.png,n03796401_599.png,0.0,-0.12866949,0.052118674,-0.12783654
alexnet_w1_mlp_simclrhn_probe2,1,264,NaN,keyboard,oven,7,0264_lp_dnn_7_oven_10_n04111531_13862.png,n04111531_13862.png,0.0,-0.9768747,0.10479614,-0.7648568
alexnet_w1_mlp_simclrhn_probe2,1,265,NaN,chair,oven,0,0265_lp_dnn_0_oven_10_n04111531_10420.png,n04111531_10420.png,0.0,0.08864271,1.3080019,-0.8622171
alexnet_w1_mlp_simclrhn_probe2,1,266,NaN,bird,car,10,0266_lp_dnn_10_car_10_n03100240_15531.png,n03100240_15531.png,0.0,-1.0124174,-0.031087756,-0.6939049
alexnet_w1_mlp_simclrhn_probe2,1,267,NaN,keyboard,dog,7,0267_lp_dnn_7_dog_10_n02099849_3128.png,n02099849_3128.png,0.0,-1.0287087,-0.011836603,-0.7190371
alexnet_w1_mlp_simclrhn_probe2,1,268,NaN,keyboard,chair,5,0268_lp_dnn_5_chair_10_n02791124_3222.png,n02791124_3222.png,0.0,-1.3294369,0.35596326,-1.1917579
alexnet_w1_mlp_simclrhn_probe2,1,269,NaN,keyboard,keyboard,5,0269_lp_dnn_5_keyboard_10_n04505470_8364.png,n04505470_8364.png,1.0,0.22050178,-0.32118696,0.3830318
alexnet_w1_mlp_simclrhn_probe2,1,270,NaN,clock,clock,0,0270_lp_dnn_0_clock_10_n04548280_9294.png,n04548280_9294.png,1.0,0.8422707,0.23693827,0.42803463
alexnet_w1_mlp_simclrhn_probe2,1,271,NaN,keyboard,bottle,7,0271_lp_dnn_7_bottle_10_n03937543_3358.png,n03937543_3358.png,0.0,-0.04815624,0.1040943,-0.10765738
alexnet_w1_mlp_simclrhn_probe2,1,272,NaN,keyboard,knife,7,0272_lp_dnn_7_knife_10_n03041632_2058.png,n03041632_2058.png,0.0,-0.2792738,-0.0478919,-0.16361172
alexnet_w1_mlp_simclrhn_probe2,1,273,NaN,boat,elephant,1,0273_lp_dnn_1_elephant_10_n02504458_5671.png,n02504458_5671.png,0.0,-1.2026277,1.7634043,-2.0973015
alexnet_w1_mlp_simclrhn_probe2,1,274,NaN,keyboard,chair,10,0274_lp_dnn_10_chair_10_n02791124_6281.png,n02791124_6281.png,0.0,-1.0627828,-0.034163192,-0.72734386
alexnet_w1_mlp_simclrhn_probe2,1,275,NaN,clock,cat,15,0275_lp_dnn_15_cat_10_n02125311_44920.png,n02125311_44920.png,0.0,-0.70717764,-0.09268453,-0.43451226
alexnet_w1_mlp_simclrhn_probe2,1,276,NaN,bottle,airplane,5,0276_lp_dnn_5_airplane_10_n02690373_2981.png,n02690373_2981.png,0.0,-0.32247493,0.02792531,-0.24777038
alexnet_w1_mlp_simclrhn_probe2,1,277,NaN,knife,knife,1,0277_lp_dnn_1_knife_10_n03041632_2468.png,n03041632_2468.png,1.0,-0.61641264,-1.2286407,0.4329106
alexnet_w1_mlp_simclrhn_probe2,1,278,NaN,truck,clock,1,0278_lp_dnn_1_clock_10_n02708093_3605.png,n02708093_3605.png,0.0,-0.3919359,-0.3063012,-0.060552884
alexnet_w1_mlp_simclrhn_probe2,1,279,NaN,bicycle,bicycle,1,0279_lp_dnn_1_bicycle_10_n02835271_19019.png,n02835271_19019.png,1.0,6.137245,-0.3640415,4.597104
alexnet_w1_mlp_simclrhn_probe2,1,280,NaN,keyboard,keyboard,7,0280_lp_dnn_7_keyboard_10_n03085013_1188.png,n03085013_1188.png,1.0,-0.036540493,-0.20921393,0.12209856
alexnet_w1_mlp_simclrhn_probe2,1,281,NaN,oven,oven,1,0281_lp_dnn_1_oven_10_n04111531_2715.png,n04111531_2715.png,1.0,0.20353395,-1.1449019,0.9534882
alexnet_w1_mlp_simclrhn_probe2,1,282,NaN,clock,keyboard,10,0282_lp_dnn_10_keyboard_10_n03085013_9533.png,n03085013_9533.png,0.0,-0.07143372,0.16512473,-0.16727209
alexnet_w1_mlp_simclrhn_probe2,1,283,NaN,cat,cat,3,0283_lp_dnn_3_cat_10_n02123045_20366.png,n02123045_20366.png,1.0,0.20148079,-0.29290172,0.3495812
alexnet_w1_mlp_simclrhn_probe2,1,284,NaN,keyboard,chair,5,0284_lp_dnn_5_chair_10_n03376595_302.png,n03376595_302.png,0.0,-0.8634366,0.025301665,-0.62843287
alexnet_w1_mlp_simclrhn_probe2,1,285,NaN,keyboard,cat,7,0285_lp_dnn_7_cat_10_n02123597_14267.png,n02123597_14267.png,0.0,-1.3334526,-0.027083538,-0.9237424
alexnet_w1_mlp_simclrhn_probe2,1,286,NaN,bird,dog,15,0286_lp_dnn_15_dog_10_n02098286_2582.png,n02098286_2582.png,0.0,-0.94160473,0.11046342,-0.7439245
alexnet_w1_mlp_simclrhn_probe2,1,287,NaN,airplane,boat,1,0287_lp_dnn_1_boat_10_n03344393_4001.png,n03344393_4001.png,0.0,0.42038307,0.6941242,-0.19356424
alexnet_w1_mlp_simclrhn_probe2,1,288,NaN,airplane,bicycle,15,0288_lp_dnn_15_bicycle_10_n02835271_6122.png,n02835271_6122.png,0.0,-0.94155526,0.047476277,-0.69935095
alexnet_w1_mlp_simclrhn_probe2,1,289,NaN,bear,dog,3,0289_lp_dnn_3_dog_10_n02091134_3075.png,n02091134_3075.png,0.0,-0.13919272,0.25483036,-0.27861637
alexnet_w1_mlp_simclrhn_probe2,1,290,NaN,clock,oven,40,0290_lp_dnn_40_oven_10_n04111531_4795.png,n04111531_4795.png,0.0,-0.9922246,0.1453194,-0.80436504
alexnet_w1_mlp_simclrhn_probe2,1,291,NaN,bird,bottle,10,0291_lp_dnn_10_bottle_10_n04591713_4876.png,n04591713_4876.png,0.0,-0.41297087,-0.077851325,-0.23696531
alexnet_w1_mlp_simclrhn_probe2,1,292,NaN,clock,bottle,0,0292_lp_dnn_0_bottle_10_n02823428_2510.png,n02823428_2510.png,0.0,1.2826759,3.1649215,-1.3309487
alexnet_w1_mlp_simclrhn_probe2,1,293,NaN,chair,keyboard,1,0293_lp_dnn_1_keyboard_10_n03085013_5950.png,n03085013_5950.png,0.0,-0.7978867,-0.048470132,-0.52991754
alexnet_w1_mlp_simclrhn_probe2,1,294,NaN,bird,bear,5,0294_lp_dnn_5_bear_10_n02133161_1490.png,n02133161_1490.png,0.0,-0.37355155,-0.004891135,-0.26068228
alexnet_w1_mlp_simclrhn_probe2,1,295,NaN,keyboard,truck,10,0295_lp_dnn_10_truck_10_n03796401_28465.png,n03796401_28465.png,0.0,-1.3927338,-0.047832154,-0.9509891
alexnet_w1_mlp_simclrhn_probe2,1,296,NaN,clock,bottle,15,0296_lp_dnn_15_bottle_10_n02823428_6627.png,n02823428_6627.png,0.0,-0.14809132,0.028370442,-0.12477731
alexnet_w1_mlp_simclrhn_probe2,1,297,NaN,keyboard,truck,5,0297_lp_dnn_5_truck_10_n04467665_69582.png,n04467665_69582.png,0.0,-1.0215291,0.059331134,-0.76428366
alexnet_w1_mlp_simclrhn_probe2,1,298,NaN,clock,bird,40,0298_lp_dnn_40_bird_10_n02006656_10568.png,n02006656_10568.png,0.0,-0.534439,0.16016112,-0.4911565
alexnet_w1_mlp_simclrhn_probe2,1,299,NaN,clock,car,40,0299_lp_dnn_40_car_10_n04285008_11748.png,n04285008_11748.png,0.0,-0.6876052,0.2545631,-0.66621363
alexnet_w1_mlp_simclrhn_probe2,1,300,NaN,keyboard,truck,5,0300_lp_dnn_5_truck_10_n04467665_44714.png,n04467665_44714.png,0.0,-1.0129246,0.12720369,-0.80619246
alexnet_w1_mlp_simclrhn_probe2,1,301,NaN,airplane,airplane,3,0301_lp_dnn_3_airplane_10_n02690373_7487.png,n02690373_7487.png,1.0,0.96710795,-0.15469691,0.79323584
alexnet_w1_mlp_simclrhn_probe2,1,302,NaN,bird,elephant,15,0302_lp_dnn_15_elephant_10_n02504458_7472.png,n02504458_7472.png,0.0,-0.8430643,-0.035358578,-0.5711342
alexnet_w1_mlp_simclrhn_probe2,1,303,NaN,clock,boat,3,0303_lp_dnn_3_boat_10_n03662601_25023.png,n03662601_25023.png,0.0,-0.7068735,-0.10659177,-0.42446327
alexnet_w1_mlp_simclrhn_probe2,1,304,NaN,bicycle,knife,0,0304_lp_dnn_0_knife_10_n03041632_101673.png,n03041632_101673.png,0.0,-1.3681654,1.6210172,-2.1136713
alexnet_w1_mlp_simclrhn_probe2,1,305,NaN,bird,bottle,7,0305_lp_dnn_7_bottle_10_n03983396_587.png,n03983396_587.png,0.0,-0.284517,0.038795915,-0.22861676
alexnet_w1_mlp_simclrhn_probe2,1,306,NaN,oven,cat,3,0306_lp_dnn_3_cat_10_n02124075_7692.png,n02124075_7692.png,0.0,-0.21037923,-0.03194961,-0.1261688
alexnet_w1_mlp_simclrhn_probe2,1,307,NaN,oven,oven,0,0307_lp_dnn_0_oven_10_n04111531_6313.png,n04111531_6313.png,1.0,3.8468335,-0.40335754,3.0053391
alexnet_w1_mlp_simclrhn_probe2,1,308,NaN,bird,bird,7,0308_lp_dnn_7_bird_10_n02018795_5770.png,n02018795_5770.png,1.0,0.07704151,-0.13570532,0.15043473
alexnet_w1_mlp_simclrhn_probe2,1,309,NaN,bottle,bottle,3,0309_lp_dnn_3_bottle_10_n02823428_4658.png,n02823428_4658.png,1.0,1.585968,0.17351675,0.9987539
alexnet_w1_mlp_simclrhn_probe2,1,310,NaN,airplane,airplane,1,0310_lp_dnn_1_airplane_10_n02690373_2724.png,n02690373_2724.png,1.0,5.038904,-0.6547932,4.026052
alexnet_w1_mlp_simclrhn_probe2,1,311,NaN,clock,boat,40,0311_lp_dnn_40_boat_10_n04612504_7446.png,n04612504_7446.png,0.0,-0.29706642,0.18235695,-0.33900353
alexnet_w1_mlp_simclrhn_probe2,1,312,NaN,bird,boat,7,0312_lp_dnn_7_boat_10_n02951358_34783.png,n02951358_34783.png,0.0,-0.6894342,0.08242323,-0.5457856
alexnet_w1_mlp_simclrhn_probe2,1,313,NaN,cat,cat,0,0313_lp_dnn_0_cat_10_n02123597_680.png,n02123597_680.png,1.0,4.1408753,1.2925459,2.0140731
alexnet_w1_mlp_simclrhn_probe2,1,314,NaN,bird,bear,10,0314_lp_dnn_10_bear_10_n02133161_9863.png,n02133161_9863.png,0.0,-0.6946772,0.1855732,-0.62243104
alexnet_w1_mlp_simclrhn_probe2,1,315,NaN,bear,bear,1,0315_lp_dnn_1_bear_10_n02133161_2100.png,n02133161_2100.png,1.0,2.3317723,0.70742303,1.1485884
alexnet_w1_mlp_simclrhn_probe2,1,316,NaN,keyboard,oven,3,0316_lp_dnn_3_oven_10_n04111531_8009.png,n04111531_8009.png,0.0,0.36994302,0.55650926,-0.13192225
alexnet_w1_mlp_simclrhn_probe2,1,317,NaN,airplane,car,40,0317_lp_dnn_40_car_10_n03100240_16525.png,n03100240_16525.png,0.0,-0.6510593,0.2417577,-0.63131696
alexnet_w1_mlp_simclrhn_probe2,1,318,NaN,bird,bird,5,0318_lp_dnn_5_bird_10_n01824575_4941.png,n01824575_4941.png,1.0,0.13684249,-0.30211762,0.31039166
alexnet_w1_mlp_simclrhn_probe2,1,319,NaN,clock,knife,15,0319_lp_dnn_15_knife_10_n03041632_289.png,n03041632_289.png,0.0,-0.3573221,-0.07803362,-0.19748677
alexnet_w1_mlp_simclrhn_probe2,1,320,NaN,bird,dog,10,0320_lp_dnn_10_dog_10_n02101006_15350.png,n02101006_15350.png,0.0,-0.9639412,-0.08508085,-0.6214481
alexnet_w1_mlp_simclrhn_probe2,1,321,NaN,bird,elephant,5,0321_lp_dnn_5_elephant_10_n02504458_1636.png,n02504458_1636.png,0.0,-0.43993267,-0.05348335,-0.27326095
alexnet_w1_mlp_simclrhn_probe2,1,322,NaN,bird,car,7,0322_lp_dnn_7_car_10_n04285008_8666.png,n04285008_8666.png,0.0,-1.4284004,-0.063652225,-0.9650227
alexnet_w1_mlp_simclrhn_probe2,1,323,NaN,keyboard,bottle,5,0323_lp_dnn_5_bottle_10_n02823428_5451.png,n02823428_5451.png,0.0,0.07316683,0.18363033,-0.07810949
alexnet_w1_mlp_simclrhn_probe2,1,324,NaN,airplane,car,3,0324_lp_dnn_3_car_10_n03100240_2495.png,n03100240_2495.png,0.0,0.218527,0.44864908,-0.16272089
alexnet_w1_mlp_simclrhn_probe2,1,325,NaN,bird,bicycle,10,0325_lp_dnn_10_bicycle_10_n02835271_19565.png,n02835271_19565.png,0.0,-1.1609317,0.053767893,-0.85892236
alexnet_w1_mlp_simclrhn_probe2,1,326,NaN,airplane,airplane,1,0326_lp_dnn_1_airplane_10_n02690373_349.png,n02690373_349.png,1.0,2.2920325,-0.5417625,2.0037959
alexnet_w1_mlp_simclrhn_probe2,1,327,NaN,keyboard,cat,7,0327_lp_dnn_7_cat_10_n02123045_20512.png,n02123045_20512.png,0.0,-0.6643407,-0.0009690672,-0.46907458
alexnet_w1_mlp_simclrhn_probe2,1,328,NaN,clock,keyboard,1,0328_lp_dnn_1_keyboard_10_n03085013_23619.png,n03085013_23619.png,0.0,-0.8599495,-0.02264906,-0.59206086
alexnet_w1_mlp_simclrhn_probe2,1,329,NaN,bottle,boat,7,0329_lp_dnn_7_boat_10_n03662601_16925.png,n03662601_16925.png,0.0,-0.6395955,-0.0150842015,-0.44159618
alexnet_w1_mlp_simclrhn_probe2,1,330,NaN,keyboard,oven,10,0330_lp_dnn_10_oven_10_n04111531_12830.png,n04111531_12830.png,0.0,-0.80826414,0.05734708,-0.61207956
alexnet_w1_mlp_simclrhn_probe2,1,331,NaN,keyboard,boat,5,0331_lp_dnn_5_boat_10_n02951358_33277.png,n02951358_33277.png,0.0,-0.6122931,-0.04562016,-0.4006983
alexnet_w1_mlp_simclrhn_probe2,1,332,NaN,bird,bear,15,0332_lp_dnn_15_bear_10_n02133161_156.png,n02133161_156.png,0.0,-0.74618435,0.029767586,-0.5486809
alexnet_w1_mlp_simclrhn_probe2,1,333,NaN,clock,cat,40,0333_lp_dnn_40_cat_10_n02124075_6638.png,n02124075_6638.png,0.0,-0.57987577,0.16820909,-0.5289759
alexnet_w1_mlp_simclrhn_probe2,1,334,NaN,keyboard,keyboard,10,0334_lp_dnn_10_keyboard_10_n04505470_4587.png,n04505470_4587.png,1.0,-0.18474266,-0.21929951,0.024435384
alexnet_w1_mlp_simclrhn_probe2,1,335,NaN,keyboard,bear,10,0335_lp_dnn_10_bear_10_n02134084_27899.png,n02134084_27899.png,0.0,-0.94149053,-0.08385959,-0.60643667
alexnet_w1_mlp_simclrhn_probe2,1,336,NaN,keyboard,keyboard,0,0336_lp_dnn_0_keyboard_10_n03085013_10984.png,n03085013_10984.png,1.0,7.4693384,0.35351452,5.031647
alexnet_w1_mlp_simclrhn_probe2,1,337,NaN,bird,bottle,5,0337_lp_dnn_5_bottle_10_n03983396_10469.png,n03983396_10469.png,0.0,-0.45350268,0.06944787,-0.36978188
alexnet_w1_mlp_simclrhn_probe2,1,338,NaN,bird,knife,10,0338_lp_dnn_10_knife_10_n03041632_20707.png,n03041632_20707.png,0.0,-0.86953306,0.05066751,-0.65068007
alexnet_w1_mlp_simclrhn_probe2,1,339,NaN,truck,car,1,0339_lp_dnn_1_car_10_n04285008_9411.png,n04285008_9411.png,0.0,3.2881382,4.1122336,-0.5827235
alexnet_w1_mlp_simclrhn_probe2,1,340,NaN,clock,airplane,40,0340_lp_dnn_40_airplane_10_n02690373_4671.png,n02690373_4671.png,0.0,0.18814044,0.21742512,-0.0207074
alexnet_w1_mlp_simclrhn_probe2,1,341,NaN,bird,knife,7,0341_lp_dnn_7_knife_10_n03041632_16206.png,n03041632_16206.png,0.0,-0.39887276,-0.046557795,-0.24912432
alexnet_w1_mlp_simclrhn_probe2,1,342,NaN,keyboard,bicycle,5,0342_lp_dnn_5_bicycle_10_n03792782_7180.png,n03792782_7180.png,0.0,-1.1299827,0.053674743,-0.8369722
alexnet_w1_mlp_simclrhn_probe2,1,343,NaN,bear,bear,0,0343_lp_dnn_0_bear_10_n02134418_2719.png,n02134418_2719.png,1.0,3.0925608,0.53231716,1.8103657
alexnet_w1_mlp_simclrhn_probe2,1,344,NaN,chair,chair,0,0344_lp_dnn_0_chair_10_n04099969_2038.png,n04099969_2038.png,1.0,2.3950114,0.6914609,1.2045922
alexnet_w1_mlp_simclrhn_probe2,1,345,NaN,oven,dog,1,0345_lp_dnn_1_dog_10_n02113023_5237.png,n02113023_5237.png,0.0,-1.0525285,0.7753704,-1.2925198
alexnet_w1_mlp_simclrhn_probe2,1,346,NaN,clock,airplane,40,0346_lp_dnn_40_airplane_10_n02690373_2525.png,n02690373_2525.png,0.0,-0.09216273,0.147892,-0.16974433
alexnet_w1_mlp_simclrhn_probe2,1,347,NaN,clock,clock,7,0347_lp_dnn_7_clock_10_n04548280_219.png,n04548280_219.png,1.0,0.17715766,0.039489646,0.097345985
alexnet_w1_mlp_simclrhn_probe2,1,348,NaN,bird,boat,15,0348_lp_dnn_15_boat_10_n04612504_2805.png,n04612504_2805.png,0.0,-1.0356705,-0.06897426,-0.6835575
alexnet_w1_mlp_simclrhn_probe2,1,349,NaN,keyboard,clock,7,0349_lp_dnn_7_clock_10_n02708093_7020.png,n02708093_7020.png,0.0,-0.18283208,0.12153666,-0.2152212
alexnet_w1_mlp_simclrhn_probe2,1,350,NaN,oven,oven,3,0350_lp_dnn_3_oven_10_n04111531_5171.png,n04111531_5171.png,1.0,-0.0797218,-0.21249045,0.09388162
alexnet_w1_mlp_simclrhn_probe2,1,351,NaN,bear,cat,3,0351_lp_dnn_3_cat_10_n02125311_37322.png,n02125311_37322.png,0.0,-0.301599,-0.25214386,-0.034970064
alexnet_w1_mlp_simclrhn_probe2,1,352,NaN,keyboard,cat,7,0352_lp_dnn_7_cat_10_n02123597_14094.png,n02123597_14094.png,0.0,-0.9375165,-0.108811244,-0.5859831
alexnet_w1_mlp_simclrhn_probe2,1,353,NaN,bird,boat,15,0353_lp_dnn_15_boat_10_n02951358_13352.png,n02951358_13352.png,0.0,-1.0779917,-0.12396599,-0.6745981
alexnet_w1_mlp_simclrhn_probe2,1,354,NaN,bottle,bicycle,10,0354_lp_dnn_10_bicycle_10_n02835271_20445.png,n02835271_20445.png,0.0,-1.34989,-0.1035046,-0.8813275
alexnet_w1_mlp_simclrhn_probe2,1,355,NaN,keyboard,knife,7,0355_lp_dnn_7_knife_10_n03041632_4708.png,n03041632_4708.png,0.0,-0.2852687,0.1057812,-0.27651402
alexnet_w1_mlp_simclrhn_probe2,1,356,NaN,keyboard,oven,7,0356_lp_dnn_7_oven_10_n04111531_505.png,n04111531_505.png,0.0,-0.9440835,0.14913806,-0.7730244
alexnet_w1_mlp_simclrhn_probe2,1,357,NaN,bicycle,bicycle,1,0357_lp_dnn_1_bicycle_10_n03792782_104.png,n03792782_104.png,1.0,3.2512157,-1.6719067,3.4811733
alexnet_w1_mlp_simclrhn_probe2,1,358,NaN,clock,bottle,40,0358_lp_dnn_40_bottle_10_n04591713_5204.png,n04591713_5204.png,0.0,-0.16508774,0.20401184,-0.26099283
alexnet_w1_mlp_simclrhn_probe2,1,359,NaN,keyboard,bicycle,5,0359_lp_dnn_5_bicycle_10_n03792782_5578.png,n03792782_5578.png,0.0,-1.1317583,-0.0302715,-0.7788688
alexnet_w1_mlp_simclrhn_probe2,1,360,NaN,bird,truck,10,0360_lp_dnn_10_truck_10_n03417042_1437.png,n03417042_1437.png,0.0,-1.9948674,-0.025761,-1.3923686
alexnet_w1_mlp_simclrhn_probe2,1,361,NaN,oven,cat,0,0361_lp_dnn_0_cat_10_n02123045_7482.png,n02123045_7482.png,0.0,-1.6492211,-1.0661957,-0.4122612
alexnet_w1_mlp_simclrhn_probe2,1,362,NaN,bird,bird,10,0362_lp_dnn_10_bird_10_n02037110_554.png,n02037110_554.png,1.0,0.13809082,-0.2068871,0.24393623
alexnet_w1_mlp_simclrhn_probe2,1,363,NaN,bird,bicycle,5,0363_lp_dnn_5_bicycle_10_n03792782_15.png,n03792782_15.png,0.0,-0.68940383,0.107159354,-0.56325525
alexnet_w1_mlp_simclrhn_probe2,1,364,NaN,keyboard,bicycle,5,0364_lp_dnn_5_bicycle_10_n02835271_7450.png,n02835271_7450.png,0.0,-1.577919,0.036644384,-1.1416687
alexnet_w1_mlp_simclrhn_probe2,1,365,NaN,bottle,boat,5,0365_lp_dnn_5_boat_10_n03344393_3881.png,n03344393_3881.png,0.0,-0.8297199,0.02357459,-0.6033703
alexnet_w1_mlp_simclrhn_probe2,1,366,NaN,keyboard,chair,10,0366_lp_dnn_10_chair_10_n04099969_3623.png,n04099969_3623.png,0.0,-1.0060904,-0.028454073,-0.6912933
alexnet_w1_mlp_simclrhn_probe2,1,367,NaN,bottle,airplane,5,0367_lp_dnn_5_airplane_10_n02690373_2579.png,n02690373_2579.png,0.0,-0.45336103,-0.011795832,-0.31223378
alexnet_w1_mlp_simclrhn_probe2,1,368,NaN,clock,dog,15,0368_lp_dnn_15_dog_10_n02093859_3707.png,n02093859_3707.png,0.0,-1.1540544,-0.14330429,-0.7147082
alexnet_w1_mlp_simclrhn_probe2,1,369,NaN,oven,bottle,1,0369_lp_dnn_1_bottle_10_n04560804_22426.png,n04560804_22426.png,0.0,-1.778019,0.045147814,-1.2891736
alexnet_w1_mlp_simclrhn_probe2,1,370,NaN,clock,clock,15,0370_lp_dnn_15_clock_10_n03196217_82.png,n03196217_82.png,1.0,0.0037589844,-0.096453846,0.07086117
alexnet_w1_mlp_simclrhn_probe2,1,371,NaN,keyboard,car,5,0371_lp_dnn_5_car_10_n03100240_16907.png,n03100240_16907.png,0.0,-1.1003712,-0.007922009,-0.7724782
alexnet_w1_mlp_simclrhn_probe2,1,372,NaN,keyboard,oven,5,0372_lp_dnn_5_oven_10_n04111531_9548.png,n04111531_9548.png,0.0,-0.92973375,-0.14660083,-0.5537586
alexnet_w1_mlp_simclrhn_probe2,1,373,NaN,bird,clock,7,0373_lp_dnn_7_clock_10_n02708093_3751.png,n02708093_3751.png,0.0,-0.6154775,0.020060316,-0.4493931
alexnet_w1_mlp_simclrhn_probe2,1,374,NaN,keyboard,car,7,0374_lp_dnn_7_car_10_n02814533_6593.png,n02814533_6593.png,0.0,-1.3394499,0.020008199,-0.9612821
alexnet_w1_mlp_simclrhn_probe2,1,375,NaN,airplane,airplane,0,0375_lp_dnn_0_airplane_10_n02690373_3212.png,n02690373_3212.png,1.0,6.951171,-0.19068909,5.050058
alexnet_w1_mlp_simclrhn_probe2,1,376,NaN,cat,cat,1,0376_lp_dnn_1_cat_10_n02123045_5820.png,n02123045_5820.png,1.0,-0.27156714,-0.9056694,0.448378
alexnet_w1_mlp_simclrhn_probe2,1,377,NaN,bottle,elephant,3,0377_lp_dnn_3_elephant_10_n02504458_205.png,n02504458_205.png,0.0,-0.5382314,0.26061302,-0.5648683
alexnet_w1_mlp_simclrhn_probe2,1,378,NaN,bird,elephant,10,0378_lp_dnn_10_elephant_10_n02504013_3425.png,n02504013_3425.png,0.0,-0.78312457,0.05039435,-0.5893869
alexnet_w1_mlp_simclrhn_probe2,1,379,NaN,bird,bird,15,0379_lp_dnn_15_bird_10_n02056570_9572.png,n02056570_9572.png,1.0,-0.1052384,-0.1284078,0.016383244
alexnet_w1_mlp_simclrhn_probe2,1,380,NaN,clock,elephant,40,0380_lp_dnn_40_elephant_10_n02504013_7635.png,n02504013_7635.png,0.0,-1.0132222,0.26583418,-0.9044295
alexnet_w1_mlp_simclrhn_probe2,1,381,NaN,bottle,boat,10,0381_lp_dnn_10_boat_10_n04273569_10716.png,n04273569_10716.png,0.0,-0.7220869,-0.053761512,-0.47257745
alexnet_w1_mlp_simclrhn_probe2,1,382,NaN,bird,bear,15,0382_lp_dnn_15_bear_10_n02134084_19849.png,n02134084_19849.png,0.0,-0.960361,-0.109964125,-0.6013214
alexnet_w1_mlp_simclrhn_probe2,1,383,NaN,clock,boat,40,0383_lp_dnn_40_boat_10_n03662601_35800.png,n03662601_35800.png,0.0,-0.5001244,0.16565663,-0.4707783
alexnet_w1_mlp_simclrhn_probe2,1,384,NaN,clock,bicycle,40,0384_lp_dnn_40_bicycle_10_n03792782_29276.png,n03792782_29276.png,0.0,-1.1496091,0.22053565,-0.96883863
alexnet_w1_mlp_simclrhn_probe2,1,385,NaN,bird,oven,10,0385_lp_dnn_10_oven_10_n04111531_4392.png,n04111531_4392.png,0.0,-1.0838721,0.21093084,-0.91556394
alexnet_w1_mlp_simclrhn_probe2,1,386,NaN,airplane,airplane,0,0386_lp_dnn_0_airplane_10_n02690373_7099.png,n02690373_7099.png,1.0,9.821914,1.0794046,6.1818876
alexnet_w1_mlp_simclrhn_probe2,1,387,NaN,bird,cat,5,0387_lp_dnn_5_cat_10_n02124075_13187.png,n02124075_13187.png,0.0,-0.6139398,0.053145804,-0.4717008
alexnet_w1_mlp_simclrhn_probe2,1,388,NaN,knife,knife,0,0388_lp_dnn_0_knife_10_n03041632_32048.png,n03041632_32048.png,1.0,-0.5905688,-1.2963359,0.49905276
alexnet_w1_mlp_simclrhn_probe2,1,389,NaN,airplane,airplane,3,0389_lp_dnn_3_airplane_10_n02690373_20074.png,n02690373_20074.png,1.0,0.35393757,0.00916506,0.24379098
alexnet_w1_mlp_simclrhn_probe2,1,390,NaN,truck,car,1,0390_lp_dnn_1_car_10_n02814533_83577.png,n02814533_83577.png,0.0,4.9252553,5.4618235,-0.37941098
alexnet_w1_mlp_simclrhn_probe2,1,391,NaN,clock,airplane,40,0391_lp_dnn_40_airplane_10_n02690373_19134.png,n02690373_19134.png,0.0,-0.30365542,0.092279576,-0.27996832
alexnet_w1_mlp_simclrhn_probe2,1,392,NaN,knife,knife,3,0392_lp_dnn_3_knife_10_n03041632_13130.png,n03041632_13130.png,1.0,-0.042542115,-0.24685249,0.14446925
alexnet_w1_mlp_simclrhn_probe2,1,393,NaN,knife,knife,0,0393_lp_dnn_0_knife_10_n03041632_1006.png,n03041632_1006.png,1.0,-0.3038303,-1.8616766,1.1015637
alexnet_w1_mlp_simclrhn_probe2,1,394,NaN,elephant,elephant,1,0394_lp_dnn_1_elephant_10_n02504458_7634.png,n02504458_7634.png,1.0,5.696264,1.5229435,2.950983
alexnet_w1_mlp_simclrhn_probe2,1,395,NaN,bicycle,bicycle,1,0395_lp_dnn_1_bicycle_10_n02835271_17184.png,n02835271_17184.png,1.0,6.6693254,-0.17951307,4.84286
alexnet_w1_mlp_simclrhn_probe2,1,396,NaN,chair,oven,0,0396_lp_dnn_0_oven_10_n04111531_2189.png,n04111531_2189.png,0.0,-0.1521712,-0.06633675,-0.060694117
alexnet_w1_mlp_simclrhn_probe2,1,397,NaN,clock,cat,15,0397_lp_dnn_15_cat_10_n02124075_11888.png,n02124075_11888.png,0.0,-0.44091976,0.006747005,-0.3165482
alexnet_w1_mlp_simclrhn_probe2,1,398,NaN,bird,cat,10,0398_lp_dnn_10_cat_10_n02123394_1690.png,n02123394_1690.png,0.0,-0.58634514,0.1754942,-0.5387018
alexnet_w1_mlp_simclrhn_probe2,1,399,NaN,dog,dog,1,0399_lp_dnn_1_dog_10_n02111500_2905.png,n02111500_2905.png,1.0,1.5660579,-0.7860198,1.6631701
alexnet_w1_mlp_simclrhn_probe2,1,400,NaN,keyboard,knife,5,0400_lp_dnn_5_knife_10_n03041632_20433.png,n03041632_20433.png,0.0,-0.66479504,0.19012369,-0.60451883
alexnet_w1_mlp_simclrhn_probe2,1,401,NaN,clock,clock,15,0401_lp_dnn_15_clock_10_n04548280_22641.png,n04548280_22641.png,1.0,-0.15621133,-0.204427,0.03409363
alexnet_w1_mlp_simclrhn_probe2,1,402,NaN,clock,bottle,15,0402_lp_dnn_15_bottle_10_n04557648_634.png,n04557648_634.png,0.0,-0.22340827,-0.076676816,-0.1037548
alexnet_w1_mlp_simclrhn_probe2,1,403,NaN,truck,truck,1,0403_lp_dnn_1_truck_10_n04467665_69447.png,n04467665_69447.png,1.0,2.4789634,2.0869238,0.2772138
alexnet_w1_mlp_simclrhn_probe2,1,404,NaN,elephant,elephant,3,0404_lp_dnn_3_elephant_10_n02504013_1777.png,n02504013_1777.png,1.0,0.10747196,-0.049079828,0.11069883
alexnet_w1_mlp_simclrhn_probe2,1,405,NaN,truck,truck,0,0405_lp_dnn_0_truck_10_n03796401_2559.png,n03796401_2559.png,1.0,4.028509,0.368562,2.5879736
alexnet_w1_mlp_simclrhn_probe2,1,406,NaN,car,car,1,0406_lp_dnn_1_car_10_n02814533_42547.png,n02814533_42547.png,1.0,5.7715783,4.4716663,0.9191766
alexnet_w1_mlp_simclrhn_probe2,1,407,NaN,bird,clock,15,0407_lp_dnn_15_clock_10_n04548280_7181.png,n04548280_7181.png,0.0,-0.20915289,-0.12250248,-0.061271094
alexnet_w1_mlp_simclrhn_probe2,1,408,NaN,airplane,boat,1,0408_lp_dnn_1_boat_10_n03344393_5030.png,n03344393_5030.png,0.0,1.8103943,2.7847824,-0.68899643
alexnet_w1_mlp_simclrhn_probe2,1,409,NaN,bird,bottle,15,0409_lp_dnn_15_bottle_10_n04591713_2952.png,n04591713_2952.png,0.0,-0.49135348,0.145815,-0.45054615
alexnet_w1_mlp_simclrhn_probe2,1,410,NaN,keyboard,keyboard,5,0410_lp_dnn_5_keyboard_10_n04505470_4742.png,n04505470_4742.png,1.0,-0.0049105585,-0.22954084,0.1588376
alexnet_w1_mlp_simclrhn_probe2,1,411,NaN,bird,bear,7,0411_lp_dnn_7_bear_10_n02134418_4696.png,n02134418_4696.png,0.0,-0.8063477,-0.06499947,-0.5242124
alexnet_w1_mlp_simclrhn_probe2,1,412,NaN,clock,bear,40,0412_lp_dnn_40_bear_10_n02132136_5815.png,n02132136_5815.png,0.0,-0.7726151,0.20556869,-0.6916804
alexnet_w1_mlp_simclrhn_probe2,1,413,NaN,bird,bicycle,15,0413_lp_dnn_15_bicycle_10_n02835271_8203.png,n02835271_8203.png,0.0,-1.1709299,-0.11294259,-0.74811006
alexnet_w1_mlp_simclrhn_probe2,1,414,NaN,clock,car,40,0414_lp_dnn_40_car_10_n04285008_12868.png,n04285008_12868.png,0.0,-0.6732004,0.10419538,-0.54970187
alexnet_w1_mlp_simclrhn_probe2,1,415,NaN,airplane,bear,40,0415_lp_dnn_40_bear_10_n02132136_7074.png,n02132136_7074.png,0.0,-0.72413695,0.12887263,-0.60316885
alexnet_w1_mlp_simclrhn_probe2,1,416,NaN,oven,boat,3,0416_lp_dnn_3_boat_10_n03344393_8265.png,n03344393_8265.png,0.0,-0.38031632,-0.0006480813,-0.268466
alexnet_w1_mlp_simclrhn_probe2,1,417,NaN,bird,truck,10,0417_lp_dnn_10_truck_10_n04467665_12177.png,n04467665_12177.png,0.0,-1.7728069,-0.025020812,-1.2358714
alexnet_w1_mlp_simclrhn_probe2,1,418,NaN,car,car,3,0418_lp_dnn_3_car_10_n03100240_8987.png,n03100240_8987.png,1.0,0.5166414,-0.10848515,0.44203123
alexnet_w1_mlp_simclrhn_probe2,1,419,NaN,bird,bird,15,0419_lp_dnn_15_bird_10_n01530575_10601.png,n01530575_10601.png,1.0,-0.05330746,-0.1520096,0.069792956
alexnet_w1_mlp_simclrhn_probe2,1,420,NaN,clock,keyboard,15,0420_lp_dnn_15_keyboard_10_n04505470_313.png,n04505470_313.png,0.0,-0.28844845,-0.1535257,-0.0954048
alexnet_w1_mlp_simclrhn_probe2,1,421,NaN,keyboard,truck,1,0421_lp_dnn_1_truck_10_n03417042_5371.png,n03417042_5371.png,0.0,0.048537657,0.29894447,-0.17706434
alexnet_w1_mlp_simclrhn_probe2,1,422,NaN,truck,truck,0,0422_lp_dnn_0_truck_10_n03796401_29952.png,n03796401_29952.png,1.0,4.227771,-1.6025949,4.122691
alexnet_w1_mlp_simclrhn_probe2,1,423,NaN,keyboard,bicycle,5,0423_lp_dnn_5_bicycle_10_n03792782_6159.png,n03792782_6159.png,0.0,-1.0374448,0.06417154,-0.7789604
alexnet_w1_mlp_simclrhn_probe2,1,424,NaN,bird,elephant,7,0424_lp_dnn_7_elephant_10_n02504458_1336.png,n02504458_1336.png,0.0,-0.70448565,0.18133414,-0.6263692
alexnet_w1_mlp_simclrhn_probe2,1,425,NaN,bird,bicycle,10,0425_lp_dnn_10_bicycle_10_n02835271_8597.png,n02835271_8597.png,0.0,-1.1043507,0.24811476,-0.95633745
alexnet_w1_mlp_simclrhn_probe2,1,426,NaN,keyboard,keyboard,3,0426_lp_dnn_3_keyboard_10_n04505470_3615.png,n04505470_3615.png,1.0,1.1417245,-0.015786568,0.8184839
alexnet_w1_mlp_simclrhn_probe2,1,427,NaN,bird,dog,7,0427_lp_dnn_7_dog_10_n02090721_7040.png,n02090721_7040.png,0.0,-0.83493197,-0.032471407,-0.5674253
alexnet_w1_mlp_simclrhn_probe2,1,428,NaN,cat,cat,0,0428_lp_dnn_0_cat_10_n02124075_17347.png,n02124075_17347.png,1.0,3.0757754,-1.5207063,3.2502036
alexnet_w1_mlp_simclrhn_probe2,1,429,NaN,chair,keyboard,0,0429_lp_dnn_0_keyboard_10_n03085013_23018.png,n03085013_23018.png,0.0,-0.19959226,0.4678908,-0.47198182
alexnet_w1_mlp_simclrhn_probe2,1,430,NaN,airplane,car,40,0430_lp_dnn_40_car_10_n03100240_5018.png,n03100240_5018.png,0.0,-0.7885375,0.100141734,-0.62839115
alexnet_w1_mlp_simclrhn_probe2,1,431,NaN,clock,dog,40,0431_lp_dnn_40_dog_10_n02105056_12631.png,n02105056_12631.png,0.0,-0.9538377,0.20432915,-0.8189477
alexnet_w1_mlp_simclrhn_probe2,1,432,NaN,clock,knife,15,0432_lp_dnn_15_knife_10_n03041632_27848.png,n03041632_27848.png,0.0,-0.35805374,0.06082197,-0.29618987
alexnet_w1_mlp_simclrhn_probe2,1,433,NaN,keyboard,keyboard,3,0433_lp_dnn_3_keyboard_10_n04505470_4432.png,n04505470_4432.png,1.0,1.6116366,0.06658665,1.0925153
alexnet_w1_mlp_simclrhn_probe2,1,434,NaN,clock,bear,15,0434_lp_dnn_15_bear_10_n02132136_786.png,n02132136_786.png,0.0,-0.754518,-0.024651835,-0.5160933
alexnet_w1_mlp_simclrhn_probe2,1,435,NaN,bird,truck,15,0435_lp_dnn_15_truck_10_n03796401_10519.png,n03796401_10519.png,0.0,-1.2638562,-0.044326704,-0.8623376
alexnet_w1_mlp_simclrhn_probe2,1,436,NaN,airplane,airplane,5,0436_lp_dnn_5_airplane_10_n02690373_9086.png,n02690373_9086.png,1.0,0.06402728,-0.043525264,0.07605113
alexnet_w1_mlp_simclrhn_probe2,1,437,NaN,bicycle,boat,0,0437_lp_dnn_0_boat_10_n02951358_512.png,n02951358_512.png,0.0,-1.4537929,2.524816,-2.8133016
alexnet_w1_mlp_simclrhn_probe2,1,438,NaN,keyboard,bear,10,0438_lp_dnn_10_bear_10_n02132136_10468.png,n02132136_10468.png,0.0,-1.0935321,-0.119170524,-0.68897766
alexnet_w1_mlp_simclrhn_probe2,1,439,NaN,keyboard,bear,5,0439_lp_dnn_5_bear_10_n02134084_13175.png,n02134084_13175.png,0.0,-0.8136599,0.10371557,-0.6486824
alexnet_w1_mlp_simclrhn_probe2,1,440,NaN,bird,dog,10,0440_lp_dnn_10_dog_10_n02088364_2119.png,n02088364_2119.png,0.0,-1.0175477,0.12535574,-0.80815476
alexnet_w1_mlp_simclrhn_probe2,1,441,NaN,boat,boat,1,0441_lp_dnn_1_boat_10_n04612504_26238.png,n04612504_26238.png,1.0,3.6882415,-0.40849727,2.8968318
alexnet_w1_mlp_simclrhn_probe2,1,442,NaN,bear,bear,3,0442_lp_dnn_3_bear_10_n02134084_20142.png,n02134084_20142.png,1.0,-0.00032830238,-0.2224745,0.15708108
alexnet_w1_mlp_simclrhn_probe2,1,443,NaN,keyboard,dog,5,0443_lp_dnn_5_dog_10_n02107683_1076.png,n02107683_1076.png,0.0,-1.1818886,0.13801552,-0.93331313
alexnet_w1_mlp_simclrhn_probe2,1,444,NaN,keyboard,car,3,0444_lp_dnn_3_car_10_n02814533_35386.png,n02814533_35386.png,0.0,0.0980053,0.17267944,-0.05280259
alexnet_w1_mlp_simclrhn_probe2,1,445,NaN,bird,bird,3,0445_lp_dnn_3_bird_10_n01531178_15380.png,n01531178_15380.png,1.0,-0.27733612,-0.3853592,0.07638385
alexnet_w1_mlp_simclrhn_probe2,1,446,NaN,keyboard,bear,7,0446_lp_dnn_7_bear_10_n02134084_17529.png,n02134084_17529.png,0.0,-1.2614844,-0.004132092,-0.8890824
alexnet_w1_mlp_simclrhn_probe2,1,447,NaN,bird,bicycle,10,0447_lp_dnn_10_bicycle_10_n02835271_22623.png,n02835271_22623.png,0.0,-1.0325952,0.0018262009,-0.7314463
alexnet_w1_mlp_simclrhn_probe2,1,448,NaN,bird,chair,15,0448_lp_dnn_15_chair_10_n02791124_3160.png,n02791124_3160.png,0.0,-1.4531503,0.07649624,-1.0816234
alexnet_w1_mlp_simclrhn_probe2,1,449,NaN,bottle,bottle,0,0449_lp_dnn_0_bottle_10_n02823428_2422.png,n02823428_2422.png,1.0,6.552695,-0.014541417,4.6437373
alexnet_w1_mlp_simclrhn_probe2,1,450,NaN,bird,bear,7,0450_lp_dnn_7_bear_10_n02134084_34902.png,n02134084_34902.png,0.0,-0.73993355,-0.034213625,-0.49901935
alexnet_w1_mlp_simclrhn_probe2,1,451,NaN,airplane,bicycle,15,0451_lp_dnn_15_bicycle_10_n02835271_3535.png,n02835271_3535.png,0.0,-1.1805314,-0.12044419,-0.74959487
alexnet_w1_mlp_simclrhn_probe2,1,452,NaN,oven,oven,1,0452_lp_dnn_1_oven_10_n04111531_10640.png,n04111531_10640.png,1.0,3.3084636,0.48591393,1.995844
alexnet_w1_mlp_simclrhn_probe2,1,453,NaN,clock,keyboard,40,0453_lp_dnn_40_keyboard_10_n04505470_1338.png,n04505470_1338.png,0.0,-0.26881507,0.17874508,-0.3164728
alexnet_w1_mlp_simclrhn_probe2,1,454,NaN,chair,keyboard,0,0454_lp_dnn_0_keyboard_10_n03085013_26656.png,n03085013_26656.png,0.0,1.6147183,2.6098,-0.7036291
alexnet_w1_mlp_simclrhn_probe2,1,455,NaN,bottle,boat,5,0455_lp_dnn_5_boat_10_n03344393_9575.png,n03344393_9575.png,0.0,-1.083966,0.07760191,-0.8213526
alexnet_w1_mlp_simclrhn_probe2,1,456,NaN,boat,boat,1,0456_lp_dnn_1_boat_10_n03344393_4616.png,n03344393_4616.png,1.0,1.8970209,-0.18756968,1.4740282
alexnet_w1_mlp_simclrhn_probe2,1,457,NaN,bicycle,bicycle,0,0457_lp_dnn_0_bicycle_10_n02835271_11929.png,n02835271_11929.png,1.0,3.1719851,-0.70184124,2.739209
alexnet_w1_mlp_simclrhn_probe2,1,458,NaN,keyboard,keyboard,3,0458_lp_dnn_3_keyboard_10_n03085013_20515.png,n03085013_20515.png,1.0,2.062418,0.14157045,1.3582443
alexnet_w1_mlp_simclrhn_probe2,1,459,NaN,clock,dog,40,0459_lp_dnn_40_dog_10_n02088364_3791.png,n02088364_3791.png,0.0,-0.90862626,0.19941391,-0.78350276
alexnet_w1_mlp_simclrhn_probe2,1,460,NaN,airplane,airplane,0,0460_lp_dnn_0_airplane_10_n02690373_10114.png,n02690373_10114.png,1.0,8.467337,3.4698734,3.5337403
alexnet_w1_mlp_simclrhn_probe2,1,461,NaN,bottle,airplane,10,0461_lp_dnn_10_airplane_10_n02690373_8543.png,n02690373_8543.png,0.0,-0.3603451,-0.09559404,-0.18720727
alexnet_w1_mlp_simclrhn_probe2,1,462,NaN,bottle,chair,7,0462_lp_dnn_7_chair_10_n04429376_14967.png,n04429376_14967.png,0.0,-0.8972963,0.09928131,-0.7046868
alexnet_w1_mlp_simclrhn_probe2,1,463,NaN,bird,cat,15,0463_lp_dnn_15_cat_10_n02125311_24439.png,n02125311_24439.png,0.0,-0.640798,-0.042020563,-0.42339957
alexnet_w1_mlp_simclrhn_probe2,1,464,NaN,keyboard,truck,5,0464_lp_dnn_5_truck_10_n03417042_4665.png,n03417042_4665.png,0.0,-1.3548983,0.28921762,-1.1625656
alexnet_w1_mlp_simclrhn_probe2,1,465,NaN,clock,elephant,40,0465_lp_dnn_40_elephant_10_n02504013_4044.png,n02504013_4044.png,0.0,-0.9554273,0.17011507,-0.7958787
alexnet_w1_mlp_simclrhn_probe2,1,466,NaN,bird,bird,1,0466_lp_dnn_1_bird_10_n01843065_3596.png,n01843065_3596.png,1.0,2.3246026,-3.3247325,3.994683
alexnet_w1_mlp_simclrhn_probe2,1,467,NaN,bird,bird,10,0467_lp_dnn_10_bird_10_n02011460_17499.png,n02011460_17499.png,1.0,0.1589688,-0.22830686,0.27384526
alexnet_w1_mlp_simclrhn_probe2,1,468,NaN,elephant,elephant,0,0468_lp_dnn_0_elephant_10_n02504458_7506.png,n02504458_7506.png,1.0,1.8659756,-0.8305855,1.9067566
alexnet_w1_mlp_simclrhn_probe2,1,469,NaN,clock,keyboard,40,0469_lp_dnn_40_keyboard_10_n03085013_21955.png,n03085013_21955.png,0.0,-0.38477135,0.16043213,-0.38551706
alexnet_w1_mlp_simclrhn_probe2,1,470,NaN,clock,clock,40,0470_lp_dnn_40_clock_10_n02708093_7810.png,n02708093_7810.png,1.0,0.18319432,0.10352264,0.056336388
alexnet_w1_mlp_simclrhn_probe2,1,471,NaN,clock,car,40,0471_lp_dnn_40_car_10_n02814533_7984.png,n02814533_7984.png,0.0,-0.74055773,0.14297552,-0.62475234
alexnet_w1_mlp_simclrhn_probe2,1,472,NaN,keyboard,dog,5,0472_lp_dnn_5_dog_10_n02106382_1806.png,n02106382_1806.png,0.0,-1.0851517,2.284348e-05,-0.7673343
alexnet_w1_mlp_simclrhn_probe2,1,473,NaN,bird,chair,15,0473_lp_dnn_15_chair_10_n02791124_3890.png,n02791124_3890.png,0.0,-1.3610716,-0.02663816,-0.94358695
alexnet_w1_mlp_simclrhn_probe2,1,474,NaN,bird,elephant,7,0474_lp_dnn_7_elephant_10_n02504013_16929.png,n02504013_16929.png,0.0,-1.1057897,-0.045163043,-0.7499763
alexnet_w1_mlp_simclrhn_probe2,1,475,NaN,bird,elephant,7,0475_lp_dnn_7_elephant_10_n02504013_8052.png,n02504013_8052.png,0.0,-1.0124475,0.13628061,-0.81227344
alexnet_w1_mlp_simclrhn_probe2,1,476,NaN,bear,bear,1,0476_lp_dnn_1_bear_10_n02132136_1584.png,n02132136_1584.png,1.0,2.5370135,1.2057292,0.9413602
alexnet_w1_mlp_simclrhn_probe2,1,477,NaN,keyboard,keyboard,1,0477_lp_dnn_1_keyboard_10_n04505470_532.png,n04505470_532.png,1.0,4.7631855,0.86042595,2.7596679
alexnet_w1_mlp_simclrhn_probe2,1,478,NaN,airplane,airplane,1,0478_lp_dnn_1_airplane_10_n02690373_3988.png,n02690373_3988.png,1.0,6.0355396,1.7852329,3.0054207
alexnet_w1_mlp_simclrhn_probe2,1,479,NaN,bird,bicycle,15,0479_lp_dnn_15_bicycle_10_n03792782_13051.png,n03792782_13051.png,0.0,-0.9981184,0.14133704,-0.8057167
alexnet_w1_mlp_simclrhn_probe2,1,480,NaN,bottle,bear,3,0480_lp_dnn_3_bear_10_n02134084_4818.png,n02134084_4818.png,0.0,-0.80396426,-0.30948564,-0.3496492
alexnet_w1_mlp_simclrhn_probe2,1,481,NaN,bird,boat,10,0481_lp_dnn_10_boat_10_n02951358_9146.png,n02951358_9146.png,0.0,-0.93763465,0.027522149,-0.68246895
alexnet_w1_mlp_simclrhn_probe2,1,482,NaN,clock,keyboard,40,0482_lp_dnn_40_keyboard_10_n03085013_19317.png,n03085013_19317.png,0.0,-0.3570301,0.16622645,-0.36999825
alexnet_w1_mlp_simclrhn_probe2,1,483,NaN,clock,bicycle,40,0483_lp_dnn_40_bicycle_10_n03792782_17666.png,n03792782_17666.png,0.0,-1.0003922,0.13556904,-0.80324596
alexnet_w1_mlp_simclrhn_probe2,1,484,NaN,clock,bear,40,0484_lp_dnn_40_bear_10_n02133161_20090.png,n02133161_20090.png,0.0,-0.7840694,0.1582447,-0.66631675
alexnet_w1_mlp_simclrhn_probe2,1,485,NaN,oven,bottle,3,0485_lp_dnn_3_bottle_10_n03937543_11101.png,n03937543_11101.png,0.0,-0.7744347,-0.1969555,-0.40833944
alexnet_w1_mlp_simclrhn_probe2,1,486,NaN,keyboard,bear,7,0486_lp_dnn_7_bear_10_n02133161_2281.png,n02133161_2281.png,0.0,-0.8245084,-0.05982571,-0.54071236
alexnet_w1_mlp_simclrhn_probe2,1,487,NaN,clock,airplane,10,0487_lp_dnn_10_airplane_10_n02690373_8813.png,n02690373_8813.png,0.0,-0.28907588,-0.08972471,-0.14096256
alexnet_w1_mlp_simclrhn_probe2,1,488,NaN,clock,boat,40,0488_lp_dnn_40_boat_10_n03662601_33625.png,n03662601_33625.png,0.0,-0.4250927,0.18292437,-0.429933
alexnet_w1_mlp_simclrhn_probe2,1,489,NaN,clock,cat,40,0489_lp_dnn_40_cat_10_n02124075_9066.png,n02124075_9066.png,0.0,-0.5826647,0.21073921,-0.5610213
alexnet_w1_mlp_simclrhn_probe2,1,490,NaN,oven,oven,3,0490_lp_dnn_3_oven_10_n04111531_10216.png,n04111531_10216.png,1.0,-0.00038089603,-0.13609394,0.09596361
alexnet_w1_mlp_simclrhn_probe2,1,491,NaN,bird,bird,7,0491_lp_dnn_7_bird_10_n01614925_1097.png,n01614925_1097.png,1.0,0.106848754,-0.19409917,0.21280234
alexnet_w1_mlp_simclrhn_probe2,1,492,NaN,bird,bird,0,0492_lp_dnn_0_bird_10_n02017213_1163.png,n02017213_1163.png,1.0,-0.4488603,-0.77194875,0.22845805
alexnet_w1_mlp_simclrhn_probe2,1,493,NaN,clock,oven,40,0493_lp_dnn_40_oven_10_n04111531_283.png,n04111531_283.png,0.0,-0.9858126,0.17509365,-0.82088476
alexnet_w1_mlp_simclrhn_probe2,1,494,NaN,bird,truck,15,0494_lp_dnn_15_truck_10_n04467665_39317.png,n04467665_39317.png,0.0,-1.3428931,0.02022443,-0.9638697
alexnet_w1_mlp_simclrhn_probe2,1,495,NaN,dog,dog,1,0495_lp_dnn_1_dog_10_n02093754_5037.png,n02093754_5037.png,1.0,0.722862,-0.35637367,0.7631349
alexnet_w1_mlp_simclrhn_probe2,1,496,NaN,clock,bicycle,40,0496_lp_dnn_40_bicycle_10_n02835271_2580.png,n02835271_2580.png,0.0,-1.2576983,0.1545545,-0.99861354
alexnet_w1_mlp_simclrhn_probe2,1,497,NaN,keyboard,airplane,7,0497_lp_dnn_7_airplane_10_n02690373_2564.png,n02690373_2564.png,0.0,-0.34629416,-0.06823932,-0.19661446
alexnet_w1_mlp_simclrhn_probe2,1,498,NaN,clock,truck,40,0498_lp_dnn_40_truck_10_n04467665_62626.png,n04467665_62626.png,0.0,-1.0236073,0.1569515,-0.83478117
alexnet_w1_mlp_simclrhn_probe2,1,499,NaN,bird,chair,10,0499_lp_dnn_10_chair_10_n04429376_2450.png,n04429376_2450.png,0.0,-0.8568374,0.021048738,-0.62075925
alexnet_w1_mlp_simclrhn_probe2,1,500,NaN,keyboard,keyboard,0,0500_lp_dnn_0_keyboard_10_n04505470_4044.png,n04505470_4044.png,1.0,10.094974,0.31918922,6.9125237
alexnet_w1_mlp_simclrhn_probe2,1,501,NaN,keyboard,oven,15,0501_lp_dnn_15_oven_10_n04111531_8269.png,n04111531_8269.png,0.0,-0.7270645,-0.032981984,-0.49079046
alexnet_w1_mlp_simclrhn_probe2,1,502,NaN,clock,clock,7,0502_lp_dnn_7_clock_10_n02708093_6890.png,n02708093_6890.png,1.0,-0.018300075,-0.031483166,0.0093218535
alexnet_w1_mlp_simclrhn_probe2,1,503,NaN,clock,oven,40,0503_lp_dnn_40_oven_10_n04111531_15947.png,n04111531_15947.png,0.0,-1.002549,0.11122706,-0.7875586
alexnet_w1_mlp_simclrhn_probe2,1,504,NaN,bird,bicycle,15,0504_lp_dnn_15_bicycle_10_n03792782_24734.png,n03792782_24734.png,0.0,-1.1288372,0.11839088,-0.8819235
alexnet_w1_mlp_simclrhn_probe2,1,505,NaN,clock,chair,40,0505_lp_dnn_40_chair_10_n04099969_10401.png,n04099969_10401.png,0.0,-0.7578876,0.15331486,-0.64431745
alexnet_w1_mlp_simclrhn_probe2,1,506,NaN,elephant,elephant,3,0506_lp_dnn_3_elephant_10_n02504458_2994.png,n02504458_2994.png,1.0,0.37095731,-0.1492818,0.3678646
alexnet_w1_mlp_simclrhn_probe2,1,507,NaN,elephant,dog,0,0507_lp_dnn_0_dog_10_n02108422_1164.png,n02108422_1164.png,0.0,-0.90358096,0.05325809,-0.6765874
alexnet_w1_mlp_simclrhn_probe2,1,508,NaN,keyboard,clock,5,0508_lp_dnn_5_clock_10_n04548280_2421.png,n04548280_2421.png,0.0,0.06376795,0.13779366,-0.052344084
alexnet_w1_mlp_simclrhn_probe2,1,509,NaN,bird,oven,5,0509_lp_dnn_5_oven_10_n04111531_2930.png,n04111531_2930.png,0.0,-0.778068,0.069716685,-0.5994743
alexnet_w1_mlp_simclrhn_probe2,1,510,NaN,bear,bear,1,0510_lp_dnn_1_bear_10_n02132136_4271.png,n02132136_4271.png,1.0,1.8539319,0.45403412,0.9898773
alexnet_w1_mlp_simclrhn_probe2,1,511,NaN,keyboard,oven,7,0511_lp_dnn_7_oven_10_n04111531_8603.png,n04111531_8603.png,0.0,-0.80700964,0.1199363,-0.65544975
alexnet_w1_mlp_simclrhn_probe2,1,512,NaN,clock,bicycle,40,0512_lp_dnn_40_bicycle_10_n02835271_16850.png,n02835271_16850.png,0.0,-1.1639042,0.21599884,-0.9757388
alexnet_w1_mlp_simclrhn_probe2,1,513,NaN,knife,knife,3,0513_lp_dnn_3_knife_10_n03041632_47410.png,n03041632_47410.png,1.0,-0.18847734,-0.3326432,0.10194067
alexnet_w1_mlp_simclrhn_probe2,1,514,NaN,bird,elephant,15,0514_lp_dnn_15_elephant_10_n02504458_1000.png,n02504458_1000.png,0.0,-0.93075943,0.11341403,-0.73834217
alexnet_w1_mlp_simclrhn_probe2,1,515,NaN,cat,cat,1,0515_lp_dnn_1_cat_10_n02124075_8884.png,n02124075_8884.png,1.0,0.5175526,-2.3860083,2.0531275
alexnet_w1_mlp_simclrhn_probe2,1,516,NaN,bird,bird,7,0516_lp_dnn_7_bird_10_n01622779_1370.png,n01622779_1370.png,1.0,0.1838781,-0.18550968,0.2611966
alexnet_w1_mlp_simclrhn_probe2,1,517,NaN,cat,cat,0,0517_lp_dnn_0_cat_10_n02123045_8215.png,n02123045_8215.png,1.0,2.1590993,-2.728719,3.4562097
alexnet_w1_mlp_simclrhn_probe2,1,518,NaN,keyboard,car,5,0518_lp_dnn_5_car_10_n03100240_3083.png,n03100240_3083.png,0.0,-1.1259882,0.115947634,-0.8781813
alexnet_w1_mlp_simclrhn_probe2,1,519,NaN,bear,bicycle,3,0519_lp_dnn_3_bicycle_10_n03792782_9280.png,n03792782_9280.png,0.0,-0.47483838,0.05125091,-0.37200132
alexnet_w1_mlp_simclrhn_probe2,1,520,NaN,keyboard,bird,5,0520_lp_dnn_5_bird_10_n01819313_3505.png,n01819313_3505.png,0.0,-0.6250318,0.13221067,-0.5354513
alexnet_w1_mlp_simclrhn_probe2,1,521,NaN,bird,bird,15,0521_lp_dnn_15_bird_10_n01531178_5130.png,n01531178_5130.png,1.0,0.11702826,-0.24940881,0.25911015
alexnet_w1_mlp_simclrhn_probe2,1,522,NaN,clock,clock,15,0522_lp_dnn_15_clock_10_n02708093_2867.png,n02708093_2867.png,1.0,0.069356434,0.04275065,0.018813131
alexnet_w1_mlp_simclrhn_probe2,1,523,NaN,keyboard,bear,7,0523_lp_dnn_7_bear_10_n02134418_258.png,n02134418_258.png,0.0,-1.6253886,0.27875966,-1.3464363
alexnet_w1_mlp_simclrhn_probe2,1,524,NaN,keyboard,bottle,1,0524_lp_dnn_1_bottle_10_n02823428_8280.png,n02823428_8280.png,0.0,-0.03220707,0.8761952,-0.64233744
alexnet_w1_mlp_simclrhn_probe2,1,525,NaN,keyboard,elephant,7,0525_lp_dnn_7_elephant_10_n02504013_24811.png,n02504013_24811.png,0.0,-1.046094,-0.043106653,-0.7092191
alexnet_w1_mlp_simclrhn_probe2,1,526,NaN,airplane,bicycle,40,0526_lp_dnn_40_bicycle_10_n02835271_14499.png,n02835271_14499.png,0.0,-0.9154918,0.2055882,-0.7927233
alexnet_w1_mlp_simclrhn_probe2,1,527,NaN,clock,bottle,0,0527_lp_dnn_0_bottle_10_n02823428_14536.png,n02823428_14536.png,0.0,3.6879115,4.296846,-0.43058166
alexnet_w1_mlp_simclrhn_probe2,1,528,NaN,keyboard,knife,5,0528_lp_dnn_5_knife_10_n03041632_21723.png,n03041632_21723.png,0.0,-0.7496271,-0.019351088,-0.5163832
alexnet_w1_mlp_simclrhn_probe2,1,529,NaN,keyboard,cat,10,0529_lp_dnn_10_cat_10_n02123159_8396.png,n02123159_8396.png,0.0,-0.9011345,-0.19287004,-0.5008186
alexnet_w1_mlp_simclrhn_probe2,1,530,NaN,clock,bottle,40,0530_lp_dnn_40_bottle_10_n02823428_3486.png,n02823428_3486.png,0.0,-0.13847461,0.19462204,-0.2355349
alexnet_w1_mlp_simclrhn_probe2,1,531,NaN,bear,bird,0,0531_lp_dnn_0_bird_10_n01514859_12705.png,n01514859_12705.png,0.0,-1.2249285,0.12545156,-0.9548629
alexnet_w1_mlp_simclrhn_probe2,1,532,NaN,bird,dog,7,0532_lp_dnn_7_dog_10_n02097047_911.png,n02097047_911.png,0.0,-1.29222,0.016053336,-0.92508894
alexnet_w1_mlp_simclrhn_probe2,1,533,NaN,keyboard,keyboard,10,0533_lp_dnn_10_keyboard_10_n04505470_3132.png,n04505470_3132.png,1.0,-0.07376233,-0.10229394,0.020174896
alexnet_w1_mlp_simclrhn_probe2,1,534,NaN,airplane,airplane,1,0534_lp_dnn_1_airplane_10_n02690373_11908.png,n02690373_11908.png,1.0,2.5151153,0.0526038,1.7412586
alexnet_w1_mlp_simclrhn_probe2,1,535,NaN,clock,elephant,40,0535_lp_dnn_40_elephant_10_n02504458_5169.png,n02504458_5169.png,0.0,-1.0044775,0.1303312,-0.8024309
alexnet_w1_mlp_simclrhn_probe2,1,536,NaN,clock,bottle,15,0536_lp_dnn_15_bottle_10_n03937543_5375.png,n03937543_5375.png,0.0,-0.09317748,-0.0072945184,-0.060728427
alexnet_w1_mlp_simclrhn_probe2,1,537,NaN,oven,bottle,1,0537_lp_dnn_1_bottle_10_n04591713_6138.png,n04591713_6138.png,0.0,-1.9320482,-0.23321027,-1.2012599
alexnet_w1_mlp_simclrhn_probe2,1,538,NaN,airplane,bottle,15,0538_lp_dnn_15_bottle_10_n04557648_12559.png,n04557648_12559.png,0.0,-0.1858653,0.17047709,-0.2519721
alexnet_w1_mlp_simclrhn_probe2,1,539,NaN,clock,clock,40,0539_lp_dnn_40_clock_10_n03196217_3903.png,n03196217_3903.png,1.0,0.22339155,0.08953543,0.09465057
alexnet_w1_mlp_simclrhn_probe2,1,540,NaN,bird,keyboard,15,0540_lp_dnn_15_keyboard_10_n04505470_4732.png,n04505470_4732.png,0.0,-0.1402418,-0.11880167,-0.015160464
alexnet_w1_mlp_simclrhn_probe2,1,541,NaN,clock,knife,40,0541_lp_dnn_40_knife_10_n03041632_8468.png,n03041632_8468.png,0.0,-0.052080262,0.10867807,-0.11367331
alexnet_w1_mlp_simclrhn_probe2,1,542,NaN,bottle,chair,3,0542_lp_dnn_3_chair_10_n02791124_14040.png,n02791124_14040.png,0.0,-0.48478696,0.25450787,-0.5227604
alexnet_w1_mlp_simclrhn_probe2,1,543,NaN,airplane,boat,15,0543_lp_dnn_15_boat_10_n04273569_3095.png,n04273569_3095.png,0.0,-0.27217466,0.2588809,-0.375513
alexnet_w1_mlp_simclrhn_probe2,1,544,NaN,bird,bird,1,0544_lp_dnn_1_bird_10_n02002724_18548.png,n02002724_18548.png,1.0,0.8308965,-0.6946528,1.0787263
alexnet_w1_mlp_simclrhn_probe2,1,545,NaN,bird,oven,10,0545_lp_dnn_10_oven_10_n04111531_8537.png,n04111531_8537.png,0.0,-0.7947409,-0.03133688,-0.53980815
alexnet_w1_mlp_simclrhn_probe2,1,546,NaN,clock,chair,40,0546_lp_dnn_40_chair_10_n02791124_1935.png,n02791124_1935.png,0.0,-0.6961013,0.14833699,-0.59710807
alexnet_w1_mlp_simclrhn_probe2,1,547,NaN,bird,dog,5,0547_lp_dnn_5_dog_10_n02102040_1660.png,n02102040_1660.png,0.0,-0.9990691,-0.02596092,-0.6880914
alexnet_w1_mlp_simclrhn_probe2,1,548,NaN,elephant,bear,0,0548_lp_dnn_0_bear_10_n02134084_7790.png,n02134084_7790.png,0.0,1.2416875,2.729374,-1.0519532
alexnet_w1_mlp_simclrhn_probe2,1,549,NaN,bird,knife,10,0549_lp_dnn_10_knife_10_n03041632_17091.png,n03041632_17091.png,0.0,-0.6512202,0.098731145,-0.5302957
alexnet_w1_mlp_simclrhn_probe2,1,550,NaN,bottle,keyboard,5,0550_lp_dnn_5_keyboard_10_n04505470_9331.png,n04505470_9331.png,0.0,0.123704955,0.39553472,-0.19221269
alexnet_w1_mlp_simclrhn_probe2,1,551,NaN,keyboard,airplane,5,0551_lp_dnn_5_airplane_10_n02690373_6887.png,n02690373_6887.png,0.0,-0.2836435,0.088741146,-0.26331574
alexnet_w1_mlp_simclrhn_probe2,1,552,NaN,oven,chair,1,0552_lp_dnn_1_chair_10_n02791124_2540.png,n02791124_2540.png,0.0,0.112063915,1.5620856,-1.0253202
alexnet_w1_mlp_simclrhn_probe2,1,553,NaN,airplane,truck,3,0553_lp_dnn_3_truck_10_n03796401_23774.png,n03796401_23774.png,0.0,-0.3075806,0.15638284,-0.3280717
alexnet_w1_mlp_simclrhn_probe2,1,554,NaN,clock,knife,40,0554_lp_dnn_40_knife_10_n03041632_28201.png,n03041632_28201.png,0.0,-0.033619586,0.13644104,-0.12025102
alexnet_w1_mlp_simclrhn_probe2,1,555,NaN,keyboard,clock,5,0555_lp_dnn_5_clock_10_n04548280_3563.png,n04548280_3563.png,0.0,-0.03794973,0.13236365,-0.12042975
alexnet_w1_mlp_simclrhn_probe2,1,556,NaN,bicycle,bicycle,0,0556_lp_dnn_0_bicycle_10_n03792782_8287.png,n03792782_8287.png,1.0,7.291356,-2.4788587,6.9085855
alexnet_w1_mlp_simclrhn_probe2,1,557,NaN,clock,clock,3,0557_lp_dnn_3_clock_10_n04548280_4225.png,n04548280_4225.png,1.0,0.55140185,0.16403632,0.2739088
alexnet_w1_mlp_simclrhn_probe2,1,558,NaN,car,car,0,0558_lp_dnn_0_car_10_n04285008_11931.png,n04285008_11931.png,1.0,11.83149,4.82014,4.957773
alexnet_w1_mlp_simclrhn_probe2,1,559,NaN,keyboard,elephant,5,0559_lp_dnn_5_elephant_10_n02504013_9396.png,n02504013_9396.png,0.0,-0.8941215,0.03341683,-0.65586865
alexnet_w1_mlp_simclrhn_probe2,1,560,NaN,clock,boat,40,0560_lp_dnn_40_boat_10_n03344393_2915.png,n03344393_2915.png,0.0,-0.47001272,0.13692816,-0.429172
alexnet_w1_mlp_simclrhn_probe2,1,561,NaN,keyboard,bicycle,7,0561_lp_dnn_7_bicycle_10_n03792782_9692.png,n03792782_9692.png,0.0,-1.4310675,0.10879354,-1.0888462
alexnet_w1_mlp_simclrhn_probe2,1,562,NaN,keyboard,chair,7,0562_lp_dnn_7_chair_10_n02791124_57.png,n02791124_57.png,0.0,-1.3455669,0.087116875,-1.0130603
alexnet_w1_mlp_simclrhn_probe2,1,563,NaN,airplane,car,40,0563_lp_dnn_40_car_10_n04285008_3185.png,n04285008_3185.png,0.0,-0.89867735,0.066652864,-0.68259156
alexnet_w1_mlp_simclrhn_probe2,1,564,NaN,boat,boat,1,0564_lp_dnn_1_boat_10_n02951358_34917.png,n02951358_34917.png,1.0,1.5096309,1.2910722,0.15454432
alexnet_w1_mlp_simclrhn_probe2,1,565,NaN,clock,clock,0,0565_lp_dnn_0_clock_10_n02708093_2762.png,n02708093_2762.png,1.0,6.7548203,0.12972693,4.6846485
alexnet_w1_mlp_simclrhn_probe2,1,566,NaN,clock,knife,5,0566_lp_dnn_5_knife_10_n03041632_4879.png,n03041632_4879.png,0.0,-0.15027313,0.030773865,-0.12801956
alexnet_w1_mlp_simclrhn_probe2,1,567,NaN,car,car,0,0567_lp_dnn_0_car_10_n02814533_4689.png,n02814533_4689.png,1.0,7.378521,5.1055837,1.6072094
alexnet_w1_mlp_simclrhn_probe2,1,568,NaN,boat,boat,1,0568_lp_dnn_1_boat_10_n02951358_2445.png,n02951358_2445.png,1.0,0.8780244,-1.2638621,1.5145425
alexnet_w1_mlp_simclrhn_probe2,1,569,NaN,clock,truck,40,0569_lp_dnn_40_truck_10_n03417042_10038.png,n03417042_10038.png,0.0,-1.1336514,0.13025962,-0.89372003
alexnet_w1_mlp_simclrhn_probe2,1,570,NaN,keyboard,car,10,0570_lp_dnn_10_car_10_n02814533_32924.png,n02814533_32924.png,0.0,-1.0930041,0.011250645,-0.78082603
alexnet_w1_mlp_simclrhn_probe2,1,571,NaN,bird,bottle,10,0571_lp_dnn_10_bottle_10_n02823428_5135.png,n02823428_5135.png,0.0,-0.19127358,-0.11876987,-0.05126787
alexnet_w1_mlp_simclrhn_probe2,1,572,NaN,oven,keyboard,1,0572_lp_dnn_1_keyboard_10_n03085013_9066.png,n03085013_9066.png,0.0,1.5447173,1.5949907,-0.035548676
alexnet_w1_mlp_simclrhn_probe2,1,573,NaN,keyboard,oven,10,0573_lp_dnn_10_oven_10_n04111531_11279.png,n04111531_11279.png,0.0,-0.895178,-0.11375896,-0.55254674
alexnet_w1_mlp_simclrhn_probe2,1,574,NaN,bird,car,10,0574_lp_dnn_10_car_10_n04285008_12182.png,n04285008_12182.png,0.0,-1.4833155,0.018364972,-1.0618485
alexnet_w1_mlp_simclrhn_probe2,1,575,NaN,bear,bear,0,0575_lp_dnn_0_bear_10_n02133161_5681.png,n02133161_5681.png,1.0,2.1674128,-0.12454903,1.6206616
alexnet_w1_mlp_simclrhn_probe2,1,576,NaN,keyboard,dog,5,0576_lp_dnn_5_dog_10_n02108915_5514.png,n02108915_5514.png,0.0,-0.9415868,-0.050996456,-0.62974244
alexnet_w1_mlp_simclrhn_probe2,1,577,NaN,bird,airplane,15,0577_lp_dnn_15_airplane_10_n02690373_7239.png,n02690373_7239.png,0.0,-0.14845124,-0.05438024,-0.06651825
alexnet_w1_mlp_simclrhn_probe2,1,578,NaN,dog,dog,0,0578_lp_dnn_0_dog_10_n02094258_4979.png,n02094258_4979.png,1.0,1.9975837,-1.3526689,2.3689864
alexnet_w1_mlp_simclrhn_probe2,1,579,NaN,oven,chair,3,0579_lp_dnn_3_chair_10_n04429376_15078.png,n04429376_15078.png,0.0,-0.38600594,0.5725165,-0.6777777
alexnet_w1_mlp_simclrhn_probe2,1,580,NaN,clock,clock,40,0580_lp_dnn_40_clock_10_n02708093_8276.png,n02708093_8276.png,1.0,0.1965637,0.045092724,0.107106164
alexnet_w1_mlp_simclrhn_probe2,1,581,NaN,keyboard,keyboard,3,0581_lp_dnn_3_keyboard_10_n04505470_3947.png,n04505470_3947.png,1.0,1.4632716,0.2039001,0.89051014
alexnet_w1_mlp_simclrhn_probe2,1,582,NaN,clock,car,15,0582_lp_dnn_15_car_10_n03100240_2996.png,n03100240_2996.png,0.0,-1.0610384,-0.13055243,-0.65795296
alexnet_w1_mlp_simclrhn_probe2,1,583,NaN,keyboard,cat,10,0583_lp_dnn_10_cat_10_n02123159_3226.png,n02123159_3226.png,0.0,-0.7616485,-0.058245882,-0.49738073
alexnet_w1_mlp_simclrhn_probe2,1,584,NaN,keyboard,truck,7,0584_lp_dnn_7_truck_10_n03417042_19905.png,n03417042_19905.png,0.0,-1.468524,-0.06279468,-0.99400073
alexnet_w1_mlp_simclrhn_probe2,1,585,NaN,elephant,bird,0,0585_lp_dnn_0_bird_10_n02009229_4838.png,n02009229_4838.png,0.0,-0.30127376,0.3358275,-0.45049864
alexnet_w1_mlp_simclrhn_probe2,1,586,NaN,oven,oven,1,0586_lp_dnn_1_oven_10_n04111531_14383.png,n04111531_14383.png,1.0,1.3840282,0.97498274,0.2892388
alexnet_w1_mlp_simclrhn_probe2,1,587,NaN,bird,bear,5,0587_lp_dnn_5_bear_10_n02132136_1152.png,n02132136_1152.png,0.0,-0.59137034,0.08987196,-0.48171106
alexnet_w1_mlp_simclrhn_probe2,1,588,NaN,cat,cat,0,0588_lp_dnn_0_cat_10_n02123597_10952.png,n02123597_10952.png,1.0,-1.2082471,-1.3373687,0.091302805
alexnet_w1_mlp_simclrhn_probe2,1,589,NaN,boat,boat,0,0589_lp_dnn_0_boat_10_n04273569_12318.png,n04273569_12318.png,1.0,3.9556088,2.55301,0.9917872
alexnet_w1_mlp_simclrhn_probe2,1,590,NaN,clock,bottle,40,0590_lp_dnn_40_bottle_10_n03937543_1391.png,n03937543_1391.png,0.0,-0.290381,0.117046274,-0.2880946
alexnet_w1_mlp_simclrhn_probe2,1,591,NaN,bird,dog,10,0591_lp_dnn_10_dog_10_n02091032_9464.png,n02091032_9464.png,0.0,-0.8611447,0.06675625,-0.65612507
alexnet_w1_mlp_simclrhn_probe2,1,592,NaN,keyboard,oven,7,0592_lp_dnn_7_oven_10_n04111531_5218.png,n04111531_5218.png,0.0,-1.0163442,0.28486732,-0.9200955
alexnet_w1_mlp_simclrhn_probe2,1,593,NaN,keyboard,airplane,5,0593_lp_dnn_5_airplane_10_n02690373_9423.png,n02690373_9423.png,0.0,-0.6212128,0.3290258,-0.6719202
alexnet_w1_mlp_simclrhn_probe2,1,594,NaN,elephant,bird,1,0594_lp_dnn_1_bird_10_n01860187_348.png,n01860187_348.png,0.0,-0.9054993,-0.18554085,-0.5090875
alexnet_w1_mlp_simclrhn_probe2,1,595,NaN,clock,bird,40,0595_lp_dnn_40_bird_10_n02006656_8975.png,n02006656_8975.png,0.0,-0.531704,0.14296663,-0.4770642
alexnet_w1_mlp_simclrhn_probe2,1,596,NaN,keyboard,oven,10,0596_lp_dnn_10_oven_10_n04111531_7619.png,n04111531_7619.png,0.0,-1.2203121,0.016008392,-0.8742106
alexnet_w1_mlp_simclrhn_probe2,1,597,NaN,keyboard,bicycle,3,0597_lp_dnn_3_bicycle_10_n02835271_9202.png,n02835271_9202.png,0.0,-0.77428615,-0.16257897,-0.43254232
alexnet_w1_mlp_simclrhn_probe2,1,598,NaN,bottle,boat,10,0598_lp_dnn_10_boat_10_n03344393_7826.png,n03344393_7826.png,0.0,-1.0009191,-0.04872501,-0.6733029
alexnet_w1_mlp_simclrhn_probe2,1,599,NaN,elephant,elephant,3,0599_lp_dnn_3_elephant_10_n02504013_10330.png,n02504013_10330.png,1.0,0.600579,-0.19554125,0.5629421
alexnet_w1_mlp_simclrhn_probe2,1,600,NaN,keyboard,truck,10,0600_lp_dnn_10_truck_10_n04467665_69202.png,n04467665_69202.png,0.0,-1.6609613,-0.09714966,-1.1057818
alexnet_w1_mlp_simclrhn_probe2,1,601,NaN,keyboard,keyboard,7,0601_lp_dnn_7_keyboard_10_n04505470_1120.png,n04505470_1120.png,1.0,0.19051167,0.044864807,0.10298789
alexnet_w1_mlp_simclrhn_probe2,1,602,NaN,keyboard,car,5,0602_lp_dnn_5_car_10_n04285008_434.png,n04285008_434.png,0.0,-1.2011511,0.11328025,-0.9294434
alexnet_w1_mlp_simclrhn_probe2,1,603,NaN,bear,cat,1,0603_lp_dnn_1_cat_10_n02123597_7592.png,n02123597_7592.png,0.0,-0.6705753,-0.5528232,-0.08326334
alexnet_w1_mlp_simclrhn_probe2,1,604,NaN,bird,dog,15,0604_lp_dnn_15_dog_10_n02090721_583.png,n02090721_583.png,0.0,-1.0401578,-0.09821876,-0.6660515
alexnet_w1_mlp_simclrhn_probe2,1,605,NaN,oven,knife,1,0605_lp_dnn_1_knife_10_n03041632_86783.png,n03041632_86783.png,0.0,-0.76989496,0.012305692,-0.5530994
alexnet_w1_mlp_simclrhn_probe2,1,606,NaN,keyboard,dog,10,0606_lp_dnn_10_dog_10_n02112018_11708.png,n02112018_11708.png,0.0,-1.2178446,-0.10620686,-0.78604656
alexnet_w1_mlp_simclrhn_probe2,1,607,NaN,elephant,bird,0,0607_lp_dnn_0_bird_10_n02018795_5662.png,n02018795_5662.png,0.0,-1.6732869,0.44554162,-1.4982381
alexnet_w1_mlp_simclrhn_probe2,1,608,NaN,bird,elephant,5,0608_lp_dnn_5_elephant_10_n02504013_1088.png,n02504013_1088.png,0.0,-0.4059917,0.10620537,-0.36217803
alexnet_w1_mlp_simclrhn_probe2,1,609,NaN,keyboard,elephant,5,0609_lp_dnn_5_elephant_10_n02504458_66.png,n02504458_66.png,0.0,-1.0075717,0.10249302,-0.78493434
alexnet_w1_mlp_simclrhn_probe2,1,610,NaN,bottle,dog,10,0610_lp_dnn_10_dog_10_n02105056_9099.png,n02105056_9099.png,0.0,-1.2890986,0.0014797683,-0.91257674
alexnet_w1_mlp_simclrhn_probe2,1,611,NaN,keyboard,boat,10,0611_lp_dnn_10_boat_10_n04273569_19699.png,n04273569_19699.png,0.0,-0.933122,-0.03562603,-0.6346255
alexnet_w1_mlp_simclrhn_probe2,1,612,NaN,dog,dog,1,0612_lp_dnn_1_dog_10_n02097047_2376.png,n02097047_2376.png,1.0,2.6990485,1.8599952,0.5933003
alexnet_w1_mlp_simclrhn_probe2,1,613,NaN,boat,boat,1,0613_lp_dnn_1_boat_10_n03662601_11901.png,n03662601_11901.png,1.0,1.032618,0.09525968,0.6628125
alexnet_w1_mlp_simclrhn_probe2,1,614,NaN,oven,oven,1,0614_lp_dnn_1_oven_10_n04111531_7667.png,n04111531_7667.png,1.0,0.2880954,-0.2087068,0.35129222
alexnet_w1_mlp_simclrhn_probe2,1,615,NaN,bird,knife,10,0615_lp_dnn_10_knife_10_n03041632_24384.png,n03041632_24384.png,0.0,-0.46865094,-0.058308393,-0.290156
alexnet_w1_mlp_simclrhn_probe2,1,616,NaN,keyboard,car,7,0616_lp_dnn_7_car_10_n03100240_1216.png,n03100240_1216.png,0.0,-1.1637077,-0.030198932,-0.80151176
alexnet_w1_mlp_simclrhn_probe2,1,617,NaN,elephant,bicycle,0,0617_lp_dnn_0_bicycle_10_n03792782_3136.png,n03792782_3136.png,0.0,0.004940316,0.46072125,-0.3222858
alexnet_w1_mlp_simclrhn_probe2,1,618,NaN,keyboard,keyboard,5,0618_lp_dnn_5_keyboard_10_n03085013_26573.png,n03085013_26573.png,1.0,0.08928235,-0.26153216,0.24806333
alexnet_w1_mlp_simclrhn_probe2,1,619,NaN,clock,chair,0,0619_lp_dnn_0_chair_10_n04429376_7888.png,n04429376_7888.png,0.0,-1.3647864,0.48450956,-1.3076497
alexnet_w1_mlp_simclrhn_probe2,1,620,NaN,keyboard,chair,5,0620_lp_dnn_5_chair_10_n03376595_899.png,n03376595_899.png,0.0,-1.0278088,0.1264052,-0.8161526
alexnet_w1_mlp_simclrhn_probe2,1,621,NaN,keyboard,bicycle,5,0621_lp_dnn_5_bicycle_10_n02835271_24207.png,n02835271_24207.png,0.0,-1.4673274,0.4475186,-1.3540006
alexnet_w1_mlp_simclrhn_probe2,1,622,NaN,oven,oven,3,0622_lp_dnn_3_oven_10_n04111531_7329.png,n04111531_7329.png,1.0,0.5629876,0.27042264,0.20687468
alexnet_w1_mlp_simclrhn_probe2,1,623,NaN,keyboard,oven,5,0623_lp_dnn_5_oven_10_n04111531_12942.png,n04111531_12942.png,0.0,-0.6530083,0.1614261,-0.5758921
alexnet_w1_mlp_simclrhn_probe2,1,624,NaN,clock,bear,15,0624_lp_dnn_15_bear_10_n02134418_1978.png,n02134418_1978.png,0.0,-0.80038553,-0.0619525,-0.522151
alexnet_w1_mlp_simclrhn_probe2,1,625,NaN,clock,cat,40,0625_lp_dnn_40_cat_10_n02123159_5872.png,n02123159_5872.png,0.0,-0.5457544,0.14766598,-0.49032223
alexnet_w1_mlp_simclrhn_probe2,1,626,NaN,clock,keyboard,15,0626_lp_dnn_15_keyboard_10_n03085013_18797.png,n03085013_18797.png,0.0,-0.23492636,-0.024646563,-0.14869027
alexnet_w1_mlp_simclrhn_probe2,1,627,NaN,airplane,airplane,15,0627_lp_dnn_15_airplane_10_n02690373_5496.png,n02690373_5496.png,1.0,0.12430252,-0.018824073,0.10120579
alexnet_w1_mlp_simclrhn_probe2,1,628,NaN,clock,oven,15,0628_lp_dnn_15_oven_10_n04111531_21963.png,n04111531_21963.png,0.0,-0.9186489,-0.04126267,-0.62040573
alexnet_w1_mlp_simclrhn_probe2,1,629,NaN,bottle,bottle,0,0629_lp_dnn_0_bottle_10_n02823428_2918.png,n02823428_2918.png,1.0,8.202741,-2.4026377,7.499135
alexnet_w1_mlp_simclrhn_probe2,1,630,NaN,bird,keyboard,10,0630_lp_dnn_10_keyboard_10_n04505470_9570.png,n04505470_9570.png,0.0,-0.17870085,0.04057538,-0.15505171
alexnet_w1_mlp_simclrhn_probe2,1,631,NaN,bird,bird,1,0631_lp_dnn_1_bird_10_n02002556_5977.png,n02002556_5977.png,1.0,1.5384803,-1.9713796,2.4818459
alexnet_w1_mlp_simclrhn_probe2,1,632,NaN,clock,airplane,40,0632_lp_dnn_40_airplane_10_n02690373_5961.png,n02690373_5961.png,0.0,-0.1321305,0.116061054,-0.17549795
alexnet_w1_mlp_simclrhn_probe2,1,633,NaN,clock,clock,3,0633_lp_dnn_3_clock_10_n04548280_5765.png,n04548280_5765.png,1.0,0.036577653,-0.0028067136,0.027848952
alexnet_w1_mlp_simclrhn_probe2,1,634,NaN,bird,cat,15,0634_lp_dnn_15_cat_10_n02123597_11940.png,n02123597_11940.png,0.0,-0.5791676,-0.026453441,-0.39082795
alexnet_w1_mlp_simclrhn_probe2,1,635,NaN,airplane,airplane,3,0635_lp_dnn_3_airplane_10_n02690373_3993.png,n02690373_3993.png,1.0,0.44011807,0.14292482,0.21014737
alexnet_w1_mlp_simclrhn_probe2,1,636,NaN,bird,chair,7,0636_lp_dnn_7_chair_10_n04099969_3984.png,n04099969_3984.png,0.0,-1.0860443,-0.053762767,-0.72993326
alexnet_w1_mlp_simclrhn_probe2,1,637,NaN,airplane,airplane,3,0637_lp_dnn_3_airplane_10_n02690373_939.png,n02690373_939.png,1.0,0.3763675,-0.060547307,0.30894542
