subj,session,trial,rt,object_response,category,condition,imagename,filename,is_correct,targ_act,max_nontarg_act,decision_margin
alexnet2023_baseline_pgd,1,1,NaN,airplane,chair,40,0001_lp_dnn_40_chair_10_n04099969_7577.png,n04099969_7577.png,0.0,-0.91543335,2.4537349,-2.382362
alexnet2023_baseline_pgd,1,2,NaN,airplane,cat,40,0002_lp_dnn_40_cat_10_n02124075_12815.png,n02124075_12815.png,0.0,-0.8443807,2.6402862,-2.4640317
alexnet2023_baseline_pgd,1,3,NaN,knife,truck,5,0003_lp_dnn_5_truck_10_n04467665_34253.png,n04467665_34253.png,0.0,-1.0791986,2.779233,-2.7283232
alexnet2023_baseline_pgd,1,4,NaN,clock,clock,1,0004_lp_dnn_1_clock_10_n04548280_5320.png,n04548280_5320.png,1.0,8.306263,5.1575084,2.2265058
alexnet2023_baseline_pgd,1,5,NaN,knife,dog,3,0005_lp_dnn_3_dog_10_n02108915_3652.png,n02108915_3652.png,0.0,1.3447592,2.1071036,-0.53905886
alexnet2023_baseline_pgd,1,6,NaN,keyboard,keyboard,7,0006_lp_dnn_7_keyboard_10_n04505470_578.png,n04505470_578.png,1.0,3.8321629,2.2426786,1.1239351
alexnet2023_baseline_pgd,1,7,NaN,bird,cat,7,0007_lp_dnn_7_cat_10_n02123597_3842.png,n02123597_3842.png,0.0,1.5840069,2.2670834,-0.48300803
alexnet2023_baseline_pgd,1,8,NaN,bear,bear,1,0008_lp_dnn_1_bear_10_n02134418_14.png,n02134418_14.png,1.0,13.452587,7.202952,4.4191594
alexnet2023_baseline_pgd,1,9,NaN,bird,knife,10,0009_lp_dnn_10_knife_10_n03041632_29920.png,n03041632_29920.png,0.0,0.1106761,2.121648,-1.421972
alexnet2023_baseline_pgd,1,10,NaN,knife,bird,5,0010_lp_dnn_5_bird_10_n01795545_952.png,n01795545_952.png,0.0,2.1736324,2.67745,-0.35625282
alexnet2023_baseline_pgd,1,11,NaN,elephant,bear,3,0011_lp_dnn_3_bear_10_n02132136_6441.png,n02132136_6441.png,0.0,3.7614346,4.08954,-0.2320056
alexnet2023_baseline_pgd,1,12,NaN,bird,bird,3,0012_lp_dnn_3_bird_10_n01829413_8792.png,n01829413_8792.png,1.0,2.2780945,2.108622,0.11983512
alexnet2023_baseline_pgd,1,13,NaN,keyboard,keyboard,7,0013_lp_dnn_7_keyboard_10_n04505470_4458.png,n04505470_4458.png,1.0,2.7414002,1.9087611,0.5887648
alexnet2023_baseline_pgd,1,14,NaN,bird,chair,10,0014_lp_dnn_10_chair_10_n03376595_9176.png,n03376595_9176.png,0.0,-2.666206,2.5910733,-3.717458
alexnet2023_baseline_pgd,1,15,NaN,airplane,clock,40,0015_lp_dnn_40_clock_10_n04548280_7662.png,n04548280_7662.png,0.0,0.8894334,2.6457095,-1.2418748
alexnet2023_baseline_pgd,1,16,NaN,airplane,keyboard,40,0016_lp_dnn_40_keyboard_10_n03085013_25809.png,n03085013_25809.png,0.0,-1.2818196,2.6379015,-2.7716615
alexnet2023_baseline_pgd,1,17,NaN,keyboard,oven,5,0017_lp_dnn_5_oven_10_n04111531_1580.png,n04111531_1580.png,0.0,-0.21667942,1.7552983,-1.3943988
alexnet2023_baseline_pgd,1,18,NaN,elephant,elephant,1,0018_lp_dnn_1_elephant_10_n02504458_900.png,n02504458_900.png,1.0,19.916399,2.1697176,12.548799
alexnet2023_baseline_pgd,1,19,NaN,knife,dog,7,0019_lp_dnn_7_dog_10_n02106662_2384.png,n02106662_2384.png,0.0,1.1418777,1.636324,-0.3496264
alexnet2023_baseline_pgd,1,20,NaN,knife,truck,10,0020_lp_dnn_10_truck_10_n03796401_22618.png,n03796401_22618.png,0.0,-2.8339024,1.676355,-3.1892335
alexnet2023_baseline_pgd,1,21,NaN,bird,elephant,15,0021_lp_dnn_15_elephant_10_n02504013_5463.png,n02504013_5463.png,0.0,1.4843031,2.3713365,-0.6272273
alexnet2023_baseline_pgd,1,22,NaN,bear,chair,10,0022_lp_dnn_10_chair_10_n04429376_16459.png,n04429376_16459.png,0.0,-2.2011933,1.9830377,-2.958698
alexnet2023_baseline_pgd,1,23,NaN,cat,cat,1,0023_lp_dnn_1_cat_10_n02123045_12206.png,n02123045_12206.png,1.0,7.460806,2.9754248,3.1716435
alexnet2023_baseline_pgd,1,24,NaN,knife,truck,7,0024_lp_dnn_7_truck_10_n03417042_2633.png,n03417042_2633.png,0.0,-2.8946023,1.7074077,-3.2541125
alexnet2023_baseline_pgd,1,25,NaN,airplane,keyboard,15,0025_lp_dnn_15_keyboard_10_n03085013_24416.png,n03085013_24416.png,0.0,-1.0063771,2.671196,-2.600437
alexnet2023_baseline_pgd,1,26,NaN,knife,car,7,0026_lp_dnn_7_car_10_n02814533_44503.png,n02814533_44503.png,0.0,-1.9751558,1.9596187,-2.7823057
alexnet2023_baseline_pgd,1,27,NaN,bear,elephant,5,0027_lp_dnn_5_elephant_10_n02504458_5797.png,n02504458_5797.png,0.0,1.8112814,2.0495896,-0.16850933
alexnet2023_baseline_pgd,1,28,NaN,chair,chair,0,0028_lp_dnn_0_chair_10_n04429376_8237.png,n04429376_8237.png,1.0,6.4822907,3.0045311,2.4591475
alexnet2023_baseline_pgd,1,29,NaN,bird,cat,7,0029_lp_dnn_7_cat_10_n02123159_587.png,n02123159_587.png,0.0,0.43910038,2.256851,-1.2853438
alexnet2023_baseline_pgd,1,30,NaN,airplane,bird,10,0030_lp_dnn_10_bird_10_n02028035_17238.png,n02028035_17238.png,0.0,1.8580977,2.277566,-0.29660887
alexnet2023_baseline_pgd,1,31,NaN,airplane,cat,40,0031_lp_dnn_40_cat_10_n02123159_4348.png,n02123159_4348.png,0.0,-0.9989937,2.9017844,-2.7582667
alexnet2023_baseline_pgd,1,32,NaN,boat,boat,5,0032_lp_dnn_5_boat_10_n04273569_22332.png,n04273569_22332.png,1.0,1.8854034,1.8475511,0.02676561
alexnet2023_baseline_pgd,1,33,NaN,elephant,elephant,1,0033_lp_dnn_1_elephant_10_n02504013_1244.png,n02504013_1244.png,1.0,18.758982,3.7124486,10.639506
alexnet2023_baseline_pgd,1,34,NaN,bird,bicycle,7,0034_lp_dnn_7_bicycle_10_n03792782_30229.png,n03792782_30229.png,0.0,-1.4714581,1.579922,-2.1576517
alexnet2023_baseline_pgd,1,35,NaN,bird,keyboard,10,0035_lp_dnn_10_keyboard_10_n03085013_7573.png,n03085013_7573.png,0.0,-0.4915349,2.0558255,-1.8012558
alexnet2023_baseline_pgd,1,36,NaN,keyboard,keyboard,3,0036_lp_dnn_3_keyboard_10_n03085013_24578.png,n03085013_24578.png,1.0,6.592252,4.1971035,1.6936256
alexnet2023_baseline_pgd,1,37,NaN,bird,truck,15,0037_lp_dnn_15_truck_10_n03417042_1336.png,n03417042_1336.png,0.0,-1.437257,2.709489,-2.9321923
alexnet2023_baseline_pgd,1,38,NaN,knife,knife,3,0038_lp_dnn_3_knife_10_n03041632_7495.png,n03041632_7495.png,1.0,5.6876564,2.1730897,2.485174
alexnet2023_baseline_pgd,1,39,NaN,car,car,0,0039_lp_dnn_0_car_10_n03100240_9625.png,n03100240_9625.png,1.0,10.232437,5.1278543,3.6094851
alexnet2023_baseline_pgd,1,40,NaN,bird,elephant,10,0040_lp_dnn_10_elephant_10_n02504458_6107.png,n02504458_6107.png,0.0,1.2333183,2.3777995,-0.80927044
alexnet2023_baseline_pgd,1,41,NaN,bicycle,bicycle,0,0041_lp_dnn_0_bicycle_10_n03792782_33649.png,n03792782_33649.png,1.0,14.702688,2.5277333,8.608994
alexnet2023_baseline_pgd,1,42,NaN,clock,clock,1,0042_lp_dnn_1_clock_10_n03196217_8282.png,n03196217_8282.png,1.0,8.924547,6.81234,1.4935563
alexnet2023_baseline_pgd,1,43,NaN,keyboard,keyboard,7,0043_lp_dnn_7_keyboard_10_n03085013_21534.png,n03085013_21534.png,1.0,2.5872753,2.2366817,0.24790709
alexnet2023_baseline_pgd,1,44,NaN,bird,elephant,15,0044_lp_dnn_15_elephant_10_n02504013_22813.png,n02504013_22813.png,0.0,0.5557423,2.0216763,-1.0365719
alexnet2023_baseline_pgd,1,45,NaN,bird,truck,10,0045_lp_dnn_10_truck_10_n03796401_16425.png,n03796401_16425.png,0.0,-2.703268,2.5613167,-3.7226236
alexnet2023_baseline_pgd,1,46,NaN,airplane,airplane,15,0046_lp_dnn_15_airplane_10_n02690373_9427.png,n02690373_9427.png,1.0,2.1672435,2.0382545,0.09120899
alexnet2023_baseline_pgd,1,47,NaN,keyboard,bird,7,0047_lp_dnn_7_bird_10_n02009912_11907.png,n02009912_11907.png,0.0,1.4847763,1.5003402,-0.011005385
alexnet2023_baseline_pgd,1,48,NaN,airplane,airplane,1,0048_lp_dnn_1_airplane_10_n02690373_5773.png,n02690373_5773.png,1.0,20.787222,2.9737577,12.596023
alexnet2023_baseline_pgd,1,49,NaN,knife,chair,40,0049_lp_dnn_40_chair_10_n02791124_2972.png,n02791124_2972.png,0.0,-0.31032166,2.0175765,-1.6460725
alexnet2023_baseline_pgd,1,50,NaN,bird,bird,1,0050_lp_dnn_1_bird_10_n01819313_18188.png,n01819313_18188.png,1.0,7.2940187,4.290946,2.1234932
alexnet2023_baseline_pgd,1,51,NaN,keyboard,car,5,0051_lp_dnn_5_car_10_n04285008_7428.png,n04285008_7428.png,0.0,-1.0605828,3.121594,-2.9572456
alexnet2023_baseline_pgd,1,52,NaN,bird,bottle,7,0052_lp_dnn_7_bottle_10_n04591713_6923.png,n04591713_6923.png,0.0,0.7006618,1.6111826,-0.6438354
alexnet2023_baseline_pgd,1,53,NaN,knife,knife,0,0053_lp_dnn_0_knife_10_n03041632_22570.png,n03041632_22570.png,1.0,6.177958,3.769709,1.7028892
alexnet2023_baseline_pgd,1,54,NaN,elephant,bear,0,0054_lp_dnn_0_bear_10_n02132136_7586.png,n02132136_7586.png,0.0,9.533441,10.44015,-0.6411406
alexnet2023_baseline_pgd,1,55,NaN,knife,clock,5,0055_lp_dnn_5_clock_10_n04548280_9144.png,n04548280_9144.png,0.0,0.54920584,1.4565473,-0.64158726
alexnet2023_baseline_pgd,1,56,NaN,bottle,bottle,0,0056_lp_dnn_0_bottle_10_n04591713_2680.png,n04591713_2680.png,1.0,5.440761,4.1543574,0.90962476
alexnet2023_baseline_pgd,1,57,NaN,bottle,cat,3,0057_lp_dnn_3_cat_10_n02123045_1596.png,n02123045_1596.png,0.0,0.15717037,2.334727,-1.5397651
alexnet2023_baseline_pgd,1,58,NaN,bird,cat,10,0058_lp_dnn_10_cat_10_n02123597_19450.png,n02123597_19450.png,0.0,0.33773303,2.2653663,-1.3630426
alexnet2023_baseline_pgd,1,59,NaN,airplane,chair,15,0059_lp_dnn_15_chair_10_n03376595_3462.png,n03376595_3462.png,0.0,-0.62362206,2.4294689,-2.1588614
alexnet2023_baseline_pgd,1,60,NaN,keyboard,bottle,3,0060_lp_dnn_3_bottle_10_n04591713_3683.png,n04591713_3683.png,0.0,4.0831647,4.5856266,-0.35529423
alexnet2023_baseline_pgd,1,61,NaN,knife,clock,7,0061_lp_dnn_7_clock_10_n03196217_4309.png,n03196217_4309.png,0.0,0.856515,3.6613357,-1.9833078
alexnet2023_baseline_pgd,1,62,NaN,bird,bear,15,0062_lp_dnn_15_bear_10_n02134084_4923.png,n02134084_4923.png,0.0,1.1702828,1.5715606,-0.28374624
alexnet2023_baseline_pgd,1,63,NaN,chair,chair,1,0063_lp_dnn_1_chair_10_n04429376_5238.png,n04429376_5238.png,1.0,4.225299,3.0612903,0.8230784
alexnet2023_baseline_pgd,1,64,NaN,elephant,clock,0,0064_lp_dnn_0_clock_10_n03196217_2414.png,n03196217_2414.png,0.0,2.473325,4.904164,-1.7188627
alexnet2023_baseline_pgd,1,65,NaN,bird,bird,3,0065_lp_dnn_3_bird_10_n01797886_2711.png,n01797886_2711.png,1.0,1.6560109,1.4886397,0.11834928
alexnet2023_baseline_pgd,1,66,NaN,airplane,truck,15,0066_lp_dnn_15_truck_10_n04467665_68463.png,n04467665_68463.png,0.0,0.98595935,3.6558707,-1.8879125
alexnet2023_baseline_pgd,1,67,NaN,truck,truck,0,0067_lp_dnn_0_truck_10_n03417042_10099.png,n03417042_10099.png,1.0,9.777834,4.3474326,3.8398736
alexnet2023_baseline_pgd,1,68,NaN,knife,bear,10,0068_lp_dnn_10_bear_10_n02134418_3793.png,n02134418_3793.png,0.0,1.1950709,1.953322,-0.5361646
alexnet2023_baseline_pgd,1,69,NaN,bird,bottle,10,0069_lp_dnn_10_bottle_10_n03937543_9524.png,n03937543_9524.png,0.0,0.14926028,2.8375773,-1.9009273
alexnet2023_baseline_pgd,1,70,NaN,bear,cat,3,0070_lp_dnn_3_cat_10_n02123394_1038.png,n02123394_1038.png,0.0,2.9629414,4.557542,-1.1275527
alexnet2023_baseline_pgd,1,71,NaN,knife,dog,5,0071_lp_dnn_5_dog_10_n02110185_7886.png,n02110185_7886.png,0.0,0.6698423,2.406674,-1.2281255
alexnet2023_baseline_pgd,1,72,NaN,clock,clock,3,0072_lp_dnn_3_clock_10_n02708093_4912.png,n02708093_4912.png,1.0,7.3505783,3.3503623,2.82858
alexnet2023_baseline_pgd,1,73,NaN,bird,dog,15,0073_lp_dnn_15_dog_10_n02108422_932.png,n02108422_932.png,0.0,0.21353176,2.3097873,-1.4822766
alexnet2023_baseline_pgd,1,74,NaN,truck,truck,0,0074_lp_dnn_0_truck_10_n04467665_18621.png,n04467665_18621.png,1.0,11.661547,4.925586,4.7630434
alexnet2023_baseline_pgd,1,75,NaN,car,truck,1,0075_lp_dnn_1_truck_10_n04467665_50932.png,n04467665_50932.png,0.0,8.286225,9.639867,-0.9571691
alexnet2023_baseline_pgd,1,76,NaN,dog,dog,1,0076_lp_dnn_1_dog_10_n02102480_7293.png,n02102480_7293.png,1.0,6.369378,5.4198775,0.6713983
alexnet2023_baseline_pgd,1,77,NaN,bottle,bottle,1,0077_lp_dnn_1_bottle_10_n04591713_4764.png,n04591713_4764.png,1.0,3.8970883,2.4347947,1.0339978
alexnet2023_baseline_pgd,1,78,NaN,bird,clock,15,0078_lp_dnn_15_clock_10_n02708093_274.png,n02708093_274.png,0.0,0.9394576,1.3754741,-0.30831024
alexnet2023_baseline_pgd,1,79,NaN,keyboard,bottle,5,0079_lp_dnn_5_bottle_10_n04557648_29772.png,n04557648_29772.png,0.0,0.697895,2.2683907,-1.1105081
alexnet2023_baseline_pgd,1,80,NaN,knife,car,15,0080_lp_dnn_15_car_10_n03100240_22499.png,n03100240_22499.png,0.0,-1.3205124,2.068222,-2.396197
alexnet2023_baseline_pgd,1,81,NaN,clock,clock,3,0081_lp_dnn_3_clock_10_n02708093_6252.png,n02708093_6252.png,1.0,12.29404,4.580144,5.4545484
alexnet2023_baseline_pgd,1,82,NaN,bird,airplane,10,0082_lp_dnn_10_airplane_10_n02690373_5427.png,n02690373_5427.png,0.0,1.2685434,2.2303808,-0.6801218
alexnet2023_baseline_pgd,1,83,NaN,knife,dog,15,0083_lp_dnn_15_dog_10_n02107142_46045.png,n02107142_46045.png,0.0,0.48469856,1.7961391,-0.9273285
alexnet2023_baseline_pgd,1,84,NaN,boat,keyboard,40,0084_lp_dnn_40_keyboard_10_n03085013_23793.png,n03085013_23793.png,0.0,-1.0576309,2.7358181,-2.6823735
alexnet2023_baseline_pgd,1,85,NaN,bicycle,bicycle,3,0085_lp_dnn_3_bicycle_10_n03792782_12421.png,n03792782_12421.png,1.0,5.4122405,3.5942795,1.2854925
alexnet2023_baseline_pgd,1,86,NaN,airplane,airplane,0,0086_lp_dnn_0_airplane_10_n02690373_1310.png,n02690373_1310.png,1.0,15.976984,8.367501,5.380717
alexnet2023_baseline_pgd,1,87,NaN,knife,oven,15,0087_lp_dnn_15_oven_10_n04111531_8793.png,n04111531_8793.png,0.0,0.115695626,3.347031,-2.2848992
alexnet2023_baseline_pgd,1,88,NaN,airplane,airplane,5,0088_lp_dnn_5_airplane_10_n02690373_633.png,n02690373_633.png,1.0,3.46852,1.9439076,1.0780637
alexnet2023_baseline_pgd,1,89,NaN,knife,clock,5,0089_lp_dnn_5_clock_10_n02708093_2307.png,n02708093_2307.png,0.0,0.34398627,2.6317425,-1.617688
alexnet2023_baseline_pgd,1,90,NaN,bird,oven,10,0090_lp_dnn_10_oven_10_n04111531_13795.png,n04111531_13795.png,0.0,-0.6098123,2.2952807,-2.054211
alexnet2023_baseline_pgd,1,91,NaN,boat,boat,3,0091_lp_dnn_3_boat_10_n03662601_1427.png,n03662601_1427.png,1.0,3.8030915,3.213579,0.41684836
alexnet2023_baseline_pgd,1,92,NaN,bird,boat,5,0092_lp_dnn_5_boat_10_n04612504_15944.png,n04612504_15944.png,0.0,-1.6115307,1.8902932,-2.4761634
alexnet2023_baseline_pgd,1,93,NaN,airplane,airplane,40,0093_lp_dnn_40_airplane_10_n02690373_3561.png,n02690373_3561.png,1.0,2.787197,2.682824,0.07380301
alexnet2023_baseline_pgd,1,94,NaN,bear,elephant,7,0094_lp_dnn_7_elephant_10_n02504458_1848.png,n02504458_1848.png,0.0,0.32992166,2.0189335,-1.1943117
alexnet2023_baseline_pgd,1,95,NaN,keyboard,oven,5,0095_lp_dnn_5_oven_10_n04111531_4155.png,n04111531_4155.png,0.0,-0.5391745,2.047654,-1.829164
alexnet2023_baseline_pgd,1,96,NaN,car,car,0,0096_lp_dnn_0_car_10_n03100240_8327.png,n03100240_8327.png,1.0,15.523145,11.385498,2.9257581
alexnet2023_baseline_pgd,1,97,NaN,chair,chair,0,0097_lp_dnn_0_chair_10_n04429376_24319.png,n04429376_24319.png,1.0,4.280413,3.2569313,0.72371095
alexnet2023_baseline_pgd,1,98,NaN,keyboard,chair,3,0098_lp_dnn_3_chair_10_n03376595_5112.png,n03376595_5112.png,0.0,1.1298233,4.7366076,-2.5503817
alexnet2023_baseline_pgd,1,99,NaN,cat,cat,1,0099_lp_dnn_1_cat_10_n02124075_2268.png,n02124075_2268.png,1.0,6.004783,5.078744,0.65480864
alexnet2023_baseline_pgd,1,100,NaN,boat,boat,3,0100_lp_dnn_3_boat_10_n04273569_1137.png,n04273569_1137.png,1.0,3.5375068,2.7077262,0.5867435
alexnet2023_baseline_pgd,1,101,NaN,chair,chair,1,0101_lp_dnn_1_chair_10_n02791124_15383.png,n02791124_15383.png,1.0,13.580677,5.544718,5.6822815
alexnet2023_baseline_pgd,1,102,NaN,knife,clock,15,0102_lp_dnn_15_clock_10_n04548280_8998.png,n04548280_8998.png,0.0,0.7484699,2.4601097,-1.2103121
alexnet2023_baseline_pgd,1,103,NaN,bear,dog,0,0103_lp_dnn_0_dog_10_n02097047_2800.png,n02097047_2800.png,0.0,5.486396,6.936845,-1.0256224
alexnet2023_baseline_pgd,1,104,NaN,airplane,bicycle,15,0104_lp_dnn_15_bicycle_10_n03792782_18294.png,n03792782_18294.png,0.0,-0.129231,2.72536,-2.0185006
alexnet2023_baseline_pgd,1,105,NaN,elephant,elephant,0,0105_lp_dnn_0_elephant_10_n02504013_24486.png,n02504013_24486.png,1.0,13.366245,2.8540065,7.433275
alexnet2023_baseline_pgd,1,106,NaN,bird,airplane,7,0106_lp_dnn_7_airplane_10_n02690373_2923.png,n02690373_2923.png,0.0,0.3159171,2.3440468,-1.4341043
alexnet2023_baseline_pgd,1,107,NaN,airplane,airplane,3,0107_lp_dnn_3_airplane_10_n02690373_15392.png,n02690373_15392.png,1.0,5.617585,3.555867,1.457855
alexnet2023_baseline_pgd,1,108,NaN,keyboard,oven,5,0108_lp_dnn_5_oven_10_n04111531_6080.png,n04111531_6080.png,0.0,1.1617433,2.4796624,-0.93190956
alexnet2023_baseline_pgd,1,109,NaN,bird,bear,15,0109_lp_dnn_15_bear_10_n02134084_22736.png,n02134084_22736.png,0.0,0.5209749,1.8139735,-0.91428816
alexnet2023_baseline_pgd,1,110,NaN,knife,knife,1,0110_lp_dnn_1_knife_10_n03041632_33326.png,n03041632_33326.png,1.0,6.5498962,2.9012742,2.5799654
alexnet2023_baseline_pgd,1,111,NaN,boat,truck,40,0111_lp_dnn_40_truck_10_n04467665_66876.png,n04467665_66876.png,0.0,-0.36538398,2.448276,-1.9895582
alexnet2023_baseline_pgd,1,112,NaN,boat,truck,40,0112_lp_dnn_40_truck_10_n03796401_10234.png,n03796401_10234.png,0.0,-0.07509476,2.6408257,-1.9204458
alexnet2023_baseline_pgd,1,113,NaN,bird,bicycle,7,0113_lp_dnn_7_bicycle_10_n03792782_5416.png,n03792782_5416.png,0.0,-1.9884684,2.5534573,-3.2116263
alexnet2023_baseline_pgd,1,114,NaN,bird,knife,7,0114_lp_dnn_7_knife_10_n03041632_25772.png,n03041632_25772.png,0.0,1.2358378,1.7110615,-0.33603388
alexnet2023_baseline_pgd,1,115,NaN,bird,bicycle,10,0115_lp_dnn_10_bicycle_10_n03792782_7108.png,n03792782_7108.png,0.0,-2.4679847,2.3956516,-3.43911
alexnet2023_baseline_pgd,1,116,NaN,chair,chair,0,0116_lp_dnn_0_chair_10_n03376595_1981.png,n03376595_1981.png,1.0,8.421311,2.771584,3.9949605
alexnet2023_baseline_pgd,1,117,NaN,bird,oven,15,0117_lp_dnn_15_oven_10_n04111531_6508.png,n04111531_6508.png,0.0,-0.061256193,2.0806215,-1.5145363
alexnet2023_baseline_pgd,1,118,NaN,bird,bird,15,0118_lp_dnn_15_bird_10_n01843383_2843.png,n01843383_2843.png,1.0,2.4755719,1.0080049,1.0377265
alexnet2023_baseline_pgd,1,119,NaN,bird,cat,5,0119_lp_dnn_5_cat_10_n02123597_5887.png,n02123597_5887.png,0.0,1.2201476,1.957234,-0.5211988
alexnet2023_baseline_pgd,1,120,NaN,knife,clock,40,0120_lp_dnn_40_clock_10_n04548280_9801.png,n04548280_9801.png,0.0,1.7550424,1.980413,-0.15936103
alexnet2023_baseline_pgd,1,121,NaN,bird,bird,1,0121_lp_dnn_1_bird_10_n01530575_10332.png,n01530575_10332.png,1.0,8.869895,2.186638,4.7257767
alexnet2023_baseline_pgd,1,122,NaN,bird,elephant,15,0122_lp_dnn_15_elephant_10_n02504013_5887.png,n02504013_5887.png,0.0,0.65269697,2.1105964,-1.0308906
alexnet2023_baseline_pgd,1,123,NaN,knife,cat,3,0123_lp_dnn_3_cat_10_n02124075_8693.png,n02124075_8693.png,0.0,1.9776689,1.9896067,-0.008441339
alexnet2023_baseline_pgd,1,124,NaN,bird,boat,15,0124_lp_dnn_15_boat_10_n04612504_26151.png,n04612504_26151.png,0.0,1.6560581,1.8416073,-0.13120314
alexnet2023_baseline_pgd,1,125,NaN,bird,cat,7,0125_lp_dnn_7_cat_10_n02125311_53412.png,n02125311_53412.png,0.0,0.66488385,2.0486205,-0.9784496
alexnet2023_baseline_pgd,1,126,NaN,knife,knife,7,0126_lp_dnn_7_knife_10_n03041632_46914.png,n03041632_46914.png,1.0,3.511928,1.4246057,1.4759598
alexnet2023_baseline_pgd,1,127,NaN,bird,bicycle,15,0127_lp_dnn_15_bicycle_10_n03792782_5629.png,n03792782_5629.png,0.0,-0.96132946,1.9927073,-2.0888195
alexnet2023_baseline_pgd,1,128,NaN,airplane,bottle,40,0128_lp_dnn_40_bottle_10_n02823428_79.png,n02823428_79.png,0.0,0.5646013,2.7120237,-1.5184569
alexnet2023_baseline_pgd,1,129,NaN,dog,dog,3,0129_lp_dnn_3_dog_10_n02101006_5024.png,n02101006_5024.png,1.0,4.0906777,3.7231112,0.25990883
alexnet2023_baseline_pgd,1,130,NaN,knife,oven,15,0130_lp_dnn_15_oven_10_n04111531_2350.png,n04111531_2350.png,0.0,-0.8911056,1.8503721,-1.9385176
alexnet2023_baseline_pgd,1,131,NaN,knife,airplane,7,0131_lp_dnn_7_airplane_10_n02690373_4839.png,n02690373_4839.png,0.0,1.640519,1.9229399,-0.19970171
alexnet2023_baseline_pgd,1,132,NaN,keyboard,car,5,0132_lp_dnn_5_car_10_n03100240_2075.png,n03100240_2075.png,0.0,-1.2277884,3.2248938,-3.1485221
alexnet2023_baseline_pgd,1,133,NaN,knife,cat,5,0133_lp_dnn_5_cat_10_n02123159_3729.png,n02123159_3729.png,0.0,0.11036959,3.2662442,-2.2315402
alexnet2023_baseline_pgd,1,134,NaN,bird,knife,10,0134_lp_dnn_10_knife_10_n03041632_3079.png,n03041632_3079.png,0.0,1.1242068,1.5224975,-0.2816341
alexnet2023_baseline_pgd,1,135,NaN,bird,elephant,15,0135_lp_dnn_15_elephant_10_n02504013_2052.png,n02504013_2052.png,0.0,0.7739102,2.489836,-1.2133427
alexnet2023_baseline_pgd,1,136,NaN,airplane,cat,40,0136_lp_dnn_40_cat_10_n02123159_3724.png,n02123159_3724.png,0.0,-1.0611453,3.2869012,-3.074533
alexnet2023_baseline_pgd,1,137,NaN,knife,keyboard,15,0137_lp_dnn_15_keyboard_10_n03085013_7955.png,n03085013_7955.png,0.0,-0.19219342,2.5676935,-1.9515349
alexnet2023_baseline_pgd,1,138,NaN,airplane,bird,40,0138_lp_dnn_40_bird_10_n02056570_9872.png,n02056570_9872.png,0.0,0.97608364,2.6610675,-1.1914635
alexnet2023_baseline_pgd,1,139,NaN,bird,cat,10,0139_lp_dnn_10_cat_10_n02125311_44401.png,n02125311_44401.png,0.0,-0.15872829,2.1981478,-1.6665632
alexnet2023_baseline_pgd,1,140,NaN,airplane,airplane,10,0140_lp_dnn_10_airplane_10_n02690373_10657.png,n02690373_10657.png,1.0,2.8755202,2.5832045,0.20669843
alexnet2023_baseline_pgd,1,141,NaN,bird,bird,5,0141_lp_dnn_5_bird_10_n02025239_7919.png,n02025239_7919.png,1.0,2.1276588,1.3462726,0.55252355
alexnet2023_baseline_pgd,1,142,NaN,airplane,bear,40,0142_lp_dnn_40_bear_10_n02134084_23165.png,n02134084_23165.png,0.0,-0.5405336,2.821243,-2.377135
alexnet2023_baseline_pgd,1,143,NaN,airplane,knife,40,0143_lp_dnn_40_knife_10_n03041632_28658.png,n03041632_28658.png,0.0,1.7914264,2.478003,-0.485483
alexnet2023_baseline_pgd,1,144,NaN,keyboard,keyboard,5,0144_lp_dnn_5_keyboard_10_n04505470_4371.png,n04505470_4371.png,1.0,3.2795882,1.633164,1.1641977
alexnet2023_baseline_pgd,1,145,NaN,keyboard,keyboard,0,0145_lp_dnn_0_keyboard_10_n03085013_14237.png,n03085013_14237.png,1.0,8.789021,4.9166927,2.7381494
alexnet2023_baseline_pgd,1,146,NaN,bottle,clock,0,0146_lp_dnn_0_clock_10_n03196217_6163.png,n03196217_6163.png,0.0,2.6643827,3.9697442,-0.92303
alexnet2023_baseline_pgd,1,147,NaN,bird,chair,15,0147_lp_dnn_15_chair_10_n02791124_3857.png,n02791124_3857.png,0.0,-1.7693185,2.1891472,-2.799058
alexnet2023_baseline_pgd,1,148,NaN,boat,truck,40,0148_lp_dnn_40_truck_10_n03417042_20650.png,n03417042_20650.png,0.0,-0.8478677,2.0215366,-2.0289752
alexnet2023_baseline_pgd,1,149,NaN,truck,truck,0,0149_lp_dnn_0_truck_10_n04467665_17101.png,n04467665_17101.png,1.0,12.768183,7.1638107,3.9628894
alexnet2023_baseline_pgd,1,150,NaN,clock,chair,1,0150_lp_dnn_1_chair_10_n04429376_19354.png,n04429376_19354.png,0.0,4.364723,6.1258264,-1.245288
alexnet2023_baseline_pgd,1,151,NaN,knife,knife,0,0151_lp_dnn_0_knife_10_n03041632_42156.png,n03041632_42156.png,1.0,16.328035,3.0540428,9.38613
alexnet2023_baseline_pgd,1,152,NaN,car,car,1,0152_lp_dnn_1_car_10_n04285008_39.png,n04285008_39.png,1.0,14.687648,8.478187,4.3907523
alexnet2023_baseline_pgd,1,153,NaN,boat,boat,1,0153_lp_dnn_1_boat_10_n03662601_1319.png,n03662601_1319.png,1.0,11.911855,5.5923233,4.4685836
alexnet2023_baseline_pgd,1,154,NaN,bear,truck,7,0154_lp_dnn_7_truck_10_n03796401_4119.png,n03796401_4119.png,0.0,-2.3581169,1.9129517,-3.0201015
alexnet2023_baseline_pgd,1,155,NaN,knife,bottle,15,0155_lp_dnn_15_bottle_10_n03937543_2333.png,n03937543_2333.png,0.0,1.2770073,2.0241816,-0.528332
alexnet2023_baseline_pgd,1,156,NaN,knife,bottle,3,0156_lp_dnn_3_bottle_10_n04591713_7134.png,n04591713_7134.png,0.0,3.8904986,4.042041,-0.10715651
alexnet2023_baseline_pgd,1,157,NaN,dog,dog,0,0157_lp_dnn_0_dog_10_n02107312_3673.png,n02107312_3673.png,1.0,3.0769272,2.5276089,0.38842672
alexnet2023_baseline_pgd,1,158,NaN,oven,oven,3,0158_lp_dnn_3_oven_10_n04111531_8373.png,n04111531_8373.png,1.0,4.087086,2.6374137,1.0250733
alexnet2023_baseline_pgd,1,159,NaN,keyboard,car,3,0159_lp_dnn_3_car_10_n03100240_13707.png,n03100240_13707.png,0.0,3.6819077,5.019239,-0.94563603
alexnet2023_baseline_pgd,1,160,NaN,chair,chair,1,0160_lp_dnn_1_chair_10_n02791124_241.png,n02791124_241.png,1.0,5.2892666,4.902869,0.2732242
alexnet2023_baseline_pgd,1,161,NaN,knife,airplane,7,0161_lp_dnn_7_airplane_10_n02690373_5628.png,n02690373_5628.png,0.0,1.1162765,2.3015566,-0.8381196
alexnet2023_baseline_pgd,1,162,NaN,airplane,boat,40,0162_lp_dnn_40_boat_10_n02951358_1461.png,n02951358_1461.png,0.0,1.7274206,1.9529368,-0.15946403
alexnet2023_baseline_pgd,1,163,NaN,bird,keyboard,7,0163_lp_dnn_7_keyboard_10_n04505470_4501.png,n04505470_4501.png,0.0,2.7562153,3.1214955,-0.25829208
alexnet2023_baseline_pgd,1,164,NaN,bird,bird,1,0164_lp_dnn_1_bird_10_n02033041_11415.png,n02033041_11415.png,1.0,6.4290805,3.1374922,2.3275044
alexnet2023_baseline_pgd,1,165,NaN,knife,knife,1,0165_lp_dnn_1_knife_10_n03041632_6446.png,n03041632_6446.png,1.0,7.8699894,4.5298758,2.3618171
alexnet2023_baseline_pgd,1,166,NaN,bird,bird,0,0166_lp_dnn_0_bird_10_n02011460_3892.png,n02011460_3892.png,1.0,6.638971,2.8869946,2.6530478
alexnet2023_baseline_pgd,1,167,NaN,cat,cat,1,0167_lp_dnn_1_cat_10_n02125311_3174.png,n02125311_3174.png,1.0,6.69764,5.7594557,0.6633965
alexnet2023_baseline_pgd,1,168,NaN,knife,dog,10,0168_lp_dnn_10_dog_10_n02088364_7448.png,n02088364_7448.png,0.0,0.4264365,2.116198,-1.1948419
alexnet2023_baseline_pgd,1,169,NaN,cat,cat,1,0169_lp_dnn_1_cat_10_n02123394_4299.png,n02123394_4299.png,1.0,5.4555664,1.7791284,2.5996342
alexnet2023_baseline_pgd,1,170,NaN,bird,keyboard,15,0170_lp_dnn_15_keyboard_10_n03085013_23731.png,n03085013_23731.png,0.0,-0.11012,2.0107865,-1.4997075
alexnet2023_baseline_pgd,1,171,NaN,knife,knife,5,0171_lp_dnn_5_knife_10_n03041632_29285.png,n03041632_29285.png,1.0,2.3237681,1.508158,0.5767235
alexnet2023_baseline_pgd,1,172,NaN,keyboard,keyboard,0,0172_lp_dnn_0_keyboard_10_n03085013_12164.png,n03085013_12164.png,1.0,19.734488,7.143893,8.902895
alexnet2023_baseline_pgd,1,173,NaN,keyboard,bird,5,0173_lp_dnn_5_bird_10_n01582220_9023.png,n01582220_9023.png,0.0,0.903349,2.9345136,-1.4362503
alexnet2023_baseline_pgd,1,174,NaN,knife,bottle,3,0174_lp_dnn_3_bottle_10_n03983396_12728.png,n03983396_12728.png,0.0,0.42947897,2.9305608,-1.768532
alexnet2023_baseline_pgd,1,175,NaN,keyboard,dog,7,0175_lp_dnn_7_dog_10_n02111277_50807.png,n02111277_50807.png,0.0,1.4445479,1.9965651,-0.3903351
alexnet2023_baseline_pgd,1,176,NaN,knife,boat,5,0176_lp_dnn_5_boat_10_n04273569_2037.png,n04273569_2037.png,0.0,1.6497033,2.3654988,-0.50614387
alexnet2023_baseline_pgd,1,177,NaN,airplane,keyboard,40,0177_lp_dnn_40_keyboard_10_n04505470_4672.png,n04505470_4672.png,0.0,-0.8330658,2.999561,-2.7100766
alexnet2023_baseline_pgd,1,178,NaN,bird,boat,10,0178_lp_dnn_10_boat_10_n03662601_12034.png,n03662601_12034.png,0.0,0.49916902,2.1935549,-1.1981118
alexnet2023_baseline_pgd,1,179,NaN,bird,airplane,15,0179_lp_dnn_15_airplane_10_n02690373_5845.png,n02690373_5845.png,0.0,0.9187364,1.8959768,-0.69101334
alexnet2023_baseline_pgd,1,180,NaN,keyboard,truck,5,0180_lp_dnn_5_truck_10_n03417042_12128.png,n03417042_12128.png,0.0,-1.7542932,1.8683994,-2.5616305
alexnet2023_baseline_pgd,1,181,NaN,knife,keyboard,10,0181_lp_dnn_10_keyboard_10_n03085013_2432.png,n03085013_2432.png,0.0,1.4424449,3.5667422,-1.502105
alexnet2023_baseline_pgd,1,182,NaN,keyboard,chair,5,0182_lp_dnn_5_chair_10_n03376595_9692.png,n03376595_9692.png,0.0,-0.18426833,2.360045,-1.7991011
alexnet2023_baseline_pgd,1,183,NaN,elephant,chair,3,0183_lp_dnn_3_chair_10_n03376595_12583.png,n03376595_12583.png,0.0,-0.34271985,2.816018,-2.233565
alexnet2023_baseline_pgd,1,184,NaN,bear,bear,0,0184_lp_dnn_0_bear_10_n02133161_2135.png,n02133161_2135.png,1.0,6.1893315,4.4984984,1.1955996
alexnet2023_baseline_pgd,1,185,NaN,airplane,airplane,10,0185_lp_dnn_10_airplane_10_n02690373_5176.png,n02690373_5176.png,1.0,2.720945,2.0671306,0.46231654
alexnet2023_baseline_pgd,1,186,NaN,elephant,elephant,0,0186_lp_dnn_0_elephant_10_n02504013_10990.png,n02504013_10990.png,1.0,10.528775,3.6595118,4.857303
alexnet2023_baseline_pgd,1,187,NaN,bird,boat,10,0187_lp_dnn_10_boat_10_n02951358_3155.png,n02951358_3155.png,0.0,1.1984968,1.8985866,-0.49503827
alexnet2023_baseline_pgd,1,188,NaN,knife,knife,1,0188_lp_dnn_1_knife_10_n03041632_2644.png,n03041632_2644.png,1.0,11.151423,2.6265671,6.027984
alexnet2023_baseline_pgd,1,189,NaN,knife,airplane,5,0189_lp_dnn_5_airplane_10_n02690373_5184.png,n02690373_5184.png,0.0,-0.06234163,3.196764,-2.3045359
alexnet2023_baseline_pgd,1,190,NaN,elephant,chair,0,0190_lp_dnn_0_chair_10_n04099969_16161.png,n04099969_16161.png,0.0,1.2063493,4.5559535,-2.368528
alexnet2023_baseline_pgd,1,191,NaN,knife,boat,10,0191_lp_dnn_10_boat_10_n03344393_5343.png,n03344393_5343.png,0.0,0.9646767,2.4010878,-1.015696
alexnet2023_baseline_pgd,1,192,NaN,oven,oven,0,0192_lp_dnn_0_oven_10_n04111531_15052.png,n04111531_15052.png,1.0,9.904515,4.169822,4.0550404
alexnet2023_baseline_pgd,1,193,NaN,airplane,bicycle,15,0193_lp_dnn_15_bicycle_10_n02835271_317.png,n02835271_317.png,0.0,0.36685076,3.2902174,-2.0671322
alexnet2023_baseline_pgd,1,194,NaN,bird,bird,0,0194_lp_dnn_0_bird_10_n02002556_15721.png,n02002556_15721.png,1.0,7.7437406,1.451298,4.4494286
alexnet2023_baseline_pgd,1,195,NaN,keyboard,chair,5,0195_lp_dnn_5_chair_10_n03376595_11280.png,n03376595_11280.png,0.0,-2.0877059,1.8403184,-2.7775326
alexnet2023_baseline_pgd,1,196,NaN,keyboard,keyboard,3,0196_lp_dnn_3_keyboard_10_n04505470_4621.png,n04505470_4621.png,1.0,4.4737854,1.2539843,2.2767432
alexnet2023_baseline_pgd,1,197,NaN,airplane,boat,7,0197_lp_dnn_7_boat_10_n03662601_6042.png,n03662601_6042.png,0.0,0.6367642,1.6272502,-0.7003794
alexnet2023_baseline_pgd,1,198,NaN,dog,dog,1,0198_lp_dnn_1_dog_10_n02086646_2810.png,n02086646_2810.png,1.0,5.4409533,2.982895,1.7381097
alexnet2023_baseline_pgd,1,199,NaN,bird,elephant,15,0199_lp_dnn_15_elephant_10_n02504458_7835.png,n02504458_7835.png,0.0,0.2467488,1.9690187,-1.2178288
alexnet2023_baseline_pgd,1,200,NaN,bottle,cat,15,0200_lp_dnn_15_cat_10_n02123159_6281.png,n02123159_6281.png,0.0,0.44264758,1.5654314,-0.793928
alexnet2023_baseline_pgd,1,201,NaN,keyboard,knife,5,0201_lp_dnn_5_knife_10_n03041632_1661.png,n03041632_1661.png,0.0,0.55620414,1.9091334,-0.9566655
alexnet2023_baseline_pgd,1,202,NaN,clock,clock,1,0202_lp_dnn_1_clock_10_n02708093_2806.png,n02708093_2806.png,1.0,9.820591,4.3767343,3.8493881
alexnet2023_baseline_pgd,1,203,NaN,boat,boat,1,0203_lp_dnn_1_boat_10_n04273569_1201.png,n04273569_1201.png,1.0,12.432441,8.087336,3.0724535
alexnet2023_baseline_pgd,1,204,NaN,airplane,bird,40,0204_lp_dnn_40_bird_10_n01614925_13283.png,n01614925_13283.png,0.0,0.558246,2.650451,-1.4794124
alexnet2023_baseline_pgd,1,205,NaN,boat,car,40,0205_lp_dnn_40_car_10_n02814533_51701.png,n02814533_51701.png,0.0,-0.09699624,2.9564872,-2.159139
alexnet2023_baseline_pgd,1,206,NaN,bird,chair,7,0206_lp_dnn_7_chair_10_n04099969_34325.png,n04099969_34325.png,0.0,-1.6288408,1.979663,-2.5515976
alexnet2023_baseline_pgd,1,207,NaN,airplane,truck,0,0207_lp_dnn_0_truck_10_n04467665_71305.png,n04467665_71305.png,0.0,9.123119,10.529645,-0.9945638
alexnet2023_baseline_pgd,1,208,NaN,knife,boat,5,0208_lp_dnn_5_boat_10_n03344393_5916.png,n03344393_5916.png,0.0,0.9804362,2.8797014,-1.3429832
alexnet2023_baseline_pgd,1,209,NaN,bird,car,7,0209_lp_dnn_7_car_10_n02814533_28783.png,n02814533_28783.png,0.0,-2.2078362,1.8638774,-2.8791363
alexnet2023_baseline_pgd,1,210,NaN,bird,boat,15,0210_lp_dnn_15_boat_10_n03662601_16825.png,n03662601_16825.png,0.0,1.0128219,1.9100753,-0.63445395
alexnet2023_baseline_pgd,1,211,NaN,elephant,dog,0,0211_lp_dnn_0_dog_10_n02100583_10960.png,n02100583_10960.png,0.0,3.5558949,8.610179,-3.5739186
alexnet2023_baseline_pgd,1,212,NaN,bird,elephant,10,0212_lp_dnn_10_elephant_10_n02504458_4587.png,n02504458_4587.png,0.0,0.90663147,2.2398155,-0.9427035
alexnet2023_baseline_pgd,1,213,NaN,bird,bottle,10,0213_lp_dnn_10_bottle_10_n03983396_12670.png,n03983396_12670.png,0.0,0.29174522,2.7047288,-1.7062371
alexnet2023_baseline_pgd,1,214,NaN,bicycle,bicycle,3,0214_lp_dnn_3_bicycle_10_n02835271_18205.png,n02835271_18205.png,1.0,2.744782,1.7295696,0.7178636
alexnet2023_baseline_pgd,1,215,NaN,airplane,truck,40,0215_lp_dnn_40_truck_10_n04467665_67527.png,n04467665_67527.png,0.0,-0.835607,2.2534165,-2.1842697
alexnet2023_baseline_pgd,1,216,NaN,knife,keyboard,10,0216_lp_dnn_10_keyboard_10_n03085013_4374.png,n03085013_4374.png,0.0,-0.086086825,2.230068,-1.6377687
alexnet2023_baseline_pgd,1,217,NaN,oven,clock,3,0217_lp_dnn_3_clock_10_n03196217_3086.png,n03196217_3086.png,0.0,6.1584144,6.5018463,-0.24284306
alexnet2023_baseline_pgd,1,218,NaN,knife,clock,15,0218_lp_dnn_15_clock_10_n04548280_254.png,n04548280_254.png,0.0,0.57978827,1.8183781,-0.8758152
alexnet2023_baseline_pgd,1,219,NaN,bird,bicycle,15,0219_lp_dnn_15_bicycle_10_n02835271_21707.png,n02835271_21707.png,0.0,-1.7956622,2.169888,-2.8040674
alexnet2023_baseline_pgd,1,220,NaN,bird,bird,15,0220_lp_dnn_15_bird_10_n01819313_6340.png,n01819313_6340.png,1.0,2.6802742,1.5752072,0.7814004
alexnet2023_baseline_pgd,1,221,NaN,bear,bicycle,5,0221_lp_dnn_5_bicycle_10_n02835271_10556.png,n02835271_10556.png,0.0,-1.6235206,1.8767784,-2.4750853
alexnet2023_baseline_pgd,1,222,NaN,bird,chair,15,0222_lp_dnn_15_chair_10_n04099969_3312.png,n04099969_3312.png,0.0,-2.141425,2.1649284,-3.0450518
alexnet2023_baseline_pgd,1,223,NaN,airplane,car,15,0223_lp_dnn_15_car_10_n04285008_2781.png,n04285008_2781.png,0.0,-0.7168434,3.0371978,-2.654508
alexnet2023_baseline_pgd,1,224,NaN,clock,clock,3,0224_lp_dnn_3_clock_10_n04548280_21263.png,n04548280_21263.png,1.0,7.1587453,3.5166597,2.5753434
alexnet2023_baseline_pgd,1,225,NaN,bird,car,15,0225_lp_dnn_15_car_10_n02814533_9785.png,n02814533_9785.png,0.0,-0.7712737,2.3575191,-2.2123907
alexnet2023_baseline_pgd,1,226,NaN,truck,truck,0,0226_lp_dnn_0_truck_10_n03417042_24100.png,n03417042_24100.png,1.0,13.384725,11.14465,1.5839716
alexnet2023_baseline_pgd,1,227,NaN,bird,dog,15,0227_lp_dnn_15_dog_10_n02091244_10926.png,n02091244_10926.png,0.0,-0.0456677,2.4488084,-1.763861
alexnet2023_baseline_pgd,1,228,NaN,boat,bottle,40,0228_lp_dnn_40_bottle_10_n04591713_2537.png,n04591713_2537.png,0.0,0.59744185,2.3666146,-1.250994
alexnet2023_baseline_pgd,1,229,NaN,bird,bear,10,0229_lp_dnn_10_bear_10_n02134418_1311.png,n02134418_1311.png,0.0,1.0655686,2.4227083,-0.9596427
alexnet2023_baseline_pgd,1,230,NaN,airplane,bicycle,3,0230_lp_dnn_3_bicycle_10_n03792782_210.png,n03792782_210.png,0.0,1.8074462,2.6187418,-0.5736726
alexnet2023_baseline_pgd,1,231,NaN,cat,cat,3,0231_lp_dnn_3_cat_10_n02123045_5371.png,n02123045_5371.png,1.0,2.701274,1.6094182,0.7720586
alexnet2023_baseline_pgd,1,232,NaN,bird,boat,15,0232_lp_dnn_15_boat_10_n04612504_19111.png,n04612504_19111.png,0.0,1.100839,1.6522847,-0.38993102
alexnet2023_baseline_pgd,1,233,NaN,knife,clock,1,0233_lp_dnn_1_clock_10_n03196217_7836.png,n03196217_7836.png,0.0,7.4617996,7.9741445,-0.3622825
alexnet2023_baseline_pgd,1,234,NaN,dog,dog,0,0234_lp_dnn_0_dog_10_n02086910_9742.png,n02086910_9742.png,1.0,5.532368,1.814808,2.6287122
alexnet2023_baseline_pgd,1,235,NaN,bottle,bottle,1,0235_lp_dnn_1_bottle_10_n03937543_4723.png,n03937543_4723.png,1.0,5.8635893,3.617253,1.5883996
alexnet2023_baseline_pgd,1,236,NaN,bird,dog,5,0236_lp_dnn_5_dog_10_n02111129_6495.png,n02111129_6495.png,0.0,0.95915943,1.7251083,-0.5416076
alexnet2023_baseline_pgd,1,237,NaN,knife,knife,1,0237_lp_dnn_1_knife_10_n03041632_3101.png,n03041632_3101.png,1.0,12.499796,6.2538247,4.4165688
alexnet2023_baseline_pgd,1,238,NaN,bottle,bear,0,0238_lp_dnn_0_bear_10_n02134084_7373.png,n02134084_7373.png,0.0,2.9217248,4.145918,-0.8656353
alexnet2023_baseline_pgd,1,239,NaN,bird,bird,7,0239_lp_dnn_7_bird_10_n02009229_11916.png,n02009229_11916.png,1.0,3.1016889,1.4797504,1.1468837
alexnet2023_baseline_pgd,1,240,NaN,bird,oven,7,0240_lp_dnn_7_oven_10_n04111531_14208.png,n04111531_14208.png,0.0,0.19811061,2.1868033,-1.4062182
alexnet2023_baseline_pgd,1,241,NaN,clock,bird,3,0241_lp_dnn_3_bird_10_n01601694_20287.png,n01601694_20287.png,0.0,1.2132138,2.2301378,-0.7190739
alexnet2023_baseline_pgd,1,242,NaN,bird,oven,15,0242_lp_dnn_15_oven_10_n04111531_5519.png,n04111531_5519.png,0.0,-0.42333236,2.188408,-1.8467793
alexnet2023_baseline_pgd,1,243,NaN,car,car,1,0243_lp_dnn_1_car_10_n04285008_10893.png,n04285008_10893.png,1.0,15.756871,8.236151,5.3179526
alexnet2023_baseline_pgd,1,244,NaN,boat,boat,40,0244_lp_dnn_40_boat_10_n02951358_16196.png,n02951358_16196.png,1.0,2.2737634,1.9301134,0.24299724
alexnet2023_baseline_pgd,1,245,NaN,airplane,clock,7,0245_lp_dnn_7_clock_10_n04548280_532.png,n04548280_532.png,0.0,0.8832162,1.9295734,-0.7398862
alexnet2023_baseline_pgd,1,246,NaN,keyboard,keyboard,0,0246_lp_dnn_0_keyboard_10_n04505470_73.png,n04505470_73.png,1.0,9.08255,6.394153,1.9009837
alexnet2023_baseline_pgd,1,247,NaN,bird,bottle,10,0247_lp_dnn_10_bottle_10_n02823428_6766.png,n02823428_6766.png,0.0,0.5401636,2.8659596,-1.6445862
alexnet2023_baseline_pgd,1,248,NaN,airplane,boat,15,0248_lp_dnn_15_boat_10_n02951358_26579.png,n02951358_26579.png,0.0,2.7784505,3.4955542,-0.50706893
alexnet2023_baseline_pgd,1,249,NaN,bird,dog,10,0249_lp_dnn_10_dog_10_n02085782_7651.png,n02085782_7651.png,0.0,1.4494991,2.8278036,-0.9746085
alexnet2023_baseline_pgd,1,250,NaN,clock,clock,3,0250_lp_dnn_3_clock_10_n02708093_1747.png,n02708093_1747.png,1.0,7.5384727,6.419612,0.791154
alexnet2023_baseline_pgd,1,251,NaN,keyboard,truck,3,0251_lp_dnn_3_truck_10_n04467665_19645.png,n04467665_19645.png,0.0,-1.1869628,3.4178615,-3.2561023
alexnet2023_baseline_pgd,1,252,NaN,knife,airplane,15,0252_lp_dnn_15_airplane_10_n02690373_17262.png,n02690373_17262.png,0.0,1.6146644,2.2064772,-0.4184748
alexnet2023_baseline_pgd,1,253,NaN,elephant,elephant,0,0253_lp_dnn_0_elephant_10_n02504458_10428.png,n02504458_10428.png,1.0,11.038864,4.5892015,4.5606003
alexnet2023_baseline_pgd,1,254,NaN,bottle,cat,7,0254_lp_dnn_7_cat_10_n02124075_9149.png,n02124075_9149.png,0.0,0.45202935,1.712393,-0.89121175
alexnet2023_baseline_pgd,1,255,NaN,bird,elephant,10,0255_lp_dnn_10_elephant_10_n02504013_7923.png,n02504013_7923.png,0.0,0.2780775,1.92619,-1.1653916
alexnet2023_baseline_pgd,1,256,NaN,dog,cat,3,0256_lp_dnn_3_cat_10_n02123394_4789.png,n02123394_4789.png,0.0,1.0328366,1.8613412,-0.5858413
alexnet2023_baseline_pgd,1,257,NaN,keyboard,clock,5,0257_lp_dnn_5_clock_10_n03196217_2530.png,n03196217_2530.png,0.0,1.4159346,4.289085,-2.031624
alexnet2023_baseline_pgd,1,258,NaN,knife,airplane,5,0258_lp_dnn_5_airplane_10_n02690373_6992.png,n02690373_6992.png,0.0,0.91496336,2.4222329,-1.0658005
alexnet2023_baseline_pgd,1,259,NaN,knife,airplane,3,0259_lp_dnn_3_airplane_10_n02690373_5056.png,n02690373_5056.png,0.0,3.984899,4.6400266,-0.46324512
alexnet2023_baseline_pgd,1,260,NaN,elephant,bear,1,0260_lp_dnn_1_bear_10_n02134418_2231.png,n02134418_2231.png,0.0,7.738851,7.838263,-0.07029487
alexnet2023_baseline_pgd,1,261,NaN,knife,truck,10,0261_lp_dnn_10_truck_10_n03796401_180.png,n03796401_180.png,0.0,-2.3643494,2.1406834,-3.185539
alexnet2023_baseline_pgd,1,262,NaN,bird,bicycle,3,0262_lp_dnn_3_bicycle_10_n02835271_3246.png,n02835271_3246.png,0.0,-0.54414296,2.3149507,-2.0216846
alexnet2023_baseline_pgd,1,263,NaN,truck,truck,3,0263_lp_dnn_3_truck_10_n03796401_599.png,n03796401_599.png,1.0,3.995687,3.8747098,0.085543774
alexnet2023_baseline_pgd,1,264,NaN,bird,oven,7,0264_lp_dnn_7_oven_10_n04111531_13862.png,n04111531_13862.png,0.0,-0.8605408,1.8855463,-1.9417769
alexnet2023_baseline_pgd,1,265,NaN,oven,oven,0,0265_lp_dnn_0_oven_10_n04111531_10420.png,n04111531_10420.png,1.0,6.1510434,4.273606,1.3275489
alexnet2023_baseline_pgd,1,266,NaN,airplane,car,10,0266_lp_dnn_10_car_10_n03100240_15531.png,n03100240_15531.png,0.0,-1.9993826,1.9910762,-2.8216805
alexnet2023_baseline_pgd,1,267,NaN,bird,dog,7,0267_lp_dnn_7_dog_10_n02099849_3128.png,n02099849_3128.png,0.0,0.8487652,2.3306766,-1.0478697
alexnet2023_baseline_pgd,1,268,NaN,bottle,chair,5,0268_lp_dnn_5_chair_10_n02791124_3222.png,n02791124_3222.png,0.0,-1.9526283,2.391505,-3.0717661
alexnet2023_baseline_pgd,1,269,NaN,keyboard,keyboard,5,0269_lp_dnn_5_keyboard_10_n04505470_8364.png,n04505470_8364.png,1.0,3.5849004,0.76763654,1.9921064
alexnet2023_baseline_pgd,1,270,NaN,clock,clock,0,0270_lp_dnn_0_clock_10_n04548280_9294.png,n04548280_9294.png,1.0,7.8452506,2.5576134,3.7389243
alexnet2023_baseline_pgd,1,271,NaN,bird,bottle,7,0271_lp_dnn_7_bottle_10_n03937543_3358.png,n03937543_3358.png,0.0,1.0522949,1.7630489,-0.50257903
alexnet2023_baseline_pgd,1,272,NaN,knife,knife,7,0272_lp_dnn_7_knife_10_n03041632_2058.png,n03041632_2058.png,1.0,2.4196668,1.3529911,0.7542536
alexnet2023_baseline_pgd,1,273,NaN,elephant,elephant,1,0273_lp_dnn_1_elephant_10_n02504458_5671.png,n02504458_5671.png,1.0,7.797064,6.666322,0.79955506
alexnet2023_baseline_pgd,1,274,NaN,bird,chair,10,0274_lp_dnn_10_chair_10_n02791124_6281.png,n02791124_6281.png,0.0,-1.781901,2.079236,-2.730236
alexnet2023_baseline_pgd,1,275,NaN,knife,cat,15,0275_lp_dnn_15_cat_10_n02125311_44920.png,n02125311_44920.png,0.0,0.62789065,1.9600512,-0.9419797
alexnet2023_baseline_pgd,1,276,NaN,knife,airplane,5,0276_lp_dnn_5_airplane_10_n02690373_2981.png,n02690373_2981.png,0.0,1.5115082,2.4878693,-0.69039154
alexnet2023_baseline_pgd,1,277,NaN,chair,knife,1,0277_lp_dnn_1_knife_10_n03041632_2468.png,n03041632_2468.png,0.0,2.1893854,3.0994732,-0.6435293
alexnet2023_baseline_pgd,1,278,NaN,clock,clock,1,0278_lp_dnn_1_clock_10_n02708093_3605.png,n02708093_3605.png,1.0,4.736452,2.7148702,1.4294742
alexnet2023_baseline_pgd,1,279,NaN,bicycle,bicycle,1,0279_lp_dnn_1_bicycle_10_n02835271_19019.png,n02835271_19019.png,1.0,13.735322,4.6782746,6.4042993
alexnet2023_baseline_pgd,1,280,NaN,knife,keyboard,7,0280_lp_dnn_7_keyboard_10_n03085013_1188.png,n03085013_1188.png,0.0,0.9801086,3.6061518,-1.8568931
alexnet2023_baseline_pgd,1,281,NaN,oven,oven,1,0281_lp_dnn_1_oven_10_n04111531_2715.png,n04111531_2715.png,1.0,5.7354555,1.6737207,2.87208
alexnet2023_baseline_pgd,1,282,NaN,knife,keyboard,10,0282_lp_dnn_10_keyboard_10_n03085013_9533.png,n03085013_9533.png,0.0,0.8834505,3.2732506,-1.6898439
alexnet2023_baseline_pgd,1,283,NaN,cat,cat,3,0283_lp_dnn_3_cat_10_n02123045_20366.png,n02123045_20366.png,1.0,2.0507648,1.5945482,0.32259384
alexnet2023_baseline_pgd,1,284,NaN,knife,chair,5,0284_lp_dnn_5_chair_10_n03376595_302.png,n03376595_302.png,0.0,-1.6180058,1.7938602,-2.4125535
alexnet2023_baseline_pgd,1,285,NaN,keyboard,cat,7,0285_lp_dnn_7_cat_10_n02123597_14267.png,n02123597_14267.png,0.0,1.2914215,1.3857695,-0.06671408
alexnet2023_baseline_pgd,1,286,NaN,bird,dog,15,0286_lp_dnn_15_dog_10_n02098286_2582.png,n02098286_2582.png,0.0,0.37033945,2.1057293,-1.227106
alexnet2023_baseline_pgd,1,287,NaN,boat,boat,1,0287_lp_dnn_1_boat_10_n03344393_4001.png,n03344393_4001.png,1.0,6.863997,3.784605,2.177459
alexnet2023_baseline_pgd,1,288,NaN,boat,bicycle,15,0288_lp_dnn_15_bicycle_10_n02835271_6122.png,n02835271_6122.png,0.0,-0.9060494,2.4662237,-2.384557
alexnet2023_baseline_pgd,1,289,NaN,dog,dog,3,0289_lp_dnn_3_dog_10_n02091134_3075.png,n02091134_3075.png,1.0,1.9987583,1.6638051,0.23684767
alexnet2023_baseline_pgd,1,290,NaN,airplane,oven,40,0290_lp_dnn_40_oven_10_n04111531_4795.png,n04111531_4795.png,0.0,-0.76237833,2.7544513,-2.486774
alexnet2023_baseline_pgd,1,291,NaN,bird,bottle,10,0291_lp_dnn_10_bottle_10_n04591713_4876.png,n04591713_4876.png,0.0,1.3857669,2.2545016,-0.6142882
alexnet2023_baseline_pgd,1,292,NaN,clock,bottle,0,0292_lp_dnn_0_bottle_10_n02823428_2510.png,n02823428_2510.png,0.0,5.1218057,6.677935,-1.1003497
alexnet2023_baseline_pgd,1,293,NaN,oven,keyboard,1,0293_lp_dnn_1_keyboard_10_n03085013_5950.png,n03085013_5950.png,0.0,2.8888383,4.6466107,-1.2429328
alexnet2023_baseline_pgd,1,294,NaN,bear,bear,5,0294_lp_dnn_5_bear_10_n02133161_1490.png,n02133161_1490.png,1.0,2.1248286,1.9370345,0.13279048
alexnet2023_baseline_pgd,1,295,NaN,bird,truck,10,0295_lp_dnn_10_truck_10_n03796401_28465.png,n03796401_28465.png,0.0,-3.1616707,2.4878683,-3.9948275
alexnet2023_baseline_pgd,1,296,NaN,bottle,bottle,15,0296_lp_dnn_15_bottle_10_n02823428_6627.png,n02823428_6627.png,1.0,1.4923937,1.2526675,0.16951202
alexnet2023_baseline_pgd,1,297,NaN,knife,truck,5,0297_lp_dnn_5_truck_10_n04467665_69582.png,n04467665_69582.png,0.0,0.6720134,3.0707293,-1.6961484
alexnet2023_baseline_pgd,1,298,NaN,airplane,bird,40,0298_lp_dnn_40_bird_10_n02006656_10568.png,n02006656_10568.png,0.0,0.9926493,2.9471514,-1.3820417
alexnet2023_baseline_pgd,1,299,NaN,airplane,car,40,0299_lp_dnn_40_car_10_n04285008_11748.png,n04285008_11748.png,0.0,-0.2667031,2.9795628,-2.2954566
alexnet2023_baseline_pgd,1,300,NaN,keyboard,truck,5,0300_lp_dnn_5_truck_10_n04467665_44714.png,n04467665_44714.png,0.0,-1.6289778,1.6100671,-2.2903507
alexnet2023_baseline_pgd,1,301,NaN,airplane,airplane,3,0301_lp_dnn_3_airplane_10_n02690373_7487.png,n02690373_7487.png,1.0,10.43849,4.625078,4.110703
alexnet2023_baseline_pgd,1,302,NaN,bear,elephant,15,0302_lp_dnn_15_elephant_10_n02504458_7472.png,n02504458_7472.png,0.0,0.9816357,1.6834788,-0.49627805
alexnet2023_baseline_pgd,1,303,NaN,boat,boat,3,0303_lp_dnn_3_boat_10_n03662601_25023.png,n03662601_25023.png,1.0,2.8912134,2.6685772,0.15742758
alexnet2023_baseline_pgd,1,304,NaN,knife,knife,0,0304_lp_dnn_0_knife_10_n03041632_101673.png,n03041632_101673.png,1.0,3.2745466,3.191671,0.05860199
alexnet2023_baseline_pgd,1,305,NaN,bird,bottle,7,0305_lp_dnn_7_bottle_10_n03983396_587.png,n03983396_587.png,0.0,0.48924848,2.7583973,-1.6045306
alexnet2023_baseline_pgd,1,306,NaN,dog,cat,3,0306_lp_dnn_3_cat_10_n02124075_7692.png,n02124075_7692.png,0.0,0.2313742,1.5625907,-0.94131225
alexnet2023_baseline_pgd,1,307,NaN,oven,oven,0,0307_lp_dnn_0_oven_10_n04111531_6313.png,n04111531_6313.png,1.0,11.55275,3.2659507,5.8596516
alexnet2023_baseline_pgd,1,308,NaN,bird,bird,7,0308_lp_dnn_7_bird_10_n02018795_5770.png,n02018795_5770.png,1.0,2.5371382,1.2133105,0.9360876
alexnet2023_baseline_pgd,1,309,NaN,bottle,bottle,3,0309_lp_dnn_3_bottle_10_n02823428_4658.png,n02823428_4658.png,1.0,9.224057,5.049078,2.952156
alexnet2023_baseline_pgd,1,310,NaN,airplane,airplane,1,0310_lp_dnn_1_airplane_10_n02690373_2724.png,n02690373_2724.png,1.0,14.786518,3.9866652,7.636649
alexnet2023_baseline_pgd,1,311,NaN,boat,boat,40,0311_lp_dnn_40_boat_10_n04612504_7446.png,n04612504_7446.png,1.0,2.3251565,2.221401,0.0733662
alexnet2023_baseline_pgd,1,312,NaN,bird,boat,7,0312_lp_dnn_7_boat_10_n02951358_34783.png,n02951358_34783.png,0.0,1.393384,2.3163712,-0.65265054
alexnet2023_baseline_pgd,1,313,NaN,cat,cat,0,0313_lp_dnn_0_cat_10_n02123597_680.png,n02123597_680.png,1.0,6.8515267,3.7327538,2.2053056
alexnet2023_baseline_pgd,1,314,NaN,bird,bear,10,0314_lp_dnn_10_bear_10_n02133161_9863.png,n02133161_9863.png,0.0,2.39566,3.0245898,-0.44472057
alexnet2023_baseline_pgd,1,315,NaN,bear,bear,1,0315_lp_dnn_1_bear_10_n02133161_2100.png,n02133161_2100.png,1.0,14.401918,6.0352345,5.916139
alexnet2023_baseline_pgd,1,316,NaN,oven,oven,3,0316_lp_dnn_3_oven_10_n04111531_8009.png,n04111531_8009.png,1.0,8.193688,3.4455154,3.3574653
alexnet2023_baseline_pgd,1,317,NaN,airplane,car,40,0317_lp_dnn_40_car_10_n03100240_16525.png,n03100240_16525.png,0.0,-0.0011711717,3.1624858,-2.2370434
alexnet2023_baseline_pgd,1,318,NaN,bird,bird,5,0318_lp_dnn_5_bird_10_n01824575_4941.png,n01824575_4941.png,1.0,2.5651617,2.3918104,0.122577876
alexnet2023_baseline_pgd,1,319,NaN,knife,knife,15,0319_lp_dnn_15_knife_10_n03041632_289.png,n03041632_289.png,1.0,1.529204,1.4716983,0.04066269
alexnet2023_baseline_pgd,1,320,NaN,bird,dog,10,0320_lp_dnn_10_dog_10_n02101006_15350.png,n02101006_15350.png,0.0,0.57859474,1.8157332,-0.87478906
alexnet2023_baseline_pgd,1,321,NaN,dog,elephant,5,0321_lp_dnn_5_elephant_10_n02504458_1636.png,n02504458_1636.png,0.0,2.483067,2.7581122,-0.1944863
alexnet2023_baseline_pgd,1,322,NaN,bird,car,7,0322_lp_dnn_7_car_10_n04285008_8666.png,n04285008_8666.png,0.0,-2.4858484,2.493672,-3.5210526
alexnet2023_baseline_pgd,1,323,NaN,bottle,bottle,5,0323_lp_dnn_5_bottle_10_n02823428_5451.png,n02823428_5451.png,1.0,3.1187117,1.9439375,0.8306908
alexnet2023_baseline_pgd,1,324,NaN,car,car,3,0324_lp_dnn_3_car_10_n03100240_2495.png,n03100240_2495.png,1.0,4.971849,2.4777462,1.763597
alexnet2023_baseline_pgd,1,325,NaN,bird,bicycle,10,0325_lp_dnn_10_bicycle_10_n02835271_19565.png,n02835271_19565.png,0.0,-2.2788115,2.8210173,-3.6061234
alexnet2023_baseline_pgd,1,326,NaN,airplane,airplane,1,0326_lp_dnn_1_airplane_10_n02690373_349.png,n02690373_349.png,1.0,17.00077,5.5877604,8.070216
alexnet2023_baseline_pgd,1,327,NaN,bird,cat,7,0327_lp_dnn_7_cat_10_n02123045_20512.png,n02123045_20512.png,0.0,0.995156,2.138128,-0.8082033
alexnet2023_baseline_pgd,1,328,NaN,boat,keyboard,1,0328_lp_dnn_1_keyboard_10_n03085013_23619.png,n03085013_23619.png,0.0,2.1097279,3.6824424,-1.1120771
alexnet2023_baseline_pgd,1,329,NaN,knife,boat,7,0329_lp_dnn_7_boat_10_n03662601_16925.png,n03662601_16925.png,0.0,0.8009634,2.3332505,-1.0834906
alexnet2023_baseline_pgd,1,330,NaN,bird,oven,10,0330_lp_dnn_10_oven_10_n04111531_12830.png,n04111531_12830.png,0.0,0.12487215,2.3528674,-1.5754305
alexnet2023_baseline_pgd,1,331,NaN,airplane,boat,5,0331_lp_dnn_5_boat_10_n02951358_33277.png,n02951358_33277.png,0.0,1.7469717,2.1064196,-0.254168
alexnet2023_baseline_pgd,1,332,NaN,bird,bear,15,0332_lp_dnn_15_bear_10_n02133161_156.png,n02133161_156.png,0.0,1.2656767,2.2721028,-0.7116507
alexnet2023_baseline_pgd,1,333,NaN,airplane,cat,40,0333_lp_dnn_40_cat_10_n02124075_6638.png,n02124075_6638.png,0.0,-0.85665464,3.0989459,-2.7970319
alexnet2023_baseline_pgd,1,334,NaN,bird,keyboard,10,0334_lp_dnn_10_keyboard_10_n04505470_4587.png,n04505470_4587.png,0.0,-0.39439,2.1735523,-1.8158094
alexnet2023_baseline_pgd,1,335,NaN,knife,bear,10,0335_lp_dnn_10_bear_10_n02134084_27899.png,n02134084_27899.png,0.0,1.2670544,2.100849,-0.5895817
alexnet2023_baseline_pgd,1,336,NaN,keyboard,keyboard,0,0336_lp_dnn_0_keyboard_10_n03085013_10984.png,n03085013_10984.png,1.0,12.56491,3.7606304,6.225566
alexnet2023_baseline_pgd,1,337,NaN,bird,bottle,5,0337_lp_dnn_5_bottle_10_n03983396_10469.png,n03983396_10469.png,0.0,-0.21123222,2.0450513,-1.5954334
alexnet2023_baseline_pgd,1,338,NaN,bird,knife,10,0338_lp_dnn_10_knife_10_n03041632_20707.png,n03041632_20707.png,0.0,0.17668892,2.9410954,-1.9547306
alexnet2023_baseline_pgd,1,339,NaN,car,car,1,0339_lp_dnn_1_car_10_n04285008_9411.png,n04285008_9411.png,1.0,13.882306,9.277454,3.2561219
alexnet2023_baseline_pgd,1,340,NaN,boat,airplane,40,0340_lp_dnn_40_airplane_10_n02690373_4671.png,n02690373_4671.png,0.0,2.2870286,2.3627212,-0.053522788
alexnet2023_baseline_pgd,1,341,NaN,bird,knife,7,0341_lp_dnn_7_knife_10_n03041632_16206.png,n03041632_16206.png,0.0,1.2765279,1.74136,-0.3286859
alexnet2023_baseline_pgd,1,342,NaN,bird,bicycle,5,0342_lp_dnn_5_bicycle_10_n03792782_7180.png,n03792782_7180.png,0.0,-2.2583992,1.552877,-2.6949792
alexnet2023_baseline_pgd,1,343,NaN,bear,bear,0,0343_lp_dnn_0_bear_10_n02134418_2719.png,n02134418_2719.png,1.0,6.985466,4.4152956,1.817385
alexnet2023_baseline_pgd,1,344,NaN,chair,chair,0,0344_lp_dnn_0_chair_10_n04099969_2038.png,n04099969_2038.png,1.0,9.452698,6.9180593,1.79226
alexnet2023_baseline_pgd,1,345,NaN,cat,dog,1,0345_lp_dnn_1_dog_10_n02113023_5237.png,n02113023_5237.png,0.0,4.4131703,6.2494254,-1.2984284
alexnet2023_baseline_pgd,1,346,NaN,airplane,airplane,40,0346_lp_dnn_40_airplane_10_n02690373_2525.png,n02690373_2525.png,1.0,2.3473496,2.323072,0.017166918
alexnet2023_baseline_pgd,1,347,NaN,clock,clock,7,0347_lp_dnn_7_clock_10_n04548280_219.png,n04548280_219.png,1.0,2.535656,1.4215763,0.7877733
alexnet2023_baseline_pgd,1,348,NaN,bird,boat,15,0348_lp_dnn_15_boat_10_n04612504_2805.png,n04612504_2805.png,0.0,0.84780884,2.3982606,-1.0963349
alexnet2023_baseline_pgd,1,349,NaN,keyboard,clock,7,0349_lp_dnn_7_clock_10_n02708093_7020.png,n02708093_7020.png,0.0,2.0291889,2.246922,-0.15396059
alexnet2023_baseline_pgd,1,350,NaN,knife,oven,3,0350_lp_dnn_3_oven_10_n04111531_5171.png,n04111531_5171.png,0.0,0.4694462,2.1032264,-1.1552571
alexnet2023_baseline_pgd,1,351,NaN,bear,cat,3,0351_lp_dnn_3_cat_10_n02125311_37322.png,n02125311_37322.png,0.0,-0.20641561,1.5510718,-1.2427313
alexnet2023_baseline_pgd,1,352,NaN,bottle,cat,7,0352_lp_dnn_7_cat_10_n02123597_14094.png,n02123597_14094.png,0.0,0.956099,1.8674237,-0.6444039
alexnet2023_baseline_pgd,1,353,NaN,bird,boat,15,0353_lp_dnn_15_boat_10_n02951358_13352.png,n02951358_13352.png,0.0,-0.052063726,2.071267,-1.5014215
alexnet2023_baseline_pgd,1,354,NaN,knife,bicycle,10,0354_lp_dnn_10_bicycle_10_n02835271_20445.png,n02835271_20445.png,0.0,-1.8143183,2.3585446,-2.9506598
alexnet2023_baseline_pgd,1,355,NaN,knife,knife,7,0355_lp_dnn_7_knife_10_n03041632_4708.png,n03041632_4708.png,1.0,3.7052312,1.6488016,1.4541154
alexnet2023_baseline_pgd,1,356,NaN,knife,oven,7,0356_lp_dnn_7_oven_10_n04111531_505.png,n04111531_505.png,0.0,-0.6167447,2.1703568,-1.9707785
alexnet2023_baseline_pgd,1,357,NaN,bicycle,bicycle,1,0357_lp_dnn_1_bicycle_10_n03792782_104.png,n03792782_104.png,1.0,10.088734,4.752547,3.773254
alexnet2023_baseline_pgd,1,358,NaN,airplane,bottle,40,0358_lp_dnn_40_bottle_10_n04591713_5204.png,n04591713_5204.png,0.0,0.3318731,3.1288085,-1.977732
alexnet2023_baseline_pgd,1,359,NaN,bird,bicycle,5,0359_lp_dnn_5_bicycle_10_n03792782_5578.png,n03792782_5578.png,0.0,-2.473203,2.0424619,-3.1930575
alexnet2023_baseline_pgd,1,360,NaN,bird,truck,10,0360_lp_dnn_10_truck_10_n03417042_1437.png,n03417042_1437.png,0.0,-2.4865503,2.3496258,-3.4196928
alexnet2023_baseline_pgd,1,361,NaN,elephant,cat,0,0361_lp_dnn_0_cat_10_n02123045_7482.png,n02123045_7482.png,0.0,3.4277668,3.5291402,-0.07168184
alexnet2023_baseline_pgd,1,362,NaN,bird,bird,10,0362_lp_dnn_10_bird_10_n02037110_554.png,n02037110_554.png,1.0,2.9438057,1.7054121,0.8756765
alexnet2023_baseline_pgd,1,363,NaN,bird,bicycle,5,0363_lp_dnn_5_bicycle_10_n03792782_15.png,n03792782_15.png,0.0,-0.41857737,2.3902926,-1.9861711
alexnet2023_baseline_pgd,1,364,NaN,keyboard,bicycle,5,0364_lp_dnn_5_bicycle_10_n02835271_7450.png,n02835271_7450.png,0.0,-1.1128714,1.5848867,-1.9076031
alexnet2023_baseline_pgd,1,365,NaN,airplane,boat,5,0365_lp_dnn_5_boat_10_n03344393_3881.png,n03344393_3881.png,0.0,2.2609138,2.5869467,-0.23054007
alexnet2023_baseline_pgd,1,366,NaN,bird,chair,10,0366_lp_dnn_10_chair_10_n04099969_3623.png,n04099969_3623.png,0.0,-2.3613884,1.9779011,-3.0683413
alexnet2023_baseline_pgd,1,367,NaN,airplane,airplane,5,0367_lp_dnn_5_airplane_10_n02690373_2579.png,n02690373_2579.png,1.0,3.4610212,1.9492399,1.0689908
alexnet2023_baseline_pgd,1,368,NaN,bird,dog,15,0368_lp_dnn_15_dog_10_n02093859_3707.png,n02093859_3707.png,0.0,0.55535495,1.8922403,-0.9453207
alexnet2023_baseline_pgd,1,369,NaN,elephant,bottle,1,0369_lp_dnn_1_bottle_10_n04560804_22426.png,n04560804_22426.png,0.0,1.1090792,3.2034771,-1.4809631
alexnet2023_baseline_pgd,1,370,NaN,bear,clock,15,0370_lp_dnn_15_clock_10_n03196217_82.png,n03196217_82.png,0.0,0.16282655,2.0055056,-1.3029709
alexnet2023_baseline_pgd,1,371,NaN,keyboard,car,5,0371_lp_dnn_5_car_10_n03100240_16907.png,n03100240_16907.png,0.0,-1.1912103,1.8141177,-2.1250877
alexnet2023_baseline_pgd,1,372,NaN,keyboard,oven,5,0372_lp_dnn_5_oven_10_n04111531_9548.png,n04111531_9548.png,0.0,-0.67815256,2.6559982,-2.3576007
alexnet2023_baseline_pgd,1,373,NaN,bird,clock,7,0373_lp_dnn_7_clock_10_n02708093_3751.png,n02708093_3751.png,0.0,-0.72625595,2.1633232,-2.043241
alexnet2023_baseline_pgd,1,374,NaN,bird,car,7,0374_lp_dnn_7_car_10_n02814533_6593.png,n02814533_6593.png,0.0,-2.4487512,2.022496,-3.1616492
alexnet2023_baseline_pgd,1,375,NaN,airplane,airplane,0,0375_lp_dnn_0_airplane_10_n02690373_3212.png,n02690373_3212.png,1.0,20.363728,4.989796,10.871012
alexnet2023_baseline_pgd,1,376,NaN,oven,cat,1,0376_lp_dnn_1_cat_10_n02123045_5820.png,n02123045_5820.png,0.0,1.7131311,2.2519636,-0.38101214
alexnet2023_baseline_pgd,1,377,NaN,knife,elephant,3,0377_lp_dnn_3_elephant_10_n02504458_205.png,n02504458_205.png,0.0,2.38311,4.7079663,-1.6439216
alexnet2023_baseline_pgd,1,378,NaN,bird,elephant,10,0378_lp_dnn_10_elephant_10_n02504013_3425.png,n02504013_3425.png,0.0,0.45238864,2.1450737,-1.1969091
alexnet2023_baseline_pgd,1,379,NaN,bear,bird,15,0379_lp_dnn_15_bird_10_n02056570_9572.png,n02056570_9572.png,0.0,1.4839833,1.5126281,-0.020254932
alexnet2023_baseline_pgd,1,380,NaN,boat,elephant,40,0380_lp_dnn_40_elephant_10_n02504013_7635.png,n02504013_7635.png,0.0,-0.45558357,2.229588,-1.8987031
alexnet2023_baseline_pgd,1,381,NaN,knife,boat,10,0381_lp_dnn_10_boat_10_n04273569_10716.png,n04273569_10716.png,0.0,-0.0049059032,2.1869297,-1.5498619
alexnet2023_baseline_pgd,1,382,NaN,bird,bear,15,0382_lp_dnn_15_bear_10_n02134084_19849.png,n02134084_19849.png,0.0,1.507704,2.564658,-0.7473793
alexnet2023_baseline_pgd,1,383,NaN,airplane,boat,40,0383_lp_dnn_40_boat_10_n03662601_35800.png,n03662601_35800.png,0.0,2.737332,3.3199291,-0.4119583
alexnet2023_baseline_pgd,1,384,NaN,airplane,bicycle,40,0384_lp_dnn_40_bicycle_10_n03792782_29276.png,n03792782_29276.png,0.0,-0.7518371,2.3387854,-2.1854
alexnet2023_baseline_pgd,1,385,NaN,bird,oven,10,0385_lp_dnn_10_oven_10_n04111531_4392.png,n04111531_4392.png,0.0,-1.2321469,2.497901,-2.637542
alexnet2023_baseline_pgd,1,386,NaN,airplane,airplane,0,0386_lp_dnn_0_airplane_10_n02690373_7099.png,n02690373_7099.png,1.0,19.07921,6.080345,9.191586
alexnet2023_baseline_pgd,1,387,NaN,dog,cat,5,0387_lp_dnn_5_cat_10_n02124075_13187.png,n02124075_13187.png,0.0,0.79520226,1.9511923,-0.8174084
alexnet2023_baseline_pgd,1,388,NaN,knife,knife,0,0388_lp_dnn_0_knife_10_n03041632_32048.png,n03041632_32048.png,1.0,4.762557,4.751432,0.007866625
alexnet2023_baseline_pgd,1,389,NaN,knife,airplane,3,0389_lp_dnn_3_airplane_10_n02690373_20074.png,n02690373_20074.png,0.0,3.3426883,4.315963,-0.688209
alexnet2023_baseline_pgd,1,390,NaN,truck,car,1,0390_lp_dnn_1_car_10_n02814533_83577.png,n02814533_83577.png,0.0,10.774104,12.30609,-1.0832778
alexnet2023_baseline_pgd,1,391,NaN,airplane,airplane,40,0391_lp_dnn_40_airplane_10_n02690373_19134.png,n02690373_19134.png,1.0,1.9958096,1.6185982,0.2667287
alexnet2023_baseline_pgd,1,392,NaN,knife,knife,3,0392_lp_dnn_3_knife_10_n03041632_13130.png,n03041632_13130.png,1.0,9.274507,2.6305852,4.697962
alexnet2023_baseline_pgd,1,393,NaN,knife,knife,0,0393_lp_dnn_0_knife_10_n03041632_1006.png,n03041632_1006.png,1.0,2.9187365,1.3713965,1.0941346
alexnet2023_baseline_pgd,1,394,NaN,elephant,elephant,1,0394_lp_dnn_1_elephant_10_n02504458_7634.png,n02504458_7634.png,1.0,17.866102,5.040517,9.069058
alexnet2023_baseline_pgd,1,395,NaN,bicycle,bicycle,1,0395_lp_dnn_1_bicycle_10_n02835271_17184.png,n02835271_17184.png,1.0,14.69333,3.245542,8.094809
alexnet2023_baseline_pgd,1,396,NaN,truck,oven,0,0396_lp_dnn_0_oven_10_n04111531_2189.png,n04111531_2189.png,0.0,3.2229302,4.784578,-1.1042516
alexnet2023_baseline_pgd,1,397,NaN,knife,cat,15,0397_lp_dnn_15_cat_10_n02124075_11888.png,n02124075_11888.png,0.0,0.27760047,1.8751041,-1.1296057
alexnet2023_baseline_pgd,1,398,NaN,bird,cat,10,0398_lp_dnn_10_cat_10_n02123394_1690.png,n02123394_1690.png,0.0,0.21080053,2.9581819,-1.9426919
alexnet2023_baseline_pgd,1,399,NaN,dog,dog,1,0399_lp_dnn_1_dog_10_n02111500_2905.png,n02111500_2905.png,1.0,6.4560294,3.5170536,2.0781698
alexnet2023_baseline_pgd,1,400,NaN,keyboard,knife,5,0400_lp_dnn_5_knife_10_n03041632_20433.png,n03041632_20433.png,0.0,1.4902754,3.9843235,-1.7635584
alexnet2023_baseline_pgd,1,401,NaN,airplane,clock,15,0401_lp_dnn_15_clock_10_n04548280_22641.png,n04548280_22641.png,0.0,0.5615408,1.9145094,-0.95669335
alexnet2023_baseline_pgd,1,402,NaN,airplane,bottle,15,0402_lp_dnn_15_bottle_10_n04557648_634.png,n04557648_634.png,0.0,0.52736247,2.4265795,-1.3429493
alexnet2023_baseline_pgd,1,403,NaN,truck,truck,1,0403_lp_dnn_1_truck_10_n04467665_69447.png,n04467665_69447.png,1.0,10.059913,9.637835,0.2984543
alexnet2023_baseline_pgd,1,404,NaN,elephant,elephant,3,0404_lp_dnn_3_elephant_10_n02504013_1777.png,n02504013_1777.png,1.0,3.877418,2.9317336,0.66869986
alexnet2023_baseline_pgd,1,405,NaN,truck,truck,0,0405_lp_dnn_0_truck_10_n03796401_2559.png,n03796401_2559.png,1.0,8.663817,5.3496265,2.3434868
alexnet2023_baseline_pgd,1,406,NaN,car,car,1,0406_lp_dnn_1_car_10_n02814533_42547.png,n02814533_42547.png,1.0,19.485693,11.262068,5.8149815
alexnet2023_baseline_pgd,1,407,NaN,knife,clock,15,0407_lp_dnn_15_clock_10_n04548280_7181.png,n04548280_7181.png,0.0,1.3772463,1.8225334,-0.31486553
alexnet2023_baseline_pgd,1,408,NaN,boat,boat,1,0408_lp_dnn_1_boat_10_n03344393_5030.png,n03344393_5030.png,1.0,10.789409,8.059198,1.9305502
alexnet2023_baseline_pgd,1,409,NaN,bird,bottle,15,0409_lp_dnn_15_bottle_10_n04591713_2952.png,n04591713_2952.png,0.0,0.5640775,2.3219662,-1.243015
alexnet2023_baseline_pgd,1,410,NaN,keyboard,keyboard,5,0410_lp_dnn_5_keyboard_10_n04505470_4742.png,n04505470_4742.png,1.0,2.706262,1.1577897,1.0949353
alexnet2023_baseline_pgd,1,411,NaN,bird,bear,7,0411_lp_dnn_7_bear_10_n02134418_4696.png,n02134418_4696.png,0.0,1.7131361,1.9267557,-0.15105186
alexnet2023_baseline_pgd,1,412,NaN,knife,bear,40,0412_lp_dnn_40_bear_10_n02132136_5815.png,n02132136_5815.png,0.0,-0.5178263,1.797519,-1.6371964
alexnet2023_baseline_pgd,1,413,NaN,airplane,bicycle,15,0413_lp_dnn_15_bicycle_10_n02835271_8203.png,n02835271_8203.png,0.0,-0.89663297,1.8856738,-1.9673879
alexnet2023_baseline_pgd,1,414,NaN,airplane,car,40,0414_lp_dnn_40_car_10_n04285008_12868.png,n04285008_12868.png,0.0,-0.009777407,3.203017,-2.2717886
alexnet2023_baseline_pgd,1,415,NaN,airplane,bear,40,0415_lp_dnn_40_bear_10_n02132136_7074.png,n02132136_7074.png,0.0,-0.82194424,3.3835192,-2.9737117
alexnet2023_baseline_pgd,1,416,NaN,boat,boat,3,0416_lp_dnn_3_boat_10_n03344393_8265.png,n03344393_8265.png,1.0,3.5569148,1.8393298,1.214516
alexnet2023_baseline_pgd,1,417,NaN,bird,truck,10,0417_lp_dnn_10_truck_10_n04467665_12177.png,n04467665_12177.png,0.0,-2.2239304,2.9113026,-3.631158
alexnet2023_baseline_pgd,1,418,NaN,car,car,3,0418_lp_dnn_3_car_10_n03100240_8987.png,n03100240_8987.png,1.0,6.0025563,4.7331324,0.8976183
alexnet2023_baseline_pgd,1,419,NaN,bird,bird,15,0419_lp_dnn_15_bird_10_n01530575_10601.png,n01530575_10601.png,1.0,1.9000807,1.236787,0.4690195
alexnet2023_baseline_pgd,1,420,NaN,knife,keyboard,15,0420_lp_dnn_15_keyboard_10_n04505470_313.png,n04505470_313.png,0.0,0.19319814,1.7563947,-1.1053469
alexnet2023_baseline_pgd,1,421,NaN,truck,truck,1,0421_lp_dnn_1_truck_10_n03417042_5371.png,n03417042_5371.png,1.0,5.5870447,4.316925,0.8981103
alexnet2023_baseline_pgd,1,422,NaN,truck,truck,0,0422_lp_dnn_0_truck_10_n03796401_29952.png,n03796401_29952.png,1.0,11.66708,5.4117317,4.423199
alexnet2023_baseline_pgd,1,423,NaN,keyboard,bicycle,5,0423_lp_dnn_5_bicycle_10_n03792782_6159.png,n03792782_6159.png,0.0,-1.8687441,3.1470518,-3.546703
alexnet2023_baseline_pgd,1,424,NaN,bird,elephant,7,0424_lp_dnn_7_elephant_10_n02504458_1336.png,n02504458_1336.png,0.0,1.8335586,2.8273726,-0.7027326
alexnet2023_baseline_pgd,1,425,NaN,bird,bicycle,10,0425_lp_dnn_10_bicycle_10_n02835271_8597.png,n02835271_8597.png,0.0,-2.5038953,3.0497763,-3.9270391
alexnet2023_baseline_pgd,1,426,NaN,keyboard,keyboard,3,0426_lp_dnn_3_keyboard_10_n04505470_3615.png,n04505470_3615.png,1.0,7.9648676,5.4895425,1.7503192
alexnet2023_baseline_pgd,1,427,NaN,bird,dog,7,0427_lp_dnn_7_dog_10_n02090721_7040.png,n02090721_7040.png,0.0,1.292381,2.29452,-0.7086192
alexnet2023_baseline_pgd,1,428,NaN,cat,cat,0,0428_lp_dnn_0_cat_10_n02124075_17347.png,n02124075_17347.png,1.0,10.102252,4.4364047,4.006359
alexnet2023_baseline_pgd,1,429,NaN,chair,keyboard,0,0429_lp_dnn_0_keyboard_10_n03085013_23018.png,n03085013_23018.png,0.0,2.8218977,5.456304,-1.8628066
alexnet2023_baseline_pgd,1,430,NaN,boat,car,40,0430_lp_dnn_40_car_10_n03100240_5018.png,n03100240_5018.png,0.0,-1.0713143,2.0688396,-2.2204242
alexnet2023_baseline_pgd,1,431,NaN,airplane,dog,40,0431_lp_dnn_40_dog_10_n02105056_12631.png,n02105056_12631.png,0.0,-0.61861193,1.5683064,-1.5463848
alexnet2023_baseline_pgd,1,432,NaN,knife,knife,15,0432_lp_dnn_15_knife_10_n03041632_27848.png,n03041632_27848.png,1.0,1.7746809,1.485265,0.2046479
alexnet2023_baseline_pgd,1,433,NaN,keyboard,keyboard,3,0433_lp_dnn_3_keyboard_10_n04505470_4432.png,n04505470_4432.png,1.0,7.068762,2.0597236,3.5419247
alexnet2023_baseline_pgd,1,434,NaN,bird,bear,15,0434_lp_dnn_15_bear_10_n02132136_786.png,n02132136_786.png,0.0,0.0921243,1.637943,-1.093059
alexnet2023_baseline_pgd,1,435,NaN,airplane,truck,15,0435_lp_dnn_15_truck_10_n03796401_10519.png,n03796401_10519.png,0.0,-0.42415053,2.1450443,-1.8166951
alexnet2023_baseline_pgd,1,436,NaN,knife,airplane,5,0436_lp_dnn_5_airplane_10_n02690373_9086.png,n02690373_9086.png,0.0,1.9124427,2.746639,-0.58986586
alexnet2023_baseline_pgd,1,437,NaN,bicycle,boat,0,0437_lp_dnn_0_boat_10_n02951358_512.png,n02951358_512.png,0.0,5.0048985,8.140435,-2.2171593
alexnet2023_baseline_pgd,1,438,NaN,bird,bear,10,0438_lp_dnn_10_bear_10_n02132136_10468.png,n02132136_10468.png,0.0,1.3128799,2.065897,-0.5324635
alexnet2023_baseline_pgd,1,439,NaN,bird,bear,5,0439_lp_dnn_5_bear_10_n02134084_13175.png,n02134084_13175.png,0.0,1.0531276,2.23043,-0.8324784
alexnet2023_baseline_pgd,1,440,NaN,bird,dog,10,0440_lp_dnn_10_dog_10_n02088364_2119.png,n02088364_2119.png,0.0,1.0871959,2.9705129,-1.3317063
alexnet2023_baseline_pgd,1,441,NaN,boat,boat,1,0441_lp_dnn_1_boat_10_n04612504_26238.png,n04612504_26238.png,1.0,10.778421,4.4824357,4.4519343
alexnet2023_baseline_pgd,1,442,NaN,bear,bear,3,0442_lp_dnn_3_bear_10_n02134084_20142.png,n02134084_20142.png,1.0,2.2905335,2.0676124,0.15762904
alexnet2023_baseline_pgd,1,443,NaN,dog,dog,5,0443_lp_dnn_5_dog_10_n02107683_1076.png,n02107683_1076.png,1.0,1.6325767,1.5982091,0.024301536
alexnet2023_baseline_pgd,1,444,NaN,car,car,3,0444_lp_dnn_3_car_10_n02814533_35386.png,n02814533_35386.png,1.0,5.0274315,5.0013885,0.018415138
alexnet2023_baseline_pgd,1,445,NaN,bird,bird,3,0445_lp_dnn_3_bird_10_n01531178_15380.png,n01531178_15380.png,1.0,3.145638,2.3484921,0.56366724
alexnet2023_baseline_pgd,1,446,NaN,bird,bear,7,0446_lp_dnn_7_bear_10_n02134084_17529.png,n02134084_17529.png,0.0,1.0357764,1.9328284,-0.6343116
alexnet2023_baseline_pgd,1,447,NaN,bird,bicycle,10,0447_lp_dnn_10_bicycle_10_n02835271_22623.png,n02835271_22623.png,0.0,-1.3328758,2.1546986,-2.4660876
alexnet2023_baseline_pgd,1,448,NaN,bird,chair,15,0448_lp_dnn_15_chair_10_n02791124_3160.png,n02791124_3160.png,0.0,-2.2662122,2.3948305,-3.295855
alexnet2023_baseline_pgd,1,449,NaN,bottle,bottle,0,0449_lp_dnn_0_bottle_10_n02823428_2422.png,n02823428_2422.png,1.0,10.211303,2.8298233,5.2194943
alexnet2023_baseline_pgd,1,450,NaN,bird,bear,7,0450_lp_dnn_7_bear_10_n02134084_34902.png,n02134084_34902.png,0.0,1.118372,1.6265676,-0.3593486
alexnet2023_baseline_pgd,1,451,NaN,bird,bicycle,15,0451_lp_dnn_15_bicycle_10_n02835271_3535.png,n02835271_3535.png,0.0,-1.0809212,1.9723665,-2.1590004
alexnet2023_baseline_pgd,1,452,NaN,oven,oven,1,0452_lp_dnn_1_oven_10_n04111531_10640.png,n04111531_10640.png,1.0,11.000513,3.1226447,5.5704947
alexnet2023_baseline_pgd,1,453,NaN,airplane,keyboard,40,0453_lp_dnn_40_keyboard_10_n04505470_1338.png,n04505470_1338.png,0.0,-1.2730484,2.7235258,-2.8260047
alexnet2023_baseline_pgd,1,454,NaN,keyboard,keyboard,0,0454_lp_dnn_0_keyboard_10_n03085013_26656.png,n03085013_26656.png,1.0,9.272905,6.837405,1.7221587
alexnet2023_baseline_pgd,1,455,NaN,knife,boat,5,0455_lp_dnn_5_boat_10_n03344393_9575.png,n03344393_9575.png,0.0,0.071807325,3.078502,-2.126054
alexnet2023_baseline_pgd,1,456,NaN,boat,boat,1,0456_lp_dnn_1_boat_10_n03344393_4616.png,n03344393_4616.png,1.0,11.060331,5.0297403,4.2642717
alexnet2023_baseline_pgd,1,457,NaN,bicycle,bicycle,0,0457_lp_dnn_0_bicycle_10_n02835271_11929.png,n02835271_11929.png,1.0,10.973603,4.900736,4.2941656
alexnet2023_baseline_pgd,1,458,NaN,keyboard,keyboard,3,0458_lp_dnn_3_keyboard_10_n03085013_20515.png,n03085013_20515.png,1.0,11.030375,4.2811203,4.7724433
alexnet2023_baseline_pgd,1,459,NaN,airplane,dog,40,0459_lp_dnn_40_dog_10_n02088364_3791.png,n02088364_3791.png,0.0,-0.6700027,2.7502098,-2.4184556
alexnet2023_baseline_pgd,1,460,NaN,airplane,airplane,0,0460_lp_dnn_0_airplane_10_n02690373_10114.png,n02690373_10114.png,1.0,19.943499,8.487365,8.10071
alexnet2023_baseline_pgd,1,461,NaN,bird,airplane,10,0461_lp_dnn_10_airplane_10_n02690373_8543.png,n02690373_8543.png,0.0,0.15579337,1.6062387,-1.0256199
alexnet2023_baseline_pgd,1,462,NaN,bottle,chair,7,0462_lp_dnn_7_chair_10_n04429376_14967.png,n04429376_14967.png,0.0,-1.2356157,2.1003158,-2.3588598
alexnet2023_baseline_pgd,1,463,NaN,bird,cat,15,0463_lp_dnn_15_cat_10_n02125311_24439.png,n02125311_24439.png,0.0,0.43592337,1.8454,-0.9966505
alexnet2023_baseline_pgd,1,464,NaN,knife,truck,5,0464_lp_dnn_5_truck_10_n03417042_4665.png,n03417042_4665.png,0.0,-2.0877612,2.1271896,-2.98042
alexnet2023_baseline_pgd,1,465,NaN,airplane,elephant,40,0465_lp_dnn_40_elephant_10_n02504013_4044.png,n02504013_4044.png,0.0,-0.15732025,3.1453056,-2.3353093
alexnet2023_baseline_pgd,1,466,NaN,bird,bird,1,0466_lp_dnn_1_bird_10_n01843065_3596.png,n01843065_3596.png,1.0,9.001083,1.7413411,5.133413
alexnet2023_baseline_pgd,1,467,NaN,bird,bird,10,0467_lp_dnn_10_bird_10_n02011460_17499.png,n02011460_17499.png,1.0,2.432121,2.1651063,0.18880793
alexnet2023_baseline_pgd,1,468,NaN,elephant,elephant,0,0468_lp_dnn_0_elephant_10_n02504458_7506.png,n02504458_7506.png,1.0,10.468876,3.191889,5.145607
alexnet2023_baseline_pgd,1,469,NaN,airplane,keyboard,40,0469_lp_dnn_40_keyboard_10_n03085013_21955.png,n03085013_21955.png,0.0,-0.5808834,3.2650683,-2.7194984
alexnet2023_baseline_pgd,1,470,NaN,airplane,clock,40,0470_lp_dnn_40_clock_10_n02708093_7810.png,n02708093_7810.png,0.0,0.9069508,2.032708,-0.7960306
alexnet2023_baseline_pgd,1,471,NaN,airplane,car,40,0471_lp_dnn_40_car_10_n02814533_7984.png,n02814533_7984.png,0.0,-0.5672722,2.788384,-2.3728073
alexnet2023_baseline_pgd,1,472,NaN,bird,dog,5,0472_lp_dnn_5_dog_10_n02106382_1806.png,n02106382_1806.png,0.0,0.832067,1.4224375,-0.41745502
alexnet2023_baseline_pgd,1,473,NaN,bird,chair,15,0473_lp_dnn_15_chair_10_n02791124_3890.png,n02791124_3890.png,0.0,-2.5988007,2.0807757,-3.3089602
alexnet2023_baseline_pgd,1,474,NaN,bear,elephant,7,0474_lp_dnn_7_elephant_10_n02504013_16929.png,n02504013_16929.png,0.0,1.1632078,2.257084,-0.7734872
alexnet2023_baseline_pgd,1,475,NaN,bird,elephant,7,0475_lp_dnn_7_elephant_10_n02504013_8052.png,n02504013_8052.png,0.0,0.25380826,2.6185138,-1.6720994
alexnet2023_baseline_pgd,1,476,NaN,bear,bear,1,0476_lp_dnn_1_bear_10_n02132136_1584.png,n02132136_1584.png,1.0,9.305826,7.980241,0.9373304
alexnet2023_baseline_pgd,1,477,NaN,keyboard,keyboard,1,0477_lp_dnn_1_keyboard_10_n04505470_532.png,n04505470_532.png,1.0,7.839845,2.9956715,3.425348
alexnet2023_baseline_pgd,1,478,NaN,airplane,airplane,1,0478_lp_dnn_1_airplane_10_n02690373_3988.png,n02690373_3988.png,1.0,25.77242,9.272047,11.667526
alexnet2023_baseline_pgd,1,479,NaN,bird,bicycle,15,0479_lp_dnn_15_bicycle_10_n03792782_13051.png,n03792782_13051.png,0.0,-2.1652274,1.9509226,-2.9105575
alexnet2023_baseline_pgd,1,480,NaN,bear,bear,3,0480_lp_dnn_3_bear_10_n02134084_4818.png,n02134084_4818.png,1.0,2.1867414,0.83757,0.9540083
alexnet2023_baseline_pgd,1,481,NaN,bird,boat,10,0481_lp_dnn_10_boat_10_n02951358_9146.png,n02951358_9146.png,0.0,0.47445282,2.469931,-1.4110161
alexnet2023_baseline_pgd,1,482,NaN,boat,keyboard,40,0482_lp_dnn_40_keyboard_10_n03085013_19317.png,n03085013_19317.png,0.0,-1.2294537,2.795665,-2.8461888
alexnet2023_baseline_pgd,1,483,NaN,airplane,bicycle,40,0483_lp_dnn_40_bicycle_10_n03792782_17666.png,n03792782_17666.png,0.0,0.18957931,3.439077,-2.297742
alexnet2023_baseline_pgd,1,484,NaN,boat,bear,40,0484_lp_dnn_40_bear_10_n02133161_20090.png,n02133161_20090.png,0.0,-0.5581071,2.69388,-2.2995024
alexnet2023_baseline_pgd,1,485,NaN,keyboard,bottle,3,0485_lp_dnn_3_bottle_10_n03937543_11101.png,n03937543_11101.png,0.0,-0.03744495,2.8257384,-2.0245764
alexnet2023_baseline_pgd,1,486,NaN,bear,bear,7,0486_lp_dnn_7_bear_10_n02133161_2281.png,n02133161_2281.png,1.0,1.8467178,1.7947685,0.03673376
alexnet2023_baseline_pgd,1,487,NaN,knife,airplane,10,0487_lp_dnn_10_airplane_10_n02690373_8813.png,n02690373_8813.png,0.0,-0.012321696,2.8646905,-2.034355
alexnet2023_baseline_pgd,1,488,NaN,airplane,boat,40,0488_lp_dnn_40_boat_10_n03662601_33625.png,n03662601_33625.png,0.0,1.9749784,2.0329025,-0.040958475
alexnet2023_baseline_pgd,1,489,NaN,airplane,cat,40,0489_lp_dnn_40_cat_10_n02124075_9066.png,n02124075_9066.png,0.0,-0.89712024,2.7448862,-2.5752876
alexnet2023_baseline_pgd,1,490,NaN,knife,oven,3,0490_lp_dnn_3_oven_10_n04111531_10216.png,n04111531_10216.png,0.0,2.701597,3.1516924,-0.31826553
alexnet2023_baseline_pgd,1,491,NaN,bear,bird,7,0491_lp_dnn_7_bird_10_n01614925_1097.png,n01614925_1097.png,0.0,1.9717937,2.2711222,-0.21165726
alexnet2023_baseline_pgd,1,492,NaN,bird,bird,0,0492_lp_dnn_0_bird_10_n02017213_1163.png,n02017213_1163.png,1.0,6.009302,3.8218956,1.54673
alexnet2023_baseline_pgd,1,493,NaN,airplane,oven,40,0493_lp_dnn_40_oven_10_n04111531_283.png,n04111531_283.png,0.0,-0.94146425,2.533326,-2.4570477
alexnet2023_baseline_pgd,1,494,NaN,bird,truck,15,0494_lp_dnn_15_truck_10_n04467665_39317.png,n04467665_39317.png,0.0,-1.7253191,2.218185,-2.7884786
alexnet2023_baseline_pgd,1,495,NaN,dog,dog,1,0495_lp_dnn_1_dog_10_n02093754_5037.png,n02093754_5037.png,1.0,7.4554553,6.276711,0.8334981
alexnet2023_baseline_pgd,1,496,NaN,boat,bicycle,40,0496_lp_dnn_40_bicycle_10_n02835271_2580.png,n02835271_2580.png,0.0,0.014609277,2.6896958,-1.8915719
alexnet2023_baseline_pgd,1,497,NaN,bird,airplane,7,0497_lp_dnn_7_airplane_10_n02690373_2564.png,n02690373_2564.png,0.0,0.8249538,2.2727838,-1.0237705
alexnet2023_baseline_pgd,1,498,NaN,airplane,truck,40,0498_lp_dnn_40_truck_10_n04467665_62626.png,n04467665_62626.png,0.0,-0.9624984,2.4787514,-2.4333313
alexnet2023_baseline_pgd,1,499,NaN,bird,chair,10,0499_lp_dnn_10_chair_10_n04429376_2450.png,n04429376_2450.png,0.0,-1.7223845,2.1528811,-2.7402267
alexnet2023_baseline_pgd,1,500,NaN,keyboard,keyboard,0,0500_lp_dnn_0_keyboard_10_n04505470_4044.png,n04505470_4044.png,1.0,18.85305,3.3409967,10.968678
alexnet2023_baseline_pgd,1,501,NaN,knife,oven,15,0501_lp_dnn_15_oven_10_n04111531_8269.png,n04111531_8269.png,0.0,0.6238031,2.8903508,-1.6026913
alexnet2023_baseline_pgd,1,502,NaN,knife,clock,7,0502_lp_dnn_7_clock_10_n02708093_6890.png,n02708093_6890.png,0.0,0.48521587,3.5015297,-2.132856
alexnet2023_baseline_pgd,1,503,NaN,airplane,oven,40,0503_lp_dnn_40_oven_10_n04111531_15947.png,n04111531_15947.png,0.0,-1.119178,2.3589065,-2.4593773
alexnet2023_baseline_pgd,1,504,NaN,bird,bicycle,15,0504_lp_dnn_15_bicycle_10_n03792782_24734.png,n03792782_24734.png,0.0,-1.177613,2.3577483,-2.499878
alexnet2023_baseline_pgd,1,505,NaN,airplane,chair,40,0505_lp_dnn_40_chair_10_n04099969_10401.png,n04099969_10401.png,0.0,-0.47454506,2.6293488,-2.1947844
alexnet2023_baseline_pgd,1,506,NaN,elephant,elephant,3,0506_lp_dnn_3_elephant_10_n02504458_2994.png,n02504458_2994.png,1.0,5.2696996,4.3216133,0.67039824
alexnet2023_baseline_pgd,1,507,NaN,elephant,dog,0,0507_lp_dnn_0_dog_10_n02108422_1164.png,n02108422_1164.png,0.0,3.634571,5.31913,-1.1911631
alexnet2023_baseline_pgd,1,508,NaN,knife,clock,5,0508_lp_dnn_5_clock_10_n04548280_2421.png,n04548280_2421.png,0.0,1.4703902,1.9374895,-0.3302891
alexnet2023_baseline_pgd,1,509,NaN,bird,oven,5,0509_lp_dnn_5_oven_10_n04111531_2930.png,n04111531_2930.png,0.0,-1.108054,2.5492463,-2.586102
alexnet2023_baseline_pgd,1,510,NaN,bear,bear,1,0510_lp_dnn_1_bear_10_n02132136_4271.png,n02132136_4271.png,1.0,9.068958,7.7796783,0.9116586
alexnet2023_baseline_pgd,1,511,NaN,bird,oven,7,0511_lp_dnn_7_oven_10_n04111531_8603.png,n04111531_8603.png,0.0,-0.3746139,2.030703,-1.700816
alexnet2023_baseline_pgd,1,512,NaN,knife,bicycle,40,0512_lp_dnn_40_bicycle_10_n02835271_16850.png,n02835271_16850.png,0.0,-0.69638926,1.8087763,-1.7714196
alexnet2023_baseline_pgd,1,513,NaN,knife,knife,3,0513_lp_dnn_3_knife_10_n03041632_47410.png,n03041632_47410.png,1.0,3.4731252,1.475743,1.4123625
alexnet2023_baseline_pgd,1,514,NaN,bird,elephant,15,0514_lp_dnn_15_elephant_10_n02504458_1000.png,n02504458_1000.png,0.0,0.8435817,2.4625719,-1.144799
alexnet2023_baseline_pgd,1,515,NaN,cat,cat,1,0515_lp_dnn_1_cat_10_n02124075_8884.png,n02124075_8884.png,1.0,8.996384,1.8857148,5.0280023
alexnet2023_baseline_pgd,1,516,NaN,bird,bird,7,0516_lp_dnn_7_bird_10_n01622779_1370.png,n01622779_1370.png,1.0,2.538421,1.6953974,0.59610766
alexnet2023_baseline_pgd,1,517,NaN,cat,cat,0,0517_lp_dnn_0_cat_10_n02123045_8215.png,n02123045_8215.png,1.0,13.42582,5.0864305,5.896839
alexnet2023_baseline_pgd,1,518,NaN,knife,car,5,0518_lp_dnn_5_car_10_n03100240_3083.png,n03100240_3083.png,0.0,-2.5014765,3.009012,-3.896504
alexnet2023_baseline_pgd,1,519,NaN,bird,bicycle,3,0519_lp_dnn_3_bicycle_10_n03792782_9280.png,n03792782_9280.png,0.0,-0.7672788,2.6414735,-2.410352
alexnet2023_baseline_pgd,1,520,NaN,dog,bird,5,0520_lp_dnn_5_bird_10_n01819313_3505.png,n01819313_3505.png,0.0,0.53389776,2.01208,-1.0452327
alexnet2023_baseline_pgd,1,521,NaN,bird,bird,15,0521_lp_dnn_15_bird_10_n01531178_5130.png,n01531178_5130.png,1.0,1.9919499,1.3901441,0.42554098
alexnet2023_baseline_pgd,1,522,NaN,knife,clock,15,0522_lp_dnn_15_clock_10_n02708093_2867.png,n02708093_2867.png,0.0,0.66452426,2.472932,-1.2787374
alexnet2023_baseline_pgd,1,523,NaN,keyboard,bear,7,0523_lp_dnn_7_bear_10_n02134418_258.png,n02134418_258.png,0.0,0.5155951,2.3516717,-1.2983023
alexnet2023_baseline_pgd,1,524,NaN,bottle,bottle,1,0524_lp_dnn_1_bottle_10_n02823428_8280.png,n02823428_8280.png,1.0,4.2401776,2.9540906,0.9094009
alexnet2023_baseline_pgd,1,525,NaN,bird,elephant,7,0525_lp_dnn_7_elephant_10_n02504013_24811.png,n02504013_24811.png,0.0,-0.12161359,2.4024057,-1.7847512
alexnet2023_baseline_pgd,1,526,NaN,airplane,bicycle,40,0526_lp_dnn_40_bicycle_10_n02835271_14499.png,n02835271_14499.png,0.0,1.0712867,3.5257118,-1.7355406
alexnet2023_baseline_pgd,1,527,NaN,bottle,bottle,0,0527_lp_dnn_0_bottle_10_n02823428_14536.png,n02823428_14536.png,1.0,11.312671,5.6441884,4.0082226
alexnet2023_baseline_pgd,1,528,NaN,keyboard,knife,5,0528_lp_dnn_5_knife_10_n03041632_21723.png,n03041632_21723.png,0.0,0.44644222,2.4939146,-1.4477817
alexnet2023_baseline_pgd,1,529,NaN,bird,cat,10,0529_lp_dnn_10_cat_10_n02123159_8396.png,n02123159_8396.png,0.0,0.50111014,1.7918806,-0.91271263
alexnet2023_baseline_pgd,1,530,NaN,airplane,bottle,40,0530_lp_dnn_40_bottle_10_n02823428_3486.png,n02823428_3486.png,0.0,0.36208993,3.0585208,-1.9066646
alexnet2023_baseline_pgd,1,531,NaN,bird,bird,0,0531_lp_dnn_0_bird_10_n01514859_12705.png,n01514859_12705.png,1.0,7.1486325,3.6762326,2.4553576
alexnet2023_baseline_pgd,1,532,NaN,bird,dog,7,0532_lp_dnn_7_dog_10_n02097047_911.png,n02097047_911.png,0.0,1.3846045,2.7046976,-0.9334468
alexnet2023_baseline_pgd,1,533,NaN,knife,keyboard,10,0533_lp_dnn_10_keyboard_10_n04505470_3132.png,n04505470_3132.png,0.0,1.3035085,1.5924895,-0.2043404
alexnet2023_baseline_pgd,1,534,NaN,airplane,airplane,1,0534_lp_dnn_1_airplane_10_n02690373_11908.png,n02690373_11908.png,1.0,12.762542,5.7950807,4.926739
alexnet2023_baseline_pgd,1,535,NaN,airplane,elephant,40,0535_lp_dnn_40_elephant_10_n02504458_5169.png,n02504458_5169.png,0.0,-0.07904625,3.2804928,-2.375553
alexnet2023_baseline_pgd,1,536,NaN,knife,bottle,15,0536_lp_dnn_15_bottle_10_n03937543_5375.png,n03937543_5375.png,0.0,0.8817565,1.6461712,-0.5405229
alexnet2023_baseline_pgd,1,537,NaN,bicycle,bottle,1,0537_lp_dnn_1_bottle_10_n04591713_6138.png,n04591713_6138.png,0.0,1.6823695,2.6251945,-0.666678
alexnet2023_baseline_pgd,1,538,NaN,airplane,bottle,15,0538_lp_dnn_15_bottle_10_n04557648_12559.png,n04557648_12559.png,0.0,0.46398836,3.0946293,-1.8601441
alexnet2023_baseline_pgd,1,539,NaN,airplane,clock,40,0539_lp_dnn_40_clock_10_n03196217_3903.png,n03196217_3903.png,0.0,1.6624203,2.8139675,-0.81426686
alexnet2023_baseline_pgd,1,540,NaN,bird,keyboard,15,0540_lp_dnn_15_keyboard_10_n04505470_4732.png,n04505470_4732.png,0.0,-0.37452143,2.0522416,-1.7159806
alexnet2023_baseline_pgd,1,541,NaN,boat,knife,40,0541_lp_dnn_40_knife_10_n03041632_8468.png,n03041632_8468.png,0.0,2.0773387,2.184612,-0.075853705
alexnet2023_baseline_pgd,1,542,NaN,bottle,chair,3,0542_lp_dnn_3_chair_10_n02791124_14040.png,n02791124_14040.png,0.0,3.0892828,4.298204,-0.8548364
alexnet2023_baseline_pgd,1,543,NaN,airplane,boat,15,0543_lp_dnn_15_boat_10_n04273569_3095.png,n04273569_3095.png,0.0,3.0746458,3.4022071,-0.23162088
alexnet2023_baseline_pgd,1,544,NaN,bird,bird,1,0544_lp_dnn_1_bird_10_n02002724_18548.png,n02002724_18548.png,1.0,7.163291,4.157833,2.1251798
alexnet2023_baseline_pgd,1,545,NaN,airplane,oven,10,0545_lp_dnn_10_oven_10_n04111531_8537.png,n04111531_8537.png,0.0,-0.8315841,3.3115065,-2.9296076
alexnet2023_baseline_pgd,1,546,NaN,airplane,chair,40,0546_lp_dnn_40_chair_10_n02791124_1935.png,n02791124_1935.png,0.0,-0.5991475,2.5365593,-2.2172797
alexnet2023_baseline_pgd,1,547,NaN,dog,dog,5,0547_lp_dnn_5_dog_10_n02102040_1660.png,n02102040_1660.png,1.0,1.769593,1.5547367,0.15192632
alexnet2023_baseline_pgd,1,548,NaN,bear,bear,0,0548_lp_dnn_0_bear_10_n02134084_7790.png,n02134084_7790.png,1.0,9.99108,7.8662505,1.5024816
alexnet2023_baseline_pgd,1,549,NaN,bird,knife,10,0549_lp_dnn_10_knife_10_n03041632_17091.png,n03041632_17091.png,0.0,-0.7626463,2.7036777,-2.4510612
alexnet2023_baseline_pgd,1,550,NaN,knife,keyboard,5,0550_lp_dnn_5_keyboard_10_n04505470_9331.png,n04505470_9331.png,0.0,2.8696856,4.775914,-1.3479072
alexnet2023_baseline_pgd,1,551,NaN,airplane,airplane,5,0551_lp_dnn_5_airplane_10_n02690373_6887.png,n02690373_6887.png,1.0,2.4701195,2.0970206,0.26382074
alexnet2023_baseline_pgd,1,552,NaN,oven,chair,1,0552_lp_dnn_1_chair_10_n02791124_2540.png,n02791124_2540.png,0.0,3.6574917,4.2326264,-0.4066817
alexnet2023_baseline_pgd,1,553,NaN,oven,truck,3,0553_lp_dnn_3_truck_10_n03796401_23774.png,n03796401_23774.png,0.0,1.2521433,3.543666,-1.6203511
alexnet2023_baseline_pgd,1,554,NaN,airplane,knife,40,0554_lp_dnn_40_knife_10_n03041632_28201.png,n03041632_28201.png,0.0,1.7836643,2.5039766,-0.50933766
alexnet2023_baseline_pgd,1,555,NaN,knife,clock,5,0555_lp_dnn_5_clock_10_n04548280_3563.png,n04548280_3563.png,0.0,0.5472224,2.263555,-1.2136304
alexnet2023_baseline_pgd,1,556,NaN,bicycle,bicycle,0,0556_lp_dnn_0_bicycle_10_n03792782_8287.png,n03792782_8287.png,1.0,14.016871,1.5350661,8.82597
alexnet2023_baseline_pgd,1,557,NaN,clock,clock,3,0557_lp_dnn_3_clock_10_n04548280_4225.png,n04548280_4225.png,1.0,6.151344,5.4239483,0.5143463
alexnet2023_baseline_pgd,1,558,NaN,car,car,0,0558_lp_dnn_0_car_10_n04285008_11931.png,n04285008_11931.png,1.0,15.63215,4.9158273,7.5775843
alexnet2023_baseline_pgd,1,559,NaN,dog,elephant,5,0559_lp_dnn_5_elephant_10_n02504013_9396.png,n02504013_9396.png,0.0,0.7224189,1.856912,-0.80220777
alexnet2023_baseline_pgd,1,560,NaN,boat,boat,40,0560_lp_dnn_40_boat_10_n03344393_2915.png,n03344393_2915.png,1.0,2.512485,2.424538,0.062188014
alexnet2023_baseline_pgd,1,561,NaN,bird,bicycle,7,0561_lp_dnn_7_bicycle_10_n03792782_9692.png,n03792782_9692.png,0.0,-1.8950593,2.255949,-2.9352064
alexnet2023_baseline_pgd,1,562,NaN,bird,chair,7,0562_lp_dnn_7_chair_10_n02791124_57.png,n02791124_57.png,0.0,-2.4181821,2.3290305,-3.3567863
alexnet2023_baseline_pgd,1,563,NaN,boat,car,40,0563_lp_dnn_40_car_10_n04285008_3185.png,n04285008_3185.png,0.0,-0.6243308,2.827882,-2.4410832
alexnet2023_baseline_pgd,1,564,NaN,bicycle,boat,1,0564_lp_dnn_1_boat_10_n02951358_34917.png,n02951358_34917.png,0.0,6.0446734,6.404497,-0.25443378
alexnet2023_baseline_pgd,1,565,NaN,clock,clock,0,0565_lp_dnn_0_clock_10_n02708093_2762.png,n02708093_2762.png,1.0,9.838173,4.1706142,4.0075693
alexnet2023_baseline_pgd,1,566,NaN,knife,knife,5,0566_lp_dnn_5_knife_10_n03041632_4879.png,n03041632_4879.png,1.0,4.828918,0.9604085,2.7354493
alexnet2023_baseline_pgd,1,567,NaN,car,car,0,0567_lp_dnn_0_car_10_n02814533_4689.png,n02814533_4689.png,1.0,11.251035,6.6558,3.2493217
alexnet2023_baseline_pgd,1,568,NaN,boat,boat,1,0568_lp_dnn_1_boat_10_n02951358_2445.png,n02951358_2445.png,1.0,8.347185,4.2554517,2.8932924
alexnet2023_baseline_pgd,1,569,NaN,boat,truck,40,0569_lp_dnn_40_truck_10_n03417042_10038.png,n03417042_10038.png,0.0,-0.094932675,2.5449734,-1.8666954
alexnet2023_baseline_pgd,1,570,NaN,bird,car,10,0570_lp_dnn_10_car_10_n02814533_32924.png,n02814533_32924.png,0.0,-1.8727549,2.3507326,-2.9864566
alexnet2023_baseline_pgd,1,571,NaN,bird,bottle,10,0571_lp_dnn_10_bottle_10_n02823428_5135.png,n02823428_5135.png,0.0,1.2409021,1.7988484,-0.39452764
alexnet2023_baseline_pgd,1,572,NaN,keyboard,keyboard,1,0572_lp_dnn_1_keyboard_10_n03085013_9066.png,n03085013_9066.png,1.0,9.280994,5.882936,2.4027903
alexnet2023_baseline_pgd,1,573,NaN,bird,oven,10,0573_lp_dnn_10_oven_10_n04111531_11279.png,n04111531_11279.png,0.0,0.47735327,1.8712233,-0.985615
alexnet2023_baseline_pgd,1,574,NaN,bird,car,10,0574_lp_dnn_10_car_10_n04285008_12182.png,n04285008_12182.png,0.0,-2.493919,2.5438774,-3.5622597
alexnet2023_baseline_pgd,1,575,NaN,bear,bear,0,0575_lp_dnn_0_bear_10_n02133161_5681.png,n02133161_5681.png,1.0,7.4582887,3.8636675,2.541781
alexnet2023_baseline_pgd,1,576,NaN,dog,dog,5,0576_lp_dnn_5_dog_10_n02108915_5514.png,n02108915_5514.png,1.0,1.9057845,1.4577786,0.31678802
alexnet2023_baseline_pgd,1,577,NaN,boat,airplane,15,0577_lp_dnn_15_airplane_10_n02690373_7239.png,n02690373_7239.png,0.0,2.072318,2.0838046,-0.008122204
alexnet2023_baseline_pgd,1,578,NaN,dog,dog,0,0578_lp_dnn_0_dog_10_n02094258_4979.png,n02094258_4979.png,1.0,7.930723,5.9795246,1.3797058
alexnet2023_baseline_pgd,1,579,NaN,chair,chair,3,0579_lp_dnn_3_chair_10_n04429376_15078.png,n04429376_15078.png,1.0,2.8490372,2.033878,0.5764045
alexnet2023_baseline_pgd,1,580,NaN,airplane,clock,40,0580_lp_dnn_40_clock_10_n02708093_8276.png,n02708093_8276.png,0.0,1.1297612,1.743878,-0.43424615
alexnet2023_baseline_pgd,1,581,NaN,keyboard,keyboard,3,0581_lp_dnn_3_keyboard_10_n04505470_3947.png,n04505470_3947.png,1.0,8.401294,2.5388258,4.145391
alexnet2023_baseline_pgd,1,582,NaN,knife,car,15,0582_lp_dnn_15_car_10_n03100240_2996.png,n03100240_2996.png,0.0,-1.2841079,2.5424423,-2.7057798
alexnet2023_baseline_pgd,1,583,NaN,bird,cat,10,0583_lp_dnn_10_cat_10_n02123159_3226.png,n02123159_3226.png,0.0,0.41838917,2.925766,-1.7729832
alexnet2023_baseline_pgd,1,584,NaN,bird,truck,7,0584_lp_dnn_7_truck_10_n03417042_19905.png,n03417042_19905.png,0.0,-1.0924382,2.0381024,-2.2136266
alexnet2023_baseline_pgd,1,585,NaN,bird,bird,0,0585_lp_dnn_0_bird_10_n02009229_4838.png,n02009229_4838.png,1.0,5.1148624,4.1262426,0.6990598
alexnet2023_baseline_pgd,1,586,NaN,oven,oven,1,0586_lp_dnn_1_oven_10_n04111531_14383.png,n04111531_14383.png,1.0,7.00234,5.409677,1.1261827
alexnet2023_baseline_pgd,1,587,NaN,bird,bear,5,0587_lp_dnn_5_bear_10_n02132136_1152.png,n02132136_1152.png,0.0,1.7907523,2.7458313,-0.6753428
alexnet2023_baseline_pgd,1,588,NaN,cat,cat,0,0588_lp_dnn_0_cat_10_n02123597_10952.png,n02123597_10952.png,1.0,5.9703526,1.8056504,2.9448893
alexnet2023_baseline_pgd,1,589,NaN,airplane,boat,0,0589_lp_dnn_0_boat_10_n04273569_12318.png,n04273569_12318.png,0.0,9.466909,9.725586,-0.18291193
alexnet2023_baseline_pgd,1,590,NaN,airplane,bottle,40,0590_lp_dnn_40_bottle_10_n03937543_1391.png,n03937543_1391.png,0.0,0.63533276,2.1216798,-1.0510061
alexnet2023_baseline_pgd,1,591,NaN,bird,dog,10,0591_lp_dnn_10_dog_10_n02091032_9464.png,n02091032_9464.png,0.0,1.3279703,2.1930583,-0.6117096
alexnet2023_baseline_pgd,1,592,NaN,keyboard,oven,7,0592_lp_dnn_7_oven_10_n04111531_5218.png,n04111531_5218.png,0.0,-1.1213675,3.6759515,-3.392217
alexnet2023_baseline_pgd,1,593,NaN,keyboard,airplane,5,0593_lp_dnn_5_airplane_10_n02690373_9423.png,n02690373_9423.png,0.0,-0.40087062,2.4565141,-2.020476
alexnet2023_baseline_pgd,1,594,NaN,bicycle,bird,1,0594_lp_dnn_1_bird_10_n01860187_348.png,n01860187_348.png,0.0,4.0604777,4.9826155,-0.65204984
alexnet2023_baseline_pgd,1,595,NaN,airplane,bird,40,0595_lp_dnn_40_bird_10_n02006656_8975.png,n02006656_8975.png,0.0,0.94221693,2.1598854,-0.8610217
alexnet2023_baseline_pgd,1,596,NaN,keyboard,oven,10,0596_lp_dnn_10_oven_10_n04111531_7619.png,n04111531_7619.png,0.0,0.3331359,2.4162712,-1.4729992
alexnet2023_baseline_pgd,1,597,NaN,keyboard,bicycle,3,0597_lp_dnn_3_bicycle_10_n02835271_9202.png,n02835271_9202.png,0.0,-1.7209833,4.4291935,-4.348832
alexnet2023_baseline_pgd,1,598,NaN,knife,boat,10,0598_lp_dnn_10_boat_10_n03344393_7826.png,n03344393_7826.png,0.0,0.31813794,1.9059026,-1.1227193
alexnet2023_baseline_pgd,1,599,NaN,elephant,elephant,3,0599_lp_dnn_3_elephant_10_n02504013_10330.png,n02504013_10330.png,1.0,6.4968576,3.5981379,2.0497046
alexnet2023_baseline_pgd,1,600,NaN,knife,truck,10,0600_lp_dnn_10_truck_10_n04467665_69202.png,n04467665_69202.png,0.0,-2.9692369,1.827514,-3.3918152
alexnet2023_baseline_pgd,1,601,NaN,knife,keyboard,7,0601_lp_dnn_7_keyboard_10_n04505470_1120.png,n04505470_1120.png,0.0,1.8630605,2.6272006,-0.5403287
alexnet2023_baseline_pgd,1,602,NaN,keyboard,car,5,0602_lp_dnn_5_car_10_n04285008_434.png,n04285008_434.png,0.0,-1.4079076,2.0518222,-2.4463983
alexnet2023_baseline_pgd,1,603,NaN,cat,cat,1,0603_lp_dnn_1_cat_10_n02123597_7592.png,n02123597_7592.png,1.0,3.413786,2.5598104,0.6038519
alexnet2023_baseline_pgd,1,604,NaN,bird,dog,15,0604_lp_dnn_15_dog_10_n02090721_583.png,n02090721_583.png,0.0,0.6204726,2.0781293,-1.0307189
alexnet2023_baseline_pgd,1,605,NaN,oven,knife,1,0605_lp_dnn_1_knife_10_n03041632_86783.png,n03041632_86783.png,0.0,3.6614387,3.6716983,-0.0072546527
alexnet2023_baseline_pgd,1,606,NaN,bird,dog,10,0606_lp_dnn_10_dog_10_n02112018_11708.png,n02112018_11708.png,0.0,0.69752115,2.337067,-1.159334
alexnet2023_baseline_pgd,1,607,NaN,elephant,bird,0,0607_lp_dnn_0_bird_10_n02018795_5662.png,n02018795_5662.png,0.0,1.8147974,8.267702,-4.562893
alexnet2023_baseline_pgd,1,608,NaN,bear,elephant,5,0608_lp_dnn_5_elephant_10_n02504013_1088.png,n02504013_1088.png,0.0,1.7772489,2.4719737,-0.4912446
alexnet2023_baseline_pgd,1,609,NaN,keyboard,elephant,5,0609_lp_dnn_5_elephant_10_n02504458_66.png,n02504458_66.png,0.0,1.8175906,2.8809433,-0.7519039
alexnet2023_baseline_pgd,1,610,NaN,bird,dog,10,0610_lp_dnn_10_dog_10_n02105056_9099.png,n02105056_9099.png,0.0,1.1910447,2.0151284,-0.58271515
alexnet2023_baseline_pgd,1,611,NaN,bird,boat,10,0611_lp_dnn_10_boat_10_n04273569_19699.png,n04273569_19699.png,0.0,-1.2166203,2.2438335,-2.4469106
alexnet2023_baseline_pgd,1,612,NaN,dog,dog,1,0612_lp_dnn_1_dog_10_n02097047_2376.png,n02097047_2376.png,1.0,8.134664,5.558844,1.8213794
alexnet2023_baseline_pgd,1,613,NaN,boat,boat,1,0613_lp_dnn_1_boat_10_n03662601_11901.png,n03662601_11901.png,1.0,6.370976,1.1440579,3.6959894
alexnet2023_baseline_pgd,1,614,NaN,oven,oven,1,0614_lp_dnn_1_oven_10_n04111531_7667.png,n04111531_7667.png,1.0,4.9271517,4.2346506,0.4896722
alexnet2023_baseline_pgd,1,615,NaN,bird,knife,10,0615_lp_dnn_10_knife_10_n03041632_24384.png,n03041632_24384.png,0.0,1.7134224,1.7705169,-0.040371876
alexnet2023_baseline_pgd,1,616,NaN,bird,car,7,0616_lp_dnn_7_car_10_n03100240_1216.png,n03100240_1216.png,0.0,-2.0075047,2.586908,-3.2487404
alexnet2023_baseline_pgd,1,617,NaN,bicycle,bicycle,0,0617_lp_dnn_0_bicycle_10_n03792782_3136.png,n03792782_3136.png,1.0,6.0961833,2.8292072,2.310101
alexnet2023_baseline_pgd,1,618,NaN,keyboard,keyboard,5,0618_lp_dnn_5_keyboard_10_n03085013_26573.png,n03085013_26573.png,1.0,1.4034165,1.2033492,0.14146893
alexnet2023_baseline_pgd,1,619,NaN,chair,chair,0,0619_lp_dnn_0_chair_10_n04429376_7888.png,n04429376_7888.png,1.0,4.196165,3.4293952,0.54218817
alexnet2023_baseline_pgd,1,620,NaN,knife,chair,5,0620_lp_dnn_5_chair_10_n03376595_899.png,n03376595_899.png,0.0,-0.34167963,2.7018054,-2.1520689
alexnet2023_baseline_pgd,1,621,NaN,knife,bicycle,5,0621_lp_dnn_5_bicycle_10_n02835271_24207.png,n02835271_24207.png,0.0,-1.3533324,2.7442925,-2.8974583
alexnet2023_baseline_pgd,1,622,NaN,oven,oven,3,0622_lp_dnn_3_oven_10_n04111531_7329.png,n04111531_7329.png,1.0,8.375318,5.081593,2.329015
alexnet2023_baseline_pgd,1,623,NaN,bird,oven,5,0623_lp_dnn_5_oven_10_n04111531_12942.png,n04111531_12942.png,0.0,0.3279884,1.650446,-0.9351188
alexnet2023_baseline_pgd,1,624,NaN,bird,bear,15,0624_lp_dnn_15_bear_10_n02134418_1978.png,n02134418_1978.png,0.0,1.3458006,1.944032,-0.42301342
alexnet2023_baseline_pgd,1,625,NaN,airplane,cat,40,0625_lp_dnn_40_cat_10_n02123159_5872.png,n02123159_5872.png,0.0,-0.8158662,2.69031,-2.4792411
alexnet2023_baseline_pgd,1,626,NaN,knife,keyboard,15,0626_lp_dnn_15_keyboard_10_n03085013_18797.png,n03085013_18797.png,0.0,-0.41602856,1.5822682,-1.4130092
alexnet2023_baseline_pgd,1,627,NaN,airplane,airplane,15,0627_lp_dnn_15_airplane_10_n02690373_5496.png,n02690373_5496.png,1.0,2.89541,2.8407745,0.03863315
alexnet2023_baseline_pgd,1,628,NaN,knife,oven,15,0628_lp_dnn_15_oven_10_n04111531_21963.png,n04111531_21963.png,0.0,-0.22171836,2.1327367,-1.6648511
alexnet2023_baseline_pgd,1,629,NaN,bottle,bottle,0,0629_lp_dnn_0_bottle_10_n02823428_2918.png,n02823428_2918.png,1.0,13.487916,5.708412,5.50094
alexnet2023_baseline_pgd,1,630,NaN,bear,keyboard,10,0630_lp_dnn_10_keyboard_10_n04505470_9570.png,n04505470_9570.png,0.0,-0.12332324,2.2837636,-1.7020675
alexnet2023_baseline_pgd,1,631,NaN,bird,bird,1,0631_lp_dnn_1_bird_10_n02002556_5977.png,n02002556_5977.png,1.0,6.9216647,3.121052,2.687439
alexnet2023_baseline_pgd,1,632,NaN,airplane,airplane,40,0632_lp_dnn_40_airplane_10_n02690373_5961.png,n02690373_5961.png,1.0,2.6374245,2.3100312,0.23150203
alexnet2023_baseline_pgd,1,633,NaN,clock,clock,3,0633_lp_dnn_3_clock_10_n04548280_5765.png,n04548280_5765.png,1.0,4.179978,2.9856067,0.844548
alexnet2023_baseline_pgd,1,634,NaN,bird,cat,15,0634_lp_dnn_15_cat_10_n02123597_11940.png,n02123597_11940.png,0.0,0.80391455,2.1667213,-0.9636499
alexnet2023_baseline_pgd,1,635,NaN,airplane,airplane,3,0635_lp_dnn_3_airplane_10_n02690373_3993.png,n02690373_3993.png,1.0,4.580369,2.6983395,1.3307959
alexnet2023_baseline_pgd,1,636,NaN,bird,chair,7,0636_lp_dnn_7_chair_10_n04099969_3984.png,n04099969_3984.png,0.0,-1.8773173,2.2195213,-2.8969023
alexnet2023_baseline_pgd,1,637,NaN,airplane,airplane,3,0637_lp_dnn_3_airplane_10_n02690373_939.png,n02690373_939.png,1.0,9.085927,4.221796,3.43946
alexnet2023_baseline_pgd,1,638,NaN,car,car,1,0638_lp_dnn_1_car_10_n02814533_48541.png,n02814533_48541.png,1.0,16.700136,10.3783245,4.470196
alexnet2023_baseline_pgd,1,639,NaN,knife,clock,10,0639_lp_dnn_10_clock_10_n03196217_3986.png,n03196217_3986.png,0.0,1.4093217,2.6105118,-0.8493697
alexnet2023_baseline_pgd,1,640,NaN,bird,clock,7,0640_lp_dnn_7_clock_10_n03196217_3006.png,n03196217_3006.png,0.0,-0.3047146,1.881875,-1.5461525
alexnet2023_baseline_pgd,1,641,NaN,airplane,boat,40,0641_lp_dnn_40_boat_10_n03662601_8947.png,n03662601_8947.png,0.0,2.459347,2.9650102,-0.35755786
alexnet2023_baseline_pgd,1,642,NaN,airplane,bear,40,0642_lp_dnn_40_bear_10_n02132136_14346.png,n02132136_14346.png,0.0,-0.7735433,2.5640614,-2.360043
alexnet2023_baseline_pgd,1,643,NaN,bird,elephant,10,0643_lp_dnn_10_elephant_10_n02504458_3209.png,n02504458_3209.png,0.0,1.3581477,1.8843085,-0.3720518
alexnet2023_baseline_pgd,1,644,NaN,knife,dog,3,0644_lp_dnn_3_dog_10_n02088364_4980.png,n02088364_4980.png,0.0,0.4150531,2.2596161,-1.304303
alexnet2023_baseline_pgd,1,645,NaN,elephant,elephant,0,0645_lp_dnn_0_elephant_10_n02504013_1187.png,n02504013_1187.png,1.0,12.820269,4.6018763,5.811281
alexnet2023_baseline_pgd,1,646,NaN,airplane,airplane,0,0646_lp_dnn_0_airplane_10_n02690373_20690.png,n02690373_20690.png,1.0,19.946478,4.826467,10.6914625
alexnet2023_baseline_pgd,1,647,NaN,bird,bird,10,0647_lp_dnn_10_bird_10_n01616318_2290.png,n01616318_2290.png,1.0,2.1147153,1.2257668,0.6285816
alexnet2023_baseline_pgd,1,648,NaN,bird,bird,1,0648_lp_dnn_1_bird_10_n02051845_1935.png,n02051845_1935.png,1.0,5.5552516,3.7594833,1.2698
alexnet2023_baseline_pgd,1,649,NaN,truck,truck,0,0649_lp_dnn_0_truck_10_n04467665_19131.png,n04467665_19131.png,1.0,6.1821527,6.021869,0.1133376
alexnet2023_baseline_pgd,1,650,NaN,knife,car,5,0650_lp_dnn_5_car_10_n03100240_2138.png,n03100240_2138.png,0.0,0.8510905,2.08571,-0.8730079
alexnet2023_baseline_pgd,1,651,NaN,bird,elephant,10,0651_lp_dnn_10_elephant_10_n02504458_5197.png,n02504458_5197.png,0.0,0.9032519,2.462841,-1.1027961
alexnet2023_baseline_pgd,1,652,NaN,bird,bird,5,0652_lp_dnn_5_bird_10_n01819313_5504.png,n01819313_5504.png,1.0,2.1934304,2.0873184,0.07503252
alexnet2023_baseline_pgd,1,653,NaN,keyboard,bird,3,0653_lp_dnn_3_bird_10_n01560419_1470.png,n01560419_1470.png,0.0,2.6315856,3.4124098,-0.5521261
alexnet2023_baseline_pgd,1,654,NaN,airplane,airplane,3,0654_lp_dnn_3_airplane_10_n02690373_8650.png,n02690373_8650.png,1.0,6.4784694,4.2954917,1.5435983
alexnet2023_baseline_pgd,1,655,NaN,airplane,bird,40,0655_lp_dnn_40_bird_10_n02028035_1677.png,n02028035_1677.png,0.0,0.71896404,2.874412,-1.5241319
alexnet2023_baseline_pgd,1,656,NaN,clock,clock,1,0656_lp_dnn_1_clock_10_n04548280_9700.png,n04548280_9700.png,1.0,13.993281,5.7836695,5.8050723
alexnet2023_baseline_pgd,1,657,NaN,knife,knife,5,0657_lp_dnn_5_knife_10_n03041632_5162.png,n03041632_5162.png,1.0,4.783442,2.9027274,1.329866
alexnet2023_baseline_pgd,1,658,NaN,bird,airplane,10,0658_lp_dnn_10_airplane_10_n02690373_13326.png,n02690373_13326.png,0.0,1.7765273,2.0790284,-0.21390057
alexnet2023_baseline_pgd,1,659,NaN,knife,oven,3,0659_lp_dnn_3_oven_10_n04111531_857.png,n04111531_857.png,0.0,0.96325105,1.6689237,-0.49898595
alexnet2023_baseline_pgd,1,660,NaN,airplane,bottle,40,0660_lp_dnn_40_bottle_10_n04560804_3392.png,n04560804_3392.png,0.0,0.9528349,2.1704848,-0.8610085
alexnet2023_baseline_pgd,1,661,NaN,airplane,airplane,0,0661_lp_dnn_0_airplane_10_n02690373_4269.png,n02690373_4269.png,1.0,9.490677,8.885473,0.4279436
alexnet2023_baseline_pgd,1,662,NaN,keyboard,bicycle,7,0662_lp_dnn_7_bicycle_10_n02835271_12608.png,n02835271_12608.png,0.0,-2.2142673,2.4275935,-3.2822914
alexnet2023_baseline_pgd,1,663,NaN,elephant,elephant,1,0663_lp_dnn_1_elephant_10_n02504458_4868.png,n02504458_4868.png,1.0,17.401794,10.56118,4.8370447
alexnet2023_baseline_pgd,1,664,NaN,bottle,chair,7,0664_lp_dnn_7_chair_10_n03376595_11572.png,n03376595_11572.png,0.0,-1.2962418,1.8898753,-2.2529252
alexnet2023_baseline_pgd,1,665,NaN,bird,cat,10,0665_lp_dnn_10_cat_10_n02123045_1754.png,n02123045_1754.png,0.0,0.73226976,2.2633579,-1.0826428
alexnet2023_baseline_pgd,1,666,NaN,bird,bottle,7,0666_lp_dnn_7_bottle_10_n04560804_2002.png,n04560804_2002.png,0.0,1.5322105,1.7269306,-0.13768794
alexnet2023_baseline_pgd,1,667,NaN,knife,truck,5,0667_lp_dnn_5_truck_10_n03796401_4878.png,n03796401_4878.png,0.0,-1.2947042,3.6713853,-3.5115554
alexnet2023_baseline_pgd,1,668,NaN,airplane,bird,40,0668_lp_dnn_40_bird_10_n02033041_4901.png,n02033041_4901.png,0.0,0.702273,2.5988262,-1.3410656
alexnet2023_baseline_pgd,1,669,NaN,airplane,knife,40,0669_lp_dnn_40_knife_10_n03041632_31932.png,n03041632_31932.png,0.0,1.1635269,2.9054952,-1.2317576
alexnet2023_baseline_pgd,1,670,NaN,elephant,knife,3,0670_lp_dnn_3_knife_10_n03041632_9256.png,n03041632_9256.png,0.0,1.507798,1.676206,-0.119082466
alexnet2023_baseline_pgd,1,671,NaN,dog,chair,5,0671_lp_dnn_5_chair_10_n04429376_45302.png,n04429376_45302.png,0.0,-2.018323,1.7836848,-2.6884255
alexnet2023_baseline_pgd,1,672,NaN,knife,truck,3,0672_lp_dnn_3_truck_10_n03417042_5508.png,n03417042_5508.png,0.0,5.1095886,5.243629,-0.09478085
alexnet2023_baseline_pgd,1,673,NaN,keyboard,chair,5,0673_lp_dnn_5_chair_10_n03376595_12326.png,n03376595_12326.png,0.0,-1.3549668,1.6911738,-2.1539469
alexnet2023_baseline_pgd,1,674,NaN,clock,clock,0,0674_lp_dnn_0_clock_10_n04548280_4391.png,n04548280_4391.png,1.0,7.094654,1.3702118,4.047792
alexnet2023_baseline_pgd,1,675,NaN,bird,car,10,0675_lp_dnn_10_car_10_n03100240_4421.png,n03100240_4421.png,0.0,-2.5051293,2.2018836,-3.328361
alexnet2023_baseline_pgd,1,676,NaN,elephant,dog,3,0676_lp_dnn_3_dog_10_n02111500_7233.png,n02111500_7233.png,0.0,1.7808253,2.6018755,-0.5805702
alexnet2023_baseline_pgd,1,677,NaN,bottle,bottle,1,0677_lp_dnn_1_bottle_10_n04591713_4232.png,n04591713_4232.png,1.0,9.129768,2.4423995,4.728684
