subj,session,trial,rt,object_response,category,condition,imagename,filename,is_correct,targ_act,max_nontarg_act,decision_margin
convnext_large,1,1,NaN,cat,oven,16-0-10,0001_eid_dnn_16-0-10_oven_10_n04111531_13542.png,n04111531_13542.png,0.0,-0.63342494,2.4629848,-2.1894925
convnext_large,1,2,NaN,car,car,4-0-10,0002_eid_dnn_4-0-10_car_10_n03100240_5570.png,n03100240_5570.png,1.0,6.5627656,2.6149752,2.7915094
convnext_large,1,3,NaN,dog,bird,8-0-10,0003_eid_dnn_8-0-10_bird_10_n01820546_4847.png,n01820546_4847.png,0.0,-0.5610198,1.9205911,-1.7547638
convnext_large,1,4,NaN,airplane,bear,32-0-10,0004_eid_dnn_32-0-10_bear_10_n02133161_15561.png,n02133161_15561.png,0.0,0.18667859,1.0723095,-0.6262356
convnext_large,1,5,NaN,dog,bird,64-0-10,0005_eid_dnn_64-0-10_bird_10_n01531178_9584.png,n01531178_9584.png,0.0,-0.56523275,0.6795495,-0.88019395
convnext_large,1,6,NaN,bear,bicycle,8-0-10,0006_eid_dnn_8-0-10_bicycle_10_n02835271_18846.png,n02835271_18846.png,0.0,0.33451676,2.5622168,-1.5752218
convnext_large,1,7,NaN,bottle,oven,4-0-10,0007_eid_dnn_4-0-10_oven_10_n04111531_73.png,n04111531_73.png,0.0,1.9596338,2.8606713,-0.6371297
convnext_large,1,8,NaN,clock,clock,2-0-10,0008_eid_dnn_2-0-10_clock_10_n04548280_6159.png,n04548280_6159.png,1.0,4.577555,0.8866929,2.6098337
convnext_large,1,9,NaN,clock,chair,32-0-10,0009_eid_dnn_32-0-10_chair_10_n03376595_9395.png,n03376595_9395.png,0.0,-0.32139874,0.7775197,-0.7770527
convnext_large,1,10,NaN,dog,bicycle,64-0-10,0010_eid_dnn_64-0-10_bicycle_10_n02835271_1918.png,n02835271_1918.png,0.0,-0.06366195,1.0188274,-0.7654356
convnext_large,1,11,NaN,cat,bicycle,128-0-10,0011_eid_dnn_128-0-10_bicycle_10_n02835271_42320.png,n02835271_42320.png,0.0,-0.22941542,1.3717188,-1.1321728
convnext_large,1,12,NaN,elephant,elephant,1-0-10,0012_eid_dnn_1-0-10_elephant_10_n02504458_3628.png,n02504458_3628.png,1.0,6.5823793,0.2684545,4.464619
convnext_large,1,13,NaN,clock,knife,64-0-10,0013_eid_dnn_64-0-10_knife_10_n03041632_86554.png,n03041632_86554.png,0.0,0.07798144,0.7344933,-0.46422404
convnext_large,1,14,NaN,cat,cat,8-0-10,0014_eid_dnn_8-0-10_cat_10_n02123394_1726.png,n02123394_1726.png,1.0,1.5375909,0.9580447,0.40980104
convnext_large,1,15,NaN,dog,cat,32-0-10,0015_eid_dnn_32-0-10_cat_10_n02123597_6721.png,n02123597_6721.png,0.0,0.23312156,0.59822875,-0.25816977
convnext_large,1,16,NaN,oven,oven,2-0-10,0016_eid_dnn_2-0-10_oven_10_n04111531_21869.png,n04111531_21869.png,1.0,1.4571574,0.8286638,0.44441205
convnext_large,1,17,NaN,bear,bear,4-0-10,0017_eid_dnn_4-0-10_bear_10_n02134084_2949.png,n02134084_2949.png,1.0,2.249549,0.3780519,1.3233483
convnext_large,1,18,NaN,cat,truck,8-0-10,0018_eid_dnn_8-0-10_truck_10_n03417042_18743.png,n03417042_18743.png,0.0,-0.61911356,1.3886412,-1.419697
convnext_large,1,19,NaN,elephant,bird,16-0-10,0019_eid_dnn_16-0-10_bird_10_n01616318_4246.png,n01616318_4246.png,0.0,-0.17106116,1.9052669,-1.4681857
convnext_large,1,20,NaN,elephant,bicycle,8-0-10,0020_eid_dnn_8-0-10_bicycle_10_n03792782_66771.png,n03792782_66771.png,0.0,-0.340757,1.2916172,-1.1542629
convnext_large,1,21,NaN,keyboard,keyboard,2-0-10,0021_eid_dnn_2-0-10_keyboard_10_n04505470_3531.png,n04505470_3531.png,1.0,5.0884686,0.3676772,3.3381035
convnext_large,1,22,NaN,dog,clock,8-0-10,0022_eid_dnn_8-0-10_clock_10_n04548280_6463.png,n04548280_6463.png,0.0,-0.19327456,0.983167,-0.83186984
convnext_large,1,23,NaN,dog,keyboard,16-0-10,0023_eid_dnn_16-0-10_keyboard_10_n04505470_4974.png,n04505470_4974.png,0.0,-0.37550214,0.86987275,-0.8806131
convnext_large,1,24,NaN,bottle,chair,4-0-10,0024_eid_dnn_4-0-10_chair_10_n03376595_360.png,n03376595_360.png,0.0,0.23879486,2.8879013,-1.8732013
convnext_large,1,25,NaN,cat,dog,16-0-10,0025_eid_dnn_16-0-10_dog_10_n02097130_2752.png,n02097130_2752.png,0.0,0.8271393,2.5161579,-1.1943165
convnext_large,1,26,NaN,bicycle,bicycle,2-0-10,0026_eid_dnn_2-0-10_bicycle_10_n02835271_3406.png,n02835271_3406.png,1.0,4.307905,0.2811101,2.847374
convnext_large,1,27,NaN,knife,bottle,16-0-10,0027_eid_dnn_16-0-10_bottle_10_n04560804_11732.png,n04560804_11732.png,0.0,0.53885627,0.9931855,-0.3212593
convnext_large,1,28,NaN,dog,bottle,32-0-10,0028_eid_dnn_32-0-10_bottle_10_n04591713_13589.png,n04591713_13589.png,0.0,-0.72338,1.3933585,-1.4967602
convnext_large,1,29,NaN,cat,cat,2-0-10,0029_eid_dnn_2-0-10_cat_10_n02123045_4009.png,n02123045_4009.png,1.0,4.134799,0.68565226,2.438915
convnext_large,1,30,NaN,knife,chair,8-0-10,0030_eid_dnn_8-0-10_chair_10_n02791124_1704.png,n02791124_1704.png,0.0,0.373576,0.9032361,-0.37452626
convnext_large,1,31,NaN,dog,bicycle,128-0-10,0031_eid_dnn_128-0-10_bicycle_10_n03792782_28395.png,n03792782_28395.png,0.0,-0.31374782,0.7355426,-0.7419604
convnext_large,1,32,NaN,dog,truck,16-0-10,0032_eid_dnn_16-0-10_truck_10_n03417042_4288.png,n03417042_4288.png,0.0,-0.25321627,1.1170319,-0.9689118
convnext_large,1,33,NaN,keyboard,keyboard,1-0-10,0033_eid_dnn_1-0-10_keyboard_10_n04505470_3371.png,n04505470_3371.png,1.0,6.250096,0.28266442,4.219611
convnext_large,1,34,NaN,cat,cat,1-0-10,0034_eid_dnn_1-0-10_cat_10_n02124075_13436.png,n02124075_13436.png,1.0,3.0490646,1.4702921,1.1163608
convnext_large,1,35,NaN,elephant,dog,32-0-10,0035_eid_dnn_32-0-10_dog_10_n02097209_8270.png,n02097209_8270.png,0.0,0.3925314,0.54956317,-0.11103824
convnext_large,1,36,NaN,cat,clock,128-0-10,0036_eid_dnn_128-0-10_clock_10_n04548280_7795.png,n04548280_7795.png,0.0,-0.07976033,1.6567059,-1.227867
convnext_large,1,37,NaN,cat,car,32-0-10,0037_eid_dnn_32-0-10_car_10_n03100240_21737.png,n03100240_21737.png,0.0,-0.6731891,1.5621358,-1.5806134
convnext_large,1,38,NaN,keyboard,clock,128-0-10,0038_eid_dnn_128-0-10_clock_10_n02708093_1862.png,n02708093_1862.png,0.0,0.70322657,0.9018148,-0.1404231
convnext_large,1,39,NaN,dog,bicycle,64-0-10,0039_eid_dnn_64-0-10_bicycle_10_n03792782_9412.png,n03792782_9412.png,0.0,0.5685221,1.6807945,-0.7864953
convnext_large,1,40,NaN,cat,bear,32-0-10,0040_eid_dnn_32-0-10_bear_10_n02134418_163.png,n02134418_163.png,0.0,0.60109484,0.7272968,-0.089238286
convnext_large,1,41,NaN,cat,keyboard,16-0-10,0041_eid_dnn_16-0-10_keyboard_10_n03085013_25675.png,n03085013_25675.png,0.0,-0.41655117,1.5650643,-1.4012138
convnext_large,1,42,NaN,truck,truck,2-0-10,0042_eid_dnn_2-0-10_truck_10_n03417042_1716.png,n03417042_1716.png,1.0,2.9538715,1.6362717,0.9316838
convnext_large,1,43,NaN,clock,keyboard,128-0-10,0043_eid_dnn_128-0-10_keyboard_10_n03085013_18854.png,n03085013_18854.png,0.0,-0.7819179,0.7171216,-1.059981
convnext_large,1,44,NaN,cat,bottle,32-0-10,0044_eid_dnn_32-0-10_bottle_10_n04591713_4865.png,n04591713_4865.png,0.0,-0.44061786,0.8006336,-0.87769735
convnext_large,1,45,NaN,bear,bicycle,32-0-10,0045_eid_dnn_32-0-10_bicycle_10_n03792782_693.png,n03792782_693.png,0.0,-0.16800326,1.7182827,-1.3338057
convnext_large,1,46,NaN,dog,bottle,1-0-10,0046_eid_dnn_1-0-10_bottle_10_n04557648_264.png,n04557648_264.png,0.0,-0.5288072,0.9682414,-1.0585732
convnext_large,1,47,NaN,knife,knife,2-0-10,0047_eid_dnn_2-0-10_knife_10_n03041632_25512.png,n03041632_25512.png,1.0,8.7677965,0.3695215,5.9384775
convnext_large,1,48,NaN,cat,boat,16-0-10,0048_eid_dnn_16-0-10_boat_10_n03344393_2381.png,n03344393_2381.png,0.0,-0.0760823,0.9654367,-0.7364652
convnext_large,1,49,NaN,clock,dog,128-0-10,0049_eid_dnn_128-0-10_dog_10_n02110627_17670.png,n02110627_17670.png,0.0,-0.18816052,0.7615864,-0.6715725
convnext_large,1,50,NaN,keyboard,bear,64-0-10,0050_eid_dnn_64-0-10_bear_10_n02133161_15981.png,n02133161_15981.png,0.0,-0.60610133,0.63128614,-0.8749651
convnext_large,1,51,NaN,cat,elephant,16-0-10,0051_eid_dnn_16-0-10_elephant_10_n02504458_3570.png,n02504458_3570.png,0.0,1.544977,1.8282284,-0.200289
convnext_large,1,52,NaN,bottle,truck,4-0-10,0052_eid_dnn_4-0-10_truck_10_n03417042_6241.png,n03417042_6241.png,0.0,1.7688053,2.0267265,-0.18237785
convnext_large,1,53,NaN,boat,bird,8-0-10,0053_eid_dnn_8-0-10_bird_10_n02025239_17670.png,n02025239_17670.png,0.0,-0.35545766,2.014063,-1.6755042
convnext_large,1,54,NaN,dog,dog,16-0-10,0054_eid_dnn_16-0-10_dog_10_n02106030_19249.png,n02106030_19249.png,1.0,1.4809768,0.6122426,0.61428785
convnext_large,1,55,NaN,dog,keyboard,32-0-10,0055_eid_dnn_32-0-10_keyboard_10_n04505470_2326.png,n04505470_2326.png,0.0,-0.20072848,0.7619319,-0.6807037
convnext_large,1,56,NaN,cat,dog,16-0-10,0056_eid_dnn_16-0-10_dog_10_n02107142_9379.png,n02107142_9379.png,0.0,0.83683944,2.6906517,-1.3108432
convnext_large,1,57,NaN,cat,cat,64-0-10,0057_eid_dnn_64-0-10_cat_10_n02123394_1828.png,n02123394_1828.png,1.0,0.5336086,0.4956521,0.026839303
convnext_large,1,58,NaN,cat,car,32-0-10,0058_eid_dnn_32-0-10_car_10_n03100240_4605.png,n03100240_4605.png,0.0,-0.1619759,0.9226258,-0.7669292
convnext_large,1,59,NaN,bicycle,bicycle,4-0-10,0059_eid_dnn_4-0-10_bicycle_10_n03792782_6765.png,n03792782_6765.png,1.0,2.9228747,2.8594937,0.044817105
convnext_large,1,60,NaN,elephant,boat,8-0-10,0060_eid_dnn_8-0-10_boat_10_n03344393_8455.png,n03344393_8455.png,0.0,0.81299675,1.8028473,-0.69993
convnext_large,1,61,NaN,dog,oven,16-0-10,0061_eid_dnn_16-0-10_oven_10_n04111531_8603.png,n04111531_8603.png,0.0,-0.8575313,0.34941643,-0.853441
convnext_large,1,62,NaN,airplane,bird,2-0-10,0062_eid_dnn_2-0-10_bird_10_n02051845_2574.png,n02051845_2574.png,0.0,0.28501162,0.74131197,-0.32265308
convnext_large,1,63,NaN,boat,boat,4-0-10,0063_eid_dnn_4-0-10_boat_10_n04612504_15875.png,n04612504_15875.png,1.0,2.8324547,1.3571365,1.0432075
convnext_large,1,64,NaN,bottle,bottle,4-0-10,0064_eid_dnn_4-0-10_bottle_10_n03983396_7337.png,n03983396_7337.png,1.0,3.541445,1.2170713,1.6435804
convnext_large,1,65,NaN,elephant,clock,8-0-10,0065_eid_dnn_8-0-10_clock_10_n02708093_6822.png,n02708093_6822.png,0.0,-0.3157176,1.4596701,-1.2553886
convnext_large,1,66,NaN,truck,truck,2-0-10,0066_eid_dnn_2-0-10_truck_10_n04467665_15994.png,n04467665_15994.png,1.0,2.984347,0.94884425,1.439318
convnext_large,1,67,NaN,bear,cat,128-0-10,0067_eid_dnn_128-0-10_cat_10_n02123597_6291.png,n02123597_6291.png,0.0,0.35832408,1.1371181,-0.5506906
convnext_large,1,68,NaN,bear,bird,8-0-10,0068_eid_dnn_8-0-10_bird_10_n01817953_1734.png,n01817953_1734.png,0.0,0.070896976,0.8216857,-0.5308878
convnext_large,1,69,NaN,dog,elephant,32-0-10,0069_eid_dnn_32-0-10_elephant_10_n02504458_6880.png,n02504458_6880.png,0.0,0.05589503,0.5054084,-0.31785396
convnext_large,1,70,NaN,dog,cat,16-0-10,0070_eid_dnn_16-0-10_cat_10_n02123597_13197.png,n02123597_13197.png,0.0,1.2070502,1.266866,-0.042296134
convnext_large,1,71,NaN,clock,bicycle,64-0-10,0071_eid_dnn_64-0-10_bicycle_10_n03792782_973.png,n03792782_973.png,0.0,-0.28806108,0.8366723,-0.7953067
convnext_large,1,72,NaN,cat,cat,2-0-10,0072_eid_dnn_2-0-10_cat_10_n02124075_8310.png,n02124075_8310.png,1.0,3.757387,0.32997635,2.4235454
convnext_large,1,73,NaN,dog,oven,32-0-10,0073_eid_dnn_32-0-10_oven_10_n04111531_5168.png,n04111531_5168.png,0.0,-2.0401394,1.1197331,-2.2343674
convnext_large,1,74,NaN,airplane,airplane,1-0-10,0074_eid_dnn_1-0-10_airplane_10_n02690373_4893.png,n02690373_4893.png,1.0,8.877514,0.61132,5.8450813
convnext_large,1,75,NaN,dog,dog,1-0-10,0075_eid_dnn_1-0-10_dog_10_n02086240_3614.png,n02086240_3614.png,1.0,1.0119437,0.5463258,0.32924157
convnext_large,1,76,NaN,knife,oven,16-0-10,0076_eid_dnn_16-0-10_oven_10_n04111531_2937.png,n04111531_2937.png,0.0,-0.9173701,0.6655613,-1.1193016
convnext_large,1,77,NaN,airplane,clock,1-0-10,0077_eid_dnn_1-0-10_clock_10_n03196217_2022.png,n03196217_2022.png,0.0,1.6432182,3.6163564,-1.3952194
convnext_large,1,78,NaN,dog,bottle,64-0-10,0078_eid_dnn_64-0-10_bottle_10_n04591713_2732.png,n04591713_2732.png,0.0,-0.4750083,0.99353784,-1.038419
convnext_large,1,79,NaN,car,car,2-0-10,0079_eid_dnn_2-0-10_car_10_n03100240_8794.png,n03100240_8794.png,1.0,6.0590377,0.86710966,3.6712475
convnext_large,1,80,NaN,airplane,airplane,16-0-10,0080_eid_dnn_16-0-10_airplane_10_n02690373_3640.png,n02690373_3640.png,1.0,1.0969408,0.7577575,0.2398388
convnext_large,1,81,NaN,clock,bicycle,64-0-10,0081_eid_dnn_64-0-10_bicycle_10_n03792782_41097.png,n03792782_41097.png,0.0,-0.17209946,1.0210812,-0.8437062
convnext_large,1,82,NaN,dog,dog,64-0-10,0082_eid_dnn_64-0-10_dog_10_n02090721_6770.png,n02090721_6770.png,1.0,1.0899866,0.56688505,0.36988863
convnext_large,1,83,NaN,cat,cat,16-0-10,0083_eid_dnn_16-0-10_cat_10_n02123597_28968.png,n02123597_28968.png,1.0,1.8037711,1.3244941,0.33890003
convnext_large,1,84,NaN,elephant,elephant,1-0-10,0084_eid_dnn_1-0-10_elephant_10_n02504013_5894.png,n02504013_5894.png,1.0,5.706887,0.6295599,3.5902123
convnext_large,1,85,NaN,dog,oven,32-0-10,0085_eid_dnn_32-0-10_oven_10_n04111531_9314.png,n04111531_9314.png,0.0,-2.023558,1.2815609,-2.337072
convnext_large,1,86,NaN,elephant,elephant,1-0-10,0086_eid_dnn_1-0-10_elephant_10_n02504458_12074.png,n02504458_12074.png,1.0,6.6583757,0.87786895,4.0874357
convnext_large,1,87,NaN,boat,boat,4-0-10,0087_eid_dnn_4-0-10_boat_10_n03344393_3773.png,n03344393_3773.png,1.0,2.0258877,0.7950112,0.8703611
convnext_large,1,88,NaN,dog,truck,128-0-10,0088_eid_dnn_128-0-10_truck_10_n04467665_80153.png,n04467665_80153.png,0.0,-1.23884,0.849165,-1.4764426
convnext_large,1,89,NaN,dog,chair,128-0-10,0089_eid_dnn_128-0-10_chair_10_n04099969_20604.png,n04099969_20604.png,0.0,-0.34527385,0.5202444,-0.6120139
convnext_large,1,90,NaN,clock,keyboard,32-0-10,0090_eid_dnn_32-0-10_keyboard_10_n03085013_23625.png,n03085013_23625.png,0.0,-0.5181348,0.7803934,-0.9181981
convnext_large,1,91,NaN,clock,truck,64-0-10,0091_eid_dnn_64-0-10_truck_10_n03796401_1458.png,n03796401_1458.png,0.0,-0.9387574,0.71383125,-1.1685566
convnext_large,1,92,NaN,car,car,4-0-10,0092_eid_dnn_4-0-10_car_10_n03100240_18711.png,n03100240_18711.png,1.0,4.5777736,1.090908,2.4655862
convnext_large,1,93,NaN,clock,truck,128-0-10,0093_eid_dnn_128-0-10_truck_10_n03796401_2988.png,n03796401_2988.png,0.0,-0.6773287,1.1583177,-1.2979981
convnext_large,1,94,NaN,truck,truck,2-0-10,0094_eid_dnn_2-0-10_truck_10_n03417042_7096.png,n03417042_7096.png,1.0,2.739027,0.8614902,1.327619
convnext_large,1,95,NaN,bear,dog,8-0-10,0095_eid_dnn_8-0-10_dog_10_n02105855_9345.png,n02105855_9345.png,0.0,0.81539786,1.23205,-0.2946175
convnext_large,1,96,NaN,airplane,bird,32-0-10,0096_eid_dnn_32-0-10_bird_10_n01796340_8342.png,n01796340_8342.png,0.0,-0.6755155,0.8065943,-1.0480099
convnext_large,1,97,NaN,airplane,airplane,8-0-10,0097_eid_dnn_8-0-10_airplane_10_n02690373_7293.png,n02690373_7293.png,1.0,0.38681498,0.264528,0.08646995
convnext_large,1,98,NaN,clock,car,64-0-10,0098_eid_dnn_64-0-10_car_10_n04285008_9811.png,n04285008_9811.png,0.0,-0.5602618,0.58141476,-0.8072872
convnext_large,1,99,NaN,elephant,knife,8-0-10,0099_eid_dnn_8-0-10_knife_10_n03041632_86783.png,n03041632_86783.png,0.0,-0.21719515,1.5197186,-1.2281835
convnext_large,1,100,NaN,cat,oven,16-0-10,0100_eid_dnn_16-0-10_oven_10_n04111531_9867.png,n04111531_9867.png,0.0,-1.2389746,1.0668758,-1.6304826
convnext_large,1,101,NaN,clock,truck,128-0-10,0101_eid_dnn_128-0-10_truck_10_n04467665_22573.png,n04467665_22573.png,0.0,-0.5787128,0.82850695,-0.99505466
convnext_large,1,102,NaN,dog,car,128-0-10,0102_eid_dnn_128-0-10_car_10_n02814533_23512.png,n02814533_23512.png,0.0,-1.0339351,0.5415855,-1.1140612
convnext_large,1,103,NaN,dog,bicycle,16-0-10,0103_eid_dnn_16-0-10_bicycle_10_n03792782_4895.png,n03792782_4895.png,0.0,0.23174208,0.7130097,-0.34030762
convnext_large,1,104,NaN,keyboard,keyboard,2-0-10,0104_eid_dnn_2-0-10_keyboard_10_n03085013_23554.png,n03085013_23554.png,1.0,4.3923106,1.0273328,2.3793986
convnext_large,1,105,NaN,bear,bear,1-0-10,0105_eid_dnn_1-0-10_bear_10_n02134084_8601.png,n02134084_8601.png,1.0,2.4917264,0.28766638,1.5585059
convnext_large,1,106,NaN,elephant,bicycle,8-0-10,0106_eid_dnn_8-0-10_bicycle_10_n03792782_126.png,n03792782_126.png,0.0,-0.36853552,2.7308455,-2.1915934
convnext_large,1,107,NaN,chair,chair,1-0-10,0107_eid_dnn_1-0-10_chair_10_n04099969_3583.png,n04099969_3583.png,1.0,3.6116772,0.14723551,2.4497304
convnext_large,1,108,NaN,dog,bicycle,8-0-10,0108_eid_dnn_8-0-10_bicycle_10_n02835271_976.png,n02835271_976.png,0.0,-0.34498975,0.29952687,-0.45574206
convnext_large,1,109,NaN,cat,oven,32-0-10,0109_eid_dnn_32-0-10_oven_10_n04111531_10313.png,n04111531_10313.png,0.0,-1.27351,1.0422705,-1.6375042
convnext_large,1,110,NaN,oven,oven,1-0-10,0110_eid_dnn_1-0-10_oven_10_n04111531_8984.png,n04111531_8984.png,1.0,8.616385,0.24546212,5.9191365
convnext_large,1,111,NaN,elephant,elephant,8-0-10,0111_eid_dnn_8-0-10_elephant_10_n02504013_3181.png,n02504013_3181.png,1.0,4.3702283,1.1574259,2.2717943
convnext_large,1,112,NaN,cat,keyboard,64-0-10,0112_eid_dnn_64-0-10_keyboard_10_n03085013_21490.png,n03085013_21490.png,0.0,-0.9923353,0.8935525,-1.3335241
convnext_large,1,113,NaN,airplane,bird,4-0-10,0113_eid_dnn_4-0-10_bird_10_n01614925_2708.png,n01614925_2708.png,0.0,0.13242647,1.279813,-0.81132483
convnext_large,1,114,NaN,dog,bottle,16-0-10,0114_eid_dnn_16-0-10_bottle_10_n03983396_3109.png,n03983396_3109.png,0.0,-0.3100283,1.1647204,-1.0428048
convnext_large,1,115,NaN,dog,bear,128-0-10,0115_eid_dnn_128-0-10_bear_10_n02134418_377.png,n02134418_377.png,0.0,0.48015207,1.0557387,-0.4070012
convnext_large,1,116,NaN,dog,knife,16-0-10,0116_eid_dnn_16-0-10_knife_10_n03041632_7680.png,n03041632_7680.png,0.0,-0.70126355,0.86739576,-1.1092097
convnext_large,1,117,NaN,elephant,truck,4-0-10,0117_eid_dnn_4-0-10_truck_10_n03417042_3807.png,n03417042_3807.png,0.0,2.2946591,2.7061696,-0.29098186
convnext_large,1,118,NaN,cat,elephant,128-0-10,0118_eid_dnn_128-0-10_elephant_10_n02504013_6501.png,n02504013_6501.png,0.0,-0.12261078,0.79346067,-0.64776033
convnext_large,1,119,NaN,cat,bicycle,32-0-10,0119_eid_dnn_32-0-10_bicycle_10_n03792782_5517.png,n03792782_5517.png,0.0,0.19108376,0.73266417,-0.3829552
convnext_large,1,120,NaN,clock,bottle,128-0-10,0120_eid_dnn_128-0-10_bottle_10_n02823428_5791.png,n02823428_5791.png,0.0,0.0036679676,1.7163626,-1.211058
convnext_large,1,121,NaN,clock,car,128-0-10,0121_eid_dnn_128-0-10_car_10_n04285008_10144.png,n04285008_10144.png,0.0,-1.0535074,0.9601361,-1.423861
convnext_large,1,122,NaN,cat,cat,4-0-10,0122_eid_dnn_4-0-10_cat_10_n02123159_5764.png,n02123159_5764.png,1.0,4.687159,2.7632217,1.3604292
convnext_large,1,123,NaN,dog,dog,16-0-10,0123_eid_dnn_16-0-10_dog_10_n02085936_4491.png,n02085936_4491.png,1.0,1.4385732,1.1101266,0.23224685
convnext_large,1,124,NaN,clock,bicycle,32-0-10,0124_eid_dnn_32-0-10_bicycle_10_n03792782_6159.png,n03792782_6159.png,0.0,-0.045640856,1.237886,-0.9075905
convnext_large,1,125,NaN,clock,clock,4-0-10,0125_eid_dnn_4-0-10_clock_10_n04548280_2404.png,n04548280_2404.png,1.0,5.0107117,0.39180636,3.2660592
convnext_large,1,126,NaN,cat,bottle,64-0-10,0126_eid_dnn_64-0-10_bottle_10_n04591713_360.png,n04591713_360.png,0.0,-0.36760923,1.0492803,-1.0018922
convnext_large,1,127,NaN,dog,airplane,16-0-10,0127_eid_dnn_16-0-10_airplane_10_n02690373_1909.png,n02690373_1909.png,0.0,0.038167417,0.5978914,-0.39578462
convnext_large,1,128,NaN,bear,bear,2-0-10,0128_eid_dnn_2-0-10_bear_10_n02133161_9724.png,n02133161_9724.png,1.0,3.1924348,0.9946555,1.5540646
convnext_large,1,129,NaN,car,car,2-0-10,0129_eid_dnn_2-0-10_car_10_n04285008_5897.png,n04285008_5897.png,1.0,5.8460946,0.6129951,3.70036
convnext_large,1,130,NaN,bicycle,bicycle,1-0-10,0130_eid_dnn_1-0-10_bicycle_10_n02835271_9807.png,n02835271_9807.png,1.0,6.1357613,0.7154427,3.8327441
convnext_large,1,131,NaN,keyboard,keyboard,1-0-10,0131_eid_dnn_1-0-10_keyboard_10_n03085013_23286.png,n03085013_23286.png,1.0,3.923748,2.2918916,1.1538968
convnext_large,1,132,NaN,clock,clock,2-0-10,0132_eid_dnn_2-0-10_clock_10_n02708093_772.png,n02708093_772.png,1.0,5.1455417,2.407104,1.9363679
convnext_large,1,133,NaN,clock,clock,4-0-10,0133_eid_dnn_4-0-10_clock_10_n03196217_820.png,n03196217_820.png,1.0,2.2231095,0.6433455,1.1170619
convnext_large,1,134,NaN,dog,dog,32-0-10,0134_eid_dnn_32-0-10_dog_10_n02093754_6351.png,n02093754_6351.png,1.0,1.1425346,1.114141,0.020077325
convnext_large,1,135,NaN,cat,truck,8-0-10,0135_eid_dnn_8-0-10_truck_10_n03417042_27093.png,n03417042_27093.png,0.0,-0.36859658,1.5110775,-1.3291303
convnext_large,1,136,NaN,elephant,bicycle,4-0-10,0136_eid_dnn_4-0-10_bicycle_10_n03792782_30530.png,n03792782_30530.png,0.0,4.5203266,5.2993784,-0.5508728
convnext_large,1,137,NaN,bottle,bottle,4-0-10,0137_eid_dnn_4-0-10_bottle_10_n03937543_5215.png,n03937543_5215.png,1.0,2.318445,1.0708203,0.8822039
convnext_large,1,138,NaN,boat,boat,2-0-10,0138_eid_dnn_2-0-10_boat_10_n02951358_9933.png,n02951358_9933.png,1.0,3.516203,1.3854096,1.5066985
convnext_large,1,139,NaN,boat,dog,4-0-10,0139_eid_dnn_4-0-10_dog_10_n02086910_8694.png,n02086910_8694.png,0.0,0.4753987,0.98416317,-0.35975084
convnext_large,1,140,NaN,bottle,knife,8-0-10,0140_eid_dnn_8-0-10_knife_10_n03041632_3504.png,n03041632_3504.png,0.0,0.608366,0.87068784,-0.18548955
convnext_large,1,141,NaN,clock,knife,128-0-10,0141_eid_dnn_128-0-10_knife_10_n03041632_15754.png,n03041632_15754.png,0.0,-0.21301907,1.3678905,-1.1178719
convnext_large,1,142,NaN,elephant,truck,8-0-10,0142_eid_dnn_8-0-10_truck_10_n04467665_45306.png,n04467665_45306.png,0.0,0.13291702,1.832116,-1.2015151
convnext_large,1,143,NaN,elephant,elephant,1-0-10,0143_eid_dnn_1-0-10_elephant_10_n02504013_5351.png,n02504013_5351.png,1.0,5.6822133,0.45227098,3.6981277
convnext_large,1,144,NaN,cat,bottle,2-0-10,0144_eid_dnn_2-0-10_bottle_10_n03937543_7763.png,n03937543_7763.png,0.0,1.0594176,1.2233338,-0.11590628
convnext_large,1,145,NaN,dog,bird,32-0-10,0145_eid_dnn_32-0-10_bird_10_n01843383_91.png,n01843383_91.png,0.0,-0.6640936,0.84152514,-1.0646333
convnext_large,1,146,NaN,knife,clock,4-0-10,0146_eid_dnn_4-0-10_clock_10_n04548280_28.png,n04548280_28.png,0.0,-0.12776299,2.2944915,-1.7127926
convnext_large,1,147,NaN,elephant,knife,16-0-10,0147_eid_dnn_16-0-10_knife_10_n03041632_102828.png,n03041632_102828.png,0.0,-0.3835844,1.4934529,-1.3272659
convnext_large,1,148,NaN,cat,car,128-0-10,0148_eid_dnn_128-0-10_car_10_n03100240_7520.png,n03100240_7520.png,0.0,-1.0320516,0.89608985,-1.3634019
convnext_large,1,149,NaN,dog,knife,16-0-10,0149_eid_dnn_16-0-10_knife_10_n03041632_53874.png,n03041632_53874.png,0.0,-0.028652608,1.0872917,-0.7890919
convnext_large,1,150,NaN,dog,boat,16-0-10,0150_eid_dnn_16-0-10_boat_10_n04273569_3896.png,n04273569_3896.png,0.0,-0.18673843,1.1032295,-0.91214514
convnext_large,1,151,NaN,airplane,airplane,2-0-10,0151_eid_dnn_2-0-10_airplane_10_n02690373_6002.png,n02690373_6002.png,1.0,8.823474,0.33789906,6.0002074
convnext_large,1,152,NaN,elephant,chair,8-0-10,0152_eid_dnn_8-0-10_chair_10_n04099969_7191.png,n04099969_7191.png,0.0,-0.13923563,1.1783901,-0.93170214
convnext_large,1,153,NaN,dog,dog,32-0-10,0153_eid_dnn_32-0-10_dog_10_n02101388_4808.png,n02101388_4808.png,1.0,0.58561254,0.50662893,0.055849843
convnext_large,1,154,NaN,dog,keyboard,16-0-10,0154_eid_dnn_16-0-10_keyboard_10_n03085013_24538.png,n03085013_24538.png,0.0,-0.17480293,1.1805583,-0.9583851
convnext_large,1,155,NaN,clock,knife,128-0-10,0155_eid_dnn_128-0-10_knife_10_n03041632_85488.png,n03041632_85488.png,0.0,-0.14521454,1.0374733,-0.8362866
convnext_large,1,156,NaN,car,car,4-0-10,0156_eid_dnn_4-0-10_car_10_n04285008_7630.png,n04285008_7630.png,1.0,2.4658387,0.99144316,1.0425551
convnext_large,1,157,NaN,boat,airplane,8-0-10,0157_eid_dnn_8-0-10_airplane_10_n02690373_2941.png,n02690373_2941.png,0.0,0.36679345,1.0365937,-0.4736203
convnext_large,1,158,NaN,dog,bird,64-0-10,0158_eid_dnn_64-0-10_bird_10_n01514859_6021.png,n01514859_6021.png,0.0,-0.63895404,0.5056256,-0.80934006
convnext_large,1,159,NaN,clock,clock,64-0-10,0159_eid_dnn_64-0-10_clock_10_n04548280_3293.png,n04548280_3293.png,1.0,0.91325647,0.35263348,0.39642033
convnext_large,1,160,NaN,bottle,oven,4-0-10,0160_eid_dnn_4-0-10_oven_10_n04111531_4998.png,n04111531_4998.png,0.0,-1.183436,1.601066,-1.9689403
convnext_large,1,161,NaN,airplane,bird,128-0-10,0161_eid_dnn_128-0-10_bird_10_n02028035_32993.png,n02028035_32993.png,0.0,-0.25041476,1.3081355,-1.1020615
convnext_large,1,162,NaN,bottle,bird,2-0-10,0162_eid_dnn_2-0-10_bird_10_n01843383_7800.png,n01843383_7800.png,0.0,-0.3997753,1.3449336,-1.2336955
convnext_large,1,163,NaN,dog,bear,64-0-10,0163_eid_dnn_64-0-10_bear_10_n02132136_15174.png,n02132136_15174.png,0.0,0.46445215,0.87232006,-0.28840616
convnext_large,1,164,NaN,oven,oven,4-0-10,0164_eid_dnn_4-0-10_oven_10_n04111531_7266.png,n04111531_7266.png,1.0,0.62899476,0.5808592,0.034036994
convnext_large,1,165,NaN,bear,cat,128-0-10,0165_eid_dnn_128-0-10_cat_10_n02124075_6464.png,n02124075_6464.png,0.0,1.0428535,1.2701118,-0.16069591
convnext_large,1,166,NaN,cat,bicycle,16-0-10,0166_eid_dnn_16-0-10_bicycle_10_n02835271_4667.png,n02835271_4667.png,0.0,0.059901908,1.3421029,-0.906653
convnext_large,1,167,NaN,elephant,chair,32-0-10,0167_eid_dnn_32-0-10_chair_10_n04099969_2532.png,n04099969_2532.png,0.0,-0.21608888,0.60060996,-0.5774933
convnext_large,1,168,NaN,bottle,bottle,4-0-10,0168_eid_dnn_4-0-10_bottle_10_n04560804_15683.png,n04560804_15683.png,1.0,2.4190567,0.2059048,1.5649347
convnext_large,1,169,NaN,dog,chair,8-0-10,0169_eid_dnn_8-0-10_chair_10_n04099969_6825.png,n04099969_6825.png,0.0,0.59177536,1.4688795,-0.6202063
convnext_large,1,170,NaN,oven,oven,1-0-10,0170_eid_dnn_1-0-10_oven_10_n04111531_1612.png,n04111531_1612.png,1.0,7.9009132,0.5066986,5.2284994
convnext_large,1,171,NaN,clock,clock,2-0-10,0171_eid_dnn_2-0-10_clock_10_n02708093_1701.png,n02708093_1701.png,1.0,4.234141,0.26721987,2.8050368
convnext_large,1,172,NaN,cat,elephant,32-0-10,0172_eid_dnn_32-0-10_elephant_10_n02504013_782.png,n02504013_782.png,0.0,0.0018350482,1.0526788,-0.74305874
convnext_large,1,173,NaN,cat,dog,128-0-10,0173_eid_dnn_128-0-10_dog_10_n02107908_8814.png,n02107908_8814.png,0.0,0.4660585,0.69803756,-0.16403398
convnext_large,1,174,NaN,cat,elephant,4-0-10,0174_eid_dnn_4-0-10_elephant_10_n02504458_5816.png,n02504458_5816.png,0.0,1.7971519,2.4419062,-0.45591015
convnext_large,1,175,NaN,car,car,2-0-10,0175_eid_dnn_2-0-10_car_10_n03100240_18788.png,n03100240_18788.png,1.0,6.9872737,2.3356361,3.2892046
convnext_large,1,176,NaN,airplane,airplane,16-0-10,0176_eid_dnn_16-0-10_airplane_10_n02690373_7915.png,n02690373_7915.png,1.0,0.9687822,0.91530496,0.03781411
convnext_large,1,177,NaN,chair,chair,4-0-10,0177_eid_dnn_4-0-10_chair_10_n04429376_10544.png,n04429376_10544.png,1.0,2.910459,0.30597824,1.8416461
convnext_large,1,178,NaN,clock,knife,32-0-10,0178_eid_dnn_32-0-10_knife_10_n03041632_24883.png,n03041632_24883.png,0.0,0.58881366,0.65868855,-0.049409006
convnext_large,1,179,NaN,cat,bicycle,128-0-10,0179_eid_dnn_128-0-10_bicycle_10_n03792782_10367.png,n03792782_10367.png,0.0,-0.3729419,0.73426217,-0.78291154
convnext_large,1,180,NaN,oven,oven,1-0-10,0180_eid_dnn_1-0-10_oven_10_n04111531_3121.png,n04111531_3121.png,1.0,5.550732,2.8897018,1.8816326
convnext_large,1,181,NaN,cat,car,128-0-10,0181_eid_dnn_128-0-10_car_10_n02814533_10995.png,n02814533_10995.png,0.0,-0.97391844,0.80128616,-1.2552593
convnext_large,1,182,NaN,cat,dog,128-0-10,0182_eid_dnn_128-0-10_dog_10_n02112350_502.png,n02112350_502.png,0.0,-0.050956145,0.9584127,-0.7137316
convnext_large,1,183,NaN,bicycle,clock,128-0-10,0183_eid_dnn_128-0-10_clock_10_n04548280_5278.png,n04548280_5278.png,0.0,0.0056524873,0.54176915,-0.37909174
convnext_large,1,184,NaN,elephant,bird,4-0-10,0184_eid_dnn_4-0-10_bird_10_n02006656_713.png,n02006656_713.png,0.0,0.17666942,0.70444536,-0.37319395
convnext_large,1,185,NaN,clock,bottle,128-0-10,0185_eid_dnn_128-0-10_bottle_10_n04557648_4106.png,n04557648_4106.png,0.0,-0.34797543,0.5146834,-0.60999197
convnext_large,1,186,NaN,clock,clock,64-0-10,0186_eid_dnn_64-0-10_clock_10_n02708093_1430.png,n02708093_1430.png,1.0,1.6707014,0.733429,0.6627517
convnext_large,1,187,NaN,oven,oven,1-0-10,0187_eid_dnn_1-0-10_oven_10_n04111531_7664.png,n04111531_7664.png,1.0,8.580862,2.1472886,4.549224
convnext_large,1,188,NaN,car,car,1-0-10,0188_eid_dnn_1-0-10_car_10_n02814533_149.png,n02814533_149.png,1.0,3.237072,1.6917734,1.0926911
convnext_large,1,189,NaN,dog,clock,64-0-10,0189_eid_dnn_64-0-10_clock_10_n04548280_8296.png,n04548280_8296.png,0.0,0.23907463,1.060605,-0.5809097
convnext_large,1,190,NaN,cat,bottle,64-0-10,0190_eid_dnn_64-0-10_bottle_10_n04591713_5815.png,n04591713_5815.png,0.0,-0.62407655,1.2752644,-1.3430369
convnext_large,1,191,NaN,knife,knife,2-0-10,0191_eid_dnn_2-0-10_knife_10_n03041632_90125.png,n03041632_90125.png,1.0,6.686598,0.48541415,4.384899
convnext_large,1,192,NaN,cat,bird,64-0-10,0192_eid_dnn_64-0-10_bird_10_n01534433_16586.png,n01534433_16586.png,0.0,-0.04387279,0.3799157,-0.29966372
convnext_large,1,193,NaN,cat,cat,4-0-10,0193_eid_dnn_4-0-10_cat_10_n02123394_2559.png,n02123394_2559.png,1.0,1.9005119,0.2477853,1.1686542
convnext_large,1,194,NaN,elephant,elephant,4-0-10,0194_eid_dnn_4-0-10_elephant_10_n02504458_5995.png,n02504458_5995.png,1.0,2.9083662,2.0234866,0.62570435
convnext_large,1,195,NaN,car,car,2-0-10,0195_eid_dnn_2-0-10_car_10_n02814533_211.png,n02814533_211.png,1.0,2.8992043,0.61992645,1.6116928
convnext_large,1,196,NaN,chair,chair,1-0-10,0196_eid_dnn_1-0-10_chair_10_n04429376_13328.png,n04429376_13328.png,1.0,3.9889474,0.38508722,2.548314
convnext_large,1,197,NaN,cat,keyboard,16-0-10,0197_eid_dnn_16-0-10_keyboard_10_n03085013_24618.png,n03085013_24618.png,0.0,0.103150934,0.9251016,-0.5812069
convnext_large,1,198,NaN,bottle,oven,4-0-10,0198_eid_dnn_4-0-10_oven_10_n04111531_2186.png,n04111531_2186.png,0.0,1.1010275,2.483033,-0.9772254
convnext_large,1,199,NaN,cat,oven,8-0-10,0199_eid_dnn_8-0-10_oven_10_n04111531_114.png,n04111531_114.png,0.0,-0.97455746,2.3079891,-2.321111
convnext_large,1,200,NaN,car,car,1-0-10,0200_eid_dnn_1-0-10_car_10_n03100240_1745.png,n03100240_1745.png,1.0,5.91857,0.86623263,3.5725422
convnext_large,1,201,NaN,cat,cat,4-0-10,0201_eid_dnn_4-0-10_cat_10_n02123394_1259.png,n02123394_1259.png,1.0,2.9438198,0.9238445,1.4283382
convnext_large,1,202,NaN,oven,oven,4-0-10,0202_eid_dnn_4-0-10_oven_10_n04111531_5801.png,n04111531_5801.png,1.0,2.3986568,0.5362138,1.316946
convnext_large,1,203,NaN,elephant,airplane,32-0-10,0203_eid_dnn_32-0-10_airplane_10_n02690373_2024.png,n02690373_2024.png,0.0,0.17178793,0.69583774,-0.3705592
convnext_large,1,204,NaN,cat,cat,8-0-10,0204_eid_dnn_8-0-10_cat_10_n02123045_12181.png,n02123045_12181.png,1.0,2.622219,1.7888482,0.5892822
convnext_large,1,205,NaN,cat,airplane,64-0-10,0205_eid_dnn_64-0-10_airplane_10_n02690373_3313.png,n02690373_3313.png,0.0,-0.7367715,1.0710181,-1.2783003
convnext_large,1,206,NaN,clock,truck,64-0-10,0206_eid_dnn_64-0-10_truck_10_n04467665_80465.png,n04467665_80465.png,0.0,-1.3351076,1.3084884,-1.8693047
convnext_large,1,207,NaN,elephant,elephant,2-0-10,0207_eid_dnn_2-0-10_elephant_10_n02504013_8626.png,n02504013_8626.png,1.0,5.2621274,1.4588369,2.6893325
convnext_large,1,208,NaN,dog,car,16-0-10,0208_eid_dnn_16-0-10_car_10_n04285008_7904.png,n04285008_7904.png,0.0,-0.38426837,0.9240047,-0.92508876
convnext_large,1,209,NaN,elephant,airplane,8-0-10,0209_eid_dnn_8-0-10_airplane_10_n02690373_6363.png,n02690373_6363.png,0.0,0.034514602,4.3444242,-3.0475664
convnext_large,1,210,NaN,cat,cat,4-0-10,0210_eid_dnn_4-0-10_cat_10_n02123045_7294.png,n02123045_7294.png,1.0,2.740449,0.9607134,1.2584631
convnext_large,1,211,NaN,clock,airplane,128-0-10,0211_eid_dnn_128-0-10_airplane_10_n02690373_6988.png,n02690373_6988.png,0.0,-0.62286484,1.2509886,-1.3250145
convnext_large,1,212,NaN,cat,cat,4-0-10,0212_eid_dnn_4-0-10_cat_10_n02125311_25749.png,n02125311_25749.png,1.0,2.2496326,0.8202212,1.0107465
convnext_large,1,213,NaN,dog,bird,64-0-10,0213_eid_dnn_64-0-10_bird_10_n02018207_12980.png,n02018207_12980.png,0.0,0.5339,0.7047502,-0.12080931
convnext_large,1,214,NaN,dog,cat,32-0-10,0214_eid_dnn_32-0-10_cat_10_n02123394_2814.png,n02123394_2814.png,0.0,0.9488094,1.0432178,-0.066756815
convnext_large,1,215,NaN,car,car,4-0-10,0215_eid_dnn_4-0-10_car_10_n04285008_662.png,n04285008_662.png,1.0,3.7307045,2.537213,0.8439259
convnext_large,1,216,NaN,bicycle,bicycle,2-0-10,0216_eid_dnn_2-0-10_bicycle_10_n03792782_11679.png,n03792782_11679.png,1.0,3.7635021,1.5869033,1.5390878
convnext_large,1,217,NaN,cat,dog,16-0-10,0217_eid_dnn_16-0-10_dog_10_n02093428_17769.png,n02093428_17769.png,0.0,0.9250768,2.0953515,-0.8275092
convnext_large,1,218,NaN,dog,dog,64-0-10,0218_eid_dnn_64-0-10_dog_10_n02106030_17418.png,n02106030_17418.png,1.0,0.6444846,0.456841,0.13268405
convnext_large,1,219,NaN,dog,chair,64-0-10,0219_eid_dnn_64-0-10_chair_10_n02791124_7142.png,n02791124_7142.png,0.0,-0.16703019,0.4647022,-0.44670224
convnext_large,1,220,NaN,bear,bear,1-0-10,0220_eid_dnn_1-0-10_bear_10_n02134084_18083.png,n02134084_18083.png,1.0,2.4828687,1.6858506,0.5635769
convnext_large,1,221,NaN,keyboard,keyboard,2-0-10,0221_eid_dnn_2-0-10_keyboard_10_n03085013_7536.png,n03085013_7536.png,1.0,5.9504137,1.0061157,3.4961464
convnext_large,1,222,NaN,bicycle,bird,1-0-10,0222_eid_dnn_1-0-10_bird_10_n01616318_2473.png,n01616318_2473.png,0.0,0.12715657,0.5972891,-0.3324339
convnext_large,1,223,NaN,elephant,elephant,1-0-10,0223_eid_dnn_1-0-10_elephant_10_n02504458_5951.png,n02504458_5951.png,1.0,5.795632,0.53801095,3.7176993
convnext_large,1,224,NaN,airplane,airplane,4-0-10,0224_eid_dnn_4-0-10_airplane_10_n02690373_5164.png,n02690373_5164.png,1.0,2.71254,0.55972093,1.5222728
convnext_large,1,225,NaN,elephant,elephant,4-0-10,0225_eid_dnn_4-0-10_elephant_10_n02504013_1865.png,n02504013_1865.png,1.0,6.252183,0.35558483,4.1695247
convnext_large,1,226,NaN,knife,knife,1-0-10,0226_eid_dnn_1-0-10_knife_10_n03041632_56454.png,n03041632_56454.png,1.0,8.306091,0.5621802,5.4757724
convnext_large,1,227,NaN,clock,bird,64-0-10,0227_eid_dnn_64-0-10_bird_10_n01824575_5820.png,n01824575_5820.png,0.0,0.11229299,1.2883477,-0.83159626
convnext_large,1,228,NaN,keyboard,oven,4-0-10,0228_eid_dnn_4-0-10_oven_10_n04111531_4332.png,n04111531_4332.png,0.0,0.6925689,1.5834625,-0.6299569
convnext_large,1,229,NaN,truck,truck,2-0-10,0229_eid_dnn_2-0-10_truck_10_n04467665_41352.png,n04467665_41352.png,1.0,3.2356038,0.52562666,1.9162432
convnext_large,1,230,NaN,bear,bird,8-0-10,0230_eid_dnn_8-0-10_bird_10_n01514859_5668.png,n01514859_5668.png,0.0,0.6143852,0.76077724,-0.10351481
convnext_large,1,231,NaN,cat,oven,32-0-10,0231_eid_dnn_32-0-10_oven_10_n04111531_4438.png,n04111531_4438.png,0.0,-2.559321,0.81530946,-2.386224
convnext_large,1,232,NaN,cat,cat,1-0-10,0232_eid_dnn_1-0-10_cat_10_n02123394_6693.png,n02123394_6693.png,1.0,2.4141095,0.29479197,1.4985838
convnext_large,1,233,NaN,dog,elephant,32-0-10,0233_eid_dnn_32-0-10_elephant_10_n02504458_6302.png,n02504458_6302.png,0.0,0.78365195,1.1356524,-0.24890193
convnext_large,1,234,NaN,cat,bottle,16-0-10,0234_eid_dnn_16-0-10_bottle_10_n03937543_2329.png,n03937543_2329.png,0.0,-0.5623178,1.068576,-1.153216
convnext_large,1,235,NaN,elephant,elephant,16-0-10,0235_eid_dnn_16-0-10_elephant_10_n02504458_5155.png,n02504458_5155.png,1.0,3.3680267,1.9362134,1.012445
convnext_large,1,236,NaN,bear,bear,1-0-10,0236_eid_dnn_1-0-10_bear_10_n02134084_1694.png,n02134084_1694.png,1.0,2.1337786,0.89036137,0.8792288
convnext_large,1,237,NaN,cat,bear,128-0-10,0237_eid_dnn_128-0-10_bear_10_n02133161_1624.png,n02133161_1624.png,0.0,-0.30383864,0.64980483,-0.67432773
convnext_large,1,238,NaN,cat,bear,64-0-10,0238_eid_dnn_64-0-10_bear_10_n02132136_11027.png,n02132136_11027.png,0.0,0.3870819,0.6312522,-0.17265451
convnext_large,1,239,NaN,cat,elephant,64-0-10,0239_eid_dnn_64-0-10_elephant_10_n02504013_24621.png,n02504013_24621.png,0.0,0.1429036,0.96885186,-0.5840336
convnext_large,1,240,NaN,dog,knife,16-0-10,0240_eid_dnn_16-0-10_knife_10_n03041632_27134.png,n03041632_27134.png,0.0,-0.13707861,1.4065336,-1.0914987
convnext_large,1,241,NaN,cat,keyboard,32-0-10,0241_eid_dnn_32-0-10_keyboard_10_n03085013_24316.png,n03085013_24316.png,0.0,-0.2519942,1.1981591,-1.0254133
convnext_large,1,242,NaN,cat,cat,2-0-10,0242_eid_dnn_2-0-10_cat_10_n02123159_3026.png,n02123159_3026.png,1.0,1.8477939,0.2932109,1.0992563
convnext_large,1,243,NaN,bear,bicycle,128-0-10,0243_eid_dnn_128-0-10_bicycle_10_n03792782_1475.png,n03792782_1475.png,0.0,-0.44270754,1.7330978,-1.5385268
convnext_large,1,244,NaN,cat,cat,16-0-10,0244_eid_dnn_16-0-10_cat_10_n02123045_20507.png,n02123045_20507.png,1.0,1.6793246,0.989941,0.48746786
convnext_large,1,245,NaN,cat,boat,64-0-10,0245_eid_dnn_64-0-10_boat_10_n02951358_23759.png,n02951358_23759.png,0.0,-0.6930367,0.8971675,-1.1244442
convnext_large,1,246,NaN,dog,bear,16-0-10,0246_eid_dnn_16-0-10_bear_10_n02132136_1858.png,n02132136_1858.png,0.0,0.04706853,1.0411077,-0.7028918
convnext_large,1,247,NaN,cat,boat,128-0-10,0247_eid_dnn_128-0-10_boat_10_n02951358_6465.png,n02951358_6465.png,0.0,-0.25300103,1.5513588,-1.2758752
convnext_large,1,248,NaN,clock,airplane,128-0-10,0248_eid_dnn_128-0-10_airplane_10_n02690373_6223.png,n02690373_6223.png,0.0,-1.0599223,1.3681043,-1.7168741
convnext_large,1,249,NaN,bear,boat,128-0-10,0249_eid_dnn_128-0-10_boat_10_n03344393_2412.png,n03344393_2412.png,0.0,-0.8537132,0.6451473,-1.0598545
convnext_large,1,250,NaN,cat,knife,8-0-10,0250_eid_dnn_8-0-10_knife_10_n03041632_6446.png,n03041632_6446.png,0.0,-0.6119579,1.9393622,-1.8040558
convnext_large,1,251,NaN,clock,bottle,64-0-10,0251_eid_dnn_64-0-10_bottle_10_n04591713_7940.png,n04591713_7940.png,0.0,-0.4292857,1.0453275,-1.042709
convnext_large,1,252,NaN,cat,cat,4-0-10,0252_eid_dnn_4-0-10_cat_10_n02124075_13568.png,n02124075_13568.png,1.0,4.475757,0.5672492,2.7637324
convnext_large,1,253,NaN,boat,boat,2-0-10,0253_eid_dnn_2-0-10_boat_10_n03662601_2171.png,n03662601_2171.png,1.0,3.5558867,0.7044542,2.0162673
convnext_large,1,254,NaN,elephant,elephant,1-0-10,0254_eid_dnn_1-0-10_elephant_10_n02504458_415.png,n02504458_415.png,1.0,6.881714,0.36601627,4.607294
convnext_large,1,255,NaN,cat,car,16-0-10,0255_eid_dnn_16-0-10_car_10_n03100240_3386.png,n03100240_3386.png,0.0,-0.52241594,2.6280432,-2.227711
convnext_large,1,256,NaN,knife,bird,16-0-10,0256_eid_dnn_16-0-10_bird_10_n02056570_6633.png,n02056570_6633.png,0.0,-1.4417279,0.7456874,-1.5467362
convnext_large,1,257,NaN,dog,bottle,32-0-10,0257_eid_dnn_32-0-10_bottle_10_n02823428_4232.png,n02823428_4232.png,0.0,-0.37955427,0.99099547,-0.969125
convnext_large,1,258,NaN,clock,boat,128-0-10,0258_eid_dnn_128-0-10_boat_10_n04273569_2396.png,n04273569_2396.png,0.0,-0.7668479,1.0865731,-1.3105665
convnext_large,1,259,NaN,knife,knife,1-0-10,0259_eid_dnn_1-0-10_knife_10_n03041632_38996.png,n03041632_38996.png,1.0,9.394627,0.9984414,5.9369993
convnext_large,1,260,NaN,cat,oven,8-0-10,0260_eid_dnn_8-0-10_oven_10_n04111531_10420.png,n04111531_10420.png,0.0,-0.22583431,2.9890301,-2.2732525
convnext_large,1,261,NaN,dog,dog,128-0-10,0261_eid_dnn_128-0-10_dog_10_n02094114_2394.png,n02094114_2394.png,1.0,0.8396879,0.69194436,0.10447045
convnext_large,1,262,NaN,clock,elephant,128-0-10,0262_eid_dnn_128-0-10_elephant_10_n02504013_4247.png,n02504013_4247.png,0.0,-0.4307848,1.4091114,-1.3010031
convnext_large,1,263,NaN,cat,chair,32-0-10,0263_eid_dnn_32-0-10_chair_10_n03376595_8137.png,n03376595_8137.png,0.0,-0.02661495,0.7464151,-0.54661477
convnext_large,1,264,NaN,clock,airplane,128-0-10,0264_eid_dnn_128-0-10_airplane_10_n02690373_8524.png,n02690373_8524.png,0.0,0.10053018,1.2581649,-0.8185714
convnext_large,1,265,NaN,knife,car,64-0-10,0265_eid_dnn_64-0-10_car_10_n03100240_18410.png,n03100240_18410.png,0.0,-0.49032393,0.49828327,-0.69905084
convnext_large,1,266,NaN,dog,clock,64-0-10,0266_eid_dnn_64-0-10_clock_10_n04548280_2588.png,n04548280_2588.png,0.0,0.02986165,0.6884237,-0.4656737
convnext_large,1,267,NaN,keyboard,keyboard,32-0-10,0267_eid_dnn_32-0-10_keyboard_10_n03085013_24030.png,n03085013_24030.png,1.0,2.4006314,0.2904864,1.492098
convnext_large,1,268,NaN,clock,clock,2-0-10,0268_eid_dnn_2-0-10_clock_10_n03196217_6375.png,n03196217_6375.png,1.0,4.557441,0.14815447,3.1178367
convnext_large,1,269,NaN,boat,airplane,32-0-10,0269_eid_dnn_32-0-10_airplane_10_n02690373_4150.png,n02690373_4150.png,0.0,0.9769134,1.0135896,-0.02593401
convnext_large,1,270,NaN,cat,dog,4-0-10,0270_eid_dnn_4-0-10_dog_10_n02086646_6567.png,n02086646_6567.png,0.0,0.7069189,3.5489817,-2.009642
convnext_large,1,271,NaN,clock,clock,64-0-10,0271_eid_dnn_64-0-10_clock_10_n03196217_775.png,n03196217_775.png,1.0,0.5586571,0.32007006,0.16870652
convnext_large,1,272,NaN,car,car,1-0-10,0272_eid_dnn_1-0-10_car_10_n02814533_57353.png,n02814533_57353.png,1.0,2.7248933,0.9589573,1.2487054
convnext_large,1,273,NaN,knife,bottle,16-0-10,0273_eid_dnn_16-0-10_bottle_10_n04560804_183.png,n04560804_183.png,0.0,-0.2461908,0.6037913,-0.6010281
convnext_large,1,274,NaN,car,car,2-0-10,0274_eid_dnn_2-0-10_car_10_n04285008_10631.png,n04285008_10631.png,1.0,4.7375183,0.40074435,3.0665622
convnext_large,1,275,NaN,bear,bear,2-0-10,0275_eid_dnn_2-0-10_bear_10_n02132136_10057.png,n02132136_10057.png,1.0,3.8584676,0.82880974,2.1422915
convnext_large,1,276,NaN,clock,boat,128-0-10,0276_eid_dnn_128-0-10_boat_10_n04273569_4605.png,n04273569_4605.png,0.0,-0.43690357,0.81935257,-0.8883072
convnext_large,1,277,NaN,dog,cat,64-0-10,0277_eid_dnn_64-0-10_cat_10_n02123597_12711.png,n02123597_12711.png,0.0,0.7113407,0.76964295,-0.0412259
convnext_large,1,278,NaN,oven,bottle,1-0-10,0278_eid_dnn_1-0-10_bottle_10_n04560804_5610.png,n04560804_5610.png,0.0,1.2139133,1.2465367,-0.023068234
convnext_large,1,279,NaN,cat,clock,32-0-10,0279_eid_dnn_32-0-10_clock_10_n04548280_8412.png,n04548280_8412.png,0.0,0.40122342,0.9590538,-0.39444566
convnext_large,1,280,NaN,cat,cat,2-0-10,0280_eid_dnn_2-0-10_cat_10_n02123597_13834.png,n02123597_13834.png,1.0,4.9469686,0.8894901,2.8690705
convnext_large,1,281,NaN,knife,dog,128-0-10,0281_eid_dnn_128-0-10_dog_10_n02091831_538.png,n02091831_538.png,0.0,0.68557894,0.84988534,-0.11618217
convnext_large,1,282,NaN,clock,bicycle,32-0-10,0282_eid_dnn_32-0-10_bicycle_10_n03792782_10437.png,n03792782_10437.png,0.0,-0.76087946,0.75016004,-1.0684663
convnext_large,1,283,NaN,bear,bear,2-0-10,0283_eid_dnn_2-0-10_bear_10_n02132136_2372.png,n02132136_2372.png,1.0,4.7238164,0.69712174,2.8473032
convnext_large,1,284,NaN,clock,bicycle,128-0-10,0284_eid_dnn_128-0-10_bicycle_10_n03792782_4540.png,n03792782_4540.png,0.0,-0.044268396,0.81257963,-0.60588306
convnext_large,1,285,NaN,elephant,elephant,2-0-10,0285_eid_dnn_2-0-10_elephant_10_n02504013_10152.png,n02504013_10152.png,1.0,7.5189085,0.8028045,4.749003
convnext_large,1,286,NaN,cat,boat,64-0-10,0286_eid_dnn_64-0-10_boat_10_n02951358_7603.png,n02951358_7603.png,0.0,-0.37981915,0.6162304,-0.7043134
convnext_large,1,287,NaN,bear,bear,2-0-10,0287_eid_dnn_2-0-10_bear_10_n02133161_9371.png,n02133161_9371.png,1.0,4.6936636,0.3750068,3.0537517
convnext_large,1,288,NaN,elephant,truck,8-0-10,0288_eid_dnn_8-0-10_truck_10_n04467665_69892.png,n04467665_69892.png,0.0,0.41542432,1.9228654,-1.0659218
convnext_large,1,289,NaN,knife,knife,1-0-10,0289_eid_dnn_1-0-10_knife_10_n03041632_19275.png,n03041632_19275.png,1.0,4.3075633,1.2789543,2.14155
convnext_large,1,290,NaN,elephant,keyboard,16-0-10,0290_eid_dnn_16-0-10_keyboard_10_n04505470_9446.png,n04505470_9446.png,0.0,-0.039727405,1.240878,-0.9055248
convnext_large,1,291,NaN,elephant,elephant,1-0-10,0291_eid_dnn_1-0-10_elephant_10_n02504013_9141.png,n02504013_9141.png,1.0,5.8528748,0.27366439,3.9450974
convnext_large,1,292,NaN,clock,bird,128-0-10,0292_eid_dnn_128-0-10_bird_10_n02056570_8553.png,n02056570_8553.png,0.0,-0.22658429,0.55548316,-0.55300516
convnext_large,1,293,NaN,car,car,1-0-10,0293_eid_dnn_1-0-10_car_10_n03100240_9171.png,n03100240_9171.png,1.0,5.3472466,0.2967747,3.571223
convnext_large,1,294,NaN,dog,dog,8-0-10,0294_eid_dnn_8-0-10_dog_10_n02102177_1533.png,n02102177_1533.png,1.0,1.5337602,0.37687612,0.8180406
convnext_large,1,295,NaN,cat,cat,64-0-10,0295_eid_dnn_64-0-10_cat_10_n02124075_12464.png,n02124075_12464.png,1.0,0.9124181,0.72461224,0.13279882
convnext_large,1,296,NaN,chair,chair,4-0-10,0296_eid_dnn_4-0-10_chair_10_n04429376_33792.png,n04429376_33792.png,1.0,2.6089664,1.2864356,0.9351705
convnext_large,1,297,NaN,cat,bear,128-0-10,0297_eid_dnn_128-0-10_bear_10_n02133161_3258.png,n02133161_3258.png,0.0,0.24576256,1.6725811,-1.008913
convnext_large,1,298,NaN,dog,dog,4-0-10,0298_eid_dnn_4-0-10_dog_10_n02097130_1442.png,n02097130_1442.png,1.0,0.6289195,0.47029728,0.112162836
convnext_large,1,299,NaN,chair,chair,4-0-10,0299_eid_dnn_4-0-10_chair_10_n02791124_8970.png,n02791124_8970.png,1.0,3.0758097,0.9222283,1.522812
convnext_large,1,300,NaN,elephant,car,8-0-10,0300_eid_dnn_8-0-10_car_10_n04285008_8545.png,n04285008_8545.png,0.0,0.3873546,4.5707207,-2.9580865
convnext_large,1,301,NaN,truck,truck,1-0-10,0301_eid_dnn_1-0-10_truck_10_n03417042_2204.png,n03417042_2204.png,1.0,3.6884508,0.44823638,2.2911775
convnext_large,1,302,NaN,bear,bear,2-0-10,0302_eid_dnn_2-0-10_bear_10_n02133161_15593.png,n02133161_15593.png,1.0,3.7536144,0.9448107,1.9861243
convnext_large,1,303,NaN,clock,clock,2-0-10,0303_eid_dnn_2-0-10_clock_10_n04548280_5845.png,n04548280_5845.png,1.0,5.091876,0.24667928,3.4260714
convnext_large,1,304,NaN,dog,knife,4-0-10,0304_eid_dnn_4-0-10_knife_10_n03041632_4975.png,n03041632_4975.png,0.0,0.7620363,1.6389431,-0.6200667
convnext_large,1,305,NaN,clock,clock,32-0-10,0305_eid_dnn_32-0-10_clock_10_n03196217_4849.png,n03196217_4849.png,1.0,0.82640153,0.6277925,0.14043781
convnext_large,1,306,NaN,bicycle,bicycle,2-0-10,0306_eid_dnn_2-0-10_bicycle_10_n03792782_15752.png,n03792782_15752.png,1.0,5.718147,1.2296627,3.173838
convnext_large,1,307,NaN,cat,bicycle,16-0-10,0307_eid_dnn_16-0-10_bicycle_10_n02835271_29741.png,n02835271_29741.png,0.0,0.20402563,1.1111366,-0.6414243
convnext_large,1,308,NaN,bottle,chair,4-0-10,0308_eid_dnn_4-0-10_chair_10_n04099969_16619.png,n04099969_16619.png,0.0,0.23364897,2.1998367,-1.3903047
convnext_large,1,309,NaN,keyboard,keyboard,4-0-10,0309_eid_dnn_4-0-10_keyboard_10_n04505470_4552.png,n04505470_4552.png,1.0,6.5734134,0.35362318,4.3980556
convnext_large,1,310,NaN,elephant,boat,8-0-10,0310_eid_dnn_8-0-10_boat_10_n02951358_13144.png,n02951358_13144.png,0.0,0.07577554,2.4700134,-1.6929818
convnext_large,1,311,NaN,cat,bird,32-0-10,0311_eid_dnn_32-0-10_bird_10_n01797886_14611.png,n01797886_14611.png,0.0,-0.70858926,1.0318252,-1.2306589
convnext_large,1,312,NaN,knife,knife,1-0-10,0312_eid_dnn_1-0-10_knife_10_n03041632_3326.png,n03041632_3326.png,1.0,7.684819,0.42714012,5.131954
convnext_large,1,313,NaN,bear,elephant,8-0-10,0313_eid_dnn_8-0-10_elephant_10_n02504013_5829.png,n02504013_5829.png,0.0,2.275064,2.384873,-0.077646635
convnext_large,1,314,NaN,cat,dog,16-0-10,0314_eid_dnn_16-0-10_dog_10_n02088094_2292.png,n02088094_2292.png,0.0,0.53928125,0.63684094,-0.06898512
convnext_large,1,315,NaN,cat,oven,8-0-10,0315_eid_dnn_8-0-10_oven_10_n04111531_4944.png,n04111531_4944.png,0.0,-0.9820769,1.7563076,-1.9363303
convnext_large,1,316,NaN,clock,oven,32-0-10,0316_eid_dnn_32-0-10_oven_10_n04111531_669.png,n04111531_669.png,0.0,-2.5927162,1.4168711,-2.8352065
convnext_large,1,317,NaN,cat,car,64-0-10,0317_eid_dnn_64-0-10_car_10_n02814533_6716.png,n02814533_6716.png,0.0,-0.3812007,0.6375963,-0.7203983
convnext_large,1,318,NaN,dog,bear,32-0-10,0318_eid_dnn_32-0-10_bear_10_n02132136_26438.png,n02132136_26438.png,0.0,0.6985736,1.1758107,-0.3374576
convnext_large,1,319,NaN,bottle,bottle,4-0-10,0319_eid_dnn_4-0-10_bottle_10_n03983396_3027.png,n03983396_3027.png,1.0,1.0085715,0.9820229,0.018772712
convnext_large,1,320,NaN,elephant,elephant,2-0-10,0320_eid_dnn_2-0-10_elephant_10_n02504013_9299.png,n02504013_9299.png,1.0,6.3439283,0.33844268,4.2465196
convnext_large,1,321,NaN,knife,knife,2-0-10,0321_eid_dnn_2-0-10_knife_10_n03041632_13846.png,n03041632_13846.png,1.0,7.146414,0.29078382,4.8476624
convnext_large,1,322,NaN,clock,airplane,64-0-10,0322_eid_dnn_64-0-10_airplane_10_n02690373_16250.png,n02690373_16250.png,0.0,-1.2376705,1.6646576,-2.0522559
convnext_large,1,323,NaN,cat,boat,64-0-10,0323_eid_dnn_64-0-10_boat_10_n03662601_13696.png,n03662601_13696.png,0.0,-1.3775713,0.65417415,-1.436661
convnext_large,1,324,NaN,cat,cat,1-0-10,0324_eid_dnn_1-0-10_cat_10_n02123597_5692.png,n02123597_5692.png,1.0,3.9865077,0.71415174,2.3139052
convnext_large,1,325,NaN,bear,clock,8-0-10,0325_eid_dnn_8-0-10_clock_10_n02708093_3171.png,n02708093_3171.png,0.0,-0.23115231,1.6694242,-1.3439106
convnext_large,1,326,NaN,cat,keyboard,128-0-10,0326_eid_dnn_128-0-10_keyboard_10_n04505470_4902.png,n04505470_4902.png,0.0,-0.607331,1.0629522,-1.1810685
convnext_large,1,327,NaN,dog,dog,2-0-10,0327_eid_dnn_2-0-10_dog_10_n02113624_1170.png,n02113624_1170.png,1.0,1.2252192,1.1381737,0.0615505
convnext_large,1,328,NaN,clock,clock,2-0-10,0328_eid_dnn_2-0-10_clock_10_n03196217_1272.png,n03196217_1272.png,1.0,5.034529,0.60283387,3.133682
convnext_large,1,329,NaN,clock,cat,128-0-10,0329_eid_dnn_128-0-10_cat_10_n02123394_8946.png,n02123394_8946.png,0.0,0.6318007,0.6651725,-0.02359743
convnext_large,1,330,NaN,dog,car,8-0-10,0330_eid_dnn_8-0-10_car_10_n03100240_7134.png,n03100240_7134.png,0.0,-0.36394203,1.0196222,-0.9783277
convnext_large,1,331,NaN,bottle,bicycle,4-0-10,0331_eid_dnn_4-0-10_bicycle_10_n03792782_16034.png,n03792782_16034.png,0.0,0.10640681,0.89886063,-0.56034946
convnext_large,1,332,NaN,elephant,dog,8-0-10,0332_eid_dnn_8-0-10_dog_10_n02104029_5465.png,n02104029_5465.png,0.0,1.1211975,1.6316117,-0.3609174
convnext_large,1,333,NaN,keyboard,keyboard,4-0-10,0333_eid_dnn_4-0-10_keyboard_10_n04505470_5011.png,n04505470_5011.png,1.0,5.2697945,1.0665523,2.9721413
convnext_large,1,334,NaN,boat,bird,8-0-10,0334_eid_dnn_8-0-10_bird_10_n02009912_27132.png,n02009912_27132.png,0.0,-0.121055625,2.6688948,-1.9727929
convnext_large,1,335,NaN,dog,knife,64-0-10,0335_eid_dnn_64-0-10_knife_10_n03041632_3171.png,n03041632_3171.png,0.0,-0.22744419,0.5035294,-0.5168764
convnext_large,1,336,NaN,dog,bear,32-0-10,0336_eid_dnn_32-0-10_bear_10_n02134084_21170.png,n02134084_21170.png,0.0,0.27920565,0.7613922,-0.34095737
convnext_large,1,337,NaN,dog,dog,4-0-10,0337_eid_dnn_4-0-10_dog_10_n02086079_29044.png,n02086079_29044.png,1.0,0.4563068,0.3120282,0.10202037
convnext_large,1,338,NaN,cat,cat,4-0-10,0338_eid_dnn_4-0-10_cat_10_n02124075_8465.png,n02124075_8465.png,1.0,3.698906,1.011816,1.9000596
convnext_large,1,339,NaN,clock,bird,128-0-10,0339_eid_dnn_128-0-10_bird_10_n01855032_982.png,n01855032_982.png,0.0,-1.0298074,1.9166914,-2.0834894
convnext_large,1,340,NaN,dog,truck,32-0-10,0340_eid_dnn_32-0-10_truck_10_n03417042_6373.png,n03417042_6373.png,0.0,-0.6105618,1.3018917,-1.3523088
convnext_large,1,341,NaN,dog,airplane,16-0-10,0341_eid_dnn_16-0-10_airplane_10_n02690373_9959.png,n02690373_9959.png,0.0,-0.6954582,0.9175799,-1.1405902
convnext_large,1,342,NaN,dog,clock,32-0-10,0342_eid_dnn_32-0-10_clock_10_n04548280_2260.png,n04548280_2260.png,0.0,0.57379514,0.6427782,-0.048778404
convnext_large,1,343,NaN,knife,bottle,16-0-10,0343_eid_dnn_16-0-10_bottle_10_n03983396_5281.png,n03983396_5281.png,0.0,-0.23624107,0.4580562,-0.49094236
convnext_large,1,344,NaN,cat,cat,4-0-10,0344_eid_dnn_4-0-10_cat_10_n02123159_1113.png,n02123159_1113.png,1.0,4.8981166,1.6731656,2.2803848
convnext_large,1,345,NaN,clock,keyboard,64-0-10,0345_eid_dnn_64-0-10_keyboard_10_n03085013_20460.png,n03085013_20460.png,0.0,-0.48328897,0.86911565,-0.9562945
convnext_large,1,346,NaN,bear,clock,8-0-10,0346_eid_dnn_8-0-10_clock_10_n03196217_884.png,n03196217_884.png,0.0,-0.85059124,1.0151882,-1.3193053
convnext_large,1,347,NaN,dog,clock,8-0-10,0347_eid_dnn_8-0-10_clock_10_n03196217_6257.png,n03196217_6257.png,0.0,-0.8718395,0.8356172,-1.2073542
convnext_large,1,348,NaN,dog,dog,32-0-10,0348_eid_dnn_32-0-10_dog_10_n02113624_2109.png,n02113624_2109.png,1.0,0.89410347,0.60439366,0.20485577
convnext_large,1,349,NaN,keyboard,keyboard,1-0-10,0349_eid_dnn_1-0-10_keyboard_10_n03085013_20416.png,n03085013_20416.png,1.0,5.547142,0.4399874,3.6113038
convnext_large,1,350,NaN,bird,bird,2-0-10,0350_eid_dnn_2-0-10_bird_10_n01820546_4609.png,n01820546_4609.png,1.0,2.148659,1.0454484,0.7800877
convnext_large,1,351,NaN,cat,cat,64-0-10,0351_eid_dnn_64-0-10_cat_10_n02125311_47792.png,n02125311_47792.png,1.0,1.3826097,0.7662576,0.43582678
convnext_large,1,352,NaN,airplane,boat,16-0-10,0352_eid_dnn_16-0-10_boat_10_n04612504_1491.png,n04612504_1491.png,0.0,0.65592474,1.0388737,-0.27078578
convnext_large,1,353,NaN,elephant,truck,16-0-10,0353_eid_dnn_16-0-10_truck_10_n03417042_910.png,n03417042_910.png,0.0,-0.5208324,2.6801302,-2.2634223
convnext_large,1,354,NaN,clock,airplane,64-0-10,0354_eid_dnn_64-0-10_airplane_10_n02690373_2038.png,n02690373_2038.png,0.0,0.57810646,0.6546261,-0.054107536
convnext_large,1,355,NaN,cat,cat,2-0-10,0355_eid_dnn_2-0-10_cat_10_n02123394_8164.png,n02123394_8164.png,1.0,2.06368,0.4280618,1.1565566
convnext_large,1,356,NaN,oven,oven,2-0-10,0356_eid_dnn_2-0-10_oven_10_n04111531_22097.png,n04111531_22097.png,1.0,8.098204,0.70099604,5.2306156
convnext_large,1,357,NaN,dog,bear,128-0-10,0357_eid_dnn_128-0-10_bear_10_n02134418_278.png,n02134418_278.png,0.0,0.2513265,0.75601923,-0.35687166
convnext_large,1,358,NaN,airplane,bird,4-0-10,0358_eid_dnn_4-0-10_bird_10_n01592084_9109.png,n01592084_9109.png,0.0,0.9144864,0.94144243,-0.019060787
convnext_large,1,359,NaN,dog,clock,32-0-10,0359_eid_dnn_32-0-10_clock_10_n03196217_3695.png,n03196217_3695.png,0.0,0.45426324,0.8433753,-0.2751438
convnext_large,1,360,NaN,cat,elephant,128-0-10,0360_eid_dnn_128-0-10_elephant_10_n02504458_8939.png,n02504458_8939.png,0.0,-0.5025903,1.2893914,-1.2671224
convnext_large,1,361,NaN,elephant,elephant,2-0-10,0361_eid_dnn_2-0-10_elephant_10_n02504013_7926.png,n02504013_7926.png,1.0,5.1522274,1.5206202,2.567934
convnext_large,1,362,NaN,elephant,bear,4-0-10,0362_eid_dnn_4-0-10_bear_10_n02133161_11816.png,n02133161_11816.png,0.0,3.0609035,4.3908195,-0.9403926
convnext_large,1,363,NaN,cat,bird,2-0-10,0363_eid_dnn_2-0-10_bird_10_n02056570_18300.png,n02056570_18300.png,0.0,0.071825355,1.4090301,-0.9455465
convnext_large,1,364,NaN,bicycle,chair,2-0-10,0364_eid_dnn_2-0-10_chair_10_n02791124_7063.png,n02791124_7063.png,0.0,0.30935082,3.2931478,-2.1098633
convnext_large,1,365,NaN,bottle,chair,8-0-10,0365_eid_dnn_8-0-10_chair_10_n03376595_8289.png,n03376595_8289.png,0.0,-0.3457271,0.992796,-0.9464788
convnext_large,1,366,NaN,airplane,airplane,4-0-10,0366_eid_dnn_4-0-10_airplane_10_n02690373_4434.png,n02690373_4434.png,1.0,7.453208,0.55200696,4.879886
convnext_large,1,367,NaN,truck,truck,1-0-10,0367_eid_dnn_1-0-10_truck_10_n03417042_8953.png,n03417042_8953.png,1.0,3.559495,1.0868875,1.7483976
convnext_large,1,368,NaN,bear,bear,64-0-10,0368_eid_dnn_64-0-10_bear_10_n02132136_699.png,n02132136_699.png,1.0,1.1003458,0.90612096,0.13733774
convnext_large,1,369,NaN,knife,knife,8-0-10,0369_eid_dnn_8-0-10_knife_10_n03041632_20517.png,n03041632_20517.png,1.0,0.61057144,0.17569926,0.30750108
convnext_large,1,370,NaN,cat,bottle,32-0-10,0370_eid_dnn_32-0-10_bottle_10_n03983396_1910.png,n03983396_1910.png,0.0,-0.3145613,0.5692762,-0.6249675
convnext_large,1,371,NaN,dog,oven,8-0-10,0371_eid_dnn_8-0-10_oven_10_n04111531_16198.png,n04111531_16198.png,0.0,-0.7799295,0.7320171,-1.0691078
convnext_large,1,372,NaN,cat,elephant,64-0-10,0372_eid_dnn_64-0-10_elephant_10_n02504013_13427.png,n02504013_13427.png,0.0,0.24038634,0.71456975,-0.3352983
convnext_large,1,373,NaN,cat,airplane,16-0-10,0373_eid_dnn_16-0-10_airplane_10_n02690373_1075.png,n02690373_1075.png,0.0,0.22913864,1.3737521,-0.80936396
convnext_large,1,374,NaN,cat,car,64-0-10,0374_eid_dnn_64-0-10_car_10_n03100240_5527.png,n03100240_5527.png,0.0,-0.62260604,1.3684067,-1.4078586
convnext_large,1,375,NaN,bear,bear,1-0-10,0375_eid_dnn_1-0-10_bear_10_n02132136_4632.png,n02132136_4632.png,1.0,5.6591077,0.46787283,3.6707575
convnext_large,1,376,NaN,boat,boat,1-0-10,0376_eid_dnn_1-0-10_boat_10_n04273569_6158.png,n04273569_6158.png,1.0,2.7110314,1.0733867,1.1579897
convnext_large,1,377,NaN,elephant,knife,32-0-10,0377_eid_dnn_32-0-10_knife_10_n03041632_18141.png,n03041632_18141.png,0.0,-0.32822117,3.3600473,-2.6079996
convnext_large,1,378,NaN,dog,bear,16-0-10,0378_eid_dnn_16-0-10_bear_10_n02132136_6378.png,n02132136_6378.png,0.0,0.27365708,1.4647546,-0.8422331
convnext_large,1,379,NaN,elephant,elephant,2-0-10,0379_eid_dnn_2-0-10_elephant_10_n02504458_5095.png,n02504458_5095.png,1.0,6.8309574,0.30418378,4.6151257
convnext_large,1,380,NaN,elephant,elephant,4-0-10,0380_eid_dnn_4-0-10_elephant_10_n02504013_10582.png,n02504013_10582.png,1.0,6.6821537,1.8557866,3.4127572
convnext_large,1,381,NaN,dog,chair,16-0-10,0381_eid_dnn_16-0-10_chair_10_n04099969_28139.png,n04099969_28139.png,0.0,-0.20117453,0.90403616,-0.78150195
convnext_large,1,382,NaN,keyboard,keyboard,2-0-10,0382_eid_dnn_2-0-10_keyboard_10_n04505470_279.png,n04505470_279.png,1.0,5.247757,0.38927078,3.4354687
convnext_large,1,383,NaN,cat,car,8-0-10,0383_eid_dnn_8-0-10_car_10_n02814533_79696.png,n02814533_79696.png,0.0,-0.48693433,0.98330027,-1.0396129
convnext_large,1,384,NaN,dog,cat,64-0-10,0384_eid_dnn_64-0-10_cat_10_n02124075_7984.png,n02124075_7984.png,0.0,0.5605378,1.0791087,-0.366685
convnext_large,1,385,NaN,elephant,car,4-0-10,0385_eid_dnn_4-0-10_car_10_n02814533_27327.png,n02814533_27327.png,0.0,2.8316243,3.0543427,-0.15748575
convnext_large,1,386,NaN,bear,bear,4-0-10,0386_eid_dnn_4-0-10_bear_10_n02134084_967.png,n02134084_967.png,1.0,3.3162549,0.5995806,1.9209789
convnext_large,1,387,NaN,dog,bear,64-0-10,0387_eid_dnn_64-0-10_bear_10_n02132136_949.png,n02132136_949.png,0.0,0.33888483,0.8502054,-0.36155826
convnext_large,1,388,NaN,elephant,bicycle,16-0-10,0388_eid_dnn_16-0-10_bicycle_10_n03792782_2905.png,n03792782_2905.png,0.0,-0.026768059,1.5203124,-1.0939511
convnext_large,1,389,NaN,dog,bicycle,8-0-10,0389_eid_dnn_8-0-10_bicycle_10_n03792782_34550.png,n03792782_34550.png,0.0,-0.8010051,1.227335,-1.4342531
convnext_large,1,390,NaN,elephant,bear,16-0-10,0390_eid_dnn_16-0-10_bear_10_n02132136_9055.png,n02132136_9055.png,0.0,2.040945,3.9038641,-1.3172828
convnext_large,1,391,NaN,dog,bear,64-0-10,0391_eid_dnn_64-0-10_bear_10_n02134084_7904.png,n02134084_7904.png,0.0,0.31571054,1.1273164,-0.573892
convnext_large,1,392,NaN,clock,clock,4-0-10,0392_eid_dnn_4-0-10_clock_10_n04548280_4526.png,n04548280_4526.png,1.0,3.0084667,1.24531,1.2467401
convnext_large,1,393,NaN,bottle,bottle,1-0-10,0393_eid_dnn_1-0-10_bottle_10_n02823428_685.png,n02823428_685.png,1.0,2.0165997,0.86859584,0.8117613
convnext_large,1,394,NaN,cat,keyboard,64-0-10,0394_eid_dnn_64-0-10_keyboard_10_n04505470_3935.png,n04505470_3935.png,0.0,-0.37123784,1.3860588,-1.2425964
convnext_large,1,395,NaN,dog,dog,64-0-10,0395_eid_dnn_64-0-10_dog_10_n02096051_3825.png,n02096051_3825.png,1.0,1.2131867,0.73035306,0.341415
convnext_large,1,396,NaN,dog,dog,2-0-10,0396_eid_dnn_2-0-10_dog_10_n02089078_10601.png,n02089078_10601.png,1.0,1.2676866,0.5498537,0.5075845
convnext_large,1,397,NaN,clock,clock,2-0-10,0397_eid_dnn_2-0-10_clock_10_n02708093_5236.png,n02708093_5236.png,1.0,5.1747627,0.12533006,3.5704882
convnext_large,1,398,NaN,cat,cat,2-0-10,0398_eid_dnn_2-0-10_cat_10_n02123159_2682.png,n02123159_2682.png,1.0,5.242987,0.25080228,3.5300076
convnext_large,1,399,NaN,oven,oven,1-0-10,0399_eid_dnn_1-0-10_oven_10_n04111531_10216.png,n04111531_10216.png,1.0,6.3023157,2.005708,3.0381608
convnext_large,1,400,NaN,boat,boat,2-0-10,0400_eid_dnn_2-0-10_boat_10_n02951358_7137.png,n02951358_7137.png,1.0,2.1637864,0.50498533,1.1729496
convnext_large,1,401,NaN,dog,bird,64-0-10,0401_eid_dnn_64-0-10_bird_10_n02007558_6127.png,n02007558_6127.png,0.0,0.02468439,0.5911687,-0.4005649
convnext_large,1,402,NaN,dog,dog,16-0-10,0402_eid_dnn_16-0-10_dog_10_n02096051_4804.png,n02096051_4804.png,1.0,1.0012716,0.49337578,0.35913658
convnext_large,1,403,NaN,bottle,bottle,8-0-10,0403_eid_dnn_8-0-10_bottle_10_n03983396_13764.png,n03983396_13764.png,1.0,1.5308468,1.1585329,0.26326573
convnext_large,1,404,NaN,cat,knife,32-0-10,0404_eid_dnn_32-0-10_knife_10_n03041632_105081.png,n03041632_105081.png,0.0,-0.3435194,1.3402063,-1.1905738
convnext_large,1,405,NaN,boat,boat,8-0-10,0405_eid_dnn_8-0-10_boat_10_n03344393_3535.png,n03344393_3535.png,1.0,1.0357459,0.43175298,0.42708746
convnext_large,1,406,NaN,airplane,keyboard,64-0-10,0406_eid_dnn_64-0-10_keyboard_10_n03085013_22929.png,n03085013_22929.png,0.0,-0.90582854,0.6699679,-1.1142563
convnext_large,1,407,NaN,bottle,bottle,1-0-10,0407_eid_dnn_1-0-10_bottle_10_n04579145_5979.png,n04579145_5979.png,1.0,1.7973177,0.33099228,1.0368488
convnext_large,1,408,NaN,knife,knife,2-0-10,0408_eid_dnn_2-0-10_knife_10_n03041632_31301.png,n03041632_31301.png,1.0,8.321838,0.24102469,5.713998
convnext_large,1,409,NaN,cat,car,128-0-10,0409_eid_dnn_128-0-10_car_10_n04285008_14653.png,n04285008_14653.png,0.0,-0.6434791,1.4802241,-1.501685
convnext_large,1,410,NaN,keyboard,clock,16-0-10,0410_eid_dnn_16-0-10_clock_10_n03196217_1601.png,n03196217_1601.png,0.0,-0.6808614,0.7621356,-1.020353
convnext_large,1,411,NaN,elephant,bicycle,8-0-10,0411_eid_dnn_8-0-10_bicycle_10_n02835271_25268.png,n02835271_25268.png,0.0,-0.27695906,0.67208105,-0.6710727
convnext_large,1,412,NaN,dog,bird,16-0-10,0412_eid_dnn_16-0-10_bird_10_n02037110_875.png,n02037110_875.png,0.0,-0.54432297,0.8959084,-1.0183973
convnext_large,1,413,NaN,clock,airplane,128-0-10,0413_eid_dnn_128-0-10_airplane_10_n02690373_6807.png,n02690373_6807.png,0.0,-1.1845375,1.9028791,-2.1831334
convnext_large,1,414,NaN,cat,clock,16-0-10,0414_eid_dnn_16-0-10_clock_10_n04548280_10066.png,n04548280_10066.png,0.0,0.053650815,2.2895272,-1.5810033
convnext_large,1,415,NaN,cat,boat,64-0-10,0415_eid_dnn_64-0-10_boat_10_n02951358_15252.png,n02951358_15252.png,0.0,-0.8940197,0.5888191,-1.0485255
convnext_large,1,416,NaN,cat,car,64-0-10,0416_eid_dnn_64-0-10_car_10_n02814533_4803.png,n02814533_4803.png,0.0,-0.46777686,1.4928495,-1.3863722
convnext_large,1,417,NaN,cat,car,16-0-10,0417_eid_dnn_16-0-10_car_10_n03100240_24544.png,n03100240_24544.png,0.0,-0.5075024,0.7822435,-0.911988
convnext_large,1,418,NaN,dog,bear,128-0-10,0418_eid_dnn_128-0-10_bear_10_n02132136_4219.png,n02132136_4219.png,0.0,0.05247079,0.60295624,-0.38925198
convnext_large,1,419,NaN,cat,bicycle,32-0-10,0419_eid_dnn_32-0-10_bicycle_10_n02835271_507.png,n02835271_507.png,0.0,0.26969436,1.2887143,-0.72055596
convnext_large,1,420,NaN,boat,boat,1-0-10,0420_eid_dnn_1-0-10_boat_10_n04273569_13290.png,n04273569_13290.png,1.0,2.544682,0.5923842,1.380483
convnext_large,1,421,NaN,bicycle,bicycle,2-0-10,0421_eid_dnn_2-0-10_bicycle_10_n03792782_42626.png,n03792782_42626.png,1.0,5.9085455,0.3957763,3.8981166
convnext_large,1,422,NaN,dog,dog,8-0-10,0422_eid_dnn_8-0-10_dog_10_n02106382_3856.png,n02106382_3856.png,1.0,1.0950162,0.38044512,0.5052781
convnext_large,1,423,NaN,clock,clock,1-0-10,0423_eid_dnn_1-0-10_clock_10_n02708093_274.png,n02708093_274.png,1.0,4.637724,0.584936,2.865754
convnext_large,1,424,NaN,clock,bottle,32-0-10,0424_eid_dnn_32-0-10_bottle_10_n04591713_5921.png,n04591713_5921.png,0.0,-0.31378528,0.70357376,-0.71938145
convnext_large,1,425,NaN,elephant,elephant,1-0-10,0425_eid_dnn_1-0-10_elephant_10_n02504458_3851.png,n02504458_3851.png,1.0,7.8065324,0.41306597,5.2279706
convnext_large,1,426,NaN,cat,dog,32-0-10,0426_eid_dnn_32-0-10_dog_10_n02105855_995.png,n02105855_995.png,0.0,0.37842983,0.77058846,-0.27729803
convnext_large,1,427,NaN,airplane,airplane,2-0-10,0427_eid_dnn_2-0-10_airplane_10_n02690373_1979.png,n02690373_1979.png,1.0,7.9541593,1.2214934,4.760714
convnext_large,1,428,NaN,airplane,airplane,1-0-10,0428_eid_dnn_1-0-10_airplane_10_n02690373_6455.png,n02690373_6455.png,1.0,8.967471,0.8034396,5.7728424
convnext_large,1,429,NaN,oven,oven,1-0-10,0429_eid_dnn_1-0-10_oven_10_n04111531_18979.png,n04111531_18979.png,1.0,8.492765,0.4027411,5.720511
convnext_large,1,430,NaN,clock,oven,32-0-10,0430_eid_dnn_32-0-10_oven_10_n04111531_16795.png,n04111531_16795.png,0.0,-1.9975364,0.96136874,-2.092262
convnext_large,1,431,NaN,truck,truck,4-0-10,0431_eid_dnn_4-0-10_truck_10_n04467665_41076.png,n04467665_41076.png,1.0,1.5961981,1.3002423,0.20927234
convnext_large,1,432,NaN,dog,bird,16-0-10,0432_eid_dnn_16-0-10_bird_10_n01534433_31697.png,n01534433_31697.png,0.0,-0.5028354,0.4462989,-0.6711393
convnext_large,1,433,NaN,clock,keyboard,128-0-10,0433_eid_dnn_128-0-10_keyboard_10_n04505470_4289.png,n04505470_4289.png,0.0,-0.73220015,0.40959263,-0.8073694
convnext_large,1,434,NaN,keyboard,keyboard,4-0-10,0434_eid_dnn_4-0-10_keyboard_10_n03085013_20727.png,n03085013_20727.png,1.0,7.311257,1.0619134,4.418953
convnext_large,1,435,NaN,boat,boat,8-0-10,0435_eid_dnn_8-0-10_boat_10_n04273569_7315.png,n04273569_7315.png,1.0,1.9586157,1.6927643,0.18798532
convnext_large,1,436,NaN,car,car,1-0-10,0436_eid_dnn_1-0-10_car_10_n03100240_16646.png,n03100240_16646.png,1.0,6.1235557,1.3473358,3.3772974
convnext_large,1,437,NaN,cat,car,16-0-10,0437_eid_dnn_16-0-10_car_10_n03100240_5281.png,n03100240_5281.png,0.0,-0.32285962,1.1696689,-1.0553771
convnext_large,1,438,NaN,clock,airplane,128-0-10,0438_eid_dnn_128-0-10_airplane_10_n02690373_1670.png,n02690373_1670.png,0.0,-0.9988338,1.3973784,-1.6943779
convnext_large,1,439,NaN,clock,airplane,128-0-10,0439_eid_dnn_128-0-10_airplane_10_n02690373_9293.png,n02690373_9293.png,0.0,-0.83386874,0.73494416,-1.1093183
convnext_large,1,440,NaN,clock,truck,128-0-10,0440_eid_dnn_128-0-10_truck_10_n03796401_15846.png,n03796401_15846.png,0.0,-1.1242898,1.0523262,-1.5390999
convnext_large,1,441,NaN,elephant,truck,32-0-10,0441_eid_dnn_32-0-10_truck_10_n03796401_6971.png,n03796401_6971.png,0.0,-0.8336512,1.1395261,-1.3952471
convnext_large,1,442,NaN,clock,oven,128-0-10,0442_eid_dnn_128-0-10_oven_10_n04111531_10724.png,n04111531_10724.png,0.0,-1.8625299,1.1206313,-2.1094136
convnext_large,1,443,NaN,cat,keyboard,8-0-10,0443_eid_dnn_8-0-10_keyboard_10_n03085013_22187.png,n03085013_22187.png,0.0,-0.29097268,2.1002958,-1.6908822
convnext_large,1,444,NaN,dog,oven,8-0-10,0444_eid_dnn_8-0-10_oven_10_n04111531_4671.png,n04111531_4671.png,0.0,-0.7904397,1.3538175,-1.5162188
convnext_large,1,445,NaN,airplane,airplane,4-0-10,0445_eid_dnn_4-0-10_airplane_10_n02690373_5142.png,n02690373_5142.png,1.0,9.386804,0.5610346,6.2407613
convnext_large,1,446,NaN,elephant,elephant,4-0-10,0446_eid_dnn_4-0-10_elephant_10_n02504013_8562.png,n02504013_8562.png,1.0,7.1315036,0.6523633,4.5814443
convnext_large,1,447,NaN,truck,truck,1-0-10,0447_eid_dnn_1-0-10_truck_10_n03417042_9668.png,n03417042_9668.png,1.0,3.9375515,0.6464632,2.3271508
convnext_large,1,448,NaN,dog,bottle,8-0-10,0448_eid_dnn_8-0-10_bottle_10_n03983396_10330.png,n03983396_10330.png,0.0,-0.03602386,1.4832162,-1.0742649
convnext_large,1,449,NaN,cat,elephant,128-0-10,0449_eid_dnn_128-0-10_elephant_10_n02504458_4395.png,n02504458_4395.png,0.0,-0.29784566,0.57924867,-0.6201994
convnext_large,1,450,NaN,cat,boat,64-0-10,0450_eid_dnn_64-0-10_boat_10_n03344393_4562.png,n03344393_4562.png,0.0,-0.9430529,1.0780226,-1.4291162
convnext_large,1,451,NaN,oven,oven,2-0-10,0451_eid_dnn_2-0-10_oven_10_n04111531_10011.png,n04111531_10011.png,1.0,8.492573,0.6197455,5.56693
convnext_large,1,452,NaN,dog,oven,64-0-10,0452_eid_dnn_64-0-10_oven_10_n04111531_13797.png,n04111531_13797.png,0.0,-1.8839587,1.0339785,-2.0632932
convnext_large,1,453,NaN,boat,boat,2-0-10,0453_eid_dnn_2-0-10_boat_10_n03662601_840.png,n03662601_840.png,1.0,4.1048574,1.3652579,1.9371896
convnext_large,1,454,NaN,cat,truck,16-0-10,0454_eid_dnn_16-0-10_truck_10_n03417042_17037.png,n03417042_17037.png,0.0,-0.6180084,1.1078693,-1.2203798
convnext_large,1,455,NaN,clock,cat,64-0-10,0455_eid_dnn_64-0-10_cat_10_n02125311_2576.png,n02125311_2576.png,0.0,0.5226492,1.0102568,-0.3447906
convnext_large,1,456,NaN,cat,keyboard,32-0-10,0456_eid_dnn_32-0-10_keyboard_10_n03085013_3264.png,n03085013_3264.png,0.0,-0.87224543,1.2761607,-1.5191525
convnext_large,1,457,NaN,dog,dog,64-0-10,0457_eid_dnn_64-0-10_dog_10_n02097130_3519.png,n02097130_3519.png,1.0,0.9171507,0.58628756,0.23395556
convnext_large,1,458,NaN,airplane,airplane,16-0-10,0458_eid_dnn_16-0-10_airplane_10_n02690373_4486.png,n02690373_4486.png,1.0,0.8308389,0.6967022,0.094849
convnext_large,1,459,NaN,dog,bottle,16-0-10,0459_eid_dnn_16-0-10_bottle_10_n03983396_19635.png,n03983396_19635.png,0.0,-0.48774576,1.1085299,-1.1287373
convnext_large,1,460,NaN,cat,airplane,16-0-10,0460_eid_dnn_16-0-10_airplane_10_n02690373_1426.png,n02690373_1426.png,0.0,0.44409224,1.038315,-0.42017898
convnext_large,1,461,NaN,oven,oven,4-0-10,0461_eid_dnn_4-0-10_oven_10_n04111531_5279.png,n04111531_5279.png,1.0,1.4925222,1.4818734,0.007529872
convnext_large,1,462,NaN,clock,bottle,64-0-10,0462_eid_dnn_64-0-10_bottle_10_n03983396_4024.png,n03983396_4024.png,0.0,-0.4966654,0.6454691,-0.8076111
convnext_large,1,463,NaN,cat,bear,8-0-10,0463_eid_dnn_8-0-10_bear_10_n02133161_12751.png,n02133161_12751.png,0.0,1.287792,2.3297691,-0.7367891
convnext_large,1,464,NaN,cat,car,8-0-10,0464_eid_dnn_8-0-10_car_10_n02814533_12271.png,n02814533_12271.png,0.0,-0.27745548,1.7564807,-1.4382101
convnext_large,1,465,NaN,keyboard,bottle,16-0-10,0465_eid_dnn_16-0-10_bottle_10_n04560804_5068.png,n04560804_5068.png,0.0,0.07528404,0.946484,-0.6160314
convnext_large,1,466,NaN,keyboard,bottle,128-0-10,0466_eid_dnn_128-0-10_bottle_10_n04579145_1168.png,n04579145_1168.png,0.0,-0.037893478,1.297097,-0.9439809
convnext_large,1,467,NaN,cat,knife,64-0-10,0467_eid_dnn_64-0-10_knife_10_n03041632_2973.png,n03041632_2973.png,0.0,-0.52162975,1.0410997,-1.1050166
convnext_large,1,468,NaN,cat,airplane,16-0-10,0468_eid_dnn_16-0-10_airplane_10_n02690373_19329.png,n02690373_19329.png,0.0,-0.17464526,1.87038,-1.4460514
convnext_large,1,469,NaN,elephant,bottle,32-0-10,0469_eid_dnn_32-0-10_bottle_10_n04560804_1356.png,n04560804_1356.png,0.0,-0.406004,1.1852762,-1.125205
convnext_large,1,470,NaN,elephant,bear,8-0-10,0470_eid_dnn_8-0-10_bear_10_n02134084_3960.png,n02134084_3960.png,0.0,1.9589487,2.659243,-0.4951829
convnext_large,1,471,NaN,boat,boat,4-0-10,0471_eid_dnn_4-0-10_boat_10_n04612504_27504.png,n04612504_27504.png,1.0,2.3122776,1.0418957,0.8982956
convnext_large,1,472,NaN,dog,dog,4-0-10,0472_eid_dnn_4-0-10_dog_10_n02099601_9973.png,n02099601_9973.png,1.0,1.0286417,0.36490843,0.46933028
convnext_large,1,473,NaN,dog,truck,64-0-10,0473_eid_dnn_64-0-10_truck_10_n03417042_26843.png,n03417042_26843.png,0.0,-0.7430532,0.8783794,-1.146526
convnext_large,1,474,NaN,clock,knife,64-0-10,0474_eid_dnn_64-0-10_knife_10_n03041632_55711.png,n03041632_55711.png,0.0,0.24776912,0.96349734,-0.5060963
convnext_large,1,475,NaN,bear,elephant,8-0-10,0475_eid_dnn_8-0-10_elephant_10_n02504013_1986.png,n02504013_1986.png,0.0,0.11162615,1.6656665,-1.0988724
convnext_large,1,476,NaN,keyboard,keyboard,4-0-10,0476_eid_dnn_4-0-10_keyboard_10_n03085013_9475.png,n03085013_9475.png,1.0,5.059998,2.1268787,2.0740285
convnext_large,1,477,NaN,dog,elephant,32-0-10,0477_eid_dnn_32-0-10_elephant_10_n02504458_3381.png,n02504458_3381.png,0.0,0.72732604,0.9076714,-0.12752342
convnext_large,1,478,NaN,airplane,airplane,8-0-10,0478_eid_dnn_8-0-10_airplane_10_n02690373_1161.png,n02690373_1161.png,1.0,0.91198957,0.73750424,0.12337976
convnext_large,1,479,NaN,clock,cat,64-0-10,0479_eid_dnn_64-0-10_cat_10_n02124075_7474.png,n02124075_7474.png,0.0,0.22324103,0.818428,-0.42086074
convnext_large,1,480,NaN,cat,cat,4-0-10,0480_eid_dnn_4-0-10_cat_10_n02125311_9074.png,n02125311_9074.png,1.0,1.8029772,1.1260209,0.4786804
convnext_large,1,481,NaN,clock,airplane,128-0-10,0481_eid_dnn_128-0-10_airplane_10_n02690373_2867.png,n02690373_2867.png,0.0,-0.44513887,0.7150963,-0.8204102
convnext_large,1,482,NaN,elephant,elephant,2-0-10,0482_eid_dnn_2-0-10_elephant_10_n02504013_1692.png,n02504013_1692.png,1.0,5.5555058,0.9162307,3.280463
convnext_large,1,483,NaN,cat,bird,8-0-10,0483_eid_dnn_8-0-10_bird_10_n02009912_11813.png,n02009912_11813.png,0.0,-0.5354669,1.9525167,-1.7592702
convnext_large,1,484,NaN,knife,bottle,16-0-10,0484_eid_dnn_16-0-10_bottle_10_n04557648_10302.png,n04557648_10302.png,0.0,-0.27131864,0.31640136,-0.41558084
convnext_large,1,485,NaN,keyboard,keyboard,4-0-10,0485_eid_dnn_4-0-10_keyboard_10_n03085013_20302.png,n03085013_20302.png,1.0,3.2269344,0.84162474,1.6866686
convnext_large,1,486,NaN,cat,elephant,128-0-10,0486_eid_dnn_128-0-10_elephant_10_n02504458_5827.png,n02504458_5827.png,0.0,-0.30503264,0.87712437,-0.8359113
convnext_large,1,487,NaN,knife,knife,1-0-10,0487_eid_dnn_1-0-10_knife_10_n03041632_11327.png,n03041632_11327.png,1.0,8.849119,0.24111252,6.08678
convnext_large,1,488,NaN,airplane,bird,4-0-10,0488_eid_dnn_4-0-10_bird_10_n01795545_17770.png,n01795545_17770.png,0.0,0.72201914,1.2426656,-0.36815268
convnext_large,1,489,NaN,bicycle,bicycle,4-0-10,0489_eid_dnn_4-0-10_bicycle_10_n02835271_10932.png,n02835271_10932.png,1.0,4.624445,0.958048,2.5925343
convnext_large,1,490,NaN,cat,cat,2-0-10,0490_eid_dnn_2-0-10_cat_10_n02123597_14233.png,n02123597_14233.png,1.0,2.2662332,0.80330276,1.034448
convnext_large,1,491,NaN,bird,bird,1-0-10,0491_eid_dnn_1-0-10_bird_10_n01614925_7662.png,n01614925_7662.png,1.0,0.72963274,0.3980933,0.23443379
convnext_large,1,492,NaN,elephant,truck,16-0-10,0492_eid_dnn_16-0-10_truck_10_n03417042_5875.png,n03417042_5875.png,0.0,-0.94255394,3.8519912,-3.3902555
convnext_large,1,493,NaN,bear,bear,1-0-10,0493_eid_dnn_1-0-10_bear_10_n02134418_304.png,n02134418_304.png,1.0,3.3892958,0.827315,1.811594
convnext_large,1,494,NaN,chair,bird,1-0-10,0494_eid_dnn_1-0-10_bird_10_n01622779_5148.png,n01622779_5148.png,0.0,0.02609687,0.22512573,-0.14073466
convnext_large,1,495,NaN,knife,knife,1-0-10,0495_eid_dnn_1-0-10_knife_10_n03041632_44230.png,n03041632_44230.png,1.0,8.10329,0.39975697,5.4472203
convnext_large,1,496,NaN,cat,boat,32-0-10,0496_eid_dnn_32-0-10_boat_10_n03662601_8650.png,n03662601_8650.png,0.0,-1.035588,1.303348,-1.6538774
convnext_large,1,497,NaN,cat,oven,16-0-10,0497_eid_dnn_16-0-10_oven_10_n04111531_4346.png,n04111531_4346.png,0.0,-0.4303943,1.6754117,-1.4890296
convnext_large,1,498,NaN,clock,clock,2-0-10,0498_eid_dnn_2-0-10_clock_10_n03196217_2201.png,n03196217_2201.png,1.0,4.013664,0.26724327,2.6491194
convnext_large,1,499,NaN,clock,bicycle,64-0-10,0499_eid_dnn_64-0-10_bicycle_10_n02835271_8757.png,n02835271_8757.png,0.0,-1.1006753,1.0113583,-1.4934334
convnext_large,1,500,NaN,cat,keyboard,8-0-10,0500_eid_dnn_8-0-10_keyboard_10_n03085013_23563.png,n03085013_23563.png,0.0,-0.14979236,1.1989455,-0.9537017
convnext_large,1,501,NaN,dog,boat,64-0-10,0501_eid_dnn_64-0-10_boat_10_n04273569_15879.png,n04273569_15879.png,0.0,-0.4162716,0.9637716,-0.9758379
convnext_large,1,502,NaN,dog,truck,64-0-10,0502_eid_dnn_64-0-10_truck_10_n04467665_30588.png,n04467665_30588.png,0.0,-1.1091981,1.1025691,-1.5639557
convnext_large,1,503,NaN,dog,truck,16-0-10,0503_eid_dnn_16-0-10_truck_10_n03417042_1875.png,n03417042_1875.png,0.0,-0.96677727,1.2327741,-1.5553176
convnext_large,1,504,NaN,cat,cat,128-0-10,0504_eid_dnn_128-0-10_cat_10_n02123394_6014.png,n02123394_6014.png,1.0,1.0769256,0.7070593,0.261535
convnext_large,1,505,NaN,boat,boat,1-0-10,0505_eid_dnn_1-0-10_boat_10_n04273569_10847.png,n04273569_10847.png,1.0,2.7463498,1.0567688,1.1947142
convnext_large,1,506,NaN,dog,elephant,64-0-10,0506_eid_dnn_64-0-10_elephant_10_n02504013_5495.png,n02504013_5495.png,0.0,-0.2742964,0.7046696,-0.6922335
convnext_large,1,507,NaN,clock,bottle,128-0-10,0507_eid_dnn_128-0-10_bottle_10_n04560804_16276.png,n04560804_16276.png,0.0,0.03280259,1.3566431,-0.9360966
convnext_large,1,508,NaN,car,car,1-0-10,0508_eid_dnn_1-0-10_car_10_n04285008_1243.png,n04285008_1243.png,1.0,2.5645483,1.7885915,0.5486843
convnext_large,1,509,NaN,dog,keyboard,32-0-10,0509_eid_dnn_32-0-10_keyboard_10_n03085013_22027.png,n03085013_22027.png,0.0,-0.5642582,1.2371649,-1.2737985
convnext_large,1,510,NaN,dog,cat,32-0-10,0510_eid_dnn_32-0-10_cat_10_n02123045_12766.png,n02123045_12766.png,0.0,0.6472303,0.8392433,-0.13577367
convnext_large,1,511,NaN,clock,chair,64-0-10,0511_eid_dnn_64-0-10_chair_10_n04429376_29954.png,n04429376_29954.png,0.0,-0.18128222,0.55797434,-0.52273333
convnext_large,1,512,NaN,cat,elephant,32-0-10,0512_eid_dnn_32-0-10_elephant_10_n02504013_5678.png,n02504013_5678.png,0.0,0.29257554,0.8971453,-0.42749536
convnext_large,1,513,NaN,chair,chair,4-0-10,0513_eid_dnn_4-0-10_chair_10_n03376595_6333.png,n03376595_6333.png,1.0,3.390898,0.54766464,2.0104697
convnext_large,1,514,NaN,keyboard,keyboard,2-0-10,0514_eid_dnn_2-0-10_keyboard_10_n03085013_22605.png,n03085013_22605.png,1.0,5.5580163,0.9279186,3.2739737
convnext_large,1,515,NaN,dog,car,32-0-10,0515_eid_dnn_32-0-10_car_10_n04285008_16557.png,n04285008_16557.png,0.0,0.02135845,0.44339547,-0.29842523
convnext_large,1,516,NaN,cat,bottle,64-0-10,0516_eid_dnn_64-0-10_bottle_10_n02823428_1034.png,n02823428_1034.png,0.0,-0.5350779,0.8644607,-0.98962325
convnext_large,1,517,NaN,dog,elephant,16-0-10,0517_eid_dnn_16-0-10_elephant_10_n02504013_7777.png,n02504013_7777.png,0.0,0.39708892,1.0008361,-0.42691377
convnext_large,1,518,NaN,knife,knife,4-0-10,0518_eid_dnn_4-0-10_knife_10_n03041632_14293.png,n03041632_14293.png,1.0,0.9472223,0.63760185,0.21893471
convnext_large,1,519,NaN,cat,knife,8-0-10,0519_eid_dnn_8-0-10_knife_10_n03041632_50423.png,n03041632_50423.png,0.0,0.34786725,2.235408,-1.334693
convnext_large,1,520,NaN,chair,chair,2-0-10,0520_eid_dnn_2-0-10_chair_10_n03376595_3043.png,n03376595_3043.png,1.0,4.2503037,1.2098643,2.1499155
convnext_large,1,521,NaN,cat,cat,8-0-10,0521_eid_dnn_8-0-10_cat_10_n02123394_2434.png,n02123394_2434.png,1.0,3.2541034,1.6595371,1.1275287
convnext_large,1,522,NaN,truck,truck,1-0-10,0522_eid_dnn_1-0-10_truck_10_n04467665_54079.png,n04467665_54079.png,1.0,2.741037,0.41667634,1.6435711
convnext_large,1,523,NaN,bird,bird,2-0-10,0523_eid_dnn_2-0-10_bird_10_n01855672_1001.png,n01855672_1001.png,1.0,0.39707384,0.28102747,0.08205718
convnext_large,1,524,NaN,bottle,bottle,1-0-10,0524_eid_dnn_1-0-10_bottle_10_n04560804_6112.png,n04560804_6112.png,1.0,2.1456542,0.49555942,1.1667932
convnext_large,1,525,NaN,keyboard,keyboard,1-0-10,0525_eid_dnn_1-0-10_keyboard_10_n04505470_1744.png,n04505470_1744.png,1.0,4.7739162,0.9027533,2.7373257
convnext_large,1,526,NaN,dog,boat,32-0-10,0526_eid_dnn_32-0-10_boat_10_n02951358_15087.png,n02951358_15087.png,0.0,-0.72996956,1.0690998,-1.2721342
convnext_large,1,527,NaN,bottle,bottle,4-0-10,0527_eid_dnn_4-0-10_bottle_10_n04557648_10051.png,n04557648_10051.png,1.0,2.624023,0.803308,1.28744
convnext_large,1,528,NaN,clock,bear,64-0-10,0528_eid_dnn_64-0-10_bear_10_n02134084_5794.png,n02134084_5794.png,0.0,-0.2668418,0.7007982,-0.68422484
convnext_large,1,529,NaN,keyboard,keyboard,4-0-10,0529_eid_dnn_4-0-10_keyboard_10_n04505470_751.png,n04505470_751.png,1.0,6.4342074,0.93945247,3.8853784
convnext_large,1,530,NaN,keyboard,boat,128-0-10,0530_eid_dnn_128-0-10_boat_10_n04273569_9306.png,n04273569_9306.png,0.0,-0.6631838,0.47903863,-0.8076732
convnext_large,1,531,NaN,cat,chair,16-0-10,0531_eid_dnn_16-0-10_chair_10_n02791124_9162.png,n02791124_9162.png,0.0,0.11393322,1.1220163,-0.71282244
convnext_large,1,532,NaN,dog,bicycle,128-0-10,0532_eid_dnn_128-0-10_bicycle_10_n02835271_25033.png,n02835271_25033.png,0.0,-0.33259857,0.68418354,-0.7189735
convnext_large,1,533,NaN,clock,keyboard,128-0-10,0533_eid_dnn_128-0-10_keyboard_10_n04505470_3905.png,n04505470_3905.png,0.0,0.96738625,1.196268,-0.16184382
convnext_large,1,534,NaN,knife,knife,4-0-10,0534_eid_dnn_4-0-10_knife_10_n03041632_32054.png,n03041632_32054.png,1.0,7.788768,0.84319353,4.911263
convnext_large,1,535,NaN,cat,clock,8-0-10,0535_eid_dnn_8-0-10_clock_10_n03196217_13380.png,n03196217_13380.png,0.0,0.7924964,2.110594,-0.93203574
convnext_large,1,536,NaN,clock,chair,32-0-10,0536_eid_dnn_32-0-10_chair_10_n03376595_8083.png,n03376595_8083.png,0.0,0.0038328767,1.2785573,-0.90136635
convnext_large,1,537,NaN,elephant,cat,8-0-10,0537_eid_dnn_8-0-10_cat_10_n02125311_47927.png,n02125311_47927.png,0.0,0.5046089,1.6904635,-0.8385259
convnext_large,1,538,NaN,cat,boat,64-0-10,0538_eid_dnn_64-0-10_boat_10_n04273569_1141.png,n04273569_1141.png,0.0,-0.23650575,0.40802884,-0.4557548
convnext_large,1,539,NaN,dog,dog,64-0-10,0539_eid_dnn_64-0-10_dog_10_n02097130_5859.png,n02097130_5859.png,1.0,0.74053377,0.4280484,0.22096053
convnext_large,1,540,NaN,elephant,dog,16-0-10,0540_eid_dnn_16-0-10_dog_10_n02090721_835.png,n02090721_835.png,0.0,0.41797996,2.1449208,-1.2211316
convnext_large,1,541,NaN,cat,bear,128-0-10,0541_eid_dnn_128-0-10_bear_10_n02132136_15806.png,n02132136_15806.png,0.0,0.31909287,0.7880005,-0.3315678
convnext_large,1,542,NaN,dog,cat,128-0-10,0542_eid_dnn_128-0-10_cat_10_n02124075_12069.png,n02124075_12069.png,0.0,0.7946041,0.9962267,-0.14256871
convnext_large,1,543,NaN,oven,oven,2-0-10,0543_eid_dnn_2-0-10_oven_10_n04111531_21382.png,n04111531_21382.png,1.0,7.8672895,0.8081193,4.991587
convnext_large,1,544,NaN,cat,cat,1-0-10,0544_eid_dnn_1-0-10_cat_10_n02123597_2009.png,n02123597_2009.png,1.0,1.8283782,0.94896746,0.6218373
convnext_large,1,545,NaN,elephant,oven,32-0-10,0545_eid_dnn_32-0-10_oven_10_n04111531_4392.png,n04111531_4392.png,0.0,-2.412057,1.1130872,-2.4926534
convnext_large,1,546,NaN,boat,boat,4-0-10,0546_eid_dnn_4-0-10_boat_10_n03344393_640.png,n03344393_640.png,1.0,0.716355,0.5772984,0.09832788
convnext_large,1,547,NaN,car,car,4-0-10,0547_eid_dnn_4-0-10_car_10_n02814533_245.png,n02814533_245.png,1.0,3.2805173,3.2036188,0.054375503
convnext_large,1,548,NaN,bird,bird,1-0-10,0548_eid_dnn_1-0-10_bird_10_n01530575_3831.png,n01530575_3831.png,1.0,1.8593633,0.80170155,0.7478798
convnext_large,1,549,NaN,truck,truck,2-0-10,0549_eid_dnn_2-0-10_truck_10_n04467665_32276.png,n04467665_32276.png,1.0,3.2335136,0.2971574,2.0763173
convnext_large,1,550,NaN,cat,elephant,64-0-10,0550_eid_dnn_64-0-10_elephant_10_n02504458_5941.png,n02504458_5941.png,0.0,-0.08128078,1.0958418,-0.8323514
convnext_large,1,551,NaN,elephant,elephant,4-0-10,0551_eid_dnn_4-0-10_elephant_10_n02504013_9796.png,n02504013_9796.png,1.0,6.204696,1.9459438,3.0113928
convnext_large,1,552,NaN,airplane,airplane,4-0-10,0552_eid_dnn_4-0-10_airplane_10_n02690373_8214.png,n02690373_8214.png,1.0,3.8214958,2.4266357,0.986315
convnext_large,1,553,NaN,airplane,airplane,1-0-10,0553_eid_dnn_1-0-10_airplane_10_n02690373_8967.png,n02690373_8967.png,1.0,8.923649,0.418686,6.013917
convnext_large,1,554,NaN,dog,elephant,64-0-10,0554_eid_dnn_64-0-10_elephant_10_n02504458_7642.png,n02504458_7642.png,0.0,-0.30141252,1.1116179,-0.9991634
convnext_large,1,555,NaN,airplane,boat,1-0-10,0555_eid_dnn_1-0-10_boat_10_n04273569_15455.png,n04273569_15455.png,0.0,2.4806292,2.547598,-0.04735401
convnext_large,1,556,NaN,bear,knife,8-0-10,0556_eid_dnn_8-0-10_knife_10_n03041632_3063.png,n03041632_3063.png,0.0,-0.39197725,2.6214354,-2.1308045
convnext_large,1,557,NaN,bottle,bottle,4-0-10,0557_eid_dnn_4-0-10_bottle_10_n03937543_4912.png,n03937543_4912.png,1.0,1.8760318,0.34839067,1.0802053
convnext_large,1,558,NaN,oven,oven,4-0-10,0558_eid_dnn_4-0-10_oven_10_n04111531_5776.png,n04111531_5776.png,1.0,4.286804,0.71333694,2.526823
convnext_large,1,559,NaN,cat,bottle,128-0-10,0559_eid_dnn_128-0-10_bottle_10_n03983396_4540.png,n03983396_4540.png,0.0,-0.017091712,1.2759861,-0.91434413
convnext_large,1,560,NaN,knife,knife,2-0-10,0560_eid_dnn_2-0-10_knife_10_n03041632_965.png,n03041632_965.png,1.0,8.46715,0.15467376,5.8778086
convnext_large,1,561,NaN,cat,knife,32-0-10,0561_eid_dnn_32-0-10_knife_10_n03041632_12949.png,n03041632_12949.png,0.0,0.966745,1.0796427,-0.079830684
convnext_large,1,562,NaN,elephant,knife,16-0-10,0562_eid_dnn_16-0-10_knife_10_n03041632_18766.png,n03041632_18766.png,0.0,-0.38276815,2.5814352,-2.0960083
convnext_large,1,563,NaN,keyboard,keyboard,8-0-10,0563_eid_dnn_8-0-10_keyboard_10_n04505470_2869.png,n04505470_2869.png,1.0,4.96381,1.2415206,2.632056
convnext_large,1,564,NaN,bicycle,bicycle,4-0-10,0564_eid_dnn_4-0-10_bicycle_10_n02835271_18537.png,n02835271_18537.png,1.0,6.3023596,1.6699414,3.2756143
convnext_large,1,565,NaN,clock,clock,32-0-10,0565_eid_dnn_32-0-10_clock_10_n04548280_1119.png,n04548280_1119.png,1.0,0.79874706,0.43848926,0.25474074
convnext_large,1,566,NaN,oven,oven,1-0-10,0566_eid_dnn_1-0-10_oven_10_n04111531_687.png,n04111531_687.png,1.0,8.830418,0.39424282,5.9652762
convnext_large,1,567,NaN,cat,chair,64-0-10,0567_eid_dnn_64-0-10_chair_10_n03376595_3038.png,n03376595_3038.png,0.0,-0.39773574,1.1419457,-1.0887192
convnext_large,1,568,NaN,dog,bicycle,16-0-10,0568_eid_dnn_16-0-10_bicycle_10_n02835271_3989.png,n02835271_3989.png,0.0,0.019687667,0.81744695,-0.56410104
convnext_large,1,569,NaN,dog,dog,64-0-10,0569_eid_dnn_64-0-10_dog_10_n02096437_4563.png,n02096437_4563.png,1.0,0.7503273,0.5412195,0.14786156
convnext_large,1,570,NaN,clock,clock,32-0-10,0570_eid_dnn_32-0-10_clock_10_n02708093_685.png,n02708093_685.png,1.0,0.5779621,0.55071765,0.019264735
convnext_large,1,571,NaN,dog,boat,32-0-10,0571_eid_dnn_32-0-10_boat_10_n03662601_8360.png,n03662601_8360.png,0.0,-0.25287375,0.71764886,-0.68626314
convnext_large,1,572,NaN,cat,keyboard,8-0-10,0572_eid_dnn_8-0-10_keyboard_10_n03085013_17035.png,n03085013_17035.png,0.0,0.0565263,0.87560296,-0.5791747
convnext_large,1,573,NaN,cat,dog,64-0-10,0573_eid_dnn_64-0-10_dog_10_n02110063_12166.png,n02110063_12166.png,0.0,0.5914205,1.1115223,-0.36776754
convnext_large,1,574,NaN,dog,dog,2-0-10,0574_eid_dnn_2-0-10_dog_10_n02108422_6951.png,n02108422_6951.png,1.0,1.2733804,0.540068,0.5185302
convnext_large,1,575,NaN,dog,bear,64-0-10,0575_eid_dnn_64-0-10_bear_10_n02134418_912.png,n02134418_912.png,0.0,0.4653397,1.2331945,-0.54295534
convnext_large,1,576,NaN,clock,clock,4-0-10,0576_eid_dnn_4-0-10_clock_10_n02708093_564.png,n02708093_564.png,1.0,2.4421341,0.63717616,1.276298
convnext_large,1,577,NaN,dog,car,64-0-10,0577_eid_dnn_64-0-10_car_10_n04285008_11893.png,n04285008_11893.png,0.0,-0.79234886,0.9999967,-1.2673796
convnext_large,1,578,NaN,clock,knife,64-0-10,0578_eid_dnn_64-0-10_knife_10_n03041632_20504.png,n03041632_20504.png,0.0,0.3568326,0.9159739,-0.3953726
convnext_large,1,579,NaN,knife,clock,4-0-10,0579_eid_dnn_4-0-10_clock_10_n04548280_4557.png,n04548280_4557.png,0.0,-0.8107805,1.6655941,-1.7510613
convnext_large,1,580,NaN,dog,clock,32-0-10,0580_eid_dnn_32-0-10_clock_10_n02708093_3360.png,n02708093_3360.png,0.0,0.54138905,0.7302687,-0.1335581
convnext_large,1,581,NaN,airplane,bear,16-0-10,0581_eid_dnn_16-0-10_bear_10_n02134084_617.png,n02134084_617.png,0.0,-0.4811173,1.5944189,-1.4676257
convnext_large,1,582,NaN,dog,dog,1-0-10,0582_eid_dnn_1-0-10_dog_10_n02093991_4081.png,n02093991_4081.png,1.0,0.7525429,0.35079092,0.28408158
convnext_large,1,583,NaN,elephant,elephant,16-0-10,0583_eid_dnn_16-0-10_elephant_10_n02504458_1727.png,n02504458_1727.png,1.0,1.3354595,1.1878395,0.10438308
convnext_large,1,584,NaN,cat,clock,32-0-10,0584_eid_dnn_32-0-10_clock_10_n04548280_16295.png,n04548280_16295.png,0.0,-0.007426133,1.1711494,-0.83337873
convnext_large,1,585,NaN,elephant,boat,4-0-10,0585_eid_dnn_4-0-10_boat_10_n02951358_16217.png,n02951358_16217.png,0.0,1.882439,3.7306142,-1.3068572
convnext_large,1,586,NaN,elephant,airplane,8-0-10,0586_eid_dnn_8-0-10_airplane_10_n02690373_7536.png,n02690373_7536.png,0.0,1.5592761,3.8067012,-1.5891695
convnext_large,1,587,NaN,cat,cat,8-0-10,0587_eid_dnn_8-0-10_cat_10_n02123597_22140.png,n02123597_22140.png,1.0,2.4968987,0.9720517,1.0782297
convnext_large,1,588,NaN,clock,bottle,128-0-10,0588_eid_dnn_128-0-10_bottle_10_n04591713_8914.png,n04591713_8914.png,0.0,-0.23720135,1.4461085,-1.1902798
convnext_large,1,589,NaN,clock,car,128-0-10,0589_eid_dnn_128-0-10_car_10_n03100240_963.png,n03100240_963.png,0.0,-0.7579959,0.481541,-0.87648493
convnext_large,1,590,NaN,clock,boat,32-0-10,0590_eid_dnn_32-0-10_boat_10_n02951358_18762.png,n02951358_18762.png,0.0,-0.4067576,0.9828641,-0.98261094
convnext_large,1,591,NaN,cat,bear,32-0-10,0591_eid_dnn_32-0-10_bear_10_n02134418_2633.png,n02134418_2633.png,0.0,0.25868547,0.76583767,-0.35861078
convnext_large,1,592,NaN,dog,airplane,64-0-10,0592_eid_dnn_64-0-10_airplane_10_n02690373_1169.png,n02690373_1169.png,0.0,-0.9346218,0.6390119,-1.112727
convnext_large,1,593,NaN,bicycle,bicycle,2-0-10,0593_eid_dnn_2-0-10_bicycle_10_n03792782_12704.png,n03792782_12704.png,1.0,7.836379,0.40402943,5.255465
convnext_large,1,594,NaN,cat,dog,64-0-10,0594_eid_dnn_64-0-10_dog_10_n02088238_2973.png,n02088238_2973.png,0.0,0.6016006,0.62660426,-0.017680267
convnext_large,1,595,NaN,cat,knife,32-0-10,0595_eid_dnn_32-0-10_knife_10_n03041632_41493.png,n03041632_41493.png,0.0,-0.26397625,1.0570053,-0.934075
convnext_large,1,596,NaN,clock,bottle,128-0-10,0596_eid_dnn_128-0-10_bottle_10_n03983396_2959.png,n03983396_2959.png,0.0,-0.37002015,0.80001193,-0.82733756
convnext_large,1,597,NaN,clock,clock,1-0-10,0597_eid_dnn_1-0-10_clock_10_n02708093_2843.png,n02708093_2843.png,1.0,5.750711,0.2934052,3.8588982
convnext_large,1,598,NaN,elephant,oven,8-0-10,0598_eid_dnn_8-0-10_oven_10_n04111531_12952.png,n04111531_12952.png,0.0,-0.56737477,5.107996,-4.013093
convnext_large,1,599,NaN,elephant,bear,16-0-10,0599_eid_dnn_16-0-10_bear_10_n02134418_2891.png,n02134418_2891.png,0.0,0.544916,2.9425416,-1.6953773
convnext_large,1,600,NaN,cat,truck,32-0-10,0600_eid_dnn_32-0-10_truck_10_n03417042_3862.png,n03417042_3862.png,0.0,-0.818382,0.6421316,-1.032739
convnext_large,1,601,NaN,cat,elephant,16-0-10,0601_eid_dnn_16-0-10_elephant_10_n02504458_2054.png,n02504458_2054.png,0.0,0.97317797,1.6161855,-0.45467502
convnext_large,1,602,NaN,airplane,airplane,1-0-10,0602_eid_dnn_1-0-10_airplane_10_n02690373_7355.png,n02690373_7355.png,1.0,8.94301,0.49201265,5.9757576
convnext_large,1,603,NaN,clock,knife,128-0-10,0603_eid_dnn_128-0-10_knife_10_n03041632_22738.png,n03041632_22738.png,0.0,-0.8184638,1.2231115,-1.4436119
convnext_large,1,604,NaN,oven,oven,1-0-10,0604_eid_dnn_1-0-10_oven_10_n04111531_4250.png,n04111531_4250.png,1.0,8.948422,0.99101037,5.6267405
convnext_large,1,605,NaN,knife,clock,8-0-10,0605_eid_dnn_8-0-10_clock_10_n04548280_7826.png,n04548280_7826.png,0.0,-0.5176914,0.98140526,-1.0600214
convnext_large,1,606,NaN,dog,clock,64-0-10,0606_eid_dnn_64-0-10_clock_10_n04548280_17198.png,n04548280_17198.png,0.0,-0.09727428,0.92432714,-0.7223813
convnext_large,1,607,NaN,clock,bicycle,128-0-10,0607_eid_dnn_128-0-10_bicycle_10_n02835271_4726.png,n02835271_4726.png,0.0,0.16229074,0.68229795,-0.3677006
convnext_large,1,608,NaN,cat,chair,128-0-10,0608_eid_dnn_128-0-10_chair_10_n03376595_9079.png,n03376595_9079.png,0.0,-0.69567245,0.640199,-0.9446038
convnext_large,1,609,NaN,airplane,airplane,4-0-10,0609_eid_dnn_4-0-10_airplane_10_n02690373_2324.png,n02690373_2324.png,1.0,2.3695118,0.7874913,1.1186575
convnext_large,1,610,NaN,clock,dog,64-0-10,0610_eid_dnn_64-0-10_dog_10_n02104029_5234.png,n02104029_5234.png,0.0,0.30703688,1.0371816,-0.5162903
convnext_large,1,611,NaN,bottle,bottle,2-0-10,0611_eid_dnn_2-0-10_bottle_10_n04591713_335.png,n04591713_335.png,1.0,3.6215332,0.6705907,2.0866315
convnext_large,1,612,NaN,airplane,airplane,2-0-10,0612_eid_dnn_2-0-10_airplane_10_n02690373_4148.png,n02690373_4148.png,1.0,8.933238,0.5528018,5.9258633
convnext_large,1,613,NaN,bear,bear,2-0-10,0613_eid_dnn_2-0-10_bear_10_n02134084_18800.png,n02134084_18800.png,1.0,2.7551234,0.42594412,1.6469785
convnext_large,1,614,NaN,clock,boat,16-0-10,0614_eid_dnn_16-0-10_boat_10_n03662601_1191.png,n03662601_1191.png,0.0,-0.035987996,0.94789267,-0.6957087
convnext_large,1,615,NaN,keyboard,keyboard,2-0-10,0615_eid_dnn_2-0-10_keyboard_10_n04505470_4505.png,n04505470_4505.png,1.0,4.9918146,0.2796152,3.3320282
convnext_large,1,616,NaN,knife,knife,4-0-10,0616_eid_dnn_4-0-10_knife_10_n03041632_1607.png,n03041632_1607.png,1.0,1.8341429,0.28113446,1.0981429
convnext_large,1,617,NaN,dog,car,32-0-10,0617_eid_dnn_32-0-10_car_10_n03100240_11224.png,n03100240_11224.png,0.0,-0.2838306,0.97785866,-0.8921491
convnext_large,1,618,NaN,clock,airplane,128-0-10,0618_eid_dnn_128-0-10_airplane_10_n02690373_7142.png,n02690373_7142.png,0.0,-1.053238,0.97785074,-1.4361967
convnext_large,1,619,NaN,airplane,airplane,4-0-10,0619_eid_dnn_4-0-10_airplane_10_n02690373_18693.png,n02690373_18693.png,1.0,3.8965287,0.8174051,2.1772692
convnext_large,1,620,NaN,elephant,chair,8-0-10,0620_eid_dnn_8-0-10_chair_10_n03376595_3214.png,n03376595_3214.png,0.0,-0.6062038,1.098079,-1.20511
convnext_large,1,621,NaN,elephant,boat,16-0-10,0621_eid_dnn_16-0-10_boat_10_n03662601_17198.png,n03662601_17198.png,0.0,0.6008441,2.218531,-1.1438773
convnext_large,1,622,NaN,cat,knife,32-0-10,0622_eid_dnn_32-0-10_knife_10_n03041632_27879.png,n03041632_27879.png,0.0,-0.25023395,1.0474837,-0.9176249
convnext_large,1,623,NaN,chair,chair,1-0-10,0623_eid_dnn_1-0-10_chair_10_n02791124_3601.png,n02791124_3601.png,1.0,1.2172801,0.46733576,0.5302908
convnext_large,1,624,NaN,cat,bicycle,16-0-10,0624_eid_dnn_16-0-10_bicycle_10_n03792782_10876.png,n03792782_10876.png,0.0,0.13418281,2.076773,-1.3736187
convnext_large,1,625,NaN,dog,clock,4-0-10,0625_eid_dnn_4-0-10_clock_10_n03196217_5568.png,n03196217_5568.png,0.0,-1.108318,0.45989886,-1.1088967
convnext_large,1,626,NaN,cat,truck,16-0-10,0626_eid_dnn_16-0-10_truck_10_n04467665_2695.png,n04467665_2695.png,0.0,-0.47649613,1.9170675,-1.6925052
convnext_large,1,627,NaN,elephant,elephant,8-0-10,0627_eid_dnn_8-0-10_elephant_10_n02504013_4005.png,n02504013_4005.png,1.0,4.1087604,1.442723,1.8851731
convnext_large,1,628,NaN,clock,elephant,128-0-10,0628_eid_dnn_128-0-10_elephant_10_n02504458_3094.png,n02504458_3094.png,0.0,-1.0909886,1.4362545,-1.7870308
convnext_large,1,629,NaN,dog,bear,8-0-10,0629_eid_dnn_8-0-10_bear_10_n02134418_6133.png,n02134418_6133.png,0.0,1.1817758,1.7791729,-0.42242354
convnext_large,1,630,NaN,clock,truck,128-0-10,0630_eid_dnn_128-0-10_truck_10_n03796401_9953.png,n03796401_9953.png,0.0,-0.9366635,0.76675814,-1.204501
convnext_large,1,631,NaN,cat,cat,8-0-10,0631_eid_dnn_8-0-10_cat_10_n02123597_10199.png,n02123597_10199.png,1.0,1.8815027,1.0770658,0.5688228
convnext_large,1,632,NaN,cat,cat,2-0-10,0632_eid_dnn_2-0-10_cat_10_n02124075_11153.png,n02124075_11153.png,1.0,3.9910984,1.6734302,1.6388389
convnext_large,1,633,NaN,dog,bicycle,64-0-10,0633_eid_dnn_64-0-10_bicycle_10_n02835271_7900.png,n02835271_7900.png,0.0,0.22473055,1.0563482,-0.5880425
convnext_large,1,634,NaN,knife,knife,4-0-10,0634_eid_dnn_4-0-10_knife_10_n03041632_12748.png,n03041632_12748.png,1.0,8.247495,0.23639914,5.6647005
convnext_large,1,635,NaN,cat,bear,16-0-10,0635_eid_dnn_16-0-10_bear_10_n02134418_244.png,n02134418_244.png,0.0,-0.3123138,0.79676396,-0.7842364
convnext_large,1,636,NaN,bicycle,bicycle,4-0-10,0636_eid_dnn_4-0-10_bicycle_10_n03792782_22908.png,n03792782_22908.png,1.0,1.3181825,0.34426486,0.6886638
convnext_large,1,637,NaN,elephant,elephant,8-0-10,0637_eid_dnn_8-0-10_elephant_10_n02504458_3234.png,n02504458_3234.png,1.0,1.2902825,1.2294447,0.043018784
convnext_large,1,638,NaN,clock,clock,1-0-10,0638_eid_dnn_1-0-10_clock_10_n03196217_3063.png,n03196217_3063.png,1.0,2.9463336,0.68134737,1.6015872
convnext_large,1,639,NaN,clock,clock,4-0-10,0639_eid_dnn_4-0-10_clock_10_n03196217_5688.png,n03196217_5688.png,1.0,2.4042368,0.70163506,1.2039212
convnext_large,1,640,NaN,bottle,bottle,2-0-10,0640_eid_dnn_2-0-10_bottle_10_n04591713_2123.png,n04591713_2123.png,1.0,3.119776,0.56002927,1.8100144
convnext_large,1,641,NaN,knife,knife,2-0-10,0641_eid_dnn_2-0-10_knife_10_n03041632_13424.png,n03041632_13424.png,1.0,7.554125,0.06764878,5.293738
convnext_large,1,642,NaN,cat,chair,64-0-10,0642_eid_dnn_64-0-10_chair_10_n03376595_989.png,n03376595_989.png,0.0,-0.65870667,0.96156067,-1.1457021
convnext_large,1,643,NaN,elephant,elephant,8-0-10,0643_eid_dnn_8-0-10_elephant_10_n02504458_3953.png,n02504458_3953.png,1.0,1.638807,1.6370928,0.0012121433
convnext_large,1,644,NaN,cat,bird,4-0-10,0644_eid_dnn_4-0-10_bird_10_n01796340_4181.png,n01796340_4181.png,0.0,0.7266095,1.5556902,-0.5862486
convnext_large,1,645,NaN,bicycle,bicycle,1-0-10,0645_eid_dnn_1-0-10_bicycle_10_n02835271_17357.png,n02835271_17357.png,1.0,5.1158633,0.85049474,3.016071
convnext_large,1,646,NaN,bird,bird,1-0-10,0646_eid_dnn_1-0-10_bird_10_n02006656_9134.png,n02006656_9134.png,1.0,0.7865338,0.2831353,0.3559565
convnext_large,1,647,NaN,clock,bear,64-0-10,0647_eid_dnn_64-0-10_bear_10_n02134418_1307.png,n02134418_1307.png,0.0,-0.74490845,0.60552406,-0.9549
convnext_large,1,648,NaN,dog,chair,64-0-10,0648_eid_dnn_64-0-10_chair_10_n02791124_4432.png,n02791124_4432.png,0.0,-0.31675014,0.57627606,-0.6314649
convnext_large,1,649,NaN,dog,oven,32-0-10,0649_eid_dnn_32-0-10_oven_10_n04111531_21309.png,n04111531_21309.png,0.0,-1.2631893,0.98530537,-1.5899258
convnext_large,1,650,NaN,dog,car,16-0-10,0650_eid_dnn_16-0-10_car_10_n04285008_6325.png,n04285008_6325.png,0.0,-0.4594086,1.2460763,-1.20596
convnext_large,1,651,NaN,dog,boat,32-0-10,0651_eid_dnn_32-0-10_boat_10_n03344393_5599.png,n03344393_5599.png,0.0,-0.15888426,0.95097554,-0.78478944
convnext_large,1,652,NaN,dog,cat,32-0-10,0652_eid_dnn_32-0-10_cat_10_n02123159_7616.png,n02123159_7616.png,0.0,0.47307184,0.88296324,-0.289837
convnext_large,1,653,NaN,car,car,4-0-10,0653_eid_dnn_4-0-10_car_10_n02814533_11273.png,n02814533_11273.png,1.0,2.6588862,1.9962332,0.46856642
convnext_large,1,654,NaN,oven,oven,1-0-10,0654_eid_dnn_1-0-10_oven_10_n04111531_5357.png,n04111531_5357.png,1.0,6.844798,4.270747,1.8201289
convnext_large,1,655,NaN,airplane,truck,4-0-10,0655_eid_dnn_4-0-10_truck_10_n04467665_68250.png,n04467665_68250.png,0.0,1.4227405,1.4741559,-0.03635621
convnext_large,1,656,NaN,dog,dog,2-0-10,0656_eid_dnn_2-0-10_dog_10_n02102177_3185.png,n02102177_3185.png,1.0,0.9016345,0.29947165,0.42579344
convnext_large,1,657,NaN,dog,truck,8-0-10,0657_eid_dnn_8-0-10_truck_10_n03417042_11439.png,n03417042_11439.png,0.0,-0.2461352,1.5599214,-1.2770749
convnext_large,1,658,NaN,keyboard,keyboard,8-0-10,0658_eid_dnn_8-0-10_keyboard_10_n04505470_4776.png,n04505470_4776.png,1.0,2.827274,0.23314959,1.834323
convnext_large,1,659,NaN,chair,chair,1-0-10,0659_eid_dnn_1-0-10_chair_10_n04099969_4675.png,n04099969_4675.png,1.0,2.6970081,1.7326996,0.6818691
convnext_large,1,660,NaN,dog,chair,16-0-10,0660_eid_dnn_16-0-10_chair_10_n02791124_14.png,n02791124_14.png,0.0,-0.08888695,0.9664864,-0.74626166
convnext_large,1,661,NaN,dog,dog,1-0-10,0661_eid_dnn_1-0-10_dog_10_n02086646_5896.png,n02086646_5896.png,1.0,0.6889966,0.4150422,0.19371504
convnext_large,1,662,NaN,elephant,truck,16-0-10,0662_eid_dnn_16-0-10_truck_10_n03796401_7421.png,n03796401_7421.png,0.0,-1.0891123,1.8124526,-2.051716
convnext_large,1,663,NaN,dog,keyboard,128-0-10,0663_eid_dnn_128-0-10_keyboard_10_n04505470_713.png,n04505470_713.png,0.0,-1.4025145,0.6146079,-1.4263209
convnext_large,1,664,NaN,cat,clock,64-0-10,0664_eid_dnn_64-0-10_clock_10_n04548280_1324.png,n04548280_1324.png,0.0,0.87807673,1.059103,-0.12800491
convnext_large,1,665,NaN,bottle,bottle,8-0-10,0665_eid_dnn_8-0-10_bottle_10_n04591713_4474.png,n04591713_4474.png,1.0,2.2598648,0.24449867,1.425079
convnext_large,1,666,NaN,elephant,bird,16-0-10,0666_eid_dnn_16-0-10_bird_10_n01855672_4659.png,n01855672_4659.png,0.0,-0.55399424,3.0730324,-2.5646951
convnext_large,1,667,NaN,keyboard,keyboard,1-0-10,0667_eid_dnn_1-0-10_keyboard_10_n03085013_8677.png,n03085013_8677.png,1.0,6.1755276,0.27239886,4.1741424
convnext_large,1,668,NaN,bear,bear,2-0-10,0668_eid_dnn_2-0-10_bear_10_n02134418_3584.png,n02134418_3584.png,1.0,2.9530327,0.6360084,1.6383836
convnext_large,1,669,NaN,airplane,airplane,4-0-10,0669_eid_dnn_4-0-10_airplane_10_n02690373_4061.png,n02690373_4061.png,1.0,7.321871,0.9403301,4.5124307
convnext_large,1,670,NaN,cat,bear,4-0-10,0670_eid_dnn_4-0-10_bear_10_n02133161_499.png,n02133161_499.png,0.0,1.4531901,1.5656048,-0.07948921
