subj,session,trial,rt,object_response,category,condition,imagename,filename,is_correct,targ_act,max_nontarg_act,decision_margin
alexnet2023_baseline_pgd,1,1,NaN,elephant,oven,16-0-10,0001_eid_dnn_16-0-10_oven_10_n04111531_13542.png,n04111531_13542.png,0.0,1.9231986,3.9125993,-1.4067187
alexnet2023_baseline_pgd,1,2,NaN,car,car,4-0-10,0002_eid_dnn_4-0-10_car_10_n03100240_5570.png,n03100240_5570.png,1.0,6.895415,4.1974435,1.9077538
alexnet2023_baseline_pgd,1,3,NaN,cat,bird,8-0-10,0003_eid_dnn_8-0-10_bird_10_n01820546_4847.png,n01820546_4847.png,0.0,-1.1235983,3.1251793,-3.0043395
alexnet2023_baseline_pgd,1,4,NaN,airplane,bear,32-0-10,0004_eid_dnn_32-0-10_bear_10_n02133161_15561.png,n02133161_15561.png,0.0,1.599998,3.072067,-1.04091
alexnet2023_baseline_pgd,1,5,NaN,airplane,bird,64-0-10,0005_eid_dnn_64-0-10_bird_10_n01531178_9584.png,n01531178_9584.png,0.0,-0.8336937,2.2523966,-2.1821954
alexnet2023_baseline_pgd,1,6,NaN,elephant,bicycle,8-0-10,0006_eid_dnn_8-0-10_bicycle_10_n02835271_18846.png,n02835271_18846.png,0.0,0.39763895,3.083496,-1.8991878
alexnet2023_baseline_pgd,1,7,NaN,bottle,oven,4-0-10,0007_eid_dnn_4-0-10_oven_10_n04111531_73.png,n04111531_73.png,0.0,3.940845,4.9945707,-0.7450966
alexnet2023_baseline_pgd,1,8,NaN,clock,clock,2-0-10,0008_eid_dnn_2-0-10_clock_10_n04548280_6159.png,n04548280_6159.png,1.0,5.177505,3.8108456,0.96637416
alexnet2023_baseline_pgd,1,9,NaN,oven,chair,32-0-10,0009_eid_dnn_32-0-10_chair_10_n03376595_9395.png,n03376595_9395.png,0.0,-0.81119794,3.2194111,-2.8500712
alexnet2023_baseline_pgd,1,10,NaN,elephant,bicycle,64-0-10,0010_eid_dnn_64-0-10_bicycle_10_n02835271_1918.png,n02835271_1918.png,0.0,-1.5697103,1.2620219,-2.0023372
alexnet2023_baseline_pgd,1,11,NaN,cat,bicycle,128-0-10,0011_eid_dnn_128-0-10_bicycle_10_n02835271_42320.png,n02835271_42320.png,0.0,-2.6243782,2.2561462,-3.4510522
alexnet2023_baseline_pgd,1,12,NaN,elephant,elephant,1-0-10,0012_eid_dnn_1-0-10_elephant_10_n02504458_3628.png,n02504458_3628.png,1.0,17.402142,4.871945,8.860188
alexnet2023_baseline_pgd,1,13,NaN,bear,knife,64-0-10,0013_eid_dnn_64-0-10_knife_10_n03041632_86554.png,n03041632_86554.png,0.0,-1.8296307,1.7587569,-2.537373
alexnet2023_baseline_pgd,1,14,NaN,bear,cat,8-0-10,0014_eid_dnn_8-0-10_cat_10_n02123394_1726.png,n02123394_1726.png,0.0,2.5412035,3.497407,-0.676138
alexnet2023_baseline_pgd,1,15,NaN,elephant,cat,32-0-10,0015_eid_dnn_32-0-10_cat_10_n02123597_6721.png,n02123597_6721.png,0.0,1.287845,3.6470542,-1.6682128
alexnet2023_baseline_pgd,1,16,NaN,oven,oven,2-0-10,0016_eid_dnn_2-0-10_oven_10_n04111531_21869.png,n04111531_21869.png,1.0,4.1665444,3.8452063,0.2272204
alexnet2023_baseline_pgd,1,17,NaN,elephant,bear,4-0-10,0017_eid_dnn_4-0-10_bear_10_n02134084_2949.png,n02134084_2949.png,0.0,4.008206,4.534814,-0.3723681
alexnet2023_baseline_pgd,1,18,NaN,elephant,truck,8-0-10,0018_eid_dnn_8-0-10_truck_10_n03417042_18743.png,n03417042_18743.png,0.0,-2.8595738,4.3676567,-5.110424
alexnet2023_baseline_pgd,1,19,NaN,elephant,bird,16-0-10,0019_eid_dnn_16-0-10_bird_10_n01616318_4246.png,n01616318_4246.png,0.0,0.27566454,4.959751,-3.3121495
alexnet2023_baseline_pgd,1,20,NaN,elephant,bicycle,8-0-10,0020_eid_dnn_8-0-10_bicycle_10_n03792782_66771.png,n03792782_66771.png,0.0,-0.3142925,5.1415462,-3.8578606
alexnet2023_baseline_pgd,1,21,NaN,keyboard,keyboard,2-0-10,0021_eid_dnn_2-0-10_keyboard_10_n04505470_3531.png,n04505470_3531.png,1.0,11.865629,5.4888825,4.509041
alexnet2023_baseline_pgd,1,22,NaN,bottle,clock,8-0-10,0022_eid_dnn_8-0-10_clock_10_n04548280_6463.png,n04548280_6463.png,0.0,1.4506937,3.8464084,-1.6940262
alexnet2023_baseline_pgd,1,23,NaN,bear,keyboard,16-0-10,0023_eid_dnn_16-0-10_keyboard_10_n04505470_4974.png,n04505470_4974.png,0.0,-3.4619396,3.0365138,-4.5951004
alexnet2023_baseline_pgd,1,24,NaN,bird,chair,4-0-10,0024_eid_dnn_4-0-10_chair_10_n03376595_360.png,n03376595_360.png,0.0,-1.6442347,2.0936255,-2.6430664
alexnet2023_baseline_pgd,1,25,NaN,airplane,dog,16-0-10,0025_eid_dnn_16-0-10_dog_10_n02097130_2752.png,n02097130_2752.png,0.0,0.7782573,2.3906112,-1.1401063
alexnet2023_baseline_pgd,1,26,NaN,elephant,bicycle,2-0-10,0026_eid_dnn_2-0-10_bicycle_10_n02835271_3406.png,n02835271_3406.png,0.0,3.2020006,3.4139113,-0.14984351
alexnet2023_baseline_pgd,1,27,NaN,bottle,bottle,16-0-10,0027_eid_dnn_16-0-10_bottle_10_n04560804_11732.png,n04560804_11732.png,1.0,1.7377397,1.6593261,0.055446792
alexnet2023_baseline_pgd,1,28,NaN,bear,bottle,32-0-10,0028_eid_dnn_32-0-10_bottle_10_n04591713_13589.png,n04591713_13589.png,0.0,-0.52931327,1.7806072,-1.6333605
alexnet2023_baseline_pgd,1,29,NaN,cat,cat,2-0-10,0029_eid_dnn_2-0-10_cat_10_n02123045_4009.png,n02123045_4009.png,1.0,10.222743,0.37157518,6.9658275
alexnet2023_baseline_pgd,1,30,NaN,bottle,chair,8-0-10,0030_eid_dnn_8-0-10_chair_10_n02791124_1704.png,n02791124_1704.png,0.0,0.5137569,0.7553152,-0.17080753
alexnet2023_baseline_pgd,1,31,NaN,elephant,bicycle,128-0-10,0031_eid_dnn_128-0-10_bicycle_10_n03792782_28395.png,n03792782_28395.png,0.0,-0.8807428,0.92996615,-1.2803646
alexnet2023_baseline_pgd,1,32,NaN,bear,truck,16-0-10,0032_eid_dnn_16-0-10_truck_10_n03417042_4288.png,n03417042_4288.png,0.0,-0.9197059,2.8813071,-2.6877222
alexnet2023_baseline_pgd,1,33,NaN,keyboard,keyboard,1-0-10,0033_eid_dnn_1-0-10_keyboard_10_n04505470_3371.png,n04505470_3371.png,1.0,9.901756,3.7088497,4.379046
alexnet2023_baseline_pgd,1,34,NaN,cat,cat,1-0-10,0034_eid_dnn_1-0-10_cat_10_n02124075_13436.png,n02124075_13436.png,1.0,7.518749,2.5989213,3.4788437
alexnet2023_baseline_pgd,1,35,NaN,oven,dog,32-0-10,0035_eid_dnn_32-0-10_dog_10_n02097209_8270.png,n02097209_8270.png,0.0,0.24758953,1.9369862,-1.1945838
alexnet2023_baseline_pgd,1,36,NaN,cat,clock,128-0-10,0036_eid_dnn_128-0-10_clock_10_n04548280_7795.png,n04548280_7795.png,0.0,-0.5239288,1.6062231,-1.5062449
alexnet2023_baseline_pgd,1,37,NaN,airplane,car,32-0-10,0037_eid_dnn_32-0-10_car_10_n03100240_21737.png,n03100240_21737.png,0.0,-1.0372254,2.540293,-2.5296876
alexnet2023_baseline_pgd,1,38,NaN,bottle,clock,128-0-10,0038_eid_dnn_128-0-10_clock_10_n02708093_1862.png,n02708093_1862.png,0.0,0.25243795,0.78777295,-0.37853903
alexnet2023_baseline_pgd,1,39,NaN,dog,bicycle,64-0-10,0039_eid_dnn_64-0-10_bicycle_10_n03792782_9412.png,n03792782_9412.png,0.0,-0.1666459,1.3889319,-1.0999596
alexnet2023_baseline_pgd,1,40,NaN,airplane,bear,32-0-10,0040_eid_dnn_32-0-10_bear_10_n02134418_163.png,n02134418_163.png,0.0,1.164319,2.668669,-1.0637361
alexnet2023_baseline_pgd,1,41,NaN,cat,keyboard,16-0-10,0041_eid_dnn_16-0-10_keyboard_10_n03085013_25675.png,n03085013_25675.png,0.0,-2.6601856,2.730376,-3.8117027
alexnet2023_baseline_pgd,1,42,NaN,oven,truck,2-0-10,0042_eid_dnn_2-0-10_truck_10_n03417042_1716.png,n03417042_1716.png,0.0,3.7388656,5.122564,-0.9784224
alexnet2023_baseline_pgd,1,43,NaN,cat,keyboard,128-0-10,0043_eid_dnn_128-0-10_keyboard_10_n03085013_18854.png,n03085013_18854.png,0.0,-1.0052202,0.77207327,-1.2567363
alexnet2023_baseline_pgd,1,44,NaN,oven,bottle,32-0-10,0044_eid_dnn_32-0-10_bottle_10_n04591713_4865.png,n04591713_4865.png,0.0,-0.042878944,1.7697517,-1.2817235
alexnet2023_baseline_pgd,1,45,NaN,airplane,bicycle,32-0-10,0045_eid_dnn_32-0-10_bicycle_10_n03792782_693.png,n03792782_693.png,0.0,0.30353332,2.164303,-1.3157629
alexnet2023_baseline_pgd,1,46,NaN,oven,bottle,1-0-10,0046_eid_dnn_1-0-10_bottle_10_n04557648_264.png,n04557648_264.png,0.0,-0.75281894,4.547553,-3.747929
alexnet2023_baseline_pgd,1,47,NaN,knife,knife,2-0-10,0047_eid_dnn_2-0-10_knife_10_n03041632_25512.png,n03041632_25512.png,1.0,5.6498046,1.9643939,2.605979
alexnet2023_baseline_pgd,1,48,NaN,bear,boat,16-0-10,0048_eid_dnn_16-0-10_boat_10_n03344393_2381.png,n03344393_2381.png,0.0,0.71748704,3.4582222,-1.9379923
alexnet2023_baseline_pgd,1,49,NaN,cat,dog,128-0-10,0049_eid_dnn_128-0-10_dog_10_n02110627_17670.png,n02110627_17670.png,0.0,0.5480488,5.8471093,-3.7470016
alexnet2023_baseline_pgd,1,50,NaN,oven,bear,64-0-10,0050_eid_dnn_64-0-10_bear_10_n02133161_15981.png,n02133161_15981.png,0.0,-0.31362957,2.9051259,-2.2760038
alexnet2023_baseline_pgd,1,51,NaN,elephant,elephant,16-0-10,0051_eid_dnn_16-0-10_elephant_10_n02504458_3570.png,n02504458_3570.png,1.0,5.3968234,3.337973,1.455827
alexnet2023_baseline_pgd,1,52,NaN,bottle,truck,4-0-10,0052_eid_dnn_4-0-10_truck_10_n03417042_6241.png,n03417042_6241.png,0.0,1.430215,5.318094,-2.7491455
alexnet2023_baseline_pgd,1,53,NaN,elephant,bird,8-0-10,0053_eid_dnn_8-0-10_bird_10_n02025239_17670.png,n02025239_17670.png,0.0,1.2881585,3.4904463,-1.5572525
alexnet2023_baseline_pgd,1,54,NaN,elephant,dog,16-0-10,0054_eid_dnn_16-0-10_dog_10_n02106030_19249.png,n02106030_19249.png,0.0,1.5464237,2.9737916,-1.0093015
alexnet2023_baseline_pgd,1,55,NaN,elephant,keyboard,32-0-10,0055_eid_dnn_32-0-10_keyboard_10_n04505470_2326.png,n04505470_2326.png,0.0,-3.6481051,2.8119855,-4.567974
alexnet2023_baseline_pgd,1,56,NaN,elephant,dog,16-0-10,0056_eid_dnn_16-0-10_dog_10_n02107142_9379.png,n02107142_9379.png,0.0,0.75323653,4.772953,-2.8423686
alexnet2023_baseline_pgd,1,57,NaN,bear,cat,64-0-10,0057_eid_dnn_64-0-10_cat_10_n02123394_1828.png,n02123394_1828.png,0.0,1.2786161,1.4006115,-0.08626381
alexnet2023_baseline_pgd,1,58,NaN,oven,car,32-0-10,0058_eid_dnn_32-0-10_car_10_n03100240_4605.png,n03100240_4605.png,0.0,-2.744435,3.6101499,-4.49337
alexnet2023_baseline_pgd,1,59,NaN,elephant,bicycle,4-0-10,0059_eid_dnn_4-0-10_bicycle_10_n03792782_6765.png,n03792782_6765.png,0.0,2.5447786,4.8748555,-1.6476133
alexnet2023_baseline_pgd,1,60,NaN,boat,boat,8-0-10,0060_eid_dnn_8-0-10_boat_10_n03344393_8455.png,n03344393_8455.png,1.0,3.3043277,2.138318,0.82449335
alexnet2023_baseline_pgd,1,61,NaN,dog,oven,16-0-10,0061_eid_dnn_16-0-10_oven_10_n04111531_8603.png,n04111531_8603.png,0.0,2.6429543,2.9427922,-0.21201737
alexnet2023_baseline_pgd,1,62,NaN,bird,bird,2-0-10,0062_eid_dnn_2-0-10_bird_10_n02051845_2574.png,n02051845_2574.png,1.0,6.4391437,1.7881005,3.288784
alexnet2023_baseline_pgd,1,63,NaN,boat,boat,4-0-10,0063_eid_dnn_4-0-10_boat_10_n04612504_15875.png,n04612504_15875.png,1.0,6.041548,3.8701823,1.5353873
alexnet2023_baseline_pgd,1,64,NaN,bottle,bottle,4-0-10,0064_eid_dnn_4-0-10_bottle_10_n03983396_7337.png,n03983396_7337.png,1.0,4.995853,2.0926085,2.052904
alexnet2023_baseline_pgd,1,65,NaN,elephant,clock,8-0-10,0065_eid_dnn_8-0-10_clock_10_n02708093_6822.png,n02708093_6822.png,0.0,-1.1474262,5.692342,-4.8364463
alexnet2023_baseline_pgd,1,66,NaN,truck,truck,2-0-10,0066_eid_dnn_2-0-10_truck_10_n04467665_15994.png,n04467665_15994.png,1.0,6.182232,5.0888915,0.7731084
alexnet2023_baseline_pgd,1,67,NaN,cat,cat,128-0-10,0067_eid_dnn_128-0-10_cat_10_n02123597_6291.png,n02123597_6291.png,1.0,1.5024167,0.6364275,0.6123468
alexnet2023_baseline_pgd,1,68,NaN,bear,bird,8-0-10,0068_eid_dnn_8-0-10_bird_10_n01817953_1734.png,n01817953_1734.png,0.0,2.2172635,5.721611,-2.477948
alexnet2023_baseline_pgd,1,69,NaN,elephant,elephant,32-0-10,0069_eid_dnn_32-0-10_elephant_10_n02504458_6880.png,n02504458_6880.png,1.0,2.064212,1.9952198,0.048784893
alexnet2023_baseline_pgd,1,70,NaN,bear,cat,16-0-10,0070_eid_dnn_16-0-10_cat_10_n02123597_13197.png,n02123597_13197.png,0.0,2.6688893,3.7115502,-0.7372726
alexnet2023_baseline_pgd,1,71,NaN,elephant,bicycle,64-0-10,0071_eid_dnn_64-0-10_bicycle_10_n03792782_973.png,n03792782_973.png,0.0,0.4966936,1.7604612,-0.89361864
alexnet2023_baseline_pgd,1,72,NaN,cat,cat,2-0-10,0072_eid_dnn_2-0-10_cat_10_n02124075_8310.png,n02124075_8310.png,1.0,10.336788,3.6022148,4.7620625
alexnet2023_baseline_pgd,1,73,NaN,elephant,oven,32-0-10,0073_eid_dnn_32-0-10_oven_10_n04111531_5168.png,n04111531_5168.png,0.0,0.1081198,3.2702203,-2.2359428
alexnet2023_baseline_pgd,1,74,NaN,airplane,airplane,1-0-10,0074_eid_dnn_1-0-10_airplane_10_n02690373_4893.png,n02690373_4893.png,1.0,11.569201,4.4544916,5.0308595
alexnet2023_baseline_pgd,1,75,NaN,dog,dog,1-0-10,0075_eid_dnn_1-0-10_dog_10_n02086240_3614.png,n02086240_3614.png,1.0,6.320235,6.090075,0.16274753
alexnet2023_baseline_pgd,1,76,NaN,oven,oven,16-0-10,0076_eid_dnn_16-0-10_oven_10_n04111531_2937.png,n04111531_2937.png,1.0,4.569407,2.9782567,1.1251131
alexnet2023_baseline_pgd,1,77,NaN,airplane,clock,1-0-10,0077_eid_dnn_1-0-10_clock_10_n03196217_2022.png,n03196217_2022.png,0.0,0.859947,3.5897772,-1.9302815
alexnet2023_baseline_pgd,1,78,NaN,cat,bottle,64-0-10,0078_eid_dnn_64-0-10_bottle_10_n04591713_2732.png,n04591713_2732.png,0.0,0.23055682,1.9041742,-1.1834263
alexnet2023_baseline_pgd,1,79,NaN,car,car,2-0-10,0079_eid_dnn_2-0-10_car_10_n03100240_8794.png,n03100240_8794.png,1.0,11.132518,6.2737007,3.4357026
alexnet2023_baseline_pgd,1,80,NaN,elephant,airplane,16-0-10,0080_eid_dnn_16-0-10_airplane_10_n02690373_3640.png,n02690373_3640.png,0.0,0.6221854,3.3184173,-1.9065238
alexnet2023_baseline_pgd,1,81,NaN,oven,bicycle,64-0-10,0081_eid_dnn_64-0-10_bicycle_10_n03792782_41097.png,n03792782_41097.png,0.0,0.6607504,1.3052812,-0.45575207
alexnet2023_baseline_pgd,1,82,NaN,airplane,dog,64-0-10,0082_eid_dnn_64-0-10_dog_10_n02090721_6770.png,n02090721_6770.png,0.0,-0.30242452,1.5266994,-1.293386
alexnet2023_baseline_pgd,1,83,NaN,airplane,cat,16-0-10,0083_eid_dnn_16-0-10_cat_10_n02123597_28968.png,n02123597_28968.png,0.0,1.9222456,2.8006997,-0.62116086
alexnet2023_baseline_pgd,1,84,NaN,elephant,elephant,1-0-10,0084_eid_dnn_1-0-10_elephant_10_n02504013_5894.png,n02504013_5894.png,1.0,22.124472,9.6435,8.825379
alexnet2023_baseline_pgd,1,85,NaN,oven,oven,32-0-10,0085_eid_dnn_32-0-10_oven_10_n04111531_9314.png,n04111531_9314.png,1.0,3.1882238,1.7230067,1.036065
alexnet2023_baseline_pgd,1,86,NaN,elephant,elephant,1-0-10,0086_eid_dnn_1-0-10_elephant_10_n02504458_12074.png,n02504458_12074.png,1.0,7.4223957,2.7514052,3.302889
alexnet2023_baseline_pgd,1,87,NaN,boat,boat,4-0-10,0087_eid_dnn_4-0-10_boat_10_n03344393_3773.png,n03344393_3773.png,1.0,4.685262,2.1786091,1.7724714
alexnet2023_baseline_pgd,1,88,NaN,cat,truck,128-0-10,0088_eid_dnn_128-0-10_truck_10_n04467665_80153.png,n04467665_80153.png,0.0,-2.798656,0.3213681,-2.2061903
alexnet2023_baseline_pgd,1,89,NaN,bottle,chair,128-0-10,0089_eid_dnn_128-0-10_chair_10_n04099969_20604.png,n04099969_20604.png,0.0,-1.4035277,0.49523208,-1.342626
alexnet2023_baseline_pgd,1,90,NaN,airplane,keyboard,32-0-10,0090_eid_dnn_32-0-10_keyboard_10_n03085013_23625.png,n03085013_23625.png,0.0,-2.4715128,0.9807902,-2.4411469
alexnet2023_baseline_pgd,1,91,NaN,bicycle,truck,64-0-10,0091_eid_dnn_64-0-10_truck_10_n03796401_1458.png,n03796401_1458.png,0.0,-2.1628594,1.58987,-2.6535804
alexnet2023_baseline_pgd,1,92,NaN,car,car,4-0-10,0092_eid_dnn_4-0-10_car_10_n03100240_18711.png,n03100240_18711.png,1.0,6.713639,3.196207,2.4871998
alexnet2023_baseline_pgd,1,93,NaN,elephant,truck,128-0-10,0093_eid_dnn_128-0-10_truck_10_n03796401_2988.png,n03796401_2988.png,0.0,-1.4874921,1.0659955,-1.8055884
alexnet2023_baseline_pgd,1,94,NaN,truck,truck,2-0-10,0094_eid_dnn_2-0-10_truck_10_n03417042_7096.png,n03417042_7096.png,1.0,12.076878,6.3643856,4.039342
alexnet2023_baseline_pgd,1,95,NaN,cat,dog,8-0-10,0095_eid_dnn_8-0-10_dog_10_n02105855_9345.png,n02105855_9345.png,0.0,2.9125125,3.4430664,-0.37515822
alexnet2023_baseline_pgd,1,96,NaN,airplane,bird,32-0-10,0096_eid_dnn_32-0-10_bird_10_n01796340_8342.png,n01796340_8342.png,0.0,0.6117751,2.0290303,-1.0021508
alexnet2023_baseline_pgd,1,97,NaN,bird,airplane,8-0-10,0097_eid_dnn_8-0-10_airplane_10_n02690373_7293.png,n02690373_7293.png,0.0,2.472922,3.0737152,-0.4248249
alexnet2023_baseline_pgd,1,98,NaN,oven,car,64-0-10,0098_eid_dnn_64-0-10_car_10_n04285008_9811.png,n04285008_9811.png,0.0,-2.89758,1.8117208,-3.3299787
alexnet2023_baseline_pgd,1,99,NaN,elephant,knife,8-0-10,0099_eid_dnn_8-0-10_knife_10_n03041632_86783.png,n03041632_86783.png,0.0,-2.6210673,3.8065324,-4.5449996
alexnet2023_baseline_pgd,1,100,NaN,oven,oven,16-0-10,0100_eid_dnn_16-0-10_oven_10_n04111531_9867.png,n04111531_9867.png,1.0,4.7996283,2.980466,1.286342
alexnet2023_baseline_pgd,1,101,NaN,cat,truck,128-0-10,0101_eid_dnn_128-0-10_truck_10_n04467665_22573.png,n04467665_22573.png,0.0,-2.827961,3.9513786,-4.7937174
alexnet2023_baseline_pgd,1,102,NaN,clock,car,128-0-10,0102_eid_dnn_128-0-10_car_10_n02814533_23512.png,n02814533_23512.png,0.0,-1.8154753,0.54321706,-1.6678474
alexnet2023_baseline_pgd,1,103,NaN,cat,bicycle,16-0-10,0103_eid_dnn_16-0-10_bicycle_10_n03792782_4895.png,n03792782_4895.png,0.0,-3.2266116,5.194032,-5.954294
alexnet2023_baseline_pgd,1,104,NaN,keyboard,keyboard,2-0-10,0104_eid_dnn_2-0-10_keyboard_10_n03085013_23554.png,n03085013_23554.png,1.0,4.010029,3.0923924,0.64886695
alexnet2023_baseline_pgd,1,105,NaN,dog,bear,1-0-10,0105_eid_dnn_1-0-10_bear_10_n02134084_8601.png,n02134084_8601.png,0.0,5.360061,5.5735836,-0.15098317
alexnet2023_baseline_pgd,1,106,NaN,elephant,bicycle,8-0-10,0106_eid_dnn_8-0-10_bicycle_10_n03792782_126.png,n03792782_126.png,0.0,-1.1373161,5.6756015,-4.8174605
alexnet2023_baseline_pgd,1,107,NaN,chair,chair,1-0-10,0107_eid_dnn_1-0-10_chair_10_n04099969_3583.png,n04099969_3583.png,1.0,7.9612064,6.036435,1.3610189
alexnet2023_baseline_pgd,1,108,NaN,dog,bicycle,8-0-10,0108_eid_dnn_8-0-10_bicycle_10_n02835271_976.png,n02835271_976.png,0.0,-1.3660617,3.5713534,-3.4912798
alexnet2023_baseline_pgd,1,109,NaN,oven,oven,32-0-10,0109_eid_dnn_32-0-10_oven_10_n04111531_10313.png,n04111531_10313.png,1.0,2.36728,1.4733067,0.6321346
alexnet2023_baseline_pgd,1,110,NaN,oven,oven,1-0-10,0110_eid_dnn_1-0-10_oven_10_n04111531_8984.png,n04111531_8984.png,1.0,14.823493,5.3994555,6.663801
alexnet2023_baseline_pgd,1,111,NaN,elephant,elephant,8-0-10,0111_eid_dnn_8-0-10_elephant_10_n02504013_3181.png,n02504013_3181.png,1.0,9.461664,5.1719766,3.0332673
alexnet2023_baseline_pgd,1,112,NaN,elephant,keyboard,64-0-10,0112_eid_dnn_64-0-10_keyboard_10_n03085013_21490.png,n03085013_21490.png,0.0,-2.3047962,1.5715678,-2.7410033
alexnet2023_baseline_pgd,1,113,NaN,bird,bird,4-0-10,0113_eid_dnn_4-0-10_bird_10_n01614925_2708.png,n01614925_2708.png,1.0,5.16445,4.064975,0.7774465
alexnet2023_baseline_pgd,1,114,NaN,dog,bottle,16-0-10,0114_eid_dnn_16-0-10_bottle_10_n03983396_3109.png,n03983396_3109.png,0.0,-0.7062973,2.9102988,-2.5573196
alexnet2023_baseline_pgd,1,115,NaN,cat,bear,128-0-10,0115_eid_dnn_128-0-10_bear_10_n02134418_377.png,n02134418_377.png,0.0,-0.13324738,0.40608358,-0.38136458
alexnet2023_baseline_pgd,1,116,NaN,oven,knife,16-0-10,0116_eid_dnn_16-0-10_knife_10_n03041632_7680.png,n03041632_7680.png,0.0,-1.5782541,1.9773052,-2.51416
alexnet2023_baseline_pgd,1,117,NaN,elephant,truck,4-0-10,0117_eid_dnn_4-0-10_truck_10_n03417042_3807.png,n03417042_3807.png,0.0,2.5366518,6.423785,-2.7486184
alexnet2023_baseline_pgd,1,118,NaN,cat,elephant,128-0-10,0118_eid_dnn_128-0-10_elephant_10_n02504013_6501.png,n02504013_6501.png,0.0,-1.6490017,2.6511927,-3.0406966
alexnet2023_baseline_pgd,1,119,NaN,bicycle,bicycle,32-0-10,0119_eid_dnn_32-0-10_bicycle_10_n03792782_5517.png,n03792782_5517.png,1.0,2.0956614,0.6762471,1.0036775
alexnet2023_baseline_pgd,1,120,NaN,cat,bottle,128-0-10,0120_eid_dnn_128-0-10_bottle_10_n02823428_5791.png,n02823428_5791.png,0.0,-1.3971598,1.0406963,-1.7238246
alexnet2023_baseline_pgd,1,121,NaN,clock,car,128-0-10,0121_eid_dnn_128-0-10_car_10_n04285008_10144.png,n04285008_10144.png,0.0,-2.3591673,1.1279669,-2.4657762
alexnet2023_baseline_pgd,1,122,NaN,cat,cat,4-0-10,0122_eid_dnn_4-0-10_cat_10_n02123159_5764.png,n02123159_5764.png,1.0,10.615864,3.8645232,4.773919
alexnet2023_baseline_pgd,1,123,NaN,boat,dog,16-0-10,0123_eid_dnn_16-0-10_dog_10_n02085936_4491.png,n02085936_4491.png,0.0,1.3037382,1.7796036,-0.33648762
alexnet2023_baseline_pgd,1,124,NaN,oven,bicycle,32-0-10,0124_eid_dnn_32-0-10_bicycle_10_n03792782_6159.png,n03792782_6159.png,0.0,-1.5106926,0.8340192,-1.6579616
alexnet2023_baseline_pgd,1,125,NaN,clock,clock,4-0-10,0125_eid_dnn_4-0-10_clock_10_n04548280_2404.png,n04548280_2404.png,1.0,7.5384536,3.833712,2.619648
alexnet2023_baseline_pgd,1,126,NaN,oven,bottle,64-0-10,0126_eid_dnn_64-0-10_bottle_10_n04591713_360.png,n04591713_360.png,0.0,-0.03344795,3.4236233,-2.4445186
alexnet2023_baseline_pgd,1,127,NaN,bear,airplane,16-0-10,0127_eid_dnn_16-0-10_airplane_10_n02690373_1909.png,n02690373_1909.png,0.0,-0.6118126,2.8705416,-2.4623964
alexnet2023_baseline_pgd,1,128,NaN,bear,bear,2-0-10,0128_eid_dnn_2-0-10_bear_10_n02133161_9724.png,n02133161_9724.png,1.0,7.042578,5.3285565,1.2119963
alexnet2023_baseline_pgd,1,129,NaN,car,car,2-0-10,0129_eid_dnn_2-0-10_car_10_n04285008_5897.png,n04285008_5897.png,1.0,12.59343,7.2897415,3.750274
alexnet2023_baseline_pgd,1,130,NaN,bicycle,bicycle,1-0-10,0130_eid_dnn_1-0-10_bicycle_10_n02835271_9807.png,n02835271_9807.png,1.0,9.170531,2.6445704,4.614551
alexnet2023_baseline_pgd,1,131,NaN,knife,keyboard,1-0-10,0131_eid_dnn_1-0-10_keyboard_10_n03085013_23286.png,n03085013_23286.png,0.0,0.8987796,3.876556,-2.1056058
alexnet2023_baseline_pgd,1,132,NaN,keyboard,clock,2-0-10,0132_eid_dnn_2-0-10_clock_10_n02708093_772.png,n02708093_772.png,0.0,2.6551776,4.1821613,-1.0797405
alexnet2023_baseline_pgd,1,133,NaN,car,clock,4-0-10,0133_eid_dnn_4-0-10_clock_10_n03196217_820.png,n03196217_820.png,0.0,2.5820286,5.284437,-1.9108914
alexnet2023_baseline_pgd,1,134,NaN,elephant,dog,32-0-10,0134_eid_dnn_32-0-10_dog_10_n02093754_6351.png,n02093754_6351.png,0.0,1.1226536,1.9165549,-0.561373
alexnet2023_baseline_pgd,1,135,NaN,elephant,truck,8-0-10,0135_eid_dnn_8-0-10_truck_10_n03417042_27093.png,n03417042_27093.png,0.0,-2.1408205,4.4779325,-4.6801653
alexnet2023_baseline_pgd,1,136,NaN,elephant,bicycle,4-0-10,0136_eid_dnn_4-0-10_bicycle_10_n03792782_30530.png,n03792782_30530.png,0.0,-2.4557016,7.9123197,-7.331298
alexnet2023_baseline_pgd,1,137,NaN,bottle,bottle,4-0-10,0137_eid_dnn_4-0-10_bottle_10_n03937543_5215.png,n03937543_5215.png,1.0,6.534547,3.5607097,2.1028204
alexnet2023_baseline_pgd,1,138,NaN,oven,boat,2-0-10,0138_eid_dnn_2-0-10_boat_10_n02951358_9933.png,n02951358_9933.png,0.0,2.2929587,4.0268693,-1.2260599
alexnet2023_baseline_pgd,1,139,NaN,elephant,dog,4-0-10,0139_eid_dnn_4-0-10_dog_10_n02086910_8694.png,n02086910_8694.png,0.0,3.8063672,5.6617193,-1.3119321
alexnet2023_baseline_pgd,1,140,NaN,cat,knife,8-0-10,0140_eid_dnn_8-0-10_knife_10_n03041632_3504.png,n03041632_3504.png,0.0,-3.0992932,2.980244,-4.298882
alexnet2023_baseline_pgd,1,141,NaN,oven,knife,128-0-10,0141_eid_dnn_128-0-10_knife_10_n03041632_15754.png,n03041632_15754.png,0.0,-1.9901193,3.2708433,-3.7200623
alexnet2023_baseline_pgd,1,142,NaN,elephant,truck,8-0-10,0142_eid_dnn_8-0-10_truck_10_n04467665_45306.png,n04467665_45306.png,0.0,-0.24150668,3.5422535,-2.6755226
alexnet2023_baseline_pgd,1,143,NaN,elephant,elephant,1-0-10,0143_eid_dnn_1-0-10_elephant_10_n02504013_5351.png,n02504013_5351.png,1.0,10.000672,2.9677184,4.9730496
alexnet2023_baseline_pgd,1,144,NaN,cat,bottle,2-0-10,0144_eid_dnn_2-0-10_bottle_10_n03937543_7763.png,n03937543_7763.png,0.0,1.166899,2.035883,-0.61446446
alexnet2023_baseline_pgd,1,145,NaN,oven,bird,32-0-10,0145_eid_dnn_32-0-10_bird_10_n01843383_91.png,n01843383_91.png,0.0,-0.19291796,1.8179668,-1.4219103
alexnet2023_baseline_pgd,1,146,NaN,knife,clock,4-0-10,0146_eid_dnn_4-0-10_clock_10_n04548280_28.png,n04548280_28.png,0.0,1.8681272,3.2140753,-0.95172906
alexnet2023_baseline_pgd,1,147,NaN,elephant,knife,16-0-10,0147_eid_dnn_16-0-10_knife_10_n03041632_102828.png,n03041632_102828.png,0.0,-1.6061822,4.1386757,-4.062228
alexnet2023_baseline_pgd,1,148,NaN,cat,car,128-0-10,0148_eid_dnn_128-0-10_car_10_n03100240_7520.png,n03100240_7520.png,0.0,-2.4013512,3.206214,-3.9651473
alexnet2023_baseline_pgd,1,149,NaN,elephant,knife,16-0-10,0149_eid_dnn_16-0-10_knife_10_n03041632_53874.png,n03041632_53874.png,0.0,0.31148422,2.5245423,-1.5648683
alexnet2023_baseline_pgd,1,150,NaN,elephant,boat,16-0-10,0150_eid_dnn_16-0-10_boat_10_n04273569_3896.png,n04273569_3896.png,0.0,-0.1277853,2.306567,-1.721347
alexnet2023_baseline_pgd,1,151,NaN,airplane,airplane,2-0-10,0151_eid_dnn_2-0-10_airplane_10_n02690373_6002.png,n02690373_6002.png,1.0,16.71743,7.8084946,6.2995687
alexnet2023_baseline_pgd,1,152,NaN,cat,chair,8-0-10,0152_eid_dnn_8-0-10_chair_10_n04099969_7191.png,n04099969_7191.png,0.0,0.07561499,3.523799,-2.4382343
alexnet2023_baseline_pgd,1,153,NaN,oven,dog,32-0-10,0153_eid_dnn_32-0-10_dog_10_n02101388_4808.png,n02101388_4808.png,0.0,0.8830783,3.3424342,-1.7390273
alexnet2023_baseline_pgd,1,154,NaN,cat,keyboard,16-0-10,0154_eid_dnn_16-0-10_keyboard_10_n03085013_24538.png,n03085013_24538.png,0.0,-2.411864,3.0202415,-3.8410788
alexnet2023_baseline_pgd,1,155,NaN,cat,knife,128-0-10,0155_eid_dnn_128-0-10_knife_10_n03041632_85488.png,n03041632_85488.png,0.0,-0.99695194,4.2727094,-3.7262135
alexnet2023_baseline_pgd,1,156,NaN,oven,car,4-0-10,0156_eid_dnn_4-0-10_car_10_n04285008_7630.png,n04285008_7630.png,0.0,0.41186106,3.0611408,-1.8733236
alexnet2023_baseline_pgd,1,157,NaN,elephant,airplane,8-0-10,0157_eid_dnn_8-0-10_airplane_10_n02690373_2941.png,n02690373_2941.png,0.0,2.9047866,3.218439,-0.22178583
alexnet2023_baseline_pgd,1,158,NaN,clock,bird,64-0-10,0158_eid_dnn_64-0-10_bird_10_n01514859_6021.png,n01514859_6021.png,0.0,0.31478858,0.98760825,-0.47575536
alexnet2023_baseline_pgd,1,159,NaN,oven,clock,64-0-10,0159_eid_dnn_64-0-10_clock_10_n04548280_3293.png,n04548280_3293.png,0.0,-0.053063553,1.2985393,-0.9557275
alexnet2023_baseline_pgd,1,160,NaN,oven,oven,4-0-10,0160_eid_dnn_4-0-10_oven_10_n04111531_4998.png,n04111531_4998.png,1.0,6.7527275,2.9584293,2.682974
alexnet2023_baseline_pgd,1,161,NaN,elephant,bird,128-0-10,0161_eid_dnn_128-0-10_bird_10_n02028035_32993.png,n02028035_32993.png,0.0,-0.39313376,2.079575,-1.7484691
alexnet2023_baseline_pgd,1,162,NaN,bird,bird,2-0-10,0162_eid_dnn_2-0-10_bird_10_n01843383_7800.png,n01843383_7800.png,1.0,2.8393736,0.9061294,1.3670101
alexnet2023_baseline_pgd,1,163,NaN,airplane,bear,64-0-10,0163_eid_dnn_64-0-10_bear_10_n02132136_15174.png,n02132136_15174.png,0.0,-0.08998033,2.49434,-1.8273904
alexnet2023_baseline_pgd,1,164,NaN,oven,oven,4-0-10,0164_eid_dnn_4-0-10_oven_10_n04111531_7266.png,n04111531_7266.png,1.0,3.0297928,1.3660089,1.1764729
alexnet2023_baseline_pgd,1,165,NaN,cat,cat,128-0-10,0165_eid_dnn_128-0-10_cat_10_n02124075_6464.png,n02124075_6464.png,1.0,2.1068974,0.5801659,1.0795622
alexnet2023_baseline_pgd,1,166,NaN,elephant,bicycle,16-0-10,0166_eid_dnn_16-0-10_bicycle_10_n02835271_4667.png,n02835271_4667.png,0.0,-1.0485792,4.423454,-3.8693118
alexnet2023_baseline_pgd,1,167,NaN,bear,chair,32-0-10,0167_eid_dnn_32-0-10_chair_10_n04099969_2532.png,n04099969_2532.png,0.0,-0.8057705,1.5908368,-1.6946573
alexnet2023_baseline_pgd,1,168,NaN,bottle,bottle,4-0-10,0168_eid_dnn_4-0-10_bottle_10_n04560804_15683.png,n04560804_15683.png,1.0,6.8663173,2.87858,2.819756
alexnet2023_baseline_pgd,1,169,NaN,oven,chair,8-0-10,0169_eid_dnn_8-0-10_chair_10_n04099969_6825.png,n04099969_6825.png,0.0,1.1597625,3.277359,-1.4973669
alexnet2023_baseline_pgd,1,170,NaN,oven,oven,1-0-10,0170_eid_dnn_1-0-10_oven_10_n04111531_1612.png,n04111531_1612.png,1.0,8.71266,4.5565886,2.9387863
alexnet2023_baseline_pgd,1,171,NaN,clock,clock,2-0-10,0171_eid_dnn_2-0-10_clock_10_n02708093_1701.png,n02708093_1701.png,1.0,12.585582,6.1548114,4.547241
alexnet2023_baseline_pgd,1,172,NaN,airplane,elephant,32-0-10,0172_eid_dnn_32-0-10_elephant_10_n02504013_782.png,n02504013_782.png,0.0,1.4503207,2.0396302,-0.4167047
alexnet2023_baseline_pgd,1,173,NaN,cat,dog,128-0-10,0173_eid_dnn_128-0-10_dog_10_n02107908_8814.png,n02107908_8814.png,0.0,0.44559252,0.64416146,-0.14040944
alexnet2023_baseline_pgd,1,174,NaN,elephant,elephant,4-0-10,0174_eid_dnn_4-0-10_elephant_10_n02504458_5816.png,n02504458_5816.png,1.0,7.0441656,4.6255655,1.7102085
alexnet2023_baseline_pgd,1,175,NaN,car,car,2-0-10,0175_eid_dnn_2-0-10_car_10_n03100240_18788.png,n03100240_18788.png,1.0,9.772208,3.480761,4.448725
alexnet2023_baseline_pgd,1,176,NaN,elephant,airplane,16-0-10,0176_eid_dnn_16-0-10_airplane_10_n02690373_7915.png,n02690373_7915.png,0.0,0.3611023,2.6462626,-1.6158524
alexnet2023_baseline_pgd,1,177,NaN,oven,chair,4-0-10,0177_eid_dnn_4-0-10_chair_10_n04429376_10544.png,n04429376_10544.png,0.0,3.59757,3.9004748,-0.21418607
alexnet2023_baseline_pgd,1,178,NaN,elephant,knife,32-0-10,0178_eid_dnn_32-0-10_knife_10_n03041632_24883.png,n03041632_24883.png,0.0,-1.0859282,0.9205113,-1.418767
alexnet2023_baseline_pgd,1,179,NaN,cat,bicycle,128-0-10,0179_eid_dnn_128-0-10_bicycle_10_n03792782_10367.png,n03792782_10367.png,0.0,-2.6626034,2.6999166,-3.7918744
alexnet2023_baseline_pgd,1,180,NaN,elephant,oven,1-0-10,0180_eid_dnn_1-0-10_oven_10_n04111531_3121.png,n04111531_3121.png,0.0,5.407675,6.3929844,-0.6967191
alexnet2023_baseline_pgd,1,181,NaN,cat,car,128-0-10,0181_eid_dnn_128-0-10_car_10_n02814533_10995.png,n02814533_10995.png,0.0,-3.205595,2.563104,-4.079086
alexnet2023_baseline_pgd,1,182,NaN,cat,dog,128-0-10,0182_eid_dnn_128-0-10_dog_10_n02112350_502.png,n02112350_502.png,0.0,-0.10204861,1.7374512,-1.3007228
alexnet2023_baseline_pgd,1,183,NaN,oven,clock,128-0-10,0183_eid_dnn_128-0-10_clock_10_n04548280_5278.png,n04548280_5278.png,0.0,-0.8082895,2.4000869,-2.2686648
alexnet2023_baseline_pgd,1,184,NaN,airplane,bird,4-0-10,0184_eid_dnn_4-0-10_bird_10_n02006656_713.png,n02006656_713.png,0.0,2.0597258,3.0738246,-0.7170762
alexnet2023_baseline_pgd,1,185,NaN,cat,bottle,128-0-10,0185_eid_dnn_128-0-10_bottle_10_n04557648_4106.png,n04557648_4106.png,0.0,-1.2436218,0.9474012,-1.5492873
alexnet2023_baseline_pgd,1,186,NaN,knife,clock,64-0-10,0186_eid_dnn_64-0-10_clock_10_n02708093_1430.png,n02708093_1430.png,0.0,-0.16813624,0.043778613,-0.14984643
alexnet2023_baseline_pgd,1,187,NaN,oven,oven,1-0-10,0187_eid_dnn_1-0-10_oven_10_n04111531_7664.png,n04111531_7664.png,1.0,12.2177515,4.7418275,5.286277
alexnet2023_baseline_pgd,1,188,NaN,car,car,1-0-10,0188_eid_dnn_1-0-10_car_10_n02814533_149.png,n02814533_149.png,1.0,12.97243,8.854618,2.911733
alexnet2023_baseline_pgd,1,189,NaN,elephant,clock,64-0-10,0189_eid_dnn_64-0-10_clock_10_n04548280_8296.png,n04548280_8296.png,0.0,0.34819993,1.0042531,-0.46389967
alexnet2023_baseline_pgd,1,190,NaN,bear,bottle,64-0-10,0190_eid_dnn_64-0-10_bottle_10_n04591713_5815.png,n04591713_5815.png,0.0,0.6768346,1.8656247,-0.84060156
alexnet2023_baseline_pgd,1,191,NaN,knife,knife,2-0-10,0191_eid_dnn_2-0-10_knife_10_n03041632_90125.png,n03041632_90125.png,1.0,7.447232,4.476937,2.1003158
alexnet2023_baseline_pgd,1,192,NaN,airplane,bird,64-0-10,0192_eid_dnn_64-0-10_bird_10_n01534433_16586.png,n01534433_16586.png,0.0,0.1748726,2.380461,-1.5595865
alexnet2023_baseline_pgd,1,193,NaN,cat,cat,4-0-10,0193_eid_dnn_4-0-10_cat_10_n02123394_2559.png,n02123394_2559.png,1.0,4.70242,2.6427715,1.4563916
alexnet2023_baseline_pgd,1,194,NaN,elephant,elephant,4-0-10,0194_eid_dnn_4-0-10_elephant_10_n02504458_5995.png,n02504458_5995.png,1.0,8.059444,3.4126024,3.2858136
alexnet2023_baseline_pgd,1,195,NaN,car,car,2-0-10,0195_eid_dnn_2-0-10_car_10_n02814533_211.png,n02814533_211.png,1.0,15.022237,9.484934,3.9154646
alexnet2023_baseline_pgd,1,196,NaN,chair,chair,1-0-10,0196_eid_dnn_1-0-10_chair_10_n04429376_13328.png,n04429376_13328.png,1.0,8.422493,1.6132002,4.814897
alexnet2023_baseline_pgd,1,197,NaN,bear,keyboard,16-0-10,0197_eid_dnn_16-0-10_keyboard_10_n03085013_24618.png,n03085013_24618.png,0.0,-4.3255424,3.4393973,-5.4906416
alexnet2023_baseline_pgd,1,198,NaN,elephant,oven,4-0-10,0198_eid_dnn_4-0-10_oven_10_n04111531_2186.png,n04111531_2186.png,0.0,2.1483645,3.1606896,-0.7158219
alexnet2023_baseline_pgd,1,199,NaN,elephant,oven,8-0-10,0199_eid_dnn_8-0-10_oven_10_n04111531_114.png,n04111531_114.png,0.0,2.122958,4.1719284,-1.448841
alexnet2023_baseline_pgd,1,200,NaN,car,car,1-0-10,0200_eid_dnn_1-0-10_car_10_n03100240_1745.png,n03100240_1745.png,1.0,21.938925,12.396441,6.747555
alexnet2023_baseline_pgd,1,201,NaN,cat,cat,4-0-10,0201_eid_dnn_4-0-10_cat_10_n02123394_1259.png,n02123394_1259.png,1.0,6.310272,2.4648187,2.7191463
alexnet2023_baseline_pgd,1,202,NaN,oven,oven,4-0-10,0202_eid_dnn_4-0-10_oven_10_n04111531_5801.png,n04111531_5801.png,1.0,5.6039624,4.744778,0.607535
alexnet2023_baseline_pgd,1,203,NaN,elephant,airplane,32-0-10,0203_eid_dnn_32-0-10_airplane_10_n02690373_2024.png,n02690373_2024.png,0.0,0.5623805,2.2605171,-1.200764
alexnet2023_baseline_pgd,1,204,NaN,elephant,cat,8-0-10,0204_eid_dnn_8-0-10_cat_10_n02123045_12181.png,n02123045_12181.png,0.0,3.4644642,4.038663,-0.4060198
alexnet2023_baseline_pgd,1,205,NaN,bear,airplane,64-0-10,0205_eid_dnn_64-0-10_airplane_10_n02690373_3313.png,n02690373_3313.png,0.0,1.2594118,1.6706468,-0.29078704
alexnet2023_baseline_pgd,1,206,NaN,bird,truck,64-0-10,0206_eid_dnn_64-0-10_truck_10_n04467665_80465.png,n04467665_80465.png,0.0,-2.7367587,1.7222108,-3.1529677
alexnet2023_baseline_pgd,1,207,NaN,elephant,elephant,2-0-10,0207_eid_dnn_2-0-10_elephant_10_n02504013_8626.png,n02504013_8626.png,1.0,11.28845,4.0635185,5.1087985
alexnet2023_baseline_pgd,1,208,NaN,oven,car,16-0-10,0208_eid_dnn_16-0-10_car_10_n04285008_7904.png,n04285008_7904.png,0.0,-2.144474,4.1915693,-4.4802594
alexnet2023_baseline_pgd,1,209,NaN,elephant,airplane,8-0-10,0209_eid_dnn_8-0-10_airplane_10_n02690373_6363.png,n02690373_6363.png,0.0,-1.7008877,3.5081208,-3.683325
alexnet2023_baseline_pgd,1,210,NaN,cat,cat,4-0-10,0210_eid_dnn_4-0-10_cat_10_n02123045_7294.png,n02123045_7294.png,1.0,3.890787,2.475197,1.0009732
alexnet2023_baseline_pgd,1,211,NaN,cat,airplane,128-0-10,0211_eid_dnn_128-0-10_airplane_10_n02690373_6988.png,n02690373_6988.png,0.0,-1.7484344,1.8731712,-2.560862
alexnet2023_baseline_pgd,1,212,NaN,cat,cat,4-0-10,0212_eid_dnn_4-0-10_cat_10_n02125311_25749.png,n02125311_25749.png,1.0,3.01711,2.4826405,0.3779271
alexnet2023_baseline_pgd,1,213,NaN,bird,bird,64-0-10,0213_eid_dnn_64-0-10_bird_10_n02018207_12980.png,n02018207_12980.png,1.0,1.870922,1.8612814,0.0068169157
alexnet2023_baseline_pgd,1,214,NaN,cat,cat,32-0-10,0214_eid_dnn_32-0-10_cat_10_n02123394_2814.png,n02123394_2814.png,1.0,2.739,2.6746488,0.045503255
alexnet2023_baseline_pgd,1,215,NaN,car,car,4-0-10,0215_eid_dnn_4-0-10_car_10_n04285008_662.png,n04285008_662.png,1.0,5.93168,2.530297,2.405141
alexnet2023_baseline_pgd,1,216,NaN,bicycle,bicycle,2-0-10,0216_eid_dnn_2-0-10_bicycle_10_n03792782_11679.png,n03792782_11679.png,1.0,7.269704,4.0145454,2.3017447
alexnet2023_baseline_pgd,1,217,NaN,elephant,dog,16-0-10,0217_eid_dnn_16-0-10_dog_10_n02093428_17769.png,n02093428_17769.png,0.0,1.2658265,2.5147402,-0.8831154
alexnet2023_baseline_pgd,1,218,NaN,bear,dog,64-0-10,0218_eid_dnn_64-0-10_dog_10_n02106030_17418.png,n02106030_17418.png,0.0,0.6365453,1.3340173,-0.49318716
alexnet2023_baseline_pgd,1,219,NaN,oven,chair,64-0-10,0219_eid_dnn_64-0-10_chair_10_n02791124_7142.png,n02791124_7142.png,0.0,-0.28987902,3.3885193,-2.6010206
alexnet2023_baseline_pgd,1,220,NaN,boat,bear,1-0-10,0220_eid_dnn_1-0-10_bear_10_n02134084_18083.png,n02134084_18083.png,0.0,2.7440605,2.9583943,-0.15155686
alexnet2023_baseline_pgd,1,221,NaN,keyboard,keyboard,2-0-10,0221_eid_dnn_2-0-10_keyboard_10_n03085013_7536.png,n03085013_7536.png,1.0,12.012646,5.2330117,4.7939253
alexnet2023_baseline_pgd,1,222,NaN,cat,bird,1-0-10,0222_eid_dnn_1-0-10_bird_10_n01616318_2473.png,n01616318_2473.png,0.0,5.8676457,6.9238896,-0.74687725
alexnet2023_baseline_pgd,1,223,NaN,elephant,elephant,1-0-10,0223_eid_dnn_1-0-10_elephant_10_n02504458_5951.png,n02504458_5951.png,1.0,17.703407,6.240517,8.105488
alexnet2023_baseline_pgd,1,224,NaN,airplane,airplane,4-0-10,0224_eid_dnn_4-0-10_airplane_10_n02690373_5164.png,n02690373_5164.png,1.0,5.552004,3.4916053,1.4569218
alexnet2023_baseline_pgd,1,225,NaN,elephant,elephant,4-0-10,0225_eid_dnn_4-0-10_elephant_10_n02504013_1865.png,n02504013_1865.png,1.0,9.932297,2.845243,5.011304
alexnet2023_baseline_pgd,1,226,NaN,knife,knife,1-0-10,0226_eid_dnn_1-0-10_knife_10_n03041632_56454.png,n03041632_56454.png,1.0,5.8304873,2.7725868,2.1622622
alexnet2023_baseline_pgd,1,227,NaN,elephant,bird,64-0-10,0227_eid_dnn_64-0-10_bird_10_n01824575_5820.png,n01824575_5820.png,0.0,0.9043256,1.3459815,-0.31229788
alexnet2023_baseline_pgd,1,228,NaN,oven,oven,4-0-10,0228_eid_dnn_4-0-10_oven_10_n04111531_4332.png,n04111531_4332.png,1.0,7.1266565,2.8877697,2.9973457
alexnet2023_baseline_pgd,1,229,NaN,truck,truck,2-0-10,0229_eid_dnn_2-0-10_truck_10_n04467665_41352.png,n04467665_41352.png,1.0,13.146818,9.079598,2.8759587
alexnet2023_baseline_pgd,1,230,NaN,elephant,bird,8-0-10,0230_eid_dnn_8-0-10_bird_10_n01514859_5668.png,n01514859_5668.png,0.0,1.9589643,3.1325445,-0.8298465
alexnet2023_baseline_pgd,1,231,NaN,knife,oven,32-0-10,0231_eid_dnn_32-0-10_oven_10_n04111531_4438.png,n04111531_4438.png,0.0,-1.1703788,1.2484915,-1.7103997
alexnet2023_baseline_pgd,1,232,NaN,cat,cat,1-0-10,0232_eid_dnn_1-0-10_cat_10_n02123394_6693.png,n02123394_6693.png,1.0,6.935564,3.076922,2.728472
alexnet2023_baseline_pgd,1,233,NaN,elephant,elephant,32-0-10,0233_eid_dnn_32-0-10_elephant_10_n02504458_6302.png,n02504458_6302.png,1.0,2.8510952,1.638232,0.8576238
alexnet2023_baseline_pgd,1,234,NaN,bear,bottle,16-0-10,0234_eid_dnn_16-0-10_bottle_10_n03937543_2329.png,n03937543_2329.png,0.0,-1.0116427,2.288014,-2.3332095
alexnet2023_baseline_pgd,1,235,NaN,elephant,elephant,16-0-10,0235_eid_dnn_16-0-10_elephant_10_n02504458_5155.png,n02504458_5155.png,1.0,5.0534554,2.2193632,2.004006
alexnet2023_baseline_pgd,1,236,NaN,knife,bear,1-0-10,0236_eid_dnn_1-0-10_bear_10_n02134084_1694.png,n02134084_1694.png,0.0,2.103737,5.2120023,-2.1978755
alexnet2023_baseline_pgd,1,237,NaN,cat,bear,128-0-10,0237_eid_dnn_128-0-10_bear_10_n02133161_1624.png,n02133161_1624.png,0.0,0.2200138,4.1966066,-2.8118758
alexnet2023_baseline_pgd,1,238,NaN,bear,bear,64-0-10,0238_eid_dnn_64-0-10_bear_10_n02132136_11027.png,n02132136_11027.png,1.0,1.9802971,1.5114408,0.3315315
alexnet2023_baseline_pgd,1,239,NaN,airplane,elephant,64-0-10,0239_eid_dnn_64-0-10_elephant_10_n02504013_24621.png,n02504013_24621.png,0.0,-0.033065364,2.6548815,-1.9006654
alexnet2023_baseline_pgd,1,240,NaN,bear,knife,16-0-10,0240_eid_dnn_16-0-10_knife_10_n03041632_27134.png,n03041632_27134.png,0.0,-1.1539475,3.7327666,-3.4554286
alexnet2023_baseline_pgd,1,241,NaN,oven,keyboard,32-0-10,0241_eid_dnn_32-0-10_keyboard_10_n03085013_24316.png,n03085013_24316.png,0.0,-3.4147096,2.4189997,-4.1250553
alexnet2023_baseline_pgd,1,242,NaN,cat,cat,2-0-10,0242_eid_dnn_2-0-10_cat_10_n02123159_3026.png,n02123159_3026.png,1.0,7.4175725,1.9868205,3.8401215
alexnet2023_baseline_pgd,1,243,NaN,cat,bicycle,128-0-10,0243_eid_dnn_128-0-10_bicycle_10_n03792782_1475.png,n03792782_1475.png,0.0,-2.7641742,2.3654583,-3.627198
alexnet2023_baseline_pgd,1,244,NaN,cat,cat,16-0-10,0244_eid_dnn_16-0-10_cat_10_n02123045_20507.png,n02123045_20507.png,1.0,5.2536516,3.852392,0.9908402
alexnet2023_baseline_pgd,1,245,NaN,airplane,boat,64-0-10,0245_eid_dnn_64-0-10_boat_10_n02951358_23759.png,n02951358_23759.png,0.0,-0.44294176,1.9767195,-1.710959
alexnet2023_baseline_pgd,1,246,NaN,bear,bear,16-0-10,0246_eid_dnn_16-0-10_bear_10_n02132136_1858.png,n02132136_1858.png,1.0,2.631875,2.542218,0.063397124
alexnet2023_baseline_pgd,1,247,NaN,cat,boat,128-0-10,0247_eid_dnn_128-0-10_boat_10_n02951358_6465.png,n02951358_6465.png,0.0,-2.0534935,1.9126468,-2.8044848
alexnet2023_baseline_pgd,1,248,NaN,bird,airplane,128-0-10,0248_eid_dnn_128-0-10_airplane_10_n02690373_6223.png,n02690373_6223.png,0.0,-2.2351575,0.6119397,-2.0132017
alexnet2023_baseline_pgd,1,249,NaN,cat,boat,128-0-10,0249_eid_dnn_128-0-10_boat_10_n03344393_2412.png,n03344393_2412.png,0.0,-2.496429,1.1118127,-2.551412
alexnet2023_baseline_pgd,1,250,NaN,elephant,knife,8-0-10,0250_eid_dnn_8-0-10_knife_10_n03041632_6446.png,n03041632_6446.png,0.0,-0.5927387,4.67908,-3.7277389
alexnet2023_baseline_pgd,1,251,NaN,cat,bottle,64-0-10,0251_eid_dnn_64-0-10_bottle_10_n04591713_7940.png,n04591713_7940.png,0.0,-0.8153823,1.3975115,-1.5647522
alexnet2023_baseline_pgd,1,252,NaN,cat,cat,4-0-10,0252_eid_dnn_4-0-10_cat_10_n02124075_13568.png,n02124075_13568.png,1.0,8.662103,4.2856193,3.0946412
alexnet2023_baseline_pgd,1,253,NaN,boat,boat,2-0-10,0253_eid_dnn_2-0-10_boat_10_n03662601_2171.png,n03662601_2171.png,1.0,7.4253235,6.156498,0.89719516
alexnet2023_baseline_pgd,1,254,NaN,elephant,elephant,1-0-10,0254_eid_dnn_1-0-10_elephant_10_n02504458_415.png,n02504458_415.png,1.0,13.593593,4.758339,6.247468
alexnet2023_baseline_pgd,1,255,NaN,oven,car,16-0-10,0255_eid_dnn_16-0-10_car_10_n03100240_3386.png,n03100240_3386.png,0.0,-0.6648465,3.9628353,-3.2722652
alexnet2023_baseline_pgd,1,256,NaN,bird,bird,16-0-10,0256_eid_dnn_16-0-10_bird_10_n02056570_6633.png,n02056570_6633.png,1.0,1.4880387,1.4717435,0.011522443
alexnet2023_baseline_pgd,1,257,NaN,elephant,bottle,32-0-10,0257_eid_dnn_32-0-10_bottle_10_n02823428_4232.png,n02823428_4232.png,0.0,0.20380802,1.5244896,-0.9338629
alexnet2023_baseline_pgd,1,258,NaN,oven,boat,128-0-10,0258_eid_dnn_128-0-10_boat_10_n04273569_2396.png,n04273569_2396.png,0.0,-3.3569157,1.0018264,-3.0820963
alexnet2023_baseline_pgd,1,259,NaN,knife,knife,1-0-10,0259_eid_dnn_1-0-10_knife_10_n03041632_38996.png,n03041632_38996.png,1.0,12.102019,5.2088685,4.8741937
alexnet2023_baseline_pgd,1,260,NaN,elephant,oven,8-0-10,0260_eid_dnn_8-0-10_oven_10_n04111531_10420.png,n04111531_10420.png,0.0,2.3038588,4.579951,-1.6094402
alexnet2023_baseline_pgd,1,261,NaN,cat,dog,128-0-10,0261_eid_dnn_128-0-10_dog_10_n02094114_2394.png,n02094114_2394.png,0.0,0.46236065,3.0500543,-1.8297758
alexnet2023_baseline_pgd,1,262,NaN,elephant,elephant,128-0-10,0262_eid_dnn_128-0-10_elephant_10_n02504013_4247.png,n02504013_4247.png,1.0,0.7256314,0.219944,0.357575
alexnet2023_baseline_pgd,1,263,NaN,elephant,chair,32-0-10,0263_eid_dnn_32-0-10_chair_10_n03376595_8137.png,n03376595_8137.png,0.0,-0.2525271,1.993779,-1.5883782
alexnet2023_baseline_pgd,1,264,NaN,elephant,airplane,128-0-10,0264_eid_dnn_128-0-10_airplane_10_n02690373_8524.png,n02690373_8524.png,0.0,-0.8667443,1.4115727,-1.6110134
alexnet2023_baseline_pgd,1,265,NaN,cat,car,64-0-10,0265_eid_dnn_64-0-10_car_10_n03100240_18410.png,n03100240_18410.png,0.0,-3.2420933,2.5196774,-4.0741873
alexnet2023_baseline_pgd,1,266,NaN,oven,clock,64-0-10,0266_eid_dnn_64-0-10_clock_10_n04548280_2588.png,n04548280_2588.png,0.0,-1.4366984,1.7658668,-2.2645557
alexnet2023_baseline_pgd,1,267,NaN,oven,keyboard,32-0-10,0267_eid_dnn_32-0-10_keyboard_10_n03085013_24030.png,n03085013_24030.png,0.0,-2.5326996,2.6139376,-3.639222
alexnet2023_baseline_pgd,1,268,NaN,clock,clock,2-0-10,0268_eid_dnn_2-0-10_clock_10_n03196217_6375.png,n03196217_6375.png,1.0,7.30903,4.635341,1.8905836
alexnet2023_baseline_pgd,1,269,NaN,dog,airplane,32-0-10,0269_eid_dnn_32-0-10_airplane_10_n02690373_4150.png,n02690373_4150.png,0.0,-0.120749846,0.7508904,-0.6163427
alexnet2023_baseline_pgd,1,270,NaN,cat,dog,4-0-10,0270_eid_dnn_4-0-10_dog_10_n02086646_6567.png,n02086646_6567.png,0.0,0.17418951,2.5974543,-1.7135069
alexnet2023_baseline_pgd,1,271,NaN,oven,clock,64-0-10,0271_eid_dnn_64-0-10_clock_10_n03196217_775.png,n03196217_775.png,0.0,-1.036174,2.1426957,-2.2478004
alexnet2023_baseline_pgd,1,272,NaN,car,car,1-0-10,0272_eid_dnn_1-0-10_car_10_n02814533_57353.png,n02814533_57353.png,1.0,13.488293,11.6489725,1.3005958
alexnet2023_baseline_pgd,1,273,NaN,elephant,bottle,16-0-10,0273_eid_dnn_16-0-10_bottle_10_n04560804_183.png,n04560804_183.png,0.0,0.8718991,3.8030763,-2.0726552
alexnet2023_baseline_pgd,1,274,NaN,car,car,2-0-10,0274_eid_dnn_2-0-10_car_10_n04285008_10631.png,n04285008_10631.png,1.0,14.917496,6.1875467,6.173006
alexnet2023_baseline_pgd,1,275,NaN,bear,bear,2-0-10,0275_eid_dnn_2-0-10_bear_10_n02132136_10057.png,n02132136_10057.png,1.0,16.484182,11.473206,3.5432956
alexnet2023_baseline_pgd,1,276,NaN,dog,boat,128-0-10,0276_eid_dnn_128-0-10_boat_10_n04273569_4605.png,n04273569_4605.png,0.0,-2.576573,1.1438295,-2.6307218
alexnet2023_baseline_pgd,1,277,NaN,cat,cat,64-0-10,0277_eid_dnn_64-0-10_cat_10_n02123597_12711.png,n02123597_12711.png,1.0,1.3185169,1.0363009,0.19955681
alexnet2023_baseline_pgd,1,278,NaN,bottle,bottle,1-0-10,0278_eid_dnn_1-0-10_bottle_10_n04560804_5610.png,n04560804_5610.png,1.0,8.301458,2.961734,3.7757554
alexnet2023_baseline_pgd,1,279,NaN,elephant,clock,32-0-10,0279_eid_dnn_32-0-10_clock_10_n04548280_8412.png,n04548280_8412.png,0.0,-0.6707306,1.6700684,-1.6551948
alexnet2023_baseline_pgd,1,280,NaN,cat,cat,2-0-10,0280_eid_dnn_2-0-10_cat_10_n02123597_13834.png,n02123597_13834.png,1.0,5.5599074,3.9684684,1.1253173
alexnet2023_baseline_pgd,1,281,NaN,elephant,dog,128-0-10,0281_eid_dnn_128-0-10_dog_10_n02091831_538.png,n02091831_538.png,0.0,-0.38533157,0.44983602,-0.5905527
alexnet2023_baseline_pgd,1,282,NaN,elephant,bicycle,32-0-10,0282_eid_dnn_32-0-10_bicycle_10_n03792782_10437.png,n03792782_10437.png,0.0,0.97974217,1.684535,-0.49836382
alexnet2023_baseline_pgd,1,283,NaN,bear,bear,2-0-10,0283_eid_dnn_2-0-10_bear_10_n02132136_2372.png,n02132136_2372.png,1.0,7.9158382,6.403551,1.0693485
alexnet2023_baseline_pgd,1,284,NaN,bicycle,bicycle,128-0-10,0284_eid_dnn_128-0-10_bicycle_10_n03792782_4540.png,n03792782_4540.png,1.0,1.1048045,0.44101307,0.4693714
alexnet2023_baseline_pgd,1,285,NaN,elephant,elephant,2-0-10,0285_eid_dnn_2-0-10_elephant_10_n02504013_10152.png,n02504013_10152.png,1.0,9.4602375,4.1325583,3.7672381
alexnet2023_baseline_pgd,1,286,NaN,elephant,boat,64-0-10,0286_eid_dnn_64-0-10_boat_10_n02951358_7603.png,n02951358_7603.png,0.0,-1.1180465,1.5727382,-1.9026722
alexnet2023_baseline_pgd,1,287,NaN,bear,bear,2-0-10,0287_eid_dnn_2-0-10_bear_10_n02133161_9371.png,n02133161_9371.png,1.0,7.795926,4.7561398,2.1494536
alexnet2023_baseline_pgd,1,288,NaN,elephant,truck,8-0-10,0288_eid_dnn_8-0-10_truck_10_n04467665_69892.png,n04467665_69892.png,0.0,0.6150924,3.2893186,-1.8909636
alexnet2023_baseline_pgd,1,289,NaN,chair,knife,1-0-10,0289_eid_dnn_1-0-10_knife_10_n03041632_19275.png,n03041632_19275.png,0.0,0.019394748,0.90129596,-0.62359834
alexnet2023_baseline_pgd,1,290,NaN,oven,keyboard,16-0-10,0290_eid_dnn_16-0-10_keyboard_10_n04505470_9446.png,n04505470_9446.png,0.0,-6.120143,3.7125027,-6.95273
alexnet2023_baseline_pgd,1,291,NaN,elephant,elephant,1-0-10,0291_eid_dnn_1-0-10_elephant_10_n02504013_9141.png,n02504013_9141.png,1.0,10.993338,3.9919114,4.950756
alexnet2023_baseline_pgd,1,292,NaN,cat,bird,128-0-10,0292_eid_dnn_128-0-10_bird_10_n02056570_8553.png,n02056570_8553.png,0.0,0.4098886,1.3845158,-0.6891655
alexnet2023_baseline_pgd,1,293,NaN,car,car,1-0-10,0293_eid_dnn_1-0-10_car_10_n03100240_9171.png,n03100240_9171.png,1.0,16.46124,6.289591,7.192443
alexnet2023_baseline_pgd,1,294,NaN,elephant,dog,8-0-10,0294_eid_dnn_8-0-10_dog_10_n02102177_1533.png,n02102177_1533.png,0.0,4.79745,5.9381914,-0.80662596
alexnet2023_baseline_pgd,1,295,NaN,oven,cat,64-0-10,0295_eid_dnn_64-0-10_cat_10_n02124075_12464.png,n02124075_12464.png,0.0,-0.010105118,1.2220522,-0.87126684
alexnet2023_baseline_pgd,1,296,NaN,bottle,chair,4-0-10,0296_eid_dnn_4-0-10_chair_10_n04429376_33792.png,n04429376_33792.png,0.0,2.2332907,4.576471,-1.6568786
alexnet2023_baseline_pgd,1,297,NaN,oven,bear,128-0-10,0297_eid_dnn_128-0-10_bear_10_n02133161_3258.png,n02133161_3258.png,0.0,0.40258202,1.9339417,-1.0828348
alexnet2023_baseline_pgd,1,298,NaN,oven,dog,4-0-10,0298_eid_dnn_4-0-10_dog_10_n02097130_1442.png,n02097130_1442.png,0.0,1.4571348,4.0066023,-1.8027458
alexnet2023_baseline_pgd,1,299,NaN,oven,chair,4-0-10,0299_eid_dnn_4-0-10_chair_10_n02791124_8970.png,n02791124_8970.png,0.0,2.2126007,2.8301501,-0.4366734
alexnet2023_baseline_pgd,1,300,NaN,elephant,car,8-0-10,0300_eid_dnn_8-0-10_car_10_n04285008_8545.png,n04285008_8545.png,0.0,-0.8820928,7.7798486,-6.1249175
alexnet2023_baseline_pgd,1,301,NaN,truck,truck,1-0-10,0301_eid_dnn_1-0-10_truck_10_n03417042_2204.png,n03417042_2204.png,1.0,10.935818,5.996181,3.4928508
alexnet2023_baseline_pgd,1,302,NaN,elephant,bear,2-0-10,0302_eid_dnn_2-0-10_bear_10_n02133161_15593.png,n02133161_15593.png,0.0,8.730527,9.12165,-0.2765656
alexnet2023_baseline_pgd,1,303,NaN,clock,clock,2-0-10,0303_eid_dnn_2-0-10_clock_10_n04548280_5845.png,n04548280_5845.png,1.0,2.2221894,1.7089757,0.36289692
alexnet2023_baseline_pgd,1,304,NaN,elephant,knife,4-0-10,0304_eid_dnn_4-0-10_knife_10_n03041632_4975.png,n03041632_4975.png,0.0,1.7279325,4.038503,-1.6338203
alexnet2023_baseline_pgd,1,305,NaN,dog,clock,32-0-10,0305_eid_dnn_32-0-10_clock_10_n03196217_4849.png,n03196217_4849.png,0.0,-0.3619573,0.65639466,-0.72008365
alexnet2023_baseline_pgd,1,306,NaN,elephant,bicycle,2-0-10,0306_eid_dnn_2-0-10_bicycle_10_n03792782_15752.png,n03792782_15752.png,0.0,4.5200763,5.50583,-0.69703305
alexnet2023_baseline_pgd,1,307,NaN,elephant,bicycle,16-0-10,0307_eid_dnn_16-0-10_bicycle_10_n02835271_29741.png,n02835271_29741.png,0.0,-0.87646955,4.838382,-4.0410104
alexnet2023_baseline_pgd,1,308,NaN,bottle,chair,4-0-10,0308_eid_dnn_4-0-10_chair_10_n04099969_16619.png,n04099969_16619.png,0.0,1.8997304,3.5341094,-1.1556804
alexnet2023_baseline_pgd,1,309,NaN,keyboard,keyboard,4-0-10,0309_eid_dnn_4-0-10_keyboard_10_n04505470_4552.png,n04505470_4552.png,1.0,5.7914124,3.8653758,1.3619136
alexnet2023_baseline_pgd,1,310,NaN,elephant,boat,8-0-10,0310_eid_dnn_8-0-10_boat_10_n02951358_13144.png,n02951358_13144.png,0.0,0.7510556,6.0479865,-3.7454958
alexnet2023_baseline_pgd,1,311,NaN,bird,bird,32-0-10,0311_eid_dnn_32-0-10_bird_10_n01797886_14611.png,n01797886_14611.png,1.0,1.8155762,1.7087318,0.07555042
alexnet2023_baseline_pgd,1,312,NaN,knife,knife,1-0-10,0312_eid_dnn_1-0-10_knife_10_n03041632_3326.png,n03041632_3326.png,1.0,7.5722437,3.2229347,3.0754259
alexnet2023_baseline_pgd,1,313,NaN,elephant,elephant,8-0-10,0313_eid_dnn_8-0-10_elephant_10_n02504013_5829.png,n02504013_5829.png,1.0,7.3037,4.3089175,2.117631
alexnet2023_baseline_pgd,1,314,NaN,bear,dog,16-0-10,0314_eid_dnn_16-0-10_dog_10_n02088094_2292.png,n02088094_2292.png,0.0,1.1576087,1.4763905,-0.22541273
alexnet2023_baseline_pgd,1,315,NaN,oven,oven,8-0-10,0315_eid_dnn_8-0-10_oven_10_n04111531_4944.png,n04111531_4944.png,1.0,5.34755,3.8318908,1.0717329
alexnet2023_baseline_pgd,1,316,NaN,oven,oven,32-0-10,0316_eid_dnn_32-0-10_oven_10_n04111531_669.png,n04111531_669.png,1.0,2.698973,1.4187301,0.9052684
alexnet2023_baseline_pgd,1,317,NaN,oven,car,64-0-10,0317_eid_dnn_64-0-10_car_10_n02814533_6716.png,n02814533_6716.png,0.0,-3.0634034,3.1792116,-4.414195
alexnet2023_baseline_pgd,1,318,NaN,elephant,bear,32-0-10,0318_eid_dnn_32-0-10_bear_10_n02132136_26438.png,n02132136_26438.png,0.0,3.0333788,3.2164116,-0.12942371
alexnet2023_baseline_pgd,1,319,NaN,bottle,bottle,4-0-10,0319_eid_dnn_4-0-10_bottle_10_n03983396_3027.png,n03983396_3027.png,1.0,3.3373988,2.4633474,0.61804765
alexnet2023_baseline_pgd,1,320,NaN,elephant,elephant,2-0-10,0320_eid_dnn_2-0-10_elephant_10_n02504013_9299.png,n02504013_9299.png,1.0,21.5292,9.440456,8.548033
alexnet2023_baseline_pgd,1,321,NaN,oven,knife,2-0-10,0321_eid_dnn_2-0-10_knife_10_n03041632_13846.png,n03041632_13846.png,0.0,4.745293,5.2320414,-0.34418297
alexnet2023_baseline_pgd,1,322,NaN,bear,airplane,64-0-10,0322_eid_dnn_64-0-10_airplane_10_n02690373_16250.png,n02690373_16250.png,0.0,0.19900487,0.8211769,-0.43994203
alexnet2023_baseline_pgd,1,323,NaN,cat,boat,64-0-10,0323_eid_dnn_64-0-10_boat_10_n03662601_13696.png,n03662601_13696.png,0.0,-3.2519543,3.3969243,-4.701467
alexnet2023_baseline_pgd,1,324,NaN,cat,cat,1-0-10,0324_eid_dnn_1-0-10_cat_10_n02123597_5692.png,n02123597_5692.png,1.0,7.1830335,3.4818437,2.6171365
alexnet2023_baseline_pgd,1,325,NaN,elephant,clock,8-0-10,0325_eid_dnn_8-0-10_clock_10_n02708093_3171.png,n02708093_3171.png,0.0,-1.5343746,3.6435385,-3.6613376
alexnet2023_baseline_pgd,1,326,NaN,elephant,keyboard,128-0-10,0326_eid_dnn_128-0-10_keyboard_10_n04505470_4902.png,n04505470_4902.png,0.0,-0.8631698,1.4135168,-1.6098607
alexnet2023_baseline_pgd,1,327,NaN,bear,dog,2-0-10,0327_eid_dnn_2-0-10_dog_10_n02113624_1170.png,n02113624_1170.png,0.0,3.4417984,4.660808,-0.86197
alexnet2023_baseline_pgd,1,328,NaN,clock,clock,2-0-10,0328_eid_dnn_2-0-10_clock_10_n03196217_1272.png,n03196217_1272.png,1.0,4.7413864,4.3842406,0.2525402
alexnet2023_baseline_pgd,1,329,NaN,cat,cat,128-0-10,0329_eid_dnn_128-0-10_cat_10_n02123394_8946.png,n02123394_8946.png,1.0,2.254101,1.2990459,0.675326
alexnet2023_baseline_pgd,1,330,NaN,bird,car,8-0-10,0330_eid_dnn_8-0-10_car_10_n03100240_7134.png,n03100240_7134.png,0.0,0.6239975,2.1798368,-1.1001445
alexnet2023_baseline_pgd,1,331,NaN,bicycle,bicycle,4-0-10,0331_eid_dnn_4-0-10_bicycle_10_n03792782_16034.png,n03792782_16034.png,1.0,5.269394,2.76485,1.7709801
alexnet2023_baseline_pgd,1,332,NaN,elephant,dog,8-0-10,0332_eid_dnn_8-0-10_dog_10_n02104029_5465.png,n02104029_5465.png,0.0,2.5642476,8.231642,-4.007453
alexnet2023_baseline_pgd,1,333,NaN,keyboard,keyboard,4-0-10,0333_eid_dnn_4-0-10_keyboard_10_n04505470_5011.png,n04505470_5011.png,1.0,11.429727,7.920326,2.481521
alexnet2023_baseline_pgd,1,334,NaN,boat,bird,8-0-10,0334_eid_dnn_8-0-10_bird_10_n02009912_27132.png,n02009912_27132.png,0.0,0.5684336,3.6954637,-2.2111442
alexnet2023_baseline_pgd,1,335,NaN,airplane,knife,64-0-10,0335_eid_dnn_64-0-10_knife_10_n03041632_3171.png,n03041632_3171.png,0.0,-0.31614476,4.149385,-3.1576066
alexnet2023_baseline_pgd,1,336,NaN,airplane,bear,32-0-10,0336_eid_dnn_32-0-10_bear_10_n02134084_21170.png,n02134084_21170.png,0.0,0.4322607,4.370327,-2.7846334
alexnet2023_baseline_pgd,1,337,NaN,dog,dog,4-0-10,0337_eid_dnn_4-0-10_dog_10_n02086079_29044.png,n02086079_29044.png,1.0,5.662568,3.4564533,1.5599587
alexnet2023_baseline_pgd,1,338,NaN,cat,cat,4-0-10,0338_eid_dnn_4-0-10_cat_10_n02124075_8465.png,n02124075_8465.png,1.0,8.457599,3.5890946,3.4425523
alexnet2023_baseline_pgd,1,339,NaN,airplane,bird,128-0-10,0339_eid_dnn_128-0-10_bird_10_n01855032_982.png,n01855032_982.png,0.0,-1.0920473,0.9956912,-1.4762541
alexnet2023_baseline_pgd,1,340,NaN,bear,truck,32-0-10,0340_eid_dnn_32-0-10_truck_10_n03417042_6373.png,n03417042_6373.png,0.0,-0.9863035,1.4748886,-1.7403257
alexnet2023_baseline_pgd,1,341,NaN,cat,airplane,16-0-10,0341_eid_dnn_16-0-10_airplane_10_n02690373_9959.png,n02690373_9959.png,0.0,-1.8829055,3.0363538,-3.4784415
alexnet2023_baseline_pgd,1,342,NaN,elephant,clock,32-0-10,0342_eid_dnn_32-0-10_clock_10_n04548280_2260.png,n04548280_2260.png,0.0,-0.6066534,1.5218859,-1.5051047
alexnet2023_baseline_pgd,1,343,NaN,elephant,bottle,16-0-10,0343_eid_dnn_16-0-10_bottle_10_n03983396_5281.png,n03983396_5281.png,0.0,1.5367546,2.591304,-0.7456791
alexnet2023_baseline_pgd,1,344,NaN,cat,cat,4-0-10,0344_eid_dnn_4-0-10_cat_10_n02123159_1113.png,n02123159_1113.png,1.0,6.5224137,4.2207522,1.6275204
alexnet2023_baseline_pgd,1,345,NaN,cat,keyboard,64-0-10,0345_eid_dnn_64-0-10_keyboard_10_n03085013_20460.png,n03085013_20460.png,0.0,-1.6484842,1.5598907,-2.2686636
alexnet2023_baseline_pgd,1,346,NaN,oven,clock,8-0-10,0346_eid_dnn_8-0-10_clock_10_n03196217_884.png,n03196217_884.png,0.0,-1.857376,5.659818,-5.3154593
alexnet2023_baseline_pgd,1,347,NaN,bird,clock,8-0-10,0347_eid_dnn_8-0-10_clock_10_n03196217_6257.png,n03196217_6257.png,0.0,-3.6464097,2.1570997,-4.103701
alexnet2023_baseline_pgd,1,348,NaN,bear,dog,32-0-10,0348_eid_dnn_32-0-10_dog_10_n02113624_2109.png,n02113624_2109.png,0.0,1.8587935,2.1622066,-0.2145455
alexnet2023_baseline_pgd,1,349,NaN,keyboard,keyboard,1-0-10,0349_eid_dnn_1-0-10_keyboard_10_n03085013_20416.png,n03085013_20416.png,1.0,14.025121,6.3212333,5.447471
alexnet2023_baseline_pgd,1,350,NaN,bird,bird,2-0-10,0350_eid_dnn_2-0-10_bird_10_n01820546_4609.png,n01820546_4609.png,1.0,7.127632,2.0591946,3.5839267
alexnet2023_baseline_pgd,1,351,NaN,airplane,cat,64-0-10,0351_eid_dnn_64-0-10_cat_10_n02125311_47792.png,n02125311_47792.png,0.0,-1.4976317,2.425175,-2.7738433
alexnet2023_baseline_pgd,1,352,NaN,elephant,boat,16-0-10,0352_eid_dnn_16-0-10_boat_10_n04612504_1491.png,n04612504_1491.png,0.0,-0.6268898,2.2800074,-2.0554867
alexnet2023_baseline_pgd,1,353,NaN,elephant,truck,16-0-10,0353_eid_dnn_16-0-10_truck_10_n03417042_910.png,n03417042_910.png,0.0,-0.74432063,4.1873546,-3.4872208
alexnet2023_baseline_pgd,1,354,NaN,oven,airplane,64-0-10,0354_eid_dnn_64-0-10_airplane_10_n02690373_2038.png,n02690373_2038.png,0.0,1.249741,1.3441156,-0.06673296
alexnet2023_baseline_pgd,1,355,NaN,cat,cat,2-0-10,0355_eid_dnn_2-0-10_cat_10_n02123394_8164.png,n02123394_8164.png,1.0,7.352846,3.7557168,2.5435545
alexnet2023_baseline_pgd,1,356,NaN,oven,oven,2-0-10,0356_eid_dnn_2-0-10_oven_10_n04111531_22097.png,n04111531_22097.png,1.0,12.931175,4.3873725,6.0413804
alexnet2023_baseline_pgd,1,357,NaN,cat,bear,128-0-10,0357_eid_dnn_128-0-10_bear_10_n02134418_278.png,n02134418_278.png,0.0,-0.5251132,1.8399764,-1.6723709
alexnet2023_baseline_pgd,1,358,NaN,bird,bird,4-0-10,0358_eid_dnn_4-0-10_bird_10_n01592084_9109.png,n01592084_9109.png,1.0,7.107801,3.3991017,2.6224463
alexnet2023_baseline_pgd,1,359,NaN,elephant,clock,32-0-10,0359_eid_dnn_32-0-10_clock_10_n03196217_3695.png,n03196217_3695.png,0.0,-0.10690092,1.4449385,-1.0973163
alexnet2023_baseline_pgd,1,360,NaN,oven,elephant,128-0-10,0360_eid_dnn_128-0-10_elephant_10_n02504458_8939.png,n02504458_8939.png,0.0,-0.59123397,2.4208848,-2.1298897
alexnet2023_baseline_pgd,1,361,NaN,elephant,elephant,2-0-10,0361_eid_dnn_2-0-10_elephant_10_n02504013_7926.png,n02504013_7926.png,1.0,11.943642,5.890417,4.2802763
alexnet2023_baseline_pgd,1,362,NaN,elephant,bear,4-0-10,0362_eid_dnn_4-0-10_bear_10_n02133161_11816.png,n02133161_11816.png,0.0,4.1534023,9.451648,-3.7464254
alexnet2023_baseline_pgd,1,363,NaN,dog,bird,2-0-10,0363_eid_dnn_2-0-10_bird_10_n02056570_18300.png,n02056570_18300.png,0.0,1.3244147,3.574956,-1.591373
alexnet2023_baseline_pgd,1,364,NaN,bicycle,chair,2-0-10,0364_eid_dnn_2-0-10_chair_10_n02791124_7063.png,n02791124_7063.png,0.0,1.8879099,2.5360835,-0.45832795
alexnet2023_baseline_pgd,1,365,NaN,elephant,chair,8-0-10,0365_eid_dnn_8-0-10_chair_10_n03376595_8289.png,n03376595_8289.png,0.0,-1.6531409,3.5885494,-3.7064347
alexnet2023_baseline_pgd,1,366,NaN,airplane,airplane,4-0-10,0366_eid_dnn_4-0-10_airplane_10_n02690373_4434.png,n02690373_4434.png,1.0,8.427781,4.586572,2.716145
alexnet2023_baseline_pgd,1,367,NaN,truck,truck,1-0-10,0367_eid_dnn_1-0-10_truck_10_n03417042_8953.png,n03417042_8953.png,1.0,15.354745,8.986058,4.5033417
alexnet2023_baseline_pgd,1,368,NaN,cat,bear,64-0-10,0368_eid_dnn_64-0-10_bear_10_n02132136_699.png,n02132136_699.png,0.0,1.907413,2.0437183,-0.096382424
alexnet2023_baseline_pgd,1,369,NaN,cat,knife,8-0-10,0369_eid_dnn_8-0-10_knife_10_n03041632_20517.png,n03041632_20517.png,0.0,1.2312111,2.4805741,-0.8834331
alexnet2023_baseline_pgd,1,370,NaN,bottle,bottle,32-0-10,0370_eid_dnn_32-0-10_bottle_10_n03983396_1910.png,n03983396_1910.png,1.0,1.6587381,1.544319,0.080906525
alexnet2023_baseline_pgd,1,371,NaN,elephant,oven,8-0-10,0371_eid_dnn_8-0-10_oven_10_n04111531_16198.png,n04111531_16198.png,0.0,2.119256,3.3638654,-0.88007176
alexnet2023_baseline_pgd,1,372,NaN,airplane,elephant,64-0-10,0372_eid_dnn_64-0-10_elephant_10_n02504013_13427.png,n02504013_13427.png,0.0,-0.31835836,1.5391464,-1.3134543
alexnet2023_baseline_pgd,1,373,NaN,elephant,airplane,16-0-10,0373_eid_dnn_16-0-10_airplane_10_n02690373_1075.png,n02690373_1075.png,0.0,-0.1725195,2.922748,-2.1886847
alexnet2023_baseline_pgd,1,374,NaN,cat,car,64-0-10,0374_eid_dnn_64-0-10_car_10_n03100240_5527.png,n03100240_5527.png,0.0,-2.9014695,2.5786736,-3.8750465
alexnet2023_baseline_pgd,1,375,NaN,bear,bear,1-0-10,0375_eid_dnn_1-0-10_bear_10_n02132136_4632.png,n02132136_4632.png,1.0,9.271788,5.655897,2.5568206
alexnet2023_baseline_pgd,1,376,NaN,boat,boat,1-0-10,0376_eid_dnn_1-0-10_boat_10_n04273569_6158.png,n04273569_6158.png,1.0,11.158999,2.9069188,5.8351026
alexnet2023_baseline_pgd,1,377,NaN,elephant,knife,32-0-10,0377_eid_dnn_32-0-10_knife_10_n03041632_18141.png,n03041632_18141.png,0.0,-0.105794184,4.2440805,-3.0758257
alexnet2023_baseline_pgd,1,378,NaN,bear,bear,16-0-10,0378_eid_dnn_16-0-10_bear_10_n02132136_6378.png,n02132136_6378.png,1.0,3.2087688,2.717265,0.34754577
alexnet2023_baseline_pgd,1,379,NaN,elephant,elephant,2-0-10,0379_eid_dnn_2-0-10_elephant_10_n02504458_5095.png,n02504458_5095.png,1.0,16.478226,4.4849057,8.480558
alexnet2023_baseline_pgd,1,380,NaN,elephant,elephant,4-0-10,0380_eid_dnn_4-0-10_elephant_10_n02504013_10582.png,n02504013_10582.png,1.0,13.993073,8.558596,3.8427563
alexnet2023_baseline_pgd,1,381,NaN,bear,chair,16-0-10,0381_eid_dnn_16-0-10_chair_10_n04099969_28139.png,n04099969_28139.png,0.0,-1.9825165,2.8578644,-3.422666
alexnet2023_baseline_pgd,1,382,NaN,keyboard,keyboard,2-0-10,0382_eid_dnn_2-0-10_keyboard_10_n04505470_279.png,n04505470_279.png,1.0,15.498413,9.249282,4.418803
alexnet2023_baseline_pgd,1,383,NaN,elephant,car,8-0-10,0383_eid_dnn_8-0-10_car_10_n02814533_79696.png,n02814533_79696.png,0.0,-2.101095,4.656558,-4.7783823
alexnet2023_baseline_pgd,1,384,NaN,oven,cat,64-0-10,0384_eid_dnn_64-0-10_cat_10_n02124075_7984.png,n02124075_7984.png,0.0,1.1201587,1.6525806,-0.37647918
alexnet2023_baseline_pgd,1,385,NaN,bear,car,4-0-10,0385_eid_dnn_4-0-10_car_10_n02814533_27327.png,n02814533_27327.png,0.0,2.4131477,3.83322,-1.0041428
alexnet2023_baseline_pgd,1,386,NaN,bear,bear,4-0-10,0386_eid_dnn_4-0-10_bear_10_n02134084_967.png,n02134084_967.png,1.0,6.7800884,4.6228275,1.5254139
alexnet2023_baseline_pgd,1,387,NaN,bear,bear,64-0-10,0387_eid_dnn_64-0-10_bear_10_n02132136_949.png,n02132136_949.png,1.0,1.029352,0.9917208,0.026609244
alexnet2023_baseline_pgd,1,388,NaN,elephant,bicycle,16-0-10,0388_eid_dnn_16-0-10_bicycle_10_n03792782_2905.png,n03792782_2905.png,0.0,0.37493235,1.8727077,-1.0590872
alexnet2023_baseline_pgd,1,389,NaN,oven,bicycle,8-0-10,0389_eid_dnn_8-0-10_bicycle_10_n03792782_34550.png,n03792782_34550.png,0.0,-0.7591485,4.115179,-3.4466703
alexnet2023_baseline_pgd,1,390,NaN,elephant,bear,16-0-10,0390_eid_dnn_16-0-10_bear_10_n02132136_9055.png,n02132136_9055.png,0.0,3.7779474,5.8934574,-1.4958915
alexnet2023_baseline_pgd,1,391,NaN,cat,bear,64-0-10,0391_eid_dnn_64-0-10_bear_10_n02134084_7904.png,n02134084_7904.png,0.0,0.29242232,2.4037764,-1.4929528
alexnet2023_baseline_pgd,1,392,NaN,clock,clock,4-0-10,0392_eid_dnn_4-0-10_clock_10_n04548280_4526.png,n04548280_4526.png,1.0,7.0942407,6.1292067,0.6823821
alexnet2023_baseline_pgd,1,393,NaN,bottle,bottle,1-0-10,0393_eid_dnn_1-0-10_bottle_10_n02823428_685.png,n02823428_685.png,1.0,3.4287322,2.4076338,0.7220256
alexnet2023_baseline_pgd,1,394,NaN,dog,keyboard,64-0-10,0394_eid_dnn_64-0-10_keyboard_10_n04505470_3935.png,n04505470_3935.png,0.0,-1.2188355,1.7061003,-2.068242
alexnet2023_baseline_pgd,1,395,NaN,cat,dog,64-0-10,0395_eid_dnn_64-0-10_dog_10_n02096051_3825.png,n02096051_3825.png,0.0,0.47199285,1.8923103,-1.0043161
alexnet2023_baseline_pgd,1,396,NaN,dog,dog,2-0-10,0396_eid_dnn_2-0-10_dog_10_n02089078_10601.png,n02089078_10601.png,1.0,5.4490314,4.417942,0.7290903
alexnet2023_baseline_pgd,1,397,NaN,clock,clock,2-0-10,0397_eid_dnn_2-0-10_clock_10_n02708093_5236.png,n02708093_5236.png,1.0,20.934624,5.9012504,10.6302
alexnet2023_baseline_pgd,1,398,NaN,cat,cat,2-0-10,0398_eid_dnn_2-0-10_cat_10_n02123159_2682.png,n02123159_2682.png,1.0,8.180444,2.3605342,4.115298
alexnet2023_baseline_pgd,1,399,NaN,chair,oven,1-0-10,0399_eid_dnn_1-0-10_oven_10_n04111531_10216.png,n04111531_10216.png,0.0,6.416065,6.788739,-0.2635203
alexnet2023_baseline_pgd,1,400,NaN,boat,boat,2-0-10,0400_eid_dnn_2-0-10_boat_10_n02951358_7137.png,n02951358_7137.png,1.0,2.2317538,1.8406605,0.27654478
alexnet2023_baseline_pgd,1,401,NaN,airplane,bird,64-0-10,0401_eid_dnn_64-0-10_bird_10_n02007558_6127.png,n02007558_6127.png,0.0,0.65444183,1.3467212,-0.48951542
alexnet2023_baseline_pgd,1,402,NaN,bear,dog,16-0-10,0402_eid_dnn_16-0-10_dog_10_n02096051_4804.png,n02096051_4804.png,0.0,2.4710982,3.9841785,-1.0699095
alexnet2023_baseline_pgd,1,403,NaN,bear,bottle,8-0-10,0403_eid_dnn_8-0-10_bottle_10_n03983396_13764.png,n03983396_13764.png,0.0,2.9204452,4.6891527,-1.2506651
alexnet2023_baseline_pgd,1,404,NaN,cat,knife,32-0-10,0404_eid_dnn_32-0-10_knife_10_n03041632_105081.png,n03041632_105081.png,0.0,-1.4666964,2.4232283,-2.750592
alexnet2023_baseline_pgd,1,405,NaN,boat,boat,8-0-10,0405_eid_dnn_8-0-10_boat_10_n03344393_3535.png,n03344393_3535.png,1.0,2.5931654,2.3597918,0.1650201
alexnet2023_baseline_pgd,1,406,NaN,airplane,keyboard,64-0-10,0406_eid_dnn_64-0-10_keyboard_10_n03085013_22929.png,n03085013_22929.png,0.0,-2.053787,2.3145657,-3.088892
alexnet2023_baseline_pgd,1,407,NaN,bottle,bottle,1-0-10,0407_eid_dnn_1-0-10_bottle_10_n04579145_5979.png,n04579145_5979.png,1.0,12.061223,2.6757677,6.636519
alexnet2023_baseline_pgd,1,408,NaN,knife,knife,2-0-10,0408_eid_dnn_2-0-10_knife_10_n03041632_31301.png,n03041632_31301.png,1.0,11.041779,2.4984927,6.041015
alexnet2023_baseline_pgd,1,409,NaN,cat,car,128-0-10,0409_eid_dnn_128-0-10_car_10_n04285008_14653.png,n04285008_14653.png,0.0,-3.6351287,4.08622,-5.4598184
alexnet2023_baseline_pgd,1,410,NaN,elephant,clock,16-0-10,0410_eid_dnn_16-0-10_clock_10_n03196217_1601.png,n03196217_1601.png,0.0,-1.7313653,3.4377027,-3.655083
alexnet2023_baseline_pgd,1,411,NaN,elephant,bicycle,8-0-10,0411_eid_dnn_8-0-10_bicycle_10_n02835271_25268.png,n02835271_25268.png,0.0,-1.0599895,5.2289047,-4.44692
alexnet2023_baseline_pgd,1,412,NaN,elephant,bird,16-0-10,0412_eid_dnn_16-0-10_bird_10_n02037110_875.png,n02037110_875.png,0.0,2.7222278,4.394985,-1.182818
alexnet2023_baseline_pgd,1,413,NaN,cat,airplane,128-0-10,0413_eid_dnn_128-0-10_airplane_10_n02690373_6807.png,n02690373_6807.png,0.0,-2.237305,1.824797,-2.8723397
alexnet2023_baseline_pgd,1,414,NaN,bottle,clock,16-0-10,0414_eid_dnn_16-0-10_clock_10_n04548280_10066.png,n04548280_10066.png,0.0,1.6319494,2.135244,-0.35588294
alexnet2023_baseline_pgd,1,415,NaN,bear,boat,64-0-10,0415_eid_dnn_64-0-10_boat_10_n02951358_15252.png,n02951358_15252.png,0.0,-2.2403011,2.9461646,-3.667385
alexnet2023_baseline_pgd,1,416,NaN,cat,car,64-0-10,0416_eid_dnn_64-0-10_car_10_n02814533_4803.png,n02814533_4803.png,0.0,-3.6273391,2.7721472,-4.5251203
alexnet2023_baseline_pgd,1,417,NaN,oven,car,16-0-10,0417_eid_dnn_16-0-10_car_10_n03100240_24544.png,n03100240_24544.png,0.0,-1.8528131,3.9257305,-4.086047
alexnet2023_baseline_pgd,1,418,NaN,bear,bear,128-0-10,0418_eid_dnn_128-0-10_bear_10_n02132136_4219.png,n02132136_4219.png,1.0,0.68718493,0.50545543,0.12850216
alexnet2023_baseline_pgd,1,419,NaN,elephant,bicycle,32-0-10,0419_eid_dnn_32-0-10_bicycle_10_n02835271_507.png,n02835271_507.png,0.0,2.092093,2.5461445,-0.3210629
alexnet2023_baseline_pgd,1,420,NaN,boat,boat,1-0-10,0420_eid_dnn_1-0-10_boat_10_n04273569_13290.png,n04273569_13290.png,1.0,7.5153704,5.7607636,1.2406943
alexnet2023_baseline_pgd,1,421,NaN,bicycle,bicycle,2-0-10,0421_eid_dnn_2-0-10_bicycle_10_n03792782_42626.png,n03792782_42626.png,1.0,3.579185,3.2242944,0.25094554
alexnet2023_baseline_pgd,1,422,NaN,dog,dog,8-0-10,0422_eid_dnn_8-0-10_dog_10_n02106382_3856.png,n02106382_3856.png,1.0,5.961561,3.5263336,1.721966
alexnet2023_baseline_pgd,1,423,NaN,clock,clock,1-0-10,0423_eid_dnn_1-0-10_clock_10_n02708093_274.png,n02708093_274.png,1.0,8.3200865,4.00456,3.051538
alexnet2023_baseline_pgd,1,424,NaN,elephant,bottle,32-0-10,0424_eid_dnn_32-0-10_bottle_10_n04591713_5921.png,n04591713_5921.png,0.0,-0.019584298,2.5117924,-1.7899537
alexnet2023_baseline_pgd,1,425,NaN,elephant,elephant,1-0-10,0425_eid_dnn_1-0-10_elephant_10_n02504458_3851.png,n02504458_3851.png,1.0,14.699383,3.614345,7.838305
alexnet2023_baseline_pgd,1,426,NaN,elephant,dog,32-0-10,0426_eid_dnn_32-0-10_dog_10_n02105855_995.png,n02105855_995.png,0.0,0.18008606,1.8627973,-1.1898565
alexnet2023_baseline_pgd,1,427,NaN,airplane,airplane,2-0-10,0427_eid_dnn_2-0-10_airplane_10_n02690373_1979.png,n02690373_1979.png,1.0,6.553179,1.949293,3.2554388
alexnet2023_baseline_pgd,1,428,NaN,airplane,airplane,1-0-10,0428_eid_dnn_1-0-10_airplane_10_n02690373_6455.png,n02690373_6455.png,1.0,16.071047,5.2301626,7.665663
alexnet2023_baseline_pgd,1,429,NaN,oven,oven,1-0-10,0429_eid_dnn_1-0-10_oven_10_n04111531_18979.png,n04111531_18979.png,1.0,13.111125,2.0796075,7.800461
alexnet2023_baseline_pgd,1,430,NaN,dog,oven,32-0-10,0430_eid_dnn_32-0-10_oven_10_n04111531_16795.png,n04111531_16795.png,0.0,1.3306465,2.208013,-0.62039185
alexnet2023_baseline_pgd,1,431,NaN,truck,truck,4-0-10,0431_eid_dnn_4-0-10_truck_10_n04467665_41076.png,n04467665_41076.png,1.0,3.1892405,2.7238326,0.32909304
alexnet2023_baseline_pgd,1,432,NaN,elephant,bird,16-0-10,0432_eid_dnn_16-0-10_bird_10_n01534433_31697.png,n01534433_31697.png,0.0,0.60150474,4.2576923,-2.585315
alexnet2023_baseline_pgd,1,433,NaN,cat,keyboard,128-0-10,0433_eid_dnn_128-0-10_keyboard_10_n04505470_4289.png,n04505470_4289.png,0.0,-0.4403596,2.601687,-2.1510518
alexnet2023_baseline_pgd,1,434,NaN,keyboard,keyboard,4-0-10,0434_eid_dnn_4-0-10_keyboard_10_n03085013_20727.png,n03085013_20727.png,1.0,8.496944,1.9676336,4.61692
alexnet2023_baseline_pgd,1,435,NaN,boat,boat,8-0-10,0435_eid_dnn_8-0-10_boat_10_n04273569_7315.png,n04273569_7315.png,1.0,4.9641423,3.252275,1.2104731
alexnet2023_baseline_pgd,1,436,NaN,car,car,1-0-10,0436_eid_dnn_1-0-10_car_10_n03100240_16646.png,n03100240_16646.png,1.0,8.296435,3.438906,3.4347923
alexnet2023_baseline_pgd,1,437,NaN,bear,car,16-0-10,0437_eid_dnn_16-0-10_car_10_n03100240_5281.png,n03100240_5281.png,0.0,-3.0078938,4.043132,-4.985828
alexnet2023_baseline_pgd,1,438,NaN,knife,airplane,128-0-10,0438_eid_dnn_128-0-10_airplane_10_n02690373_1670.png,n02690373_1670.png,0.0,-0.9682927,1.1361153,-1.4880412
alexnet2023_baseline_pgd,1,439,NaN,cat,airplane,128-0-10,0439_eid_dnn_128-0-10_airplane_10_n02690373_9293.png,n02690373_9293.png,0.0,-1.870456,2.7357948,-3.2571113
alexnet2023_baseline_pgd,1,440,NaN,cat,truck,128-0-10,0440_eid_dnn_128-0-10_truck_10_n03796401_15846.png,n03796401_15846.png,0.0,-3.2990036,3.766633,-4.9961596
alexnet2023_baseline_pgd,1,441,NaN,oven,truck,32-0-10,0441_eid_dnn_32-0-10_truck_10_n03796401_6971.png,n03796401_6971.png,0.0,-2.6585445,1.7216841,-3.0972893
alexnet2023_baseline_pgd,1,442,NaN,cat,oven,128-0-10,0442_eid_dnn_128-0-10_oven_10_n04111531_10724.png,n04111531_10724.png,0.0,0.3323813,1.7998327,-1.0376449
alexnet2023_baseline_pgd,1,443,NaN,cat,keyboard,8-0-10,0443_eid_dnn_8-0-10_keyboard_10_n03085013_22187.png,n03085013_22187.png,0.0,-2.7375495,3.756335,-4.59187
alexnet2023_baseline_pgd,1,444,NaN,bear,oven,8-0-10,0444_eid_dnn_8-0-10_oven_10_n04111531_4671.png,n04111531_4671.png,0.0,-1.6161771,3.7568283,-3.7992885
alexnet2023_baseline_pgd,1,445,NaN,airplane,airplane,4-0-10,0445_eid_dnn_4-0-10_airplane_10_n02690373_5142.png,n02690373_5142.png,1.0,11.886746,2.5881832,6.575077
alexnet2023_baseline_pgd,1,446,NaN,elephant,elephant,4-0-10,0446_eid_dnn_4-0-10_elephant_10_n02504013_8562.png,n02504013_8562.png,1.0,10.018227,3.0038092,4.9599423
alexnet2023_baseline_pgd,1,447,NaN,truck,truck,1-0-10,0447_eid_dnn_1-0-10_truck_10_n03417042_9668.png,n03417042_9668.png,1.0,8.885826,7.540819,0.9510636
alexnet2023_baseline_pgd,1,448,NaN,dog,bottle,8-0-10,0448_eid_dnn_8-0-10_bottle_10_n03983396_10330.png,n03983396_10330.png,0.0,2.3639991,3.3665597,-0.70891744
alexnet2023_baseline_pgd,1,449,NaN,cat,elephant,128-0-10,0449_eid_dnn_128-0-10_elephant_10_n02504458_4395.png,n02504458_4395.png,0.0,-1.2098496,3.491782,-3.3245556
alexnet2023_baseline_pgd,1,450,NaN,bear,boat,64-0-10,0450_eid_dnn_64-0-10_boat_10_n03344393_4562.png,n03344393_4562.png,0.0,-1.4398578,1.5712622,-2.1291835
alexnet2023_baseline_pgd,1,451,NaN,oven,oven,2-0-10,0451_eid_dnn_2-0-10_oven_10_n04111531_10011.png,n04111531_10011.png,1.0,10.803656,2.4003532,5.942032
alexnet2023_baseline_pgd,1,452,NaN,bear,oven,64-0-10,0452_eid_dnn_64-0-10_oven_10_n04111531_13797.png,n04111531_13797.png,0.0,0.013114676,2.2670665,-1.5937846
alexnet2023_baseline_pgd,1,453,NaN,truck,boat,2-0-10,0453_eid_dnn_2-0-10_boat_10_n03662601_840.png,n03662601_840.png,0.0,5.7215466,5.842913,-0.08581908
alexnet2023_baseline_pgd,1,454,NaN,elephant,truck,16-0-10,0454_eid_dnn_16-0-10_truck_10_n03417042_17037.png,n03417042_17037.png,0.0,-3.086935,4.813517,-5.5864635
alexnet2023_baseline_pgd,1,455,NaN,airplane,cat,64-0-10,0455_eid_dnn_64-0-10_cat_10_n02125311_2576.png,n02125311_2576.png,0.0,-0.31440705,1.3159322,-1.1528239
alexnet2023_baseline_pgd,1,456,NaN,cat,keyboard,32-0-10,0456_eid_dnn_32-0-10_keyboard_10_n03085013_3264.png,n03085013_3264.png,0.0,-2.256891,1.1513523,-2.409992
alexnet2023_baseline_pgd,1,457,NaN,bird,dog,64-0-10,0457_eid_dnn_64-0-10_dog_10_n02097130_3519.png,n02097130_3519.png,0.0,-0.34205312,1.2740948,-1.1427892
alexnet2023_baseline_pgd,1,458,NaN,elephant,airplane,16-0-10,0458_eid_dnn_16-0-10_airplane_10_n02690373_4486.png,n02690373_4486.png,0.0,-0.70828813,3.0749922,-2.6751833
alexnet2023_baseline_pgd,1,459,NaN,oven,bottle,16-0-10,0459_eid_dnn_16-0-10_bottle_10_n03983396_19635.png,n03983396_19635.png,0.0,0.14706278,3.6980371,-2.5109181
alexnet2023_baseline_pgd,1,460,NaN,elephant,airplane,16-0-10,0460_eid_dnn_16-0-10_airplane_10_n02690373_1426.png,n02690373_1426.png,0.0,-0.83806723,5.3103504,-4.3475876
alexnet2023_baseline_pgd,1,461,NaN,oven,oven,4-0-10,0461_eid_dnn_4-0-10_oven_10_n04111531_5279.png,n04111531_5279.png,1.0,3.3941672,3.0822067,0.22058935
alexnet2023_baseline_pgd,1,462,NaN,cat,bottle,64-0-10,0462_eid_dnn_64-0-10_bottle_10_n03983396_4024.png,n03983396_4024.png,0.0,-0.6758569,0.77925545,-1.0289198
alexnet2023_baseline_pgd,1,463,NaN,elephant,bear,8-0-10,0463_eid_dnn_8-0-10_bear_10_n02133161_12751.png,n02133161_12751.png,0.0,1.8801836,3.4897323,-1.1381228
alexnet2023_baseline_pgd,1,464,NaN,elephant,car,8-0-10,0464_eid_dnn_8-0-10_car_10_n02814533_12271.png,n02814533_12271.png,0.0,-1.5525007,7.645172,-6.503737
alexnet2023_baseline_pgd,1,465,NaN,dog,bottle,16-0-10,0465_eid_dnn_16-0-10_bottle_10_n04560804_5068.png,n04560804_5068.png,0.0,0.9456853,2.325361,-0.975578
alexnet2023_baseline_pgd,1,466,NaN,cat,bottle,128-0-10,0466_eid_dnn_128-0-10_bottle_10_n04579145_1168.png,n04579145_1168.png,0.0,-0.5506219,2.9909775,-2.5042892
alexnet2023_baseline_pgd,1,467,NaN,oven,knife,64-0-10,0467_eid_dnn_64-0-10_knife_10_n03041632_2973.png,n03041632_2973.png,0.0,-2.016327,1.3496714,-2.3801203
alexnet2023_baseline_pgd,1,468,NaN,elephant,airplane,16-0-10,0468_eid_dnn_16-0-10_airplane_10_n02690373_19329.png,n02690373_19329.png,0.0,-0.91540396,5.4373045,-4.492043
alexnet2023_baseline_pgd,1,469,NaN,airplane,bottle,32-0-10,0469_eid_dnn_32-0-10_bottle_10_n04560804_1356.png,n04560804_1356.png,0.0,-0.11476947,3.686956,-2.6882257
alexnet2023_baseline_pgd,1,470,NaN,elephant,bear,8-0-10,0470_eid_dnn_8-0-10_bear_10_n02134084_3960.png,n02134084_3960.png,0.0,2.5491052,4.4846525,-1.3686386
alexnet2023_baseline_pgd,1,471,NaN,elephant,boat,4-0-10,0471_eid_dnn_4-0-10_boat_10_n04612504_27504.png,n04612504_27504.png,0.0,2.5683537,5.312705,-1.9405495
alexnet2023_baseline_pgd,1,472,NaN,dog,dog,4-0-10,0472_eid_dnn_4-0-10_dog_10_n02099601_9973.png,n02099601_9973.png,1.0,7.651249,6.4141507,0.87476057
alexnet2023_baseline_pgd,1,473,NaN,oven,truck,64-0-10,0473_eid_dnn_64-0-10_truck_10_n03417042_26843.png,n03417042_26843.png,0.0,-2.5072658,1.7306435,-2.9966545
alexnet2023_baseline_pgd,1,474,NaN,bear,knife,64-0-10,0474_eid_dnn_64-0-10_knife_10_n03041632_55711.png,n03041632_55711.png,0.0,-2.0852447,1.4171367,-2.4765577
alexnet2023_baseline_pgd,1,475,NaN,dog,elephant,8-0-10,0475_eid_dnn_8-0-10_elephant_10_n02504013_1986.png,n02504013_1986.png,0.0,4.311314,4.322025,-0.0075736204
alexnet2023_baseline_pgd,1,476,NaN,keyboard,keyboard,4-0-10,0476_eid_dnn_4-0-10_keyboard_10_n03085013_9475.png,n03085013_9475.png,1.0,3.8657396,3.4103637,0.3219994
alexnet2023_baseline_pgd,1,477,NaN,elephant,elephant,32-0-10,0477_eid_dnn_32-0-10_elephant_10_n02504458_3381.png,n02504458_3381.png,1.0,2.7977748,1.640297,0.81846035
alexnet2023_baseline_pgd,1,478,NaN,airplane,airplane,8-0-10,0478_eid_dnn_8-0-10_airplane_10_n02690373_1161.png,n02690373_1161.png,1.0,4.0376234,2.1401575,1.341711
alexnet2023_baseline_pgd,1,479,NaN,airplane,cat,64-0-10,0479_eid_dnn_64-0-10_cat_10_n02124075_7474.png,n02124075_7474.png,0.0,-1.1740048,1.6922047,-2.0267162
alexnet2023_baseline_pgd,1,480,NaN,elephant,cat,4-0-10,0480_eid_dnn_4-0-10_cat_10_n02125311_9074.png,n02125311_9074.png,0.0,2.7799346,4.25576,-1.0435662
alexnet2023_baseline_pgd,1,481,NaN,oven,airplane,128-0-10,0481_eid_dnn_128-0-10_airplane_10_n02690373_2867.png,n02690373_2867.png,0.0,-0.03090962,0.6854566,-0.5065474
alexnet2023_baseline_pgd,1,482,NaN,elephant,elephant,2-0-10,0482_eid_dnn_2-0-10_elephant_10_n02504013_1692.png,n02504013_1692.png,1.0,13.539159,5.0607877,5.9951134
alexnet2023_baseline_pgd,1,483,NaN,oven,bird,8-0-10,0483_eid_dnn_8-0-10_bird_10_n02009912_11813.png,n02009912_11813.png,0.0,0.49072784,0.67724174,-0.13188525
alexnet2023_baseline_pgd,1,484,NaN,elephant,bottle,16-0-10,0484_eid_dnn_16-0-10_bottle_10_n04557648_10302.png,n04557648_10302.png,0.0,0.74890476,2.9804263,-1.5779241
alexnet2023_baseline_pgd,1,485,NaN,bottle,keyboard,4-0-10,0485_eid_dnn_4-0-10_keyboard_10_n03085013_20302.png,n03085013_20302.png,0.0,2.5878334,3.3653104,-0.54975927
alexnet2023_baseline_pgd,1,486,NaN,cat,elephant,128-0-10,0486_eid_dnn_128-0-10_elephant_10_n02504458_5827.png,n02504458_5827.png,0.0,-1.8158598,4.0222173,-4.128144
alexnet2023_baseline_pgd,1,487,NaN,knife,knife,1-0-10,0487_eid_dnn_1-0-10_knife_10_n03041632_11327.png,n03041632_11327.png,1.0,11.150489,6.214761,3.4900868
alexnet2023_baseline_pgd,1,488,NaN,bird,bird,4-0-10,0488_eid_dnn_4-0-10_bird_10_n01795545_17770.png,n01795545_17770.png,1.0,3.8690257,3.4789402,0.2758321
alexnet2023_baseline_pgd,1,489,NaN,bicycle,bicycle,4-0-10,0489_eid_dnn_4-0-10_bicycle_10_n02835271_10932.png,n02835271_10932.png,1.0,4.2933807,4.2428255,0.035747945
alexnet2023_baseline_pgd,1,490,NaN,elephant,cat,2-0-10,0490_eid_dnn_2-0-10_cat_10_n02123597_14233.png,n02123597_14233.png,0.0,3.295737,6.0526657,-1.949443
alexnet2023_baseline_pgd,1,491,NaN,bird,bird,1-0-10,0491_eid_dnn_1-0-10_bird_10_n01614925_7662.png,n01614925_7662.png,1.0,9.806743,4.0534496,4.0681925
alexnet2023_baseline_pgd,1,492,NaN,oven,truck,16-0-10,0492_eid_dnn_16-0-10_truck_10_n03417042_5875.png,n03417042_5875.png,0.0,-1.2276957,4.443503,-4.0101433
alexnet2023_baseline_pgd,1,493,NaN,bear,bear,1-0-10,0493_eid_dnn_1-0-10_bear_10_n02134418_304.png,n02134418_304.png,1.0,8.434747,6.84799,1.1220064
alexnet2023_baseline_pgd,1,494,NaN,cat,bird,1-0-10,0494_eid_dnn_1-0-10_bird_10_n01622779_5148.png,n01622779_5148.png,0.0,3.3746428,5.892327,-1.7802714
alexnet2023_baseline_pgd,1,495,NaN,knife,knife,1-0-10,0495_eid_dnn_1-0-10_knife_10_n03041632_44230.png,n03041632_44230.png,1.0,7.816782,4.4261017,2.397573
alexnet2023_baseline_pgd,1,496,NaN,airplane,boat,32-0-10,0496_eid_dnn_32-0-10_boat_10_n03662601_8650.png,n03662601_8650.png,0.0,-0.60208285,1.8997085,-1.7690338
alexnet2023_baseline_pgd,1,497,NaN,oven,oven,16-0-10,0497_eid_dnn_16-0-10_oven_10_n04111531_4346.png,n04111531_4346.png,1.0,4.314807,4.0698233,0.17322962
alexnet2023_baseline_pgd,1,498,NaN,clock,clock,2-0-10,0498_eid_dnn_2-0-10_clock_10_n03196217_2201.png,n03196217_2201.png,1.0,4.178963,2.446507,1.2250315
alexnet2023_baseline_pgd,1,499,NaN,elephant,bicycle,64-0-10,0499_eid_dnn_64-0-10_bicycle_10_n02835271_8757.png,n02835271_8757.png,0.0,0.22180617,0.88335294,-0.46778423
alexnet2023_baseline_pgd,1,500,NaN,cat,keyboard,8-0-10,0500_eid_dnn_8-0-10_keyboard_10_n03085013_23563.png,n03085013_23563.png,0.0,0.86155546,2.7808456,-1.3571432
alexnet2023_baseline_pgd,1,501,NaN,cat,boat,64-0-10,0501_eid_dnn_64-0-10_boat_10_n04273569_15879.png,n04273569_15879.png,0.0,-1.2153676,2.6718187,-2.7486558
alexnet2023_baseline_pgd,1,502,NaN,elephant,truck,64-0-10,0502_eid_dnn_64-0-10_truck_10_n04467665_30588.png,n04467665_30588.png,0.0,-0.5086903,0.85550153,-0.9646293
alexnet2023_baseline_pgd,1,503,NaN,oven,truck,16-0-10,0503_eid_dnn_16-0-10_truck_10_n03417042_1875.png,n03417042_1875.png,0.0,-3.2778559,3.2453206,-4.612582
alexnet2023_baseline_pgd,1,504,NaN,oven,cat,128-0-10,0504_eid_dnn_128-0-10_cat_10_n02123394_6014.png,n02123394_6014.png,0.0,1.0632591,1.3228478,-0.18355694
alexnet2023_baseline_pgd,1,505,NaN,boat,boat,1-0-10,0505_eid_dnn_1-0-10_boat_10_n04273569_10847.png,n04273569_10847.png,1.0,8.008602,3.891509,2.9112246
alexnet2023_baseline_pgd,1,506,NaN,airplane,elephant,64-0-10,0506_eid_dnn_64-0-10_elephant_10_n02504013_5495.png,n02504013_5495.png,0.0,1.0604537,1.1200516,-0.04214213
alexnet2023_baseline_pgd,1,507,NaN,airplane,bottle,128-0-10,0507_eid_dnn_128-0-10_bottle_10_n04560804_16276.png,n04560804_16276.png,0.0,-0.25396758,2.5433416,-1.9779963
alexnet2023_baseline_pgd,1,508,NaN,truck,car,1-0-10,0508_eid_dnn_1-0-10_car_10_n04285008_1243.png,n04285008_1243.png,0.0,6.871294,7.3627996,-0.34754696
alexnet2023_baseline_pgd,1,509,NaN,bear,keyboard,32-0-10,0509_eid_dnn_32-0-10_keyboard_10_n03085013_22027.png,n03085013_22027.png,0.0,-2.3906143,2.9221892,-3.7567194
alexnet2023_baseline_pgd,1,510,NaN,airplane,cat,32-0-10,0510_eid_dnn_32-0-10_cat_10_n02123045_12766.png,n02123045_12766.png,0.0,1.5042667,3.7818592,-1.610501
alexnet2023_baseline_pgd,1,511,NaN,cat,chair,64-0-10,0511_eid_dnn_64-0-10_chair_10_n04429376_29954.png,n04429376_29954.png,0.0,-1.9659252,1.7625991,-2.6364648
alexnet2023_baseline_pgd,1,512,NaN,airplane,elephant,32-0-10,0512_eid_dnn_32-0-10_elephant_10_n02504013_5678.png,n02504013_5678.png,0.0,1.1786705,3.3241496,-1.5170829
alexnet2023_baseline_pgd,1,513,NaN,chair,chair,4-0-10,0513_eid_dnn_4-0-10_chair_10_n03376595_6333.png,n03376595_6333.png,1.0,5.418082,3.5251095,1.3385339
alexnet2023_baseline_pgd,1,514,NaN,keyboard,keyboard,2-0-10,0514_eid_dnn_2-0-10_keyboard_10_n03085013_22605.png,n03085013_22605.png,1.0,5.222379,2.8831232,1.6541039
alexnet2023_baseline_pgd,1,515,NaN,oven,car,32-0-10,0515_eid_dnn_32-0-10_car_10_n04285008_16557.png,n04285008_16557.png,0.0,-2.0451586,5.1356707,-5.077613
alexnet2023_baseline_pgd,1,516,NaN,bear,bottle,64-0-10,0516_eid_dnn_64-0-10_bottle_10_n02823428_1034.png,n02823428_1034.png,0.0,-0.3475001,2.0886855,-1.7226434
alexnet2023_baseline_pgd,1,517,NaN,elephant,elephant,16-0-10,0517_eid_dnn_16-0-10_elephant_10_n02504013_7777.png,n02504013_7777.png,1.0,3.2054608,3.0794473,0.08910502
alexnet2023_baseline_pgd,1,518,NaN,knife,knife,4-0-10,0518_eid_dnn_4-0-10_knife_10_n03041632_14293.png,n03041632_14293.png,1.0,2.8943055,1.647775,0.88143015
alexnet2023_baseline_pgd,1,519,NaN,cat,knife,8-0-10,0519_eid_dnn_8-0-10_knife_10_n03041632_50423.png,n03041632_50423.png,0.0,-1.1187984,1.3556834,-1.749723
alexnet2023_baseline_pgd,1,520,NaN,chair,chair,2-0-10,0520_eid_dnn_2-0-10_chair_10_n03376595_3043.png,n03376595_3043.png,1.0,5.3944116,4.0709696,0.9358148
alexnet2023_baseline_pgd,1,521,NaN,cat,cat,8-0-10,0521_eid_dnn_8-0-10_cat_10_n02123394_2434.png,n02123394_2434.png,1.0,3.9277885,2.724038,0.85118026
alexnet2023_baseline_pgd,1,522,NaN,truck,truck,1-0-10,0522_eid_dnn_1-0-10_truck_10_n04467665_54079.png,n04467665_54079.png,1.0,5.897128,4.785355,0.78614223
alexnet2023_baseline_pgd,1,523,NaN,elephant,bird,2-0-10,0523_eid_dnn_2-0-10_bird_10_n01855672_1001.png,n01855672_1001.png,0.0,2.1666517,2.6729126,-0.3579805
alexnet2023_baseline_pgd,1,524,NaN,bottle,bottle,1-0-10,0524_eid_dnn_1-0-10_bottle_10_n04560804_6112.png,n04560804_6112.png,1.0,3.812791,2.4786267,0.9433967
alexnet2023_baseline_pgd,1,525,NaN,keyboard,keyboard,1-0-10,0525_eid_dnn_1-0-10_keyboard_10_n04505470_1744.png,n04505470_1744.png,1.0,10.752762,7.870957,2.0377438
alexnet2023_baseline_pgd,1,526,NaN,elephant,boat,32-0-10,0526_eid_dnn_32-0-10_boat_10_n02951358_15087.png,n02951358_15087.png,0.0,-1.388829,3.4906783,-3.4503326
alexnet2023_baseline_pgd,1,527,NaN,elephant,bottle,4-0-10,0527_eid_dnn_4-0-10_bottle_10_n04557648_10051.png,n04557648_10051.png,0.0,4.700154,5.8842535,-0.8372849
alexnet2023_baseline_pgd,1,528,NaN,elephant,bear,64-0-10,0528_eid_dnn_64-0-10_bear_10_n02134084_5794.png,n02134084_5794.png,0.0,0.78583217,1.0020984,-0.15292335
alexnet2023_baseline_pgd,1,529,NaN,keyboard,keyboard,4-0-10,0529_eid_dnn_4-0-10_keyboard_10_n04505470_751.png,n04505470_751.png,1.0,7.478201,3.2317002,3.0027297
alexnet2023_baseline_pgd,1,530,NaN,elephant,boat,128-0-10,0530_eid_dnn_128-0-10_boat_10_n04273569_9306.png,n04273569_9306.png,0.0,-2.5347457,1.4269018,-2.801308
alexnet2023_baseline_pgd,1,531,NaN,bicycle,chair,16-0-10,0531_eid_dnn_16-0-10_chair_10_n02791124_9162.png,n02791124_9162.png,0.0,-0.073338926,1.9719429,-1.4462327
alexnet2023_baseline_pgd,1,532,NaN,elephant,bicycle,128-0-10,0532_eid_dnn_128-0-10_bicycle_10_n02835271_25033.png,n02835271_25033.png,0.0,-1.0525771,0.8595588,-1.3520843
alexnet2023_baseline_pgd,1,533,NaN,cat,keyboard,128-0-10,0533_eid_dnn_128-0-10_keyboard_10_n04505470_3905.png,n04505470_3905.png,0.0,-1.4522779,4.1267242,-3.9449506
alexnet2023_baseline_pgd,1,534,NaN,knife,knife,4-0-10,0534_eid_dnn_4-0-10_knife_10_n03041632_32054.png,n03041632_32054.png,1.0,6.198832,2.5902994,2.5516179
alexnet2023_baseline_pgd,1,535,NaN,bear,clock,8-0-10,0535_eid_dnn_8-0-10_clock_10_n03196217_13380.png,n03196217_13380.png,0.0,-1.3830758,3.5400236,-3.481157
alexnet2023_baseline_pgd,1,536,NaN,elephant,chair,32-0-10,0536_eid_dnn_32-0-10_chair_10_n03376595_8083.png,n03376595_8083.png,0.0,-0.70587224,1.5053351,-1.5635598
alexnet2023_baseline_pgd,1,537,NaN,dog,cat,8-0-10,0537_eid_dnn_8-0-10_cat_10_n02125311_47927.png,n02125311_47927.png,0.0,2.1711762,5.06336,-2.045083
alexnet2023_baseline_pgd,1,538,NaN,oven,boat,64-0-10,0538_eid_dnn_64-0-10_boat_10_n04273569_1141.png,n04273569_1141.png,0.0,-2.6735578,2.9189966,-3.954533
alexnet2023_baseline_pgd,1,539,NaN,oven,dog,64-0-10,0539_eid_dnn_64-0-10_dog_10_n02097130_5859.png,n02097130_5859.png,0.0,0.41418365,1.8143294,-0.9900526
alexnet2023_baseline_pgd,1,540,NaN,elephant,dog,16-0-10,0540_eid_dnn_16-0-10_dog_10_n02090721_835.png,n02090721_835.png,0.0,0.3440687,2.8854117,-1.7970009
alexnet2023_baseline_pgd,1,541,NaN,elephant,bear,128-0-10,0541_eid_dnn_128-0-10_bear_10_n02132136_15806.png,n02132136_15806.png,0.0,0.79590946,1.2445214,-0.31721655
alexnet2023_baseline_pgd,1,542,NaN,oven,cat,128-0-10,0542_eid_dnn_128-0-10_cat_10_n02124075_12069.png,n02124075_12069.png,0.0,1.7189516,1.8102438,-0.06455338
alexnet2023_baseline_pgd,1,543,NaN,oven,oven,2-0-10,0543_eid_dnn_2-0-10_oven_10_n04111531_21382.png,n04111531_21382.png,1.0,11.119644,3.712244,5.237823
alexnet2023_baseline_pgd,1,544,NaN,dog,cat,1-0-10,0544_eid_dnn_1-0-10_cat_10_n02123597_2009.png,n02123597_2009.png,0.0,1.6907134,3.4669538,-1.2559916
alexnet2023_baseline_pgd,1,545,NaN,oven,oven,32-0-10,0545_eid_dnn_32-0-10_oven_10_n04111531_4392.png,n04111531_4392.png,1.0,1.9586565,1.8588841,0.07054978
alexnet2023_baseline_pgd,1,546,NaN,elephant,boat,4-0-10,0546_eid_dnn_4-0-10_boat_10_n03344393_640.png,n03344393_640.png,0.0,3.6318028,6.03802,-1.7014526
alexnet2023_baseline_pgd,1,547,NaN,bottle,car,4-0-10,0547_eid_dnn_4-0-10_car_10_n02814533_245.png,n02814533_245.png,0.0,3.7897701,4.3234553,-0.37737244
alexnet2023_baseline_pgd,1,548,NaN,bird,bird,1-0-10,0548_eid_dnn_1-0-10_bird_10_n01530575_3831.png,n01530575_3831.png,1.0,6.4456058,2.4231045,2.8443377
alexnet2023_baseline_pgd,1,549,NaN,truck,truck,2-0-10,0549_eid_dnn_2-0-10_truck_10_n04467665_32276.png,n04467665_32276.png,1.0,12.756428,10.316341,1.7254016
alexnet2023_baseline_pgd,1,550,NaN,bird,elephant,64-0-10,0550_eid_dnn_64-0-10_elephant_10_n02504458_5941.png,n02504458_5941.png,0.0,2.0681374,2.3440711,-0.19511463
alexnet2023_baseline_pgd,1,551,NaN,elephant,elephant,4-0-10,0551_eid_dnn_4-0-10_elephant_10_n02504013_9796.png,n02504013_9796.png,1.0,12.866208,8.034384,3.4166157
alexnet2023_baseline_pgd,1,552,NaN,airplane,airplane,4-0-10,0552_eid_dnn_4-0-10_airplane_10_n02690373_8214.png,n02690373_8214.png,1.0,8.080614,3.4039235,3.3069196
alexnet2023_baseline_pgd,1,553,NaN,airplane,airplane,1-0-10,0553_eid_dnn_1-0-10_airplane_10_n02690373_8967.png,n02690373_8967.png,1.0,17.699863,4.992622,8.985376
alexnet2023_baseline_pgd,1,554,NaN,airplane,elephant,64-0-10,0554_eid_dnn_64-0-10_elephant_10_n02504458_7642.png,n02504458_7642.png,0.0,0.099666625,3.2552996,-2.2313695
alexnet2023_baseline_pgd,1,555,NaN,boat,boat,1-0-10,0555_eid_dnn_1-0-10_boat_10_n04273569_15455.png,n04273569_15455.png,1.0,8.158372,3.3185787,3.4222507
alexnet2023_baseline_pgd,1,556,NaN,elephant,knife,8-0-10,0556_eid_dnn_8-0-10_knife_10_n03041632_3063.png,n03041632_3063.png,0.0,-2.144205,5.1358294,-5.147762
alexnet2023_baseline_pgd,1,557,NaN,bottle,bottle,4-0-10,0557_eid_dnn_4-0-10_bottle_10_n03937543_4912.png,n03937543_4912.png,1.0,3.9951224,1.278215,1.9211438
alexnet2023_baseline_pgd,1,558,NaN,oven,oven,4-0-10,0558_eid_dnn_4-0-10_oven_10_n04111531_5776.png,n04111531_5776.png,1.0,3.8407931,3.6256564,0.15212467
alexnet2023_baseline_pgd,1,559,NaN,cat,bottle,128-0-10,0559_eid_dnn_128-0-10_bottle_10_n03983396_4540.png,n03983396_4540.png,0.0,-1.3325304,3.7729957,-3.610152
alexnet2023_baseline_pgd,1,560,NaN,knife,knife,2-0-10,0560_eid_dnn_2-0-10_knife_10_n03041632_965.png,n03041632_965.png,1.0,12.449733,5.927181,4.6121407
alexnet2023_baseline_pgd,1,561,NaN,airplane,knife,32-0-10,0561_eid_dnn_32-0-10_knife_10_n03041632_12949.png,n03041632_12949.png,0.0,-1.6293797,4.629149,-4.425448
alexnet2023_baseline_pgd,1,562,NaN,bear,knife,16-0-10,0562_eid_dnn_16-0-10_knife_10_n03041632_18766.png,n03041632_18766.png,0.0,-0.7416324,2.357427,-2.191366
alexnet2023_baseline_pgd,1,563,NaN,oven,keyboard,8-0-10,0563_eid_dnn_8-0-10_keyboard_10_n04505470_2869.png,n04505470_2869.png,0.0,2.091166,5.691899,-2.5461025
alexnet2023_baseline_pgd,1,564,NaN,bicycle,bicycle,4-0-10,0564_eid_dnn_4-0-10_bicycle_10_n02835271_18537.png,n02835271_18537.png,1.0,4.3425646,3.3585448,0.69580704
alexnet2023_baseline_pgd,1,565,NaN,elephant,clock,32-0-10,0565_eid_dnn_32-0-10_clock_10_n04548280_1119.png,n04548280_1119.png,0.0,-0.00014015038,0.84164274,-0.5952304
alexnet2023_baseline_pgd,1,566,NaN,oven,oven,1-0-10,0566_eid_dnn_1-0-10_oven_10_n04111531_687.png,n04111531_687.png,1.0,13.927755,2.9153366,7.7869563
alexnet2023_baseline_pgd,1,567,NaN,oven,chair,64-0-10,0567_eid_dnn_64-0-10_chair_10_n03376595_3038.png,n03376595_3038.png,0.0,-1.6722463,1.8665717,-2.5023222
alexnet2023_baseline_pgd,1,568,NaN,oven,bicycle,16-0-10,0568_eid_dnn_16-0-10_bicycle_10_n02835271_3989.png,n02835271_3989.png,0.0,0.6148182,1.7194291,-0.78107786
alexnet2023_baseline_pgd,1,569,NaN,airplane,dog,64-0-10,0569_eid_dnn_64-0-10_dog_10_n02096437_4563.png,n02096437_4563.png,0.0,-0.50255716,2.2202704,-1.9253298
alexnet2023_baseline_pgd,1,570,NaN,elephant,clock,32-0-10,0570_eid_dnn_32-0-10_clock_10_n02708093_685.png,n02708093_685.png,0.0,-1.0288876,2.1598597,-2.254785
alexnet2023_baseline_pgd,1,571,NaN,cat,boat,32-0-10,0571_eid_dnn_32-0-10_boat_10_n03662601_8360.png,n03662601_8360.png,0.0,-1.7404354,1.9143165,-2.5842998
alexnet2023_baseline_pgd,1,572,NaN,elephant,keyboard,8-0-10,0572_eid_dnn_8-0-10_keyboard_10_n03085013_17035.png,n03085013_17035.png,0.0,-2.5452135,1.3784115,-2.774422
alexnet2023_baseline_pgd,1,573,NaN,oven,dog,64-0-10,0573_eid_dnn_64-0-10_dog_10_n02110063_12166.png,n02110063_12166.png,0.0,0.039869457,2.855792,-1.9911579
alexnet2023_baseline_pgd,1,574,NaN,cat,dog,2-0-10,0574_eid_dnn_2-0-10_dog_10_n02108422_6951.png,n02108422_6951.png,0.0,5.1553516,5.3350167,-0.1270424
alexnet2023_baseline_pgd,1,575,NaN,airplane,bear,64-0-10,0575_eid_dnn_64-0-10_bear_10_n02134418_912.png,n02134418_912.png,0.0,0.8325461,3.35431,-1.7831563
alexnet2023_baseline_pgd,1,576,NaN,clock,clock,4-0-10,0576_eid_dnn_4-0-10_clock_10_n02708093_564.png,n02708093_564.png,1.0,3.8548362,2.8007314,0.74536467
alexnet2023_baseline_pgd,1,577,NaN,oven,car,64-0-10,0577_eid_dnn_64-0-10_car_10_n04285008_11893.png,n04285008_11893.png,0.0,-2.5246565,1.2371161,-2.659975
alexnet2023_baseline_pgd,1,578,NaN,airplane,knife,64-0-10,0578_eid_dnn_64-0-10_knife_10_n03041632_20504.png,n03041632_20504.png,0.0,0.13922256,2.9711301,-2.002461
alexnet2023_baseline_pgd,1,579,NaN,bottle,clock,4-0-10,0579_eid_dnn_4-0-10_clock_10_n04548280_4557.png,n04548280_4557.png,0.0,3.1911905,4.784482,-1.1266272
alexnet2023_baseline_pgd,1,580,NaN,oven,clock,32-0-10,0580_eid_dnn_32-0-10_clock_10_n02708093_3360.png,n02708093_3360.png,0.0,-0.3855203,0.6103635,-0.7041962
alexnet2023_baseline_pgd,1,581,NaN,airplane,bear,16-0-10,0581_eid_dnn_16-0-10_bear_10_n02134084_617.png,n02134084_617.png,0.0,1.5501624,2.4636042,-0.6459009
alexnet2023_baseline_pgd,1,582,NaN,oven,dog,1-0-10,0582_eid_dnn_1-0-10_dog_10_n02093991_4081.png,n02093991_4081.png,0.0,1.2568563,2.074126,-0.57789695
alexnet2023_baseline_pgd,1,583,NaN,elephant,elephant,16-0-10,0583_eid_dnn_16-0-10_elephant_10_n02504458_1727.png,n02504458_1727.png,1.0,5.0723705,3.0799415,1.4088601
alexnet2023_baseline_pgd,1,584,NaN,cat,clock,32-0-10,0584_eid_dnn_32-0-10_clock_10_n04548280_16295.png,n04548280_16295.png,0.0,-0.09518647,1.1820995,-0.90317756
alexnet2023_baseline_pgd,1,585,NaN,elephant,boat,4-0-10,0585_eid_dnn_4-0-10_boat_10_n02951358_16217.png,n02951358_16217.png,0.0,1.8954494,5.8974686,-2.8298547
alexnet2023_baseline_pgd,1,586,NaN,elephant,airplane,8-0-10,0586_eid_dnn_8-0-10_airplane_10_n02690373_7536.png,n02690373_7536.png,0.0,1.2699296,3.1117945,-1.3023951
alexnet2023_baseline_pgd,1,587,NaN,bear,cat,8-0-10,0587_eid_dnn_8-0-10_cat_10_n02123597_22140.png,n02123597_22140.png,0.0,3.0754483,3.0913296,-0.011229775
alexnet2023_baseline_pgd,1,588,NaN,knife,bottle,128-0-10,0588_eid_dnn_128-0-10_bottle_10_n04591713_8914.png,n04591713_8914.png,0.0,-5.4308348e-05,0.9040477,-0.6392967
alexnet2023_baseline_pgd,1,589,NaN,elephant,car,128-0-10,0589_eid_dnn_128-0-10_car_10_n03100240_963.png,n03100240_963.png,0.0,-2.1863875,0.7301768,-2.0623226
alexnet2023_baseline_pgd,1,590,NaN,knife,boat,32-0-10,0590_eid_dnn_32-0-10_boat_10_n02951358_18762.png,n02951358_18762.png,0.0,-2.648123,0.40553558,-2.1592627
alexnet2023_baseline_pgd,1,591,NaN,elephant,bear,32-0-10,0591_eid_dnn_32-0-10_bear_10_n02134418_2633.png,n02134418_2633.png,0.0,1.8720411,1.9741333,-0.072190054
alexnet2023_baseline_pgd,1,592,NaN,cat,airplane,64-0-10,0592_eid_dnn_64-0-10_airplane_10_n02690373_1169.png,n02690373_1169.png,0.0,0.31037545,1.4239081,-0.78738654
alexnet2023_baseline_pgd,1,593,NaN,bicycle,bicycle,2-0-10,0593_eid_dnn_2-0-10_bicycle_10_n03792782_12704.png,n03792782_12704.png,1.0,7.89441,2.3146513,3.9454854
alexnet2023_baseline_pgd,1,594,NaN,bear,dog,64-0-10,0594_eid_dnn_64-0-10_dog_10_n02088238_2973.png,n02088238_2973.png,0.0,-0.13325508,1.7424613,-1.3263319
alexnet2023_baseline_pgd,1,595,NaN,oven,knife,32-0-10,0595_eid_dnn_32-0-10_knife_10_n03041632_41493.png,n03041632_41493.png,0.0,0.29107344,2.0339556,-1.2324038
alexnet2023_baseline_pgd,1,596,NaN,bird,bottle,128-0-10,0596_eid_dnn_128-0-10_bottle_10_n03983396_2959.png,n03983396_2959.png,0.0,-0.6332646,0.95230514,-1.1211672
alexnet2023_baseline_pgd,1,597,NaN,clock,clock,1-0-10,0597_eid_dnn_1-0-10_clock_10_n02708093_2843.png,n02708093_2843.png,1.0,6.9934373,6.169525,0.58259386
alexnet2023_baseline_pgd,1,598,NaN,elephant,oven,8-0-10,0598_eid_dnn_8-0-10_oven_10_n04111531_12952.png,n04111531_12952.png,0.0,0.80915654,5.212739,-3.1138031
alexnet2023_baseline_pgd,1,599,NaN,bear,bear,16-0-10,0599_eid_dnn_16-0-10_bear_10_n02134418_2891.png,n02134418_2891.png,1.0,2.8208044,1.7568549,0.7523259
alexnet2023_baseline_pgd,1,600,NaN,elephant,truck,32-0-10,0600_eid_dnn_32-0-10_truck_10_n03417042_3862.png,n03417042_3862.png,0.0,-1.6121144,2.6704674,-3.0282426
alexnet2023_baseline_pgd,1,601,NaN,elephant,elephant,16-0-10,0601_eid_dnn_16-0-10_elephant_10_n02504458_2054.png,n02504458_2054.png,1.0,4.3734493,3.1896944,0.83704114
alexnet2023_baseline_pgd,1,602,NaN,airplane,airplane,1-0-10,0602_eid_dnn_1-0-10_airplane_10_n02690373_7355.png,n02690373_7355.png,1.0,12.370708,4.2683034,5.729266
alexnet2023_baseline_pgd,1,603,NaN,cat,knife,128-0-10,0603_eid_dnn_128-0-10_knife_10_n03041632_22738.png,n03041632_22738.png,0.0,-1.6080269,2.1623356,-2.6660488
alexnet2023_baseline_pgd,1,604,NaN,oven,oven,1-0-10,0604_eid_dnn_1-0-10_oven_10_n04111531_4250.png,n04111531_4250.png,1.0,12.058055,5.2429814,4.818985
alexnet2023_baseline_pgd,1,605,NaN,oven,clock,8-0-10,0605_eid_dnn_8-0-10_clock_10_n04548280_7826.png,n04548280_7826.png,0.0,-0.54630595,4.2400002,-3.3844297
alexnet2023_baseline_pgd,1,606,NaN,airplane,clock,64-0-10,0606_eid_dnn_64-0-10_clock_10_n04548280_17198.png,n04548280_17198.png,0.0,1.2239031,1.6094296,-0.27260843
alexnet2023_baseline_pgd,1,607,NaN,knife,bicycle,128-0-10,0607_eid_dnn_128-0-10_bicycle_10_n02835271_4726.png,n02835271_4726.png,0.0,-0.0048794644,0.30049044,-0.21592914
alexnet2023_baseline_pgd,1,608,NaN,cat,chair,128-0-10,0608_eid_dnn_128-0-10_chair_10_n03376595_9079.png,n03376595_9079.png,0.0,-2.1338022,2.164872,-3.0396216
alexnet2023_baseline_pgd,1,609,NaN,airplane,airplane,4-0-10,0609_eid_dnn_4-0-10_airplane_10_n02690373_2324.png,n02690373_2324.png,1.0,7.172179,3.736549,2.4293575
alexnet2023_baseline_pgd,1,610,NaN,airplane,dog,64-0-10,0610_eid_dnn_64-0-10_dog_10_n02104029_5234.png,n02104029_5234.png,0.0,-0.16284236,2.0307796,-1.5511249
alexnet2023_baseline_pgd,1,611,NaN,bear,bottle,2-0-10,0611_eid_dnn_2-0-10_bottle_10_n04591713_335.png,n04591713_335.png,0.0,3.3515594,4.7794676,-1.0096836
alexnet2023_baseline_pgd,1,612,NaN,airplane,airplane,2-0-10,0612_eid_dnn_2-0-10_airplane_10_n02690373_4148.png,n02690373_4148.png,1.0,12.335636,8.313904,2.8437943
alexnet2023_baseline_pgd,1,613,NaN,bear,bear,2-0-10,0613_eid_dnn_2-0-10_bear_10_n02134084_18800.png,n02134084_18800.png,1.0,6.8690305,5.934758,0.6606303
alexnet2023_baseline_pgd,1,614,NaN,dog,boat,16-0-10,0614_eid_dnn_16-0-10_boat_10_n03662601_1191.png,n03662601_1191.png,0.0,-0.19892171,2.4849806,-1.8978056
alexnet2023_baseline_pgd,1,615,NaN,keyboard,keyboard,2-0-10,0615_eid_dnn_2-0-10_keyboard_10_n04505470_4505.png,n04505470_4505.png,1.0,8.343663,3.957531,3.1014638
alexnet2023_baseline_pgd,1,616,NaN,dog,knife,4-0-10,0616_eid_dnn_4-0-10_knife_10_n03041632_1607.png,n03041632_1607.png,0.0,0.027204186,2.078351,-1.4503798
alexnet2023_baseline_pgd,1,617,NaN,elephant,car,32-0-10,0617_eid_dnn_32-0-10_car_10_n03100240_11224.png,n03100240_11224.png,0.0,-1.1545473,2.1423106,-2.3312306
alexnet2023_baseline_pgd,1,618,NaN,clock,airplane,128-0-10,0618_eid_dnn_128-0-10_airplane_10_n02690373_7142.png,n02690373_7142.png,0.0,-1.0583366,0.6773142,-1.2272905
alexnet2023_baseline_pgd,1,619,NaN,airplane,airplane,4-0-10,0619_eid_dnn_4-0-10_airplane_10_n02690373_18693.png,n02690373_18693.png,1.0,12.236603,5.427623,4.814676
alexnet2023_baseline_pgd,1,620,NaN,elephant,chair,8-0-10,0620_eid_dnn_8-0-10_chair_10_n03376595_3214.png,n03376595_3214.png,0.0,-1.7458566,6.7389536,-5.9996667
alexnet2023_baseline_pgd,1,621,NaN,elephant,boat,16-0-10,0621_eid_dnn_16-0-10_boat_10_n03662601_17198.png,n03662601_17198.png,0.0,1.0980272,1.9343101,-0.59134126
alexnet2023_baseline_pgd,1,622,NaN,airplane,knife,32-0-10,0622_eid_dnn_32-0-10_knife_10_n03041632_27879.png,n03041632_27879.png,0.0,-1.3924767,3.921724,-3.7577076
alexnet2023_baseline_pgd,1,623,NaN,oven,chair,1-0-10,0623_eid_dnn_1-0-10_chair_10_n02791124_3601.png,n02791124_3601.png,0.0,3.371554,5.85359,-1.7550646
alexnet2023_baseline_pgd,1,624,NaN,elephant,bicycle,16-0-10,0624_eid_dnn_16-0-10_bicycle_10_n03792782_10876.png,n03792782_10876.png,0.0,1.0912229,3.7636824,-1.8897144
alexnet2023_baseline_pgd,1,625,NaN,bottle,clock,4-0-10,0625_eid_dnn_4-0-10_clock_10_n03196217_5568.png,n03196217_5568.png,0.0,-2.2680771,2.457719,-3.3416426
alexnet2023_baseline_pgd,1,626,NaN,elephant,truck,16-0-10,0626_eid_dnn_16-0-10_truck_10_n04467665_2695.png,n04467665_2695.png,0.0,-2.0444179,5.152655,-5.0890994
alexnet2023_baseline_pgd,1,627,NaN,elephant,elephant,8-0-10,0627_eid_dnn_8-0-10_elephant_10_n02504013_4005.png,n02504013_4005.png,1.0,6.2787886,3.3042028,2.10335
alexnet2023_baseline_pgd,1,628,NaN,cat,elephant,128-0-10,0628_eid_dnn_128-0-10_elephant_10_n02504458_3094.png,n02504458_3094.png,0.0,-1.6438913,1.8459162,-2.4676666
