subj,session,trial,rt,object_response,category,condition,imagename,filename,is_correct,targ_act,max_nontarg_act,decision_margin
alexnet_w3_mlp_simclrhn_probe1,1,1,NaN,bear,oven,16-0-10,0001_eid_dnn_16-0-10_oven_10_n04111531_13542.png,n04111531_13542.png,0.0,-1.0277988,1.2638779,-1.62046
alexnet_w3_mlp_simclrhn_probe1,1,2,NaN,car,car,4-0-10,0002_eid_dnn_4-0-10_car_10_n03100240_5570.png,n03100240_5570.png,1.0,1.2585703,-0.19864413,1.0304062
alexnet_w3_mlp_simclrhn_probe1,1,3,NaN,cat,bird,8-0-10,0003_eid_dnn_8-0-10_bird_10_n01820546_4847.png,n01820546_4847.png,0.0,-5.391767,0.72265023,-4.323546
alexnet_w3_mlp_simclrhn_probe1,1,4,NaN,bear,bear,32-0-10,0004_eid_dnn_32-0-10_bear_10_n02133161_15561.png,n02133161_15561.png,1.0,-0.75218403,-1.588901,0.5916483
alexnet_w3_mlp_simclrhn_probe1,1,5,NaN,oven,bird,64-0-10,0005_eid_dnn_64-0-10_bird_10_n01531178_9584.png,n01531178_9584.png,0.0,-3.6581755,-0.69208926,-2.0973396
alexnet_w3_mlp_simclrhn_probe1,1,6,NaN,bear,bicycle,8-0-10,0006_eid_dnn_8-0-10_bicycle_10_n02835271_18846.png,n02835271_18846.png,0.0,-5.9728637,1.6747333,-5.4076676
alexnet_w3_mlp_simclrhn_probe1,1,7,NaN,oven,oven,4-0-10,0007_eid_dnn_4-0-10_oven_10_n04111531_73.png,n04111531_73.png,1.0,1.2694398,-0.2977659,1.1081817
alexnet_w3_mlp_simclrhn_probe1,1,8,NaN,bottle,clock,2-0-10,0008_eid_dnn_2-0-10_clock_10_n04548280_6159.png,n04548280_6159.png,0.0,-4.531853,-2.2220228,-1.6332967
alexnet_w3_mlp_simclrhn_probe1,1,9,NaN,oven,chair,32-0-10,0009_eid_dnn_32-0-10_chair_10_n03376595_9395.png,n03376595_9395.png,0.0,-6.7980137,0.54577017,-5.1928396
alexnet_w3_mlp_simclrhn_probe1,1,10,NaN,bear,bicycle,64-0-10,0010_eid_dnn_64-0-10_bicycle_10_n02835271_1918.png,n02835271_1918.png,0.0,-2.8911936,-1.3797164,-1.0687758
alexnet_w3_mlp_simclrhn_probe1,1,11,NaN,oven,bicycle,128-0-10,0011_eid_dnn_128-0-10_bicycle_10_n02835271_42320.png,n02835271_42320.png,0.0,-8.131781,-1.7437348,-4.5170307
alexnet_w3_mlp_simclrhn_probe1,1,12,NaN,elephant,elephant,1-0-10,0012_eid_dnn_1-0-10_elephant_10_n02504458_3628.png,n02504458_3628.png,1.0,4.898743,-0.043815926,3.4949172
alexnet_w3_mlp_simclrhn_probe1,1,13,NaN,oven,knife,64-0-10,0013_eid_dnn_64-0-10_knife_10_n03041632_86554.png,n03041632_86554.png,0.0,-2.68252,-1.1955452,-1.0514499
alexnet_w3_mlp_simclrhn_probe1,1,14,NaN,bear,cat,8-0-10,0014_eid_dnn_8-0-10_cat_10_n02123394_1726.png,n02123394_1726.png,0.0,-1.1264242,-0.6189172,-0.35886163
alexnet_w3_mlp_simclrhn_probe1,1,15,NaN,bear,cat,32-0-10,0015_eid_dnn_32-0-10_cat_10_n02123597_6721.png,n02123597_6721.png,0.0,-1.759396,-0.80951893,-0.6716645
alexnet_w3_mlp_simclrhn_probe1,1,16,NaN,oven,oven,2-0-10,0016_eid_dnn_2-0-10_oven_10_n04111531_21869.png,n04111531_21869.png,1.0,0.3243857,-0.7889987,0.78728175
alexnet_w3_mlp_simclrhn_probe1,1,17,NaN,bear,bear,4-0-10,0017_eid_dnn_4-0-10_bear_10_n02134084_2949.png,n02134084_2949.png,1.0,-0.8169254,-2.0551443,0.875553
alexnet_w3_mlp_simclrhn_probe1,1,18,NaN,bear,truck,8-0-10,0018_eid_dnn_8-0-10_truck_10_n03417042_18743.png,n03417042_18743.png,0.0,-6.4473906,-0.19651556,-4.4200363
alexnet_w3_mlp_simclrhn_probe1,1,19,NaN,bear,bird,16-0-10,0019_eid_dnn_16-0-10_bird_10_n01616318_4246.png,n01616318_4246.png,0.0,-2.7361925,-0.80089104,-1.3684648
alexnet_w3_mlp_simclrhn_probe1,1,20,NaN,bear,bicycle,8-0-10,0020_eid_dnn_8-0-10_bicycle_10_n03792782_66771.png,n03792782_66771.png,0.0,-4.203231,-0.06573111,-2.9256542
alexnet_w3_mlp_simclrhn_probe1,1,21,NaN,keyboard,keyboard,2-0-10,0021_eid_dnn_2-0-10_keyboard_10_n04505470_3531.png,n04505470_3531.png,1.0,2.4477117,0.18552354,1.5996087
alexnet_w3_mlp_simclrhn_probe1,1,22,NaN,oven,clock,8-0-10,0022_eid_dnn_8-0-10_clock_10_n04548280_6463.png,n04548280_6463.png,0.0,-4.222779,0.041813046,-3.0155218
alexnet_w3_mlp_simclrhn_probe1,1,23,NaN,oven,keyboard,16-0-10,0023_eid_dnn_16-0-10_keyboard_10_n04505470_4974.png,n04505470_4974.png,0.0,-7.4135327,-0.37046444,-4.9802017
alexnet_w3_mlp_simclrhn_probe1,1,24,NaN,oven,chair,4-0-10,0024_eid_dnn_4-0-10_chair_10_n03376595_360.png,n03376595_360.png,0.0,-4.948189,0.09573424,-3.5665922
alexnet_w3_mlp_simclrhn_probe1,1,25,NaN,bear,dog,16-0-10,0025_eid_dnn_16-0-10_dog_10_n02097130_2752.png,n02097130_2752.png,0.0,-2.536436,0.41422313,-2.0864313
alexnet_w3_mlp_simclrhn_probe1,1,26,NaN,oven,bicycle,2-0-10,0026_eid_dnn_2-0-10_bicycle_10_n02835271_3406.png,n02835271_3406.png,0.0,-2.7279973,0.98455954,-2.625174
alexnet_w3_mlp_simclrhn_probe1,1,27,NaN,oven,bottle,16-0-10,0027_eid_dnn_16-0-10_bottle_10_n04560804_11732.png,n04560804_11732.png,0.0,-2.6757262,-0.5056674,-1.5344633
alexnet_w3_mlp_simclrhn_probe1,1,28,NaN,oven,bottle,32-0-10,0028_eid_dnn_32-0-10_bottle_10_n04591713_13589.png,n04591713_13589.png,0.0,-5.0195136,-0.34194845,-3.307538
alexnet_w3_mlp_simclrhn_probe1,1,29,NaN,cat,cat,2-0-10,0029_eid_dnn_2-0-10_cat_10_n02123045_4009.png,n02123045_4009.png,1.0,3.0706491,-0.5566768,2.5649068
alexnet_w3_mlp_simclrhn_probe1,1,30,NaN,cat,chair,8-0-10,0030_eid_dnn_8-0-10_chair_10_n02791124_1704.png,n02791124_1704.png,0.0,-5.9188232,-1.2731031,-3.28502
alexnet_w3_mlp_simclrhn_probe1,1,31,NaN,oven,bicycle,128-0-10,0031_eid_dnn_128-0-10_bicycle_10_n03792782_28395.png,n03792782_28395.png,0.0,-3.350115,-1.5445974,-1.2766938
alexnet_w3_mlp_simclrhn_probe1,1,32,NaN,bear,truck,16-0-10,0032_eid_dnn_16-0-10_truck_10_n03417042_4288.png,n03417042_4288.png,0.0,-7.709816,0.20453313,-5.59629
alexnet_w3_mlp_simclrhn_probe1,1,33,NaN,keyboard,keyboard,1-0-10,0033_eid_dnn_1-0-10_keyboard_10_n04505470_3371.png,n04505470_3371.png,1.0,3.2839088,0.087782316,2.2600029
alexnet_w3_mlp_simclrhn_probe1,1,34,NaN,cat,cat,1-0-10,0034_eid_dnn_1-0-10_cat_10_n02124075_13436.png,n02124075_13436.png,1.0,2.0846946,-0.7926216,2.0345697
alexnet_w3_mlp_simclrhn_probe1,1,35,NaN,oven,dog,32-0-10,0035_eid_dnn_32-0-10_dog_10_n02097209_8270.png,n02097209_8270.png,0.0,-2.8903031,-0.12751436,-1.9535867
alexnet_w3_mlp_simclrhn_probe1,1,36,NaN,oven,clock,128-0-10,0036_eid_dnn_128-0-10_clock_10_n04548280_7795.png,n04548280_7795.png,0.0,-4.516309,-2.2947512,-1.5708785
alexnet_w3_mlp_simclrhn_probe1,1,37,NaN,bear,car,32-0-10,0037_eid_dnn_32-0-10_car_10_n03100240_21737.png,n03100240_21737.png,0.0,-6.8897552,-1.2915683,-3.9585161
alexnet_w3_mlp_simclrhn_probe1,1,38,NaN,oven,clock,128-0-10,0038_eid_dnn_128-0-10_clock_10_n02708093_1862.png,n02708093_1862.png,0.0,-3.192714,-1.5479131,-1.1630499
alexnet_w3_mlp_simclrhn_probe1,1,39,NaN,bicycle,bicycle,64-0-10,0039_eid_dnn_64-0-10_bicycle_10_n03792782_9412.png,n03792782_9412.png,1.0,-1.8197799,-1.9310731,0.07869618
alexnet_w3_mlp_simclrhn_probe1,1,40,NaN,bear,bear,32-0-10,0040_eid_dnn_32-0-10_bear_10_n02134418_163.png,n02134418_163.png,1.0,-0.09606457,-1.0208741,0.6539391
alexnet_w3_mlp_simclrhn_probe1,1,41,NaN,bear,keyboard,16-0-10,0041_eid_dnn_16-0-10_keyboard_10_n03085013_25675.png,n03085013_25675.png,0.0,-4.532213,-0.8821917,-2.580955
alexnet_w3_mlp_simclrhn_probe1,1,42,NaN,oven,truck,2-0-10,0042_eid_dnn_2-0-10_truck_10_n03417042_1716.png,n03417042_1716.png,0.0,-1.3348787,0.037657484,-0.9705297
alexnet_w3_mlp_simclrhn_probe1,1,43,NaN,oven,keyboard,128-0-10,0043_eid_dnn_128-0-10_keyboard_10_n03085013_18854.png,n03085013_18854.png,0.0,-4.9867215,-1.8648443,-2.2075005
alexnet_w3_mlp_simclrhn_probe1,1,44,NaN,oven,bottle,32-0-10,0044_eid_dnn_32-0-10_bottle_10_n04591713_4865.png,n04591713_4865.png,0.0,-3.843738,0.3644786,-2.9756587
alexnet_w3_mlp_simclrhn_probe1,1,45,NaN,bear,bicycle,32-0-10,0045_eid_dnn_32-0-10_bicycle_10_n03792782_693.png,n03792782_693.png,0.0,-3.68944,0.15653905,-2.719518
alexnet_w3_mlp_simclrhn_probe1,1,46,NaN,dog,bottle,1-0-10,0046_eid_dnn_1-0-10_bottle_10_n04557648_264.png,n04557648_264.png,0.0,-3.7810667,-0.8350753,-2.0831304
alexnet_w3_mlp_simclrhn_probe1,1,47,NaN,knife,knife,2-0-10,0047_eid_dnn_2-0-10_knife_10_n03041632_25512.png,n03041632_25512.png,1.0,-0.6045887,-1.2635001,0.46592075
alexnet_w3_mlp_simclrhn_probe1,1,48,NaN,bear,boat,16-0-10,0048_eid_dnn_16-0-10_boat_10_n03344393_2381.png,n03344393_2381.png,0.0,-2.0966613,0.35288668,-1.732092
alexnet_w3_mlp_simclrhn_probe1,1,49,NaN,cat,dog,128-0-10,0049_eid_dnn_128-0-10_dog_10_n02110627_17670.png,n02110627_17670.png,0.0,-4.8555546,-2.6433296,-1.5642793
alexnet_w3_mlp_simclrhn_probe1,1,50,NaN,oven,bear,64-0-10,0050_eid_dnn_64-0-10_bear_10_n02133161_15981.png,n02133161_15981.png,0.0,-7.072632,-1.0172627,-4.2817926
alexnet_w3_mlp_simclrhn_probe1,1,51,NaN,bear,elephant,16-0-10,0051_eid_dnn_16-0-10_elephant_10_n02504458_3570.png,n02504458_3570.png,0.0,0.5966981,1.1636477,-0.40089387
alexnet_w3_mlp_simclrhn_probe1,1,52,NaN,bottle,truck,4-0-10,0052_eid_dnn_4-0-10_truck_10_n03417042_6241.png,n03417042_6241.png,0.0,-2.3665478,0.15204786,-1.7809161
alexnet_w3_mlp_simclrhn_probe1,1,53,NaN,bear,bird,8-0-10,0053_eid_dnn_8-0-10_bird_10_n02025239_17670.png,n02025239_17670.png,0.0,-1.8899407,-0.2538814,-1.1568686
alexnet_w3_mlp_simclrhn_probe1,1,54,NaN,bear,dog,16-0-10,0054_eid_dnn_16-0-10_dog_10_n02106030_19249.png,n02106030_19249.png,0.0,-1.6773425,0.099832416,-1.2566525
alexnet_w3_mlp_simclrhn_probe1,1,55,NaN,bear,keyboard,32-0-10,0055_eid_dnn_32-0-10_keyboard_10_n04505470_2326.png,n04505470_2326.png,0.0,-6.2617116,-0.5276898,-4.054566
alexnet_w3_mlp_simclrhn_probe1,1,56,NaN,bear,dog,16-0-10,0056_eid_dnn_16-0-10_dog_10_n02107142_9379.png,n02107142_9379.png,0.0,-1.6718259,0.24286935,-1.353894
alexnet_w3_mlp_simclrhn_probe1,1,57,NaN,oven,cat,64-0-10,0057_eid_dnn_64-0-10_cat_10_n02123394_1828.png,n02123394_1828.png,0.0,-2.892909,-1.7615105,-0.8000196
alexnet_w3_mlp_simclrhn_probe1,1,58,NaN,oven,car,32-0-10,0058_eid_dnn_32-0-10_car_10_n03100240_4605.png,n03100240_4605.png,0.0,-9.24391,-0.5336778,-6.1590643
alexnet_w3_mlp_simclrhn_probe1,1,59,NaN,elephant,bicycle,4-0-10,0059_eid_dnn_4-0-10_bicycle_10_n03792782_6765.png,n03792782_6765.png,0.0,-2.5274267,-0.52443004,-1.4163326
alexnet_w3_mlp_simclrhn_probe1,1,60,NaN,bear,boat,8-0-10,0060_eid_dnn_8-0-10_boat_10_n03344393_8455.png,n03344393_8455.png,0.0,-3.543858,-1.0315748,-1.7764527
alexnet_w3_mlp_simclrhn_probe1,1,61,NaN,oven,oven,16-0-10,0061_eid_dnn_16-0-10_oven_10_n04111531_8603.png,n04111531_8603.png,1.0,0.30819193,-0.9084988,0.86033034
alexnet_w3_mlp_simclrhn_probe1,1,62,NaN,bird,bird,2-0-10,0062_eid_dnn_2-0-10_bird_10_n02051845_2574.png,n02051845_2574.png,1.0,0.020429976,-2.7020607,1.9250917
alexnet_w3_mlp_simclrhn_probe1,1,63,NaN,boat,boat,4-0-10,0063_eid_dnn_4-0-10_boat_10_n04612504_15875.png,n04612504_15875.png,1.0,0.81180745,-0.70394236,1.071797
alexnet_w3_mlp_simclrhn_probe1,1,64,NaN,oven,bottle,4-0-10,0064_eid_dnn_4-0-10_bottle_10_n03983396_7337.png,n03983396_7337.png,0.0,-2.001931,-0.88472176,-0.7899862
alexnet_w3_mlp_simclrhn_probe1,1,65,NaN,elephant,clock,8-0-10,0065_eid_dnn_8-0-10_clock_10_n02708093_6822.png,n02708093_6822.png,0.0,-4.0588455,0.099293485,-2.9402485
alexnet_w3_mlp_simclrhn_probe1,1,66,NaN,airplane,truck,2-0-10,0066_eid_dnn_2-0-10_truck_10_n04467665_15994.png,n04467665_15994.png,0.0,-0.67325735,-0.14126574,-0.37617487
alexnet_w3_mlp_simclrhn_probe1,1,67,NaN,oven,cat,128-0-10,0067_eid_dnn_128-0-10_cat_10_n02123597_6291.png,n02123597_6291.png,0.0,-1.9520016,-1.9378508,-0.010006083
alexnet_w3_mlp_simclrhn_probe1,1,68,NaN,cat,bird,8-0-10,0068_eid_dnn_8-0-10_bird_10_n01817953_1734.png,n01817953_1734.png,0.0,-4.2948036,-0.9292264,-2.3798225
alexnet_w3_mlp_simclrhn_probe1,1,69,NaN,oven,elephant,32-0-10,0069_eid_dnn_32-0-10_elephant_10_n02504458_6880.png,n02504458_6880.png,0.0,-1.0186193,-0.21072467,-0.5712678
alexnet_w3_mlp_simclrhn_probe1,1,70,NaN,oven,cat,16-0-10,0070_eid_dnn_16-0-10_cat_10_n02123597_13197.png,n02123597_13197.png,0.0,-1.1892606,-0.60281706,-0.41467822
alexnet_w3_mlp_simclrhn_probe1,1,71,NaN,bear,bicycle,64-0-10,0071_eid_dnn_64-0-10_bicycle_10_n03792782_973.png,n03792782_973.png,0.0,-3.134704,-1.0703814,-1.4596967
alexnet_w3_mlp_simclrhn_probe1,1,72,NaN,cat,cat,2-0-10,0072_eid_dnn_2-0-10_cat_10_n02124075_8310.png,n02124075_8310.png,1.0,2.2713134,-0.33112368,1.8402009
alexnet_w3_mlp_simclrhn_probe1,1,73,NaN,oven,oven,32-0-10,0073_eid_dnn_32-0-10_oven_10_n04111531_5168.png,n04111531_5168.png,1.0,-0.84308314,-1.7893097,0.66908324
alexnet_w3_mlp_simclrhn_probe1,1,74,NaN,airplane,airplane,1-0-10,0074_eid_dnn_1-0-10_airplane_10_n02690373_4893.png,n02690373_4893.png,1.0,4.6539483,-1.0894144,4.0611706
alexnet_w3_mlp_simclrhn_probe1,1,75,NaN,dog,dog,1-0-10,0075_eid_dnn_1-0-10_dog_10_n02086240_3614.png,n02086240_3614.png,1.0,0.22556208,-0.4046227,0.44560793
alexnet_w3_mlp_simclrhn_probe1,1,76,NaN,oven,oven,16-0-10,0076_eid_dnn_16-0-10_oven_10_n04111531_2937.png,n04111531_2937.png,1.0,0.34625977,-1.3473474,1.197561
alexnet_w3_mlp_simclrhn_probe1,1,77,NaN,airplane,clock,1-0-10,0077_eid_dnn_1-0-10_clock_10_n03196217_2022.png,n03196217_2022.png,0.0,-0.9119652,0.1961776,-0.78357536
alexnet_w3_mlp_simclrhn_probe1,1,78,NaN,bear,bottle,64-0-10,0078_eid_dnn_64-0-10_bottle_10_n04591713_2732.png,n04591713_2732.png,0.0,-3.4598029,-1.6244323,-1.2978029
alexnet_w3_mlp_simclrhn_probe1,1,79,NaN,car,car,2-0-10,0079_eid_dnn_2-0-10_car_10_n03100240_8794.png,n03100240_8794.png,1.0,3.2187748,1.5594573,1.1733147
alexnet_w3_mlp_simclrhn_probe1,1,80,NaN,oven,airplane,16-0-10,0080_eid_dnn_16-0-10_airplane_10_n02690373_3640.png,n02690373_3640.png,0.0,-2.9030795,-0.7702691,-1.5081247
alexnet_w3_mlp_simclrhn_probe1,1,81,NaN,oven,bicycle,64-0-10,0081_eid_dnn_64-0-10_bicycle_10_n03792782_41097.png,n03792782_41097.png,0.0,-2.4856658,-1.2423499,-0.8791571
alexnet_w3_mlp_simclrhn_probe1,1,82,NaN,bear,dog,64-0-10,0082_eid_dnn_64-0-10_dog_10_n02090721_6770.png,n02090721_6770.png,0.0,-2.5405765,-1.1762651,-0.9647138
alexnet_w3_mlp_simclrhn_probe1,1,83,NaN,bear,cat,16-0-10,0083_eid_dnn_16-0-10_cat_10_n02123597_28968.png,n02123597_28968.png,0.0,-1.4607631,-0.5732077,-0.62759644
alexnet_w3_mlp_simclrhn_probe1,1,84,NaN,elephant,elephant,1-0-10,0084_eid_dnn_1-0-10_elephant_10_n02504013_5894.png,n02504013_5894.png,1.0,8.190135,1.6605661,4.617102
alexnet_w3_mlp_simclrhn_probe1,1,85,NaN,oven,oven,32-0-10,0085_eid_dnn_32-0-10_oven_10_n04111531_9314.png,n04111531_9314.png,1.0,-0.44091606,-1.2419143,0.5663913
alexnet_w3_mlp_simclrhn_probe1,1,86,NaN,elephant,elephant,1-0-10,0086_eid_dnn_1-0-10_elephant_10_n02504458_12074.png,n02504458_12074.png,1.0,2.3831732,0.32972065,1.4520102
alexnet_w3_mlp_simclrhn_probe1,1,87,NaN,boat,boat,4-0-10,0087_eid_dnn_4-0-10_boat_10_n03344393_3773.png,n03344393_3773.png,1.0,-0.2788871,-1.2164885,0.6629843
alexnet_w3_mlp_simclrhn_probe1,1,88,NaN,oven,truck,128-0-10,0088_eid_dnn_128-0-10_truck_10_n04467665_80153.png,n04467665_80153.png,0.0,-5.210776,-1.3411382,-2.736247
alexnet_w3_mlp_simclrhn_probe1,1,89,NaN,oven,chair,128-0-10,0089_eid_dnn_128-0-10_chair_10_n04099969_20604.png,n04099969_20604.png,0.0,-3.8596058,-0.9467063,-2.059731
alexnet_w3_mlp_simclrhn_probe1,1,90,NaN,oven,keyboard,32-0-10,0090_eid_dnn_32-0-10_keyboard_10_n03085013_23625.png,n03085013_23625.png,0.0,-3.3446121,-0.3012123,-2.1520088
alexnet_w3_mlp_simclrhn_probe1,1,91,NaN,oven,truck,64-0-10,0091_eid_dnn_64-0-10_truck_10_n03796401_1458.png,n03796401_1458.png,0.0,-7.125811,-1.5198512,-3.9640124
alexnet_w3_mlp_simclrhn_probe1,1,92,NaN,oven,car,4-0-10,0092_eid_dnn_4-0-10_car_10_n03100240_18711.png,n03100240_18711.png,0.0,-1.9926748,-1.0227283,-0.68585575
alexnet_w3_mlp_simclrhn_probe1,1,93,NaN,oven,truck,128-0-10,0093_eid_dnn_128-0-10_truck_10_n03796401_2988.png,n03796401_2988.png,0.0,-8.224401,-1.784898,-4.5534167
alexnet_w3_mlp_simclrhn_probe1,1,94,NaN,truck,truck,2-0-10,0094_eid_dnn_2-0-10_truck_10_n03417042_7096.png,n03417042_7096.png,1.0,5.4983063,2.7189696,1.9652878
alexnet_w3_mlp_simclrhn_probe1,1,95,NaN,cat,dog,8-0-10,0095_eid_dnn_8-0-10_dog_10_n02105855_9345.png,n02105855_9345.png,0.0,-0.8908719,-0.5311219,-0.25438166
alexnet_w3_mlp_simclrhn_probe1,1,96,NaN,bear,bird,32-0-10,0096_eid_dnn_32-0-10_bird_10_n01796340_8342.png,n01796340_8342.png,0.0,-2.2151623,-0.20768495,-1.4195008
alexnet_w3_mlp_simclrhn_probe1,1,97,NaN,cat,airplane,8-0-10,0097_eid_dnn_8-0-10_airplane_10_n02690373_7293.png,n02690373_7293.png,0.0,-2.5723395,-0.31677917,-1.5949221
alexnet_w3_mlp_simclrhn_probe1,1,98,NaN,oven,car,64-0-10,0098_eid_dnn_64-0-10_car_10_n04285008_9811.png,n04285008_9811.png,0.0,-9.320227,-0.8297187,-6.003696
alexnet_w3_mlp_simclrhn_probe1,1,99,NaN,bear,knife,8-0-10,0099_eid_dnn_8-0-10_knife_10_n03041632_86783.png,n03041632_86783.png,0.0,-4.493466,0.85743433,-3.7836578
alexnet_w3_mlp_simclrhn_probe1,1,100,NaN,oven,oven,16-0-10,0100_eid_dnn_16-0-10_oven_10_n04111531_9867.png,n04111531_9867.png,1.0,1.1703647,-0.4027832,1.1123836
alexnet_w3_mlp_simclrhn_probe1,1,101,NaN,cat,truck,128-0-10,0101_eid_dnn_128-0-10_truck_10_n04467665_22573.png,n04467665_22573.png,0.0,-9.641201,-2.6260736,-4.960444
alexnet_w3_mlp_simclrhn_probe1,1,102,NaN,oven,car,128-0-10,0102_eid_dnn_128-0-10_car_10_n02814533_23512.png,n02814533_23512.png,0.0,-8.163367,-2.5121207,-3.9960349
alexnet_w3_mlp_simclrhn_probe1,1,103,NaN,bear,bicycle,16-0-10,0103_eid_dnn_16-0-10_bicycle_10_n03792782_4895.png,n03792782_4895.png,0.0,-9.495739,-0.5892612,-6.297831
alexnet_w3_mlp_simclrhn_probe1,1,104,NaN,keyboard,keyboard,2-0-10,0104_eid_dnn_2-0-10_keyboard_10_n03085013_23554.png,n03085013_23554.png,1.0,0.337299,-0.6971007,0.73143107
alexnet_w3_mlp_simclrhn_probe1,1,105,NaN,bear,bear,1-0-10,0105_eid_dnn_1-0-10_bear_10_n02134084_8601.png,n02134084_8601.png,1.0,-0.28315753,-0.895093,0.43270373
alexnet_w3_mlp_simclrhn_probe1,1,106,NaN,bear,bicycle,8-0-10,0106_eid_dnn_8-0-10_bicycle_10_n03792782_126.png,n03792782_126.png,0.0,-5.6978626,0.60426414,-4.456277
alexnet_w3_mlp_simclrhn_probe1,1,107,NaN,chair,chair,1-0-10,0107_eid_dnn_1-0-10_chair_10_n04099969_3583.png,n04099969_3583.png,1.0,1.5995396,0.5840996,0.7180245
alexnet_w3_mlp_simclrhn_probe1,1,108,NaN,cat,bicycle,8-0-10,0108_eid_dnn_8-0-10_bicycle_10_n02835271_976.png,n02835271_976.png,0.0,-7.5167723,0.0089709265,-5.321504
alexnet_w3_mlp_simclrhn_probe1,1,109,NaN,oven,oven,32-0-10,0109_eid_dnn_32-0-10_oven_10_n04111531_10313.png,n04111531_10313.png,1.0,0.5258043,-0.403134,0.65685856
alexnet_w3_mlp_simclrhn_probe1,1,110,NaN,oven,oven,1-0-10,0110_eid_dnn_1-0-10_oven_10_n04111531_8984.png,n04111531_8984.png,1.0,7.6125126,-0.3286411,5.6152434
alexnet_w3_mlp_simclrhn_probe1,1,111,NaN,elephant,elephant,8-0-10,0111_eid_dnn_8-0-10_elephant_10_n02504013_3181.png,n02504013_3181.png,1.0,1.6381545,1.4975934,0.099391714
alexnet_w3_mlp_simclrhn_probe1,1,112,NaN,bear,keyboard,64-0-10,0112_eid_dnn_64-0-10_keyboard_10_n03085013_21490.png,n03085013_21490.png,0.0,-4.888879,-1.0990077,-2.6798437
alexnet_w3_mlp_simclrhn_probe1,1,113,NaN,knife,bird,4-0-10,0113_eid_dnn_4-0-10_bird_10_n01614925_2708.png,n01614925_2708.png,0.0,-1.9110651,-0.23857506,-1.182629
alexnet_w3_mlp_simclrhn_probe1,1,114,NaN,oven,bottle,16-0-10,0114_eid_dnn_16-0-10_bottle_10_n03983396_3109.png,n03983396_3109.png,0.0,-4.2971764,-1.1489724,-2.2261164
alexnet_w3_mlp_simclrhn_probe1,1,115,NaN,oven,bear,128-0-10,0115_eid_dnn_128-0-10_bear_10_n02134418_377.png,n02134418_377.png,0.0,-3.296081,-1.7251005,-1.110851
alexnet_w3_mlp_simclrhn_probe1,1,116,NaN,oven,knife,16-0-10,0116_eid_dnn_16-0-10_knife_10_n03041632_7680.png,n03041632_7680.png,0.0,-3.5810277,-0.7952591,-1.9698359
alexnet_w3_mlp_simclrhn_probe1,1,117,NaN,elephant,truck,4-0-10,0117_eid_dnn_4-0-10_truck_10_n03417042_3807.png,n03417042_3807.png,0.0,-2.3458147,0.39454484,-1.9377269
alexnet_w3_mlp_simclrhn_probe1,1,118,NaN,oven,elephant,128-0-10,0118_eid_dnn_128-0-10_elephant_10_n02504013_6501.png,n02504013_6501.png,0.0,-4.494549,-0.7849151,-2.6231072
alexnet_w3_mlp_simclrhn_probe1,1,119,NaN,oven,bicycle,32-0-10,0119_eid_dnn_32-0-10_bicycle_10_n03792782_5517.png,n03792782_5517.png,0.0,-3.6733794,-1.4163009,-1.5959957
alexnet_w3_mlp_simclrhn_probe1,1,120,NaN,oven,bottle,128-0-10,0120_eid_dnn_128-0-10_bottle_10_n02823428_5791.png,n02823428_5791.png,0.0,-5.07244,-1.8081317,-2.3082147
alexnet_w3_mlp_simclrhn_probe1,1,121,NaN,oven,car,128-0-10,0121_eid_dnn_128-0-10_car_10_n04285008_10144.png,n04285008_10144.png,0.0,-9.591342,-2.0242312,-5.3507557
alexnet_w3_mlp_simclrhn_probe1,1,122,NaN,cat,cat,4-0-10,0122_eid_dnn_4-0-10_cat_10_n02123159_5764.png,n02123159_5764.png,1.0,3.6757762,-0.8697741,3.2141895
alexnet_w3_mlp_simclrhn_probe1,1,123,NaN,cat,dog,16-0-10,0123_eid_dnn_16-0-10_dog_10_n02085936_4491.png,n02085936_4491.png,0.0,-0.8388347,-0.30693474,-0.37611005
alexnet_w3_mlp_simclrhn_probe1,1,124,NaN,oven,bicycle,32-0-10,0124_eid_dnn_32-0-10_bicycle_10_n03792782_6159.png,n03792782_6159.png,0.0,-4.180648,-0.54545105,-2.5704722
alexnet_w3_mlp_simclrhn_probe1,1,125,NaN,clock,clock,4-0-10,0125_eid_dnn_4-0-10_clock_10_n04548280_2404.png,n04548280_2404.png,1.0,0.5905806,-1.062334,1.1687871
alexnet_w3_mlp_simclrhn_probe1,1,126,NaN,oven,bottle,64-0-10,0126_eid_dnn_64-0-10_bottle_10_n04591713_360.png,n04591713_360.png,0.0,-5.400237,0.27430725,-4.012509
alexnet_w3_mlp_simclrhn_probe1,1,127,NaN,oven,airplane,16-0-10,0127_eid_dnn_16-0-10_airplane_10_n02690373_1909.png,n02690373_1909.png,0.0,-3.9998512,-0.8073928,-2.257409
alexnet_w3_mlp_simclrhn_probe1,1,128,NaN,bear,bear,2-0-10,0128_eid_dnn_2-0-10_bear_10_n02133161_9724.png,n02133161_9724.png,1.0,1.2021947,-0.80042857,1.4160686
alexnet_w3_mlp_simclrhn_probe1,1,129,NaN,car,car,2-0-10,0129_eid_dnn_2-0-10_car_10_n04285008_5897.png,n04285008_5897.png,1.0,7.755359,2.8334346,3.4803264
alexnet_w3_mlp_simclrhn_probe1,1,130,NaN,bicycle,bicycle,1-0-10,0130_eid_dnn_1-0-10_bicycle_10_n02835271_9807.png,n02835271_9807.png,1.0,2.9396381,-3.2658424,4.3879375
alexnet_w3_mlp_simclrhn_probe1,1,131,NaN,knife,keyboard,1-0-10,0131_eid_dnn_1-0-10_keyboard_10_n03085013_23286.png,n03085013_23286.png,0.0,-1.9251375,0.14846341,-1.4662573
alexnet_w3_mlp_simclrhn_probe1,1,132,NaN,bicycle,clock,2-0-10,0132_eid_dnn_2-0-10_clock_10_n02708093_772.png,n02708093_772.png,0.0,-3.2023537,-0.94068474,-1.5992415
alexnet_w3_mlp_simclrhn_probe1,1,133,NaN,keyboard,clock,4-0-10,0133_eid_dnn_4-0-10_clock_10_n03196217_820.png,n03196217_820.png,0.0,-1.8188549,0.6431462,-1.7408977
alexnet_w3_mlp_simclrhn_probe1,1,134,NaN,bear,dog,32-0-10,0134_eid_dnn_32-0-10_dog_10_n02093754_6351.png,n02093754_6351.png,0.0,-1.687053,-0.39488742,-0.91369903
alexnet_w3_mlp_simclrhn_probe1,1,135,NaN,cat,truck,8-0-10,0135_eid_dnn_8-0-10_truck_10_n03417042_27093.png,n03417042_27093.png,0.0,-7.8116994,-0.11256071,-5.4441133
alexnet_w3_mlp_simclrhn_probe1,1,136,NaN,elephant,bicycle,4-0-10,0136_eid_dnn_4-0-10_bicycle_10_n03792782_30530.png,n03792782_30530.png,0.0,-5.04883,1.3821237,-4.5473714
alexnet_w3_mlp_simclrhn_probe1,1,137,NaN,bottle,bottle,4-0-10,0137_eid_dnn_4-0-10_bottle_10_n03937543_5215.png,n03937543_5215.png,1.0,0.008386816,-0.8695719,0.62081057
alexnet_w3_mlp_simclrhn_probe1,1,138,NaN,bicycle,boat,2-0-10,0138_eid_dnn_2-0-10_boat_10_n02951358_9933.png,n02951358_9933.png,0.0,-3.0422196,-1.6746163,-0.9670416
alexnet_w3_mlp_simclrhn_probe1,1,139,NaN,bear,dog,4-0-10,0139_eid_dnn_4-0-10_dog_10_n02086910_8694.png,n02086910_8694.png,0.0,-0.366859,-0.18603936,-0.12785879
alexnet_w3_mlp_simclrhn_probe1,1,140,NaN,cat,knife,8-0-10,0140_eid_dnn_8-0-10_knife_10_n03041632_3504.png,n03041632_3504.png,0.0,-1.5143156,0.026306054,-1.0893841
alexnet_w3_mlp_simclrhn_probe1,1,141,NaN,oven,knife,128-0-10,0141_eid_dnn_128-0-10_knife_10_n03041632_15754.png,n03041632_15754.png,0.0,-2.7611403,-0.7035188,-1.4549581
alexnet_w3_mlp_simclrhn_probe1,1,142,NaN,bear,truck,8-0-10,0142_eid_dnn_8-0-10_truck_10_n04467665_45306.png,n04467665_45306.png,0.0,-2.6917615,-0.517658,-1.5373234
alexnet_w3_mlp_simclrhn_probe1,1,143,NaN,elephant,elephant,1-0-10,0143_eid_dnn_1-0-10_elephant_10_n02504013_5351.png,n02504013_5351.png,1.0,1.2252307,-1.3669701,1.8329628
alexnet_w3_mlp_simclrhn_probe1,1,144,NaN,cat,bottle,2-0-10,0144_eid_dnn_2-0-10_bottle_10_n03937543_7763.png,n03937543_7763.png,0.0,-2.5071323,-0.10975987,-1.6951984
alexnet_w3_mlp_simclrhn_probe1,1,145,NaN,bear,bird,32-0-10,0145_eid_dnn_32-0-10_bird_10_n01843383_91.png,n01843383_91.png,0.0,-2.7040117,-1.2130972,-1.0542357
alexnet_w3_mlp_simclrhn_probe1,1,146,NaN,knife,clock,4-0-10,0146_eid_dnn_4-0-10_clock_10_n04548280_28.png,n04548280_28.png,0.0,-1.20536,-0.4920809,-0.5043645
alexnet_w3_mlp_simclrhn_probe1,1,147,NaN,oven,knife,16-0-10,0147_eid_dnn_16-0-10_knife_10_n03041632_102828.png,n03041632_102828.png,0.0,-3.3257234,-0.3519928,-2.102745
alexnet_w3_mlp_simclrhn_probe1,1,148,NaN,oven,car,128-0-10,0148_eid_dnn_128-0-10_car_10_n03100240_7520.png,n03100240_7520.png,0.0,-8.899604,-1.7543942,-5.0524263
alexnet_w3_mlp_simclrhn_probe1,1,149,NaN,oven,knife,16-0-10,0149_eid_dnn_16-0-10_knife_10_n03041632_53874.png,n03041632_53874.png,0.0,-2.0983188,0.0055438243,-1.4876555
alexnet_w3_mlp_simclrhn_probe1,1,150,NaN,bear,boat,16-0-10,0150_eid_dnn_16-0-10_boat_10_n04273569_3896.png,n04273569_3896.png,0.0,-4.8750544,-1.8267543,-2.1554737
alexnet_w3_mlp_simclrhn_probe1,1,151,NaN,airplane,airplane,2-0-10,0151_eid_dnn_2-0-10_airplane_10_n02690373_6002.png,n02690373_6002.png,1.0,5.8871765,1.2054498,3.3104806
alexnet_w3_mlp_simclrhn_probe1,1,152,NaN,cat,chair,8-0-10,0152_eid_dnn_8-0-10_chair_10_n04099969_7191.png,n04099969_7191.png,0.0,-5.608779,-0.106649555,-3.8905933
alexnet_w3_mlp_simclrhn_probe1,1,153,NaN,oven,dog,32-0-10,0153_eid_dnn_32-0-10_dog_10_n02101388_4808.png,n02101388_4808.png,0.0,-2.224284,-0.27917027,-1.375403
alexnet_w3_mlp_simclrhn_probe1,1,154,NaN,cat,keyboard,16-0-10,0154_eid_dnn_16-0-10_keyboard_10_n03085013_24538.png,n03085013_24538.png,0.0,-6.664831,-0.26518568,-4.525233
alexnet_w3_mlp_simclrhn_probe1,1,155,NaN,oven,knife,128-0-10,0155_eid_dnn_128-0-10_knife_10_n03041632_85488.png,n03041632_85488.png,0.0,-4.273937,-3.2826934,-0.7009153
alexnet_w3_mlp_simclrhn_probe1,1,156,NaN,cat,car,4-0-10,0156_eid_dnn_4-0-10_car_10_n04285008_7630.png,n04285008_7630.png,0.0,-7.196833,-2.6342783,-3.2262135
alexnet_w3_mlp_simclrhn_probe1,1,157,NaN,bear,airplane,8-0-10,0157_eid_dnn_8-0-10_airplane_10_n02690373_2941.png,n02690373_2941.png,0.0,-4.1960654,-0.5863923,-2.5524244
alexnet_w3_mlp_simclrhn_probe1,1,158,NaN,bear,bird,64-0-10,0158_eid_dnn_64-0-10_bird_10_n01514859_6021.png,n01514859_6021.png,0.0,-2.8907146,-1.5901656,-0.9196271
alexnet_w3_mlp_simclrhn_probe1,1,159,NaN,oven,clock,64-0-10,0159_eid_dnn_64-0-10_clock_10_n04548280_3293.png,n04548280_3293.png,0.0,-3.9606876,-0.29073936,-2.5950453
alexnet_w3_mlp_simclrhn_probe1,1,160,NaN,oven,oven,4-0-10,0160_eid_dnn_4-0-10_oven_10_n04111531_4998.png,n04111531_4998.png,1.0,0.1106796,-1.2763021,0.9807442
alexnet_w3_mlp_simclrhn_probe1,1,161,NaN,knife,bird,128-0-10,0161_eid_dnn_128-0-10_bird_10_n02028035_32993.png,n02028035_32993.png,0.0,-3.7948241,-1.9053441,-1.3360641
alexnet_w3_mlp_simclrhn_probe1,1,162,NaN,bird,bird,2-0-10,0162_eid_dnn_2-0-10_bird_10_n01843383_7800.png,n01843383_7800.png,1.0,-3.6267354,-4.362776,0.5204591
alexnet_w3_mlp_simclrhn_probe1,1,163,NaN,oven,bear,64-0-10,0163_eid_dnn_64-0-10_bear_10_n02132136_15174.png,n02132136_15174.png,0.0,-1.9353724,-0.8679711,-0.75476664
alexnet_w3_mlp_simclrhn_probe1,1,164,NaN,oven,oven,4-0-10,0164_eid_dnn_4-0-10_oven_10_n04111531_7266.png,n04111531_7266.png,1.0,0.40333784,-1.9766623,1.6829143
alexnet_w3_mlp_simclrhn_probe1,1,165,NaN,oven,cat,128-0-10,0165_eid_dnn_128-0-10_cat_10_n02124075_6464.png,n02124075_6464.png,0.0,-1.712016,-1.2437899,-0.33108583
alexnet_w3_mlp_simclrhn_probe1,1,166,NaN,bear,bicycle,16-0-10,0166_eid_dnn_16-0-10_bicycle_10_n02835271_4667.png,n02835271_4667.png,0.0,-5.192171,0.31823704,-3.896447
alexnet_w3_mlp_simclrhn_probe1,1,167,NaN,bear,chair,32-0-10,0167_eid_dnn_32-0-10_chair_10_n04099969_2532.png,n04099969_2532.png,0.0,-5.556523,-1.0111835,-3.2140405
alexnet_w3_mlp_simclrhn_probe1,1,168,NaN,bottle,bottle,4-0-10,0168_eid_dnn_4-0-10_bottle_10_n04560804_15683.png,n04560804_15683.png,1.0,-0.08280283,-0.84396434,0.5382225
alexnet_w3_mlp_simclrhn_probe1,1,169,NaN,cat,chair,8-0-10,0169_eid_dnn_8-0-10_chair_10_n04099969_6825.png,n04099969_6825.png,0.0,-5.2582893,-0.20697671,-3.5718174
alexnet_w3_mlp_simclrhn_probe1,1,170,NaN,oven,oven,1-0-10,0170_eid_dnn_1-0-10_oven_10_n04111531_1612.png,n04111531_1612.png,1.0,1.6720312,0.71120614,0.6794059
alexnet_w3_mlp_simclrhn_probe1,1,171,NaN,clock,clock,2-0-10,0171_eid_dnn_2-0-10_clock_10_n02708093_1701.png,n02708093_1701.png,1.0,4.363222,-0.40291968,3.3701713
alexnet_w3_mlp_simclrhn_probe1,1,172,NaN,bear,elephant,32-0-10,0172_eid_dnn_32-0-10_elephant_10_n02504013_782.png,n02504013_782.png,0.0,-0.5209487,-0.019281274,-0.35473245
alexnet_w3_mlp_simclrhn_probe1,1,173,NaN,oven,dog,128-0-10,0173_eid_dnn_128-0-10_dog_10_n02107908_8814.png,n02107908_8814.png,0.0,-4.34691,-1.0397346,-2.3385262
alexnet_w3_mlp_simclrhn_probe1,1,174,NaN,elephant,elephant,4-0-10,0174_eid_dnn_4-0-10_elephant_10_n02504458_5816.png,n02504458_5816.png,1.0,0.9120941,0.77534854,0.096693724
alexnet_w3_mlp_simclrhn_probe1,1,175,NaN,car,car,2-0-10,0175_eid_dnn_2-0-10_car_10_n03100240_18788.png,n03100240_18788.png,1.0,4.385986,0.8550574,2.4967434
alexnet_w3_mlp_simclrhn_probe1,1,176,NaN,cat,airplane,16-0-10,0176_eid_dnn_16-0-10_airplane_10_n02690373_7915.png,n02690373_7915.png,0.0,-3.140109,-1.5014395,-1.1587144
alexnet_w3_mlp_simclrhn_probe1,1,177,NaN,oven,chair,4-0-10,0177_eid_dnn_4-0-10_chair_10_n04429376_10544.png,n04429376_10544.png,0.0,-1.7161016,1.2045016,-2.0651784
alexnet_w3_mlp_simclrhn_probe1,1,178,NaN,oven,knife,32-0-10,0178_eid_dnn_32-0-10_knife_10_n03041632_24883.png,n03041632_24883.png,0.0,-3.052556,-0.9624377,-1.477937
alexnet_w3_mlp_simclrhn_probe1,1,179,NaN,cat,bicycle,128-0-10,0179_eid_dnn_128-0-10_bicycle_10_n03792782_10367.png,n03792782_10367.png,0.0,-5.8196898,-2.305464,-2.484933
alexnet_w3_mlp_simclrhn_probe1,1,180,NaN,oven,oven,1-0-10,0180_eid_dnn_1-0-10_oven_10_n04111531_3121.png,n04111531_3121.png,1.0,1.3648192,-0.28334045,1.1654248
alexnet_w3_mlp_simclrhn_probe1,1,181,NaN,oven,car,128-0-10,0181_eid_dnn_128-0-10_car_10_n02814533_10995.png,n02814533_10995.png,0.0,-8.266452,-1.5284004,-4.764522
alexnet_w3_mlp_simclrhn_probe1,1,182,NaN,oven,dog,128-0-10,0182_eid_dnn_128-0-10_dog_10_n02112350_502.png,n02112350_502.png,0.0,-3.2088923,-1.9659934,-0.87886226
alexnet_w3_mlp_simclrhn_probe1,1,183,NaN,oven,clock,128-0-10,0183_eid_dnn_128-0-10_clock_10_n04548280_5278.png,n04548280_5278.png,0.0,-7.265091,-2.1942956,-3.5855937
alexnet_w3_mlp_simclrhn_probe1,1,184,NaN,bear,bird,4-0-10,0184_eid_dnn_4-0-10_bird_10_n02006656_713.png,n02006656_713.png,0.0,-2.4433565,-0.35453466,-1.4770201
alexnet_w3_mlp_simclrhn_probe1,1,185,NaN,oven,bottle,128-0-10,0185_eid_dnn_128-0-10_bottle_10_n04557648_4106.png,n04557648_4106.png,0.0,-4.522967,-1.6087171,-2.0606859
alexnet_w3_mlp_simclrhn_probe1,1,186,NaN,oven,clock,64-0-10,0186_eid_dnn_64-0-10_clock_10_n02708093_1430.png,n02708093_1430.png,0.0,-3.6123364,-2.192538,-1.003949
alexnet_w3_mlp_simclrhn_probe1,1,187,NaN,oven,oven,1-0-10,0187_eid_dnn_1-0-10_oven_10_n04111531_7664.png,n04111531_7664.png,1.0,4.8885264,-1.1197263,4.248476
alexnet_w3_mlp_simclrhn_probe1,1,188,NaN,car,car,1-0-10,0188_eid_dnn_1-0-10_car_10_n02814533_149.png,n02814533_149.png,1.0,6.048569,4.9958286,0.7444
alexnet_w3_mlp_simclrhn_probe1,1,189,NaN,bear,clock,64-0-10,0189_eid_dnn_64-0-10_clock_10_n04548280_8296.png,n04548280_8296.png,0.0,-3.9135807,-2.1409402,-1.2534461
alexnet_w3_mlp_simclrhn_probe1,1,190,NaN,oven,bottle,64-0-10,0190_eid_dnn_64-0-10_bottle_10_n04591713_5815.png,n04591713_5815.png,0.0,-3.836094,-1.2058,-1.8598987
alexnet_w3_mlp_simclrhn_probe1,1,191,NaN,bottle,knife,2-0-10,0191_eid_dnn_2-0-10_knife_10_n03041632_90125.png,n03041632_90125.png,0.0,-0.924472,0.3895417,-0.929148
alexnet_w3_mlp_simclrhn_probe1,1,192,NaN,oven,bird,64-0-10,0192_eid_dnn_64-0-10_bird_10_n01534433_16586.png,n01534433_16586.png,0.0,-2.402103,-1.1547511,-0.882011
alexnet_w3_mlp_simclrhn_probe1,1,193,NaN,cat,cat,4-0-10,0193_eid_dnn_4-0-10_cat_10_n02123394_2559.png,n02123394_2559.png,1.0,1.0705931,-0.72027236,1.2663331
alexnet_w3_mlp_simclrhn_probe1,1,194,NaN,elephant,elephant,4-0-10,0194_eid_dnn_4-0-10_elephant_10_n02504458_5995.png,n02504458_5995.png,1.0,1.8499912,0.7487542,0.7786922
alexnet_w3_mlp_simclrhn_probe1,1,195,NaN,car,car,2-0-10,0195_eid_dnn_2-0-10_car_10_n02814533_211.png,n02814533_211.png,1.0,7.0474296,5.258839,1.2647245
alexnet_w3_mlp_simclrhn_probe1,1,196,NaN,chair,chair,1-0-10,0196_eid_dnn_1-0-10_chair_10_n04429376_13328.png,n04429376_13328.png,1.0,1.8021059,0.20573577,1.1288041
alexnet_w3_mlp_simclrhn_probe1,1,197,NaN,bear,keyboard,16-0-10,0197_eid_dnn_16-0-10_keyboard_10_n03085013_24618.png,n03085013_24618.png,0.0,-5.4229717,0.33273172,-4.069897
alexnet_w3_mlp_simclrhn_probe1,1,198,NaN,oven,oven,4-0-10,0198_eid_dnn_4-0-10_oven_10_n04111531_2186.png,n04111531_2186.png,1.0,1.8153875,-0.3792462,1.5518404
alexnet_w3_mlp_simclrhn_probe1,1,199,NaN,bear,oven,8-0-10,0199_eid_dnn_8-0-10_oven_10_n04111531_114.png,n04111531_114.png,0.0,-1.3449434,0.7695795,-1.4951935
alexnet_w3_mlp_simclrhn_probe1,1,200,NaN,car,car,1-0-10,0200_eid_dnn_1-0-10_car_10_n03100240_1745.png,n03100240_1745.png,1.0,8.940214,5.781769,2.2333581
alexnet_w3_mlp_simclrhn_probe1,1,201,NaN,cat,cat,4-0-10,0201_eid_dnn_4-0-10_cat_10_n02123394_1259.png,n02123394_1259.png,1.0,0.96282357,-0.76612055,1.2225481
alexnet_w3_mlp_simclrhn_probe1,1,202,NaN,cat,oven,4-0-10,0202_eid_dnn_4-0-10_oven_10_n04111531_5801.png,n04111531_5801.png,0.0,-0.62233573,-0.5188665,-0.073163815
alexnet_w3_mlp_simclrhn_probe1,1,203,NaN,oven,airplane,32-0-10,0203_eid_dnn_32-0-10_airplane_10_n02690373_2024.png,n02690373_2024.png,0.0,-3.366834,-1.8511198,-1.0717717
alexnet_w3_mlp_simclrhn_probe1,1,204,NaN,cat,cat,8-0-10,0204_eid_dnn_8-0-10_cat_10_n02123045_12181.png,n02123045_12181.png,1.0,0.5825208,0.54515064,0.026424684
alexnet_w3_mlp_simclrhn_probe1,1,205,NaN,oven,airplane,64-0-10,0205_eid_dnn_64-0-10_airplane_10_n02690373_3313.png,n02690373_3313.png,0.0,-6.225155,-0.7953079,-3.8394816
alexnet_w3_mlp_simclrhn_probe1,1,206,NaN,oven,truck,64-0-10,0206_eid_dnn_64-0-10_truck_10_n04467665_80465.png,n04467665_80465.png,0.0,-4.3865566,-1.2766182,-2.1990585
alexnet_w3_mlp_simclrhn_probe1,1,207,NaN,elephant,elephant,2-0-10,0207_eid_dnn_2-0-10_elephant_10_n02504013_8626.png,n02504013_8626.png,1.0,-1.2967147,-2.9126236,1.1426202
alexnet_w3_mlp_simclrhn_probe1,1,208,NaN,oven,car,16-0-10,0208_eid_dnn_16-0-10_car_10_n04285008_7904.png,n04285008_7904.png,0.0,-9.882778,1.6615821,-8.163095
alexnet_w3_mlp_simclrhn_probe1,1,209,NaN,bear,airplane,8-0-10,0209_eid_dnn_8-0-10_airplane_10_n02690373_6363.png,n02690373_6363.png,0.0,-6.7207522,-0.4743378,-4.416882
alexnet_w3_mlp_simclrhn_probe1,1,210,NaN,cat,cat,4-0-10,0210_eid_dnn_4-0-10_cat_10_n02123045_7294.png,n02123045_7294.png,1.0,-0.88734466,-1.4447026,0.3941116
alexnet_w3_mlp_simclrhn_probe1,1,211,NaN,cat,airplane,128-0-10,0211_eid_dnn_128-0-10_airplane_10_n02690373_6988.png,n02690373_6988.png,0.0,-7.0905495,-1.9343554,-3.64598
alexnet_w3_mlp_simclrhn_probe1,1,212,NaN,bear,cat,4-0-10,0212_eid_dnn_4-0-10_cat_10_n02125311_25749.png,n02125311_25749.png,0.0,-2.0980186,-1.7306392,-0.2597765
alexnet_w3_mlp_simclrhn_probe1,1,213,NaN,oven,bird,64-0-10,0213_eid_dnn_64-0-10_bird_10_n02018207_12980.png,n02018207_12980.png,0.0,-4.3898463,-1.6172429,-1.9605268
alexnet_w3_mlp_simclrhn_probe1,1,214,NaN,bear,cat,32-0-10,0214_eid_dnn_32-0-10_cat_10_n02123394_2814.png,n02123394_2814.png,0.0,-1.4238887,-0.88443726,-0.38144976
alexnet_w3_mlp_simclrhn_probe1,1,215,NaN,car,car,4-0-10,0215_eid_dnn_4-0-10_car_10_n04285008_662.png,n04285008_662.png,1.0,-0.6165029,-1.8502576,0.87239635
alexnet_w3_mlp_simclrhn_probe1,1,216,NaN,cat,bicycle,2-0-10,0216_eid_dnn_2-0-10_bicycle_10_n03792782_11679.png,n03792782_11679.png,0.0,-1.2703521,-0.68886584,-0.4111729
alexnet_w3_mlp_simclrhn_probe1,1,217,NaN,cat,dog,16-0-10,0217_eid_dnn_16-0-10_dog_10_n02093428_17769.png,n02093428_17769.png,0.0,-1.3805754,-0.34323978,-0.7335071
alexnet_w3_mlp_simclrhn_probe1,1,218,NaN,oven,dog,64-0-10,0218_eid_dnn_64-0-10_dog_10_n02106030_17418.png,n02106030_17418.png,0.0,-2.00702,-0.66777873,-0.9469866
alexnet_w3_mlp_simclrhn_probe1,1,219,NaN,oven,chair,64-0-10,0219_eid_dnn_64-0-10_chair_10_n02791124_7142.png,n02791124_7142.png,0.0,-7.423615,0.67090213,-5.7236876
alexnet_w3_mlp_simclrhn_probe1,1,220,NaN,bear,bear,1-0-10,0220_eid_dnn_1-0-10_bear_10_n02134084_18083.png,n02134084_18083.png,1.0,-0.39942473,-0.4955427,0.06796567
alexnet_w3_mlp_simclrhn_probe1,1,221,NaN,keyboard,keyboard,2-0-10,0221_eid_dnn_2-0-10_keyboard_10_n03085013_7536.png,n03085013_7536.png,1.0,1.8131285,0.35693824,1.029682
alexnet_w3_mlp_simclrhn_probe1,1,222,NaN,bird,bird,1-0-10,0222_eid_dnn_1-0-10_bird_10_n01616318_2473.png,n01616318_2473.png,1.0,-0.34293738,-0.76570123,0.2989392
alexnet_w3_mlp_simclrhn_probe1,1,223,NaN,elephant,elephant,1-0-10,0223_eid_dnn_1-0-10_elephant_10_n02504458_5951.png,n02504458_5951.png,1.0,5.7880316,1.3186864,3.1603043
alexnet_w3_mlp_simclrhn_probe1,1,224,NaN,airplane,airplane,4-0-10,0224_eid_dnn_4-0-10_airplane_10_n02690373_5164.png,n02690373_5164.png,1.0,0.63671434,-1.2138052,1.308515
alexnet_w3_mlp_simclrhn_probe1,1,225,NaN,elephant,elephant,4-0-10,0225_eid_dnn_4-0-10_elephant_10_n02504013_1865.png,n02504013_1865.png,1.0,4.2333117,0.96754277,2.3092475
alexnet_w3_mlp_simclrhn_probe1,1,226,NaN,knife,knife,1-0-10,0226_eid_dnn_1-0-10_knife_10_n03041632_56454.png,n03041632_56454.png,1.0,1.1859868,-1.1385663,1.6437073
alexnet_w3_mlp_simclrhn_probe1,1,227,NaN,oven,bird,64-0-10,0227_eid_dnn_64-0-10_bird_10_n01824575_5820.png,n01824575_5820.png,0.0,-4.2157373,-1.3932462,-1.9958026
alexnet_w3_mlp_simclrhn_probe1,1,228,NaN,oven,oven,4-0-10,0228_eid_dnn_4-0-10_oven_10_n04111531_4332.png,n04111531_4332.png,1.0,-0.38051656,-1.17318,0.5604977
alexnet_w3_mlp_simclrhn_probe1,1,229,NaN,truck,truck,2-0-10,0229_eid_dnn_2-0-10_truck_10_n04467665_41352.png,n04467665_41352.png,1.0,7.2443295,3.9605796,2.3219619
alexnet_w3_mlp_simclrhn_probe1,1,230,NaN,bird,bird,8-0-10,0230_eid_dnn_8-0-10_bird_10_n01514859_5668.png,n01514859_5668.png,1.0,-0.982035,-1.2820408,0.21213618
alexnet_w3_mlp_simclrhn_probe1,1,231,NaN,knife,oven,32-0-10,0231_eid_dnn_32-0-10_oven_10_n04111531_4438.png,n04111531_4438.png,0.0,-2.114355,-1.9436554,-0.12070293
alexnet_w3_mlp_simclrhn_probe1,1,232,NaN,cat,cat,1-0-10,0232_eid_dnn_1-0-10_cat_10_n02123394_6693.png,n02123394_6693.png,1.0,1.366726,-1.2705767,1.8648548
alexnet_w3_mlp_simclrhn_probe1,1,233,NaN,bear,elephant,32-0-10,0233_eid_dnn_32-0-10_elephant_10_n02504458_6302.png,n02504458_6302.png,0.0,-1.8452079,-0.96477246,-0.6225619
alexnet_w3_mlp_simclrhn_probe1,1,234,NaN,bear,bottle,16-0-10,0234_eid_dnn_16-0-10_bottle_10_n03937543_2329.png,n03937543_2329.png,0.0,-3.6318164,-0.36328858,-2.3111982
alexnet_w3_mlp_simclrhn_probe1,1,235,NaN,bear,elephant,16-0-10,0235_eid_dnn_16-0-10_elephant_10_n02504458_5155.png,n02504458_5155.png,0.0,0.2066605,0.8448442,-0.45126405
alexnet_w3_mlp_simclrhn_probe1,1,236,NaN,oven,bear,1-0-10,0236_eid_dnn_1-0-10_bear_10_n02134084_1694.png,n02134084_1694.png,0.0,-1.9887525,0.9602269,-2.0852435
alexnet_w3_mlp_simclrhn_probe1,1,237,NaN,cat,bear,128-0-10,0237_eid_dnn_128-0-10_bear_10_n02133161_1624.png,n02133161_1624.png,0.0,-6.648889,-2.430239,-2.983036
alexnet_w3_mlp_simclrhn_probe1,1,238,NaN,bear,bear,64-0-10,0238_eid_dnn_64-0-10_bear_10_n02132136_11027.png,n02132136_11027.png,1.0,-0.6518692,-0.76723194,0.08157379
alexnet_w3_mlp_simclrhn_probe1,1,239,NaN,oven,elephant,64-0-10,0239_eid_dnn_64-0-10_elephant_10_n02504013_24621.png,n02504013_24621.png,0.0,-3.5663457,-1.358422,-1.5612378
alexnet_w3_mlp_simclrhn_probe1,1,240,NaN,bear,knife,16-0-10,0240_eid_dnn_16-0-10_knife_10_n03041632_27134.png,n03041632_27134.png,0.0,-3.894808,-0.40059575,-2.4707813
alexnet_w3_mlp_simclrhn_probe1,1,241,NaN,oven,keyboard,32-0-10,0241_eid_dnn_32-0-10_keyboard_10_n03085013_24316.png,n03085013_24316.png,0.0,-5.1614113,-0.31832337,-3.4245806
alexnet_w3_mlp_simclrhn_probe1,1,242,NaN,cat,cat,2-0-10,0242_eid_dnn_2-0-10_cat_10_n02123159_3026.png,n02123159_3026.png,1.0,2.8794622,-1.8414382,3.3381808
alexnet_w3_mlp_simclrhn_probe1,1,243,NaN,cat,bicycle,128-0-10,0243_eid_dnn_128-0-10_bicycle_10_n03792782_1475.png,n03792782_1475.png,0.0,-6.2485867,-1.3768731,-3.4448218
alexnet_w3_mlp_simclrhn_probe1,1,244,NaN,cat,cat,16-0-10,0244_eid_dnn_16-0-10_cat_10_n02123045_20507.png,n02123045_20507.png,1.0,0.7198362,-1.0093013,1.2226849
alexnet_w3_mlp_simclrhn_probe1,1,245,NaN,oven,boat,64-0-10,0245_eid_dnn_64-0-10_boat_10_n02951358_23759.png,n02951358_23759.png,0.0,-5.33041,-1.0245295,-3.0447173
alexnet_w3_mlp_simclrhn_probe1,1,246,NaN,bear,bear,16-0-10,0246_eid_dnn_16-0-10_bear_10_n02132136_1858.png,n02132136_1858.png,1.0,0.080495566,-1.2381563,0.9324277
alexnet_w3_mlp_simclrhn_probe1,1,247,NaN,cat,boat,128-0-10,0247_eid_dnn_128-0-10_boat_10_n02951358_6465.png,n02951358_6465.png,0.0,-6.8162026,-1.2007717,-3.9707093
alexnet_w3_mlp_simclrhn_probe1,1,248,NaN,cat,airplane,128-0-10,0248_eid_dnn_128-0-10_airplane_10_n02690373_6223.png,n02690373_6223.png,0.0,-6.3004475,-2.136591,-2.944291
alexnet_w3_mlp_simclrhn_probe1,1,249,NaN,oven,boat,128-0-10,0249_eid_dnn_128-0-10_boat_10_n03344393_2412.png,n03344393_2412.png,0.0,-5.8972964,-1.4863257,-3.1190274
alexnet_w3_mlp_simclrhn_probe1,1,250,NaN,cat,knife,8-0-10,0250_eid_dnn_8-0-10_knife_10_n03041632_6446.png,n03041632_6446.png,0.0,-2.5677962,-0.3235214,-1.586942
alexnet_w3_mlp_simclrhn_probe1,1,251,NaN,cat,bottle,64-0-10,0251_eid_dnn_64-0-10_bottle_10_n04591713_7940.png,n04591713_7940.png,0.0,-4.481075,-1.8325378,-1.8727986
alexnet_w3_mlp_simclrhn_probe1,1,252,NaN,cat,cat,4-0-10,0252_eid_dnn_4-0-10_cat_10_n02124075_13568.png,n02124075_13568.png,1.0,2.011676,-0.91191584,2.0672917
alexnet_w3_mlp_simclrhn_probe1,1,253,NaN,boat,boat,2-0-10,0253_eid_dnn_2-0-10_boat_10_n03662601_2171.png,n03662601_2171.png,1.0,0.10093622,-0.5341865,0.4490996
alexnet_w3_mlp_simclrhn_probe1,1,254,NaN,elephant,elephant,1-0-10,0254_eid_dnn_1-0-10_elephant_10_n02504458_415.png,n02504458_415.png,1.0,1.4890691,-0.2755477,1.2477726
alexnet_w3_mlp_simclrhn_probe1,1,255,NaN,oven,car,16-0-10,0255_eid_dnn_16-0-10_car_10_n03100240_3386.png,n03100240_3386.png,0.0,-6.516056,-0.10194293,-4.535463
alexnet_w3_mlp_simclrhn_probe1,1,256,NaN,dog,bird,16-0-10,0256_eid_dnn_16-0-10_bird_10_n02056570_6633.png,n02056570_6633.png,0.0,-4.1955285,-1.8770471,-1.639414
alexnet_w3_mlp_simclrhn_probe1,1,257,NaN,oven,bottle,32-0-10,0257_eid_dnn_32-0-10_bottle_10_n02823428_4232.png,n02823428_4232.png,0.0,-2.8435156,-0.55520797,-1.6180779
alexnet_w3_mlp_simclrhn_probe1,1,258,NaN,cat,boat,128-0-10,0258_eid_dnn_128-0-10_boat_10_n04273569_2396.png,n04273569_2396.png,0.0,-6.0879774,-1.7389652,-3.0752163
alexnet_w3_mlp_simclrhn_probe1,1,259,NaN,knife,knife,1-0-10,0259_eid_dnn_1-0-10_knife_10_n03041632_38996.png,n03041632_38996.png,1.0,0.21620262,-1.3306735,1.0938066
alexnet_w3_mlp_simclrhn_probe1,1,260,NaN,oven,oven,8-0-10,0260_eid_dnn_8-0-10_oven_10_n04111531_10420.png,n04111531_10420.png,1.0,0.23385571,-0.058072,0.20642406
alexnet_w3_mlp_simclrhn_probe1,1,261,NaN,oven,dog,128-0-10,0261_eid_dnn_128-0-10_dog_10_n02094114_2394.png,n02094114_2394.png,0.0,-4.2175837,-1.7313619,-1.7580243
alexnet_w3_mlp_simclrhn_probe1,1,262,NaN,oven,elephant,128-0-10,0262_eid_dnn_128-0-10_elephant_10_n02504013_4247.png,n02504013_4247.png,0.0,-2.496694,-0.9171077,-1.1169362
alexnet_w3_mlp_simclrhn_probe1,1,263,NaN,bear,chair,32-0-10,0263_eid_dnn_32-0-10_chair_10_n03376595_8137.png,n03376595_8137.png,0.0,-4.522118,-1.3311793,-2.2563345
alexnet_w3_mlp_simclrhn_probe1,1,264,NaN,oven,airplane,128-0-10,0264_eid_dnn_128-0-10_airplane_10_n02690373_8524.png,n02690373_8524.png,0.0,-13.379132,-1.4827499,-8.412013
alexnet_w3_mlp_simclrhn_probe1,1,265,NaN,bear,car,64-0-10,0265_eid_dnn_64-0-10_car_10_n03100240_18410.png,n03100240_18410.png,0.0,-6.905577,-1.6446794,-3.7200165
alexnet_w3_mlp_simclrhn_probe1,1,266,NaN,oven,clock,64-0-10,0266_eid_dnn_64-0-10_clock_10_n04548280_2588.png,n04548280_2588.png,0.0,-4.6568093,-0.403688,-3.007411
alexnet_w3_mlp_simclrhn_probe1,1,267,NaN,oven,keyboard,32-0-10,0267_eid_dnn_32-0-10_keyboard_10_n03085013_24030.png,n03085013_24030.png,0.0,-6.014017,-1.5993054,-3.1216729
alexnet_w3_mlp_simclrhn_probe1,1,268,NaN,clock,clock,2-0-10,0268_eid_dnn_2-0-10_clock_10_n03196217_6375.png,n03196217_6375.png,1.0,0.8216419,0.21970329,0.4256349
alexnet_w3_mlp_simclrhn_probe1,1,269,NaN,oven,airplane,32-0-10,0269_eid_dnn_32-0-10_airplane_10_n02690373_4150.png,n02690373_4150.png,0.0,-5.385741,-0.749501,-3.2783167
alexnet_w3_mlp_simclrhn_probe1,1,270,NaN,cat,dog,4-0-10,0270_eid_dnn_4-0-10_dog_10_n02086646_6567.png,n02086646_6567.png,0.0,-1.6976761,-0.37526098,-0.9350887
alexnet_w3_mlp_simclrhn_probe1,1,271,NaN,oven,clock,64-0-10,0271_eid_dnn_64-0-10_clock_10_n03196217_775.png,n03196217_775.png,0.0,-6.0619926,-1.3372684,-3.3408847
alexnet_w3_mlp_simclrhn_probe1,1,272,NaN,truck,car,1-0-10,0272_eid_dnn_1-0-10_car_10_n02814533_57353.png,n02814533_57353.png,0.0,8.104283,8.545698,-0.31212744
alexnet_w3_mlp_simclrhn_probe1,1,273,NaN,oven,bottle,16-0-10,0273_eid_dnn_16-0-10_bottle_10_n04560804_183.png,n04560804_183.png,0.0,-2.9030914,-0.14484617,-1.9503739
alexnet_w3_mlp_simclrhn_probe1,1,274,NaN,car,car,2-0-10,0274_eid_dnn_2-0-10_car_10_n04285008_10631.png,n04285008_10631.png,1.0,7.3153596,1.517369,4.0997987
alexnet_w3_mlp_simclrhn_probe1,1,275,NaN,bear,bear,2-0-10,0275_eid_dnn_2-0-10_bear_10_n02132136_10057.png,n02132136_10057.png,1.0,8.037788,3.8447957,2.9648936
alexnet_w3_mlp_simclrhn_probe1,1,276,NaN,oven,boat,128-0-10,0276_eid_dnn_128-0-10_boat_10_n04273569_4605.png,n04273569_4605.png,0.0,-8.967215,-2.065537,-4.8802233
alexnet_w3_mlp_simclrhn_probe1,1,277,NaN,oven,cat,64-0-10,0277_eid_dnn_64-0-10_cat_10_n02123597_12711.png,n02123597_12711.png,0.0,-3.1775825,-1.1720833,-1.4181023
alexnet_w3_mlp_simclrhn_probe1,1,278,NaN,bottle,bottle,1-0-10,0278_eid_dnn_1-0-10_bottle_10_n04560804_5610.png,n04560804_5610.png,1.0,3.4439495,-2.752069,4.3812466
alexnet_w3_mlp_simclrhn_probe1,1,279,NaN,bear,clock,32-0-10,0279_eid_dnn_32-0-10_clock_10_n04548280_8412.png,n04548280_8412.png,0.0,-5.233908,-0.3421514,-3.4589946
alexnet_w3_mlp_simclrhn_probe1,1,280,NaN,cat,cat,2-0-10,0280_eid_dnn_2-0-10_cat_10_n02123597_13834.png,n02123597_13834.png,1.0,0.52229553,-0.7800508,0.92089796
alexnet_w3_mlp_simclrhn_probe1,1,281,NaN,knife,dog,128-0-10,0281_eid_dnn_128-0-10_dog_10_n02091831_538.png,n02091831_538.png,0.0,-3.1578472,-1.5358584,-1.1469193
alexnet_w3_mlp_simclrhn_probe1,1,282,NaN,bear,bicycle,32-0-10,0282_eid_dnn_32-0-10_bicycle_10_n03792782_10437.png,n03792782_10437.png,0.0,-1.5618845,-1.3091085,-0.17873965
alexnet_w3_mlp_simclrhn_probe1,1,283,NaN,bear,bear,2-0-10,0283_eid_dnn_2-0-10_bear_10_n02132136_2372.png,n02132136_2372.png,1.0,2.7941358,-0.18972564,2.1099086
alexnet_w3_mlp_simclrhn_probe1,1,284,NaN,bicycle,bicycle,128-0-10,0284_eid_dnn_128-0-10_bicycle_10_n03792782_4540.png,n03792782_4540.png,1.0,-1.9803886,-2.5079877,0.3730689
alexnet_w3_mlp_simclrhn_probe1,1,285,NaN,elephant,elephant,2-0-10,0285_eid_dnn_2-0-10_elephant_10_n02504013_10152.png,n02504013_10152.png,1.0,1.7134914,0.39251533,0.9340712
alexnet_w3_mlp_simclrhn_probe1,1,286,NaN,oven,boat,64-0-10,0286_eid_dnn_64-0-10_boat_10_n02951358_7603.png,n02951358_7603.png,0.0,-6.348343,-1.4319704,-3.4764001
alexnet_w3_mlp_simclrhn_probe1,1,287,NaN,bear,bear,2-0-10,0287_eid_dnn_2-0-10_bear_10_n02133161_9371.png,n02133161_9371.png,1.0,2.8824735,-0.20045148,2.1799572
alexnet_w3_mlp_simclrhn_probe1,1,288,NaN,bear,truck,8-0-10,0288_eid_dnn_8-0-10_truck_10_n04467665_69892.png,n04467665_69892.png,0.0,-3.460185,0.50112224,-2.8010674
alexnet_w3_mlp_simclrhn_probe1,1,289,NaN,knife,knife,1-0-10,0289_eid_dnn_1-0-10_knife_10_n03041632_19275.png,n03041632_19275.png,1.0,-0.85178924,-1.857575,0.711198
alexnet_w3_mlp_simclrhn_probe1,1,290,NaN,oven,keyboard,16-0-10,0290_eid_dnn_16-0-10_keyboard_10_n04505470_9446.png,n04505470_9446.png,0.0,-4.877408,0.27126125,-3.640659
alexnet_w3_mlp_simclrhn_probe1,1,291,NaN,elephant,elephant,1-0-10,0291_eid_dnn_1-0-10_elephant_10_n02504013_9141.png,n02504013_9141.png,1.0,2.6407084,-0.51633626,2.2323678
alexnet_w3_mlp_simclrhn_probe1,1,292,NaN,oven,bird,128-0-10,0292_eid_dnn_128-0-10_bird_10_n02056570_8553.png,n02056570_8553.png,0.0,-5.279859,-1.0254273,-3.0083375
alexnet_w3_mlp_simclrhn_probe1,1,293,NaN,car,car,1-0-10,0293_eid_dnn_1-0-10_car_10_n03100240_9171.png,n03100240_9171.png,1.0,6.7983327,3.8002279,2.1199803
alexnet_w3_mlp_simclrhn_probe1,1,294,NaN,dog,dog,8-0-10,0294_eid_dnn_8-0-10_dog_10_n02102177_1533.png,n02102177_1533.png,1.0,-0.29919145,-0.94874066,0.4593007
alexnet_w3_mlp_simclrhn_probe1,1,295,NaN,oven,cat,64-0-10,0295_eid_dnn_64-0-10_cat_10_n02124075_12464.png,n02124075_12464.png,0.0,-2.3996937,-1.0436187,-0.9588899
alexnet_w3_mlp_simclrhn_probe1,1,296,NaN,bottle,chair,4-0-10,0296_eid_dnn_4-0-10_chair_10_n04429376_33792.png,n04429376_33792.png,0.0,-2.8514047,0.5703856,-2.419571
alexnet_w3_mlp_simclrhn_probe1,1,297,NaN,oven,bear,128-0-10,0297_eid_dnn_128-0-10_bear_10_n02133161_3258.png,n02133161_3258.png,0.0,-5.9235525,-1.7174344,-2.9741747
alexnet_w3_mlp_simclrhn_probe1,1,298,NaN,elephant,dog,4-0-10,0298_eid_dnn_4-0-10_dog_10_n02097130_1442.png,n02097130_1442.png,0.0,-0.8112495,2.0358582,-2.013209
alexnet_w3_mlp_simclrhn_probe1,1,299,NaN,oven,chair,4-0-10,0299_eid_dnn_4-0-10_chair_10_n02791124_8970.png,n02791124_8970.png,0.0,-1.8325989,-0.7431654,-0.77034587
alexnet_w3_mlp_simclrhn_probe1,1,300,NaN,bear,car,8-0-10,0300_eid_dnn_8-0-10_car_10_n04285008_8545.png,n04285008_8545.png,0.0,-6.133509,-0.80117583,-3.7705293
alexnet_w3_mlp_simclrhn_probe1,1,301,NaN,truck,truck,1-0-10,0301_eid_dnn_1-0-10_truck_10_n03417042_2204.png,n03417042_2204.png,1.0,3.2920747,0.23515697,2.1615672
alexnet_w3_mlp_simclrhn_probe1,1,302,NaN,bear,bear,2-0-10,0302_eid_dnn_2-0-10_bear_10_n02133161_15593.png,n02133161_15593.png,1.0,1.9344773,1.4648852,0.33205175
alexnet_w3_mlp_simclrhn_probe1,1,303,NaN,knife,clock,2-0-10,0303_eid_dnn_2-0-10_clock_10_n04548280_5845.png,n04548280_5845.png,0.0,-2.034189,-1.6790156,-0.25114548
alexnet_w3_mlp_simclrhn_probe1,1,304,NaN,cat,knife,4-0-10,0304_eid_dnn_4-0-10_knife_10_n03041632_4975.png,n03041632_4975.png,0.0,-2.5185702,-1.2865105,-0.8711978
alexnet_w3_mlp_simclrhn_probe1,1,305,NaN,oven,clock,32-0-10,0305_eid_dnn_32-0-10_clock_10_n03196217_4849.png,n03196217_4849.png,0.0,-3.113836,-1.2154956,-1.3423294
alexnet_w3_mlp_simclrhn_probe1,1,306,NaN,elephant,bicycle,2-0-10,0306_eid_dnn_2-0-10_bicycle_10_n03792782_15752.png,n03792782_15752.png,0.0,-1.1774685,-0.7672349,-0.29007897
alexnet_w3_mlp_simclrhn_probe1,1,307,NaN,cat,bicycle,16-0-10,0307_eid_dnn_16-0-10_bicycle_10_n02835271_29741.png,n02835271_29741.png,0.0,-3.4124665,-1.1087126,-1.629
alexnet_w3_mlp_simclrhn_probe1,1,308,NaN,oven,chair,4-0-10,0308_eid_dnn_4-0-10_chair_10_n04099969_16619.png,n04099969_16619.png,0.0,-1.8495057,-0.2514975,-1.1299624
alexnet_w3_mlp_simclrhn_probe1,1,309,NaN,keyboard,keyboard,4-0-10,0309_eid_dnn_4-0-10_keyboard_10_n04505470_4552.png,n04505470_4552.png,1.0,0.69041675,-0.959551,1.1667033
alexnet_w3_mlp_simclrhn_probe1,1,310,NaN,elephant,boat,8-0-10,0310_eid_dnn_8-0-10_boat_10_n02951358_13144.png,n02951358_13144.png,0.0,-4.085353,0.3257045,-3.1190886
alexnet_w3_mlp_simclrhn_probe1,1,311,NaN,bear,bird,32-0-10,0311_eid_dnn_32-0-10_bird_10_n01797886_14611.png,n01797886_14611.png,0.0,-1.6640532,-0.87132984,-0.5605401
alexnet_w3_mlp_simclrhn_probe1,1,312,NaN,knife,knife,1-0-10,0312_eid_dnn_1-0-10_knife_10_n03041632_3326.png,n03041632_3326.png,1.0,0.0063427165,-1.8461761,1.3099287
alexnet_w3_mlp_simclrhn_probe1,1,313,NaN,bear,elephant,8-0-10,0313_eid_dnn_8-0-10_elephant_10_n02504013_5829.png,n02504013_5829.png,0.0,0.8825563,1.1572324,-0.19422533
alexnet_w3_mlp_simclrhn_probe1,1,314,NaN,bear,dog,16-0-10,0314_eid_dnn_16-0-10_dog_10_n02088094_2292.png,n02088094_2292.png,0.0,-1.4353687,-0.15467733,-0.9055856
alexnet_w3_mlp_simclrhn_probe1,1,315,NaN,oven,oven,8-0-10,0315_eid_dnn_8-0-10_oven_10_n04111531_4944.png,n04111531_4944.png,1.0,1.0818799,-0.68958026,1.2526114
alexnet_w3_mlp_simclrhn_probe1,1,316,NaN,oven,oven,32-0-10,0316_eid_dnn_32-0-10_oven_10_n04111531_669.png,n04111531_669.png,1.0,-0.91714287,-2.195958,0.9042588
alexnet_w3_mlp_simclrhn_probe1,1,317,NaN,oven,car,64-0-10,0317_eid_dnn_64-0-10_car_10_n02814533_6716.png,n02814533_6716.png,0.0,-11.040382,-0.13532642,-7.711039
alexnet_w3_mlp_simclrhn_probe1,1,318,NaN,oven,bear,32-0-10,0318_eid_dnn_32-0-10_bear_10_n02132136_26438.png,n02132136_26438.png,0.0,-0.7878359,0.19648588,-0.6960206
alexnet_w3_mlp_simclrhn_probe1,1,319,NaN,oven,bottle,4-0-10,0319_eid_dnn_4-0-10_bottle_10_n03983396_3027.png,n03983396_3027.png,0.0,-2.3435695,-0.7644861,-1.1165806
alexnet_w3_mlp_simclrhn_probe1,1,320,NaN,elephant,elephant,2-0-10,0320_eid_dnn_2-0-10_elephant_10_n02504013_9299.png,n02504013_9299.png,1.0,9.382826,2.3051455,5.004676
alexnet_w3_mlp_simclrhn_probe1,1,321,NaN,knife,knife,2-0-10,0321_eid_dnn_2-0-10_knife_10_n03041632_13846.png,n03041632_13846.png,1.0,-0.2924819,-0.46693927,0.12335999
alexnet_w3_mlp_simclrhn_probe1,1,322,NaN,oven,airplane,64-0-10,0322_eid_dnn_64-0-10_airplane_10_n02690373_16250.png,n02690373_16250.png,0.0,-5.4447813,-1.3054159,-2.9269733
alexnet_w3_mlp_simclrhn_probe1,1,323,NaN,oven,boat,64-0-10,0323_eid_dnn_64-0-10_boat_10_n03662601_13696.png,n03662601_13696.png,0.0,-8.662134,-3.4604993,-3.6781113
alexnet_w3_mlp_simclrhn_probe1,1,324,NaN,cat,cat,1-0-10,0324_eid_dnn_1-0-10_cat_10_n02123597_5692.png,n02123597_5692.png,1.0,1.0891671,-0.2479384,0.9454764
alexnet_w3_mlp_simclrhn_probe1,1,325,NaN,bear,clock,8-0-10,0325_eid_dnn_8-0-10_clock_10_n02708093_3171.png,n02708093_3171.png,0.0,-7.573288,0.0075559877,-5.360466
alexnet_w3_mlp_simclrhn_probe1,1,326,NaN,oven,keyboard,128-0-10,0326_eid_dnn_128-0-10_keyboard_10_n04505470_4902.png,n04505470_4902.png,0.0,-5.4100676,-1.6041815,-2.6911678
alexnet_w3_mlp_simclrhn_probe1,1,327,NaN,cat,dog,2-0-10,0327_eid_dnn_2-0-10_dog_10_n02113624_1170.png,n02113624_1170.png,0.0,-0.90050477,-0.036794245,-0.6107356
alexnet_w3_mlp_simclrhn_probe1,1,328,NaN,clock,clock,2-0-10,0328_eid_dnn_2-0-10_clock_10_n03196217_1272.png,n03196217_1272.png,1.0,1.3211155,-0.27257365,1.1269084
alexnet_w3_mlp_simclrhn_probe1,1,329,NaN,oven,cat,128-0-10,0329_eid_dnn_128-0-10_cat_10_n02123394_8946.png,n02123394_8946.png,0.0,-1.8733286,-0.766914,-0.7823532
alexnet_w3_mlp_simclrhn_probe1,1,330,NaN,cat,car,8-0-10,0330_eid_dnn_8-0-10_car_10_n03100240_7134.png,n03100240_7134.png,0.0,-4.6252966,-1.1601518,-2.4502273
alexnet_w3_mlp_simclrhn_probe1,1,331,NaN,oven,bicycle,4-0-10,0331_eid_dnn_4-0-10_bicycle_10_n03792782_16034.png,n03792782_16034.png,0.0,-1.5619173,-1.1555686,-0.28733194
alexnet_w3_mlp_simclrhn_probe1,1,332,NaN,bear,dog,8-0-10,0332_eid_dnn_8-0-10_dog_10_n02104029_5465.png,n02104029_5465.png,0.0,-1.1751165,0.23551488,-0.99746704
alexnet_w3_mlp_simclrhn_probe1,1,333,NaN,keyboard,keyboard,4-0-10,0333_eid_dnn_4-0-10_keyboard_10_n04505470_5011.png,n04505470_5011.png,1.0,2.2998636,1.0278937,0.8994186
alexnet_w3_mlp_simclrhn_probe1,1,334,NaN,cat,bird,8-0-10,0334_eid_dnn_8-0-10_bird_10_n02009912_27132.png,n02009912_27132.png,0.0,-1.276913,-0.042960096,-0.87253654
alexnet_w3_mlp_simclrhn_probe1,1,335,NaN,oven,knife,64-0-10,0335_eid_dnn_64-0-10_knife_10_n03041632_3171.png,n03041632_3171.png,0.0,-2.4512334,-1.4849478,-0.6832671
alexnet_w3_mlp_simclrhn_probe1,1,336,NaN,oven,bear,32-0-10,0336_eid_dnn_32-0-10_bear_10_n02134084_21170.png,n02134084_21170.png,0.0,-1.5275731,-0.079281464,-1.0240968
alexnet_w3_mlp_simclrhn_probe1,1,337,NaN,dog,dog,4-0-10,0337_eid_dnn_4-0-10_dog_10_n02086079_29044.png,n02086079_29044.png,1.0,-0.81613946,-1.2182308,0.28432155
alexnet_w3_mlp_simclrhn_probe1,1,338,NaN,cat,cat,4-0-10,0338_eid_dnn_4-0-10_cat_10_n02124075_8465.png,n02124075_8465.png,1.0,1.6596551,-0.4290527,1.4769396
alexnet_w3_mlp_simclrhn_probe1,1,339,NaN,oven,bird,128-0-10,0339_eid_dnn_128-0-10_bird_10_n01855032_982.png,n01855032_982.png,0.0,-3.203324,-1.6028266,-1.1317227
alexnet_w3_mlp_simclrhn_probe1,1,340,NaN,oven,truck,32-0-10,0340_eid_dnn_32-0-10_truck_10_n03417042_6373.png,n03417042_6373.png,0.0,-5.776202,-0.8708816,-3.4685855
alexnet_w3_mlp_simclrhn_probe1,1,341,NaN,bear,airplane,16-0-10,0341_eid_dnn_16-0-10_airplane_10_n02690373_9959.png,n02690373_9959.png,0.0,-5.6924896,-0.03468489,-4.0006723
alexnet_w3_mlp_simclrhn_probe1,1,342,NaN,oven,clock,32-0-10,0342_eid_dnn_32-0-10_clock_10_n04548280_2260.png,n04548280_2260.png,0.0,-5.0381427,-0.69942206,-3.067939
alexnet_w3_mlp_simclrhn_probe1,1,343,NaN,cat,bottle,16-0-10,0343_eid_dnn_16-0-10_bottle_10_n03983396_5281.png,n03983396_5281.png,0.0,-1.5943949,-0.9466749,-0.45800725
alexnet_w3_mlp_simclrhn_probe1,1,344,NaN,cat,cat,4-0-10,0344_eid_dnn_4-0-10_cat_10_n02123159_1113.png,n02123159_1113.png,1.0,3.3264751,-0.04717191,2.3855288
alexnet_w3_mlp_simclrhn_probe1,1,345,NaN,oven,keyboard,64-0-10,0345_eid_dnn_64-0-10_keyboard_10_n03085013_20460.png,n03085013_20460.png,0.0,-3.6594348,-1.2966479,-1.6707426
alexnet_w3_mlp_simclrhn_probe1,1,346,NaN,oven,clock,8-0-10,0346_eid_dnn_8-0-10_clock_10_n03196217_884.png,n03196217_884.png,0.0,-7.1534524,0.41927278,-5.3547254
alexnet_w3_mlp_simclrhn_probe1,1,347,NaN,oven,clock,8-0-10,0347_eid_dnn_8-0-10_clock_10_n03196217_6257.png,n03196217_6257.png,0.0,-7.237131,-1.1138309,-4.3298273
alexnet_w3_mlp_simclrhn_probe1,1,348,NaN,oven,dog,32-0-10,0348_eid_dnn_32-0-10_dog_10_n02113624_2109.png,n02113624_2109.png,0.0,-2.0598435,-0.26599246,-1.2684443
alexnet_w3_mlp_simclrhn_probe1,1,349,NaN,keyboard,keyboard,1-0-10,0349_eid_dnn_1-0-10_keyboard_10_n03085013_20416.png,n03085013_20416.png,1.0,4.362148,-0.31278935,3.3056798
alexnet_w3_mlp_simclrhn_probe1,1,350,NaN,bird,bird,2-0-10,0350_eid_dnn_2-0-10_bird_10_n01820546_4609.png,n01820546_4609.png,1.0,0.1233908,-2.3842692,1.7731836
alexnet_w3_mlp_simclrhn_probe1,1,351,NaN,oven,cat,64-0-10,0351_eid_dnn_64-0-10_cat_10_n02125311_47792.png,n02125311_47792.png,0.0,-2.7035801,-0.5758259,-1.5045495
alexnet_w3_mlp_simclrhn_probe1,1,352,NaN,bear,boat,16-0-10,0352_eid_dnn_16-0-10_boat_10_n04612504_1491.png,n04612504_1491.png,0.0,-2.627457,-1.0395508,-1.1228192
alexnet_w3_mlp_simclrhn_probe1,1,353,NaN,bear,truck,16-0-10,0353_eid_dnn_16-0-10_truck_10_n03417042_910.png,n03417042_910.png,0.0,-7.5364366,0.7678372,-5.8720083
alexnet_w3_mlp_simclrhn_probe1,1,354,NaN,oven,airplane,64-0-10,0354_eid_dnn_64-0-10_airplane_10_n02690373_2038.png,n02690373_2038.png,0.0,-4.783394,-0.7994358,-2.8170838
alexnet_w3_mlp_simclrhn_probe1,1,355,NaN,cat,cat,2-0-10,0355_eid_dnn_2-0-10_cat_10_n02123394_8164.png,n02123394_8164.png,1.0,0.99609417,-0.45515865,1.0261908
alexnet_w3_mlp_simclrhn_probe1,1,356,NaN,oven,oven,2-0-10,0356_eid_dnn_2-0-10_oven_10_n04111531_22097.png,n04111531_22097.png,1.0,5.675313,-1.3992743,5.0024886
alexnet_w3_mlp_simclrhn_probe1,1,357,NaN,oven,bear,128-0-10,0357_eid_dnn_128-0-10_bear_10_n02134418_278.png,n02134418_278.png,0.0,-4.434532,-2.3318877,-1.4867941
alexnet_w3_mlp_simclrhn_probe1,1,358,NaN,bird,bird,4-0-10,0358_eid_dnn_4-0-10_bird_10_n01592084_9109.png,n01592084_9109.png,1.0,0.37419805,-2.7796977,2.230141
alexnet_w3_mlp_simclrhn_probe1,1,359,NaN,oven,clock,32-0-10,0359_eid_dnn_32-0-10_clock_10_n03196217_3695.png,n03196217_3695.png,0.0,-4.116328,-0.8798472,-2.2885373
alexnet_w3_mlp_simclrhn_probe1,1,360,NaN,oven,elephant,128-0-10,0360_eid_dnn_128-0-10_elephant_10_n02504458_8939.png,n02504458_8939.png,0.0,-3.3469312,-1.3342654,-1.4231696
alexnet_w3_mlp_simclrhn_probe1,1,361,NaN,airplane,elephant,2-0-10,0361_eid_dnn_2-0-10_elephant_10_n02504013_7926.png,n02504013_7926.png,0.0,-0.57689154,-0.2269488,-0.2474469
alexnet_w3_mlp_simclrhn_probe1,1,362,NaN,elephant,bear,4-0-10,0362_eid_dnn_4-0-10_bear_10_n02133161_11816.png,n02133161_11816.png,0.0,0.46629423,1.9894845,-1.0770582
alexnet_w3_mlp_simclrhn_probe1,1,363,NaN,bird,bird,2-0-10,0363_eid_dnn_2-0-10_bird_10_n02056570_18300.png,n02056570_18300.png,1.0,-1.2888548,-1.4826037,0.13700111
alexnet_w3_mlp_simclrhn_probe1,1,364,NaN,boat,chair,2-0-10,0364_eid_dnn_2-0-10_chair_10_n02791124_7063.png,n02791124_7063.png,0.0,-2.9505286,-0.9065813,-1.445289
alexnet_w3_mlp_simclrhn_probe1,1,365,NaN,cat,chair,8-0-10,0365_eid_dnn_8-0-10_chair_10_n03376595_8289.png,n03376595_8289.png,0.0,-3.5894926,-1.0965991,-1.7627419
alexnet_w3_mlp_simclrhn_probe1,1,366,NaN,airplane,airplane,4-0-10,0366_eid_dnn_4-0-10_airplane_10_n02690373_4434.png,n02690373_4434.png,1.0,1.2938672,-0.17795117,1.0407329
alexnet_w3_mlp_simclrhn_probe1,1,367,NaN,truck,truck,1-0-10,0367_eid_dnn_1-0-10_truck_10_n03417042_8953.png,n03417042_8953.png,1.0,9.031181,5.71648,2.343848
alexnet_w3_mlp_simclrhn_probe1,1,368,NaN,bear,bear,64-0-10,0368_eid_dnn_64-0-10_bear_10_n02132136_699.png,n02132136_699.png,1.0,-1.6693344,-2.178535,0.36005917
alexnet_w3_mlp_simclrhn_probe1,1,369,NaN,cat,knife,8-0-10,0369_eid_dnn_8-0-10_knife_10_n03041632_20517.png,n03041632_20517.png,0.0,-2.1425724,-1.6173735,-0.37137175
alexnet_w3_mlp_simclrhn_probe1,1,370,NaN,oven,bottle,32-0-10,0370_eid_dnn_32-0-10_bottle_10_n03983396_1910.png,n03983396_1910.png,0.0,-3.0752132,-1.4500595,-1.1491572
alexnet_w3_mlp_simclrhn_probe1,1,371,NaN,oven,oven,8-0-10,0371_eid_dnn_8-0-10_oven_10_n04111531_16198.png,n04111531_16198.png,1.0,0.8096476,-0.61652124,1.0084537
alexnet_w3_mlp_simclrhn_probe1,1,372,NaN,oven,elephant,64-0-10,0372_eid_dnn_64-0-10_elephant_10_n02504013_13427.png,n02504013_13427.png,0.0,-4.2012167,-0.7892432,-2.4126296
alexnet_w3_mlp_simclrhn_probe1,1,373,NaN,oven,airplane,16-0-10,0373_eid_dnn_16-0-10_airplane_10_n02690373_1075.png,n02690373_1075.png,0.0,-3.074697,-1.4599829,-1.1417754
alexnet_w3_mlp_simclrhn_probe1,1,374,NaN,oven,car,64-0-10,0374_eid_dnn_64-0-10_car_10_n03100240_5527.png,n03100240_5527.png,0.0,-8.099061,-1.1498129,-4.913861
alexnet_w3_mlp_simclrhn_probe1,1,375,NaN,bear,bear,1-0-10,0375_eid_dnn_1-0-10_bear_10_n02132136_4632.png,n02132136_4632.png,1.0,3.4528067,-0.30151573,2.654707
alexnet_w3_mlp_simclrhn_probe1,1,376,NaN,boat,boat,1-0-10,0376_eid_dnn_1-0-10_boat_10_n04273569_6158.png,n04273569_6158.png,1.0,2.5220883,-3.855999,4.509989
alexnet_w3_mlp_simclrhn_probe1,1,377,NaN,oven,knife,32-0-10,0377_eid_dnn_32-0-10_knife_10_n03041632_18141.png,n03041632_18141.png,0.0,-3.2373264,0.392685,-2.5668056
alexnet_w3_mlp_simclrhn_probe1,1,378,NaN,bear,bear,16-0-10,0378_eid_dnn_16-0-10_bear_10_n02132136_6378.png,n02132136_6378.png,1.0,-0.43300045,-1.0857067,0.46153304
alexnet_w3_mlp_simclrhn_probe1,1,379,NaN,elephant,elephant,2-0-10,0379_eid_dnn_2-0-10_elephant_10_n02504458_5095.png,n02504458_5095.png,1.0,5.488095,-0.40953198,4.170252
alexnet_w3_mlp_simclrhn_probe1,1,380,NaN,elephant,elephant,4-0-10,0380_eid_dnn_4-0-10_elephant_10_n02504013_10582.png,n02504013_10582.png,1.0,4.4708567,3.400974,0.7565213
alexnet_w3_mlp_simclrhn_probe1,1,381,NaN,cat,chair,16-0-10,0381_eid_dnn_16-0-10_chair_10_n04099969_28139.png,n04099969_28139.png,0.0,-7.8793445,-0.56653124,-5.17094
alexnet_w3_mlp_simclrhn_probe1,1,382,NaN,keyboard,keyboard,2-0-10,0382_eid_dnn_2-0-10_keyboard_10_n04505470_279.png,n04505470_279.png,1.0,8.106007,0.3284047,5.499595
alexnet_w3_mlp_simclrhn_probe1,1,383,NaN,cat,car,8-0-10,0383_eid_dnn_8-0-10_car_10_n02814533_79696.png,n02814533_79696.png,0.0,-7.8702426,-0.9081963,-4.92291
alexnet_w3_mlp_simclrhn_probe1,1,384,NaN,oven,cat,64-0-10,0384_eid_dnn_64-0-10_cat_10_n02124075_7984.png,n02124075_7984.png,0.0,-2.6216128,-0.46993077,-1.5214689
alexnet_w3_mlp_simclrhn_probe1,1,385,NaN,elephant,car,4-0-10,0385_eid_dnn_4-0-10_car_10_n02814533_27327.png,n02814533_27327.png,0.0,-3.4862537,-0.8406523,-1.8707228
alexnet_w3_mlp_simclrhn_probe1,1,386,NaN,bear,bear,4-0-10,0386_eid_dnn_4-0-10_bear_10_n02134084_967.png,n02134084_967.png,1.0,1.3743243,0.31330633,0.750253
alexnet_w3_mlp_simclrhn_probe1,1,387,NaN,oven,bear,64-0-10,0387_eid_dnn_64-0-10_bear_10_n02132136_949.png,n02132136_949.png,0.0,-1.8573954,-1.04615,-0.5736372
alexnet_w3_mlp_simclrhn_probe1,1,388,NaN,bear,bicycle,16-0-10,0388_eid_dnn_16-0-10_bicycle_10_n03792782_2905.png,n03792782_2905.png,0.0,-4.7649784,0.07364006,-3.4214199
alexnet_w3_mlp_simclrhn_probe1,1,389,NaN,oven,bicycle,8-0-10,0389_eid_dnn_8-0-10_bicycle_10_n03792782_34550.png,n03792782_34550.png,0.0,-5.1618357,-0.262947,-3.4640374
alexnet_w3_mlp_simclrhn_probe1,1,390,NaN,bear,bear,16-0-10,0390_eid_dnn_16-0-10_bear_10_n02132136_9055.png,n02132136_9055.png,1.0,1.4392678,1.3593724,0.056494564
alexnet_w3_mlp_simclrhn_probe1,1,391,NaN,bear,bear,64-0-10,0391_eid_dnn_64-0-10_bear_10_n02134084_7904.png,n02134084_7904.png,1.0,-1.4655247,-1.7115004,0.1739311
alexnet_w3_mlp_simclrhn_probe1,1,392,NaN,bottle,clock,4-0-10,0392_eid_dnn_4-0-10_clock_10_n04548280_4526.png,n04548280_4526.png,0.0,-0.5386748,0.7912532,-0.9404011
alexnet_w3_mlp_simclrhn_probe1,1,393,NaN,keyboard,bottle,1-0-10,0393_eid_dnn_1-0-10_bottle_10_n02823428_685.png,n02823428_685.png,0.0,-0.97488314,-0.65473527,-0.22637874
alexnet_w3_mlp_simclrhn_probe1,1,394,NaN,oven,keyboard,64-0-10,0394_eid_dnn_64-0-10_keyboard_10_n04505470_3935.png,n04505470_3935.png,0.0,-6.1300364,-1.3548326,-3.376579
alexnet_w3_mlp_simclrhn_probe1,1,395,NaN,bear,dog,64-0-10,0395_eid_dnn_64-0-10_dog_10_n02096051_3825.png,n02096051_3825.png,0.0,-1.7949467,-1.2238292,-0.40384108
alexnet_w3_mlp_simclrhn_probe1,1,396,NaN,dog,dog,2-0-10,0396_eid_dnn_2-0-10_dog_10_n02089078_10601.png,n02089078_10601.png,1.0,1.7042058,-0.41945627,1.5016558
alexnet_w3_mlp_simclrhn_probe1,1,397,NaN,clock,clock,2-0-10,0397_eid_dnn_2-0-10_clock_10_n02708093_5236.png,n02708093_5236.png,1.0,8.094305,-1.7743387,6.978185
alexnet_w3_mlp_simclrhn_probe1,1,398,NaN,cat,cat,2-0-10,0398_eid_dnn_2-0-10_cat_10_n02123159_2682.png,n02123159_2682.png,1.0,3.2559373,-2.743397,4.24217
alexnet_w3_mlp_simclrhn_probe1,1,399,NaN,chair,oven,1-0-10,0399_eid_dnn_1-0-10_oven_10_n04111531_10216.png,n04111531_10216.png,0.0,-0.5707252,0.94203013,-1.0696796
alexnet_w3_mlp_simclrhn_probe1,1,400,NaN,boat,boat,2-0-10,0400_eid_dnn_2-0-10_boat_10_n02951358_7137.png,n02951358_7137.png,1.0,-0.94048613,-1.1782637,0.16813411
alexnet_w3_mlp_simclrhn_probe1,1,401,NaN,oven,bird,64-0-10,0401_eid_dnn_64-0-10_bird_10_n02007558_6127.png,n02007558_6127.png,0.0,-5.294792,-0.8476447,-3.144608
alexnet_w3_mlp_simclrhn_probe1,1,402,NaN,bear,dog,16-0-10,0402_eid_dnn_16-0-10_dog_10_n02096051_4804.png,n02096051_4804.png,0.0,-1.2542914,0.18546686,-1.0180628
alexnet_w3_mlp_simclrhn_probe1,1,403,NaN,bear,bottle,8-0-10,0403_eid_dnn_8-0-10_bottle_10_n03983396_13764.png,n03983396_13764.png,0.0,-1.9876,-0.06819116,-1.357227
alexnet_w3_mlp_simclrhn_probe1,1,404,NaN,oven,knife,32-0-10,0404_eid_dnn_32-0-10_knife_10_n03041632_105081.png,n03041632_105081.png,0.0,-2.8441947,-0.17459644,-1.8876909
alexnet_w3_mlp_simclrhn_probe1,1,405,NaN,bear,boat,8-0-10,0405_eid_dnn_8-0-10_boat_10_n03344393_3535.png,n03344393_3535.png,0.0,-2.331795,-0.6379769,-1.1977103
alexnet_w3_mlp_simclrhn_probe1,1,406,NaN,bear,keyboard,64-0-10,0406_eid_dnn_64-0-10_keyboard_10_n03085013_22929.png,n03085013_22929.png,0.0,-3.8099957,-0.7181546,-2.1862617
alexnet_w3_mlp_simclrhn_probe1,1,407,NaN,bottle,bottle,1-0-10,0407_eid_dnn_1-0-10_bottle_10_n04579145_5979.png,n04579145_5979.png,1.0,3.2995667,-2.8714838,4.3635917
alexnet_w3_mlp_simclrhn_probe1,1,408,NaN,knife,knife,2-0-10,0408_eid_dnn_2-0-10_knife_10_n03041632_31301.png,n03041632_31301.png,1.0,1.3866279,-3.6608338,3.5690944
alexnet_w3_mlp_simclrhn_probe1,1,409,NaN,cat,car,128-0-10,0409_eid_dnn_128-0-10_car_10_n04285008_14653.png,n04285008_14653.png,0.0,-10.46589,-2.2662623,-5.7980127
alexnet_w3_mlp_simclrhn_probe1,1,410,NaN,oven,clock,16-0-10,0410_eid_dnn_16-0-10_clock_10_n03196217_1601.png,n03196217_1601.png,0.0,-7.1572647,0.061531745,-5.10446
alexnet_w3_mlp_simclrhn_probe1,1,411,NaN,elephant,bicycle,8-0-10,0411_eid_dnn_8-0-10_bicycle_10_n02835271_25268.png,n02835271_25268.png,0.0,-4.7372184,-1.1809429,-2.5146666
alexnet_w3_mlp_simclrhn_probe1,1,412,NaN,bear,bird,16-0-10,0412_eid_dnn_16-0-10_bird_10_n02037110_875.png,n02037110_875.png,0.0,-1.665665,-0.8477744,-0.57833606
alexnet_w3_mlp_simclrhn_probe1,1,413,NaN,oven,airplane,128-0-10,0413_eid_dnn_128-0-10_airplane_10_n02690373_6807.png,n02690373_6807.png,0.0,-8.092421,-1.5893621,-4.5983567
alexnet_w3_mlp_simclrhn_probe1,1,414,NaN,cat,clock,16-0-10,0414_eid_dnn_16-0-10_clock_10_n04548280_10066.png,n04548280_10066.png,0.0,-2.9044752,-1.3463165,-1.1017846
alexnet_w3_mlp_simclrhn_probe1,1,415,NaN,bear,boat,64-0-10,0415_eid_dnn_64-0-10_boat_10_n02951358_15252.png,n02951358_15252.png,0.0,-6.470257,-1.01694,-3.8560772
alexnet_w3_mlp_simclrhn_probe1,1,416,NaN,oven,car,64-0-10,0416_eid_dnn_64-0-10_car_10_n02814533_4803.png,n02814533_4803.png,0.0,-9.102313,-2.029683,-5.001105
alexnet_w3_mlp_simclrhn_probe1,1,417,NaN,oven,car,16-0-10,0417_eid_dnn_16-0-10_car_10_n03100240_24544.png,n03100240_24544.png,0.0,-8.920522,0.5608347,-6.704332
alexnet_w3_mlp_simclrhn_probe1,1,418,NaN,knife,bear,128-0-10,0418_eid_dnn_128-0-10_bear_10_n02132136_4219.png,n02132136_4219.png,0.0,-2.5836918,-2.0771048,-0.35821113
alexnet_w3_mlp_simclrhn_probe1,1,419,NaN,bear,bicycle,32-0-10,0419_eid_dnn_32-0-10_bicycle_10_n02835271_507.png,n02835271_507.png,0.0,-3.1036782,-0.4466149,-1.8788275
alexnet_w3_mlp_simclrhn_probe1,1,420,NaN,boat,boat,1-0-10,0420_eid_dnn_1-0-10_boat_10_n04273569_13290.png,n04273569_13290.png,1.0,2.746461,0.49857762,1.5894935
alexnet_w3_mlp_simclrhn_probe1,1,421,NaN,bicycle,bicycle,2-0-10,0421_eid_dnn_2-0-10_bicycle_10_n03792782_42626.png,n03792782_42626.png,1.0,-0.84570724,-1.0086062,0.11518696
alexnet_w3_mlp_simclrhn_probe1,1,422,NaN,cat,dog,8-0-10,0422_eid_dnn_8-0-10_dog_10_n02106382_3856.png,n02106382_3856.png,0.0,-0.22477874,0.50493914,-0.51598847
alexnet_w3_mlp_simclrhn_probe1,1,423,NaN,oven,clock,1-0-10,0423_eid_dnn_1-0-10_clock_10_n02708093_274.png,n02708093_274.png,0.0,-1.8018103,-1.1510754,-0.46013907
alexnet_w3_mlp_simclrhn_probe1,1,424,NaN,oven,bottle,32-0-10,0424_eid_dnn_32-0-10_bottle_10_n04591713_5921.png,n04591713_5921.png,0.0,-5.302532,-0.771978,-3.2035856
alexnet_w3_mlp_simclrhn_probe1,1,425,NaN,elephant,elephant,1-0-10,0425_eid_dnn_1-0-10_elephant_10_n02504458_3851.png,n02504458_3851.png,1.0,6.6032667,0.3674849,4.4093637
alexnet_w3_mlp_simclrhn_probe1,1,426,NaN,elephant,dog,32-0-10,0426_eid_dnn_32-0-10_dog_10_n02105855_995.png,n02105855_995.png,0.0,-2.0019934,-0.27489215,-1.221245
alexnet_w3_mlp_simclrhn_probe1,1,427,NaN,airplane,airplane,2-0-10,0427_eid_dnn_2-0-10_airplane_10_n02690373_1979.png,n02690373_1979.png,1.0,-0.21277396,-1.3625106,0.8129866
alexnet_w3_mlp_simclrhn_probe1,1,428,NaN,airplane,airplane,1-0-10,0428_eid_dnn_1-0-10_airplane_10_n02690373_6455.png,n02690373_6455.png,1.0,6.821564,0.734148,4.3044534
alexnet_w3_mlp_simclrhn_probe1,1,429,NaN,oven,oven,1-0-10,0429_eid_dnn_1-0-10_oven_10_n04111531_18979.png,n04111531_18979.png,1.0,4.8235497,-2.0600824,4.867463
alexnet_w3_mlp_simclrhn_probe1,1,430,NaN,oven,oven,32-0-10,0430_eid_dnn_32-0-10_oven_10_n04111531_16795.png,n04111531_16795.png,1.0,-1.7744976,-2.0253196,0.1773579
alexnet_w3_mlp_simclrhn_probe1,1,431,NaN,oven,truck,4-0-10,0431_eid_dnn_4-0-10_truck_10_n04467665_41076.png,n04467665_41076.png,0.0,-3.2025728,-0.487589,-1.9197836
alexnet_w3_mlp_simclrhn_probe1,1,432,NaN,oven,bird,16-0-10,0432_eid_dnn_16-0-10_bird_10_n01534433_31697.png,n01534433_31697.png,0.0,-2.8330371,-1.0048287,-1.2927386
alexnet_w3_mlp_simclrhn_probe1,1,433,NaN,oven,keyboard,128-0-10,0433_eid_dnn_128-0-10_keyboard_10_n04505470_4289.png,n04505470_4289.png,0.0,-5.7474165,-2.8266146,-2.0653188
alexnet_w3_mlp_simclrhn_probe1,1,434,NaN,keyboard,keyboard,4-0-10,0434_eid_dnn_4-0-10_keyboard_10_n03085013_20727.png,n03085013_20727.png,1.0,2.8252158,-1.5592529,3.1002874
alexnet_w3_mlp_simclrhn_probe1,1,435,NaN,bear,boat,8-0-10,0435_eid_dnn_8-0-10_boat_10_n04273569_7315.png,n04273569_7315.png,0.0,-2.145481,-0.6451082,-1.0609238
alexnet_w3_mlp_simclrhn_probe1,1,436,NaN,car,car,1-0-10,0436_eid_dnn_1-0-10_car_10_n03100240_16646.png,n03100240_16646.png,1.0,2.6824124,-0.16895282,2.0162196
alexnet_w3_mlp_simclrhn_probe1,1,437,NaN,oven,car,16-0-10,0437_eid_dnn_16-0-10_car_10_n03100240_5281.png,n03100240_5281.png,0.0,-9.655742,-0.17638044,-6.702921
alexnet_w3_mlp_simclrhn_probe1,1,438,NaN,bird,airplane,128-0-10,0438_eid_dnn_128-0-10_airplane_10_n02690373_1670.png,n02690373_1670.png,0.0,-4.728736,-1.7077913,-2.1361303
alexnet_w3_mlp_simclrhn_probe1,1,439,NaN,oven,airplane,128-0-10,0439_eid_dnn_128-0-10_airplane_10_n02690373_9293.png,n02690373_9293.png,0.0,-10.250473,-2.216751,-5.6806993
alexnet_w3_mlp_simclrhn_probe1,1,440,NaN,oven,truck,128-0-10,0440_eid_dnn_128-0-10_truck_10_n03796401_15846.png,n03796401_15846.png,0.0,-8.453646,-2.1546159,-4.454087
alexnet_w3_mlp_simclrhn_probe1,1,441,NaN,oven,truck,32-0-10,0441_eid_dnn_32-0-10_truck_10_n03796401_6971.png,n03796401_6971.png,0.0,-7.4582825,-0.34878814,-5.0271716
alexnet_w3_mlp_simclrhn_probe1,1,442,NaN,oven,oven,128-0-10,0442_eid_dnn_128-0-10_oven_10_n04111531_10724.png,n04111531_10724.png,1.0,-1.2539494,-3.0470529,1.2679156
alexnet_w3_mlp_simclrhn_probe1,1,443,NaN,cat,keyboard,8-0-10,0443_eid_dnn_8-0-10_keyboard_10_n03085013_22187.png,n03085013_22187.png,0.0,-6.178602,1.1557101,-5.186142
alexnet_w3_mlp_simclrhn_probe1,1,444,NaN,bear,oven,8-0-10,0444_eid_dnn_8-0-10_oven_10_n04111531_4671.png,n04111531_4671.png,0.0,-2.66851,0.20270327,-2.0302544
alexnet_w3_mlp_simclrhn_probe1,1,445,NaN,airplane,airplane,4-0-10,0445_eid_dnn_4-0-10_airplane_10_n02690373_5142.png,n02690373_5142.png,1.0,0.66082686,-1.1572825,1.2855974
alexnet_w3_mlp_simclrhn_probe1,1,446,NaN,elephant,elephant,4-0-10,0446_eid_dnn_4-0-10_elephant_10_n02504013_8562.png,n02504013_8562.png,1.0,4.3525314,0.37152493,2.8149967
alexnet_w3_mlp_simclrhn_probe1,1,447,NaN,truck,truck,1-0-10,0447_eid_dnn_1-0-10_truck_10_n03417042_9668.png,n03417042_9668.png,1.0,1.6901524,0.3625592,0.93875015
alexnet_w3_mlp_simclrhn_probe1,1,448,NaN,cat,bottle,8-0-10,0448_eid_dnn_8-0-10_bottle_10_n03983396_10330.png,n03983396_10330.png,0.0,-2.7179973,-0.85466176,-1.3175772
alexnet_w3_mlp_simclrhn_probe1,1,449,NaN,cat,elephant,128-0-10,0449_eid_dnn_128-0-10_elephant_10_n02504458_4395.png,n02504458_4395.png,0.0,-4.2748976,-2.2815444,-1.4095136
alexnet_w3_mlp_simclrhn_probe1,1,450,NaN,bear,boat,64-0-10,0450_eid_dnn_64-0-10_boat_10_n03344393_4562.png,n03344393_4562.png,0.0,-5.8466563,-1.4424739,-3.1142273
alexnet_w3_mlp_simclrhn_probe1,1,451,NaN,oven,oven,2-0-10,0451_eid_dnn_2-0-10_oven_10_n04111531_10011.png,n04111531_10011.png,1.0,2.4904757,-2.8008206,3.7415113
alexnet_w3_mlp_simclrhn_probe1,1,452,NaN,oven,oven,64-0-10,0452_eid_dnn_64-0-10_oven_10_n04111531_13797.png,n04111531_13797.png,1.0,-0.73273325,-2.4929461,1.2446585
alexnet_w3_mlp_simclrhn_probe1,1,453,NaN,airplane,boat,2-0-10,0453_eid_dnn_2-0-10_boat_10_n03662601_840.png,n03662601_840.png,0.0,0.6038731,0.97593796,-0.2630896
alexnet_w3_mlp_simclrhn_probe1,1,454,NaN,bear,truck,16-0-10,0454_eid_dnn_16-0-10_truck_10_n03417042_17037.png,n03417042_17037.png,0.0,-7.219695,0.13699086,-5.201963
alexnet_w3_mlp_simclrhn_probe1,1,455,NaN,oven,cat,64-0-10,0455_eid_dnn_64-0-10_cat_10_n02125311_2576.png,n02125311_2576.png,0.0,-1.7583803,-0.7013168,-0.74745685
alexnet_w3_mlp_simclrhn_probe1,1,456,NaN,bear,keyboard,32-0-10,0456_eid_dnn_32-0-10_keyboard_10_n03085013_3264.png,n03085013_3264.png,0.0,-2.6353734,-1.0885308,-1.0937829
alexnet_w3_mlp_simclrhn_probe1,1,457,NaN,oven,dog,64-0-10,0457_eid_dnn_64-0-10_dog_10_n02097130_3519.png,n02097130_3519.png,0.0,-3.5874813,-1.8457773,-1.2315707
alexnet_w3_mlp_simclrhn_probe1,1,458,NaN,cat,airplane,16-0-10,0458_eid_dnn_16-0-10_airplane_10_n02690373_4486.png,n02690373_4486.png,0.0,-4.474781,-1.5833826,-2.0445275
alexnet_w3_mlp_simclrhn_probe1,1,459,NaN,oven,bottle,16-0-10,0459_eid_dnn_16-0-10_bottle_10_n03983396_19635.png,n03983396_19635.png,0.0,-3.972309,0.96042305,-3.4879684
alexnet_w3_mlp_simclrhn_probe1,1,460,NaN,bear,airplane,16-0-10,0460_eid_dnn_16-0-10_airplane_10_n02690373_1426.png,n02690373_1426.png,0.0,-4.967904,-1.3730574,-2.5419405
alexnet_w3_mlp_simclrhn_probe1,1,461,NaN,oven,oven,4-0-10,0461_eid_dnn_4-0-10_oven_10_n04111531_5279.png,n04111531_5279.png,1.0,0.72542214,-1.6977009,1.7134067
alexnet_w3_mlp_simclrhn_probe1,1,462,NaN,oven,bottle,64-0-10,0462_eid_dnn_64-0-10_bottle_10_n03983396_4024.png,n03983396_4024.png,0.0,-3.259144,-1.6469581,-1.1399876
alexnet_w3_mlp_simclrhn_probe1,1,463,NaN,bear,bear,8-0-10,0463_eid_dnn_8-0-10_bear_10_n02133161_12751.png,n02133161_12751.png,1.0,0.5248351,-0.43484724,0.6785979
alexnet_w3_mlp_simclrhn_probe1,1,464,NaN,bear,car,8-0-10,0464_eid_dnn_8-0-10_car_10_n02814533_12271.png,n02814533_12271.png,0.0,-8.322352,1.2456741,-6.7656164
alexnet_w3_mlp_simclrhn_probe1,1,465,NaN,cat,bottle,16-0-10,0465_eid_dnn_16-0-10_bottle_10_n04560804_5068.png,n04560804_5068.png,0.0,-3.4458253,-1.2122065,-1.579407
alexnet_w3_mlp_simclrhn_probe1,1,466,NaN,cat,bottle,128-0-10,0466_eid_dnn_128-0-10_bottle_10_n04579145_1168.png,n04579145_1168.png,0.0,-3.789481,-1.774794,-1.4245989
alexnet_w3_mlp_simclrhn_probe1,1,467,NaN,oven,knife,64-0-10,0467_eid_dnn_64-0-10_knife_10_n03041632_2973.png,n03041632_2973.png,0.0,-3.1633778,-1.345583,-1.285375
alexnet_w3_mlp_simclrhn_probe1,1,468,NaN,oven,airplane,16-0-10,0468_eid_dnn_16-0-10_airplane_10_n02690373_19329.png,n02690373_19329.png,0.0,-3.8004568,-0.9311265,-2.028923
alexnet_w3_mlp_simclrhn_probe1,1,469,NaN,oven,bottle,32-0-10,0469_eid_dnn_32-0-10_bottle_10_n04560804_1356.png,n04560804_1356.png,0.0,-3.2790742,-0.3001054,-2.1064491
alexnet_w3_mlp_simclrhn_probe1,1,470,NaN,bear,bear,8-0-10,0470_eid_dnn_8-0-10_bear_10_n02134084_3960.png,n02134084_3960.png,1.0,1.9568969,1.3743339,0.4119343
alexnet_w3_mlp_simclrhn_probe1,1,471,NaN,boat,boat,4-0-10,0471_eid_dnn_4-0-10_boat_10_n04612504_27504.png,n04612504_27504.png,1.0,-0.55698884,-0.6333182,0.053973
alexnet_w3_mlp_simclrhn_probe1,1,472,NaN,dog,dog,4-0-10,0472_eid_dnn_4-0-10_dog_10_n02099601_9973.png,n02099601_9973.png,1.0,0.7184801,0.29525107,0.29926813
alexnet_w3_mlp_simclrhn_probe1,1,473,NaN,oven,truck,64-0-10,0473_eid_dnn_64-0-10_truck_10_n03417042_26843.png,n03417042_26843.png,0.0,-7.0278664,0.18324168,-5.099024
alexnet_w3_mlp_simclrhn_probe1,1,474,NaN,oven,knife,64-0-10,0474_eid_dnn_64-0-10_knife_10_n03041632_55711.png,n03041632_55711.png,0.0,-2.388156,-1.7439113,-0.45554978
alexnet_w3_mlp_simclrhn_probe1,1,475,NaN,bear,elephant,8-0-10,0475_eid_dnn_8-0-10_elephant_10_n02504013_1986.png,n02504013_1986.png,0.0,0.08741015,2.402145,-1.6367646
alexnet_w3_mlp_simclrhn_probe1,1,476,NaN,knife,keyboard,4-0-10,0476_eid_dnn_4-0-10_keyboard_10_n03085013_9475.png,n03085013_9475.png,0.0,-1.91282,-1.2605884,-0.46119738
alexnet_w3_mlp_simclrhn_probe1,1,477,NaN,bear,elephant,32-0-10,0477_eid_dnn_32-0-10_elephant_10_n02504458_3381.png,n02504458_3381.png,0.0,-1.7382324,-1.1563003,-0.41148812
alexnet_w3_mlp_simclrhn_probe1,1,478,NaN,cat,airplane,8-0-10,0478_eid_dnn_8-0-10_airplane_10_n02690373_1161.png,n02690373_1161.png,0.0,-2.5209012,-0.9241989,-1.129039
alexnet_w3_mlp_simclrhn_probe1,1,479,NaN,oven,cat,64-0-10,0479_eid_dnn_64-0-10_cat_10_n02124075_7474.png,n02124075_7474.png,0.0,-2.902097,-0.83813643,-1.4594405
alexnet_w3_mlp_simclrhn_probe1,1,480,NaN,cat,cat,4-0-10,0480_eid_dnn_4-0-10_cat_10_n02125311_9074.png,n02125311_9074.png,1.0,-0.7184286,-0.7834885,0.0460043
alexnet_w3_mlp_simclrhn_probe1,1,481,NaN,oven,airplane,128-0-10,0481_eid_dnn_128-0-10_airplane_10_n02690373_2867.png,n02690373_2867.png,0.0,-8.019417,-0.5749531,-5.264031
alexnet_w3_mlp_simclrhn_probe1,1,482,NaN,elephant,elephant,2-0-10,0482_eid_dnn_2-0-10_elephant_10_n02504013_1692.png,n02504013_1692.png,1.0,1.3461678,-0.55105215,1.3415371
alexnet_w3_mlp_simclrhn_probe1,1,483,NaN,bear,bird,8-0-10,0483_eid_dnn_8-0-10_bird_10_n02009912_11813.png,n02009912_11813.png,0.0,-2.5532882,0.78095615,-2.3576667
alexnet_w3_mlp_simclrhn_probe1,1,484,NaN,bird,bottle,16-0-10,0484_eid_dnn_16-0-10_bottle_10_n04557648_10302.png,n04557648_10302.png,0.0,-3.4401727,-1.432599,-1.4195689
alexnet_w3_mlp_simclrhn_probe1,1,485,NaN,oven,keyboard,4-0-10,0485_eid_dnn_4-0-10_keyboard_10_n03085013_20302.png,n03085013_20302.png,0.0,-1.9309521,0.071235076,-1.4157602
alexnet_w3_mlp_simclrhn_probe1,1,486,NaN,cat,elephant,128-0-10,0486_eid_dnn_128-0-10_elephant_10_n02504458_5827.png,n02504458_5827.png,0.0,-5.5722733,-2.435337,-2.218149
alexnet_w3_mlp_simclrhn_probe1,1,487,NaN,keyboard,knife,1-0-10,0487_eid_dnn_1-0-10_knife_10_n03041632_11327.png,n03041632_11327.png,0.0,-0.35745043,0.50543714,-0.6101537
alexnet_w3_mlp_simclrhn_probe1,1,488,NaN,bird,bird,4-0-10,0488_eid_dnn_4-0-10_bird_10_n01795545_17770.png,n01795545_17770.png,1.0,-0.9453479,-2.3673306,1.0054936
alexnet_w3_mlp_simclrhn_probe1,1,489,NaN,cat,bicycle,4-0-10,0489_eid_dnn_4-0-10_bicycle_10_n02835271_10932.png,n02835271_10932.png,0.0,-2.50581,-1.5286423,-0.69096196
alexnet_w3_mlp_simclrhn_probe1,1,490,NaN,cat,cat,2-0-10,0490_eid_dnn_2-0-10_cat_10_n02123597_14233.png,n02123597_14233.png,1.0,-0.6725283,-1.0961688,0.29955903
alexnet_w3_mlp_simclrhn_probe1,1,491,NaN,bird,bird,1-0-10,0491_eid_dnn_1-0-10_bird_10_n01614925_7662.png,n01614925_7662.png,1.0,0.7681091,-2.3875995,2.231423
alexnet_w3_mlp_simclrhn_probe1,1,492,NaN,oven,truck,16-0-10,0492_eid_dnn_16-0-10_truck_10_n03417042_5875.png,n03417042_5875.png,0.0,-6.2622128,0.8772463,-5.04836
alexnet_w3_mlp_simclrhn_probe1,1,493,NaN,bear,bear,1-0-10,0493_eid_dnn_1-0-10_bear_10_n02134418_304.png,n02134418_304.png,1.0,2.554518,-0.0281789,1.8262426
alexnet_w3_mlp_simclrhn_probe1,1,494,NaN,cat,bird,1-0-10,0494_eid_dnn_1-0-10_bird_10_n01622779_5148.png,n01622779_5148.png,0.0,-2.5682344,1.2975485,-2.7335215
alexnet_w3_mlp_simclrhn_probe1,1,495,NaN,elephant,knife,1-0-10,0495_eid_dnn_1-0-10_knife_10_n03041632_44230.png,n03041632_44230.png,0.0,-1.0027425,-0.81506115,-0.13271077
alexnet_w3_mlp_simclrhn_probe1,1,496,NaN,oven,boat,32-0-10,0496_eid_dnn_32-0-10_boat_10_n03662601_8650.png,n03662601_8650.png,0.0,-3.0289688,-0.68476367,-1.6576034
alexnet_w3_mlp_simclrhn_probe1,1,497,NaN,bear,oven,16-0-10,0497_eid_dnn_16-0-10_oven_10_n04111531_4346.png,n04111531_4346.png,0.0,-0.17828993,0.41741747,-0.42122877
alexnet_w3_mlp_simclrhn_probe1,1,498,NaN,clock,clock,2-0-10,0498_eid_dnn_2-0-10_clock_10_n03196217_2201.png,n03196217_2201.png,1.0,0.43148652,-0.17856069,0.43136853
alexnet_w3_mlp_simclrhn_probe1,1,499,NaN,bear,bicycle,64-0-10,0499_eid_dnn_64-0-10_bicycle_10_n02835271_8757.png,n02835271_8757.png,0.0,-1.9884784,-1.6609964,-0.23156473
alexnet_w3_mlp_simclrhn_probe1,1,500,NaN,cat,keyboard,8-0-10,0500_eid_dnn_8-0-10_keyboard_10_n03085013_23563.png,n03085013_23563.png,0.0,-3.8494995,0.30182695,-2.935431
alexnet_w3_mlp_simclrhn_probe1,1,501,NaN,bear,boat,64-0-10,0501_eid_dnn_64-0-10_boat_10_n04273569_15879.png,n04273569_15879.png,0.0,-6.1749773,-1.0980964,-3.589897
alexnet_w3_mlp_simclrhn_probe1,1,502,NaN,elephant,truck,64-0-10,0502_eid_dnn_64-0-10_truck_10_n04467665_30588.png,n04467665_30588.png,0.0,-4.6999474,-1.3312016,-2.3820632
alexnet_w3_mlp_simclrhn_probe1,1,503,NaN,oven,truck,16-0-10,0503_eid_dnn_16-0-10_truck_10_n03417042_1875.png,n03417042_1875.png,0.0,-7.2913666,-0.82866174,-4.5698223
alexnet_w3_mlp_simclrhn_probe1,1,504,NaN,oven,cat,128-0-10,0504_eid_dnn_128-0-10_cat_10_n02123394_6014.png,n02123394_6014.png,0.0,-3.4920576,-0.6420498,-2.0152597
alexnet_w3_mlp_simclrhn_probe1,1,505,NaN,boat,boat,1-0-10,0505_eid_dnn_1-0-10_boat_10_n04273569_10847.png,n04273569_10847.png,1.0,1.8149589,-1.2055576,2.1358278
alexnet_w3_mlp_simclrhn_probe1,1,506,NaN,oven,elephant,64-0-10,0506_eid_dnn_64-0-10_elephant_10_n02504013_5495.png,n02504013_5495.png,0.0,-2.495955,-1.184735,-0.9271726
alexnet_w3_mlp_simclrhn_probe1,1,507,NaN,oven,bottle,128-0-10,0507_eid_dnn_128-0-10_bottle_10_n04560804_16276.png,n04560804_16276.png,0.0,-1.6109952,-1.1259655,-0.3429678
alexnet_w3_mlp_simclrhn_probe1,1,508,NaN,truck,car,1-0-10,0508_eid_dnn_1-0-10_car_10_n04285008_1243.png,n04285008_1243.png,0.0,0.38846695,0.728618,-0.24052313
alexnet_w3_mlp_simclrhn_probe1,1,509,NaN,bear,keyboard,32-0-10,0509_eid_dnn_32-0-10_keyboard_10_n03085013_22027.png,n03085013_22027.png,0.0,-5.3066015,-1.0645362,-2.9995933
alexnet_w3_mlp_simclrhn_probe1,1,510,NaN,bear,cat,32-0-10,0510_eid_dnn_32-0-10_cat_10_n02123045_12766.png,n02123045_12766.png,0.0,-2.3726914,-0.53548914,-1.2990983
alexnet_w3_mlp_simclrhn_probe1,1,511,NaN,oven,chair,64-0-10,0511_eid_dnn_64-0-10_chair_10_n04429376_29954.png,n04429376_29954.png,0.0,-4.9733424,-1.5412394,-2.4268634
alexnet_w3_mlp_simclrhn_probe1,1,512,NaN,bear,elephant,32-0-10,0512_eid_dnn_32-0-10_elephant_10_n02504013_5678.png,n02504013_5678.png,0.0,-1.2796457,-0.3655563,-0.6463588
alexnet_w3_mlp_simclrhn_probe1,1,513,NaN,oven,chair,4-0-10,0513_eid_dnn_4-0-10_chair_10_n03376595_6333.png,n03376595_6333.png,0.0,-3.497019,-2.3084898,-0.8404171
alexnet_w3_mlp_simclrhn_probe1,1,514,NaN,oven,keyboard,2-0-10,0514_eid_dnn_2-0-10_keyboard_10_n03085013_22605.png,n03085013_22605.png,0.0,0.09485072,0.5738247,-0.33868575
alexnet_w3_mlp_simclrhn_probe1,1,515,NaN,oven,car,32-0-10,0515_eid_dnn_32-0-10_car_10_n04285008_16557.png,n04285008_16557.png,0.0,-8.440022,1.4564543,-6.997866
alexnet_w3_mlp_simclrhn_probe1,1,516,NaN,bear,bottle,64-0-10,0516_eid_dnn_64-0-10_bottle_10_n02823428_1034.png,n02823428_1034.png,0.0,-4.944217,-0.89117,-2.8659372
alexnet_w3_mlp_simclrhn_probe1,1,517,NaN,bear,elephant,16-0-10,0517_eid_dnn_16-0-10_elephant_10_n02504013_7777.png,n02504013_7777.png,0.0,-3.383105,-0.26856726,-2.2023108
alexnet_w3_mlp_simclrhn_probe1,1,518,NaN,knife,knife,4-0-10,0518_eid_dnn_4-0-10_knife_10_n03041632_14293.png,n03041632_14293.png,1.0,-1.3551471,-1.5709095,0.15256704
alexnet_w3_mlp_simclrhn_probe1,1,519,NaN,cat,knife,8-0-10,0519_eid_dnn_8-0-10_knife_10_n03041632_50423.png,n03041632_50423.png,0.0,-3.2002366,-1.357881,-1.3027421
alexnet_w3_mlp_simclrhn_probe1,1,520,NaN,chair,chair,2-0-10,0520_eid_dnn_2-0-10_chair_10_n03376595_3043.png,n03376595_3043.png,1.0,0.08910367,-0.4903106,0.40970775
alexnet_w3_mlp_simclrhn_probe1,1,521,NaN,bear,cat,8-0-10,0521_eid_dnn_8-0-10_cat_10_n02123394_2434.png,n02123394_2434.png,0.0,-0.48686254,-0.04577174,-0.3118983
alexnet_w3_mlp_simclrhn_probe1,1,522,NaN,truck,truck,1-0-10,0522_eid_dnn_1-0-10_truck_10_n04467665_54079.png,n04467665_54079.png,1.0,0.1749314,-0.17645697,0.24846911
alexnet_w3_mlp_simclrhn_probe1,1,523,NaN,bear,bird,2-0-10,0523_eid_dnn_2-0-10_bird_10_n01855672_1001.png,n01855672_1001.png,0.0,-2.4286213,-0.42337957,-1.41792
alexnet_w3_mlp_simclrhn_probe1,1,524,NaN,bottle,bottle,1-0-10,0524_eid_dnn_1-0-10_bottle_10_n04560804_6112.png,n04560804_6112.png,1.0,0.5023394,-1.9413335,1.7279377
alexnet_w3_mlp_simclrhn_probe1,1,525,NaN,oven,keyboard,1-0-10,0525_eid_dnn_1-0-10_keyboard_10_n04505470_1744.png,n04505470_1744.png,0.0,0.9640286,2.613582,-1.1664103
alexnet_w3_mlp_simclrhn_probe1,1,526,NaN,oven,boat,32-0-10,0526_eid_dnn_32-0-10_boat_10_n02951358_15087.png,n02951358_15087.png,0.0,-8.008418,-0.5266359,-5.2904186
alexnet_w3_mlp_simclrhn_probe1,1,527,NaN,elephant,bottle,4-0-10,0527_eid_dnn_4-0-10_bottle_10_n04557648_10051.png,n04557648_10051.png,0.0,-2.4028988,1.2135191,-2.5571938
alexnet_w3_mlp_simclrhn_probe1,1,528,NaN,oven,bear,64-0-10,0528_eid_dnn_64-0-10_bear_10_n02134084_5794.png,n02134084_5794.png,0.0,-1.6157651,-0.5332296,-0.7654682
alexnet_w3_mlp_simclrhn_probe1,1,529,NaN,keyboard,keyboard,4-0-10,0529_eid_dnn_4-0-10_keyboard_10_n04505470_751.png,n04505470_751.png,1.0,0.39038384,-0.92807484,0.9322911
alexnet_w3_mlp_simclrhn_probe1,1,530,NaN,oven,boat,128-0-10,0530_eid_dnn_128-0-10_boat_10_n04273569_9306.png,n04273569_9306.png,0.0,-7.981462,-0.97510517,-4.954242
alexnet_w3_mlp_simclrhn_probe1,1,531,NaN,bear,chair,16-0-10,0531_eid_dnn_16-0-10_chair_10_n02791124_9162.png,n02791124_9162.png,0.0,-4.8611374,-0.3606643,-3.182315
alexnet_w3_mlp_simclrhn_probe1,1,532,NaN,oven,bicycle,128-0-10,0532_eid_dnn_128-0-10_bicycle_10_n02835271_25033.png,n02835271_25033.png,0.0,-2.9966974,-2.0332704,-0.6812458
alexnet_w3_mlp_simclrhn_probe1,1,533,NaN,cat,keyboard,128-0-10,0533_eid_dnn_128-0-10_keyboard_10_n04505470_3905.png,n04505470_3905.png,0.0,-6.078455,-2.6592379,-2.4177516
alexnet_w3_mlp_simclrhn_probe1,1,534,NaN,knife,knife,4-0-10,0534_eid_dnn_4-0-10_knife_10_n03041632_32054.png,n03041632_32054.png,1.0,-1.0397195,-1.7506502,0.5027039
alexnet_w3_mlp_simclrhn_probe1,1,535,NaN,cat,clock,8-0-10,0535_eid_dnn_8-0-10_clock_10_n03196217_13380.png,n03196217_13380.png,0.0,-8.204753,0.17375748,-5.924502
alexnet_w3_mlp_simclrhn_probe1,1,536,NaN,bird,chair,32-0-10,0536_eid_dnn_32-0-10_chair_10_n03376595_8083.png,n03376595_8083.png,0.0,-4.3947496,-1.2496481,-2.2239227
alexnet_w3_mlp_simclrhn_probe1,1,537,NaN,bear,cat,8-0-10,0537_eid_dnn_8-0-10_cat_10_n02125311_47927.png,n02125311_47927.png,0.0,0.44796416,1.011976,-0.3988166
alexnet_w3_mlp_simclrhn_probe1,1,538,NaN,oven,boat,64-0-10,0538_eid_dnn_64-0-10_boat_10_n04273569_1141.png,n04273569_1141.png,0.0,-8.127299,0.0064668655,-5.7514415
alexnet_w3_mlp_simclrhn_probe1,1,539,NaN,oven,dog,64-0-10,0539_eid_dnn_64-0-10_dog_10_n02097130_5859.png,n02097130_5859.png,0.0,-2.8177881,-1.0706607,-1.2354057
alexnet_w3_mlp_simclrhn_probe1,1,540,NaN,bear,dog,16-0-10,0540_eid_dnn_16-0-10_dog_10_n02090721_835.png,n02090721_835.png,0.0,-1.5809386,-0.12730563,-1.0278738
alexnet_w3_mlp_simclrhn_probe1,1,541,NaN,oven,bear,128-0-10,0541_eid_dnn_128-0-10_bear_10_n02132136_15806.png,n02132136_15806.png,0.0,-2.6677861,-1.5839152,-0.7664125
alexnet_w3_mlp_simclrhn_probe1,1,542,NaN,oven,cat,128-0-10,0542_eid_dnn_128-0-10_cat_10_n02124075_12069.png,n02124075_12069.png,0.0,-3.182329,-0.4037679,-1.9647394
alexnet_w3_mlp_simclrhn_probe1,1,543,NaN,oven,oven,2-0-10,0543_eid_dnn_2-0-10_oven_10_n04111531_21382.png,n04111531_21382.png,1.0,5.124563,-2.6986647,5.5318575
alexnet_w3_mlp_simclrhn_probe1,1,544,NaN,dog,cat,1-0-10,0544_eid_dnn_1-0-10_cat_10_n02123597_2009.png,n02123597_2009.png,0.0,-2.501938,-1.5042068,-0.7055026
alexnet_w3_mlp_simclrhn_probe1,1,545,NaN,oven,oven,32-0-10,0545_eid_dnn_32-0-10_oven_10_n04111531_4392.png,n04111531_4392.png,1.0,-0.3744079,-0.7777883,0.28523302
alexnet_w3_mlp_simclrhn_probe1,1,546,NaN,boat,boat,4-0-10,0546_eid_dnn_4-0-10_boat_10_n03344393_640.png,n03344393_640.png,1.0,-1.0233854,-1.6079357,0.41333947
alexnet_w3_mlp_simclrhn_probe1,1,547,NaN,oven,car,4-0-10,0547_eid_dnn_4-0-10_car_10_n02814533_245.png,n02814533_245.png,0.0,-3.3155081,-0.74291456,-1.8190985
alexnet_w3_mlp_simclrhn_probe1,1,548,NaN,bird,bird,1-0-10,0548_eid_dnn_1-0-10_bird_10_n01530575_3831.png,n01530575_3831.png,1.0,-0.68713886,-2.764108,1.468639
alexnet_w3_mlp_simclrhn_probe1,1,549,NaN,truck,truck,2-0-10,0549_eid_dnn_2-0-10_truck_10_n04467665_32276.png,n04467665_32276.png,1.0,4.008156,2.9905522,0.7195544
alexnet_w3_mlp_simclrhn_probe1,1,550,NaN,oven,elephant,64-0-10,0550_eid_dnn_64-0-10_elephant_10_n02504458_5941.png,n02504458_5941.png,0.0,-2.7518601,-1.9667196,-0.55517817
alexnet_w3_mlp_simclrhn_probe1,1,551,NaN,elephant,elephant,4-0-10,0551_eid_dnn_4-0-10_elephant_10_n02504013_9796.png,n02504013_9796.png,1.0,3.3751407,1.7877874,1.1224283
alexnet_w3_mlp_simclrhn_probe1,1,552,NaN,airplane,airplane,4-0-10,0552_eid_dnn_4-0-10_airplane_10_n02690373_8214.png,n02690373_8214.png,1.0,0.26864618,-1.4919173,1.2449063
alexnet_w3_mlp_simclrhn_probe1,1,553,NaN,airplane,airplane,1-0-10,0553_eid_dnn_1-0-10_airplane_10_n02690373_8967.png,n02690373_8967.png,1.0,7.6334834,-0.8386198,5.9906816
alexnet_w3_mlp_simclrhn_probe1,1,554,NaN,bear,elephant,64-0-10,0554_eid_dnn_64-0-10_elephant_10_n02504458_7642.png,n02504458_7642.png,0.0,-2.2734687,-1.643537,-0.44542897
alexnet_w3_mlp_simclrhn_probe1,1,555,NaN,boat,boat,1-0-10,0555_eid_dnn_1-0-10_boat_10_n04273569_15455.png,n04273569_15455.png,1.0,1.0956534,1.0799499,0.011104093
alexnet_w3_mlp_simclrhn_probe1,1,556,NaN,bear,knife,8-0-10,0556_eid_dnn_8-0-10_knife_10_n03041632_3063.png,n03041632_3063.png,0.0,-4.031592,1.4843879,-3.9003868
alexnet_w3_mlp_simclrhn_probe1,1,557,NaN,bottle,bottle,4-0-10,0557_eid_dnn_4-0-10_bottle_10_n03937543_4912.png,n03937543_4912.png,1.0,-0.12346605,-0.70821357,0.4134789
alexnet_w3_mlp_simclrhn_probe1,1,558,NaN,oven,oven,4-0-10,0558_eid_dnn_4-0-10_oven_10_n04111531_5776.png,n04111531_5776.png,1.0,-0.010359392,-1.0263367,0.7184044
alexnet_w3_mlp_simclrhn_probe1,1,559,NaN,cat,bottle,128-0-10,0559_eid_dnn_128-0-10_bottle_10_n03983396_4540.png,n03983396_4540.png,0.0,-5.7524595,-2.1754148,-2.5293527
alexnet_w3_mlp_simclrhn_probe1,1,560,NaN,knife,knife,2-0-10,0560_eid_dnn_2-0-10_knife_10_n03041632_965.png,n03041632_965.png,1.0,1.978943,-0.76928127,1.9432881
alexnet_w3_mlp_simclrhn_probe1,1,561,NaN,oven,knife,32-0-10,0561_eid_dnn_32-0-10_knife_10_n03041632_12949.png,n03041632_12949.png,0.0,-2.474993,-0.55513036,-1.3575479
alexnet_w3_mlp_simclrhn_probe1,1,562,NaN,bear,knife,16-0-10,0562_eid_dnn_16-0-10_knife_10_n03041632_18766.png,n03041632_18766.png,0.0,-2.8798046,0.68474174,-2.520515
alexnet_w3_mlp_simclrhn_probe1,1,563,NaN,oven,keyboard,8-0-10,0563_eid_dnn_8-0-10_keyboard_10_n04505470_2869.png,n04505470_2869.png,0.0,-2.2934232,0.1286236,-1.7126456
alexnet_w3_mlp_simclrhn_probe1,1,564,NaN,elephant,bicycle,4-0-10,0564_eid_dnn_4-0-10_bicycle_10_n02835271_18537.png,n02835271_18537.png,0.0,-1.233497,1.3077579,-1.7969387
alexnet_w3_mlp_simclrhn_probe1,1,565,NaN,bear,clock,32-0-10,0565_eid_dnn_32-0-10_clock_10_n04548280_1119.png,n04548280_1119.png,0.0,-2.764984,-1.3103209,-1.0286021
alexnet_w3_mlp_simclrhn_probe1,1,566,NaN,oven,oven,1-0-10,0566_eid_dnn_1-0-10_oven_10_n04111531_687.png,n04111531_687.png,1.0,5.675995,-1.6942878,5.211577
alexnet_w3_mlp_simclrhn_probe1,1,567,NaN,oven,chair,64-0-10,0567_eid_dnn_64-0-10_chair_10_n03376595_3038.png,n03376595_3038.png,0.0,-6.0908737,-0.81049764,-3.7337897
alexnet_w3_mlp_simclrhn_probe1,1,568,NaN,oven,bicycle,16-0-10,0568_eid_dnn_16-0-10_bicycle_10_n02835271_3989.png,n02835271_3989.png,0.0,-3.5172215,-1.1270437,-1.6901109
alexnet_w3_mlp_simclrhn_probe1,1,569,NaN,oven,dog,64-0-10,0569_eid_dnn_64-0-10_dog_10_n02096437_4563.png,n02096437_4563.png,0.0,-2.8166084,-0.62088007,-1.5526145
alexnet_w3_mlp_simclrhn_probe1,1,570,NaN,oven,clock,32-0-10,0570_eid_dnn_32-0-10_clock_10_n02708093_685.png,n02708093_685.png,0.0,-6.797786,-2.395324,-3.113011
alexnet_w3_mlp_simclrhn_probe1,1,571,NaN,oven,boat,32-0-10,0571_eid_dnn_32-0-10_boat_10_n03662601_8360.png,n03662601_8360.png,0.0,-5.517891,-0.13057318,-3.809409
alexnet_w3_mlp_simclrhn_probe1,1,572,NaN,cat,keyboard,8-0-10,0572_eid_dnn_8-0-10_keyboard_10_n03085013_17035.png,n03085013_17035.png,0.0,-3.5919752,-0.8279877,-1.9544344
alexnet_w3_mlp_simclrhn_probe1,1,573,NaN,oven,dog,64-0-10,0573_eid_dnn_64-0-10_dog_10_n02110063_12166.png,n02110063_12166.png,0.0,-3.0493162,-0.5145091,-1.7923794
alexnet_w3_mlp_simclrhn_probe1,1,574,NaN,dog,dog,2-0-10,0574_eid_dnn_2-0-10_dog_10_n02108422_6951.png,n02108422_6951.png,1.0,-0.92330647,-1.6957151,0.54617536
alexnet_w3_mlp_simclrhn_probe1,1,575,NaN,bear,bear,64-0-10,0575_eid_dnn_64-0-10_bear_10_n02134418_912.png,n02134418_912.png,1.0,-1.4474576,-1.6764455,0.16191892
alexnet_w3_mlp_simclrhn_probe1,1,576,NaN,bottle,clock,4-0-10,0576_eid_dnn_4-0-10_clock_10_n02708093_564.png,n02708093_564.png,0.0,-2.0709703,-1.2547888,-0.5771275
alexnet_w3_mlp_simclrhn_probe1,1,577,NaN,oven,car,64-0-10,0577_eid_dnn_64-0-10_car_10_n04285008_11893.png,n04285008_11893.png,0.0,-6.8687997,-0.9718782,-4.1697536
alexnet_w3_mlp_simclrhn_probe1,1,578,NaN,oven,knife,64-0-10,0578_eid_dnn_64-0-10_knife_10_n03041632_20504.png,n03041632_20504.png,0.0,-2.718571,-1.1167755,-1.1326405
alexnet_w3_mlp_simclrhn_probe1,1,579,NaN,bottle,clock,4-0-10,0579_eid_dnn_4-0-10_clock_10_n04548280_4557.png,n04548280_4557.png,0.0,-0.44932082,-0.3484265,-0.071343064
alexnet_w3_mlp_simclrhn_probe1,1,580,NaN,oven,clock,32-0-10,0580_eid_dnn_32-0-10_clock_10_n02708093_3360.png,n02708093_3360.png,0.0,-3.7230692,-2.1275382,-1.1282108
alexnet_w3_mlp_simclrhn_probe1,1,581,NaN,bear,bear,16-0-10,0581_eid_dnn_16-0-10_bear_10_n02134084_617.png,n02134084_617.png,1.0,-0.70383745,-0.8967659,0.13642101
alexnet_w3_mlp_simclrhn_probe1,1,582,NaN,keyboard,dog,1-0-10,0582_eid_dnn_1-0-10_dog_10_n02093991_4081.png,n02093991_4081.png,0.0,-3.9078102,-0.5991145,-2.3396013
alexnet_w3_mlp_simclrhn_probe1,1,583,NaN,bear,elephant,16-0-10,0583_eid_dnn_16-0-10_elephant_10_n02504458_1727.png,n02504458_1727.png,0.0,1.1850744,1.3332486,-0.10477496
alexnet_w3_mlp_simclrhn_probe1,1,584,NaN,bear,clock,32-0-10,0584_eid_dnn_32-0-10_clock_10_n04548280_16295.png,n04548280_16295.png,0.0,-3.5954916,-1.7240076,-1.3233391
alexnet_w3_mlp_simclrhn_probe1,1,585,NaN,bear,boat,4-0-10,0585_eid_dnn_4-0-10_boat_10_n02951358_16217.png,n02951358_16217.png,0.0,-2.7562966,2.494875,-3.713139
alexnet_w3_mlp_simclrhn_probe1,1,586,NaN,cat,airplane,8-0-10,0586_eid_dnn_8-0-10_airplane_10_n02690373_7536.png,n02690373_7536.png,0.0,-3.5734153,-0.74037546,-2.0032616
alexnet_w3_mlp_simclrhn_probe1,1,587,NaN,cat,cat,8-0-10,0587_eid_dnn_8-0-10_cat_10_n02123597_22140.png,n02123597_22140.png,1.0,0.014534106,-0.30314434,0.22463259
alexnet_w3_mlp_simclrhn_probe1,1,588,NaN,oven,bottle,128-0-10,0588_eid_dnn_128-0-10_bottle_10_n04591713_8914.png,n04591713_8914.png,0.0,-2.6790378,-1.7656586,-0.6458566
alexnet_w3_mlp_simclrhn_probe1,1,589,NaN,oven,car,128-0-10,0589_eid_dnn_128-0-10_car_10_n03100240_963.png,n03100240_963.png,0.0,-9.734058,-1.2399571,-6.006237
alexnet_w3_mlp_simclrhn_probe1,1,590,NaN,oven,boat,32-0-10,0590_eid_dnn_32-0-10_boat_10_n02951358_18762.png,n02951358_18762.png,0.0,-2.954815,-1.4582217,-1.0582513
alexnet_w3_mlp_simclrhn_probe1,1,591,NaN,bear,bear,32-0-10,0591_eid_dnn_32-0-10_bear_10_n02134418_2633.png,n02134418_2633.png,1.0,-0.40078583,-0.9679558,0.40104976
alexnet_w3_mlp_simclrhn_probe1,1,592,NaN,oven,airplane,64-0-10,0592_eid_dnn_64-0-10_airplane_10_n02690373_1169.png,n02690373_1169.png,0.0,-6.996243,-1.298137,-4.0291696
alexnet_w3_mlp_simclrhn_probe1,1,593,NaN,bicycle,bicycle,2-0-10,0593_eid_dnn_2-0-10_bicycle_10_n03792782_12704.png,n03792782_12704.png,1.0,0.35926247,-1.9258686,1.6158316
alexnet_w3_mlp_simclrhn_probe1,1,594,NaN,oven,dog,64-0-10,0594_eid_dnn_64-0-10_dog_10_n02088238_2973.png,n02088238_2973.png,0.0,-3.0696461,-1.6932483,-0.9732603
alexnet_w3_mlp_simclrhn_probe1,1,595,NaN,bear,knife,32-0-10,0595_eid_dnn_32-0-10_knife_10_n03041632_41493.png,n03041632_41493.png,0.0,-3.2653794,-0.7351543,-1.7891395
alexnet_w3_mlp_simclrhn_probe1,1,596,NaN,knife,bottle,128-0-10,0596_eid_dnn_128-0-10_bottle_10_n03983396_2959.png,n03983396_2959.png,0.0,-4.012718,-2.7277906,-0.908581
alexnet_w3_mlp_simclrhn_probe1,1,597,NaN,clock,clock,1-0-10,0597_eid_dnn_1-0-10_clock_10_n02708093_2843.png,n02708093_2843.png,1.0,1.5006384,-0.12585613,1.1501054
alexnet_w3_mlp_simclrhn_probe1,1,598,NaN,elephant,oven,8-0-10,0598_eid_dnn_8-0-10_oven_10_n04111531_12952.png,n04111531_12952.png,0.0,-1.356176,0.8042247,-1.5276341
alexnet_w3_mlp_simclrhn_probe1,1,599,NaN,bear,bear,16-0-10,0599_eid_dnn_16-0-10_bear_10_n02134418_2891.png,n02134418_2891.png,1.0,1.2831712,-0.27440205,1.1013706
alexnet_w3_mlp_simclrhn_probe1,1,600,NaN,bear,truck,32-0-10,0600_eid_dnn_32-0-10_truck_10_n03417042_3862.png,n03417042_3862.png,0.0,-6.47147,0.2920711,-4.782546
alexnet_w3_mlp_simclrhn_probe1,1,601,NaN,oven,elephant,16-0-10,0601_eid_dnn_16-0-10_elephant_10_n02504458_2054.png,n02504458_2054.png,0.0,-1.4000688,0.5617147,-1.3871903
alexnet_w3_mlp_simclrhn_probe1,1,602,NaN,airplane,airplane,1-0-10,0602_eid_dnn_1-0-10_airplane_10_n02690373_7355.png,n02690373_7355.png,1.0,4.7305083,0.35204065,3.096044
alexnet_w3_mlp_simclrhn_probe1,1,603,NaN,oven,knife,128-0-10,0603_eid_dnn_128-0-10_knife_10_n03041632_22738.png,n03041632_22738.png,0.0,-4.051397,-2.3205657,-1.2238824
