subj,session,trial,rt,object_response,category,condition,imagename,filename,is_correct,targ_act,max_nontarg_act,decision_margin
alexnet_w1_mlp_simclrhn_probe2,1,1,NaN,bear,oven,16-0-10,0001_eid_dnn_16-0-10_oven_10_n04111531_13542.png,n04111531_13542.png,0.0,-0.49816304,0.5859664,-0.7665953
alexnet_w1_mlp_simclrhn_probe2,1,2,NaN,car,car,4-0-10,0002_eid_dnn_4-0-10_car_10_n03100240_5570.png,n03100240_5570.png,1.0,0.90230685,0.8332894,0.048802722
alexnet_w1_mlp_simclrhn_probe2,1,3,NaN,cat,bird,8-0-10,0003_eid_dnn_8-0-10_bird_10_n01820546_4847.png,n01820546_4847.png,0.0,-1.7815491,0.39601043,-1.5397671
alexnet_w1_mlp_simclrhn_probe2,1,4,NaN,bear,bear,32-0-10,0004_eid_dnn_32-0-10_bear_10_n02133161_15561.png,n02133161_15561.png,1.0,-0.12096048,-0.15790533,0.02612395
alexnet_w1_mlp_simclrhn_probe2,1,5,NaN,oven,bird,64-0-10,0005_eid_dnn_64-0-10_bird_10_n01531178_9584.png,n01531178_9584.png,0.0,-1.3669033,-0.008546025,-0.9605037
alexnet_w1_mlp_simclrhn_probe2,1,6,NaN,bear,bicycle,8-0-10,0006_eid_dnn_8-0-10_bicycle_10_n02835271_18846.png,n02835271_18846.png,0.0,-3.8979356,0.95403475,-3.430861
alexnet_w1_mlp_simclrhn_probe2,1,7,NaN,oven,oven,4-0-10,0007_eid_dnn_4-0-10_oven_10_n04111531_73.png,n04111531_73.png,1.0,0.8152286,0.42133695,0.27852345
alexnet_w1_mlp_simclrhn_probe2,1,8,NaN,bottle,clock,2-0-10,0008_eid_dnn_2-0-10_clock_10_n04548280_6159.png,n04548280_6159.png,0.0,-1.8068916,-0.52547735,-0.90609676
alexnet_w1_mlp_simclrhn_probe2,1,9,NaN,oven,chair,32-0-10,0009_eid_dnn_32-0-10_chair_10_n03376595_9395.png,n03376595_9395.png,0.0,-3.41821,1.0168455,-3.136058
alexnet_w1_mlp_simclrhn_probe2,1,10,NaN,oven,bicycle,64-0-10,0010_eid_dnn_64-0-10_bicycle_10_n02835271_1918.png,n02835271_1918.png,0.0,-0.9138031,-0.34025416,-0.40556034
alexnet_w1_mlp_simclrhn_probe2,1,11,NaN,oven,bicycle,128-0-10,0011_eid_dnn_128-0-10_bicycle_10_n02835271_42320.png,n02835271_42320.png,0.0,-3.392747,-0.05248192,-2.3619242
alexnet_w1_mlp_simclrhn_probe2,1,12,NaN,elephant,elephant,1-0-10,0012_eid_dnn_1-0-10_elephant_10_n02504458_3628.png,n02504458_3628.png,1.0,4.593686,0.6899937,2.7603276
alexnet_w1_mlp_simclrhn_probe2,1,13,NaN,oven,knife,64-0-10,0013_eid_dnn_64-0-10_knife_10_n03041632_86554.png,n03041632_86554.png,0.0,-1.3730599,0.04333569,-1.0015429
alexnet_w1_mlp_simclrhn_probe2,1,14,NaN,bear,cat,8-0-10,0014_eid_dnn_8-0-10_cat_10_n02123394_1726.png,n02123394_1726.png,0.0,-0.43861353,-0.20748103,-0.16343537
alexnet_w1_mlp_simclrhn_probe2,1,15,NaN,bear,cat,32-0-10,0015_eid_dnn_32-0-10_cat_10_n02123597_6721.png,n02123597_6721.png,0.0,-0.3566362,0.06648803,-0.299194
alexnet_w1_mlp_simclrhn_probe2,1,16,NaN,oven,oven,2-0-10,0016_eid_dnn_2-0-10_oven_10_n04111531_21869.png,n04111531_21869.png,1.0,0.5877583,-0.22350745,0.57365155
alexnet_w1_mlp_simclrhn_probe2,1,17,NaN,bear,bear,4-0-10,0017_eid_dnn_4-0-10_bear_10_n02134084_2949.png,n02134084_2949.png,1.0,-0.014475733,-0.61045104,0.42141816
alexnet_w1_mlp_simclrhn_probe2,1,18,NaN,bear,truck,8-0-10,0018_eid_dnn_8-0-10_truck_10_n03417042_18743.png,n03417042_18743.png,0.0,-5.737151,0.1477971,-4.161287
alexnet_w1_mlp_simclrhn_probe2,1,19,NaN,bear,bird,16-0-10,0019_eid_dnn_16-0-10_bird_10_n01616318_4246.png,n01616318_4246.png,0.0,-1.489522,-0.16301018,-0.93798554
alexnet_w1_mlp_simclrhn_probe2,1,20,NaN,bear,bicycle,8-0-10,0020_eid_dnn_8-0-10_bicycle_10_n03792782_66771.png,n03792782_66771.png,0.0,-2.7645388,0.23051776,-2.1178248
alexnet_w1_mlp_simclrhn_probe2,1,21,NaN,keyboard,keyboard,2-0-10,0021_eid_dnn_2-0-10_keyboard_10_n04505470_3531.png,n04505470_3531.png,1.0,3.398908,1.1790675,1.5696644
alexnet_w1_mlp_simclrhn_probe2,1,22,NaN,oven,clock,8-0-10,0022_eid_dnn_8-0-10_clock_10_n04548280_6463.png,n04548280_6463.png,0.0,-1.9777006,0.10771896,-1.4746144
alexnet_w1_mlp_simclrhn_probe2,1,23,NaN,oven,keyboard,16-0-10,0023_eid_dnn_16-0-10_keyboard_10_n04505470_4974.png,n04505470_4974.png,0.0,-4.744463,-0.43889016,-3.0444999
alexnet_w1_mlp_simclrhn_probe2,1,24,NaN,oven,chair,4-0-10,0024_eid_dnn_4-0-10_chair_10_n03376595_360.png,n03376595_360.png,0.0,-1.6032615,0.2464398,-1.3079363
alexnet_w1_mlp_simclrhn_probe2,1,25,NaN,bear,dog,16-0-10,0025_eid_dnn_16-0-10_dog_10_n02097130_2752.png,n02097130_2752.png,0.0,-0.9603175,0.3617068,-0.93481237
alexnet_w1_mlp_simclrhn_probe2,1,26,NaN,oven,bicycle,2-0-10,0026_eid_dnn_2-0-10_bicycle_10_n02835271_3406.png,n02835271_3406.png,0.0,-1.0636878,0.47900409,-1.090848
alexnet_w1_mlp_simclrhn_probe2,1,27,NaN,oven,bottle,16-0-10,0027_eid_dnn_16-0-10_bottle_10_n04560804_11732.png,n04560804_11732.png,0.0,-1.3938562,0.45564103,-1.3077921
alexnet_w1_mlp_simclrhn_probe2,1,28,NaN,oven,bottle,32-0-10,0028_eid_dnn_32-0-10_bottle_10_n04591713_13589.png,n04591713_13589.png,0.0,-2.4717755,0.41085503,-2.0383277
alexnet_w1_mlp_simclrhn_probe2,1,29,NaN,cat,cat,2-0-10,0029_eid_dnn_2-0-10_cat_10_n02123045_4009.png,n02123045_4009.png,1.0,3.2172554,-0.12172923,2.3610187
alexnet_w1_mlp_simclrhn_probe2,1,30,NaN,cat,chair,8-0-10,0030_eid_dnn_8-0-10_chair_10_n02791124_1704.png,n02791124_1704.png,0.0,-3.1570818,-0.14389227,-2.1306467
alexnet_w1_mlp_simclrhn_probe2,1,31,NaN,oven,bicycle,128-0-10,0031_eid_dnn_128-0-10_bicycle_10_n03792782_28395.png,n03792782_28395.png,0.0,-1.2840574,-0.2565569,-0.7265526
alexnet_w1_mlp_simclrhn_probe2,1,32,NaN,bear,truck,16-0-10,0032_eid_dnn_16-0-10_truck_10_n03417042_4288.png,n03417042_4288.png,0.0,-4.8820896,0.4551143,-3.7739732
alexnet_w1_mlp_simclrhn_probe2,1,33,NaN,keyboard,keyboard,1-0-10,0033_eid_dnn_1-0-10_keyboard_10_n04505470_3371.png,n04505470_3371.png,1.0,3.4808767,1.3802686,1.4853543
alexnet_w1_mlp_simclrhn_probe2,1,34,NaN,cat,cat,1-0-10,0034_eid_dnn_1-0-10_cat_10_n02124075_13436.png,n02124075_13436.png,1.0,2.1052375,-0.3663429,1.7476714
alexnet_w1_mlp_simclrhn_probe2,1,35,NaN,oven,dog,32-0-10,0035_eid_dnn_32-0-10_dog_10_n02097209_8270.png,n02097209_8270.png,0.0,-1.5909598,0.46645397,-1.4548113
alexnet_w1_mlp_simclrhn_probe2,1,36,NaN,oven,clock,128-0-10,0036_eid_dnn_128-0-10_clock_10_n04548280_7795.png,n04548280_7795.png,0.0,-3.2296522,-0.4634082,-1.9560299
alexnet_w1_mlp_simclrhn_probe2,1,37,NaN,oven,car,32-0-10,0037_eid_dnn_32-0-10_car_10_n03100240_21737.png,n03100240_21737.png,0.0,-3.4445808,0.11093859,-2.5141318
alexnet_w1_mlp_simclrhn_probe2,1,38,NaN,oven,clock,128-0-10,0038_eid_dnn_128-0-10_clock_10_n02708093_1862.png,n02708093_1862.png,0.0,-2.2959278,-0.31758034,-1.3989029
alexnet_w1_mlp_simclrhn_probe2,1,39,NaN,bird,bicycle,64-0-10,0039_eid_dnn_64-0-10_bicycle_10_n03792782_9412.png,n03792782_9412.png,0.0,-0.70371914,-0.40080246,-0.21419443
alexnet_w1_mlp_simclrhn_probe2,1,40,NaN,bear,bear,32-0-10,0040_eid_dnn_32-0-10_bear_10_n02134418_163.png,n02134418_163.png,1.0,0.0748802,-0.24473524,0.22600223
alexnet_w1_mlp_simclrhn_probe2,1,41,NaN,bear,keyboard,16-0-10,0041_eid_dnn_16-0-10_keyboard_10_n03085013_25675.png,n03085013_25675.png,0.0,-1.4321364,-0.04511872,-0.98076963
alexnet_w1_mlp_simclrhn_probe2,1,42,NaN,oven,truck,2-0-10,0042_eid_dnn_2-0-10_truck_10_n03417042_1716.png,n03417042_1716.png,0.0,-1.1273146,-0.072407104,-0.7459322
alexnet_w1_mlp_simclrhn_probe2,1,43,NaN,oven,keyboard,128-0-10,0043_eid_dnn_128-0-10_keyboard_10_n03085013_18854.png,n03085013_18854.png,0.0,-3.1671433,-0.6476646,-1.7815406
alexnet_w1_mlp_simclrhn_probe2,1,44,NaN,oven,bottle,32-0-10,0044_eid_dnn_32-0-10_bottle_10_n04591713_4865.png,n04591713_4865.png,0.0,-2.4144824,0.6069002,-2.13644
alexnet_w1_mlp_simclrhn_probe2,1,45,NaN,bear,bicycle,32-0-10,0045_eid_dnn_32-0-10_bicycle_10_n03792782_693.png,n03792782_693.png,0.0,-1.7632093,0.22918536,-1.4088358
alexnet_w1_mlp_simclrhn_probe2,1,46,NaN,dog,bottle,1-0-10,0046_eid_dnn_1-0-10_bottle_10_n04557648_264.png,n04557648_264.png,0.0,-2.5206077,-0.3293113,-1.5494806
alexnet_w1_mlp_simclrhn_probe2,1,47,NaN,knife,knife,2-0-10,0047_eid_dnn_2-0-10_knife_10_n03041632_25512.png,n03041632_25512.png,1.0,-0.33109128,-0.521163,0.134401
alexnet_w1_mlp_simclrhn_probe2,1,48,NaN,bear,boat,16-0-10,0048_eid_dnn_16-0-10_boat_10_n03344393_2381.png,n03344393_2381.png,0.0,-1.0187517,0.18060122,-0.8480706
alexnet_w1_mlp_simclrhn_probe2,1,49,NaN,oven,dog,128-0-10,0049_eid_dnn_128-0-10_dog_10_n02110627_17670.png,n02110627_17670.png,0.0,-3.1680958,-1.3242733,-1.3037794
alexnet_w1_mlp_simclrhn_probe2,1,50,NaN,oven,bear,64-0-10,0050_eid_dnn_64-0-10_bear_10_n02133161_15981.png,n02133161_15981.png,0.0,-2.9769769,0.26998314,-2.2959473
alexnet_w1_mlp_simclrhn_probe2,1,51,NaN,bear,elephant,16-0-10,0051_eid_dnn_16-0-10_elephant_10_n02504458_3570.png,n02504458_3570.png,0.0,0.028157592,0.58824766,-0.39604348
alexnet_w1_mlp_simclrhn_probe2,1,52,NaN,bottle,truck,4-0-10,0052_eid_dnn_4-0-10_truck_10_n03417042_6241.png,n03417042_6241.png,0.0,-1.3130264,0.8312584,-1.5162383
alexnet_w1_mlp_simclrhn_probe2,1,53,NaN,bear,bird,8-0-10,0053_eid_dnn_8-0-10_bird_10_n02025239_17670.png,n02025239_17670.png,0.0,-0.82375103,0.106622234,-0.6578733
alexnet_w1_mlp_simclrhn_probe2,1,54,NaN,bear,dog,16-0-10,0054_eid_dnn_16-0-10_dog_10_n02106030_19249.png,n02106030_19249.png,0.0,-0.8142683,0.006948487,-0.58068794
alexnet_w1_mlp_simclrhn_probe2,1,55,NaN,bear,keyboard,32-0-10,0055_eid_dnn_32-0-10_keyboard_10_n04505470_2326.png,n04505470_2326.png,0.0,-2.9965036,-0.052142173,-2.081978
alexnet_w1_mlp_simclrhn_probe2,1,56,NaN,bear,dog,16-0-10,0056_eid_dnn_16-0-10_dog_10_n02107142_9379.png,n02107142_9379.png,0.0,-0.7910506,0.28621697,-0.76174325
alexnet_w1_mlp_simclrhn_probe2,1,57,NaN,bear,cat,64-0-10,0057_eid_dnn_64-0-10_cat_10_n02123394_1828.png,n02123394_1828.png,0.0,-1.1683593,-0.5204239,-0.4581595
alexnet_w1_mlp_simclrhn_probe2,1,58,NaN,oven,car,32-0-10,0058_eid_dnn_32-0-10_car_10_n03100240_4605.png,n03100240_4605.png,0.0,-6.0203686,0.81136143,-4.8307624
alexnet_w1_mlp_simclrhn_probe2,1,59,NaN,oven,bicycle,4-0-10,0059_eid_dnn_4-0-10_bicycle_10_n03792782_6765.png,n03792782_6765.png,0.0,-0.787353,0.37703028,-0.82334334
alexnet_w1_mlp_simclrhn_probe2,1,60,NaN,bear,boat,8-0-10,0060_eid_dnn_8-0-10_boat_10_n03344393_8455.png,n03344393_8455.png,0.0,-1.767245,-0.18792278,-1.1167495
alexnet_w1_mlp_simclrhn_probe2,1,61,NaN,oven,oven,16-0-10,0061_eid_dnn_16-0-10_oven_10_n04111531_8603.png,n04111531_8603.png,1.0,0.77859116,-0.009750962,0.55744207
alexnet_w1_mlp_simclrhn_probe2,1,62,NaN,bird,bird,2-0-10,0062_eid_dnn_2-0-10_bird_10_n02051845_2574.png,n02051845_2574.png,1.0,0.9944646,-0.699265,1.1976477
alexnet_w1_mlp_simclrhn_probe2,1,63,NaN,boat,boat,4-0-10,0063_eid_dnn_4-0-10_boat_10_n04612504_15875.png,n04612504_15875.png,1.0,1.3205097,0.33138233,0.69941866
alexnet_w1_mlp_simclrhn_probe2,1,64,NaN,oven,bottle,4-0-10,0064_eid_dnn_4-0-10_bottle_10_n03983396_7337.png,n03983396_7337.png,0.0,-0.44924143,-0.20835632,-0.1703315
alexnet_w1_mlp_simclrhn_probe2,1,65,NaN,cat,clock,8-0-10,0065_eid_dnn_8-0-10_clock_10_n02708093_6822.png,n02708093_6822.png,0.0,-3.5184906,0.5109382,-2.8492365
alexnet_w1_mlp_simclrhn_probe2,1,66,NaN,airplane,truck,2-0-10,0066_eid_dnn_2-0-10_truck_10_n04467665_15994.png,n04467665_15994.png,0.0,-0.38452297,0.3165076,-0.49570352
alexnet_w1_mlp_simclrhn_probe2,1,67,NaN,oven,cat,128-0-10,0067_eid_dnn_128-0-10_cat_10_n02123597_6291.png,n02123597_6291.png,0.0,-1.3090137,-0.5226802,-0.55602175
alexnet_w1_mlp_simclrhn_probe2,1,68,NaN,cat,bird,8-0-10,0068_eid_dnn_8-0-10_bird_10_n01817953_1734.png,n01817953_1734.png,0.0,-3.1248524,0.3160284,-2.4330702
alexnet_w1_mlp_simclrhn_probe2,1,69,NaN,oven,elephant,32-0-10,0069_eid_dnn_32-0-10_elephant_10_n02504458_6880.png,n02504458_6880.png,0.0,-0.6595933,0.5320246,-0.8426012
alexnet_w1_mlp_simclrhn_probe2,1,70,NaN,oven,cat,16-0-10,0070_eid_dnn_16-0-10_cat_10_n02123597_13197.png,n02123597_13197.png,0.0,-0.16858135,0.04064385,-0.14794457
alexnet_w1_mlp_simclrhn_probe2,1,71,NaN,bear,bicycle,64-0-10,0071_eid_dnn_64-0-10_bicycle_10_n03792782_973.png,n03792782_973.png,0.0,-1.1874614,-0.31105196,-0.61971503
alexnet_w1_mlp_simclrhn_probe2,1,72,NaN,cat,cat,2-0-10,0072_eid_dnn_2-0-10_cat_10_n02124075_8310.png,n02124075_8310.png,1.0,2.2144427,-0.53573596,1.9446701
alexnet_w1_mlp_simclrhn_probe2,1,73,NaN,oven,oven,32-0-10,0073_eid_dnn_32-0-10_oven_10_n04111531_5168.png,n04111531_5168.png,1.0,0.10034427,-0.33608383,0.30860126
alexnet_w1_mlp_simclrhn_probe2,1,74,NaN,airplane,airplane,1-0-10,0074_eid_dnn_1-0-10_airplane_10_n02690373_4893.png,n02690373_4893.png,1.0,4.0027905,-0.1816617,2.9588544
alexnet_w1_mlp_simclrhn_probe2,1,75,NaN,dog,dog,1-0-10,0075_eid_dnn_1-0-10_dog_10_n02086240_3614.png,n02086240_3614.png,1.0,0.16746816,-0.80875427,0.6902935
alexnet_w1_mlp_simclrhn_probe2,1,76,NaN,oven,oven,16-0-10,0076_eid_dnn_16-0-10_oven_10_n04111531_2937.png,n04111531_2937.png,1.0,0.4963174,-0.38745713,0.624923
alexnet_w1_mlp_simclrhn_probe2,1,77,NaN,airplane,clock,1-0-10,0077_eid_dnn_1-0-10_clock_10_n03196217_2022.png,n03196217_2022.png,0.0,-0.17459,0.39352626,-0.40171885
alexnet_w1_mlp_simclrhn_probe2,1,78,NaN,oven,bottle,64-0-10,0078_eid_dnn_64-0-10_bottle_10_n04591713_2732.png,n04591713_2732.png,0.0,-1.7691784,-0.36249396,-0.9946761
alexnet_w1_mlp_simclrhn_probe2,1,79,NaN,car,car,2-0-10,0079_eid_dnn_2-0-10_car_10_n03100240_8794.png,n03100240_8794.png,1.0,2.4376419,1.6273007,0.5729977
alexnet_w1_mlp_simclrhn_probe2,1,80,NaN,oven,airplane,16-0-10,0080_eid_dnn_16-0-10_airplane_10_n02690373_3640.png,n02690373_3640.png,0.0,-1.651581,0.2706752,-1.3592404
alexnet_w1_mlp_simclrhn_probe2,1,81,NaN,oven,bicycle,64-0-10,0081_eid_dnn_64-0-10_bicycle_10_n03792782_41097.png,n03792782_41097.png,0.0,-1.4873161,-0.106098,-0.97666866
alexnet_w1_mlp_simclrhn_probe2,1,82,NaN,bear,dog,64-0-10,0082_eid_dnn_64-0-10_dog_10_n02090721_6770.png,n02090721_6770.png,0.0,-1.0675961,-0.3363609,-0.51706135
alexnet_w1_mlp_simclrhn_probe2,1,83,NaN,bear,cat,16-0-10,0083_eid_dnn_16-0-10_cat_10_n02123597_28968.png,n02123597_28968.png,0.0,-0.30531743,-0.027661718,-0.19633225
alexnet_w1_mlp_simclrhn_probe2,1,84,NaN,elephant,elephant,1-0-10,0084_eid_dnn_1-0-10_elephant_10_n02504013_5894.png,n02504013_5894.png,1.0,7.7576494,1.8652488,4.1665564
alexnet_w1_mlp_simclrhn_probe2,1,85,NaN,bear,oven,32-0-10,0085_eid_dnn_32-0-10_oven_10_n04111531_9314.png,n04111531_9314.png,0.0,-0.14789125,-0.10478112,-0.030483468
alexnet_w1_mlp_simclrhn_probe2,1,86,NaN,elephant,elephant,1-0-10,0086_eid_dnn_1-0-10_elephant_10_n02504458_12074.png,n02504458_12074.png,1.0,2.355836,0.46231228,1.3389235
alexnet_w1_mlp_simclrhn_probe2,1,87,NaN,boat,boat,4-0-10,0087_eid_dnn_4-0-10_boat_10_n03344393_3773.png,n03344393_3773.png,1.0,0.64774424,0.18653543,0.3261239
alexnet_w1_mlp_simclrhn_probe2,1,88,NaN,oven,truck,128-0-10,0088_eid_dnn_128-0-10_truck_10_n04467665_80153.png,n04467665_80153.png,0.0,-3.0365815,-0.3166044,-1.9233143
alexnet_w1_mlp_simclrhn_probe2,1,89,NaN,oven,chair,128-0-10,0089_eid_dnn_128-0-10_chair_10_n04099969_20604.png,n04099969_20604.png,0.0,-1.719872,-0.14996102,-1.1100948
alexnet_w1_mlp_simclrhn_probe2,1,90,NaN,oven,keyboard,32-0-10,0090_eid_dnn_32-0-10_keyboard_10_n03085013_23625.png,n03085013_23625.png,0.0,-2.0743277,0.37631756,-1.7328678
alexnet_w1_mlp_simclrhn_probe2,1,91,NaN,oven,truck,64-0-10,0091_eid_dnn_64-0-10_truck_10_n03796401_1458.png,n03796401_1458.png,0.0,-4.44731,-0.29151487,-2.938591
alexnet_w1_mlp_simclrhn_probe2,1,92,NaN,oven,car,4-0-10,0092_eid_dnn_4-0-10_car_10_n03100240_18711.png,n03100240_18711.png,0.0,-1.8412808,0.19448441,-1.4395034
alexnet_w1_mlp_simclrhn_probe2,1,93,NaN,oven,truck,128-0-10,0093_eid_dnn_128-0-10_truck_10_n03796401_2988.png,n03796401_2988.png,0.0,-4.8481894,-0.44395712,-3.1142623
alexnet_w1_mlp_simclrhn_probe2,1,94,NaN,truck,truck,2-0-10,0094_eid_dnn_2-0-10_truck_10_n03417042_7096.png,n03417042_7096.png,1.0,4.171294,1.6512604,1.7819331
alexnet_w1_mlp_simclrhn_probe2,1,95,NaN,cat,dog,8-0-10,0095_eid_dnn_8-0-10_dog_10_n02105855_9345.png,n02105855_9345.png,0.0,-0.66510683,0.5475035,-0.85744494
alexnet_w1_mlp_simclrhn_probe2,1,96,NaN,bear,bird,32-0-10,0096_eid_dnn_32-0-10_bird_10_n01796340_8342.png,n01796340_8342.png,0.0,-0.5338325,0.0032598078,-0.37978163
alexnet_w1_mlp_simclrhn_probe2,1,97,NaN,cat,airplane,8-0-10,0097_eid_dnn_8-0-10_airplane_10_n02690373_7293.png,n02690373_7293.png,0.0,-1.964986,0.14405566,-1.4913177
alexnet_w1_mlp_simclrhn_probe2,1,98,NaN,oven,car,64-0-10,0098_eid_dnn_64-0-10_car_10_n04285008_9811.png,n04285008_9811.png,0.0,-5.165816,0.012803689,-3.6618369
alexnet_w1_mlp_simclrhn_probe2,1,99,NaN,bear,knife,8-0-10,0099_eid_dnn_8-0-10_knife_10_n03041632_86783.png,n03041632_86783.png,0.0,-2.7768312,0.58275545,-2.3755865
alexnet_w1_mlp_simclrhn_probe2,1,100,NaN,oven,oven,16-0-10,0100_eid_dnn_16-0-10_oven_10_n04111531_9867.png,n04111531_9867.png,1.0,0.3575899,0.25075406,0.07554435
alexnet_w1_mlp_simclrhn_probe2,1,101,NaN,oven,truck,128-0-10,0101_eid_dnn_128-0-10_truck_10_n04467665_22573.png,n04467665_22573.png,0.0,-6.2878866,-0.5766326,-4.0384665
alexnet_w1_mlp_simclrhn_probe2,1,102,NaN,oven,car,128-0-10,0102_eid_dnn_128-0-10_car_10_n02814533_23512.png,n02814533_23512.png,0.0,-3.9746153,-0.577355,-2.4022257
alexnet_w1_mlp_simclrhn_probe2,1,103,NaN,oven,bicycle,16-0-10,0103_eid_dnn_16-0-10_bicycle_10_n03792782_4895.png,n03792782_4895.png,0.0,-3.374706,0.1082128,-2.4627955
alexnet_w1_mlp_simclrhn_probe2,1,104,NaN,keyboard,keyboard,2-0-10,0104_eid_dnn_2-0-10_keyboard_10_n03085013_23554.png,n03085013_23554.png,1.0,0.5099622,-0.032602675,0.38365132
alexnet_w1_mlp_simclrhn_probe2,1,105,NaN,bear,bear,1-0-10,0105_eid_dnn_1-0-10_bear_10_n02134084_8601.png,n02134084_8601.png,1.0,0.33443755,-0.09532413,0.3038874
alexnet_w1_mlp_simclrhn_probe2,1,106,NaN,bear,bicycle,8-0-10,0106_eid_dnn_8-0-10_bicycle_10_n03792782_126.png,n03792782_126.png,0.0,-4.1487894,0.1862311,-3.0653224
alexnet_w1_mlp_simclrhn_probe2,1,107,NaN,chair,chair,1-0-10,0107_eid_dnn_1-0-10_chair_10_n04099969_3583.png,n04099969_3583.png,1.0,1.8257874,1.2752666,0.38927698
alexnet_w1_mlp_simclrhn_probe2,1,108,NaN,cat,bicycle,8-0-10,0108_eid_dnn_8-0-10_bicycle_10_n02835271_976.png,n02835271_976.png,0.0,-4.9770255,0.45063034,-3.837932
alexnet_w1_mlp_simclrhn_probe2,1,109,NaN,oven,oven,32-0-10,0109_eid_dnn_32-0-10_oven_10_n04111531_10313.png,n04111531_10313.png,1.0,0.7482293,0.0112884715,0.5210959
alexnet_w1_mlp_simclrhn_probe2,1,110,NaN,oven,oven,1-0-10,0110_eid_dnn_1-0-10_oven_10_n04111531_8984.png,n04111531_8984.png,1.0,5.452664,1.2625865,2.9628322
alexnet_w1_mlp_simclrhn_probe2,1,111,NaN,elephant,elephant,8-0-10,0111_eid_dnn_8-0-10_elephant_10_n02504013_3181.png,n02504013_3181.png,1.0,0.9084928,0.88994205,0.013117364
alexnet_w1_mlp_simclrhn_probe2,1,112,NaN,oven,keyboard,64-0-10,0112_eid_dnn_64-0-10_keyboard_10_n03085013_21490.png,n03085013_21490.png,0.0,-2.646482,-0.35460436,-1.6206024
alexnet_w1_mlp_simclrhn_probe2,1,113,NaN,knife,bird,4-0-10,0113_eid_dnn_4-0-10_bird_10_n01614925_2708.png,n01614925_2708.png,0.0,-0.67338467,0.58925724,-0.8928227
alexnet_w1_mlp_simclrhn_probe2,1,114,NaN,oven,bottle,16-0-10,0114_eid_dnn_16-0-10_bottle_10_n03983396_3109.png,n03983396_3109.png,0.0,-2.3017056,-0.19692129,-1.4883072
alexnet_w1_mlp_simclrhn_probe2,1,115,NaN,oven,bear,128-0-10,0115_eid_dnn_128-0-10_bear_10_n02134418_377.png,n02134418_377.png,0.0,-1.5214475,-0.4513486,-0.7566742
alexnet_w1_mlp_simclrhn_probe2,1,116,NaN,oven,knife,16-0-10,0116_eid_dnn_16-0-10_knife_10_n03041632_7680.png,n03041632_7680.png,0.0,-2.5586696,0.24432565,-1.9820169
alexnet_w1_mlp_simclrhn_probe2,1,117,NaN,elephant,truck,4-0-10,0117_eid_dnn_4-0-10_truck_10_n03417042_3807.png,n03417042_3807.png,0.0,-0.973593,0.3521937,-0.93747276
alexnet_w1_mlp_simclrhn_probe2,1,118,NaN,oven,elephant,128-0-10,0118_eid_dnn_128-0-10_elephant_10_n02504013_6501.png,n02504013_6501.png,0.0,-1.5700049,0.11383703,-1.1906561
alexnet_w1_mlp_simclrhn_probe2,1,119,NaN,oven,bicycle,32-0-10,0119_eid_dnn_32-0-10_bicycle_10_n03792782_5517.png,n03792782_5517.png,0.0,-1.5414943,-0.34896165,-0.84324783
alexnet_w1_mlp_simclrhn_probe2,1,120,NaN,oven,bottle,128-0-10,0120_eid_dnn_128-0-10_bottle_10_n02823428_5791.png,n02823428_5791.png,0.0,-2.5069368,-0.26445183,-1.5856764
alexnet_w1_mlp_simclrhn_probe2,1,121,NaN,oven,car,128-0-10,0121_eid_dnn_128-0-10_car_10_n04285008_10144.png,n04285008_10144.png,0.0,-5.1206098,-0.3659352,-3.3620627
alexnet_w1_mlp_simclrhn_probe2,1,122,NaN,cat,cat,4-0-10,0122_eid_dnn_4-0-10_cat_10_n02123159_5764.png,n02123159_5764.png,1.0,3.53005,-0.2568683,2.6777558
alexnet_w1_mlp_simclrhn_probe2,1,123,NaN,bear,dog,16-0-10,0123_eid_dnn_16-0-10_dog_10_n02085936_4491.png,n02085936_4491.png,0.0,-0.3551898,0.13127153,-0.34398013
alexnet_w1_mlp_simclrhn_probe2,1,124,NaN,oven,bicycle,32-0-10,0124_eid_dnn_32-0-10_bicycle_10_n03792782_6159.png,n03792782_6159.png,0.0,-1.6590421,0.31417465,-1.395275
alexnet_w1_mlp_simclrhn_probe2,1,125,NaN,clock,clock,4-0-10,0125_eid_dnn_4-0-10_clock_10_n04548280_2404.png,n04548280_2404.png,1.0,0.8319238,-0.4805216,0.9280391
alexnet_w1_mlp_simclrhn_probe2,1,126,NaN,oven,bottle,64-0-10,0126_eid_dnn_64-0-10_bottle_10_n04591713_360.png,n04591713_360.png,0.0,-2.7447846,0.84829307,-2.5406897
alexnet_w1_mlp_simclrhn_probe2,1,127,NaN,oven,airplane,16-0-10,0127_eid_dnn_16-0-10_airplane_10_n02690373_1909.png,n02690373_1909.png,0.0,-2.186809,0.08431959,-1.6059304
alexnet_w1_mlp_simclrhn_probe2,1,128,NaN,bear,bear,2-0-10,0128_eid_dnn_2-0-10_bear_10_n02133161_9724.png,n02133161_9724.png,1.0,0.90577435,0.008886546,0.63419545
alexnet_w1_mlp_simclrhn_probe2,1,129,NaN,car,car,2-0-10,0129_eid_dnn_2-0-10_car_10_n04285008_5897.png,n04285008_5897.png,1.0,7.123202,3.6144006,2.4810972
alexnet_w1_mlp_simclrhn_probe2,1,130,NaN,bicycle,bicycle,1-0-10,0130_eid_dnn_1-0-10_bicycle_10_n02835271_9807.png,n02835271_9807.png,1.0,3.5371015,-1.6318514,3.6550016
alexnet_w1_mlp_simclrhn_probe2,1,131,NaN,knife,keyboard,1-0-10,0131_eid_dnn_1-0-10_keyboard_10_n03085013_23286.png,n03085013_23286.png,0.0,-2.674323,0.3549126,-2.141993
alexnet_w1_mlp_simclrhn_probe2,1,132,NaN,oven,clock,2-0-10,0132_eid_dnn_2-0-10_clock_10_n02708093_772.png,n02708093_772.png,0.0,-1.5024142,0.65647435,-1.5265648
alexnet_w1_mlp_simclrhn_probe2,1,133,NaN,keyboard,clock,4-0-10,0133_eid_dnn_4-0-10_clock_10_n03196217_820.png,n03196217_820.png,0.0,-0.6132719,1.2000264,-1.2821954
alexnet_w1_mlp_simclrhn_probe2,1,134,NaN,oven,dog,32-0-10,0134_eid_dnn_32-0-10_dog_10_n02093754_6351.png,n02093754_6351.png,0.0,-0.88455224,-0.0031609535,-0.6232378
alexnet_w1_mlp_simclrhn_probe2,1,135,NaN,cat,truck,8-0-10,0135_eid_dnn_8-0-10_truck_10_n03417042_27093.png,n03417042_27093.png,0.0,-5.6858325,0.453904,-4.3414493
alexnet_w1_mlp_simclrhn_probe2,1,136,NaN,bear,bicycle,4-0-10,0136_eid_dnn_4-0-10_bicycle_10_n03792782_30530.png,n03792782_30530.png,0.0,-3.718623,1.1463325,-3.440043
alexnet_w1_mlp_simclrhn_probe2,1,137,NaN,bottle,bottle,4-0-10,0137_eid_dnn_4-0-10_bottle_10_n03937543_5215.png,n03937543_5215.png,1.0,0.26258406,-0.054979328,0.22455123
alexnet_w1_mlp_simclrhn_probe2,1,138,NaN,bicycle,boat,2-0-10,0138_eid_dnn_2-0-10_boat_10_n02951358_9933.png,n02951358_9933.png,0.0,-1.4386957,-0.30473906,-0.80182844
alexnet_w1_mlp_simclrhn_probe2,1,139,NaN,dog,dog,4-0-10,0139_eid_dnn_4-0-10_dog_10_n02086910_8694.png,n02086910_8694.png,1.0,-0.1784171,-0.19382603,0.010895762
alexnet_w1_mlp_simclrhn_probe2,1,140,NaN,cat,knife,8-0-10,0140_eid_dnn_8-0-10_knife_10_n03041632_3504.png,n03041632_3504.png,0.0,-0.92253923,-0.060299594,-0.6096955
alexnet_w1_mlp_simclrhn_probe2,1,141,NaN,oven,knife,128-0-10,0141_eid_dnn_128-0-10_knife_10_n03041632_15754.png,n03041632_15754.png,0.0,-1.5270293,-0.27807876,-0.8831414
alexnet_w1_mlp_simclrhn_probe2,1,142,NaN,airplane,truck,8-0-10,0142_eid_dnn_8-0-10_truck_10_n04467665_45306.png,n04467665_45306.png,0.0,-1.0993006,0.14820027,-0.8821164
alexnet_w1_mlp_simclrhn_probe2,1,143,NaN,elephant,elephant,1-0-10,0143_eid_dnn_1-0-10_elephant_10_n02504013_5351.png,n02504013_5351.png,1.0,1.123523,0.030824453,0.7726546
alexnet_w1_mlp_simclrhn_probe2,1,144,NaN,oven,bottle,2-0-10,0144_eid_dnn_2-0-10_bottle_10_n03937543_7763.png,n03937543_7763.png,0.0,-1.4352963,0.09768308,-1.0839801
alexnet_w1_mlp_simclrhn_probe2,1,145,NaN,bear,bird,32-0-10,0145_eid_dnn_32-0-10_bird_10_n01843383_91.png,n01843383_91.png,0.0,-0.6330808,-0.50456876,-0.09087173
alexnet_w1_mlp_simclrhn_probe2,1,146,NaN,bottle,clock,4-0-10,0146_eid_dnn_4-0-10_clock_10_n04548280_28.png,n04548280_28.png,0.0,-0.35062838,-0.029715737,-0.2269195
alexnet_w1_mlp_simclrhn_probe2,1,147,NaN,oven,knife,16-0-10,0147_eid_dnn_16-0-10_knife_10_n03041632_102828.png,n03041632_102828.png,0.0,-2.1790843,0.5107513,-1.902001
alexnet_w1_mlp_simclrhn_probe2,1,148,NaN,oven,car,128-0-10,0148_eid_dnn_128-0-10_car_10_n03100240_7520.png,n03100240_7520.png,0.0,-5.0495677,-0.37609974,-3.304641
alexnet_w1_mlp_simclrhn_probe2,1,149,NaN,oven,knife,16-0-10,0149_eid_dnn_16-0-10_knife_10_n03041632_53874.png,n03041632_53874.png,0.0,-1.6272571,0.12421067,-1.2384748
alexnet_w1_mlp_simclrhn_probe2,1,150,NaN,bear,boat,16-0-10,0150_eid_dnn_16-0-10_boat_10_n04273569_3896.png,n04273569_3896.png,0.0,-1.6547832,-0.21059653,-1.0211942
alexnet_w1_mlp_simclrhn_probe2,1,151,NaN,airplane,airplane,2-0-10,0151_eid_dnn_2-0-10_airplane_10_n02690373_6002.png,n02690373_6002.png,1.0,4.159556,1.8460491,1.6358964
alexnet_w1_mlp_simclrhn_probe2,1,152,NaN,oven,chair,8-0-10,0152_eid_dnn_8-0-10_chair_10_n04099969_7191.png,n04099969_7191.png,0.0,-3.193121,-0.07319121,-2.2061236
alexnet_w1_mlp_simclrhn_probe2,1,153,NaN,oven,dog,32-0-10,0153_eid_dnn_32-0-10_dog_10_n02101388_4808.png,n02101388_4808.png,0.0,-1.3088467,0.16956162,-1.0453926
alexnet_w1_mlp_simclrhn_probe2,1,154,NaN,cat,keyboard,16-0-10,0154_eid_dnn_16-0-10_keyboard_10_n03085013_24538.png,n03085013_24538.png,0.0,-3.4638205,0.33636093,-2.687134
alexnet_w1_mlp_simclrhn_probe2,1,155,NaN,oven,knife,128-0-10,0155_eid_dnn_128-0-10_knife_10_n03041632_85488.png,n03041632_85488.png,0.0,-2.5977244,-0.71698755,-1.3298818
alexnet_w1_mlp_simclrhn_probe2,1,156,NaN,cat,car,4-0-10,0156_eid_dnn_4-0-10_car_10_n04285008_7630.png,n04285008_7630.png,0.0,-6.662819,-0.5719263,-4.3069115
alexnet_w1_mlp_simclrhn_probe2,1,157,NaN,bear,airplane,8-0-10,0157_eid_dnn_8-0-10_airplane_10_n02690373_2941.png,n02690373_2941.png,0.0,-3.0806828,0.31193647,-2.3989441
alexnet_w1_mlp_simclrhn_probe2,1,158,NaN,oven,bird,64-0-10,0158_eid_dnn_64-0-10_bird_10_n01514859_6021.png,n01514859_6021.png,0.0,-1.0149845,-0.49939516,-0.36457673
alexnet_w1_mlp_simclrhn_probe2,1,159,NaN,oven,clock,64-0-10,0159_eid_dnn_64-0-10_clock_10_n04548280_3293.png,n04548280_3293.png,0.0,-2.6050684,0.32560325,-2.0722978
alexnet_w1_mlp_simclrhn_probe2,1,160,NaN,oven,oven,4-0-10,0160_eid_dnn_4-0-10_oven_10_n04111531_4998.png,n04111531_4998.png,1.0,0.03535144,-0.18114746,0.15308784
alexnet_w1_mlp_simclrhn_probe2,1,161,NaN,oven,bird,128-0-10,0161_eid_dnn_128-0-10_bird_10_n02028035_32993.png,n02028035_32993.png,0.0,-1.3617156,-0.49817553,-0.610615
alexnet_w1_mlp_simclrhn_probe2,1,162,NaN,bird,bird,2-0-10,0162_eid_dnn_2-0-10_bird_10_n01843383_7800.png,n01843383_7800.png,1.0,-1.1906681,-1.5222731,0.23448011
alexnet_w1_mlp_simclrhn_probe2,1,163,NaN,oven,bear,64-0-10,0163_eid_dnn_64-0-10_bear_10_n02132136_15174.png,n02132136_15174.png,0.0,-0.90760064,-0.11324698,-0.5616929
alexnet_w1_mlp_simclrhn_probe2,1,164,NaN,oven,oven,4-0-10,0164_eid_dnn_4-0-10_oven_10_n04111531_7266.png,n04111531_7266.png,1.0,0.9418549,-1.0470704,1.4063826
alexnet_w1_mlp_simclrhn_probe2,1,165,NaN,oven,cat,128-0-10,0165_eid_dnn_128-0-10_cat_10_n02124075_6464.png,n02124075_6464.png,0.0,-1.7492901,0.09899168,-1.3069326
alexnet_w1_mlp_simclrhn_probe2,1,166,NaN,bear,bicycle,16-0-10,0166_eid_dnn_16-0-10_bicycle_10_n02835271_4667.png,n02835271_4667.png,0.0,-2.6289287,0.2206167,-2.0149329
alexnet_w1_mlp_simclrhn_probe2,1,167,NaN,oven,chair,32-0-10,0167_eid_dnn_32-0-10_chair_10_n04099969_2532.png,n04099969_2532.png,0.0,-2.927256,-0.18424343,-1.9396029
alexnet_w1_mlp_simclrhn_probe2,1,168,NaN,bottle,bottle,4-0-10,0168_eid_dnn_4-0-10_bottle_10_n04560804_15683.png,n04560804_15683.png,1.0,0.97325796,0.2671634,0.49928427
alexnet_w1_mlp_simclrhn_probe2,1,169,NaN,cat,chair,8-0-10,0169_eid_dnn_8-0-10_chair_10_n04099969_6825.png,n04099969_6825.png,0.0,-3.692848,0.46528843,-2.9402466
alexnet_w1_mlp_simclrhn_probe2,1,170,NaN,oven,oven,1-0-10,0170_eid_dnn_1-0-10_oven_10_n04111531_1612.png,n04111531_1612.png,1.0,1.8174033,1.5658985,0.17784074
alexnet_w1_mlp_simclrhn_probe2,1,171,NaN,clock,clock,2-0-10,0171_eid_dnn_2-0-10_clock_10_n02708093_1701.png,n02708093_1701.png,1.0,3.8565776,0.14898635,2.621663
alexnet_w1_mlp_simclrhn_probe2,1,172,NaN,bear,elephant,32-0-10,0172_eid_dnn_32-0-10_elephant_10_n02504013_782.png,n02504013_782.png,0.0,-0.13122925,0.10740575,-0.16874044
alexnet_w1_mlp_simclrhn_probe2,1,173,NaN,oven,dog,128-0-10,0173_eid_dnn_128-0-10_dog_10_n02107908_8814.png,n02107908_8814.png,0.0,-2.9956386,-0.2033004,-1.9744812
alexnet_w1_mlp_simclrhn_probe2,1,174,NaN,bear,elephant,4-0-10,0174_eid_dnn_4-0-10_elephant_10_n02504458_5816.png,n02504458_5816.png,0.0,0.91385543,1.225804,-0.22058094
alexnet_w1_mlp_simclrhn_probe2,1,175,NaN,car,car,2-0-10,0175_eid_dnn_2-0-10_car_10_n03100240_18788.png,n03100240_18788.png,1.0,4.488182,1.7785035,1.9160322
alexnet_w1_mlp_simclrhn_probe2,1,176,NaN,oven,airplane,16-0-10,0176_eid_dnn_16-0-10_airplane_10_n02690373_7915.png,n02690373_7915.png,0.0,-1.7035962,-0.38948733,-0.9292153
alexnet_w1_mlp_simclrhn_probe2,1,177,NaN,oven,chair,4-0-10,0177_eid_dnn_4-0-10_chair_10_n04429376_10544.png,n04429376_10544.png,0.0,-0.4866902,1.5824468,-1.4631009
alexnet_w1_mlp_simclrhn_probe2,1,178,NaN,oven,knife,32-0-10,0178_eid_dnn_32-0-10_knife_10_n03041632_24883.png,n03041632_24883.png,0.0,-2.0161827,-0.041480973,-1.396325
alexnet_w1_mlp_simclrhn_probe2,1,179,NaN,oven,bicycle,128-0-10,0179_eid_dnn_128-0-10_bicycle_10_n03792782_10367.png,n03792782_10367.png,0.0,-2.8823853,-1.0102097,-1.3238281
alexnet_w1_mlp_simclrhn_probe2,1,180,NaN,oven,oven,1-0-10,0180_eid_dnn_1-0-10_oven_10_n04111531_3121.png,n04111531_3121.png,1.0,1.4120241,0.21977279,0.843049
alexnet_w1_mlp_simclrhn_probe2,1,181,NaN,oven,car,128-0-10,0181_eid_dnn_128-0-10_car_10_n02814533_10995.png,n02814533_10995.png,0.0,-4.775703,-0.44008887,-3.0657423
alexnet_w1_mlp_simclrhn_probe2,1,182,NaN,oven,dog,128-0-10,0182_eid_dnn_128-0-10_dog_10_n02112350_502.png,n02112350_502.png,0.0,-2.237485,-0.3728571,-1.318491
alexnet_w1_mlp_simclrhn_probe2,1,183,NaN,oven,clock,128-0-10,0183_eid_dnn_128-0-10_clock_10_n04548280_5278.png,n04548280_5278.png,0.0,-3.6512516,-0.40756893,-2.2936301
alexnet_w1_mlp_simclrhn_probe2,1,184,NaN,elephant,bird,4-0-10,0184_eid_dnn_4-0-10_bird_10_n02006656_713.png,n02006656_713.png,0.0,-0.7136044,0.23443106,-0.67036235
alexnet_w1_mlp_simclrhn_probe2,1,185,NaN,oven,bottle,128-0-10,0185_eid_dnn_128-0-10_bottle_10_n04557648_4106.png,n04557648_4106.png,0.0,-2.160638,-0.31899995,-1.3022348
alexnet_w1_mlp_simclrhn_probe2,1,186,NaN,oven,clock,64-0-10,0186_eid_dnn_64-0-10_clock_10_n02708093_1430.png,n02708093_1430.png,0.0,-1.9535203,-0.5919771,-0.96275645
alexnet_w1_mlp_simclrhn_probe2,1,187,NaN,oven,oven,1-0-10,0187_eid_dnn_1-0-10_oven_10_n04111531_7664.png,n04111531_7664.png,1.0,3.7682257,0.5217371,2.295614
alexnet_w1_mlp_simclrhn_probe2,1,188,NaN,car,car,1-0-10,0188_eid_dnn_1-0-10_car_10_n02814533_149.png,n02814533_149.png,1.0,4.5735373,4.1312475,0.31274614
alexnet_w1_mlp_simclrhn_probe2,1,189,NaN,bird,clock,64-0-10,0189_eid_dnn_64-0-10_clock_10_n04548280_8296.png,n04548280_8296.png,0.0,-2.1270332,-0.54169506,-1.1210034
alexnet_w1_mlp_simclrhn_probe2,1,190,NaN,oven,bottle,64-0-10,0190_eid_dnn_64-0-10_bottle_10_n04591713_5815.png,n04591713_5815.png,0.0,-2.1631534,-0.10319078,-1.4566137
alexnet_w1_mlp_simclrhn_probe2,1,191,NaN,bottle,knife,2-0-10,0191_eid_dnn_2-0-10_knife_10_n03041632_90125.png,n03041632_90125.png,0.0,-0.48441646,0.5889138,-0.7589591
alexnet_w1_mlp_simclrhn_probe2,1,192,NaN,oven,bird,64-0-10,0192_eid_dnn_64-0-10_bird_10_n01534433_16586.png,n01534433_16586.png,0.0,-1.0569726,-0.23322889,-0.58247477
alexnet_w1_mlp_simclrhn_probe2,1,193,NaN,cat,cat,4-0-10,0193_eid_dnn_4-0-10_cat_10_n02123394_2559.png,n02123394_2559.png,1.0,1.0044194,-0.1696086,0.8301632
alexnet_w1_mlp_simclrhn_probe2,1,194,NaN,elephant,elephant,4-0-10,0194_eid_dnn_4-0-10_elephant_10_n02504458_5995.png,n02504458_5995.png,1.0,1.8314741,1.1358013,0.49191493
alexnet_w1_mlp_simclrhn_probe2,1,195,NaN,car,car,2-0-10,0195_eid_dnn_2-0-10_car_10_n02814533_211.png,n02814533_211.png,1.0,5.3298903,4.017185,0.92822266
alexnet_w1_mlp_simclrhn_probe2,1,196,NaN,chair,chair,1-0-10,0196_eid_dnn_1-0-10_chair_10_n04429376_13328.png,n04429376_13328.png,1.0,1.4705775,0.41045114,0.7496225
alexnet_w1_mlp_simclrhn_probe2,1,197,NaN,bear,keyboard,16-0-10,0197_eid_dnn_16-0-10_keyboard_10_n03085013_24618.png,n03085013_24618.png,0.0,-3.398394,0.09893721,-2.4729867
alexnet_w1_mlp_simclrhn_probe2,1,198,NaN,oven,oven,4-0-10,0198_eid_dnn_4-0-10_oven_10_n04111531_2186.png,n04111531_2186.png,1.0,1.24267,0.013610482,0.8690764
alexnet_w1_mlp_simclrhn_probe2,1,199,NaN,bear,oven,8-0-10,0199_eid_dnn_8-0-10_oven_10_n04111531_114.png,n04111531_114.png,0.0,-1.1684593,0.58129984,-1.2372667
alexnet_w1_mlp_simclrhn_probe2,1,200,NaN,car,car,1-0-10,0200_eid_dnn_1-0-10_car_10_n03100240_1745.png,n03100240_1745.png,1.0,7.4293103,4.572131,2.020331
alexnet_w1_mlp_simclrhn_probe2,1,201,NaN,cat,cat,4-0-10,0201_eid_dnn_4-0-10_cat_10_n02123394_1259.png,n02123394_1259.png,1.0,0.8003232,-0.3080605,0.7837456
alexnet_w1_mlp_simclrhn_probe2,1,202,NaN,oven,oven,4-0-10,0202_eid_dnn_4-0-10_oven_10_n04111531_5801.png,n04111531_5801.png,1.0,0.021905176,-0.30340046,0.23002583
alexnet_w1_mlp_simclrhn_probe2,1,203,NaN,oven,airplane,32-0-10,0203_eid_dnn_32-0-10_airplane_10_n02690373_2024.png,n02690373_2024.png,0.0,-1.3424121,-0.26843774,-0.75941455
alexnet_w1_mlp_simclrhn_probe2,1,204,NaN,bear,cat,8-0-10,0204_eid_dnn_8-0-10_cat_10_n02123045_12181.png,n02123045_12181.png,0.0,0.29793316,0.37272674,-0.052887045
alexnet_w1_mlp_simclrhn_probe2,1,205,NaN,oven,airplane,64-0-10,0205_eid_dnn_64-0-10_airplane_10_n02690373_3313.png,n02690373_3313.png,0.0,-4.251827,0.04653734,-3.0394025
alexnet_w1_mlp_simclrhn_probe2,1,206,NaN,oven,truck,64-0-10,0206_eid_dnn_64-0-10_truck_10_n04467665_80465.png,n04467665_80465.png,0.0,-2.4007995,-0.3901319,-1.4217567
alexnet_w1_mlp_simclrhn_probe2,1,207,NaN,oven,elephant,2-0-10,0207_eid_dnn_2-0-10_elephant_10_n02504013_8626.png,n02504013_8626.png,0.0,-0.3219259,0.00740093,-0.23286924
alexnet_w1_mlp_simclrhn_probe2,1,208,NaN,oven,car,16-0-10,0208_eid_dnn_16-0-10_car_10_n04285008_7904.png,n04285008_7904.png,0.0,-5.838337,1.4894019,-5.1814938
alexnet_w1_mlp_simclrhn_probe2,1,209,NaN,bear,airplane,8-0-10,0209_eid_dnn_8-0-10_airplane_10_n02690373_6363.png,n02690373_6363.png,0.0,-5.4495645,0.136496,-3.9499414
alexnet_w1_mlp_simclrhn_probe2,1,210,NaN,cat,cat,4-0-10,0210_eid_dnn_4-0-10_cat_10_n02123045_7294.png,n02123045_7294.png,1.0,0.23119426,-0.17176177,0.28493294
alexnet_w1_mlp_simclrhn_probe2,1,211,NaN,oven,airplane,128-0-10,0211_eid_dnn_128-0-10_airplane_10_n02690373_6988.png,n02690373_6988.png,0.0,-4.499083,-0.9112885,-2.536954
alexnet_w1_mlp_simclrhn_probe2,1,212,NaN,cat,cat,4-0-10,0212_eid_dnn_4-0-10_cat_10_n02125311_25749.png,n02125311_25749.png,1.0,-0.45626774,-0.71013445,0.17951088
alexnet_w1_mlp_simclrhn_probe2,1,213,NaN,oven,bird,64-0-10,0213_eid_dnn_64-0-10_bird_10_n02018207_12980.png,n02018207_12980.png,0.0,-1.7533019,-0.37625688,-0.9737178
alexnet_w1_mlp_simclrhn_probe2,1,214,NaN,bear,cat,32-0-10,0214_eid_dnn_32-0-10_cat_10_n02123394_2814.png,n02123394_2814.png,0.0,-0.5467848,-0.07770285,-0.33169106
alexnet_w1_mlp_simclrhn_probe2,1,215,NaN,oven,car,4-0-10,0215_eid_dnn_4-0-10_car_10_n04285008_662.png,n04285008_662.png,0.0,-0.8379908,-0.51474965,-0.22856604
alexnet_w1_mlp_simclrhn_probe2,1,216,NaN,bear,bicycle,2-0-10,0216_eid_dnn_2-0-10_bicycle_10_n03792782_11679.png,n03792782_11679.png,0.0,-0.71585536,-0.2639884,-0.31951818
alexnet_w1_mlp_simclrhn_probe2,1,217,NaN,cat,dog,16-0-10,0217_eid_dnn_16-0-10_dog_10_n02093428_17769.png,n02093428_17769.png,0.0,-0.6053612,0.055308472,-0.467164
alexnet_w1_mlp_simclrhn_probe2,1,218,NaN,oven,dog,64-0-10,0218_eid_dnn_64-0-10_dog_10_n02106030_17418.png,n02106030_17418.png,0.0,-1.1009926,0.20821986,-0.925753
alexnet_w1_mlp_simclrhn_probe2,1,219,NaN,oven,chair,64-0-10,0219_eid_dnn_64-0-10_chair_10_n02791124_7142.png,n02791124_7142.png,0.0,-3.5921042,0.75711596,-3.0753632
alexnet_w1_mlp_simclrhn_probe2,1,220,NaN,bear,bear,1-0-10,0220_eid_dnn_1-0-10_bear_10_n02134084_18083.png,n02134084_18083.png,1.0,0.23155622,0.17426103,0.040513817
alexnet_w1_mlp_simclrhn_probe2,1,221,NaN,keyboard,keyboard,2-0-10,0221_eid_dnn_2-0-10_keyboard_10_n03085013_7536.png,n03085013_7536.png,1.0,2.7298238,0.6995794,1.4355996
alexnet_w1_mlp_simclrhn_probe2,1,222,NaN,bird,bird,1-0-10,0222_eid_dnn_1-0-10_bird_10_n01616318_2473.png,n01616318_2473.png,1.0,0.9266126,0.10861016,0.5784151
alexnet_w1_mlp_simclrhn_probe2,1,223,NaN,elephant,elephant,1-0-10,0223_eid_dnn_1-0-10_elephant_10_n02504458_5951.png,n02504458_5951.png,1.0,5.5628557,2.0085988,2.5132391
alexnet_w1_mlp_simclrhn_probe2,1,224,NaN,airplane,airplane,4-0-10,0224_eid_dnn_4-0-10_airplane_10_n02690373_5164.png,n02690373_5164.png,1.0,0.8852943,0.015249789,0.6152144
alexnet_w1_mlp_simclrhn_probe2,1,225,NaN,elephant,elephant,4-0-10,0225_eid_dnn_4-0-10_elephant_10_n02504013_1865.png,n02504013_1865.png,1.0,3.019784,1.534396,1.0503279
alexnet_w1_mlp_simclrhn_probe2,1,226,NaN,knife,knife,1-0-10,0226_eid_dnn_1-0-10_knife_10_n03041632_56454.png,n03041632_56454.png,1.0,1.2601885,-0.18180984,1.0196468
alexnet_w1_mlp_simclrhn_probe2,1,227,NaN,oven,bird,64-0-10,0227_eid_dnn_64-0-10_bird_10_n01824575_5820.png,n01824575_5820.png,0.0,-1.2619951,0.04854916,-0.92669475
alexnet_w1_mlp_simclrhn_probe2,1,228,NaN,oven,oven,4-0-10,0228_eid_dnn_4-0-10_oven_10_n04111531_4332.png,n04111531_4332.png,1.0,-0.3299837,-0.35348096,0.016615069
alexnet_w1_mlp_simclrhn_probe2,1,229,NaN,truck,truck,2-0-10,0229_eid_dnn_2-0-10_truck_10_n04467665_41352.png,n04467665_41352.png,1.0,5.457084,2.7589772,1.9078498
alexnet_w1_mlp_simclrhn_probe2,1,230,NaN,bird,bird,8-0-10,0230_eid_dnn_8-0-10_bird_10_n01514859_5668.png,n01514859_5668.png,1.0,-0.6455308,-0.72391796,0.05542808
alexnet_w1_mlp_simclrhn_probe2,1,231,NaN,bird,oven,32-0-10,0231_eid_dnn_32-0-10_oven_10_n04111531_4438.png,n04111531_4438.png,0.0,-0.6728789,-0.6126929,-0.04255795
alexnet_w1_mlp_simclrhn_probe2,1,232,NaN,cat,cat,1-0-10,0232_eid_dnn_1-0-10_cat_10_n02123394_6693.png,n02123394_6693.png,1.0,1.3335122,-0.41969207,1.2397026
alexnet_w1_mlp_simclrhn_probe2,1,233,NaN,oven,elephant,32-0-10,0233_eid_dnn_32-0-10_elephant_10_n02504458_6302.png,n02504458_6302.png,0.0,-0.88170356,-0.09829702,-0.5539521
alexnet_w1_mlp_simclrhn_probe2,1,234,NaN,bear,bottle,16-0-10,0234_eid_dnn_16-0-10_bottle_10_n03937543_2329.png,n03937543_2329.png,0.0,-1.5465591,-0.08936548,-1.0303915
alexnet_w1_mlp_simclrhn_probe2,1,235,NaN,bear,elephant,16-0-10,0235_eid_dnn_16-0-10_elephant_10_n02504458_5155.png,n02504458_5155.png,0.0,0.14635348,0.4634542,-0.22422406
alexnet_w1_mlp_simclrhn_probe2,1,236,NaN,oven,bear,1-0-10,0236_eid_dnn_1-0-10_bear_10_n02134084_1694.png,n02134084_1694.png,0.0,-0.85437447,0.99730635,-1.3093361
alexnet_w1_mlp_simclrhn_probe2,1,237,NaN,oven,bear,128-0-10,0237_eid_dnn_128-0-10_bear_10_n02133161_1624.png,n02133161_1624.png,0.0,-3.0558019,-1.081291,-1.39619
alexnet_w1_mlp_simclrhn_probe2,1,238,NaN,oven,bear,64-0-10,0238_eid_dnn_64-0-10_bear_10_n02132136_11027.png,n02132136_11027.png,0.0,-0.2710725,0.08842789,-0.25420517
alexnet_w1_mlp_simclrhn_probe2,1,239,NaN,oven,elephant,64-0-10,0239_eid_dnn_64-0-10_elephant_10_n02504013_24621.png,n02504013_24621.png,0.0,-0.8005241,-0.092328265,-0.5007701
alexnet_w1_mlp_simclrhn_probe2,1,240,NaN,oven,knife,16-0-10,0240_eid_dnn_16-0-10_knife_10_n03041632_27134.png,n03041632_27134.png,0.0,-2.438283,0.1726548,-1.8462119
alexnet_w1_mlp_simclrhn_probe2,1,241,NaN,oven,keyboard,32-0-10,0241_eid_dnn_32-0-10_keyboard_10_n03085013_24316.png,n03085013_24316.png,0.0,-2.644054,0.37347096,-2.1337123
alexnet_w1_mlp_simclrhn_probe2,1,242,NaN,cat,cat,2-0-10,0242_eid_dnn_2-0-10_cat_10_n02123159_3026.png,n02123159_3026.png,1.0,2.5713174,-1.2140253,2.6766415
alexnet_w1_mlp_simclrhn_probe2,1,243,NaN,oven,bicycle,128-0-10,0243_eid_dnn_128-0-10_bicycle_10_n03792782_1475.png,n03792782_1475.png,0.0,-2.9558516,-0.6144348,-1.6556318
alexnet_w1_mlp_simclrhn_probe2,1,244,NaN,cat,cat,16-0-10,0244_eid_dnn_16-0-10_cat_10_n02123045_20507.png,n02123045_20507.png,1.0,0.28509733,-0.46813712,0.5326172
alexnet_w1_mlp_simclrhn_probe2,1,245,NaN,oven,boat,64-0-10,0245_eid_dnn_64-0-10_boat_10_n02951358_23759.png,n02951358_23759.png,0.0,-2.5059638,-0.026957579,-1.7529222
alexnet_w1_mlp_simclrhn_probe2,1,246,NaN,bear,bear,16-0-10,0246_eid_dnn_16-0-10_bear_10_n02132136_1858.png,n02132136_1858.png,1.0,0.3157703,-0.16768765,0.3418564
alexnet_w1_mlp_simclrhn_probe2,1,247,NaN,oven,boat,128-0-10,0247_eid_dnn_128-0-10_boat_10_n02951358_6465.png,n02951358_6465.png,0.0,-3.7560668,-0.67270565,-2.1802657
alexnet_w1_mlp_simclrhn_probe2,1,248,NaN,bird,airplane,128-0-10,0248_eid_dnn_128-0-10_airplane_10_n02690373_6223.png,n02690373_6223.png,0.0,-3.2729363,-0.588118,-1.8984532
alexnet_w1_mlp_simclrhn_probe2,1,249,NaN,oven,boat,128-0-10,0249_eid_dnn_128-0-10_boat_10_n03344393_2412.png,n03344393_2412.png,0.0,-3.3062222,-0.007683158,-2.3324194
alexnet_w1_mlp_simclrhn_probe2,1,250,NaN,cat,knife,8-0-10,0250_eid_dnn_8-0-10_knife_10_n03041632_6446.png,n03041632_6446.png,0.0,-1.2041506,0.3346909,-1.0881252
alexnet_w1_mlp_simclrhn_probe2,1,251,NaN,oven,bottle,64-0-10,0251_eid_dnn_64-0-10_bottle_10_n04591713_7940.png,n04591713_7940.png,0.0,-1.9309739,-0.5155941,-1.0008247
alexnet_w1_mlp_simclrhn_probe2,1,252,NaN,cat,cat,4-0-10,0252_eid_dnn_4-0-10_cat_10_n02124075_13568.png,n02124075_13568.png,1.0,2.1017256,-0.35486695,1.7370733
alexnet_w1_mlp_simclrhn_probe2,1,253,NaN,boat,boat,2-0-10,0253_eid_dnn_2-0-10_boat_10_n03662601_2171.png,n03662601_2171.png,1.0,1.1883253,0.20315138,0.6966232
alexnet_w1_mlp_simclrhn_probe2,1,254,NaN,elephant,elephant,1-0-10,0254_eid_dnn_1-0-10_elephant_10_n02504458_415.png,n02504458_415.png,1.0,1.551408,0.3783598,0.8294704
alexnet_w1_mlp_simclrhn_probe2,1,255,NaN,oven,car,16-0-10,0255_eid_dnn_16-0-10_car_10_n03100240_3386.png,n03100240_3386.png,0.0,-4.420702,0.52149636,-3.494662
alexnet_w1_mlp_simclrhn_probe2,1,256,NaN,cat,bird,16-0-10,0256_eid_dnn_16-0-10_bird_10_n02056570_6633.png,n02056570_6633.png,0.0,-1.6885108,-0.5383175,-0.81330943
alexnet_w1_mlp_simclrhn_probe2,1,257,NaN,oven,bottle,32-0-10,0257_eid_dnn_32-0-10_bottle_10_n02823428_4232.png,n02823428_4232.png,0.0,-1.1244911,0.18185282,-0.92372465
alexnet_w1_mlp_simclrhn_probe2,1,258,NaN,oven,boat,128-0-10,0258_eid_dnn_128-0-10_boat_10_n04273569_2396.png,n04273569_2396.png,0.0,-3.4643078,-0.5749048,-2.0431163
alexnet_w1_mlp_simclrhn_probe2,1,259,NaN,knife,knife,1-0-10,0259_eid_dnn_1-0-10_knife_10_n03041632_38996.png,n03041632_38996.png,1.0,0.88142025,-0.16050938,0.7367555
alexnet_w1_mlp_simclrhn_probe2,1,260,NaN,cat,oven,8-0-10,0260_eid_dnn_8-0-10_oven_10_n04111531_10420.png,n04111531_10420.png,0.0,-0.12647039,0.48095384,-0.4295138
alexnet_w1_mlp_simclrhn_probe2,1,261,NaN,oven,dog,128-0-10,0261_eid_dnn_128-0-10_dog_10_n02094114_2394.png,n02094114_2394.png,0.0,-3.1868691,-0.08214249,-2.1953733
alexnet_w1_mlp_simclrhn_probe2,1,262,NaN,oven,elephant,128-0-10,0262_eid_dnn_128-0-10_elephant_10_n02504013_4247.png,n02504013_4247.png,0.0,-1.3058009,-0.047592834,-0.8896875
alexnet_w1_mlp_simclrhn_probe2,1,263,NaN,oven,chair,32-0-10,0263_eid_dnn_32-0-10_chair_10_n03376595_8137.png,n03376595_8137.png,0.0,-2.1010232,-0.3503419,-1.2379186
alexnet_w1_mlp_simclrhn_probe2,1,264,NaN,oven,airplane,128-0-10,0264_eid_dnn_128-0-10_airplane_10_n02690373_8524.png,n02690373_8524.png,0.0,-7.7791567,-0.046165776,-5.4680505
alexnet_w1_mlp_simclrhn_probe2,1,265,NaN,oven,car,64-0-10,0265_eid_dnn_64-0-10_car_10_n03100240_18410.png,n03100240_18410.png,0.0,-3.9120407,-0.3529284,-2.5166726
alexnet_w1_mlp_simclrhn_probe2,1,266,NaN,oven,clock,64-0-10,0266_eid_dnn_64-0-10_clock_10_n04548280_2588.png,n04548280_2588.png,0.0,-2.40556,0.33118445,-1.9351705
alexnet_w1_mlp_simclrhn_probe2,1,267,NaN,oven,keyboard,32-0-10,0267_eid_dnn_32-0-10_keyboard_10_n03085013_24030.png,n03085013_24030.png,0.0,-3.9863148,-0.51105225,-2.4573817
alexnet_w1_mlp_simclrhn_probe2,1,268,NaN,clock,clock,2-0-10,0268_eid_dnn_2-0-10_clock_10_n03196217_6375.png,n03196217_6375.png,1.0,1.379674,0.86442983,0.36433262
alexnet_w1_mlp_simclrhn_probe2,1,269,NaN,oven,airplane,32-0-10,0269_eid_dnn_32-0-10_airplane_10_n02690373_4150.png,n02690373_4150.png,0.0,-3.8792517,0.2341643,-2.9086246
alexnet_w1_mlp_simclrhn_probe2,1,270,NaN,cat,dog,4-0-10,0270_eid_dnn_4-0-10_dog_10_n02086646_6567.png,n02086646_6567.png,0.0,-1.1417161,-0.16412885,-0.6912586
alexnet_w1_mlp_simclrhn_probe2,1,271,NaN,oven,clock,64-0-10,0271_eid_dnn_64-0-10_clock_10_n03196217_775.png,n03196217_775.png,0.0,-4.596771,-0.3272003,-3.0190423
alexnet_w1_mlp_simclrhn_probe2,1,272,NaN,truck,car,1-0-10,0272_eid_dnn_1-0-10_car_10_n02814533_57353.png,n02814533_57353.png,0.0,6.0866,7.0897455,-0.70933115
alexnet_w1_mlp_simclrhn_probe2,1,273,NaN,oven,bottle,16-0-10,0273_eid_dnn_16-0-10_bottle_10_n04560804_183.png,n04560804_183.png,0.0,-1.6077236,0.21552166,-1.2892292
alexnet_w1_mlp_simclrhn_probe2,1,274,NaN,car,car,2-0-10,0274_eid_dnn_2-0-10_car_10_n04285008_10631.png,n04285008_10631.png,1.0,5.792147,2.2263749,2.5213819
alexnet_w1_mlp_simclrhn_probe2,1,275,NaN,bear,bear,2-0-10,0275_eid_dnn_2-0-10_bear_10_n02132136_10057.png,n02132136_10057.png,1.0,6.524866,4.1224113,1.6987921
alexnet_w1_mlp_simclrhn_probe2,1,276,NaN,oven,boat,128-0-10,0276_eid_dnn_128-0-10_boat_10_n04273569_4605.png,n04273569_4605.png,0.0,-4.220371,-0.5301919,-2.6093504
alexnet_w1_mlp_simclrhn_probe2,1,277,NaN,oven,cat,64-0-10,0277_eid_dnn_64-0-10_cat_10_n02123597_12711.png,n02123597_12711.png,0.0,-1.5919943,-0.24522808,-0.9523076
alexnet_w1_mlp_simclrhn_probe2,1,278,NaN,bottle,bottle,1-0-10,0278_eid_dnn_1-0-10_bottle_10_n04560804_5610.png,n04560804_5610.png,1.0,4.4910917,-1.3930265,4.1607
alexnet_w1_mlp_simclrhn_probe2,1,279,NaN,bear,clock,32-0-10,0279_eid_dnn_32-0-10_clock_10_n04548280_8412.png,n04548280_8412.png,0.0,-2.8374624,0.06616906,-2.0531776
alexnet_w1_mlp_simclrhn_probe2,1,280,NaN,cat,cat,2-0-10,0280_eid_dnn_2-0-10_cat_10_n02123597_13834.png,n02123597_13834.png,1.0,0.6249857,-0.43308365,0.74816805
alexnet_w1_mlp_simclrhn_probe2,1,281,NaN,oven,dog,128-0-10,0281_eid_dnn_128-0-10_dog_10_n02091831_538.png,n02091831_538.png,0.0,-1.4085195,-0.50164086,-0.64126
alexnet_w1_mlp_simclrhn_probe2,1,282,NaN,oven,bicycle,32-0-10,0282_eid_dnn_32-0-10_bicycle_10_n03792782_10437.png,n03792782_10437.png,0.0,-0.8553107,-0.5678428,-0.20327051
alexnet_w1_mlp_simclrhn_probe2,1,283,NaN,bear,bear,2-0-10,0283_eid_dnn_2-0-10_bear_10_n02132136_2372.png,n02132136_2372.png,1.0,2.2887616,0.8375441,1.0261657
alexnet_w1_mlp_simclrhn_probe2,1,284,NaN,bird,bicycle,128-0-10,0284_eid_dnn_128-0-10_bicycle_10_n03792782_4540.png,n03792782_4540.png,0.0,-0.8922768,-0.8548923,-0.02643484
alexnet_w1_mlp_simclrhn_probe2,1,285,NaN,elephant,elephant,2-0-10,0285_eid_dnn_2-0-10_elephant_10_n02504013_10152.png,n02504013_10152.png,1.0,1.123734,0.6079444,0.36471832
alexnet_w1_mlp_simclrhn_probe2,1,286,NaN,oven,boat,64-0-10,0286_eid_dnn_64-0-10_boat_10_n02951358_7603.png,n02951358_7603.png,0.0,-3.1176245,0.04066561,-2.2332485
alexnet_w1_mlp_simclrhn_probe2,1,287,NaN,bear,bear,2-0-10,0287_eid_dnn_2-0-10_bear_10_n02133161_9371.png,n02133161_9371.png,1.0,1.8875976,-0.035881273,1.3601049
alexnet_w1_mlp_simclrhn_probe2,1,288,NaN,bear,truck,8-0-10,0288_eid_dnn_8-0-10_truck_10_n04467665_69892.png,n04467665_69892.png,0.0,-1.2305241,0.316636,-1.0940074
alexnet_w1_mlp_simclrhn_probe2,1,289,NaN,knife,knife,1-0-10,0289_eid_dnn_1-0-10_knife_10_n03041632_19275.png,n03041632_19275.png,1.0,0.1021536,-0.6613611,0.5398864
alexnet_w1_mlp_simclrhn_probe2,1,290,NaN,oven,keyboard,16-0-10,0290_eid_dnn_16-0-10_keyboard_10_n04505470_9446.png,n04505470_9446.png,0.0,-3.5834227,0.18349344,-2.663612
alexnet_w1_mlp_simclrhn_probe2,1,291,NaN,elephant,elephant,1-0-10,0291_eid_dnn_1-0-10_elephant_10_n02504013_9141.png,n02504013_9141.png,1.0,2.1851678,0.06139552,1.5017339
alexnet_w1_mlp_simclrhn_probe2,1,292,NaN,oven,bird,128-0-10,0292_eid_dnn_128-0-10_bird_10_n02056570_8553.png,n02056570_8553.png,0.0,-1.8892223,-0.06765553,-1.2880422
alexnet_w1_mlp_simclrhn_probe2,1,293,NaN,car,car,1-0-10,0293_eid_dnn_1-0-10_car_10_n03100240_9171.png,n03100240_9171.png,1.0,5.3433814,3.236374,1.4898794
alexnet_w1_mlp_simclrhn_probe2,1,294,NaN,dog,dog,8-0-10,0294_eid_dnn_8-0-10_dog_10_n02102177_1533.png,n02102177_1533.png,1.0,-0.0029471833,-0.2548804,0.1781437
alexnet_w1_mlp_simclrhn_probe2,1,295,NaN,oven,cat,64-0-10,0295_eid_dnn_64-0-10_cat_10_n02124075_12464.png,n02124075_12464.png,0.0,-1.3892721,0.014443904,-0.9925771
alexnet_w1_mlp_simclrhn_probe2,1,296,NaN,bottle,chair,4-0-10,0296_eid_dnn_4-0-10_chair_10_n04429376_33792.png,n04429376_33792.png,0.0,-1.7893378,1.4216211,-2.270491
alexnet_w1_mlp_simclrhn_probe2,1,297,NaN,oven,bear,128-0-10,0297_eid_dnn_128-0-10_bear_10_n02133161_3258.png,n02133161_3258.png,0.0,-2.5748315,-0.5543142,-1.4287215
alexnet_w1_mlp_simclrhn_probe2,1,298,NaN,elephant,dog,4-0-10,0298_eid_dnn_4-0-10_dog_10_n02097130_1442.png,n02097130_1442.png,0.0,-0.5328169,1.4075637,-1.3720562
alexnet_w1_mlp_simclrhn_probe2,1,299,NaN,oven,chair,4-0-10,0299_eid_dnn_4-0-10_chair_10_n02791124_8970.png,n02791124_8970.png,0.0,-1.0252342,0.08826813,-0.7873651
alexnet_w1_mlp_simclrhn_probe2,1,300,NaN,bear,car,8-0-10,0300_eid_dnn_8-0-10_car_10_n04285008_8545.png,n04285008_8545.png,0.0,-5.882708,0.2948365,-4.3681836
alexnet_w1_mlp_simclrhn_probe2,1,301,NaN,truck,truck,1-0-10,0301_eid_dnn_1-0-10_truck_10_n03417042_2204.png,n03417042_2204.png,1.0,2.8359306,0.54138273,1.6224903
alexnet_w1_mlp_simclrhn_probe2,1,302,NaN,elephant,bear,2-0-10,0302_eid_dnn_2-0-10_bear_10_n02133161_15593.png,n02133161_15593.png,0.0,1.7286704,1.7316265,-0.002090315
alexnet_w1_mlp_simclrhn_probe2,1,303,NaN,knife,clock,2-0-10,0303_eid_dnn_2-0-10_clock_10_n04548280_5845.png,n04548280_5845.png,0.0,-0.5006338,-0.33444756,-0.1175114
alexnet_w1_mlp_simclrhn_probe2,1,304,NaN,cat,knife,4-0-10,0304_eid_dnn_4-0-10_knife_10_n03041632_4975.png,n03041632_4975.png,0.0,-0.94361234,-0.30454957,-0.4518856
alexnet_w1_mlp_simclrhn_probe2,1,305,NaN,oven,clock,32-0-10,0305_eid_dnn_32-0-10_clock_10_n03196217_4849.png,n03196217_4849.png,0.0,-1.4120785,-0.17934674,-0.87167305
alexnet_w1_mlp_simclrhn_probe2,1,306,NaN,bicycle,bicycle,2-0-10,0306_eid_dnn_2-0-10_bicycle_10_n03792782_15752.png,n03792782_15752.png,1.0,0.58738834,0.20778872,0.26841748
alexnet_w1_mlp_simclrhn_probe2,1,307,NaN,cat,bicycle,16-0-10,0307_eid_dnn_16-0-10_bicycle_10_n02835271_29741.png,n02835271_29741.png,0.0,-1.9699899,-0.45477128,-1.0714214
alexnet_w1_mlp_simclrhn_probe2,1,308,NaN,oven,chair,4-0-10,0308_eid_dnn_4-0-10_chair_10_n04099969_16619.png,n04099969_16619.png,0.0,-0.46890578,0.45127344,-0.650665
alexnet_w1_mlp_simclrhn_probe2,1,309,NaN,keyboard,keyboard,4-0-10,0309_eid_dnn_4-0-10_keyboard_10_n04505470_4552.png,n04505470_4552.png,1.0,1.2061399,0.18480083,0.7221958
alexnet_w1_mlp_simclrhn_probe2,1,310,NaN,bear,boat,8-0-10,0310_eid_dnn_8-0-10_boat_10_n02951358_13144.png,n02951358_13144.png,0.0,-1.2000904,0.5472451,-1.2355528
alexnet_w1_mlp_simclrhn_probe2,1,311,NaN,bear,bird,32-0-10,0311_eid_dnn_32-0-10_bird_10_n01797886_14611.png,n01797886_14611.png,0.0,-0.55153406,-0.47513676,-0.05402105
alexnet_w1_mlp_simclrhn_probe2,1,312,NaN,knife,knife,1-0-10,0312_eid_dnn_1-0-10_knife_10_n03041632_3326.png,n03041632_3326.png,1.0,0.42181933,-0.85890734,0.9056105
alexnet_w1_mlp_simclrhn_probe2,1,313,NaN,bear,elephant,8-0-10,0313_eid_dnn_8-0-10_elephant_10_n02504013_5829.png,n02504013_5829.png,0.0,0.70139945,0.9417547,-0.16995683
alexnet_w1_mlp_simclrhn_probe2,1,314,NaN,oven,dog,16-0-10,0314_eid_dnn_16-0-10_dog_10_n02088094_2292.png,n02088094_2292.png,0.0,-0.9549489,0.16067737,-0.78886694
alexnet_w1_mlp_simclrhn_probe2,1,315,NaN,oven,oven,8-0-10,0315_eid_dnn_8-0-10_oven_10_n04111531_4944.png,n04111531_4944.png,1.0,0.4666668,-0.0068813823,0.33484912
alexnet_w1_mlp_simclrhn_probe2,1,316,NaN,oven,oven,32-0-10,0316_eid_dnn_32-0-10_oven_10_n04111531_669.png,n04111531_669.png,1.0,-0.06909231,-0.985555,0.64803696
alexnet_w1_mlp_simclrhn_probe2,1,317,NaN,oven,car,64-0-10,0317_eid_dnn_64-0-10_car_10_n02814533_6716.png,n02814533_6716.png,0.0,-6.3433633,0.45089874,-4.804269
alexnet_w1_mlp_simclrhn_probe2,1,318,NaN,oven,bear,32-0-10,0318_eid_dnn_32-0-10_bear_10_n02132136_26438.png,n02132136_26438.png,0.0,-0.36866128,0.47039008,-0.5932989
alexnet_w1_mlp_simclrhn_probe2,1,319,NaN,oven,bottle,4-0-10,0319_eid_dnn_4-0-10_bottle_10_n03983396_3027.png,n03983396_3027.png,0.0,-1.5465952,-0.7746232,-0.54586667
alexnet_w1_mlp_simclrhn_probe2,1,320,NaN,elephant,elephant,2-0-10,0320_eid_dnn_2-0-10_elephant_10_n02504013_9299.png,n02504013_9299.png,1.0,9.398608,2.5894244,4.8148203
alexnet_w1_mlp_simclrhn_probe2,1,321,NaN,knife,knife,2-0-10,0321_eid_dnn_2-0-10_knife_10_n03041632_13846.png,n03041632_13846.png,1.0,-0.18598418,-0.24140719,0.039189983
alexnet_w1_mlp_simclrhn_probe2,1,322,NaN,oven,airplane,64-0-10,0322_eid_dnn_64-0-10_airplane_10_n02690373_16250.png,n02690373_16250.png,0.0,-2.9472976,-0.26444584,-1.8970628
alexnet_w1_mlp_simclrhn_probe2,1,323,NaN,oven,boat,64-0-10,0323_eid_dnn_64-0-10_boat_10_n03662601_13696.png,n03662601_13696.png,0.0,-4.425687,-1.1554432,-2.3124115
alexnet_w1_mlp_simclrhn_probe2,1,324,NaN,cat,cat,1-0-10,0324_eid_dnn_1-0-10_cat_10_n02123597_5692.png,n02123597_5692.png,1.0,1.0714006,-0.17943174,0.884472
alexnet_w1_mlp_simclrhn_probe2,1,325,NaN,bear,clock,8-0-10,0325_eid_dnn_8-0-10_clock_10_n02708093_3171.png,n02708093_3171.png,0.0,-5.0525565,0.347248,-3.8182385
alexnet_w1_mlp_simclrhn_probe2,1,326,NaN,oven,keyboard,128-0-10,0326_eid_dnn_128-0-10_keyboard_10_n04505470_4902.png,n04505470_4902.png,0.0,-3.0374331,-0.30916646,-1.929176
alexnet_w1_mlp_simclrhn_probe2,1,327,NaN,cat,dog,2-0-10,0327_eid_dnn_2-0-10_dog_10_n02113624_1170.png,n02113624_1170.png,0.0,-0.4375365,0.23201509,-0.4734445
alexnet_w1_mlp_simclrhn_probe2,1,328,NaN,clock,clock,2-0-10,0328_eid_dnn_2-0-10_clock_10_n03196217_1272.png,n03196217_1272.png,1.0,1.6430196,0.9698423,0.4760082
alexnet_w1_mlp_simclrhn_probe2,1,329,NaN,oven,cat,128-0-10,0329_eid_dnn_128-0-10_cat_10_n02123394_8946.png,n02123394_8946.png,0.0,-1.5043608,0.00662075,-1.0684253
alexnet_w1_mlp_simclrhn_probe2,1,330,NaN,oven,car,8-0-10,0330_eid_dnn_8-0-10_car_10_n03100240_7134.png,n03100240_7134.png,0.0,-2.9352,-0.77511007,-1.5274143
alexnet_w1_mlp_simclrhn_probe2,1,331,NaN,oven,bicycle,4-0-10,0331_eid_dnn_4-0-10_bicycle_10_n03792782_16034.png,n03792782_16034.png,0.0,-0.95931876,-0.13558716,-0.5824662
alexnet_w1_mlp_simclrhn_probe2,1,332,NaN,bear,dog,8-0-10,0332_eid_dnn_8-0-10_dog_10_n02104029_5465.png,n02104029_5465.png,0.0,-0.6335137,0.48873308,-0.7935483
alexnet_w1_mlp_simclrhn_probe2,1,333,NaN,keyboard,keyboard,4-0-10,0333_eid_dnn_4-0-10_keyboard_10_n04505470_5011.png,n04505470_5011.png,1.0,2.3213787,1.1750815,0.81055456
alexnet_w1_mlp_simclrhn_probe2,1,334,NaN,bear,bird,8-0-10,0334_eid_dnn_8-0-10_bird_10_n02009912_27132.png,n02009912_27132.png,0.0,-0.7442063,0.17813112,-0.65219104
alexnet_w1_mlp_simclrhn_probe2,1,335,NaN,oven,knife,64-0-10,0335_eid_dnn_64-0-10_knife_10_n03041632_3171.png,n03041632_3171.png,0.0,-1.1893446,-0.4988258,-0.48827058
alexnet_w1_mlp_simclrhn_probe2,1,336,NaN,oven,bear,32-0-10,0336_eid_dnn_32-0-10_bear_10_n02134084_21170.png,n02134084_21170.png,0.0,-0.43815762,0.4044194,-0.59579194
alexnet_w1_mlp_simclrhn_probe2,1,337,NaN,cat,dog,4-0-10,0337_eid_dnn_4-0-10_dog_10_n02086079_29044.png,n02086079_29044.png,0.0,-0.8473776,-0.4455432,-0.28413984
alexnet_w1_mlp_simclrhn_probe2,1,338,NaN,cat,cat,4-0-10,0338_eid_dnn_4-0-10_cat_10_n02124075_8465.png,n02124075_8465.png,1.0,1.073906,-0.15294628,0.8675155
alexnet_w1_mlp_simclrhn_probe2,1,339,NaN,oven,bird,128-0-10,0339_eid_dnn_128-0-10_bird_10_n01855032_982.png,n01855032_982.png,0.0,-1.2035948,-0.2548681,-0.6708511
alexnet_w1_mlp_simclrhn_probe2,1,340,NaN,oven,truck,32-0-10,0340_eid_dnn_32-0-10_truck_10_n03417042_6373.png,n03417042_6373.png,0.0,-2.7288027,-0.01379209,-1.9198024
alexnet_w1_mlp_simclrhn_probe2,1,341,NaN,bear,airplane,16-0-10,0341_eid_dnn_16-0-10_airplane_10_n02690373_9959.png,n02690373_9959.png,0.0,-3.06618,0.21731189,-2.3217795
alexnet_w1_mlp_simclrhn_probe2,1,342,NaN,oven,clock,32-0-10,0342_eid_dnn_32-0-10_clock_10_n04548280_2260.png,n04548280_2260.png,0.0,-3.250373,0.35593772,-2.5500467
alexnet_w1_mlp_simclrhn_probe2,1,343,NaN,cat,bottle,16-0-10,0343_eid_dnn_16-0-10_bottle_10_n03983396_5281.png,n03983396_5281.png,0.0,-1.0634617,-0.13092639,-0.659402
alexnet_w1_mlp_simclrhn_probe2,1,344,NaN,cat,cat,4-0-10,0344_eid_dnn_4-0-10_cat_10_n02123159_1113.png,n02123159_1113.png,1.0,2.178377,0.1114407,1.4615446
alexnet_w1_mlp_simclrhn_probe2,1,345,NaN,oven,keyboard,64-0-10,0345_eid_dnn_64-0-10_keyboard_10_n03085013_20460.png,n03085013_20460.png,0.0,-1.882691,-0.17233808,-1.2094022
alexnet_w1_mlp_simclrhn_probe2,1,346,NaN,oven,clock,8-0-10,0346_eid_dnn_8-0-10_clock_10_n03196217_884.png,n03196217_884.png,0.0,-3.769721,0.7842032,-3.2201107
alexnet_w1_mlp_simclrhn_probe2,1,347,NaN,oven,clock,8-0-10,0347_eid_dnn_8-0-10_clock_10_n03196217_6257.png,n03196217_6257.png,0.0,-3.9665344,-0.019194126,-2.791191
alexnet_w1_mlp_simclrhn_probe2,1,348,NaN,oven,dog,32-0-10,0348_eid_dnn_32-0-10_dog_10_n02113624_2109.png,n02113624_2109.png,0.0,-0.9972218,0.39826536,-0.9867585
alexnet_w1_mlp_simclrhn_probe2,1,349,NaN,keyboard,keyboard,1-0-10,0349_eid_dnn_1-0-10_keyboard_10_n03085013_20416.png,n03085013_20416.png,1.0,3.7173078,0.63527846,2.179324
alexnet_w1_mlp_simclrhn_probe2,1,350,NaN,bird,bird,2-0-10,0350_eid_dnn_2-0-10_bird_10_n01820546_4609.png,n01820546_4609.png,1.0,1.163358,-1.0136975,1.5394106
alexnet_w1_mlp_simclrhn_probe2,1,351,NaN,oven,cat,64-0-10,0351_eid_dnn_64-0-10_cat_10_n02125311_47792.png,n02125311_47792.png,0.0,-1.39072,0.049068242,-1.018084
alexnet_w1_mlp_simclrhn_probe2,1,352,NaN,bear,boat,16-0-10,0352_eid_dnn_16-0-10_boat_10_n04612504_1491.png,n04612504_1491.png,0.0,-1.5808377,-0.27783415,-0.92136264
alexnet_w1_mlp_simclrhn_probe2,1,353,NaN,bear,truck,16-0-10,0353_eid_dnn_16-0-10_truck_10_n03417042_910.png,n03417042_910.png,0.0,-4.622686,0.53311443,-3.6457014
alexnet_w1_mlp_simclrhn_probe2,1,354,NaN,oven,airplane,64-0-10,0354_eid_dnn_64-0-10_airplane_10_n02690373_2038.png,n02690373_2038.png,0.0,-2.7492933,0.06952174,-1.9932033
alexnet_w1_mlp_simclrhn_probe2,1,355,NaN,cat,cat,2-0-10,0355_eid_dnn_2-0-10_cat_10_n02123394_8164.png,n02123394_8164.png,1.0,1.5055647,-0.12657836,1.1540995
alexnet_w1_mlp_simclrhn_probe2,1,356,NaN,oven,oven,2-0-10,0356_eid_dnn_2-0-10_oven_10_n04111531_22097.png,n04111531_22097.png,1.0,3.4026556,-0.42792007,2.708626
alexnet_w1_mlp_simclrhn_probe2,1,357,NaN,oven,bear,128-0-10,0357_eid_dnn_128-0-10_bear_10_n02134418_278.png,n02134418_278.png,0.0,-1.8648927,-0.70622927,-0.81929886
alexnet_w1_mlp_simclrhn_probe2,1,358,NaN,bird,bird,4-0-10,0358_eid_dnn_4-0-10_bird_10_n01592084_9109.png,n01592084_9109.png,1.0,0.7971179,-0.90545017,1.2038975
alexnet_w1_mlp_simclrhn_probe2,1,359,NaN,oven,clock,32-0-10,0359_eid_dnn_32-0-10_clock_10_n03196217_3695.png,n03196217_3695.png,0.0,-1.8774881,-0.044968836,-1.2957869
alexnet_w1_mlp_simclrhn_probe2,1,360,NaN,oven,elephant,128-0-10,0360_eid_dnn_128-0-10_elephant_10_n02504458_8939.png,n02504458_8939.png,0.0,-1.4730177,-0.15726101,-0.93038046
alexnet_w1_mlp_simclrhn_probe2,1,361,NaN,airplane,elephant,2-0-10,0361_eid_dnn_2-0-10_elephant_10_n02504013_7926.png,n02504013_7926.png,0.0,0.10775738,0.4510374,-0.24273564
alexnet_w1_mlp_simclrhn_probe2,1,362,NaN,elephant,bear,4-0-10,0362_eid_dnn_4-0-10_bear_10_n02133161_11816.png,n02133161_11816.png,0.0,0.8276653,1.5540624,-0.5136403
alexnet_w1_mlp_simclrhn_probe2,1,363,NaN,bird,bird,2-0-10,0363_eid_dnn_2-0-10_bird_10_n02056570_18300.png,n02056570_18300.png,1.0,-0.23390724,-0.5595636,0.23027383
alexnet_w1_mlp_simclrhn_probe2,1,364,NaN,boat,chair,2-0-10,0364_eid_dnn_2-0-10_chair_10_n02791124_7063.png,n02791124_7063.png,0.0,-2.1180334,0.017071486,-1.5097471
alexnet_w1_mlp_simclrhn_probe2,1,365,NaN,cat,chair,8-0-10,0365_eid_dnn_8-0-10_chair_10_n03376595_8289.png,n03376595_8289.png,0.0,-1.8152461,-0.6118639,-0.8509198
alexnet_w1_mlp_simclrhn_probe2,1,366,NaN,airplane,airplane,4-0-10,0366_eid_dnn_4-0-10_airplane_10_n02690373_4434.png,n02690373_4434.png,1.0,-0.25993028,-0.2663739,0.004556327
alexnet_w1_mlp_simclrhn_probe2,1,367,NaN,truck,truck,1-0-10,0367_eid_dnn_1-0-10_truck_10_n03417042_8953.png,n03417042_8953.png,1.0,6.8801556,3.9918396,2.042348
alexnet_w1_mlp_simclrhn_probe2,1,368,NaN,oven,bear,64-0-10,0368_eid_dnn_64-0-10_bear_10_n02132136_699.png,n02132136_699.png,0.0,-0.45823509,-0.34223154,-0.08202689
alexnet_w1_mlp_simclrhn_probe2,1,369,NaN,cat,knife,8-0-10,0369_eid_dnn_8-0-10_knife_10_n03041632_20517.png,n03041632_20517.png,0.0,-1.3038472,-0.69888574,-0.42777234
alexnet_w1_mlp_simclrhn_probe2,1,370,NaN,oven,bottle,32-0-10,0370_eid_dnn_32-0-10_bottle_10_n03983396_1910.png,n03983396_1910.png,0.0,-1.9382557,-0.18604267,-1.2390018
alexnet_w1_mlp_simclrhn_probe2,1,371,NaN,oven,oven,8-0-10,0371_eid_dnn_8-0-10_oven_10_n04111531_16198.png,n04111531_16198.png,1.0,0.7302953,-0.25930494,0.69975305
alexnet_w1_mlp_simclrhn_probe2,1,372,NaN,oven,elephant,64-0-10,0372_eid_dnn_64-0-10_elephant_10_n02504013_13427.png,n02504013_13427.png,0.0,-1.0593998,0.047266006,-0.78253096
alexnet_w1_mlp_simclrhn_probe2,1,373,NaN,oven,airplane,16-0-10,0373_eid_dnn_16-0-10_airplane_10_n02690373_1075.png,n02690373_1075.png,0.0,-1.9182749,-0.35720226,-1.103845
alexnet_w1_mlp_simclrhn_probe2,1,374,NaN,oven,car,64-0-10,0374_eid_dnn_64-0-10_car_10_n03100240_5527.png,n03100240_5527.png,0.0,-4.6063876,-0.21643192,-3.1041675
alexnet_w1_mlp_simclrhn_probe2,1,375,NaN,bear,bear,1-0-10,0375_eid_dnn_1-0-10_bear_10_n02132136_4632.png,n02132136_4632.png,1.0,2.893926,0.31284446,1.8251002
alexnet_w1_mlp_simclrhn_probe2,1,376,NaN,boat,boat,1-0-10,0376_eid_dnn_1-0-10_boat_10_n04273569_6158.png,n04273569_6158.png,1.0,3.9225342,-1.0343419,3.505041
alexnet_w1_mlp_simclrhn_probe2,1,377,NaN,oven,knife,32-0-10,0377_eid_dnn_32-0-10_knife_10_n03041632_18141.png,n03041632_18141.png,0.0,-1.6210938,0.8465949,-1.7449193
alexnet_w1_mlp_simclrhn_probe2,1,378,NaN,oven,bear,16-0-10,0378_eid_dnn_16-0-10_bear_10_n02132136_6378.png,n02132136_6378.png,0.0,-0.050051562,0.07825725,-0.09072803
alexnet_w1_mlp_simclrhn_probe2,1,379,NaN,elephant,elephant,2-0-10,0379_eid_dnn_2-0-10_elephant_10_n02504458_5095.png,n02504458_5095.png,1.0,4.3578587,0.3141147,2.859359
alexnet_w1_mlp_simclrhn_probe2,1,380,NaN,elephant,elephant,4-0-10,0380_eid_dnn_4-0-10_elephant_10_n02504013_10582.png,n02504013_10582.png,1.0,3.9247458,2.4936438,1.011942
alexnet_w1_mlp_simclrhn_probe2,1,381,NaN,bear,chair,16-0-10,0381_eid_dnn_16-0-10_chair_10_n04099969_28139.png,n04099969_28139.png,0.0,-4.4207363,-0.050561275,-3.0901804
alexnet_w1_mlp_simclrhn_probe2,1,382,NaN,keyboard,keyboard,2-0-10,0382_eid_dnn_2-0-10_keyboard_10_n04505470_279.png,n04505470_279.png,1.0,9.463185,1.9223393,5.3321834
alexnet_w1_mlp_simclrhn_probe2,1,383,NaN,bear,car,8-0-10,0383_eid_dnn_8-0-10_car_10_n02814533_79696.png,n02814533_79696.png,0.0,-6.8178673,0.2103742,-4.9697175
alexnet_w1_mlp_simclrhn_probe2,1,384,NaN,oven,cat,64-0-10,0384_eid_dnn_64-0-10_cat_10_n02124075_7984.png,n02124075_7984.png,0.0,-1.2249005,0.014855742,-0.87664
alexnet_w1_mlp_simclrhn_probe2,1,385,NaN,oven,car,4-0-10,0385_eid_dnn_4-0-10_car_10_n02814533_27327.png,n02814533_27327.png,0.0,-2.2837565,0.8201605,-2.1948009
alexnet_w1_mlp_simclrhn_probe2,1,386,NaN,bear,bear,4-0-10,0386_eid_dnn_4-0-10_bear_10_n02134084_967.png,n02134084_967.png,1.0,0.87715703,0.6683981,0.14761487
alexnet_w1_mlp_simclrhn_probe2,1,387,NaN,oven,bear,64-0-10,0387_eid_dnn_64-0-10_bear_10_n02132136_949.png,n02132136_949.png,0.0,-0.7738049,-0.09661758,-0.47884375
alexnet_w1_mlp_simclrhn_probe2,1,388,NaN,bear,bicycle,16-0-10,0388_eid_dnn_16-0-10_bicycle_10_n03792782_2905.png,n03792782_2905.png,0.0,-1.468969,0.29704446,-1.2487601
alexnet_w1_mlp_simclrhn_probe2,1,389,NaN,oven,bicycle,8-0-10,0389_eid_dnn_8-0-10_bicycle_10_n03792782_34550.png,n03792782_34550.png,0.0,-3.8717196,0.19272242,-2.8739946
alexnet_w1_mlp_simclrhn_probe2,1,390,NaN,elephant,bear,16-0-10,0390_eid_dnn_16-0-10_bear_10_n02132136_9055.png,n02132136_9055.png,0.0,0.83101815,0.9577662,-0.08962439
alexnet_w1_mlp_simclrhn_probe2,1,391,NaN,oven,bear,64-0-10,0391_eid_dnn_64-0-10_bear_10_n02134084_7904.png,n02134084_7904.png,0.0,-0.66637516,-0.39106554,-0.1946733
alexnet_w1_mlp_simclrhn_probe2,1,392,NaN,bottle,clock,4-0-10,0392_eid_dnn_4-0-10_clock_10_n04548280_4526.png,n04548280_4526.png,0.0,0.72054106,1.3934,-0.4757831
alexnet_w1_mlp_simclrhn_probe2,1,393,NaN,keyboard,bottle,1-0-10,0393_eid_dnn_1-0-10_bottle_10_n02823428_685.png,n02823428_685.png,0.0,0.4691945,0.5097601,-0.028684197
alexnet_w1_mlp_simclrhn_probe2,1,394,NaN,oven,keyboard,64-0-10,0394_eid_dnn_64-0-10_keyboard_10_n04505470_3935.png,n04505470_3935.png,0.0,-3.798898,-0.028550856,-2.666038
alexnet_w1_mlp_simclrhn_probe2,1,395,NaN,oven,dog,64-0-10,0395_eid_dnn_64-0-10_dog_10_n02096051_3825.png,n02096051_3825.png,0.0,-1.0763305,-0.11848985,-0.6772956
alexnet_w1_mlp_simclrhn_probe2,1,396,NaN,dog,dog,2-0-10,0396_eid_dnn_2-0-10_dog_10_n02089078_10601.png,n02089078_10601.png,1.0,1.6576937,-0.032901984,1.1954317
alexnet_w1_mlp_simclrhn_probe2,1,397,NaN,clock,clock,2-0-10,0397_eid_dnn_2-0-10_clock_10_n02708093_5236.png,n02708093_5236.png,1.0,6.660621,-1.2428104,5.58857
alexnet_w1_mlp_simclrhn_probe2,1,398,NaN,cat,cat,2-0-10,0398_eid_dnn_2-0-10_cat_10_n02123159_2682.png,n02123159_2682.png,1.0,3.0916908,-0.88626343,2.8128383
alexnet_w1_mlp_simclrhn_probe2,1,399,NaN,chair,oven,1-0-10,0399_eid_dnn_1-0-10_oven_10_n04111531_10216.png,n04111531_10216.png,0.0,0.69824857,1.142991,-0.31448036
alexnet_w1_mlp_simclrhn_probe2,1,400,NaN,bicycle,boat,2-0-10,0400_eid_dnn_2-0-10_boat_10_n02951358_7137.png,n02951358_7137.png,0.0,-0.020118868,0.085317135,-0.07455452
alexnet_w1_mlp_simclrhn_probe2,1,401,NaN,oven,bird,64-0-10,0401_eid_dnn_64-0-10_bird_10_n02007558_6127.png,n02007558_6127.png,0.0,-1.749625,0.16295736,-1.3524
alexnet_w1_mlp_simclrhn_probe2,1,402,NaN,bear,dog,16-0-10,0402_eid_dnn_16-0-10_dog_10_n02096051_4804.png,n02096051_4804.png,0.0,-0.8318746,0.29613903,-0.7976261
alexnet_w1_mlp_simclrhn_probe2,1,403,NaN,bear,bottle,8-0-10,0403_eid_dnn_8-0-10_bottle_10_n03983396_13764.png,n03983396_13764.png,0.0,-1.0722007,0.21742079,-0.9119001
alexnet_w1_mlp_simclrhn_probe2,1,404,NaN,oven,knife,32-0-10,0404_eid_dnn_32-0-10_knife_10_n03041632_105081.png,n03041632_105081.png,0.0,-1.708078,0.5231434,-1.5777118
alexnet_w1_mlp_simclrhn_probe2,1,405,NaN,bear,boat,8-0-10,0405_eid_dnn_8-0-10_boat_10_n03344393_3535.png,n03344393_3535.png,0.0,-0.7606585,0.10057205,-0.60898197
alexnet_w1_mlp_simclrhn_probe2,1,406,NaN,bear,keyboard,64-0-10,0406_eid_dnn_64-0-10_keyboard_10_n03085013_22929.png,n03085013_22929.png,0.0,-2.480376,-0.3812756,-1.4842881
alexnet_w1_mlp_simclrhn_probe2,1,407,NaN,bottle,bottle,1-0-10,0407_eid_dnn_1-0-10_bottle_10_n04579145_5979.png,n04579145_5979.png,1.0,3.054712,-2.3851697,3.8465774
alexnet_w1_mlp_simclrhn_probe2,1,408,NaN,knife,knife,2-0-10,0408_eid_dnn_2-0-10_knife_10_n03041632_31301.png,n03041632_31301.png,1.0,1.7983029,-0.6614135,1.7392821
alexnet_w1_mlp_simclrhn_probe2,1,409,NaN,oven,car,128-0-10,0409_eid_dnn_128-0-10_car_10_n04285008_14653.png,n04285008_14653.png,0.0,-6.771681,-1.5455022,-3.6954665
alexnet_w1_mlp_simclrhn_probe2,1,410,NaN,oven,clock,16-0-10,0410_eid_dnn_16-0-10_clock_10_n03196217_1601.png,n03196217_1601.png,0.0,-4.480223,0.3943048,-3.446812
alexnet_w1_mlp_simclrhn_probe2,1,411,NaN,oven,bicycle,8-0-10,0411_eid_dnn_8-0-10_bicycle_10_n02835271_25268.png,n02835271_25268.png,0.0,-3.17078,-0.3842436,-1.9703786
alexnet_w1_mlp_simclrhn_probe2,1,412,NaN,bear,bird,16-0-10,0412_eid_dnn_16-0-10_bird_10_n02037110_875.png,n02037110_875.png,0.0,-0.5812622,-0.46670425,-0.08100469
alexnet_w1_mlp_simclrhn_probe2,1,413,NaN,oven,airplane,128-0-10,0413_eid_dnn_128-0-10_airplane_10_n02690373_6807.png,n02690373_6807.png,0.0,-4.702528,-0.50673187,-2.9668758
alexnet_w1_mlp_simclrhn_probe2,1,414,NaN,oven,clock,16-0-10,0414_eid_dnn_16-0-10_clock_10_n04548280_10066.png,n04548280_10066.png,0.0,-1.4686265,-0.4591543,-0.7138046
alexnet_w1_mlp_simclrhn_probe2,1,415,NaN,oven,boat,64-0-10,0415_eid_dnn_64-0-10_boat_10_n02951358_15252.png,n02951358_15252.png,0.0,-3.1062822,-0.46072975,-1.8706881
alexnet_w1_mlp_simclrhn_probe2,1,416,NaN,oven,car,64-0-10,0416_eid_dnn_64-0-10_car_10_n02814533_4803.png,n02814533_4803.png,0.0,-5.622476,-0.55587065,-3.582631
alexnet_w1_mlp_simclrhn_probe2,1,417,NaN,oven,car,16-0-10,0417_eid_dnn_16-0-10_car_10_n03100240_24544.png,n03100240_24544.png,0.0,-5.70431,0.447707,-4.350133
alexnet_w1_mlp_simclrhn_probe2,1,418,NaN,oven,bear,128-0-10,0418_eid_dnn_128-0-10_bear_10_n02132136_4219.png,n02132136_4219.png,0.0,-1.1672201,-0.63171476,-0.3786595
alexnet_w1_mlp_simclrhn_probe2,1,419,NaN,bear,bicycle,32-0-10,0419_eid_dnn_32-0-10_bicycle_10_n02835271_507.png,n02835271_507.png,0.0,-1.4437647,-0.017425604,-1.008574
alexnet_w1_mlp_simclrhn_probe2,1,420,NaN,boat,boat,1-0-10,0420_eid_dnn_1-0-10_boat_10_n04273569_13290.png,n04273569_13290.png,1.0,3.5695858,1.5854201,1.403017
alexnet_w1_mlp_simclrhn_probe2,1,421,NaN,bicycle,bicycle,2-0-10,0421_eid_dnn_2-0-10_bicycle_10_n03792782_42626.png,n03792782_42626.png,1.0,-0.29508692,-0.32131374,0.018545162
alexnet_w1_mlp_simclrhn_probe2,1,422,NaN,cat,dog,8-0-10,0422_eid_dnn_8-0-10_dog_10_n02106382_3856.png,n02106382_3856.png,0.0,-0.19649944,0.36283872,-0.3955118
alexnet_w1_mlp_simclrhn_probe2,1,423,NaN,oven,clock,1-0-10,0423_eid_dnn_1-0-10_clock_10_n02708093_274.png,n02708093_274.png,0.0,-0.69867545,-0.20050299,-0.35226113
alexnet_w1_mlp_simclrhn_probe2,1,424,NaN,oven,bottle,32-0-10,0424_eid_dnn_32-0-10_bottle_10_n04591713_5921.png,n04591713_5921.png,0.0,-2.4265285,0.30444553,-1.9310902
alexnet_w1_mlp_simclrhn_probe2,1,425,NaN,elephant,elephant,1-0-10,0425_eid_dnn_1-0-10_elephant_10_n02504458_3851.png,n02504458_3851.png,1.0,6.3358374,0.9805237,3.7867787
alexnet_w1_mlp_simclrhn_probe2,1,426,NaN,bear,dog,32-0-10,0426_eid_dnn_32-0-10_dog_10_n02105855_995.png,n02105855_995.png,0.0,-0.935365,-0.08583653,-0.60070735
alexnet_w1_mlp_simclrhn_probe2,1,427,NaN,airplane,airplane,2-0-10,0427_eid_dnn_2-0-10_airplane_10_n02690373_1979.png,n02690373_1979.png,1.0,0.29755074,-0.5990336,0.6339809
alexnet_w1_mlp_simclrhn_probe2,1,428,NaN,airplane,airplane,1-0-10,0428_eid_dnn_1-0-10_airplane_10_n02690373_6455.png,n02690373_6455.png,1.0,4.7439065,0.56850654,2.9524536
alexnet_w1_mlp_simclrhn_probe2,1,429,NaN,oven,oven,1-0-10,0429_eid_dnn_1-0-10_oven_10_n04111531_18979.png,n04111531_18979.png,1.0,3.8275616,-1.216865,3.5669482
alexnet_w1_mlp_simclrhn_probe2,1,430,NaN,oven,oven,32-0-10,0430_eid_dnn_32-0-10_oven_10_n04111531_16795.png,n04111531_16795.png,1.0,-0.5760978,-0.6826416,0.07533787
alexnet_w1_mlp_simclrhn_probe2,1,431,NaN,oven,truck,4-0-10,0431_eid_dnn_4-0-10_truck_10_n04467665_41076.png,n04467665_41076.png,0.0,-1.4025393,0.16673112,-1.1096418
alexnet_w1_mlp_simclrhn_probe2,1,432,NaN,oven,bird,16-0-10,0432_eid_dnn_16-0-10_bird_10_n01534433_31697.png,n01534433_31697.png,0.0,-1.3784359,-0.32409164,-0.74553394
alexnet_w1_mlp_simclrhn_probe2,1,433,NaN,oven,keyboard,128-0-10,0433_eid_dnn_128-0-10_keyboard_10_n04505470_4289.png,n04505470_4289.png,0.0,-3.6574757,-0.8865347,-1.9593512
alexnet_w1_mlp_simclrhn_probe2,1,434,NaN,keyboard,keyboard,4-0-10,0434_eid_dnn_4-0-10_keyboard_10_n03085013_20727.png,n03085013_20727.png,1.0,3.3038867,0.033486214,2.3125224
alexnet_w1_mlp_simclrhn_probe2,1,435,NaN,bear,boat,8-0-10,0435_eid_dnn_8-0-10_boat_10_n04273569_7315.png,n04273569_7315.png,0.0,-2.5129085,-1.0990254,-0.99976635
alexnet_w1_mlp_simclrhn_probe2,1,436,NaN,car,car,1-0-10,0436_eid_dnn_1-0-10_car_10_n03100240_16646.png,n03100240_16646.png,1.0,2.5903165,0.67255557,1.3560618
alexnet_w1_mlp_simclrhn_probe2,1,437,NaN,oven,car,16-0-10,0437_eid_dnn_16-0-10_car_10_n03100240_5281.png,n03100240_5281.png,0.0,-6.1935782,0.20214987,-4.522463
alexnet_w1_mlp_simclrhn_probe2,1,438,NaN,bird,airplane,128-0-10,0438_eid_dnn_128-0-10_airplane_10_n02690373_1670.png,n02690373_1670.png,0.0,-2.6801918,-0.49669176,-1.5439677
alexnet_w1_mlp_simclrhn_probe2,1,439,NaN,oven,airplane,128-0-10,0439_eid_dnn_128-0-10_airplane_10_n02690373_9293.png,n02690373_9293.png,0.0,-6.0678,-0.73785275,-3.768842
alexnet_w1_mlp_simclrhn_probe2,1,440,NaN,oven,truck,128-0-10,0440_eid_dnn_128-0-10_truck_10_n03796401_15846.png,n03796401_15846.png,0.0,-5.4084206,-0.5446434,-3.43921
alexnet_w1_mlp_simclrhn_probe2,1,441,NaN,oven,truck,32-0-10,0441_eid_dnn_32-0-10_truck_10_n03796401_6971.png,n03796401_6971.png,0.0,-4.4579287,0.4003638,-3.4353316
alexnet_w1_mlp_simclrhn_probe2,1,442,NaN,oven,oven,128-0-10,0442_eid_dnn_128-0-10_oven_10_n04111531_10724.png,n04111531_10724.png,1.0,0.004856311,-1.3844551,0.98239154
alexnet_w1_mlp_simclrhn_probe2,1,443,NaN,cat,keyboard,8-0-10,0443_eid_dnn_8-0-10_keyboard_10_n03085013_22187.png,n03085013_22187.png,0.0,-4.1060853,1.0668515,-3.6578188
alexnet_w1_mlp_simclrhn_probe2,1,444,NaN,bear,oven,8-0-10,0444_eid_dnn_8-0-10_oven_10_n04111531_4671.png,n04111531_4671.png,0.0,-1.1972066,0.23472884,-1.0125313
alexnet_w1_mlp_simclrhn_probe2,1,445,NaN,airplane,airplane,4-0-10,0445_eid_dnn_4-0-10_airplane_10_n02690373_5142.png,n02690373_5142.png,1.0,-0.5404213,-0.68328106,0.1010171
alexnet_w1_mlp_simclrhn_probe2,1,446,NaN,elephant,elephant,4-0-10,0446_eid_dnn_4-0-10_elephant_10_n02504013_8562.png,n02504013_8562.png,1.0,2.7401218,1.1160808,1.1483705
alexnet_w1_mlp_simclrhn_probe2,1,447,NaN,truck,truck,1-0-10,0447_eid_dnn_1-0-10_truck_10_n03417042_9668.png,n03417042_9668.png,1.0,1.9255611,1.2719258,0.46218994
alexnet_w1_mlp_simclrhn_probe2,1,448,NaN,cat,bottle,8-0-10,0448_eid_dnn_8-0-10_bottle_10_n03983396_10330.png,n03983396_10330.png,0.0,-1.7987605,-0.16006488,-1.1587329
alexnet_w1_mlp_simclrhn_probe2,1,449,NaN,oven,elephant,128-0-10,0449_eid_dnn_128-0-10_elephant_10_n02504458_4395.png,n02504458_4395.png,0.0,-2.1519806,-0.6619573,-1.0536057
alexnet_w1_mlp_simclrhn_probe2,1,450,NaN,oven,boat,64-0-10,0450_eid_dnn_64-0-10_boat_10_n03344393_4562.png,n03344393_4562.png,0.0,-2.380118,-0.09428039,-1.6163312
alexnet_w1_mlp_simclrhn_probe2,1,451,NaN,oven,oven,2-0-10,0451_eid_dnn_2-0-10_oven_10_n04111531_10011.png,n04111531_10011.png,1.0,2.102397,-1.3511301,2.4420123
alexnet_w1_mlp_simclrhn_probe2,1,452,NaN,oven,oven,64-0-10,0452_eid_dnn_64-0-10_oven_10_n04111531_13797.png,n04111531_13797.png,1.0,0.067050636,-1.0749896,0.8075444
alexnet_w1_mlp_simclrhn_probe2,1,453,NaN,airplane,boat,2-0-10,0453_eid_dnn_2-0-10_boat_10_n03662601_840.png,n03662601_840.png,0.0,0.8256279,1.4730463,-0.45779392
alexnet_w1_mlp_simclrhn_probe2,1,454,NaN,oven,truck,16-0-10,0454_eid_dnn_16-0-10_truck_10_n03417042_17037.png,n03417042_17037.png,0.0,-3.9415972,0.06407544,-2.8324382
alexnet_w1_mlp_simclrhn_probe2,1,455,NaN,oven,cat,64-0-10,0455_eid_dnn_64-0-10_cat_10_n02125311_2576.png,n02125311_2576.png,0.0,-0.7310123,0.09247858,-0.58229595
alexnet_w1_mlp_simclrhn_probe2,1,456,NaN,oven,keyboard,32-0-10,0456_eid_dnn_32-0-10_keyboard_10_n03085013_3264.png,n03085013_3264.png,0.0,-1.5290164,-0.35705832,-0.8286995
alexnet_w1_mlp_simclrhn_probe2,1,457,NaN,oven,dog,64-0-10,0457_eid_dnn_64-0-10_dog_10_n02097130_3519.png,n02097130_3519.png,0.0,-1.8593113,-0.79604924,-0.7518399
alexnet_w1_mlp_simclrhn_probe2,1,458,NaN,bear,airplane,16-0-10,0458_eid_dnn_16-0-10_airplane_10_n02690373_4486.png,n02690373_4486.png,0.0,-1.9351773,-0.48526755,-1.025241
alexnet_w1_mlp_simclrhn_probe2,1,459,NaN,oven,bottle,16-0-10,0459_eid_dnn_16-0-10_bottle_10_n03983396_19635.png,n03983396_19635.png,0.0,-1.7735672,0.94326377,-1.9210896
alexnet_w1_mlp_simclrhn_probe2,1,460,NaN,bear,airplane,16-0-10,0460_eid_dnn_16-0-10_airplane_10_n02690373_1426.png,n02690373_1426.png,0.0,-2.706513,-0.12099436,-1.8282378
alexnet_w1_mlp_simclrhn_probe2,1,461,NaN,oven,oven,4-0-10,0461_eid_dnn_4-0-10_oven_10_n04111531_5279.png,n04111531_5279.png,1.0,0.6622058,-0.32133424,0.6954678
alexnet_w1_mlp_simclrhn_probe2,1,462,NaN,oven,bottle,64-0-10,0462_eid_dnn_64-0-10_bottle_10_n03983396_4024.png,n03983396_4024.png,0.0,-1.5601441,-0.3973298,-0.82223386
alexnet_w1_mlp_simclrhn_probe2,1,463,NaN,bear,bear,8-0-10,0463_eid_dnn_8-0-10_bear_10_n02133161_12751.png,n02133161_12751.png,1.0,0.38280022,0.26116657,0.08600798
alexnet_w1_mlp_simclrhn_probe2,1,464,NaN,bear,car,8-0-10,0464_eid_dnn_8-0-10_car_10_n02814533_12271.png,n02814533_12271.png,0.0,-5.8002286,1.1025584,-4.8810077
alexnet_w1_mlp_simclrhn_probe2,1,465,NaN,cat,bottle,16-0-10,0465_eid_dnn_16-0-10_bottle_10_n04560804_5068.png,n04560804_5068.png,0.0,-2.153578,-0.20785965,-1.3758307
alexnet_w1_mlp_simclrhn_probe2,1,466,NaN,oven,bottle,128-0-10,0466_eid_dnn_128-0-10_bottle_10_n04579145_1168.png,n04579145_1168.png,0.0,-2.0772583,-0.9473363,-0.7989755
alexnet_w1_mlp_simclrhn_probe2,1,467,NaN,oven,knife,64-0-10,0467_eid_dnn_64-0-10_knife_10_n03041632_2973.png,n03041632_2973.png,0.0,-1.499116,0.041456223,-1.089349
alexnet_w1_mlp_simclrhn_probe2,1,468,NaN,bear,airplane,16-0-10,0468_eid_dnn_16-0-10_airplane_10_n02690373_19329.png,n02690373_19329.png,0.0,-2.329503,-0.33282548,-1.4118643
alexnet_w1_mlp_simclrhn_probe2,1,469,NaN,oven,bottle,32-0-10,0469_eid_dnn_32-0-10_bottle_10_n04560804_1356.png,n04560804_1356.png,0.0,-1.2833117,0.37826842,-1.1749146
alexnet_w1_mlp_simclrhn_probe2,1,470,NaN,bear,bear,8-0-10,0470_eid_dnn_8-0-10_bear_10_n02134084_3960.png,n02134084_3960.png,1.0,0.9101007,0.7314773,0.1263058
alexnet_w1_mlp_simclrhn_probe2,1,471,NaN,boat,boat,4-0-10,0471_eid_dnn_4-0-10_boat_10_n04612504_27504.png,n04612504_27504.png,1.0,0.3518399,0.06300905,0.20423426
alexnet_w1_mlp_simclrhn_probe2,1,472,NaN,dog,dog,4-0-10,0472_eid_dnn_4-0-10_dog_10_n02099601_9973.png,n02099601_9973.png,1.0,0.55938965,0.033833474,0.37162435
alexnet_w1_mlp_simclrhn_probe2,1,473,NaN,oven,truck,64-0-10,0473_eid_dnn_64-0-10_truck_10_n03417042_26843.png,n03417042_26843.png,0.0,-3.9527493,0.58203703,-3.2065783
alexnet_w1_mlp_simclrhn_probe2,1,474,NaN,oven,knife,64-0-10,0474_eid_dnn_64-0-10_knife_10_n03041632_55711.png,n03041632_55711.png,0.0,-1.3359911,-0.52110916,-0.5762086
alexnet_w1_mlp_simclrhn_probe2,1,475,NaN,bear,elephant,8-0-10,0475_eid_dnn_8-0-10_elephant_10_n02504013_1986.png,n02504013_1986.png,0.0,-0.29197362,1.6498475,-1.3730749
alexnet_w1_mlp_simclrhn_probe2,1,476,NaN,knife,keyboard,4-0-10,0476_eid_dnn_4-0-10_keyboard_10_n03085013_9475.png,n03085013_9475.png,0.0,-1.032638,-0.28244868,-0.53046393
alexnet_w1_mlp_simclrhn_probe2,1,477,NaN,oven,elephant,32-0-10,0477_eid_dnn_32-0-10_elephant_10_n02504458_3381.png,n02504458_3381.png,0.0,-0.5008317,-0.15792121,-0.24247436
alexnet_w1_mlp_simclrhn_probe2,1,478,NaN,cat,airplane,8-0-10,0478_eid_dnn_8-0-10_airplane_10_n02690373_1161.png,n02690373_1161.png,0.0,-2.2741933,-0.19832565,-1.4678601
alexnet_w1_mlp_simclrhn_probe2,1,479,NaN,oven,cat,64-0-10,0479_eid_dnn_64-0-10_cat_10_n02124075_7474.png,n02124075_7474.png,0.0,-1.3892536,-0.07114598,-0.93204284
alexnet_w1_mlp_simclrhn_probe2,1,480,NaN,cat,cat,4-0-10,0480_eid_dnn_4-0-10_cat_10_n02125311_9074.png,n02125311_9074.png,1.0,0.084651746,-0.27773315,0.2562448
alexnet_w1_mlp_simclrhn_probe2,1,481,NaN,oven,airplane,128-0-10,0481_eid_dnn_128-0-10_airplane_10_n02690373_2867.png,n02690373_2867.png,0.0,-4.4955945,0.15826671,-3.2907767
alexnet_w1_mlp_simclrhn_probe2,1,482,NaN,elephant,elephant,2-0-10,0482_eid_dnn_2-0-10_elephant_10_n02504013_1692.png,n02504013_1692.png,1.0,0.70526683,0.17085338,0.3778874
alexnet_w1_mlp_simclrhn_probe2,1,483,NaN,bear,bird,8-0-10,0483_eid_dnn_8-0-10_bird_10_n02009912_11813.png,n02009912_11813.png,0.0,-0.46049115,0.40648946,-0.6130479
alexnet_w1_mlp_simclrhn_probe2,1,484,NaN,bird,bottle,16-0-10,0484_eid_dnn_16-0-10_bottle_10_n04557648_10302.png,n04557648_10302.png,0.0,-1.9108258,-0.22568825,-1.1915723
alexnet_w1_mlp_simclrhn_probe2,1,485,NaN,oven,keyboard,4-0-10,0485_eid_dnn_4-0-10_keyboard_10_n03085013_20302.png,n03085013_20302.png,0.0,-1.6172096,0.9554087,-1.8191159
alexnet_w1_mlp_simclrhn_probe2,1,486,NaN,oven,elephant,128-0-10,0486_eid_dnn_128-0-10_elephant_10_n02504458_5827.png,n02504458_5827.png,0.0,-2.4104066,-1.3511901,-0.7489792
alexnet_w1_mlp_simclrhn_probe2,1,487,NaN,keyboard,knife,1-0-10,0487_eid_dnn_1-0-10_knife_10_n03041632_11327.png,n03041632_11327.png,0.0,0.4395254,1.7408718,-0.9201909
alexnet_w1_mlp_simclrhn_probe2,1,488,NaN,bird,bird,4-0-10,0488_eid_dnn_4-0-10_bird_10_n01795545_17770.png,n01795545_17770.png,1.0,-0.33701503,-0.9620412,0.44196025
alexnet_w1_mlp_simclrhn_probe2,1,489,NaN,oven,bicycle,4-0-10,0489_eid_dnn_4-0-10_bicycle_10_n02835271_10932.png,n02835271_10932.png,0.0,-2.406842,-0.28580278,-1.4998012
alexnet_w1_mlp_simclrhn_probe2,1,490,NaN,cat,cat,2-0-10,0490_eid_dnn_2-0-10_cat_10_n02123597_14233.png,n02123597_14233.png,1.0,0.039514523,-0.6853759,0.512575
alexnet_w1_mlp_simclrhn_probe2,1,491,NaN,bird,bird,1-0-10,0491_eid_dnn_1-0-10_bird_10_n01614925_7662.png,n01614925_7662.png,1.0,1.901952,-1.1123538,2.131436
alexnet_w1_mlp_simclrhn_probe2,1,492,NaN,oven,truck,16-0-10,0492_eid_dnn_16-0-10_truck_10_n03417042_5875.png,n03417042_5875.png,0.0,-2.6677952,0.57020557,-2.2896123
alexnet_w1_mlp_simclrhn_probe2,1,493,NaN,bear,bear,1-0-10,0493_eid_dnn_1-0-10_bear_10_n02134418_304.png,n02134418_304.png,1.0,2.2667422,1.1502806,0.7894576
alexnet_w1_mlp_simclrhn_probe2,1,494,NaN,cat,bird,1-0-10,0494_eid_dnn_1-0-10_bird_10_n01622779_5148.png,n01622779_5148.png,0.0,-1.4557556,0.8892312,-1.6581562
alexnet_w1_mlp_simclrhn_probe2,1,495,NaN,elephant,knife,1-0-10,0495_eid_dnn_1-0-10_knife_10_n03041632_44230.png,n03041632_44230.png,0.0,-0.7987164,-0.58595234,-0.15044694
alexnet_w1_mlp_simclrhn_probe2,1,496,NaN,oven,boat,32-0-10,0496_eid_dnn_32-0-10_boat_10_n03662601_8650.png,n03662601_8650.png,0.0,-1.4521055,-0.035375096,-1.0017797
alexnet_w1_mlp_simclrhn_probe2,1,497,NaN,bear,oven,16-0-10,0497_eid_dnn_16-0-10_oven_10_n04111531_4346.png,n04111531_4346.png,0.0,0.18222377,0.26143226,-0.056008864
alexnet_w1_mlp_simclrhn_probe2,1,498,NaN,clock,clock,2-0-10,0498_eid_dnn_2-0-10_clock_10_n03196217_2201.png,n03196217_2201.png,1.0,0.5889027,0.11234515,0.3369771
alexnet_w1_mlp_simclrhn_probe2,1,499,NaN,oven,bicycle,64-0-10,0499_eid_dnn_64-0-10_bicycle_10_n02835271_8757.png,n02835271_8757.png,0.0,-1.0720541,-0.49553567,-0.40766013
alexnet_w1_mlp_simclrhn_probe2,1,500,NaN,cat,keyboard,8-0-10,0500_eid_dnn_8-0-10_keyboard_10_n03085013_23563.png,n03085013_23563.png,0.0,-2.980139,0.51555735,-2.4718306
alexnet_w1_mlp_simclrhn_probe2,1,501,NaN,oven,boat,64-0-10,0501_eid_dnn_64-0-10_boat_10_n04273569_15879.png,n04273569_15879.png,0.0,-2.8675783,-0.33967268,-1.7874991
alexnet_w1_mlp_simclrhn_probe2,1,502,NaN,bear,truck,64-0-10,0502_eid_dnn_64-0-10_truck_10_n04467665_30588.png,n04467665_30588.png,0.0,-2.6301801,-0.52482796,-1.4887089
alexnet_w1_mlp_simclrhn_probe2,1,503,NaN,oven,truck,16-0-10,0503_eid_dnn_16-0-10_truck_10_n03417042_1875.png,n03417042_1875.png,0.0,-5.2605066,0.34218085,-3.9616983
alexnet_w1_mlp_simclrhn_probe2,1,504,NaN,oven,cat,128-0-10,0504_eid_dnn_128-0-10_cat_10_n02123394_6014.png,n02123394_6014.png,0.0,-2.025578,-0.03631542,-1.4066211
alexnet_w1_mlp_simclrhn_probe2,1,505,NaN,boat,boat,1-0-10,0505_eid_dnn_1-0-10_boat_10_n04273569_10847.png,n04273569_10847.png,1.0,2.9320781,-0.1928613,2.209666
alexnet_w1_mlp_simclrhn_probe2,1,506,NaN,oven,elephant,64-0-10,0506_eid_dnn_64-0-10_elephant_10_n02504013_5495.png,n02504013_5495.png,0.0,-0.8945719,-0.14859472,-0.52748555
alexnet_w1_mlp_simclrhn_probe2,1,507,NaN,oven,bottle,128-0-10,0507_eid_dnn_128-0-10_bottle_10_n04560804_16276.png,n04560804_16276.png,0.0,-0.6895986,-0.22125827,-0.33116663
alexnet_w1_mlp_simclrhn_probe2,1,508,NaN,truck,car,1-0-10,0508_eid_dnn_1-0-10_car_10_n04285008_1243.png,n04285008_1243.png,0.0,0.8811497,1.1112726,-0.16272144
alexnet_w1_mlp_simclrhn_probe2,1,509,NaN,bear,keyboard,32-0-10,0509_eid_dnn_32-0-10_keyboard_10_n03085013_22027.png,n03085013_22027.png,0.0,-3.242529,-0.41299236,-2.0007844
alexnet_w1_mlp_simclrhn_probe2,1,510,NaN,oven,cat,32-0-10,0510_eid_dnn_32-0-10_cat_10_n02123045_12766.png,n02123045_12766.png,0.0,-0.75925493,0.18117425,-0.66498387
alexnet_w1_mlp_simclrhn_probe2,1,511,NaN,oven,chair,64-0-10,0511_eid_dnn_64-0-10_chair_10_n04429376_29954.png,n04429376_29954.png,0.0,-1.7532709,-0.22234575,-1.0825275
alexnet_w1_mlp_simclrhn_probe2,1,512,NaN,oven,elephant,32-0-10,0512_eid_dnn_32-0-10_elephant_10_n02504013_5678.png,n02504013_5678.png,0.0,-0.5770822,-0.020564914,-0.39351717
alexnet_w1_mlp_simclrhn_probe2,1,513,NaN,knife,chair,4-0-10,0513_eid_dnn_4-0-10_chair_10_n03376595_6333.png,n03376595_6333.png,0.0,-1.981708,-1.0452696,-0.662162
alexnet_w1_mlp_simclrhn_probe2,1,514,NaN,oven,keyboard,2-0-10,0514_eid_dnn_2-0-10_keyboard_10_n03085013_22605.png,n03085013_22605.png,0.0,0.4400823,0.9864218,-0.38632038
alexnet_w1_mlp_simclrhn_probe2,1,515,NaN,oven,car,32-0-10,0515_eid_dnn_32-0-10_car_10_n04285008_16557.png,n04285008_16557.png,0.0,-6.5790215,1.506599,-5.7173977
alexnet_w1_mlp_simclrhn_probe2,1,516,NaN,oven,bottle,64-0-10,0516_eid_dnn_64-0-10_bottle_10_n02823428_1034.png,n02823428_1034.png,0.0,-2.2245395,0.18663594,-1.7049586
alexnet_w1_mlp_simclrhn_probe2,1,517,NaN,bear,elephant,16-0-10,0517_eid_dnn_16-0-10_elephant_10_n02504013_7777.png,n02504013_7777.png,0.0,-2.100653,-0.26426178,-1.2985247
alexnet_w1_mlp_simclrhn_probe2,1,518,NaN,bottle,knife,4-0-10,0518_eid_dnn_4-0-10_knife_10_n03041632_14293.png,n03041632_14293.png,0.0,-0.69121456,-0.6693125,-0.015487113
alexnet_w1_mlp_simclrhn_probe2,1,519,NaN,cat,knife,8-0-10,0519_eid_dnn_8-0-10_knife_10_n03041632_50423.png,n03041632_50423.png,0.0,-2.0888174,0.0018530091,-1.4783272
alexnet_w1_mlp_simclrhn_probe2,1,520,NaN,chair,chair,2-0-10,0520_eid_dnn_2-0-10_chair_10_n03376595_3043.png,n03376595_3043.png,1.0,0.34953249,0.12322529,0.16002336
alexnet_w1_mlp_simclrhn_probe2,1,521,NaN,cat,cat,8-0-10,0521_eid_dnn_8-0-10_cat_10_n02123394_2434.png,n02123394_2434.png,1.0,0.20429932,0.073578924,0.092433274
alexnet_w1_mlp_simclrhn_probe2,1,522,NaN,truck,truck,1-0-10,0522_eid_dnn_1-0-10_truck_10_n04467665_54079.png,n04467665_54079.png,1.0,0.75881696,0.6296679,0.09132219
alexnet_w1_mlp_simclrhn_probe2,1,523,NaN,elephant,bird,2-0-10,0523_eid_dnn_2-0-10_bird_10_n01855672_1001.png,n01855672_1001.png,0.0,-0.9512285,0.1856645,-0.8039048
alexnet_w1_mlp_simclrhn_probe2,1,524,NaN,bottle,bottle,1-0-10,0524_eid_dnn_1-0-10_bottle_10_n04560804_6112.png,n04560804_6112.png,1.0,1.3268528,-0.14549378,1.0411062
alexnet_w1_mlp_simclrhn_probe2,1,525,NaN,oven,keyboard,1-0-10,0525_eid_dnn_1-0-10_keyboard_10_n04505470_1744.png,n04505470_1744.png,0.0,1.5327102,2.2216806,-0.48717567
alexnet_w1_mlp_simclrhn_probe2,1,526,NaN,oven,boat,32-0-10,0526_eid_dnn_32-0-10_boat_10_n02951358_15087.png,n02951358_15087.png,0.0,-3.5779622,0.53352046,-2.9072573
alexnet_w1_mlp_simclrhn_probe2,1,527,NaN,elephant,bottle,4-0-10,0527_eid_dnn_4-0-10_bottle_10_n04557648_10051.png,n04557648_10051.png,0.0,-1.1033942,0.7324791,-1.2981584
alexnet_w1_mlp_simclrhn_probe2,1,528,NaN,oven,bear,64-0-10,0528_eid_dnn_64-0-10_bear_10_n02134084_5794.png,n02134084_5794.png,0.0,-0.7369331,0.19891648,-0.6617456
alexnet_w1_mlp_simclrhn_probe2,1,529,NaN,keyboard,keyboard,4-0-10,0529_eid_dnn_4-0-10_keyboard_10_n04505470_751.png,n04505470_751.png,1.0,1.3185654,-0.025223754,0.9502024
alexnet_w1_mlp_simclrhn_probe2,1,530,NaN,oven,boat,128-0-10,0530_eid_dnn_128-0-10_boat_10_n04273569_9306.png,n04273569_9306.png,0.0,-4.688168,-0.08189611,-3.257126
alexnet_w1_mlp_simclrhn_probe2,1,531,NaN,oven,chair,16-0-10,0531_eid_dnn_16-0-10_chair_10_n02791124_9162.png,n02791124_9162.png,0.0,-2.375605,0.21012662,-1.8283885
alexnet_w1_mlp_simclrhn_probe2,1,532,NaN,oven,bicycle,128-0-10,0532_eid_dnn_128-0-10_bicycle_10_n02835271_25033.png,n02835271_25033.png,0.0,-1.2967305,-0.6396985,-0.4645918
alexnet_w1_mlp_simclrhn_probe2,1,533,NaN,oven,keyboard,128-0-10,0533_eid_dnn_128-0-10_keyboard_10_n04505470_3905.png,n04505470_3905.png,0.0,-5.029334,-1.2731167,-2.6560469
alexnet_w1_mlp_simclrhn_probe2,1,534,NaN,airplane,knife,4-0-10,0534_eid_dnn_4-0-10_knife_10_n03041632_32054.png,n03041632_32054.png,0.0,-0.53768796,-0.4653106,-0.05117852
alexnet_w1_mlp_simclrhn_probe2,1,535,NaN,cat,clock,8-0-10,0535_eid_dnn_8-0-10_clock_10_n03196217_13380.png,n03196217_13380.png,0.0,-3.2318394,-0.05206875,-2.2484374
alexnet_w1_mlp_simclrhn_probe2,1,536,NaN,bird,chair,32-0-10,0536_eid_dnn_32-0-10_chair_10_n03376595_8083.png,n03376595_8083.png,0.0,-2.3408804,-0.21559691,-1.5028024
alexnet_w1_mlp_simclrhn_probe2,1,537,NaN,bear,cat,8-0-10,0537_eid_dnn_8-0-10_cat_10_n02125311_47927.png,n02125311_47927.png,0.0,0.5379738,0.84036565,-0.21382332
alexnet_w1_mlp_simclrhn_probe2,1,538,NaN,oven,boat,64-0-10,0538_eid_dnn_64-0-10_boat_10_n04273569_1141.png,n04273569_1141.png,0.0,-4.4118404,0.6551099,-3.582875
alexnet_w1_mlp_simclrhn_probe2,1,539,NaN,oven,dog,64-0-10,0539_eid_dnn_64-0-10_dog_10_n02097130_5859.png,n02097130_5859.png,0.0,-1.8106737,0.026464231,-1.2990527
alexnet_w1_mlp_simclrhn_probe2,1,540,NaN,bear,dog,16-0-10,0540_eid_dnn_16-0-10_dog_10_n02090721_835.png,n02090721_835.png,0.0,-0.7465297,0.079726845,-0.5842516
alexnet_w1_mlp_simclrhn_probe2,1,541,NaN,oven,bear,128-0-10,0541_eid_dnn_128-0-10_bear_10_n02132136_15806.png,n02132136_15806.png,0.0,-1.1921785,-0.31315127,-0.6215661
alexnet_w1_mlp_simclrhn_probe2,1,542,NaN,oven,cat,128-0-10,0542_eid_dnn_128-0-10_cat_10_n02124075_12069.png,n02124075_12069.png,0.0,-1.6864809,0.12222561,-1.2789487
alexnet_w1_mlp_simclrhn_probe2,1,543,NaN,oven,oven,2-0-10,0543_eid_dnn_2-0-10_oven_10_n04111531_21382.png,n04111531_21382.png,1.0,3.8244581,-1.0717883,3.4621692
alexnet_w1_mlp_simclrhn_probe2,1,544,NaN,dog,cat,1-0-10,0544_eid_dnn_1-0-10_cat_10_n02123597_2009.png,n02123597_2009.png,0.0,-1.437611,-0.5966058,-0.5946805
alexnet_w1_mlp_simclrhn_probe2,1,545,NaN,oven,oven,32-0-10,0545_eid_dnn_32-0-10_oven_10_n04111531_4392.png,n04111531_4392.png,1.0,0.29182726,-0.5202816,0.5742477
alexnet_w1_mlp_simclrhn_probe2,1,546,NaN,boat,boat,4-0-10,0546_eid_dnn_4-0-10_boat_10_n03344393_640.png,n03344393_640.png,1.0,-0.025618792,-0.7154842,0.48780853
alexnet_w1_mlp_simclrhn_probe2,1,547,NaN,oven,car,4-0-10,0547_eid_dnn_4-0-10_car_10_n02814533_245.png,n02814533_245.png,0.0,-2.6019673,0.10177873,-1.9118372
alexnet_w1_mlp_simclrhn_probe2,1,548,NaN,bird,bird,1-0-10,0548_eid_dnn_1-0-10_bird_10_n01530575_3831.png,n01530575_3831.png,1.0,0.65187997,-0.9941077,1.1638892
alexnet_w1_mlp_simclrhn_probe2,1,549,NaN,truck,truck,2-0-10,0549_eid_dnn_2-0-10_truck_10_n04467665_32276.png,n04467665_32276.png,1.0,3.7205741,2.6915548,0.72762656
alexnet_w1_mlp_simclrhn_probe2,1,550,NaN,bird,elephant,64-0-10,0550_eid_dnn_64-0-10_elephant_10_n02504458_5941.png,n02504458_5941.png,0.0,-1.1410886,-0.5705473,-0.40343365
alexnet_w1_mlp_simclrhn_probe2,1,551,NaN,elephant,elephant,4-0-10,0551_eid_dnn_4-0-10_elephant_10_n02504013_9796.png,n02504013_9796.png,1.0,1.7666326,1.7365426,0.021276826
alexnet_w1_mlp_simclrhn_probe2,1,552,NaN,airplane,airplane,4-0-10,0552_eid_dnn_4-0-10_airplane_10_n02690373_8214.png,n02690373_8214.png,1.0,1.0872684,-0.120664164,0.85413724
alexnet_w1_mlp_simclrhn_probe2,1,553,NaN,airplane,airplane,1-0-10,0553_eid_dnn_1-0-10_airplane_10_n02690373_8967.png,n02690373_8967.png,1.0,6.6770234,0.6038002,4.2944174
alexnet_w1_mlp_simclrhn_probe2,1,554,NaN,bear,elephant,64-0-10,0554_eid_dnn_64-0-10_elephant_10_n02504458_7642.png,n02504458_7642.png,0.0,-0.96508205,-0.5191341,-0.31533283
alexnet_w1_mlp_simclrhn_probe2,1,555,NaN,boat,boat,1-0-10,0555_eid_dnn_1-0-10_boat_10_n04273569_15455.png,n04273569_15455.png,1.0,1.5289313,1.1093003,0.29672393
alexnet_w1_mlp_simclrhn_probe2,1,556,NaN,bear,knife,8-0-10,0556_eid_dnn_8-0-10_knife_10_n03041632_3063.png,n03041632_3063.png,0.0,-2.3849611,0.70830834,-2.1872718
alexnet_w1_mlp_simclrhn_probe2,1,557,NaN,oven,bottle,4-0-10,0557_eid_dnn_4-0-10_bottle_10_n03937543_4912.png,n03937543_4912.png,0.0,0.21533896,0.43562287,-0.15576425
alexnet_w1_mlp_simclrhn_probe2,1,558,NaN,oven,oven,4-0-10,0558_eid_dnn_4-0-10_oven_10_n04111531_5776.png,n04111531_5776.png,1.0,-0.09794696,-0.39885437,0.2127737
alexnet_w1_mlp_simclrhn_probe2,1,559,NaN,oven,bottle,128-0-10,0559_eid_dnn_128-0-10_bottle_10_n03983396_4540.png,n03983396_4540.png,0.0,-2.3201058,-0.5265727,-1.2682195
alexnet_w1_mlp_simclrhn_probe2,1,560,NaN,knife,knife,2-0-10,0560_eid_dnn_2-0-10_knife_10_n03041632_965.png,n03041632_965.png,1.0,1.6246309,0.10624643,1.07366
alexnet_w1_mlp_simclrhn_probe2,1,561,NaN,oven,knife,32-0-10,0561_eid_dnn_32-0-10_knife_10_n03041632_12949.png,n03041632_12949.png,0.0,-1.4214635,0.24575323,-1.1789004
alexnet_w1_mlp_simclrhn_probe2,1,562,NaN,bear,knife,16-0-10,0562_eid_dnn_16-0-10_knife_10_n03041632_18766.png,n03041632_18766.png,0.0,-1.4267229,0.2648172,-1.1960995
alexnet_w1_mlp_simclrhn_probe2,1,563,NaN,oven,keyboard,8-0-10,0563_eid_dnn_8-0-10_keyboard_10_n04505470_2869.png,n04505470_2869.png,0.0,-1.6960458,0.9654312,-1.8819485
alexnet_w1_mlp_simclrhn_probe2,1,564,NaN,elephant,bicycle,4-0-10,0564_eid_dnn_4-0-10_bicycle_10_n02835271_18537.png,n02835271_18537.png,0.0,-0.67966956,0.6339183,-0.92884696
alexnet_w1_mlp_simclrhn_probe2,1,565,NaN,bird,clock,32-0-10,0565_eid_dnn_32-0-10_clock_10_n04548280_1119.png,n04548280_1119.png,0.0,-1.222459,-0.18482953,-0.73371476
alexnet_w1_mlp_simclrhn_probe2,1,566,NaN,oven,oven,1-0-10,0566_eid_dnn_1-0-10_oven_10_n04111531_687.png,n04111531_687.png,1.0,4.417678,-1.1009394,3.9022517
alexnet_w1_mlp_simclrhn_probe2,1,567,NaN,oven,chair,64-0-10,0567_eid_dnn_64-0-10_chair_10_n03376595_3038.png,n03376595_3038.png,0.0,-2.8732831,0.3094654,-2.250543
alexnet_w1_mlp_simclrhn_probe2,1,568,NaN,oven,bicycle,16-0-10,0568_eid_dnn_16-0-10_bicycle_10_n02835271_3989.png,n02835271_3989.png,0.0,-1.8200371,0.009777181,-1.2938741
alexnet_w1_mlp_simclrhn_probe2,1,569,NaN,oven,dog,64-0-10,0569_eid_dnn_64-0-10_dog_10_n02096437_4563.png,n02096437_4563.png,0.0,-1.5503081,0.2776011,-1.2925271
alexnet_w1_mlp_simclrhn_probe2,1,570,NaN,oven,clock,32-0-10,0570_eid_dnn_32-0-10_clock_10_n02708093_685.png,n02708093_685.png,0.0,-4.8184,-1.0691814,-2.6510978
alexnet_w1_mlp_simclrhn_probe2,1,571,NaN,oven,boat,32-0-10,0571_eid_dnn_32-0-10_boat_10_n03662601_8360.png,n03662601_8360.png,0.0,-2.9850426,0.36715388,-2.3703609
alexnet_w1_mlp_simclrhn_probe2,1,572,NaN,oven,keyboard,8-0-10,0572_eid_dnn_8-0-10_keyboard_10_n03085013_17035.png,n03085013_17035.png,0.0,-1.497409,-0.06323208,-1.0141163
alexnet_w1_mlp_simclrhn_probe2,1,573,NaN,oven,dog,64-0-10,0573_eid_dnn_64-0-10_dog_10_n02110063_12166.png,n02110063_12166.png,0.0,-1.5263205,0.27392194,-1.2729636
alexnet_w1_mlp_simclrhn_probe2,1,574,NaN,dog,dog,2-0-10,0574_eid_dnn_2-0-10_dog_10_n02108422_6951.png,n02108422_6951.png,1.0,0.37729943,-0.003845195,0.26950994
alexnet_w1_mlp_simclrhn_probe2,1,575,NaN,bird,bear,64-0-10,0575_eid_dnn_64-0-10_bear_10_n02134418_912.png,n02134418_912.png,0.0,-0.4311064,-0.28258786,-0.10501847
alexnet_w1_mlp_simclrhn_probe2,1,576,NaN,bottle,clock,4-0-10,0576_eid_dnn_4-0-10_clock_10_n02708093_564.png,n02708093_564.png,0.0,-0.7520473,-0.51641023,-0.16662057
alexnet_w1_mlp_simclrhn_probe2,1,577,NaN,oven,car,64-0-10,0577_eid_dnn_64-0-10_car_10_n04285008_11893.png,n04285008_11893.png,0.0,-3.661462,-0.017233618,-2.5768588
alexnet_w1_mlp_simclrhn_probe2,1,578,NaN,oven,knife,64-0-10,0578_eid_dnn_64-0-10_knife_10_n03041632_20504.png,n03041632_20504.png,0.0,-1.21528,-0.05132135,-0.8230431
alexnet_w1_mlp_simclrhn_probe2,1,579,NaN,bottle,clock,4-0-10,0579_eid_dnn_4-0-10_clock_10_n04548280_4557.png,n04548280_4557.png,0.0,0.17934893,0.27870536,-0.07025561
alexnet_w1_mlp_simclrhn_probe2,1,580,NaN,bird,clock,32-0-10,0580_eid_dnn_32-0-10_clock_10_n02708093_3360.png,n02708093_3360.png,0.0,-2.061111,-0.44154215,-1.1452081
alexnet_w1_mlp_simclrhn_probe2,1,581,NaN,cat,bear,16-0-10,0581_eid_dnn_16-0-10_bear_10_n02134084_617.png,n02134084_617.png,0.0,-0.28340873,-0.26457676,-0.013316213
alexnet_w1_mlp_simclrhn_probe2,1,582,NaN,keyboard,dog,1-0-10,0582_eid_dnn_1-0-10_dog_10_n02093991_4081.png,n02093991_4081.png,0.0,-2.7439017,0.0269683,-1.959301
alexnet_w1_mlp_simclrhn_probe2,1,583,NaN,bear,elephant,16-0-10,0583_eid_dnn_16-0-10_elephant_10_n02504458_1727.png,n02504458_1727.png,0.0,0.4699151,0.7326418,-0.18577585
alexnet_w1_mlp_simclrhn_probe2,1,584,NaN,bird,clock,32-0-10,0584_eid_dnn_32-0-10_clock_10_n04548280_16295.png,n04548280_16295.png,0.0,-2.3253758,-0.7776448,-1.094411
alexnet_w1_mlp_simclrhn_probe2,1,585,NaN,bear,boat,4-0-10,0585_eid_dnn_4-0-10_boat_10_n02951358_16217.png,n02951358_16217.png,0.0,-2.7766812,1.7542531,-3.2038546
alexnet_w1_mlp_simclrhn_probe2,1,586,NaN,cat,airplane,8-0-10,0586_eid_dnn_8-0-10_airplane_10_n02690373_7536.png,n02690373_7536.png,0.0,-2.0931306,-0.22215606,-1.3229789
alexnet_w1_mlp_simclrhn_probe2,1,587,NaN,cat,cat,8-0-10,0587_eid_dnn_8-0-10_cat_10_n02123597_22140.png,n02123597_22140.png,1.0,0.22956073,-0.11625329,0.24452744
alexnet_w1_mlp_simclrhn_probe2,1,588,NaN,oven,bottle,128-0-10,0588_eid_dnn_128-0-10_bottle_10_n04591713_8914.png,n04591713_8914.png,0.0,-1.0928379,-0.3603491,-0.51794785
alexnet_w1_mlp_simclrhn_probe2,1,589,NaN,oven,car,128-0-10,0589_eid_dnn_128-0-10_car_10_n03100240_963.png,n03100240_963.png,0.0,-6.481022,-0.25012344,-4.4059105
alexnet_w1_mlp_simclrhn_probe2,1,590,NaN,oven,boat,32-0-10,0590_eid_dnn_32-0-10_boat_10_n02951358_18762.png,n02951358_18762.png,0.0,-1.564752,-0.36664748,-0.8471878
alexnet_w1_mlp_simclrhn_probe2,1,591,NaN,oven,bear,32-0-10,0591_eid_dnn_32-0-10_bear_10_n02134418_2633.png,n02134418_2633.png,0.0,-0.0075986814,0.1376974,-0.10273985
alexnet_w1_mlp_simclrhn_probe2,1,592,NaN,oven,airplane,64-0-10,0592_eid_dnn_64-0-10_airplane_10_n02690373_1169.png,n02690373_1169.png,0.0,-3.3405533,-0.29048854,-2.1567216
alexnet_w1_mlp_simclrhn_probe2,1,593,NaN,bicycle,bicycle,2-0-10,0593_eid_dnn_2-0-10_bicycle_10_n03792782_12704.png,n03792782_12704.png,1.0,0.23239869,-0.55391216,0.5560057
alexnet_w1_mlp_simclrhn_probe2,1,594,NaN,oven,dog,64-0-10,0594_eid_dnn_64-0-10_dog_10_n02088238_2973.png,n02088238_2973.png,0.0,-1.746597,-0.40940696,-0.94553626
alexnet_w1_mlp_simclrhn_probe2,1,595,NaN,oven,knife,32-0-10,0595_eid_dnn_32-0-10_knife_10_n03041632_41493.png,n03041632_41493.png,0.0,-1.5006087,0.18607,-1.1926619
alexnet_w1_mlp_simclrhn_probe2,1,596,NaN,oven,bottle,128-0-10,0596_eid_dnn_128-0-10_bottle_10_n03983396_2959.png,n03983396_2959.png,0.0,-2.039202,-1.0491456,-0.7000756
alexnet_w1_mlp_simclrhn_probe2,1,597,NaN,clock,clock,1-0-10,0597_eid_dnn_1-0-10_clock_10_n02708093_2843.png,n02708093_2843.png,1.0,1.7208233,0.17942992,1.0899297
alexnet_w1_mlp_simclrhn_probe2,1,598,NaN,bear,oven,8-0-10,0598_eid_dnn_8-0-10_oven_10_n04111531_12952.png,n04111531_12952.png,0.0,-1.2724872,0.6705687,-1.373948
alexnet_w1_mlp_simclrhn_probe2,1,599,NaN,bear,bear,16-0-10,0599_eid_dnn_16-0-10_bear_10_n02134418_2891.png,n02134418_2891.png,1.0,0.86950725,0.19136187,0.47952121
alexnet_w1_mlp_simclrhn_probe2,1,600,NaN,oven,truck,32-0-10,0600_eid_dnn_32-0-10_truck_10_n03417042_3862.png,n03417042_3862.png,0.0,-3.4733424,0.6174603,-2.8926344
alexnet_w1_mlp_simclrhn_probe2,1,601,NaN,oven,elephant,16-0-10,0601_eid_dnn_16-0-10_elephant_10_n02504458_2054.png,n02504458_2054.png,0.0,-0.7316054,0.47157145,-0.8507745
