subj,session,trial,rt,object_response,category,condition,imagename,filename,is_correct,targ_act,max_nontarg_act,decision_margin
alexnet_w3_mlp_simclrhn_probe0,1,1,NaN,bear,oven,16-0-10,0001_eid_dnn_16-0-10_oven_10_n04111531_13542.png,n04111531_13542.png,0.0,-0.7910136,1.0891453,-1.3294731
alexnet_w3_mlp_simclrhn_probe0,1,2,NaN,car,car,4-0-10,0002_eid_dnn_4-0-10_car_10_n03100240_5570.png,n03100240_5570.png,1.0,-0.3522828,-1.8085234,1.0297177
alexnet_w3_mlp_simclrhn_probe0,1,3,NaN,cat,bird,8-0-10,0003_eid_dnn_8-0-10_bird_10_n01820546_4847.png,n01820546_4847.png,0.0,-5.456819,0.86690587,-4.4715486
alexnet_w3_mlp_simclrhn_probe0,1,4,NaN,bear,bear,32-0-10,0004_eid_dnn_32-0-10_bear_10_n02133161_15561.png,n02133161_15561.png,1.0,0.86359084,-0.33796978,0.84963167
alexnet_w3_mlp_simclrhn_probe0,1,5,NaN,oven,bird,64-0-10,0005_eid_dnn_64-0-10_bird_10_n01531178_9584.png,n01531178_9584.png,0.0,-2.349492,0.39356506,-1.9396344
alexnet_w3_mlp_simclrhn_probe0,1,6,NaN,bear,bicycle,8-0-10,0006_eid_dnn_8-0-10_bicycle_10_n02835271_18846.png,n02835271_18846.png,0.0,-6.6467752,1.606554,-5.835985
alexnet_w3_mlp_simclrhn_probe0,1,7,NaN,oven,oven,4-0-10,0007_eid_dnn_4-0-10_oven_10_n04111531_73.png,n04111531_73.png,1.0,0.21077265,-2.587597,1.9787462
alexnet_w3_mlp_simclrhn_probe0,1,8,NaN,oven,clock,2-0-10,0008_eid_dnn_2-0-10_clock_10_n04548280_6159.png,n04548280_6159.png,0.0,-6.2575226,-4.299484,-1.3845426
alexnet_w3_mlp_simclrhn_probe0,1,9,NaN,oven,chair,32-0-10,0009_eid_dnn_32-0-10_chair_10_n03376595_9395.png,n03376595_9395.png,0.0,-6.6294074,0.96392876,-5.3692994
alexnet_w3_mlp_simclrhn_probe0,1,10,NaN,bear,bicycle,64-0-10,0010_eid_dnn_64-0-10_bicycle_10_n02835271_1918.png,n02835271_1918.png,0.0,-2.262892,-0.19640388,-1.4612278
alexnet_w3_mlp_simclrhn_probe0,1,11,NaN,oven,bicycle,128-0-10,0011_eid_dnn_128-0-10_bicycle_10_n02835271_42320.png,n02835271_42320.png,0.0,-6.854057,-0.7194403,-4.337829
alexnet_w3_mlp_simclrhn_probe0,1,12,NaN,elephant,elephant,1-0-10,0012_eid_dnn_1-0-10_elephant_10_n02504458_3628.png,n02504458_3628.png,1.0,3.2176664,-1.0529351,3.019771
alexnet_w3_mlp_simclrhn_probe0,1,13,NaN,oven,knife,64-0-10,0013_eid_dnn_64-0-10_knife_10_n03041632_86554.png,n03041632_86554.png,0.0,-3.7688909,0.106546715,-2.740348
alexnet_w3_mlp_simclrhn_probe0,1,14,NaN,bear,cat,8-0-10,0014_eid_dnn_8-0-10_cat_10_n02123394_1726.png,n02123394_1726.png,0.0,-1.015997,-0.76477504,-0.1776408
alexnet_w3_mlp_simclrhn_probe0,1,15,NaN,bear,cat,32-0-10,0015_eid_dnn_32-0-10_cat_10_n02123597_6721.png,n02123597_6721.png,0.0,-1.2972151,-0.6763728,-0.4390018
alexnet_w3_mlp_simclrhn_probe0,1,16,NaN,oven,oven,2-0-10,0016_eid_dnn_2-0-10_oven_10_n04111531_21869.png,n04111531_21869.png,1.0,-1.7356427,-2.6925461,0.67663294
alexnet_w3_mlp_simclrhn_probe0,1,17,NaN,bear,bear,4-0-10,0017_eid_dnn_4-0-10_bear_10_n02134084_2949.png,n02134084_2949.png,1.0,-1.7327273,-2.5045745,0.54577845
alexnet_w3_mlp_simclrhn_probe0,1,18,NaN,cat,truck,8-0-10,0018_eid_dnn_8-0-10_truck_10_n03417042_18743.png,n03417042_18743.png,0.0,-8.663065,-1.615779,-4.983184
alexnet_w3_mlp_simclrhn_probe0,1,19,NaN,bear,bird,16-0-10,0019_eid_dnn_16-0-10_bird_10_n01616318_4246.png,n01616318_4246.png,0.0,-3.6595786,-1.6419587,-1.4266727
alexnet_w3_mlp_simclrhn_probe0,1,20,NaN,bear,bicycle,8-0-10,0020_eid_dnn_8-0-10_bicycle_10_n03792782_66771.png,n03792782_66771.png,0.0,-5.712005,-0.7240237,-3.5270355
alexnet_w3_mlp_simclrhn_probe0,1,21,NaN,keyboard,keyboard,2-0-10,0021_eid_dnn_2-0-10_keyboard_10_n04505470_3531.png,n04505470_3531.png,1.0,1.6958487,-1.1892347,2.0400622
alexnet_w3_mlp_simclrhn_probe0,1,22,NaN,oven,clock,8-0-10,0022_eid_dnn_8-0-10_clock_10_n04548280_6463.png,n04548280_6463.png,0.0,-6.2391667,-0.056384433,-4.371887
alexnet_w3_mlp_simclrhn_probe0,1,23,NaN,oven,keyboard,16-0-10,0023_eid_dnn_16-0-10_keyboard_10_n04505470_4974.png,n04505470_4974.png,0.0,-10.719497,0.32514834,-7.809744
alexnet_w3_mlp_simclrhn_probe0,1,24,NaN,oven,chair,4-0-10,0024_eid_dnn_4-0-10_chair_10_n03376595_360.png,n03376595_360.png,0.0,-6.77094,-0.8628873,-4.177624
alexnet_w3_mlp_simclrhn_probe0,1,25,NaN,bear,dog,16-0-10,0025_eid_dnn_16-0-10_dog_10_n02097130_2752.png,n02097130_2752.png,0.0,-1.6193306,0.92224693,-1.7971668
alexnet_w3_mlp_simclrhn_probe0,1,26,NaN,oven,bicycle,2-0-10,0026_eid_dnn_2-0-10_bicycle_10_n02835271_3406.png,n02835271_3406.png,0.0,-5.110384,-1.8659506,-2.2941608
alexnet_w3_mlp_simclrhn_probe0,1,27,NaN,oven,bottle,16-0-10,0027_eid_dnn_16-0-10_bottle_10_n04560804_11732.png,n04560804_11732.png,0.0,-3.5494056,-0.6610639,-2.042366
alexnet_w3_mlp_simclrhn_probe0,1,28,NaN,oven,bottle,32-0-10,0028_eid_dnn_32-0-10_bottle_10_n04591713_13589.png,n04591713_13589.png,0.0,-7.0677104,0.56469464,-5.3969254
alexnet_w3_mlp_simclrhn_probe0,1,29,NaN,cat,cat,2-0-10,0029_eid_dnn_2-0-10_cat_10_n02123045_4009.png,n02123045_4009.png,1.0,0.6714046,-2.1112797,1.967655
alexnet_w3_mlp_simclrhn_probe0,1,30,NaN,cat,chair,8-0-10,0030_eid_dnn_8-0-10_chair_10_n02791124_1704.png,n02791124_1704.png,0.0,-8.265177,-2.3796194,-4.1617174
alexnet_w3_mlp_simclrhn_probe0,1,31,NaN,bear,bicycle,128-0-10,0031_eid_dnn_128-0-10_bicycle_10_n03792782_28395.png,n03792782_28395.png,0.0,-2.570878,-0.51625365,-1.4528388
alexnet_w3_mlp_simclrhn_probe0,1,32,NaN,bear,truck,16-0-10,0032_eid_dnn_16-0-10_truck_10_n03417042_4288.png,n03417042_4288.png,0.0,-8.994574,0.25114053,-6.5377073
alexnet_w3_mlp_simclrhn_probe0,1,33,NaN,keyboard,keyboard,1-0-10,0033_eid_dnn_1-0-10_keyboard_10_n04505470_3371.png,n04505470_3371.png,1.0,3.0758934,0.23299012,2.0102363
alexnet_w3_mlp_simclrhn_probe0,1,34,NaN,cat,cat,1-0-10,0034_eid_dnn_1-0-10_cat_10_n02124075_13436.png,n02124075_13436.png,1.0,-0.6364047,-2.1370132,1.0610905
alexnet_w3_mlp_simclrhn_probe0,1,35,NaN,oven,dog,32-0-10,0035_eid_dnn_32-0-10_dog_10_n02097209_8270.png,n02097209_8270.png,0.0,-2.1744826,0.44646063,-1.8532869
alexnet_w3_mlp_simclrhn_probe0,1,36,NaN,oven,clock,128-0-10,0036_eid_dnn_128-0-10_clock_10_n04548280_7795.png,n04548280_7795.png,0.0,-6.896211,-0.9939013,-4.1735635
alexnet_w3_mlp_simclrhn_probe0,1,37,NaN,bear,car,32-0-10,0037_eid_dnn_32-0-10_car_10_n03100240_21737.png,n03100240_21737.png,0.0,-8.045028,-0.58994895,-5.271537
alexnet_w3_mlp_simclrhn_probe0,1,38,NaN,bear,clock,128-0-10,0038_eid_dnn_128-0-10_clock_10_n02708093_1862.png,n02708093_1862.png,0.0,-4.833818,-1.0717139,-2.6602094
alexnet_w3_mlp_simclrhn_probe0,1,39,NaN,bird,bicycle,64-0-10,0039_eid_dnn_64-0-10_bicycle_10_n03792782_9412.png,n03792782_9412.png,0.0,-1.4075543,-1.1708288,-0.16739017
alexnet_w3_mlp_simclrhn_probe0,1,40,NaN,bear,bear,32-0-10,0040_eid_dnn_32-0-10_bear_10_n02134418_163.png,n02134418_163.png,1.0,1.0090429,-0.4213466,1.011438
alexnet_w3_mlp_simclrhn_probe0,1,41,NaN,cat,keyboard,16-0-10,0041_eid_dnn_16-0-10_keyboard_10_n03085013_25675.png,n03085013_25675.png,0.0,-4.861326,-0.2887864,-3.233274
alexnet_w3_mlp_simclrhn_probe0,1,42,NaN,oven,truck,2-0-10,0042_eid_dnn_2-0-10_truck_10_n03417042_1716.png,n03417042_1716.png,0.0,-3.880143,-2.111234,-1.2508075
alexnet_w3_mlp_simclrhn_probe0,1,43,NaN,oven,keyboard,128-0-10,0043_eid_dnn_128-0-10_keyboard_10_n03085013_18854.png,n03085013_18854.png,0.0,-5.8227744,-1.5558872,-3.017145
alexnet_w3_mlp_simclrhn_probe0,1,44,NaN,oven,bottle,32-0-10,0044_eid_dnn_32-0-10_bottle_10_n04591713_4865.png,n04591713_4865.png,0.0,-5.1825833,1.0787897,-4.4274592
alexnet_w3_mlp_simclrhn_probe0,1,45,NaN,bear,bicycle,32-0-10,0045_eid_dnn_32-0-10_bicycle_10_n03792782_693.png,n03792782_693.png,0.0,-5.7336593,0.19604647,-4.192935
alexnet_w3_mlp_simclrhn_probe0,1,46,NaN,knife,bottle,1-0-10,0046_eid_dnn_1-0-10_bottle_10_n04557648_264.png,n04557648_264.png,0.0,-6.0129075,-2.6497025,-2.378145
alexnet_w3_mlp_simclrhn_probe0,1,47,NaN,knife,knife,2-0-10,0047_eid_dnn_2-0-10_knife_10_n03041632_25512.png,n03041632_25512.png,1.0,-1.3697042,-1.430743,0.043160904
alexnet_w3_mlp_simclrhn_probe0,1,48,NaN,bear,boat,16-0-10,0048_eid_dnn_16-0-10_boat_10_n03344393_2381.png,n03344393_2381.png,0.0,-2.806202,0.041192994,-2.0134122
alexnet_w3_mlp_simclrhn_probe0,1,49,NaN,cat,dog,128-0-10,0049_eid_dnn_128-0-10_dog_10_n02110627_17670.png,n02110627_17670.png,0.0,-3.416094,-1.2533425,-1.5292964
alexnet_w3_mlp_simclrhn_probe0,1,50,NaN,oven,bear,64-0-10,0050_eid_dnn_64-0-10_bear_10_n02133161_15981.png,n02133161_15981.png,0.0,-5.0951133,-0.7718055,-3.0570405
alexnet_w3_mlp_simclrhn_probe0,1,51,NaN,bear,elephant,16-0-10,0051_eid_dnn_16-0-10_elephant_10_n02504458_3570.png,n02504458_3570.png,0.0,0.67488515,0.975631,-0.21265943
alexnet_w3_mlp_simclrhn_probe0,1,52,NaN,oven,truck,4-0-10,0052_eid_dnn_4-0-10_truck_10_n03417042_6241.png,n03417042_6241.png,0.0,-3.5532713,-1.2785928,-1.6084406
alexnet_w3_mlp_simclrhn_probe0,1,53,NaN,bear,bird,8-0-10,0053_eid_dnn_8-0-10_bird_10_n02025239_17670.png,n02025239_17670.png,0.0,-1.8676934,-0.3449701,-1.076728
alexnet_w3_mlp_simclrhn_probe0,1,54,NaN,bear,dog,16-0-10,0054_eid_dnn_16-0-10_dog_10_n02106030_19249.png,n02106030_19249.png,0.0,-1.3321432,0.41874087,-1.238062
alexnet_w3_mlp_simclrhn_probe0,1,55,NaN,bear,keyboard,32-0-10,0055_eid_dnn_32-0-10_keyboard_10_n04505470_2326.png,n04505470_2326.png,0.0,-8.278351,-0.18582663,-5.722279
alexnet_w3_mlp_simclrhn_probe0,1,56,NaN,elephant,dog,16-0-10,0056_eid_dnn_16-0-10_dog_10_n02107142_9379.png,n02107142_9379.png,0.0,-1.632461,0.5135912,-1.517488
alexnet_w3_mlp_simclrhn_probe0,1,57,NaN,bear,cat,64-0-10,0057_eid_dnn_64-0-10_cat_10_n02123394_1828.png,n02123394_1828.png,0.0,-1.557361,-0.25364006,-0.92186993
alexnet_w3_mlp_simclrhn_probe0,1,58,NaN,oven,car,32-0-10,0058_eid_dnn_32-0-10_car_10_n03100240_4605.png,n03100240_4605.png,0.0,-9.31622,0.1180727,-6.6710525
alexnet_w3_mlp_simclrhn_probe0,1,59,NaN,bear,bicycle,4-0-10,0059_eid_dnn_4-0-10_bicycle_10_n03792782_6765.png,n03792782_6765.png,0.0,-4.540034,-0.4459501,-2.8949544
alexnet_w3_mlp_simclrhn_probe0,1,60,NaN,bear,boat,8-0-10,0060_eid_dnn_8-0-10_boat_10_n03344393_8455.png,n03344393_8455.png,0.0,-3.445006,-0.6778767,-1.9566559
alexnet_w3_mlp_simclrhn_probe0,1,61,NaN,oven,oven,16-0-10,0061_eid_dnn_16-0-10_oven_10_n04111531_8603.png,n04111531_8603.png,1.0,0.4908179,0.12342107,0.25978878
alexnet_w3_mlp_simclrhn_probe0,1,62,NaN,bird,bird,2-0-10,0062_eid_dnn_2-0-10_bird_10_n02051845_2574.png,n02051845_2574.png,1.0,-2.0284953,-4.2390156,1.5630739
alexnet_w3_mlp_simclrhn_probe0,1,63,NaN,boat,boat,4-0-10,0063_eid_dnn_4-0-10_boat_10_n04612504_15875.png,n04612504_15875.png,1.0,0.5500646,-0.58339214,0.8014749
alexnet_w3_mlp_simclrhn_probe0,1,64,NaN,oven,bottle,4-0-10,0064_eid_dnn_4-0-10_bottle_10_n03983396_7337.png,n03983396_7337.png,0.0,-3.4426482,-2.156645,-0.9093415
alexnet_w3_mlp_simclrhn_probe0,1,65,NaN,cat,clock,8-0-10,0065_eid_dnn_8-0-10_clock_10_n02708093_6822.png,n02708093_6822.png,0.0,-6.488167,-0.7766107,-4.03868
alexnet_w3_mlp_simclrhn_probe0,1,66,NaN,airplane,truck,2-0-10,0066_eid_dnn_2-0-10_truck_10_n04467665_15994.png,n04467665_15994.png,0.0,-2.270204,-1.9910438,-0.19739611
alexnet_w3_mlp_simclrhn_probe0,1,67,NaN,cat,cat,128-0-10,0067_eid_dnn_128-0-10_cat_10_n02123597_6291.png,n02123597_6291.png,1.0,-1.2653964,-1.6553323,0.27572638
alexnet_w3_mlp_simclrhn_probe0,1,68,NaN,cat,bird,8-0-10,0068_eid_dnn_8-0-10_bird_10_n01817953_1734.png,n01817953_1734.png,0.0,-6.3421135,-1.6847128,-3.2932796
alexnet_w3_mlp_simclrhn_probe0,1,69,NaN,oven,elephant,32-0-10,0069_eid_dnn_32-0-10_elephant_10_n02504458_6880.png,n02504458_6880.png,0.0,-0.797704,0.71750975,-1.0714179
alexnet_w3_mlp_simclrhn_probe0,1,70,NaN,oven,cat,16-0-10,0070_eid_dnn_16-0-10_cat_10_n02123597_13197.png,n02123597_13197.png,0.0,-0.3642385,-0.1704873,-0.1370028
alexnet_w3_mlp_simclrhn_probe0,1,71,NaN,bear,bicycle,64-0-10,0071_eid_dnn_64-0-10_bicycle_10_n03792782_973.png,n03792782_973.png,0.0,-2.4285989,0.33127117,-1.9515228
alexnet_w3_mlp_simclrhn_probe0,1,72,NaN,cat,cat,2-0-10,0072_eid_dnn_2-0-10_cat_10_n02124075_8310.png,n02124075_8310.png,1.0,-0.2909044,-2.4240801,1.5083832
alexnet_w3_mlp_simclrhn_probe0,1,73,NaN,bear,oven,32-0-10,0073_eid_dnn_32-0-10_oven_10_n04111531_5168.png,n04111531_5168.png,0.0,-0.70265543,-0.68598497,-0.011787799
alexnet_w3_mlp_simclrhn_probe0,1,74,NaN,airplane,airplane,1-0-10,0074_eid_dnn_1-0-10_airplane_10_n02690373_4893.png,n02690373_4893.png,1.0,3.9703014,-1.4868667,3.8588006
alexnet_w3_mlp_simclrhn_probe0,1,75,NaN,bear,dog,1-0-10,0075_eid_dnn_1-0-10_dog_10_n02086240_3614.png,n02086240_3614.png,0.0,-1.0949988,-1.0495977,-0.032103423
alexnet_w3_mlp_simclrhn_probe0,1,76,NaN,oven,oven,16-0-10,0076_eid_dnn_16-0-10_oven_10_n04111531_2937.png,n04111531_2937.png,1.0,-0.1362902,-0.7201388,0.41284332
alexnet_w3_mlp_simclrhn_probe0,1,77,NaN,airplane,clock,1-0-10,0077_eid_dnn_1-0-10_clock_10_n03196217_2022.png,n03196217_2022.png,0.0,-1.3812984,-0.5367954,-0.59715384
alexnet_w3_mlp_simclrhn_probe0,1,78,NaN,bear,bottle,64-0-10,0078_eid_dnn_64-0-10_bottle_10_n04591713_2732.png,n04591713_2732.png,0.0,-4.4472833,-1.2032329,-2.2938902
alexnet_w3_mlp_simclrhn_probe0,1,79,NaN,car,car,2-0-10,0079_eid_dnn_2-0-10_car_10_n03100240_8794.png,n03100240_8794.png,1.0,1.3807255,-0.1931398,1.1128908
alexnet_w3_mlp_simclrhn_probe0,1,80,NaN,oven,airplane,16-0-10,0080_eid_dnn_16-0-10_airplane_10_n02690373_3640.png,n02690373_3640.png,0.0,-3.9733887,-1.1791635,-1.9758157
alexnet_w3_mlp_simclrhn_probe0,1,81,NaN,elephant,bicycle,64-0-10,0081_eid_dnn_64-0-10_bicycle_10_n03792782_41097.png,n03792782_41097.png,0.0,-1.9768245,-0.77200186,-0.8519383
alexnet_w3_mlp_simclrhn_probe0,1,82,NaN,bear,dog,64-0-10,0082_eid_dnn_64-0-10_dog_10_n02090721_6770.png,n02090721_6770.png,0.0,-1.4293629,-0.16757886,-0.8922161
alexnet_w3_mlp_simclrhn_probe0,1,83,NaN,bear,cat,16-0-10,0083_eid_dnn_16-0-10_cat_10_n02123597_28968.png,n02123597_28968.png,0.0,-0.06509135,0.4877562,-0.39092228
alexnet_w3_mlp_simclrhn_probe0,1,84,NaN,elephant,elephant,1-0-10,0084_eid_dnn_1-0-10_elephant_10_n02504013_5894.png,n02504013_5894.png,1.0,4.133039,-1.4515399,3.9488938
alexnet_w3_mlp_simclrhn_probe0,1,85,NaN,oven,oven,32-0-10,0085_eid_dnn_32-0-10_oven_10_n04111531_9314.png,n04111531_9314.png,1.0,0.60403836,-0.13187893,0.5203721
alexnet_w3_mlp_simclrhn_probe0,1,86,NaN,elephant,elephant,1-0-10,0086_eid_dnn_1-0-10_elephant_10_n02504458_12074.png,n02504458_12074.png,1.0,1.0716819,0.05504529,0.71887064
alexnet_w3_mlp_simclrhn_probe0,1,87,NaN,boat,boat,4-0-10,0087_eid_dnn_4-0-10_boat_10_n03344393_3773.png,n03344393_3773.png,1.0,-1.3444725,-1.7172492,0.2635929
alexnet_w3_mlp_simclrhn_probe0,1,88,NaN,oven,truck,128-0-10,0088_eid_dnn_128-0-10_truck_10_n04467665_80153.png,n04467665_80153.png,0.0,-4.8913374,-0.9486975,-2.7878673
alexnet_w3_mlp_simclrhn_probe0,1,89,NaN,oven,chair,128-0-10,0089_eid_dnn_128-0-10_chair_10_n04099969_20604.png,n04099969_20604.png,0.0,-4.1832485,-0.23224688,-2.79378
alexnet_w3_mlp_simclrhn_probe0,1,90,NaN,oven,keyboard,32-0-10,0090_eid_dnn_32-0-10_keyboard_10_n03085013_23625.png,n03085013_23625.png,0.0,-4.7301655,0.56066257,-3.7411807
alexnet_w3_mlp_simclrhn_probe0,1,91,NaN,oven,truck,64-0-10,0091_eid_dnn_64-0-10_truck_10_n03796401_1458.png,n03796401_1458.png,0.0,-6.558524,-0.58830047,-4.2215858
alexnet_w3_mlp_simclrhn_probe0,1,92,NaN,car,car,4-0-10,0092_eid_dnn_4-0-10_car_10_n03100240_18711.png,n03100240_18711.png,1.0,-2.4295256,-2.5818949,0.10774134
alexnet_w3_mlp_simclrhn_probe0,1,93,NaN,oven,truck,128-0-10,0093_eid_dnn_128-0-10_truck_10_n03796401_2988.png,n03796401_2988.png,0.0,-7.226066,-0.4979139,-4.757522
alexnet_w3_mlp_simclrhn_probe0,1,94,NaN,truck,truck,2-0-10,0094_eid_dnn_2-0-10_truck_10_n03417042_7096.png,n03417042_7096.png,1.0,1.3930461,-1.3969002,1.97279
alexnet_w3_mlp_simclrhn_probe0,1,95,NaN,cat,dog,8-0-10,0095_eid_dnn_8-0-10_dog_10_n02105855_9345.png,n02105855_9345.png,0.0,-1.4381118,-0.96414566,-0.33514467
alexnet_w3_mlp_simclrhn_probe0,1,96,NaN,bear,bird,32-0-10,0096_eid_dnn_32-0-10_bird_10_n01796340_8342.png,n01796340_8342.png,0.0,-1.9163721,0.6239511,-1.7962798
alexnet_w3_mlp_simclrhn_probe0,1,97,NaN,cat,airplane,8-0-10,0097_eid_dnn_8-0-10_airplane_10_n02690373_7293.png,n02690373_7293.png,0.0,-3.7387774,-0.6580646,-2.178393
alexnet_w3_mlp_simclrhn_probe0,1,98,NaN,oven,car,64-0-10,0098_eid_dnn_64-0-10_car_10_n04285008_9811.png,n04285008_9811.png,0.0,-10.174897,0.17440027,-7.3180585
alexnet_w3_mlp_simclrhn_probe0,1,99,NaN,bear,knife,8-0-10,0099_eid_dnn_8-0-10_knife_10_n03041632_86783.png,n03041632_86783.png,0.0,-6.238388,-0.0588485,-4.3695946
alexnet_w3_mlp_simclrhn_probe0,1,100,NaN,oven,oven,16-0-10,0100_eid_dnn_16-0-10_oven_10_n04111531_9867.png,n04111531_9867.png,1.0,1.4175858,-0.1215615,1.0883416
alexnet_w3_mlp_simclrhn_probe0,1,101,NaN,cat,truck,128-0-10,0101_eid_dnn_128-0-10_truck_10_n04467665_22573.png,n04467665_22573.png,0.0,-8.522779,-1.0118223,-5.311049
alexnet_w3_mlp_simclrhn_probe0,1,102,NaN,oven,car,128-0-10,0102_eid_dnn_128-0-10_car_10_n02814533_23512.png,n02814533_23512.png,0.0,-8.3555,-1.5871466,-4.7859488
alexnet_w3_mlp_simclrhn_probe0,1,103,NaN,cat,bicycle,16-0-10,0103_eid_dnn_16-0-10_bicycle_10_n03792782_4895.png,n03792782_4895.png,0.0,-8.845771,0.3273262,-6.486359
alexnet_w3_mlp_simclrhn_probe0,1,104,NaN,keyboard,keyboard,2-0-10,0104_eid_dnn_2-0-10_keyboard_10_n03085013_23554.png,n03085013_23554.png,1.0,-0.046352327,-1.2782986,0.87111753
alexnet_w3_mlp_simclrhn_probe0,1,105,NaN,bear,bear,1-0-10,0105_eid_dnn_1-0-10_bear_10_n02134084_8601.png,n02134084_8601.png,1.0,-0.48361695,-1.7006766,0.8605911
alexnet_w3_mlp_simclrhn_probe0,1,106,NaN,bear,bicycle,8-0-10,0106_eid_dnn_8-0-10_bicycle_10_n03792782_126.png,n03792782_126.png,0.0,-7.874093,-0.25986218,-5.3840747
alexnet_w3_mlp_simclrhn_probe0,1,107,NaN,chair,chair,1-0-10,0107_eid_dnn_1-0-10_chair_10_n04099969_3583.png,n04099969_3583.png,1.0,0.14053476,-1.1996444,0.94764984
alexnet_w3_mlp_simclrhn_probe0,1,108,NaN,cat,bicycle,8-0-10,0108_eid_dnn_8-0-10_bicycle_10_n02835271_976.png,n02835271_976.png,0.0,-7.2441854,-0.6895477,-4.634829
alexnet_w3_mlp_simclrhn_probe0,1,109,NaN,oven,oven,32-0-10,0109_eid_dnn_32-0-10_oven_10_n04111531_10313.png,n04111531_10313.png,1.0,0.78427184,0.69877046,0.0604586
alexnet_w3_mlp_simclrhn_probe0,1,110,NaN,oven,oven,1-0-10,0110_eid_dnn_1-0-10_oven_10_n04111531_8984.png,n04111531_8984.png,1.0,5.8511086,-1.2378886,5.0126777
alexnet_w3_mlp_simclrhn_probe0,1,111,NaN,elephant,elephant,8-0-10,0111_eid_dnn_8-0-10_elephant_10_n02504013_3181.png,n02504013_3181.png,1.0,1.2291389,0.7609781,0.33103964
alexnet_w3_mlp_simclrhn_probe0,1,112,NaN,bear,keyboard,64-0-10,0112_eid_dnn_64-0-10_keyboard_10_n03085013_21490.png,n03085013_21490.png,0.0,-7.6720943,-0.602373,-4.9990478
alexnet_w3_mlp_simclrhn_probe0,1,113,NaN,airplane,bird,4-0-10,0113_eid_dnn_4-0-10_bird_10_n01614925_2708.png,n01614925_2708.png,0.0,-0.899031,-0.002534002,-0.6339191
alexnet_w3_mlp_simclrhn_probe0,1,114,NaN,cat,bottle,16-0-10,0114_eid_dnn_16-0-10_bottle_10_n03983396_3109.png,n03983396_3109.png,0.0,-5.420808,-0.47809994,-3.4950223
alexnet_w3_mlp_simclrhn_probe0,1,115,NaN,oven,bear,128-0-10,0115_eid_dnn_128-0-10_bear_10_n02134418_377.png,n02134418_377.png,0.0,-1.6439168,-1.1063102,-0.38014528
alexnet_w3_mlp_simclrhn_probe0,1,116,NaN,cat,knife,16-0-10,0116_eid_dnn_16-0-10_knife_10_n03041632_7680.png,n03041632_7680.png,0.0,-5.53058,-0.6943496,-3.4197314
alexnet_w3_mlp_simclrhn_probe0,1,117,NaN,elephant,truck,4-0-10,0117_eid_dnn_4-0-10_truck_10_n03417042_3807.png,n03417042_3807.png,0.0,-4.8833604,-0.43620834,-3.1446116
alexnet_w3_mlp_simclrhn_probe0,1,118,NaN,oven,elephant,128-0-10,0118_eid_dnn_128-0-10_elephant_10_n02504013_6501.png,n02504013_6501.png,0.0,-3.3221846,0.3243213,-2.578469
alexnet_w3_mlp_simclrhn_probe0,1,119,NaN,oven,bicycle,32-0-10,0119_eid_dnn_32-0-10_bicycle_10_n03792782_5517.png,n03792782_5517.png,0.0,-3.3715901,-1.0014318,-1.6759549
alexnet_w3_mlp_simclrhn_probe0,1,120,NaN,oven,bottle,128-0-10,0120_eid_dnn_128-0-10_bottle_10_n02823428_5791.png,n02823428_5791.png,0.0,-6.1754923,-0.20507887,-4.2217197
alexnet_w3_mlp_simclrhn_probe0,1,121,NaN,oven,car,128-0-10,0121_eid_dnn_128-0-10_car_10_n04285008_10144.png,n04285008_10144.png,0.0,-8.546397,-1.2695616,-5.1454997
alexnet_w3_mlp_simclrhn_probe0,1,122,NaN,cat,cat,4-0-10,0122_eid_dnn_4-0-10_cat_10_n02123159_5764.png,n02123159_5764.png,1.0,1.9587336,-1.6099292,2.5234256
alexnet_w3_mlp_simclrhn_probe0,1,123,NaN,bear,dog,16-0-10,0123_eid_dnn_16-0-10_dog_10_n02085936_4491.png,n02085936_4491.png,0.0,-0.83994764,0.071125284,-0.64422584
alexnet_w3_mlp_simclrhn_probe0,1,124,NaN,oven,bicycle,32-0-10,0124_eid_dnn_32-0-10_bicycle_10_n03792782_6159.png,n03792782_6159.png,0.0,-4.21953,0.16143885,-3.097813
alexnet_w3_mlp_simclrhn_probe0,1,125,NaN,clock,clock,4-0-10,0125_eid_dnn_4-0-10_clock_10_n04548280_2404.png,n04548280_2404.png,1.0,-0.6889866,-2.3335297,1.1628677
alexnet_w3_mlp_simclrhn_probe0,1,126,NaN,oven,bottle,64-0-10,0126_eid_dnn_64-0-10_bottle_10_n04591713_360.png,n04591713_360.png,0.0,-6.6742716,1.2470744,-5.6012373
alexnet_w3_mlp_simclrhn_probe0,1,127,NaN,elephant,airplane,16-0-10,0127_eid_dnn_16-0-10_airplane_10_n02690373_1909.png,n02690373_1909.png,0.0,-5.4228354,-0.77920854,-3.28354
alexnet_w3_mlp_simclrhn_probe0,1,128,NaN,bear,bear,2-0-10,0128_eid_dnn_2-0-10_bear_10_n02133161_9724.png,n02133161_9724.png,1.0,0.25467774,-1.8313872,1.4750706
alexnet_w3_mlp_simclrhn_probe0,1,129,NaN,car,car,2-0-10,0129_eid_dnn_2-0-10_car_10_n04285008_5897.png,n04285008_5897.png,1.0,3.9108498,-1.0574439,3.5131142
alexnet_w3_mlp_simclrhn_probe0,1,130,NaN,bicycle,bicycle,1-0-10,0130_eid_dnn_1-0-10_bicycle_10_n02835271_9807.png,n02835271_9807.png,1.0,0.44031042,-4.2109413,3.2889318
alexnet_w3_mlp_simclrhn_probe0,1,131,NaN,knife,keyboard,1-0-10,0131_eid_dnn_1-0-10_keyboard_10_n03085013_23286.png,n03085013_23286.png,0.0,-4.4936085,-1.9028368,-1.8319522
alexnet_w3_mlp_simclrhn_probe0,1,132,NaN,bicycle,clock,2-0-10,0132_eid_dnn_2-0-10_clock_10_n02708093_772.png,n02708093_772.png,0.0,-5.0185585,-2.8274055,-1.5493792
alexnet_w3_mlp_simclrhn_probe0,1,133,NaN,keyboard,clock,4-0-10,0133_eid_dnn_4-0-10_clock_10_n03196217_820.png,n03196217_820.png,0.0,-2.649969,-0.25667313,-1.6923158
alexnet_w3_mlp_simclrhn_probe0,1,134,NaN,bear,dog,32-0-10,0134_eid_dnn_32-0-10_dog_10_n02093754_6351.png,n02093754_6351.png,0.0,-1.2925272,-0.010912284,-0.9062386
alexnet_w3_mlp_simclrhn_probe0,1,135,NaN,oven,truck,8-0-10,0135_eid_dnn_8-0-10_truck_10_n03417042_27093.png,n03417042_27093.png,0.0,-8.568754,-1.0685693,-5.303432
alexnet_w3_mlp_simclrhn_probe0,1,136,NaN,bear,bicycle,4-0-10,0136_eid_dnn_4-0-10_bicycle_10_n03792782_30530.png,n03792782_30530.png,0.0,-6.5405874,-0.0629946,-4.58035
alexnet_w3_mlp_simclrhn_probe0,1,137,NaN,bottle,bottle,4-0-10,0137_eid_dnn_4-0-10_bottle_10_n03937543_5215.png,n03937543_5215.png,1.0,-0.3236099,-0.8882558,0.39926493
alexnet_w3_mlp_simclrhn_probe0,1,138,NaN,bicycle,boat,2-0-10,0138_eid_dnn_2-0-10_boat_10_n02951358_9933.png,n02951358_9933.png,0.0,-5.390915,-2.7726846,-1.8513684
alexnet_w3_mlp_simclrhn_probe0,1,139,NaN,bear,dog,4-0-10,0139_eid_dnn_4-0-10_dog_10_n02086910_8694.png,n02086910_8694.png,0.0,-1.7051833,-1.5715928,-0.09446272
alexnet_w3_mlp_simclrhn_probe0,1,140,NaN,cat,knife,8-0-10,0140_eid_dnn_8-0-10_knife_10_n03041632_3504.png,n03041632_3504.png,0.0,-3.4836535,-0.9977472,-1.7578013
alexnet_w3_mlp_simclrhn_probe0,1,141,NaN,oven,knife,128-0-10,0141_eid_dnn_128-0-10_knife_10_n03041632_15754.png,n03041632_15754.png,0.0,-3.6412663,-0.60785043,-2.144949
alexnet_w3_mlp_simclrhn_probe0,1,142,NaN,bear,truck,8-0-10,0142_eid_dnn_8-0-10_truck_10_n04467665_45306.png,n04467665_45306.png,0.0,-2.4688659,-0.593119,-1.3263533
alexnet_w3_mlp_simclrhn_probe0,1,143,NaN,elephant,elephant,1-0-10,0143_eid_dnn_1-0-10_elephant_10_n02504013_5351.png,n02504013_5351.png,1.0,-1.2374694,-3.5371408,1.6261133
alexnet_w3_mlp_simclrhn_probe0,1,144,NaN,cat,bottle,2-0-10,0144_eid_dnn_2-0-10_bottle_10_n03937543_7763.png,n03937543_7763.png,0.0,-4.319527,-1.3090339,-2.1287403
alexnet_w3_mlp_simclrhn_probe0,1,145,NaN,oven,bird,32-0-10,0145_eid_dnn_32-0-10_bird_10_n01843383_91.png,n01843383_91.png,0.0,-2.3868854,-0.83283323,-1.0988808
alexnet_w3_mlp_simclrhn_probe0,1,146,NaN,knife,clock,4-0-10,0146_eid_dnn_4-0-10_clock_10_n04548280_28.png,n04548280_28.png,0.0,-1.7179074,-0.42379153,-0.91507816
alexnet_w3_mlp_simclrhn_probe0,1,147,NaN,cat,knife,16-0-10,0147_eid_dnn_16-0-10_knife_10_n03041632_102828.png,n03041632_102828.png,0.0,-4.889322,-0.2615852,-3.272304
alexnet_w3_mlp_simclrhn_probe0,1,148,NaN,oven,car,128-0-10,0148_eid_dnn_128-0-10_car_10_n03100240_7520.png,n03100240_7520.png,0.0,-8.804383,-0.8143292,-5.6498218
alexnet_w3_mlp_simclrhn_probe0,1,149,NaN,oven,knife,16-0-10,0149_eid_dnn_16-0-10_knife_10_n03041632_53874.png,n03041632_53874.png,0.0,-3.7489338,-1.435066,-1.6361517
alexnet_w3_mlp_simclrhn_probe0,1,150,NaN,cat,boat,16-0-10,0150_eid_dnn_16-0-10_boat_10_n04273569_3896.png,n04273569_3896.png,0.0,-6.0201707,-1.9589542,-2.8717136
alexnet_w3_mlp_simclrhn_probe0,1,151,NaN,airplane,airplane,2-0-10,0151_eid_dnn_2-0-10_airplane_10_n02690373_6002.png,n02690373_6002.png,1.0,5.4232855,0.25891843,3.6517591
alexnet_w3_mlp_simclrhn_probe0,1,152,NaN,cat,chair,8-0-10,0152_eid_dnn_8-0-10_chair_10_n04099969_7191.png,n04099969_7191.png,0.0,-8.004135,-0.7424984,-5.1347528
alexnet_w3_mlp_simclrhn_probe0,1,153,NaN,oven,dog,32-0-10,0153_eid_dnn_32-0-10_dog_10_n02101388_4808.png,n02101388_4808.png,0.0,-1.857148,-0.24704592,-1.1385142
alexnet_w3_mlp_simclrhn_probe0,1,154,NaN,cat,keyboard,16-0-10,0154_eid_dnn_16-0-10_keyboard_10_n03085013_24538.png,n03085013_24538.png,0.0,-8.322943,0.23844737,-6.053817
alexnet_w3_mlp_simclrhn_probe0,1,155,NaN,cat,knife,128-0-10,0155_eid_dnn_128-0-10_knife_10_n03041632_85488.png,n03041632_85488.png,0.0,-5.393237,-1.4259683,-2.8052828
alexnet_w3_mlp_simclrhn_probe0,1,156,NaN,cat,car,4-0-10,0156_eid_dnn_4-0-10_car_10_n04285008_7630.png,n04285008_7630.png,0.0,-7.419851,-3.7277184,-2.6107318
alexnet_w3_mlp_simclrhn_probe0,1,157,NaN,cat,airplane,8-0-10,0157_eid_dnn_8-0-10_airplane_10_n02690373_2941.png,n02690373_2941.png,0.0,-4.942928,-1.5452954,-2.4024892
alexnet_w3_mlp_simclrhn_probe0,1,158,NaN,bear,bird,64-0-10,0158_eid_dnn_64-0-10_bird_10_n01514859_6021.png,n01514859_6021.png,0.0,-2.0708117,-0.34369978,-1.2212526
alexnet_w3_mlp_simclrhn_probe0,1,159,NaN,oven,clock,64-0-10,0159_eid_dnn_64-0-10_clock_10_n04548280_3293.png,n04548280_3293.png,0.0,-5.7146764,0.5254534,-4.4124384
alexnet_w3_mlp_simclrhn_probe0,1,160,NaN,oven,oven,4-0-10,0160_eid_dnn_4-0-10_oven_10_n04111531_4998.png,n04111531_4998.png,1.0,-0.5994693,-1.9437262,0.95053315
alexnet_w3_mlp_simclrhn_probe0,1,161,NaN,bear,bird,128-0-10,0161_eid_dnn_128-0-10_bird_10_n02028035_32993.png,n02028035_32993.png,0.0,-2.6556928,-0.4429853,-1.5646205
alexnet_w3_mlp_simclrhn_probe0,1,162,NaN,dog,bird,2-0-10,0162_eid_dnn_2-0-10_bird_10_n01843383_7800.png,n01843383_7800.png,0.0,-5.417016,-4.427005,-0.7000437
alexnet_w3_mlp_simclrhn_probe0,1,163,NaN,oven,bear,64-0-10,0163_eid_dnn_64-0-10_bear_10_n02132136_15174.png,n02132136_15174.png,0.0,-0.5726602,-0.044487614,-0.37347445
alexnet_w3_mlp_simclrhn_probe0,1,164,NaN,oven,oven,4-0-10,0164_eid_dnn_4-0-10_oven_10_n04111531_7266.png,n04111531_7266.png,1.0,-1.8948503,-3.6238444,1.2225835
alexnet_w3_mlp_simclrhn_probe0,1,165,NaN,cat,cat,128-0-10,0165_eid_dnn_128-0-10_cat_10_n02124075_6464.png,n02124075_6464.png,1.0,-0.29382023,-0.3011721,0.005198561
alexnet_w3_mlp_simclrhn_probe0,1,166,NaN,bear,bicycle,16-0-10,0166_eid_dnn_16-0-10_bicycle_10_n02835271_4667.png,n02835271_4667.png,0.0,-6.195674,0.18010111,-4.5083537
alexnet_w3_mlp_simclrhn_probe0,1,167,NaN,bear,chair,32-0-10,0167_eid_dnn_32-0-10_chair_10_n04099969_2532.png,n04099969_2532.png,0.0,-5.93265,-0.4494741,-3.877191
alexnet_w3_mlp_simclrhn_probe0,1,168,NaN,bottle,bottle,4-0-10,0168_eid_dnn_4-0-10_bottle_10_n04560804_15683.png,n04560804_15683.png,1.0,-0.5223676,-2.1756673,1.1690594
alexnet_w3_mlp_simclrhn_probe0,1,169,NaN,cat,chair,8-0-10,0169_eid_dnn_8-0-10_chair_10_n04099969_6825.png,n04099969_6825.png,0.0,-7.3624687,-1.3300914,-4.265535
alexnet_w3_mlp_simclrhn_probe0,1,170,NaN,oven,oven,1-0-10,0170_eid_dnn_1-0-10_oven_10_n04111531_1612.png,n04111531_1612.png,1.0,0.47815058,-1.1847105,1.1758204
alexnet_w3_mlp_simclrhn_probe0,1,171,NaN,clock,clock,2-0-10,0171_eid_dnn_2-0-10_clock_10_n02708093_1701.png,n02708093_1701.png,1.0,1.6328617,-1.3980024,2.1431446
alexnet_w3_mlp_simclrhn_probe0,1,172,NaN,bear,elephant,32-0-10,0172_eid_dnn_32-0-10_elephant_10_n02504013_782.png,n02504013_782.png,0.0,0.0830334,0.48578212,-0.28478634
alexnet_w3_mlp_simclrhn_probe0,1,173,NaN,oven,dog,128-0-10,0173_eid_dnn_128-0-10_dog_10_n02107908_8814.png,n02107908_8814.png,0.0,-2.601653,-0.21186897,-1.6898326
alexnet_w3_mlp_simclrhn_probe0,1,174,NaN,bear,elephant,4-0-10,0174_eid_dnn_4-0-10_elephant_10_n02504458_5816.png,n02504458_5816.png,0.0,0.22723779,0.3481204,-0.085476905
alexnet_w3_mlp_simclrhn_probe0,1,175,NaN,car,car,2-0-10,0175_eid_dnn_2-0-10_car_10_n03100240_18788.png,n03100240_18788.png,1.0,2.0330584,-1.4284674,2.4476686
alexnet_w3_mlp_simclrhn_probe0,1,176,NaN,oven,airplane,16-0-10,0176_eid_dnn_16-0-10_airplane_10_n02690373_7915.png,n02690373_7915.png,0.0,-3.7581396,-1.6680398,-1.4779238
alexnet_w3_mlp_simclrhn_probe0,1,177,NaN,oven,chair,4-0-10,0177_eid_dnn_4-0-10_chair_10_n04429376_10544.png,n04429376_10544.png,0.0,-3.4377956,0.006862439,-2.4357412
alexnet_w3_mlp_simclrhn_probe0,1,178,NaN,oven,knife,32-0-10,0178_eid_dnn_32-0-10_knife_10_n03041632_24883.png,n03041632_24883.png,0.0,-4.1768775,-0.28532252,-2.751745
alexnet_w3_mlp_simclrhn_probe0,1,179,NaN,cat,bicycle,128-0-10,0179_eid_dnn_128-0-10_bicycle_10_n03792782_10367.png,n03792782_10367.png,0.0,-5.207722,-0.59452146,-3.2620256
alexnet_w3_mlp_simclrhn_probe0,1,180,NaN,oven,oven,1-0-10,0180_eid_dnn_1-0-10_oven_10_n04111531_3121.png,n04111531_3121.png,1.0,-0.98151386,-2.388877,0.995156
alexnet_w3_mlp_simclrhn_probe0,1,181,NaN,oven,car,128-0-10,0181_eid_dnn_128-0-10_car_10_n02814533_10995.png,n02814533_10995.png,0.0,-7.4407516,-0.63227427,-4.8143206
alexnet_w3_mlp_simclrhn_probe0,1,182,NaN,cat,dog,128-0-10,0182_eid_dnn_128-0-10_dog_10_n02112350_502.png,n02112350_502.png,0.0,-1.7717291,-0.100192904,-1.1819546
alexnet_w3_mlp_simclrhn_probe0,1,183,NaN,cat,clock,128-0-10,0183_eid_dnn_128-0-10_clock_10_n04548280_5278.png,n04548280_5278.png,0.0,-9.523918,-1.2142686,-5.8758097
alexnet_w3_mlp_simclrhn_probe0,1,184,NaN,bear,bird,4-0-10,0184_eid_dnn_4-0-10_bird_10_n02006656_713.png,n02006656_713.png,0.0,-3.746606,-1.3374728,-1.7035146
alexnet_w3_mlp_simclrhn_probe0,1,185,NaN,oven,bottle,128-0-10,0185_eid_dnn_128-0-10_bottle_10_n04557648_4106.png,n04557648_4106.png,0.0,-5.5523386,-0.5914505,-3.5078776
alexnet_w3_mlp_simclrhn_probe0,1,186,NaN,oven,clock,64-0-10,0186_eid_dnn_64-0-10_clock_10_n02708093_1430.png,n02708093_1430.png,0.0,-5.2713304,-1.2134826,-2.8693318
alexnet_w3_mlp_simclrhn_probe0,1,187,NaN,oven,oven,1-0-10,0187_eid_dnn_1-0-10_oven_10_n04111531_7664.png,n04111531_7664.png,1.0,3.483764,-2.3191202,4.1032586
alexnet_w3_mlp_simclrhn_probe0,1,188,NaN,car,car,1-0-10,0188_eid_dnn_1-0-10_car_10_n02814533_149.png,n02814533_149.png,1.0,4.070075,2.9167852,0.81549907
alexnet_w3_mlp_simclrhn_probe0,1,189,NaN,bear,clock,64-0-10,0189_eid_dnn_64-0-10_clock_10_n04548280_8296.png,n04548280_8296.png,0.0,-5.4513283,-1.3484133,-2.9011989
alexnet_w3_mlp_simclrhn_probe0,1,190,NaN,oven,bottle,64-0-10,0190_eid_dnn_64-0-10_bottle_10_n04591713_5815.png,n04591713_5815.png,0.0,-4.5989237,-0.556971,-2.858092
alexnet_w3_mlp_simclrhn_probe0,1,191,NaN,bottle,knife,2-0-10,0191_eid_dnn_2-0-10_knife_10_n03041632_90125.png,n03041632_90125.png,0.0,-2.1960778,-1.2170767,-0.69225836
alexnet_w3_mlp_simclrhn_probe0,1,192,NaN,bear,bird,64-0-10,0192_eid_dnn_64-0-10_bird_10_n01534433_16586.png,n01534433_16586.png,0.0,-2.504112,-0.5759651,-1.3634057
alexnet_w3_mlp_simclrhn_probe0,1,193,NaN,cat,cat,4-0-10,0193_eid_dnn_4-0-10_cat_10_n02123394_2559.png,n02123394_2559.png,1.0,0.27091774,-1.4582534,1.2227087
alexnet_w3_mlp_simclrhn_probe0,1,194,NaN,elephant,elephant,4-0-10,0194_eid_dnn_4-0-10_elephant_10_n02504458_5995.png,n02504458_5995.png,1.0,1.239855,0.76145333,0.3382811
alexnet_w3_mlp_simclrhn_probe0,1,195,NaN,car,car,2-0-10,0195_eid_dnn_2-0-10_car_10_n02814533_211.png,n02814533_211.png,1.0,4.2307696,2.5091047,1.2174009
alexnet_w3_mlp_simclrhn_probe0,1,196,NaN,chair,chair,1-0-10,0196_eid_dnn_1-0-10_chair_10_n04429376_13328.png,n04429376_13328.png,1.0,1.3745854,-1.3195363,1.9050318
alexnet_w3_mlp_simclrhn_probe0,1,197,NaN,bear,keyboard,16-0-10,0197_eid_dnn_16-0-10_keyboard_10_n03085013_24618.png,n03085013_24618.png,0.0,-7.699342,-0.34814715,-5.1980796
alexnet_w3_mlp_simclrhn_probe0,1,198,NaN,oven,oven,4-0-10,0198_eid_dnn_4-0-10_oven_10_n04111531_2186.png,n04111531_2186.png,1.0,0.3553722,-1.9711348,1.6450889
alexnet_w3_mlp_simclrhn_probe0,1,199,NaN,bear,oven,8-0-10,0199_eid_dnn_8-0-10_oven_10_n04111531_114.png,n04111531_114.png,0.0,-1.3562618,0.47620726,-1.2957513
alexnet_w3_mlp_simclrhn_probe0,1,200,NaN,car,car,1-0-10,0200_eid_dnn_1-0-10_car_10_n03100240_1745.png,n03100240_1745.png,1.0,5.545137,2.3251731,2.2768583
alexnet_w3_mlp_simclrhn_probe0,1,201,NaN,cat,cat,4-0-10,0201_eid_dnn_4-0-10_cat_10_n02123394_1259.png,n02123394_1259.png,1.0,0.1883139,-1.8472288,1.4393461
alexnet_w3_mlp_simclrhn_probe0,1,202,NaN,oven,oven,4-0-10,0202_eid_dnn_4-0-10_oven_10_n04111531_5801.png,n04111531_5801.png,1.0,-1.5145109,-1.9964949,0.34081417
alexnet_w3_mlp_simclrhn_probe0,1,203,NaN,bear,airplane,32-0-10,0203_eid_dnn_32-0-10_airplane_10_n02690373_2024.png,n02690373_2024.png,0.0,-5.2711325,-1.81339,-2.4449933
alexnet_w3_mlp_simclrhn_probe0,1,204,NaN,cat,cat,8-0-10,0204_eid_dnn_8-0-10_cat_10_n02123045_12181.png,n02123045_12181.png,1.0,0.1500905,-0.43545067,0.41404015
alexnet_w3_mlp_simclrhn_probe0,1,205,NaN,oven,airplane,64-0-10,0205_eid_dnn_64-0-10_airplane_10_n02690373_3313.png,n02690373_3313.png,0.0,-8.266109,-0.47529116,-5.5089407
alexnet_w3_mlp_simclrhn_probe0,1,206,NaN,oven,truck,64-0-10,0206_eid_dnn_64-0-10_truck_10_n04467665_80465.png,n04467665_80465.png,0.0,-4.214596,-0.66339904,-2.5110755
alexnet_w3_mlp_simclrhn_probe0,1,207,NaN,elephant,elephant,2-0-10,0207_eid_dnn_2-0-10_elephant_10_n02504013_8626.png,n02504013_8626.png,1.0,-1.5641043,-2.6437674,0.7634371
alexnet_w3_mlp_simclrhn_probe0,1,208,NaN,oven,car,16-0-10,0208_eid_dnn_16-0-10_car_10_n04285008_7904.png,n04285008_7904.png,0.0,-10.3535185,0.7290977,-7.836593
alexnet_w3_mlp_simclrhn_probe0,1,209,NaN,bear,airplane,8-0-10,0209_eid_dnn_8-0-10_airplane_10_n02690373_6363.png,n02690373_6363.png,0.0,-7.186551,-0.9866942,-4.3839607
alexnet_w3_mlp_simclrhn_probe0,1,210,NaN,cat,cat,4-0-10,0210_eid_dnn_4-0-10_cat_10_n02123045_7294.png,n02123045_7294.png,1.0,-1.1647006,-1.9124775,0.5287581
alexnet_w3_mlp_simclrhn_probe0,1,211,NaN,cat,airplane,128-0-10,0211_eid_dnn_128-0-10_airplane_10_n02690373_6988.png,n02690373_6988.png,0.0,-8.716595,-1.3777851,-5.189322
alexnet_w3_mlp_simclrhn_probe0,1,212,NaN,cat,cat,4-0-10,0212_eid_dnn_4-0-10_cat_10_n02125311_25749.png,n02125311_25749.png,1.0,-1.3538771,-1.924917,0.4037862
alexnet_w3_mlp_simclrhn_probe0,1,213,NaN,oven,bird,64-0-10,0213_eid_dnn_64-0-10_bird_10_n02018207_12980.png,n02018207_12980.png,0.0,-4.251896,-0.45281795,-2.686354
alexnet_w3_mlp_simclrhn_probe0,1,214,NaN,bear,cat,32-0-10,0214_eid_dnn_32-0-10_cat_10_n02123394_2814.png,n02123394_2814.png,0.0,-0.81223965,-0.18357292,-0.44453454
alexnet_w3_mlp_simclrhn_probe0,1,215,NaN,car,car,4-0-10,0215_eid_dnn_4-0-10_car_10_n04285008_662.png,n04285008_662.png,1.0,-3.20864,-3.8876603,0.48013976
alexnet_w3_mlp_simclrhn_probe0,1,216,NaN,cat,bicycle,2-0-10,0216_eid_dnn_2-0-10_bicycle_10_n03792782_11679.png,n03792782_11679.png,0.0,-3.005228,-1.3130649,-1.19654
alexnet_w3_mlp_simclrhn_probe0,1,217,NaN,bear,dog,16-0-10,0217_eid_dnn_16-0-10_dog_10_n02093428_17769.png,n02093428_17769.png,0.0,-1.5742414,-0.1427724,-1.0122014
alexnet_w3_mlp_simclrhn_probe0,1,218,NaN,oven,dog,64-0-10,0218_eid_dnn_64-0-10_dog_10_n02106030_17418.png,n02106030_17418.png,0.0,-1.5711246,0.022893816,-1.1271412
alexnet_w3_mlp_simclrhn_probe0,1,219,NaN,oven,chair,64-0-10,0219_eid_dnn_64-0-10_chair_10_n02791124_7142.png,n02791124_7142.png,0.0,-7.976174,0.9599797,-6.3188148
alexnet_w3_mlp_simclrhn_probe0,1,220,NaN,elephant,bear,1-0-10,0220_eid_dnn_1-0-10_bear_10_n02134084_18083.png,n02134084_18083.png,0.0,-1.1630297,-1.0637205,-0.070222214
alexnet_w3_mlp_simclrhn_probe0,1,221,NaN,keyboard,keyboard,2-0-10,0221_eid_dnn_2-0-10_keyboard_10_n03085013_7536.png,n03085013_7536.png,1.0,1.2849089,-0.9511827,1.5811555
alexnet_w3_mlp_simclrhn_probe0,1,222,NaN,dog,bird,1-0-10,0222_eid_dnn_1-0-10_bird_10_n01616318_2473.png,n01616318_2473.png,0.0,-1.7595059,-1.3208581,-0.3101708
alexnet_w3_mlp_simclrhn_probe0,1,223,NaN,elephant,elephant,1-0-10,0223_eid_dnn_1-0-10_elephant_10_n02504458_5951.png,n02504458_5951.png,1.0,3.1181753,-0.25559944,2.3856192
alexnet_w3_mlp_simclrhn_probe0,1,224,NaN,airplane,airplane,4-0-10,0224_eid_dnn_4-0-10_airplane_10_n02690373_5164.png,n02690373_5164.png,1.0,1.042209,-1.4539983,1.7650851
alexnet_w3_mlp_simclrhn_probe0,1,225,NaN,elephant,elephant,4-0-10,0225_eid_dnn_4-0-10_elephant_10_n02504013_1865.png,n02504013_1865.png,1.0,2.0435648,-0.60021293,1.8694333
alexnet_w3_mlp_simclrhn_probe0,1,226,NaN,knife,knife,1-0-10,0226_eid_dnn_1-0-10_knife_10_n03041632_56454.png,n03041632_56454.png,1.0,-0.55324423,-2.5028281,1.378564
alexnet_w3_mlp_simclrhn_probe0,1,227,NaN,oven,bird,64-0-10,0227_eid_dnn_64-0-10_bird_10_n01824575_5820.png,n01824575_5820.png,0.0,-3.2746718,-0.5487742,-1.9275007
alexnet_w3_mlp_simclrhn_probe0,1,228,NaN,oven,oven,4-0-10,0228_eid_dnn_4-0-10_oven_10_n04111531_4332.png,n04111531_4332.png,1.0,-0.6360885,-2.704257,1.462416
alexnet_w3_mlp_simclrhn_probe0,1,229,NaN,truck,truck,2-0-10,0229_eid_dnn_2-0-10_truck_10_n04467665_41352.png,n04467665_41352.png,1.0,3.5345097,-0.048830766,2.5338044
alexnet_w3_mlp_simclrhn_probe0,1,230,NaN,bird,bird,8-0-10,0230_eid_dnn_8-0-10_bird_10_n01514859_5668.png,n01514859_5668.png,1.0,-1.2454705,-1.3959444,0.10640107
alexnet_w3_mlp_simclrhn_probe0,1,231,NaN,oven,oven,32-0-10,0231_eid_dnn_32-0-10_oven_10_n04111531_4438.png,n04111531_4438.png,1.0,-1.5477359,-1.6690522,0.085783586
alexnet_w3_mlp_simclrhn_probe0,1,232,NaN,cat,cat,1-0-10,0232_eid_dnn_1-0-10_cat_10_n02123394_6693.png,n02123394_6693.png,1.0,0.7970881,-0.7057743,1.0626843
alexnet_w3_mlp_simclrhn_probe0,1,233,NaN,bear,elephant,32-0-10,0233_eid_dnn_32-0-10_elephant_10_n02504458_6302.png,n02504458_6302.png,0.0,-0.44650376,-0.073258206,-0.26392445
alexnet_w3_mlp_simclrhn_probe0,1,234,NaN,bear,bottle,16-0-10,0234_eid_dnn_16-0-10_bottle_10_n03937543_2329.png,n03937543_2329.png,0.0,-5.616782,-0.5955964,-3.5505147
alexnet_w3_mlp_simclrhn_probe0,1,235,NaN,bear,elephant,16-0-10,0235_eid_dnn_16-0-10_elephant_10_n02504458_5155.png,n02504458_5155.png,0.0,0.90382254,1.0169108,-0.07996547
alexnet_w3_mlp_simclrhn_probe0,1,236,NaN,oven,bear,1-0-10,0236_eid_dnn_1-0-10_bear_10_n02134084_1694.png,n02134084_1694.png,0.0,-2.7238138,-1.0791289,-1.1629679
alexnet_w3_mlp_simclrhn_probe0,1,237,NaN,cat,bear,128-0-10,0237_eid_dnn_128-0-10_bear_10_n02133161_1624.png,n02133161_1624.png,0.0,-3.6369183,-0.6727243,-2.0960019
alexnet_w3_mlp_simclrhn_probe0,1,238,NaN,bear,bear,64-0-10,0238_eid_dnn_64-0-10_bear_10_n02132136_11027.png,n02132136_11027.png,1.0,0.51754576,-0.4771437,0.7033517
alexnet_w3_mlp_simclrhn_probe0,1,239,NaN,oven,elephant,64-0-10,0239_eid_dnn_64-0-10_elephant_10_n02504013_24621.png,n02504013_24621.png,0.0,-2.361508,-0.41012055,-1.3798393
alexnet_w3_mlp_simclrhn_probe0,1,240,NaN,bear,knife,16-0-10,0240_eid_dnn_16-0-10_knife_10_n03041632_27134.png,n03041632_27134.png,0.0,-5.3702683,-0.17052412,-3.6767745
alexnet_w3_mlp_simclrhn_probe0,1,241,NaN,oven,keyboard,32-0-10,0241_eid_dnn_32-0-10_keyboard_10_n03085013_24316.png,n03085013_24316.png,0.0,-7.3347077,0.34482586,-5.43025
alexnet_w3_mlp_simclrhn_probe0,1,242,NaN,cat,cat,2-0-10,0242_eid_dnn_2-0-10_cat_10_n02123159_3026.png,n02123159_3026.png,1.0,-0.12347355,-3.2013514,2.1763883
alexnet_w3_mlp_simclrhn_probe0,1,243,NaN,cat,bicycle,128-0-10,0243_eid_dnn_128-0-10_bicycle_10_n03792782_1475.png,n03792782_1475.png,0.0,-7.3606033,-0.98437566,-4.508674
alexnet_w3_mlp_simclrhn_probe0,1,244,NaN,cat,cat,16-0-10,0244_eid_dnn_16-0-10_cat_10_n02123045_20507.png,n02123045_20507.png,1.0,0.831791,-0.22667179,0.74844617
alexnet_w3_mlp_simclrhn_probe0,1,245,NaN,oven,boat,64-0-10,0245_eid_dnn_64-0-10_boat_10_n02951358_23759.png,n02951358_23759.png,0.0,-5.621028,0.044228792,-4.0059414
alexnet_w3_mlp_simclrhn_probe0,1,246,NaN,bear,bear,16-0-10,0246_eid_dnn_16-0-10_bear_10_n02132136_1858.png,n02132136_1858.png,1.0,0.7010208,-0.82184106,1.076826
alexnet_w3_mlp_simclrhn_probe0,1,247,NaN,cat,boat,128-0-10,0247_eid_dnn_128-0-10_boat_10_n02951358_6465.png,n02951358_6465.png,0.0,-7.577409,-0.61103636,-4.925969
alexnet_w3_mlp_simclrhn_probe0,1,248,NaN,bird,airplane,128-0-10,0248_eid_dnn_128-0-10_airplane_10_n02690373_6223.png,n02690373_6223.png,0.0,-7.1181555,-1.196136,-4.1875
alexnet_w3_mlp_simclrhn_probe0,1,249,NaN,oven,boat,128-0-10,0249_eid_dnn_128-0-10_boat_10_n03344393_2412.png,n03344393_2412.png,0.0,-6.0020876,-0.7269976,-3.7300522
alexnet_w3_mlp_simclrhn_probe0,1,250,NaN,cat,knife,8-0-10,0250_eid_dnn_8-0-10_knife_10_n03041632_6446.png,n03041632_6446.png,0.0,-3.7237222,-0.7240775,-2.1210692
alexnet_w3_mlp_simclrhn_probe0,1,251,NaN,bear,bottle,64-0-10,0251_eid_dnn_64-0-10_bottle_10_n04591713_7940.png,n04591713_7940.png,0.0,-6.3688493,-0.6511804,-4.0430026
alexnet_w3_mlp_simclrhn_probe0,1,252,NaN,cat,cat,4-0-10,0252_eid_dnn_4-0-10_cat_10_n02124075_13568.png,n02124075_13568.png,1.0,0.6960055,-1.7792872,1.7502962
alexnet_w3_mlp_simclrhn_probe0,1,253,NaN,truck,boat,2-0-10,0253_eid_dnn_2-0-10_boat_10_n03662601_2171.png,n03662601_2171.png,0.0,-1.3272318,-1.105591,-0.15672365
alexnet_w3_mlp_simclrhn_probe0,1,254,NaN,elephant,elephant,1-0-10,0254_eid_dnn_1-0-10_elephant_10_n02504458_415.png,n02504458_415.png,1.0,-0.37628108,-1.1070907,0.51676047
alexnet_w3_mlp_simclrhn_probe0,1,255,NaN,oven,car,16-0-10,0255_eid_dnn_16-0-10_car_10_n03100240_3386.png,n03100240_3386.png,0.0,-7.0547004,-1.120089,-4.196404
alexnet_w3_mlp_simclrhn_probe0,1,256,NaN,cat,bird,16-0-10,0256_eid_dnn_16-0-10_bird_10_n02056570_6633.png,n02056570_6633.png,0.0,-5.024363,-2.1226697,-2.0518072
alexnet_w3_mlp_simclrhn_probe0,1,257,NaN,oven,bottle,32-0-10,0257_eid_dnn_32-0-10_bottle_10_n02823428_4232.png,n02823428_4232.png,0.0,-3.672734,0.18932469,-2.730888
alexnet_w3_mlp_simclrhn_probe0,1,258,NaN,cat,boat,128-0-10,0258_eid_dnn_128-0-10_boat_10_n04273569_2396.png,n04273569_2396.png,0.0,-6.589076,-1.2964911,-3.7424228
alexnet_w3_mlp_simclrhn_probe0,1,259,NaN,knife,knife,1-0-10,0259_eid_dnn_1-0-10_knife_10_n03041632_38996.png,n03041632_38996.png,1.0,-0.33670914,-1.9755716,1.1588508
alexnet_w3_mlp_simclrhn_probe0,1,260,NaN,cat,oven,8-0-10,0260_eid_dnn_8-0-10_oven_10_n04111531_10420.png,n04111531_10420.png,0.0,-0.5680492,-0.5647308,-0.0023464416
alexnet_w3_mlp_simclrhn_probe0,1,261,NaN,oven,dog,128-0-10,0261_eid_dnn_128-0-10_dog_10_n02094114_2394.png,n02094114_2394.png,0.0,-2.3168232,-0.39700806,-1.3575144
alexnet_w3_mlp_simclrhn_probe0,1,262,NaN,oven,elephant,128-0-10,0262_eid_dnn_128-0-10_elephant_10_n02504013_4247.png,n02504013_4247.png,0.0,-1.4656938,-0.66018957,-0.5695775
alexnet_w3_mlp_simclrhn_probe0,1,263,NaN,bear,chair,32-0-10,0263_eid_dnn_32-0-10_chair_10_n03376595_8137.png,n03376595_8137.png,0.0,-5.025174,-0.5891844,-3.1367185
alexnet_w3_mlp_simclrhn_probe0,1,264,NaN,bear,airplane,128-0-10,0264_eid_dnn_128-0-10_airplane_10_n02690373_8524.png,n02690373_8524.png,0.0,-14.879254,-0.5796401,-10.111354
alexnet_w3_mlp_simclrhn_probe0,1,265,NaN,bear,car,64-0-10,0265_eid_dnn_64-0-10_car_10_n03100240_18410.png,n03100240_18410.png,0.0,-7.7012744,-1.3136019,-4.5167665
alexnet_w3_mlp_simclrhn_probe0,1,266,NaN,oven,clock,64-0-10,0266_eid_dnn_64-0-10_clock_10_n04548280_2588.png,n04548280_2588.png,0.0,-7.584398,0.9834131,-6.0583572
alexnet_w3_mlp_simclrhn_probe0,1,267,NaN,oven,keyboard,32-0-10,0267_eid_dnn_32-0-10_keyboard_10_n03085013_24030.png,n03085013_24030.png,0.0,-8.106397,-1.8506035,-4.423514
alexnet_w3_mlp_simclrhn_probe0,1,268,NaN,clock,clock,2-0-10,0268_eid_dnn_2-0-10_clock_10_n03196217_6375.png,n03196217_6375.png,1.0,0.7490259,0.6806759,0.04833072
alexnet_w3_mlp_simclrhn_probe0,1,269,NaN,oven,airplane,32-0-10,0269_eid_dnn_32-0-10_airplane_10_n02690373_4150.png,n02690373_4150.png,0.0,-6.276375,-0.9125152,-3.7928216
alexnet_w3_mlp_simclrhn_probe0,1,270,NaN,cat,dog,4-0-10,0270_eid_dnn_4-0-10_dog_10_n02086646_6567.png,n02086646_6567.png,0.0,-1.5799111,-0.3662682,-0.85817516
alexnet_w3_mlp_simclrhn_probe0,1,271,NaN,oven,clock,64-0-10,0271_eid_dnn_64-0-10_clock_10_n03196217_775.png,n03196217_775.png,0.0,-10.775299,0.00019621849,-7.6194263
alexnet_w3_mlp_simclrhn_probe0,1,272,NaN,car,car,1-0-10,0272_eid_dnn_1-0-10_car_10_n02814533_57353.png,n02814533_57353.png,1.0,4.3844647,4.367064,0.012304182
alexnet_w3_mlp_simclrhn_probe0,1,273,NaN,oven,bottle,16-0-10,0273_eid_dnn_16-0-10_bottle_10_n04560804_183.png,n04560804_183.png,0.0,-3.984927,-0.4641893,-2.4895375
alexnet_w3_mlp_simclrhn_probe0,1,274,NaN,car,car,2-0-10,0274_eid_dnn_2-0-10_car_10_n04285008_10631.png,n04285008_10631.png,1.0,3.7288902,-1.0110002,3.3516085
alexnet_w3_mlp_simclrhn_probe0,1,275,NaN,bear,bear,2-0-10,0275_eid_dnn_2-0-10_bear_10_n02132136_10057.png,n02132136_10057.png,1.0,5.5413275,2.663605,2.034857
alexnet_w3_mlp_simclrhn_probe0,1,276,NaN,oven,boat,128-0-10,0276_eid_dnn_128-0-10_boat_10_n04273569_4605.png,n04273569_4605.png,0.0,-8.289656,-1.2495546,-4.978103
alexnet_w3_mlp_simclrhn_probe0,1,277,NaN,oven,cat,64-0-10,0277_eid_dnn_64-0-10_cat_10_n02123597_12711.png,n02123597_12711.png,0.0,-1.9292212,-0.5058175,-1.0064985
alexnet_w3_mlp_simclrhn_probe0,1,278,NaN,bottle,bottle,1-0-10,0278_eid_dnn_1-0-10_bottle_10_n04560804_5610.png,n04560804_5610.png,1.0,0.7657949,-3.598776,3.0862179
alexnet_w3_mlp_simclrhn_probe0,1,279,NaN,bear,clock,32-0-10,0279_eid_dnn_32-0-10_clock_10_n04548280_8412.png,n04548280_8412.png,0.0,-7.384149,-0.15289378,-5.11327
alexnet_w3_mlp_simclrhn_probe0,1,280,NaN,cat,cat,2-0-10,0280_eid_dnn_2-0-10_cat_10_n02123597_13834.png,n02123597_13834.png,1.0,-0.527824,-1.7368442,0.8549064
alexnet_w3_mlp_simclrhn_probe0,1,281,NaN,bird,dog,128-0-10,0281_eid_dnn_128-0-10_dog_10_n02091831_538.png,n02091831_538.png,0.0,-1.9728723,-1.2539647,-0.5083445
alexnet_w3_mlp_simclrhn_probe0,1,282,NaN,bear,bicycle,32-0-10,0282_eid_dnn_32-0-10_bicycle_10_n03792782_10437.png,n03792782_10437.png,0.0,-1.36398,-0.73307735,-0.44611558
alexnet_w3_mlp_simclrhn_probe0,1,283,NaN,bear,bear,2-0-10,0283_eid_dnn_2-0-10_bear_10_n02132136_2372.png,n02132136_2372.png,1.0,1.6246332,-0.50596225,1.5065585
alexnet_w3_mlp_simclrhn_probe0,1,284,NaN,bear,bicycle,128-0-10,0284_eid_dnn_128-0-10_bicycle_10_n03792782_4540.png,n03792782_4540.png,0.0,-1.6885833,-1.4048102,-0.20065786
alexnet_w3_mlp_simclrhn_probe0,1,285,NaN,elephant,elephant,2-0-10,0285_eid_dnn_2-0-10_elephant_10_n02504013_10152.png,n02504013_10152.png,1.0,0.42326546,-0.5859326,0.7136108
alexnet_w3_mlp_simclrhn_probe0,1,286,NaN,bear,boat,64-0-10,0286_eid_dnn_64-0-10_boat_10_n02951358_7603.png,n02951358_7603.png,0.0,-5.9804244,-0.23638643,-4.0616484
alexnet_w3_mlp_simclrhn_probe0,1,287,NaN,bear,bear,2-0-10,0287_eid_dnn_2-0-10_bear_10_n02133161_9371.png,n02133161_9371.png,1.0,1.6570873,-0.9635817,1.8530928
alexnet_w3_mlp_simclrhn_probe0,1,288,NaN,bear,truck,8-0-10,0288_eid_dnn_8-0-10_truck_10_n04467665_69892.png,n04467665_69892.png,0.0,-5.149642,0.5985755,-4.064604
alexnet_w3_mlp_simclrhn_probe0,1,289,NaN,knife,knife,1-0-10,0289_eid_dnn_1-0-10_knife_10_n03041632_19275.png,n03041632_19275.png,1.0,-2.6152093,-3.4495194,0.5899463
alexnet_w3_mlp_simclrhn_probe0,1,290,NaN,oven,keyboard,16-0-10,0290_eid_dnn_16-0-10_keyboard_10_n04505470_9446.png,n04505470_9446.png,0.0,-6.7124114,-0.38684517,-4.472851
alexnet_w3_mlp_simclrhn_probe0,1,291,NaN,elephant,elephant,1-0-10,0291_eid_dnn_1-0-10_elephant_10_n02504013_9141.png,n02504013_9141.png,1.0,0.35531545,-1.6407442,1.4114274
alexnet_w3_mlp_simclrhn_probe0,1,292,NaN,oven,bird,128-0-10,0292_eid_dnn_128-0-10_bird_10_n02056570_8553.png,n02056570_8553.png,0.0,-3.5887897,0.5912149,-2.9557097
alexnet_w3_mlp_simclrhn_probe0,1,293,NaN,car,car,1-0-10,0293_eid_dnn_1-0-10_car_10_n03100240_9171.png,n03100240_9171.png,1.0,4.6897182,1.6771774,2.130188
alexnet_w3_mlp_simclrhn_probe0,1,294,NaN,bear,dog,8-0-10,0294_eid_dnn_8-0-10_dog_10_n02102177_1533.png,n02102177_1533.png,0.0,-0.91112727,-0.38474187,-0.3722107
alexnet_w3_mlp_simclrhn_probe0,1,295,NaN,oven,cat,64-0-10,0295_eid_dnn_64-0-10_cat_10_n02124075_12464.png,n02124075_12464.png,0.0,-1.1899539,0.073587015,-0.8934584
alexnet_w3_mlp_simclrhn_probe0,1,296,NaN,bottle,chair,4-0-10,0296_eid_dnn_4-0-10_chair_10_n04429376_33792.png,n04429376_33792.png,0.0,-4.122747,-1.1346186,-2.1129258
alexnet_w3_mlp_simclrhn_probe0,1,297,NaN,oven,bear,128-0-10,0297_eid_dnn_128-0-10_bear_10_n02133161_3258.png,n02133161_3258.png,0.0,-3.0467763,-0.29053116,-1.9489597
alexnet_w3_mlp_simclrhn_probe0,1,298,NaN,elephant,dog,4-0-10,0298_eid_dnn_4-0-10_dog_10_n02097130_1442.png,n02097130_1442.png,0.0,-2.3593266,1.0848156,-2.4353764
alexnet_w3_mlp_simclrhn_probe0,1,299,NaN,oven,chair,4-0-10,0299_eid_dnn_4-0-10_chair_10_n02791124_8970.png,n02791124_8970.png,0.0,-4.1939034,-2.9288976,-0.89449424
alexnet_w3_mlp_simclrhn_probe0,1,300,NaN,bear,car,8-0-10,0300_eid_dnn_8-0-10_car_10_n04285008_8545.png,n04285008_8545.png,0.0,-7.462015,-1.5675724,-4.168
alexnet_w3_mlp_simclrhn_probe0,1,301,NaN,truck,truck,1-0-10,0301_eid_dnn_1-0-10_truck_10_n03417042_2204.png,n03417042_2204.png,1.0,0.91679573,-1.6156965,1.7907424
alexnet_w3_mlp_simclrhn_probe0,1,302,NaN,bear,bear,2-0-10,0302_eid_dnn_2-0-10_bear_10_n02133161_15593.png,n02133161_15593.png,1.0,0.81687725,0.63688374,0.12727463
alexnet_w3_mlp_simclrhn_probe0,1,303,NaN,knife,clock,2-0-10,0303_eid_dnn_2-0-10_clock_10_n04548280_5845.png,n04548280_5845.png,0.0,-3.4743137,-3.088307,-0.27294806
alexnet_w3_mlp_simclrhn_probe0,1,304,NaN,cat,knife,4-0-10,0304_eid_dnn_4-0-10_knife_10_n03041632_4975.png,n03041632_4975.png,0.0,-2.96837,-1.8796797,-0.7698203
alexnet_w3_mlp_simclrhn_probe0,1,305,NaN,oven,clock,32-0-10,0305_eid_dnn_32-0-10_clock_10_n03196217_4849.png,n03196217_4849.png,0.0,-4.719179,-1.4360281,-2.3215384
alexnet_w3_mlp_simclrhn_probe0,1,306,NaN,elephant,bicycle,2-0-10,0306_eid_dnn_2-0-10_bicycle_10_n03792782_15752.png,n03792782_15752.png,0.0,-3.0215597,-1.1898532,-1.2952121
alexnet_w3_mlp_simclrhn_probe0,1,307,NaN,cat,bicycle,16-0-10,0307_eid_dnn_16-0-10_bicycle_10_n02835271_29741.png,n02835271_29741.png,0.0,-3.9713356,-1.6436787,-1.645902
alexnet_w3_mlp_simclrhn_probe0,1,308,NaN,oven,chair,4-0-10,0308_eid_dnn_4-0-10_chair_10_n04099969_16619.png,n04099969_16619.png,0.0,-3.4969416,-1.5930333,-1.3462665
alexnet_w3_mlp_simclrhn_probe0,1,309,NaN,keyboard,keyboard,4-0-10,0309_eid_dnn_4-0-10_keyboard_10_n04505470_4552.png,n04505470_4552.png,1.0,0.42072582,-1.6159495,1.440147
alexnet_w3_mlp_simclrhn_probe0,1,310,NaN,bear,boat,8-0-10,0310_eid_dnn_8-0-10_boat_10_n02951358_13144.png,n02951358_13144.png,0.0,-4.5701466,0.24339497,-3.4036877
alexnet_w3_mlp_simclrhn_probe0,1,311,NaN,bear,bird,32-0-10,0311_eid_dnn_32-0-10_bird_10_n01797886_14611.png,n01797886_14611.png,0.0,-1.6710236,-0.5186173,-0.81487435
alexnet_w3_mlp_simclrhn_probe0,1,312,NaN,knife,knife,1-0-10,0312_eid_dnn_1-0-10_knife_10_n03041632_3326.png,n03041632_3326.png,1.0,-0.9360479,-2.6779351,1.2317003
alexnet_w3_mlp_simclrhn_probe0,1,313,NaN,bear,elephant,8-0-10,0313_eid_dnn_8-0-10_elephant_10_n02504013_5829.png,n02504013_5829.png,0.0,0.60402775,1.0536269,-0.3179146
alexnet_w3_mlp_simclrhn_probe0,1,314,NaN,bear,dog,16-0-10,0314_eid_dnn_16-0-10_dog_10_n02088094_2292.png,n02088094_2292.png,0.0,-1.8289564,-0.5995273,-0.8693376
alexnet_w3_mlp_simclrhn_probe0,1,315,NaN,oven,oven,8-0-10,0315_eid_dnn_8-0-10_oven_10_n04111531_4944.png,n04111531_4944.png,1.0,0.7087905,-0.48288324,0.8426406
alexnet_w3_mlp_simclrhn_probe0,1,316,NaN,oven,oven,32-0-10,0316_eid_dnn_32-0-10_oven_10_n04111531_669.png,n04111531_669.png,1.0,-0.6351533,-1.0100596,0.26509878
alexnet_w3_mlp_simclrhn_probe0,1,317,NaN,oven,car,64-0-10,0317_eid_dnn_64-0-10_car_10_n02814533_6716.png,n02814533_6716.png,0.0,-12.412623,1.7930686,-10.044942
alexnet_w3_mlp_simclrhn_probe0,1,318,NaN,oven,bear,32-0-10,0318_eid_dnn_32-0-10_bear_10_n02132136_26438.png,n02132136_26438.png,0.0,-0.54147136,-0.1528513,-0.2747959
alexnet_w3_mlp_simclrhn_probe0,1,319,NaN,oven,bottle,4-0-10,0319_eid_dnn_4-0-10_bottle_10_n03983396_3027.png,n03983396_3027.png,0.0,-3.3649185,-1.3315442,-1.4378128
alexnet_w3_mlp_simclrhn_probe0,1,320,NaN,elephant,elephant,2-0-10,0320_eid_dnn_2-0-10_elephant_10_n02504013_9299.png,n02504013_9299.png,1.0,5.9388657,0.33357966,3.9635358
alexnet_w3_mlp_simclrhn_probe0,1,321,NaN,knife,knife,2-0-10,0321_eid_dnn_2-0-10_knife_10_n03041632_13846.png,n03041632_13846.png,1.0,-2.1200466,-2.1474838,0.019401038
alexnet_w3_mlp_simclrhn_probe0,1,322,NaN,oven,airplane,64-0-10,0322_eid_dnn_64-0-10_airplane_10_n02690373_16250.png,n02690373_16250.png,0.0,-6.1544313,-0.7393162,-3.8290648
alexnet_w3_mlp_simclrhn_probe0,1,323,NaN,cat,boat,64-0-10,0323_eid_dnn_64-0-10_boat_10_n03662601_13696.png,n03662601_13696.png,0.0,-10.144199,-2.2342646,-5.5931687
alexnet_w3_mlp_simclrhn_probe0,1,324,NaN,cat,cat,1-0-10,0324_eid_dnn_1-0-10_cat_10_n02123597_5692.png,n02123597_5692.png,1.0,-0.24460435,-1.1542883,0.6432437
alexnet_w3_mlp_simclrhn_probe0,1,325,NaN,bear,clock,8-0-10,0325_eid_dnn_8-0-10_clock_10_n02708093_3171.png,n02708093_3171.png,0.0,-9.411997,-0.6090852,-6.224599
alexnet_w3_mlp_simclrhn_probe0,1,326,NaN,oven,keyboard,128-0-10,0326_eid_dnn_128-0-10_keyboard_10_n04505470_4902.png,n04505470_4902.png,0.0,-7.3134265,-0.395378,-4.891799
alexnet_w3_mlp_simclrhn_probe0,1,327,NaN,cat,dog,2-0-10,0327_eid_dnn_2-0-10_dog_10_n02113624_1170.png,n02113624_1170.png,0.0,-1.7749541,-0.6434873,-0.8000679
alexnet_w3_mlp_simclrhn_probe0,1,328,NaN,clock,clock,2-0-10,0328_eid_dnn_2-0-10_clock_10_n03196217_1272.png,n03196217_1272.png,1.0,-0.0453403,-1.1908505,0.80999804
alexnet_w3_mlp_simclrhn_probe0,1,329,NaN,oven,cat,128-0-10,0329_eid_dnn_128-0-10_cat_10_n02123394_8946.png,n02123394_8946.png,0.0,-0.6529477,0.33909968,-0.7014835
alexnet_w3_mlp_simclrhn_probe0,1,330,NaN,cat,car,8-0-10,0330_eid_dnn_8-0-10_car_10_n03100240_7134.png,n03100240_7134.png,0.0,-5.4717727,-2.5669165,-2.0540435
alexnet_w3_mlp_simclrhn_probe0,1,331,NaN,bicycle,bicycle,4-0-10,0331_eid_dnn_4-0-10_bicycle_10_n03792782_16034.png,n03792782_16034.png,1.0,-1.8358212,-2.928139,0.77238536
alexnet_w3_mlp_simclrhn_probe0,1,332,NaN,elephant,dog,8-0-10,0332_eid_dnn_8-0-10_dog_10_n02104029_5465.png,n02104029_5465.png,0.0,-1.9100385,-0.41114736,-1.0598761
alexnet_w3_mlp_simclrhn_probe0,1,333,NaN,keyboard,keyboard,4-0-10,0333_eid_dnn_4-0-10_keyboard_10_n04505470_5011.png,n04505470_5011.png,1.0,1.1920301,0.44633585,0.52728546
alexnet_w3_mlp_simclrhn_probe0,1,334,NaN,cat,bird,8-0-10,0334_eid_dnn_8-0-10_bird_10_n02009912_27132.png,n02009912_27132.png,0.0,-1.4439172,-0.17392886,-0.89801735
alexnet_w3_mlp_simclrhn_probe0,1,335,NaN,oven,knife,64-0-10,0335_eid_dnn_64-0-10_knife_10_n03041632_3171.png,n03041632_3171.png,0.0,-3.028494,-0.6091907,-1.7107058
alexnet_w3_mlp_simclrhn_probe0,1,336,NaN,oven,bear,32-0-10,0336_eid_dnn_32-0-10_bear_10_n02134084_21170.png,n02134084_21170.png,0.0,-0.6963168,0.0005301535,-0.49274522
alexnet_w3_mlp_simclrhn_probe0,1,337,NaN,dog,dog,4-0-10,0337_eid_dnn_4-0-10_dog_10_n02086079_29044.png,n02086079_29044.png,1.0,-1.3699753,-2.13327,0.53973085
alexnet_w3_mlp_simclrhn_probe0,1,338,NaN,cat,cat,4-0-10,0338_eid_dnn_4-0-10_cat_10_n02124075_8465.png,n02124075_8465.png,1.0,0.09228352,-1.2925205,0.9792043
alexnet_w3_mlp_simclrhn_probe0,1,339,NaN,oven,bird,128-0-10,0339_eid_dnn_128-0-10_bird_10_n01855032_982.png,n01855032_982.png,0.0,-2.6617787,-1.2127882,-1.024591
alexnet_w3_mlp_simclrhn_probe0,1,340,NaN,bear,truck,32-0-10,0340_eid_dnn_32-0-10_truck_10_n03417042_6373.png,n03417042_6373.png,0.0,-6.545564,0.2704061,-4.819619
alexnet_w3_mlp_simclrhn_probe0,1,341,NaN,cat,airplane,16-0-10,0341_eid_dnn_16-0-10_airplane_10_n02690373_9959.png,n02690373_9959.png,0.0,-8.781094,-0.6731064,-5.733213
alexnet_w3_mlp_simclrhn_probe0,1,342,NaN,oven,clock,32-0-10,0342_eid_dnn_32-0-10_clock_10_n04548280_2260.png,n04548280_2260.png,0.0,-7.268687,-0.27050197,-4.948464
alexnet_w3_mlp_simclrhn_probe0,1,343,NaN,bear,bottle,16-0-10,0343_eid_dnn_16-0-10_bottle_10_n03983396_5281.png,n03983396_5281.png,0.0,-1.9107695,-1.1305468,-0.5517007
alexnet_w3_mlp_simclrhn_probe0,1,344,NaN,cat,cat,4-0-10,0344_eid_dnn_4-0-10_cat_10_n02123159_1113.png,n02123159_1113.png,1.0,1.9967629,-0.73621637,1.9325082
alexnet_w3_mlp_simclrhn_probe0,1,345,NaN,oven,keyboard,64-0-10,0345_eid_dnn_64-0-10_keyboard_10_n03085013_20460.png,n03085013_20460.png,0.0,-5.386835,0.07765621,-3.8639789
alexnet_w3_mlp_simclrhn_probe0,1,346,NaN,oven,clock,8-0-10,0346_eid_dnn_8-0-10_clock_10_n03196217_884.png,n03196217_884.png,0.0,-9.875327,-0.58927816,-6.5662284
alexnet_w3_mlp_simclrhn_probe0,1,347,NaN,cat,clock,8-0-10,0347_eid_dnn_8-0-10_clock_10_n03196217_6257.png,n03196217_6257.png,0.0,-9.409572,-2.2781496,-5.042677
alexnet_w3_mlp_simclrhn_probe0,1,348,NaN,oven,dog,32-0-10,0348_eid_dnn_32-0-10_dog_10_n02113624_2109.png,n02113624_2109.png,0.0,-1.2570944,0.20441121,-1.0334406
alexnet_w3_mlp_simclrhn_probe0,1,349,NaN,keyboard,keyboard,1-0-10,0349_eid_dnn_1-0-10_keyboard_10_n03085013_20416.png,n03085013_20416.png,1.0,3.104082,-0.9035547,2.8338273
alexnet_w3_mlp_simclrhn_probe0,1,350,NaN,bird,bird,2-0-10,0350_eid_dnn_2-0-10_bird_10_n01820546_4609.png,n01820546_4609.png,1.0,-1.8892949,-2.6271951,0.5217743
alexnet_w3_mlp_simclrhn_probe0,1,351,NaN,oven,cat,64-0-10,0351_eid_dnn_64-0-10_cat_10_n02125311_47792.png,n02125311_47792.png,0.0,-1.6697035,0.09548439,-1.2481763
alexnet_w3_mlp_simclrhn_probe0,1,352,NaN,bear,boat,16-0-10,0352_eid_dnn_16-0-10_boat_10_n04612504_1491.png,n04612504_1491.png,0.0,-3.6082692,-1.3767128,-1.5779487
alexnet_w3_mlp_simclrhn_probe0,1,353,NaN,bear,truck,16-0-10,0353_eid_dnn_16-0-10_truck_10_n03417042_910.png,n03417042_910.png,0.0,-8.615446,1.0207962,-6.8138523
alexnet_w3_mlp_simclrhn_probe0,1,354,NaN,oven,airplane,64-0-10,0354_eid_dnn_64-0-10_airplane_10_n02690373_2038.png,n02690373_2038.png,0.0,-6.046675,-0.18247467,-4.146616
alexnet_w3_mlp_simclrhn_probe0,1,355,NaN,cat,cat,2-0-10,0355_eid_dnn_2-0-10_cat_10_n02123394_8164.png,n02123394_8164.png,1.0,0.03892843,-0.9377742,0.69063306
alexnet_w3_mlp_simclrhn_probe0,1,356,NaN,oven,oven,2-0-10,0356_eid_dnn_2-0-10_oven_10_n04111531_22097.png,n04111531_22097.png,1.0,4.088272,-1.803856,4.1663637
alexnet_w3_mlp_simclrhn_probe0,1,357,NaN,oven,bear,128-0-10,0357_eid_dnn_128-0-10_bear_10_n02134418_278.png,n02134418_278.png,0.0,-2.232569,-0.96133435,-0.89889866
alexnet_w3_mlp_simclrhn_probe0,1,358,NaN,bird,bird,4-0-10,0358_eid_dnn_4-0-10_bird_10_n01592084_9109.png,n01592084_9109.png,1.0,-0.9190116,-2.5102892,1.1252033
alexnet_w3_mlp_simclrhn_probe0,1,359,NaN,oven,clock,32-0-10,0359_eid_dnn_32-0-10_clock_10_n03196217_3695.png,n03196217_3695.png,0.0,-6.1139884,-0.36269006,-4.066782
alexnet_w3_mlp_simclrhn_probe0,1,360,NaN,oven,elephant,128-0-10,0360_eid_dnn_128-0-10_elephant_10_n02504458_8939.png,n02504458_8939.png,0.0,-2.520395,-0.6704249,-1.3081264
alexnet_w3_mlp_simclrhn_probe0,1,361,NaN,boat,elephant,2-0-10,0361_eid_dnn_2-0-10_elephant_10_n02504013_7926.png,n02504013_7926.png,0.0,-1.9891279,-1.2214981,-0.5427962
alexnet_w3_mlp_simclrhn_probe0,1,362,NaN,elephant,bear,4-0-10,0362_eid_dnn_4-0-10_bear_10_n02133161_11816.png,n02133161_11816.png,0.0,-0.52602816,0.37488234,-0.63703996
alexnet_w3_mlp_simclrhn_probe0,1,363,NaN,cat,bird,2-0-10,0363_eid_dnn_2-0-10_bird_10_n02056570_18300.png,n02056570_18300.png,0.0,-3.4539585,-2.2509766,-0.8506367
alexnet_w3_mlp_simclrhn_probe0,1,364,NaN,elephant,chair,2-0-10,0364_eid_dnn_2-0-10_chair_10_n02791124_7063.png,n02791124_7063.png,0.0,-3.9828517,-2.3904223,-1.1260177
alexnet_w3_mlp_simclrhn_probe0,1,365,NaN,elephant,chair,8-0-10,0365_eid_dnn_8-0-10_chair_10_n03376595_8289.png,n03376595_8289.png,0.0,-5.1502695,-2.4345188,-1.9203258
alexnet_w3_mlp_simclrhn_probe0,1,366,NaN,airplane,airplane,4-0-10,0366_eid_dnn_4-0-10_airplane_10_n02690373_4434.png,n02690373_4434.png,1.0,0.67264116,-0.9276312,1.1315635
alexnet_w3_mlp_simclrhn_probe0,1,367,NaN,truck,truck,1-0-10,0367_eid_dnn_1-0-10_truck_10_n03417042_8953.png,n03417042_8953.png,1.0,5.131531,2.6565416,1.7500817
alexnet_w3_mlp_simclrhn_probe0,1,368,NaN,bear,bear,64-0-10,0368_eid_dnn_64-0-10_bear_10_n02132136_699.png,n02132136_699.png,1.0,-0.55506027,-1.3989532,0.5967224
alexnet_w3_mlp_simclrhn_probe0,1,369,NaN,cat,knife,8-0-10,0369_eid_dnn_8-0-10_knife_10_n03041632_20517.png,n03041632_20517.png,0.0,-3.3642507,-2.553259,-0.5734578
alexnet_w3_mlp_simclrhn_probe0,1,370,NaN,oven,bottle,32-0-10,0370_eid_dnn_32-0-10_bottle_10_n03983396_1910.png,n03983396_1910.png,0.0,-4.4299135,-0.7741715,-2.585
alexnet_w3_mlp_simclrhn_probe0,1,371,NaN,bear,oven,8-0-10,0371_eid_dnn_8-0-10_oven_10_n04111531_16198.png,n04111531_16198.png,0.0,0.43563056,0.5755153,-0.09891343
alexnet_w3_mlp_simclrhn_probe0,1,372,NaN,oven,elephant,64-0-10,0372_eid_dnn_64-0-10_elephant_10_n02504013_13427.png,n02504013_13427.png,0.0,-3.1422875,-0.043033212,-2.1915038
alexnet_w3_mlp_simclrhn_probe0,1,373,NaN,oven,airplane,16-0-10,0373_eid_dnn_16-0-10_airplane_10_n02690373_1075.png,n02690373_1075.png,0.0,-4.2015095,-1.4306273,-1.9593096
alexnet_w3_mlp_simclrhn_probe0,1,374,NaN,oven,car,64-0-10,0374_eid_dnn_64-0-10_car_10_n03100240_5527.png,n03100240_5527.png,0.0,-8.964929,-1.0113887,-5.624002
alexnet_w3_mlp_simclrhn_probe0,1,375,NaN,bear,bear,1-0-10,0375_eid_dnn_1-0-10_bear_10_n02132136_4632.png,n02132136_4632.png,1.0,2.3293748,-1.2748027,2.5485384
alexnet_w3_mlp_simclrhn_probe0,1,376,NaN,boat,boat,1-0-10,0376_eid_dnn_1-0-10_boat_10_n04273569_6158.png,n04273569_6158.png,1.0,2.0391858,-1.7564833,2.6839433
alexnet_w3_mlp_simclrhn_probe0,1,377,NaN,bear,knife,32-0-10,0377_eid_dnn_32-0-10_knife_10_n03041632_18141.png,n03041632_18141.png,0.0,-5.1167088,0.9989824,-4.3244467
alexnet_w3_mlp_simclrhn_probe0,1,378,NaN,bear,bear,16-0-10,0378_eid_dnn_16-0-10_bear_10_n02132136_6378.png,n02132136_6378.png,1.0,0.12090412,-0.92038226,0.73630065
alexnet_w3_mlp_simclrhn_probe0,1,379,NaN,elephant,elephant,2-0-10,0379_eid_dnn_2-0-10_elephant_10_n02504458_5095.png,n02504458_5095.png,1.0,3.301549,-2.1530747,3.8570015
alexnet_w3_mlp_simclrhn_probe0,1,380,NaN,elephant,elephant,4-0-10,0380_eid_dnn_4-0-10_elephant_10_n02504013_10582.png,n02504013_10582.png,1.0,3.085312,2.2365274,0.6001812
alexnet_w3_mlp_simclrhn_probe0,1,381,NaN,cat,chair,16-0-10,0381_eid_dnn_16-0-10_chair_10_n04099969_28139.png,n04099969_28139.png,0.0,-9.724519,-1.2849363,-5.967686
alexnet_w3_mlp_simclrhn_probe0,1,382,NaN,keyboard,keyboard,2-0-10,0382_eid_dnn_2-0-10_keyboard_10_n04505470_279.png,n04505470_279.png,1.0,8.483767,2.5273888,4.2117953
alexnet_w3_mlp_simclrhn_probe0,1,383,NaN,cat,car,8-0-10,0383_eid_dnn_8-0-10_car_10_n02814533_79696.png,n02814533_79696.png,0.0,-9.172273,-1.3462187,-5.533856
alexnet_w3_mlp_simclrhn_probe0,1,384,NaN,oven,cat,64-0-10,0384_eid_dnn_64-0-10_cat_10_n02124075_7984.png,n02124075_7984.png,0.0,-1.577747,0.51559395,-1.4802155
alexnet_w3_mlp_simclrhn_probe0,1,385,NaN,elephant,car,4-0-10,0385_eid_dnn_4-0-10_car_10_n02814533_27327.png,n02814533_27327.png,0.0,-3.5246906,-1.6326084,-1.3379042
alexnet_w3_mlp_simclrhn_probe0,1,386,NaN,bear,bear,4-0-10,0386_eid_dnn_4-0-10_bear_10_n02134084_967.png,n02134084_967.png,1.0,0.23152924,-0.5846044,0.5770936
alexnet_w3_mlp_simclrhn_probe0,1,387,NaN,bear,bear,64-0-10,0387_eid_dnn_64-0-10_bear_10_n02132136_949.png,n02132136_949.png,1.0,0.20057824,0.07092835,0.09167632
alexnet_w3_mlp_simclrhn_probe0,1,388,NaN,bear,bicycle,16-0-10,0388_eid_dnn_16-0-10_bicycle_10_n03792782_2905.png,n03792782_2905.png,0.0,-4.284163,1.182442,-3.8654737
alexnet_w3_mlp_simclrhn_probe0,1,389,NaN,cat,bicycle,8-0-10,0389_eid_dnn_8-0-10_bicycle_10_n03792782_34550.png,n03792782_34550.png,0.0,-5.25453,-0.650394,-3.255616
alexnet_w3_mlp_simclrhn_probe0,1,390,NaN,bear,bear,16-0-10,0390_eid_dnn_16-0-10_bear_10_n02132136_9055.png,n02132136_9055.png,1.0,1.5537615,1.0562128,0.35182005
alexnet_w3_mlp_simclrhn_probe0,1,391,NaN,bear,bear,64-0-10,0391_eid_dnn_64-0-10_bear_10_n02134084_7904.png,n02134084_7904.png,1.0,-0.32677138,-1.0034581,0.47848982
alexnet_w3_mlp_simclrhn_probe0,1,392,NaN,bottle,clock,4-0-10,0392_eid_dnn_4-0-10_clock_10_n04548280_4526.png,n04548280_4526.png,0.0,-2.036065,-0.14684758,-1.3358785
alexnet_w3_mlp_simclrhn_probe0,1,393,NaN,keyboard,bottle,1-0-10,0393_eid_dnn_1-0-10_bottle_10_n02823428_685.png,n02823428_685.png,0.0,-1.5773993,-1.5170652,-0.042662643
alexnet_w3_mlp_simclrhn_probe0,1,394,NaN,oven,keyboard,64-0-10,0394_eid_dnn_64-0-10_keyboard_10_n04505470_3935.png,n04505470_3935.png,0.0,-8.873565,-0.8826079,-5.65046
alexnet_w3_mlp_simclrhn_probe0,1,395,NaN,bear,dog,64-0-10,0395_eid_dnn_64-0-10_dog_10_n02096051_3825.png,n02096051_3825.png,0.0,-1.6000199,-1.2023975,-0.28116155
alexnet_w3_mlp_simclrhn_probe0,1,396,NaN,dog,dog,2-0-10,0396_eid_dnn_2-0-10_dog_10_n02089078_10601.png,n02089078_10601.png,1.0,0.18564329,-1.3346678,1.0750223
alexnet_w3_mlp_simclrhn_probe0,1,397,NaN,clock,clock,2-0-10,0397_eid_dnn_2-0-10_clock_10_n02708093_5236.png,n02708093_5236.png,1.0,6.61998,-1.5579302,5.7826557
alexnet_w3_mlp_simclrhn_probe0,1,398,NaN,cat,cat,2-0-10,0398_eid_dnn_2-0-10_cat_10_n02123159_2682.png,n02123159_2682.png,1.0,1.3373151,-2.6506557,2.8199213
alexnet_w3_mlp_simclrhn_probe0,1,399,NaN,chair,oven,1-0-10,0399_eid_dnn_1-0-10_oven_10_n04111531_10216.png,n04111531_10216.png,0.0,-1.7107061,0.64372456,-1.6648339
alexnet_w3_mlp_simclrhn_probe0,1,400,NaN,boat,boat,2-0-10,0400_eid_dnn_2-0-10_boat_10_n02951358_7137.png,n02951358_7137.png,1.0,-1.8252732,-2.7565806,0.6585338
alexnet_w3_mlp_simclrhn_probe0,1,401,NaN,cat,bird,64-0-10,0401_eid_dnn_64-0-10_bird_10_n02007558_6127.png,n02007558_6127.png,0.0,-5.0658674,-0.7006218,-3.086695
alexnet_w3_mlp_simclrhn_probe0,1,402,NaN,bear,dog,16-0-10,0402_eid_dnn_16-0-10_dog_10_n02096051_4804.png,n02096051_4804.png,0.0,-1.9505192,-0.7353012,-0.85928893
alexnet_w3_mlp_simclrhn_probe0,1,403,NaN,bear,bottle,8-0-10,0403_eid_dnn_8-0-10_bottle_10_n03983396_13764.png,n03983396_13764.png,0.0,-3.17714,-0.6133861,-1.8128477
alexnet_w3_mlp_simclrhn_probe0,1,404,NaN,oven,knife,32-0-10,0404_eid_dnn_32-0-10_knife_10_n03041632_105081.png,n03041632_105081.png,0.0,-4.721917,0.574065,-3.7448251
alexnet_w3_mlp_simclrhn_probe0,1,405,NaN,cat,boat,8-0-10,0405_eid_dnn_8-0-10_boat_10_n03344393_3535.png,n03344393_3535.png,0.0,-2.3967597,-0.6453902,-1.2384052
alexnet_w3_mlp_simclrhn_probe0,1,406,NaN,bear,keyboard,64-0-10,0406_eid_dnn_64-0-10_keyboard_10_n03085013_22929.png,n03085013_22929.png,0.0,-4.4931383,-0.13864689,-3.0790904
alexnet_w3_mlp_simclrhn_probe0,1,407,NaN,bottle,bottle,1-0-10,0407_eid_dnn_1-0-10_bottle_10_n04579145_5979.png,n04579145_5979.png,1.0,1.4269483,-2.4046059,2.709318
alexnet_w3_mlp_simclrhn_probe0,1,408,NaN,knife,knife,2-0-10,0408_eid_dnn_2-0-10_knife_10_n03041632_31301.png,n03041632_31301.png,1.0,0.5312435,-2.6328135,2.2373261
alexnet_w3_mlp_simclrhn_probe0,1,409,NaN,cat,car,128-0-10,0409_eid_dnn_128-0-10_car_10_n04285008_14653.png,n04285008_14653.png,0.0,-11.068062,-1.4249183,-6.8187323
alexnet_w3_mlp_simclrhn_probe0,1,410,NaN,oven,clock,16-0-10,0410_eid_dnn_16-0-10_clock_10_n03196217_1601.png,n03196217_1601.png,0.0,-7.926661,0.26519608,-5.792518
alexnet_w3_mlp_simclrhn_probe0,1,411,NaN,elephant,bicycle,8-0-10,0411_eid_dnn_8-0-10_bicycle_10_n02835271_25268.png,n02835271_25268.png,0.0,-4.95896,-1.9243934,-2.1457627
alexnet_w3_mlp_simclrhn_probe0,1,412,NaN,bear,bird,16-0-10,0412_eid_dnn_16-0-10_bird_10_n02037110_875.png,n02037110_875.png,0.0,-2.9425926,-0.95467687,-1.4056687
alexnet_w3_mlp_simclrhn_probe0,1,413,NaN,oven,airplane,128-0-10,0413_eid_dnn_128-0-10_airplane_10_n02690373_6807.png,n02690373_6807.png,0.0,-8.431639,-0.57872355,-5.55285
alexnet_w3_mlp_simclrhn_probe0,1,414,NaN,cat,clock,16-0-10,0414_eid_dnn_16-0-10_clock_10_n04548280_10066.png,n04548280_10066.png,0.0,-4.27635,-1.3461045,-2.0719965
alexnet_w3_mlp_simclrhn_probe0,1,415,NaN,elephant,boat,64-0-10,0415_eid_dnn_64-0-10_boat_10_n02951358_15252.png,n02951358_15252.png,0.0,-7.263629,-0.13171713,-5.043023
alexnet_w3_mlp_simclrhn_probe0,1,416,NaN,cat,car,64-0-10,0416_eid_dnn_64-0-10_car_10_n02814533_4803.png,n02814533_4803.png,0.0,-11.279362,-1.392672,-6.990946
alexnet_w3_mlp_simclrhn_probe0,1,417,NaN,oven,car,16-0-10,0417_eid_dnn_16-0-10_car_10_n03100240_24544.png,n03100240_24544.png,0.0,-9.544091,0.14095502,-6.848362
alexnet_w3_mlp_simclrhn_probe0,1,418,NaN,bear,bear,128-0-10,0418_eid_dnn_128-0-10_bear_10_n02132136_4219.png,n02132136_4219.png,1.0,-1.3658301,-1.5744201,0.14749543
alexnet_w3_mlp_simclrhn_probe0,1,419,NaN,bear,bicycle,32-0-10,0419_eid_dnn_32-0-10_bicycle_10_n02835271_507.png,n02835271_507.png,0.0,-3.0342107,0.13561958,-2.2414086
alexnet_w3_mlp_simclrhn_probe0,1,420,NaN,boat,boat,1-0-10,0420_eid_dnn_1-0-10_boat_10_n04273569_13290.png,n04273569_13290.png,1.0,2.685887,0.011138171,1.8913331
alexnet_w3_mlp_simclrhn_probe0,1,421,NaN,bicycle,bicycle,2-0-10,0421_eid_dnn_2-0-10_bicycle_10_n03792782_42626.png,n03792782_42626.png,1.0,-3.7335298,-3.9482646,0.15184043
alexnet_w3_mlp_simclrhn_probe0,1,422,NaN,cat,dog,8-0-10,0422_eid_dnn_8-0-10_dog_10_n02106382_3856.png,n02106382_3856.png,0.0,-1.0941658,-0.40240932,-0.48914573
alexnet_w3_mlp_simclrhn_probe0,1,423,NaN,oven,clock,1-0-10,0423_eid_dnn_1-0-10_clock_10_n02708093_274.png,n02708093_274.png,0.0,-3.0892017,-2.5319664,-0.39402482
alexnet_w3_mlp_simclrhn_probe0,1,424,NaN,oven,bottle,32-0-10,0424_eid_dnn_32-0-10_bottle_10_n04591713_5921.png,n04591713_5921.png,0.0,-6.8771353,0.2052881,-5.0080295
alexnet_w3_mlp_simclrhn_probe0,1,425,NaN,elephant,elephant,1-0-10,0425_eid_dnn_1-0-10_elephant_10_n02504458_3851.png,n02504458_3851.png,1.0,3.6133385,-2.2224414,4.1265197
alexnet_w3_mlp_simclrhn_probe0,1,426,NaN,elephant,dog,32-0-10,0426_eid_dnn_32-0-10_dog_10_n02105855_995.png,n02105855_995.png,0.0,-1.2769063,0.46211922,-1.2296767
alexnet_w3_mlp_simclrhn_probe0,1,427,NaN,airplane,airplane,2-0-10,0427_eid_dnn_2-0-10_airplane_10_n02690373_1979.png,n02690373_1979.png,1.0,-2.0395808,-3.2984385,0.89014685
alexnet_w3_mlp_simclrhn_probe0,1,428,NaN,airplane,airplane,1-0-10,0428_eid_dnn_1-0-10_airplane_10_n02690373_6455.png,n02690373_6455.png,1.0,7.4535456,0.5402959,4.888406
alexnet_w3_mlp_simclrhn_probe0,1,429,NaN,oven,oven,1-0-10,0429_eid_dnn_1-0-10_oven_10_n04111531_18979.png,n04111531_18979.png,1.0,2.4953036,-3.3828304,4.1564684
alexnet_w3_mlp_simclrhn_probe0,1,430,NaN,oven,oven,32-0-10,0430_eid_dnn_32-0-10_oven_10_n04111531_16795.png,n04111531_16795.png,1.0,-0.99207306,-1.6892362,0.49296877
alexnet_w3_mlp_simclrhn_probe0,1,431,NaN,oven,truck,4-0-10,0431_eid_dnn_4-0-10_truck_10_n04467665_41076.png,n04467665_41076.png,0.0,-3.3221693,-0.98878574,-1.6499513
alexnet_w3_mlp_simclrhn_probe0,1,432,NaN,oven,bird,16-0-10,0432_eid_dnn_16-0-10_bird_10_n01534433_31697.png,n01534433_31697.png,0.0,-2.8951979,-1.3396989,-1.0999038
alexnet_w3_mlp_simclrhn_probe0,1,433,NaN,oven,keyboard,128-0-10,0433_eid_dnn_128-0-10_keyboard_10_n04505470_4289.png,n04505470_4289.png,0.0,-5.8728113,-1.6128021,-3.0122814
alexnet_w3_mlp_simclrhn_probe0,1,434,NaN,keyboard,keyboard,4-0-10,0434_eid_dnn_4-0-10_keyboard_10_n03085013_20727.png,n03085013_20727.png,1.0,2.3255346,-1.6270852,2.7949243
alexnet_w3_mlp_simclrhn_probe0,1,435,NaN,bear,boat,8-0-10,0435_eid_dnn_8-0-10_boat_10_n04273569_7315.png,n04273569_7315.png,0.0,-1.3993857,-0.033189572,-0.9660466
alexnet_w3_mlp_simclrhn_probe0,1,436,NaN,car,car,1-0-10,0436_eid_dnn_1-0-10_car_10_n03100240_16646.png,n03100240_16646.png,1.0,0.732395,-1.7938672,1.7863373
alexnet_w3_mlp_simclrhn_probe0,1,437,NaN,bear,car,16-0-10,0437_eid_dnn_16-0-10_car_10_n03100240_5281.png,n03100240_5281.png,0.0,-12.135446,0.091872424,-8.64602
alexnet_w3_mlp_simclrhn_probe0,1,438,NaN,bird,airplane,128-0-10,0438_eid_dnn_128-0-10_airplane_10_n02690373_1670.png,n02690373_1670.png,0.0,-5.49527,-0.916624,-3.2375915
alexnet_w3_mlp_simclrhn_probe0,1,439,NaN,oven,airplane,128-0-10,0439_eid_dnn_128-0-10_airplane_10_n02690373_9293.png,n02690373_9293.png,0.0,-10.831046,-1.0233529,-6.9350867
alexnet_w3_mlp_simclrhn_probe0,1,440,NaN,oven,truck,128-0-10,0440_eid_dnn_128-0-10_truck_10_n03796401_15846.png,n03796401_15846.png,0.0,-8.277665,-1.1414981,-5.0460324
alexnet_w3_mlp_simclrhn_probe0,1,441,NaN,bear,truck,32-0-10,0441_eid_dnn_32-0-10_truck_10_n03796401_6971.png,n03796401_6971.png,0.0,-7.5662746,0.25634167,-5.531425
alexnet_w3_mlp_simclrhn_probe0,1,442,NaN,oven,oven,128-0-10,0442_eid_dnn_128-0-10_oven_10_n04111531_10724.png,n04111531_10724.png,1.0,-0.46255797,-1.0889999,0.4429613
alexnet_w3_mlp_simclrhn_probe0,1,443,NaN,cat,keyboard,8-0-10,0443_eid_dnn_8-0-10_keyboard_10_n03085013_22187.png,n03085013_22187.png,0.0,-7.410654,0.18040931,-5.3676925
alexnet_w3_mlp_simclrhn_probe0,1,444,NaN,bear,oven,8-0-10,0444_eid_dnn_8-0-10_oven_10_n04111531_4671.png,n04111531_4671.png,0.0,-2.9571614,-0.39279634,-1.81328
alexnet_w3_mlp_simclrhn_probe0,1,445,NaN,airplane,airplane,4-0-10,0445_eid_dnn_4-0-10_airplane_10_n02690373_5142.png,n02690373_5142.png,1.0,-0.9243038,-3.023349,1.4842491
alexnet_w3_mlp_simclrhn_probe0,1,446,NaN,elephant,elephant,4-0-10,0446_eid_dnn_4-0-10_elephant_10_n02504013_8562.png,n02504013_8562.png,1.0,3.595797,-0.6176437,2.9793527
alexnet_w3_mlp_simclrhn_probe0,1,447,NaN,truck,truck,1-0-10,0447_eid_dnn_1-0-10_truck_10_n03417042_9668.png,n03417042_9668.png,1.0,0.2299107,-1.0933099,0.9356583
alexnet_w3_mlp_simclrhn_probe0,1,448,NaN,cat,bottle,8-0-10,0448_eid_dnn_8-0-10_bottle_10_n03983396_10330.png,n03983396_10330.png,0.0,-4.4207187,-1.5542425,-2.0269046
alexnet_w3_mlp_simclrhn_probe0,1,449,NaN,cat,elephant,128-0-10,0449_eid_dnn_128-0-10_elephant_10_n02504458_4395.png,n02504458_4395.png,0.0,-3.5206084,-0.96285564,-1.8086044
alexnet_w3_mlp_simclrhn_probe0,1,450,NaN,bear,boat,64-0-10,0450_eid_dnn_64-0-10_boat_10_n03344393_4562.png,n03344393_4562.png,0.0,-7.016284,-0.18299721,-4.8318634
alexnet_w3_mlp_simclrhn_probe0,1,451,NaN,oven,oven,2-0-10,0451_eid_dnn_2-0-10_oven_10_n04111531_10011.png,n04111531_10011.png,1.0,1.608032,-2.9697945,3.2370121
alexnet_w3_mlp_simclrhn_probe0,1,452,NaN,oven,oven,64-0-10,0452_eid_dnn_64-0-10_oven_10_n04111531_13797.png,n04111531_13797.png,1.0,-0.13589907,-1.153805,0.7197682
alexnet_w3_mlp_simclrhn_probe0,1,453,NaN,boat,boat,2-0-10,0453_eid_dnn_2-0-10_boat_10_n03662601_840.png,n03662601_840.png,1.0,-0.3146641,-0.791983,0.33751544
alexnet_w3_mlp_simclrhn_probe0,1,454,NaN,bear,truck,16-0-10,0454_eid_dnn_16-0-10_truck_10_n03417042_17037.png,n03417042_17037.png,0.0,-8.157448,0.8032697,-6.336184
alexnet_w3_mlp_simclrhn_probe0,1,455,NaN,oven,cat,64-0-10,0455_eid_dnn_64-0-10_cat_10_n02125311_2576.png,n02125311_2576.png,0.0,-0.53910214,0.1339962,-0.4759524
alexnet_w3_mlp_simclrhn_probe0,1,456,NaN,bear,keyboard,32-0-10,0456_eid_dnn_32-0-10_keyboard_10_n03085013_3264.png,n03085013_3264.png,0.0,-3.992084,-1.0134785,-2.106192
alexnet_w3_mlp_simclrhn_probe0,1,457,NaN,oven,dog,64-0-10,0457_eid_dnn_64-0-10_dog_10_n02097130_3519.png,n02097130_3519.png,0.0,-1.84888,-0.36920366,-1.0462892
alexnet_w3_mlp_simclrhn_probe0,1,458,NaN,cat,airplane,16-0-10,0458_eid_dnn_16-0-10_airplane_10_n02690373_4486.png,n02690373_4486.png,0.0,-6.7583013,-2.1248558,-3.276341
alexnet_w3_mlp_simclrhn_probe0,1,459,NaN,oven,bottle,16-0-10,0459_eid_dnn_16-0-10_bottle_10_n03983396_19635.png,n03983396_19635.png,0.0,-5.37836,1.4635402,-4.837954
alexnet_w3_mlp_simclrhn_probe0,1,460,NaN,cat,airplane,16-0-10,0460_eid_dnn_16-0-10_airplane_10_n02690373_1426.png,n02690373_1426.png,0.0,-6.8757343,-1.1835527,-4.02498
alexnet_w3_mlp_simclrhn_probe0,1,461,NaN,oven,oven,4-0-10,0461_eid_dnn_4-0-10_oven_10_n04111531_5279.png,n04111531_5279.png,1.0,-0.70104754,-2.7144802,1.4237118
alexnet_w3_mlp_simclrhn_probe0,1,462,NaN,bear,bottle,64-0-10,0462_eid_dnn_64-0-10_bottle_10_n03983396_4024.png,n03983396_4024.png,0.0,-4.251378,-0.83253694,-2.4174857
alexnet_w3_mlp_simclrhn_probe0,1,463,NaN,bear,bear,8-0-10,0463_eid_dnn_8-0-10_bear_10_n02133161_12751.png,n02133161_12751.png,1.0,0.8198828,-0.47007763,0.9121398
alexnet_w3_mlp_simclrhn_probe0,1,464,NaN,bear,car,8-0-10,0464_eid_dnn_8-0-10_car_10_n02814533_12271.png,n02814533_12271.png,0.0,-9.112397,0.7456947,-6.970724
alexnet_w3_mlp_simclrhn_probe0,1,465,NaN,cat,bottle,16-0-10,0465_eid_dnn_16-0-10_bottle_10_n04560804_5068.png,n04560804_5068.png,0.0,-5.454663,-1.5248028,-2.7788308
alexnet_w3_mlp_simclrhn_probe0,1,466,NaN,cat,bottle,128-0-10,0466_eid_dnn_128-0-10_bottle_10_n04579145_1168.png,n04579145_1168.png,0.0,-5.589288,-1.7460867,-2.717554
alexnet_w3_mlp_simclrhn_probe0,1,467,NaN,oven,knife,64-0-10,0467_eid_dnn_64-0-10_knife_10_n03041632_2973.png,n03041632_2973.png,0.0,-4.747751,0.26470503,-3.544342
alexnet_w3_mlp_simclrhn_probe0,1,468,NaN,oven,airplane,16-0-10,0468_eid_dnn_16-0-10_airplane_10_n02690373_19329.png,n02690373_19329.png,0.0,-5.7480564,-1.3481863,-3.111178
alexnet_w3_mlp_simclrhn_probe0,1,469,NaN,oven,bottle,32-0-10,0469_eid_dnn_32-0-10_bottle_10_n04560804_1356.png,n04560804_1356.png,0.0,-4.527402,0.35249573,-3.4506087
alexnet_w3_mlp_simclrhn_probe0,1,470,NaN,bear,bear,8-0-10,0470_eid_dnn_8-0-10_bear_10_n02134084_3960.png,n02134084_3960.png,1.0,1.9602706,1.2484239,0.5033516
alexnet_w3_mlp_simclrhn_probe0,1,471,NaN,elephant,boat,4-0-10,0471_eid_dnn_4-0-10_boat_10_n04612504_27504.png,n04612504_27504.png,0.0,-2.4758947,-1.8108616,-0.4702494
alexnet_w3_mlp_simclrhn_probe0,1,472,NaN,dog,dog,4-0-10,0472_eid_dnn_4-0-10_dog_10_n02099601_9973.png,n02099601_9973.png,1.0,-0.25195578,-0.7898006,0.3803137
alexnet_w3_mlp_simclrhn_probe0,1,473,NaN,oven,truck,64-0-10,0473_eid_dnn_64-0-10_truck_10_n03417042_26843.png,n03417042_26843.png,0.0,-7.7580214,0.7692864,-6.029717
alexnet_w3_mlp_simclrhn_probe0,1,474,NaN,oven,knife,64-0-10,0474_eid_dnn_64-0-10_knife_10_n03041632_55711.png,n03041632_55711.png,0.0,-3.1499202,-0.49364436,-1.8782706
alexnet_w3_mlp_simclrhn_probe0,1,475,NaN,bear,elephant,8-0-10,0475_eid_dnn_8-0-10_elephant_10_n02504013_1986.png,n02504013_1986.png,0.0,-0.63815,1.7972822,-1.7221106
alexnet_w3_mlp_simclrhn_probe0,1,476,NaN,keyboard,keyboard,4-0-10,0476_eid_dnn_4-0-10_keyboard_10_n03085013_9475.png,n03085013_9475.png,1.0,-1.3330655,-1.968663,0.4494353
alexnet_w3_mlp_simclrhn_probe0,1,477,NaN,bear,elephant,32-0-10,0477_eid_dnn_32-0-10_elephant_10_n02504458_3381.png,n02504458_3381.png,0.0,-0.77057606,-0.10222878,-0.47259292
alexnet_w3_mlp_simclrhn_probe0,1,478,NaN,cat,airplane,8-0-10,0478_eid_dnn_8-0-10_airplane_10_n02690373_1161.png,n02690373_1161.png,0.0,-4.4610066,-1.779849,-1.8958647
alexnet_w3_mlp_simclrhn_probe0,1,479,NaN,oven,cat,64-0-10,0479_eid_dnn_64-0-10_cat_10_n02124075_7474.png,n02124075_7474.png,0.0,-1.7493609,-0.0017217398,-1.2357675
alexnet_w3_mlp_simclrhn_probe0,1,480,NaN,bear,cat,4-0-10,0480_eid_dnn_4-0-10_cat_10_n02125311_9074.png,n02125311_9074.png,0.0,-1.4690261,-1.2867879,-0.12886189
alexnet_w3_mlp_simclrhn_probe0,1,481,NaN,oven,airplane,128-0-10,0481_eid_dnn_128-0-10_airplane_10_n02690373_2867.png,n02690373_2867.png,0.0,-8.86505,0.03383383,-6.2924614
alexnet_w3_mlp_simclrhn_probe0,1,482,NaN,elephant,elephant,2-0-10,0482_eid_dnn_2-0-10_elephant_10_n02504013_1692.png,n02504013_1692.png,1.0,-0.4639677,-1.9447682,1.0470841
alexnet_w3_mlp_simclrhn_probe0,1,483,NaN,bear,bird,8-0-10,0483_eid_dnn_8-0-10_bird_10_n02009912_11813.png,n02009912_11813.png,0.0,-2.7707705,1.2294209,-2.8285627
alexnet_w3_mlp_simclrhn_probe0,1,484,NaN,bird,bottle,16-0-10,0484_eid_dnn_16-0-10_bottle_10_n04557648_10302.png,n04557648_10302.png,0.0,-3.3482506,-1.8300741,-1.0735129
alexnet_w3_mlp_simclrhn_probe0,1,485,NaN,oven,keyboard,4-0-10,0485_eid_dnn_4-0-10_keyboard_10_n03085013_20302.png,n03085013_20302.png,0.0,-2.1414828,-1.4864774,-0.46315882
alexnet_w3_mlp_simclrhn_probe0,1,486,NaN,cat,elephant,128-0-10,0486_eid_dnn_128-0-10_elephant_10_n02504458_5827.png,n02504458_5827.png,0.0,-4.492283,-0.7593772,-2.6395628
alexnet_w3_mlp_simclrhn_probe0,1,487,NaN,keyboard,knife,1-0-10,0487_eid_dnn_1-0-10_knife_10_n03041632_11327.png,n03041632_11327.png,0.0,-0.7654792,1.7271304,-1.762541
alexnet_w3_mlp_simclrhn_probe0,1,488,NaN,bird,bird,4-0-10,0488_eid_dnn_4-0-10_bird_10_n01795545_17770.png,n01795545_17770.png,1.0,-1.3279054,-1.6761761,0.24626455
alexnet_w3_mlp_simclrhn_probe0,1,489,NaN,dog,bicycle,4-0-10,0489_eid_dnn_4-0-10_bicycle_10_n02835271_10932.png,n02835271_10932.png,0.0,-2.5879207,-2.066581,-0.3686428
alexnet_w3_mlp_simclrhn_probe0,1,490,NaN,cat,cat,2-0-10,0490_eid_dnn_2-0-10_cat_10_n02123597_14233.png,n02123597_14233.png,1.0,-2.4232244,-2.705767,0.19978769
alexnet_w3_mlp_simclrhn_probe0,1,491,NaN,bird,bird,1-0-10,0491_eid_dnn_1-0-10_bird_10_n01614925_7662.png,n01614925_7662.png,1.0,-1.8526748,-2.3015935,0.31743348
alexnet_w3_mlp_simclrhn_probe0,1,492,NaN,bear,truck,16-0-10,0492_eid_dnn_16-0-10_truck_10_n03417042_5875.png,n03417042_5875.png,0.0,-6.9253607,0.14050952,-4.996325
alexnet_w3_mlp_simclrhn_probe0,1,493,NaN,bear,bear,1-0-10,0493_eid_dnn_1-0-10_bear_10_n02134418_304.png,n02134418_304.png,1.0,0.16156566,-2.5846546,1.9418709
alexnet_w3_mlp_simclrhn_probe0,1,494,NaN,cat,bird,1-0-10,0494_eid_dnn_1-0-10_bird_10_n01622779_5148.png,n01622779_5148.png,0.0,-4.32219,-0.6653839,-2.5857522
alexnet_w3_mlp_simclrhn_probe0,1,495,NaN,elephant,knife,1-0-10,0495_eid_dnn_1-0-10_knife_10_n03041632_44230.png,n03041632_44230.png,0.0,-3.1073701,-0.9244456,-1.5435607
alexnet_w3_mlp_simclrhn_probe0,1,496,NaN,oven,boat,32-0-10,0496_eid_dnn_32-0-10_boat_10_n03662601_8650.png,n03662601_8650.png,0.0,-4.027465,-0.55436784,-2.4558506
alexnet_w3_mlp_simclrhn_probe0,1,497,NaN,bear,oven,16-0-10,0497_eid_dnn_16-0-10_oven_10_n04111531_4346.png,n04111531_4346.png,0.0,-0.20137486,1.0528072,-0.8868407
alexnet_w3_mlp_simclrhn_probe0,1,498,NaN,clock,clock,2-0-10,0498_eid_dnn_2-0-10_clock_10_n03196217_2201.png,n03196217_2201.png,1.0,0.34845987,0.076335,0.19242136
alexnet_w3_mlp_simclrhn_probe0,1,499,NaN,bear,bicycle,64-0-10,0499_eid_dnn_64-0-10_bicycle_10_n02835271_8757.png,n02835271_8757.png,0.0,-1.8140459,-0.941607,-0.6169075
alexnet_w3_mlp_simclrhn_probe0,1,500,NaN,cat,keyboard,8-0-10,0500_eid_dnn_8-0-10_keyboard_10_n03085013_23563.png,n03085013_23563.png,0.0,-3.6906562,-0.533552,-2.23241
alexnet_w3_mlp_simclrhn_probe0,1,501,NaN,bear,boat,64-0-10,0501_eid_dnn_64-0-10_boat_10_n04273569_15879.png,n04273569_15879.png,0.0,-6.758151,-0.27746361,-4.582538
alexnet_w3_mlp_simclrhn_probe0,1,502,NaN,bear,truck,64-0-10,0502_eid_dnn_64-0-10_truck_10_n04467665_30588.png,n04467665_30588.png,0.0,-4.9116955,-0.3691199,-3.212086
alexnet_w3_mlp_simclrhn_probe0,1,503,NaN,oven,truck,16-0-10,0503_eid_dnn_16-0-10_truck_10_n03417042_1875.png,n03417042_1875.png,0.0,-7.669052,-1.2151537,-4.5635953
alexnet_w3_mlp_simclrhn_probe0,1,504,NaN,oven,cat,128-0-10,0504_eid_dnn_128-0-10_cat_10_n02123394_6014.png,n02123394_6014.png,0.0,-1.4624577,0.30942732,-1.2529118
alexnet_w3_mlp_simclrhn_probe0,1,505,NaN,boat,boat,1-0-10,0505_eid_dnn_1-0-10_boat_10_n04273569_10847.png,n04273569_10847.png,1.0,-0.5581571,-2.0071888,1.0246202
alexnet_w3_mlp_simclrhn_probe0,1,506,NaN,oven,elephant,64-0-10,0506_eid_dnn_64-0-10_elephant_10_n02504013_5495.png,n02504013_5495.png,0.0,-1.4864848,-0.46588206,-0.7216751
alexnet_w3_mlp_simclrhn_probe0,1,507,NaN,oven,bottle,128-0-10,0507_eid_dnn_128-0-10_bottle_10_n04560804_16276.png,n04560804_16276.png,0.0,-2.3087616,-0.36974385,-1.3710927
alexnet_w3_mlp_simclrhn_probe0,1,508,NaN,truck,car,1-0-10,0508_eid_dnn_1-0-10_car_10_n04285008_1243.png,n04285008_1243.png,0.0,-1.5849895,-0.7905948,-0.5617219
alexnet_w3_mlp_simclrhn_probe0,1,509,NaN,bear,keyboard,32-0-10,0509_eid_dnn_32-0-10_keyboard_10_n03085013_22027.png,n03085013_22027.png,0.0,-6.4352684,-0.59179556,-4.1319594
alexnet_w3_mlp_simclrhn_probe0,1,510,NaN,bear,cat,32-0-10,0510_eid_dnn_32-0-10_cat_10_n02123045_12766.png,n02123045_12766.png,0.0,-1.211965,0.26126066,-1.0417278
alexnet_w3_mlp_simclrhn_probe0,1,511,NaN,oven,chair,64-0-10,0511_eid_dnn_64-0-10_chair_10_n04429376_29954.png,n04429376_29954.png,0.0,-4.9587703,-0.51841986,-3.139802
alexnet_w3_mlp_simclrhn_probe0,1,512,NaN,bear,elephant,32-0-10,0512_eid_dnn_32-0-10_elephant_10_n02504013_5678.png,n02504013_5678.png,0.0,-0.36698377,0.68284255,-0.7423394
alexnet_w3_mlp_simclrhn_probe0,1,513,NaN,oven,chair,4-0-10,0513_eid_dnn_4-0-10_chair_10_n03376595_6333.png,n03376595_6333.png,0.0,-5.213266,-3.3349514,-1.328169
alexnet_w3_mlp_simclrhn_probe0,1,514,NaN,keyboard,keyboard,2-0-10,0514_eid_dnn_2-0-10_keyboard_10_n03085013_22605.png,n03085013_22605.png,1.0,-1.2372437,-1.7943524,0.39393538
alexnet_w3_mlp_simclrhn_probe0,1,515,NaN,oven,car,32-0-10,0515_eid_dnn_32-0-10_car_10_n04285008_16557.png,n04285008_16557.png,0.0,-9.299405,0.9246032,-7.229466
alexnet_w3_mlp_simclrhn_probe0,1,516,NaN,bear,bottle,64-0-10,0516_eid_dnn_64-0-10_bottle_10_n02823428_1034.png,n02823428_1034.png,0.0,-6.1967196,0.65806454,-4.8470645
alexnet_w3_mlp_simclrhn_probe0,1,517,NaN,bear,elephant,16-0-10,0517_eid_dnn_16-0-10_elephant_10_n02504013_7777.png,n02504013_7777.png,0.0,-2.2023633,0.7544309,-2.0907693
alexnet_w3_mlp_simclrhn_probe0,1,518,NaN,cat,knife,4-0-10,0518_eid_dnn_4-0-10_knife_10_n03041632_14293.png,n03041632_14293.png,0.0,-2.9053824,-2.6958663,-0.14815022
alexnet_w3_mlp_simclrhn_probe0,1,519,NaN,cat,knife,8-0-10,0519_eid_dnn_8-0-10_knife_10_n03041632_50423.png,n03041632_50423.png,0.0,-4.6124926,-1.84973,-1.9535682
alexnet_w3_mlp_simclrhn_probe0,1,520,NaN,chair,chair,2-0-10,0520_eid_dnn_2-0-10_chair_10_n03376595_3043.png,n03376595_3043.png,1.0,-1.4650317,-2.0197608,0.3922527
alexnet_w3_mlp_simclrhn_probe0,1,521,NaN,bear,cat,8-0-10,0521_eid_dnn_8-0-10_cat_10_n02123394_2434.png,n02123394_2434.png,0.0,-0.76816946,-0.0899837,-0.47954977
alexnet_w3_mlp_simclrhn_probe0,1,522,NaN,truck,truck,1-0-10,0522_eid_dnn_1-0-10_truck_10_n04467665_54079.png,n04467665_54079.png,1.0,-2.306046,-2.7329683,0.30187967
alexnet_w3_mlp_simclrhn_probe0,1,523,NaN,bear,bird,2-0-10,0523_eid_dnn_2-0-10_bird_10_n01855672_1001.png,n01855672_1001.png,0.0,-4.0203533,-2.129447,-1.3370727
alexnet_w3_mlp_simclrhn_probe0,1,524,NaN,bottle,bottle,1-0-10,0524_eid_dnn_1-0-10_bottle_10_n04560804_6112.png,n04560804_6112.png,1.0,-1.1121255,-2.838222,1.2205346
alexnet_w3_mlp_simclrhn_probe0,1,525,NaN,oven,keyboard,1-0-10,0525_eid_dnn_1-0-10_keyboard_10_n04505470_1744.png,n04505470_1744.png,0.0,-0.23654795,0.99409443,-0.87019557
alexnet_w3_mlp_simclrhn_probe0,1,526,NaN,oven,boat,32-0-10,0526_eid_dnn_32-0-10_boat_10_n02951358_15087.png,n02951358_15087.png,0.0,-8.894213,0.26032382,-6.4732347
alexnet_w3_mlp_simclrhn_probe0,1,527,NaN,elephant,bottle,4-0-10,0527_eid_dnn_4-0-10_bottle_10_n04557648_10051.png,n04557648_10051.png,0.0,-4.0913477,-0.6505273,-2.4330275
alexnet_w3_mlp_simclrhn_probe0,1,528,NaN,oven,bear,64-0-10,0528_eid_dnn_64-0-10_bear_10_n02134084_5794.png,n02134084_5794.png,0.0,-0.7434554,-0.27765316,-0.32937193
alexnet_w3_mlp_simclrhn_probe0,1,529,NaN,keyboard,keyboard,4-0-10,0529_eid_dnn_4-0-10_keyboard_10_n04505470_751.png,n04505470_751.png,1.0,0.7735055,-0.7431599,1.0724444
alexnet_w3_mlp_simclrhn_probe0,1,530,NaN,oven,boat,128-0-10,0530_eid_dnn_128-0-10_boat_10_n04273569_9306.png,n04273569_9306.png,0.0,-7.1936746,-0.66835254,-4.6140995
alexnet_w3_mlp_simclrhn_probe0,1,531,NaN,bear,chair,16-0-10,0531_eid_dnn_16-0-10_chair_10_n02791124_9162.png,n02791124_9162.png,0.0,-5.940405,-0.19094035,-4.0654855
alexnet_w3_mlp_simclrhn_probe0,1,532,NaN,bear,bicycle,128-0-10,0532_eid_dnn_128-0-10_bicycle_10_n02835271_25033.png,n02835271_25033.png,0.0,-1.9434551,-0.68914163,-0.88693357
alexnet_w3_mlp_simclrhn_probe0,1,533,NaN,cat,keyboard,128-0-10,0533_eid_dnn_128-0-10_keyboard_10_n04505470_3905.png,n04505470_3905.png,0.0,-6.004472,-0.9324288,-3.586476
alexnet_w3_mlp_simclrhn_probe0,1,534,NaN,knife,knife,4-0-10,0534_eid_dnn_4-0-10_knife_10_n03041632_32054.png,n03041632_32054.png,1.0,-0.85976267,-1.3528396,0.34865803
alexnet_w3_mlp_simclrhn_probe0,1,535,NaN,cat,clock,8-0-10,0535_eid_dnn_8-0-10_clock_10_n03196217_13380.png,n03196217_13380.png,0.0,-9.46619,0.46389386,-7.02163
alexnet_w3_mlp_simclrhn_probe0,1,536,NaN,bird,chair,32-0-10,0536_eid_dnn_32-0-10_chair_10_n03376595_8083.png,n03376595_8083.png,0.0,-4.533985,-1.4534272,-2.1782835
alexnet_w3_mlp_simclrhn_probe0,1,537,NaN,bear,cat,8-0-10,0537_eid_dnn_8-0-10_cat_10_n02125311_47927.png,n02125311_47927.png,0.0,-0.04811273,0.21998698,-0.18957512
alexnet_w3_mlp_simclrhn_probe0,1,538,NaN,oven,boat,64-0-10,0538_eid_dnn_64-0-10_boat_10_n04273569_1141.png,n04273569_1141.png,0.0,-7.934188,0.7573564,-6.14585
alexnet_w3_mlp_simclrhn_probe0,1,539,NaN,oven,dog,64-0-10,0539_eid_dnn_64-0-10_dog_10_n02097130_5859.png,n02097130_5859.png,0.0,-1.8934441,0.24977103,-1.5154821
alexnet_w3_mlp_simclrhn_probe0,1,540,NaN,bear,dog,16-0-10,0540_eid_dnn_16-0-10_dog_10_n02090721_835.png,n02090721_835.png,0.0,-1.2490509,0.10853181,-0.95995593
alexnet_w3_mlp_simclrhn_probe0,1,541,NaN,oven,bear,128-0-10,0541_eid_dnn_128-0-10_bear_10_n02132136_15806.png,n02132136_15806.png,0.0,-1.0609822,-0.7748037,-0.20235878
alexnet_w3_mlp_simclrhn_probe0,1,542,NaN,oven,cat,128-0-10,0542_eid_dnn_128-0-10_cat_10_n02124075_12069.png,n02124075_12069.png,0.0,-0.513215,1.0209146,-1.0847934
alexnet_w3_mlp_simclrhn_probe0,1,543,NaN,oven,oven,2-0-10,0543_eid_dnn_2-0-10_oven_10_n04111531_21382.png,n04111531_21382.png,1.0,3.2692554,-3.2997227,4.644969
alexnet_w3_mlp_simclrhn_probe0,1,544,NaN,dog,cat,1-0-10,0544_eid_dnn_1-0-10_cat_10_n02123597_2009.png,n02123597_2009.png,0.0,-2.5817196,-1.3105637,-0.898843
alexnet_w3_mlp_simclrhn_probe0,1,545,NaN,oven,oven,32-0-10,0545_eid_dnn_32-0-10_oven_10_n04111531_4392.png,n04111531_4392.png,1.0,0.10922465,0.03619402,0.051640455
alexnet_w3_mlp_simclrhn_probe0,1,546,NaN,oven,boat,4-0-10,0546_eid_dnn_4-0-10_boat_10_n03344393_640.png,n03344393_640.png,0.0,-3.4256272,-2.5287352,-0.6341985
alexnet_w3_mlp_simclrhn_probe0,1,547,NaN,oven,car,4-0-10,0547_eid_dnn_4-0-10_car_10_n02814533_245.png,n02814533_245.png,0.0,-4.108994,-2.1942503,-1.3539282
alexnet_w3_mlp_simclrhn_probe0,1,548,NaN,bird,bird,1-0-10,0548_eid_dnn_1-0-10_bird_10_n01530575_3831.png,n01530575_3831.png,1.0,-0.80659086,-1.8113956,0.71050435
alexnet_w3_mlp_simclrhn_probe0,1,549,NaN,truck,truck,2-0-10,0549_eid_dnn_2-0-10_truck_10_n04467665_32276.png,n04467665_32276.png,1.0,0.43381262,-0.7049935,0.80525756
alexnet_w3_mlp_simclrhn_probe0,1,550,NaN,oven,elephant,64-0-10,0550_eid_dnn_64-0-10_elephant_10_n02504458_5941.png,n02504458_5941.png,0.0,-2.886483,-1.0400496,-1.3056256
alexnet_w3_mlp_simclrhn_probe0,1,551,NaN,elephant,elephant,4-0-10,0551_eid_dnn_4-0-10_elephant_10_n02504013_9796.png,n02504013_9796.png,1.0,2.781077,0.942357,1.3001713
alexnet_w3_mlp_simclrhn_probe0,1,552,NaN,airplane,airplane,4-0-10,0552_eid_dnn_4-0-10_airplane_10_n02690373_8214.png,n02690373_8214.png,1.0,0.82293147,-1.7309003,1.8058318
alexnet_w3_mlp_simclrhn_probe0,1,553,NaN,airplane,airplane,1-0-10,0553_eid_dnn_1-0-10_airplane_10_n02690373_8967.png,n02690373_8967.png,1.0,6.1630607,-1.6575003,5.5299716
alexnet_w3_mlp_simclrhn_probe0,1,554,NaN,bear,elephant,64-0-10,0554_eid_dnn_64-0-10_elephant_10_n02504458_7642.png,n02504458_7642.png,0.0,-1.7426763,-0.86054015,-0.62376446
alexnet_w3_mlp_simclrhn_probe0,1,555,NaN,boat,boat,1-0-10,0555_eid_dnn_1-0-10_boat_10_n04273569_15455.png,n04273569_15455.png,1.0,0.5272266,0.21315622,0.22208132
alexnet_w3_mlp_simclrhn_probe0,1,556,NaN,bear,knife,8-0-10,0556_eid_dnn_8-0-10_knife_10_n03041632_3063.png,n03041632_3063.png,0.0,-5.257991,1.798802,-4.9899063
alexnet_w3_mlp_simclrhn_probe0,1,557,NaN,oven,bottle,4-0-10,0557_eid_dnn_4-0-10_bottle_10_n03937543_4912.png,n03937543_4912.png,0.0,-2.733048,-2.6551661,-0.055070758
alexnet_w3_mlp_simclrhn_probe0,1,558,NaN,oven,oven,4-0-10,0558_eid_dnn_4-0-10_oven_10_n04111531_5776.png,n04111531_5776.png,1.0,-0.58834875,-2.2200449,1.1537834
alexnet_w3_mlp_simclrhn_probe0,1,559,NaN,cat,bottle,128-0-10,0559_eid_dnn_128-0-10_bottle_10_n03983396_4540.png,n03983396_4540.png,0.0,-7.620917,-1.2106447,-4.532747
alexnet_w3_mlp_simclrhn_probe0,1,560,NaN,knife,knife,2-0-10,0560_eid_dnn_2-0-10_knife_10_n03041632_965.png,n03041632_965.png,1.0,1.6617323,0.036867,1.1489533
alexnet_w3_mlp_simclrhn_probe0,1,561,NaN,oven,knife,32-0-10,0561_eid_dnn_32-0-10_knife_10_n03041632_12949.png,n03041632_12949.png,0.0,-3.6859822,-0.4349454,-2.2988303
alexnet_w3_mlp_simclrhn_probe0,1,562,NaN,bear,knife,16-0-10,0562_eid_dnn_16-0-10_knife_10_n03041632_18766.png,n03041632_18766.png,0.0,-4.321286,0.36399305,-3.3129928
alexnet_w3_mlp_simclrhn_probe0,1,563,NaN,oven,keyboard,8-0-10,0563_eid_dnn_8-0-10_keyboard_10_n04505470_2869.png,n04505470_2869.png,0.0,-3.8878498,-0.5305082,-2.373999
alexnet_w3_mlp_simclrhn_probe0,1,564,NaN,elephant,bicycle,4-0-10,0564_eid_dnn_4-0-10_bicycle_10_n02835271_18537.png,n02835271_18537.png,0.0,-3.819496,0.12927529,-2.792203
alexnet_w3_mlp_simclrhn_probe0,1,565,NaN,bear,clock,32-0-10,0565_eid_dnn_32-0-10_clock_10_n04548280_1119.png,n04548280_1119.png,0.0,-3.7418518,-0.92853725,-1.9893137
alexnet_w3_mlp_simclrhn_probe0,1,566,NaN,oven,oven,1-0-10,0566_eid_dnn_1-0-10_oven_10_n04111531_687.png,n04111531_687.png,1.0,4.627506,-3.4448116,5.70799
alexnet_w3_mlp_simclrhn_probe0,1,567,NaN,oven,chair,64-0-10,0567_eid_dnn_64-0-10_chair_10_n03376595_3038.png,n03376595_3038.png,0.0,-6.3462534,-0.20857947,-4.339991
alexnet_w3_mlp_simclrhn_probe0,1,568,NaN,oven,bicycle,16-0-10,0568_eid_dnn_16-0-10_bicycle_10_n02835271_3989.png,n02835271_3989.png,0.0,-3.3641071,-0.7077056,-1.8783597
alexnet_w3_mlp_simclrhn_probe0,1,569,NaN,oven,dog,64-0-10,0569_eid_dnn_64-0-10_dog_10_n02096437_4563.png,n02096437_4563.png,0.0,-1.4088352,0.17023897,-1.116574
alexnet_w3_mlp_simclrhn_probe0,1,570,NaN,oven,clock,32-0-10,0570_eid_dnn_32-0-10_clock_10_n02708093_685.png,n02708093_685.png,0.0,-9.878352,-2.654188,-5.1082554
alexnet_w3_mlp_simclrhn_probe0,1,571,NaN,oven,boat,32-0-10,0571_eid_dnn_32-0-10_boat_10_n03662601_8360.png,n03662601_8360.png,0.0,-6.3643785,0.43524456,-4.8080597
alexnet_w3_mlp_simclrhn_probe0,1,572,NaN,bear,keyboard,8-0-10,0572_eid_dnn_8-0-10_keyboard_10_n03085013_17035.png,n03085013_17035.png,0.0,-3.9521306,-1.0040364,-2.0846174
alexnet_w3_mlp_simclrhn_probe0,1,573,NaN,oven,dog,64-0-10,0573_eid_dnn_64-0-10_dog_10_n02110063_12166.png,n02110063_12166.png,0.0,-1.9319474,1.1245804,-2.1612914
alexnet_w3_mlp_simclrhn_probe0,1,574,NaN,dog,dog,2-0-10,0574_eid_dnn_2-0-10_dog_10_n02108422_6951.png,n02108422_6951.png,1.0,-2.6386657,-2.8498507,0.14933033
alexnet_w3_mlp_simclrhn_probe0,1,575,NaN,bear,bear,64-0-10,0575_eid_dnn_64-0-10_bear_10_n02134418_912.png,n02134418_912.png,1.0,-0.6273924,-0.6368377,0.0066788425
alexnet_w3_mlp_simclrhn_probe0,1,576,NaN,clock,clock,4-0-10,0576_eid_dnn_4-0-10_clock_10_n02708093_564.png,n02708093_564.png,1.0,-4.084356,-4.3614807,0.19595689
alexnet_w3_mlp_simclrhn_probe0,1,577,NaN,oven,car,64-0-10,0577_eid_dnn_64-0-10_car_10_n04285008_11893.png,n04285008_11893.png,0.0,-6.666532,0.1586093,-4.8261037
alexnet_w3_mlp_simclrhn_probe0,1,578,NaN,oven,knife,64-0-10,0578_eid_dnn_64-0-10_knife_10_n03041632_20504.png,n03041632_20504.png,0.0,-3.2606823,0.15754467,-2.4170516
alexnet_w3_mlp_simclrhn_probe0,1,579,NaN,clock,clock,4-0-10,0579_eid_dnn_4-0-10_clock_10_n04548280_4557.png,n04548280_4557.png,1.0,-1.0150044,-1.1623243,0.10417091
alexnet_w3_mlp_simclrhn_probe0,1,580,NaN,oven,clock,32-0-10,0580_eid_dnn_32-0-10_clock_10_n02708093_3360.png,n02708093_3360.png,0.0,-5.39236,-1.5228405,-2.7361636
alexnet_w3_mlp_simclrhn_probe0,1,581,NaN,bear,bear,16-0-10,0581_eid_dnn_16-0-10_bear_10_n02134084_617.png,n02134084_617.png,1.0,-0.67809665,-1.1956745,0.36598283
alexnet_w3_mlp_simclrhn_probe0,1,582,NaN,keyboard,dog,1-0-10,0582_eid_dnn_1-0-10_dog_10_n02093991_4081.png,n02093991_4081.png,0.0,-6.6156735,-1.7919221,-3.4109075
alexnet_w3_mlp_simclrhn_probe0,1,583,NaN,elephant,elephant,16-0-10,0583_eid_dnn_16-0-10_elephant_10_n02504458_1727.png,n02504458_1727.png,1.0,1.872024,1.8247311,0.033441164
alexnet_w3_mlp_simclrhn_probe0,1,584,NaN,bear,clock,32-0-10,0584_eid_dnn_32-0-10_clock_10_n04548280_16295.png,n04548280_16295.png,0.0,-5.0738254,-1.1023858,-2.8082318
alexnet_w3_mlp_simclrhn_probe0,1,585,NaN,bear,boat,4-0-10,0585_eid_dnn_4-0-10_boat_10_n02951358_16217.png,n02951358_16217.png,0.0,-3.2820868,1.8820286,-3.651581
alexnet_w3_mlp_simclrhn_probe0,1,586,NaN,cat,airplane,8-0-10,0586_eid_dnn_8-0-10_airplane_10_n02690373_7536.png,n02690373_7536.png,0.0,-3.6685815,-0.97404814,-1.9053228
alexnet_w3_mlp_simclrhn_probe0,1,587,NaN,cat,cat,8-0-10,0587_eid_dnn_8-0-10_cat_10_n02123597_22140.png,n02123597_22140.png,1.0,-0.69038934,-1.280283,0.4171178
alexnet_w3_mlp_simclrhn_probe0,1,588,NaN,oven,bottle,128-0-10,0588_eid_dnn_128-0-10_bottle_10_n04591713_8914.png,n04591713_8914.png,0.0,-3.345436,-1.0574157,-1.6178747
alexnet_w3_mlp_simclrhn_probe0,1,589,NaN,oven,car,128-0-10,0589_eid_dnn_128-0-10_car_10_n03100240_963.png,n03100240_963.png,0.0,-8.243775,-0.5618092,-5.4319706
alexnet_w3_mlp_simclrhn_probe0,1,590,NaN,bear,boat,32-0-10,0590_eid_dnn_32-0-10_boat_10_n02951358_18762.png,n02951358_18762.png,0.0,-3.970187,-1.2226152,-1.9428266
alexnet_w3_mlp_simclrhn_probe0,1,591,NaN,bear,bear,32-0-10,0591_eid_dnn_32-0-10_bear_10_n02134418_2633.png,n02134418_2633.png,1.0,0.029277787,-0.55384576,0.41233063
alexnet_w3_mlp_simclrhn_probe0,1,592,NaN,oven,airplane,64-0-10,0592_eid_dnn_64-0-10_airplane_10_n02690373_1169.png,n02690373_1169.png,0.0,-8.976854,-0.45931455,-6.0228105
alexnet_w3_mlp_simclrhn_probe0,1,593,NaN,bicycle,bicycle,2-0-10,0593_eid_dnn_2-0-10_bicycle_10_n03792782_12704.png,n03792782_12704.png,1.0,-1.4649727,-4.841519,2.3875787
alexnet_w3_mlp_simclrhn_probe0,1,594,NaN,bear,dog,64-0-10,0594_eid_dnn_64-0-10_dog_10_n02088238_2973.png,n02088238_2973.png,0.0,-1.6690013,-0.45349538,-0.85949254
alexnet_w3_mlp_simclrhn_probe0,1,595,NaN,bear,knife,32-0-10,0595_eid_dnn_32-0-10_knife_10_n03041632_41493.png,n03041632_41493.png,0.0,-3.9867039,-0.4080876,-2.5304637
alexnet_w3_mlp_simclrhn_probe0,1,596,NaN,bear,bottle,128-0-10,0596_eid_dnn_128-0-10_bottle_10_n03983396_2959.png,n03983396_2959.png,0.0,-4.649116,-1.7972828,-2.0165508
alexnet_w3_mlp_simclrhn_probe0,1,597,NaN,clock,clock,1-0-10,0597_eid_dnn_1-0-10_clock_10_n02708093_2843.png,n02708093_2843.png,1.0,-0.9745491,-2.4875624,1.069862
alexnet_w3_mlp_simclrhn_probe0,1,598,NaN,bear,oven,8-0-10,0598_eid_dnn_8-0-10_oven_10_n04111531_12952.png,n04111531_12952.png,0.0,-0.85676605,-0.2819539,-0.40645358
alexnet_w3_mlp_simclrhn_probe0,1,599,NaN,bear,bear,16-0-10,0599_eid_dnn_16-0-10_bear_10_n02134418_2891.png,n02134418_2891.png,1.0,1.4593749,-0.24379021,1.2043196
alexnet_w3_mlp_simclrhn_probe0,1,600,NaN,bear,truck,32-0-10,0600_eid_dnn_32-0-10_truck_10_n03417042_3862.png,n03417042_3862.png,0.0,-6.905525,1.034582,-5.614504
alexnet_w3_mlp_simclrhn_probe0,1,601,NaN,oven,elephant,16-0-10,0601_eid_dnn_16-0-10_elephant_10_n02504458_2054.png,n02504458_2054.png,0.0,-0.07374413,0.5088992,-0.41199106
alexnet_w3_mlp_simclrhn_probe0,1,602,NaN,airplane,airplane,1-0-10,0602_eid_dnn_1-0-10_airplane_10_n02690373_7355.png,n02690373_7355.png,1.0,3.9442022,-0.52489954,3.1601324
alexnet_w3_mlp_simclrhn_probe0,1,603,NaN,oven,knife,128-0-10,0603_eid_dnn_128-0-10_knife_10_n03041632_22738.png,n03041632_22738.png,0.0,-5.558307,-0.8688247,-3.3159652
