subj,session,trial,rt,object_response,category,condition,imagename,filename,is_correct,targ_act,max_nontarg_act,decision_margin
alexnet_w1_mlp_simclrhn_probe1,1,1,NaN,bear,oven,16-0-10,0001_eid_dnn_16-0-10_oven_10_n04111531_13542.png,n04111531_13542.png,0.0,-0.8666362,1.8440285,-1.9167295
alexnet_w1_mlp_simclrhn_probe1,1,2,NaN,car,car,4-0-10,0002_eid_dnn_4-0-10_car_10_n03100240_5570.png,n03100240_5570.png,1.0,0.6386602,-1.0216634,1.1740261
alexnet_w1_mlp_simclrhn_probe1,1,3,NaN,cat,bird,8-0-10,0003_eid_dnn_8-0-10_bird_10_n01820546_4847.png,n01820546_4847.png,0.0,-4.5042233,1.5924449,-4.3109956
alexnet_w1_mlp_simclrhn_probe1,1,4,NaN,bear,bear,32-0-10,0004_eid_dnn_32-0-10_bear_10_n02133161_15561.png,n02133161_15561.png,1.0,0.029918768,-1.0381805,0.7552602
alexnet_w1_mlp_simclrhn_probe1,1,5,NaN,oven,bird,64-0-10,0005_eid_dnn_64-0-10_bird_10_n01531178_9584.png,n01531178_9584.png,0.0,-3.5551777,0.14211728,-2.6143823
alexnet_w1_mlp_simclrhn_probe1,1,6,NaN,bear,bicycle,8-0-10,0006_eid_dnn_8-0-10_bicycle_10_n02835271_18846.png,n02835271_18846.png,0.0,-6.5273685,2.0912256,-6.0942664
alexnet_w1_mlp_simclrhn_probe1,1,7,NaN,oven,oven,4-0-10,0007_eid_dnn_4-0-10_oven_10_n04111531_73.png,n04111531_73.png,1.0,1.6521881,-0.93329686,1.828214
alexnet_w1_mlp_simclrhn_probe1,1,8,NaN,cat,clock,2-0-10,0008_eid_dnn_2-0-10_clock_10_n04548280_6159.png,n04548280_6159.png,0.0,-3.998166,-1.6127373,-1.686753
alexnet_w1_mlp_simclrhn_probe1,1,9,NaN,oven,chair,32-0-10,0009_eid_dnn_32-0-10_chair_10_n03376595_9395.png,n03376595_9395.png,0.0,-6.1760516,1.544745,-5.459428
alexnet_w1_mlp_simclrhn_probe1,1,10,NaN,bear,bicycle,64-0-10,0010_eid_dnn_64-0-10_bicycle_10_n02835271_1918.png,n02835271_1918.png,0.0,-2.992087,-1.4251473,-1.1079936
alexnet_w1_mlp_simclrhn_probe1,1,11,NaN,oven,bicycle,128-0-10,0011_eid_dnn_128-0-10_bicycle_10_n02835271_42320.png,n02835271_42320.png,0.0,-8.891344,0.05283904,-6.324493
alexnet_w1_mlp_simclrhn_probe1,1,12,NaN,elephant,elephant,1-0-10,0012_eid_dnn_1-0-10_elephant_10_n02504458_3628.png,n02504458_3628.png,1.0,5.0533485,0.016138077,3.5618458
alexnet_w1_mlp_simclrhn_probe1,1,13,NaN,oven,knife,64-0-10,0013_eid_dnn_64-0-10_knife_10_n03041632_86554.png,n03041632_86554.png,0.0,-2.9337502,-0.19908527,-1.9337001
alexnet_w1_mlp_simclrhn_probe1,1,14,NaN,bear,cat,8-0-10,0014_eid_dnn_8-0-10_cat_10_n02123394_1726.png,n02123394_1726.png,0.0,-0.23028111,0.30298924,-0.3770791
alexnet_w1_mlp_simclrhn_probe1,1,15,NaN,bear,cat,32-0-10,0015_eid_dnn_32-0-10_cat_10_n02123597_6721.png,n02123597_6721.png,0.0,-1.0416161,-0.07103449,-0.6863048
alexnet_w1_mlp_simclrhn_probe1,1,16,NaN,elephant,oven,2-0-10,0016_eid_dnn_2-0-10_oven_10_n04111531_21869.png,n04111531_21869.png,0.0,0.25975353,0.5653074,-0.21605921
alexnet_w1_mlp_simclrhn_probe1,1,17,NaN,bear,bear,4-0-10,0017_eid_dnn_4-0-10_bear_10_n02134084_2949.png,n02134084_2949.png,1.0,-0.33782393,-1.1555059,0.5781885
alexnet_w1_mlp_simclrhn_probe1,1,18,NaN,bear,truck,8-0-10,0018_eid_dnn_8-0-10_truck_10_n03417042_18743.png,n03417042_18743.png,0.0,-6.8625216,0.036018312,-4.8780046
alexnet_w1_mlp_simclrhn_probe1,1,19,NaN,bear,bird,16-0-10,0019_eid_dnn_16-0-10_bird_10_n01616318_4246.png,n01616318_4246.png,0.0,-2.3657966,-0.16404162,-1.556876
alexnet_w1_mlp_simclrhn_probe1,1,20,NaN,cat,bicycle,8-0-10,0020_eid_dnn_8-0-10_bicycle_10_n03792782_66771.png,n03792782_66771.png,0.0,-2.8457692,0.099354826,-2.0825171
alexnet_w1_mlp_simclrhn_probe1,1,21,NaN,keyboard,keyboard,2-0-10,0021_eid_dnn_2-0-10_keyboard_10_n04505470_3531.png,n04505470_3531.png,1.0,2.3671956,0.11010206,1.5960062
alexnet_w1_mlp_simclrhn_probe1,1,22,NaN,oven,clock,8-0-10,0022_eid_dnn_8-0-10_clock_10_n04548280_6463.png,n04548280_6463.png,0.0,-3.9504082,0.9085313,-3.4357893
alexnet_w1_mlp_simclrhn_probe1,1,23,NaN,oven,keyboard,16-0-10,0023_eid_dnn_16-0-10_keyboard_10_n04505470_4974.png,n04505470_4974.png,0.0,-8.358606,0.038311675,-5.937518
alexnet_w1_mlp_simclrhn_probe1,1,24,NaN,oven,chair,4-0-10,0024_eid_dnn_4-0-10_chair_10_n03376595_360.png,n03376595_360.png,0.0,-4.941,0.06236568,-3.5379138
alexnet_w1_mlp_simclrhn_probe1,1,25,NaN,bear,dog,16-0-10,0025_eid_dnn_16-0-10_dog_10_n02097130_2752.png,n02097130_2752.png,0.0,-2.064479,0.7619097,-1.9985588
alexnet_w1_mlp_simclrhn_probe1,1,26,NaN,oven,bicycle,2-0-10,0026_eid_dnn_2-0-10_bicycle_10_n02835271_3406.png,n02835271_3406.png,0.0,-3.2100997,1.1073172,-3.052875
alexnet_w1_mlp_simclrhn_probe1,1,27,NaN,oven,bottle,16-0-10,0027_eid_dnn_16-0-10_bottle_10_n04560804_11732.png,n04560804_11732.png,0.0,-2.6378334,0.00508371,-1.8688247
alexnet_w1_mlp_simclrhn_probe1,1,28,NaN,oven,bottle,32-0-10,0028_eid_dnn_32-0-10_bottle_10_n04591713_13589.png,n04591713_13589.png,0.0,-5.2915916,1.0218177,-4.464255
alexnet_w1_mlp_simclrhn_probe1,1,29,NaN,cat,cat,2-0-10,0029_eid_dnn_2-0-10_cat_10_n02123045_4009.png,n02123045_4009.png,1.0,3.0522232,0.44436392,1.844035
alexnet_w1_mlp_simclrhn_probe1,1,30,NaN,cat,chair,8-0-10,0030_eid_dnn_8-0-10_chair_10_n02791124_1704.png,n02791124_1704.png,0.0,-5.9576836,-0.4924635,-3.864494
alexnet_w1_mlp_simclrhn_probe1,1,31,NaN,oven,bicycle,128-0-10,0031_eid_dnn_128-0-10_bicycle_10_n03792782_28395.png,n03792782_28395.png,0.0,-3.7146592,-0.56820947,-2.224876
alexnet_w1_mlp_simclrhn_probe1,1,32,NaN,bear,truck,16-0-10,0032_eid_dnn_16-0-10_truck_10_n03417042_4288.png,n03417042_4288.png,0.0,-7.976846,2.3885338,-7.3294306
alexnet_w1_mlp_simclrhn_probe1,1,33,NaN,keyboard,keyboard,1-0-10,0033_eid_dnn_1-0-10_keyboard_10_n04505470_3371.png,n04505470_3371.png,1.0,3.54704,1.081111,1.7436751
alexnet_w1_mlp_simclrhn_probe1,1,34,NaN,cat,cat,1-0-10,0034_eid_dnn_1-0-10_cat_10_n02124075_13436.png,n02124075_13436.png,1.0,2.0576982,0.45780057,1.1312984
alexnet_w1_mlp_simclrhn_probe1,1,35,NaN,oven,dog,32-0-10,0035_eid_dnn_32-0-10_dog_10_n02097209_8270.png,n02097209_8270.png,0.0,-2.547076,0.37782067,-2.0682144
alexnet_w1_mlp_simclrhn_probe1,1,36,NaN,oven,clock,128-0-10,0036_eid_dnn_128-0-10_clock_10_n04548280_7795.png,n04548280_7795.png,0.0,-5.722758,-1.0564935,-3.2995474
alexnet_w1_mlp_simclrhn_probe1,1,37,NaN,oven,car,32-0-10,0037_eid_dnn_32-0-10_car_10_n03100240_21737.png,n03100240_21737.png,0.0,-7.3651567,-0.43226343,-4.902296
alexnet_w1_mlp_simclrhn_probe1,1,38,NaN,oven,clock,128-0-10,0038_eid_dnn_128-0-10_clock_10_n02708093_1862.png,n02708093_1862.png,0.0,-3.8440583,-1.2616814,-1.8260163
alexnet_w1_mlp_simclrhn_probe1,1,39,NaN,bird,bicycle,64-0-10,0039_eid_dnn_64-0-10_bicycle_10_n03792782_9412.png,n03792782_9412.png,0.0,-2.2360601,-1.5845113,-0.46071464
alexnet_w1_mlp_simclrhn_probe1,1,40,NaN,bear,bear,32-0-10,0040_eid_dnn_32-0-10_bear_10_n02134418_163.png,n02134418_163.png,1.0,0.86056244,-0.8218977,1.1896789
alexnet_w1_mlp_simclrhn_probe1,1,41,NaN,bear,keyboard,16-0-10,0041_eid_dnn_16-0-10_keyboard_10_n03085013_25675.png,n03085013_25675.png,0.0,-5.7517138,-0.56370676,-3.668475
alexnet_w1_mlp_simclrhn_probe1,1,42,NaN,oven,truck,2-0-10,0042_eid_dnn_2-0-10_truck_10_n03417042_1716.png,n03417042_1716.png,0.0,-1.664999,0.2577026,-1.3595554
alexnet_w1_mlp_simclrhn_probe1,1,43,NaN,oven,keyboard,128-0-10,0043_eid_dnn_128-0-10_keyboard_10_n03085013_18854.png,n03085013_18854.png,0.0,-5.5499406,-0.9917325,-3.2231398
alexnet_w1_mlp_simclrhn_probe1,1,44,NaN,oven,bottle,32-0-10,0044_eid_dnn_32-0-10_bottle_10_n04591713_4865.png,n04591713_4865.png,0.0,-3.3683498,1.3615677,-3.3445568
alexnet_w1_mlp_simclrhn_probe1,1,45,NaN,bear,bicycle,32-0-10,0045_eid_dnn_32-0-10_bicycle_10_n03792782_693.png,n03792782_693.png,0.0,-5.5273037,0.6483533,-4.366849
alexnet_w1_mlp_simclrhn_probe1,1,46,NaN,knife,bottle,1-0-10,0046_eid_dnn_1-0-10_bottle_10_n04557648_264.png,n04557648_264.png,0.0,-4.565579,-0.8852941,-2.6023545
alexnet_w1_mlp_simclrhn_probe1,1,47,NaN,knife,knife,2-0-10,0047_eid_dnn_2-0-10_knife_10_n03041632_25512.png,n03041632_25512.png,1.0,-0.6332317,-1.2243948,0.41801545
alexnet_w1_mlp_simclrhn_probe1,1,48,NaN,bear,boat,16-0-10,0048_eid_dnn_16-0-10_boat_10_n03344393_2381.png,n03344393_2381.png,0.0,-2.1244974,0.43370914,-1.8089253
alexnet_w1_mlp_simclrhn_probe1,1,49,NaN,cat,dog,128-0-10,0049_eid_dnn_128-0-10_dog_10_n02110627_17670.png,n02110627_17670.png,0.0,-4.063321,-1.9084901,-1.5236956
alexnet_w1_mlp_simclrhn_probe1,1,50,NaN,oven,bear,64-0-10,0050_eid_dnn_64-0-10_bear_10_n02133161_15981.png,n02133161_15981.png,0.0,-4.4282527,-0.20134443,-2.9888754
alexnet_w1_mlp_simclrhn_probe1,1,51,NaN,bear,elephant,16-0-10,0051_eid_dnn_16-0-10_elephant_10_n02504458_3570.png,n02504458_3570.png,0.0,1.0886075,1.7499349,-0.46762908
alexnet_w1_mlp_simclrhn_probe1,1,52,NaN,bottle,truck,4-0-10,0052_eid_dnn_4-0-10_truck_10_n03417042_6241.png,n03417042_6241.png,0.0,-2.615096,0.6496644,-2.3085344
alexnet_w1_mlp_simclrhn_probe1,1,53,NaN,bear,bird,8-0-10,0053_eid_dnn_8-0-10_bird_10_n02025239_17670.png,n02025239_17670.png,0.0,-1.7745237,-0.021559253,-1.2395331
alexnet_w1_mlp_simclrhn_probe1,1,54,NaN,bear,dog,16-0-10,0054_eid_dnn_16-0-10_dog_10_n02106030_19249.png,n02106030_19249.png,0.0,-0.7880221,1.0661765,-1.3111165
alexnet_w1_mlp_simclrhn_probe1,1,55,NaN,bear,keyboard,32-0-10,0055_eid_dnn_32-0-10_keyboard_10_n04505470_2326.png,n04505470_2326.png,0.0,-6.568964,-0.20784944,-4.4979873
alexnet_w1_mlp_simclrhn_probe1,1,56,NaN,bear,dog,16-0-10,0056_eid_dnn_16-0-10_dog_10_n02107142_9379.png,n02107142_9379.png,0.0,-1.4506325,0.2150204,-1.1777945
alexnet_w1_mlp_simclrhn_probe1,1,57,NaN,bear,cat,64-0-10,0057_eid_dnn_64-0-10_cat_10_n02123394_1828.png,n02123394_1828.png,0.0,-0.936099,-0.8593709,-0.054254964
alexnet_w1_mlp_simclrhn_probe1,1,58,NaN,oven,car,32-0-10,0058_eid_dnn_32-0-10_car_10_n03100240_4605.png,n03100240_4605.png,0.0,-9.699204,0.38877138,-7.133276
alexnet_w1_mlp_simclrhn_probe1,1,59,NaN,bear,bicycle,4-0-10,0059_eid_dnn_4-0-10_bicycle_10_n03792782_6765.png,n03792782_6765.png,0.0,-2.995101,0.05645293,-2.1577744
alexnet_w1_mlp_simclrhn_probe1,1,60,NaN,bear,boat,8-0-10,0060_eid_dnn_8-0-10_boat_10_n03344393_8455.png,n03344393_8455.png,0.0,-4.2595205,-0.5142831,-2.6482828
alexnet_w1_mlp_simclrhn_probe1,1,61,NaN,oven,oven,16-0-10,0061_eid_dnn_16-0-10_oven_10_n04111531_8603.png,n04111531_8603.png,1.0,1.4628826,0.4267901,0.73262805
alexnet_w1_mlp_simclrhn_probe1,1,62,NaN,bird,bird,2-0-10,0062_eid_dnn_2-0-10_bird_10_n02051845_2574.png,n02051845_2574.png,1.0,0.5419381,-2.4483757,2.1144712
alexnet_w1_mlp_simclrhn_probe1,1,63,NaN,boat,boat,4-0-10,0063_eid_dnn_4-0-10_boat_10_n04612504_15875.png,n04612504_15875.png,1.0,0.8351644,0.0515067,0.5541297
alexnet_w1_mlp_simclrhn_probe1,1,64,NaN,oven,bottle,4-0-10,0064_eid_dnn_4-0-10_bottle_10_n03983396_7337.png,n03983396_7337.png,0.0,-1.6490005,-1.5080625,-0.09965825
alexnet_w1_mlp_simclrhn_probe1,1,65,NaN,cat,clock,8-0-10,0065_eid_dnn_8-0-10_clock_10_n02708093_6822.png,n02708093_6822.png,0.0,-5.319629,0.91643953,-4.4095664
alexnet_w1_mlp_simclrhn_probe1,1,66,NaN,airplane,truck,2-0-10,0066_eid_dnn_2-0-10_truck_10_n04467665_15994.png,n04467665_15994.png,0.0,-1.1917918,0.028426528,-0.8628247
alexnet_w1_mlp_simclrhn_probe1,1,67,NaN,oven,cat,128-0-10,0067_eid_dnn_128-0-10_cat_10_n02123597_6291.png,n02123597_6291.png,0.0,-2.3687603,-1.6919425,-0.47858253
alexnet_w1_mlp_simclrhn_probe1,1,68,NaN,cat,bird,8-0-10,0068_eid_dnn_8-0-10_bird_10_n01817953_1734.png,n01817953_1734.png,0.0,-3.8656852,-0.3937173,-2.4550521
alexnet_w1_mlp_simclrhn_probe1,1,69,NaN,oven,elephant,32-0-10,0069_eid_dnn_32-0-10_elephant_10_n02504458_6880.png,n02504458_6880.png,0.0,-1.6320496,0.44456455,-1.468388
alexnet_w1_mlp_simclrhn_probe1,1,70,NaN,oven,cat,16-0-10,0070_eid_dnn_16-0-10_cat_10_n02123597_13197.png,n02123597_13197.png,0.0,-0.07277844,0.37524801,-0.31680253
alexnet_w1_mlp_simclrhn_probe1,1,71,NaN,bear,bicycle,64-0-10,0071_eid_dnn_64-0-10_bicycle_10_n03792782_973.png,n03792782_973.png,0.0,-3.1172996,-1.1495547,-1.3914057
alexnet_w1_mlp_simclrhn_probe1,1,72,NaN,cat,cat,2-0-10,0072_eid_dnn_2-0-10_cat_10_n02124075_8310.png,n02124075_8310.png,1.0,2.431369,0.46185234,1.3926587
alexnet_w1_mlp_simclrhn_probe1,1,73,NaN,oven,oven,32-0-10,0073_eid_dnn_32-0-10_oven_10_n04111531_5168.png,n04111531_5168.png,1.0,0.015602529,-1.1464525,0.821697
alexnet_w1_mlp_simclrhn_probe1,1,74,NaN,airplane,airplane,1-0-10,0074_eid_dnn_1-0-10_airplane_10_n02690373_4893.png,n02690373_4893.png,1.0,3.8774369,-1.5678283,3.850384
alexnet_w1_mlp_simclrhn_probe1,1,75,NaN,dog,dog,1-0-10,0075_eid_dnn_1-0-10_dog_10_n02086240_3614.png,n02086240_3614.png,1.0,0.8568601,0.4762574,0.26912674
alexnet_w1_mlp_simclrhn_probe1,1,76,NaN,cat,oven,16-0-10,0076_eid_dnn_16-0-10_oven_10_n04111531_2937.png,n04111531_2937.png,0.0,-0.09599368,0.23347664,-0.23297071
alexnet_w1_mlp_simclrhn_probe1,1,77,NaN,airplane,clock,1-0-10,0077_eid_dnn_1-0-10_clock_10_n03196217_2022.png,n03196217_2022.png,0.0,-0.8310812,-0.014770485,-0.57721883
alexnet_w1_mlp_simclrhn_probe1,1,78,NaN,oven,bottle,64-0-10,0078_eid_dnn_64-0-10_bottle_10_n04591713_2732.png,n04591713_2732.png,0.0,-3.6211658,-1.0286353,-1.8331959
alexnet_w1_mlp_simclrhn_probe1,1,79,NaN,car,car,2-0-10,0079_eid_dnn_2-0-10_car_10_n03100240_8794.png,n03100240_8794.png,1.0,2.821373,1.4307736,0.98330224
alexnet_w1_mlp_simclrhn_probe1,1,80,NaN,oven,airplane,16-0-10,0080_eid_dnn_16-0-10_airplane_10_n02690373_3640.png,n02690373_3640.png,0.0,-2.8185375,-0.71670234,-1.486222
alexnet_w1_mlp_simclrhn_probe1,1,81,NaN,oven,bicycle,64-0-10,0081_eid_dnn_64-0-10_bicycle_10_n03792782_41097.png,n03792782_41097.png,0.0,-2.1194015,-1.035813,-0.76621276
alexnet_w1_mlp_simclrhn_probe1,1,82,NaN,knife,dog,64-0-10,0082_eid_dnn_64-0-10_dog_10_n02090721_6770.png,n02090721_6770.png,0.0,-2.1053166,-1.3333495,-0.5458632
alexnet_w1_mlp_simclrhn_probe1,1,83,NaN,bear,cat,16-0-10,0083_eid_dnn_16-0-10_cat_10_n02123597_28968.png,n02123597_28968.png,0.0,-0.6356402,0.741523,-0.97380143
alexnet_w1_mlp_simclrhn_probe1,1,84,NaN,elephant,elephant,1-0-10,0084_eid_dnn_1-0-10_elephant_10_n02504013_5894.png,n02504013_5894.png,1.0,7.4073424,1.2205197,4.3747444
alexnet_w1_mlp_simclrhn_probe1,1,85,NaN,oven,oven,32-0-10,0085_eid_dnn_32-0-10_oven_10_n04111531_9314.png,n04111531_9314.png,1.0,1.169544,-0.22325434,0.98485714
alexnet_w1_mlp_simclrhn_probe1,1,86,NaN,elephant,elephant,1-0-10,0086_eid_dnn_1-0-10_elephant_10_n02504458_12074.png,n02504458_12074.png,1.0,1.0709928,0.12397337,0.6696439
alexnet_w1_mlp_simclrhn_probe1,1,87,NaN,bear,boat,4-0-10,0087_eid_dnn_4-0-10_boat_10_n03344393_3773.png,n03344393_3773.png,0.0,-0.5754552,-0.43011537,-0.10277077
alexnet_w1_mlp_simclrhn_probe1,1,88,NaN,oven,truck,128-0-10,0088_eid_dnn_128-0-10_truck_10_n04467665_80153.png,n04467665_80153.png,0.0,-5.59145,-1.2005461,-3.104838
alexnet_w1_mlp_simclrhn_probe1,1,89,NaN,oven,chair,128-0-10,0089_eid_dnn_128-0-10_chair_10_n04099969_20604.png,n04099969_20604.png,0.0,-3.937437,-1.2482101,-1.9015708
alexnet_w1_mlp_simclrhn_probe1,1,90,NaN,oven,keyboard,32-0-10,0090_eid_dnn_32-0-10_keyboard_10_n03085013_23625.png,n03085013_23625.png,0.0,-4.065148,-0.00030563027,-2.8742776
alexnet_w1_mlp_simclrhn_probe1,1,91,NaN,oven,truck,64-0-10,0091_eid_dnn_64-0-10_truck_10_n03796401_1458.png,n03796401_1458.png,0.0,-7.057289,-1.2020841,-4.1402555
alexnet_w1_mlp_simclrhn_probe1,1,92,NaN,oven,car,4-0-10,0092_eid_dnn_4-0-10_car_10_n03100240_18711.png,n03100240_18711.png,0.0,-1.2489457,-0.36801684,-0.6229108
alexnet_w1_mlp_simclrhn_probe1,1,93,NaN,oven,truck,128-0-10,0093_eid_dnn_128-0-10_truck_10_n03796401_2988.png,n03796401_2988.png,0.0,-8.242564,-1.3050473,-4.9055657
alexnet_w1_mlp_simclrhn_probe1,1,94,NaN,truck,truck,2-0-10,0094_eid_dnn_2-0-10_truck_10_n03417042_7096.png,n03417042_7096.png,1.0,4.3120255,1.9671463,1.65808
alexnet_w1_mlp_simclrhn_probe1,1,95,NaN,dog,dog,8-0-10,0095_eid_dnn_8-0-10_dog_10_n02105855_9345.png,n02105855_9345.png,1.0,-0.081168585,-0.10891288,0.019618178
alexnet_w1_mlp_simclrhn_probe1,1,96,NaN,bear,bird,32-0-10,0096_eid_dnn_32-0-10_bird_10_n01796340_8342.png,n01796340_8342.png,0.0,-2.5177665,-0.29272515,-1.5733418
alexnet_w1_mlp_simclrhn_probe1,1,97,NaN,cat,airplane,8-0-10,0097_eid_dnn_8-0-10_airplane_10_n02690373_7293.png,n02690373_7293.png,0.0,-3.3539958,-0.25264296,-2.1929877
alexnet_w1_mlp_simclrhn_probe1,1,98,NaN,oven,car,64-0-10,0098_eid_dnn_64-0-10_car_10_n04285008_9811.png,n04285008_9811.png,0.0,-10.206494,-0.27622825,-7.021759
alexnet_w1_mlp_simclrhn_probe1,1,99,NaN,bear,knife,8-0-10,0099_eid_dnn_8-0-10_knife_10_n03041632_86783.png,n03041632_86783.png,0.0,-4.8393703,1.5240818,-4.49964
alexnet_w1_mlp_simclrhn_probe1,1,100,NaN,oven,oven,16-0-10,0100_eid_dnn_16-0-10_oven_10_n04111531_9867.png,n04111531_9867.png,1.0,2.7189693,0.5108513,1.5613753
alexnet_w1_mlp_simclrhn_probe1,1,101,NaN,cat,truck,128-0-10,0101_eid_dnn_128-0-10_truck_10_n04467665_22573.png,n04467665_22573.png,0.0,-8.923041,-1.4886235,-5.2569275
alexnet_w1_mlp_simclrhn_probe1,1,102,NaN,oven,car,128-0-10,0102_eid_dnn_128-0-10_car_10_n02814533_23512.png,n02814533_23512.png,0.0,-9.127486,-2.244573,-4.866955
alexnet_w1_mlp_simclrhn_probe1,1,103,NaN,cat,bicycle,16-0-10,0103_eid_dnn_16-0-10_bicycle_10_n03792782_4895.png,n03792782_4895.png,0.0,-8.090575,0.6343999,-6.1694894
alexnet_w1_mlp_simclrhn_probe1,1,104,NaN,keyboard,keyboard,2-0-10,0104_eid_dnn_2-0-10_keyboard_10_n03085013_23554.png,n03085013_23554.png,1.0,0.047780305,-0.56671417,0.43451318
alexnet_w1_mlp_simclrhn_probe1,1,105,NaN,elephant,bear,1-0-10,0105_eid_dnn_1-0-10_bear_10_n02134084_8601.png,n02134084_8601.png,0.0,0.085267186,0.50909954,-0.29969475
alexnet_w1_mlp_simclrhn_probe1,1,106,NaN,bear,bicycle,8-0-10,0106_eid_dnn_8-0-10_bicycle_10_n03792782_126.png,n03792782_126.png,0.0,-4.932362,0.8281595,-4.0733037
alexnet_w1_mlp_simclrhn_probe1,1,107,NaN,chair,chair,1-0-10,0107_eid_dnn_1-0-10_chair_10_n04099969_3583.png,n04099969_3583.png,1.0,1.1648684,0.2520218,0.64548004
alexnet_w1_mlp_simclrhn_probe1,1,108,NaN,cat,bicycle,8-0-10,0108_eid_dnn_8-0-10_bicycle_10_n02835271_976.png,n02835271_976.png,0.0,-7.441759,0.90337163,-5.900899
alexnet_w1_mlp_simclrhn_probe1,1,109,NaN,oven,oven,32-0-10,0109_eid_dnn_32-0-10_oven_10_n04111531_10313.png,n04111531_10313.png,1.0,1.4354981,0.0046394467,1.0117699
alexnet_w1_mlp_simclrhn_probe1,1,110,NaN,oven,oven,1-0-10,0110_eid_dnn_1-0-10_oven_10_n04111531_8984.png,n04111531_8984.png,1.0,7.167391,-0.7590648,5.6048503
alexnet_w1_mlp_simclrhn_probe1,1,111,NaN,bear,elephant,8-0-10,0111_eid_dnn_8-0-10_elephant_10_n02504013_3181.png,n02504013_3181.png,0.0,1.266542,2.64464,-0.97446245
alexnet_w1_mlp_simclrhn_probe1,1,112,NaN,bear,keyboard,64-0-10,0112_eid_dnn_64-0-10_keyboard_10_n03085013_21490.png,n03085013_21490.png,0.0,-6.459221,-1.0760441,-3.806481
alexnet_w1_mlp_simclrhn_probe1,1,113,NaN,airplane,bird,4-0-10,0113_eid_dnn_4-0-10_bird_10_n01614925_2708.png,n01614925_2708.png,0.0,-0.8268607,-0.23055866,-0.42164922
alexnet_w1_mlp_simclrhn_probe1,1,114,NaN,cat,bottle,16-0-10,0114_eid_dnn_16-0-10_bottle_10_n03983396_3109.png,n03983396_3109.png,0.0,-4.3745923,0.4653157,-3.4223318
alexnet_w1_mlp_simclrhn_probe1,1,115,NaN,oven,bear,128-0-10,0115_eid_dnn_128-0-10_bear_10_n02134418_377.png,n02134418_377.png,0.0,-2.7181222,-1.7154706,-0.7089818
alexnet_w1_mlp_simclrhn_probe1,1,116,NaN,oven,knife,16-0-10,0116_eid_dnn_16-0-10_knife_10_n03041632_7680.png,n03041632_7680.png,0.0,-3.7502315,-0.015935391,-2.640546
alexnet_w1_mlp_simclrhn_probe1,1,117,NaN,elephant,truck,4-0-10,0117_eid_dnn_4-0-10_truck_10_n03417042_3807.png,n03417042_3807.png,0.0,-2.7742877,1.5629044,-3.066858
alexnet_w1_mlp_simclrhn_probe1,1,118,NaN,oven,elephant,128-0-10,0118_eid_dnn_128-0-10_elephant_10_n02504013_6501.png,n02504013_6501.png,0.0,-5.2738953,0.32236677,-3.9571548
alexnet_w1_mlp_simclrhn_probe1,1,119,NaN,oven,bicycle,32-0-10,0119_eid_dnn_32-0-10_bicycle_10_n03792782_5517.png,n03792782_5517.png,0.0,-2.515542,-1.4323043,-0.7659648
alexnet_w1_mlp_simclrhn_probe1,1,120,NaN,oven,bottle,128-0-10,0120_eid_dnn_128-0-10_bottle_10_n02823428_5791.png,n02823428_5791.png,0.0,-4.775256,-0.07630074,-3.3226633
alexnet_w1_mlp_simclrhn_probe1,1,121,NaN,oven,car,128-0-10,0121_eid_dnn_128-0-10_car_10_n04285008_10144.png,n04285008_10144.png,0.0,-9.373224,-0.8946922,-5.9952273
alexnet_w1_mlp_simclrhn_probe1,1,122,NaN,cat,cat,4-0-10,0122_eid_dnn_4-0-10_cat_10_n02123159_5764.png,n02123159_5764.png,1.0,4.112509,0.26258463,2.7223074
alexnet_w1_mlp_simclrhn_probe1,1,123,NaN,bear,dog,16-0-10,0123_eid_dnn_16-0-10_dog_10_n02085936_4491.png,n02085936_4491.png,0.0,-0.47485098,0.33380792,-0.5718082
alexnet_w1_mlp_simclrhn_probe1,1,124,NaN,oven,bicycle,32-0-10,0124_eid_dnn_32-0-10_bicycle_10_n03792782_6159.png,n03792782_6159.png,0.0,-3.551969,-0.38788828,-2.237343
alexnet_w1_mlp_simclrhn_probe1,1,125,NaN,clock,clock,4-0-10,0125_eid_dnn_4-0-10_clock_10_n04548280_2404.png,n04548280_2404.png,1.0,0.054472208,-1.3737667,1.0099174
alexnet_w1_mlp_simclrhn_probe1,1,126,NaN,oven,bottle,64-0-10,0126_eid_dnn_64-0-10_bottle_10_n04591713_360.png,n04591713_360.png,0.0,-5.210824,0.6752738,-4.1621
alexnet_w1_mlp_simclrhn_probe1,1,127,NaN,bear,airplane,16-0-10,0127_eid_dnn_16-0-10_airplane_10_n02690373_1909.png,n02690373_1909.png,0.0,-4.107852,-0.0007581413,-2.9041538
alexnet_w1_mlp_simclrhn_probe1,1,128,NaN,bear,bear,2-0-10,0128_eid_dnn_2-0-10_bear_10_n02133161_9724.png,n02133161_9724.png,1.0,1.0835953,-0.47223935,1.1001413
alexnet_w1_mlp_simclrhn_probe1,1,129,NaN,car,car,2-0-10,0129_eid_dnn_2-0-10_car_10_n04285008_5897.png,n04285008_5897.png,1.0,7.4041305,2.6871085,3.3354383
alexnet_w1_mlp_simclrhn_probe1,1,130,NaN,bicycle,bicycle,1-0-10,0130_eid_dnn_1-0-10_bicycle_10_n02835271_9807.png,n02835271_9807.png,1.0,1.8581283,-2.5810227,3.1389537
alexnet_w1_mlp_simclrhn_probe1,1,131,NaN,knife,keyboard,1-0-10,0131_eid_dnn_1-0-10_keyboard_10_n03085013_23286.png,n03085013_23286.png,0.0,-2.457316,-0.5745871,-1.3312904
alexnet_w1_mlp_simclrhn_probe1,1,132,NaN,bicycle,clock,2-0-10,0132_eid_dnn_2-0-10_clock_10_n02708093_772.png,n02708093_772.png,0.0,-3.4094136,-0.88075674,-1.7880305
alexnet_w1_mlp_simclrhn_probe1,1,133,NaN,keyboard,clock,4-0-10,0133_eid_dnn_4-0-10_clock_10_n03196217_820.png,n03196217_820.png,0.0,-1.0531822,1.3426315,-1.6940961
alexnet_w1_mlp_simclrhn_probe1,1,134,NaN,bear,dog,32-0-10,0134_eid_dnn_32-0-10_dog_10_n02093754_6351.png,n02093754_6351.png,0.0,-0.57837665,0.19017385,-0.5434473
alexnet_w1_mlp_simclrhn_probe1,1,135,NaN,oven,truck,8-0-10,0135_eid_dnn_8-0-10_truck_10_n03417042_27093.png,n03417042_27093.png,0.0,-7.319883,1.6194875,-6.3210893
alexnet_w1_mlp_simclrhn_probe1,1,136,NaN,bear,bicycle,4-0-10,0136_eid_dnn_4-0-10_bicycle_10_n03792782_30530.png,n03792782_30530.png,0.0,-4.3306904,1.3382918,-4.008576
alexnet_w1_mlp_simclrhn_probe1,1,137,NaN,bottle,bottle,4-0-10,0137_eid_dnn_4-0-10_bottle_10_n03937543_5215.png,n03937543_5215.png,1.0,-0.032811966,-1.2701833,0.8749537
alexnet_w1_mlp_simclrhn_probe1,1,138,NaN,oven,boat,2-0-10,0138_eid_dnn_2-0-10_boat_10_n02951358_9933.png,n02951358_9933.png,0.0,-3.4853485,-1.3958023,-1.4775323
alexnet_w1_mlp_simclrhn_probe1,1,139,NaN,dog,dog,4-0-10,0139_eid_dnn_4-0-10_dog_10_n02086910_8694.png,n02086910_8694.png,1.0,-0.32541272,-0.5522077,0.16036828
alexnet_w1_mlp_simclrhn_probe1,1,140,NaN,cat,knife,8-0-10,0140_eid_dnn_8-0-10_knife_10_n03041632_3504.png,n03041632_3504.png,0.0,-2.394617,-0.033323307,-1.6696869
alexnet_w1_mlp_simclrhn_probe1,1,141,NaN,oven,knife,128-0-10,0141_eid_dnn_128-0-10_knife_10_n03041632_15754.png,n03041632_15754.png,0.0,-2.5933123,-0.3051168,-1.6179985
alexnet_w1_mlp_simclrhn_probe1,1,142,NaN,airplane,truck,8-0-10,0142_eid_dnn_8-0-10_truck_10_n04467665_45306.png,n04467665_45306.png,0.0,-2.561809,-0.61828953,-1.3742759
alexnet_w1_mlp_simclrhn_probe1,1,143,NaN,elephant,elephant,1-0-10,0143_eid_dnn_1-0-10_elephant_10_n02504013_5351.png,n02504013_5351.png,1.0,1.051729,-1.2888536,1.6550418
alexnet_w1_mlp_simclrhn_probe1,1,144,NaN,cat,bottle,2-0-10,0144_eid_dnn_2-0-10_bottle_10_n03937543_7763.png,n03937543_7763.png,0.0,-2.6936898,-0.09205558,-1.8396332
alexnet_w1_mlp_simclrhn_probe1,1,145,NaN,oven,bird,32-0-10,0145_eid_dnn_32-0-10_bird_10_n01843383_91.png,n01843383_91.png,0.0,-2.27069,-1.5421734,-0.51513904
alexnet_w1_mlp_simclrhn_probe1,1,146,NaN,bottle,clock,4-0-10,0146_eid_dnn_4-0-10_clock_10_n04548280_28.png,n04548280_28.png,0.0,-2.2229884,-0.30873162,-1.353584
alexnet_w1_mlp_simclrhn_probe1,1,147,NaN,oven,knife,16-0-10,0147_eid_dnn_16-0-10_knife_10_n03041632_102828.png,n03041632_102828.png,0.0,-3.9427724,0.56946397,-3.190633
alexnet_w1_mlp_simclrhn_probe1,1,148,NaN,oven,car,128-0-10,0148_eid_dnn_128-0-10_car_10_n03100240_7520.png,n03100240_7520.png,0.0,-9.855611,-1.4451759,-5.9470754
alexnet_w1_mlp_simclrhn_probe1,1,149,NaN,bear,knife,16-0-10,0149_eid_dnn_16-0-10_knife_10_n03041632_53874.png,n03041632_53874.png,0.0,-2.7988806,0.13351959,-2.0735202
alexnet_w1_mlp_simclrhn_probe1,1,150,NaN,oven,boat,16-0-10,0150_eid_dnn_16-0-10_boat_10_n04273569_3896.png,n04273569_3896.png,0.0,-5.2013083,-1.2243654,-2.8121235
alexnet_w1_mlp_simclrhn_probe1,1,151,NaN,airplane,airplane,2-0-10,0151_eid_dnn_2-0-10_airplane_10_n02690373_6002.png,n02690373_6002.png,1.0,5.012329,1.2345697,2.6712794
alexnet_w1_mlp_simclrhn_probe1,1,152,NaN,cat,chair,8-0-10,0152_eid_dnn_8-0-10_chair_10_n04099969_7191.png,n04099969_7191.png,0.0,-5.241941,0.8622733,-4.3163314
alexnet_w1_mlp_simclrhn_probe1,1,153,NaN,oven,dog,32-0-10,0153_eid_dnn_32-0-10_dog_10_n02101388_4808.png,n02101388_4808.png,0.0,-1.6023303,-0.19671135,-0.99392277
alexnet_w1_mlp_simclrhn_probe1,1,154,NaN,bear,keyboard,16-0-10,0154_eid_dnn_16-0-10_keyboard_10_n03085013_24538.png,n03085013_24538.png,0.0,-7.1757503,0.6591817,-5.5401335
alexnet_w1_mlp_simclrhn_probe1,1,155,NaN,cat,knife,128-0-10,0155_eid_dnn_128-0-10_knife_10_n03041632_85488.png,n03041632_85488.png,0.0,-3.5273283,-1.9695269,-1.101532
alexnet_w1_mlp_simclrhn_probe1,1,156,NaN,oven,car,4-0-10,0156_eid_dnn_4-0-10_car_10_n04285008_7630.png,n04285008_7630.png,0.0,-5.010577,-1.4378127,-2.526326
alexnet_w1_mlp_simclrhn_probe1,1,157,NaN,bear,airplane,8-0-10,0157_eid_dnn_8-0-10_airplane_10_n02690373_2941.png,n02690373_2941.png,0.0,-3.49195,-1.1227676,-1.6752651
alexnet_w1_mlp_simclrhn_probe1,1,158,NaN,knife,bird,64-0-10,0158_eid_dnn_64-0-10_bird_10_n01514859_6021.png,n01514859_6021.png,0.0,-3.036375,-1.4870055,-1.0955697
alexnet_w1_mlp_simclrhn_probe1,1,159,NaN,oven,clock,64-0-10,0159_eid_dnn_64-0-10_clock_10_n04548280_3293.png,n04548280_3293.png,0.0,-5.8508105,-0.25165904,-3.9591982
alexnet_w1_mlp_simclrhn_probe1,1,160,NaN,oven,oven,4-0-10,0160_eid_dnn_4-0-10_oven_10_n04111531_4998.png,n04111531_4998.png,1.0,0.27362168,-0.6654134,0.66399807
alexnet_w1_mlp_simclrhn_probe1,1,161,NaN,bear,bird,128-0-10,0161_eid_dnn_128-0-10_bird_10_n02028035_32993.png,n02028035_32993.png,0.0,-3.5037618,-1.4386318,-1.4602674
alexnet_w1_mlp_simclrhn_probe1,1,162,NaN,oven,bird,2-0-10,0162_eid_dnn_2-0-10_bird_10_n01843383_7800.png,n01843383_7800.png,0.0,-3.2205718,-3.1601672,-0.04271246
alexnet_w1_mlp_simclrhn_probe1,1,163,NaN,oven,bear,64-0-10,0163_eid_dnn_64-0-10_bear_10_n02132136_15174.png,n02132136_15174.png,0.0,-1.3760006,-0.42149353,-0.67493844
alexnet_w1_mlp_simclrhn_probe1,1,164,NaN,oven,oven,4-0-10,0164_eid_dnn_4-0-10_oven_10_n04111531_7266.png,n04111531_7266.png,1.0,0.39261994,-1.166937,1.1027733
alexnet_w1_mlp_simclrhn_probe1,1,165,NaN,cat,cat,128-0-10,0165_eid_dnn_128-0-10_cat_10_n02124075_6464.png,n02124075_6464.png,1.0,-0.36364982,-0.7900448,0.3015068
alexnet_w1_mlp_simclrhn_probe1,1,166,NaN,bear,bicycle,16-0-10,0166_eid_dnn_16-0-10_bicycle_10_n02835271_4667.png,n02835271_4667.png,0.0,-4.530682,1.0120363,-3.9192939
alexnet_w1_mlp_simclrhn_probe1,1,167,NaN,oven,chair,32-0-10,0167_eid_dnn_32-0-10_chair_10_n04099969_2532.png,n04099969_2532.png,0.0,-5.316457,-0.4986177,-3.4067268
alexnet_w1_mlp_simclrhn_probe1,1,168,NaN,bottle,bottle,4-0-10,0168_eid_dnn_4-0-10_bottle_10_n04560804_15683.png,n04560804_15683.png,1.0,-0.6488927,-1.5049036,0.60529107
alexnet_w1_mlp_simclrhn_probe1,1,169,NaN,cat,chair,8-0-10,0169_eid_dnn_8-0-10_chair_10_n04099969_6825.png,n04099969_6825.png,0.0,-5.9669952,0.4169288,-4.514116
alexnet_w1_mlp_simclrhn_probe1,1,170,NaN,oven,oven,1-0-10,0170_eid_dnn_1-0-10_oven_10_n04111531_1612.png,n04111531_1612.png,1.0,2.0020795,1.5511332,0.3188672
alexnet_w1_mlp_simclrhn_probe1,1,171,NaN,clock,clock,2-0-10,0171_eid_dnn_2-0-10_clock_10_n02708093_1701.png,n02708093_1701.png,1.0,3.668525,0.07890806,2.5382426
alexnet_w1_mlp_simclrhn_probe1,1,172,NaN,bear,elephant,32-0-10,0172_eid_dnn_32-0-10_elephant_10_n02504013_782.png,n02504013_782.png,0.0,-1.0111046,-0.11518446,-0.6335112
alexnet_w1_mlp_simclrhn_probe1,1,173,NaN,oven,dog,128-0-10,0173_eid_dnn_128-0-10_dog_10_n02107908_8814.png,n02107908_8814.png,0.0,-2.8492246,0.33028105,-2.24825
alexnet_w1_mlp_simclrhn_probe1,1,174,NaN,bear,elephant,4-0-10,0174_eid_dnn_4-0-10_elephant_10_n02504458_5816.png,n02504458_5816.png,0.0,0.94446146,1.1493891,-0.14490576
alexnet_w1_mlp_simclrhn_probe1,1,175,NaN,car,car,2-0-10,0175_eid_dnn_2-0-10_car_10_n03100240_18788.png,n03100240_18788.png,1.0,3.5726013,0.16127697,2.4121706
alexnet_w1_mlp_simclrhn_probe1,1,176,NaN,cat,airplane,16-0-10,0176_eid_dnn_16-0-10_airplane_10_n02690373_7915.png,n02690373_7915.png,0.0,-2.3568707,-1.2546817,-0.7793653
alexnet_w1_mlp_simclrhn_probe1,1,177,NaN,oven,chair,4-0-10,0177_eid_dnn_4-0-10_chair_10_n04429376_10544.png,n04429376_10544.png,0.0,-1.828546,1.7094922,-2.501771
alexnet_w1_mlp_simclrhn_probe1,1,178,NaN,oven,knife,32-0-10,0178_eid_dnn_32-0-10_knife_10_n03041632_24883.png,n03041632_24883.png,0.0,-2.842692,0.12115139,-2.0957537
alexnet_w1_mlp_simclrhn_probe1,1,179,NaN,oven,bicycle,128-0-10,0179_eid_dnn_128-0-10_bicycle_10_n03792782_10367.png,n03792782_10367.png,0.0,-5.6968493,-1.4127495,-3.029316
alexnet_w1_mlp_simclrhn_probe1,1,180,NaN,oven,oven,1-0-10,0180_eid_dnn_1-0-10_oven_10_n04111531_3121.png,n04111531_3121.png,1.0,0.8541163,-0.46643162,0.9337684
alexnet_w1_mlp_simclrhn_probe1,1,181,NaN,oven,car,128-0-10,0181_eid_dnn_128-0-10_car_10_n02814533_10995.png,n02814533_10995.png,0.0,-8.745521,-0.30804467,-5.9661965
alexnet_w1_mlp_simclrhn_probe1,1,182,NaN,oven,dog,128-0-10,0182_eid_dnn_128-0-10_dog_10_n02112350_502.png,n02112350_502.png,0.0,-2.1462755,-0.8816068,-0.8942558
alexnet_w1_mlp_simclrhn_probe1,1,183,NaN,cat,clock,128-0-10,0183_eid_dnn_128-0-10_clock_10_n04548280_5278.png,n04548280_5278.png,0.0,-7.0757976,-0.89586884,-4.3698697
alexnet_w1_mlp_simclrhn_probe1,1,184,NaN,bear,bird,4-0-10,0184_eid_dnn_4-0-10_bird_10_n02006656_713.png,n02006656_713.png,0.0,-2.8039553,0.21474056,-2.1345403
alexnet_w1_mlp_simclrhn_probe1,1,185,NaN,oven,bottle,128-0-10,0185_eid_dnn_128-0-10_bottle_10_n04557648_4106.png,n04557648_4106.png,0.0,-4.501939,-1.4131637,-2.184094
alexnet_w1_mlp_simclrhn_probe1,1,186,NaN,oven,clock,64-0-10,0186_eid_dnn_64-0-10_clock_10_n02708093_1430.png,n02708093_1430.png,0.0,-4.854052,-1.3893409,-2.449921
alexnet_w1_mlp_simclrhn_probe1,1,187,NaN,oven,oven,1-0-10,0187_eid_dnn_1-0-10_oven_10_n04111531_7664.png,n04111531_7664.png,1.0,4.3350363,-1.4994367,4.1255956
alexnet_w1_mlp_simclrhn_probe1,1,188,NaN,car,car,1-0-10,0188_eid_dnn_1-0-10_car_10_n02814533_149.png,n02814533_149.png,1.0,5.239781,5.0200863,0.15534756
alexnet_w1_mlp_simclrhn_probe1,1,189,NaN,bird,clock,64-0-10,0189_eid_dnn_64-0-10_clock_10_n04548280_8296.png,n04548280_8296.png,0.0,-4.727866,-1.9639049,-1.9544158
alexnet_w1_mlp_simclrhn_probe1,1,190,NaN,oven,bottle,64-0-10,0190_eid_dnn_64-0-10_bottle_10_n04591713_5815.png,n04591713_5815.png,0.0,-3.831476,-0.569365,-2.306661
alexnet_w1_mlp_simclrhn_probe1,1,191,NaN,bottle,knife,2-0-10,0191_eid_dnn_2-0-10_knife_10_n03041632_90125.png,n03041632_90125.png,0.0,-0.96480596,0.42211032,-0.98069793
alexnet_w1_mlp_simclrhn_probe1,1,192,NaN,oven,bird,64-0-10,0192_eid_dnn_64-0-10_bird_10_n01534433_16586.png,n01534433_16586.png,0.0,-2.2419922,-0.98218185,-0.8908205
alexnet_w1_mlp_simclrhn_probe1,1,193,NaN,cat,cat,4-0-10,0193_eid_dnn_4-0-10_cat_10_n02123394_2559.png,n02123394_2559.png,1.0,1.8698082,-0.24035764,1.4921126
alexnet_w1_mlp_simclrhn_probe1,1,194,NaN,elephant,elephant,4-0-10,0194_eid_dnn_4-0-10_elephant_10_n02504458_5995.png,n02504458_5995.png,1.0,1.3289433,1.0036511,0.23001626
alexnet_w1_mlp_simclrhn_probe1,1,195,NaN,car,car,2-0-10,0195_eid_dnn_2-0-10_car_10_n02814533_211.png,n02814533_211.png,1.0,7.9102073,6.4005504,1.0674887
alexnet_w1_mlp_simclrhn_probe1,1,196,NaN,chair,chair,1-0-10,0196_eid_dnn_1-0-10_chair_10_n04429376_13328.png,n04429376_13328.png,1.0,1.674548,-0.10142392,1.2558018
alexnet_w1_mlp_simclrhn_probe1,1,197,NaN,bear,keyboard,16-0-10,0197_eid_dnn_16-0-10_keyboard_10_n03085013_24618.png,n03085013_24618.png,0.0,-6.9682636,0.69152844,-5.4162908
alexnet_w1_mlp_simclrhn_probe1,1,198,NaN,oven,oven,4-0-10,0198_eid_dnn_4-0-10_oven_10_n04111531_2186.png,n04111531_2186.png,1.0,0.96804893,0.5645974,0.2852833
alexnet_w1_mlp_simclrhn_probe1,1,199,NaN,bear,oven,8-0-10,0199_eid_dnn_8-0-10_oven_10_n04111531_114.png,n04111531_114.png,0.0,-0.004876673,0.7837819,-0.5576658
alexnet_w1_mlp_simclrhn_probe1,1,200,NaN,car,car,1-0-10,0200_eid_dnn_1-0-10_car_10_n03100240_1745.png,n03100240_1745.png,1.0,8.540906,5.6519003,2.0428355
alexnet_w1_mlp_simclrhn_probe1,1,201,NaN,cat,cat,4-0-10,0201_eid_dnn_4-0-10_cat_10_n02123394_1259.png,n02123394_1259.png,1.0,1.36297,-0.27461168,1.1579452
alexnet_w1_mlp_simclrhn_probe1,1,202,NaN,cat,oven,4-0-10,0202_eid_dnn_4-0-10_oven_10_n04111531_5801.png,n04111531_5801.png,0.0,-0.08593479,-0.018101001,-0.04796573
alexnet_w1_mlp_simclrhn_probe1,1,203,NaN,bear,airplane,32-0-10,0203_eid_dnn_32-0-10_airplane_10_n02690373_2024.png,n02690373_2024.png,0.0,-4.5224633,-1.2825243,-2.290983
alexnet_w1_mlp_simclrhn_probe1,1,204,NaN,cat,cat,8-0-10,0204_eid_dnn_8-0-10_cat_10_n02123045_12181.png,n02123045_12181.png,1.0,1.424591,0.6261462,0.5645857
alexnet_w1_mlp_simclrhn_probe1,1,205,NaN,oven,airplane,64-0-10,0205_eid_dnn_64-0-10_airplane_10_n02690373_3313.png,n02690373_3313.png,0.0,-6.631694,-0.28861243,-4.485236
alexnet_w1_mlp_simclrhn_probe1,1,206,NaN,oven,truck,64-0-10,0206_eid_dnn_64-0-10_truck_10_n04467665_80465.png,n04467665_80465.png,0.0,-4.841194,-1.362974,-2.459473
alexnet_w1_mlp_simclrhn_probe1,1,207,NaN,elephant,elephant,2-0-10,0207_eid_dnn_2-0-10_elephant_10_n02504013_8626.png,n02504013_8626.png,1.0,-1.4503316,-2.4951649,0.73880875
alexnet_w1_mlp_simclrhn_probe1,1,208,NaN,oven,car,16-0-10,0208_eid_dnn_16-0-10_car_10_n04285008_7904.png,n04285008_7904.png,0.0,-10.234309,1.6940163,-8.4346
alexnet_w1_mlp_simclrhn_probe1,1,209,NaN,bear,airplane,8-0-10,0209_eid_dnn_8-0-10_airplane_10_n02690373_6363.png,n02690373_6363.png,0.0,-6.287136,-0.47933236,-4.1067376
alexnet_w1_mlp_simclrhn_probe1,1,210,NaN,cat,cat,4-0-10,0210_eid_dnn_4-0-10_cat_10_n02123045_7294.png,n02123045_7294.png,1.0,-0.12276035,-1.1191504,0.70455414
alexnet_w1_mlp_simclrhn_probe1,1,211,NaN,cat,airplane,128-0-10,0211_eid_dnn_128-0-10_airplane_10_n02690373_6988.png,n02690373_6988.png,0.0,-9.147456,-0.82876784,-5.882201
alexnet_w1_mlp_simclrhn_probe1,1,212,NaN,oven,cat,4-0-10,0212_eid_dnn_4-0-10_cat_10_n02125311_25749.png,n02125311_25749.png,0.0,-2.890261,-2.4384806,-0.31945693
alexnet_w1_mlp_simclrhn_probe1,1,213,NaN,oven,bird,64-0-10,0213_eid_dnn_64-0-10_bird_10_n02018207_12980.png,n02018207_12980.png,0.0,-4.608016,-0.77033097,-2.7136533
alexnet_w1_mlp_simclrhn_probe1,1,214,NaN,bear,cat,32-0-10,0214_eid_dnn_32-0-10_cat_10_n02123394_2814.png,n02123394_2814.png,0.0,-0.65310323,0.3907355,-0.7381055
alexnet_w1_mlp_simclrhn_probe1,1,215,NaN,car,car,4-0-10,0215_eid_dnn_4-0-10_car_10_n04285008_662.png,n04285008_662.png,1.0,-0.86209315,-1.684629,0.58162063
alexnet_w1_mlp_simclrhn_probe1,1,216,NaN,dog,bicycle,2-0-10,0216_eid_dnn_2-0-10_bicycle_10_n03792782_11679.png,n03792782_11679.png,0.0,-1.9112501,-0.018750161,-1.3381995
alexnet_w1_mlp_simclrhn_probe1,1,217,NaN,cat,dog,16-0-10,0217_eid_dnn_16-0-10_dog_10_n02093428_17769.png,n02093428_17769.png,0.0,-1.8791217,-0.77248573,-0.7825098
alexnet_w1_mlp_simclrhn_probe1,1,218,NaN,oven,dog,64-0-10,0218_eid_dnn_64-0-10_dog_10_n02106030_17418.png,n02106030_17418.png,0.0,-1.5628853,0.28377807,-1.3057882
alexnet_w1_mlp_simclrhn_probe1,1,219,NaN,oven,chair,64-0-10,0219_eid_dnn_64-0-10_chair_10_n02791124_7142.png,n02791124_7142.png,0.0,-7.097168,0.94987583,-5.6901193
alexnet_w1_mlp_simclrhn_probe1,1,220,NaN,bear,bear,1-0-10,0220_eid_dnn_1-0-10_bear_10_n02134084_18083.png,n02134084_18083.png,1.0,-0.6390782,-0.81923664,0.12739125
alexnet_w1_mlp_simclrhn_probe1,1,221,NaN,keyboard,keyboard,2-0-10,0221_eid_dnn_2-0-10_keyboard_10_n03085013_7536.png,n03085013_7536.png,1.0,2.071381,0.45635188,1.1419982
alexnet_w1_mlp_simclrhn_probe1,1,222,NaN,elephant,bird,1-0-10,0222_eid_dnn_1-0-10_bird_10_n01616318_2473.png,n01616318_2473.png,0.0,-1.675864,0.5213983,-1.5536991
alexnet_w1_mlp_simclrhn_probe1,1,223,NaN,elephant,elephant,1-0-10,0223_eid_dnn_1-0-10_elephant_10_n02504458_5951.png,n02504458_5951.png,1.0,5.5683966,1.0363927,3.2046108
alexnet_w1_mlp_simclrhn_probe1,1,224,NaN,airplane,airplane,4-0-10,0224_eid_dnn_4-0-10_airplane_10_n02690373_5164.png,n02690373_5164.png,1.0,0.99001443,-0.99271524,1.4020016
alexnet_w1_mlp_simclrhn_probe1,1,225,NaN,elephant,elephant,4-0-10,0225_eid_dnn_4-0-10_elephant_10_n02504013_1865.png,n02504013_1865.png,1.0,3.0724714,0.17930037,2.045781
alexnet_w1_mlp_simclrhn_probe1,1,226,NaN,knife,knife,1-0-10,0226_eid_dnn_1-0-10_knife_10_n03041632_56454.png,n03041632_56454.png,1.0,0.65295696,-1.0235684,1.1854825
alexnet_w1_mlp_simclrhn_probe1,1,227,NaN,oven,bird,64-0-10,0227_eid_dnn_64-0-10_bird_10_n01824575_5820.png,n01824575_5820.png,0.0,-4.266476,-0.18248707,-2.8878164
alexnet_w1_mlp_simclrhn_probe1,1,228,NaN,oven,oven,4-0-10,0228_eid_dnn_4-0-10_oven_10_n04111531_4332.png,n04111531_4332.png,1.0,0.24562612,-1.1360694,0.97700626
alexnet_w1_mlp_simclrhn_probe1,1,229,NaN,truck,truck,2-0-10,0229_eid_dnn_2-0-10_truck_10_n04467665_41352.png,n04467665_41352.png,1.0,7.379422,4.5122585,2.027391
alexnet_w1_mlp_simclrhn_probe1,1,230,NaN,bird,bird,8-0-10,0230_eid_dnn_8-0-10_bird_10_n01514859_5668.png,n01514859_5668.png,1.0,-0.92465633,-1.0979168,0.12251368
alexnet_w1_mlp_simclrhn_probe1,1,231,NaN,cat,oven,32-0-10,0231_eid_dnn_32-0-10_oven_10_n04111531_4438.png,n04111531_4438.png,0.0,-2.1659336,-1.9162892,-0.17652525
alexnet_w1_mlp_simclrhn_probe1,1,232,NaN,cat,cat,1-0-10,0232_eid_dnn_1-0-10_cat_10_n02123394_6693.png,n02123394_6693.png,1.0,1.9232591,-0.3908209,1.6363016
alexnet_w1_mlp_simclrhn_probe1,1,233,NaN,oven,elephant,32-0-10,0233_eid_dnn_32-0-10_elephant_10_n02504458_6302.png,n02504458_6302.png,0.0,-1.3290968,-0.40193424,-0.65560293
alexnet_w1_mlp_simclrhn_probe1,1,234,NaN,oven,bottle,16-0-10,0234_eid_dnn_16-0-10_bottle_10_n03937543_2329.png,n03937543_2329.png,0.0,-4.3846474,0.08041841,-3.1572785
alexnet_w1_mlp_simclrhn_probe1,1,235,NaN,bear,elephant,16-0-10,0235_eid_dnn_16-0-10_elephant_10_n02504458_5155.png,n02504458_5155.png,0.0,0.9833449,1.4461063,-0.32722172
alexnet_w1_mlp_simclrhn_probe1,1,236,NaN,oven,bear,1-0-10,0236_eid_dnn_1-0-10_bear_10_n02134084_1694.png,n02134084_1694.png,0.0,-1.0303832,0.7948605,-1.2906423
alexnet_w1_mlp_simclrhn_probe1,1,237,NaN,oven,bear,128-0-10,0237_eid_dnn_128-0-10_bear_10_n02133161_1624.png,n02133161_1624.png,0.0,-5.1694727,-1.4398419,-2.6372473
alexnet_w1_mlp_simclrhn_probe1,1,238,NaN,bear,bear,64-0-10,0238_eid_dnn_64-0-10_bear_10_n02132136_11027.png,n02132136_11027.png,1.0,0.63733673,-0.107075915,0.5263792
alexnet_w1_mlp_simclrhn_probe1,1,239,NaN,oven,elephant,64-0-10,0239_eid_dnn_64-0-10_elephant_10_n02504013_24621.png,n02504013_24621.png,0.0,-4.011955,-0.14615737,-2.7335317
alexnet_w1_mlp_simclrhn_probe1,1,240,NaN,oven,knife,16-0-10,0240_eid_dnn_16-0-10_knife_10_n03041632_27134.png,n03041632_27134.png,0.0,-3.727804,0.8668071,-3.2488809
alexnet_w1_mlp_simclrhn_probe1,1,241,NaN,oven,keyboard,32-0-10,0241_eid_dnn_32-0-10_keyboard_10_n03085013_24316.png,n03085013_24316.png,0.0,-5.839126,-0.14971714,-4.02302
alexnet_w1_mlp_simclrhn_probe1,1,242,NaN,cat,cat,2-0-10,0242_eid_dnn_2-0-10_cat_10_n02123159_3026.png,n02123159_3026.png,1.0,2.3863907,-0.75922865,2.224289
alexnet_w1_mlp_simclrhn_probe1,1,243,NaN,cat,bicycle,128-0-10,0243_eid_dnn_128-0-10_bicycle_10_n03792782_1475.png,n03792782_1475.png,0.0,-8.723804,-0.7736254,-5.6216254
alexnet_w1_mlp_simclrhn_probe1,1,244,NaN,cat,cat,16-0-10,0244_eid_dnn_16-0-10_cat_10_n02123045_20507.png,n02123045_20507.png,1.0,1.7641554,-0.31032556,1.4668796
alexnet_w1_mlp_simclrhn_probe1,1,245,NaN,oven,boat,64-0-10,0245_eid_dnn_64-0-10_boat_10_n02951358_23759.png,n02951358_23759.png,0.0,-5.2442513,-0.32942516,-3.4753067
alexnet_w1_mlp_simclrhn_probe1,1,246,NaN,bear,bear,16-0-10,0246_eid_dnn_16-0-10_bear_10_n02132136_1858.png,n02132136_1858.png,1.0,1.05409,-0.08185536,0.80323464
alexnet_w1_mlp_simclrhn_probe1,1,247,NaN,oven,boat,128-0-10,0247_eid_dnn_128-0-10_boat_10_n02951358_6465.png,n02951358_6465.png,0.0,-8.018801,-0.71267337,-5.1662126
alexnet_w1_mlp_simclrhn_probe1,1,248,NaN,bird,airplane,128-0-10,0248_eid_dnn_128-0-10_airplane_10_n02690373_6223.png,n02690373_6223.png,0.0,-7.7031946,-1.454314,-4.418626
alexnet_w1_mlp_simclrhn_probe1,1,249,NaN,oven,boat,128-0-10,0249_eid_dnn_128-0-10_boat_10_n03344393_2412.png,n03344393_2412.png,0.0,-5.9646897,-0.60514057,-3.7897735
alexnet_w1_mlp_simclrhn_probe1,1,250,NaN,cat,knife,8-0-10,0250_eid_dnn_8-0-10_knife_10_n03041632_6446.png,n03041632_6446.png,0.0,-2.2741013,0.13379183,-1.7026377
alexnet_w1_mlp_simclrhn_probe1,1,251,NaN,cat,bottle,64-0-10,0251_eid_dnn_64-0-10_bottle_10_n04591713_7940.png,n04591713_7940.png,0.0,-4.961145,-1.0841703,-2.741435
alexnet_w1_mlp_simclrhn_probe1,1,252,NaN,cat,cat,4-0-10,0252_eid_dnn_4-0-10_cat_10_n02124075_13568.png,n02124075_13568.png,1.0,2.1335914,-0.40706354,1.7965144
alexnet_w1_mlp_simclrhn_probe1,1,253,NaN,truck,boat,2-0-10,0253_eid_dnn_2-0-10_boat_10_n03662601_2171.png,n03662601_2171.png,0.0,-0.04032154,0.6870897,-0.5143574
alexnet_w1_mlp_simclrhn_probe1,1,254,NaN,elephant,elephant,1-0-10,0254_eid_dnn_1-0-10_elephant_10_n02504458_415.png,n02504458_415.png,1.0,1.0287788,0.34272248,0.48511508
alexnet_w1_mlp_simclrhn_probe1,1,255,NaN,oven,car,16-0-10,0255_eid_dnn_16-0-10_car_10_n03100240_3386.png,n03100240_3386.png,0.0,-6.623424,0.0682538,-4.731731
alexnet_w1_mlp_simclrhn_probe1,1,256,NaN,dog,bird,16-0-10,0256_eid_dnn_16-0-10_bird_10_n02056570_6633.png,n02056570_6633.png,0.0,-4.1755357,-1.594836,-1.8248303
alexnet_w1_mlp_simclrhn_probe1,1,257,NaN,oven,bottle,32-0-10,0257_eid_dnn_32-0-10_bottle_10_n02823428_4232.png,n02823428_4232.png,0.0,-2.894212,0.32692054,-2.2776847
alexnet_w1_mlp_simclrhn_probe1,1,258,NaN,cat,boat,128-0-10,0258_eid_dnn_128-0-10_boat_10_n04273569_2396.png,n04273569_2396.png,0.0,-5.7884192,-1.3812033,-3.1163723
alexnet_w1_mlp_simclrhn_probe1,1,259,NaN,knife,knife,1-0-10,0259_eid_dnn_1-0-10_knife_10_n03041632_38996.png,n03041632_38996.png,1.0,0.56205803,-0.8391949,0.9908355
alexnet_w1_mlp_simclrhn_probe1,1,260,NaN,bear,oven,8-0-10,0260_eid_dnn_8-0-10_oven_10_n04111531_10420.png,n04111531_10420.png,0.0,0.25076795,0.7499683,-0.35298795
alexnet_w1_mlp_simclrhn_probe1,1,261,NaN,oven,dog,128-0-10,0261_eid_dnn_128-0-10_dog_10_n02094114_2394.png,n02094114_2394.png,0.0,-2.7647548,-0.47481552,-1.6192316
alexnet_w1_mlp_simclrhn_probe1,1,262,NaN,oven,elephant,128-0-10,0262_eid_dnn_128-0-10_elephant_10_n02504013_4247.png,n02504013_4247.png,0.0,-2.570077,-0.14619717,-1.7139419
alexnet_w1_mlp_simclrhn_probe1,1,263,NaN,oven,chair,32-0-10,0263_eid_dnn_32-0-10_chair_10_n03376595_8137.png,n03376595_8137.png,0.0,-4.425149,-0.6979354,-2.635538
alexnet_w1_mlp_simclrhn_probe1,1,264,NaN,oven,airplane,128-0-10,0264_eid_dnn_128-0-10_airplane_10_n02690373_8524.png,n02690373_8524.png,0.0,-14.196475,-0.65230334,-9.577175
alexnet_w1_mlp_simclrhn_probe1,1,265,NaN,oven,car,64-0-10,0265_eid_dnn_64-0-10_car_10_n03100240_18410.png,n03100240_18410.png,0.0,-6.7154546,-1.3246088,-3.8119037
alexnet_w1_mlp_simclrhn_probe1,1,266,NaN,oven,clock,64-0-10,0266_eid_dnn_64-0-10_clock_10_n04548280_2588.png,n04548280_2588.png,0.0,-6.6661353,1.1696352,-5.5407267
alexnet_w1_mlp_simclrhn_probe1,1,267,NaN,oven,keyboard,32-0-10,0267_eid_dnn_32-0-10_keyboard_10_n03085013_24030.png,n03085013_24030.png,0.0,-6.7537603,-0.5865158,-4.3609004
alexnet_w1_mlp_simclrhn_probe1,1,268,NaN,clock,clock,2-0-10,0268_eid_dnn_2-0-10_clock_10_n03196217_6375.png,n03196217_6375.png,1.0,1.4825147,0.32597497,0.8177971
alexnet_w1_mlp_simclrhn_probe1,1,269,NaN,oven,airplane,32-0-10,0269_eid_dnn_32-0-10_airplane_10_n02690373_4150.png,n02690373_4150.png,0.0,-5.4338627,-0.31044573,-3.622803
alexnet_w1_mlp_simclrhn_probe1,1,270,NaN,cat,dog,4-0-10,0270_eid_dnn_4-0-10_dog_10_n02086646_6567.png,n02086646_6567.png,0.0,-0.92536956,0.30334628,-0.86883336
alexnet_w1_mlp_simclrhn_probe1,1,271,NaN,oven,clock,64-0-10,0271_eid_dnn_64-0-10_clock_10_n03196217_775.png,n03196217_775.png,0.0,-8.456169,0.0018405914,-5.980716
alexnet_w1_mlp_simclrhn_probe1,1,272,NaN,car,car,1-0-10,0272_eid_dnn_1-0-10_car_10_n02814533_57353.png,n02814533_57353.png,1.0,9.735835,9.654391,0.057589456
alexnet_w1_mlp_simclrhn_probe1,1,273,NaN,oven,bottle,16-0-10,0273_eid_dnn_16-0-10_bottle_10_n04560804_183.png,n04560804_183.png,0.0,-3.3753052,0.25094017,-2.5641427
alexnet_w1_mlp_simclrhn_probe1,1,274,NaN,car,car,2-0-10,0274_eid_dnn_2-0-10_car_10_n04285008_10631.png,n04285008_10631.png,1.0,5.2268634,-0.14720416,3.8000395
alexnet_w1_mlp_simclrhn_probe1,1,275,NaN,bear,bear,2-0-10,0275_eid_dnn_2-0-10_bear_10_n02132136_10057.png,n02132136_10057.png,1.0,7.9018116,4.065352,2.7127867
alexnet_w1_mlp_simclrhn_probe1,1,276,NaN,oven,boat,128-0-10,0276_eid_dnn_128-0-10_boat_10_n04273569_4605.png,n04273569_4605.png,0.0,-8.126754,-0.84844005,-5.146545
alexnet_w1_mlp_simclrhn_probe1,1,277,NaN,oven,cat,64-0-10,0277_eid_dnn_64-0-10_cat_10_n02123597_12711.png,n02123597_12711.png,0.0,-1.7300143,-0.31950825,-0.9973784
alexnet_w1_mlp_simclrhn_probe1,1,278,NaN,bottle,bottle,1-0-10,0278_eid_dnn_1-0-10_bottle_10_n04560804_5610.png,n04560804_5610.png,1.0,3.0344968,-2.7396262,4.0829215
alexnet_w1_mlp_simclrhn_probe1,1,279,NaN,bear,clock,32-0-10,0279_eid_dnn_32-0-10_clock_10_n04548280_8412.png,n04548280_8412.png,0.0,-5.9475694,0.00020419061,-4.205711
alexnet_w1_mlp_simclrhn_probe1,1,280,NaN,cat,cat,2-0-10,0280_eid_dnn_2-0-10_cat_10_n02123597_13834.png,n02123597_13834.png,1.0,0.4327918,-0.68592924,0.7910552
alexnet_w1_mlp_simclrhn_probe1,1,281,NaN,bird,dog,128-0-10,0281_eid_dnn_128-0-10_dog_10_n02091831_538.png,n02091831_538.png,0.0,-2.519212,-1.4691186,-0.7425282
alexnet_w1_mlp_simclrhn_probe1,1,282,NaN,bicycle,bicycle,32-0-10,0282_eid_dnn_32-0-10_bicycle_10_n03792782_10437.png,n03792782_10437.png,1.0,-1.535254,-1.5488273,0.009597764
alexnet_w1_mlp_simclrhn_probe1,1,283,NaN,bear,bear,2-0-10,0283_eid_dnn_2-0-10_bear_10_n02132136_2372.png,n02132136_2372.png,1.0,2.4023242,0.4154664,1.4049206
alexnet_w1_mlp_simclrhn_probe1,1,284,NaN,bicycle,bicycle,128-0-10,0284_eid_dnn_128-0-10_bicycle_10_n03792782_4540.png,n03792782_4540.png,1.0,-2.3995192,-2.4709609,0.050516877
alexnet_w1_mlp_simclrhn_probe1,1,285,NaN,elephant,elephant,2-0-10,0285_eid_dnn_2-0-10_elephant_10_n02504013_10152.png,n02504013_10152.png,1.0,1.162036,-0.033334125,0.8452543
alexnet_w1_mlp_simclrhn_probe1,1,286,NaN,oven,boat,64-0-10,0286_eid_dnn_64-0-10_boat_10_n02951358_7603.png,n02951358_7603.png,0.0,-6.666808,-0.583706,-4.301403
alexnet_w1_mlp_simclrhn_probe1,1,287,NaN,bear,bear,2-0-10,0287_eid_dnn_2-0-10_bear_10_n02133161_9371.png,n02133161_9371.png,1.0,2.359508,0.5576929,1.2740757
alexnet_w1_mlp_simclrhn_probe1,1,288,NaN,bear,truck,8-0-10,0288_eid_dnn_8-0-10_truck_10_n04467665_69892.png,n04467665_69892.png,0.0,-5.146684,1.3524413,-4.595576
alexnet_w1_mlp_simclrhn_probe1,1,289,NaN,knife,knife,1-0-10,0289_eid_dnn_1-0-10_knife_10_n03041632_19275.png,n03041632_19275.png,1.0,-0.9522413,-2.1931853,0.87748
alexnet_w1_mlp_simclrhn_probe1,1,290,NaN,oven,keyboard,16-0-10,0290_eid_dnn_16-0-10_keyboard_10_n04505470_9446.png,n04505470_9446.png,0.0,-5.638685,0.16575986,-4.1043625
alexnet_w1_mlp_simclrhn_probe1,1,291,NaN,elephant,elephant,1-0-10,0291_eid_dnn_1-0-10_elephant_10_n02504013_9141.png,n02504013_9141.png,1.0,1.6281598,-0.6962342,1.6435947
alexnet_w1_mlp_simclrhn_probe1,1,292,NaN,oven,bird,128-0-10,0292_eid_dnn_128-0-10_bird_10_n02056570_8553.png,n02056570_8553.png,0.0,-4.581074,0.50534254,-3.5966399
alexnet_w1_mlp_simclrhn_probe1,1,293,NaN,car,car,1-0-10,0293_eid_dnn_1-0-10_car_10_n03100240_9171.png,n03100240_9171.png,1.0,6.192118,4.0456414,1.5177883
alexnet_w1_mlp_simclrhn_probe1,1,294,NaN,dog,dog,8-0-10,0294_eid_dnn_8-0-10_dog_10_n02102177_1533.png,n02102177_1533.png,1.0,0.60407376,0.01408115,0.4171878
alexnet_w1_mlp_simclrhn_probe1,1,295,NaN,oven,cat,64-0-10,0295_eid_dnn_64-0-10_cat_10_n02124075_12464.png,n02124075_12464.png,0.0,-0.91698486,-0.6532626,-0.18647979
alexnet_w1_mlp_simclrhn_probe1,1,296,NaN,bottle,chair,4-0-10,0296_eid_dnn_4-0-10_chair_10_n04429376_33792.png,n04429376_33792.png,0.0,-3.1747088,0.48028016,-2.5844676
alexnet_w1_mlp_simclrhn_probe1,1,297,NaN,oven,bear,128-0-10,0297_eid_dnn_128-0-10_bear_10_n02133161_3258.png,n02133161_3258.png,0.0,-5.57975,-1.0334129,-3.2147458
alexnet_w1_mlp_simclrhn_probe1,1,298,NaN,elephant,dog,4-0-10,0298_eid_dnn_4-0-10_dog_10_n02097130_1442.png,n02097130_1442.png,0.0,-0.46312356,2.3072548,-1.9589534
alexnet_w1_mlp_simclrhn_probe1,1,299,NaN,oven,chair,4-0-10,0299_eid_dnn_4-0-10_chair_10_n02791124_8970.png,n02791124_8970.png,0.0,-2.218687,-0.35642874,-1.3168155
alexnet_w1_mlp_simclrhn_probe1,1,300,NaN,bear,car,8-0-10,0300_eid_dnn_8-0-10_car_10_n04285008_8545.png,n04285008_8545.png,0.0,-5.957712,-0.41457438,-3.9195902
alexnet_w1_mlp_simclrhn_probe1,1,301,NaN,truck,truck,1-0-10,0301_eid_dnn_1-0-10_truck_10_n03417042_2204.png,n03417042_2204.png,1.0,2.461864,-0.52189475,2.109836
alexnet_w1_mlp_simclrhn_probe1,1,302,NaN,bear,bear,2-0-10,0302_eid_dnn_2-0-10_bear_10_n02133161_15593.png,n02133161_15593.png,1.0,1.6561599,1.61875,0.026452795
alexnet_w1_mlp_simclrhn_probe1,1,303,NaN,knife,clock,2-0-10,0303_eid_dnn_2-0-10_clock_10_n04548280_5845.png,n04548280_5845.png,0.0,-2.2727425,-0.8985873,-0.97167456
alexnet_w1_mlp_simclrhn_probe1,1,304,NaN,cat,knife,4-0-10,0304_eid_dnn_4-0-10_knife_10_n03041632_4975.png,n03041632_4975.png,0.0,-2.1722448,-0.9332311,-0.87611496
alexnet_w1_mlp_simclrhn_probe1,1,305,NaN,cat,clock,32-0-10,0305_eid_dnn_32-0-10_clock_10_n03196217_4849.png,n03196217_4849.png,0.0,-3.4593532,-0.9859522,-1.7489587
alexnet_w1_mlp_simclrhn_probe1,1,306,NaN,elephant,bicycle,2-0-10,0306_eid_dnn_2-0-10_bicycle_10_n03792782_15752.png,n03792782_15752.png,0.0,-0.9452299,-0.12828821,-0.57766503
alexnet_w1_mlp_simclrhn_probe1,1,307,NaN,cat,bicycle,16-0-10,0307_eid_dnn_16-0-10_bicycle_10_n02835271_29741.png,n02835271_29741.png,0.0,-2.070249,-0.29783925,-1.253283
alexnet_w1_mlp_simclrhn_probe1,1,308,NaN,oven,chair,4-0-10,0308_eid_dnn_4-0-10_chair_10_n04099969_16619.png,n04099969_16619.png,0.0,-2.2185562,-0.108548,-1.4920012
alexnet_w1_mlp_simclrhn_probe1,1,309,NaN,keyboard,keyboard,4-0-10,0309_eid_dnn_4-0-10_keyboard_10_n04505470_4552.png,n04505470_4552.png,1.0,0.87287796,-0.9350545,1.2784013
alexnet_w1_mlp_simclrhn_probe1,1,310,NaN,bear,boat,8-0-10,0310_eid_dnn_8-0-10_boat_10_n02951358_13144.png,n02951358_13144.png,0.0,-4.695371,0.90003943,-3.9565527
alexnet_w1_mlp_simclrhn_probe1,1,311,NaN,bear,bird,32-0-10,0311_eid_dnn_32-0-10_bird_10_n01797886_14611.png,n01797886_14611.png,0.0,-1.1803377,-0.22225255,-0.6774685
alexnet_w1_mlp_simclrhn_probe1,1,312,NaN,knife,knife,1-0-10,0312_eid_dnn_1-0-10_knife_10_n03041632_3326.png,n03041632_3326.png,1.0,0.48645425,-2.2799098,1.9561149
alexnet_w1_mlp_simclrhn_probe1,1,313,NaN,bear,elephant,8-0-10,0313_eid_dnn_8-0-10_elephant_10_n02504013_5829.png,n02504013_5829.png,0.0,1.0400258,1.6701667,-0.4455769
alexnet_w1_mlp_simclrhn_probe1,1,314,NaN,oven,dog,16-0-10,0314_eid_dnn_16-0-10_dog_10_n02088094_2292.png,n02088094_2292.png,0.0,-1.8191055,0.19086808,-1.421266
alexnet_w1_mlp_simclrhn_probe1,1,315,NaN,oven,oven,8-0-10,0315_eid_dnn_8-0-10_oven_10_n04111531_4944.png,n04111531_4944.png,1.0,1.5679184,-0.32726154,1.3400947
alexnet_w1_mlp_simclrhn_probe1,1,316,NaN,oven,oven,32-0-10,0316_eid_dnn_32-0-10_oven_10_n04111531_669.png,n04111531_669.png,1.0,-0.30002958,-1.6586471,0.9606877
alexnet_w1_mlp_simclrhn_probe1,1,317,NaN,oven,car,64-0-10,0317_eid_dnn_64-0-10_car_10_n02814533_6716.png,n02814533_6716.png,0.0,-11.861068,2.1112978,-9.879954
alexnet_w1_mlp_simclrhn_probe1,1,318,NaN,oven,bear,32-0-10,0318_eid_dnn_32-0-10_bear_10_n02132136_26438.png,n02132136_26438.png,0.0,-0.77495396,0.05819881,-0.58912796
alexnet_w1_mlp_simclrhn_probe1,1,319,NaN,oven,bottle,4-0-10,0319_eid_dnn_4-0-10_bottle_10_n03983396_3027.png,n03983396_3027.png,0.0,-2.232878,-0.79727876,-1.0151219
alexnet_w1_mlp_simclrhn_probe1,1,320,NaN,elephant,elephant,2-0-10,0320_eid_dnn_2-0-10_elephant_10_n02504013_9299.png,n02504013_9299.png,1.0,7.433002,2.3702044,3.5799387
alexnet_w1_mlp_simclrhn_probe1,1,321,NaN,knife,knife,2-0-10,0321_eid_dnn_2-0-10_knife_10_n03041632_13846.png,n03041632_13846.png,1.0,-0.6326412,-0.9418284,0.21862839
alexnet_w1_mlp_simclrhn_probe1,1,322,NaN,oven,airplane,64-0-10,0322_eid_dnn_64-0-10_airplane_10_n02690373_16250.png,n02690373_16250.png,0.0,-6.1725507,-0.79081213,-3.805464
alexnet_w1_mlp_simclrhn_probe1,1,323,NaN,oven,boat,64-0-10,0323_eid_dnn_64-0-10_boat_10_n03662601_13696.png,n03662601_13696.png,0.0,-11.509806,-2.8894773,-6.0954933
alexnet_w1_mlp_simclrhn_probe1,1,324,NaN,cat,cat,1-0-10,0324_eid_dnn_1-0-10_cat_10_n02123597_5692.png,n02123597_5692.png,1.0,1.1043994,0.5260326,0.4089671
alexnet_w1_mlp_simclrhn_probe1,1,325,NaN,bear,clock,8-0-10,0325_eid_dnn_8-0-10_clock_10_n02708093_3171.png,n02708093_3171.png,0.0,-7.35945,-0.32854673,-4.9715996
alexnet_w1_mlp_simclrhn_probe1,1,326,NaN,oven,keyboard,128-0-10,0326_eid_dnn_128-0-10_keyboard_10_n04505470_4902.png,n04505470_4902.png,0.0,-5.1239896,-0.5891225,-3.2066355
alexnet_w1_mlp_simclrhn_probe1,1,327,NaN,cat,dog,2-0-10,0327_eid_dnn_2-0-10_dog_10_n02113624_1170.png,n02113624_1170.png,0.0,-0.4403327,0.8326532,-0.900137
alexnet_w1_mlp_simclrhn_probe1,1,328,NaN,clock,clock,2-0-10,0328_eid_dnn_2-0-10_clock_10_n03196217_1272.png,n03196217_1272.png,1.0,1.0600425,-0.32102883,0.97656494
alexnet_w1_mlp_simclrhn_probe1,1,329,NaN,oven,cat,128-0-10,0329_eid_dnn_128-0-10_cat_10_n02123394_8946.png,n02123394_8946.png,0.0,-0.40271667,0.13294774,-0.37877196
alexnet_w1_mlp_simclrhn_probe1,1,330,NaN,cat,car,8-0-10,0330_eid_dnn_8-0-10_car_10_n03100240_7134.png,n03100240_7134.png,0.0,-5.071464,-0.5554107,-3.193332
alexnet_w1_mlp_simclrhn_probe1,1,331,NaN,oven,bicycle,4-0-10,0331_eid_dnn_4-0-10_bicycle_10_n03792782_16034.png,n03792782_16034.png,0.0,-0.6551608,-0.554442,-0.071218945
alexnet_w1_mlp_simclrhn_probe1,1,332,NaN,bear,dog,8-0-10,0332_eid_dnn_8-0-10_dog_10_n02104029_5465.png,n02104029_5465.png,0.0,-0.88651127,0.64523304,-1.0831068
alexnet_w1_mlp_simclrhn_probe1,1,333,NaN,keyboard,keyboard,4-0-10,0333_eid_dnn_4-0-10_keyboard_10_n04505470_5011.png,n04505470_5011.png,1.0,3.145268,2.5814528,0.3986775
alexnet_w1_mlp_simclrhn_probe1,1,334,NaN,bear,bird,8-0-10,0334_eid_dnn_8-0-10_bird_10_n02009912_27132.png,n02009912_27132.png,0.0,-1.4338739,0.1105688,-1.0920858
alexnet_w1_mlp_simclrhn_probe1,1,335,NaN,oven,knife,64-0-10,0335_eid_dnn_64-0-10_knife_10_n03041632_3171.png,n03041632_3171.png,0.0,-2.2394085,-0.57094765,-1.17978
alexnet_w1_mlp_simclrhn_probe1,1,336,NaN,oven,bear,32-0-10,0336_eid_dnn_32-0-10_bear_10_n02134084_21170.png,n02134084_21170.png,0.0,-0.9345342,0.3214615,-0.88812315
alexnet_w1_mlp_simclrhn_probe1,1,337,NaN,dog,dog,4-0-10,0337_eid_dnn_4-0-10_dog_10_n02086079_29044.png,n02086079_29044.png,1.0,-0.036139622,-0.56722355,0.37553307
alexnet_w1_mlp_simclrhn_probe1,1,338,NaN,cat,cat,4-0-10,0338_eid_dnn_4-0-10_cat_10_n02124075_8465.png,n02124075_8465.png,1.0,1.4612632,0.32288915,0.804952
alexnet_w1_mlp_simclrhn_probe1,1,339,NaN,oven,bird,128-0-10,0339_eid_dnn_128-0-10_bird_10_n01855032_982.png,n01855032_982.png,0.0,-2.440358,-1.286936,-0.81559247
alexnet_w1_mlp_simclrhn_probe1,1,340,NaN,bear,truck,32-0-10,0340_eid_dnn_32-0-10_truck_10_n03417042_6373.png,n03417042_6373.png,0.0,-6.373969,-0.36404222,-4.24966
alexnet_w1_mlp_simclrhn_probe1,1,341,NaN,cat,airplane,16-0-10,0341_eid_dnn_16-0-10_airplane_10_n02690373_9959.png,n02690373_9959.png,0.0,-7.3627524,0.7088311,-5.707472
alexnet_w1_mlp_simclrhn_probe1,1,342,NaN,oven,clock,32-0-10,0342_eid_dnn_32-0-10_clock_10_n04548280_2260.png,n04548280_2260.png,0.0,-6.013477,-0.08037858,-4.195334
alexnet_w1_mlp_simclrhn_probe1,1,343,NaN,cat,bottle,16-0-10,0343_eid_dnn_16-0-10_bottle_10_n03983396_5281.png,n03983396_5281.png,0.0,-1.749293,-0.69509554,-0.7454302
alexnet_w1_mlp_simclrhn_probe1,1,344,NaN,cat,cat,4-0-10,0344_eid_dnn_4-0-10_cat_10_n02123159_1113.png,n02123159_1113.png,1.0,3.4933465,0.61359847,2.0362892
alexnet_w1_mlp_simclrhn_probe1,1,345,NaN,cat,keyboard,64-0-10,0345_eid_dnn_64-0-10_keyboard_10_n03085013_20460.png,n03085013_20460.png,0.0,-4.346492,-0.46691218,-2.743277
alexnet_w1_mlp_simclrhn_probe1,1,346,NaN,oven,clock,8-0-10,0346_eid_dnn_8-0-10_clock_10_n03196217_884.png,n03196217_884.png,0.0,-8.176467,0.40505838,-6.068055
alexnet_w1_mlp_simclrhn_probe1,1,347,NaN,cat,clock,8-0-10,0347_eid_dnn_8-0-10_clock_10_n03196217_6257.png,n03196217_6257.png,0.0,-8.435945,-0.018724596,-5.9518733
alexnet_w1_mlp_simclrhn_probe1,1,348,NaN,oven,dog,32-0-10,0348_eid_dnn_32-0-10_dog_10_n02113624_2109.png,n02113624_2109.png,0.0,-1.31535,1.0439554,-1.6682808
alexnet_w1_mlp_simclrhn_probe1,1,349,NaN,keyboard,keyboard,1-0-10,0349_eid_dnn_1-0-10_keyboard_10_n03085013_20416.png,n03085013_20416.png,1.0,3.5566397,0.07985501,2.4584582
alexnet_w1_mlp_simclrhn_probe1,1,350,NaN,bird,bird,2-0-10,0350_eid_dnn_2-0-10_bird_10_n01820546_4609.png,n01820546_4609.png,1.0,-0.35998246,-1.1616875,0.5668911
alexnet_w1_mlp_simclrhn_probe1,1,351,NaN,oven,cat,64-0-10,0351_eid_dnn_64-0-10_cat_10_n02125311_47792.png,n02125311_47792.png,0.0,-2.441023,0.21868941,-1.8807008
alexnet_w1_mlp_simclrhn_probe1,1,352,NaN,bear,boat,16-0-10,0352_eid_dnn_16-0-10_boat_10_n04612504_1491.png,n04612504_1491.png,0.0,-2.5057697,-0.69668704,-1.2792147
alexnet_w1_mlp_simclrhn_probe1,1,353,NaN,bear,truck,16-0-10,0353_eid_dnn_16-0-10_truck_10_n03417042_910.png,n03417042_910.png,0.0,-6.4751463,1.5578891,-5.680214
alexnet_w1_mlp_simclrhn_probe1,1,354,NaN,oven,airplane,64-0-10,0354_eid_dnn_64-0-10_airplane_10_n02690373_2038.png,n02690373_2038.png,0.0,-6.101733,-0.32075217,-4.087771
alexnet_w1_mlp_simclrhn_probe1,1,355,NaN,cat,cat,2-0-10,0355_eid_dnn_2-0-10_cat_10_n02123394_8164.png,n02123394_8164.png,1.0,1.5099435,0.6740886,0.59103864
alexnet_w1_mlp_simclrhn_probe1,1,356,NaN,oven,oven,2-0-10,0356_eid_dnn_2-0-10_oven_10_n04111531_22097.png,n04111531_22097.png,1.0,5.78065,-0.07937235,4.143662
alexnet_w1_mlp_simclrhn_probe1,1,357,NaN,oven,bear,128-0-10,0357_eid_dnn_128-0-10_bear_10_n02134418_278.png,n02134418_278.png,0.0,-3.4140806,-0.97225946,-1.7266283
alexnet_w1_mlp_simclrhn_probe1,1,358,NaN,bird,bird,4-0-10,0358_eid_dnn_4-0-10_bird_10_n01592084_9109.png,n01592084_9109.png,1.0,0.3233626,-2.3566206,1.8950343
alexnet_w1_mlp_simclrhn_probe1,1,359,NaN,bear,clock,32-0-10,0359_eid_dnn_32-0-10_clock_10_n03196217_3695.png,n03196217_3695.png,0.0,-4.854714,-0.70508105,-2.9342337
alexnet_w1_mlp_simclrhn_probe1,1,360,NaN,oven,elephant,128-0-10,0360_eid_dnn_128-0-10_elephant_10_n02504458_8939.png,n02504458_8939.png,0.0,-3.1947212,-0.07846549,-2.2035255
alexnet_w1_mlp_simclrhn_probe1,1,361,NaN,airplane,elephant,2-0-10,0361_eid_dnn_2-0-10_elephant_10_n02504013_7926.png,n02504013_7926.png,0.0,-1.211504,0.111478955,-0.9354902
alexnet_w1_mlp_simclrhn_probe1,1,362,NaN,elephant,bear,4-0-10,0362_eid_dnn_4-0-10_bear_10_n02133161_11816.png,n02133161_11816.png,0.0,0.15172836,0.9761028,-0.5829208
alexnet_w1_mlp_simclrhn_probe1,1,363,NaN,knife,bird,2-0-10,0363_eid_dnn_2-0-10_bird_10_n02056570_18300.png,n02056570_18300.png,0.0,-1.8322809,-1.2504768,-0.41139758
alexnet_w1_mlp_simclrhn_probe1,1,364,NaN,boat,chair,2-0-10,0364_eid_dnn_2-0-10_chair_10_n02791124_7063.png,n02791124_7063.png,0.0,-3.5781515,-0.9352155,-1.868838
alexnet_w1_mlp_simclrhn_probe1,1,365,NaN,cat,chair,8-0-10,0365_eid_dnn_8-0-10_chair_10_n03376595_8289.png,n03376595_8289.png,0.0,-3.71858,-0.9121957,-1.9844134
alexnet_w1_mlp_simclrhn_probe1,1,366,NaN,airplane,airplane,4-0-10,0366_eid_dnn_4-0-10_airplane_10_n02690373_4434.png,n02690373_4434.png,1.0,1.6604751,0.45276994,0.8539766
alexnet_w1_mlp_simclrhn_probe1,1,367,NaN,truck,truck,1-0-10,0367_eid_dnn_1-0-10_truck_10_n03417042_8953.png,n03417042_8953.png,1.0,9.317143,5.960134,2.3737643
alexnet_w1_mlp_simclrhn_probe1,1,368,NaN,bear,bear,64-0-10,0368_eid_dnn_64-0-10_bear_10_n02132136_699.png,n02132136_699.png,1.0,-0.7982986,-1.6879535,0.629081
alexnet_w1_mlp_simclrhn_probe1,1,369,NaN,cat,knife,8-0-10,0369_eid_dnn_8-0-10_knife_10_n03041632_20517.png,n03041632_20517.png,0.0,-2.5229468,-1.5271106,-0.7041626
alexnet_w1_mlp_simclrhn_probe1,1,370,NaN,oven,bottle,32-0-10,0370_eid_dnn_32-0-10_bottle_10_n03983396_1910.png,n03983396_1910.png,0.0,-2.8286397,-0.97489977,-1.3107921
alexnet_w1_mlp_simclrhn_probe1,1,371,NaN,oven,oven,8-0-10,0371_eid_dnn_8-0-10_oven_10_n04111531_16198.png,n04111531_16198.png,1.0,0.9203067,0.5139402,0.2873445
alexnet_w1_mlp_simclrhn_probe1,1,372,NaN,oven,elephant,64-0-10,0372_eid_dnn_64-0-10_elephant_10_n02504013_13427.png,n02504013_13427.png,0.0,-4.8650007,0.51562154,-3.8046746
alexnet_w1_mlp_simclrhn_probe1,1,373,NaN,oven,airplane,16-0-10,0373_eid_dnn_16-0-10_airplane_10_n02690373_1075.png,n02690373_1075.png,0.0,-2.227506,-1.0059614,-0.86376244
alexnet_w1_mlp_simclrhn_probe1,1,374,NaN,cat,car,64-0-10,0374_eid_dnn_64-0-10_car_10_n03100240_5527.png,n03100240_5527.png,0.0,-8.512607,-0.7412386,-5.4951873
alexnet_w1_mlp_simclrhn_probe1,1,375,NaN,bear,bear,1-0-10,0375_eid_dnn_1-0-10_bear_10_n02132136_4632.png,n02132136_4632.png,1.0,3.4691732,-0.43362036,2.759692
alexnet_w1_mlp_simclrhn_probe1,1,376,NaN,boat,boat,1-0-10,0376_eid_dnn_1-0-10_boat_10_n04273569_6158.png,n04273569_6158.png,1.0,1.6856136,-2.1817489,2.7346382
alexnet_w1_mlp_simclrhn_probe1,1,377,NaN,oven,knife,32-0-10,0377_eid_dnn_32-0-10_knife_10_n03041632_18141.png,n03041632_18141.png,0.0,-3.0571423,1.2288953,-3.0306861
alexnet_w1_mlp_simclrhn_probe1,1,378,NaN,bear,bear,16-0-10,0378_eid_dnn_16-0-10_bear_10_n02132136_6378.png,n02132136_6378.png,1.0,0.12103972,-0.47740462,0.42316407
alexnet_w1_mlp_simclrhn_probe1,1,379,NaN,elephant,elephant,2-0-10,0379_eid_dnn_2-0-10_elephant_10_n02504458_5095.png,n02504458_5095.png,1.0,5.0468283,-0.408628,3.8575902
alexnet_w1_mlp_simclrhn_probe1,1,380,NaN,bear,elephant,4-0-10,0380_eid_dnn_4-0-10_elephant_10_n02504013_10582.png,n02504013_10582.png,0.0,4.402922,4.6016045,-0.14048961
alexnet_w1_mlp_simclrhn_probe1,1,381,NaN,oven,chair,16-0-10,0381_eid_dnn_16-0-10_chair_10_n04099969_28139.png,n04099969_28139.png,0.0,-7.5186596,0.20407128,-5.4607954
alexnet_w1_mlp_simclrhn_probe1,1,382,NaN,keyboard,keyboard,2-0-10,0382_eid_dnn_2-0-10_keyboard_10_n04505470_279.png,n04505470_279.png,1.0,9.74453,4.408653,3.7730348
alexnet_w1_mlp_simclrhn_probe1,1,383,NaN,cat,car,8-0-10,0383_eid_dnn_8-0-10_car_10_n02814533_79696.png,n02814533_79696.png,0.0,-7.933495,0.26591927,-5.7978616
alexnet_w1_mlp_simclrhn_probe1,1,384,NaN,oven,cat,64-0-10,0384_eid_dnn_64-0-10_cat_10_n02124075_7984.png,n02124075_7984.png,0.0,-1.7286576,0.21017593,-1.3709623
alexnet_w1_mlp_simclrhn_probe1,1,385,NaN,elephant,car,4-0-10,0385_eid_dnn_4-0-10_car_10_n02814533_27327.png,n02814533_27327.png,0.0,-2.680133,0.039209723,-1.9228657
alexnet_w1_mlp_simclrhn_probe1,1,386,NaN,bear,bear,4-0-10,0386_eid_dnn_4-0-10_bear_10_n02134084_967.png,n02134084_967.png,1.0,0.7717546,0.7061116,0.04641662
alexnet_w1_mlp_simclrhn_probe1,1,387,NaN,oven,bear,64-0-10,0387_eid_dnn_64-0-10_bear_10_n02132136_949.png,n02132136_949.png,0.0,-1.0614673,0.1986028,-0.89100415
alexnet_w1_mlp_simclrhn_probe1,1,388,NaN,bear,bicycle,16-0-10,0388_eid_dnn_16-0-10_bicycle_10_n03792782_2905.png,n03792782_2905.png,0.0,-4.6508036,0.6232866,-3.729345
alexnet_w1_mlp_simclrhn_probe1,1,389,NaN,cat,bicycle,8-0-10,0389_eid_dnn_8-0-10_bicycle_10_n03792782_34550.png,n03792782_34550.png,0.0,-3.5936575,0.32742262,-2.7726223
alexnet_w1_mlp_simclrhn_probe1,1,390,NaN,bear,bear,16-0-10,0390_eid_dnn_16-0-10_bear_10_n02132136_9055.png,n02132136_9055.png,1.0,2.0195618,0.6951892,0.93647283
alexnet_w1_mlp_simclrhn_probe1,1,391,NaN,oven,bear,64-0-10,0391_eid_dnn_64-0-10_bear_10_n02134084_7904.png,n02134084_7904.png,0.0,-1.6936762,-1.1525713,-0.38261896
alexnet_w1_mlp_simclrhn_probe1,1,392,NaN,bottle,clock,4-0-10,0392_eid_dnn_4-0-10_clock_10_n04548280_4526.png,n04548280_4526.png,0.0,-0.64044183,0.9809723,-1.146513
alexnet_w1_mlp_simclrhn_probe1,1,393,NaN,keyboard,bottle,1-0-10,0393_eid_dnn_1-0-10_bottle_10_n02823428_685.png,n02823428_685.png,0.0,-0.61137146,-0.37685806,-0.16582602
alexnet_w1_mlp_simclrhn_probe1,1,394,NaN,oven,keyboard,64-0-10,0394_eid_dnn_64-0-10_keyboard_10_n04505470_3935.png,n04505470_3935.png,0.0,-6.8112154,-0.5308865,-4.440863
alexnet_w1_mlp_simclrhn_probe1,1,395,NaN,bear,dog,64-0-10,0395_eid_dnn_64-0-10_dog_10_n02096051_3825.png,n02096051_3825.png,0.0,-1.3774291,-1.2552962,-0.086361
alexnet_w1_mlp_simclrhn_probe1,1,396,NaN,dog,dog,2-0-10,0396_eid_dnn_2-0-10_dog_10_n02089078_10601.png,n02089078_10601.png,1.0,2.3087854,0.61186033,1.1999073
alexnet_w1_mlp_simclrhn_probe1,1,397,NaN,clock,clock,2-0-10,0397_eid_dnn_2-0-10_clock_10_n02708093_5236.png,n02708093_5236.png,1.0,7.505562,0.0026604321,5.3053527
alexnet_w1_mlp_simclrhn_probe1,1,398,NaN,cat,cat,2-0-10,0398_eid_dnn_2-0-10_cat_10_n02123159_2682.png,n02123159_2682.png,1.0,2.064288,-0.71151215,1.962787
alexnet_w1_mlp_simclrhn_probe1,1,399,NaN,truck,oven,1-0-10,0399_eid_dnn_1-0-10_oven_10_n04111531_10216.png,n04111531_10216.png,0.0,-0.18116096,1.2417552,-1.0061537
alexnet_w1_mlp_simclrhn_probe1,1,400,NaN,car,boat,2-0-10,0400_eid_dnn_2-0-10_boat_10_n02951358_7137.png,n02951358_7137.png,0.0,-0.6680096,-0.47884262,-0.13376124
alexnet_w1_mlp_simclrhn_probe1,1,401,NaN,oven,bird,64-0-10,0401_eid_dnn_64-0-10_bird_10_n02007558_6127.png,n02007558_6127.png,0.0,-4.9953194,-0.020061672,-3.5180387
alexnet_w1_mlp_simclrhn_probe1,1,402,NaN,bear,dog,16-0-10,0402_eid_dnn_16-0-10_dog_10_n02096051_4804.png,n02096051_4804.png,0.0,-0.73814464,0.53267837,-0.89860755
alexnet_w1_mlp_simclrhn_probe1,1,403,NaN,cat,bottle,8-0-10,0403_eid_dnn_8-0-10_bottle_10_n03983396_13764.png,n03983396_13764.png,0.0,-2.752489,0.77219087,-2.492325
alexnet_w1_mlp_simclrhn_probe1,1,404,NaN,oven,knife,32-0-10,0404_eid_dnn_32-0-10_knife_10_n03041632_105081.png,n03041632_105081.png,0.0,-3.250255,1.2362492,-3.172438
alexnet_w1_mlp_simclrhn_probe1,1,405,NaN,cat,boat,8-0-10,0405_eid_dnn_8-0-10_boat_10_n03344393_3535.png,n03344393_3535.png,0.0,-2.677186,-0.47661972,-1.5560354
alexnet_w1_mlp_simclrhn_probe1,1,406,NaN,knife,keyboard,64-0-10,0406_eid_dnn_64-0-10_keyboard_10_n03085013_22929.png,n03085013_22929.png,0.0,-2.9665005,-1.0177058,-1.378006
alexnet_w1_mlp_simclrhn_probe1,1,407,NaN,bottle,bottle,1-0-10,0407_eid_dnn_1-0-10_bottle_10_n04579145_5979.png,n04579145_5979.png,1.0,2.0576289,-2.4198654,3.1660666
alexnet_w1_mlp_simclrhn_probe1,1,408,NaN,knife,knife,2-0-10,0408_eid_dnn_2-0-10_knife_10_n03041632_31301.png,n03041632_31301.png,1.0,1.3394063,-2.4917846,2.7090611
alexnet_w1_mlp_simclrhn_probe1,1,409,NaN,cat,car,128-0-10,0409_eid_dnn_128-0-10_car_10_n04285008_14653.png,n04285008_14653.png,0.0,-11.45692,-1.7841538,-6.8396783
alexnet_w1_mlp_simclrhn_probe1,1,410,NaN,oven,clock,16-0-10,0410_eid_dnn_16-0-10_clock_10_n03196217_1601.png,n03196217_1601.png,0.0,-6.6587124,0.8697796,-5.3234477
alexnet_w1_mlp_simclrhn_probe1,1,411,NaN,elephant,bicycle,8-0-10,0411_eid_dnn_8-0-10_bicycle_10_n02835271_25268.png,n02835271_25268.png,0.0,-4.8982115,-1.291657,-2.5502193
alexnet_w1_mlp_simclrhn_probe1,1,412,NaN,bear,bird,16-0-10,0412_eid_dnn_16-0-10_bird_10_n02037110_875.png,n02037110_875.png,0.0,-1.7965846,0.10905963,-1.3474939
alexnet_w1_mlp_simclrhn_probe1,1,413,NaN,oven,airplane,128-0-10,0413_eid_dnn_128-0-10_airplane_10_n02690373_6807.png,n02690373_6807.png,0.0,-7.942451,-1.0224612,-4.893172
alexnet_w1_mlp_simclrhn_probe1,1,414,NaN,cat,clock,16-0-10,0414_eid_dnn_16-0-10_clock_10_n04548280_10066.png,n04548280_10066.png,0.0,-3.184639,-0.7313566,-1.7347326
alexnet_w1_mlp_simclrhn_probe1,1,415,NaN,oven,boat,64-0-10,0415_eid_dnn_64-0-10_boat_10_n02951358_15252.png,n02951358_15252.png,0.0,-6.7433357,-0.1301291,-4.6762433
alexnet_w1_mlp_simclrhn_probe1,1,416,NaN,cat,car,64-0-10,0416_eid_dnn_64-0-10_car_10_n02814533_4803.png,n02814533_4803.png,0.0,-11.860527,-1.0112997,-7.671562
alexnet_w1_mlp_simclrhn_probe1,1,417,NaN,oven,car,16-0-10,0417_eid_dnn_16-0-10_car_10_n03100240_24544.png,n03100240_24544.png,0.0,-9.597755,-0.02031833,-6.772271
alexnet_w1_mlp_simclrhn_probe1,1,418,NaN,knife,bear,128-0-10,0418_eid_dnn_128-0-10_bear_10_n02132136_4219.png,n02132136_4219.png,0.0,-2.6643398,-1.9943343,-0.4737654
alexnet_w1_mlp_simclrhn_probe1,1,419,NaN,bear,bicycle,32-0-10,0419_eid_dnn_32-0-10_bicycle_10_n02835271_507.png,n02835271_507.png,0.0,-3.6253662,-0.17145218,-2.442286
alexnet_w1_mlp_simclrhn_probe1,1,420,NaN,boat,boat,1-0-10,0420_eid_dnn_1-0-10_boat_10_n04273569_13290.png,n04273569_13290.png,1.0,1.6627977,-0.5512387,1.5655602
alexnet_w1_mlp_simclrhn_probe1,1,421,NaN,bear,bicycle,2-0-10,0421_eid_dnn_2-0-10_bicycle_10_n03792782_42626.png,n03792782_42626.png,0.0,-1.7461913,-1.0132728,-0.51825166
alexnet_w1_mlp_simclrhn_probe1,1,422,NaN,cat,dog,8-0-10,0422_eid_dnn_8-0-10_dog_10_n02106382_3856.png,n02106382_3856.png,0.0,0.49422175,1.2840348,-0.5584822
alexnet_w1_mlp_simclrhn_probe1,1,423,NaN,oven,clock,1-0-10,0423_eid_dnn_1-0-10_clock_10_n02708093_274.png,n02708093_274.png,0.0,-1.5340457,-0.9747899,-0.39545357
alexnet_w1_mlp_simclrhn_probe1,1,424,NaN,oven,bottle,32-0-10,0424_eid_dnn_32-0-10_bottle_10_n04591713_5921.png,n04591713_5921.png,0.0,-6.023575,-0.19672957,-4.1202016
alexnet_w1_mlp_simclrhn_probe1,1,425,NaN,elephant,elephant,1-0-10,0425_eid_dnn_1-0-10_elephant_10_n02504458_3851.png,n02504458_3851.png,1.0,4.007576,-0.5041277,3.190256
alexnet_w1_mlp_simclrhn_probe1,1,426,NaN,bear,dog,32-0-10,0426_eid_dnn_32-0-10_dog_10_n02105855_995.png,n02105855_995.png,0.0,-1.492195,-0.24029052,-0.8852302
alexnet_w1_mlp_simclrhn_probe1,1,427,NaN,airplane,airplane,2-0-10,0427_eid_dnn_2-0-10_airplane_10_n02690373_1979.png,n02690373_1979.png,1.0,-0.46324953,-2.1139584,1.1672274
alexnet_w1_mlp_simclrhn_probe1,1,428,NaN,airplane,airplane,1-0-10,0428_eid_dnn_1-0-10_airplane_10_n02690373_6455.png,n02690373_6455.png,1.0,7.802241,2.0436995,4.0719037
alexnet_w1_mlp_simclrhn_probe1,1,429,NaN,oven,oven,1-0-10,0429_eid_dnn_1-0-10_oven_10_n04111531_18979.png,n04111531_18979.png,1.0,4.5628614,-1.9944353,4.636709
alexnet_w1_mlp_simclrhn_probe1,1,430,NaN,oven,oven,32-0-10,0430_eid_dnn_32-0-10_oven_10_n04111531_16795.png,n04111531_16795.png,1.0,-1.4332085,-1.4518381,0.013173167
alexnet_w1_mlp_simclrhn_probe1,1,431,NaN,oven,truck,4-0-10,0431_eid_dnn_4-0-10_truck_10_n04467665_41076.png,n04467665_41076.png,0.0,-2.8064713,-0.049974352,-1.9491377
alexnet_w1_mlp_simclrhn_probe1,1,432,NaN,cat,bird,16-0-10,0432_eid_dnn_16-0-10_bird_10_n01534433_31697.png,n01534433_31697.png,0.0,-2.0061548,-0.44939408,-1.1007961
alexnet_w1_mlp_simclrhn_probe1,1,433,NaN,oven,keyboard,128-0-10,0433_eid_dnn_128-0-10_keyboard_10_n04505470_4289.png,n04505470_4289.png,0.0,-4.7136717,-1.3426195,-2.383694
alexnet_w1_mlp_simclrhn_probe1,1,434,NaN,keyboard,keyboard,4-0-10,0434_eid_dnn_4-0-10_keyboard_10_n03085013_20727.png,n03085013_20727.png,1.0,0.93991333,-2.2927155,2.2858138
alexnet_w1_mlp_simclrhn_probe1,1,435,NaN,bear,boat,8-0-10,0435_eid_dnn_8-0-10_boat_10_n04273569_7315.png,n04273569_7315.png,0.0,-2.1249363,-0.40518904,-1.216045
alexnet_w1_mlp_simclrhn_probe1,1,436,NaN,car,car,1-0-10,0436_eid_dnn_1-0-10_car_10_n03100240_16646.png,n03100240_16646.png,1.0,0.8294893,-0.9987704,1.2927749
alexnet_w1_mlp_simclrhn_probe1,1,437,NaN,bear,car,16-0-10,0437_eid_dnn_16-0-10_car_10_n03100240_5281.png,n03100240_5281.png,0.0,-10.66925,1.3969883,-8.532119
alexnet_w1_mlp_simclrhn_probe1,1,438,NaN,bicycle,airplane,128-0-10,0438_eid_dnn_128-0-10_airplane_10_n02690373_1670.png,n02690373_1670.png,0.0,-5.9813232,-1.2256019,-3.3628027
alexnet_w1_mlp_simclrhn_probe1,1,439,NaN,oven,airplane,128-0-10,0439_eid_dnn_128-0-10_airplane_10_n02690373_9293.png,n02690373_9293.png,0.0,-10.51753,-0.9218471,-6.785173
alexnet_w1_mlp_simclrhn_probe1,1,440,NaN,cat,truck,128-0-10,0440_eid_dnn_128-0-10_truck_10_n03796401_15846.png,n03796401_15846.png,0.0,-9.836223,-1.6943526,-5.757172
alexnet_w1_mlp_simclrhn_probe1,1,441,NaN,oven,truck,32-0-10,0441_eid_dnn_32-0-10_truck_10_n03796401_6971.png,n03796401_6971.png,0.0,-7.1801505,-0.22239597,-4.9198756
alexnet_w1_mlp_simclrhn_probe1,1,442,NaN,oven,oven,128-0-10,0442_eid_dnn_128-0-10_oven_10_n04111531_10724.png,n04111531_10724.png,1.0,-1.0216886,-1.5117651,0.34653646
alexnet_w1_mlp_simclrhn_probe1,1,443,NaN,cat,keyboard,8-0-10,0443_eid_dnn_8-0-10_keyboard_10_n03085013_22187.png,n03085013_22187.png,0.0,-6.6059313,1.0328189,-5.401412
alexnet_w1_mlp_simclrhn_probe1,1,444,NaN,bear,oven,8-0-10,0444_eid_dnn_8-0-10_oven_10_n04111531_4671.png,n04111531_4671.png,0.0,-2.309781,0.6951567,-2.124812
alexnet_w1_mlp_simclrhn_probe1,1,445,NaN,airplane,airplane,4-0-10,0445_eid_dnn_4-0-10_airplane_10_n02690373_5142.png,n02690373_5142.png,1.0,1.5979989,-1.7487389,2.366501
alexnet_w1_mlp_simclrhn_probe1,1,446,NaN,elephant,elephant,4-0-10,0446_eid_dnn_4-0-10_elephant_10_n02504013_8562.png,n02504013_8562.png,1.0,4.6768103,0.43525133,2.9992352
alexnet_w1_mlp_simclrhn_probe1,1,447,NaN,truck,truck,1-0-10,0447_eid_dnn_1-0-10_truck_10_n03417042_9668.png,n03417042_9668.png,1.0,1.8158586,0.31237105,1.0631263
alexnet_w1_mlp_simclrhn_probe1,1,448,NaN,cat,bottle,8-0-10,0448_eid_dnn_8-0-10_bottle_10_n03983396_10330.png,n03983396_10330.png,0.0,-2.6510508,-0.75903624,-1.3378563
alexnet_w1_mlp_simclrhn_probe1,1,449,NaN,cat,elephant,128-0-10,0449_eid_dnn_128-0-10_elephant_10_n02504458_4395.png,n02504458_4395.png,0.0,-4.5625677,-0.51656574,-2.8609555
alexnet_w1_mlp_simclrhn_probe1,1,450,NaN,bear,boat,64-0-10,0450_eid_dnn_64-0-10_boat_10_n03344393_4562.png,n03344393_4562.png,0.0,-7.0978723,-0.10412008,-4.9453297
alexnet_w1_mlp_simclrhn_probe1,1,451,NaN,oven,oven,2-0-10,0451_eid_dnn_2-0-10_oven_10_n04111531_10011.png,n04111531_10011.png,1.0,1.5051177,-2.1223283,2.5649917
alexnet_w1_mlp_simclrhn_probe1,1,452,NaN,oven,oven,64-0-10,0452_eid_dnn_64-0-10_oven_10_n04111531_13797.png,n04111531_13797.png,1.0,-0.77173936,-1.0556357,0.20074502
alexnet_w1_mlp_simclrhn_probe1,1,453,NaN,airplane,boat,2-0-10,0453_eid_dnn_2-0-10_boat_10_n03662601_840.png,n03662601_840.png,0.0,0.86433744,1.1427808,-0.19688918
alexnet_w1_mlp_simclrhn_probe1,1,454,NaN,bear,truck,16-0-10,0454_eid_dnn_16-0-10_truck_10_n03417042_17037.png,n03417042_17037.png,0.0,-7.9975424,1.4094963,-6.651781
alexnet_w1_mlp_simclrhn_probe1,1,455,NaN,oven,cat,64-0-10,0455_eid_dnn_64-0-10_cat_10_n02125311_2576.png,n02125311_2576.png,0.0,-0.8074134,-0.04888106,-0.53636336
alexnet_w1_mlp_simclrhn_probe1,1,456,NaN,bear,keyboard,32-0-10,0456_eid_dnn_32-0-10_keyboard_10_n03085013_3264.png,n03085013_3264.png,0.0,-2.7468033,-1.2939095,-1.027351
alexnet_w1_mlp_simclrhn_probe1,1,457,NaN,oven,dog,64-0-10,0457_eid_dnn_64-0-10_dog_10_n02097130_3519.png,n02097130_3519.png,0.0,-2.718482,-0.77582836,-1.3736635
alexnet_w1_mlp_simclrhn_probe1,1,458,NaN,cat,airplane,16-0-10,0458_eid_dnn_16-0-10_airplane_10_n02690373_4486.png,n02690373_4486.png,0.0,-4.753549,-0.6744352,-2.8843691
alexnet_w1_mlp_simclrhn_probe1,1,459,NaN,oven,bottle,16-0-10,0459_eid_dnn_16-0-10_bottle_10_n03983396_19635.png,n03983396_19635.png,0.0,-4.765195,1.924854,-4.7305794
alexnet_w1_mlp_simclrhn_probe1,1,460,NaN,bear,airplane,16-0-10,0460_eid_dnn_16-0-10_airplane_10_n02690373_1426.png,n02690373_1426.png,0.0,-5.0476656,-0.22091785,-3.4130263
alexnet_w1_mlp_simclrhn_probe1,1,461,NaN,oven,oven,4-0-10,0461_eid_dnn_4-0-10_oven_10_n04111531_5279.png,n04111531_5279.png,1.0,0.7312863,-0.943851,1.1845009
alexnet_w1_mlp_simclrhn_probe1,1,462,NaN,oven,bottle,64-0-10,0462_eid_dnn_64-0-10_bottle_10_n03983396_4024.png,n03983396_4024.png,0.0,-3.4138923,-1.1679777,-1.5881014
alexnet_w1_mlp_simclrhn_probe1,1,463,NaN,bear,bear,8-0-10,0463_eid_dnn_8-0-10_bear_10_n02133161_12751.png,n02133161_12751.png,1.0,1.0781851,0.13570905,0.6664312
alexnet_w1_mlp_simclrhn_probe1,1,464,NaN,bear,car,8-0-10,0464_eid_dnn_8-0-10_car_10_n02814533_12271.png,n02814533_12271.png,0.0,-8.413997,2.0546513,-7.402452
alexnet_w1_mlp_simclrhn_probe1,1,465,NaN,cat,bottle,16-0-10,0465_eid_dnn_16-0-10_bottle_10_n04560804_5068.png,n04560804_5068.png,0.0,-3.663982,-0.42712173,-2.288806
alexnet_w1_mlp_simclrhn_probe1,1,466,NaN,cat,bottle,128-0-10,0466_eid_dnn_128-0-10_bottle_10_n04579145_1168.png,n04579145_1168.png,0.0,-3.640601,-1.5635943,-1.4686655
alexnet_w1_mlp_simclrhn_probe1,1,467,NaN,oven,knife,64-0-10,0467_eid_dnn_64-0-10_knife_10_n03041632_2973.png,n03041632_2973.png,0.0,-2.812804,-0.6265698,-1.5459011
alexnet_w1_mlp_simclrhn_probe1,1,468,NaN,oven,airplane,16-0-10,0468_eid_dnn_16-0-10_airplane_10_n02690373_19329.png,n02690373_19329.png,0.0,-2.85823,-0.9903399,-1.3207979
alexnet_w1_mlp_simclrhn_probe1,1,469,NaN,oven,bottle,32-0-10,0469_eid_dnn_32-0-10_bottle_10_n04560804_1356.png,n04560804_1356.png,0.0,-3.0439713,0.37234443,-2.4157002
alexnet_w1_mlp_simclrhn_probe1,1,470,NaN,bear,bear,8-0-10,0470_eid_dnn_8-0-10_bear_10_n02134084_3960.png,n02134084_3960.png,1.0,3.2537847,1.2360185,1.426776
alexnet_w1_mlp_simclrhn_probe1,1,471,NaN,elephant,boat,4-0-10,0471_eid_dnn_4-0-10_boat_10_n04612504_27504.png,n04612504_27504.png,0.0,-0.82784593,-0.47770813,-0.24758482
alexnet_w1_mlp_simclrhn_probe1,1,472,NaN,dog,dog,4-0-10,0472_eid_dnn_4-0-10_dog_10_n02099601_9973.png,n02099601_9973.png,1.0,1.425891,0.8113215,0.4345663
alexnet_w1_mlp_simclrhn_probe1,1,473,NaN,oven,truck,64-0-10,0473_eid_dnn_64-0-10_truck_10_n03417042_26843.png,n03417042_26843.png,0.0,-7.58128,0.5376982,-5.740985
alexnet_w1_mlp_simclrhn_probe1,1,474,NaN,oven,knife,64-0-10,0474_eid_dnn_64-0-10_knife_10_n03041632_55711.png,n03041632_55711.png,0.0,-2.2988267,-0.4687117,-1.2940867
alexnet_w1_mlp_simclrhn_probe1,1,475,NaN,bear,elephant,8-0-10,0475_eid_dnn_8-0-10_elephant_10_n02504013_1986.png,n02504013_1986.png,0.0,-0.44103226,2.36728,-1.9857767
alexnet_w1_mlp_simclrhn_probe1,1,476,NaN,knife,keyboard,4-0-10,0476_eid_dnn_4-0-10_keyboard_10_n03085013_9475.png,n03085013_9475.png,0.0,-1.4378961,-0.63469493,-0.567949
alexnet_w1_mlp_simclrhn_probe1,1,477,NaN,bear,elephant,32-0-10,0477_eid_dnn_32-0-10_elephant_10_n02504458_3381.png,n02504458_3381.png,0.0,-1.5152264,-0.58946705,-0.6546107
alexnet_w1_mlp_simclrhn_probe1,1,478,NaN,cat,airplane,8-0-10,0478_eid_dnn_8-0-10_airplane_10_n02690373_1161.png,n02690373_1161.png,0.0,-1.6194565,-1.4735044,-0.10320373
alexnet_w1_mlp_simclrhn_probe1,1,479,NaN,oven,cat,64-0-10,0479_eid_dnn_64-0-10_cat_10_n02124075_7474.png,n02124075_7474.png,0.0,-2.525525,-0.39983308,-1.5030912
alexnet_w1_mlp_simclrhn_probe1,1,480,NaN,bear,cat,4-0-10,0480_eid_dnn_4-0-10_cat_10_n02125311_9074.png,n02125311_9074.png,0.0,-0.567503,-0.36789644,-0.14114314
alexnet_w1_mlp_simclrhn_probe1,1,481,NaN,oven,airplane,128-0-10,0481_eid_dnn_128-0-10_airplane_10_n02690373_2867.png,n02690373_2867.png,0.0,-7.9374967,-0.67212087,-5.1373963
alexnet_w1_mlp_simclrhn_probe1,1,482,NaN,elephant,elephant,2-0-10,0482_eid_dnn_2-0-10_elephant_10_n02504013_1692.png,n02504013_1692.png,1.0,1.392844,-0.31629863,1.2085463
alexnet_w1_mlp_simclrhn_probe1,1,483,NaN,bear,bird,8-0-10,0483_eid_dnn_8-0-10_bird_10_n02009912_11813.png,n02009912_11813.png,0.0,-2.678662,0.8477291,-2.493535
alexnet_w1_mlp_simclrhn_probe1,1,484,NaN,bird,bottle,16-0-10,0484_eid_dnn_16-0-10_bottle_10_n04557648_10302.png,n04557648_10302.png,0.0,-3.8909698,-0.7504573,-2.2206776
alexnet_w1_mlp_simclrhn_probe1,1,485,NaN,oven,keyboard,4-0-10,0485_eid_dnn_4-0-10_keyboard_10_n03085013_20302.png,n03085013_20302.png,0.0,-1.4109588,1.145351,-1.8075839
alexnet_w1_mlp_simclrhn_probe1,1,486,NaN,oven,elephant,128-0-10,0486_eid_dnn_128-0-10_elephant_10_n02504458_5827.png,n02504458_5827.png,0.0,-5.978419,-1.6394069,-3.068145
alexnet_w1_mlp_simclrhn_probe1,1,487,NaN,keyboard,knife,1-0-10,0487_eid_dnn_1-0-10_knife_10_n03041632_11327.png,n03041632_11327.png,0.0,-1.0465059,1.1220475,-1.5333989
alexnet_w1_mlp_simclrhn_probe1,1,488,NaN,bird,bird,4-0-10,0488_eid_dnn_4-0-10_bird_10_n01795545_17770.png,n01795545_17770.png,1.0,-0.08720735,-2.5256891,1.724267
alexnet_w1_mlp_simclrhn_probe1,1,489,NaN,dog,bicycle,4-0-10,0489_eid_dnn_4-0-10_bicycle_10_n02835271_10932.png,n02835271_10932.png,0.0,-2.0237837,-0.58318114,-1.0186598
alexnet_w1_mlp_simclrhn_probe1,1,490,NaN,dog,cat,2-0-10,0490_eid_dnn_2-0-10_cat_10_n02123597_14233.png,n02123597_14233.png,0.0,-1.1898795,-0.94105923,-0.17594253
alexnet_w1_mlp_simclrhn_probe1,1,491,NaN,bird,bird,1-0-10,0491_eid_dnn_1-0-10_bird_10_n01614925_7662.png,n01614925_7662.png,1.0,-0.013610334,-1.1437649,0.7991399
alexnet_w1_mlp_simclrhn_probe1,1,492,NaN,bear,truck,16-0-10,0492_eid_dnn_16-0-10_truck_10_n03417042_5875.png,n03417042_5875.png,0.0,-6.1579866,0.8749405,-4.9730306
alexnet_w1_mlp_simclrhn_probe1,1,493,NaN,bear,bear,1-0-10,0493_eid_dnn_1-0-10_bear_10_n02134418_304.png,n02134418_304.png,1.0,1.6895276,-0.87645054,1.8144205
alexnet_w1_mlp_simclrhn_probe1,1,494,NaN,cat,bird,1-0-10,0494_eid_dnn_1-0-10_bird_10_n01622779_5148.png,n01622779_5148.png,0.0,-2.1459205,1.4563452,-2.5471866
alexnet_w1_mlp_simclrhn_probe1,1,495,NaN,elephant,knife,1-0-10,0495_eid_dnn_1-0-10_knife_10_n03041632_44230.png,n03041632_44230.png,0.0,-2.3455744,0.00412336,-1.6614873
alexnet_w1_mlp_simclrhn_probe1,1,496,NaN,oven,boat,32-0-10,0496_eid_dnn_32-0-10_boat_10_n03662601_8650.png,n03662601_8650.png,0.0,-3.2692673,-0.0029732585,-2.3096187
alexnet_w1_mlp_simclrhn_probe1,1,497,NaN,bear,oven,16-0-10,0497_eid_dnn_16-0-10_oven_10_n04111531_4346.png,n04111531_4346.png,0.0,-0.05501899,0.9826646,-0.73375314
alexnet_w1_mlp_simclrhn_probe1,1,498,NaN,clock,clock,2-0-10,0498_eid_dnn_2-0-10_clock_10_n03196217_2201.png,n03196217_2201.png,1.0,0.7606581,0.17835209,0.41175255
alexnet_w1_mlp_simclrhn_probe1,1,499,NaN,bear,bicycle,64-0-10,0499_eid_dnn_64-0-10_bicycle_10_n02835271_8757.png,n02835271_8757.png,0.0,-2.058123,-1.5768768,-0.34029257
alexnet_w1_mlp_simclrhn_probe1,1,500,NaN,cat,keyboard,8-0-10,0500_eid_dnn_8-0-10_keyboard_10_n03085013_23563.png,n03085013_23563.png,0.0,-3.8131855,0.40262392,-2.9810274
alexnet_w1_mlp_simclrhn_probe1,1,501,NaN,bear,boat,64-0-10,0501_eid_dnn_64-0-10_boat_10_n04273569_15879.png,n04273569_15879.png,0.0,-6.313858,-0.86523473,-3.8527584
alexnet_w1_mlp_simclrhn_probe1,1,502,NaN,oven,truck,64-0-10,0502_eid_dnn_64-0-10_truck_10_n04467665_30588.png,n04467665_30588.png,0.0,-5.357911,-1.1421498,-2.9809933
alexnet_w1_mlp_simclrhn_probe1,1,503,NaN,oven,truck,16-0-10,0503_eid_dnn_16-0-10_truck_10_n03417042_1875.png,n03417042_1875.png,0.0,-7.4923086,0.6288685,-5.7425394
alexnet_w1_mlp_simclrhn_probe1,1,504,NaN,oven,cat,128-0-10,0504_eid_dnn_128-0-10_cat_10_n02123394_6014.png,n02123394_6014.png,0.0,-2.3870473,-0.39173615,-1.4108981
alexnet_w1_mlp_simclrhn_probe1,1,505,NaN,boat,boat,1-0-10,0505_eid_dnn_1-0-10_boat_10_n04273569_10847.png,n04273569_10847.png,1.0,0.50863403,-0.94854456,1.0303808
alexnet_w1_mlp_simclrhn_probe1,1,506,NaN,oven,elephant,64-0-10,0506_eid_dnn_64-0-10_elephant_10_n02504013_5495.png,n02504013_5495.png,0.0,-2.462885,-0.6651345,-1.2712016
alexnet_w1_mlp_simclrhn_probe1,1,507,NaN,oven,bottle,128-0-10,0507_eid_dnn_128-0-10_bottle_10_n04560804_16276.png,n04560804_16276.png,0.0,-1.7366915,-0.6119073,-0.79534256
alexnet_w1_mlp_simclrhn_probe1,1,508,NaN,boat,car,1-0-10,0508_eid_dnn_1-0-10_car_10_n04285008_1243.png,n04285008_1243.png,0.0,-0.54010826,1.287883,-1.292585
alexnet_w1_mlp_simclrhn_probe1,1,509,NaN,elephant,keyboard,32-0-10,0509_eid_dnn_32-0-10_keyboard_10_n03085013_22027.png,n03085013_22027.png,0.0,-5.4307528,-1.0783486,-3.0776145
alexnet_w1_mlp_simclrhn_probe1,1,510,NaN,bear,cat,32-0-10,0510_eid_dnn_32-0-10_cat_10_n02123045_12766.png,n02123045_12766.png,0.0,-1.1918808,0.13588068,-0.9388692
alexnet_w1_mlp_simclrhn_probe1,1,511,NaN,oven,chair,64-0-10,0511_eid_dnn_64-0-10_chair_10_n04429376_29954.png,n04429376_29954.png,0.0,-5.66772,-0.8317943,-3.4195158
alexnet_w1_mlp_simclrhn_probe1,1,512,NaN,bear,elephant,32-0-10,0512_eid_dnn_32-0-10_elephant_10_n02504013_5678.png,n02504013_5678.png,0.0,-0.8803861,0.2202905,-0.77829593
alexnet_w1_mlp_simclrhn_probe1,1,513,NaN,knife,chair,4-0-10,0513_eid_dnn_4-0-10_chair_10_n03376595_6333.png,n03376595_6333.png,0.0,-2.927679,-2.3029425,-0.44175544
alexnet_w1_mlp_simclrhn_probe1,1,514,NaN,oven,keyboard,2-0-10,0514_eid_dnn_2-0-10_keyboard_10_n03085013_22605.png,n03085013_22605.png,0.0,0.15715246,0.9188751,-0.5386192
alexnet_w1_mlp_simclrhn_probe1,1,515,NaN,oven,car,32-0-10,0515_eid_dnn_32-0-10_car_10_n04285008_16557.png,n04285008_16557.png,0.0,-7.849594,2.0003326,-6.96495
alexnet_w1_mlp_simclrhn_probe1,1,516,NaN,oven,bottle,64-0-10,0516_eid_dnn_64-0-10_bottle_10_n02823428_1034.png,n02823428_1034.png,0.0,-4.9417105,0.02952972,-3.5151975
alexnet_w1_mlp_simclrhn_probe1,1,517,NaN,bear,elephant,16-0-10,0517_eid_dnn_16-0-10_elephant_10_n02504013_7777.png,n02504013_7777.png,0.0,-2.130089,1.1498151,-2.3192425
alexnet_w1_mlp_simclrhn_probe1,1,518,NaN,cat,knife,4-0-10,0518_eid_dnn_4-0-10_knife_10_n03041632_14293.png,n03041632_14293.png,0.0,-1.3560895,-1.2322497,-0.08756792
alexnet_w1_mlp_simclrhn_probe1,1,519,NaN,cat,knife,8-0-10,0519_eid_dnn_8-0-10_knife_10_n03041632_50423.png,n03041632_50423.png,0.0,-3.1161423,-1.6025194,-1.0702931
alexnet_w1_mlp_simclrhn_probe1,1,520,NaN,chair,chair,2-0-10,0520_eid_dnn_2-0-10_chair_10_n03376595_3043.png,n03376595_3043.png,1.0,0.044302404,-0.6452588,0.4875934
alexnet_w1_mlp_simclrhn_probe1,1,521,NaN,bear,cat,8-0-10,0521_eid_dnn_8-0-10_cat_10_n02123394_2434.png,n02123394_2434.png,0.0,0.24849586,0.6124562,-0.25735882
alexnet_w1_mlp_simclrhn_probe1,1,522,NaN,truck,truck,1-0-10,0522_eid_dnn_1-0-10_truck_10_n04467665_54079.png,n04467665_54079.png,1.0,-0.35125595,-0.45884472,0.076076746
alexnet_w1_mlp_simclrhn_probe1,1,523,NaN,dog,bird,2-0-10,0523_eid_dnn_2-0-10_bird_10_n01855672_1001.png,n01855672_1001.png,0.0,-2.7719593,-0.45019916,-1.6417323
alexnet_w1_mlp_simclrhn_probe1,1,524,NaN,bottle,bottle,1-0-10,0524_eid_dnn_1-0-10_bottle_10_n04560804_6112.png,n04560804_6112.png,1.0,0.8599772,-1.596601,1.7370632
alexnet_w1_mlp_simclrhn_probe1,1,525,NaN,oven,keyboard,1-0-10,0525_eid_dnn_1-0-10_keyboard_10_n04505470_1744.png,n04505470_1744.png,0.0,0.29604542,2.4569578,-1.527996
alexnet_w1_mlp_simclrhn_probe1,1,526,NaN,oven,boat,32-0-10,0526_eid_dnn_32-0-10_boat_10_n02951358_15087.png,n02951358_15087.png,0.0,-8.423415,2.3140926,-7.5925646
alexnet_w1_mlp_simclrhn_probe1,1,527,NaN,elephant,bottle,4-0-10,0527_eid_dnn_4-0-10_bottle_10_n04557648_10051.png,n04557648_10051.png,0.0,-3.7966847,0.70247054,-3.1813831
alexnet_w1_mlp_simclrhn_probe1,1,528,NaN,oven,bear,64-0-10,0528_eid_dnn_64-0-10_bear_10_n02134084_5794.png,n02134084_5794.png,0.0,-1.1841816,-0.38621736,-0.56424594
alexnet_w1_mlp_simclrhn_probe1,1,529,NaN,keyboard,keyboard,4-0-10,0529_eid_dnn_4-0-10_keyboard_10_n04505470_751.png,n04505470_751.png,1.0,0.15762419,-0.17184597,0.23297058
alexnet_w1_mlp_simclrhn_probe1,1,530,NaN,oven,boat,128-0-10,0530_eid_dnn_128-0-10_boat_10_n04273569_9306.png,n04273569_9306.png,0.0,-7.6093493,-0.85773325,-4.7741137
alexnet_w1_mlp_simclrhn_probe1,1,531,NaN,bear,chair,16-0-10,0531_eid_dnn_16-0-10_chair_10_n02791124_9162.png,n02791124_9162.png,0.0,-4.820071,0.20191148,-3.551078
alexnet_w1_mlp_simclrhn_probe1,1,532,NaN,oven,bicycle,128-0-10,0532_eid_dnn_128-0-10_bicycle_10_n02835271_25033.png,n02835271_25033.png,0.0,-3.2392597,-1.7660987,-1.0416821
alexnet_w1_mlp_simclrhn_probe1,1,533,NaN,cat,keyboard,128-0-10,0533_eid_dnn_128-0-10_keyboard_10_n04505470_3905.png,n04505470_3905.png,0.0,-4.942664,-1.4545484,-2.4664705
alexnet_w1_mlp_simclrhn_probe1,1,534,NaN,knife,knife,4-0-10,0534_eid_dnn_4-0-10_knife_10_n03041632_32054.png,n03041632_32054.png,1.0,-1.050898,-1.179044,0.09061294
alexnet_w1_mlp_simclrhn_probe1,1,535,NaN,cat,clock,8-0-10,0535_eid_dnn_8-0-10_clock_10_n03196217_13380.png,n03196217_13380.png,0.0,-8.897265,1.8331882,-7.5875764
alexnet_w1_mlp_simclrhn_probe1,1,536,NaN,bird,chair,32-0-10,0536_eid_dnn_32-0-10_chair_10_n03376595_8083.png,n03376595_8083.png,0.0,-4.1902223,-0.8697952,-2.3478963
alexnet_w1_mlp_simclrhn_probe1,1,537,NaN,bear,cat,8-0-10,0537_eid_dnn_8-0-10_cat_10_n02125311_47927.png,n02125311_47927.png,0.0,0.91827774,1.51588,-0.42256862
alexnet_w1_mlp_simclrhn_probe1,1,538,NaN,oven,boat,64-0-10,0538_eid_dnn_64-0-10_boat_10_n04273569_1141.png,n04273569_1141.png,0.0,-7.4266143,0.46751794,-5.5819945
alexnet_w1_mlp_simclrhn_probe1,1,539,NaN,oven,dog,64-0-10,0539_eid_dnn_64-0-10_dog_10_n02097130_5859.png,n02097130_5859.png,0.0,-2.1350782,-0.043723106,-1.4788114
alexnet_w1_mlp_simclrhn_probe1,1,540,NaN,bear,dog,16-0-10,0540_eid_dnn_16-0-10_dog_10_n02090721_835.png,n02090721_835.png,0.0,-1.460147,0.10354588,-1.1056979
alexnet_w1_mlp_simclrhn_probe1,1,541,NaN,oven,bear,128-0-10,0541_eid_dnn_128-0-10_bear_10_n02132136_15806.png,n02132136_15806.png,0.0,-2.590275,-0.75899327,-1.2949117
alexnet_w1_mlp_simclrhn_probe1,1,542,NaN,oven,cat,128-0-10,0542_eid_dnn_128-0-10_cat_10_n02124075_12069.png,n02124075_12069.png,0.0,-1.5518079,0.41600132,-1.3914512
alexnet_w1_mlp_simclrhn_probe1,1,543,NaN,oven,oven,2-0-10,0543_eid_dnn_2-0-10_oven_10_n04111531_21382.png,n04111531_21382.png,1.0,5.066351,-1.8779899,4.9103904
alexnet_w1_mlp_simclrhn_probe1,1,544,NaN,dog,cat,1-0-10,0544_eid_dnn_1-0-10_cat_10_n02123597_2009.png,n02123597_2009.png,0.0,-2.317768,-1.1908729,-0.79683524
alexnet_w1_mlp_simclrhn_probe1,1,545,NaN,oven,oven,32-0-10,0545_eid_dnn_32-0-10_oven_10_n04111531_4392.png,n04111531_4392.png,1.0,0.09504315,-0.6071863,0.49655125
alexnet_w1_mlp_simclrhn_probe1,1,546,NaN,boat,boat,4-0-10,0546_eid_dnn_4-0-10_boat_10_n03344393_640.png,n03344393_640.png,1.0,-1.2329336,-1.2905972,0.040774293
alexnet_w1_mlp_simclrhn_probe1,1,547,NaN,oven,car,4-0-10,0547_eid_dnn_4-0-10_car_10_n02814533_245.png,n02814533_245.png,0.0,-2.621133,-0.69224966,-1.3639265
alexnet_w1_mlp_simclrhn_probe1,1,548,NaN,bird,bird,1-0-10,0548_eid_dnn_1-0-10_bird_10_n01530575_3831.png,n01530575_3831.png,1.0,-1.0373573,-2.9903333,1.3809626
alexnet_w1_mlp_simclrhn_probe1,1,549,NaN,truck,truck,2-0-10,0549_eid_dnn_2-0-10_truck_10_n04467665_32276.png,n04467665_32276.png,1.0,3.6414597,2.8549788,0.556126
alexnet_w1_mlp_simclrhn_probe1,1,550,NaN,bear,elephant,64-0-10,0550_eid_dnn_64-0-10_elephant_10_n02504458_5941.png,n02504458_5941.png,0.0,-4.0634527,-1.0864319,-2.1050715
alexnet_w1_mlp_simclrhn_probe1,1,551,NaN,elephant,elephant,4-0-10,0551_eid_dnn_4-0-10_elephant_10_n02504013_9796.png,n02504013_9796.png,1.0,3.3997965,2.2890854,0.7853914
alexnet_w1_mlp_simclrhn_probe1,1,552,NaN,airplane,airplane,4-0-10,0552_eid_dnn_4-0-10_airplane_10_n02690373_8214.png,n02690373_8214.png,1.0,0.88617194,-1.427597,1.6360817
alexnet_w1_mlp_simclrhn_probe1,1,553,NaN,airplane,airplane,1-0-10,0553_eid_dnn_1-0-10_airplane_10_n02690373_8967.png,n02690373_8967.png,1.0,6.2920732,-0.7605675,4.9869704
alexnet_w1_mlp_simclrhn_probe1,1,554,NaN,bear,elephant,64-0-10,0554_eid_dnn_64-0-10_elephant_10_n02504458_7642.png,n02504458_7642.png,0.0,-1.9677314,-0.5906832,-0.9737201
alexnet_w1_mlp_simclrhn_probe1,1,555,NaN,boat,boat,1-0-10,0555_eid_dnn_1-0-10_boat_10_n04273569_15455.png,n04273569_15455.png,1.0,0.88855743,0.39221343,0.3509682
alexnet_w1_mlp_simclrhn_probe1,1,556,NaN,bear,knife,8-0-10,0556_eid_dnn_8-0-10_knife_10_n03041632_3063.png,n03041632_3063.png,0.0,-4.083682,2.41672,-4.5964785
alexnet_w1_mlp_simclrhn_probe1,1,557,NaN,bottle,bottle,4-0-10,0557_eid_dnn_4-0-10_bottle_10_n03937543_4912.png,n03937543_4912.png,1.0,-0.0729118,-0.09225783,0.013679708
alexnet_w1_mlp_simclrhn_probe1,1,558,NaN,oven,oven,4-0-10,0558_eid_dnn_4-0-10_oven_10_n04111531_5776.png,n04111531_5776.png,1.0,0.64736855,-0.41551968,0.7515755
alexnet_w1_mlp_simclrhn_probe1,1,559,NaN,cat,bottle,128-0-10,0559_eid_dnn_128-0-10_bottle_10_n03983396_4540.png,n03983396_4540.png,0.0,-6.452624,-0.8337762,-3.9731255
alexnet_w1_mlp_simclrhn_probe1,1,560,NaN,knife,knife,2-0-10,0560_eid_dnn_2-0-10_knife_10_n03041632_965.png,n03041632_965.png,1.0,1.6961063,0.037521,1.172797
alexnet_w1_mlp_simclrhn_probe1,1,561,NaN,oven,knife,32-0-10,0561_eid_dnn_32-0-10_knife_10_n03041632_12949.png,n03041632_12949.png,0.0,-2.399103,0.42606503,-1.9976954
alexnet_w1_mlp_simclrhn_probe1,1,562,NaN,bear,knife,16-0-10,0562_eid_dnn_16-0-10_knife_10_n03041632_18766.png,n03041632_18766.png,0.0,-3.1299317,1.376678,-3.1866546
alexnet_w1_mlp_simclrhn_probe1,1,563,NaN,oven,keyboard,8-0-10,0563_eid_dnn_8-0-10_keyboard_10_n04505470_2869.png,n04505470_2869.png,0.0,-3.2145917,0.34502855,-2.5170317
alexnet_w1_mlp_simclrhn_probe1,1,564,NaN,elephant,bicycle,4-0-10,0564_eid_dnn_4-0-10_bicycle_10_n02835271_18537.png,n02835271_18537.png,0.0,-1.6350843,1.7312964,-2.3803906
alexnet_w1_mlp_simclrhn_probe1,1,565,NaN,bird,clock,32-0-10,0565_eid_dnn_32-0-10_clock_10_n04548280_1119.png,n04548280_1119.png,0.0,-3.8454273,-1.132829,-1.9180967
alexnet_w1_mlp_simclrhn_probe1,1,566,NaN,oven,oven,1-0-10,0566_eid_dnn_1-0-10_oven_10_n04111531_687.png,n04111531_687.png,1.0,6.2801676,-1.632718,5.5952554
alexnet_w1_mlp_simclrhn_probe1,1,567,NaN,oven,chair,64-0-10,0567_eid_dnn_64-0-10_chair_10_n03376595_3038.png,n03376595_3038.png,0.0,-6.1271014,-0.17442362,-4.209179
alexnet_w1_mlp_simclrhn_probe1,1,568,NaN,oven,bicycle,16-0-10,0568_eid_dnn_16-0-10_bicycle_10_n02835271_3989.png,n02835271_3989.png,0.0,-3.4223948,-0.812537,-1.8454481
alexnet_w1_mlp_simclrhn_probe1,1,569,NaN,oven,dog,64-0-10,0569_eid_dnn_64-0-10_dog_10_n02096437_4563.png,n02096437_4563.png,0.0,-2.018963,-0.06101924,-1.3844755
alexnet_w1_mlp_simclrhn_probe1,1,570,NaN,oven,clock,32-0-10,0570_eid_dnn_32-0-10_clock_10_n02708093_685.png,n02708093_685.png,0.0,-7.363247,-1.7400565,-3.976196
alexnet_w1_mlp_simclrhn_probe1,1,571,NaN,oven,boat,32-0-10,0571_eid_dnn_32-0-10_boat_10_n03662601_8360.png,n03662601_8360.png,0.0,-6.1277585,0.8455993,-4.9309087
alexnet_w1_mlp_simclrhn_probe1,1,572,NaN,cat,keyboard,8-0-10,0572_eid_dnn_8-0-10_keyboard_10_n03085013_17035.png,n03085013_17035.png,0.0,-3.6448298,-0.9670078,-1.893506
alexnet_w1_mlp_simclrhn_probe1,1,573,NaN,oven,dog,64-0-10,0573_eid_dnn_64-0-10_dog_10_n02110063_12166.png,n02110063_12166.png,0.0,-2.2626195,0.57029307,-2.0031717
alexnet_w1_mlp_simclrhn_probe1,1,574,NaN,dog,dog,2-0-10,0574_eid_dnn_2-0-10_dog_10_n02108422_6951.png,n02108422_6951.png,1.0,-0.6446907,-1.027691,0.27082214
alexnet_w1_mlp_simclrhn_probe1,1,575,NaN,oven,bear,64-0-10,0575_eid_dnn_64-0-10_bear_10_n02134418_912.png,n02134418_912.png,0.0,-0.87371594,-0.7237767,-0.10602305
alexnet_w1_mlp_simclrhn_probe1,1,576,NaN,bottle,clock,4-0-10,0576_eid_dnn_4-0-10_clock_10_n02708093_564.png,n02708093_564.png,0.0,-1.8643473,-1.8513075,-0.009220551
alexnet_w1_mlp_simclrhn_probe1,1,577,NaN,oven,car,64-0-10,0577_eid_dnn_64-0-10_car_10_n04285008_11893.png,n04285008_11893.png,0.0,-6.9021506,-0.79687667,-4.317081
alexnet_w1_mlp_simclrhn_probe1,1,578,NaN,oven,knife,64-0-10,0578_eid_dnn_64-0-10_knife_10_n03041632_20504.png,n03041632_20504.png,0.0,-1.9577494,0.80345225,-1.9524645
alexnet_w1_mlp_simclrhn_probe1,1,579,NaN,bottle,clock,4-0-10,0579_eid_dnn_4-0-10_clock_10_n04548280_4557.png,n04548280_4557.png,0.0,-0.52219445,-0.5142983,-0.0055834036
alexnet_w1_mlp_simclrhn_probe1,1,580,NaN,bird,clock,32-0-10,0580_eid_dnn_32-0-10_clock_10_n02708093_3360.png,n02708093_3360.png,0.0,-5.126394,-1.8277088,-2.3325226
alexnet_w1_mlp_simclrhn_probe1,1,581,NaN,bear,bear,16-0-10,0581_eid_dnn_16-0-10_bear_10_n02134084_617.png,n02134084_617.png,1.0,0.24597357,-0.30190647,0.38740972
alexnet_w1_mlp_simclrhn_probe1,1,582,NaN,keyboard,dog,1-0-10,0582_eid_dnn_1-0-10_dog_10_n02093991_4081.png,n02093991_4081.png,0.0,-4.5694523,0.21825933,-3.3854234
alexnet_w1_mlp_simclrhn_probe1,1,583,NaN,bear,elephant,16-0-10,0583_eid_dnn_16-0-10_elephant_10_n02504458_1727.png,n02504458_1727.png,0.0,1.2411995,2.1943326,-0.6739669
alexnet_w1_mlp_simclrhn_probe1,1,584,NaN,bicycle,clock,32-0-10,0584_eid_dnn_32-0-10_clock_10_n04548280_16295.png,n04548280_16295.png,0.0,-3.6364696,-1.7533429,-1.3315717
alexnet_w1_mlp_simclrhn_probe1,1,585,NaN,bear,boat,4-0-10,0585_eid_dnn_4-0-10_boat_10_n02951358_16217.png,n02951358_16217.png,0.0,-3.0780349,3.0976431,-4.366864
alexnet_w1_mlp_simclrhn_probe1,1,586,NaN,cat,airplane,8-0-10,0586_eid_dnn_8-0-10_airplane_10_n02690373_7536.png,n02690373_7536.png,0.0,-4.6052556,0.31070074,-3.4761062
alexnet_w1_mlp_simclrhn_probe1,1,587,NaN,cat,cat,8-0-10,0587_eid_dnn_8-0-10_cat_10_n02123597_22140.png,n02123597_22140.png,1.0,0.13453035,-0.13078314,0.18760498
alexnet_w1_mlp_simclrhn_probe1,1,588,NaN,oven,bottle,128-0-10,0588_eid_dnn_128-0-10_bottle_10_n04591713_8914.png,n04591713_8914.png,0.0,-2.9099612,-1.3527099,-1.101143
alexnet_w1_mlp_simclrhn_probe1,1,589,NaN,oven,car,128-0-10,0589_eid_dnn_128-0-10_car_10_n03100240_963.png,n03100240_963.png,0.0,-8.810567,-0.755452,-5.6958265
alexnet_w1_mlp_simclrhn_probe1,1,590,NaN,bird,boat,32-0-10,0590_eid_dnn_32-0-10_boat_10_n02951358_18762.png,n02951358_18762.png,0.0,-3.4978669,-1.276461,-1.5707712
alexnet_w1_mlp_simclrhn_probe1,1,591,NaN,bear,bear,32-0-10,0591_eid_dnn_32-0-10_bear_10_n02134418_2633.png,n02134418_2633.png,1.0,0.29271555,-0.8420975,0.802434
alexnet_w1_mlp_simclrhn_probe1,1,592,NaN,oven,airplane,64-0-10,0592_eid_dnn_64-0-10_airplane_10_n02690373_1169.png,n02690373_1169.png,0.0,-8.1447935,-0.06888406,-5.7105308
alexnet_w1_mlp_simclrhn_probe1,1,593,NaN,bicycle,bicycle,2-0-10,0593_eid_dnn_2-0-10_bicycle_10_n03792782_12704.png,n03792782_12704.png,1.0,-0.6714914,-2.3923552,1.2168345
alexnet_w1_mlp_simclrhn_probe1,1,594,NaN,oven,dog,64-0-10,0594_eid_dnn_64-0-10_dog_10_n02088238_2973.png,n02088238_2973.png,0.0,-1.899561,-0.354016,-1.0928655
alexnet_w1_mlp_simclrhn_probe1,1,595,NaN,oven,knife,32-0-10,0595_eid_dnn_32-0-10_knife_10_n03041632_41493.png,n03041632_41493.png,0.0,-2.589537,-0.64388746,-1.3757819
alexnet_w1_mlp_simclrhn_probe1,1,596,NaN,knife,bottle,128-0-10,0596_eid_dnn_128-0-10_bottle_10_n03983396_2959.png,n03983396_2959.png,0.0,-4.694691,-3.0464063,-1.1655135
alexnet_w1_mlp_simclrhn_probe1,1,597,NaN,clock,clock,1-0-10,0597_eid_dnn_1-0-10_clock_10_n02708093_2843.png,n02708093_2843.png,1.0,1.514134,1.3600494,0.108954325
alexnet_w1_mlp_simclrhn_probe1,1,598,NaN,cat,oven,8-0-10,0598_eid_dnn_8-0-10_oven_10_n04111531_12952.png,n04111531_12952.png,0.0,-0.91041774,0.41974792,-0.94056916
alexnet_w1_mlp_simclrhn_probe1,1,599,NaN,bear,bear,16-0-10,0599_eid_dnn_16-0-10_bear_10_n02134418_2891.png,n02134418_2891.png,1.0,1.764771,-0.6979834,1.7414303
alexnet_w1_mlp_simclrhn_probe1,1,600,NaN,oven,truck,32-0-10,0600_eid_dnn_32-0-10_truck_10_n03417042_3862.png,n03417042_3862.png,0.0,-6.6544933,0.95632577,-5.381662
alexnet_w1_mlp_simclrhn_probe1,1,601,NaN,oven,elephant,16-0-10,0601_eid_dnn_16-0-10_elephant_10_n02504458_2054.png,n02504458_2054.png,0.0,-0.33994427,1.3156501,-1.170682
alexnet_w1_mlp_simclrhn_probe1,1,602,NaN,airplane,airplane,1-0-10,0602_eid_dnn_1-0-10_airplane_10_n02690373_7355.png,n02690373_7355.png,1.0,4.761437,1.0452352,2.6277516
alexnet_w1_mlp_simclrhn_probe1,1,603,NaN,oven,knife,128-0-10,0603_eid_dnn_128-0-10_knife_10_n03041632_22738.png,n03041632_22738.png,0.0,-3.8495102,-1.9645457,-1.3328712
