subj,session,trial,rt,object_response,category,condition,imagename,filename,is_correct,targ_act,max_nontarg_act,decision_margin
alexnet_w1_mlp_simclrhn_probe0,1,1,NaN,bear,oven,16-0-10,0001_eid_dnn_16-0-10_oven_10_n04111531_13542.png,n04111531_13542.png,0.0,-1.0778464,0.49825814,-1.1144742
alexnet_w1_mlp_simclrhn_probe0,1,2,NaN,car,car,4-0-10,0002_eid_dnn_4-0-10_car_10_n03100240_5570.png,n03100240_5570.png,1.0,-1.6849198,-2.969439,0.90829223
alexnet_w1_mlp_simclrhn_probe0,1,3,NaN,cat,bird,8-0-10,0003_eid_dnn_8-0-10_bird_10_n01820546_4847.png,n01820546_4847.png,0.0,-6.9674587,0.8795269,-5.548657
alexnet_w1_mlp_simclrhn_probe0,1,4,NaN,bear,bear,32-0-10,0004_eid_dnn_32-0-10_bear_10_n02133161_15561.png,n02133161_15561.png,1.0,1.2253907,0.7076825,0.36607498
alexnet_w1_mlp_simclrhn_probe0,1,5,NaN,oven,bird,64-0-10,0005_eid_dnn_64-0-10_bird_10_n01531178_9584.png,n01531178_9584.png,0.0,-3.2640963,0.5656388,-2.7080317
alexnet_w1_mlp_simclrhn_probe0,1,6,NaN,bear,bicycle,8-0-10,0006_eid_dnn_8-0-10_bicycle_10_n02835271_18846.png,n02835271_18846.png,0.0,-7.9961805,1.5016503,-6.715981
alexnet_w1_mlp_simclrhn_probe0,1,7,NaN,oven,oven,4-0-10,0007_eid_dnn_4-0-10_oven_10_n04111531_73.png,n04111531_73.png,1.0,-0.22686699,-3.2728415,2.1538293
alexnet_w1_mlp_simclrhn_probe0,1,8,NaN,oven,clock,2-0-10,0008_eid_dnn_2-0-10_clock_10_n04548280_6159.png,n04548280_6159.png,0.0,-8.00409,-4.2414455,-2.6605916
alexnet_w1_mlp_simclrhn_probe0,1,9,NaN,oven,chair,32-0-10,0009_eid_dnn_32-0-10_chair_10_n03376595_9395.png,n03376595_9395.png,0.0,-7.2645493,2.0204222,-6.5654664
alexnet_w1_mlp_simclrhn_probe0,1,10,NaN,oven,bicycle,64-0-10,0010_eid_dnn_64-0-10_bicycle_10_n02835271_1918.png,n02835271_1918.png,0.0,-2.9027913,-0.17020556,-1.9322299
alexnet_w1_mlp_simclrhn_probe0,1,11,NaN,oven,bicycle,128-0-10,0011_eid_dnn_128-0-10_bicycle_10_n02835271_42320.png,n02835271_42320.png,0.0,-7.897127,1.1611843,-6.405194
alexnet_w1_mlp_simclrhn_probe0,1,12,NaN,elephant,elephant,1-0-10,0012_eid_dnn_1-0-10_elephant_10_n02504458_3628.png,n02504458_3628.png,1.0,1.7169367,-2.1056652,2.7029877
alexnet_w1_mlp_simclrhn_probe0,1,13,NaN,oven,knife,64-0-10,0013_eid_dnn_64-0-10_knife_10_n03041632_86554.png,n03041632_86554.png,0.0,-3.8410451,0.7121093,-3.2195663
alexnet_w1_mlp_simclrhn_probe0,1,14,NaN,cat,cat,8-0-10,0014_eid_dnn_8-0-10_cat_10_n02123394_1726.png,n02123394_1726.png,1.0,-1.5338441,-1.7423097,0.14740743
alexnet_w1_mlp_simclrhn_probe0,1,15,NaN,bear,cat,32-0-10,0015_eid_dnn_32-0-10_cat_10_n02123597_6721.png,n02123597_6721.png,0.0,-1.8736563,-0.7592036,-0.788037
alexnet_w1_mlp_simclrhn_probe0,1,16,NaN,oven,oven,2-0-10,0016_eid_dnn_2-0-10_oven_10_n04111531_21869.png,n04111531_21869.png,1.0,-3.5020952,-3.6306102,0.09087383
alexnet_w1_mlp_simclrhn_probe0,1,17,NaN,bear,bear,4-0-10,0017_eid_dnn_4-0-10_bear_10_n02134084_2949.png,n02134084_2949.png,1.0,-2.1726658,-2.8315077,0.46587154
alexnet_w1_mlp_simclrhn_probe0,1,18,NaN,cat,truck,8-0-10,0018_eid_dnn_8-0-10_truck_10_n03417042_18743.png,n03417042_18743.png,0.0,-11.459035,-2.7271888,-6.1743474
alexnet_w1_mlp_simclrhn_probe0,1,19,NaN,bear,bird,16-0-10,0019_eid_dnn_16-0-10_bird_10_n01616318_4246.png,n01616318_4246.png,0.0,-5.23776,-2.3628552,-2.0328648
alexnet_w1_mlp_simclrhn_probe0,1,20,NaN,elephant,bicycle,8-0-10,0020_eid_dnn_8-0-10_bicycle_10_n03792782_66771.png,n03792782_66771.png,0.0,-5.953941,-1.1146607,-3.4218879
alexnet_w1_mlp_simclrhn_probe0,1,21,NaN,keyboard,keyboard,2-0-10,0021_eid_dnn_2-0-10_keyboard_10_n04505470_3531.png,n04505470_3531.png,1.0,2.0241013,-1.8790376,2.759936
alexnet_w1_mlp_simclrhn_probe0,1,22,NaN,oven,clock,8-0-10,0022_eid_dnn_8-0-10_clock_10_n04548280_6463.png,n04548280_6463.png,0.0,-6.2153964,0.17923701,-4.5216885
alexnet_w1_mlp_simclrhn_probe0,1,23,NaN,oven,keyboard,16-0-10,0023_eid_dnn_16-0-10_keyboard_10_n04505470_4974.png,n04505470_4974.png,0.0,-12.165537,0.86296165,-9.21254
alexnet_w1_mlp_simclrhn_probe0,1,24,NaN,oven,chair,4-0-10,0024_eid_dnn_4-0-10_chair_10_n03376595_360.png,n03376595_360.png,0.0,-8.334706,-1.7970026,-4.6228547
alexnet_w1_mlp_simclrhn_probe0,1,25,NaN,bear,dog,16-0-10,0025_eid_dnn_16-0-10_dog_10_n02097130_2752.png,n02097130_2752.png,0.0,-1.7956853,0.5321919,-1.6460577
alexnet_w1_mlp_simclrhn_probe0,1,26,NaN,oven,bicycle,2-0-10,0026_eid_dnn_2-0-10_bicycle_10_n02835271_3406.png,n02835271_3406.png,0.0,-6.8882637,-3.0525496,-2.7122595
alexnet_w1_mlp_simclrhn_probe0,1,27,NaN,oven,bottle,16-0-10,0027_eid_dnn_16-0-10_bottle_10_n04560804_11732.png,n04560804_11732.png,0.0,-4.443839,-0.44918954,-2.8246439
alexnet_w1_mlp_simclrhn_probe0,1,28,NaN,oven,bottle,32-0-10,0028_eid_dnn_32-0-10_bottle_10_n04591713_13589.png,n04591713_13589.png,0.0,-8.357771,2.1466122,-7.4277205
alexnet_w1_mlp_simclrhn_probe0,1,29,NaN,cat,cat,2-0-10,0029_eid_dnn_2-0-10_cat_10_n02123045_4009.png,n02123045_4009.png,1.0,0.35162154,-2.8388395,2.2559967
alexnet_w1_mlp_simclrhn_probe0,1,30,NaN,cat,chair,8-0-10,0030_eid_dnn_8-0-10_chair_10_n02791124_1704.png,n02791124_1704.png,0.0,-10.375973,-3.3211467,-4.9885154
alexnet_w1_mlp_simclrhn_probe0,1,31,NaN,oven,bicycle,128-0-10,0031_eid_dnn_128-0-10_bicycle_10_n03792782_28395.png,n03792782_28395.png,0.0,-3.911426,-0.18465316,-2.6352262
alexnet_w1_mlp_simclrhn_probe0,1,32,NaN,bear,truck,16-0-10,0032_eid_dnn_16-0-10_truck_10_n03417042_4288.png,n03417042_4288.png,0.0,-12.000408,0.7855791,-9.041059
alexnet_w1_mlp_simclrhn_probe0,1,33,NaN,keyboard,keyboard,1-0-10,0033_eid_dnn_1-0-10_keyboard_10_n04505470_3371.png,n04505470_3371.png,1.0,2.8512845,1.0001403,1.3089566
alexnet_w1_mlp_simclrhn_probe0,1,34,NaN,cat,cat,1-0-10,0034_eid_dnn_1-0-10_cat_10_n02124075_13436.png,n02124075_13436.png,1.0,-1.5847688,-2.7445846,0.8201136
alexnet_w1_mlp_simclrhn_probe0,1,35,NaN,oven,dog,32-0-10,0035_eid_dnn_32-0-10_dog_10_n02097209_8270.png,n02097209_8270.png,0.0,-2.2351246,1.2000909,-2.4290643
alexnet_w1_mlp_simclrhn_probe0,1,36,NaN,oven,clock,128-0-10,0036_eid_dnn_128-0-10_clock_10_n04548280_7795.png,n04548280_7795.png,0.0,-9.218602,-0.24947092,-6.342134
alexnet_w1_mlp_simclrhn_probe0,1,37,NaN,oven,car,32-0-10,0037_eid_dnn_32-0-10_car_10_n03100240_21737.png,n03100240_21737.png,0.0,-10.162036,0.10592455,-7.260545
alexnet_w1_mlp_simclrhn_probe0,1,38,NaN,bear,clock,128-0-10,0038_eid_dnn_128-0-10_clock_10_n02708093_1862.png,n02708093_1862.png,0.0,-6.413833,-0.8170336,-3.9575348
alexnet_w1_mlp_simclrhn_probe0,1,39,NaN,bird,bicycle,64-0-10,0039_eid_dnn_64-0-10_bicycle_10_n03792782_9412.png,n03792782_9412.png,0.0,-2.4151547,-1.4877452,-0.6557776
alexnet_w1_mlp_simclrhn_probe0,1,40,NaN,bear,bear,32-0-10,0040_eid_dnn_32-0-10_bear_10_n02134418_163.png,n02134418_163.png,1.0,0.81776255,-0.54426694,0.9631004
alexnet_w1_mlp_simclrhn_probe0,1,41,NaN,oven,keyboard,16-0-10,0041_eid_dnn_16-0-10_keyboard_10_n03085013_25675.png,n03085013_25675.png,0.0,-6.9734473,-0.21554911,-4.778556
alexnet_w1_mlp_simclrhn_probe0,1,42,NaN,oven,truck,2-0-10,0042_eid_dnn_2-0-10_truck_10_n03417042_1716.png,n03417042_1716.png,0.0,-5.6420574,-4.195242,-1.023053
alexnet_w1_mlp_simclrhn_probe0,1,43,NaN,oven,keyboard,128-0-10,0043_eid_dnn_128-0-10_keyboard_10_n03085013_18854.png,n03085013_18854.png,0.0,-7.554167,-1.3807783,-4.365245
alexnet_w1_mlp_simclrhn_probe0,1,44,NaN,oven,bottle,32-0-10,0044_eid_dnn_32-0-10_bottle_10_n04591713_4865.png,n04591713_4865.png,0.0,-5.290611,1.9923362,-5.1498213
alexnet_w1_mlp_simclrhn_probe0,1,45,NaN,bear,bicycle,32-0-10,0045_eid_dnn_32-0-10_bicycle_10_n03792782_693.png,n03792782_693.png,0.0,-7.2528753,-0.071339436,-5.0781126
alexnet_w1_mlp_simclrhn_probe0,1,46,NaN,knife,bottle,1-0-10,0046_eid_dnn_1-0-10_bottle_10_n04557648_264.png,n04557648_264.png,0.0,-8.239279,-3.6260052,-3.262077
alexnet_w1_mlp_simclrhn_probe0,1,47,NaN,oven,knife,2-0-10,0047_eid_dnn_2-0-10_knife_10_n03041632_25512.png,n03041632_25512.png,0.0,-2.0747428,-1.94083,-0.09469065
alexnet_w1_mlp_simclrhn_probe0,1,48,NaN,bear,boat,16-0-10,0048_eid_dnn_16-0-10_boat_10_n03344393_2381.png,n03344393_2381.png,0.0,-2.9739547,-0.37716314,-1.8362089
alexnet_w1_mlp_simclrhn_probe0,1,49,NaN,cat,dog,128-0-10,0049_eid_dnn_128-0-10_dog_10_n02110627_17670.png,n02110627_17670.png,0.0,-3.7139764,-0.55220985,-2.2357066
alexnet_w1_mlp_simclrhn_probe0,1,50,NaN,oven,bear,64-0-10,0050_eid_dnn_64-0-10_bear_10_n02133161_15981.png,n02133161_15981.png,0.0,-4.4007697,-0.78607273,-2.5559769
alexnet_w1_mlp_simclrhn_probe0,1,51,NaN,bear,elephant,16-0-10,0051_eid_dnn_16-0-10_elephant_10_n02504458_3570.png,n02504458_3570.png,0.0,0.010355413,0.43831187,-0.30261093
alexnet_w1_mlp_simclrhn_probe0,1,52,NaN,bottle,truck,4-0-10,0052_eid_dnn_4-0-10_truck_10_n03417042_6241.png,n03417042_6241.png,0.0,-5.5703173,-2.3442066,-2.2812047
alexnet_w1_mlp_simclrhn_probe0,1,53,NaN,bear,bird,8-0-10,0053_eid_dnn_8-0-10_bird_10_n02025239_17670.png,n02025239_17670.png,0.0,-2.2912147,-0.78578544,-1.0644993
alexnet_w1_mlp_simclrhn_probe0,1,54,NaN,bear,dog,16-0-10,0054_eid_dnn_16-0-10_dog_10_n02106030_19249.png,n02106030_19249.png,0.0,-1.2948061,0.53639877,-1.2948574
alexnet_w1_mlp_simclrhn_probe0,1,55,NaN,bear,keyboard,32-0-10,0055_eid_dnn_32-0-10_keyboard_10_n04505470_2326.png,n04505470_2326.png,0.0,-9.935141,-0.44267,-6.7121906
alexnet_w1_mlp_simclrhn_probe0,1,56,NaN,elephant,dog,16-0-10,0056_eid_dnn_16-0-10_dog_10_n02107142_9379.png,n02107142_9379.png,0.0,-1.7794118,-0.21671252,-1.1049953
alexnet_w1_mlp_simclrhn_probe0,1,57,NaN,bear,cat,64-0-10,0057_eid_dnn_64-0-10_cat_10_n02123394_1828.png,n02123394_1828.png,0.0,-0.64830655,0.57747746,-0.86676025
alexnet_w1_mlp_simclrhn_probe0,1,58,NaN,oven,car,32-0-10,0058_eid_dnn_32-0-10_car_10_n03100240_4605.png,n03100240_4605.png,0.0,-11.570714,0.61736,-8.61827
alexnet_w1_mlp_simclrhn_probe0,1,59,NaN,bear,bicycle,4-0-10,0059_eid_dnn_4-0-10_bicycle_10_n03792782_6765.png,n03792782_6765.png,0.0,-5.479816,-0.8157012,-3.2980273
alexnet_w1_mlp_simclrhn_probe0,1,60,NaN,elephant,boat,8-0-10,0060_eid_dnn_8-0-10_boat_10_n03344393_8455.png,n03344393_8455.png,0.0,-5.4024105,-1.7985538,-2.5483115
alexnet_w1_mlp_simclrhn_probe0,1,61,NaN,oven,oven,16-0-10,0061_eid_dnn_16-0-10_oven_10_n04111531_8603.png,n04111531_8603.png,1.0,1.9839907,0.20630686,1.2570124
alexnet_w1_mlp_simclrhn_probe0,1,62,NaN,bird,bird,2-0-10,0062_eid_dnn_2-0-10_bird_10_n02051845_2574.png,n02051845_2574.png,1.0,-2.494318,-5.823218,2.3538878
alexnet_w1_mlp_simclrhn_probe0,1,63,NaN,boat,boat,4-0-10,0063_eid_dnn_4-0-10_boat_10_n04612504_15875.png,n04612504_15875.png,1.0,-0.22099176,-0.82603717,0.42783174
alexnet_w1_mlp_simclrhn_probe0,1,64,NaN,oven,bottle,4-0-10,0064_eid_dnn_4-0-10_bottle_10_n03983396_7337.png,n03983396_7337.png,0.0,-4.600316,-3.3789,-0.86367154
alexnet_w1_mlp_simclrhn_probe0,1,65,NaN,cat,clock,8-0-10,0065_eid_dnn_8-0-10_clock_10_n02708093_6822.png,n02708093_6822.png,0.0,-8.749478,-1.59123,-5.061646
alexnet_w1_mlp_simclrhn_probe0,1,66,NaN,airplane,truck,2-0-10,0066_eid_dnn_2-0-10_truck_10_n04467665_15994.png,n04467665_15994.png,0.0,-3.7513628,-3.2012506,-0.3889881
alexnet_w1_mlp_simclrhn_probe0,1,67,NaN,oven,cat,128-0-10,0067_eid_dnn_128-0-10_cat_10_n02123597_6291.png,n02123597_6291.png,0.0,-1.9195061,-1.111925,-0.57104605
alexnet_w1_mlp_simclrhn_probe0,1,68,NaN,cat,bird,8-0-10,0068_eid_dnn_8-0-10_bird_10_n01817953_1734.png,n01817953_1734.png,0.0,-7.419157,-3.218619,-2.9702287
alexnet_w1_mlp_simclrhn_probe0,1,69,NaN,oven,elephant,32-0-10,0069_eid_dnn_32-0-10_elephant_10_n02504458_6880.png,n02504458_6880.png,0.0,-1.8376796,0.5277589,-1.6726176
alexnet_w1_mlp_simclrhn_probe0,1,70,NaN,oven,cat,16-0-10,0070_eid_dnn_16-0-10_cat_10_n02123597_13197.png,n02123597_13197.png,0.0,-0.75498265,0.83283794,-1.1227586
alexnet_w1_mlp_simclrhn_probe0,1,71,NaN,bear,bicycle,64-0-10,0071_eid_dnn_64-0-10_bicycle_10_n03792782_973.png,n03792782_973.png,0.0,-3.1290135,-0.13224047,-2.1190386
alexnet_w1_mlp_simclrhn_probe0,1,72,NaN,cat,cat,2-0-10,0072_eid_dnn_2-0-10_cat_10_n02124075_8310.png,n02124075_8310.png,1.0,-0.21129207,-2.7275934,1.7792938
alexnet_w1_mlp_simclrhn_probe0,1,73,NaN,oven,oven,32-0-10,0073_eid_dnn_32-0-10_oven_10_n04111531_5168.png,n04111531_5168.png,1.0,-0.59318364,-1.1252792,0.3762484
alexnet_w1_mlp_simclrhn_probe0,1,74,NaN,airplane,airplane,1-0-10,0074_eid_dnn_1-0-10_airplane_10_n02690373_4893.png,n02690373_4893.png,1.0,2.951684,-2.0112827,3.5093477
alexnet_w1_mlp_simclrhn_probe0,1,75,NaN,dog,dog,1-0-10,0075_eid_dnn_1-0-10_dog_10_n02086240_3614.png,n02086240_3614.png,1.0,-0.9212646,-1.3577613,0.30864978
alexnet_w1_mlp_simclrhn_probe0,1,76,NaN,oven,oven,16-0-10,0076_eid_dnn_16-0-10_oven_10_n04111531_2937.png,n04111531_2937.png,1.0,-0.3076467,-0.84380585,0.37912178
alexnet_w1_mlp_simclrhn_probe0,1,77,NaN,knife,clock,1-0-10,0077_eid_dnn_1-0-10_clock_10_n03196217_2022.png,n03196217_2022.png,0.0,-1.4709219,-1.2300758,-0.17030387
alexnet_w1_mlp_simclrhn_probe0,1,78,NaN,oven,bottle,64-0-10,0078_eid_dnn_64-0-10_bottle_10_n04591713_2732.png,n04591713_2732.png,0.0,-4.700299,-0.67876244,-2.8436556
alexnet_w1_mlp_simclrhn_probe0,1,79,NaN,car,car,2-0-10,0079_eid_dnn_2-0-10_car_10_n03100240_8794.png,n03100240_8794.png,1.0,0.7792507,-0.7554295,1.0851828
alexnet_w1_mlp_simclrhn_probe0,1,80,NaN,oven,airplane,16-0-10,0080_eid_dnn_16-0-10_airplane_10_n02690373_3640.png,n02690373_3640.png,0.0,-4.829504,-1.4801242,-2.368369
alexnet_w1_mlp_simclrhn_probe0,1,81,NaN,oven,bicycle,64-0-10,0081_eid_dnn_64-0-10_bicycle_10_n03792782_41097.png,n03792782_41097.png,0.0,-2.307788,-1.1431465,-0.82352585
alexnet_w1_mlp_simclrhn_probe0,1,82,NaN,oven,dog,64-0-10,0082_eid_dnn_64-0-10_dog_10_n02090721_6770.png,n02090721_6770.png,0.0,-1.3209532,-0.24261591,-0.76249963
alexnet_w1_mlp_simclrhn_probe0,1,83,NaN,bear,cat,16-0-10,0083_eid_dnn_16-0-10_cat_10_n02123597_28968.png,n02123597_28968.png,0.0,-0.4982411,0.022162601,-0.367981
alexnet_w1_mlp_simclrhn_probe0,1,84,NaN,elephant,elephant,1-0-10,0084_eid_dnn_1-0-10_elephant_10_n02504013_5894.png,n02504013_5894.png,1.0,3.4761715,-2.3639214,4.129569
alexnet_w1_mlp_simclrhn_probe0,1,85,NaN,oven,oven,32-0-10,0085_eid_dnn_32-0-10_oven_10_n04111531_9314.png,n04111531_9314.png,1.0,2.371417,0.06750341,1.629113
alexnet_w1_mlp_simclrhn_probe0,1,86,NaN,elephant,elephant,1-0-10,0086_eid_dnn_1-0-10_elephant_10_n02504458_12074.png,n02504458_12074.png,1.0,-0.21642798,-1.0603423,0.59673756
alexnet_w1_mlp_simclrhn_probe0,1,87,NaN,boat,boat,4-0-10,0087_eid_dnn_4-0-10_boat_10_n03344393_3773.png,n03344393_3773.png,1.0,-2.6029737,-2.6062896,0.0023447135
alexnet_w1_mlp_simclrhn_probe0,1,88,NaN,oven,truck,128-0-10,0088_eid_dnn_128-0-10_truck_10_n04467665_80153.png,n04467665_80153.png,0.0,-6.354082,-0.99904656,-3.7865822
alexnet_w1_mlp_simclrhn_probe0,1,89,NaN,oven,chair,128-0-10,0089_eid_dnn_128-0-10_chair_10_n04099969_20604.png,n04099969_20604.png,0.0,-5.241809,-0.675669,-3.2287483
alexnet_w1_mlp_simclrhn_probe0,1,90,NaN,oven,keyboard,32-0-10,0090_eid_dnn_32-0-10_keyboard_10_n03085013_23625.png,n03085013_23625.png,0.0,-6.154775,1.0258677,-5.0774813
alexnet_w1_mlp_simclrhn_probe0,1,91,NaN,oven,truck,64-0-10,0091_eid_dnn_64-0-10_truck_10_n03796401_1458.png,n03796401_1458.png,0.0,-9.19725,-0.5226771,-6.1338496
alexnet_w1_mlp_simclrhn_probe0,1,92,NaN,oven,car,4-0-10,0092_eid_dnn_4-0-10_car_10_n03100240_18711.png,n03100240_18711.png,0.0,-3.3124943,-2.3496327,-0.6808459
alexnet_w1_mlp_simclrhn_probe0,1,93,NaN,oven,truck,128-0-10,0093_eid_dnn_128-0-10_truck_10_n03796401_2988.png,n03796401_2988.png,0.0,-9.192574,0.137936,-6.5976663
alexnet_w1_mlp_simclrhn_probe0,1,94,NaN,truck,truck,2-0-10,0094_eid_dnn_2-0-10_truck_10_n03417042_7096.png,n03417042_7096.png,1.0,0.2521145,-3.0798724,2.3560705
alexnet_w1_mlp_simclrhn_probe0,1,95,NaN,cat,dog,8-0-10,0095_eid_dnn_8-0-10_dog_10_n02105855_9345.png,n02105855_9345.png,0.0,-1.7894375,-1.1314355,-0.4652777
alexnet_w1_mlp_simclrhn_probe0,1,96,NaN,bear,bird,32-0-10,0096_eid_dnn_32-0-10_bird_10_n01796340_8342.png,n01796340_8342.png,0.0,-3.0713682,0.24379042,-2.3441713
alexnet_w1_mlp_simclrhn_probe0,1,97,NaN,cat,airplane,8-0-10,0097_eid_dnn_8-0-10_airplane_10_n02690373_7293.png,n02690373_7293.png,0.0,-4.8780875,-1.4712957,-2.4089656
alexnet_w1_mlp_simclrhn_probe0,1,98,NaN,oven,car,64-0-10,0098_eid_dnn_64-0-10_car_10_n04285008_9811.png,n04285008_9811.png,0.0,-12.242999,0.65608734,-9.121032
alexnet_w1_mlp_simclrhn_probe0,1,99,NaN,bear,knife,8-0-10,0099_eid_dnn_8-0-10_knife_10_n03041632_86783.png,n03041632_86783.png,0.0,-7.9940414,-0.044050455,-5.621493
alexnet_w1_mlp_simclrhn_probe0,1,100,NaN,oven,oven,16-0-10,0100_eid_dnn_16-0-10_oven_10_n04111531_9867.png,n04111531_9867.png,1.0,2.589901,-0.14741111,1.9355719
alexnet_w1_mlp_simclrhn_probe0,1,101,NaN,cat,truck,128-0-10,0101_eid_dnn_128-0-10_truck_10_n04467665_22573.png,n04467665_22573.png,0.0,-10.577131,-1.3498279,-6.524689
alexnet_w1_mlp_simclrhn_probe0,1,102,NaN,oven,car,128-0-10,0102_eid_dnn_128-0-10_car_10_n02814533_23512.png,n02814533_23512.png,0.0,-10.267641,-0.6918714,-6.7710915
alexnet_w1_mlp_simclrhn_probe0,1,103,NaN,cat,bicycle,16-0-10,0103_eid_dnn_16-0-10_bicycle_10_n03792782_4895.png,n03792782_4895.png,0.0,-9.612159,0.19143777,-6.9321895
alexnet_w1_mlp_simclrhn_probe0,1,104,NaN,keyboard,keyboard,2-0-10,0104_eid_dnn_2-0-10_keyboard_10_n03085013_23554.png,n03085013_23554.png,1.0,-1.4784597,-2.0707827,0.41883558
alexnet_w1_mlp_simclrhn_probe0,1,105,NaN,elephant,bear,1-0-10,0105_eid_dnn_1-0-10_bear_10_n02134084_8601.png,n02134084_8601.png,0.0,-1.4804784,-0.7753246,-0.49861905
alexnet_w1_mlp_simclrhn_probe0,1,106,NaN,cat,bicycle,8-0-10,0106_eid_dnn_8-0-10_bicycle_10_n03792782_126.png,n03792782_126.png,0.0,-9.270338,-0.69804233,-6.0615287
alexnet_w1_mlp_simclrhn_probe0,1,107,NaN,chair,chair,1-0-10,0107_eid_dnn_1-0-10_chair_10_n04099969_3583.png,n04099969_3583.png,1.0,-1.8976189,-3.0957613,0.84721464
alexnet_w1_mlp_simclrhn_probe0,1,108,NaN,cat,bicycle,8-0-10,0108_eid_dnn_8-0-10_bicycle_10_n02835271_976.png,n02835271_976.png,0.0,-9.200907,-1.1026446,-5.726336
alexnet_w1_mlp_simclrhn_probe0,1,109,NaN,oven,oven,32-0-10,0109_eid_dnn_32-0-10_oven_10_n04111531_10313.png,n04111531_10313.png,1.0,1.934325,0.7041042,0.8698975
alexnet_w1_mlp_simclrhn_probe0,1,110,NaN,oven,oven,1-0-10,0110_eid_dnn_1-0-10_oven_10_n04111531_8984.png,n04111531_8984.png,1.0,4.8952923,-1.9895675,4.8683314
alexnet_w1_mlp_simclrhn_probe0,1,111,NaN,bear,elephant,8-0-10,0111_eid_dnn_8-0-10_elephant_10_n02504013_3181.png,n02504013_3181.png,0.0,-0.41709965,0.46296698,-0.6223011
alexnet_w1_mlp_simclrhn_probe0,1,112,NaN,oven,keyboard,64-0-10,0112_eid_dnn_64-0-10_keyboard_10_n03085013_21490.png,n03085013_21490.png,0.0,-9.6834,-0.80438393,-6.2784123
alexnet_w1_mlp_simclrhn_probe0,1,113,NaN,airplane,bird,4-0-10,0113_eid_dnn_4-0-10_bird_10_n01614925_2708.png,n01614925_2708.png,0.0,-1.1238556,-0.74435484,-0.26834756
alexnet_w1_mlp_simclrhn_probe0,1,114,NaN,cat,bottle,16-0-10,0114_eid_dnn_16-0-10_bottle_10_n03983396_3109.png,n03983396_3109.png,0.0,-6.413481,-0.104978,-4.4607854
alexnet_w1_mlp_simclrhn_probe0,1,115,NaN,oven,bear,128-0-10,0115_eid_dnn_128-0-10_bear_10_n02134418_377.png,n02134418_377.png,0.0,-1.3810947,-0.5067778,-0.6182354
alexnet_w1_mlp_simclrhn_probe0,1,116,NaN,oven,knife,16-0-10,0116_eid_dnn_16-0-10_knife_10_n03041632_7680.png,n03041632_7680.png,0.0,-5.8933806,0.14307475,-4.2684183
alexnet_w1_mlp_simclrhn_probe0,1,117,NaN,elephant,truck,4-0-10,0117_eid_dnn_4-0-10_truck_10_n03417042_3807.png,n03417042_3807.png,0.0,-6.053115,-0.7105719,-3.7777486
alexnet_w1_mlp_simclrhn_probe0,1,118,NaN,oven,elephant,128-0-10,0118_eid_dnn_128-0-10_elephant_10_n02504013_6501.png,n02504013_6501.png,0.0,-4.24934,1.9995089,-4.4186034
alexnet_w1_mlp_simclrhn_probe0,1,119,NaN,oven,bicycle,32-0-10,0119_eid_dnn_32-0-10_bicycle_10_n03792782_5517.png,n03792782_5517.png,0.0,-3.909587,-1.3122807,-1.8365729
alexnet_w1_mlp_simclrhn_probe0,1,120,NaN,oven,bottle,128-0-10,0120_eid_dnn_128-0-10_bottle_10_n02823428_5791.png,n02823428_5791.png,0.0,-6.5913606,1.0055623,-5.3718357
alexnet_w1_mlp_simclrhn_probe0,1,121,NaN,oven,car,128-0-10,0121_eid_dnn_128-0-10_car_10_n04285008_10144.png,n04285008_10144.png,0.0,-9.634474,-0.030996203,-6.790684
alexnet_w1_mlp_simclrhn_probe0,1,122,NaN,cat,cat,4-0-10,0122_eid_dnn_4-0-10_cat_10_n02123159_5764.png,n02123159_5764.png,1.0,2.1477375,-2.2108164,3.081963
alexnet_w1_mlp_simclrhn_probe0,1,123,NaN,cat,dog,16-0-10,0123_eid_dnn_16-0-10_dog_10_n02085936_4491.png,n02085936_4491.png,0.0,-0.8402796,-0.16841559,-0.47507957
alexnet_w1_mlp_simclrhn_probe0,1,124,NaN,oven,bicycle,32-0-10,0124_eid_dnn_32-0-10_bicycle_10_n03792782_6159.png,n03792782_6159.png,0.0,-4.9406123,-0.22385716,-3.3352494
alexnet_w1_mlp_simclrhn_probe0,1,125,NaN,clock,clock,4-0-10,0125_eid_dnn_4-0-10_clock_10_n04548280_2404.png,n04548280_2404.png,1.0,-0.78537226,-2.7120712,1.3623819
alexnet_w1_mlp_simclrhn_probe0,1,126,NaN,oven,bottle,64-0-10,0126_eid_dnn_64-0-10_bottle_10_n04591713_360.png,n04591713_360.png,0.0,-7.8702164,2.0989015,-7.049231
alexnet_w1_mlp_simclrhn_probe0,1,127,NaN,oven,airplane,16-0-10,0127_eid_dnn_16-0-10_airplane_10_n02690373_1909.png,n02690373_1909.png,0.0,-7.1337423,-1.124933,-4.24887
alexnet_w1_mlp_simclrhn_probe0,1,128,NaN,bear,bear,2-0-10,0128_eid_dnn_2-0-10_bear_10_n02133161_9724.png,n02133161_9724.png,1.0,-0.33184445,-2.3271554,1.4108979
alexnet_w1_mlp_simclrhn_probe0,1,129,NaN,car,car,2-0-10,0129_eid_dnn_2-0-10_car_10_n04285008_5897.png,n04285008_5897.png,1.0,3.2793198,-1.8601894,3.634182
alexnet_w1_mlp_simclrhn_probe0,1,130,NaN,bicycle,bicycle,1-0-10,0130_eid_dnn_1-0-10_bicycle_10_n02835271_9807.png,n02835271_9807.png,1.0,-2.0043068,-6.7144833,3.3305979
alexnet_w1_mlp_simclrhn_probe0,1,131,NaN,knife,keyboard,1-0-10,0131_eid_dnn_1-0-10_keyboard_10_n03085013_23286.png,n03085013_23286.png,0.0,-5.7795143,-4.149845,-1.1523502
alexnet_w1_mlp_simclrhn_probe0,1,132,NaN,bicycle,clock,2-0-10,0132_eid_dnn_2-0-10_clock_10_n02708093_772.png,n02708093_772.png,0.0,-6.4897304,-4.176301,-1.6358416
alexnet_w1_mlp_simclrhn_probe0,1,133,NaN,keyboard,clock,4-0-10,0133_eid_dnn_4-0-10_clock_10_n03196217_820.png,n03196217_820.png,0.0,-2.887921,-0.21945935,-1.8868874
alexnet_w1_mlp_simclrhn_probe0,1,134,NaN,bear,dog,32-0-10,0134_eid_dnn_32-0-10_dog_10_n02093754_6351.png,n02093754_6351.png,0.0,-0.86826473,0.4908871,-0.9610655
alexnet_w1_mlp_simclrhn_probe0,1,135,NaN,oven,truck,8-0-10,0135_eid_dnn_8-0-10_truck_10_n03417042_27093.png,n03417042_27093.png,0.0,-10.185354,-0.36821312,-6.9417677
alexnet_w1_mlp_simclrhn_probe0,1,136,NaN,bear,bicycle,4-0-10,0136_eid_dnn_4-0-10_bicycle_10_n03792782_30530.png,n03792782_30530.png,0.0,-8.083382,-0.53332984,-5.3386927
alexnet_w1_mlp_simclrhn_probe0,1,137,NaN,bottle,bottle,4-0-10,0137_eid_dnn_4-0-10_bottle_10_n03937543_5215.png,n03937543_5215.png,1.0,-0.5670931,-1.7198423,0.8151169
alexnet_w1_mlp_simclrhn_probe0,1,138,NaN,bicycle,boat,2-0-10,0138_eid_dnn_2-0-10_boat_10_n02951358_9933.png,n02951358_9933.png,0.0,-6.5402374,-4.1976037,-1.6564922
alexnet_w1_mlp_simclrhn_probe0,1,139,NaN,dog,dog,4-0-10,0139_eid_dnn_4-0-10_dog_10_n02086910_8694.png,n02086910_8694.png,1.0,-2.1572561,-2.8812144,0.5119158
alexnet_w1_mlp_simclrhn_probe0,1,140,NaN,cat,knife,8-0-10,0140_eid_dnn_8-0-10_knife_10_n03041632_3504.png,n03041632_3504.png,0.0,-5.3898964,-2.121436,-2.3111506
alexnet_w1_mlp_simclrhn_probe0,1,141,NaN,oven,knife,128-0-10,0141_eid_dnn_128-0-10_knife_10_n03041632_15754.png,n03041632_15754.png,0.0,-3.5687408,-0.7122775,-2.0198247
alexnet_w1_mlp_simclrhn_probe0,1,142,NaN,bear,truck,8-0-10,0142_eid_dnn_8-0-10_truck_10_n04467665_45306.png,n04467665_45306.png,0.0,-2.9086633,-0.8479493,-1.4571449
alexnet_w1_mlp_simclrhn_probe0,1,143,NaN,elephant,elephant,1-0-10,0143_eid_dnn_1-0-10_elephant_10_n02504013_5351.png,n02504013_5351.png,1.0,-3.0452828,-5.6045113,1.8096478
alexnet_w1_mlp_simclrhn_probe0,1,144,NaN,cat,bottle,2-0-10,0144_eid_dnn_2-0-10_bottle_10_n03937543_7763.png,n03937543_7763.png,0.0,-5.747084,-2.9306347,-1.9915305
alexnet_w1_mlp_simclrhn_probe0,1,145,NaN,oven,bird,32-0-10,0145_eid_dnn_32-0-10_bird_10_n01843383_91.png,n01843383_91.png,0.0,-2.9113777,-0.5230368,-1.6888121
alexnet_w1_mlp_simclrhn_probe0,1,146,NaN,bottle,clock,4-0-10,0146_eid_dnn_4-0-10_clock_10_n04548280_28.png,n04548280_28.png,0.0,-2.6214194,-1.2283753,-0.98503095
alexnet_w1_mlp_simclrhn_probe0,1,147,NaN,bear,knife,16-0-10,0147_eid_dnn_16-0-10_knife_10_n03041632_102828.png,n03041632_102828.png,0.0,-5.5996585,0.33694577,-4.1978135
alexnet_w1_mlp_simclrhn_probe0,1,148,NaN,oven,car,128-0-10,0148_eid_dnn_128-0-10_car_10_n03100240_7520.png,n03100240_7520.png,0.0,-11.643612,-0.17850304,-8.107057
alexnet_w1_mlp_simclrhn_probe0,1,149,NaN,oven,knife,16-0-10,0149_eid_dnn_16-0-10_knife_10_n03041632_53874.png,n03041632_53874.png,0.0,-4.485716,-1.0922704,-2.3995283
alexnet_w1_mlp_simclrhn_probe0,1,150,NaN,oven,boat,16-0-10,0150_eid_dnn_16-0-10_boat_10_n04273569_3896.png,n04273569_3896.png,0.0,-8.013262,-1.9279842,-4.3029413
alexnet_w1_mlp_simclrhn_probe0,1,151,NaN,airplane,airplane,2-0-10,0151_eid_dnn_2-0-10_airplane_10_n02690373_6002.png,n02690373_6002.png,1.0,4.8013334,-0.65461737,3.8579397
alexnet_w1_mlp_simclrhn_probe0,1,152,NaN,cat,chair,8-0-10,0152_eid_dnn_8-0-10_chair_10_n04099969_7191.png,n04099969_7191.png,0.0,-9.515745,-1.5976473,-5.598941
alexnet_w1_mlp_simclrhn_probe0,1,153,NaN,oven,dog,32-0-10,0153_eid_dnn_32-0-10_dog_10_n02101388_4808.png,n02101388_4808.png,0.0,-1.8893166,0.13576812,-1.4319512
alexnet_w1_mlp_simclrhn_probe0,1,154,NaN,cat,keyboard,16-0-10,0154_eid_dnn_16-0-10_keyboard_10_n03085013_24538.png,n03085013_24538.png,0.0,-10.4289665,-0.47482643,-7.03864
alexnet_w1_mlp_simclrhn_probe0,1,155,NaN,cat,knife,128-0-10,0155_eid_dnn_128-0-10_knife_10_n03041632_85488.png,n03041632_85488.png,0.0,-3.6974196,-1.0245684,-1.8899912
alexnet_w1_mlp_simclrhn_probe0,1,156,NaN,oven,car,4-0-10,0156_eid_dnn_4-0-10_car_10_n04285008_7630.png,n04285008_7630.png,0.0,-8.78952,-4.168736,-3.2673879
alexnet_w1_mlp_simclrhn_probe0,1,157,NaN,cat,airplane,8-0-10,0157_eid_dnn_8-0-10_airplane_10_n02690373_2941.png,n02690373_2941.png,0.0,-5.082586,-2.746087,-1.6521541
alexnet_w1_mlp_simclrhn_probe0,1,158,NaN,oven,bird,64-0-10,0158_eid_dnn_64-0-10_bird_10_n01514859_6021.png,n01514859_6021.png,0.0,-2.6775362,-0.2523408,-1.7148722
alexnet_w1_mlp_simclrhn_probe0,1,159,NaN,oven,clock,64-0-10,0159_eid_dnn_64-0-10_clock_10_n04548280_3293.png,n04548280_3293.png,0.0,-8.299741,0.44590938,-6.1841087
alexnet_w1_mlp_simclrhn_probe0,1,160,NaN,oven,oven,4-0-10,0160_eid_dnn_4-0-10_oven_10_n04111531_4998.png,n04111531_4998.png,1.0,-0.92425215,-2.4781067,1.0987412
alexnet_w1_mlp_simclrhn_probe0,1,161,NaN,bear,bird,128-0-10,0161_eid_dnn_128-0-10_bird_10_n02028035_32993.png,n02028035_32993.png,0.0,-2.962956,0.026201569,-2.1136534
alexnet_w1_mlp_simclrhn_probe0,1,162,NaN,dog,bird,2-0-10,0162_eid_dnn_2-0-10_bird_10_n01843383_7800.png,n01843383_7800.png,0.0,-7.7740135,-5.9355383,-1.2999983
alexnet_w1_mlp_simclrhn_probe0,1,163,NaN,oven,bear,64-0-10,0163_eid_dnn_64-0-10_bear_10_n02132136_15174.png,n02132136_15174.png,0.0,-0.18513861,0.85587835,-0.73611015
alexnet_w1_mlp_simclrhn_probe0,1,164,NaN,oven,oven,4-0-10,0164_eid_dnn_4-0-10_oven_10_n04111531_7266.png,n04111531_7266.png,1.0,-1.8244975,-4.369625,1.799677
alexnet_w1_mlp_simclrhn_probe0,1,165,NaN,cat,cat,128-0-10,0165_eid_dnn_128-0-10_cat_10_n02124075_6464.png,n02124075_6464.png,1.0,0.39405593,0.28906852,0.07423731
alexnet_w1_mlp_simclrhn_probe0,1,166,NaN,bear,bicycle,16-0-10,0166_eid_dnn_16-0-10_bicycle_10_n02835271_4667.png,n02835271_4667.png,0.0,-6.427351,0.38306212,-4.8156896
alexnet_w1_mlp_simclrhn_probe0,1,167,NaN,oven,chair,32-0-10,0167_eid_dnn_32-0-10_chair_10_n04099969_2532.png,n04099969_2532.png,0.0,-6.8910255,-0.58568645,-4.458548
alexnet_w1_mlp_simclrhn_probe0,1,168,NaN,bottle,bottle,4-0-10,0168_eid_dnn_4-0-10_bottle_10_n04560804_15683.png,n04560804_15683.png,1.0,-2.4423087,-3.781607,0.9470269
alexnet_w1_mlp_simclrhn_probe0,1,169,NaN,cat,chair,8-0-10,0169_eid_dnn_8-0-10_chair_10_n04099969_6825.png,n04099969_6825.png,0.0,-9.722347,-2.6328201,-5.013053
alexnet_w1_mlp_simclrhn_probe0,1,170,NaN,oven,oven,1-0-10,0170_eid_dnn_1-0-10_oven_10_n04111531_1612.png,n04111531_1612.png,1.0,-0.8857777,-2.078643,0.8434832
alexnet_w1_mlp_simclrhn_probe0,1,171,NaN,clock,clock,2-0-10,0171_eid_dnn_2-0-10_clock_10_n02708093_1701.png,n02708093_1701.png,1.0,0.6434677,-2.1035254,1.9424175
alexnet_w1_mlp_simclrhn_probe0,1,172,NaN,bear,elephant,32-0-10,0172_eid_dnn_32-0-10_elephant_10_n02504013_782.png,n02504013_782.png,0.0,-0.46723187,0.32758102,-0.5620176
alexnet_w1_mlp_simclrhn_probe0,1,173,NaN,oven,dog,128-0-10,0173_eid_dnn_128-0-10_dog_10_n02107908_8814.png,n02107908_8814.png,0.0,-2.5301156,0.64595366,-2.24582
alexnet_w1_mlp_simclrhn_probe0,1,174,NaN,bear,elephant,4-0-10,0174_eid_dnn_4-0-10_elephant_10_n02504458_5816.png,n02504458_5816.png,0.0,-0.3605159,0.09599423,-0.3228014
alexnet_w1_mlp_simclrhn_probe0,1,175,NaN,car,car,2-0-10,0175_eid_dnn_2-0-10_car_10_n03100240_18788.png,n03100240_18788.png,1.0,2.0200112,-1.6922531,2.6249673
alexnet_w1_mlp_simclrhn_probe0,1,176,NaN,cat,airplane,16-0-10,0176_eid_dnn_16-0-10_airplane_10_n02690373_7915.png,n02690373_7915.png,0.0,-3.298797,-2.3694172,-0.6571707
alexnet_w1_mlp_simclrhn_probe0,1,177,NaN,oven,chair,4-0-10,0177_eid_dnn_4-0-10_chair_10_n04429376_10544.png,n04429376_10544.png,0.0,-5.37701,-0.8394872,-3.2085133
alexnet_w1_mlp_simclrhn_probe0,1,178,NaN,oven,knife,32-0-10,0178_eid_dnn_32-0-10_knife_10_n03041632_24883.png,n03041632_24883.png,0.0,-3.6243587,0.77472234,-3.1106203
alexnet_w1_mlp_simclrhn_probe0,1,179,NaN,oven,bicycle,128-0-10,0179_eid_dnn_128-0-10_bicycle_10_n03792782_10367.png,n03792782_10367.png,0.0,-6.5582075,0.08488637,-4.6973767
alexnet_w1_mlp_simclrhn_probe0,1,180,NaN,oven,oven,1-0-10,0180_eid_dnn_1-0-10_oven_10_n04111531_3121.png,n04111531_3121.png,1.0,-1.336112,-4.33343,2.1194239
alexnet_w1_mlp_simclrhn_probe0,1,181,NaN,oven,car,128-0-10,0181_eid_dnn_128-0-10_car_10_n02814533_10995.png,n02814533_10995.png,0.0,-9.781818,0.34817666,-7.1629887
alexnet_w1_mlp_simclrhn_probe0,1,182,NaN,oven,dog,128-0-10,0182_eid_dnn_128-0-10_dog_10_n02112350_502.png,n02112350_502.png,0.0,-1.2922999,0.9449265,-1.581958
alexnet_w1_mlp_simclrhn_probe0,1,183,NaN,cat,clock,128-0-10,0183_eid_dnn_128-0-10_clock_10_n04548280_5278.png,n04548280_5278.png,0.0,-12.021431,-0.8021245,-7.933248
alexnet_w1_mlp_simclrhn_probe0,1,184,NaN,cat,bird,4-0-10,0184_eid_dnn_4-0-10_bird_10_n02006656_713.png,n02006656_713.png,0.0,-4.9650283,-1.2766677,-2.608065
alexnet_w1_mlp_simclrhn_probe0,1,185,NaN,oven,bottle,128-0-10,0185_eid_dnn_128-0-10_bottle_10_n04557648_4106.png,n04557648_4106.png,0.0,-6.134996,-0.13625711,-4.241749
alexnet_w1_mlp_simclrhn_probe0,1,186,NaN,oven,clock,64-0-10,0186_eid_dnn_64-0-10_clock_10_n02708093_1430.png,n02708093_1430.png,0.0,-7.5305066,-0.46389544,-4.996849
alexnet_w1_mlp_simclrhn_probe0,1,187,NaN,oven,oven,1-0-10,0187_eid_dnn_1-0-10_oven_10_n04111531_7664.png,n04111531_7664.png,1.0,1.8175952,-3.2874532,3.6098142
alexnet_w1_mlp_simclrhn_probe0,1,188,NaN,car,car,1-0-10,0188_eid_dnn_1-0-10_car_10_n02814533_149.png,n02814533_149.png,1.0,3.238362,2.2910557,0.6698468
alexnet_w1_mlp_simclrhn_probe0,1,189,NaN,oven,clock,64-0-10,0189_eid_dnn_64-0-10_clock_10_n04548280_8296.png,n04548280_8296.png,0.0,-7.452753,-0.9785751,-4.577935
alexnet_w1_mlp_simclrhn_probe0,1,190,NaN,oven,bottle,64-0-10,0190_eid_dnn_64-0-10_bottle_10_n04591713_5815.png,n04591713_5815.png,0.0,-5.8293457,-0.47461033,-3.7863698
alexnet_w1_mlp_simclrhn_probe0,1,191,NaN,bottle,knife,2-0-10,0191_eid_dnn_2-0-10_knife_10_n03041632_90125.png,n03041632_90125.png,0.0,-3.3531713,-2.0019317,-0.95547074
alexnet_w1_mlp_simclrhn_probe0,1,192,NaN,oven,bird,64-0-10,0192_eid_dnn_64-0-10_bird_10_n01534433_16586.png,n01534433_16586.png,0.0,-2.793319,-0.28518355,-1.7735195
alexnet_w1_mlp_simclrhn_probe0,1,193,NaN,cat,cat,4-0-10,0193_eid_dnn_4-0-10_cat_10_n02123394_2559.png,n02123394_2559.png,1.0,0.35565162,-1.7786075,1.5091492
alexnet_w1_mlp_simclrhn_probe0,1,194,NaN,elephant,elephant,4-0-10,0194_eid_dnn_4-0-10_elephant_10_n02504458_5995.png,n02504458_5995.png,1.0,0.42104483,-0.09231977,0.3630036
alexnet_w1_mlp_simclrhn_probe0,1,195,NaN,car,car,2-0-10,0195_eid_dnn_2-0-10_car_10_n02814533_211.png,n02814533_211.png,1.0,3.8957565,2.4350019,1.0329095
alexnet_w1_mlp_simclrhn_probe0,1,196,NaN,chair,chair,1-0-10,0196_eid_dnn_1-0-10_chair_10_n04429376_13328.png,n04429376_13328.png,1.0,-0.5501138,-2.6758657,1.5031337
alexnet_w1_mlp_simclrhn_probe0,1,197,NaN,bear,keyboard,16-0-10,0197_eid_dnn_16-0-10_keyboard_10_n03085013_24618.png,n03085013_24618.png,0.0,-10.231224,-0.65035737,-6.774696
alexnet_w1_mlp_simclrhn_probe0,1,198,NaN,oven,oven,4-0-10,0198_eid_dnn_4-0-10_oven_10_n04111531_2186.png,n04111531_2186.png,1.0,-1.4602484,-2.805351,0.9511312
alexnet_w1_mlp_simclrhn_probe0,1,199,NaN,bear,oven,8-0-10,0199_eid_dnn_8-0-10_oven_10_n04111531_114.png,n04111531_114.png,0.0,-1.0934721,-0.70092297,-0.27757418
alexnet_w1_mlp_simclrhn_probe0,1,200,NaN,car,car,1-0-10,0200_eid_dnn_1-0-10_car_10_n03100240_1745.png,n03100240_1745.png,1.0,5.150854,1.5288662,2.5611322
alexnet_w1_mlp_simclrhn_probe0,1,201,NaN,cat,cat,4-0-10,0201_eid_dnn_4-0-10_cat_10_n02123394_1259.png,n02123394_1259.png,1.0,-0.25903806,-2.4826663,1.5723426
alexnet_w1_mlp_simclrhn_probe0,1,202,NaN,cat,oven,4-0-10,0202_eid_dnn_4-0-10_oven_10_n04111531_5801.png,n04111531_5801.png,0.0,-2.311488,-2.1787117,-0.093886994
alexnet_w1_mlp_simclrhn_probe0,1,203,NaN,bear,airplane,32-0-10,0203_eid_dnn_32-0-10_airplane_10_n02690373_2024.png,n02690373_2024.png,0.0,-7.0358086,-2.384223,-3.289168
alexnet_w1_mlp_simclrhn_probe0,1,204,NaN,cat,cat,8-0-10,0204_eid_dnn_8-0-10_cat_10_n02123045_12181.png,n02123045_12181.png,1.0,0.2198389,-0.94390553,0.8228916
alexnet_w1_mlp_simclrhn_probe0,1,205,NaN,oven,airplane,64-0-10,0205_eid_dnn_64-0-10_airplane_10_n02690373_3313.png,n02690373_3313.png,0.0,-10.709417,-0.37753022,-7.3057475
alexnet_w1_mlp_simclrhn_probe0,1,206,NaN,oven,truck,64-0-10,0206_eid_dnn_64-0-10_truck_10_n04467665_80465.png,n04467665_80465.png,0.0,-5.8372154,-1.1666028,-3.3026216
alexnet_w1_mlp_simclrhn_probe0,1,207,NaN,elephant,elephant,2-0-10,0207_eid_dnn_2-0-10_elephant_10_n02504013_8626.png,n02504013_8626.png,1.0,-3.8393512,-4.451176,0.4326256
alexnet_w1_mlp_simclrhn_probe0,1,208,NaN,oven,car,16-0-10,0208_eid_dnn_16-0-10_car_10_n04285008_7904.png,n04285008_7904.png,0.0,-11.89518,-0.36034882,-8.156358
alexnet_w1_mlp_simclrhn_probe0,1,209,NaN,oven,airplane,8-0-10,0209_eid_dnn_8-0-10_airplane_10_n02690373_6363.png,n02690373_6363.png,0.0,-7.7708373,-2.0895176,-4.0172997
alexnet_w1_mlp_simclrhn_probe0,1,210,NaN,cat,cat,4-0-10,0210_eid_dnn_4-0-10_cat_10_n02123045_7294.png,n02123045_7294.png,1.0,-1.6017121,-3.0603604,1.0314201
alexnet_w1_mlp_simclrhn_probe0,1,211,NaN,cat,airplane,128-0-10,0211_eid_dnn_128-0-10_airplane_10_n02690373_6988.png,n02690373_6988.png,0.0,-9.889748,-0.6142306,-6.5587816
alexnet_w1_mlp_simclrhn_probe0,1,212,NaN,knife,cat,4-0-10,0212_eid_dnn_4-0-10_cat_10_n02125311_25749.png,n02125311_25749.png,0.0,-3.23479,-1.9988875,-0.8739151
alexnet_w1_mlp_simclrhn_probe0,1,213,NaN,oven,bird,64-0-10,0213_eid_dnn_64-0-10_bird_10_n02018207_12980.png,n02018207_12980.png,0.0,-5.6222053,0.28768814,-4.178926
alexnet_w1_mlp_simclrhn_probe0,1,214,NaN,bear,cat,32-0-10,0214_eid_dnn_32-0-10_cat_10_n02123394_2814.png,n02123394_2814.png,0.0,-1.0715522,0.39586955,-1.0376239
alexnet_w1_mlp_simclrhn_probe0,1,215,NaN,oven,car,4-0-10,0215_eid_dnn_4-0-10_car_10_n04285008_662.png,n04285008_662.png,0.0,-4.5213566,-4.491961,-0.020785814
alexnet_w1_mlp_simclrhn_probe0,1,216,NaN,dog,bicycle,2-0-10,0216_eid_dnn_2-0-10_bicycle_10_n03792782_11679.png,n03792782_11679.png,0.0,-4.072471,-1.5612241,-1.7757199
alexnet_w1_mlp_simclrhn_probe0,1,217,NaN,cat,dog,16-0-10,0217_eid_dnn_16-0-10_dog_10_n02093428_17769.png,n02093428_17769.png,0.0,-2.3000605,-0.87578297,-1.0071163
alexnet_w1_mlp_simclrhn_probe0,1,218,NaN,oven,dog,64-0-10,0218_eid_dnn_64-0-10_dog_10_n02106030_17418.png,n02106030_17418.png,0.0,-1.5592617,0.9081666,-1.7447352
alexnet_w1_mlp_simclrhn_probe0,1,219,NaN,oven,chair,64-0-10,0219_eid_dnn_64-0-10_chair_10_n02791124_7142.png,n02791124_7142.png,0.0,-9.605667,1.8222591,-8.080764
alexnet_w1_mlp_simclrhn_probe0,1,220,NaN,elephant,bear,1-0-10,0220_eid_dnn_1-0-10_bear_10_n02134084_18083.png,n02134084_18083.png,0.0,-2.0020244,-1.8886378,-0.08017646
alexnet_w1_mlp_simclrhn_probe0,1,221,NaN,keyboard,keyboard,2-0-10,0221_eid_dnn_2-0-10_keyboard_10_n03085013_7536.png,n03085013_7536.png,1.0,0.6445959,-1.407116,1.4507796
alexnet_w1_mlp_simclrhn_probe0,1,222,NaN,elephant,bird,1-0-10,0222_eid_dnn_1-0-10_bird_10_n01616318_2473.png,n01616318_2473.png,0.0,-3.425188,-1.3265071,-1.4839916
alexnet_w1_mlp_simclrhn_probe0,1,223,NaN,elephant,elephant,1-0-10,0223_eid_dnn_1-0-10_elephant_10_n02504458_5951.png,n02504458_5951.png,1.0,2.5585153,-1.38061,2.7853823
alexnet_w1_mlp_simclrhn_probe0,1,224,NaN,airplane,airplane,4-0-10,0224_eid_dnn_4-0-10_airplane_10_n02690373_5164.png,n02690373_5164.png,1.0,0.42230922,-2.7869565,2.2692935
alexnet_w1_mlp_simclrhn_probe0,1,225,NaN,elephant,elephant,4-0-10,0225_eid_dnn_4-0-10_elephant_10_n02504013_1865.png,n02504013_1865.png,1.0,0.23984629,-2.0256,1.6019124
alexnet_w1_mlp_simclrhn_probe0,1,226,NaN,knife,knife,1-0-10,0226_eid_dnn_1-0-10_knife_10_n03041632_56454.png,n03041632_56454.png,1.0,-1.574304,-2.918377,0.9504031
alexnet_w1_mlp_simclrhn_probe0,1,227,NaN,oven,bird,64-0-10,0227_eid_dnn_64-0-10_bird_10_n01824575_5820.png,n01824575_5820.png,0.0,-4.3839192,0.6374239,-3.5506258
alexnet_w1_mlp_simclrhn_probe0,1,228,NaN,oven,oven,4-0-10,0228_eid_dnn_4-0-10_oven_10_n04111531_4332.png,n04111531_4332.png,1.0,-0.442214,-3.124113,1.896389
alexnet_w1_mlp_simclrhn_probe0,1,229,NaN,truck,truck,2-0-10,0229_eid_dnn_2-0-10_truck_10_n04467665_41352.png,n04467665_41352.png,1.0,3.1253085,-1.1839504,3.0471063
alexnet_w1_mlp_simclrhn_probe0,1,230,NaN,bird,bird,8-0-10,0230_eid_dnn_8-0-10_bird_10_n01514859_5668.png,n01514859_5668.png,1.0,-2.0722842,-2.5333686,0.3260359
alexnet_w1_mlp_simclrhn_probe0,1,231,NaN,oven,oven,32-0-10,0231_eid_dnn_32-0-10_oven_10_n04111531_4438.png,n04111531_4438.png,1.0,-1.9391942,-1.9535258,0.010133957
alexnet_w1_mlp_simclrhn_probe0,1,232,NaN,cat,cat,1-0-10,0232_eid_dnn_1-0-10_cat_10_n02123394_6693.png,n02123394_6693.png,1.0,0.53182524,-0.76676035,0.91823876
alexnet_w1_mlp_simclrhn_probe0,1,233,NaN,oven,elephant,32-0-10,0233_eid_dnn_32-0-10_elephant_10_n02504458_6302.png,n02504458_6302.png,0.0,-0.6368025,0.2737764,-0.64387655
alexnet_w1_mlp_simclrhn_probe0,1,234,NaN,oven,bottle,16-0-10,0234_eid_dnn_16-0-10_bottle_10_n03937543_2329.png,n03937543_2329.png,0.0,-7.117652,0.53883076,-5.413951
alexnet_w1_mlp_simclrhn_probe0,1,235,NaN,bear,elephant,16-0-10,0235_eid_dnn_16-0-10_elephant_10_n02504458_5155.png,n02504458_5155.png,0.0,0.50932086,0.6139313,-0.07397076
alexnet_w1_mlp_simclrhn_probe0,1,236,NaN,oven,bear,1-0-10,0236_eid_dnn_1-0-10_bear_10_n02134084_1694.png,n02134084_1694.png,0.0,-2.8949928,-0.98140484,-1.3531111
alexnet_w1_mlp_simclrhn_probe0,1,237,NaN,oven,bear,128-0-10,0237_eid_dnn_128-0-10_bear_10_n02133161_1624.png,n02133161_1624.png,0.0,-4.16237,-0.8378546,-2.3507876
alexnet_w1_mlp_simclrhn_probe0,1,238,NaN,bear,bear,64-0-10,0238_eid_dnn_64-0-10_bear_10_n02132136_11027.png,n02132136_11027.png,1.0,1.1521603,0.40932816,0.52526164
alexnet_w1_mlp_simclrhn_probe0,1,239,NaN,oven,elephant,64-0-10,0239_eid_dnn_64-0-10_elephant_10_n02504013_24621.png,n02504013_24621.png,0.0,-2.5274076,1.6480513,-2.9524953
alexnet_w1_mlp_simclrhn_probe0,1,240,NaN,bear,knife,16-0-10,0240_eid_dnn_16-0-10_knife_10_n03041632_27134.png,n03041632_27134.png,0.0,-6.831445,-0.17209893,-4.708869
alexnet_w1_mlp_simclrhn_probe0,1,241,NaN,oven,keyboard,32-0-10,0241_eid_dnn_32-0-10_keyboard_10_n03085013_24316.png,n03085013_24316.png,0.0,-9.102111,0.4806108,-6.7760077
alexnet_w1_mlp_simclrhn_probe0,1,242,NaN,cat,cat,2-0-10,0242_eid_dnn_2-0-10_cat_10_n02123159_3026.png,n02123159_3026.png,1.0,-1.0617284,-3.9176264,2.019425
alexnet_w1_mlp_simclrhn_probe0,1,243,NaN,cat,bicycle,128-0-10,0243_eid_dnn_128-0-10_bicycle_10_n03792782_1475.png,n03792782_1475.png,0.0,-11.566742,-0.5106768,-7.817819
alexnet_w1_mlp_simclrhn_probe0,1,244,NaN,cat,cat,16-0-10,0244_eid_dnn_16-0-10_cat_10_n02123045_20507.png,n02123045_20507.png,1.0,0.8921757,-0.3949992,0.91017014
alexnet_w1_mlp_simclrhn_probe0,1,245,NaN,oven,boat,64-0-10,0245_eid_dnn_64-0-10_boat_10_n02951358_23759.png,n02951358_23759.png,0.0,-7.112872,0.6291814,-5.4744587
alexnet_w1_mlp_simclrhn_probe0,1,246,NaN,bear,bear,16-0-10,0246_eid_dnn_16-0-10_bear_10_n02132136_1858.png,n02132136_1858.png,1.0,0.38958958,-0.16927421,0.39517635
alexnet_w1_mlp_simclrhn_probe0,1,247,NaN,cat,boat,128-0-10,0247_eid_dnn_128-0-10_boat_10_n02951358_6465.png,n02951358_6465.png,0.0,-8.69917,-0.7070653,-5.651272
alexnet_w1_mlp_simclrhn_probe0,1,248,NaN,bird,airplane,128-0-10,0248_eid_dnn_128-0-10_airplane_10_n02690373_6223.png,n02690373_6223.png,0.0,-10.924442,-1.4257542,-6.7165866
alexnet_w1_mlp_simclrhn_probe0,1,249,NaN,oven,boat,128-0-10,0249_eid_dnn_128-0-10_boat_10_n03344393_2412.png,n03344393_2412.png,0.0,-7.087453,0.009178758,-5.0180764
alexnet_w1_mlp_simclrhn_probe0,1,250,NaN,oven,knife,8-0-10,0250_eid_dnn_8-0-10_knife_10_n03041632_6446.png,n03041632_6446.png,0.0,-4.913927,-1.0406573,-2.7388153
alexnet_w1_mlp_simclrhn_probe0,1,251,NaN,oven,bottle,64-0-10,0251_eid_dnn_64-0-10_bottle_10_n04591713_7940.png,n04591713_7940.png,0.0,-6.9411936,-0.32338572,-4.679497
alexnet_w1_mlp_simclrhn_probe0,1,252,NaN,cat,cat,4-0-10,0252_eid_dnn_4-0-10_cat_10_n02124075_13568.png,n02124075_13568.png,1.0,0.6646715,-2.240324,2.054142
alexnet_w1_mlp_simclrhn_probe0,1,253,NaN,truck,boat,2-0-10,0253_eid_dnn_2-0-10_boat_10_n03662601_2171.png,n03662601_2171.png,0.0,-3.1849785,-2.382671,-0.567317
alexnet_w1_mlp_simclrhn_probe0,1,254,NaN,elephant,elephant,1-0-10,0254_eid_dnn_1-0-10_elephant_10_n02504458_415.png,n02504458_415.png,1.0,-1.5985526,-1.9213548,0.22825561
alexnet_w1_mlp_simclrhn_probe0,1,255,NaN,oven,car,16-0-10,0255_eid_dnn_16-0-10_car_10_n03100240_3386.png,n03100240_3386.png,0.0,-7.9541473,-1.2840602,-4.7164636
alexnet_w1_mlp_simclrhn_probe0,1,256,NaN,dog,bird,16-0-10,0256_eid_dnn_16-0-10_bird_10_n02056570_6633.png,n02056570_6633.png,0.0,-7.084831,-3.731445,-2.3712022
alexnet_w1_mlp_simclrhn_probe0,1,257,NaN,oven,bottle,32-0-10,0257_eid_dnn_32-0-10_bottle_10_n02823428_4232.png,n02823428_4232.png,0.0,-4.2458563,1.1042132,-3.7830706
alexnet_w1_mlp_simclrhn_probe0,1,258,NaN,cat,boat,128-0-10,0258_eid_dnn_128-0-10_boat_10_n04273569_2396.png,n04273569_2396.png,0.0,-7.641716,-1.6595578,-4.230025
alexnet_w1_mlp_simclrhn_probe0,1,259,NaN,knife,knife,1-0-10,0259_eid_dnn_1-0-10_knife_10_n03041632_38996.png,n03041632_38996.png,1.0,-1.2498331,-2.9829953,1.2255307
alexnet_w1_mlp_simclrhn_probe0,1,260,NaN,bear,oven,8-0-10,0260_eid_dnn_8-0-10_oven_10_n04111531_10420.png,n04111531_10420.png,0.0,-0.8848562,-0.78000724,-0.07413942
alexnet_w1_mlp_simclrhn_probe0,1,261,NaN,oven,dog,128-0-10,0261_eid_dnn_128-0-10_dog_10_n02094114_2394.png,n02094114_2394.png,0.0,-1.9999115,0.5564479,-1.8076192
alexnet_w1_mlp_simclrhn_probe0,1,262,NaN,oven,elephant,128-0-10,0262_eid_dnn_128-0-10_elephant_10_n02504013_4247.png,n02504013_4247.png,0.0,-1.9373968,-0.23134363,-1.2063618
alexnet_w1_mlp_simclrhn_probe0,1,263,NaN,oven,chair,32-0-10,0263_eid_dnn_32-0-10_chair_10_n03376595_8137.png,n03376595_8137.png,0.0,-5.297312,-0.116346955,-3.6634955
alexnet_w1_mlp_simclrhn_probe0,1,264,NaN,bear,airplane,128-0-10,0264_eid_dnn_128-0-10_airplane_10_n02690373_8524.png,n02690373_8524.png,0.0,-17.996899,0.26434404,-12.912648
alexnet_w1_mlp_simclrhn_probe0,1,265,NaN,oven,car,64-0-10,0265_eid_dnn_64-0-10_car_10_n03100240_18410.png,n03100240_18410.png,0.0,-9.015314,0.4211477,-6.672586
alexnet_w1_mlp_simclrhn_probe0,1,266,NaN,oven,clock,64-0-10,0266_eid_dnn_64-0-10_clock_10_n04548280_2588.png,n04548280_2588.png,0.0,-11.174418,3.1226737,-10.109571
alexnet_w1_mlp_simclrhn_probe0,1,267,NaN,oven,keyboard,32-0-10,0267_eid_dnn_32-0-10_keyboard_10_n03085013_24030.png,n03085013_24030.png,0.0,-11.750981,-0.861637,-7.699929
alexnet_w1_mlp_simclrhn_probe0,1,268,NaN,clock,clock,2-0-10,0268_eid_dnn_2-0-10_clock_10_n03196217_6375.png,n03196217_6375.png,1.0,0.8555885,0.07152738,0.5544149
alexnet_w1_mlp_simclrhn_probe0,1,269,NaN,oven,airplane,32-0-10,0269_eid_dnn_32-0-10_airplane_10_n02690373_4150.png,n02690373_4150.png,0.0,-7.759989,-0.5530911,-5.0960464
alexnet_w1_mlp_simclrhn_probe0,1,270,NaN,cat,dog,4-0-10,0270_eid_dnn_4-0-10_dog_10_n02086646_6567.png,n02086646_6567.png,0.0,-2.0466585,-1.0994545,-0.66977435
alexnet_w1_mlp_simclrhn_probe0,1,271,NaN,oven,clock,64-0-10,0271_eid_dnn_64-0-10_clock_10_n03196217_775.png,n03196217_775.png,0.0,-14.775051,2.2278454,-12.022864
alexnet_w1_mlp_simclrhn_probe0,1,272,NaN,car,car,1-0-10,0272_eid_dnn_1-0-10_car_10_n02814533_57353.png,n02814533_57353.png,1.0,6.6166077,5.9386535,0.47938603
alexnet_w1_mlp_simclrhn_probe0,1,273,NaN,oven,bottle,16-0-10,0273_eid_dnn_16-0-10_bottle_10_n04560804_183.png,n04560804_183.png,0.0,-4.9422755,0.20625329,-3.64056
alexnet_w1_mlp_simclrhn_probe0,1,274,NaN,car,car,2-0-10,0274_eid_dnn_2-0-10_car_10_n04285008_10631.png,n04285008_10631.png,1.0,2.5378096,-2.7521684,3.7405794
alexnet_w1_mlp_simclrhn_probe0,1,275,NaN,bear,bear,2-0-10,0275_eid_dnn_2-0-10_bear_10_n02132136_10057.png,n02132136_10057.png,1.0,5.669135,2.8478675,1.9949375
alexnet_w1_mlp_simclrhn_probe0,1,276,NaN,oven,boat,128-0-10,0276_eid_dnn_128-0-10_boat_10_n04273569_4605.png,n04273569_4605.png,0.0,-9.764496,-0.7320866,-6.386878
alexnet_w1_mlp_simclrhn_probe0,1,277,NaN,oven,cat,64-0-10,0277_eid_dnn_64-0-10_cat_10_n02123597_12711.png,n02123597_12711.png,0.0,-0.89451057,0.9438552,-1.2999209
alexnet_w1_mlp_simclrhn_probe0,1,278,NaN,bottle,bottle,1-0-10,0278_eid_dnn_1-0-10_bottle_10_n04560804_5610.png,n04560804_5610.png,1.0,-0.63499933,-5.4022107,3.3709276
alexnet_w1_mlp_simclrhn_probe0,1,279,NaN,bear,clock,32-0-10,0279_eid_dnn_32-0-10_clock_10_n04548280_8412.png,n04548280_8412.png,0.0,-8.822906,-0.38540864,-5.9662113
alexnet_w1_mlp_simclrhn_probe0,1,280,NaN,cat,cat,2-0-10,0280_eid_dnn_2-0-10_cat_10_n02123597_13834.png,n02123597_13834.png,1.0,-1.5555145,-2.7271552,0.8284751
alexnet_w1_mlp_simclrhn_probe0,1,281,NaN,oven,dog,128-0-10,0281_eid_dnn_128-0-10_dog_10_n02091831_538.png,n02091831_538.png,0.0,-2.2272494,-0.9315289,-0.91621274
alexnet_w1_mlp_simclrhn_probe0,1,282,NaN,bear,bicycle,32-0-10,0282_eid_dnn_32-0-10_bicycle_10_n03792782_10437.png,n03792782_10437.png,0.0,-1.3471043,-1.0496497,-0.21033217
alexnet_w1_mlp_simclrhn_probe0,1,283,NaN,bear,bear,2-0-10,0283_eid_dnn_2-0-10_bear_10_n02132136_2372.png,n02132136_2372.png,1.0,1.1936886,0.2958818,0.6348453
alexnet_w1_mlp_simclrhn_probe0,1,284,NaN,elephant,bicycle,128-0-10,0284_eid_dnn_128-0-10_bicycle_10_n03792782_4540.png,n03792782_4540.png,0.0,-2.9707463,-2.9444313,-0.018607497
alexnet_w1_mlp_simclrhn_probe0,1,285,NaN,elephant,elephant,2-0-10,0285_eid_dnn_2-0-10_elephant_10_n02504013_10152.png,n02504013_10152.png,1.0,-0.4809622,-1.7848713,0.92200303
alexnet_w1_mlp_simclrhn_probe0,1,286,NaN,oven,boat,64-0-10,0286_eid_dnn_64-0-10_boat_10_n02951358_7603.png,n02951358_7603.png,0.0,-8.185192,0.48731983,-6.1323924
alexnet_w1_mlp_simclrhn_probe0,1,287,NaN,bear,bear,2-0-10,0287_eid_dnn_2-0-10_bear_10_n02133161_9371.png,n02133161_9371.png,1.0,0.6495347,-1.4041834,1.452198
alexnet_w1_mlp_simclrhn_probe0,1,288,NaN,bear,truck,8-0-10,0288_eid_dnn_8-0-10_truck_10_n04467665_69892.png,n04467665_69892.png,0.0,-7.3074455,0.31487986,-5.389798
alexnet_w1_mlp_simclrhn_probe0,1,289,NaN,knife,knife,1-0-10,0289_eid_dnn_1-0-10_knife_10_n03041632_19275.png,n03041632_19275.png,1.0,-3.0487466,-5.450367,1.6982021
alexnet_w1_mlp_simclrhn_probe0,1,290,NaN,oven,keyboard,16-0-10,0290_eid_dnn_16-0-10_keyboard_10_n04505470_9446.png,n04505470_9446.png,0.0,-8.521525,-0.70813316,-5.524903
alexnet_w1_mlp_simclrhn_probe0,1,291,NaN,elephant,elephant,1-0-10,0291_eid_dnn_1-0-10_elephant_10_n02504013_9141.png,n02504013_9141.png,1.0,-2.2046204,-3.7526553,1.094626
alexnet_w1_mlp_simclrhn_probe0,1,292,NaN,oven,bird,128-0-10,0292_eid_dnn_128-0-10_bird_10_n02056570_8553.png,n02056570_8553.png,0.0,-4.4864726,2.285352,-4.7884035
alexnet_w1_mlp_simclrhn_probe0,1,293,NaN,car,car,1-0-10,0293_eid_dnn_1-0-10_car_10_n03100240_9171.png,n03100240_9171.png,1.0,4.577739,1.7924455,1.9694997
alexnet_w1_mlp_simclrhn_probe0,1,294,NaN,bear,dog,8-0-10,0294_eid_dnn_8-0-10_dog_10_n02102177_1533.png,n02102177_1533.png,0.0,-1.173681,-0.83459866,-0.23976745
alexnet_w1_mlp_simclrhn_probe0,1,295,NaN,oven,cat,64-0-10,0295_eid_dnn_64-0-10_cat_10_n02124075_12464.png,n02124075_12464.png,0.0,-0.75322694,0.19867623,-0.6730972
alexnet_w1_mlp_simclrhn_probe0,1,296,NaN,bottle,chair,4-0-10,0296_eid_dnn_4-0-10_chair_10_n04429376_33792.png,n04429376_33792.png,0.0,-6.7244434,-2.5301683,-2.9658003
alexnet_w1_mlp_simclrhn_probe0,1,297,NaN,oven,bear,128-0-10,0297_eid_dnn_128-0-10_bear_10_n02133161_3258.png,n02133161_3258.png,0.0,-3.9894698,0.40969092,-3.1106765
alexnet_w1_mlp_simclrhn_probe0,1,298,NaN,elephant,dog,4-0-10,0298_eid_dnn_4-0-10_dog_10_n02097130_1442.png,n02097130_1442.png,0.0,-3.703792,-0.7474923,-2.0904198
alexnet_w1_mlp_simclrhn_probe0,1,299,NaN,oven,chair,4-0-10,0299_eid_dnn_4-0-10_chair_10_n02791124_8970.png,n02791124_8970.png,0.0,-5.8395534,-3.7097855,-1.5059733
alexnet_w1_mlp_simclrhn_probe0,1,300,NaN,cat,car,8-0-10,0300_eid_dnn_8-0-10_car_10_n04285008_8545.png,n04285008_8545.png,0.0,-8.822461,-2.2993279,-4.6125517
alexnet_w1_mlp_simclrhn_probe0,1,301,NaN,truck,truck,1-0-10,0301_eid_dnn_1-0-10_truck_10_n03417042_2204.png,n03417042_2204.png,1.0,0.04099779,-2.5634587,1.8416288
alexnet_w1_mlp_simclrhn_probe0,1,302,NaN,bear,bear,2-0-10,0302_eid_dnn_2-0-10_bear_10_n02133161_15593.png,n02133161_15593.png,1.0,0.26083833,0.012899384,0.17531931
alexnet_w1_mlp_simclrhn_probe0,1,303,NaN,knife,clock,2-0-10,0303_eid_dnn_2-0-10_clock_10_n04548280_5845.png,n04548280_5845.png,0.0,-4.5523896,-3.6339977,-0.6494012
alexnet_w1_mlp_simclrhn_probe0,1,304,NaN,cat,knife,4-0-10,0304_eid_dnn_4-0-10_knife_10_n03041632_4975.png,n03041632_4975.png,0.0,-4.722567,-2.7484388,-1.3959194
alexnet_w1_mlp_simclrhn_probe0,1,305,NaN,oven,clock,32-0-10,0305_eid_dnn_32-0-10_clock_10_n03196217_4849.png,n03196217_4849.png,0.0,-5.691158,-1.169946,-3.1969795
alexnet_w1_mlp_simclrhn_probe0,1,306,NaN,elephant,bicycle,2-0-10,0306_eid_dnn_2-0-10_bicycle_10_n03792782_15752.png,n03792782_15752.png,0.0,-4.616415,-1.9557303,-1.8813882
alexnet_w1_mlp_simclrhn_probe0,1,307,NaN,cat,bicycle,16-0-10,0307_eid_dnn_16-0-10_bicycle_10_n02835271_29741.png,n02835271_29741.png,0.0,-4.4583073,-2.2687767,-1.548232
alexnet_w1_mlp_simclrhn_probe0,1,308,NaN,cat,chair,4-0-10,0308_eid_dnn_4-0-10_chair_10_n04099969_16619.png,n04099969_16619.png,0.0,-5.4949613,-2.0648656,-2.425444
alexnet_w1_mlp_simclrhn_probe0,1,309,NaN,keyboard,keyboard,4-0-10,0309_eid_dnn_4-0-10_keyboard_10_n04505470_4552.png,n04505470_4552.png,1.0,-0.9101018,-2.8928444,1.4020108
alexnet_w1_mlp_simclrhn_probe0,1,310,NaN,bear,boat,8-0-10,0310_eid_dnn_8-0-10_boat_10_n02951358_13144.png,n02951358_13144.png,0.0,-5.9170594,0.07985124,-4.240456
alexnet_w1_mlp_simclrhn_probe0,1,311,NaN,bear,bird,32-0-10,0311_eid_dnn_32-0-10_bird_10_n01797886_14611.png,n01797886_14611.png,0.0,-1.9288707,-0.041621916,-1.3344864
alexnet_w1_mlp_simclrhn_probe0,1,312,NaN,knife,knife,1-0-10,0312_eid_dnn_1-0-10_knife_10_n03041632_3326.png,n03041632_3326.png,1.0,-1.0942811,-4.399318,2.3370142
alexnet_w1_mlp_simclrhn_probe0,1,313,NaN,bear,elephant,8-0-10,0313_eid_dnn_8-0-10_elephant_10_n02504013_5829.png,n02504013_5829.png,0.0,0.51343125,1.1895887,-0.4781155
alexnet_w1_mlp_simclrhn_probe0,1,314,NaN,oven,dog,16-0-10,0314_eid_dnn_16-0-10_dog_10_n02088094_2292.png,n02088094_2292.png,0.0,-2.5231655,-0.36897272,-1.5232443
alexnet_w1_mlp_simclrhn_probe0,1,315,NaN,oven,oven,8-0-10,0315_eid_dnn_8-0-10_oven_10_n04111531_4944.png,n04111531_4944.png,1.0,1.5714309,-0.8355225,1.7019731
alexnet_w1_mlp_simclrhn_probe0,1,316,NaN,oven,oven,32-0-10,0316_eid_dnn_32-0-10_oven_10_n04111531_669.png,n04111531_669.png,1.0,0.36035597,-0.8956871,0.8881566
alexnet_w1_mlp_simclrhn_probe0,1,317,NaN,oven,car,64-0-10,0317_eid_dnn_64-0-10_car_10_n02814533_6716.png,n02814533_6716.png,0.0,-15.463038,3.8382652,-13.648083
alexnet_w1_mlp_simclrhn_probe0,1,318,NaN,oven,bear,32-0-10,0318_eid_dnn_32-0-10_bear_10_n02132136_26438.png,n02132136_26438.png,0.0,-1.0941459,-0.20648372,-0.62767196
alexnet_w1_mlp_simclrhn_probe0,1,319,NaN,oven,bottle,4-0-10,0319_eid_dnn_4-0-10_bottle_10_n03983396_3027.png,n03983396_3027.png,0.0,-4.157211,-2.581119,-1.1144652
alexnet_w1_mlp_simclrhn_probe0,1,320,NaN,elephant,elephant,2-0-10,0320_eid_dnn_2-0-10_elephant_10_n02504013_9299.png,n02504013_9299.png,1.0,4.247331,-0.30306673,3.2176173
alexnet_w1_mlp_simclrhn_probe0,1,321,NaN,knife,knife,2-0-10,0321_eid_dnn_2-0-10_knife_10_n03041632_13846.png,n03041632_13846.png,1.0,-3.43232,-3.913153,0.34000015
alexnet_w1_mlp_simclrhn_probe0,1,322,NaN,oven,airplane,64-0-10,0322_eid_dnn_64-0-10_airplane_10_n02690373_16250.png,n02690373_16250.png,0.0,-8.6985655,-0.9175215,-5.502029
alexnet_w1_mlp_simclrhn_probe0,1,323,NaN,oven,boat,64-0-10,0323_eid_dnn_64-0-10_boat_10_n03662601_13696.png,n03662601_13696.png,0.0,-13.873647,-2.184291,-8.265623
alexnet_w1_mlp_simclrhn_probe0,1,324,NaN,cat,cat,1-0-10,0324_eid_dnn_1-0-10_cat_10_n02123597_5692.png,n02123597_5692.png,1.0,-1.2693424,-1.9836164,0.50506794
alexnet_w1_mlp_simclrhn_probe0,1,325,NaN,elephant,clock,8-0-10,0325_eid_dnn_8-0-10_clock_10_n02708093_3171.png,n02708093_3171.png,0.0,-11.291138,-1.3985028,-6.9951496
alexnet_w1_mlp_simclrhn_probe0,1,326,NaN,oven,keyboard,128-0-10,0326_eid_dnn_128-0-10_keyboard_10_n04505470_4902.png,n04505470_4902.png,0.0,-7.7236123,0.99744827,-6.1667213
alexnet_w1_mlp_simclrhn_probe0,1,327,NaN,cat,dog,2-0-10,0327_eid_dnn_2-0-10_dog_10_n02113624_1170.png,n02113624_1170.png,0.0,-1.7848808,-0.5711987,-0.8582028
alexnet_w1_mlp_simclrhn_probe0,1,328,NaN,clock,clock,2-0-10,0328_eid_dnn_2-0-10_clock_10_n03196217_1272.png,n03196217_1272.png,1.0,-0.80564207,-2.6676166,1.3166147
alexnet_w1_mlp_simclrhn_probe0,1,329,NaN,oven,cat,128-0-10,0329_eid_dnn_128-0-10_cat_10_n02123394_8946.png,n02123394_8946.png,0.0,-0.10424453,1.3147366,-1.0033711
alexnet_w1_mlp_simclrhn_probe0,1,330,NaN,cat,car,8-0-10,0330_eid_dnn_8-0-10_car_10_n03100240_7134.png,n03100240_7134.png,0.0,-6.7212677,-3.3281596,-2.3992898
alexnet_w1_mlp_simclrhn_probe0,1,331,NaN,bicycle,bicycle,4-0-10,0331_eid_dnn_4-0-10_bicycle_10_n03792782_16034.png,n03792782_16034.png,1.0,-2.5158122,-2.803049,0.20310718
alexnet_w1_mlp_simclrhn_probe0,1,332,NaN,bear,dog,8-0-10,0332_eid_dnn_8-0-10_dog_10_n02104029_5465.png,n02104029_5465.png,0.0,-2.8600564,-1.6860583,-0.830142
alexnet_w1_mlp_simclrhn_probe0,1,333,NaN,bottle,keyboard,4-0-10,0333_eid_dnn_4-0-10_keyboard_10_n04505470_5011.png,n04505470_5011.png,0.0,0.46396852,0.54192644,-0.05512458
alexnet_w1_mlp_simclrhn_probe0,1,334,NaN,cat,bird,8-0-10,0334_eid_dnn_8-0-10_bird_10_n02009912_27132.png,n02009912_27132.png,0.0,-1.7779775,-0.3333535,-1.0215034
alexnet_w1_mlp_simclrhn_probe0,1,335,NaN,oven,knife,64-0-10,0335_eid_dnn_64-0-10_knife_10_n03041632_3171.png,n03041632_3171.png,0.0,-3.723681,0.18180227,-2.7615938
alexnet_w1_mlp_simclrhn_probe0,1,336,NaN,oven,bear,32-0-10,0336_eid_dnn_32-0-10_bear_10_n02134084_21170.png,n02134084_21170.png,0.0,-0.47335723,0.5799278,-0.74478495
alexnet_w1_mlp_simclrhn_probe0,1,337,NaN,dog,dog,4-0-10,0337_eid_dnn_4-0-10_dog_10_n02086079_29044.png,n02086079_29044.png,1.0,-1.6715024,-2.0900419,0.29595214
alexnet_w1_mlp_simclrhn_probe0,1,338,NaN,cat,cat,4-0-10,0338_eid_dnn_4-0-10_cat_10_n02124075_8465.png,n02124075_8465.png,1.0,0.094317116,-1.5276462,1.1469012
alexnet_w1_mlp_simclrhn_probe0,1,339,NaN,oven,bird,128-0-10,0339_eid_dnn_128-0-10_bird_10_n01855032_982.png,n01855032_982.png,0.0,-2.8781636,-0.9931146,-1.3329309
alexnet_w1_mlp_simclrhn_probe0,1,340,NaN,bear,truck,32-0-10,0340_eid_dnn_32-0-10_truck_10_n03417042_6373.png,n03417042_6373.png,0.0,-8.71457,0.6834254,-6.645386
alexnet_w1_mlp_simclrhn_probe0,1,341,NaN,cat,airplane,16-0-10,0341_eid_dnn_16-0-10_airplane_10_n02690373_9959.png,n02690373_9959.png,0.0,-12.145953,-0.7605061,-8.050727
alexnet_w1_mlp_simclrhn_probe0,1,342,NaN,oven,clock,32-0-10,0342_eid_dnn_32-0-10_clock_10_n04548280_2260.png,n04548280_2260.png,0.0,-8.579678,-0.15138096,-5.9597063
alexnet_w1_mlp_simclrhn_probe0,1,343,NaN,cat,bottle,16-0-10,0343_eid_dnn_16-0-10_bottle_10_n03983396_5281.png,n03983396_5281.png,0.0,-2.6512332,-1.1588509,-1.0552737
alexnet_w1_mlp_simclrhn_probe0,1,344,NaN,cat,cat,4-0-10,0344_eid_dnn_4-0-10_cat_10_n02123159_1113.png,n02123159_1113.png,1.0,1.6273817,-1.318846,2.0832975
alexnet_w1_mlp_simclrhn_probe0,1,345,NaN,oven,keyboard,64-0-10,0345_eid_dnn_64-0-10_keyboard_10_n03085013_20460.png,n03085013_20460.png,0.0,-7.119584,0.049414128,-5.0692472
alexnet_w1_mlp_simclrhn_probe0,1,346,NaN,oven,clock,8-0-10,0346_eid_dnn_8-0-10_clock_10_n03196217_884.png,n03196217_884.png,0.0,-11.846637,-0.6777731,-7.897579
alexnet_w1_mlp_simclrhn_probe0,1,347,NaN,cat,clock,8-0-10,0347_eid_dnn_8-0-10_clock_10_n03196217_6257.png,n03196217_6257.png,0.0,-11.319636,-2.8448374,-5.992588
alexnet_w1_mlp_simclrhn_probe0,1,348,NaN,oven,dog,32-0-10,0348_eid_dnn_32-0-10_dog_10_n02113624_2109.png,n02113624_2109.png,0.0,-1.1237311,1.9085257,-2.1441295
alexnet_w1_mlp_simclrhn_probe0,1,349,NaN,keyboard,keyboard,1-0-10,0349_eid_dnn_1-0-10_keyboard_10_n03085013_20416.png,n03085013_20416.png,1.0,1.03774,-2.072947,2.1995878
alexnet_w1_mlp_simclrhn_probe0,1,350,NaN,bird,bird,2-0-10,0350_eid_dnn_2-0-10_bird_10_n01820546_4609.png,n01820546_4609.png,1.0,-3.1662123,-3.3671281,0.14206894
alexnet_w1_mlp_simclrhn_probe0,1,351,NaN,oven,cat,64-0-10,0351_eid_dnn_64-0-10_cat_10_n02125311_47792.png,n02125311_47792.png,0.0,-2.3771937,1.1468843,-2.4918995
alexnet_w1_mlp_simclrhn_probe0,1,352,NaN,bear,boat,16-0-10,0352_eid_dnn_16-0-10_boat_10_n04612504_1491.png,n04612504_1491.png,0.0,-4.314134,-1.6467444,-1.8861295
alexnet_w1_mlp_simclrhn_probe0,1,353,NaN,bear,truck,16-0-10,0353_eid_dnn_16-0-10_truck_10_n03417042_910.png,n03417042_910.png,0.0,-9.733515,0.37124074,-7.145141
alexnet_w1_mlp_simclrhn_probe0,1,354,NaN,oven,airplane,64-0-10,0354_eid_dnn_64-0-10_airplane_10_n02690373_2038.png,n02690373_2038.png,0.0,-9.00735,-0.015647292,-6.358094
alexnet_w1_mlp_simclrhn_probe0,1,355,NaN,cat,cat,2-0-10,0355_eid_dnn_2-0-10_cat_10_n02123394_8164.png,n02123394_8164.png,1.0,-0.460924,-1.0237356,0.3979679
alexnet_w1_mlp_simclrhn_probe0,1,356,NaN,oven,oven,2-0-10,0356_eid_dnn_2-0-10_oven_10_n04111531_22097.png,n04111531_22097.png,1.0,4.1121507,-1.7424215,4.1398077
alexnet_w1_mlp_simclrhn_probe0,1,357,NaN,oven,bear,128-0-10,0357_eid_dnn_128-0-10_bear_10_n02134418_278.png,n02134418_278.png,0.0,-1.5262215,0.70584834,-1.5783118
alexnet_w1_mlp_simclrhn_probe0,1,358,NaN,bird,bird,4-0-10,0358_eid_dnn_4-0-10_bird_10_n01592084_9109.png,n01592084_9109.png,1.0,-1.3820759,-2.9517975,1.1099608
alexnet_w1_mlp_simclrhn_probe0,1,359,NaN,oven,clock,32-0-10,0359_eid_dnn_32-0-10_clock_10_n03196217_3695.png,n03196217_3695.png,0.0,-6.9489417,0.06422895,-4.9590607
alexnet_w1_mlp_simclrhn_probe0,1,360,NaN,oven,elephant,128-0-10,0360_eid_dnn_128-0-10_elephant_10_n02504458_8939.png,n02504458_8939.png,0.0,-3.0330372,-0.054317057,-2.1062732
alexnet_w1_mlp_simclrhn_probe0,1,361,NaN,boat,elephant,2-0-10,0361_eid_dnn_2-0-10_elephant_10_n02504013_7926.png,n02504013_7926.png,0.0,-3.72975,-2.2925282,-1.0162693
alexnet_w1_mlp_simclrhn_probe0,1,362,NaN,elephant,bear,4-0-10,0362_eid_dnn_4-0-10_bear_10_n02133161_11816.png,n02133161_11816.png,0.0,-1.5536577,-0.71025157,-0.59637815
alexnet_w1_mlp_simclrhn_probe0,1,363,NaN,cat,bird,2-0-10,0363_eid_dnn_2-0-10_bird_10_n02056570_18300.png,n02056570_18300.png,0.0,-4.6138287,-3.6066363,-0.7121926
alexnet_w1_mlp_simclrhn_probe0,1,364,NaN,airplane,chair,2-0-10,0364_eid_dnn_2-0-10_chair_10_n02791124_7063.png,n02791124_7063.png,0.0,-6.60894,-3.9112086,-1.9075843
alexnet_w1_mlp_simclrhn_probe0,1,365,NaN,cat,chair,8-0-10,0365_eid_dnn_8-0-10_chair_10_n03376595_8289.png,n03376595_8289.png,0.0,-6.8392553,-3.1841347,-2.5845606
alexnet_w1_mlp_simclrhn_probe0,1,366,NaN,airplane,airplane,4-0-10,0366_eid_dnn_4-0-10_airplane_10_n02690373_4434.png,n02690373_4434.png,1.0,0.079213865,-2.4125462,1.7619405
alexnet_w1_mlp_simclrhn_probe0,1,367,NaN,truck,truck,1-0-10,0367_eid_dnn_1-0-10_truck_10_n03417042_8953.png,n03417042_8953.png,1.0,5.702678,2.3104904,2.398639
alexnet_w1_mlp_simclrhn_probe0,1,368,NaN,bear,bear,64-0-10,0368_eid_dnn_64-0-10_bear_10_n02132136_699.png,n02132136_699.png,1.0,0.60954094,-0.19432402,0.5684184
alexnet_w1_mlp_simclrhn_probe0,1,369,NaN,cat,knife,8-0-10,0369_eid_dnn_8-0-10_knife_10_n03041632_20517.png,n03041632_20517.png,0.0,-4.19291,-3.0876143,-0.7815622
alexnet_w1_mlp_simclrhn_probe0,1,370,NaN,oven,bottle,32-0-10,0370_eid_dnn_32-0-10_bottle_10_n03983396_1910.png,n03983396_1910.png,0.0,-5.2314034,-0.50121886,-3.3447456
alexnet_w1_mlp_simclrhn_probe0,1,371,NaN,oven,oven,8-0-10,0371_eid_dnn_8-0-10_oven_10_n04111531_16198.png,n04111531_16198.png,1.0,1.1120028,0.4545137,0.46491507
alexnet_w1_mlp_simclrhn_probe0,1,372,NaN,oven,elephant,64-0-10,0372_eid_dnn_64-0-10_elephant_10_n02504013_13427.png,n02504013_13427.png,0.0,-4.267788,1.9530635,-4.398806
alexnet_w1_mlp_simclrhn_probe0,1,373,NaN,oven,airplane,16-0-10,0373_eid_dnn_16-0-10_airplane_10_n02690373_1075.png,n02690373_1075.png,0.0,-3.7690418,-2.0878496,-1.1887825
alexnet_w1_mlp_simclrhn_probe0,1,374,NaN,cat,car,64-0-10,0374_eid_dnn_64-0-10_car_10_n03100240_5527.png,n03100240_5527.png,0.0,-10.242631,-1.1684443,-6.416419
alexnet_w1_mlp_simclrhn_probe0,1,375,NaN,bear,bear,1-0-10,0375_eid_dnn_1-0-10_bear_10_n02132136_4632.png,n02132136_4632.png,1.0,1.6516631,-1.8531877,2.478304
alexnet_w1_mlp_simclrhn_probe0,1,376,NaN,boat,boat,1-0-10,0376_eid_dnn_1-0-10_boat_10_n04273569_6158.png,n04273569_6158.png,1.0,0.7052251,-2.1383088,2.010682
alexnet_w1_mlp_simclrhn_probe0,1,377,NaN,oven,knife,32-0-10,0377_eid_dnn_32-0-10_knife_10_n03041632_18141.png,n03041632_18141.png,0.0,-5.6499343,0.7459094,-4.5225444
alexnet_w1_mlp_simclrhn_probe0,1,378,NaN,bear,bear,16-0-10,0378_eid_dnn_16-0-10_bear_10_n02132136_6378.png,n02132136_6378.png,1.0,0.03486716,-0.112102985,0.1039236
alexnet_w1_mlp_simclrhn_probe0,1,379,NaN,elephant,elephant,2-0-10,0379_eid_dnn_2-0-10_elephant_10_n02504458_5095.png,n02504458_5095.png,1.0,1.9223113,-3.1635194,3.5962255
alexnet_w1_mlp_simclrhn_probe0,1,380,NaN,elephant,elephant,4-0-10,0380_eid_dnn_4-0-10_elephant_10_n02504013_10582.png,n02504013_10582.png,1.0,2.570489,2.4738374,0.06834297
alexnet_w1_mlp_simclrhn_probe0,1,381,NaN,oven,chair,16-0-10,0381_eid_dnn_16-0-10_chair_10_n04099969_28139.png,n04099969_28139.png,0.0,-11.440604,-1.396211,-7.102459
alexnet_w1_mlp_simclrhn_probe0,1,382,NaN,keyboard,keyboard,2-0-10,0382_eid_dnn_2-0-10_keyboard_10_n04505470_279.png,n04505470_279.png,1.0,8.577208,4.512993,2.873834
alexnet_w1_mlp_simclrhn_probe0,1,383,NaN,oven,car,8-0-10,0383_eid_dnn_8-0-10_car_10_n02814533_79696.png,n02814533_79696.png,0.0,-10.958743,-1.919333,-6.391828
alexnet_w1_mlp_simclrhn_probe0,1,384,NaN,oven,cat,64-0-10,0384_eid_dnn_64-0-10_cat_10_n02124075_7984.png,n02124075_7984.png,0.0,-1.2966332,1.5172559,-1.98972
alexnet_w1_mlp_simclrhn_probe0,1,385,NaN,elephant,car,4-0-10,0385_eid_dnn_4-0-10_car_10_n02814533_27327.png,n02814533_27327.png,0.0,-4.257213,-2.689049,-1.1088595
alexnet_w1_mlp_simclrhn_probe0,1,386,NaN,bear,bear,4-0-10,0386_eid_dnn_4-0-10_bear_10_n02134084_967.png,n02134084_967.png,1.0,-0.24321017,-0.5566425,0.22163011
alexnet_w1_mlp_simclrhn_probe0,1,387,NaN,oven,bear,64-0-10,0387_eid_dnn_64-0-10_bear_10_n02132136_949.png,n02132136_949.png,0.0,0.8771615,1.861218,-0.695833
alexnet_w1_mlp_simclrhn_probe0,1,388,NaN,bear,bicycle,16-0-10,0388_eid_dnn_16-0-10_bicycle_10_n03792782_2905.png,n03792782_2905.png,0.0,-4.7948346,0.6940306,-3.881214
alexnet_w1_mlp_simclrhn_probe0,1,389,NaN,oven,bicycle,8-0-10,0389_eid_dnn_8-0-10_bicycle_10_n03792782_34550.png,n03792782_34550.png,0.0,-5.8917427,-1.8081596,-2.8875291
alexnet_w1_mlp_simclrhn_probe0,1,390,NaN,bear,bear,16-0-10,0390_eid_dnn_16-0-10_bear_10_n02132136_9055.png,n02132136_9055.png,1.0,1.2786084,-0.21652171,1.0572168
alexnet_w1_mlp_simclrhn_probe0,1,391,NaN,oven,bear,64-0-10,0391_eid_dnn_64-0-10_bear_10_n02134084_7904.png,n02134084_7904.png,0.0,-0.41306895,-0.07338777,-0.24019086
alexnet_w1_mlp_simclrhn_probe0,1,392,NaN,bottle,clock,4-0-10,0392_eid_dnn_4-0-10_clock_10_n04548280_4526.png,n04548280_4526.png,0.0,-2.0270736,-0.58192986,-1.021871
alexnet_w1_mlp_simclrhn_probe0,1,393,NaN,bottle,bottle,1-0-10,0393_eid_dnn_1-0-10_bottle_10_n02823428_685.png,n02823428_685.png,1.0,-2.1168568,-2.998741,0.62358624
alexnet_w1_mlp_simclrhn_probe0,1,394,NaN,oven,keyboard,64-0-10,0394_eid_dnn_64-0-10_keyboard_10_n04505470_3935.png,n04505470_3935.png,0.0,-11.292671,-0.039670825,-7.9570727
alexnet_w1_mlp_simclrhn_probe0,1,395,NaN,bear,dog,64-0-10,0395_eid_dnn_64-0-10_dog_10_n02096051_3825.png,n02096051_3825.png,0.0,-1.297234,-0.92769074,-0.26130658
alexnet_w1_mlp_simclrhn_probe0,1,396,NaN,dog,dog,2-0-10,0396_eid_dnn_2-0-10_dog_10_n02089078_10601.png,n02089078_10601.png,1.0,-0.18742725,-1.6971084,1.0675057
alexnet_w1_mlp_simclrhn_probe0,1,397,NaN,clock,clock,2-0-10,0397_eid_dnn_2-0-10_clock_10_n02708093_5236.png,n02708093_5236.png,1.0,7.0884614,-0.9290134,5.669211
alexnet_w1_mlp_simclrhn_probe0,1,398,NaN,cat,cat,2-0-10,0398_eid_dnn_2-0-10_cat_10_n02123159_2682.png,n02123159_2682.png,1.0,-0.3208042,-2.8171144,1.7651579
alexnet_w1_mlp_simclrhn_probe0,1,399,NaN,truck,oven,1-0-10,0399_eid_dnn_1-0-10_oven_10_n04111531_10216.png,n04111531_10216.png,0.0,-2.2621102,-0.7131287,-1.0952954
alexnet_w1_mlp_simclrhn_probe0,1,400,NaN,bottle,boat,2-0-10,0400_eid_dnn_2-0-10_boat_10_n02951358_7137.png,n02951358_7137.png,0.0,-4.1266985,-3.8418689,-0.20140496
alexnet_w1_mlp_simclrhn_probe0,1,401,NaN,oven,bird,64-0-10,0401_eid_dnn_64-0-10_bird_10_n02007558_6127.png,n02007558_6127.png,0.0,-6.1962075,0.67412394,-4.858058
alexnet_w1_mlp_simclrhn_probe0,1,402,NaN,bear,dog,16-0-10,0402_eid_dnn_16-0-10_dog_10_n02096051_4804.png,n02096051_4804.png,0.0,-2.3482447,-1.2780019,-0.7567759
alexnet_w1_mlp_simclrhn_probe0,1,403,NaN,cat,bottle,8-0-10,0403_eid_dnn_8-0-10_bottle_10_n03983396_13764.png,n03983396_13764.png,0.0,-4.8565135,-0.9475631,-2.7640452
alexnet_w1_mlp_simclrhn_probe0,1,404,NaN,oven,knife,32-0-10,0404_eid_dnn_32-0-10_knife_10_n03041632_105081.png,n03041632_105081.png,0.0,-5.96265,1.7821428,-5.476395
alexnet_w1_mlp_simclrhn_probe0,1,405,NaN,cat,boat,8-0-10,0405_eid_dnn_8-0-10_boat_10_n03344393_3535.png,n03344393_3535.png,0.0,-3.2756958,-1.1117159,-1.530165
alexnet_w1_mlp_simclrhn_probe0,1,406,NaN,bear,keyboard,64-0-10,0406_eid_dnn_64-0-10_keyboard_10_n03085013_22929.png,n03085013_22929.png,0.0,-4.324132,-0.4655604,-2.7284222
alexnet_w1_mlp_simclrhn_probe0,1,407,NaN,bottle,bottle,1-0-10,0407_eid_dnn_1-0-10_bottle_10_n04579145_5979.png,n04579145_5979.png,1.0,0.20955311,-3.482446,2.6106374
alexnet_w1_mlp_simclrhn_probe0,1,408,NaN,knife,knife,2-0-10,0408_eid_dnn_2-0-10_knife_10_n03041632_31301.png,n03041632_31301.png,1.0,0.038877845,-3.641098,2.6021361
alexnet_w1_mlp_simclrhn_probe0,1,409,NaN,cat,car,128-0-10,0409_eid_dnn_128-0-10_car_10_n04285008_14653.png,n04285008_14653.png,0.0,-13.710019,-1.3321968,-8.752442
alexnet_w1_mlp_simclrhn_probe0,1,410,NaN,oven,clock,16-0-10,0410_eid_dnn_16-0-10_clock_10_n03196217_1601.png,n03196217_1601.png,0.0,-8.893619,1.1333034,-7.090105
alexnet_w1_mlp_simclrhn_probe0,1,411,NaN,oven,bicycle,8-0-10,0411_eid_dnn_8-0-10_bicycle_10_n02835271_25268.png,n02835271_25268.png,0.0,-5.715006,-2.9029894,-1.9883959
alexnet_w1_mlp_simclrhn_probe0,1,412,NaN,bear,bird,16-0-10,0412_eid_dnn_16-0-10_bird_10_n02037110_875.png,n02037110_875.png,0.0,-4.0916224,-0.95956886,-2.2146962
alexnet_w1_mlp_simclrhn_probe0,1,413,NaN,oven,airplane,128-0-10,0413_eid_dnn_128-0-10_airplane_10_n02690373_6807.png,n02690373_6807.png,0.0,-12.015967,-0.55981046,-8.100726
alexnet_w1_mlp_simclrhn_probe0,1,414,NaN,cat,clock,16-0-10,0414_eid_dnn_16-0-10_clock_10_n04548280_10066.png,n04548280_10066.png,0.0,-4.6725583,-1.7048296,-2.098501
alexnet_w1_mlp_simclrhn_probe0,1,415,NaN,oven,boat,64-0-10,0415_eid_dnn_64-0-10_boat_10_n02951358_15252.png,n02951358_15252.png,0.0,-9.084429,-0.041207433,-6.394523
alexnet_w1_mlp_simclrhn_probe0,1,416,NaN,cat,car,64-0-10,0416_eid_dnn_64-0-10_car_10_n02814533_4803.png,n02814533_4803.png,0.0,-16.651632,-0.7571842,-11.239073
alexnet_w1_mlp_simclrhn_probe0,1,417,NaN,oven,car,16-0-10,0417_eid_dnn_16-0-10_car_10_n03100240_24544.png,n03100240_24544.png,0.0,-11.636738,-0.88772136,-7.600703
alexnet_w1_mlp_simclrhn_probe0,1,418,NaN,oven,bear,128-0-10,0418_eid_dnn_128-0-10_bear_10_n02132136_4219.png,n02132136_4219.png,0.0,-1.862999,-1.1739318,-0.48724404
alexnet_w1_mlp_simclrhn_probe0,1,419,NaN,bear,bicycle,32-0-10,0419_eid_dnn_32-0-10_bicycle_10_n02835271_507.png,n02835271_507.png,0.0,-4.1605787,-0.20791759,-2.7949536
alexnet_w1_mlp_simclrhn_probe0,1,420,NaN,boat,boat,1-0-10,0420_eid_dnn_1-0-10_boat_10_n04273569_13290.png,n04273569_13290.png,1.0,1.5458527,-1.5788035,2.2094657
alexnet_w1_mlp_simclrhn_probe0,1,421,NaN,bear,bicycle,2-0-10,0421_eid_dnn_2-0-10_bicycle_10_n03792782_42626.png,n03792782_42626.png,0.0,-6.6362085,-5.00661,-1.1523002
alexnet_w1_mlp_simclrhn_probe0,1,422,NaN,cat,dog,8-0-10,0422_eid_dnn_8-0-10_dog_10_n02106382_3856.png,n02106382_3856.png,0.0,-1.0971473,-0.064703345,-0.7300482
alexnet_w1_mlp_simclrhn_probe0,1,423,NaN,oven,clock,1-0-10,0423_eid_dnn_1-0-10_clock_10_n02708093_274.png,n02708093_274.png,0.0,-3.7073421,-3.640461,-0.047292136
alexnet_w1_mlp_simclrhn_probe0,1,424,NaN,oven,bottle,32-0-10,0424_eid_dnn_32-0-10_bottle_10_n04591713_5921.png,n04591713_5921.png,0.0,-8.226241,1.1936519,-6.6608706
alexnet_w1_mlp_simclrhn_probe0,1,425,NaN,elephant,elephant,1-0-10,0425_eid_dnn_1-0-10_elephant_10_n02504458_3851.png,n02504458_3851.png,1.0,1.2020761,-3.9941819,3.6743095
alexnet_w1_mlp_simclrhn_probe0,1,426,NaN,bear,dog,32-0-10,0426_eid_dnn_32-0-10_dog_10_n02105855_995.png,n02105855_995.png,0.0,-1.2691286,0.30820784,-1.1153454
alexnet_w1_mlp_simclrhn_probe0,1,427,NaN,airplane,airplane,2-0-10,0427_eid_dnn_2-0-10_airplane_10_n02690373_1979.png,n02690373_1979.png,1.0,-3.4318826,-4.7134805,0.9062266
alexnet_w1_mlp_simclrhn_probe0,1,428,NaN,airplane,airplane,1-0-10,0428_eid_dnn_1-0-10_airplane_10_n02690373_6455.png,n02690373_6455.png,1.0,6.5004783,-0.5116773,4.958343
alexnet_w1_mlp_simclrhn_probe0,1,429,NaN,oven,oven,1-0-10,0429_eid_dnn_1-0-10_oven_10_n04111531_18979.png,n04111531_18979.png,1.0,1.8035549,-4.2330856,4.2685494
alexnet_w1_mlp_simclrhn_probe0,1,430,NaN,oven,oven,32-0-10,0430_eid_dnn_32-0-10_oven_10_n04111531_16795.png,n04111531_16795.png,1.0,-1.7536932,-2.0405235,0.20281966
alexnet_w1_mlp_simclrhn_probe0,1,431,NaN,oven,truck,4-0-10,0431_eid_dnn_4-0-10_truck_10_n04467665_41076.png,n04467665_41076.png,0.0,-3.932469,-2.2958684,-1.1572514
alexnet_w1_mlp_simclrhn_probe0,1,432,NaN,oven,bird,16-0-10,0432_eid_dnn_16-0-10_bird_10_n01534433_31697.png,n01534433_31697.png,0.0,-3.7475014,-1.3060775,-1.7263474
alexnet_w1_mlp_simclrhn_probe0,1,433,NaN,oven,keyboard,128-0-10,0433_eid_dnn_128-0-10_keyboard_10_n04505470_4289.png,n04505470_4289.png,0.0,-6.3258553,0.4414947,-4.785239
alexnet_w1_mlp_simclrhn_probe0,1,434,NaN,keyboard,keyboard,4-0-10,0434_eid_dnn_4-0-10_keyboard_10_n03085013_20727.png,n03085013_20727.png,1.0,1.5312843,-1.1580012,1.901612
alexnet_w1_mlp_simclrhn_probe0,1,435,NaN,cat,boat,8-0-10,0435_eid_dnn_8-0-10_boat_10_n04273569_7315.png,n04273569_7315.png,0.0,-1.9647121,-0.03768702,-1.3626125
alexnet_w1_mlp_simclrhn_probe0,1,436,NaN,car,car,1-0-10,0436_eid_dnn_1-0-10_car_10_n03100240_16646.png,n03100240_16646.png,1.0,-1.548977,-3.321592,1.2534282
alexnet_w1_mlp_simclrhn_probe0,1,437,NaN,bear,car,16-0-10,0437_eid_dnn_16-0-10_car_10_n03100240_5281.png,n03100240_5281.png,0.0,-14.858127,0.8817517,-11.129775
alexnet_w1_mlp_simclrhn_probe0,1,438,NaN,bicycle,airplane,128-0-10,0438_eid_dnn_128-0-10_airplane_10_n02690373_1670.png,n02690373_1670.png,0.0,-8.2750025,-1.5541481,-4.752362
alexnet_w1_mlp_simclrhn_probe0,1,439,NaN,oven,airplane,128-0-10,0439_eid_dnn_128-0-10_airplane_10_n02690373_9293.png,n02690373_9293.png,0.0,-14.551529,0.2720902,-10.481881
alexnet_w1_mlp_simclrhn_probe0,1,440,NaN,cat,truck,128-0-10,0440_eid_dnn_128-0-10_truck_10_n03796401_15846.png,n03796401_15846.png,0.0,-11.338341,-0.9567764,-7.3408747
alexnet_w1_mlp_simclrhn_probe0,1,441,NaN,oven,truck,32-0-10,0441_eid_dnn_32-0-10_truck_10_n03796401_6971.png,n03796401_6971.png,0.0,-9.155705,0.30962655,-6.693001
alexnet_w1_mlp_simclrhn_probe0,1,442,NaN,cat,oven,128-0-10,0442_eid_dnn_128-0-10_oven_10_n04111531_10724.png,n04111531_10724.png,0.0,-1.0813658,-0.68189317,-0.28246984
alexnet_w1_mlp_simclrhn_probe0,1,443,NaN,cat,keyboard,8-0-10,0443_eid_dnn_8-0-10_keyboard_10_n03085013_22187.png,n03085013_22187.png,0.0,-10.439438,-1.045799,-6.642306
alexnet_w1_mlp_simclrhn_probe0,1,444,NaN,bear,oven,8-0-10,0444_eid_dnn_8-0-10_oven_10_n04111531_4671.png,n04111531_4671.png,0.0,-3.6973403,-0.79143345,-2.0547864
alexnet_w1_mlp_simclrhn_probe0,1,445,NaN,airplane,airplane,4-0-10,0445_eid_dnn_4-0-10_airplane_10_n02690373_5142.png,n02690373_5142.png,1.0,-0.7529411,-4.250315,2.473017
alexnet_w1_mlp_simclrhn_probe0,1,446,NaN,elephant,elephant,4-0-10,0446_eid_dnn_4-0-10_elephant_10_n02504013_8562.png,n02504013_8562.png,1.0,2.4610875,-1.7671707,2.98983
alexnet_w1_mlp_simclrhn_probe0,1,447,NaN,truck,truck,1-0-10,0447_eid_dnn_1-0-10_truck_10_n03417042_9668.png,n03417042_9668.png,1.0,-1.3210623,-2.618787,0.91762996
alexnet_w1_mlp_simclrhn_probe0,1,448,NaN,cat,bottle,8-0-10,0448_eid_dnn_8-0-10_bottle_10_n03983396_10330.png,n03983396_10330.png,0.0,-4.647435,-3.2546637,-0.9848382
alexnet_w1_mlp_simclrhn_probe0,1,449,NaN,cat,elephant,128-0-10,0449_eid_dnn_128-0-10_elephant_10_n02504458_4395.png,n02504458_4395.png,0.0,-3.7163653,0.23432083,-2.7935572
alexnet_w1_mlp_simclrhn_probe0,1,450,NaN,bear,boat,64-0-10,0450_eid_dnn_64-0-10_boat_10_n03344393_4562.png,n03344393_4562.png,0.0,-9.954735,0.7717996,-7.5848055
alexnet_w1_mlp_simclrhn_probe0,1,451,NaN,oven,oven,2-0-10,0451_eid_dnn_2-0-10_oven_10_n04111531_10011.png,n04111531_10011.png,1.0,0.2793069,-3.6295512,2.7639802
alexnet_w1_mlp_simclrhn_probe0,1,452,NaN,oven,oven,64-0-10,0452_eid_dnn_64-0-10_oven_10_n04111531_13797.png,n04111531_13797.png,1.0,-0.050965577,-0.4987066,0.31660074
alexnet_w1_mlp_simclrhn_probe0,1,453,NaN,boat,boat,2-0-10,0453_eid_dnn_2-0-10_boat_10_n03662601_840.png,n03662601_840.png,1.0,-1.0125782,-1.5144362,0.3548672
alexnet_w1_mlp_simclrhn_probe0,1,454,NaN,bear,truck,16-0-10,0454_eid_dnn_16-0-10_truck_10_n03417042_17037.png,n03417042_17037.png,0.0,-11.022186,0.88939863,-8.422763
alexnet_w1_mlp_simclrhn_probe0,1,455,NaN,oven,cat,64-0-10,0455_eid_dnn_64-0-10_cat_10_n02125311_2576.png,n02125311_2576.png,0.0,-0.15737873,0.5585585,-0.5062441
alexnet_w1_mlp_simclrhn_probe0,1,456,NaN,bear,keyboard,32-0-10,0456_eid_dnn_32-0-10_keyboard_10_n03085013_3264.png,n03085013_3264.png,0.0,-4.85439,-1.2235305,-2.5674055
alexnet_w1_mlp_simclrhn_probe0,1,457,NaN,oven,dog,64-0-10,0457_eid_dnn_64-0-10_dog_10_n02097130_3519.png,n02097130_3519.png,0.0,-1.4847379,1.2279063,-1.9181291
alexnet_w1_mlp_simclrhn_probe0,1,458,NaN,cat,airplane,16-0-10,0458_eid_dnn_16-0-10_airplane_10_n02690373_4486.png,n02690373_4486.png,0.0,-8.548805,-2.1418557,-4.5303974
alexnet_w1_mlp_simclrhn_probe0,1,459,NaN,oven,bottle,16-0-10,0459_eid_dnn_16-0-10_bottle_10_n03983396_19635.png,n03983396_19635.png,0.0,-6.814879,2.3434103,-6.4758883
alexnet_w1_mlp_simclrhn_probe0,1,460,NaN,bear,airplane,16-0-10,0460_eid_dnn_16-0-10_airplane_10_n02690373_1426.png,n02690373_1426.png,0.0,-8.673452,-1.1243465,-5.3380237
alexnet_w1_mlp_simclrhn_probe0,1,461,NaN,oven,oven,4-0-10,0461_eid_dnn_4-0-10_oven_10_n04111531_5279.png,n04111531_5279.png,1.0,-0.8698409,-3.2560637,1.6873144
alexnet_w1_mlp_simclrhn_probe0,1,462,NaN,oven,bottle,64-0-10,0462_eid_dnn_64-0-10_bottle_10_n03983396_4024.png,n03983396_4024.png,0.0,-4.7166524,-0.17599076,-3.2107327
alexnet_w1_mlp_simclrhn_probe0,1,463,NaN,bear,bear,8-0-10,0463_eid_dnn_8-0-10_bear_10_n02133161_12751.png,n02133161_12751.png,1.0,0.18571243,-0.43765607,0.4407881
alexnet_w1_mlp_simclrhn_probe0,1,464,NaN,bear,car,8-0-10,0464_eid_dnn_8-0-10_car_10_n02814533_12271.png,n02814533_12271.png,0.0,-10.340246,0.58208704,-7.7232556
alexnet_w1_mlp_simclrhn_probe0,1,465,NaN,cat,bottle,16-0-10,0465_eid_dnn_16-0-10_bottle_10_n04560804_5068.png,n04560804_5068.png,0.0,-8.272206,-2.9782963,-3.7433598
alexnet_w1_mlp_simclrhn_probe0,1,466,NaN,cat,bottle,128-0-10,0466_eid_dnn_128-0-10_bottle_10_n04579145_1168.png,n04579145_1168.png,0.0,-6.082303,-1.9135681,-2.9477408
alexnet_w1_mlp_simclrhn_probe0,1,467,NaN,oven,knife,64-0-10,0467_eid_dnn_64-0-10_knife_10_n03041632_2973.png,n03041632_2973.png,0.0,-4.34083,1.5303752,-4.1515694
alexnet_w1_mlp_simclrhn_probe0,1,468,NaN,oven,airplane,16-0-10,0468_eid_dnn_16-0-10_airplane_10_n02690373_19329.png,n02690373_19329.png,0.0,-5.071193,-1.8023512,-2.3114204
alexnet_w1_mlp_simclrhn_probe0,1,469,NaN,oven,bottle,32-0-10,0469_eid_dnn_32-0-10_bottle_10_n04560804_1356.png,n04560804_1356.png,0.0,-4.837605,1.6033044,-4.554411
alexnet_w1_mlp_simclrhn_probe0,1,470,NaN,bear,bear,8-0-10,0470_eid_dnn_8-0-10_bear_10_n02134084_3960.png,n02134084_3960.png,1.0,1.6052834,-0.31657508,1.3589592
alexnet_w1_mlp_simclrhn_probe0,1,471,NaN,elephant,boat,4-0-10,0471_eid_dnn_4-0-10_boat_10_n04612504_27504.png,n04612504_27504.png,0.0,-4.3417044,-2.5030706,-1.3001105
alexnet_w1_mlp_simclrhn_probe0,1,472,NaN,dog,dog,4-0-10,0472_eid_dnn_4-0-10_dog_10_n02099601_9973.png,n02099601_9973.png,1.0,-0.48788095,-0.6332939,0.102822505
alexnet_w1_mlp_simclrhn_probe0,1,473,NaN,oven,truck,64-0-10,0473_eid_dnn_64-0-10_truck_10_n03417042_26843.png,n03417042_26843.png,0.0,-10.269068,1.394583,-8.247446
alexnet_w1_mlp_simclrhn_probe0,1,474,NaN,oven,knife,64-0-10,0474_eid_dnn_64-0-10_knife_10_n03041632_55711.png,n03041632_55711.png,0.0,-2.9930108,0.74203634,-2.6410773
alexnet_w1_mlp_simclrhn_probe0,1,475,NaN,bear,elephant,8-0-10,0475_eid_dnn_8-0-10_elephant_10_n02504013_1986.png,n02504013_1986.png,0.0,-1.8250272,1.3801342,-2.2663915
alexnet_w1_mlp_simclrhn_probe0,1,476,NaN,keyboard,keyboard,4-0-10,0476_eid_dnn_4-0-10_keyboard_10_n03085013_9475.png,n03085013_9475.png,1.0,-1.4145511,-2.118732,0.49793106
alexnet_w1_mlp_simclrhn_probe0,1,477,NaN,bear,elephant,32-0-10,0477_eid_dnn_32-0-10_elephant_10_n02504458_3381.png,n02504458_3381.png,0.0,-0.89766467,0.37404263,-0.89923286
alexnet_w1_mlp_simclrhn_probe0,1,478,NaN,cat,airplane,8-0-10,0478_eid_dnn_8-0-10_airplane_10_n02690373_1161.png,n02690373_1161.png,0.0,-4.7108073,-3.3981698,-0.9281749
alexnet_w1_mlp_simclrhn_probe0,1,479,NaN,oven,cat,64-0-10,0479_eid_dnn_64-0-10_cat_10_n02124075_7474.png,n02124075_7474.png,0.0,-1.7726032,0.27912566,-1.4507914
alexnet_w1_mlp_simclrhn_probe0,1,480,NaN,bear,cat,4-0-10,0480_eid_dnn_4-0-10_cat_10_n02125311_9074.png,n02125311_9074.png,0.0,-1.9476973,-1.3760022,-0.4042495
alexnet_w1_mlp_simclrhn_probe0,1,481,NaN,oven,airplane,128-0-10,0481_eid_dnn_128-0-10_airplane_10_n02690373_2867.png,n02690373_2867.png,0.0,-11.177359,-0.26109886,-7.7189612
alexnet_w1_mlp_simclrhn_probe0,1,482,NaN,elephant,elephant,2-0-10,0482_eid_dnn_2-0-10_elephant_10_n02504013_1692.png,n02504013_1692.png,1.0,-1.9993407,-3.8355255,1.2983788
alexnet_w1_mlp_simclrhn_probe0,1,483,NaN,bear,bird,8-0-10,0483_eid_dnn_8-0-10_bird_10_n02009912_11813.png,n02009912_11813.png,0.0,-3.7247934,0.7913326,-3.1933835
alexnet_w1_mlp_simclrhn_probe0,1,484,NaN,bird,bottle,16-0-10,0484_eid_dnn_16-0-10_bottle_10_n04557648_10302.png,n04557648_10302.png,0.0,-4.5216312,-2.1739414,-1.6600674
alexnet_w1_mlp_simclrhn_probe0,1,485,NaN,oven,keyboard,4-0-10,0485_eid_dnn_4-0-10_keyboard_10_n03085013_20302.png,n03085013_20302.png,0.0,-3.1462836,-2.0510278,-0.7744629
alexnet_w1_mlp_simclrhn_probe0,1,486,NaN,oven,elephant,128-0-10,0486_eid_dnn_128-0-10_elephant_10_n02504458_5827.png,n02504458_5827.png,0.0,-4.460161,-0.6583143,-2.6883118
alexnet_w1_mlp_simclrhn_probe0,1,487,NaN,keyboard,knife,1-0-10,0487_eid_dnn_1-0-10_knife_10_n03041632_11327.png,n03041632_11327.png,0.0,-2.4137259,0.8238834,-2.2893355
alexnet_w1_mlp_simclrhn_probe0,1,488,NaN,bird,bird,4-0-10,0488_eid_dnn_4-0-10_bird_10_n01795545_17770.png,n01795545_17770.png,1.0,-1.8629866,-3.5781121,1.2127769
alexnet_w1_mlp_simclrhn_probe0,1,489,NaN,dog,bicycle,4-0-10,0489_eid_dnn_4-0-10_bicycle_10_n02835271_10932.png,n02835271_10932.png,0.0,-3.147867,-2.5243454,-0.44089633
alexnet_w1_mlp_simclrhn_probe0,1,490,NaN,knife,cat,2-0-10,0490_eid_dnn_2-0-10_cat_10_n02123597_14233.png,n02123597_14233.png,0.0,-4.0886693,-3.5678937,-0.36824393
alexnet_w1_mlp_simclrhn_probe0,1,491,NaN,bicycle,bird,1-0-10,0491_eid_dnn_1-0-10_bird_10_n01614925_7662.png,n01614925_7662.png,0.0,-3.332944,-3.2866843,-0.032710508
alexnet_w1_mlp_simclrhn_probe0,1,492,NaN,oven,truck,16-0-10,0492_eid_dnn_16-0-10_truck_10_n03417042_5875.png,n03417042_5875.png,0.0,-8.398719,0.22673422,-6.0991163
alexnet_w1_mlp_simclrhn_probe0,1,493,NaN,bear,bear,1-0-10,0493_eid_dnn_1-0-10_bear_10_n02134418_304.png,n02134418_304.png,1.0,-0.9132967,-3.278741,1.6726216
alexnet_w1_mlp_simclrhn_probe0,1,494,NaN,cat,bird,1-0-10,0494_eid_dnn_1-0-10_bird_10_n01622779_5148.png,n01622779_5148.png,0.0,-4.7544513,-0.613058,-2.9284072
alexnet_w1_mlp_simclrhn_probe0,1,495,NaN,elephant,knife,1-0-10,0495_eid_dnn_1-0-10_knife_10_n03041632_44230.png,n03041632_44230.png,0.0,-5.2175875,-1.1470302,-2.8783185
alexnet_w1_mlp_simclrhn_probe0,1,496,NaN,oven,boat,32-0-10,0496_eid_dnn_32-0-10_boat_10_n03662601_8650.png,n03662601_8650.png,0.0,-4.6725135,-0.038084477,-3.2770362
alexnet_w1_mlp_simclrhn_probe0,1,497,NaN,bear,oven,16-0-10,0497_eid_dnn_16-0-10_oven_10_n04111531_4346.png,n04111531_4346.png,0.0,-0.5474169,0.09200392,-0.45213884
alexnet_w1_mlp_simclrhn_probe0,1,498,NaN,clock,clock,2-0-10,0498_eid_dnn_2-0-10_clock_10_n03196217_2201.png,n03196217_2201.png,1.0,0.39134714,0.2070931,0.13028727
alexnet_w1_mlp_simclrhn_probe0,1,499,NaN,bear,bicycle,64-0-10,0499_eid_dnn_64-0-10_bicycle_10_n02835271_8757.png,n02835271_8757.png,0.0,-2.082791,-1.2045851,-0.62098545
alexnet_w1_mlp_simclrhn_probe0,1,500,NaN,cat,keyboard,8-0-10,0500_eid_dnn_8-0-10_keyboard_10_n03085013_23563.png,n03085013_23563.png,0.0,-5.0467324,-1.2919313,-2.6550455
alexnet_w1_mlp_simclrhn_probe0,1,501,NaN,oven,boat,64-0-10,0501_eid_dnn_64-0-10_boat_10_n04273569_15879.png,n04273569_15879.png,0.0,-8.313454,-0.4002825,-5.595457
alexnet_w1_mlp_simclrhn_probe0,1,502,NaN,oven,truck,64-0-10,0502_eid_dnn_64-0-10_truck_10_n04467665_30588.png,n04467665_30588.png,0.0,-6.841247,-0.26172608,-4.6524243
alexnet_w1_mlp_simclrhn_probe0,1,503,NaN,oven,truck,16-0-10,0503_eid_dnn_16-0-10_truck_10_n03417042_1875.png,n03417042_1875.png,0.0,-10.024027,0.027165651,-7.1072664
alexnet_w1_mlp_simclrhn_probe0,1,504,NaN,oven,cat,128-0-10,0504_eid_dnn_128-0-10_cat_10_n02123394_6014.png,n02123394_6014.png,0.0,-0.74817276,1.4126793,-1.5279531
alexnet_w1_mlp_simclrhn_probe0,1,505,NaN,boat,boat,1-0-10,0505_eid_dnn_1-0-10_boat_10_n04273569_10847.png,n04273569_10847.png,1.0,-2.9921525,-4.179777,0.83977747
alexnet_w1_mlp_simclrhn_probe0,1,506,NaN,oven,elephant,64-0-10,0506_eid_dnn_64-0-10_elephant_10_n02504013_5495.png,n02504013_5495.png,0.0,-1.8436475,0.31004685,-1.5228919
alexnet_w1_mlp_simclrhn_probe0,1,507,NaN,oven,bottle,128-0-10,0507_eid_dnn_128-0-10_bottle_10_n04560804_16276.png,n04560804_16276.png,0.0,-2.1636527,0.0003878884,-1.5302078
alexnet_w1_mlp_simclrhn_probe0,1,508,NaN,airplane,car,1-0-10,0508_eid_dnn_1-0-10_car_10_n04285008_1243.png,n04285008_1243.png,0.0,-3.6964176,-1.9852375,-1.209987
alexnet_w1_mlp_simclrhn_probe0,1,509,NaN,bear,keyboard,32-0-10,0509_eid_dnn_32-0-10_keyboard_10_n03085013_22027.png,n03085013_22027.png,0.0,-7.596342,-1.3325953,-4.4291377
alexnet_w1_mlp_simclrhn_probe0,1,510,NaN,bear,cat,32-0-10,0510_eid_dnn_32-0-10_cat_10_n02123045_12766.png,n02123045_12766.png,0.0,-1.5389491,0.18149593,-1.2165384
alexnet_w1_mlp_simclrhn_probe0,1,511,NaN,oven,chair,64-0-10,0511_eid_dnn_64-0-10_chair_10_n04429376_29954.png,n04429376_29954.png,0.0,-7.069149,0.88082194,-5.6214786
alexnet_w1_mlp_simclrhn_probe0,1,512,NaN,bear,elephant,32-0-10,0512_eid_dnn_32-0-10_elephant_10_n02504013_5678.png,n02504013_5678.png,0.0,-0.8304788,0.5802752,-0.9975537
alexnet_w1_mlp_simclrhn_probe0,1,513,NaN,oven,chair,4-0-10,0513_eid_dnn_4-0-10_chair_10_n03376595_6333.png,n03376595_6333.png,0.0,-5.8993254,-4.427933,-1.0404314
alexnet_w1_mlp_simclrhn_probe0,1,514,NaN,keyboard,keyboard,2-0-10,0514_eid_dnn_2-0-10_keyboard_10_n03085013_22605.png,n03085013_22605.png,1.0,-1.9963593,-2.1226218,0.08928102
alexnet_w1_mlp_simclrhn_probe0,1,515,NaN,oven,car,32-0-10,0515_eid_dnn_32-0-10_car_10_n04285008_16557.png,n04285008_16557.png,0.0,-10.930427,1.5063784,-8.794149
alexnet_w1_mlp_simclrhn_probe0,1,516,NaN,oven,bottle,64-0-10,0516_eid_dnn_64-0-10_bottle_10_n02823428_1034.png,n02823428_1034.png,0.0,-6.9389243,1.6870985,-6.099519
alexnet_w1_mlp_simclrhn_probe0,1,517,NaN,oven,elephant,16-0-10,0517_eid_dnn_16-0-10_elephant_10_n02504013_7777.png,n02504013_7777.png,0.0,-3.041825,0.20858276,-2.2983854
alexnet_w1_mlp_simclrhn_probe0,1,518,NaN,knife,knife,4-0-10,0518_eid_dnn_4-0-10_knife_10_n03041632_14293.png,n03041632_14293.png,1.0,-3.291327,-3.3635798,0.05109041
alexnet_w1_mlp_simclrhn_probe0,1,519,NaN,cat,knife,8-0-10,0519_eid_dnn_8-0-10_knife_10_n03041632_50423.png,n03041632_50423.png,0.0,-7.2162447,-3.1459339,-2.8781443
alexnet_w1_mlp_simclrhn_probe0,1,520,NaN,chair,chair,2-0-10,0520_eid_dnn_2-0-10_chair_10_n03376595_3043.png,n03376595_3043.png,1.0,-2.2568321,-2.6512,0.27886024
alexnet_w1_mlp_simclrhn_probe0,1,521,NaN,bear,cat,8-0-10,0521_eid_dnn_8-0-10_cat_10_n02123394_2434.png,n02123394_2434.png,0.0,-0.95342106,-0.8483969,-0.0742633
alexnet_w1_mlp_simclrhn_probe0,1,522,NaN,airplane,truck,1-0-10,0522_eid_dnn_1-0-10_truck_10_n04467665_54079.png,n04467665_54079.png,0.0,-5.0084543,-4.9806843,-0.019636385
alexnet_w1_mlp_simclrhn_probe0,1,523,NaN,dog,bird,2-0-10,0523_eid_dnn_2-0-10_bird_10_n01855672_1001.png,n01855672_1001.png,0.0,-6.315603,-3.4990935,-1.9915729
alexnet_w1_mlp_simclrhn_probe0,1,524,NaN,bottle,bottle,1-0-10,0524_eid_dnn_1-0-10_bottle_10_n04560804_6112.png,n04560804_6112.png,1.0,-1.1425408,-3.8807616,1.9362144
alexnet_w1_mlp_simclrhn_probe0,1,525,NaN,oven,keyboard,1-0-10,0525_eid_dnn_1-0-10_keyboard_10_n04505470_1744.png,n04505470_1744.png,0.0,-1.9511937,-0.17943923,-1.2528197
alexnet_w1_mlp_simclrhn_probe0,1,526,NaN,oven,boat,32-0-10,0526_eid_dnn_32-0-10_boat_10_n02951358_15087.png,n02951358_15087.png,0.0,-11.521312,1.8510599,-9.455695
alexnet_w1_mlp_simclrhn_probe0,1,527,NaN,bear,bottle,4-0-10,0527_eid_dnn_4-0-10_bottle_10_n04557648_10051.png,n04557648_10051.png,0.0,-6.3489347,-1.7848299,-3.2273097
alexnet_w1_mlp_simclrhn_probe0,1,528,NaN,oven,bear,64-0-10,0528_eid_dnn_64-0-10_bear_10_n02134084_5794.png,n02134084_5794.png,0.0,-0.47929227,-0.041360974,-0.3096642
alexnet_w1_mlp_simclrhn_probe0,1,529,NaN,knife,keyboard,4-0-10,0529_eid_dnn_4-0-10_keyboard_10_n04505470_751.png,n04505470_751.png,0.0,-0.5753929,-0.5691577,-0.0044089397
alexnet_w1_mlp_simclrhn_probe0,1,530,NaN,oven,boat,128-0-10,0530_eid_dnn_128-0-10_boat_10_n04273569_9306.png,n04273569_9306.png,0.0,-9.279956,-0.68512493,-6.077463
alexnet_w1_mlp_simclrhn_probe0,1,531,NaN,bear,chair,16-0-10,0531_eid_dnn_16-0-10_chair_10_n02791124_9162.png,n02791124_9162.png,0.0,-6.8738737,-0.1665237,-4.7428126
alexnet_w1_mlp_simclrhn_probe0,1,532,NaN,oven,bicycle,128-0-10,0532_eid_dnn_128-0-10_bicycle_10_n02835271_25033.png,n02835271_25033.png,0.0,-2.6953795,-0.5107231,-1.5447854
alexnet_w1_mlp_simclrhn_probe0,1,533,NaN,cat,keyboard,128-0-10,0533_eid_dnn_128-0-10_keyboard_10_n04505470_3905.png,n04505470_3905.png,0.0,-7.7785664,-0.7426779,-4.975125
alexnet_w1_mlp_simclrhn_probe0,1,534,NaN,knife,knife,4-0-10,0534_eid_dnn_4-0-10_knife_10_n03041632_32054.png,n03041632_32054.png,1.0,-2.0042872,-2.044265,0.028268566
alexnet_w1_mlp_simclrhn_probe0,1,535,NaN,cat,clock,8-0-10,0535_eid_dnn_8-0-10_clock_10_n03196217_13380.png,n03196217_13380.png,0.0,-11.2420845,0.5823932,-8.361169
alexnet_w1_mlp_simclrhn_probe0,1,536,NaN,bird,chair,32-0-10,0536_eid_dnn_32-0-10_chair_10_n03376595_8083.png,n03376595_8083.png,0.0,-4.923105,-1.7188387,-2.2657583
alexnet_w1_mlp_simclrhn_probe0,1,537,NaN,cat,cat,8-0-10,0537_eid_dnn_8-0-10_cat_10_n02125311_47927.png,n02125311_47927.png,1.0,-0.12501316,-0.2133551,0.062467184
alexnet_w1_mlp_simclrhn_probe0,1,538,NaN,oven,boat,64-0-10,0538_eid_dnn_64-0-10_boat_10_n04273569_1141.png,n04273569_1141.png,0.0,-9.924512,0.6259381,-7.460295
alexnet_w1_mlp_simclrhn_probe0,1,539,NaN,oven,dog,64-0-10,0539_eid_dnn_64-0-10_dog_10_n02097130_5859.png,n02097130_5859.png,0.0,-1.5600448,1.5558481,-2.203269
alexnet_w1_mlp_simclrhn_probe0,1,540,NaN,bear,dog,16-0-10,0540_eid_dnn_16-0-10_dog_10_n02090721_835.png,n02090721_835.png,0.0,-1.3666149,-0.37094098,-0.7040478
alexnet_w1_mlp_simclrhn_probe0,1,541,NaN,oven,bear,128-0-10,0541_eid_dnn_128-0-10_bear_10_n02132136_15806.png,n02132136_15806.png,0.0,-1.2283468,0.23296481,-1.0333034
alexnet_w1_mlp_simclrhn_probe0,1,542,NaN,oven,cat,128-0-10,0542_eid_dnn_128-0-10_cat_10_n02124075_12069.png,n02124075_12069.png,0.0,-0.02951177,2.996975,-2.1400492
alexnet_w1_mlp_simclrhn_probe0,1,543,NaN,oven,oven,2-0-10,0543_eid_dnn_2-0-10_oven_10_n04111531_21382.png,n04111531_21382.png,1.0,2.2703123,-4.5157495,4.7984705
alexnet_w1_mlp_simclrhn_probe0,1,544,NaN,dog,cat,1-0-10,0544_eid_dnn_1-0-10_cat_10_n02123597_2009.png,n02123597_2009.png,0.0,-3.7730792,-2.0150812,-1.2430923
alexnet_w1_mlp_simclrhn_probe0,1,545,NaN,oven,oven,32-0-10,0545_eid_dnn_32-0-10_oven_10_n04111531_4392.png,n04111531_4392.png,1.0,0.7523135,-0.093014605,0.59773725
alexnet_w1_mlp_simclrhn_probe0,1,546,NaN,oven,boat,4-0-10,0546_eid_dnn_4-0-10_boat_10_n03344393_640.png,n03344393_640.png,0.0,-5.0044546,-4.689659,-0.22259404
alexnet_w1_mlp_simclrhn_probe0,1,547,NaN,oven,car,4-0-10,0547_eid_dnn_4-0-10_car_10_n02814533_245.png,n02814533_245.png,0.0,-4.370851,-2.9063952,-1.0355266
alexnet_w1_mlp_simclrhn_probe0,1,548,NaN,bird,bird,1-0-10,0548_eid_dnn_1-0-10_bird_10_n01530575_3831.png,n01530575_3831.png,1.0,-1.6030465,-2.723524,0.7922973
alexnet_w1_mlp_simclrhn_probe0,1,549,NaN,truck,truck,2-0-10,0549_eid_dnn_2-0-10_truck_10_n04467665_32276.png,n04467665_32276.png,1.0,-0.23329785,-1.5538845,0.9337958
alexnet_w1_mlp_simclrhn_probe0,1,550,NaN,bear,elephant,64-0-10,0550_eid_dnn_64-0-10_elephant_10_n02504458_5941.png,n02504458_5941.png,0.0,-3.5229225,-0.3069153,-2.2740605
alexnet_w1_mlp_simclrhn_probe0,1,551,NaN,elephant,elephant,4-0-10,0551_eid_dnn_4-0-10_elephant_10_n02504013_9796.png,n02504013_9796.png,1.0,1.3362274,0.13121891,0.8520697
alexnet_w1_mlp_simclrhn_probe0,1,552,NaN,airplane,airplane,4-0-10,0552_eid_dnn_4-0-10_airplane_10_n02690373_8214.png,n02690373_8214.png,1.0,0.58134913,-2.3980513,2.1067543
alexnet_w1_mlp_simclrhn_probe0,1,553,NaN,airplane,airplane,1-0-10,0553_eid_dnn_1-0-10_airplane_10_n02690373_8967.png,n02690373_8967.png,1.0,4.089157,-2.8957944,4.9391065
alexnet_w1_mlp_simclrhn_probe0,1,554,NaN,bear,elephant,64-0-10,0554_eid_dnn_64-0-10_elephant_10_n02504458_7642.png,n02504458_7642.png,0.0,-1.9989204,-0.20895265,-1.2656984
alexnet_w1_mlp_simclrhn_probe0,1,555,NaN,boat,boat,1-0-10,0555_eid_dnn_1-0-10_boat_10_n04273569_15455.png,n04273569_15455.png,1.0,0.13588238,-0.5328064,0.47283438
alexnet_w1_mlp_simclrhn_probe0,1,556,NaN,bear,knife,8-0-10,0556_eid_dnn_8-0-10_knife_10_n03041632_3063.png,n03041632_3063.png,0.0,-5.457443,2.0436664,-5.3040857
alexnet_w1_mlp_simclrhn_probe0,1,557,NaN,bottle,bottle,4-0-10,0557_eid_dnn_4-0-10_bottle_10_n03937543_4912.png,n03937543_4912.png,1.0,-3.4736755,-3.5594776,0.060671233
alexnet_w1_mlp_simclrhn_probe0,1,558,NaN,oven,oven,4-0-10,0558_eid_dnn_4-0-10_oven_10_n04111531_5776.png,n04111531_5776.png,1.0,-0.9419398,-2.6592448,1.214318
alexnet_w1_mlp_simclrhn_probe0,1,559,NaN,cat,bottle,128-0-10,0559_eid_dnn_128-0-10_bottle_10_n03983396_4540.png,n03983396_4540.png,0.0,-8.321805,0.51001805,-6.2450423
alexnet_w1_mlp_simclrhn_probe0,1,560,NaN,knife,knife,2-0-10,0560_eid_dnn_2-0-10_knife_10_n03041632_965.png,n03041632_965.png,1.0,1.208002,-0.060911983,0.8972577
alexnet_w1_mlp_simclrhn_probe0,1,561,NaN,oven,knife,32-0-10,0561_eid_dnn_32-0-10_knife_10_n03041632_12949.png,n03041632_12949.png,0.0,-3.4901543,0.3105797,-2.6875248
alexnet_w1_mlp_simclrhn_probe0,1,562,NaN,bear,knife,16-0-10,0562_eid_dnn_16-0-10_knife_10_n03041632_18766.png,n03041632_18766.png,0.0,-4.9792695,0.18426327,-3.651169
alexnet_w1_mlp_simclrhn_probe0,1,563,NaN,oven,keyboard,8-0-10,0563_eid_dnn_8-0-10_keyboard_10_n04505470_2869.png,n04505470_2869.png,0.0,-5.409727,-1.0805367,-3.0612
alexnet_w1_mlp_simclrhn_probe0,1,564,NaN,elephant,bicycle,4-0-10,0564_eid_dnn_4-0-10_bicycle_10_n02835271_18537.png,n02835271_18537.png,0.0,-6.0592875,-1.4265246,-3.2758582
alexnet_w1_mlp_simclrhn_probe0,1,565,NaN,bear,clock,32-0-10,0565_eid_dnn_32-0-10_clock_10_n04548280_1119.png,n04548280_1119.png,0.0,-4.652097,-1.0034788,-2.579963
alexnet_w1_mlp_simclrhn_probe0,1,566,NaN,oven,oven,1-0-10,0566_eid_dnn_1-0-10_oven_10_n04111531_687.png,n04111531_687.png,1.0,4.847926,-4.42169,6.5546083
alexnet_w1_mlp_simclrhn_probe0,1,567,NaN,oven,chair,64-0-10,0567_eid_dnn_64-0-10_chair_10_n03376595_3038.png,n03376595_3038.png,0.0,-7.719692,0.50297004,-5.8143
alexnet_w1_mlp_simclrhn_probe0,1,568,NaN,oven,bicycle,16-0-10,0568_eid_dnn_16-0-10_bicycle_10_n02835271_3989.png,n02835271_3989.png,0.0,-3.8748457,-0.280038,-2.5419128
alexnet_w1_mlp_simclrhn_probe0,1,569,NaN,oven,dog,64-0-10,0569_eid_dnn_64-0-10_dog_10_n02096437_4563.png,n02096437_4563.png,0.0,-1.3228494,1.2633803,-1.8287407
alexnet_w1_mlp_simclrhn_probe0,1,570,NaN,oven,clock,32-0-10,0570_eid_dnn_32-0-10_clock_10_n02708093_685.png,n02708093_685.png,0.0,-11.621117,-2.5361347,-6.4240522
alexnet_w1_mlp_simclrhn_probe0,1,571,NaN,oven,boat,32-0-10,0571_eid_dnn_32-0-10_boat_10_n03662601_8360.png,n03662601_8360.png,0.0,-8.091288,1.6089432,-6.859099
alexnet_w1_mlp_simclrhn_probe0,1,572,NaN,oven,keyboard,8-0-10,0572_eid_dnn_8-0-10_keyboard_10_n03085013_17035.png,n03085013_17035.png,0.0,-4.500956,-1.4563844,-2.1528373
alexnet_w1_mlp_simclrhn_probe0,1,573,NaN,oven,dog,64-0-10,0573_eid_dnn_64-0-10_dog_10_n02110063_12166.png,n02110063_12166.png,0.0,-1.7667967,2.7609515,-3.2016015
alexnet_w1_mlp_simclrhn_probe0,1,574,NaN,dog,dog,2-0-10,0574_eid_dnn_2-0-10_dog_10_n02108422_6951.png,n02108422_6951.png,1.0,-3.8375483,-4.39226,0.3922405
alexnet_w1_mlp_simclrhn_probe0,1,575,NaN,oven,bear,64-0-10,0575_eid_dnn_64-0-10_bear_10_n02134418_912.png,n02134418_912.png,0.0,0.041442573,0.37200794,-0.23374501
alexnet_w1_mlp_simclrhn_probe0,1,576,NaN,clock,clock,4-0-10,0576_eid_dnn_4-0-10_clock_10_n02708093_564.png,n02708093_564.png,1.0,-4.3931313,-5.5128236,0.791742
alexnet_w1_mlp_simclrhn_probe0,1,577,NaN,oven,car,64-0-10,0577_eid_dnn_64-0-10_car_10_n04285008_11893.png,n04285008_11893.png,0.0,-8.826998,0.115027666,-6.3229666
alexnet_w1_mlp_simclrhn_probe0,1,578,NaN,oven,knife,64-0-10,0578_eid_dnn_64-0-10_knife_10_n03041632_20504.png,n03041632_20504.png,0.0,-2.8347836,1.5690868,-3.1140068
alexnet_w1_mlp_simclrhn_probe0,1,579,NaN,clock,clock,4-0-10,0579_eid_dnn_4-0-10_clock_10_n04548280_4557.png,n04548280_4557.png,1.0,-1.645784,-2.0950165,0.31765532
alexnet_w1_mlp_simclrhn_probe0,1,580,NaN,oven,clock,32-0-10,0580_eid_dnn_32-0-10_clock_10_n02708093_3360.png,n02708093_3360.png,0.0,-7.6012096,-1.8542308,-4.063728
alexnet_w1_mlp_simclrhn_probe0,1,581,NaN,bear,bear,16-0-10,0581_eid_dnn_16-0-10_bear_10_n02134084_617.png,n02134084_617.png,1.0,-0.5317601,-1.4982796,0.68343246
alexnet_w1_mlp_simclrhn_probe0,1,582,NaN,keyboard,dog,1-0-10,0582_eid_dnn_1-0-10_dog_10_n02093991_4081.png,n02093991_4081.png,0.0,-8.670936,-2.5770335,-4.3090396
alexnet_w1_mlp_simclrhn_probe0,1,583,NaN,bear,elephant,16-0-10,0583_eid_dnn_16-0-10_elephant_10_n02504458_1727.png,n02504458_1727.png,0.0,2.0817485,2.355146,-0.1933212
alexnet_w1_mlp_simclrhn_probe0,1,584,NaN,oven,clock,32-0-10,0584_eid_dnn_32-0-10_clock_10_n04548280_16295.png,n04548280_16295.png,0.0,-6.0799346,-2.2818682,-2.6856384
alexnet_w1_mlp_simclrhn_probe0,1,585,NaN,bear,boat,4-0-10,0585_eid_dnn_4-0-10_boat_10_n02951358_16217.png,n02951358_16217.png,0.0,-4.658119,1.6342404,-4.44937
alexnet_w1_mlp_simclrhn_probe0,1,586,NaN,cat,airplane,8-0-10,0586_eid_dnn_8-0-10_airplane_10_n02690373_7536.png,n02690373_7536.png,0.0,-5.7468767,-0.5037246,-3.7074685
alexnet_w1_mlp_simclrhn_probe0,1,587,NaN,cat,cat,8-0-10,0587_eid_dnn_8-0-10_cat_10_n02123597_22140.png,n02123597_22140.png,1.0,-1.2090415,-2.1343646,0.6543023
alexnet_w1_mlp_simclrhn_probe0,1,588,NaN,oven,bottle,128-0-10,0588_eid_dnn_128-0-10_bottle_10_n04591713_8914.png,n04591713_8914.png,0.0,-4.0143476,-1.0308223,-2.1096709
alexnet_w1_mlp_simclrhn_probe0,1,589,NaN,oven,car,128-0-10,0589_eid_dnn_128-0-10_car_10_n03100240_963.png,n03100240_963.png,0.0,-9.397545,-0.45146775,-6.325832
alexnet_w1_mlp_simclrhn_probe0,1,590,NaN,bear,boat,32-0-10,0590_eid_dnn_32-0-10_boat_10_n02951358_18762.png,n02951358_18762.png,0.0,-4.1823993,-1.52474,-1.879249
alexnet_w1_mlp_simclrhn_probe0,1,591,NaN,bear,bear,32-0-10,0591_eid_dnn_32-0-10_bear_10_n02134418_2633.png,n02134418_2633.png,1.0,-0.030341417,-1.1290361,0.77689445
alexnet_w1_mlp_simclrhn_probe0,1,592,NaN,oven,airplane,64-0-10,0592_eid_dnn_64-0-10_airplane_10_n02690373_1169.png,n02690373_1169.png,0.0,-11.404472,1.2917957,-8.977617
alexnet_w1_mlp_simclrhn_probe0,1,593,NaN,bicycle,bicycle,2-0-10,0593_eid_dnn_2-0-10_bicycle_10_n03792782_12704.png,n03792782_12704.png,1.0,-3.0677364,-6.4620914,2.4001715
alexnet_w1_mlp_simclrhn_probe0,1,594,NaN,oven,dog,64-0-10,0594_eid_dnn_64-0-10_dog_10_n02088238_2973.png,n02088238_2973.png,0.0,-0.75593567,1.3646618,-1.4994888
alexnet_w1_mlp_simclrhn_probe0,1,595,NaN,bear,knife,32-0-10,0595_eid_dnn_32-0-10_knife_10_n03041632_41493.png,n03041632_41493.png,0.0,-3.9706502,-0.9556327,-2.1319394
alexnet_w1_mlp_simclrhn_probe0,1,596,NaN,bear,bottle,128-0-10,0596_eid_dnn_128-0-10_bottle_10_n03983396_2959.png,n03983396_2959.png,0.0,-6.2510962,-2.7194629,-2.497242
alexnet_w1_mlp_simclrhn_probe0,1,597,NaN,clock,clock,1-0-10,0597_eid_dnn_1-0-10_clock_10_n02708093_2843.png,n02708093_2843.png,1.0,-2.5782115,-2.953792,0.26557556
alexnet_w1_mlp_simclrhn_probe0,1,598,NaN,oven,oven,8-0-10,0598_eid_dnn_8-0-10_oven_10_n04111531_12952.png,n04111531_12952.png,1.0,-0.55219144,-1.6144837,0.7511541
alexnet_w1_mlp_simclrhn_probe0,1,599,NaN,bear,bear,16-0-10,0599_eid_dnn_16-0-10_bear_10_n02134418_2891.png,n02134418_2891.png,1.0,0.97823286,-0.09961724,0.7621551
alexnet_w1_mlp_simclrhn_probe0,1,600,NaN,oven,truck,32-0-10,0600_eid_dnn_32-0-10_truck_10_n03417042_3862.png,n03417042_3862.png,0.0,-8.720034,0.8639705,-6.7769146
alexnet_w1_mlp_simclrhn_probe0,1,601,NaN,oven,elephant,16-0-10,0601_eid_dnn_16-0-10_elephant_10_n02504458_2054.png,n02504458_2054.png,0.0,-0.43851817,1.1864712,-1.149041
alexnet_w1_mlp_simclrhn_probe0,1,602,NaN,airplane,airplane,1-0-10,0602_eid_dnn_1-0-10_airplane_10_n02690373_7355.png,n02690373_7355.png,1.0,3.63061,-1.0679204,3.3223627
alexnet_w1_mlp_simclrhn_probe0,1,603,NaN,cat,knife,128-0-10,0603_eid_dnn_128-0-10_knife_10_n03041632_22738.png,n03041632_22738.png,0.0,-5.1858945,-0.35686937,-3.4146366
alexnet_w1_mlp_simclrhn_probe0,1,604,NaN,oven,oven,1-0-10,0604_eid_dnn_1-0-10_oven_10_n04111531_4250.png,n04111531_4250.png,1.0,2.7092767,-4.473146,5.0787396
