subj,session,trial,rt,object_response,category,condition,imagename,filename,is_correct,targ_act,max_nontarg_act,decision_margin
alexnet_w1_mlp_simclrhn_probe3,1,1,NaN,bear,oven,16-0-10,0001_eid_dnn_16-0-10_oven_10_n04111531_13542.png,n04111531_13542.png,0.0,0.95953053,1.3721243,-0.29174787
alexnet_w1_mlp_simclrhn_probe3,1,2,NaN,car,car,4-0-10,0002_eid_dnn_4-0-10_car_10_n03100240_5570.png,n03100240_5570.png,1.0,1.7100906,1.5229144,0.13235359
alexnet_w1_mlp_simclrhn_probe3,1,3,NaN,cat,bird,8-0-10,0003_eid_dnn_8-0-10_bird_10_n01820546_4847.png,n01820546_4847.png,0.0,-0.5127591,1.4381918,-1.3795305
alexnet_w1_mlp_simclrhn_probe3,1,4,NaN,bear,bear,32-0-10,0004_eid_dnn_32-0-10_bear_10_n02133161_15561.png,n02133161_15561.png,1.0,0.80226517,0.58067566,0.15668744
alexnet_w1_mlp_simclrhn_probe3,1,5,NaN,oven,bird,64-0-10,0005_eid_dnn_64-0-10_bird_10_n01531178_9584.png,n01531178_9584.png,0.0,-0.26901662,0.4905339,-0.5370833
alexnet_w1_mlp_simclrhn_probe3,1,6,NaN,bear,bicycle,8-0-10,0006_eid_dnn_8-0-10_bicycle_10_n02835271_18846.png,n02835271_18846.png,0.0,0.060625196,1.8558879,-1.2694424
alexnet_w1_mlp_simclrhn_probe3,1,7,NaN,oven,oven,4-0-10,0007_eid_dnn_4-0-10_oven_10_n04111531_73.png,n04111531_73.png,1.0,2.0725946,1.177204,0.6331368
alexnet_w1_mlp_simclrhn_probe3,1,8,NaN,cat,clock,2-0-10,0008_eid_dnn_2-0-10_clock_10_n04548280_6159.png,n04548280_6159.png,0.0,-0.35397896,1.5026764,-1.3128536
alexnet_w1_mlp_simclrhn_probe3,1,9,NaN,oven,chair,32-0-10,0009_eid_dnn_32-0-10_chair_10_n03376595_9395.png,n03376595_9395.png,0.0,0.13359585,1.432111,-0.9181889
alexnet_w1_mlp_simclrhn_probe3,1,10,NaN,oven,bicycle,64-0-10,0010_eid_dnn_64-0-10_bicycle_10_n02835271_1918.png,n02835271_1918.png,0.0,0.02495505,0.24185483,-0.1533713
alexnet_w1_mlp_simclrhn_probe3,1,11,NaN,keyboard,bicycle,128-0-10,0011_eid_dnn_128-0-10_bicycle_10_n02835271_42320.png,n02835271_42320.png,0.0,-0.3856014,0.89450884,-0.9051747
alexnet_w1_mlp_simclrhn_probe3,1,12,NaN,elephant,elephant,1-0-10,0012_eid_dnn_1-0-10_elephant_10_n02504458_3628.png,n02504458_3628.png,1.0,6.3704815,2.3239703,2.8613155
alexnet_w1_mlp_simclrhn_probe3,1,13,NaN,oven,knife,64-0-10,0013_eid_dnn_64-0-10_knife_10_n03041632_86554.png,n03041632_86554.png,0.0,0.04339444,0.8461154,-0.5676094
alexnet_w1_mlp_simclrhn_probe3,1,14,NaN,bear,cat,8-0-10,0014_eid_dnn_8-0-10_cat_10_n02123394_1726.png,n02123394_1726.png,0.0,0.9584822,1.0969577,-0.09791695
alexnet_w1_mlp_simclrhn_probe3,1,15,NaN,bear,cat,32-0-10,0015_eid_dnn_32-0-10_cat_10_n02123597_6721.png,n02123597_6721.png,0.0,0.1207479,0.6336188,-0.36265445
alexnet_w1_mlp_simclrhn_probe3,1,16,NaN,oven,oven,2-0-10,0016_eid_dnn_2-0-10_oven_10_n04111531_21869.png,n04111531_21869.png,1.0,2.1506836,1.5585886,0.4186744
alexnet_w1_mlp_simclrhn_probe3,1,17,NaN,bear,bear,4-0-10,0017_eid_dnn_4-0-10_bear_10_n02134084_2949.png,n02134084_2949.png,1.0,1.1778696,0.6289335,0.3881564
alexnet_w1_mlp_simclrhn_probe3,1,18,NaN,bear,truck,8-0-10,0018_eid_dnn_8-0-10_truck_10_n03417042_18743.png,n03417042_18743.png,0.0,-0.2927677,1.5744808,-1.3203441
alexnet_w1_mlp_simclrhn_probe3,1,19,NaN,bear,bird,16-0-10,0019_eid_dnn_16-0-10_bird_10_n01616318_4246.png,n01616318_4246.png,0.0,-0.21243802,0.8440636,-0.74705946
alexnet_w1_mlp_simclrhn_probe3,1,20,NaN,bear,bicycle,8-0-10,0020_eid_dnn_8-0-10_bicycle_10_n03792782_66771.png,n03792782_66771.png,0.0,0.4273621,1.2426208,-0.57647496
alexnet_w1_mlp_simclrhn_probe3,1,21,NaN,keyboard,keyboard,2-0-10,0021_eid_dnn_2-0-10_keyboard_10_n04505470_3531.png,n04505470_3531.png,1.0,2.6930852,0.99529916,1.2005161
alexnet_w1_mlp_simclrhn_probe3,1,22,NaN,oven,clock,8-0-10,0022_eid_dnn_8-0-10_clock_10_n04548280_6463.png,n04548280_6463.png,0.0,-0.039691612,0.99164104,-0.7292623
alexnet_w1_mlp_simclrhn_probe3,1,23,NaN,oven,keyboard,16-0-10,0023_eid_dnn_16-0-10_keyboard_10_n04505470_4974.png,n04505470_4974.png,0.0,-0.50907904,0.51346713,-0.72304934
alexnet_w1_mlp_simclrhn_probe3,1,24,NaN,oven,chair,4-0-10,0024_eid_dnn_4-0-10_chair_10_n03376595_360.png,n03376595_360.png,0.0,-0.81497765,0.53686607,-0.95589787
alexnet_w1_mlp_simclrhn_probe3,1,25,NaN,bear,dog,16-0-10,0025_eid_dnn_16-0-10_dog_10_n02097130_2752.png,n02097130_2752.png,0.0,0.1301921,1.1147326,-0.6961753
alexnet_w1_mlp_simclrhn_probe3,1,26,NaN,oven,bicycle,2-0-10,0026_eid_dnn_2-0-10_bicycle_10_n02835271_3406.png,n02835271_3406.png,0.0,-0.0026507974,2.003559,-1.4186046
alexnet_w1_mlp_simclrhn_probe3,1,27,NaN,oven,bottle,16-0-10,0027_eid_dnn_16-0-10_bottle_10_n04560804_11732.png,n04560804_11732.png,0.0,0.081139706,1.2657743,-0.8376632
alexnet_w1_mlp_simclrhn_probe3,1,28,NaN,oven,bottle,32-0-10,0028_eid_dnn_32-0-10_bottle_10_n04591713_13589.png,n04591713_13589.png,0.0,0.17374146,0.8841927,-0.5023649
alexnet_w1_mlp_simclrhn_probe3,1,29,NaN,cat,cat,2-0-10,0029_eid_dnn_2-0-10_cat_10_n02123045_4009.png,n02123045_4009.png,1.0,4.088789,1.2616683,1.9990764
alexnet_w1_mlp_simclrhn_probe3,1,30,NaN,cat,chair,8-0-10,0030_eid_dnn_8-0-10_chair_10_n02791124_1704.png,n02791124_1704.png,0.0,-0.8503462,1.1154587,-1.3900341
alexnet_w1_mlp_simclrhn_probe3,1,31,NaN,oven,bicycle,128-0-10,0031_eid_dnn_128-0-10_bicycle_10_n03792782_28395.png,n03792782_28395.png,0.0,-0.034283243,0.36868796,-0.28494367
alexnet_w1_mlp_simclrhn_probe3,1,32,NaN,bear,truck,16-0-10,0032_eid_dnn_16-0-10_truck_10_n03417042_4288.png,n03417042_4288.png,0.0,-0.272331,1.6644394,-1.3695035
alexnet_w1_mlp_simclrhn_probe3,1,33,NaN,keyboard,keyboard,1-0-10,0033_eid_dnn_1-0-10_keyboard_10_n04505470_3371.png,n04505470_3371.png,1.0,3.0985074,1.6314526,1.0373645
alexnet_w1_mlp_simclrhn_probe3,1,34,NaN,cat,cat,1-0-10,0034_eid_dnn_1-0-10_cat_10_n02124075_13436.png,n02124075_13436.png,1.0,2.3931425,1.6017704,0.55958456
alexnet_w1_mlp_simclrhn_probe3,1,35,NaN,oven,dog,32-0-10,0035_eid_dnn_32-0-10_dog_10_n02097209_8270.png,n02097209_8270.png,0.0,-0.042570885,0.7233269,-0.54157156
alexnet_w1_mlp_simclrhn_probe3,1,36,NaN,oven,clock,128-0-10,0036_eid_dnn_128-0-10_clock_10_n04548280_7795.png,n04548280_7795.png,0.0,0.030310923,0.3946942,-0.2576579
alexnet_w1_mlp_simclrhn_probe3,1,37,NaN,oven,car,32-0-10,0037_eid_dnn_32-0-10_car_10_n03100240_21737.png,n03100240_21737.png,0.0,-0.31156787,0.58432883,-0.6334946
alexnet_w1_mlp_simclrhn_probe3,1,38,NaN,oven,clock,128-0-10,0038_eid_dnn_128-0-10_clock_10_n02708093_1862.png,n02708093_1862.png,0.0,0.15879478,0.33949247,-0.12777257
alexnet_w1_mlp_simclrhn_probe3,1,39,NaN,dog,bicycle,64-0-10,0039_eid_dnn_64-0-10_bicycle_10_n03792782_9412.png,n03792782_9412.png,0.0,0.19543268,0.23566967,-0.028451853
alexnet_w1_mlp_simclrhn_probe3,1,40,NaN,bear,bear,32-0-10,0040_eid_dnn_32-0-10_bear_10_n02134418_163.png,n02134418_163.png,1.0,0.70929325,0.4079523,0.21308023
alexnet_w1_mlp_simclrhn_probe3,1,41,NaN,bear,keyboard,16-0-10,0041_eid_dnn_16-0-10_keyboard_10_n03085013_25675.png,n03085013_25675.png,0.0,0.034018196,0.8251895,-0.5594426
alexnet_w1_mlp_simclrhn_probe3,1,42,NaN,oven,truck,2-0-10,0042_eid_dnn_2-0-10_truck_10_n03417042_1716.png,n03417042_1716.png,0.0,0.40088552,1.5508262,-0.8131309
alexnet_w1_mlp_simclrhn_probe3,1,43,NaN,keyboard,keyboard,128-0-10,0043_eid_dnn_128-0-10_keyboard_10_n03085013_18854.png,n03085013_18854.png,1.0,0.085691705,0.058558144,0.019186325
alexnet_w1_mlp_simclrhn_probe3,1,44,NaN,oven,bottle,32-0-10,0044_eid_dnn_32-0-10_bottle_10_n04591713_4865.png,n04591713_4865.png,0.0,0.09824653,0.94360733,-0.5977604
alexnet_w1_mlp_simclrhn_probe3,1,45,NaN,bear,bicycle,32-0-10,0045_eid_dnn_32-0-10_bicycle_10_n03792782_693.png,n03792782_693.png,0.0,-0.028928056,0.7501742,-0.5509085
alexnet_w1_mlp_simclrhn_probe3,1,46,NaN,dog,bottle,1-0-10,0046_eid_dnn_1-0-10_bottle_10_n04557648_264.png,n04557648_264.png,0.0,-0.22495238,0.8880378,-0.78700286
alexnet_w1_mlp_simclrhn_probe3,1,47,NaN,bear,knife,2-0-10,0047_eid_dnn_2-0-10_knife_10_n03041632_25512.png,n03041632_25512.png,0.0,0.25684854,0.3423931,-0.060489137
alexnet_w1_mlp_simclrhn_probe3,1,48,NaN,bear,boat,16-0-10,0048_eid_dnn_16-0-10_boat_10_n03344393_2381.png,n03344393_2381.png,0.0,0.07526238,0.8962905,-0.58055454
alexnet_w1_mlp_simclrhn_probe3,1,49,NaN,keyboard,dog,128-0-10,0049_eid_dnn_128-0-10_dog_10_n02110627_17670.png,n02110627_17670.png,0.0,-0.114389665,0.7044293,-0.5789925
alexnet_w1_mlp_simclrhn_probe3,1,50,NaN,keyboard,bear,64-0-10,0050_eid_dnn_64-0-10_bear_10_n02133161_15981.png,n02133161_15981.png,0.0,-0.14601332,0.60925514,-0.5340555
alexnet_w1_mlp_simclrhn_probe3,1,51,NaN,bear,elephant,16-0-10,0051_eid_dnn_16-0-10_elephant_10_n02504458_3570.png,n02504458_3570.png,0.0,1.2499092,1.4212221,-0.12113654
alexnet_w1_mlp_simclrhn_probe3,1,52,NaN,bottle,truck,4-0-10,0052_eid_dnn_4-0-10_truck_10_n03417042_6241.png,n03417042_6241.png,0.0,0.004967466,2.5005176,-1.7646204
alexnet_w1_mlp_simclrhn_probe3,1,53,NaN,bear,bird,8-0-10,0053_eid_dnn_8-0-10_bird_10_n02025239_17670.png,n02025239_17670.png,0.0,-0.15469839,0.86644787,-0.7220595
alexnet_w1_mlp_simclrhn_probe3,1,54,NaN,bear,dog,16-0-10,0054_eid_dnn_16-0-10_dog_10_n02106030_19249.png,n02106030_19249.png,0.0,0.25221738,0.98594654,-0.5188249
alexnet_w1_mlp_simclrhn_probe3,1,55,NaN,bear,keyboard,32-0-10,0055_eid_dnn_32-0-10_keyboard_10_n04505470_2326.png,n04505470_2326.png,0.0,-0.024903864,0.48440814,-0.360138
alexnet_w1_mlp_simclrhn_probe3,1,56,NaN,bear,dog,16-0-10,0056_eid_dnn_16-0-10_dog_10_n02107142_9379.png,n02107142_9379.png,0.0,0.16399506,0.6556877,-0.3476792
alexnet_w1_mlp_simclrhn_probe3,1,57,NaN,oven,cat,64-0-10,0057_eid_dnn_64-0-10_cat_10_n02123394_1828.png,n02123394_1828.png,0.0,0.025876263,0.5295518,-0.3561524
alexnet_w1_mlp_simclrhn_probe3,1,58,NaN,oven,car,32-0-10,0058_eid_dnn_32-0-10_car_10_n03100240_4605.png,n03100240_4605.png,0.0,-0.23688634,1.3694015,-1.135817
alexnet_w1_mlp_simclrhn_probe3,1,59,NaN,oven,bicycle,4-0-10,0059_eid_dnn_4-0-10_bicycle_10_n03792782_6765.png,n03792782_6765.png,0.0,0.3194363,0.9692766,-0.45950648
alexnet_w1_mlp_simclrhn_probe3,1,60,NaN,bear,boat,8-0-10,0060_eid_dnn_8-0-10_boat_10_n03344393_8455.png,n03344393_8455.png,0.0,-0.3273077,0.7867018,-0.78772366
alexnet_w1_mlp_simclrhn_probe3,1,61,NaN,oven,oven,16-0-10,0061_eid_dnn_16-0-10_oven_10_n04111531_8603.png,n04111531_8603.png,1.0,1.7474322,1.1974756,0.3888781
alexnet_w1_mlp_simclrhn_probe3,1,62,NaN,bird,bird,2-0-10,0062_eid_dnn_2-0-10_bird_10_n02051845_2574.png,n02051845_2574.png,1.0,2.0008514,0.87878877,0.79341817
alexnet_w1_mlp_simclrhn_probe3,1,63,NaN,boat,boat,4-0-10,0063_eid_dnn_4-0-10_boat_10_n04612504_15875.png,n04612504_15875.png,1.0,1.7034962,0.5584182,0.8096924
alexnet_w1_mlp_simclrhn_probe3,1,64,NaN,bottle,bottle,4-0-10,0064_eid_dnn_4-0-10_bottle_10_n03983396_7337.png,n03983396_7337.png,1.0,1.0049014,0.47993964,0.37120402
alexnet_w1_mlp_simclrhn_probe3,1,65,NaN,cat,clock,8-0-10,0065_eid_dnn_8-0-10_clock_10_n02708093_6822.png,n02708093_6822.png,0.0,-0.27364242,1.7645392,-1.4412122
alexnet_w1_mlp_simclrhn_probe3,1,66,NaN,oven,truck,2-0-10,0066_eid_dnn_2-0-10_truck_10_n04467665_15994.png,n04467665_15994.png,0.0,0.16499671,0.85351837,-0.4868583
alexnet_w1_mlp_simclrhn_probe3,1,67,NaN,dog,cat,128-0-10,0067_eid_dnn_128-0-10_cat_10_n02123597_6291.png,n02123597_6291.png,0.0,-0.16551705,0.06748659,-0.16475846
alexnet_w1_mlp_simclrhn_probe3,1,68,NaN,cat,bird,8-0-10,0068_eid_dnn_8-0-10_bird_10_n01817953_1734.png,n01817953_1734.png,0.0,0.20155296,2.4513226,-1.5908275
alexnet_w1_mlp_simclrhn_probe3,1,69,NaN,oven,elephant,32-0-10,0069_eid_dnn_32-0-10_elephant_10_n02504458_6880.png,n02504458_6880.png,0.0,0.23657192,1.0285788,-0.56003344
alexnet_w1_mlp_simclrhn_probe3,1,70,NaN,oven,cat,16-0-10,0070_eid_dnn_16-0-10_cat_10_n02123597_13197.png,n02123597_13197.png,0.0,0.46406052,1.4366786,-0.68774486
alexnet_w1_mlp_simclrhn_probe3,1,71,NaN,bear,bicycle,64-0-10,0071_eid_dnn_64-0-10_bicycle_10_n03792782_973.png,n03792782_973.png,0.0,0.23096135,0.37812185,-0.10405819
alexnet_w1_mlp_simclrhn_probe3,1,72,NaN,cat,cat,2-0-10,0072_eid_dnn_2-0-10_cat_10_n02124075_8310.png,n02124075_8310.png,1.0,2.9745045,1.4419281,1.0836952
alexnet_w1_mlp_simclrhn_probe3,1,73,NaN,oven,oven,32-0-10,0073_eid_dnn_32-0-10_oven_10_n04111531_5168.png,n04111531_5168.png,1.0,0.919099,0.3598186,0.39547098
alexnet_w1_mlp_simclrhn_probe3,1,74,NaN,airplane,airplane,1-0-10,0074_eid_dnn_1-0-10_airplane_10_n02690373_4893.png,n02690373_4893.png,1.0,4.320013,0.4942446,2.705227
alexnet_w1_mlp_simclrhn_probe3,1,75,NaN,dog,dog,1-0-10,0075_eid_dnn_1-0-10_dog_10_n02086240_3614.png,n02086240_3614.png,1.0,0.68761694,0.5051136,0.12904936
alexnet_w1_mlp_simclrhn_probe3,1,76,NaN,cat,oven,16-0-10,0076_eid_dnn_16-0-10_oven_10_n04111531_2937.png,n04111531_2937.png,0.0,1.0973057,1.2447712,-0.104273915
alexnet_w1_mlp_simclrhn_probe3,1,77,NaN,knife,clock,1-0-10,0077_eid_dnn_1-0-10_clock_10_n03196217_2022.png,n03196217_2022.png,0.0,0.33690628,0.72640944,-0.27542034
alexnet_w1_mlp_simclrhn_probe3,1,78,NaN,oven,bottle,64-0-10,0078_eid_dnn_64-0-10_bottle_10_n04591713_2732.png,n04591713_2732.png,0.0,0.10989131,0.35917792,-0.17627226
alexnet_w1_mlp_simclrhn_probe3,1,79,NaN,car,car,2-0-10,0079_eid_dnn_2-0-10_car_10_n03100240_8794.png,n03100240_8794.png,1.0,2.9170654,1.972305,0.6680464
alexnet_w1_mlp_simclrhn_probe3,1,80,NaN,oven,airplane,16-0-10,0080_eid_dnn_16-0-10_airplane_10_n02690373_3640.png,n02690373_3640.png,0.0,-0.22642322,0.8410218,-0.75479764
alexnet_w1_mlp_simclrhn_probe3,1,81,NaN,oven,bicycle,64-0-10,0081_eid_dnn_64-0-10_bicycle_10_n03792782_41097.png,n03792782_41097.png,0.0,0.27187115,0.3864658,-0.081030644
alexnet_w1_mlp_simclrhn_probe3,1,82,NaN,oven,dog,64-0-10,0082_eid_dnn_64-0-10_dog_10_n02090721_6770.png,n02090721_6770.png,0.0,0.042544425,0.20482457,-0.114749394
alexnet_w1_mlp_simclrhn_probe3,1,83,NaN,bear,cat,16-0-10,0083_eid_dnn_16-0-10_cat_10_n02123597_28968.png,n02123597_28968.png,0.0,0.6480824,0.92542356,-0.19610983
alexnet_w1_mlp_simclrhn_probe3,1,84,NaN,elephant,elephant,1-0-10,0084_eid_dnn_1-0-10_elephant_10_n02504013_5894.png,n02504013_5894.png,1.0,10.313131,3.5194874,4.8038316
alexnet_w1_mlp_simclrhn_probe3,1,85,NaN,oven,oven,32-0-10,0085_eid_dnn_32-0-10_oven_10_n04111531_9314.png,n04111531_9314.png,1.0,0.95001185,0.4517373,0.3523333
alexnet_w1_mlp_simclrhn_probe3,1,86,NaN,elephant,elephant,1-0-10,0086_eid_dnn_1-0-10_elephant_10_n02504458_12074.png,n02504458_12074.png,1.0,2.4656014,1.2320065,0.87228334
alexnet_w1_mlp_simclrhn_probe3,1,87,NaN,boat,boat,4-0-10,0087_eid_dnn_4-0-10_boat_10_n03344393_3773.png,n03344393_3773.png,1.0,1.2581332,1.2197447,0.027144762
alexnet_w1_mlp_simclrhn_probe3,1,88,NaN,oven,truck,128-0-10,0088_eid_dnn_128-0-10_truck_10_n04467665_80153.png,n04467665_80153.png,0.0,-0.2732933,0.18664478,-0.32522532
alexnet_w1_mlp_simclrhn_probe3,1,89,NaN,oven,chair,128-0-10,0089_eid_dnn_128-0-10_chair_10_n04099969_20604.png,n04099969_20604.png,0.0,-0.08661047,0.15030591,-0.16752519
alexnet_w1_mlp_simclrhn_probe3,1,90,NaN,oven,keyboard,32-0-10,0090_eid_dnn_32-0-10_keyboard_10_n03085013_23625.png,n03085013_23625.png,0.0,0.029305562,0.6315534,-0.42585352
alexnet_w1_mlp_simclrhn_probe3,1,91,NaN,oven,truck,64-0-10,0091_eid_dnn_64-0-10_truck_10_n03796401_1458.png,n03796401_1458.png,0.0,-0.3078147,0.30501682,-0.4333373
alexnet_w1_mlp_simclrhn_probe3,1,92,NaN,oven,car,4-0-10,0092_eid_dnn_4-0-10_car_10_n03100240_18711.png,n03100240_18711.png,0.0,-0.14508696,0.95300823,-0.77647054
alexnet_w1_mlp_simclrhn_probe3,1,93,NaN,oven,truck,128-0-10,0093_eid_dnn_128-0-10_truck_10_n03796401_2988.png,n03796401_2988.png,0.0,-0.27377513,0.22553697,-0.35306698
alexnet_w1_mlp_simclrhn_probe3,1,94,NaN,truck,truck,2-0-10,0094_eid_dnn_2-0-10_truck_10_n03417042_7096.png,n03417042_7096.png,1.0,4.5082345,0.990421,2.4874697
alexnet_w1_mlp_simclrhn_probe3,1,95,NaN,cat,dog,8-0-10,0095_eid_dnn_8-0-10_dog_10_n02105855_9345.png,n02105855_9345.png,0.0,0.79169786,1.5592905,-0.54276997
alexnet_w1_mlp_simclrhn_probe3,1,96,NaN,bear,bird,32-0-10,0096_eid_dnn_32-0-10_bird_10_n01796340_8342.png,n01796340_8342.png,0.0,-0.15172563,0.4542228,-0.42847025
alexnet_w1_mlp_simclrhn_probe3,1,97,NaN,cat,airplane,8-0-10,0097_eid_dnn_8-0-10_airplane_10_n02690373_7293.png,n02690373_7293.png,0.0,-0.09439487,0.99472266,-0.7701224
alexnet_w1_mlp_simclrhn_probe3,1,98,NaN,oven,car,64-0-10,0098_eid_dnn_64-0-10_car_10_n04285008_9811.png,n04285008_9811.png,0.0,-0.51421505,0.4363644,-0.6721612
alexnet_w1_mlp_simclrhn_probe3,1,99,NaN,bear,knife,8-0-10,0099_eid_dnn_8-0-10_knife_10_n03041632_86783.png,n03041632_86783.png,0.0,-0.09207101,1.2805185,-0.9705674
alexnet_w1_mlp_simclrhn_probe3,1,100,NaN,oven,oven,16-0-10,0100_eid_dnn_16-0-10_oven_10_n04111531_9867.png,n04111531_9867.png,1.0,1.8825445,1.619944,0.18568663
alexnet_w1_mlp_simclrhn_probe3,1,101,NaN,keyboard,truck,128-0-10,0101_eid_dnn_128-0-10_truck_10_n04467665_22573.png,n04467665_22573.png,0.0,-0.2813257,0.50499725,-0.5560143
alexnet_w1_mlp_simclrhn_probe3,1,102,NaN,dog,car,128-0-10,0102_eid_dnn_128-0-10_car_10_n02814533_23512.png,n02814533_23512.png,0.0,-0.48083392,0.07249346,-0.39126155
alexnet_w1_mlp_simclrhn_probe3,1,103,NaN,oven,bicycle,16-0-10,0103_eid_dnn_16-0-10_bicycle_10_n03792782_4895.png,n03792782_4895.png,0.0,-0.37399274,1.0522735,-1.0085225
alexnet_w1_mlp_simclrhn_probe3,1,104,NaN,oven,keyboard,2-0-10,0104_eid_dnn_2-0-10_keyboard_10_n03085013_23554.png,n03085013_23554.png,0.0,0.81500864,0.8824333,-0.047676433
alexnet_w1_mlp_simclrhn_probe3,1,105,NaN,elephant,bear,1-0-10,0105_eid_dnn_1-0-10_bear_10_n02134084_8601.png,n02134084_8601.png,0.0,2.1598105,2.5417194,-0.27005038
alexnet_w1_mlp_simclrhn_probe3,1,106,NaN,bear,bicycle,8-0-10,0106_eid_dnn_8-0-10_bicycle_10_n03792782_126.png,n03792782_126.png,0.0,-0.4400087,1.4698174,-1.350451
alexnet_w1_mlp_simclrhn_probe3,1,107,NaN,chair,chair,1-0-10,0107_eid_dnn_1-0-10_chair_10_n04099969_3583.png,n04099969_3583.png,1.0,2.3290122,1.5844513,0.526484
alexnet_w1_mlp_simclrhn_probe3,1,108,NaN,cat,bicycle,8-0-10,0108_eid_dnn_8-0-10_bicycle_10_n02835271_976.png,n02835271_976.png,0.0,-0.65119714,1.9778565,-1.8590217
alexnet_w1_mlp_simclrhn_probe3,1,109,NaN,oven,oven,32-0-10,0109_eid_dnn_32-0-10_oven_10_n04111531_10313.png,n04111531_10313.png,1.0,1.1555533,0.58569956,0.4029475
alexnet_w1_mlp_simclrhn_probe3,1,110,NaN,oven,oven,1-0-10,0110_eid_dnn_1-0-10_oven_10_n04111531_8984.png,n04111531_8984.png,1.0,6.8714447,2.3456733,3.2002034
alexnet_w1_mlp_simclrhn_probe3,1,111,NaN,bear,elephant,8-0-10,0111_eid_dnn_8-0-10_elephant_10_n02504013_3181.png,n02504013_3181.png,0.0,1.2848996,1.8425756,-0.39433646
alexnet_w1_mlp_simclrhn_probe3,1,112,NaN,bear,keyboard,64-0-10,0112_eid_dnn_64-0-10_keyboard_10_n03085013_21490.png,n03085013_21490.png,0.0,-0.33047837,0.28961724,-0.43847382
alexnet_w1_mlp_simclrhn_probe3,1,113,NaN,airplane,bird,4-0-10,0113_eid_dnn_4-0-10_bird_10_n01614925_2708.png,n01614925_2708.png,0.0,0.44146326,1.4934373,-0.743858
alexnet_w1_mlp_simclrhn_probe3,1,114,NaN,oven,bottle,16-0-10,0114_eid_dnn_16-0-10_bottle_10_n03983396_3109.png,n03983396_3109.png,0.0,0.06639473,0.9466529,-0.6224365
alexnet_w1_mlp_simclrhn_probe3,1,115,NaN,dog,bear,128-0-10,0115_eid_dnn_128-0-10_bear_10_n02134418_377.png,n02134418_377.png,0.0,0.014789179,0.1312404,-0.082343444
alexnet_w1_mlp_simclrhn_probe3,1,116,NaN,oven,knife,16-0-10,0116_eid_dnn_16-0-10_knife_10_n03041632_7680.png,n03041632_7680.png,0.0,-0.1694878,1.1073594,-0.9028674
alexnet_w1_mlp_simclrhn_probe3,1,117,NaN,elephant,truck,4-0-10,0117_eid_dnn_4-0-10_truck_10_n03417042_3807.png,n03417042_3807.png,0.0,0.36317953,1.8113723,-1.0240269
alexnet_w1_mlp_simclrhn_probe3,1,118,NaN,oven,elephant,128-0-10,0118_eid_dnn_128-0-10_elephant_10_n02504013_6501.png,n02504013_6501.png,0.0,0.04486939,0.3984717,-0.2500346
alexnet_w1_mlp_simclrhn_probe3,1,119,NaN,oven,bicycle,32-0-10,0119_eid_dnn_32-0-10_bicycle_10_n03792782_5517.png,n03792782_5517.png,0.0,0.08432796,0.18612655,-0.07198247
alexnet_w1_mlp_simclrhn_probe3,1,120,NaN,keyboard,bottle,128-0-10,0120_eid_dnn_128-0-10_bottle_10_n02823428_5791.png,n02823428_5791.png,0.0,0.18865106,0.8526198,-0.46949685
alexnet_w1_mlp_simclrhn_probe3,1,121,NaN,oven,car,128-0-10,0121_eid_dnn_128-0-10_car_10_n04285008_10144.png,n04285008_10144.png,0.0,-0.4460362,0.28714213,-0.51843536
alexnet_w1_mlp_simclrhn_probe3,1,122,NaN,cat,cat,4-0-10,0122_eid_dnn_4-0-10_cat_10_n02123159_5764.png,n02123159_5764.png,1.0,3.8286543,1.1832582,1.8705777
alexnet_w1_mlp_simclrhn_probe3,1,123,NaN,cat,dog,16-0-10,0123_eid_dnn_16-0-10_dog_10_n02085936_4491.png,n02085936_4491.png,0.0,0.24739626,0.5405956,-0.20732324
alexnet_w1_mlp_simclrhn_probe3,1,124,NaN,oven,bicycle,32-0-10,0124_eid_dnn_32-0-10_bicycle_10_n03792782_6159.png,n03792782_6159.png,0.0,0.017056897,0.63417226,-0.43636647
alexnet_w1_mlp_simclrhn_probe3,1,125,NaN,clock,clock,4-0-10,0125_eid_dnn_4-0-10_clock_10_n04548280_2404.png,n04548280_2404.png,1.0,2.2472534,0.36314628,1.3322649
alexnet_w1_mlp_simclrhn_probe3,1,126,NaN,oven,bottle,64-0-10,0126_eid_dnn_64-0-10_bottle_10_n04591713_360.png,n04591713_360.png,0.0,0.1933763,0.9731312,-0.55136997
alexnet_w1_mlp_simclrhn_probe3,1,127,NaN,bear,airplane,16-0-10,0127_eid_dnn_16-0-10_airplane_10_n02690373_1909.png,n02690373_1909.png,0.0,0.11442743,1.1650691,-0.74291587
alexnet_w1_mlp_simclrhn_probe3,1,128,NaN,bear,bear,2-0-10,0128_eid_dnn_2-0-10_bear_10_n02133161_9724.png,n02133161_9724.png,1.0,2.1747894,1.151957,0.72325176
alexnet_w1_mlp_simclrhn_probe3,1,129,NaN,car,car,2-0-10,0129_eid_dnn_2-0-10_car_10_n04285008_5897.png,n04285008_5897.png,1.0,7.819945,3.2086525,3.2606761
alexnet_w1_mlp_simclrhn_probe3,1,130,NaN,bicycle,bicycle,1-0-10,0130_eid_dnn_1-0-10_bicycle_10_n02835271_9807.png,n02835271_9807.png,1.0,3.7217627,0.13027991,2.5395617
alexnet_w1_mlp_simclrhn_probe3,1,131,NaN,knife,keyboard,1-0-10,0131_eid_dnn_1-0-10_keyboard_10_n03085013_23286.png,n03085013_23286.png,0.0,-0.41719165,0.8700806,-0.9102389
alexnet_w1_mlp_simclrhn_probe3,1,132,NaN,oven,clock,2-0-10,0132_eid_dnn_2-0-10_clock_10_n02708093_772.png,n02708093_772.png,0.0,0.19131887,1.305599,-0.78791505
alexnet_w1_mlp_simclrhn_probe3,1,133,NaN,keyboard,clock,4-0-10,0133_eid_dnn_4-0-10_clock_10_n03196217_820.png,n03196217_820.png,0.0,0.6001451,1.984388,-0.97880757
alexnet_w1_mlp_simclrhn_probe3,1,134,NaN,oven,dog,32-0-10,0134_eid_dnn_32-0-10_dog_10_n02093754_6351.png,n02093754_6351.png,0.0,0.07248056,0.72308785,-0.46004882
alexnet_w1_mlp_simclrhn_probe3,1,135,NaN,cat,truck,8-0-10,0135_eid_dnn_8-0-10_truck_10_n03417042_27093.png,n03417042_27093.png,0.0,-0.49517566,1.4852757,-1.4003906
alexnet_w1_mlp_simclrhn_probe3,1,136,NaN,bear,bicycle,4-0-10,0136_eid_dnn_4-0-10_bicycle_10_n03792782_30530.png,n03792782_30530.png,0.0,-0.45228142,1.8235011,-1.6092213
alexnet_w1_mlp_simclrhn_probe3,1,137,NaN,bottle,bottle,4-0-10,0137_eid_dnn_4-0-10_bottle_10_n03937543_5215.png,n03937543_5215.png,1.0,0.6129314,0.1510463,0.32660207
alexnet_w1_mlp_simclrhn_probe3,1,138,NaN,bicycle,boat,2-0-10,0138_eid_dnn_2-0-10_boat_10_n02951358_9933.png,n02951358_9933.png,0.0,0.14536117,1.1226978,-0.6910814
alexnet_w1_mlp_simclrhn_probe3,1,139,NaN,dog,dog,4-0-10,0139_eid_dnn_4-0-10_dog_10_n02086910_8694.png,n02086910_8694.png,1.0,1.1733502,0.9294194,0.17248514
alexnet_w1_mlp_simclrhn_probe3,1,140,NaN,cat,knife,8-0-10,0140_eid_dnn_8-0-10_knife_10_n03041632_3504.png,n03041632_3504.png,0.0,-0.089715414,0.94425553,-0.73112786
alexnet_w1_mlp_simclrhn_probe3,1,141,NaN,keyboard,knife,128-0-10,0141_eid_dnn_128-0-10_knife_10_n03041632_15754.png,n03041632_15754.png,0.0,-0.08383899,0.31761658,-0.28387198
alexnet_w1_mlp_simclrhn_probe3,1,142,NaN,elephant,truck,8-0-10,0142_eid_dnn_8-0-10_truck_10_n04467665_45306.png,n04467665_45306.png,0.0,-0.12641439,0.2525218,-0.26794836
alexnet_w1_mlp_simclrhn_probe3,1,143,NaN,elephant,elephant,1-0-10,0143_eid_dnn_1-0-10_elephant_10_n02504013_5351.png,n02504013_5351.png,1.0,2.1315217,1.185541,0.6689094
alexnet_w1_mlp_simclrhn_probe3,1,144,NaN,cat,bottle,2-0-10,0144_eid_dnn_2-0-10_bottle_10_n03937543_7763.png,n03937543_7763.png,0.0,0.01667482,1.568636,-1.0974022
alexnet_w1_mlp_simclrhn_probe3,1,145,NaN,bear,bird,32-0-10,0145_eid_dnn_32-0-10_bird_10_n01843383_91.png,n01843383_91.png,0.0,-0.1128538,0.3178201,-0.30453244
alexnet_w1_mlp_simclrhn_probe3,1,146,NaN,bottle,clock,4-0-10,0146_eid_dnn_4-0-10_clock_10_n04548280_28.png,n04548280_28.png,0.0,0.006783495,1.0120523,-0.7108324
alexnet_w1_mlp_simclrhn_probe3,1,147,NaN,oven,knife,16-0-10,0147_eid_dnn_16-0-10_knife_10_n03041632_102828.png,n03041632_102828.png,0.0,-0.039704777,1.2960333,-0.94450945
alexnet_w1_mlp_simclrhn_probe3,1,148,NaN,oven,car,128-0-10,0148_eid_dnn_128-0-10_car_10_n03100240_7520.png,n03100240_7520.png,0.0,-0.5457693,0.25736403,-0.567901
alexnet_w1_mlp_simclrhn_probe3,1,149,NaN,oven,knife,16-0-10,0149_eid_dnn_16-0-10_knife_10_n03041632_53874.png,n03041632_53874.png,0.0,0.024974965,1.2538004,-0.86891085
alexnet_w1_mlp_simclrhn_probe3,1,150,NaN,bear,boat,16-0-10,0150_eid_dnn_16-0-10_boat_10_n04273569_3896.png,n04273569_3896.png,0.0,0.105467916,0.780938,-0.4776295
alexnet_w1_mlp_simclrhn_probe3,1,151,NaN,airplane,airplane,2-0-10,0151_eid_dnn_2-0-10_airplane_10_n02690373_6002.png,n02690373_6002.png,1.0,3.3443403,2.4889429,0.6048574
alexnet_w1_mlp_simclrhn_probe3,1,152,NaN,cat,chair,8-0-10,0152_eid_dnn_8-0-10_chair_10_n04099969_7191.png,n04099969_7191.png,0.0,-0.18166581,1.3738174,-1.0998927
alexnet_w1_mlp_simclrhn_probe3,1,153,NaN,oven,dog,32-0-10,0153_eid_dnn_32-0-10_dog_10_n02101388_4808.png,n02101388_4808.png,0.0,-0.079764225,0.6436577,-0.51153654
alexnet_w1_mlp_simclrhn_probe3,1,154,NaN,cat,keyboard,16-0-10,0154_eid_dnn_16-0-10_keyboard_10_n03085013_24538.png,n03085013_24538.png,0.0,0.07466001,1.2251357,-0.8135091
alexnet_w1_mlp_simclrhn_probe3,1,155,NaN,keyboard,knife,128-0-10,0155_eid_dnn_128-0-10_knife_10_n03041632_85488.png,n03041632_85488.png,0.0,-0.39338052,0.5348823,-0.65638095
alexnet_w1_mlp_simclrhn_probe3,1,156,NaN,cat,car,4-0-10,0156_eid_dnn_4-0-10_car_10_n04285008_7630.png,n04285008_7630.png,0.0,-0.26149085,1.2507213,-1.0692955
alexnet_w1_mlp_simclrhn_probe3,1,157,NaN,bear,airplane,8-0-10,0157_eid_dnn_8-0-10_airplane_10_n02690373_2941.png,n02690373_2941.png,0.0,-0.5361586,1.1122051,-1.1655693
alexnet_w1_mlp_simclrhn_probe3,1,158,NaN,elephant,bird,64-0-10,0158_eid_dnn_64-0-10_bird_10_n01514859_6021.png,n01514859_6021.png,0.0,-0.24720891,0.16328244,-0.2902612
alexnet_w1_mlp_simclrhn_probe3,1,159,NaN,oven,clock,64-0-10,0159_eid_dnn_64-0-10_clock_10_n04548280_3293.png,n04548280_3293.png,0.0,-0.031733945,0.64632106,-0.4794573
alexnet_w1_mlp_simclrhn_probe3,1,160,NaN,cat,oven,4-0-10,0160_eid_dnn_4-0-10_oven_10_n04111531_4998.png,n04111531_4998.png,0.0,0.78803366,1.0833937,-0.20885108
alexnet_w1_mlp_simclrhn_probe3,1,161,NaN,elephant,bird,128-0-10,0161_eid_dnn_128-0-10_bird_10_n02028035_32993.png,n02028035_32993.png,0.0,-0.41384476,0.27529648,-0.48729646
alexnet_w1_mlp_simclrhn_probe3,1,162,NaN,bird,bird,2-0-10,0162_eid_dnn_2-0-10_bird_10_n01843383_7800.png,n01843383_7800.png,1.0,0.2919247,0.12564385,0.117578305
alexnet_w1_mlp_simclrhn_probe3,1,163,NaN,oven,bear,64-0-10,0163_eid_dnn_64-0-10_bear_10_n02132136_15174.png,n02132136_15174.png,0.0,0.14937925,0.31290117,-0.11562746
alexnet_w1_mlp_simclrhn_probe3,1,164,NaN,oven,oven,4-0-10,0164_eid_dnn_4-0-10_oven_10_n04111531_7266.png,n04111531_7266.png,1.0,1.43894,0.6300722,0.571956
alexnet_w1_mlp_simclrhn_probe3,1,165,NaN,oven,cat,128-0-10,0165_eid_dnn_128-0-10_cat_10_n02124075_6464.png,n02124075_6464.png,0.0,0.086295284,0.5937407,-0.35881808
alexnet_w1_mlp_simclrhn_probe3,1,166,NaN,bear,bicycle,16-0-10,0166_eid_dnn_16-0-10_bicycle_10_n02835271_4667.png,n02835271_4667.png,0.0,-0.13275045,1.0552965,-0.840076
alexnet_w1_mlp_simclrhn_probe3,1,167,NaN,oven,chair,32-0-10,0167_eid_dnn_32-0-10_chair_10_n04099969_2532.png,n04099969_2532.png,0.0,0.015980467,0.72956944,-0.5045836
alexnet_w1_mlp_simclrhn_probe3,1,168,NaN,bottle,bottle,4-0-10,0168_eid_dnn_4-0-10_bottle_10_n04560804_15683.png,n04560804_15683.png,1.0,2.1152058,0.7523005,0.96371955
alexnet_w1_mlp_simclrhn_probe3,1,169,NaN,cat,chair,8-0-10,0169_eid_dnn_8-0-10_chair_10_n04099969_6825.png,n04099969_6825.png,0.0,-0.59992623,1.715786,-1.6374558
alexnet_w1_mlp_simclrhn_probe3,1,170,NaN,oven,oven,1-0-10,0170_eid_dnn_1-0-10_oven_10_n04111531_1612.png,n04111531_1612.png,1.0,3.7844448,3.7246153,0.042305827
alexnet_w1_mlp_simclrhn_probe3,1,171,NaN,clock,clock,2-0-10,0171_eid_dnn_2-0-10_clock_10_n02708093_1701.png,n02708093_1701.png,1.0,4.4290214,0.6588547,2.6659105
alexnet_w1_mlp_simclrhn_probe3,1,172,NaN,bear,elephant,32-0-10,0172_eid_dnn_32-0-10_elephant_10_n02504013_782.png,n02504013_782.png,0.0,0.26222453,0.5464084,-0.20094836
alexnet_w1_mlp_simclrhn_probe3,1,173,NaN,oven,dog,128-0-10,0173_eid_dnn_128-0-10_dog_10_n02107908_8814.png,n02107908_8814.png,0.0,0.06234316,0.2962835,-0.16542082
alexnet_w1_mlp_simclrhn_probe3,1,174,NaN,bear,elephant,4-0-10,0174_eid_dnn_4-0-10_elephant_10_n02504458_5816.png,n02504458_5816.png,0.0,1.2927535,1.6578493,-0.25816175
alexnet_w1_mlp_simclrhn_probe3,1,175,NaN,car,car,2-0-10,0175_eid_dnn_2-0-10_car_10_n03100240_18788.png,n03100240_18788.png,1.0,4.799585,1.2589275,2.503623
alexnet_w1_mlp_simclrhn_probe3,1,176,NaN,oven,airplane,16-0-10,0176_eid_dnn_16-0-10_airplane_10_n02690373_7915.png,n02690373_7915.png,0.0,-0.09565933,0.48142228,-0.40805835
alexnet_w1_mlp_simclrhn_probe3,1,177,NaN,oven,chair,4-0-10,0177_eid_dnn_4-0-10_chair_10_n04429376_10544.png,n04429376_10544.png,0.0,0.25665927,2.155158,-1.3424413
alexnet_w1_mlp_simclrhn_probe3,1,178,NaN,oven,knife,32-0-10,0178_eid_dnn_32-0-10_knife_10_n03041632_24883.png,n03041632_24883.png,0.0,-0.11745675,0.548552,-0.47093928
alexnet_w1_mlp_simclrhn_probe3,1,179,NaN,keyboard,bicycle,128-0-10,0179_eid_dnn_128-0-10_bicycle_10_n03792782_10367.png,n03792782_10367.png,0.0,-0.28291768,0.59526455,-0.62096864
alexnet_w1_mlp_simclrhn_probe3,1,180,NaN,oven,oven,1-0-10,0180_eid_dnn_1-0-10_oven_10_n04111531_3121.png,n04111531_3121.png,1.0,3.1862447,1.2739308,1.3522102
alexnet_w1_mlp_simclrhn_probe3,1,181,NaN,oven,car,128-0-10,0181_eid_dnn_128-0-10_car_10_n02814533_10995.png,n02814533_10995.png,0.0,-0.47468475,0.26478738,-0.5228858
alexnet_w1_mlp_simclrhn_probe3,1,182,NaN,keyboard,dog,128-0-10,0182_eid_dnn_128-0-10_dog_10_n02112350_502.png,n02112350_502.png,0.0,-0.11471618,0.5944093,-0.5014274
alexnet_w1_mlp_simclrhn_probe3,1,183,NaN,keyboard,clock,128-0-10,0183_eid_dnn_128-0-10_clock_10_n04548280_5278.png,n04548280_5278.png,0.0,-0.27576312,0.38305366,-0.46585384
alexnet_w1_mlp_simclrhn_probe3,1,184,NaN,bear,bird,4-0-10,0184_eid_dnn_4-0-10_bird_10_n02006656_713.png,n02006656_713.png,0.0,-0.1131993,0.7256391,-0.59314835
alexnet_w1_mlp_simclrhn_probe3,1,185,NaN,elephant,bottle,128-0-10,0185_eid_dnn_128-0-10_bottle_10_n04557648_4106.png,n04557648_4106.png,0.0,0.11959677,0.16794553,-0.034187738
alexnet_w1_mlp_simclrhn_probe3,1,186,NaN,dog,clock,64-0-10,0186_eid_dnn_64-0-10_clock_10_n02708093_1430.png,n02708093_1430.png,0.0,-0.051278263,0.10946148,-0.11366017
alexnet_w1_mlp_simclrhn_probe3,1,187,NaN,oven,oven,1-0-10,0187_eid_dnn_1-0-10_oven_10_n04111531_7664.png,n04111531_7664.png,1.0,4.2252297,1.8368307,1.6888533
alexnet_w1_mlp_simclrhn_probe3,1,188,NaN,car,car,1-0-10,0188_eid_dnn_1-0-10_car_10_n02814533_149.png,n02814533_149.png,1.0,6.4716897,5.830006,0.4537388
alexnet_w1_mlp_simclrhn_probe3,1,189,NaN,dog,clock,64-0-10,0189_eid_dnn_64-0-10_clock_10_n04548280_8296.png,n04548280_8296.png,0.0,-0.020923076,0.1536977,-0.12347554
alexnet_w1_mlp_simclrhn_probe3,1,190,NaN,oven,bottle,64-0-10,0190_eid_dnn_64-0-10_bottle_10_n04591713_5815.png,n04591713_5815.png,0.0,0.092288785,0.4738768,-0.26982346
alexnet_w1_mlp_simclrhn_probe3,1,191,NaN,bottle,knife,2-0-10,0191_eid_dnn_2-0-10_knife_10_n03041632_90125.png,n03041632_90125.png,0.0,0.43941337,1.1223181,-0.4828866
alexnet_w1_mlp_simclrhn_probe3,1,192,NaN,oven,bird,64-0-10,0192_eid_dnn_64-0-10_bird_10_n01534433_16586.png,n01534433_16586.png,0.0,-0.24443123,0.453133,-0.49325243
alexnet_w1_mlp_simclrhn_probe3,1,193,NaN,cat,cat,4-0-10,0193_eid_dnn_4-0-10_cat_10_n02123394_2559.png,n02123394_2559.png,1.0,1.5135177,0.6319785,0.6233424
alexnet_w1_mlp_simclrhn_probe3,1,194,NaN,elephant,elephant,4-0-10,0194_eid_dnn_4-0-10_elephant_10_n02504458_5995.png,n02504458_5995.png,1.0,2.1112568,1.8879297,0.15791616
alexnet_w1_mlp_simclrhn_probe3,1,195,NaN,car,car,2-0-10,0195_eid_dnn_2-0-10_car_10_n02814533_211.png,n02814533_211.png,1.0,7.1504974,4.9870863,1.5297627
alexnet_w1_mlp_simclrhn_probe3,1,196,NaN,chair,chair,1-0-10,0196_eid_dnn_1-0-10_chair_10_n04429376_13328.png,n04429376_13328.png,1.0,2.7820544,1.5810142,0.8492637
alexnet_w1_mlp_simclrhn_probe3,1,197,NaN,cat,keyboard,16-0-10,0197_eid_dnn_16-0-10_keyboard_10_n03085013_24618.png,n03085013_24618.png,0.0,-0.15313388,1.0190394,-0.8288517
alexnet_w1_mlp_simclrhn_probe3,1,198,NaN,oven,oven,4-0-10,0198_eid_dnn_4-0-10_oven_10_n04111531_2186.png,n04111531_2186.png,1.0,1.6305647,1.552583,0.055141397
alexnet_w1_mlp_simclrhn_probe3,1,199,NaN,cat,oven,8-0-10,0199_eid_dnn_8-0-10_oven_10_n04111531_114.png,n04111531_114.png,0.0,0.59807265,1.5991255,-0.7078513
alexnet_w1_mlp_simclrhn_probe3,1,200,NaN,car,car,1-0-10,0200_eid_dnn_1-0-10_car_10_n03100240_1745.png,n03100240_1745.png,1.0,8.665053,4.1347556,3.2034044
alexnet_w1_mlp_simclrhn_probe3,1,201,NaN,cat,cat,4-0-10,0201_eid_dnn_4-0-10_cat_10_n02123394_1259.png,n02123394_1259.png,1.0,1.7728958,0.82907027,0.66738546
alexnet_w1_mlp_simclrhn_probe3,1,202,NaN,cat,oven,4-0-10,0202_eid_dnn_4-0-10_oven_10_n04111531_5801.png,n04111531_5801.png,0.0,0.7538456,0.9551453,-0.1423404
alexnet_w1_mlp_simclrhn_probe3,1,203,NaN,oven,airplane,32-0-10,0203_eid_dnn_32-0-10_airplane_10_n02690373_2024.png,n02690373_2024.png,0.0,0.016071178,0.746649,-0.51659656
alexnet_w1_mlp_simclrhn_probe3,1,204,NaN,cat,cat,8-0-10,0204_eid_dnn_8-0-10_cat_10_n02123045_12181.png,n02123045_12181.png,1.0,1.2202339,1.0230354,0.1394404
alexnet_w1_mlp_simclrhn_probe3,1,205,NaN,oven,airplane,64-0-10,0205_eid_dnn_64-0-10_airplane_10_n02690373_3313.png,n02690373_3313.png,0.0,0.0076464266,0.6253106,-0.43675452
alexnet_w1_mlp_simclrhn_probe3,1,206,NaN,bottle,truck,64-0-10,0206_eid_dnn_64-0-10_truck_10_n04467665_80465.png,n04467665_80465.png,0.0,-0.25830695,0.13874505,-0.28075817
alexnet_w1_mlp_simclrhn_probe3,1,207,NaN,elephant,elephant,2-0-10,0207_eid_dnn_2-0-10_elephant_10_n02504013_8626.png,n02504013_8626.png,1.0,1.0173068,0.9212519,0.06792108
alexnet_w1_mlp_simclrhn_probe3,1,208,NaN,oven,car,16-0-10,0208_eid_dnn_16-0-10_car_10_n04285008_7904.png,n04285008_7904.png,0.0,-0.5193538,1.4849591,-1.4172634
alexnet_w1_mlp_simclrhn_probe3,1,209,NaN,bear,airplane,8-0-10,0209_eid_dnn_8-0-10_airplane_10_n02690373_6363.png,n02690373_6363.png,0.0,-1.7257915,1.0982211,-1.9968784
alexnet_w1_mlp_simclrhn_probe3,1,210,NaN,cat,cat,4-0-10,0210_eid_dnn_4-0-10_cat_10_n02123045_7294.png,n02123045_7294.png,1.0,0.9390261,0.6953224,0.17232455
alexnet_w1_mlp_simclrhn_probe3,1,211,NaN,keyboard,airplane,128-0-10,0211_eid_dnn_128-0-10_airplane_10_n02690373_6988.png,n02690373_6988.png,0.0,-0.22547537,0.79222834,-0.71962523
alexnet_w1_mlp_simclrhn_probe3,1,212,NaN,keyboard,cat,4-0-10,0212_eid_dnn_4-0-10_cat_10_n02125311_25749.png,n02125311_25749.png,0.0,0.738908,1.5095123,-0.5448995
alexnet_w1_mlp_simclrhn_probe3,1,213,NaN,oven,bird,64-0-10,0213_eid_dnn_64-0-10_bird_10_n02018207_12980.png,n02018207_12980.png,0.0,-0.35794196,0.4889051,-0.5988113
alexnet_w1_mlp_simclrhn_probe3,1,214,NaN,oven,cat,32-0-10,0214_eid_dnn_32-0-10_cat_10_n02123394_2814.png,n02123394_2814.png,0.0,0.44303274,0.72397417,-0.19865559
alexnet_w1_mlp_simclrhn_probe3,1,215,NaN,dog,car,4-0-10,0215_eid_dnn_4-0-10_car_10_n04285008_662.png,n04285008_662.png,0.0,0.120434724,0.4269826,-0.2167621
alexnet_w1_mlp_simclrhn_probe3,1,216,NaN,bear,bicycle,2-0-10,0216_eid_dnn_2-0-10_bicycle_10_n03792782_11679.png,n03792782_11679.png,0.0,0.5147404,0.76098144,-0.17411871
alexnet_w1_mlp_simclrhn_probe3,1,217,NaN,bear,dog,16-0-10,0217_eid_dnn_16-0-10_dog_10_n02093428_17769.png,n02093428_17769.png,0.0,0.24954925,0.9299309,-0.4811025
alexnet_w1_mlp_simclrhn_probe3,1,218,NaN,oven,dog,64-0-10,0218_eid_dnn_64-0-10_dog_10_n02106030_17418.png,n02106030_17418.png,0.0,-0.036861353,0.7016478,-0.5222049
alexnet_w1_mlp_simclrhn_probe3,1,219,NaN,oven,chair,64-0-10,0219_eid_dnn_64-0-10_chair_10_n02791124_7142.png,n02791124_7142.png,0.0,0.04405549,0.86824334,-0.5827888
alexnet_w1_mlp_simclrhn_probe3,1,220,NaN,bear,bear,1-0-10,0220_eid_dnn_1-0-10_bear_10_n02134084_18083.png,n02134084_18083.png,1.0,0.72699004,0.71739745,0.0067829876
alexnet_w1_mlp_simclrhn_probe3,1,221,NaN,keyboard,keyboard,2-0-10,0221_eid_dnn_2-0-10_keyboard_10_n03085013_7536.png,n03085013_7536.png,1.0,3.571173,1.5307426,1.4428022
alexnet_w1_mlp_simclrhn_probe3,1,222,NaN,bear,bird,1-0-10,0222_eid_dnn_1-0-10_bird_10_n01616318_2473.png,n01616318_2473.png,0.0,1.4795253,2.1466155,-0.471704
alexnet_w1_mlp_simclrhn_probe3,1,223,NaN,elephant,elephant,1-0-10,0223_eid_dnn_1-0-10_elephant_10_n02504458_5951.png,n02504458_5951.png,1.0,7.5646105,3.4625082,2.9006243
alexnet_w1_mlp_simclrhn_probe3,1,224,NaN,airplane,airplane,4-0-10,0224_eid_dnn_4-0-10_airplane_10_n02690373_5164.png,n02690373_5164.png,1.0,1.1950066,0.76958853,0.300816
alexnet_w1_mlp_simclrhn_probe3,1,225,NaN,elephant,elephant,4-0-10,0225_eid_dnn_4-0-10_elephant_10_n02504013_1865.png,n02504013_1865.png,1.0,2.2160544,1.3071792,0.6426718
alexnet_w1_mlp_simclrhn_probe3,1,226,NaN,knife,knife,1-0-10,0226_eid_dnn_1-0-10_knife_10_n03041632_56454.png,n03041632_56454.png,1.0,1.8854558,0.95104,0.6607318
alexnet_w1_mlp_simclrhn_probe3,1,227,NaN,oven,bird,64-0-10,0227_eid_dnn_64-0-10_bird_10_n01824575_5820.png,n01824575_5820.png,0.0,-0.25830257,0.5609616,-0.57930726
alexnet_w1_mlp_simclrhn_probe3,1,228,NaN,bear,oven,4-0-10,0228_eid_dnn_4-0-10_oven_10_n04111531_4332.png,n04111531_4332.png,0.0,0.8055575,1.0473164,-0.17094938
alexnet_w1_mlp_simclrhn_probe3,1,229,NaN,truck,truck,2-0-10,0229_eid_dnn_2-0-10_truck_10_n04467665_41352.png,n04467665_41352.png,1.0,7.275219,2.6190422,3.2924142
alexnet_w1_mlp_simclrhn_probe3,1,230,NaN,cat,bird,8-0-10,0230_eid_dnn_8-0-10_bird_10_n01514859_5668.png,n01514859_5668.png,0.0,0.22695717,0.4150784,-0.1330218
alexnet_w1_mlp_simclrhn_probe3,1,231,NaN,dog,oven,32-0-10,0231_eid_dnn_32-0-10_oven_10_n04111531_4438.png,n04111531_4438.png,0.0,-0.07024153,0.11225072,-0.12904151
alexnet_w1_mlp_simclrhn_probe3,1,232,NaN,cat,cat,1-0-10,0232_eid_dnn_1-0-10_cat_10_n02123394_6693.png,n02123394_6693.png,1.0,2.111807,0.5345948,1.1152575
alexnet_w1_mlp_simclrhn_probe3,1,233,NaN,oven,elephant,32-0-10,0233_eid_dnn_32-0-10_elephant_10_n02504458_6302.png,n02504458_6302.png,0.0,0.17245379,0.55041325,-0.2672577
alexnet_w1_mlp_simclrhn_probe3,1,234,NaN,oven,bottle,16-0-10,0234_eid_dnn_16-0-10_bottle_10_n03937543_2329.png,n03937543_2329.png,0.0,0.07417993,0.8099321,-0.5202553
alexnet_w1_mlp_simclrhn_probe3,1,235,NaN,bear,elephant,16-0-10,0235_eid_dnn_16-0-10_elephant_10_n02504458_5155.png,n02504458_5155.png,0.0,0.9615436,1.2387344,-0.19600345
alexnet_w1_mlp_simclrhn_probe3,1,236,NaN,oven,bear,1-0-10,0236_eid_dnn_1-0-10_bear_10_n02134084_1694.png,n02134084_1694.png,0.0,1.0407825,1.9379568,-0.6343981
alexnet_w1_mlp_simclrhn_probe3,1,237,NaN,keyboard,bear,128-0-10,0237_eid_dnn_128-0-10_bear_10_n02133161_1624.png,n02133161_1624.png,0.0,-0.10884878,0.33845302,-0.31629014
alexnet_w1_mlp_simclrhn_probe3,1,238,NaN,oven,bear,64-0-10,0238_eid_dnn_64-0-10_bear_10_n02132136_11027.png,n02132136_11027.png,0.0,0.5150205,0.60396135,-0.062890686
alexnet_w1_mlp_simclrhn_probe3,1,239,NaN,oven,elephant,64-0-10,0239_eid_dnn_64-0-10_elephant_10_n02504013_24621.png,n02504013_24621.png,0.0,0.051259466,0.53957534,-0.34529147
alexnet_w1_mlp_simclrhn_probe3,1,240,NaN,oven,knife,16-0-10,0240_eid_dnn_16-0-10_knife_10_n03041632_27134.png,n03041632_27134.png,0.0,0.024597201,1.6589344,-1.155651
alexnet_w1_mlp_simclrhn_probe3,1,241,NaN,oven,keyboard,32-0-10,0241_eid_dnn_32-0-10_keyboard_10_n03085013_24316.png,n03085013_24316.png,0.0,0.08137432,0.75152797,-0.4738702
alexnet_w1_mlp_simclrhn_probe3,1,242,NaN,cat,cat,2-0-10,0242_eid_dnn_2-0-10_cat_10_n02123159_3026.png,n02123159_3026.png,1.0,5.9815288,1.3214939,3.2951424
alexnet_w1_mlp_simclrhn_probe3,1,243,NaN,keyboard,bicycle,128-0-10,0243_eid_dnn_128-0-10_bicycle_10_n03792782_1475.png,n03792782_1475.png,0.0,-0.261476,0.6959702,-0.67701674
alexnet_w1_mlp_simclrhn_probe3,1,244,NaN,cat,cat,16-0-10,0244_eid_dnn_16-0-10_cat_10_n02123045_20507.png,n02123045_20507.png,1.0,1.0988634,0.7981432,0.21264127
alexnet_w1_mlp_simclrhn_probe3,1,245,NaN,oven,boat,64-0-10,0245_eid_dnn_64-0-10_boat_10_n02951358_23759.png,n02951358_23759.png,0.0,-0.12189038,0.49677223,-0.4374605
alexnet_w1_mlp_simclrhn_probe3,1,246,NaN,bear,bear,16-0-10,0246_eid_dnn_16-0-10_bear_10_n02132136_1858.png,n02132136_1858.png,1.0,1.0772212,0.7257494,0.24852808
alexnet_w1_mlp_simclrhn_probe3,1,247,NaN,keyboard,boat,128-0-10,0247_eid_dnn_128-0-10_boat_10_n02951358_6465.png,n02951358_6465.png,0.0,-0.4536848,0.45910096,-0.645437
alexnet_w1_mlp_simclrhn_probe3,1,248,NaN,clock,airplane,128-0-10,0248_eid_dnn_128-0-10_airplane_10_n02690373_6223.png,n02690373_6223.png,0.0,-0.23929638,0.1501382,-0.27537182
alexnet_w1_mlp_simclrhn_probe3,1,249,NaN,oven,boat,128-0-10,0249_eid_dnn_128-0-10_boat_10_n03344393_2412.png,n03344393_2412.png,0.0,-0.20549981,0.5467072,-0.5318907
alexnet_w1_mlp_simclrhn_probe3,1,250,NaN,cat,knife,8-0-10,0250_eid_dnn_8-0-10_knife_10_n03041632_6446.png,n03041632_6446.png,0.0,0.099274345,1.0262294,-0.6554562
alexnet_w1_mlp_simclrhn_probe3,1,251,NaN,oven,bottle,64-0-10,0251_eid_dnn_64-0-10_bottle_10_n04591713_7940.png,n04591713_7940.png,0.0,0.08158966,0.33775544,-0.18113656
alexnet_w1_mlp_simclrhn_probe3,1,252,NaN,cat,cat,4-0-10,0252_eid_dnn_4-0-10_cat_10_n02124075_13568.png,n02124075_13568.png,1.0,3.1891725,1.1720372,1.42633
alexnet_w1_mlp_simclrhn_probe3,1,253,NaN,boat,boat,2-0-10,0253_eid_dnn_2-0-10_boat_10_n03662601_2171.png,n03662601_2171.png,1.0,2.2292762,1.737328,0.34785986
alexnet_w1_mlp_simclrhn_probe3,1,254,NaN,elephant,elephant,1-0-10,0254_eid_dnn_1-0-10_elephant_10_n02504458_415.png,n02504458_415.png,1.0,1.6592641,1.5800614,0.056004733
alexnet_w1_mlp_simclrhn_probe3,1,255,NaN,oven,car,16-0-10,0255_eid_dnn_16-0-10_car_10_n03100240_3386.png,n03100240_3386.png,0.0,-0.37371227,1.0420246,-1.0010772
alexnet_w1_mlp_simclrhn_probe3,1,256,NaN,cat,bird,16-0-10,0256_eid_dnn_16-0-10_bird_10_n02056570_6633.png,n02056570_6633.png,0.0,-0.14995347,0.9661205,-0.7891835
alexnet_w1_mlp_simclrhn_probe3,1,257,NaN,oven,bottle,32-0-10,0257_eid_dnn_32-0-10_bottle_10_n02823428_4232.png,n02823428_4232.png,0.0,0.13410808,0.5831493,-0.3175201
alexnet_w1_mlp_simclrhn_probe3,1,258,NaN,oven,boat,128-0-10,0258_eid_dnn_128-0-10_boat_10_n04273569_2396.png,n04273569_2396.png,0.0,-0.33524504,0.11637627,-0.31934452
alexnet_w1_mlp_simclrhn_probe3,1,259,NaN,knife,knife,1-0-10,0259_eid_dnn_1-0-10_knife_10_n03041632_38996.png,n03041632_38996.png,1.0,1.9751902,0.8852152,0.77072865
alexnet_w1_mlp_simclrhn_probe3,1,260,NaN,cat,oven,8-0-10,0260_eid_dnn_8-0-10_oven_10_n04111531_10420.png,n04111531_10420.png,0.0,0.8740237,1.2864885,-0.2916567
alexnet_w1_mlp_simclrhn_probe3,1,261,NaN,keyboard,dog,128-0-10,0261_eid_dnn_128-0-10_dog_10_n02094114_2394.png,n02094114_2394.png,0.0,-0.06576996,0.9994564,-0.7532288
alexnet_w1_mlp_simclrhn_probe3,1,262,NaN,oven,elephant,128-0-10,0262_eid_dnn_128-0-10_elephant_10_n02504013_4247.png,n02504013_4247.png,0.0,0.1644654,0.43837366,-0.19368239
alexnet_w1_mlp_simclrhn_probe3,1,263,NaN,oven,chair,32-0-10,0263_eid_dnn_32-0-10_chair_10_n03376595_8137.png,n03376595_8137.png,0.0,-0.024081476,0.35547584,-0.26838756
alexnet_w1_mlp_simclrhn_probe3,1,264,NaN,oven,airplane,128-0-10,0264_eid_dnn_128-0-10_airplane_10_n02690373_8524.png,n02690373_8524.png,0.0,-0.08083913,0.79187834,-0.6171045
alexnet_w1_mlp_simclrhn_probe3,1,265,NaN,oven,car,64-0-10,0265_eid_dnn_64-0-10_car_10_n03100240_18410.png,n03100240_18410.png,0.0,-0.3511157,0.33630812,-0.48608205
alexnet_w1_mlp_simclrhn_probe3,1,266,NaN,oven,clock,64-0-10,0266_eid_dnn_64-0-10_clock_10_n04548280_2588.png,n04548280_2588.png,0.0,0.07603349,0.7433312,-0.47185075
alexnet_w1_mlp_simclrhn_probe3,1,267,NaN,cat,keyboard,32-0-10,0267_eid_dnn_32-0-10_keyboard_10_n03085013_24030.png,n03085013_24030.png,0.0,-0.46983662,0.6657236,-0.80296236
alexnet_w1_mlp_simclrhn_probe3,1,268,NaN,clock,clock,2-0-10,0268_eid_dnn_2-0-10_clock_10_n03196217_6375.png,n03196217_6375.png,1.0,2.1999507,1.9108626,0.20441619
alexnet_w1_mlp_simclrhn_probe3,1,269,NaN,oven,airplane,32-0-10,0269_eid_dnn_32-0-10_airplane_10_n02690373_4150.png,n02690373_4150.png,0.0,-0.08131273,0.8650502,-0.6691796
alexnet_w1_mlp_simclrhn_probe3,1,270,NaN,cat,dog,4-0-10,0270_eid_dnn_4-0-10_dog_10_n02086646_6567.png,n02086646_6567.png,0.0,0.37939954,1.1380569,-0.53645176
alexnet_w1_mlp_simclrhn_probe3,1,271,NaN,oven,clock,64-0-10,0271_eid_dnn_64-0-10_clock_10_n03196217_775.png,n03196217_775.png,0.0,-0.025320968,0.5983032,-0.44096887
alexnet_w1_mlp_simclrhn_probe3,1,272,NaN,truck,car,1-0-10,0272_eid_dnn_1-0-10_car_10_n02814533_57353.png,n02814533_57353.png,0.0,7.8025155,8.311645,-0.3600086
alexnet_w1_mlp_simclrhn_probe3,1,273,NaN,oven,bottle,16-0-10,0273_eid_dnn_16-0-10_bottle_10_n04560804_183.png,n04560804_183.png,0.0,-0.029193502,0.97538143,-0.71034175
alexnet_w1_mlp_simclrhn_probe3,1,274,NaN,car,car,2-0-10,0274_eid_dnn_2-0-10_car_10_n04285008_10631.png,n04285008_10631.png,1.0,5.868729,1.5016637,3.0879817
alexnet_w1_mlp_simclrhn_probe3,1,275,NaN,bear,bear,2-0-10,0275_eid_dnn_2-0-10_bear_10_n02132136_10057.png,n02132136_10057.png,1.0,7.3547463,6.630683,0.51199013
alexnet_w1_mlp_simclrhn_probe3,1,276,NaN,keyboard,boat,128-0-10,0276_eid_dnn_128-0-10_boat_10_n04273569_4605.png,n04273569_4605.png,0.0,-0.5480049,0.49143863,-0.7349976
alexnet_w1_mlp_simclrhn_probe3,1,277,NaN,oven,cat,64-0-10,0277_eid_dnn_64-0-10_cat_10_n02123597_12711.png,n02123597_12711.png,0.0,-0.0799,0.3028386,-0.27063707
alexnet_w1_mlp_simclrhn_probe3,1,278,NaN,bottle,bottle,1-0-10,0278_eid_dnn_1-0-10_bottle_10_n04560804_5610.png,n04560804_5610.png,1.0,6.661258,0.66652906,4.2389135
alexnet_w1_mlp_simclrhn_probe3,1,279,NaN,bear,clock,32-0-10,0279_eid_dnn_32-0-10_clock_10_n04548280_8412.png,n04548280_8412.png,0.0,0.1366152,0.9661919,-0.5865993
alexnet_w1_mlp_simclrhn_probe3,1,280,NaN,cat,cat,2-0-10,0280_eid_dnn_2-0-10_cat_10_n02123597_13834.png,n02123597_13834.png,1.0,1.7217131,0.96293,0.5365406
alexnet_w1_mlp_simclrhn_probe3,1,281,NaN,bottle,dog,128-0-10,0281_eid_dnn_128-0-10_dog_10_n02091831_538.png,n02091831_538.png,0.0,-0.013451997,0.055478234,-0.048741035
alexnet_w1_mlp_simclrhn_probe3,1,282,NaN,bicycle,bicycle,32-0-10,0282_eid_dnn_32-0-10_bicycle_10_n03792782_10437.png,n03792782_10437.png,1.0,0.24111964,0.096097626,0.10254604
alexnet_w1_mlp_simclrhn_probe3,1,283,NaN,bear,bear,2-0-10,0283_eid_dnn_2-0-10_bear_10_n02132136_2372.png,n02132136_2372.png,1.0,2.270452,1.5976372,0.47575194
alexnet_w1_mlp_simclrhn_probe3,1,284,NaN,clock,bicycle,128-0-10,0284_eid_dnn_128-0-10_bicycle_10_n03792782_4540.png,n03792782_4540.png,0.0,0.18707125,0.18953812,-0.0017443422
alexnet_w1_mlp_simclrhn_probe3,1,285,NaN,elephant,elephant,2-0-10,0285_eid_dnn_2-0-10_elephant_10_n02504013_10152.png,n02504013_10152.png,1.0,1.6333958,1.2128924,0.29734078
alexnet_w1_mlp_simclrhn_probe3,1,286,NaN,oven,boat,64-0-10,0286_eid_dnn_64-0-10_boat_10_n02951358_7603.png,n02951358_7603.png,0.0,-0.17521107,0.5152022,-0.48819593
alexnet_w1_mlp_simclrhn_probe3,1,287,NaN,bear,bear,2-0-10,0287_eid_dnn_2-0-10_bear_10_n02133161_9371.png,n02133161_9371.png,1.0,1.8248019,0.876101,0.6708329
alexnet_w1_mlp_simclrhn_probe3,1,288,NaN,bear,truck,8-0-10,0288_eid_dnn_8-0-10_truck_10_n04467665_69892.png,n04467665_69892.png,0.0,-0.13329156,1.3363364,-1.039184
alexnet_w1_mlp_simclrhn_probe3,1,289,NaN,knife,knife,1-0-10,0289_eid_dnn_1-0-10_knife_10_n03041632_19275.png,n03041632_19275.png,1.0,0.6913838,0.39980173,0.20617965
alexnet_w1_mlp_simclrhn_probe3,1,290,NaN,oven,keyboard,16-0-10,0290_eid_dnn_16-0-10_keyboard_10_n04505470_9446.png,n04505470_9446.png,0.0,-0.39695013,0.87380755,-0.89856136
alexnet_w1_mlp_simclrhn_probe3,1,291,NaN,elephant,elephant,1-0-10,0291_eid_dnn_1-0-10_elephant_10_n02504013_9141.png,n02504013_9141.png,1.0,2.5594535,1.2741866,0.9088209
alexnet_w1_mlp_simclrhn_probe3,1,292,NaN,oven,bird,128-0-10,0292_eid_dnn_128-0-10_bird_10_n02056570_8553.png,n02056570_8553.png,0.0,-0.31081733,0.4207591,-0.5173027
alexnet_w1_mlp_simclrhn_probe3,1,293,NaN,car,car,1-0-10,0293_eid_dnn_1-0-10_car_10_n03100240_9171.png,n03100240_9171.png,1.0,6.7281747,4.357277,1.6764779
alexnet_w1_mlp_simclrhn_probe3,1,294,NaN,dog,dog,8-0-10,0294_eid_dnn_8-0-10_dog_10_n02102177_1533.png,n02102177_1533.png,1.0,1.1974335,0.72212,0.3360974
alexnet_w1_mlp_simclrhn_probe3,1,295,NaN,oven,cat,64-0-10,0295_eid_dnn_64-0-10_cat_10_n02124075_12464.png,n02124075_12464.png,0.0,-0.17771064,0.6379593,-0.5767658
alexnet_w1_mlp_simclrhn_probe3,1,296,NaN,bottle,chair,4-0-10,0296_eid_dnn_4-0-10_chair_10_n04429376_33792.png,n04429376_33792.png,0.0,-0.57884616,2.0885072,-1.8861037
alexnet_w1_mlp_simclrhn_probe3,1,297,NaN,keyboard,bear,128-0-10,0297_eid_dnn_128-0-10_bear_10_n02133161_3258.png,n02133161_3258.png,0.0,-0.12818108,0.53603804,-0.46967387
alexnet_w1_mlp_simclrhn_probe3,1,298,NaN,elephant,dog,4-0-10,0298_eid_dnn_4-0-10_dog_10_n02097130_1442.png,n02097130_1442.png,0.0,0.85116065,1.8775147,-0.7257419
alexnet_w1_mlp_simclrhn_probe3,1,299,NaN,oven,chair,4-0-10,0299_eid_dnn_4-0-10_chair_10_n02791124_8970.png,n02791124_8970.png,0.0,-0.13466433,1.2615318,-0.98725975
alexnet_w1_mlp_simclrhn_probe3,1,300,NaN,bear,car,8-0-10,0300_eid_dnn_8-0-10_car_10_n04285008_8545.png,n04285008_8545.png,0.0,-0.8069835,1.6730095,-1.7536198
alexnet_w1_mlp_simclrhn_probe3,1,301,NaN,truck,truck,1-0-10,0301_eid_dnn_1-0-10_truck_10_n03417042_2204.png,n03417042_2204.png,1.0,3.434015,0.21579345,2.2756264
alexnet_w1_mlp_simclrhn_probe3,1,302,NaN,elephant,bear,2-0-10,0302_eid_dnn_2-0-10_bear_10_n02133161_15593.png,n02133161_15593.png,0.0,2.1612039,2.2035549,-0.029946685
alexnet_w1_mlp_simclrhn_probe3,1,303,NaN,knife,clock,2-0-10,0303_eid_dnn_2-0-10_clock_10_n04548280_5845.png,n04548280_5845.png,0.0,0.29632804,0.5651871,-0.19011207
alexnet_w1_mlp_simclrhn_probe3,1,304,NaN,cat,knife,4-0-10,0304_eid_dnn_4-0-10_knife_10_n03041632_4975.png,n03041632_4975.png,0.0,0.13229668,0.76629305,-0.44830313
alexnet_w1_mlp_simclrhn_probe3,1,305,NaN,oven,clock,32-0-10,0305_eid_dnn_32-0-10_clock_10_n03196217_4849.png,n03196217_4849.png,0.0,-0.014157921,0.29405013,-0.21793601
alexnet_w1_mlp_simclrhn_probe3,1,306,NaN,elephant,bicycle,2-0-10,0306_eid_dnn_2-0-10_bicycle_10_n03792782_15752.png,n03792782_15752.png,0.0,1.3210013,1.6918365,-0.26222008
alexnet_w1_mlp_simclrhn_probe3,1,307,NaN,cat,bicycle,16-0-10,0307_eid_dnn_16-0-10_bicycle_10_n02835271_29741.png,n02835271_29741.png,0.0,-0.07154761,0.7831969,-0.6043957
alexnet_w1_mlp_simclrhn_probe3,1,308,NaN,bottle,chair,4-0-10,0308_eid_dnn_4-0-10_chair_10_n04099969_16619.png,n04099969_16619.png,0.0,0.52660424,1.1844965,-0.4652001
alexnet_w1_mlp_simclrhn_probe3,1,309,NaN,keyboard,keyboard,4-0-10,0309_eid_dnn_4-0-10_keyboard_10_n04505470_4552.png,n04505470_4552.png,1.0,1.395565,1.0099509,0.2726704
alexnet_w1_mlp_simclrhn_probe3,1,310,NaN,bear,boat,8-0-10,0310_eid_dnn_8-0-10_boat_10_n02951358_13144.png,n02951358_13144.png,0.0,-0.0913424,1.0658847,-0.8182832
alexnet_w1_mlp_simclrhn_probe3,1,311,NaN,airplane,bird,32-0-10,0311_eid_dnn_32-0-10_bird_10_n01797886_14611.png,n01797886_14611.png,0.0,0.08495719,0.19808227,-0.07999151
alexnet_w1_mlp_simclrhn_probe3,1,312,NaN,knife,knife,1-0-10,0312_eid_dnn_1-0-10_knife_10_n03041632_3326.png,n03041632_3326.png,1.0,1.4592166,0.73028374,0.5154334
alexnet_w1_mlp_simclrhn_probe3,1,313,NaN,bear,elephant,8-0-10,0313_eid_dnn_8-0-10_elephant_10_n02504013_5829.png,n02504013_5829.png,0.0,1.1350297,1.4214641,-0.20253971
alexnet_w1_mlp_simclrhn_probe3,1,314,NaN,oven,dog,16-0-10,0314_eid_dnn_16-0-10_dog_10_n02088094_2292.png,n02088094_2292.png,0.0,-0.07263105,0.91370213,-0.6974429
alexnet_w1_mlp_simclrhn_probe3,1,315,NaN,oven,oven,8-0-10,0315_eid_dnn_8-0-10_oven_10_n04111531_4944.png,n04111531_4944.png,1.0,1.3627264,1.1605778,0.1429407
alexnet_w1_mlp_simclrhn_probe3,1,316,NaN,oven,oven,32-0-10,0316_eid_dnn_32-0-10_oven_10_n04111531_669.png,n04111531_669.png,1.0,0.435229,0.15507261,0.19810048
alexnet_w1_mlp_simclrhn_probe3,1,317,NaN,oven,car,64-0-10,0317_eid_dnn_64-0-10_car_10_n02814533_6716.png,n02814533_6716.png,0.0,-0.37288627,1.2171685,-1.1243385
alexnet_w1_mlp_simclrhn_probe3,1,318,NaN,oven,bear,32-0-10,0318_eid_dnn_32-0-10_bear_10_n02132136_26438.png,n02132136_26438.png,0.0,0.6073708,0.8715345,-0.18679197
alexnet_w1_mlp_simclrhn_probe3,1,319,NaN,oven,bottle,4-0-10,0319_eid_dnn_4-0-10_bottle_10_n03983396_3027.png,n03983396_3027.png,0.0,0.31386346,0.63090897,-0.22418503
alexnet_w1_mlp_simclrhn_probe3,1,320,NaN,elephant,elephant,2-0-10,0320_eid_dnn_2-0-10_elephant_10_n02504013_9299.png,n02504013_9299.png,1.0,10.867251,4.0989366,4.7859216
alexnet_w1_mlp_simclrhn_probe3,1,321,NaN,bottle,knife,2-0-10,0321_eid_dnn_2-0-10_knife_10_n03041632_13846.png,n03041632_13846.png,0.0,0.46620142,0.81715506,-0.2481617
alexnet_w1_mlp_simclrhn_probe3,1,322,NaN,oven,airplane,64-0-10,0322_eid_dnn_64-0-10_airplane_10_n02690373_16250.png,n02690373_16250.png,0.0,-0.28663278,0.27575135,-0.39766565
alexnet_w1_mlp_simclrhn_probe3,1,323,NaN,keyboard,boat,64-0-10,0323_eid_dnn_64-0-10_boat_10_n03662601_13696.png,n03662601_13696.png,0.0,-0.2749796,0.5210353,-0.5628675
alexnet_w1_mlp_simclrhn_probe3,1,324,NaN,cat,cat,1-0-10,0324_eid_dnn_1-0-10_cat_10_n02123597_5692.png,n02123597_5692.png,1.0,1.5853949,1.1705899,0.2933114
alexnet_w1_mlp_simclrhn_probe3,1,325,NaN,bear,clock,8-0-10,0325_eid_dnn_8-0-10_clock_10_n02708093_3171.png,n02708093_3171.png,0.0,-0.054351646,0.8085095,-0.61013496
alexnet_w1_mlp_simclrhn_probe3,1,326,NaN,oven,keyboard,128-0-10,0326_eid_dnn_128-0-10_keyboard_10_n04505470_4902.png,n04505470_4902.png,0.0,0.2178226,0.38119248,-0.11551995
alexnet_w1_mlp_simclrhn_probe3,1,327,NaN,cat,dog,2-0-10,0327_eid_dnn_2-0-10_dog_10_n02113624_1170.png,n02113624_1170.png,0.0,0.48865834,1.3392822,-0.6014819
alexnet_w1_mlp_simclrhn_probe3,1,328,NaN,clock,clock,2-0-10,0328_eid_dnn_2-0-10_clock_10_n03196217_1272.png,n03196217_1272.png,1.0,2.1881285,2.0260935,0.11457604
alexnet_w1_mlp_simclrhn_probe3,1,329,NaN,oven,cat,128-0-10,0329_eid_dnn_128-0-10_cat_10_n02123394_8946.png,n02123394_8946.png,0.0,0.23123537,0.4486122,-0.15370864
alexnet_w1_mlp_simclrhn_probe3,1,330,NaN,cat,car,8-0-10,0330_eid_dnn_8-0-10_car_10_n03100240_7134.png,n03100240_7134.png,0.0,-0.85858375,0.6805082,-1.0883024
alexnet_w1_mlp_simclrhn_probe3,1,331,NaN,bicycle,bicycle,4-0-10,0331_eid_dnn_4-0-10_bicycle_10_n03792782_16034.png,n03792782_16034.png,1.0,0.83098537,0.5122127,0.22540632
alexnet_w1_mlp_simclrhn_probe3,1,332,NaN,bear,dog,8-0-10,0332_eid_dnn_8-0-10_dog_10_n02104029_5465.png,n02104029_5465.png,0.0,0.43307114,1.789124,-0.9588742
alexnet_w1_mlp_simclrhn_probe3,1,333,NaN,keyboard,keyboard,4-0-10,0333_eid_dnn_4-0-10_keyboard_10_n04505470_5011.png,n04505470_5011.png,1.0,4.024725,1.634216,1.6903453
alexnet_w1_mlp_simclrhn_probe3,1,334,NaN,bear,bird,8-0-10,0334_eid_dnn_8-0-10_bird_10_n02009912_27132.png,n02009912_27132.png,0.0,0.055438586,0.61403894,-0.39499012
alexnet_w1_mlp_simclrhn_probe3,1,335,NaN,oven,knife,64-0-10,0335_eid_dnn_64-0-10_knife_10_n03041632_3171.png,n03041632_3171.png,0.0,0.098224,0.48592505,-0.27414602
alexnet_w1_mlp_simclrhn_probe3,1,336,NaN,oven,bear,32-0-10,0336_eid_dnn_32-0-10_bear_10_n02134084_21170.png,n02134084_21170.png,0.0,0.2919778,0.8616706,-0.40283367
alexnet_w1_mlp_simclrhn_probe3,1,337,NaN,bear,dog,4-0-10,0337_eid_dnn_4-0-10_dog_10_n02086079_29044.png,n02086079_29044.png,0.0,0.12715931,0.8303618,-0.49723926
alexnet_w1_mlp_simclrhn_probe3,1,338,NaN,cat,cat,4-0-10,0338_eid_dnn_4-0-10_cat_10_n02124075_8465.png,n02124075_8465.png,1.0,1.2956415,0.6147504,0.48146278
alexnet_w1_mlp_simclrhn_probe3,1,339,NaN,oven,bird,128-0-10,0339_eid_dnn_128-0-10_bird_10_n01855032_982.png,n01855032_982.png,0.0,-0.22534333,0.3797696,-0.42787945
alexnet_w1_mlp_simclrhn_probe3,1,340,NaN,oven,truck,32-0-10,0340_eid_dnn_32-0-10_truck_10_n03417042_6373.png,n03417042_6373.png,0.0,-0.29349062,0.50608015,-0.56538194
alexnet_w1_mlp_simclrhn_probe3,1,341,NaN,bear,airplane,16-0-10,0341_eid_dnn_16-0-10_airplane_10_n02690373_9959.png,n02690373_9959.png,0.0,-0.1735595,0.9674548,-0.80681896
alexnet_w1_mlp_simclrhn_probe3,1,342,NaN,oven,clock,32-0-10,0342_eid_dnn_32-0-10_clock_10_n04548280_2260.png,n04548280_2260.png,0.0,-0.0014469834,1.00605,-0.71240795
alexnet_w1_mlp_simclrhn_probe3,1,343,NaN,cat,bottle,16-0-10,0343_eid_dnn_16-0-10_bottle_10_n03983396_5281.png,n03983396_5281.png,0.0,0.09320818,0.7191493,-0.4426072
alexnet_w1_mlp_simclrhn_probe3,1,344,NaN,cat,cat,4-0-10,0344_eid_dnn_4-0-10_cat_10_n02123159_1113.png,n02123159_1113.png,1.0,2.8697684,1.0546046,1.2835146
alexnet_w1_mlp_simclrhn_probe3,1,345,NaN,oven,keyboard,64-0-10,0345_eid_dnn_64-0-10_keyboard_10_n03085013_20460.png,n03085013_20460.png,0.0,-0.041316718,0.43331057,-0.33561218
alexnet_w1_mlp_simclrhn_probe3,1,346,NaN,oven,clock,8-0-10,0346_eid_dnn_8-0-10_clock_10_n03196217_884.png,n03196217_884.png,0.0,-0.13564892,1.0509554,-0.839056
alexnet_w1_mlp_simclrhn_probe3,1,347,NaN,cat,clock,8-0-10,0347_eid_dnn_8-0-10_clock_10_n03196217_6257.png,n03196217_6257.png,0.0,-0.5006662,1.5466286,-1.4476562
alexnet_w1_mlp_simclrhn_probe3,1,348,NaN,oven,dog,32-0-10,0348_eid_dnn_32-0-10_dog_10_n02113624_2109.png,n02113624_2109.png,0.0,0.057329174,1.2184308,-0.8210228
alexnet_w1_mlp_simclrhn_probe3,1,349,NaN,keyboard,keyboard,1-0-10,0349_eid_dnn_1-0-10_keyboard_10_n03085013_20416.png,n03085013_20416.png,1.0,4.242856,3.1147547,0.7976881
alexnet_w1_mlp_simclrhn_probe3,1,350,NaN,bird,bird,2-0-10,0350_eid_dnn_2-0-10_bird_10_n01820546_4609.png,n01820546_4609.png,1.0,1.8326467,0.81910783,0.71668017
alexnet_w1_mlp_simclrhn_probe3,1,351,NaN,oven,cat,64-0-10,0351_eid_dnn_64-0-10_cat_10_n02125311_47792.png,n02125311_47792.png,0.0,-0.20865518,0.38368553,-0.41884813
alexnet_w1_mlp_simclrhn_probe3,1,352,NaN,bear,boat,16-0-10,0352_eid_dnn_16-0-10_boat_10_n04612504_1491.png,n04612504_1491.png,0.0,0.26689678,0.76267445,-0.35056776
alexnet_w1_mlp_simclrhn_probe3,1,353,NaN,bear,truck,16-0-10,0353_eid_dnn_16-0-10_truck_10_n03417042_910.png,n03417042_910.png,0.0,-0.31414557,1.4693061,-1.2610908
alexnet_w1_mlp_simclrhn_probe3,1,354,NaN,oven,airplane,64-0-10,0354_eid_dnn_64-0-10_airplane_10_n02690373_2038.png,n02690373_2038.png,0.0,-0.09462072,0.538883,-0.44795474
alexnet_w1_mlp_simclrhn_probe3,1,355,NaN,cat,cat,2-0-10,0355_eid_dnn_2-0-10_cat_10_n02123394_8164.png,n02123394_8164.png,1.0,2.0849578,0.67557883,0.9965815
alexnet_w1_mlp_simclrhn_probe3,1,356,NaN,oven,oven,2-0-10,0356_eid_dnn_2-0-10_oven_10_n04111531_22097.png,n04111531_22097.png,1.0,3.4199405,1.7236196,1.19948
alexnet_w1_mlp_simclrhn_probe3,1,357,NaN,keyboard,bear,128-0-10,0357_eid_dnn_128-0-10_bear_10_n02134418_278.png,n02134418_278.png,0.0,-0.07922405,0.6856246,-0.54082966
alexnet_w1_mlp_simclrhn_probe3,1,358,NaN,bird,bird,4-0-10,0358_eid_dnn_4-0-10_bird_10_n01592084_9109.png,n01592084_9109.png,1.0,1.1512276,0.057947755,0.7730656
alexnet_w1_mlp_simclrhn_probe3,1,359,NaN,oven,clock,32-0-10,0359_eid_dnn_32-0-10_clock_10_n03196217_3695.png,n03196217_3695.png,0.0,-0.054347944,0.3245455,-0.2679181
alexnet_w1_mlp_simclrhn_probe3,1,360,NaN,oven,elephant,128-0-10,0360_eid_dnn_128-0-10_elephant_10_n02504458_8939.png,n02504458_8939.png,0.0,0.0018507298,0.5068638,-0.35709816
alexnet_w1_mlp_simclrhn_probe3,1,361,NaN,airplane,elephant,2-0-10,0361_eid_dnn_2-0-10_elephant_10_n02504013_7926.png,n02504013_7926.png,0.0,0.7327893,0.9728818,-0.16977105
alexnet_w1_mlp_simclrhn_probe3,1,362,NaN,elephant,bear,4-0-10,0362_eid_dnn_4-0-10_bear_10_n02133161_11816.png,n02133161_11816.png,0.0,1.6395156,1.6778684,-0.027119474
alexnet_w1_mlp_simclrhn_probe3,1,363,NaN,bird,bird,2-0-10,0363_eid_dnn_2-0-10_bird_10_n02056570_18300.png,n02056570_18300.png,1.0,0.3923905,0.36825323,0.017067619
alexnet_w1_mlp_simclrhn_probe3,1,364,NaN,elephant,chair,2-0-10,0364_eid_dnn_2-0-10_chair_10_n02791124_7063.png,n02791124_7063.png,0.0,-0.49263954,1.15328,-1.1638409
alexnet_w1_mlp_simclrhn_probe3,1,365,NaN,cat,chair,8-0-10,0365_eid_dnn_8-0-10_chair_10_n03376595_8289.png,n03376595_8289.png,0.0,-0.2509807,0.5631015,-0.575643
alexnet_w1_mlp_simclrhn_probe3,1,366,NaN,boat,airplane,4-0-10,0366_eid_dnn_4-0-10_airplane_10_n02690373_4434.png,n02690373_4434.png,0.0,0.4636983,0.7543434,-0.20551711
alexnet_w1_mlp_simclrhn_probe3,1,367,NaN,truck,truck,1-0-10,0367_eid_dnn_1-0-10_truck_10_n03417042_8953.png,n03417042_8953.png,1.0,8.730534,3.8995612,3.4160135
alexnet_w1_mlp_simclrhn_probe3,1,368,NaN,oven,bear,64-0-10,0368_eid_dnn_64-0-10_bear_10_n02132136_699.png,n02132136_699.png,0.0,0.21682128,0.3075722,-0.06417058
alexnet_w1_mlp_simclrhn_probe3,1,369,NaN,bear,knife,8-0-10,0369_eid_dnn_8-0-10_knife_10_n03041632_20517.png,n03041632_20517.png,0.0,-0.02159819,0.35114318,-0.26356795
alexnet_w1_mlp_simclrhn_probe3,1,370,NaN,oven,bottle,32-0-10,0370_eid_dnn_32-0-10_bottle_10_n03983396_1910.png,n03983396_1910.png,0.0,0.02953302,0.77348757,-0.52605534
alexnet_w1_mlp_simclrhn_probe3,1,371,NaN,oven,oven,8-0-10,0371_eid_dnn_8-0-10_oven_10_n04111531_16198.png,n04111531_16198.png,1.0,1.0025756,0.40386888,0.4233496
alexnet_w1_mlp_simclrhn_probe3,1,372,NaN,oven,elephant,64-0-10,0372_eid_dnn_64-0-10_elephant_10_n02504013_13427.png,n02504013_13427.png,0.0,-0.0014578812,0.778588,-0.5515757
alexnet_w1_mlp_simclrhn_probe3,1,373,NaN,oven,airplane,16-0-10,0373_eid_dnn_16-0-10_airplane_10_n02690373_1075.png,n02690373_1075.png,0.0,0.095745385,0.82056653,-0.512526
alexnet_w1_mlp_simclrhn_probe3,1,374,NaN,bear,car,64-0-10,0374_eid_dnn_64-0-10_car_10_n03100240_5527.png,n03100240_5527.png,0.0,-0.45177278,0.35742995,-0.5721927
alexnet_w1_mlp_simclrhn_probe3,1,375,NaN,bear,bear,1-0-10,0375_eid_dnn_1-0-10_bear_10_n02132136_4632.png,n02132136_4632.png,1.0,3.7685797,0.811995,2.0906212
alexnet_w1_mlp_simclrhn_probe3,1,376,NaN,boat,boat,1-0-10,0376_eid_dnn_1-0-10_boat_10_n04273569_6158.png,n04273569_6158.png,1.0,4.861568,1.1873938,2.5980337
alexnet_w1_mlp_simclrhn_probe3,1,377,NaN,oven,knife,32-0-10,0377_eid_dnn_32-0-10_knife_10_n03041632_18141.png,n03041632_18141.png,0.0,-0.016448736,1.1743786,-0.84204215
alexnet_w1_mlp_simclrhn_probe3,1,378,NaN,oven,bear,16-0-10,0378_eid_dnn_16-0-10_bear_10_n02132136_6378.png,n02132136_6378.png,0.0,0.578331,0.76139784,-0.1294478
alexnet_w1_mlp_simclrhn_probe3,1,379,NaN,elephant,elephant,2-0-10,0379_eid_dnn_2-0-10_elephant_10_n02504458_5095.png,n02504458_5095.png,1.0,5.390912,1.6201458,2.6663344
alexnet_w1_mlp_simclrhn_probe3,1,380,NaN,elephant,elephant,4-0-10,0380_eid_dnn_4-0-10_elephant_10_n02504013_10582.png,n02504013_10582.png,1.0,4.8699226,4.096882,0.5466224
alexnet_w1_mlp_simclrhn_probe3,1,381,NaN,bear,chair,16-0-10,0381_eid_dnn_16-0-10_chair_10_n04099969_28139.png,n04099969_28139.png,0.0,-0.09282029,1.1438845,-0.8744824
alexnet_w1_mlp_simclrhn_probe3,1,382,NaN,keyboard,keyboard,2-0-10,0382_eid_dnn_2-0-10_keyboard_10_n04505470_279.png,n04505470_279.png,1.0,11.242441,3.122523,5.741649
alexnet_w1_mlp_simclrhn_probe3,1,383,NaN,cat,car,8-0-10,0383_eid_dnn_8-0-10_car_10_n02814533_79696.png,n02814533_79696.png,0.0,-0.7956186,1.6147423,-1.7043825
alexnet_w1_mlp_simclrhn_probe3,1,384,NaN,oven,cat,64-0-10,0384_eid_dnn_64-0-10_cat_10_n02124075_7984.png,n02124075_7984.png,0.0,-0.1862694,0.4195677,-0.42839155
alexnet_w1_mlp_simclrhn_probe3,1,385,NaN,oven,car,4-0-10,0385_eid_dnn_4-0-10_car_10_n02814533_27327.png,n02814533_27327.png,0.0,-0.109581314,1.5416188,-1.1675749
alexnet_w1_mlp_simclrhn_probe3,1,386,NaN,cat,bear,4-0-10,0386_eid_dnn_4-0-10_bear_10_n02134084_967.png,n02134084_967.png,0.0,1.0799799,1.4510595,-0.26239288
alexnet_w1_mlp_simclrhn_probe3,1,387,NaN,oven,bear,64-0-10,0387_eid_dnn_64-0-10_bear_10_n02132136_949.png,n02132136_949.png,0.0,0.12917994,0.555843,-0.30169633
alexnet_w1_mlp_simclrhn_probe3,1,388,NaN,bear,bicycle,16-0-10,0388_eid_dnn_16-0-10_bicycle_10_n03792782_2905.png,n03792782_2905.png,0.0,-0.10281429,0.6776803,-0.551893
alexnet_w1_mlp_simclrhn_probe3,1,389,NaN,cat,bicycle,8-0-10,0389_eid_dnn_8-0-10_bicycle_10_n03792782_34550.png,n03792782_34550.png,0.0,-0.37549788,1.1869642,-1.1048275
alexnet_w1_mlp_simclrhn_probe3,1,390,NaN,bear,bear,16-0-10,0390_eid_dnn_16-0-10_bear_10_n02132136_9055.png,n02132136_9055.png,1.0,1.7250254,1.5043833,0.15601753
alexnet_w1_mlp_simclrhn_probe3,1,391,NaN,oven,bear,64-0-10,0391_eid_dnn_64-0-10_bear_10_n02134084_7904.png,n02134084_7904.png,0.0,0.07106714,0.16184872,-0.06419227
alexnet_w1_mlp_simclrhn_probe3,1,392,NaN,bottle,clock,4-0-10,0392_eid_dnn_4-0-10_clock_10_n04548280_4526.png,n04548280_4526.png,0.0,1.3906246,2.1639009,-0.5467889
alexnet_w1_mlp_simclrhn_probe3,1,393,NaN,bottle,bottle,1-0-10,0393_eid_dnn_1-0-10_bottle_10_n02823428_685.png,n02823428_685.png,1.0,1.409984,1.1651211,0.17314424
alexnet_w1_mlp_simclrhn_probe3,1,394,NaN,oven,keyboard,64-0-10,0394_eid_dnn_64-0-10_keyboard_10_n04505470_3935.png,n04505470_3935.png,0.0,-0.14071518,0.59700966,-0.52165025
alexnet_w1_mlp_simclrhn_probe3,1,395,NaN,oven,dog,64-0-10,0395_eid_dnn_64-0-10_dog_10_n02096051_3825.png,n02096051_3825.png,0.0,0.00068244257,0.31486,-0.22215708
alexnet_w1_mlp_simclrhn_probe3,1,396,NaN,dog,dog,2-0-10,0396_eid_dnn_2-0-10_dog_10_n02089078_10601.png,n02089078_10601.png,1.0,2.149911,1.0954803,0.74559504
alexnet_w1_mlp_simclrhn_probe3,1,397,NaN,clock,clock,2-0-10,0397_eid_dnn_2-0-10_clock_10_n02708093_5236.png,n02708093_5236.png,1.0,7.519615,0.90792215,4.675173
alexnet_w1_mlp_simclrhn_probe3,1,398,NaN,cat,cat,2-0-10,0398_eid_dnn_2-0-10_cat_10_n02123159_2682.png,n02123159_2682.png,1.0,4.06457,0.15702724,2.76305
alexnet_w1_mlp_simclrhn_probe3,1,399,NaN,oven,oven,1-0-10,0399_eid_dnn_1-0-10_oven_10_n04111531_10216.png,n04111531_10216.png,1.0,2.2412794,1.8101752,0.3048367
alexnet_w1_mlp_simclrhn_probe3,1,400,NaN,boat,boat,2-0-10,0400_eid_dnn_2-0-10_boat_10_n02951358_7137.png,n02951358_7137.png,1.0,0.9278609,0.6735239,0.17984343
alexnet_w1_mlp_simclrhn_probe3,1,401,NaN,oven,bird,64-0-10,0401_eid_dnn_64-0-10_bird_10_n02007558_6127.png,n02007558_6127.png,0.0,-0.33342835,0.5835253,-0.64838415
alexnet_w1_mlp_simclrhn_probe3,1,402,NaN,bear,dog,16-0-10,0402_eid_dnn_16-0-10_dog_10_n02096051_4804.png,n02096051_4804.png,0.0,0.5155603,1.3091114,-0.56112534
alexnet_w1_mlp_simclrhn_probe3,1,403,NaN,bear,bottle,8-0-10,0403_eid_dnn_8-0-10_bottle_10_n03983396_13764.png,n03983396_13764.png,0.0,0.05810104,0.7385535,-0.48115256
alexnet_w1_mlp_simclrhn_probe3,1,404,NaN,oven,knife,32-0-10,0404_eid_dnn_32-0-10_knife_10_n03041632_105081.png,n03041632_105081.png,0.0,-0.015865363,1.0551119,-0.75729525
alexnet_w1_mlp_simclrhn_probe3,1,405,NaN,bear,boat,8-0-10,0405_eid_dnn_8-0-10_boat_10_n03344393_3535.png,n03344393_3535.png,0.0,-0.2125934,0.5317002,-0.52629507
alexnet_w1_mlp_simclrhn_probe3,1,406,NaN,oven,keyboard,64-0-10,0406_eid_dnn_64-0-10_keyboard_10_n03085013_22929.png,n03085013_22929.png,0.0,-0.1545201,0.18100786,-0.2372541
alexnet_w1_mlp_simclrhn_probe3,1,407,NaN,bottle,bottle,1-0-10,0407_eid_dnn_1-0-10_bottle_10_n04579145_5979.png,n04579145_5979.png,1.0,2.4499419,0.46864274,1.4009901
alexnet_w1_mlp_simclrhn_probe3,1,408,NaN,knife,knife,2-0-10,0408_eid_dnn_2-0-10_knife_10_n03041632_31301.png,n03041632_31301.png,1.0,2.0943432,0.708977,0.97960186
alexnet_w1_mlp_simclrhn_probe3,1,409,NaN,keyboard,car,128-0-10,0409_eid_dnn_128-0-10_car_10_n04285008_14653.png,n04285008_14653.png,0.0,-0.6559911,0.6453535,-0.9201896
alexnet_w1_mlp_simclrhn_probe3,1,410,NaN,oven,clock,16-0-10,0410_eid_dnn_16-0-10_clock_10_n03196217_1601.png,n03196217_1601.png,0.0,-0.15408485,1.1947618,-0.95377856
alexnet_w1_mlp_simclrhn_probe3,1,411,NaN,oven,bicycle,8-0-10,0411_eid_dnn_8-0-10_bicycle_10_n02835271_25268.png,n02835271_25268.png,0.0,-0.30262864,0.8071574,-0.7847372
alexnet_w1_mlp_simclrhn_probe3,1,412,NaN,bear,bird,16-0-10,0412_eid_dnn_16-0-10_bird_10_n02037110_875.png,n02037110_875.png,0.0,-0.10863267,0.4582829,-0.40086985
alexnet_w1_mlp_simclrhn_probe3,1,413,NaN,oven,airplane,128-0-10,0413_eid_dnn_128-0-10_airplane_10_n02690373_6807.png,n02690373_6807.png,0.0,-0.34647018,0.087613694,-0.30694366
alexnet_w1_mlp_simclrhn_probe3,1,414,NaN,oven,clock,16-0-10,0414_eid_dnn_16-0-10_clock_10_n04548280_10066.png,n04548280_10066.png,0.0,0.13590588,0.45460686,-0.22535563
alexnet_w1_mlp_simclrhn_probe3,1,415,NaN,oven,boat,64-0-10,0415_eid_dnn_64-0-10_boat_10_n02951358_15252.png,n02951358_15252.png,0.0,-0.10384917,0.38392112,-0.34490567
alexnet_w1_mlp_simclrhn_probe3,1,416,NaN,keyboard,car,64-0-10,0416_eid_dnn_64-0-10_car_10_n02814533_4803.png,n02814533_4803.png,0.0,-0.4452436,0.7158648,-0.82102764
alexnet_w1_mlp_simclrhn_probe3,1,417,NaN,cat,car,16-0-10,0417_eid_dnn_16-0-10_car_10_n03100240_24544.png,n03100240_24544.png,0.0,-0.6425132,1.0595988,-1.2035749
alexnet_w1_mlp_simclrhn_probe3,1,418,NaN,bottle,bear,128-0-10,0418_eid_dnn_128-0-10_bear_10_n02132136_4219.png,n02132136_4219.png,0.0,-0.1257688,0.095091365,-0.15617171
alexnet_w1_mlp_simclrhn_probe3,1,419,NaN,bear,bicycle,32-0-10,0419_eid_dnn_32-0-10_bicycle_10_n02835271_507.png,n02835271_507.png,0.0,0.24947533,1.0057982,-0.534801
alexnet_w1_mlp_simclrhn_probe3,1,420,NaN,boat,boat,1-0-10,0420_eid_dnn_1-0-10_boat_10_n04273569_13290.png,n04273569_13290.png,1.0,3.985735,1.2900399,1.9061441
alexnet_w1_mlp_simclrhn_probe3,1,421,NaN,bear,bicycle,2-0-10,0421_eid_dnn_2-0-10_bicycle_10_n03792782_42626.png,n03792782_42626.png,0.0,0.7282442,1.2694643,-0.38270038
alexnet_w1_mlp_simclrhn_probe3,1,422,NaN,cat,dog,8-0-10,0422_eid_dnn_8-0-10_dog_10_n02106382_3856.png,n02106382_3856.png,0.0,1.2099732,1.3513356,-0.09995833
alexnet_w1_mlp_simclrhn_probe3,1,423,NaN,oven,clock,1-0-10,0423_eid_dnn_1-0-10_clock_10_n02708093_274.png,n02708093_274.png,0.0,0.11381342,1.6680353,-1.0990008
alexnet_w1_mlp_simclrhn_probe3,1,424,NaN,oven,bottle,32-0-10,0424_eid_dnn_32-0-10_bottle_10_n04591713_5921.png,n04591713_5921.png,0.0,0.12281023,0.868322,-0.5271564
alexnet_w1_mlp_simclrhn_probe3,1,425,NaN,elephant,elephant,1-0-10,0425_eid_dnn_1-0-10_elephant_10_n02504458_3851.png,n02504458_3851.png,1.0,6.605763,2.1763797,3.132047
alexnet_w1_mlp_simclrhn_probe3,1,426,NaN,bear,dog,32-0-10,0426_eid_dnn_32-0-10_dog_10_n02105855_995.png,n02105855_995.png,0.0,0.06955688,0.28714395,-0.15385729
alexnet_w1_mlp_simclrhn_probe3,1,427,NaN,airplane,airplane,2-0-10,0427_eid_dnn_2-0-10_airplane_10_n02690373_1979.png,n02690373_1979.png,1.0,0.6861954,0.19136082,0.34990087
alexnet_w1_mlp_simclrhn_probe3,1,428,NaN,airplane,airplane,1-0-10,0428_eid_dnn_1-0-10_airplane_10_n02690373_6455.png,n02690373_6455.png,1.0,5.367202,2.6208332,1.941976
alexnet_w1_mlp_simclrhn_probe3,1,429,NaN,oven,oven,1-0-10,0429_eid_dnn_1-0-10_oven_10_n04111531_18979.png,n04111531_18979.png,1.0,4.0170507,0.59728205,2.4181418
alexnet_w1_mlp_simclrhn_probe3,1,430,NaN,bear,oven,32-0-10,0430_eid_dnn_32-0-10_oven_10_n04111531_16795.png,n04111531_16795.png,0.0,0.14028937,0.31537393,-0.12380348
alexnet_w1_mlp_simclrhn_probe3,1,431,NaN,boat,truck,4-0-10,0431_eid_dnn_4-0-10_truck_10_n04467665_41076.png,n04467665_41076.png,0.0,0.018756457,0.7268675,-0.5007101
alexnet_w1_mlp_simclrhn_probe3,1,432,NaN,oven,bird,16-0-10,0432_eid_dnn_16-0-10_bird_10_n01534433_31697.png,n01534433_31697.png,0.0,-0.27825332,0.69968045,-0.6915036
alexnet_w1_mlp_simclrhn_probe3,1,433,NaN,keyboard,keyboard,128-0-10,0433_eid_dnn_128-0-10_keyboard_10_n04505470_4289.png,n04505470_4289.png,1.0,0.4627794,0.15616119,0.21681182
alexnet_w1_mlp_simclrhn_probe3,1,434,NaN,keyboard,keyboard,4-0-10,0434_eid_dnn_4-0-10_keyboard_10_n03085013_20727.png,n03085013_20727.png,1.0,2.71758,0.28494558,1.7201325
alexnet_w1_mlp_simclrhn_probe3,1,435,NaN,bear,boat,8-0-10,0435_eid_dnn_8-0-10_boat_10_n04273569_7315.png,n04273569_7315.png,0.0,-0.067803346,0.49541685,-0.39825684
alexnet_w1_mlp_simclrhn_probe3,1,436,NaN,car,car,1-0-10,0436_eid_dnn_1-0-10_car_10_n03100240_16646.png,n03100240_16646.png,1.0,1.9812275,0.49955782,1.0476987
alexnet_w1_mlp_simclrhn_probe3,1,437,NaN,bear,car,16-0-10,0437_eid_dnn_16-0-10_car_10_n03100240_5281.png,n03100240_5281.png,0.0,-0.27307844,0.945908,-0.8619536
alexnet_w1_mlp_simclrhn_probe3,1,438,NaN,clock,airplane,128-0-10,0438_eid_dnn_128-0-10_airplane_10_n02690373_1670.png,n02690373_1670.png,0.0,-0.3522488,0.10925337,-0.32633132
alexnet_w1_mlp_simclrhn_probe3,1,439,NaN,keyboard,airplane,128-0-10,0439_eid_dnn_128-0-10_airplane_10_n02690373_9293.png,n02690373_9293.png,0.0,-0.51170015,0.27639043,-0.5572642
alexnet_w1_mlp_simclrhn_probe3,1,440,NaN,keyboard,truck,128-0-10,0440_eid_dnn_128-0-10_truck_10_n03796401_15846.png,n03796401_15846.png,0.0,-0.18750365,0.8614473,-0.7417203
alexnet_w1_mlp_simclrhn_probe3,1,441,NaN,oven,truck,32-0-10,0441_eid_dnn_32-0-10_truck_10_n03796401_6971.png,n03796401_6971.png,0.0,-0.25668877,0.712869,-0.6855809
alexnet_w1_mlp_simclrhn_probe3,1,442,NaN,oven,oven,128-0-10,0442_eid_dnn_128-0-10_oven_10_n04111531_10724.png,n04111531_10724.png,1.0,0.46354884,0.226156,0.16786209
alexnet_w1_mlp_simclrhn_probe3,1,443,NaN,bear,keyboard,8-0-10,0443_eid_dnn_8-0-10_keyboard_10_n03085013_22187.png,n03085013_22187.png,0.0,-0.18454349,1.7980925,-1.4019353
alexnet_w1_mlp_simclrhn_probe3,1,444,NaN,bear,oven,8-0-10,0444_eid_dnn_8-0-10_oven_10_n04111531_4671.png,n04111531_4671.png,0.0,0.3184328,1.2411573,-0.65246475
alexnet_w1_mlp_simclrhn_probe3,1,445,NaN,airplane,airplane,4-0-10,0445_eid_dnn_4-0-10_airplane_10_n02690373_5142.png,n02690373_5142.png,1.0,1.523838,0.44677198,0.76160073
alexnet_w1_mlp_simclrhn_probe3,1,446,NaN,elephant,elephant,4-0-10,0446_eid_dnn_4-0-10_elephant_10_n02504013_8562.png,n02504013_8562.png,1.0,5.2962494,2.8638725,1.7199502
alexnet_w1_mlp_simclrhn_probe3,1,447,NaN,truck,truck,1-0-10,0447_eid_dnn_1-0-10_truck_10_n03417042_9668.png,n03417042_9668.png,1.0,3.6758742,1.7614955,1.3536702
alexnet_w1_mlp_simclrhn_probe3,1,448,NaN,cat,bottle,8-0-10,0448_eid_dnn_8-0-10_bottle_10_n03983396_10330.png,n03983396_10330.png,0.0,0.16453783,0.9781124,-0.57528406
alexnet_w1_mlp_simclrhn_probe3,1,449,NaN,keyboard,elephant,128-0-10,0449_eid_dnn_128-0-10_elephant_10_n02504458_4395.png,n02504458_4395.png,0.0,-0.03226819,0.8082879,-0.5943629
alexnet_w1_mlp_simclrhn_probe3,1,450,NaN,oven,boat,64-0-10,0450_eid_dnn_64-0-10_boat_10_n03344393_4562.png,n03344393_4562.png,0.0,-0.184864,0.57073677,-0.53429043
alexnet_w1_mlp_simclrhn_probe3,1,451,NaN,oven,oven,2-0-10,0451_eid_dnn_2-0-10_oven_10_n04111531_10011.png,n04111531_10011.png,1.0,1.3750445,0.28548822,0.7704326
alexnet_w1_mlp_simclrhn_probe3,1,452,NaN,oven,oven,64-0-10,0452_eid_dnn_64-0-10_oven_10_n04111531_13797.png,n04111531_13797.png,1.0,0.7354735,0.5865216,0.105324894
alexnet_w1_mlp_simclrhn_probe3,1,453,NaN,airplane,boat,2-0-10,0453_eid_dnn_2-0-10_boat_10_n03662601_840.png,n03662601_840.png,0.0,1.6957318,1.8828326,-0.1323003
alexnet_w1_mlp_simclrhn_probe3,1,454,NaN,bear,truck,16-0-10,0454_eid_dnn_16-0-10_truck_10_n03417042_17037.png,n03417042_17037.png,0.0,-0.3090859,0.8474177,-0.8177716
alexnet_w1_mlp_simclrhn_probe3,1,455,NaN,oven,cat,64-0-10,0455_eid_dnn_64-0-10_cat_10_n02125311_2576.png,n02125311_2576.png,0.0,-0.049024273,0.6162274,-0.47040397
alexnet_w1_mlp_simclrhn_probe3,1,456,NaN,bear,keyboard,32-0-10,0456_eid_dnn_32-0-10_keyboard_10_n03085013_3264.png,n03085013_3264.png,0.0,-0.18605335,0.1019811,-0.20367111
alexnet_w1_mlp_simclrhn_probe3,1,457,NaN,keyboard,dog,64-0-10,0457_eid_dnn_64-0-10_dog_10_n02097130_3519.png,n02097130_3519.png,0.0,-0.077970855,0.40215486,-0.33950016
alexnet_w1_mlp_simclrhn_probe3,1,458,NaN,bear,airplane,16-0-10,0458_eid_dnn_16-0-10_airplane_10_n02690373_4486.png,n02690373_4486.png,0.0,-0.24133438,0.67167497,-0.64559513
alexnet_w1_mlp_simclrhn_probe3,1,459,NaN,oven,bottle,16-0-10,0459_eid_dnn_16-0-10_bottle_10_n03983396_19635.png,n03983396_19635.png,0.0,0.15324523,1.3723232,-0.8620183
alexnet_w1_mlp_simclrhn_probe3,1,460,NaN,bear,airplane,16-0-10,0460_eid_dnn_16-0-10_airplane_10_n02690373_1426.png,n02690373_1426.png,0.0,-0.08873228,0.93417406,-0.723304
alexnet_w1_mlp_simclrhn_probe3,1,461,NaN,oven,oven,4-0-10,0461_eid_dnn_4-0-10_oven_10_n04111531_5279.png,n04111531_5279.png,1.0,1.0944834,0.83422035,0.18403375
alexnet_w1_mlp_simclrhn_probe3,1,462,NaN,oven,bottle,64-0-10,0462_eid_dnn_64-0-10_bottle_10_n03983396_4024.png,n03983396_4024.png,0.0,0.060195837,0.17196213,-0.07903071
alexnet_w1_mlp_simclrhn_probe3,1,463,NaN,bear,bear,8-0-10,0463_eid_dnn_8-0-10_bear_10_n02133161_12751.png,n02133161_12751.png,1.0,1.0338012,0.8028076,0.16333713
alexnet_w1_mlp_simclrhn_probe3,1,464,NaN,bear,car,8-0-10,0464_eid_dnn_8-0-10_car_10_n02814533_12271.png,n02814533_12271.png,0.0,-0.8930896,2.05295,-2.0831645
alexnet_w1_mlp_simclrhn_probe3,1,465,NaN,cat,bottle,16-0-10,0465_eid_dnn_16-0-10_bottle_10_n04560804_5068.png,n04560804_5068.png,0.0,0.15139008,1.1268666,-0.68976605
alexnet_w1_mlp_simclrhn_probe3,1,466,NaN,bicycle,bottle,128-0-10,0466_eid_dnn_128-0-10_bottle_10_n04579145_1168.png,n04579145_1168.png,0.0,0.10063936,0.1125741,-0.008439138
alexnet_w1_mlp_simclrhn_probe3,1,467,NaN,oven,knife,64-0-10,0467_eid_dnn_64-0-10_knife_10_n03041632_2973.png,n03041632_2973.png,0.0,-0.058007017,0.48137736,-0.38140234
alexnet_w1_mlp_simclrhn_probe3,1,468,NaN,oven,airplane,16-0-10,0468_eid_dnn_16-0-10_airplane_10_n02690373_19329.png,n02690373_19329.png,0.0,0.13070199,0.93275636,-0.56713814
alexnet_w1_mlp_simclrhn_probe3,1,469,NaN,oven,bottle,32-0-10,0469_eid_dnn_32-0-10_bottle_10_n04560804_1356.png,n04560804_1356.png,0.0,0.15344289,0.7620127,-0.43032387
alexnet_w1_mlp_simclrhn_probe3,1,470,NaN,bear,bear,8-0-10,0470_eid_dnn_8-0-10_bear_10_n02134084_3960.png,n02134084_3960.png,1.0,1.8750075,1.336549,0.38074765
alexnet_w1_mlp_simclrhn_probe3,1,471,NaN,bear,boat,4-0-10,0471_eid_dnn_4-0-10_boat_10_n04612504_27504.png,n04612504_27504.png,0.0,0.83353645,0.84553117,-0.008481547
alexnet_w1_mlp_simclrhn_probe3,1,472,NaN,dog,dog,4-0-10,0472_eid_dnn_4-0-10_dog_10_n02099601_9973.png,n02099601_9973.png,1.0,1.3531199,0.97229856,0.26928133
alexnet_w1_mlp_simclrhn_probe3,1,473,NaN,oven,truck,64-0-10,0473_eid_dnn_64-0-10_truck_10_n03417042_26843.png,n03417042_26843.png,0.0,-0.34461784,0.85382396,-0.8474263
alexnet_w1_mlp_simclrhn_probe3,1,474,NaN,oven,knife,64-0-10,0474_eid_dnn_64-0-10_knife_10_n03041632_55711.png,n03041632_55711.png,0.0,0.08908967,0.42073762,-0.23451053
alexnet_w1_mlp_simclrhn_probe3,1,475,NaN,bear,elephant,8-0-10,0475_eid_dnn_8-0-10_elephant_10_n02504013_1986.png,n02504013_1986.png,0.0,0.46453506,1.6192639,-0.81651664
alexnet_w1_mlp_simclrhn_probe3,1,476,NaN,keyboard,keyboard,4-0-10,0476_eid_dnn_4-0-10_keyboard_10_n03085013_9475.png,n03085013_9475.png,1.0,0.63667315,0.4393877,0.13950188
alexnet_w1_mlp_simclrhn_probe3,1,477,NaN,bear,elephant,32-0-10,0477_eid_dnn_32-0-10_elephant_10_n02504458_3381.png,n02504458_3381.png,0.0,0.094323896,0.35336128,-0.18316709
alexnet_w1_mlp_simclrhn_probe3,1,478,NaN,cat,airplane,8-0-10,0478_eid_dnn_8-0-10_airplane_10_n02690373_1161.png,n02690373_1161.png,0.0,0.27253085,0.7656274,-0.3486719
alexnet_w1_mlp_simclrhn_probe3,1,479,NaN,oven,cat,64-0-10,0479_eid_dnn_64-0-10_cat_10_n02124075_7474.png,n02124075_7474.png,0.0,-0.12744756,0.2947754,-0.29855675
alexnet_w1_mlp_simclrhn_probe3,1,480,NaN,cat,cat,4-0-10,0480_eid_dnn_4-0-10_cat_10_n02125311_9074.png,n02125311_9074.png,1.0,0.6870666,0.42853075,0.18281247
alexnet_w1_mlp_simclrhn_probe3,1,481,NaN,oven,airplane,128-0-10,0481_eid_dnn_128-0-10_airplane_10_n02690373_2867.png,n02690373_2867.png,0.0,-0.20652369,0.3909588,-0.4224839
alexnet_w1_mlp_simclrhn_probe3,1,482,NaN,elephant,elephant,2-0-10,0482_eid_dnn_2-0-10_elephant_10_n02504013_1692.png,n02504013_1692.png,1.0,1.9832194,1.5598856,0.2993422
alexnet_w1_mlp_simclrhn_probe3,1,483,NaN,bear,bird,8-0-10,0483_eid_dnn_8-0-10_bird_10_n02009912_11813.png,n02009912_11813.png,0.0,-0.22266129,0.7648709,-0.6982907
alexnet_w1_mlp_simclrhn_probe3,1,484,NaN,bird,bottle,16-0-10,0484_eid_dnn_16-0-10_bottle_10_n04557648_10302.png,n04557648_10302.png,0.0,-0.1687886,0.5610776,-0.5160934
alexnet_w1_mlp_simclrhn_probe3,1,485,NaN,oven,keyboard,4-0-10,0485_eid_dnn_4-0-10_keyboard_10_n03085013_20302.png,n03085013_20302.png,0.0,0.3255327,1.7711618,-1.0222142
alexnet_w1_mlp_simclrhn_probe3,1,486,NaN,keyboard,elephant,128-0-10,0486_eid_dnn_128-0-10_elephant_10_n02504458_5827.png,n02504458_5827.png,0.0,0.0852369,0.61289054,-0.37310746
alexnet_w1_mlp_simclrhn_probe3,1,487,NaN,keyboard,knife,1-0-10,0487_eid_dnn_1-0-10_knife_10_n03041632_11327.png,n03041632_11327.png,0.0,-0.08145325,2.0336537,-1.4956065
alexnet_w1_mlp_simclrhn_probe3,1,488,NaN,bird,bird,4-0-10,0488_eid_dnn_4-0-10_bird_10_n01795545_17770.png,n01795545_17770.png,1.0,0.483839,0.32478204,0.112470254
alexnet_w1_mlp_simclrhn_probe3,1,489,NaN,cat,bicycle,4-0-10,0489_eid_dnn_4-0-10_bicycle_10_n02835271_10932.png,n02835271_10932.png,0.0,0.22011775,1.1456803,-0.6544716
alexnet_w1_mlp_simclrhn_probe3,1,490,NaN,cat,cat,2-0-10,0490_eid_dnn_2-0-10_cat_10_n02123597_14233.png,n02123597_14233.png,1.0,1.1904963,1.0986915,0.06491584
alexnet_w1_mlp_simclrhn_probe3,1,491,NaN,bird,bird,1-0-10,0491_eid_dnn_1-0-10_bird_10_n01614925_7662.png,n01614925_7662.png,1.0,3.1100905,1.2092329,1.3441093
alexnet_w1_mlp_simclrhn_probe3,1,492,NaN,bear,truck,16-0-10,0492_eid_dnn_16-0-10_truck_10_n03417042_5875.png,n03417042_5875.png,0.0,-0.28122264,1.0388751,-0.93345004
alexnet_w1_mlp_simclrhn_probe3,1,493,NaN,bear,bear,1-0-10,0493_eid_dnn_1-0-10_bear_10_n02134418_304.png,n02134418_304.png,1.0,3.0596666,2.4157746,0.45530045
alexnet_w1_mlp_simclrhn_probe3,1,494,NaN,cat,bird,1-0-10,0494_eid_dnn_1-0-10_bird_10_n01622779_5148.png,n01622779_5148.png,0.0,0.40207633,2.3418322,-1.3716145
alexnet_w1_mlp_simclrhn_probe3,1,495,NaN,bicycle,knife,1-0-10,0495_eid_dnn_1-0-10_knife_10_n03041632_44230.png,n03041632_44230.png,0.0,-0.0016103759,0.99325645,-0.7034771
alexnet_w1_mlp_simclrhn_probe3,1,496,NaN,oven,boat,32-0-10,0496_eid_dnn_32-0-10_boat_10_n03662601_8650.png,n03662601_8650.png,0.0,-0.094594695,0.43371177,-0.3735691
alexnet_w1_mlp_simclrhn_probe3,1,497,NaN,bear,oven,16-0-10,0497_eid_dnn_16-0-10_oven_10_n04111531_4346.png,n04111531_4346.png,0.0,0.46914494,1.0361766,-0.40095192
alexnet_w1_mlp_simclrhn_probe3,1,498,NaN,clock,clock,2-0-10,0498_eid_dnn_2-0-10_clock_10_n03196217_2201.png,n03196217_2201.png,1.0,0.8935356,0.8189341,0.05275125
alexnet_w1_mlp_simclrhn_probe3,1,499,NaN,oven,bicycle,64-0-10,0499_eid_dnn_64-0-10_bicycle_10_n02835271_8757.png,n02835271_8757.png,0.0,0.09787275,0.36101693,-0.18607105
alexnet_w1_mlp_simclrhn_probe3,1,500,NaN,cat,keyboard,8-0-10,0500_eid_dnn_8-0-10_keyboard_10_n03085013_23563.png,n03085013_23563.png,0.0,-0.18532929,1.3903465,-1.1141711
alexnet_w1_mlp_simclrhn_probe3,1,501,NaN,oven,boat,64-0-10,0501_eid_dnn_64-0-10_boat_10_n04273569_15879.png,n04273569_15879.png,0.0,-0.06771379,0.31328294,-0.26940536
alexnet_w1_mlp_simclrhn_probe3,1,502,NaN,elephant,truck,64-0-10,0502_eid_dnn_64-0-10_truck_10_n04467665_30588.png,n04467665_30588.png,0.0,-0.3069532,0.23071016,-0.3801854
alexnet_w1_mlp_simclrhn_probe3,1,503,NaN,oven,truck,16-0-10,0503_eid_dnn_16-0-10_truck_10_n03417042_1875.png,n03417042_1875.png,0.0,-0.3576662,1.5483484,-1.3477559
alexnet_w1_mlp_simclrhn_probe3,1,504,NaN,oven,cat,128-0-10,0504_eid_dnn_128-0-10_cat_10_n02123394_6014.png,n02123394_6014.png,0.0,-0.20002627,0.29620737,-0.3508902
alexnet_w1_mlp_simclrhn_probe3,1,505,NaN,boat,boat,1-0-10,0505_eid_dnn_1-0-10_boat_10_n04273569_10847.png,n04273569_10847.png,1.0,3.3511443,2.1417143,0.8551962
alexnet_w1_mlp_simclrhn_probe3,1,506,NaN,oven,elephant,64-0-10,0506_eid_dnn_64-0-10_elephant_10_n02504013_5495.png,n02504013_5495.png,0.0,-0.011717543,0.31220737,-0.2290495
alexnet_w1_mlp_simclrhn_probe3,1,507,NaN,oven,bottle,128-0-10,0507_eid_dnn_128-0-10_bottle_10_n04560804_16276.png,n04560804_16276.png,0.0,0.12037758,0.28937918,-0.11950219
alexnet_w1_mlp_simclrhn_probe3,1,508,NaN,boat,car,1-0-10,0508_eid_dnn_1-0-10_car_10_n04285008_1243.png,n04285008_1243.png,0.0,1.249608,2.6510339,-0.99095774
alexnet_w1_mlp_simclrhn_probe3,1,509,NaN,bird,keyboard,32-0-10,0509_eid_dnn_32-0-10_keyboard_10_n03085013_22027.png,n03085013_22027.png,0.0,-0.2692979,0.18600795,-0.32194987
alexnet_w1_mlp_simclrhn_probe3,1,510,NaN,oven,cat,32-0-10,0510_eid_dnn_32-0-10_cat_10_n02123045_12766.png,n02123045_12766.png,0.0,0.07902661,0.6734121,-0.42029402
alexnet_w1_mlp_simclrhn_probe3,1,511,NaN,keyboard,chair,64-0-10,0511_eid_dnn_64-0-10_chair_10_n04429376_29954.png,n04429376_29954.png,0.0,-0.023238473,0.09118273,-0.08090801
alexnet_w1_mlp_simclrhn_probe3,1,512,NaN,oven,elephant,32-0-10,0512_eid_dnn_32-0-10_elephant_10_n02504013_5678.png,n02504013_5678.png,0.0,0.2795413,0.6053402,-0.23037459
alexnet_w1_mlp_simclrhn_probe3,1,513,NaN,bottle,chair,4-0-10,0513_eid_dnn_4-0-10_chair_10_n03376595_6333.png,n03376595_6333.png,0.0,0.3351237,0.42629215,-0.06446584
alexnet_w1_mlp_simclrhn_probe3,1,514,NaN,oven,keyboard,2-0-10,0514_eid_dnn_2-0-10_keyboard_10_n03085013_22605.png,n03085013_22605.png,0.0,1.0499141,2.3063314,-0.8884212
alexnet_w1_mlp_simclrhn_probe3,1,515,NaN,oven,car,32-0-10,0515_eid_dnn_32-0-10_car_10_n04285008_16557.png,n04285008_16557.png,0.0,-0.21256702,2.0665674,-1.6115915
alexnet_w1_mlp_simclrhn_probe3,1,516,NaN,oven,bottle,64-0-10,0516_eid_dnn_64-0-10_bottle_10_n02823428_1034.png,n02823428_1034.png,0.0,0.115173824,0.63638675,-0.36855322
alexnet_w1_mlp_simclrhn_probe3,1,517,NaN,oven,elephant,16-0-10,0517_eid_dnn_16-0-10_elephant_10_n02504013_7777.png,n02504013_7777.png,0.0,0.25974384,1.3939252,-0.80198735
alexnet_w1_mlp_simclrhn_probe3,1,518,NaN,bottle,knife,4-0-10,0518_eid_dnn_4-0-10_knife_10_n03041632_14293.png,n03041632_14293.png,0.0,0.1971345,0.32266364,-0.08876251
alexnet_w1_mlp_simclrhn_probe3,1,519,NaN,cat,knife,8-0-10,0519_eid_dnn_8-0-10_knife_10_n03041632_50423.png,n03041632_50423.png,0.0,-0.121232755,0.8675311,-0.69916165
alexnet_w1_mlp_simclrhn_probe3,1,520,NaN,chair,chair,2-0-10,0520_eid_dnn_2-0-10_chair_10_n03376595_3043.png,n03376595_3043.png,1.0,1.0491782,0.8621172,0.13227215
alexnet_w1_mlp_simclrhn_probe3,1,521,NaN,bear,cat,8-0-10,0521_eid_dnn_8-0-10_cat_10_n02123394_2434.png,n02123394_2434.png,0.0,1.0269554,1.3019891,-0.19447821
alexnet_w1_mlp_simclrhn_probe3,1,522,NaN,boat,truck,1-0-10,0522_eid_dnn_1-0-10_truck_10_n04467665_54079.png,n04467665_54079.png,0.0,1.1496829,1.4551435,-0.21599324
alexnet_w1_mlp_simclrhn_probe3,1,523,NaN,bear,bird,2-0-10,0523_eid_dnn_2-0-10_bird_10_n01855672_1001.png,n01855672_1001.png,0.0,0.56902677,1.4475298,-0.62119544
alexnet_w1_mlp_simclrhn_probe3,1,524,NaN,bottle,bottle,1-0-10,0524_eid_dnn_1-0-10_bottle_10_n04560804_6112.png,n04560804_6112.png,1.0,2.071853,1.1926792,0.6216697
alexnet_w1_mlp_simclrhn_probe3,1,525,NaN,oven,keyboard,1-0-10,0525_eid_dnn_1-0-10_keyboard_10_n04505470_1744.png,n04505470_1744.png,0.0,2.0053573,3.6433587,-1.158242
alexnet_w1_mlp_simclrhn_probe3,1,526,NaN,oven,boat,32-0-10,0526_eid_dnn_32-0-10_boat_10_n02951358_15087.png,n02951358_15087.png,0.0,-0.048621994,1.7348473,-1.2611033
alexnet_w1_mlp_simclrhn_probe3,1,527,NaN,elephant,bottle,4-0-10,0527_eid_dnn_4-0-10_bottle_10_n04557648_10051.png,n04557648_10051.png,0.0,-0.006885094,1.8652836,-1.3238232
alexnet_w1_mlp_simclrhn_probe3,1,528,NaN,oven,bear,64-0-10,0528_eid_dnn_64-0-10_bear_10_n02134084_5794.png,n02134084_5794.png,0.0,0.12755202,0.5002786,-0.2635575
alexnet_w1_mlp_simclrhn_probe3,1,529,NaN,keyboard,keyboard,4-0-10,0529_eid_dnn_4-0-10_keyboard_10_n04505470_751.png,n04505470_751.png,1.0,1.953955,0.58056176,0.97113574
alexnet_w1_mlp_simclrhn_probe3,1,530,NaN,oven,boat,128-0-10,0530_eid_dnn_128-0-10_boat_10_n04273569_9306.png,n04273569_9306.png,0.0,-0.29169393,0.46204132,-0.5329713
alexnet_w1_mlp_simclrhn_probe3,1,531,NaN,bear,chair,16-0-10,0531_eid_dnn_16-0-10_chair_10_n02791124_9162.png,n02791124_9162.png,0.0,-0.07202341,0.5648373,-0.4503285
alexnet_w1_mlp_simclrhn_probe3,1,532,NaN,elephant,bicycle,128-0-10,0532_eid_dnn_128-0-10_bicycle_10_n02835271_25033.png,n02835271_25033.png,0.0,0.039037623,0.1442177,-0.07437355
alexnet_w1_mlp_simclrhn_probe3,1,533,NaN,keyboard,keyboard,128-0-10,0533_eid_dnn_128-0-10_keyboard_10_n04505470_3905.png,n04505470_3905.png,1.0,1.1239567,0.17307489,0.67237496
alexnet_w1_mlp_simclrhn_probe3,1,534,NaN,bottle,knife,4-0-10,0534_eid_dnn_4-0-10_knife_10_n03041632_32054.png,n03041632_32054.png,0.0,0.57574046,0.6233311,-0.033651687
alexnet_w1_mlp_simclrhn_probe3,1,535,NaN,cat,clock,8-0-10,0535_eid_dnn_8-0-10_clock_10_n03196217_13380.png,n03196217_13380.png,0.0,-0.25731462,1.5131065,-1.2518767
alexnet_w1_mlp_simclrhn_probe3,1,536,NaN,bird,chair,32-0-10,0536_eid_dnn_32-0-10_chair_10_n03376595_8083.png,n03376595_8083.png,0.0,-0.32984695,0.314863,-0.4558788
alexnet_w1_mlp_simclrhn_probe3,1,537,NaN,dog,cat,8-0-10,0537_eid_dnn_8-0-10_cat_10_n02125311_47927.png,n02125311_47927.png,0.0,1.1222749,1.5081451,-0.27285147
alexnet_w1_mlp_simclrhn_probe3,1,538,NaN,oven,boat,64-0-10,0538_eid_dnn_64-0-10_boat_10_n04273569_1141.png,n04273569_1141.png,0.0,-0.25939572,0.7751113,-0.73150694
alexnet_w1_mlp_simclrhn_probe3,1,539,NaN,oven,dog,64-0-10,0539_eid_dnn_64-0-10_dog_10_n02097130_5859.png,n02097130_5859.png,0.0,-0.039273262,0.5929663,-0.4470609
alexnet_w1_mlp_simclrhn_probe3,1,540,NaN,bear,dog,16-0-10,0540_eid_dnn_16-0-10_dog_10_n02090721_835.png,n02090721_835.png,0.0,0.055393003,0.579006,-0.37025034
alexnet_w1_mlp_simclrhn_probe3,1,541,NaN,oven,bear,128-0-10,0541_eid_dnn_128-0-10_bear_10_n02132136_15806.png,n02132136_15806.png,0.0,-0.02982654,0.23043549,-0.18403305
alexnet_w1_mlp_simclrhn_probe3,1,542,NaN,oven,cat,128-0-10,0542_eid_dnn_128-0-10_cat_10_n02124075_12069.png,n02124075_12069.png,0.0,-0.046390902,0.5292769,-0.4070586
alexnet_w1_mlp_simclrhn_probe3,1,543,NaN,oven,oven,2-0-10,0543_eid_dnn_2-0-10_oven_10_n04111531_21382.png,n04111531_21382.png,1.0,3.7375538,0.95571804,1.967055
alexnet_w1_mlp_simclrhn_probe3,1,544,NaN,dog,cat,1-0-10,0544_eid_dnn_1-0-10_cat_10_n02123597_2009.png,n02123597_2009.png,0.0,-0.035373032,0.55483615,-0.41734093
alexnet_w1_mlp_simclrhn_probe3,1,545,NaN,oven,oven,32-0-10,0545_eid_dnn_32-0-10_oven_10_n04111531_4392.png,n04111531_4392.png,1.0,0.7665902,0.4214826,0.24402791
alexnet_w1_mlp_simclrhn_probe3,1,546,NaN,boat,boat,4-0-10,0546_eid_dnn_4-0-10_boat_10_n03344393_640.png,n03344393_640.png,1.0,1.1570716,0.9918015,0.1168636
alexnet_w1_mlp_simclrhn_probe3,1,547,NaN,oven,car,4-0-10,0547_eid_dnn_4-0-10_car_10_n02814533_245.png,n02814533_245.png,0.0,-0.4196947,0.9919754,-0.9982015
alexnet_w1_mlp_simclrhn_probe3,1,548,NaN,bird,bird,1-0-10,0548_eid_dnn_1-0-10_bird_10_n01530575_3831.png,n01530575_3831.png,1.0,0.92261916,0.38825938,0.37784946
alexnet_w1_mlp_simclrhn_probe3,1,549,NaN,truck,truck,2-0-10,0549_eid_dnn_2-0-10_truck_10_n04467665_32276.png,n04467665_32276.png,1.0,4.3986907,2.8300972,1.1091632
alexnet_w1_mlp_simclrhn_probe3,1,550,NaN,keyboard,elephant,64-0-10,0550_eid_dnn_64-0-10_elephant_10_n02504458_5941.png,n02504458_5941.png,0.0,-0.10653713,0.2955563,-0.284323
alexnet_w1_mlp_simclrhn_probe3,1,551,NaN,elephant,elephant,4-0-10,0551_eid_dnn_4-0-10_elephant_10_n02504013_9796.png,n02504013_9796.png,1.0,3.347542,3.1329665,0.15172781
alexnet_w1_mlp_simclrhn_probe3,1,552,NaN,airplane,airplane,4-0-10,0552_eid_dnn_4-0-10_airplane_10_n02690373_8214.png,n02690373_8214.png,1.0,2.0209322,1.3739756,0.45746738
alexnet_w1_mlp_simclrhn_probe3,1,553,NaN,airplane,airplane,1-0-10,0553_eid_dnn_1-0-10_airplane_10_n02690373_8967.png,n02690373_8967.png,1.0,6.493489,1.1906332,3.749685
alexnet_w1_mlp_simclrhn_probe3,1,554,NaN,oven,elephant,64-0-10,0554_eid_dnn_64-0-10_elephant_10_n02504458_7642.png,n02504458_7642.png,0.0,0.029704545,0.40241185,-0.26354387
alexnet_w1_mlp_simclrhn_probe3,1,555,NaN,boat,boat,1-0-10,0555_eid_dnn_1-0-10_boat_10_n04273569_15455.png,n04273569_15455.png,1.0,2.2450566,1.5893847,0.46363008
alexnet_w1_mlp_simclrhn_probe3,1,556,NaN,bear,knife,8-0-10,0556_eid_dnn_8-0-10_knife_10_n03041632_3063.png,n03041632_3063.png,0.0,0.016853891,1.412324,-0.9867463
alexnet_w1_mlp_simclrhn_probe3,1,557,NaN,oven,bottle,4-0-10,0557_eid_dnn_4-0-10_bottle_10_n03937543_4912.png,n03937543_4912.png,0.0,1.4895868,1.508627,-0.013463474
alexnet_w1_mlp_simclrhn_probe3,1,558,NaN,cat,oven,4-0-10,0558_eid_dnn_4-0-10_oven_10_n04111531_5776.png,n04111531_5776.png,0.0,0.7340502,1.3424939,-0.43023467
alexnet_w1_mlp_simclrhn_probe3,1,559,NaN,cat,bottle,128-0-10,0559_eid_dnn_128-0-10_bottle_10_n03983396_4540.png,n03983396_4540.png,0.0,0.20873043,0.5546964,-0.24463488
alexnet_w1_mlp_simclrhn_probe3,1,560,NaN,knife,knife,2-0-10,0560_eid_dnn_2-0-10_knife_10_n03041632_965.png,n03041632_965.png,1.0,1.6241912,0.6408177,0.69535005
alexnet_w1_mlp_simclrhn_probe3,1,561,NaN,oven,knife,32-0-10,0561_eid_dnn_32-0-10_knife_10_n03041632_12949.png,n03041632_12949.png,0.0,-0.020505436,0.7992811,-0.5796766
alexnet_w1_mlp_simclrhn_probe3,1,562,NaN,bear,knife,16-0-10,0562_eid_dnn_16-0-10_knife_10_n03041632_18766.png,n03041632_18766.png,0.0,0.08277347,1.0489868,-0.68321604
alexnet_w1_mlp_simclrhn_probe3,1,563,NaN,oven,keyboard,8-0-10,0563_eid_dnn_8-0-10_keyboard_10_n04505470_2869.png,n04505470_2869.png,0.0,0.22692995,1.3162333,-0.77025384
alexnet_w1_mlp_simclrhn_probe3,1,564,NaN,elephant,bicycle,4-0-10,0564_eid_dnn_4-0-10_bicycle_10_n02835271_18537.png,n02835271_18537.png,0.0,0.84508705,1.6168925,-0.54574883
alexnet_w1_mlp_simclrhn_probe3,1,565,NaN,dog,clock,32-0-10,0565_eid_dnn_32-0-10_clock_10_n04548280_1119.png,n04548280_1119.png,0.0,-0.005978007,0.09663503,-0.07255837
alexnet_w1_mlp_simclrhn_probe3,1,566,NaN,oven,oven,1-0-10,0566_eid_dnn_1-0-10_oven_10_n04111531_687.png,n04111531_687.png,1.0,5.718094,0.9194289,3.3931687
alexnet_w1_mlp_simclrhn_probe3,1,567,NaN,oven,chair,64-0-10,0567_eid_dnn_64-0-10_chair_10_n03376595_3038.png,n03376595_3038.png,0.0,0.03883154,0.50856614,-0.33215255
alexnet_w1_mlp_simclrhn_probe3,1,568,NaN,oven,bicycle,16-0-10,0568_eid_dnn_16-0-10_bicycle_10_n02835271_3989.png,n02835271_3989.png,0.0,0.17708668,0.61650455,-0.31071535
alexnet_w1_mlp_simclrhn_probe3,1,569,NaN,oven,dog,64-0-10,0569_eid_dnn_64-0-10_dog_10_n02096437_4563.png,n02096437_4563.png,0.0,-0.09065521,0.72138786,-0.57420117
alexnet_w1_mlp_simclrhn_probe3,1,570,NaN,oven,clock,32-0-10,0570_eid_dnn_32-0-10_clock_10_n02708093_685.png,n02708093_685.png,0.0,-0.11431546,0.37864998,-0.3485792
alexnet_w1_mlp_simclrhn_probe3,1,571,NaN,oven,boat,32-0-10,0571_eid_dnn_32-0-10_boat_10_n03662601_8360.png,n03662601_8360.png,0.0,0.066168904,1.039727,-0.6884095
alexnet_w1_mlp_simclrhn_probe3,1,572,NaN,bear,keyboard,8-0-10,0572_eid_dnn_8-0-10_keyboard_10_n03085013_17035.png,n03085013_17035.png,0.0,-0.36772513,0.5313368,-0.63573277
alexnet_w1_mlp_simclrhn_probe3,1,573,NaN,oven,dog,64-0-10,0573_eid_dnn_64-0-10_dog_10_n02110063_12166.png,n02110063_12166.png,0.0,-0.05114915,0.8795067,-0.65807307
alexnet_w1_mlp_simclrhn_probe3,1,574,NaN,elephant,dog,2-0-10,0574_eid_dnn_2-0-10_dog_10_n02108422_6951.png,n02108422_6951.png,0.0,1.912422,2.112301,-0.14133592
alexnet_w1_mlp_simclrhn_probe3,1,575,NaN,oven,bear,64-0-10,0575_eid_dnn_64-0-10_bear_10_n02134418_912.png,n02134418_912.png,0.0,0.04507766,0.21673267,-0.121378414
alexnet_w1_mlp_simclrhn_probe3,1,576,NaN,clock,clock,4-0-10,0576_eid_dnn_4-0-10_clock_10_n02708093_564.png,n02708093_564.png,1.0,1.1033926,0.70042163,0.28494352
alexnet_w1_mlp_simclrhn_probe3,1,577,NaN,oven,car,64-0-10,0577_eid_dnn_64-0-10_car_10_n04285008_11893.png,n04285008_11893.png,0.0,-0.4607114,0.3554081,-0.57708365
alexnet_w1_mlp_simclrhn_probe3,1,578,NaN,oven,knife,64-0-10,0578_eid_dnn_64-0-10_knife_10_n03041632_20504.png,n03041632_20504.png,0.0,0.13069564,0.72696674,-0.42162734
alexnet_w1_mlp_simclrhn_probe3,1,579,NaN,clock,clock,4-0-10,0579_eid_dnn_4-0-10_clock_10_n04548280_4557.png,n04548280_4557.png,1.0,0.5520563,0.37541145,0.12490678
alexnet_w1_mlp_simclrhn_probe3,1,580,NaN,dog,clock,32-0-10,0580_eid_dnn_32-0-10_clock_10_n02708093_3360.png,n02708093_3360.png,0.0,-0.040396467,0.12832491,-0.11930403
alexnet_w1_mlp_simclrhn_probe3,1,581,NaN,bear,bear,16-0-10,0581_eid_dnn_16-0-10_bear_10_n02134084_617.png,n02134084_617.png,1.0,0.8329388,0.67719406,0.11012816
alexnet_w1_mlp_simclrhn_probe3,1,582,NaN,knife,dog,1-0-10,0582_eid_dnn_1-0-10_dog_10_n02093991_4081.png,n02093991_4081.png,0.0,-0.6021706,1.1969798,-1.2721914
alexnet_w1_mlp_simclrhn_probe3,1,583,NaN,bear,elephant,16-0-10,0583_eid_dnn_16-0-10_elephant_10_n02504458_1727.png,n02504458_1727.png,0.0,0.90942025,1.1807687,-0.19187236
alexnet_w1_mlp_simclrhn_probe3,1,584,NaN,elephant,clock,32-0-10,0584_eid_dnn_32-0-10_clock_10_n04548280_16295.png,n04548280_16295.png,0.0,0.062381666,0.12343605,-0.04317197
alexnet_w1_mlp_simclrhn_probe3,1,585,NaN,bear,boat,4-0-10,0585_eid_dnn_4-0-10_boat_10_n02951358_16217.png,n02951358_16217.png,0.0,0.6325077,2.922263,-1.6191015
alexnet_w1_mlp_simclrhn_probe3,1,586,NaN,bear,airplane,8-0-10,0586_eid_dnn_8-0-10_airplane_10_n02690373_7536.png,n02690373_7536.png,0.0,-0.19970973,1.3113903,-1.0685091
alexnet_w1_mlp_simclrhn_probe3,1,587,NaN,bear,cat,8-0-10,0587_eid_dnn_8-0-10_cat_10_n02123597_22140.png,n02123597_22140.png,0.0,0.8732249,0.87774014,-0.0031927503
alexnet_w1_mlp_simclrhn_probe3,1,588,NaN,oven,bottle,128-0-10,0588_eid_dnn_128-0-10_bottle_10_n04591713_8914.png,n04591713_8914.png,0.0,0.10556727,0.1534124,-0.03383162
alexnet_w1_mlp_simclrhn_probe3,1,589,NaN,oven,car,128-0-10,0589_eid_dnn_128-0-10_car_10_n03100240_963.png,n03100240_963.png,0.0,-0.5593174,0.33347976,-0.63130295
alexnet_w1_mlp_simclrhn_probe3,1,590,NaN,oven,boat,32-0-10,0590_eid_dnn_32-0-10_boat_10_n02951358_18762.png,n02951358_18762.png,0.0,-0.11430228,0.10714075,-0.15658388
alexnet_w1_mlp_simclrhn_probe3,1,591,NaN,bear,bear,32-0-10,0591_eid_dnn_32-0-10_bear_10_n02134418_2633.png,n02134418_2633.png,1.0,0.724381,0.61334956,0.07851111
alexnet_w1_mlp_simclrhn_probe3,1,592,NaN,oven,airplane,64-0-10,0592_eid_dnn_64-0-10_airplane_10_n02690373_1169.png,n02690373_1169.png,0.0,-0.12573662,0.32456067,-0.31840828
alexnet_w1_mlp_simclrhn_probe3,1,593,NaN,bicycle,bicycle,2-0-10,0593_eid_dnn_2-0-10_bicycle_10_n03792782_12704.png,n03792782_12704.png,1.0,0.87911326,0.42500868,0.3211004
alexnet_w1_mlp_simclrhn_probe3,1,594,NaN,oven,dog,64-0-10,0594_eid_dnn_64-0-10_dog_10_n02088238_2973.png,n02088238_2973.png,0.0,-0.033220287,0.40993232,-0.31335622
alexnet_w1_mlp_simclrhn_probe3,1,595,NaN,oven,knife,32-0-10,0595_eid_dnn_32-0-10_knife_10_n03041632_41493.png,n03041632_41493.png,0.0,-0.10302076,0.64221096,-0.5269584
alexnet_w1_mlp_simclrhn_probe3,1,596,NaN,dog,bottle,128-0-10,0596_eid_dnn_128-0-10_bottle_10_n03983396_2959.png,n03983396_2959.png,0.0,-0.05938087,0.24871515,-0.2178568
alexnet_w1_mlp_simclrhn_probe3,1,597,NaN,oven,clock,1-0-10,0597_eid_dnn_1-0-10_clock_10_n02708093_2843.png,n02708093_2843.png,0.0,1.5707239,2.9594827,-0.98200077
alexnet_w1_mlp_simclrhn_probe3,1,598,NaN,bear,oven,8-0-10,0598_eid_dnn_8-0-10_oven_10_n04111531_12952.png,n04111531_12952.png,0.0,0.34678212,1.3575817,-0.7147433
alexnet_w1_mlp_simclrhn_probe3,1,599,NaN,bear,bear,16-0-10,0599_eid_dnn_16-0-10_bear_10_n02134418_2891.png,n02134418_2891.png,1.0,1.4112933,0.61446047,0.56344587
alexnet_w1_mlp_simclrhn_probe3,1,600,NaN,bear,truck,32-0-10,0600_eid_dnn_32-0-10_truck_10_n03417042_3862.png,n03417042_3862.png,0.0,-0.266315,1.0634363,-0.94027615
alexnet_w1_mlp_simclrhn_probe3,1,601,NaN,oven,elephant,16-0-10,0601_eid_dnn_16-0-10_elephant_10_n02504458_2054.png,n02504458_2054.png,0.0,0.5077238,1.237911,-0.5163203
alexnet_w1_mlp_simclrhn_probe3,1,602,NaN,airplane,airplane,1-0-10,0602_eid_dnn_1-0-10_airplane_10_n02690373_7355.png,n02690373_7355.png,1.0,5.0814166,1.3143996,2.6636832
