subj,session,trial,rt,object_response,category,condition,imagename,filename,is_correct,targ_act,max_nontarg_act,decision_margin
vit_b_16,1,1,NaN,cat,oven,16-0-10,0001_eid_dnn_16-0-10_oven_10_n04111531_13542.png,n04111531_13542.png,0.0,0.5363589,1.4304423,-0.63221246
vit_b_16,1,2,NaN,car,car,4-0-10,0002_eid_dnn_4-0-10_car_10_n03100240_5570.png,n03100240_5570.png,1.0,6.879128,1.5142577,3.7935362
vit_b_16,1,3,NaN,cat,bird,8-0-10,0003_eid_dnn_8-0-10_bird_10_n01820546_4847.png,n01820546_4847.png,0.0,-0.613804,1.9378833,-1.8043153
vit_b_16,1,4,NaN,airplane,bear,32-0-10,0004_eid_dnn_32-0-10_bear_10_n02133161_15561.png,n02133161_15561.png,0.0,-0.15781973,1.682324,-1.3011782
vit_b_16,1,5,NaN,clock,bird,64-0-10,0005_eid_dnn_64-0-10_bird_10_n01531178_9584.png,n01531178_9584.png,0.0,-0.88822407,1.0648911,-1.3810611
vit_b_16,1,6,NaN,bear,bicycle,8-0-10,0006_eid_dnn_8-0-10_bicycle_10_n02835271_18846.png,n02835271_18846.png,0.0,0.33722717,2.7787704,-1.7264318
vit_b_16,1,7,NaN,bottle,oven,4-0-10,0007_eid_dnn_4-0-10_oven_10_n04111531_73.png,n04111531_73.png,0.0,-0.15466113,2.0992484,-1.5937548
vit_b_16,1,8,NaN,clock,clock,2-0-10,0008_eid_dnn_2-0-10_clock_10_n04548280_6159.png,n04548280_6159.png,1.0,6.411745,0.8716229,3.9174578
vit_b_16,1,9,NaN,elephant,chair,32-0-10,0009_eid_dnn_32-0-10_chair_10_n03376595_9395.png,n03376595_9395.png,0.0,-0.84348667,1.1902032,-1.438036
vit_b_16,1,10,NaN,cat,bicycle,64-0-10,0010_eid_dnn_64-0-10_bicycle_10_n02835271_1918.png,n02835271_1918.png,0.0,-0.6919217,1.3274051,-1.4278796
vit_b_16,1,11,NaN,keyboard,bicycle,128-0-10,0011_eid_dnn_128-0-10_bicycle_10_n02835271_42320.png,n02835271_42320.png,0.0,-0.4975041,4.194328,-3.3176262
vit_b_16,1,12,NaN,elephant,elephant,1-0-10,0012_eid_dnn_1-0-10_elephant_10_n02504458_3628.png,n02504458_3628.png,1.0,6.9552584,0.3393586,4.6781473
vit_b_16,1,13,NaN,clock,knife,64-0-10,0013_eid_dnn_64-0-10_knife_10_n03041632_86554.png,n03041632_86554.png,0.0,0.58276474,1.5189348,-0.6619722
vit_b_16,1,14,NaN,airplane,cat,8-0-10,0014_eid_dnn_8-0-10_cat_10_n02123394_1726.png,n02123394_1726.png,0.0,0.64934283,1.6758605,-0.7258576
vit_b_16,1,15,NaN,dog,cat,32-0-10,0015_eid_dnn_32-0-10_cat_10_n02123597_6721.png,n02123597_6721.png,0.0,0.24279465,1.336423,-0.7733121
vit_b_16,1,16,NaN,truck,oven,2-0-10,0016_eid_dnn_2-0-10_oven_10_n04111531_21869.png,n04111531_21869.png,0.0,2.1923733,2.7370038,-0.38511196
vit_b_16,1,17,NaN,bear,bear,4-0-10,0017_eid_dnn_4-0-10_bear_10_n02134084_2949.png,n02134084_2949.png,1.0,2.8514628,0.32316792,1.7877746
vit_b_16,1,18,NaN,dog,truck,8-0-10,0018_eid_dnn_8-0-10_truck_10_n03417042_18743.png,n03417042_18743.png,0.0,-0.4342615,1.488086,-1.359305
vit_b_16,1,19,NaN,dog,bird,16-0-10,0019_eid_dnn_16-0-10_bird_10_n01616318_4246.png,n01616318_4246.png,0.0,-0.40895197,1.432107,-1.3018253
vit_b_16,1,20,NaN,dog,bicycle,8-0-10,0020_eid_dnn_8-0-10_bicycle_10_n03792782_66771.png,n03792782_66771.png,0.0,0.5682322,1.3462561,-0.55014604
vit_b_16,1,21,NaN,keyboard,keyboard,2-0-10,0021_eid_dnn_2-0-10_keyboard_10_n04505470_3531.png,n04505470_3531.png,1.0,5.185917,0.4064051,3.3796253
vit_b_16,1,22,NaN,clock,clock,8-0-10,0022_eid_dnn_8-0-10_clock_10_n04548280_6463.png,n04548280_6463.png,1.0,3.9008782,1.1403078,1.9520181
vit_b_16,1,23,NaN,bear,keyboard,16-0-10,0023_eid_dnn_16-0-10_keyboard_10_n04505470_4974.png,n04505470_4974.png,0.0,0.010456786,1.0631781,-0.7443864
vit_b_16,1,24,NaN,bottle,chair,4-0-10,0024_eid_dnn_4-0-10_chair_10_n03376595_360.png,n03376595_360.png,0.0,0.3132165,2.2855716,-1.3946657
vit_b_16,1,25,NaN,dog,dog,16-0-10,0025_eid_dnn_16-0-10_dog_10_n02097130_2752.png,n02097130_2752.png,1.0,1.2817461,1.0335126,0.17552763
vit_b_16,1,26,NaN,bicycle,bicycle,2-0-10,0026_eid_dnn_2-0-10_bicycle_10_n02835271_3406.png,n02835271_3406.png,1.0,5.688366,0.249706,3.8457136
vit_b_16,1,27,NaN,knife,bottle,16-0-10,0027_eid_dnn_16-0-10_bottle_10_n04560804_11732.png,n04560804_11732.png,0.0,0.89643306,1.2558446,-0.25414234
vit_b_16,1,28,NaN,dog,bottle,32-0-10,0028_eid_dnn_32-0-10_bottle_10_n04591713_13589.png,n04591713_13589.png,0.0,0.38098216,1.2540257,-0.617335
vit_b_16,1,29,NaN,cat,cat,2-0-10,0029_eid_dnn_2-0-10_cat_10_n02123045_4009.png,n02123045_4009.png,1.0,3.6983674,1.957093,1.231267
vit_b_16,1,30,NaN,chair,chair,8-0-10,0030_eid_dnn_8-0-10_chair_10_n02791124_1704.png,n02791124_1704.png,1.0,1.4685668,1.3330189,0.095846824
vit_b_16,1,31,NaN,elephant,bicycle,128-0-10,0031_eid_dnn_128-0-10_bicycle_10_n03792782_28395.png,n03792782_28395.png,0.0,-0.118429765,0.71997446,-0.5928413
vit_b_16,1,32,NaN,dog,truck,16-0-10,0032_eid_dnn_16-0-10_truck_10_n03417042_4288.png,n03417042_4288.png,0.0,-1.30403,1.564768,-2.0285463
vit_b_16,1,33,NaN,keyboard,keyboard,1-0-10,0033_eid_dnn_1-0-10_keyboard_10_n04505470_3371.png,n04505470_3371.png,1.0,7.572312,0.33447048,5.117927
vit_b_16,1,34,NaN,cat,cat,1-0-10,0034_eid_dnn_1-0-10_cat_10_n02124075_13436.png,n02124075_13436.png,1.0,2.1340737,1.5453455,0.4162937
vit_b_16,1,35,NaN,elephant,dog,32-0-10,0035_eid_dnn_32-0-10_dog_10_n02097209_8270.png,n02097209_8270.png,0.0,0.6256275,1.4540894,-0.585811
vit_b_16,1,36,NaN,cat,clock,128-0-10,0036_eid_dnn_128-0-10_clock_10_n04548280_7795.png,n04548280_7795.png,0.0,0.046422634,2.0800202,-1.4379706
vit_b_16,1,37,NaN,elephant,car,32-0-10,0037_eid_dnn_32-0-10_car_10_n03100240_21737.png,n03100240_21737.png,0.0,-0.38482597,1.4761498,-1.3159086
vit_b_16,1,38,NaN,keyboard,clock,128-0-10,0038_eid_dnn_128-0-10_clock_10_n02708093_1862.png,n02708093_1862.png,0.0,1.3128296,4.3190436,-2.1257145
vit_b_16,1,39,NaN,dog,bicycle,64-0-10,0039_eid_dnn_64-0-10_bicycle_10_n03792782_9412.png,n03792782_9412.png,0.0,-0.019036736,1.0444429,-0.7519937
vit_b_16,1,40,NaN,elephant,bear,32-0-10,0040_eid_dnn_32-0-10_bear_10_n02134418_163.png,n02134418_163.png,0.0,1.567095,2.362733,-0.5626009
vit_b_16,1,41,NaN,airplane,keyboard,16-0-10,0041_eid_dnn_16-0-10_keyboard_10_n03085013_25675.png,n03085013_25675.png,0.0,-0.5749531,2.5334835,-2.1979966
vit_b_16,1,42,NaN,truck,truck,2-0-10,0042_eid_dnn_2-0-10_truck_10_n03417042_1716.png,n03417042_1716.png,1.0,3.176215,0.9331972,1.586053
vit_b_16,1,43,NaN,elephant,keyboard,128-0-10,0043_eid_dnn_128-0-10_keyboard_10_n03085013_18854.png,n03085013_18854.png,0.0,0.060702607,1.4656928,-0.9934781
vit_b_16,1,44,NaN,clock,bottle,32-0-10,0044_eid_dnn_32-0-10_bottle_10_n04591713_4865.png,n04591713_4865.png,0.0,-0.08063022,0.58325857,-0.46944028
vit_b_16,1,45,NaN,cat,bicycle,32-0-10,0045_eid_dnn_32-0-10_bicycle_10_n03792782_693.png,n03792782_693.png,0.0,-0.6989305,1.7884779,-1.7588633
vit_b_16,1,46,NaN,knife,bottle,1-0-10,0046_eid_dnn_1-0-10_bottle_10_n04557648_264.png,n04557648_264.png,0.0,-0.2803306,1.1814717,-1.0336503
vit_b_16,1,47,NaN,knife,knife,2-0-10,0047_eid_dnn_2-0-10_knife_10_n03041632_25512.png,n03041632_25512.png,1.0,9.692018,0.42805684,6.5506096
vit_b_16,1,48,NaN,dog,boat,16-0-10,0048_eid_dnn_16-0-10_boat_10_n03344393_2381.png,n03344393_2381.png,0.0,-0.29717222,1.0627481,-0.9616088
vit_b_16,1,49,NaN,cat,dog,128-0-10,0049_eid_dnn_128-0-10_dog_10_n02110627_17670.png,n02110627_17670.png,0.0,0.34140462,2.013654,-1.1824589
vit_b_16,1,50,NaN,bottle,bear,64-0-10,0050_eid_dnn_64-0-10_bear_10_n02133161_15981.png,n02133161_15981.png,0.0,0.99228686,2.4464142,-1.0282233
vit_b_16,1,51,NaN,dog,elephant,16-0-10,0051_eid_dnn_16-0-10_elephant_10_n02504458_3570.png,n02504458_3570.png,0.0,1.2015095,1.3830615,-0.12837669
vit_b_16,1,52,NaN,truck,truck,4-0-10,0052_eid_dnn_4-0-10_truck_10_n03417042_6241.png,n03417042_6241.png,1.0,2.4382396,0.46283677,1.3968208
vit_b_16,1,53,NaN,airplane,bird,8-0-10,0053_eid_dnn_8-0-10_bird_10_n02025239_17670.png,n02025239_17670.png,0.0,0.2385746,2.5268168,-1.6180317
vit_b_16,1,54,NaN,dog,dog,16-0-10,0054_eid_dnn_16-0-10_dog_10_n02106030_19249.png,n02106030_19249.png,1.0,1.7486221,0.73111606,0.7194854
vit_b_16,1,55,NaN,dog,keyboard,32-0-10,0055_eid_dnn_32-0-10_keyboard_10_n04505470_2326.png,n04505470_2326.png,0.0,-0.55469894,1.2217952,-1.2561711
vit_b_16,1,56,NaN,elephant,dog,16-0-10,0056_eid_dnn_16-0-10_dog_10_n02107142_9379.png,n02107142_9379.png,0.0,1.2978958,1.3689511,-0.05024368
vit_b_16,1,57,NaN,clock,cat,64-0-10,0057_eid_dnn_64-0-10_cat_10_n02123394_1828.png,n02123394_1828.png,0.0,0.8786192,1.1152911,-0.16735232
vit_b_16,1,58,NaN,knife,car,32-0-10,0058_eid_dnn_32-0-10_car_10_n03100240_4605.png,n03100240_4605.png,0.0,-0.9184186,1.9171618,-2.005058
vit_b_16,1,59,NaN,bicycle,bicycle,4-0-10,0059_eid_dnn_4-0-10_bicycle_10_n03792782_6765.png,n03792782_6765.png,1.0,1.7332227,1.657802,0.053330515
vit_b_16,1,60,NaN,knife,boat,8-0-10,0060_eid_dnn_8-0-10_boat_10_n03344393_8455.png,n03344393_8455.png,0.0,-0.17495279,2.1050239,-1.6121869
vit_b_16,1,61,NaN,oven,oven,16-0-10,0061_eid_dnn_16-0-10_oven_10_n04111531_8603.png,n04111531_8603.png,1.0,1.1828262,0.9369375,0.17386954
vit_b_16,1,62,NaN,knife,bird,2-0-10,0062_eid_dnn_2-0-10_bird_10_n02051845_2574.png,n02051845_2574.png,0.0,0.058538582,0.41327032,-0.2508332
vit_b_16,1,63,NaN,boat,boat,4-0-10,0063_eid_dnn_4-0-10_boat_10_n04612504_15875.png,n04612504_15875.png,1.0,2.543747,1.1714289,0.9703754
vit_b_16,1,64,NaN,bottle,bottle,4-0-10,0064_eid_dnn_4-0-10_bottle_10_n03983396_7337.png,n03983396_7337.png,1.0,5.2895474,0.88214695,3.116503
vit_b_16,1,65,NaN,cat,clock,8-0-10,0065_eid_dnn_8-0-10_clock_10_n02708093_6822.png,n02708093_6822.png,0.0,0.65458906,1.0156296,-0.25529426
vit_b_16,1,66,NaN,truck,truck,2-0-10,0066_eid_dnn_2-0-10_truck_10_n04467665_15994.png,n04467665_15994.png,1.0,2.659121,1.1093657,1.0958425
vit_b_16,1,67,NaN,cat,cat,128-0-10,0067_eid_dnn_128-0-10_cat_10_n02123597_6291.png,n02123597_6291.png,1.0,1.1966923,0.6796171,0.3656274
vit_b_16,1,68,NaN,bear,bird,8-0-10,0068_eid_dnn_8-0-10_bird_10_n01817953_1734.png,n01817953_1734.png,0.0,-0.33744928,0.55482197,-0.6309311
vit_b_16,1,69,NaN,elephant,elephant,32-0-10,0069_eid_dnn_32-0-10_elephant_10_n02504458_6880.png,n02504458_6880.png,1.0,1.2285895,0.6259027,0.42616394
vit_b_16,1,70,NaN,dog,cat,16-0-10,0070_eid_dnn_16-0-10_cat_10_n02123597_13197.png,n02123597_13197.png,0.0,1.4689609,1.5940623,-0.08846008
vit_b_16,1,71,NaN,elephant,bicycle,64-0-10,0071_eid_dnn_64-0-10_bicycle_10_n03792782_973.png,n03792782_973.png,0.0,-0.04241261,1.2266761,-0.89738125
vit_b_16,1,72,NaN,cat,cat,2-0-10,0072_eid_dnn_2-0-10_cat_10_n02124075_8310.png,n02124075_8310.png,1.0,4.331103,0.46341133,2.734871
vit_b_16,1,73,NaN,dog,oven,32-0-10,0073_eid_dnn_32-0-10_oven_10_n04111531_5168.png,n04111531_5168.png,0.0,-1.0224111,1.3089429,-1.6485163
vit_b_16,1,74,NaN,airplane,airplane,1-0-10,0074_eid_dnn_1-0-10_airplane_10_n02690373_4893.png,n02690373_4893.png,1.0,8.675161,0.21501875,5.982224
vit_b_16,1,75,NaN,dog,dog,1-0-10,0075_eid_dnn_1-0-10_dog_10_n02086240_3614.png,n02086240_3614.png,1.0,1.0572773,0.16912049,0.6280217
vit_b_16,1,76,NaN,knife,oven,16-0-10,0076_eid_dnn_16-0-10_oven_10_n04111531_2937.png,n04111531_2937.png,0.0,0.47169772,1.0837623,-0.43279505
vit_b_16,1,77,NaN,clock,clock,1-0-10,0077_eid_dnn_1-0-10_clock_10_n03196217_2022.png,n03196217_2022.png,1.0,4.00691,2.871468,0.8028786
vit_b_16,1,78,NaN,cat,bottle,64-0-10,0078_eid_dnn_64-0-10_bottle_10_n04591713_2732.png,n04591713_2732.png,0.0,-0.02984276,2.2619903,-1.6205708
vit_b_16,1,79,NaN,car,car,2-0-10,0079_eid_dnn_2-0-10_car_10_n03100240_8794.png,n03100240_8794.png,1.0,6.3041015,1.5354571,3.3719409
vit_b_16,1,80,NaN,airplane,airplane,16-0-10,0080_eid_dnn_16-0-10_airplane_10_n02690373_3640.png,n02690373_3640.png,1.0,2.3739367,0.6291808,1.2337288
vit_b_16,1,81,NaN,elephant,bicycle,64-0-10,0081_eid_dnn_64-0-10_bicycle_10_n03792782_41097.png,n03792782_41097.png,0.0,-0.13410327,0.9796268,-0.7875261
vit_b_16,1,82,NaN,elephant,dog,64-0-10,0082_eid_dnn_64-0-10_dog_10_n02090721_6770.png,n02090721_6770.png,0.0,0.47165287,2.505466,-1.438123
vit_b_16,1,83,NaN,cat,cat,16-0-10,0083_eid_dnn_16-0-10_cat_10_n02123597_28968.png,n02123597_28968.png,1.0,2.3775437,1.7812771,0.42162418
vit_b_16,1,84,NaN,elephant,elephant,1-0-10,0084_eid_dnn_1-0-10_elephant_10_n02504013_5894.png,n02504013_5894.png,1.0,6.872744,0.22578022,4.7001133
vit_b_16,1,85,NaN,dog,oven,32-0-10,0085_eid_dnn_32-0-10_oven_10_n04111531_9314.png,n04111531_9314.png,0.0,-0.80407435,1.2187034,-1.4303199
vit_b_16,1,86,NaN,elephant,elephant,1-0-10,0086_eid_dnn_1-0-10_elephant_10_n02504458_12074.png,n02504458_12074.png,1.0,6.6924944,0.28699905,4.5293694
vit_b_16,1,87,NaN,bottle,boat,4-0-10,0087_eid_dnn_4-0-10_boat_10_n03344393_3773.png,n03344393_3773.png,0.0,1.0931127,2.168018,-0.7600729
vit_b_16,1,88,NaN,elephant,truck,128-0-10,0088_eid_dnn_128-0-10_truck_10_n04467665_80153.png,n04467665_80153.png,0.0,-1.2020333,1.5922137,-1.9758312
vit_b_16,1,89,NaN,bear,chair,128-0-10,0089_eid_dnn_128-0-10_chair_10_n04099969_20604.png,n04099969_20604.png,0.0,-0.39837992,0.82765657,-0.86693877
vit_b_16,1,90,NaN,knife,keyboard,32-0-10,0090_eid_dnn_32-0-10_keyboard_10_n03085013_23625.png,n03085013_23625.png,0.0,-0.34219614,1.32887,-1.1816223
vit_b_16,1,91,NaN,elephant,truck,64-0-10,0091_eid_dnn_64-0-10_truck_10_n03796401_1458.png,n03796401_1458.png,0.0,-1.4681739,1.163928,-1.8611772
vit_b_16,1,92,NaN,car,car,4-0-10,0092_eid_dnn_4-0-10_car_10_n03100240_18711.png,n03100240_18711.png,1.0,6.0223413,1.3354431,3.3141377
vit_b_16,1,93,NaN,clock,truck,128-0-10,0093_eid_dnn_128-0-10_truck_10_n03796401_2988.png,n03796401_2988.png,0.0,-1.2291696,0.65240186,-1.330472
vit_b_16,1,94,NaN,truck,truck,2-0-10,0094_eid_dnn_2-0-10_truck_10_n03417042_7096.png,n03417042_7096.png,1.0,2.0219147,0.13965194,1.3309609
vit_b_16,1,95,NaN,bear,dog,8-0-10,0095_eid_dnn_8-0-10_dog_10_n02105855_9345.png,n02105855_9345.png,0.0,0.1697809,0.5601773,-0.27605197
vit_b_16,1,96,NaN,elephant,bird,32-0-10,0096_eid_dnn_32-0-10_bird_10_n01796340_8342.png,n01796340_8342.png,0.0,0.21653616,3.2330375,-2.1329887
vit_b_16,1,97,NaN,knife,airplane,8-0-10,0097_eid_dnn_8-0-10_airplane_10_n02690373_7293.png,n02690373_7293.png,0.0,0.9624269,1.5888146,-0.442923
vit_b_16,1,98,NaN,dog,car,64-0-10,0098_eid_dnn_64-0-10_car_10_n04285008_9811.png,n04285008_9811.png,0.0,-1.0667251,0.96912014,-1.43956
vit_b_16,1,99,NaN,dog,knife,8-0-10,0099_eid_dnn_8-0-10_knife_10_n03041632_86783.png,n03041632_86783.png,0.0,-0.28039512,1.7308933,-1.4221957
vit_b_16,1,100,NaN,dog,oven,16-0-10,0100_eid_dnn_16-0-10_oven_10_n04111531_9867.png,n04111531_9867.png,0.0,-0.30318782,1.5210791,-1.2899516
vit_b_16,1,101,NaN,keyboard,truck,128-0-10,0101_eid_dnn_128-0-10_truck_10_n04467665_22573.png,n04467665_22573.png,0.0,-0.74151576,0.7573867,-1.0598841
vit_b_16,1,102,NaN,dog,car,128-0-10,0102_eid_dnn_128-0-10_car_10_n02814533_23512.png,n02814533_23512.png,0.0,-0.878777,0.79228204,-1.1816173
vit_b_16,1,103,NaN,dog,bicycle,16-0-10,0103_eid_dnn_16-0-10_bicycle_10_n03792782_4895.png,n03792782_4895.png,0.0,-0.03791717,1.3029296,-0.94812185
vit_b_16,1,104,NaN,keyboard,keyboard,2-0-10,0104_eid_dnn_2-0-10_keyboard_10_n03085013_23554.png,n03085013_23554.png,1.0,6.0968237,1.635014,3.154976
vit_b_16,1,105,NaN,bear,bear,1-0-10,0105_eid_dnn_1-0-10_bear_10_n02134084_8601.png,n02134084_8601.png,1.0,3.0880482,0.21232332,2.0334446
vit_b_16,1,106,NaN,bear,bicycle,8-0-10,0106_eid_dnn_8-0-10_bicycle_10_n03792782_126.png,n03792782_126.png,0.0,-0.30418873,1.4369535,-1.2311735
vit_b_16,1,107,NaN,chair,chair,1-0-10,0107_eid_dnn_1-0-10_chair_10_n04099969_3583.png,n04099969_3583.png,1.0,2.3548992,0.7003085,1.1699723
vit_b_16,1,108,NaN,bear,bicycle,8-0-10,0108_eid_dnn_8-0-10_bicycle_10_n02835271_976.png,n02835271_976.png,0.0,-0.1578067,1.6237342,-1.2597396
vit_b_16,1,109,NaN,cat,oven,32-0-10,0109_eid_dnn_32-0-10_oven_10_n04111531_10313.png,n04111531_10313.png,0.0,0.78685564,0.9578474,-0.120909445
vit_b_16,1,110,NaN,oven,oven,1-0-10,0110_eid_dnn_1-0-10_oven_10_n04111531_8984.png,n04111531_8984.png,1.0,9.14646,0.2712745,6.2757034
vit_b_16,1,111,NaN,elephant,elephant,8-0-10,0111_eid_dnn_8-0-10_elephant_10_n02504013_3181.png,n02504013_3181.png,1.0,2.9437225,2.3495488,0.42014423
vit_b_16,1,112,NaN,cat,keyboard,64-0-10,0112_eid_dnn_64-0-10_keyboard_10_n03085013_21490.png,n03085013_21490.png,0.0,-0.6064728,1.0182747,-1.14887
vit_b_16,1,113,NaN,knife,bird,4-0-10,0113_eid_dnn_4-0-10_bird_10_n01614925_2708.png,n01614925_2708.png,0.0,-0.24769986,1.4225854,-1.18107
vit_b_16,1,114,NaN,dog,bottle,16-0-10,0114_eid_dnn_16-0-10_bottle_10_n03983396_3109.png,n03983396_3109.png,0.0,0.08042228,1.2884688,-0.85421795
vit_b_16,1,115,NaN,elephant,bear,128-0-10,0115_eid_dnn_128-0-10_bear_10_n02134418_377.png,n02134418_377.png,0.0,0.6799607,1.397784,-0.5075777
vit_b_16,1,116,NaN,dog,knife,16-0-10,0116_eid_dnn_16-0-10_knife_10_n03041632_7680.png,n03041632_7680.png,0.0,-0.5130463,1.2412069,-1.2404443
vit_b_16,1,117,NaN,truck,truck,4-0-10,0117_eid_dnn_4-0-10_truck_10_n03417042_3807.png,n03417042_3807.png,1.0,2.1782985,0.8985971,0.90488553
vit_b_16,1,118,NaN,keyboard,elephant,128-0-10,0118_eid_dnn_128-0-10_elephant_10_n02504013_6501.png,n02504013_6501.png,0.0,0.56720126,1.5525904,-0.6967753
vit_b_16,1,119,NaN,elephant,bicycle,32-0-10,0119_eid_dnn_32-0-10_bicycle_10_n03792782_5517.png,n03792782_5517.png,0.0,-0.09304915,0.6686864,-0.5386284
vit_b_16,1,120,NaN,keyboard,bottle,128-0-10,0120_eid_dnn_128-0-10_bottle_10_n02823428_5791.png,n02823428_5791.png,0.0,0.12104477,2.5631213,-1.7268088
vit_b_16,1,121,NaN,elephant,car,128-0-10,0121_eid_dnn_128-0-10_car_10_n04285008_10144.png,n04285008_10144.png,0.0,-0.7172868,1.6784686,-1.6940548
vit_b_16,1,122,NaN,cat,cat,4-0-10,0122_eid_dnn_4-0-10_cat_10_n02123159_5764.png,n02123159_5764.png,1.0,4.006874,2.29804,1.2083282
vit_b_16,1,123,NaN,cat,dog,16-0-10,0123_eid_dnn_16-0-10_dog_10_n02085936_4491.png,n02085936_4491.png,0.0,1.1926508,1.3887796,-0.13868403
vit_b_16,1,124,NaN,cat,bicycle,32-0-10,0124_eid_dnn_32-0-10_bicycle_10_n03792782_6159.png,n03792782_6159.png,0.0,-0.18816866,1.4881539,-1.1853391
vit_b_16,1,125,NaN,clock,clock,4-0-10,0125_eid_dnn_4-0-10_clock_10_n04548280_2404.png,n04548280_2404.png,1.0,6.155062,0.35108188,4.104034
vit_b_16,1,126,NaN,dog,bottle,64-0-10,0126_eid_dnn_64-0-10_bottle_10_n04591713_360.png,n04591713_360.png,0.0,-0.15720947,0.92009526,-0.7617695
vit_b_16,1,127,NaN,knife,airplane,16-0-10,0127_eid_dnn_16-0-10_airplane_10_n02690373_1909.png,n02690373_1909.png,0.0,0.964049,0.9707632,-0.004747674
vit_b_16,1,128,NaN,bear,bear,2-0-10,0128_eid_dnn_2-0-10_bear_10_n02133161_9724.png,n02133161_9724.png,1.0,4.504585,0.42236698,2.8865638
vit_b_16,1,129,NaN,car,car,2-0-10,0129_eid_dnn_2-0-10_car_10_n04285008_5897.png,n04285008_5897.png,1.0,5.6397285,0.30188125,3.7744281
vit_b_16,1,130,NaN,bicycle,bicycle,1-0-10,0130_eid_dnn_1-0-10_bicycle_10_n02835271_9807.png,n02835271_9807.png,1.0,6.476448,0.1557464,4.469411
vit_b_16,1,131,NaN,knife,keyboard,1-0-10,0131_eid_dnn_1-0-10_keyboard_10_n03085013_23286.png,n03085013_23286.png,0.0,3.7167635,6.4082417,-1.9031626
vit_b_16,1,132,NaN,clock,clock,2-0-10,0132_eid_dnn_2-0-10_clock_10_n02708093_772.png,n02708093_772.png,1.0,4.929478,1.5798713,2.3685298
vit_b_16,1,133,NaN,clock,clock,4-0-10,0133_eid_dnn_4-0-10_clock_10_n03196217_820.png,n03196217_820.png,1.0,2.8760767,1.6526448,0.86509705
vit_b_16,1,134,NaN,elephant,dog,32-0-10,0134_eid_dnn_32-0-10_dog_10_n02093754_6351.png,n02093754_6351.png,0.0,0.94160616,1.1848819,-0.17202194
vit_b_16,1,135,NaN,bear,truck,8-0-10,0135_eid_dnn_8-0-10_truck_10_n03417042_27093.png,n03417042_27093.png,0.0,-0.96538794,1.1285949,-1.4806694
vit_b_16,1,136,NaN,bicycle,bicycle,4-0-10,0136_eid_dnn_4-0-10_bicycle_10_n03792782_30530.png,n03792782_30530.png,1.0,7.2926254,0.31321174,4.9351907
vit_b_16,1,137,NaN,bottle,bottle,4-0-10,0137_eid_dnn_4-0-10_bottle_10_n03937543_5215.png,n03937543_5215.png,1.0,2.665956,0.5483417,1.4973794
vit_b_16,1,138,NaN,boat,boat,2-0-10,0138_eid_dnn_2-0-10_boat_10_n02951358_9933.png,n02951358_9933.png,1.0,3.0712762,0.48235956,1.8306404
vit_b_16,1,139,NaN,boat,dog,4-0-10,0139_eid_dnn_4-0-10_dog_10_n02086910_8694.png,n02086910_8694.png,0.0,0.813305,0.82435215,-0.007811497
vit_b_16,1,140,NaN,dog,knife,8-0-10,0140_eid_dnn_8-0-10_knife_10_n03041632_3504.png,n03041632_3504.png,0.0,0.079429135,1.2836105,-0.8514848
vit_b_16,1,141,NaN,clock,knife,128-0-10,0141_eid_dnn_128-0-10_knife_10_n03041632_15754.png,n03041632_15754.png,0.0,-0.60272896,1.2635906,-1.3196872
vit_b_16,1,142,NaN,elephant,truck,8-0-10,0142_eid_dnn_8-0-10_truck_10_n04467665_45306.png,n04467665_45306.png,0.0,-0.15159614,1.9001012,-1.4507691
vit_b_16,1,143,NaN,elephant,elephant,1-0-10,0143_eid_dnn_1-0-10_elephant_10_n02504013_5351.png,n02504013_5351.png,1.0,2.5474799,0.51795053,1.435094
vit_b_16,1,144,NaN,oven,bottle,2-0-10,0144_eid_dnn_2-0-10_bottle_10_n03937543_7763.png,n03937543_7763.png,0.0,0.98843855,1.4918269,-0.3559493
vit_b_16,1,145,NaN,elephant,bird,32-0-10,0145_eid_dnn_32-0-10_bird_10_n01843383_91.png,n01843383_91.png,0.0,0.005945113,1.0352004,-0.7277934
vit_b_16,1,146,NaN,clock,clock,4-0-10,0146_eid_dnn_4-0-10_clock_10_n04548280_28.png,n04548280_28.png,1.0,4.329807,3.0744631,0.88766205
vit_b_16,1,147,NaN,bear,knife,16-0-10,0147_eid_dnn_16-0-10_knife_10_n03041632_102828.png,n03041632_102828.png,0.0,-0.3487232,1.9962394,-1.658139
vit_b_16,1,148,NaN,elephant,car,128-0-10,0148_eid_dnn_128-0-10_car_10_n03100240_7520.png,n03100240_7520.png,0.0,-0.9130346,1.0533838,-1.3904679
vit_b_16,1,149,NaN,knife,knife,16-0-10,0149_eid_dnn_16-0-10_knife_10_n03041632_53874.png,n03041632_53874.png,1.0,2.137733,1.0019666,0.80310816
vit_b_16,1,150,NaN,airplane,boat,16-0-10,0150_eid_dnn_16-0-10_boat_10_n04273569_3896.png,n04273569_3896.png,0.0,-0.05330348,1.4439272,-1.058702
vit_b_16,1,151,NaN,airplane,airplane,2-0-10,0151_eid_dnn_2-0-10_airplane_10_n02690373_6002.png,n02690373_6002.png,1.0,9.327407,0.17680165,6.470455
vit_b_16,1,152,NaN,elephant,chair,8-0-10,0152_eid_dnn_8-0-10_chair_10_n04099969_7191.png,n04099969_7191.png,0.0,-0.6101781,1.085555,-1.1990644
vit_b_16,1,153,NaN,oven,dog,32-0-10,0153_eid_dnn_32-0-10_dog_10_n02101388_4808.png,n02101388_4808.png,0.0,0.18694769,3.2533529,-2.168276
vit_b_16,1,154,NaN,dog,keyboard,16-0-10,0154_eid_dnn_16-0-10_keyboard_10_n03085013_24538.png,n03085013_24538.png,0.0,-1.0276601,1.648999,-1.8926839
vit_b_16,1,155,NaN,cat,knife,128-0-10,0155_eid_dnn_128-0-10_knife_10_n03041632_85488.png,n03041632_85488.png,0.0,-0.69827825,1.8530589,-1.8040679
vit_b_16,1,156,NaN,bottle,car,4-0-10,0156_eid_dnn_4-0-10_car_10_n04285008_7630.png,n04285008_7630.png,0.0,1.2381996,4.1778016,-2.0786126
vit_b_16,1,157,NaN,airplane,airplane,8-0-10,0157_eid_dnn_8-0-10_airplane_10_n02690373_2941.png,n02690373_2941.png,1.0,2.7887309,1.194254,1.1274654
vit_b_16,1,158,NaN,elephant,bird,64-0-10,0158_eid_dnn_64-0-10_bird_10_n01514859_6021.png,n01514859_6021.png,0.0,-0.27678832,1.4038123,-1.1883641
vit_b_16,1,159,NaN,clock,clock,64-0-10,0159_eid_dnn_64-0-10_clock_10_n04548280_3293.png,n04548280_3293.png,1.0,0.73942107,0.53356117,0.14556493
vit_b_16,1,160,NaN,oven,oven,4-0-10,0160_eid_dnn_4-0-10_oven_10_n04111531_4998.png,n04111531_4998.png,1.0,4.1106324,2.0282512,1.4724659
vit_b_16,1,161,NaN,clock,bird,128-0-10,0161_eid_dnn_128-0-10_bird_10_n02028035_32993.png,n02028035_32993.png,0.0,-0.32437968,1.3338385,-1.1725373
vit_b_16,1,162,NaN,cat,bird,2-0-10,0162_eid_dnn_2-0-10_bird_10_n01843383_7800.png,n01843383_7800.png,0.0,0.7238823,0.80131215,-0.054751158
vit_b_16,1,163,NaN,elephant,bear,64-0-10,0163_eid_dnn_64-0-10_bear_10_n02132136_15174.png,n02132136_15174.png,0.0,0.91281605,2.161646,-0.88305604
vit_b_16,1,164,NaN,chair,oven,4-0-10,0164_eid_dnn_4-0-10_oven_10_n04111531_7266.png,n04111531_7266.png,0.0,0.65349144,1.3653322,-0.50334746
vit_b_16,1,165,NaN,cat,cat,128-0-10,0165_eid_dnn_128-0-10_cat_10_n02124075_6464.png,n02124075_6464.png,1.0,1.439556,0.79963374,0.45249337
vit_b_16,1,166,NaN,elephant,bicycle,16-0-10,0166_eid_dnn_16-0-10_bicycle_10_n02835271_4667.png,n02835271_4667.png,0.0,-0.99788487,2.0945487,-2.1866808
vit_b_16,1,167,NaN,dog,chair,32-0-10,0167_eid_dnn_32-0-10_chair_10_n04099969_2532.png,n04099969_2532.png,0.0,-0.81935704,1.5304118,-1.6615375
vit_b_16,1,168,NaN,bottle,bottle,4-0-10,0168_eid_dnn_4-0-10_bottle_10_n04560804_15683.png,n04560804_15683.png,1.0,2.1322563,0.24606785,1.3337367
vit_b_16,1,169,NaN,dog,chair,8-0-10,0169_eid_dnn_8-0-10_chair_10_n04099969_6825.png,n04099969_6825.png,0.0,1.4959878,1.5536731,-0.04078972
vit_b_16,1,170,NaN,oven,oven,1-0-10,0170_eid_dnn_1-0-10_oven_10_n04111531_1612.png,n04111531_1612.png,1.0,5.521203,2.6709044,2.0154655
vit_b_16,1,171,NaN,clock,clock,2-0-10,0171_eid_dnn_2-0-10_clock_10_n02708093_1701.png,n02708093_1701.png,1.0,4.499257,0.16288403,3.0662787
vit_b_16,1,172,NaN,cat,elephant,32-0-10,0172_eid_dnn_32-0-10_elephant_10_n02504013_782.png,n02504013_782.png,0.0,1.3739727,1.6842227,-0.21937992
vit_b_16,1,173,NaN,bear,dog,128-0-10,0173_eid_dnn_128-0-10_dog_10_n02107908_8814.png,n02107908_8814.png,0.0,0.6644315,1.0859842,-0.2980828
vit_b_16,1,174,NaN,elephant,elephant,4-0-10,0174_eid_dnn_4-0-10_elephant_10_n02504458_5816.png,n02504458_5816.png,1.0,1.4982195,0.69534653,0.5677169
vit_b_16,1,175,NaN,car,car,2-0-10,0175_eid_dnn_2-0-10_car_10_n03100240_18788.png,n03100240_18788.png,1.0,7.171463,2.1753893,3.5327578
vit_b_16,1,176,NaN,airplane,airplane,16-0-10,0176_eid_dnn_16-0-10_airplane_10_n02690373_7915.png,n02690373_7915.png,1.0,4.506954,2.0059144,1.7685022
vit_b_16,1,177,NaN,chair,chair,4-0-10,0177_eid_dnn_4-0-10_chair_10_n04429376_10544.png,n04429376_10544.png,1.0,3.9041057,0.70420194,2.2626736
vit_b_16,1,178,NaN,elephant,knife,32-0-10,0178_eid_dnn_32-0-10_knife_10_n03041632_24883.png,n03041632_24883.png,0.0,-0.29652902,0.9261241,-0.86454636
vit_b_16,1,179,NaN,cat,bicycle,128-0-10,0179_eid_dnn_128-0-10_bicycle_10_n03792782_10367.png,n03792782_10367.png,0.0,0.099501625,1.3824677,-0.9071941
vit_b_16,1,180,NaN,oven,oven,1-0-10,0180_eid_dnn_1-0-10_oven_10_n04111531_3121.png,n04111531_3121.png,1.0,2.6502929,1.6589553,0.7009815
vit_b_16,1,181,NaN,elephant,car,128-0-10,0181_eid_dnn_128-0-10_car_10_n02814533_10995.png,n02814533_10995.png,0.0,-1.1345402,0.9448259,-1.4703339
vit_b_16,1,182,NaN,cat,dog,128-0-10,0182_eid_dnn_128-0-10_dog_10_n02112350_502.png,n02112350_502.png,0.0,0.36387882,0.99486756,-0.4461764
vit_b_16,1,183,NaN,bicycle,clock,128-0-10,0183_eid_dnn_128-0-10_clock_10_n04548280_5278.png,n04548280_5278.png,0.0,0.48327222,2.27684,-1.2682439
vit_b_16,1,184,NaN,elephant,bird,4-0-10,0184_eid_dnn_4-0-10_bird_10_n02006656_713.png,n02006656_713.png,0.0,0.49896562,1.6511912,-0.81474656
vit_b_16,1,185,NaN,elephant,bottle,128-0-10,0185_eid_dnn_128-0-10_bottle_10_n04557648_4106.png,n04557648_4106.png,0.0,-0.30803585,1.4315255,-1.2300556
vit_b_16,1,186,NaN,clock,clock,64-0-10,0186_eid_dnn_64-0-10_clock_10_n02708093_1430.png,n02708093_1430.png,1.0,0.8800724,0.3687505,0.36155918
vit_b_16,1,187,NaN,oven,oven,1-0-10,0187_eid_dnn_1-0-10_oven_10_n04111531_7664.png,n04111531_7664.png,1.0,9.206199,0.59271574,6.0906525
vit_b_16,1,188,NaN,car,car,1-0-10,0188_eid_dnn_1-0-10_car_10_n02814533_149.png,n02814533_149.png,1.0,2.5545306,1.7754755,0.5508752
vit_b_16,1,189,NaN,elephant,clock,64-0-10,0189_eid_dnn_64-0-10_clock_10_n04548280_8296.png,n04548280_8296.png,0.0,0.74964875,1.5149772,-0.541169
vit_b_16,1,190,NaN,cat,bottle,64-0-10,0190_eid_dnn_64-0-10_bottle_10_n04591713_5815.png,n04591713_5815.png,0.0,-0.009344765,0.6739373,-0.4831534
vit_b_16,1,191,NaN,knife,knife,2-0-10,0191_eid_dnn_2-0-10_knife_10_n03041632_90125.png,n03041632_90125.png,1.0,4.1897693,0.49511313,2.6125164
vit_b_16,1,192,NaN,elephant,bird,64-0-10,0192_eid_dnn_64-0-10_bird_10_n01534433_16586.png,n01534433_16586.png,0.0,-0.17651105,1.3951317,-1.1113193
vit_b_16,1,193,NaN,cat,cat,4-0-10,0193_eid_dnn_4-0-10_cat_10_n02123394_2559.png,n02123394_2559.png,1.0,4.134451,0.5028942,2.5678985
vit_b_16,1,194,NaN,elephant,elephant,4-0-10,0194_eid_dnn_4-0-10_elephant_10_n02504458_5995.png,n02504458_5995.png,1.0,6.990799,0.33677456,4.705106
vit_b_16,1,195,NaN,car,car,2-0-10,0195_eid_dnn_2-0-10_car_10_n02814533_211.png,n02814533_211.png,1.0,2.1610606,0.36072075,1.2730325
vit_b_16,1,196,NaN,chair,chair,1-0-10,0196_eid_dnn_1-0-10_chair_10_n04429376_13328.png,n04429376_13328.png,1.0,6.333848,0.6015825,4.0533237
vit_b_16,1,197,NaN,bear,keyboard,16-0-10,0197_eid_dnn_16-0-10_keyboard_10_n03085013_24618.png,n03085013_24618.png,0.0,-0.6701634,1.6211958,-1.6202357
vit_b_16,1,198,NaN,bottle,oven,4-0-10,0198_eid_dnn_4-0-10_oven_10_n04111531_2186.png,n04111531_2186.png,0.0,0.26802933,0.72146314,-0.32062614
vit_b_16,1,199,NaN,bear,oven,8-0-10,0199_eid_dnn_8-0-10_oven_10_n04111531_114.png,n04111531_114.png,0.0,0.03164646,1.702647,-1.1815758
vit_b_16,1,200,NaN,car,car,1-0-10,0200_eid_dnn_1-0-10_car_10_n03100240_1745.png,n03100240_1745.png,1.0,6.8979454,0.77368563,4.330506
vit_b_16,1,201,NaN,cat,cat,4-0-10,0201_eid_dnn_4-0-10_cat_10_n02123394_1259.png,n02123394_1259.png,1.0,4.3837504,1.3999326,2.1098778
vit_b_16,1,202,NaN,oven,oven,4-0-10,0202_eid_dnn_4-0-10_oven_10_n04111531_5801.png,n04111531_5801.png,1.0,8.107702,1.1607639,4.9122276
vit_b_16,1,203,NaN,elephant,airplane,32-0-10,0203_eid_dnn_32-0-10_airplane_10_n02690373_2024.png,n02690373_2024.png,0.0,1.1934648,1.2112676,-0.012588506
vit_b_16,1,204,NaN,cat,cat,8-0-10,0204_eid_dnn_8-0-10_cat_10_n02123045_12181.png,n02123045_12181.png,1.0,3.083645,3.0196826,0.04522829
vit_b_16,1,205,NaN,bottle,airplane,64-0-10,0205_eid_dnn_64-0-10_airplane_10_n02690373_3313.png,n02690373_3313.png,0.0,-0.43167454,1.2326231,-1.1768361
vit_b_16,1,206,NaN,bottle,truck,64-0-10,0206_eid_dnn_64-0-10_truck_10_n04467665_80465.png,n04467665_80465.png,0.0,-1.13415,2.4856174,-2.5595622
vit_b_16,1,207,NaN,elephant,elephant,2-0-10,0207_eid_dnn_2-0-10_elephant_10_n02504013_8626.png,n02504013_8626.png,1.0,6.6315293,3.486444,2.2239113
vit_b_16,1,208,NaN,dog,car,16-0-10,0208_eid_dnn_16-0-10_car_10_n04285008_7904.png,n04285008_7904.png,0.0,-0.7078357,0.95744556,-1.1775317
vit_b_16,1,209,NaN,elephant,airplane,8-0-10,0209_eid_dnn_8-0-10_airplane_10_n02690373_6363.png,n02690373_6363.png,0.0,1.5572165,2.0699844,-0.36258167
vit_b_16,1,210,NaN,cat,cat,4-0-10,0210_eid_dnn_4-0-10_cat_10_n02123045_7294.png,n02123045_7294.png,1.0,4.9530025,1.4851081,2.4521716
vit_b_16,1,211,NaN,cat,airplane,128-0-10,0211_eid_dnn_128-0-10_airplane_10_n02690373_6988.png,n02690373_6988.png,0.0,0.107563496,1.8796068,-1.2530239
vit_b_16,1,212,NaN,cat,cat,4-0-10,0212_eid_dnn_4-0-10_cat_10_n02125311_25749.png,n02125311_25749.png,1.0,0.7941188,0.50832766,0.20208487
vit_b_16,1,213,NaN,bear,bird,64-0-10,0213_eid_dnn_64-0-10_bird_10_n02018207_12980.png,n02018207_12980.png,0.0,0.34728968,0.85409355,-0.35836446
vit_b_16,1,214,NaN,elephant,cat,32-0-10,0214_eid_dnn_32-0-10_cat_10_n02123394_2814.png,n02123394_2814.png,0.0,0.54045856,1.3785143,-0.5925949
vit_b_16,1,215,NaN,car,car,4-0-10,0215_eid_dnn_4-0-10_car_10_n04285008_662.png,n04285008_662.png,1.0,5.826387,2.2125616,2.5553603
vit_b_16,1,216,NaN,bicycle,bicycle,2-0-10,0216_eid_dnn_2-0-10_bicycle_10_n03792782_11679.png,n03792782_11679.png,1.0,5.634881,1.3341947,3.0410445
vit_b_16,1,217,NaN,cat,dog,16-0-10,0217_eid_dnn_16-0-10_dog_10_n02093428_17769.png,n02093428_17769.png,0.0,1.1393731,1.5674282,-0.30268073
vit_b_16,1,218,NaN,cat,dog,64-0-10,0218_eid_dnn_64-0-10_dog_10_n02106030_17418.png,n02106030_17418.png,0.0,0.9402091,0.96425647,-0.017004061
vit_b_16,1,219,NaN,bear,chair,64-0-10,0219_eid_dnn_64-0-10_chair_10_n02791124_7142.png,n02791124_7142.png,0.0,-0.62931466,0.9753089,-1.1346402
vit_b_16,1,220,NaN,bear,bear,1-0-10,0220_eid_dnn_1-0-10_bear_10_n02134084_18083.png,n02134084_18083.png,1.0,3.3638222,0.934028,1.718124
vit_b_16,1,221,NaN,keyboard,keyboard,2-0-10,0221_eid_dnn_2-0-10_keyboard_10_n03085013_7536.png,n03085013_7536.png,1.0,5.71612,0.6439583,3.58656
vit_b_16,1,222,NaN,bear,bird,1-0-10,0222_eid_dnn_1-0-10_bird_10_n01616318_2473.png,n01616318_2473.png,0.0,0.6669292,0.7571235,-0.06377699
vit_b_16,1,223,NaN,elephant,elephant,1-0-10,0223_eid_dnn_1-0-10_elephant_10_n02504458_5951.png,n02504458_5951.png,1.0,6.1107545,0.22900398,4.1590257
vit_b_16,1,224,NaN,airplane,airplane,4-0-10,0224_eid_dnn_4-0-10_airplane_10_n02690373_5164.png,n02690373_5164.png,1.0,4.898055,0.98200595,2.769065
vit_b_16,1,225,NaN,elephant,elephant,4-0-10,0225_eid_dnn_4-0-10_elephant_10_n02504013_1865.png,n02504013_1865.png,1.0,7.246187,0.5952155,4.7029476
vit_b_16,1,226,NaN,knife,knife,1-0-10,0226_eid_dnn_1-0-10_knife_10_n03041632_56454.png,n03041632_56454.png,1.0,9.933863,0.8627327,6.4142575
vit_b_16,1,227,NaN,clock,bird,64-0-10,0227_eid_dnn_64-0-10_bird_10_n01824575_5820.png,n01824575_5820.png,0.0,0.09863144,0.6683093,-0.40282306
vit_b_16,1,228,NaN,oven,oven,4-0-10,0228_eid_dnn_4-0-10_oven_10_n04111531_4332.png,n04111531_4332.png,1.0,6.7039213,1.2304946,3.8702972
vit_b_16,1,229,NaN,truck,truck,2-0-10,0229_eid_dnn_2-0-10_truck_10_n04467665_41352.png,n04467665_41352.png,1.0,3.4708652,0.3403724,2.2135928
vit_b_16,1,230,NaN,bear,bird,8-0-10,0230_eid_dnn_8-0-10_bird_10_n01514859_5668.png,n01514859_5668.png,0.0,0.6404591,0.72234225,-0.05790012
vit_b_16,1,231,NaN,clock,oven,32-0-10,0231_eid_dnn_32-0-10_oven_10_n04111531_4438.png,n04111531_4438.png,0.0,-0.78711206,1.202079,-1.4065706
vit_b_16,1,232,NaN,cat,cat,1-0-10,0232_eid_dnn_1-0-10_cat_10_n02123394_6693.png,n02123394_6693.png,1.0,1.6806113,0.461015,0.8623848
vit_b_16,1,233,NaN,elephant,elephant,32-0-10,0233_eid_dnn_32-0-10_elephant_10_n02504458_6302.png,n02504458_6302.png,1.0,1.5344042,1.3974633,0.0968318
vit_b_16,1,234,NaN,dog,bottle,16-0-10,0234_eid_dnn_16-0-10_bottle_10_n03937543_2329.png,n03937543_2329.png,0.0,0.055302586,0.82525766,-0.5444405
vit_b_16,1,235,NaN,elephant,elephant,16-0-10,0235_eid_dnn_16-0-10_elephant_10_n02504458_5155.png,n02504458_5155.png,1.0,2.8797793,2.6120203,0.18933427
vit_b_16,1,236,NaN,cat,bear,1-0-10,0236_eid_dnn_1-0-10_bear_10_n02134084_1694.png,n02134084_1694.png,0.0,0.20034409,1.6134901,-0.99924517
vit_b_16,1,237,NaN,cat,bear,128-0-10,0237_eid_dnn_128-0-10_bear_10_n02133161_1624.png,n02133161_1624.png,0.0,0.93295634,1.1414562,-0.1474317
vit_b_16,1,238,NaN,cat,bear,64-0-10,0238_eid_dnn_64-0-10_bear_10_n02132136_11027.png,n02132136_11027.png,0.0,0.013978906,0.7878688,-0.5472228
vit_b_16,1,239,NaN,dog,elephant,64-0-10,0239_eid_dnn_64-0-10_elephant_10_n02504013_24621.png,n02504013_24621.png,0.0,0.19726384,1.199554,-0.70872617
vit_b_16,1,240,NaN,bear,knife,16-0-10,0240_eid_dnn_16-0-10_knife_10_n03041632_27134.png,n03041632_27134.png,0.0,-0.19958894,2.6688538,-2.0282953
vit_b_16,1,241,NaN,bear,keyboard,32-0-10,0241_eid_dnn_32-0-10_keyboard_10_n03085013_24316.png,n03085013_24316.png,0.0,-1.1551472,1.5984719,-1.9471028
vit_b_16,1,242,NaN,cat,cat,2-0-10,0242_eid_dnn_2-0-10_cat_10_n02123159_3026.png,n02123159_3026.png,1.0,1.6206211,0.17008272,1.0256855
vit_b_16,1,243,NaN,cat,bicycle,128-0-10,0243_eid_dnn_128-0-10_bicycle_10_n03792782_1475.png,n03792782_1475.png,0.0,-0.6442852,1.2705694,-1.3540068
vit_b_16,1,244,NaN,cat,cat,16-0-10,0244_eid_dnn_16-0-10_cat_10_n02123045_20507.png,n02123045_20507.png,1.0,2.5155249,1.6299978,0.6261622
vit_b_16,1,245,NaN,elephant,boat,64-0-10,0245_eid_dnn_64-0-10_boat_10_n02951358_23759.png,n02951358_23759.png,0.0,-1.3129808,0.6640099,-1.3979435
vit_b_16,1,246,NaN,bear,bear,16-0-10,0246_eid_dnn_16-0-10_bear_10_n02132136_1858.png,n02132136_1858.png,1.0,2.3217204,1.6569233,0.47008252
vit_b_16,1,247,NaN,cat,boat,128-0-10,0247_eid_dnn_128-0-10_boat_10_n02951358_6465.png,n02951358_6465.png,0.0,-1.032933,0.921554,-1.3820311
vit_b_16,1,248,NaN,elephant,airplane,128-0-10,0248_eid_dnn_128-0-10_airplane_10_n02690373_6223.png,n02690373_6223.png,0.0,-0.3791144,0.9717995,-0.95524037
vit_b_16,1,249,NaN,cat,boat,128-0-10,0249_eid_dnn_128-0-10_boat_10_n03344393_2412.png,n03344393_2412.png,0.0,-0.6132774,0.8884554,-1.0618855
vit_b_16,1,250,NaN,dog,knife,8-0-10,0250_eid_dnn_8-0-10_knife_10_n03041632_6446.png,n03041632_6446.png,0.0,0.51897377,1.3016798,-0.5534568
vit_b_16,1,251,NaN,dog,bottle,64-0-10,0251_eid_dnn_64-0-10_bottle_10_n04591713_7940.png,n04591713_7940.png,0.0,-0.16209166,1.0680519,-0.8698429
vit_b_16,1,252,NaN,cat,cat,4-0-10,0252_eid_dnn_4-0-10_cat_10_n02124075_13568.png,n02124075_13568.png,1.0,3.7445219,0.9121818,2.0027668
vit_b_16,1,253,NaN,boat,boat,2-0-10,0253_eid_dnn_2-0-10_boat_10_n03662601_2171.png,n03662601_2171.png,1.0,4.955808,0.16118295,3.3903122
vit_b_16,1,254,NaN,elephant,elephant,1-0-10,0254_eid_dnn_1-0-10_elephant_10_n02504458_415.png,n02504458_415.png,1.0,7.973793,0.37760863,5.3713136
vit_b_16,1,255,NaN,airplane,car,16-0-10,0255_eid_dnn_16-0-10_car_10_n03100240_3386.png,n03100240_3386.png,0.0,-0.65678656,1.4916935,-1.5192047
vit_b_16,1,256,NaN,knife,bird,16-0-10,0256_eid_dnn_16-0-10_bird_10_n02056570_6633.png,n02056570_6633.png,0.0,-1.1783987,1.6457261,-1.9969579
vit_b_16,1,257,NaN,elephant,bottle,32-0-10,0257_eid_dnn_32-0-10_bottle_10_n02823428_4232.png,n02823428_4232.png,0.0,-0.29962593,2.4674225,-1.9565986
vit_b_16,1,258,NaN,clock,boat,128-0-10,0258_eid_dnn_128-0-10_boat_10_n04273569_2396.png,n04273569_2396.png,0.0,-1.0523453,1.9781061,-2.1428528
vit_b_16,1,259,NaN,knife,knife,1-0-10,0259_eid_dnn_1-0-10_knife_10_n03041632_38996.png,n03041632_38996.png,1.0,6.9044023,1.9331725,3.5151901
vit_b_16,1,260,NaN,cat,oven,8-0-10,0260_eid_dnn_8-0-10_oven_10_n04111531_10420.png,n04111531_10420.png,0.0,0.017373445,1.3547853,-0.945693
vit_b_16,1,261,NaN,cat,dog,128-0-10,0261_eid_dnn_128-0-10_dog_10_n02094114_2394.png,n02094114_2394.png,0.0,0.32318637,1.3918358,-0.75564927
vit_b_16,1,262,NaN,clock,elephant,128-0-10,0262_eid_dnn_128-0-10_elephant_10_n02504013_4247.png,n02504013_4247.png,0.0,0.7503486,1.0863347,-0.23757803
vit_b_16,1,263,NaN,elephant,chair,32-0-10,0263_eid_dnn_32-0-10_chair_10_n03376595_8137.png,n03376595_8137.png,0.0,-0.70551336,1.2825812,-1.4057952
vit_b_16,1,264,NaN,keyboard,airplane,128-0-10,0264_eid_dnn_128-0-10_airplane_10_n02690373_8524.png,n02690373_8524.png,0.0,-0.2543953,3.2925892,-2.5080967
vit_b_16,1,265,NaN,clock,car,64-0-10,0265_eid_dnn_64-0-10_car_10_n03100240_18410.png,n03100240_18410.png,0.0,-1.2004682,0.81153494,-1.4227011
vit_b_16,1,266,NaN,cat,clock,64-0-10,0266_eid_dnn_64-0-10_clock_10_n04548280_2588.png,n04548280_2588.png,0.0,0.5727803,1.0134665,-0.3116122
vit_b_16,1,267,NaN,bottle,keyboard,32-0-10,0267_eid_dnn_32-0-10_keyboard_10_n03085013_24030.png,n03085013_24030.png,0.0,0.18467641,0.80994856,-0.4421342
vit_b_16,1,268,NaN,clock,clock,2-0-10,0268_eid_dnn_2-0-10_clock_10_n03196217_6375.png,n03196217_6375.png,1.0,4.7764893,0.6257964,2.9349833
vit_b_16,1,269,NaN,clock,airplane,32-0-10,0269_eid_dnn_32-0-10_airplane_10_n02690373_4150.png,n02690373_4150.png,0.0,0.64919746,1.3282202,-0.48014164
vit_b_16,1,270,NaN,cat,dog,4-0-10,0270_eid_dnn_4-0-10_dog_10_n02086646_6567.png,n02086646_6567.png,0.0,0.27515915,1.8776928,-1.1331625
vit_b_16,1,271,NaN,keyboard,clock,64-0-10,0271_eid_dnn_64-0-10_clock_10_n03196217_775.png,n03196217_775.png,0.0,0.51215154,3.0270762,-1.7783204
vit_b_16,1,272,NaN,car,car,1-0-10,0272_eid_dnn_1-0-10_car_10_n02814533_57353.png,n02814533_57353.png,1.0,3.2807093,1.1812198,1.4845632
vit_b_16,1,273,NaN,knife,bottle,16-0-10,0273_eid_dnn_16-0-10_bottle_10_n04560804_183.png,n04560804_183.png,0.0,0.30545467,1.2537155,-0.6705217
vit_b_16,1,274,NaN,car,car,2-0-10,0274_eid_dnn_2-0-10_car_10_n04285008_10631.png,n04285008_10631.png,1.0,4.9716153,0.461836,3.1888957
vit_b_16,1,275,NaN,bear,bear,2-0-10,0275_eid_dnn_2-0-10_bear_10_n02132136_10057.png,n02132136_10057.png,1.0,4.275465,0.27961445,2.825493
vit_b_16,1,276,NaN,keyboard,boat,128-0-10,0276_eid_dnn_128-0-10_boat_10_n04273569_4605.png,n04273569_4605.png,0.0,-0.8790884,2.1034422,-2.1089675
vit_b_16,1,277,NaN,bear,cat,64-0-10,0277_eid_dnn_64-0-10_cat_10_n02123597_12711.png,n02123597_12711.png,0.0,0.7080469,1.4192436,-0.502892
vit_b_16,1,278,NaN,bottle,bottle,1-0-10,0278_eid_dnn_1-0-10_bottle_10_n04560804_5610.png,n04560804_5610.png,1.0,2.308642,0.5661685,1.2321148
vit_b_16,1,279,NaN,cat,clock,32-0-10,0279_eid_dnn_32-0-10_clock_10_n04548280_8412.png,n04548280_8412.png,0.0,-0.30417547,2.095056,-1.6965128
vit_b_16,1,280,NaN,cat,cat,2-0-10,0280_eid_dnn_2-0-10_cat_10_n02123597_13834.png,n02123597_13834.png,1.0,4.489583,0.35385174,2.9244037
vit_b_16,1,281,NaN,elephant,dog,128-0-10,0281_eid_dnn_128-0-10_dog_10_n02091831_538.png,n02091831_538.png,0.0,-0.24838631,1.6114125,-1.3150764
vit_b_16,1,282,NaN,elephant,bicycle,32-0-10,0282_eid_dnn_32-0-10_bicycle_10_n03792782_10437.png,n03792782_10437.png,0.0,-0.2887019,0.8952024,-0.83714676
vit_b_16,1,283,NaN,bear,bear,2-0-10,0283_eid_dnn_2-0-10_bear_10_n02132136_2372.png,n02132136_2372.png,1.0,3.9071484,0.24370724,2.590444
vit_b_16,1,284,NaN,elephant,bicycle,128-0-10,0284_eid_dnn_128-0-10_bicycle_10_n03792782_4540.png,n03792782_4540.png,0.0,0.34785455,2.4109097,-1.4588002
vit_b_16,1,285,NaN,elephant,elephant,2-0-10,0285_eid_dnn_2-0-10_elephant_10_n02504013_10152.png,n02504013_10152.png,1.0,7.7896585,0.51123303,5.146624
vit_b_16,1,286,NaN,elephant,boat,64-0-10,0286_eid_dnn_64-0-10_boat_10_n02951358_7603.png,n02951358_7603.png,0.0,-1.0854607,1.639761,-1.9270227
vit_b_16,1,287,NaN,bear,bear,2-0-10,0287_eid_dnn_2-0-10_bear_10_n02133161_9371.png,n02133161_9371.png,1.0,5.583621,0.122481495,3.861609
vit_b_16,1,288,NaN,bicycle,truck,8-0-10,0288_eid_dnn_8-0-10_truck_10_n04467665_69892.png,n04467665_69892.png,0.0,-0.6108421,1.1996305,-1.2801975
vit_b_16,1,289,NaN,knife,knife,1-0-10,0289_eid_dnn_1-0-10_knife_10_n03041632_19275.png,n03041632_19275.png,1.0,3.8886774,0.7849153,2.1946914
vit_b_16,1,290,NaN,bear,keyboard,16-0-10,0290_eid_dnn_16-0-10_keyboard_10_n04505470_9446.png,n04505470_9446.png,0.0,-0.60224384,0.7631118,-0.9654523
vit_b_16,1,291,NaN,elephant,elephant,1-0-10,0291_eid_dnn_1-0-10_elephant_10_n02504013_9141.png,n02504013_9141.png,1.0,4.6761723,0.4073689,3.0185
vit_b_16,1,292,NaN,elephant,bird,128-0-10,0292_eid_dnn_128-0-10_bird_10_n02056570_8553.png,n02056570_8553.png,0.0,-0.4758751,1.4226526,-1.3424618
vit_b_16,1,293,NaN,car,car,1-0-10,0293_eid_dnn_1-0-10_car_10_n03100240_9171.png,n03100240_9171.png,1.0,6.0265326,1.2786638,3.3572505
vit_b_16,1,294,NaN,dog,dog,8-0-10,0294_eid_dnn_8-0-10_dog_10_n02102177_1533.png,n02102177_1533.png,1.0,0.8202646,0.39427584,0.30121952
vit_b_16,1,295,NaN,elephant,cat,64-0-10,0295_eid_dnn_64-0-10_cat_10_n02124075_12464.png,n02124075_12464.png,0.0,0.26817873,0.76284516,-0.349782
vit_b_16,1,296,NaN,chair,chair,4-0-10,0296_eid_dnn_4-0-10_chair_10_n04429376_33792.png,n04429376_33792.png,1.0,3.9823709,1.6422278,1.6547312
vit_b_16,1,297,NaN,dog,bear,128-0-10,0297_eid_dnn_128-0-10_bear_10_n02133161_3258.png,n02133161_3258.png,0.0,0.59083015,0.7585128,-0.11856954
vit_b_16,1,298,NaN,dog,dog,4-0-10,0298_eid_dnn_4-0-10_dog_10_n02097130_1442.png,n02097130_1442.png,1.0,1.4239388,1.3895555,0.024312662
vit_b_16,1,299,NaN,chair,chair,4-0-10,0299_eid_dnn_4-0-10_chair_10_n02791124_8970.png,n02791124_8970.png,1.0,3.3911524,1.4895324,1.3446485
vit_b_16,1,300,NaN,elephant,car,8-0-10,0300_eid_dnn_8-0-10_car_10_n04285008_8545.png,n04285008_8545.png,0.0,-0.11579153,2.365943,-1.7548513
vit_b_16,1,301,NaN,truck,truck,1-0-10,0301_eid_dnn_1-0-10_truck_10_n03417042_2204.png,n03417042_2204.png,1.0,3.8805737,0.048120145,2.7099538
vit_b_16,1,302,NaN,bear,bear,2-0-10,0302_eid_dnn_2-0-10_bear_10_n02133161_15593.png,n02133161_15593.png,1.0,4.768198,0.42976588,3.067735
vit_b_16,1,303,NaN,clock,clock,2-0-10,0303_eid_dnn_2-0-10_clock_10_n04548280_5845.png,n04548280_5845.png,1.0,6.61025,0.5339167,4.2966166
vit_b_16,1,304,NaN,knife,knife,4-0-10,0304_eid_dnn_4-0-10_knife_10_n03041632_4975.png,n03041632_4975.png,1.0,2.676116,0.6313875,1.4458414
vit_b_16,1,305,NaN,elephant,clock,32-0-10,0305_eid_dnn_32-0-10_clock_10_n03196217_4849.png,n03196217_4849.png,0.0,0.6983358,0.9005774,-0.14300641
vit_b_16,1,306,NaN,bicycle,bicycle,2-0-10,0306_eid_dnn_2-0-10_bicycle_10_n03792782_15752.png,n03792782_15752.png,1.0,4.74619,1.3600057,2.394394
vit_b_16,1,307,NaN,bear,bicycle,16-0-10,0307_eid_dnn_16-0-10_bicycle_10_n02835271_29741.png,n02835271_29741.png,0.0,0.25509086,2.11304,-1.3137685
vit_b_16,1,308,NaN,bottle,chair,4-0-10,0308_eid_dnn_4-0-10_chair_10_n04099969_16619.png,n04099969_16619.png,0.0,0.7296919,1.8126986,-0.7658013
vit_b_16,1,309,NaN,keyboard,keyboard,4-0-10,0309_eid_dnn_4-0-10_keyboard_10_n04505470_4552.png,n04505470_4552.png,1.0,6.238104,0.30871704,4.1927094
vit_b_16,1,310,NaN,cat,boat,8-0-10,0310_eid_dnn_8-0-10_boat_10_n02951358_13144.png,n02951358_13144.png,0.0,-0.17496878,2.9912512,-2.2388556
vit_b_16,1,311,NaN,cat,bird,32-0-10,0311_eid_dnn_32-0-10_bird_10_n01797886_14611.png,n01797886_14611.png,0.0,0.16286553,1.4470025,-0.908022
vit_b_16,1,312,NaN,knife,knife,1-0-10,0312_eid_dnn_1-0-10_knife_10_n03041632_3326.png,n03041632_3326.png,1.0,2.9773612,0.6268429,1.6620674
vit_b_16,1,313,NaN,elephant,elephant,8-0-10,0313_eid_dnn_8-0-10_elephant_10_n02504013_5829.png,n02504013_5829.png,1.0,3.1477184,3.1435003,0.0029826483
vit_b_16,1,314,NaN,oven,dog,16-0-10,0314_eid_dnn_16-0-10_dog_10_n02088094_2292.png,n02088094_2292.png,0.0,0.5953591,2.4813273,-1.333581
vit_b_16,1,315,NaN,dog,oven,8-0-10,0315_eid_dnn_8-0-10_oven_10_n04111531_4944.png,n04111531_4944.png,0.0,-0.40600756,1.6381963,-1.4454706
vit_b_16,1,316,NaN,dog,oven,32-0-10,0316_eid_dnn_32-0-10_oven_10_n04111531_669.png,n04111531_669.png,0.0,-0.5315984,0.82127184,-0.95662373
vit_b_16,1,317,NaN,clock,car,64-0-10,0317_eid_dnn_64-0-10_car_10_n02814533_6716.png,n02814533_6716.png,0.0,-0.9045885,1.0644869,-1.3923466
vit_b_16,1,318,NaN,bear,bear,32-0-10,0318_eid_dnn_32-0-10_bear_10_n02132136_26438.png,n02132136_26438.png,1.0,1.1991765,1.1991122,4.55186e-05
vit_b_16,1,319,NaN,bottle,bottle,4-0-10,0319_eid_dnn_4-0-10_bottle_10_n03983396_3027.png,n03983396_3027.png,1.0,0.8352771,0.81448483,0.014702339
vit_b_16,1,320,NaN,elephant,elephant,2-0-10,0320_eid_dnn_2-0-10_elephant_10_n02504013_9299.png,n02504013_9299.png,1.0,7.095152,0.36540678,4.7586484
vit_b_16,1,321,NaN,knife,knife,2-0-10,0321_eid_dnn_2-0-10_knife_10_n03041632_13846.png,n03041632_13846.png,1.0,6.202289,1.2688097,3.4884968
vit_b_16,1,322,NaN,clock,airplane,64-0-10,0322_eid_dnn_64-0-10_airplane_10_n02690373_16250.png,n02690373_16250.png,0.0,0.014519855,1.8681875,-1.3107411
vit_b_16,1,323,NaN,cat,boat,64-0-10,0323_eid_dnn_64-0-10_boat_10_n03662601_13696.png,n03662601_13696.png,0.0,-1.1418984,0.73978186,-1.3305489
vit_b_16,1,324,NaN,cat,cat,1-0-10,0324_eid_dnn_1-0-10_cat_10_n02123597_5692.png,n02123597_5692.png,1.0,3.6871212,0.2649121,2.4198673
vit_b_16,1,325,NaN,dog,clock,8-0-10,0325_eid_dnn_8-0-10_clock_10_n02708093_3171.png,n02708093_3171.png,0.0,0.28198275,0.93052006,-0.4585851
vit_b_16,1,326,NaN,elephant,keyboard,128-0-10,0326_eid_dnn_128-0-10_keyboard_10_n04505470_4902.png,n04505470_4902.png,0.0,-0.46893835,1.7764679,-1.587742
vit_b_16,1,327,NaN,cat,dog,2-0-10,0327_eid_dnn_2-0-10_dog_10_n02113624_1170.png,n02113624_1170.png,0.0,1.1658502,2.1210606,-0.6754358
vit_b_16,1,328,NaN,clock,clock,2-0-10,0328_eid_dnn_2-0-10_clock_10_n03196217_1272.png,n03196217_1272.png,1.0,3.4742038,2.5731568,0.63713646
vit_b_16,1,329,NaN,cat,cat,128-0-10,0329_eid_dnn_128-0-10_cat_10_n02123394_8946.png,n02123394_8946.png,1.0,1.4073242,0.6774359,0.516109
vit_b_16,1,330,NaN,bear,car,8-0-10,0330_eid_dnn_8-0-10_car_10_n03100240_7134.png,n03100240_7134.png,0.0,-1.3589797,1.3724809,-1.9314343
vit_b_16,1,331,NaN,bicycle,bicycle,4-0-10,0331_eid_dnn_4-0-10_bicycle_10_n03792782_16034.png,n03792782_16034.png,1.0,5.201355,1.6736981,2.4944303
vit_b_16,1,332,NaN,dog,dog,8-0-10,0332_eid_dnn_8-0-10_dog_10_n02104029_5465.png,n02104029_5465.png,1.0,1.1768535,1.0211934,0.11006835
vit_b_16,1,333,NaN,keyboard,keyboard,4-0-10,0333_eid_dnn_4-0-10_keyboard_10_n04505470_5011.png,n04505470_5011.png,1.0,5.170927,3.3282707,1.3029548
vit_b_16,1,334,NaN,airplane,bird,8-0-10,0334_eid_dnn_8-0-10_bird_10_n02009912_27132.png,n02009912_27132.png,0.0,-0.44397023,1.4437437,-1.3348154
vit_b_16,1,335,NaN,dog,knife,64-0-10,0335_eid_dnn_64-0-10_knife_10_n03041632_3171.png,n03041632_3171.png,0.0,0.5622504,0.7837822,-0.15664665
vit_b_16,1,336,NaN,bear,bear,32-0-10,0336_eid_dnn_32-0-10_bear_10_n02134084_21170.png,n02134084_21170.png,1.0,0.95008165,0.6853167,0.1872171
vit_b_16,1,337,NaN,bear,dog,4-0-10,0337_eid_dnn_4-0-10_dog_10_n02086079_29044.png,n02086079_29044.png,0.0,-0.015319236,0.33498308,-0.24770114
vit_b_16,1,338,NaN,cat,cat,4-0-10,0338_eid_dnn_4-0-10_cat_10_n02124075_8465.png,n02124075_8465.png,1.0,5.643372,0.38313538,3.7195492
vit_b_16,1,339,NaN,clock,bird,128-0-10,0339_eid_dnn_128-0-10_bird_10_n01855032_982.png,n01855032_982.png,0.0,-0.9824185,2.4678843,-2.4397326
vit_b_16,1,340,NaN,elephant,truck,32-0-10,0340_eid_dnn_32-0-10_truck_10_n03417042_6373.png,n03417042_6373.png,0.0,-1.4550409,1.4898262,-2.0823355
vit_b_16,1,341,NaN,dog,airplane,16-0-10,0341_eid_dnn_16-0-10_airplane_10_n02690373_9959.png,n02690373_9959.png,0.0,-0.06529936,1.2915618,-0.9594458
vit_b_16,1,342,NaN,dog,clock,32-0-10,0342_eid_dnn_32-0-10_clock_10_n04548280_2260.png,n04548280_2260.png,0.0,0.7325754,0.7995621,-0.04736674
vit_b_16,1,343,NaN,airplane,bottle,16-0-10,0343_eid_dnn_16-0-10_bottle_10_n03983396_5281.png,n03983396_5281.png,0.0,0.45064753,0.72009647,-0.19052917
vit_b_16,1,344,NaN,cat,cat,4-0-10,0344_eid_dnn_4-0-10_cat_10_n02123159_1113.png,n02123159_1113.png,1.0,5.243189,1.2406048,2.8302543
vit_b_16,1,345,NaN,elephant,keyboard,64-0-10,0345_eid_dnn_64-0-10_keyboard_10_n03085013_20460.png,n03085013_20460.png,0.0,-0.495623,1.0236906,-1.074317
vit_b_16,1,346,NaN,dog,clock,8-0-10,0346_eid_dnn_8-0-10_clock_10_n03196217_884.png,n03196217_884.png,0.0,-0.61433065,1.4662594,-1.4711993
vit_b_16,1,347,NaN,bear,clock,8-0-10,0347_eid_dnn_8-0-10_clock_10_n03196217_6257.png,n03196217_6257.png,0.0,-0.61633825,1.7765863,-1.6920532
vit_b_16,1,348,NaN,elephant,dog,32-0-10,0348_eid_dnn_32-0-10_dog_10_n02113624_2109.png,n02113624_2109.png,0.0,1.4006217,1.9325655,-0.37614107
vit_b_16,1,349,NaN,keyboard,keyboard,1-0-10,0349_eid_dnn_1-0-10_keyboard_10_n03085013_20416.png,n03085013_20416.png,1.0,6.2733536,0.40043163,4.152783
vit_b_16,1,350,NaN,bird,bird,2-0-10,0350_eid_dnn_2-0-10_bird_10_n01820546_4609.png,n01820546_4609.png,1.0,1.3396597,0.4362468,0.6388094
vit_b_16,1,351,NaN,elephant,cat,64-0-10,0351_eid_dnn_64-0-10_cat_10_n02125311_47792.png,n02125311_47792.png,0.0,0.60086226,1.7369704,-0.8033498
vit_b_16,1,352,NaN,airplane,boat,16-0-10,0352_eid_dnn_16-0-10_boat_10_n04612504_1491.png,n04612504_1491.png,0.0,0.4918433,2.2159576,-1.2191329
vit_b_16,1,353,NaN,bear,truck,16-0-10,0353_eid_dnn_16-0-10_truck_10_n03417042_910.png,n03417042_910.png,0.0,-1.4231098,1.0388377,-1.7408597
vit_b_16,1,354,NaN,clock,airplane,64-0-10,0354_eid_dnn_64-0-10_airplane_10_n02690373_2038.png,n02690373_2038.png,0.0,-0.034543574,1.0430349,-0.7619631
vit_b_16,1,355,NaN,cat,cat,2-0-10,0355_eid_dnn_2-0-10_cat_10_n02123394_8164.png,n02123394_8164.png,1.0,2.663989,0.31936383,1.6579005
vit_b_16,1,356,NaN,oven,oven,2-0-10,0356_eid_dnn_2-0-10_oven_10_n04111531_22097.png,n04111531_22097.png,1.0,9.516602,1.6741427,5.545456
vit_b_16,1,357,NaN,clock,bear,128-0-10,0357_eid_dnn_128-0-10_bear_10_n02134418_278.png,n02134418_278.png,0.0,0.12591329,1.1419505,-0.71844685
vit_b_16,1,358,NaN,airplane,bird,4-0-10,0358_eid_dnn_4-0-10_bird_10_n01592084_9109.png,n01592084_9109.png,0.0,0.7397448,1.0821406,-0.24211039
vit_b_16,1,359,NaN,clock,clock,32-0-10,0359_eid_dnn_32-0-10_clock_10_n03196217_3695.png,n03196217_3695.png,1.0,1.5789362,0.73384184,0.59757197
vit_b_16,1,360,NaN,cat,elephant,128-0-10,0360_eid_dnn_128-0-10_elephant_10_n02504458_8939.png,n02504458_8939.png,0.0,0.0011540055,1.3542309,-0.9567699
vit_b_16,1,361,NaN,elephant,elephant,2-0-10,0361_eid_dnn_2-0-10_elephant_10_n02504013_7926.png,n02504013_7926.png,1.0,7.794785,2.1186168,4.013657
vit_b_16,1,362,NaN,bear,bear,4-0-10,0362_eid_dnn_4-0-10_bear_10_n02133161_11816.png,n02133161_11816.png,1.0,4.812145,2.759704,1.451295
vit_b_16,1,363,NaN,boat,bird,2-0-10,0363_eid_dnn_2-0-10_bird_10_n02056570_18300.png,n02056570_18300.png,0.0,0.14579555,0.29915935,-0.10844458
vit_b_16,1,364,NaN,bicycle,chair,2-0-10,0364_eid_dnn_2-0-10_chair_10_n02791124_7063.png,n02791124_7063.png,0.0,0.37085104,1.2791139,-0.64223886
vit_b_16,1,365,NaN,cat,chair,8-0-10,0365_eid_dnn_8-0-10_chair_10_n03376595_8289.png,n03376595_8289.png,0.0,-0.9681922,0.9804389,-1.3778902
vit_b_16,1,366,NaN,airplane,airplane,4-0-10,0366_eid_dnn_4-0-10_airplane_10_n02690373_4434.png,n02690373_4434.png,1.0,8.565304,1.0902116,5.2856884
vit_b_16,1,367,NaN,truck,truck,1-0-10,0367_eid_dnn_1-0-10_truck_10_n03417042_8953.png,n03417042_8953.png,1.0,3.5898542,0.93154573,1.879708
vit_b_16,1,368,NaN,dog,bear,64-0-10,0368_eid_dnn_64-0-10_bear_10_n02132136_699.png,n02132136_699.png,0.0,1.0857065,1.1091049,-0.016545167
vit_b_16,1,369,NaN,airplane,knife,8-0-10,0369_eid_dnn_8-0-10_knife_10_n03041632_20517.png,n03041632_20517.png,0.0,-0.1475551,1.6265454,-1.2544786
vit_b_16,1,370,NaN,clock,bottle,32-0-10,0370_eid_dnn_32-0-10_bottle_10_n03983396_1910.png,n03983396_1910.png,0.0,0.24740553,0.75578403,-0.3594779
vit_b_16,1,371,NaN,oven,oven,8-0-10,0371_eid_dnn_8-0-10_oven_10_n04111531_16198.png,n04111531_16198.png,1.0,2.982953,0.9667061,1.425702
vit_b_16,1,372,NaN,bear,elephant,64-0-10,0372_eid_dnn_64-0-10_elephant_10_n02504013_13427.png,n02504013_13427.png,0.0,0.36410916,1.4444051,-0.7638846
vit_b_16,1,373,NaN,airplane,airplane,16-0-10,0373_eid_dnn_16-0-10_airplane_10_n02690373_1075.png,n02690373_1075.png,1.0,1.5183071,1.0159831,0.3551967
vit_b_16,1,374,NaN,cat,car,64-0-10,0374_eid_dnn_64-0-10_car_10_n03100240_5527.png,n03100240_5527.png,0.0,-0.902189,1.7955308,-1.907576
vit_b_16,1,375,NaN,bear,bear,1-0-10,0375_eid_dnn_1-0-10_bear_10_n02132136_4632.png,n02132136_4632.png,1.0,5.993284,0.15417118,4.1288767
vit_b_16,1,376,NaN,boat,boat,1-0-10,0376_eid_dnn_1-0-10_boat_10_n04273569_6158.png,n04273569_6158.png,1.0,3.0831819,0.52008975,1.81238
vit_b_16,1,377,NaN,dog,knife,32-0-10,0377_eid_dnn_32-0-10_knife_10_n03041632_18141.png,n03041632_18141.png,0.0,-0.66192627,0.9512184,-1.1406655
vit_b_16,1,378,NaN,bear,bear,16-0-10,0378_eid_dnn_16-0-10_bear_10_n02132136_6378.png,n02132136_6378.png,1.0,1.8064418,1.3727129,0.3066927
vit_b_16,1,379,NaN,elephant,elephant,2-0-10,0379_eid_dnn_2-0-10_elephant_10_n02504458_5095.png,n02504458_5095.png,1.0,7.128277,0.4209136,4.742822
vit_b_16,1,380,NaN,elephant,elephant,4-0-10,0380_eid_dnn_4-0-10_elephant_10_n02504013_10582.png,n02504013_10582.png,1.0,7.0758314,0.5084212,4.6438603
vit_b_16,1,381,NaN,dog,chair,16-0-10,0381_eid_dnn_16-0-10_chair_10_n04099969_28139.png,n04099969_28139.png,0.0,-0.91155535,0.87113833,-1.2605548
vit_b_16,1,382,NaN,keyboard,keyboard,2-0-10,0382_eid_dnn_2-0-10_keyboard_10_n04505470_279.png,n04505470_279.png,1.0,4.9002705,0.3807123,3.19581
vit_b_16,1,383,NaN,bear,car,8-0-10,0383_eid_dnn_8-0-10_car_10_n02814533_79696.png,n02814533_79696.png,0.0,-0.66586155,1.1789594,-1.3044854
vit_b_16,1,384,NaN,bear,cat,64-0-10,0384_eid_dnn_64-0-10_cat_10_n02124075_7984.png,n02124075_7984.png,0.0,0.7714265,1.2910993,-0.36746418
vit_b_16,1,385,NaN,car,car,4-0-10,0385_eid_dnn_4-0-10_car_10_n02814533_27327.png,n02814533_27327.png,1.0,4.39923,1.9159825,1.7559212
vit_b_16,1,386,NaN,bear,bear,4-0-10,0386_eid_dnn_4-0-10_bear_10_n02134084_967.png,n02134084_967.png,1.0,2.8419127,0.3535577,1.7595328
vit_b_16,1,387,NaN,dog,bear,64-0-10,0387_eid_dnn_64-0-10_bear_10_n02132136_949.png,n02132136_949.png,0.0,0.5803001,0.9497006,-0.2612056
vit_b_16,1,388,NaN,cat,bicycle,16-0-10,0388_eid_dnn_16-0-10_bicycle_10_n03792782_2905.png,n03792782_2905.png,0.0,-0.12095335,1.5819669,-1.2041464
vit_b_16,1,389,NaN,oven,bicycle,8-0-10,0389_eid_dnn_8-0-10_bicycle_10_n03792782_34550.png,n03792782_34550.png,0.0,-0.35233963,1.2304958,-1.1192337
vit_b_16,1,390,NaN,bear,bear,16-0-10,0390_eid_dnn_16-0-10_bear_10_n02132136_9055.png,n02132136_9055.png,1.0,3.3000379,3.0708945,0.16202883
vit_b_16,1,391,NaN,elephant,bear,64-0-10,0391_eid_dnn_64-0-10_bear_10_n02134084_7904.png,n02134084_7904.png,0.0,0.8190827,1.6840508,-0.61162484
vit_b_16,1,392,NaN,clock,clock,4-0-10,0392_eid_dnn_4-0-10_clock_10_n04548280_4526.png,n04548280_4526.png,1.0,3.2282438,1.2160885,1.4228086
vit_b_16,1,393,NaN,bottle,bottle,1-0-10,0393_eid_dnn_1-0-10_bottle_10_n02823428_685.png,n02823428_685.png,1.0,2.3518693,1.00173,0.9546927
vit_b_16,1,394,NaN,dog,keyboard,64-0-10,0394_eid_dnn_64-0-10_keyboard_10_n04505470_3935.png,n04505470_3935.png,0.0,-0.7283777,1.0558865,-1.2616653
vit_b_16,1,395,NaN,dog,dog,64-0-10,0395_eid_dnn_64-0-10_dog_10_n02096051_3825.png,n02096051_3825.png,1.0,1.1173733,0.58904237,0.37358642
vit_b_16,1,396,NaN,dog,dog,2-0-10,0396_eid_dnn_2-0-10_dog_10_n02089078_10601.png,n02089078_10601.png,1.0,0.81399286,0.3639965,0.3181955
vit_b_16,1,397,NaN,clock,clock,2-0-10,0397_eid_dnn_2-0-10_clock_10_n02708093_5236.png,n02708093_5236.png,1.0,5.471211,0.36137894,3.6131968
vit_b_16,1,398,NaN,cat,cat,2-0-10,0398_eid_dnn_2-0-10_cat_10_n02123159_2682.png,n02123159_2682.png,1.0,4.2817492,0.13107711,2.9349682
vit_b_16,1,399,NaN,oven,oven,1-0-10,0399_eid_dnn_1-0-10_oven_10_n04111531_10216.png,n04111531_10216.png,1.0,3.813264,2.6050348,0.854347
vit_b_16,1,400,NaN,boat,boat,2-0-10,0400_eid_dnn_2-0-10_boat_10_n02951358_7137.png,n02951358_7137.png,1.0,2.3988671,2.0221362,0.26638898
vit_b_16,1,401,NaN,bottle,bird,64-0-10,0401_eid_dnn_64-0-10_bird_10_n02007558_6127.png,n02007558_6127.png,0.0,-0.18504462,0.9382609,-0.794297
vit_b_16,1,402,NaN,dog,dog,16-0-10,0402_eid_dnn_16-0-10_dog_10_n02096051_4804.png,n02096051_4804.png,1.0,1.4202063,0.91824543,0.35493994
vit_b_16,1,403,NaN,bottle,bottle,8-0-10,0403_eid_dnn_8-0-10_bottle_10_n03983396_13764.png,n03983396_13764.png,1.0,3.7754223,1.4450108,1.6478498
vit_b_16,1,404,NaN,bottle,knife,32-0-10,0404_eid_dnn_32-0-10_knife_10_n03041632_105081.png,n03041632_105081.png,0.0,0.1387131,1.2869445,-0.8119222
vit_b_16,1,405,NaN,airplane,boat,8-0-10,0405_eid_dnn_8-0-10_boat_10_n03344393_3535.png,n03344393_3535.png,0.0,1.3938086,1.4284486,-0.024494147
vit_b_16,1,406,NaN,dog,keyboard,64-0-10,0406_eid_dnn_64-0-10_keyboard_10_n03085013_22929.png,n03085013_22929.png,0.0,-0.18946163,1.0799779,-0.89762926
vit_b_16,1,407,NaN,bottle,bottle,1-0-10,0407_eid_dnn_1-0-10_bottle_10_n04579145_5979.png,n04579145_5979.png,1.0,1.7466829,0.5106153,0.8740317
vit_b_16,1,408,NaN,knife,knife,2-0-10,0408_eid_dnn_2-0-10_knife_10_n03041632_31301.png,n03041632_31301.png,1.0,8.673991,1.0908256,5.3621078
vit_b_16,1,409,NaN,elephant,car,128-0-10,0409_eid_dnn_128-0-10_car_10_n04285008_14653.png,n04285008_14653.png,0.0,-1.2318234,0.6132272,-1.3046478
vit_b_16,1,410,NaN,knife,clock,16-0-10,0410_eid_dnn_16-0-10_clock_10_n03196217_1601.png,n03196217_1601.png,0.0,-0.5727915,1.7073706,-1.6123182
vit_b_16,1,411,NaN,knife,bicycle,8-0-10,0411_eid_dnn_8-0-10_bicycle_10_n02835271_25268.png,n02835271_25268.png,0.0,-0.18424147,1.3689324,-1.0982597
vit_b_16,1,412,NaN,bear,bird,16-0-10,0412_eid_dnn_16-0-10_bird_10_n02037110_875.png,n02037110_875.png,0.0,0.2976139,3.5110242,-2.2722244
vit_b_16,1,413,NaN,clock,airplane,128-0-10,0413_eid_dnn_128-0-10_airplane_10_n02690373_6807.png,n02690373_6807.png,0.0,-0.1343572,0.9080866,-0.7371191
vit_b_16,1,414,NaN,bottle,clock,16-0-10,0414_eid_dnn_16-0-10_clock_10_n04548280_10066.png,n04548280_10066.png,0.0,1.2326206,1.4592911,-0.16028026
vit_b_16,1,415,NaN,elephant,boat,64-0-10,0415_eid_dnn_64-0-10_boat_10_n02951358_15252.png,n02951358_15252.png,0.0,-1.1479939,1.7401423,-2.0422208
vit_b_16,1,416,NaN,cat,car,64-0-10,0416_eid_dnn_64-0-10_car_10_n02814533_4803.png,n02814533_4803.png,0.0,-1.129086,1.2871478,-1.7085353
vit_b_16,1,417,NaN,airplane,car,16-0-10,0417_eid_dnn_16-0-10_car_10_n03100240_24544.png,n03100240_24544.png,0.0,-0.3581085,2.1418343,-1.7677265
vit_b_16,1,418,NaN,clock,bear,128-0-10,0418_eid_dnn_128-0-10_bear_10_n02132136_4219.png,n02132136_4219.png,0.0,0.46815577,1.0708827,-0.4261923
vit_b_16,1,419,NaN,bear,bicycle,32-0-10,0419_eid_dnn_32-0-10_bicycle_10_n02835271_507.png,n02835271_507.png,0.0,-0.32371795,1.5533963,-1.3273202
vit_b_16,1,420,NaN,boat,boat,1-0-10,0420_eid_dnn_1-0-10_boat_10_n04273569_13290.png,n04273569_13290.png,1.0,2.2897935,0.13801,1.5215408
vit_b_16,1,421,NaN,bicycle,bicycle,2-0-10,0421_eid_dnn_2-0-10_bicycle_10_n03792782_42626.png,n03792782_42626.png,1.0,5.029562,0.39838275,3.2747383
vit_b_16,1,422,NaN,dog,dog,8-0-10,0422_eid_dnn_8-0-10_dog_10_n02106382_3856.png,n02106382_3856.png,1.0,1.6394695,0.80126613,0.5926993
vit_b_16,1,423,NaN,clock,clock,1-0-10,0423_eid_dnn_1-0-10_clock_10_n02708093_274.png,n02708093_274.png,1.0,6.231878,2.2390974,2.8233223
vit_b_16,1,424,NaN,cat,bottle,32-0-10,0424_eid_dnn_32-0-10_bottle_10_n04591713_5921.png,n04591713_5921.png,0.0,-0.59174687,1.3766924,-1.3918968
vit_b_16,1,425,NaN,elephant,elephant,1-0-10,0425_eid_dnn_1-0-10_elephant_10_n02504458_3851.png,n02504458_3851.png,1.0,7.4158287,0.2067539,5.0975857
vit_b_16,1,426,NaN,cat,dog,32-0-10,0426_eid_dnn_32-0-10_dog_10_n02105855_995.png,n02105855_995.png,0.0,0.8133205,1.952103,-0.80524087
vit_b_16,1,427,NaN,airplane,airplane,2-0-10,0427_eid_dnn_2-0-10_airplane_10_n02690373_1979.png,n02690373_1979.png,1.0,4.4954615,1.1554575,2.3617394
vit_b_16,1,428,NaN,airplane,airplane,1-0-10,0428_eid_dnn_1-0-10_airplane_10_n02690373_6455.png,n02690373_6455.png,1.0,8.964731,0.38833937,6.064425
vit_b_16,1,429,NaN,oven,oven,1-0-10,0429_eid_dnn_1-0-10_oven_10_n04111531_18979.png,n04111531_18979.png,1.0,8.772021,1.3849648,5.223438
vit_b_16,1,430,NaN,elephant,oven,32-0-10,0430_eid_dnn_32-0-10_oven_10_n04111531_16795.png,n04111531_16795.png,0.0,-0.67067116,1.567963,-1.5829533
vit_b_16,1,431,NaN,truck,truck,4-0-10,0431_eid_dnn_4-0-10_truck_10_n04467665_41076.png,n04467665_41076.png,1.0,3.3360846,0.3225528,2.1308887
vit_b_16,1,432,NaN,knife,bird,16-0-10,0432_eid_dnn_16-0-10_bird_10_n01534433_31697.png,n01534433_31697.png,0.0,0.13992369,1.0502378,-0.6436893
vit_b_16,1,433,NaN,elephant,keyboard,128-0-10,0433_eid_dnn_128-0-10_keyboard_10_n04505470_4289.png,n04505470_4289.png,0.0,0.055217206,0.87057364,-0.57654405
vit_b_16,1,434,NaN,keyboard,keyboard,4-0-10,0434_eid_dnn_4-0-10_keyboard_10_n03085013_20727.png,n03085013_20727.png,1.0,7.9070034,0.56652623,5.190501
vit_b_16,1,435,NaN,boat,boat,8-0-10,0435_eid_dnn_8-0-10_boat_10_n04273569_7315.png,n04273569_7315.png,1.0,4.0587096,1.9243655,1.5092092
vit_b_16,1,436,NaN,car,car,1-0-10,0436_eid_dnn_1-0-10_car_10_n03100240_16646.png,n03100240_16646.png,1.0,6.7424035,1.8752971,3.441564
vit_b_16,1,437,NaN,cat,car,16-0-10,0437_eid_dnn_16-0-10_car_10_n03100240_5281.png,n03100240_5281.png,0.0,-0.9780008,0.9304554,-1.3494823
vit_b_16,1,438,NaN,clock,airplane,128-0-10,0438_eid_dnn_128-0-10_airplane_10_n02690373_1670.png,n02690373_1670.png,0.0,-0.56661624,1.76275,-1.6471107
vit_b_16,1,439,NaN,elephant,airplane,128-0-10,0439_eid_dnn_128-0-10_airplane_10_n02690373_9293.png,n02690373_9293.png,0.0,-0.6333388,1.4483328,-1.4719642
vit_b_16,1,440,NaN,clock,truck,128-0-10,0440_eid_dnn_128-0-10_truck_10_n03796401_15846.png,n03796401_15846.png,0.0,-0.8718337,0.9637541,-1.2979566
vit_b_16,1,441,NaN,bear,truck,32-0-10,0441_eid_dnn_32-0-10_truck_10_n03796401_6971.png,n03796401_6971.png,0.0,-1.5091889,0.9379628,-1.7303976
vit_b_16,1,442,NaN,elephant,oven,128-0-10,0442_eid_dnn_128-0-10_oven_10_n04111531_10724.png,n04111531_10724.png,0.0,-0.05402848,1.4998944,-1.0987895
vit_b_16,1,443,NaN,cat,keyboard,8-0-10,0443_eid_dnn_8-0-10_keyboard_10_n03085013_22187.png,n03085013_22187.png,0.0,-0.6197932,3.2636874,-2.7460356
vit_b_16,1,444,NaN,dog,oven,8-0-10,0444_eid_dnn_8-0-10_oven_10_n04111531_4671.png,n04111531_4671.png,0.0,-0.34241685,0.92752707,-0.897986
vit_b_16,1,445,NaN,airplane,airplane,4-0-10,0445_eid_dnn_4-0-10_airplane_10_n02690373_5142.png,n02690373_5142.png,1.0,9.574107,0.20847209,6.622504
vit_b_16,1,446,NaN,elephant,elephant,4-0-10,0446_eid_dnn_4-0-10_elephant_10_n02504013_8562.png,n02504013_8562.png,1.0,7.3685036,0.42382464,4.9106297
vit_b_16,1,447,NaN,truck,truck,1-0-10,0447_eid_dnn_1-0-10_truck_10_n03417042_9668.png,n03417042_9668.png,1.0,4.544447,0.43619397,2.9049735
vit_b_16,1,448,NaN,dog,bottle,8-0-10,0448_eid_dnn_8-0-10_bottle_10_n03983396_10330.png,n03983396_10330.png,0.0,1.1080195,1.3329008,-0.15901509
vit_b_16,1,449,NaN,cat,elephant,128-0-10,0449_eid_dnn_128-0-10_elephant_10_n02504458_4395.png,n02504458_4395.png,0.0,0.23046903,0.7798808,-0.3884928
vit_b_16,1,450,NaN,cat,boat,64-0-10,0450_eid_dnn_64-0-10_boat_10_n03344393_4562.png,n03344393_4562.png,0.0,-1.3393408,1.3512126,-1.9025086
vit_b_16,1,451,NaN,oven,oven,2-0-10,0451_eid_dnn_2-0-10_oven_10_n04111531_10011.png,n04111531_10011.png,1.0,10.003623,1.1809074,6.238602
vit_b_16,1,452,NaN,cat,oven,64-0-10,0452_eid_dnn_64-0-10_oven_10_n04111531_13797.png,n04111531_13797.png,0.0,-1.2689005,1.2124943,-1.7546111
vit_b_16,1,453,NaN,airplane,boat,2-0-10,0453_eid_dnn_2-0-10_boat_10_n03662601_840.png,n03662601_840.png,0.0,2.8024683,3.145188,-0.24233949
vit_b_16,1,454,NaN,bear,truck,16-0-10,0454_eid_dnn_16-0-10_truck_10_n03417042_17037.png,n03417042_17037.png,0.0,-1.1021361,1.9173825,-2.135122
vit_b_16,1,455,NaN,cat,cat,64-0-10,0455_eid_dnn_64-0-10_cat_10_n02125311_2576.png,n02125311_2576.png,1.0,1.6001492,1.2022804,0.2813357
vit_b_16,1,456,NaN,clock,keyboard,32-0-10,0456_eid_dnn_32-0-10_keyboard_10_n03085013_3264.png,n03085013_3264.png,0.0,-0.073918186,0.86011857,-0.6604637
vit_b_16,1,457,NaN,knife,dog,64-0-10,0457_eid_dnn_64-0-10_dog_10_n02097130_3519.png,n02097130_3519.png,0.0,0.54052025,0.7742698,-0.16528592
vit_b_16,1,458,NaN,elephant,airplane,16-0-10,0458_eid_dnn_16-0-10_airplane_10_n02690373_4486.png,n02690373_4486.png,0.0,1.1864117,1.3309702,-0.10221825
vit_b_16,1,459,NaN,dog,bottle,16-0-10,0459_eid_dnn_16-0-10_bottle_10_n03983396_19635.png,n03983396_19635.png,0.0,-0.29295397,1.1349404,-1.0096738
vit_b_16,1,460,NaN,cat,airplane,16-0-10,0460_eid_dnn_16-0-10_airplane_10_n02690373_1426.png,n02690373_1426.png,0.0,0.7004548,1.4443836,-0.52603716
vit_b_16,1,461,NaN,oven,oven,4-0-10,0461_eid_dnn_4-0-10_oven_10_n04111531_5279.png,n04111531_5279.png,1.0,9.078108,1.8119842,5.1379256
vit_b_16,1,462,NaN,elephant,bottle,64-0-10,0462_eid_dnn_64-0-10_bottle_10_n03983396_4024.png,n03983396_4024.png,0.0,-0.33612442,1.7264146,-1.4584354
vit_b_16,1,463,NaN,bear,bear,8-0-10,0463_eid_dnn_8-0-10_bear_10_n02133161_12751.png,n02133161_12751.png,1.0,1.5169387,1.1142153,0.28476846
vit_b_16,1,464,NaN,knife,car,8-0-10,0464_eid_dnn_8-0-10_car_10_n02814533_12271.png,n02814533_12271.png,0.0,-0.46996436,1.7980306,-1.6037146
vit_b_16,1,465,NaN,dog,bottle,16-0-10,0465_eid_dnn_16-0-10_bottle_10_n04560804_5068.png,n04560804_5068.png,0.0,0.31213444,1.2244991,-0.6451393
vit_b_16,1,466,NaN,keyboard,bottle,128-0-10,0466_eid_dnn_128-0-10_bottle_10_n04579145_1168.png,n04579145_1168.png,0.0,0.36853117,3.1166306,-1.9431998
vit_b_16,1,467,NaN,dog,knife,64-0-10,0467_eid_dnn_64-0-10_knife_10_n03041632_2973.png,n03041632_2973.png,0.0,0.14506267,0.8671709,-0.5106076
vit_b_16,1,468,NaN,cat,airplane,16-0-10,0468_eid_dnn_16-0-10_airplane_10_n02690373_19329.png,n02690373_19329.png,0.0,0.67076725,1.2159847,-0.38552696
vit_b_16,1,469,NaN,bear,bottle,32-0-10,0469_eid_dnn_32-0-10_bottle_10_n04560804_1356.png,n04560804_1356.png,0.0,-0.26926556,1.2517148,-1.0754956
vit_b_16,1,470,NaN,bear,bear,8-0-10,0470_eid_dnn_8-0-10_bear_10_n02134084_3960.png,n02134084_3960.png,1.0,1.7757834,1.1573131,0.43732455
vit_b_16,1,471,NaN,boat,boat,4-0-10,0471_eid_dnn_4-0-10_boat_10_n04612504_27504.png,n04612504_27504.png,1.0,2.480903,0.37200764,1.4912142
vit_b_16,1,472,NaN,bear,dog,4-0-10,0472_eid_dnn_4-0-10_dog_10_n02099601_9973.png,n02099601_9973.png,0.0,0.31582543,0.50438946,-0.1333349
vit_b_16,1,473,NaN,elephant,truck,64-0-10,0473_eid_dnn_64-0-10_truck_10_n03417042_26843.png,n03417042_26843.png,0.0,-1.2248087,0.9341279,-1.5265987
vit_b_16,1,474,NaN,clock,knife,64-0-10,0474_eid_dnn_64-0-10_knife_10_n03041632_55711.png,n03041632_55711.png,0.0,0.5361125,1.1925616,-0.46417964
vit_b_16,1,475,NaN,dog,elephant,8-0-10,0475_eid_dnn_8-0-10_elephant_10_n02504013_1986.png,n02504013_1986.png,0.0,0.35836178,1.5114588,-0.81536263
vit_b_16,1,476,NaN,keyboard,keyboard,4-0-10,0476_eid_dnn_4-0-10_keyboard_10_n03085013_9475.png,n03085013_9475.png,1.0,7.1346397,0.58972245,4.6279554
vit_b_16,1,477,NaN,elephant,elephant,32-0-10,0477_eid_dnn_32-0-10_elephant_10_n02504458_3381.png,n02504458_3381.png,1.0,2.4191246,1.5420058,0.62021667
vit_b_16,1,478,NaN,airplane,airplane,8-0-10,0478_eid_dnn_8-0-10_airplane_10_n02690373_1161.png,n02690373_1161.png,1.0,2.9281502,0.67616916,1.5923911
vit_b_16,1,479,NaN,clock,cat,64-0-10,0479_eid_dnn_64-0-10_cat_10_n02124075_7474.png,n02124075_7474.png,0.0,0.05352362,1.4262336,-0.9706526
vit_b_16,1,480,NaN,cat,cat,4-0-10,0480_eid_dnn_4-0-10_cat_10_n02125311_9074.png,n02125311_9074.png,1.0,1.3993219,0.37712488,0.72280246
vit_b_16,1,481,NaN,elephant,airplane,128-0-10,0481_eid_dnn_128-0-10_airplane_10_n02690373_2867.png,n02690373_2867.png,0.0,-0.24457432,1.0030726,-0.8822196
vit_b_16,1,482,NaN,elephant,elephant,2-0-10,0482_eid_dnn_2-0-10_elephant_10_n02504013_1692.png,n02504013_1692.png,1.0,5.808425,0.16204844,3.9925911
vit_b_16,1,483,NaN,cat,bird,8-0-10,0483_eid_dnn_8-0-10_bird_10_n02009912_11813.png,n02009912_11813.png,0.0,0.036077283,2.6407087,-1.8417525
vit_b_16,1,484,NaN,knife,bottle,16-0-10,0484_eid_dnn_16-0-10_bottle_10_n04557648_10302.png,n04557648_10302.png,0.0,0.027767833,0.9295663,-0.63766783
vit_b_16,1,485,NaN,bottle,keyboard,4-0-10,0485_eid_dnn_4-0-10_keyboard_10_n03085013_20302.png,n03085013_20302.png,0.0,1.338042,2.0980356,-0.5373966
vit_b_16,1,486,NaN,dog,elephant,128-0-10,0486_eid_dnn_128-0-10_elephant_10_n02504458_5827.png,n02504458_5827.png,0.0,0.60029334,0.8971396,-0.20990202
vit_b_16,1,487,NaN,knife,knife,1-0-10,0487_eid_dnn_1-0-10_knife_10_n03041632_11327.png,n03041632_11327.png,1.0,10.221412,0.42970276,6.923784
vit_b_16,1,488,NaN,bird,bird,4-0-10,0488_eid_dnn_4-0-10_bird_10_n01795545_17770.png,n01795545_17770.png,1.0,0.79167324,0.20768356,0.41294307
vit_b_16,1,489,NaN,elephant,bicycle,4-0-10,0489_eid_dnn_4-0-10_bicycle_10_n02835271_10932.png,n02835271_10932.png,0.0,1.2439904,1.7554932,-0.36168706
vit_b_16,1,490,NaN,cat,cat,2-0-10,0490_eid_dnn_2-0-10_cat_10_n02123597_14233.png,n02123597_14233.png,1.0,1.8699694,0.6120324,0.8894958
vit_b_16,1,491,NaN,bird,bird,1-0-10,0491_eid_dnn_1-0-10_bird_10_n01614925_7662.png,n01614925_7662.png,1.0,0.7964139,0.44989383,0.2450267
vit_b_16,1,492,NaN,elephant,truck,16-0-10,0492_eid_dnn_16-0-10_truck_10_n03417042_5875.png,n03417042_5875.png,0.0,-1.0652796,1.6850805,-1.9447982
vit_b_16,1,493,NaN,bear,bear,1-0-10,0493_eid_dnn_1-0-10_bear_10_n02134418_304.png,n02134418_304.png,1.0,3.6695573,0.4149132,2.301381
vit_b_16,1,494,NaN,airplane,bird,1-0-10,0494_eid_dnn_1-0-10_bird_10_n01622779_5148.png,n01622779_5148.png,0.0,0.30473775,0.4366048,-0.09324409
vit_b_16,1,495,NaN,knife,knife,1-0-10,0495_eid_dnn_1-0-10_knife_10_n03041632_44230.png,n03041632_44230.png,1.0,8.439538,0.5751402,5.5609694
vit_b_16,1,496,NaN,clock,boat,32-0-10,0496_eid_dnn_32-0-10_boat_10_n03662601_8650.png,n03662601_8650.png,0.0,-0.6136698,1.0982155,-1.2104857
vit_b_16,1,497,NaN,dog,oven,16-0-10,0497_eid_dnn_16-0-10_oven_10_n04111531_4346.png,n04111531_4346.png,0.0,0.12931883,1.6066535,-1.0446334
vit_b_16,1,498,NaN,clock,clock,2-0-10,0498_eid_dnn_2-0-10_clock_10_n03196217_2201.png,n03196217_2201.png,1.0,4.8254256,0.43945616,3.1013489
vit_b_16,1,499,NaN,clock,bicycle,64-0-10,0499_eid_dnn_64-0-10_bicycle_10_n02835271_8757.png,n02835271_8757.png,0.0,-0.82834256,1.2535578,-1.4721259
vit_b_16,1,500,NaN,cat,keyboard,8-0-10,0500_eid_dnn_8-0-10_keyboard_10_n03085013_23563.png,n03085013_23563.png,0.0,0.40573475,1.689525,-0.9077768
vit_b_16,1,501,NaN,dog,boat,64-0-10,0501_eid_dnn_64-0-10_boat_10_n04273569_15879.png,n04273569_15879.png,0.0,-1.1331275,1.2320477,-1.6724315
vit_b_16,1,502,NaN,elephant,truck,64-0-10,0502_eid_dnn_64-0-10_truck_10_n04467665_30588.png,n04467665_30588.png,0.0,-0.8939787,2.0910707,-2.1107485
vit_b_16,1,503,NaN,dog,truck,16-0-10,0503_eid_dnn_16-0-10_truck_10_n03417042_1875.png,n03417042_1875.png,0.0,-1.1522007,0.9868985,-1.5125716
vit_b_16,1,504,NaN,clock,cat,128-0-10,0504_eid_dnn_128-0-10_cat_10_n02123394_6014.png,n02123394_6014.png,0.0,0.44459936,1.020542,-0.40725294
vit_b_16,1,505,NaN,boat,boat,1-0-10,0505_eid_dnn_1-0-10_boat_10_n04273569_10847.png,n04273569_10847.png,1.0,3.140804,0.70740265,1.7206746
vit_b_16,1,506,NaN,elephant,elephant,64-0-10,0506_eid_dnn_64-0-10_elephant_10_n02504013_5495.png,n02504013_5495.png,1.0,1.954591,0.69513065,0.890573
vit_b_16,1,507,NaN,clock,bottle,128-0-10,0507_eid_dnn_128-0-10_bottle_10_n04560804_16276.png,n04560804_16276.png,0.0,1.0670373,1.3747131,-0.21755959
vit_b_16,1,508,NaN,car,car,1-0-10,0508_eid_dnn_1-0-10_car_10_n04285008_1243.png,n04285008_1243.png,1.0,2.2819679,1.9927834,0.20448428
vit_b_16,1,509,NaN,bear,keyboard,32-0-10,0509_eid_dnn_32-0-10_keyboard_10_n03085013_22027.png,n03085013_22027.png,0.0,-0.47106755,1.082569,-1.0985869
vit_b_16,1,510,NaN,elephant,cat,32-0-10,0510_eid_dnn_32-0-10_cat_10_n02123045_12766.png,n02123045_12766.png,0.0,0.58164066,1.0462953,-0.32856044
vit_b_16,1,511,NaN,elephant,chair,64-0-10,0511_eid_dnn_64-0-10_chair_10_n04429376_29954.png,n04429376_29954.png,0.0,-0.52937067,1.153307,-1.1898328
vit_b_16,1,512,NaN,elephant,elephant,32-0-10,0512_eid_dnn_32-0-10_elephant_10_n02504013_5678.png,n02504013_5678.png,1.0,1.4424717,0.8493136,0.41942614
vit_b_16,1,513,NaN,chair,chair,4-0-10,0513_eid_dnn_4-0-10_chair_10_n03376595_6333.png,n03376595_6333.png,1.0,4.016592,0.17379352,2.717269
vit_b_16,1,514,NaN,keyboard,keyboard,2-0-10,0514_eid_dnn_2-0-10_keyboard_10_n03085013_22605.png,n03085013_22605.png,1.0,5.607263,0.7510454,3.4338646
vit_b_16,1,515,NaN,elephant,car,32-0-10,0515_eid_dnn_32-0-10_car_10_n04285008_16557.png,n04285008_16557.png,0.0,-0.42433572,1.0209596,-1.0219781
vit_b_16,1,516,NaN,elephant,bottle,64-0-10,0516_eid_dnn_64-0-10_bottle_10_n02823428_1034.png,n02823428_1034.png,0.0,-0.5160977,1.5522823,-1.4625657
vit_b_16,1,517,NaN,dog,elephant,16-0-10,0517_eid_dnn_16-0-10_elephant_10_n02504013_7777.png,n02504013_7777.png,0.0,0.3855316,1.2446026,-0.6074549
vit_b_16,1,518,NaN,knife,knife,4-0-10,0518_eid_dnn_4-0-10_knife_10_n03041632_14293.png,n03041632_14293.png,1.0,1.7089487,0.8592936,0.60079694
vit_b_16,1,519,NaN,knife,knife,8-0-10,0519_eid_dnn_8-0-10_knife_10_n03041632_50423.png,n03041632_50423.png,1.0,5.6685724,2.1126962,2.5143843
vit_b_16,1,520,NaN,chair,chair,2-0-10,0520_eid_dnn_2-0-10_chair_10_n03376595_3043.png,n03376595_3043.png,1.0,5.050383,1.0230035,2.8477874
vit_b_16,1,521,NaN,cat,cat,8-0-10,0521_eid_dnn_8-0-10_cat_10_n02123394_2434.png,n02123394_2434.png,1.0,2.8307896,1.1772679,1.1692164
vit_b_16,1,522,NaN,truck,truck,1-0-10,0522_eid_dnn_1-0-10_truck_10_n04467665_54079.png,n04467665_54079.png,1.0,1.7839923,0.621282,0.82216036
vit_b_16,1,523,NaN,bird,bird,2-0-10,0523_eid_dnn_2-0-10_bird_10_n01855672_1001.png,n01855672_1001.png,1.0,0.40093094,0.16705945,0.16537212
vit_b_16,1,524,NaN,bottle,bottle,1-0-10,0524_eid_dnn_1-0-10_bottle_10_n04560804_6112.png,n04560804_6112.png,1.0,1.7934316,0.33037207,1.0345393
vit_b_16,1,525,NaN,keyboard,keyboard,1-0-10,0525_eid_dnn_1-0-10_keyboard_10_n04505470_1744.png,n04505470_1744.png,1.0,4.6537123,0.6991167,2.7963214
vit_b_16,1,526,NaN,cat,boat,32-0-10,0526_eid_dnn_32-0-10_boat_10_n02951358_15087.png,n02951358_15087.png,0.0,-1.2997812,1.0454413,-1.6583227
vit_b_16,1,527,NaN,bottle,bottle,4-0-10,0527_eid_dnn_4-0-10_bottle_10_n04557648_10051.png,n04557648_10051.png,1.0,2.5714176,0.7640322,1.2780145
vit_b_16,1,528,NaN,elephant,bear,64-0-10,0528_eid_dnn_64-0-10_bear_10_n02134084_5794.png,n02134084_5794.png,0.0,0.45077056,1.0575876,-0.42908448
vit_b_16,1,529,NaN,keyboard,keyboard,4-0-10,0529_eid_dnn_4-0-10_keyboard_10_n04505470_751.png,n04505470_751.png,1.0,7.673498,0.58913034,5.0094047
vit_b_16,1,530,NaN,bottle,boat,128-0-10,0530_eid_dnn_128-0-10_boat_10_n04273569_9306.png,n04273569_9306.png,0.0,-1.2302889,2.1732655,-2.4066765
vit_b_16,1,531,NaN,dog,chair,16-0-10,0531_eid_dnn_16-0-10_chair_10_n02791124_9162.png,n02791124_9162.png,0.0,-0.41417152,1.1897256,-1.1341265
vit_b_16,1,532,NaN,elephant,bicycle,128-0-10,0532_eid_dnn_128-0-10_bicycle_10_n02835271_25033.png,n02835271_25033.png,0.0,0.10630679,1.453866,-0.9528683
vit_b_16,1,533,NaN,keyboard,keyboard,128-0-10,0533_eid_dnn_128-0-10_keyboard_10_n04505470_3905.png,n04505470_3905.png,1.0,5.3152337,1.4186164,2.7553246
vit_b_16,1,534,NaN,knife,knife,4-0-10,0534_eid_dnn_4-0-10_knife_10_n03041632_32054.png,n03041632_32054.png,1.0,8.961972,1.9295027,4.9727073
vit_b_16,1,535,NaN,clock,clock,8-0-10,0535_eid_dnn_8-0-10_clock_10_n03196217_13380.png,n03196217_13380.png,1.0,1.833856,1.0088454,0.58337057
vit_b_16,1,536,NaN,elephant,chair,32-0-10,0536_eid_dnn_32-0-10_chair_10_n03376595_8083.png,n03376595_8083.png,0.0,-0.91611123,1.2604806,-1.5390829
vit_b_16,1,537,NaN,bear,cat,8-0-10,0537_eid_dnn_8-0-10_cat_10_n02125311_47927.png,n02125311_47927.png,0.0,1.3520435,1.6518276,-0.21197934
vit_b_16,1,538,NaN,clock,boat,64-0-10,0538_eid_dnn_64-0-10_boat_10_n04273569_1141.png,n04273569_1141.png,0.0,-1.2327859,0.8957259,-1.5050852
vit_b_16,1,539,NaN,elephant,dog,64-0-10,0539_eid_dnn_64-0-10_dog_10_n02097130_5859.png,n02097130_5859.png,0.0,0.6627516,1.1612815,-0.35251385
vit_b_16,1,540,NaN,airplane,dog,16-0-10,0540_eid_dnn_16-0-10_dog_10_n02090721_835.png,n02090721_835.png,0.0,-0.042083547,2.4179463,-1.7395039
vit_b_16,1,541,NaN,elephant,bear,128-0-10,0541_eid_dnn_128-0-10_bear_10_n02132136_15806.png,n02132136_15806.png,0.0,0.21344543,2.4094667,-1.5528216
vit_b_16,1,542,NaN,cat,cat,128-0-10,0542_eid_dnn_128-0-10_cat_10_n02124075_12069.png,n02124075_12069.png,1.0,0.9303622,0.8423118,0.062261052
vit_b_16,1,543,NaN,oven,oven,2-0-10,0543_eid_dnn_2-0-10_oven_10_n04111531_21382.png,n04111531_21382.png,1.0,3.4492369,1.5367116,1.3523597
vit_b_16,1,544,NaN,cat,cat,1-0-10,0544_eid_dnn_1-0-10_cat_10_n02123597_2009.png,n02123597_2009.png,1.0,2.5634537,1.0251106,1.0877728
vit_b_16,1,545,NaN,dog,oven,32-0-10,0545_eid_dnn_32-0-10_oven_10_n04111531_4392.png,n04111531_4392.png,0.0,-0.47257602,1.2647824,-1.228498
vit_b_16,1,546,NaN,airplane,boat,4-0-10,0546_eid_dnn_4-0-10_boat_10_n03344393_640.png,n03344393_640.png,0.0,0.9256485,1.3712056,-0.3150564
vit_b_16,1,547,NaN,truck,car,4-0-10,0547_eid_dnn_4-0-10_car_10_n02814533_245.png,n02814533_245.png,0.0,3.6456547,4.4081106,-0.5391378
vit_b_16,1,548,NaN,cat,bird,1-0-10,0548_eid_dnn_1-0-10_bird_10_n01530575_3831.png,n01530575_3831.png,0.0,1.5365613,1.9506912,-0.2928341
vit_b_16,1,549,NaN,truck,truck,2-0-10,0549_eid_dnn_2-0-10_truck_10_n04467665_32276.png,n04467665_32276.png,1.0,2.7347236,0.47021744,1.6012477
vit_b_16,1,550,NaN,elephant,elephant,64-0-10,0550_eid_dnn_64-0-10_elephant_10_n02504458_5941.png,n02504458_5941.png,1.0,1.0976074,0.78795135,0.21895988
vit_b_16,1,551,NaN,elephant,elephant,4-0-10,0551_eid_dnn_4-0-10_elephant_10_n02504013_9796.png,n02504013_9796.png,1.0,6.573985,0.32789585,4.416652
vit_b_16,1,552,NaN,airplane,airplane,4-0-10,0552_eid_dnn_4-0-10_airplane_10_n02690373_8214.png,n02690373_8214.png,1.0,6.939081,1.2790635,4.0022373
vit_b_16,1,553,NaN,airplane,airplane,1-0-10,0553_eid_dnn_1-0-10_airplane_10_n02690373_8967.png,n02690373_8967.png,1.0,9.175988,0.23249288,6.3240066
vit_b_16,1,554,NaN,dog,elephant,64-0-10,0554_eid_dnn_64-0-10_elephant_10_n02504458_7642.png,n02504458_7642.png,0.0,-0.46942753,0.8241083,-0.91466796
vit_b_16,1,555,NaN,boat,boat,1-0-10,0555_eid_dnn_1-0-10_boat_10_n04273569_15455.png,n04273569_15455.png,1.0,3.3910604,1.3427519,1.4483727
vit_b_16,1,556,NaN,bear,knife,8-0-10,0556_eid_dnn_8-0-10_knife_10_n03041632_3063.png,n03041632_3063.png,0.0,-0.6584254,2.502444,-2.2350721
vit_b_16,1,557,NaN,knife,bottle,4-0-10,0557_eid_dnn_4-0-10_bottle_10_n03937543_4912.png,n03937543_4912.png,0.0,1.3555632,1.8744613,-0.3669164
vit_b_16,1,558,NaN,oven,oven,4-0-10,0558_eid_dnn_4-0-10_oven_10_n04111531_5776.png,n04111531_5776.png,1.0,9.585642,0.62342805,6.337242
vit_b_16,1,559,NaN,cat,bottle,128-0-10,0559_eid_dnn_128-0-10_bottle_10_n03983396_4540.png,n03983396_4540.png,0.0,-0.37671617,0.7298805,-0.782482
vit_b_16,1,560,NaN,knife,knife,2-0-10,0560_eid_dnn_2-0-10_knife_10_n03041632_965.png,n03041632_965.png,1.0,9.584801,0.66024077,6.3106165
vit_b_16,1,561,NaN,elephant,knife,32-0-10,0561_eid_dnn_32-0-10_knife_10_n03041632_12949.png,n03041632_12949.png,0.0,0.09210755,1.1409606,-0.7416511
vit_b_16,1,562,NaN,dog,knife,16-0-10,0562_eid_dnn_16-0-10_knife_10_n03041632_18766.png,n03041632_18766.png,0.0,0.10278045,1.5623415,-1.0320655
vit_b_16,1,563,NaN,keyboard,keyboard,8-0-10,0563_eid_dnn_8-0-10_keyboard_10_n04505470_2869.png,n04505470_2869.png,1.0,4.600371,1.1588672,2.4335105
vit_b_16,1,564,NaN,bicycle,bicycle,4-0-10,0564_eid_dnn_4-0-10_bicycle_10_n02835271_18537.png,n02835271_18537.png,1.0,7.4602118,0.5425079,4.8915553
vit_b_16,1,565,NaN,clock,clock,32-0-10,0565_eid_dnn_32-0-10_clock_10_n04548280_1119.png,n04548280_1119.png,1.0,1.1252478,1.0469849,0.055340245
vit_b_16,1,566,NaN,oven,oven,1-0-10,0566_eid_dnn_1-0-10_oven_10_n04111531_687.png,n04111531_687.png,1.0,8.62426,0.7482458,5.5691833
vit_b_16,1,567,NaN,dog,chair,64-0-10,0567_eid_dnn_64-0-10_chair_10_n03376595_3038.png,n03376595_3038.png,0.0,-0.7999663,0.75874865,-1.1021779
vit_b_16,1,568,NaN,elephant,bicycle,16-0-10,0568_eid_dnn_16-0-10_bicycle_10_n02835271_3989.png,n02835271_3989.png,0.0,0.036469646,1.4089243,-0.970472
vit_b_16,1,569,NaN,elephant,dog,64-0-10,0569_eid_dnn_64-0-10_dog_10_n02096437_4563.png,n02096437_4563.png,0.0,0.62986124,2.0017204,-0.97005093
vit_b_16,1,570,NaN,dog,clock,32-0-10,0570_eid_dnn_32-0-10_clock_10_n02708093_685.png,n02708093_685.png,0.0,0.17863226,1.3527023,-0.83019286
vit_b_16,1,571,NaN,cat,boat,32-0-10,0571_eid_dnn_32-0-10_boat_10_n03662601_8360.png,n03662601_8360.png,0.0,-0.77057374,1.3928922,-1.5298015
vit_b_16,1,572,NaN,airplane,keyboard,8-0-10,0572_eid_dnn_8-0-10_keyboard_10_n03085013_17035.png,n03085013_17035.png,0.0,0.08200893,1.4279782,-0.95174396
vit_b_16,1,573,NaN,bear,dog,64-0-10,0573_eid_dnn_64-0-10_dog_10_n02110063_12166.png,n02110063_12166.png,0.0,0.6404676,0.7840637,-0.10153779
vit_b_16,1,574,NaN,dog,dog,2-0-10,0574_eid_dnn_2-0-10_dog_10_n02108422_6951.png,n02108422_6951.png,1.0,1.2980236,0.9987908,0.21158953
vit_b_16,1,575,NaN,elephant,bear,64-0-10,0575_eid_dnn_64-0-10_bear_10_n02134418_912.png,n02134418_912.png,0.0,0.50280756,1.1217265,-0.4376418
vit_b_16,1,576,NaN,clock,clock,4-0-10,0576_eid_dnn_4-0-10_clock_10_n02708093_564.png,n02708093_564.png,1.0,1.9535683,0.78567743,0.8258236
vit_b_16,1,577,NaN,elephant,car,64-0-10,0577_eid_dnn_64-0-10_car_10_n04285008_11893.png,n04285008_11893.png,0.0,-0.96849656,0.9163266,-1.3327712
vit_b_16,1,578,NaN,elephant,knife,64-0-10,0578_eid_dnn_64-0-10_knife_10_n03041632_20504.png,n03041632_20504.png,0.0,-0.25414315,1.1013656,-0.9584894
vit_b_16,1,579,NaN,knife,clock,4-0-10,0579_eid_dnn_4-0-10_clock_10_n04548280_4557.png,n04548280_4557.png,0.0,0.08740995,2.7118258,-1.8557423
vit_b_16,1,580,NaN,elephant,clock,32-0-10,0580_eid_dnn_32-0-10_clock_10_n02708093_3360.png,n02708093_3360.png,0.0,0.55709726,1.0844921,-0.37292448
vit_b_16,1,581,NaN,airplane,bear,16-0-10,0581_eid_dnn_16-0-10_bear_10_n02134084_617.png,n02134084_617.png,0.0,0.03156358,2.3653216,-1.6502162
vit_b_16,1,582,NaN,dog,dog,1-0-10,0582_eid_dnn_1-0-10_dog_10_n02093991_4081.png,n02093991_4081.png,1.0,1.4347812,1.3808118,0.038162116
vit_b_16,1,583,NaN,elephant,elephant,16-0-10,0583_eid_dnn_16-0-10_elephant_10_n02504458_1727.png,n02504458_1727.png,1.0,2.2447095,1.3919761,0.6029736
vit_b_16,1,584,NaN,elephant,clock,32-0-10,0584_eid_dnn_32-0-10_clock_10_n04548280_16295.png,n04548280_16295.png,0.0,0.7954007,2.5470533,-1.2386055
vit_b_16,1,585,NaN,boat,boat,4-0-10,0585_eid_dnn_4-0-10_boat_10_n02951358_16217.png,n02951358_16217.png,1.0,2.295813,1.7829642,0.36263892
vit_b_16,1,586,NaN,elephant,airplane,8-0-10,0586_eid_dnn_8-0-10_airplane_10_n02690373_7536.png,n02690373_7536.png,0.0,1.7004635,2.103986,-0.28533348
vit_b_16,1,587,NaN,cat,cat,8-0-10,0587_eid_dnn_8-0-10_cat_10_n02123597_22140.png,n02123597_22140.png,1.0,2.643867,1.1690438,1.0428575
vit_b_16,1,588,NaN,clock,bottle,128-0-10,0588_eid_dnn_128-0-10_bottle_10_n04591713_8914.png,n04591713_8914.png,0.0,0.14788254,2.1329708,-1.4036694
vit_b_16,1,589,NaN,clock,car,128-0-10,0589_eid_dnn_128-0-10_car_10_n03100240_963.png,n03100240_963.png,0.0,-0.8852505,0.56514883,-1.0255873
vit_b_16,1,590,NaN,clock,boat,32-0-10,0590_eid_dnn_32-0-10_boat_10_n02951358_18762.png,n02951358_18762.png,0.0,-0.74963206,0.79566604,-1.0926908
vit_b_16,1,591,NaN,cat,bear,32-0-10,0591_eid_dnn_32-0-10_bear_10_n02134418_2633.png,n02134418_2633.png,0.0,1.589166,1.8419029,-0.1787119
vit_b_16,1,592,NaN,elephant,airplane,64-0-10,0592_eid_dnn_64-0-10_airplane_10_n02690373_1169.png,n02690373_1169.png,0.0,-0.90883476,1.4294736,-1.6534337
vit_b_16,1,593,NaN,bicycle,bicycle,2-0-10,0593_eid_dnn_2-0-10_bicycle_10_n03792782_12704.png,n03792782_12704.png,1.0,7.1667867,1.2520804,4.182329
vit_b_16,1,594,NaN,dog,dog,64-0-10,0594_eid_dnn_64-0-10_dog_10_n02088238_2973.png,n02088238_2973.png,1.0,1.6110419,1.0100214,0.42498565
vit_b_16,1,595,NaN,elephant,knife,32-0-10,0595_eid_dnn_32-0-10_knife_10_n03041632_41493.png,n03041632_41493.png,0.0,-0.43827322,1.9960232,-1.7213075
vit_b_16,1,596,NaN,clock,bottle,128-0-10,0596_eid_dnn_128-0-10_bottle_10_n03983396_2959.png,n03983396_2959.png,0.0,-0.048804317,1.2622318,-0.92704254
vit_b_16,1,597,NaN,clock,clock,1-0-10,0597_eid_dnn_1-0-10_clock_10_n02708093_2843.png,n02708093_2843.png,1.0,6.2374034,0.14852692,4.3054857
vit_b_16,1,598,NaN,dog,oven,8-0-10,0598_eid_dnn_8-0-10_oven_10_n04111531_12952.png,n04111531_12952.png,0.0,-0.46964157,1.504586,-1.3959897
vit_b_16,1,599,NaN,bear,bear,16-0-10,0599_eid_dnn_16-0-10_bear_10_n02134418_2891.png,n02134418_2891.png,1.0,2.1586163,1.3834946,0.5480938
vit_b_16,1,600,NaN,bear,truck,32-0-10,0600_eid_dnn_32-0-10_truck_10_n03417042_3862.png,n03417042_3862.png,0.0,-1.2615284,1.0625637,-1.6433812
vit_b_16,1,601,NaN,dog,elephant,16-0-10,0601_eid_dnn_16-0-10_elephant_10_n02504458_2054.png,n02504458_2054.png,0.0,0.9665402,1.5861495,-0.4381299
vit_b_16,1,602,NaN,airplane,airplane,1-0-10,0602_eid_dnn_1-0-10_airplane_10_n02690373_7355.png,n02690373_7355.png,1.0,9.114382,0.19059825,6.3100677
vit_b_16,1,603,NaN,clock,knife,128-0-10,0603_eid_dnn_128-0-10_knife_10_n03041632_22738.png,n03041632_22738.png,0.0,0.12907222,0.8741312,-0.5268363
vit_b_16,1,604,NaN,oven,oven,1-0-10,0604_eid_dnn_1-0-10_oven_10_n04111531_4250.png,n04111531_4250.png,1.0,9.107396,0.3842475,6.1681976
vit_b_16,1,605,NaN,knife,clock,8-0-10,0605_eid_dnn_8-0-10_clock_10_n04548280_7826.png,n04548280_7826.png,0.0,0.21016152,2.1157448,-1.3474509
vit_b_16,1,606,NaN,elephant,clock,64-0-10,0606_eid_dnn_64-0-10_clock_10_n04548280_17198.png,n04548280_17198.png,0.0,1.279484,2.3171625,-0.7337495
vit_b_16,1,607,NaN,cat,bicycle,128-0-10,0607_eid_dnn_128-0-10_bicycle_10_n02835271_4726.png,n02835271_4726.png,0.0,0.2767871,0.8819639,-0.42792463
vit_b_16,1,608,NaN,clock,chair,128-0-10,0608_eid_dnn_128-0-10_chair_10_n03376595_9079.png,n03376595_9079.png,0.0,0.051264826,0.997976,-0.6694259
vit_b_16,1,609,NaN,airplane,airplane,4-0-10,0609_eid_dnn_4-0-10_airplane_10_n02690373_2324.png,n02690373_2324.png,1.0,1.7932247,0.9121083,0.62304336
vit_b_16,1,610,NaN,elephant,dog,64-0-10,0610_eid_dnn_64-0-10_dog_10_n02104029_5234.png,n02104029_5234.png,0.0,0.52225065,0.8713624,-0.24685928
vit_b_16,1,611,NaN,bottle,bottle,2-0-10,0611_eid_dnn_2-0-10_bottle_10_n04591713_335.png,n04591713_335.png,1.0,4.419111,1.6263583,1.9747742
vit_b_16,1,612,NaN,airplane,airplane,2-0-10,0612_eid_dnn_2-0-10_airplane_10_n02690373_4148.png,n02690373_4148.png,1.0,8.589249,0.9079938,5.4314675
vit_b_16,1,613,NaN,bear,bear,2-0-10,0613_eid_dnn_2-0-10_bear_10_n02134084_18800.png,n02134084_18800.png,1.0,3.183086,0.22758456,2.089855
vit_b_16,1,614,NaN,elephant,boat,16-0-10,0614_eid_dnn_16-0-10_boat_10_n03662601_1191.png,n03662601_1191.png,0.0,-0.43465918,1.0664566,-1.0614492
vit_b_16,1,615,NaN,keyboard,keyboard,2-0-10,0615_eid_dnn_2-0-10_keyboard_10_n04505470_4505.png,n04505470_4505.png,1.0,5.215326,0.20998403,3.5393114
vit_b_16,1,616,NaN,knife,knife,4-0-10,0616_eid_dnn_4-0-10_knife_10_n03041632_1607.png,n03041632_1607.png,1.0,2.3611526,0.7293689,1.1538453
vit_b_16,1,617,NaN,dog,car,32-0-10,0617_eid_dnn_32-0-10_car_10_n03100240_11224.png,n03100240_11224.png,0.0,-0.65215844,0.7342066,-0.9803082
vit_b_16,1,618,NaN,clock,airplane,128-0-10,0618_eid_dnn_128-0-10_airplane_10_n02690373_7142.png,n02690373_7142.png,0.0,-1.1036338,1.5664349,-1.8880237
vit_b_16,1,619,NaN,airplane,airplane,4-0-10,0619_eid_dnn_4-0-10_airplane_10_n02690373_18693.png,n02690373_18693.png,1.0,7.5269985,0.5834662,4.909819
vit_b_16,1,620,NaN,dog,chair,8-0-10,0620_eid_dnn_8-0-10_chair_10_n03376595_3214.png,n03376595_3214.png,0.0,0.07343729,0.7434422,-0.47376502
vit_b_16,1,621,NaN,elephant,boat,16-0-10,0621_eid_dnn_16-0-10_boat_10_n03662601_17198.png,n03662601_17198.png,0.0,0.14717594,1.4679451,-0.93392485
vit_b_16,1,622,NaN,bear,knife,32-0-10,0622_eid_dnn_32-0-10_knife_10_n03041632_27879.png,n03041632_27879.png,0.0,0.6456352,1.5253004,-0.62201726
vit_b_16,1,623,NaN,chair,chair,1-0-10,0623_eid_dnn_1-0-10_chair_10_n02791124_3601.png,n02791124_3601.png,1.0,1.5576984,1.2478034,0.2191288
vit_b_16,1,624,NaN,airplane,bicycle,16-0-10,0624_eid_dnn_16-0-10_bicycle_10_n03792782_10876.png,n03792782_10876.png,0.0,-0.077366285,1.8585718,-1.368915
vit_b_16,1,625,NaN,chair,clock,4-0-10,0625_eid_dnn_4-0-10_clock_10_n03196217_5568.png,n03196217_5568.png,0.0,0.21554802,0.5371864,-0.22743265
vit_b_16,1,626,NaN,bear,truck,16-0-10,0626_eid_dnn_16-0-10_truck_10_n04467665_2695.png,n04467665_2695.png,0.0,-1.3968582,1.0139965,-1.7047318
vit_b_16,1,627,NaN,elephant,elephant,8-0-10,0627_eid_dnn_8-0-10_elephant_10_n02504013_4005.png,n02504013_4005.png,1.0,6.5601225,1.3555003,3.6802237
vit_b_16,1,628,NaN,clock,elephant,128-0-10,0628_eid_dnn_128-0-10_elephant_10_n02504458_3094.png,n02504458_3094.png,0.0,-0.2672919,1.3973397,-1.1770723
vit_b_16,1,629,NaN,bear,bear,8-0-10,0629_eid_dnn_8-0-10_bear_10_n02134418_6133.png,n02134418_6133.png,1.0,3.1118782,1.9537835,0.8188966
vit_b_16,1,630,NaN,clock,truck,128-0-10,0630_eid_dnn_128-0-10_truck_10_n03796401_9953.png,n03796401_9953.png,0.0,-1.2528,1.1066848,-1.6684077
vit_b_16,1,631,NaN,cat,cat,8-0-10,0631_eid_dnn_8-0-10_cat_10_n02123597_10199.png,n02123597_10199.png,1.0,1.7196565,1.5708302,0.105236046
vit_b_16,1,632,NaN,cat,cat,2-0-10,0632_eid_dnn_2-0-10_cat_10_n02124075_11153.png,n02124075_11153.png,1.0,4.526466,0.601999,2.7750173
vit_b_16,1,633,NaN,dog,bicycle,64-0-10,0633_eid_dnn_64-0-10_bicycle_10_n02835271_7900.png,n02835271_7900.png,0.0,-0.36422637,1.0846946,-1.0245419
vit_b_16,1,634,NaN,knife,knife,4-0-10,0634_eid_dnn_4-0-10_knife_10_n03041632_12748.png,n03041632_12748.png,1.0,10.241323,0.4776072,6.9039903
vit_b_16,1,635,NaN,bear,bear,16-0-10,0635_eid_dnn_16-0-10_bear_10_n02134418_244.png,n02134418_244.png,1.0,1.8804152,1.5447779,0.23733144
vit_b_16,1,636,NaN,bicycle,bicycle,4-0-10,0636_eid_dnn_4-0-10_bicycle_10_n03792782_22908.png,n03792782_22908.png,1.0,2.7212253,1.8416663,0.6219421
vit_b_16,1,637,NaN,cat,elephant,8-0-10,0637_eid_dnn_8-0-10_elephant_10_n02504458_3234.png,n02504458_3234.png,0.0,0.31794193,1.326047,-0.71283793
vit_b_16,1,638,NaN,clock,clock,1-0-10,0638_eid_dnn_1-0-10_clock_10_n03196217_3063.png,n03196217_3063.png,1.0,2.1857643,0.14514166,1.4429382
vit_b_16,1,639,NaN,clock,clock,4-0-10,0639_eid_dnn_4-0-10_clock_10_n03196217_5688.png,n03196217_5688.png,1.0,4.788449,0.915099,2.7388718
vit_b_16,1,640,NaN,bottle,bottle,2-0-10,0640_eid_dnn_2-0-10_bottle_10_n04591713_2123.png,n04591713_2123.png,1.0,3.2178347,0.5557241,1.8823965
vit_b_16,1,641,NaN,knife,knife,2-0-10,0641_eid_dnn_2-0-10_knife_10_n03041632_13424.png,n03041632_13424.png,1.0,7.8706756,0.451254,5.2463236
vit_b_16,1,642,NaN,elephant,chair,64-0-10,0642_eid_dnn_64-0-10_chair_10_n03376595_989.png,n03376595_989.png,0.0,-0.85433125,1.1395043,-1.4098547
vit_b_16,1,643,NaN,dog,elephant,8-0-10,0643_eid_dnn_8-0-10_elephant_10_n02504458_3953.png,n02504458_3953.png,0.0,0.84023786,2.0993898,-0.8903549
vit_b_16,1,644,NaN,elephant,bird,4-0-10,0644_eid_dnn_4-0-10_bird_10_n01796340_4181.png,n01796340_4181.png,0.0,0.36695406,1.0451877,-0.4795836
vit_b_16,1,645,NaN,bicycle,bicycle,1-0-10,0645_eid_dnn_1-0-10_bicycle_10_n02835271_17357.png,n02835271_17357.png,1.0,5.4660006,0.8646564,3.2536416
vit_b_16,1,646,NaN,bird,bird,1-0-10,0646_eid_dnn_1-0-10_bird_10_n02006656_9134.png,n02006656_9134.png,1.0,0.57173085,0.19118254,0.2690883
vit_b_16,1,647,NaN,dog,bear,64-0-10,0647_eid_dnn_64-0-10_bear_10_n02134418_1307.png,n02134418_1307.png,0.0,0.32677388,1.0945978,-0.5429335
vit_b_16,1,648,NaN,elephant,chair,64-0-10,0648_eid_dnn_64-0-10_chair_10_n02791124_4432.png,n02791124_4432.png,0.0,-0.9057355,1.1412534,-1.4474398
vit_b_16,1,649,NaN,dog,oven,32-0-10,0649_eid_dnn_32-0-10_oven_10_n04111531_21309.png,n04111531_21309.png,0.0,-0.5660797,0.55673915,-0.7939528
vit_b_16,1,650,NaN,elephant,car,16-0-10,0650_eid_dnn_16-0-10_car_10_n04285008_6325.png,n04285008_6325.png,0.0,-0.6597175,0.984672,-1.162759
vit_b_16,1,651,NaN,elephant,boat,32-0-10,0651_eid_dnn_32-0-10_boat_10_n03344393_5599.png,n03344393_5599.png,0.0,-0.46461374,0.8781233,-0.9494584
vit_b_16,1,652,NaN,dog,cat,32-0-10,0652_eid_dnn_32-0-10_cat_10_n02123159_7616.png,n02123159_7616.png,0.0,0.9014048,0.9513621,-0.03532513
vit_b_16,1,653,NaN,chair,car,4-0-10,0653_eid_dnn_4-0-10_car_10_n02814533_11273.png,n02814533_11273.png,0.0,0.407864,3.384476,-2.1047823
vit_b_16,1,654,NaN,oven,oven,1-0-10,0654_eid_dnn_1-0-10_oven_10_n04111531_5357.png,n04111531_5357.png,1.0,7.1480155,4.1324244,2.132345
vit_b_16,1,655,NaN,truck,truck,4-0-10,0655_eid_dnn_4-0-10_truck_10_n04467665_68250.png,n04467665_68250.png,1.0,1.5522888,0.9751226,0.40811813
vit_b_16,1,656,NaN,elephant,dog,2-0-10,0656_eid_dnn_2-0-10_dog_10_n02102177_3185.png,n02102177_3185.png,0.0,0.4113676,0.70893985,-0.21041536
vit_b_16,1,657,NaN,bear,truck,8-0-10,0657_eid_dnn_8-0-10_truck_10_n03417042_11439.png,n03417042_11439.png,0.0,0.0052009523,1.2544078,-0.8833226
vit_b_16,1,658,NaN,keyboard,keyboard,8-0-10,0658_eid_dnn_8-0-10_keyboard_10_n04505470_4776.png,n04505470_4776.png,1.0,3.161131,1.5043098,1.1715494
vit_b_16,1,659,NaN,bicycle,chair,1-0-10,0659_eid_dnn_1-0-10_chair_10_n04099969_4675.png,n04099969_4675.png,0.0,0.7895314,1.4355398,-0.45679694
vit_b_16,1,660,NaN,cat,chair,16-0-10,0660_eid_dnn_16-0-10_chair_10_n02791124_14.png,n02791124_14.png,0.0,-0.54209757,1.0019596,-1.0918133
vit_b_16,1,661,NaN,dog,dog,1-0-10,0661_eid_dnn_1-0-10_dog_10_n02086646_5896.png,n02086646_5896.png,1.0,0.5867432,0.11607273,0.33281428
vit_b_16,1,662,NaN,cat,truck,16-0-10,0662_eid_dnn_16-0-10_truck_10_n03796401_7421.png,n03796401_7421.png,0.0,-1.8891284,2.1715696,-2.8713472
vit_b_16,1,663,NaN,clock,keyboard,128-0-10,0663_eid_dnn_128-0-10_keyboard_10_n04505470_713.png,n04505470_713.png,0.0,-0.97547174,1.0092095,-1.4033816
vit_b_16,1,664,NaN,cat,clock,64-0-10,0664_eid_dnn_64-0-10_clock_10_n04548280_1324.png,n04548280_1324.png,0.0,0.91003704,1.2861121,-0.2659252
vit_b_16,1,665,NaN,bottle,bottle,8-0-10,0665_eid_dnn_8-0-10_bottle_10_n04591713_4474.png,n04591713_4474.png,1.0,3.0499249,0.29286876,1.949533
vit_b_16,1,666,NaN,bear,bird,16-0-10,0666_eid_dnn_16-0-10_bird_10_n01855672_4659.png,n01855672_4659.png,0.0,-0.2987075,0.6774905,-0.6902762
vit_b_16,1,667,NaN,keyboard,keyboard,1-0-10,0667_eid_dnn_1-0-10_keyboard_10_n03085013_8677.png,n03085013_8677.png,1.0,5.499276,0.6315789,3.4419818
vit_b_16,1,668,NaN,bear,bear,2-0-10,0668_eid_dnn_2-0-10_bear_10_n02134418_3584.png,n02134418_3584.png,1.0,3.0078025,0.17039147,2.0063524
vit_b_16,1,669,NaN,airplane,airplane,4-0-10,0669_eid_dnn_4-0-10_airplane_10_n02690373_4061.png,n02690373_4061.png,1.0,7.0279655,0.8564433,4.3639255
vit_b_16,1,670,NaN,bear,bear,4-0-10,0670_eid_dnn_4-0-10_bear_10_n02133161_499.png,n02133161_499.png,1.0,2.1553552,1.1741834,0.6937933
vit_b_16,1,671,NaN,chair,chair,2-0-10,0671_eid_dnn_2-0-10_chair_10_n03376595_3462.png,n03376595_3462.png,1.0,3.6278167,0.25150177,2.3874152
vit_b_16,1,672,NaN,airplane,boat,4-0-10,0672_eid_dnn_4-0-10_boat_10_n04273569_16362.png,n04273569_16362.png,0.0,1.1743602,1.5271568,-0.24946493
vit_b_16,1,673,NaN,airplane,airplane,1-0-10,0673_eid_dnn_1-0-10_airplane_10_n02690373_8592.png,n02690373_8592.png,1.0,9.108724,0.21265288,6.290472
vit_b_16,1,674,NaN,dog,chair,32-0-10,0674_eid_dnn_32-0-10_chair_10_n04099969_6217.png,n04099969_6217.png,0.0,-0.6348186,1.7969482,-1.7195188
vit_b_16,1,675,NaN,bottle,bottle,1-0-10,0675_eid_dnn_1-0-10_bottle_10_n03937543_299.png,n03937543_299.png,1.0,1.9521307,0.3412711,1.1390498
vit_b_16,1,676,NaN,clock,clock,2-0-10,0676_eid_dnn_2-0-10_clock_10_n03196217_300.png,n03196217_300.png,1.0,5.144253,2.0753908,2.1700132
vit_b_16,1,677,NaN,bear,bear,32-0-10,0677_eid_dnn_32-0-10_bear_10_n02132136_8516.png,n02132136_8516.png,1.0,1.7230022,1.3255365,0.2810507
vit_b_16,1,678,NaN,bottle,bottle,4-0-10,0678_eid_dnn_4-0-10_bottle_10_n04557648_1938.png,n04557648_1938.png,1.0,3.164839,0.77411073,1.6905001
vit_b_16,1,679,NaN,airplane,airplane,16-0-10,0679_eid_dnn_16-0-10_airplane_10_n02690373_19118.png,n02690373_19118.png,1.0,3.9457192,1.1066868,2.0074992
vit_b_16,1,680,NaN,clock,oven,128-0-10,0680_eid_dnn_128-0-10_oven_10_n04111531_891.png,n04111531_891.png,0.0,-0.53187686,0.44141173,-0.68821895
vit_b_16,1,681,NaN,elephant,elephant,2-0-10,0681_eid_dnn_2-0-10_elephant_10_n02504458_37.png,n02504458_37.png,1.0,7.7117224,0.14862476,5.3479176
vit_b_16,1,682,NaN,clock,chair,2-0-10,0682_eid_dnn_2-0-10_chair_10_n04429376_24375.png,n04429376_24375.png,0.0,1.9153666,2.7189894,-0.5682471
vit_b_16,1,683,NaN,bear,knife,64-0-10,0683_eid_dnn_64-0-10_knife_10_n03041632_46914.png,n03041632_46914.png,0.0,0.30575737,1.1082264,-0.5674313
vit_b_16,1,684,NaN,truck,truck,2-0-10,0684_eid_dnn_2-0-10_truck_10_n04467665_78325.png,n04467665_78325.png,1.0,2.3659444,0.4713617,1.3396723
vit_b_16,1,685,NaN,elephant,elephant,8-0-10,0685_eid_dnn_8-0-10_elephant_10_n02504013_2438.png,n02504013_2438.png,1.0,2.188966,1.7757728,0.29217175
vit_b_16,1,686,NaN,boat,boat,4-0-10,0686_eid_dnn_4-0-10_boat_10_n02951358_13456.png,n02951358_13456.png,1.0,1.8111632,0.7190245,0.77225876
vit_b_16,1,687,NaN,clock,keyboard,32-0-10,0687_eid_dnn_32-0-10_keyboard_10_n04505470_4922.png,n04505470_4922.png,0.0,-0.046104968,0.77848226,-0.58307123
vit_b_16,1,688,NaN,boat,boat,2-0-10,0688_eid_dnn_2-0-10_boat_10_n02951358_4363.png,n02951358_4363.png,1.0,2.6706734,1.5170643,0.8157248
vit_b_16,1,689,NaN,keyboard,keyboard,2-0-10,0689_eid_dnn_2-0-10_keyboard_10_n03085013_28083.png,n03085013_28083.png,1.0,7.162924,0.37205112,4.8018723
vit_b_16,1,690,NaN,chair,chair,2-0-10,0690_eid_dnn_2-0-10_chair_10_n02791124_17035.png,n02791124_17035.png,1.0,1.961949,1.3718618,0.41725466
vit_b_16,1,691,NaN,airplane,bird,4-0-10,0691_eid_dnn_4-0-10_bird_10_n02028035_32557.png,n02028035_32557.png,0.0,-0.43541005,2.2640805,-1.9088281
vit_b_16,1,692,NaN,clock,bicycle,128-0-10,0692_eid_dnn_128-0-10_bicycle_10_n02835271_3298.png,n02835271_3298.png,0.0,-0.3694835,1.001284,-0.969279
vit_b_16,1,693,NaN,elephant,boat,8-0-10,0693_eid_dnn_8-0-10_boat_10_n02951358_15422.png,n02951358_15422.png,0.0,-0.88754827,2.5538113,-2.4334087
vit_b_16,1,694,NaN,cat,cat,1-0-10,0694_eid_dnn_1-0-10_cat_10_n02123597_3398.png,n02123597_3398.png,1.0,2.1745396,0.57375944,1.1319225
vit_b_16,1,695,NaN,boat,boat,4-0-10,0695_eid_dnn_4-0-10_boat_10_n02951358_2330.png,n02951358_2330.png,1.0,2.8846278,0.8203182,1.4596874
vit_b_16,1,696,NaN,keyboard,airplane,128-0-10,0696_eid_dnn_128-0-10_airplane_10_n02690373_6929.png,n02690373_6929.png,0.0,-0.47285724,1.9604299,-1.7205938
